"withinblocktrial","block","running","dotsLeft","dotsRight","rt","resp","cor","cresp","conf_press","cj","RTconf","ev","fb","diff","task","sub","age","gender","handedness","X","difflevel","condition","manip","response","trial","coh"
1,0,"training",57,23,2.14942650000012,"['n']",0,"left","['3']",4,4.15169530000003,"[0.57813519]",1,57,"letter",2,18,"V","R",NA,"medium","control","beta",1,1,"medium"
2,0,"training",64,16,1.50009649999993,"['n']",0,"left","['8']",3,2.36449780000021,"[0.47512988]",0,64,"letter",2,18,"V","R",NA,"easy","control","beta",1,2,"easy"
3,0,"training",64,16,1.23396059999959,"['c']",1,"left","['2']",5,2.08381660000032,"[0.53865809]",100,64,"letter",2,18,"V","R",NA,"easy","control","beta",-1,3,"easy"
4,0,"training",64,16,2.19995209999979,"['n']",0,"left","['3']",4,2.86389609999969,"[0.31591087]",3,64,"letter",2,18,"V","R",NA,"easy","control","beta",1,4,"easy"
5,0,"training",64,16,1.2833028999994,"['c']",1,"left","['3']",4,2.22448850000001,"[0.36693666]",99,64,"letter",2,18,"V","R",NA,"easy","control","beta",-1,5,"easy"
6,0,"training",49,31,1.76624230000016,"['c']",1,"left","['3']",4,2.74377689999983,"[0.42148048]",99,49,"letter",2,18,"V","R",NA,"hard","control","beta",-1,6,"hard"
7,0,"training",49,31,1.28337179999926,"['n']",0,"left","['8']",3,1.53457030000027,"[0.31103829]",1,49,"letter",2,18,"V","R",NA,"hard","control","beta",1,7,"hard"
8,0,"training",16,64,1.38328089999959,"['n']",1,"right","['3']",4,0.736735800000133,"[-0.11471312]",92,64,"letter",2,18,"V","R",NA,"easy","control","beta",1,8,"easy"
9,0,"training",57,23,1.3333947000001,"['n']",0,"left","['3']",4,0.549039499999708,"[0.01425363]",41,57,"letter",2,18,"V","R",NA,"medium","control","beta",1,9,"medium"
10,0,"training",57,23,3.03300390000004,"['c']",1,"left","['8']",3,0.621195500000795,"[-0.063939]",19,57,"letter",2,18,"V","R",NA,"medium","control","beta",-1,10,"medium"
11,0,"training",16,64,1.06658239999979,"['n']",1,"right","['3']",4,0.720773000000008,"[-0.31297603]",100,64,"letter",2,18,"V","R",NA,"easy","control","beta",1,11,"easy"
12,0,"training",49,31,1.18321019999985,"['n']",0,"left","['3']",4,0.683929499999977,"[0.00943744]",45,49,"letter",2,18,"V","R",NA,"hard","control","beta",1,12,"hard"
13,0,"training",23,57,0.899224499999946,"['n']",1,"right","['3']",4,0.835548099999869,"[-0.12543751]",92,57,"letter",2,18,"V","R",NA,"medium","control","beta",1,13,"medium"
14,0,"training",23,57,1.03338069999973,"['n']",1,"right","['3']",4,1.03984820000005,"[-0.29232841]",99,57,"letter",2,18,"V","R",NA,"medium","control","beta",1,14,"medium"
15,0,"training",23,57,0.900130700000773,"['n']",1,"right","['3']",4,0.569905800000015,"[-0.20054024]",99,57,"letter",2,18,"V","R",NA,"medium","control","beta",1,15,"medium"
16,0,"training",57,23,1.46721060000073,"['c']",1,"left","['3']",4,1.13549370000055,"[0.2328297]",98,57,"letter",2,18,"V","R",NA,"medium","control","beta",-1,16,"medium"
17,0,"training",23,57,0.933212300000378,"['n']",1,"right","['3']",4,0.548183800000515,"[-0.06839441]",84,57,"letter",2,18,"V","R",NA,"medium","control","beta",1,17,"medium"
18,0,"training",31,49,1.03459779999957,"['n']",1,"right","['2']",5,1.06866960000025,"[-0.15827656]",94,49,"letter",2,18,"V","R",NA,"hard","control","beta",1,18,"hard"
19,0,"training",49,31,0.966759199999615,"['n']",0,"left","['3']",4,0.626617900000383,"[-0.1125944]",93,49,"letter",2,18,"V","R",NA,"hard","control","beta",1,19,"hard"
20,0,"training",31,49,0.8836024000002,"['n']",1,"right","['2']",5,0.525299399999312,"[-0.1460693]",97,49,"letter",2,18,"V","R",NA,"hard","control","beta",1,20,"hard"
21,0,"training",16,64,0.867125700000543,"['n']",1,"right","['1']",6,0.381021299999702,"[-0.18818945]",100,64,"letter",2,18,"V","R",NA,"easy","control","beta",1,21,"easy"
22,0,"training",31,49,0.85048420000021,"['n']",1,"right","['2']",5,0.595465800000056,"[-0.08881425]",89,49,"letter",2,18,"V","R",NA,"hard","control","beta",1,22,"hard"
23,0,"training",23,57,0.833767099999932,"['n']",1,"right","['1']",6,0.449766400000044,"[-0.15104078]",98,57,"letter",2,18,"V","R",NA,"medium","control","beta",1,23,"medium"
24,0,"training",31,49,1.18394119999994,"['n']",1,"right","['3']",4,0.744265000000269,"[-0.27840084]",100,49,"letter",2,18,"V","R",NA,"hard","control","beta",1,24,"hard"
25,0,"training",57,23,1.41694060000009,"['n']",0,"left","['3']",4,0.569281899999623,"[0.13611942]",4,57,"letter",2,18,"V","R",NA,"medium","control","beta",1,25,"medium"
26,0,"training",16,64,0.849722799999654,"['n']",1,"right","['3']",4,0.343703699999423,"[-0.19712662]",100,64,"letter",2,18,"V","R",NA,"easy","control","beta",1,26,"easy"
27,0,"training",16,64,1.31655899999987,"['n']",1,"right","['8']",3,1.2608579000007,"[-0.41402063]",100,64,"letter",2,18,"V","R",NA,"easy","control","beta",1,27,"easy"
28,0,"training",57,23,1.01637260000007,"['c']",1,"left","['8']",3,0.296525100000508,"[0.16696022]",100,57,"letter",2,18,"V","R",NA,"medium","control","beta",-1,28,"medium"
29,0,"training",31,49,1.38323659999969,"['n']",1,"right","['8']",3,0.445014699999774,"[-0.09379665]",93,49,"letter",2,18,"V","R",NA,"hard","control","beta",1,29,"hard"
30,0,"training",64,16,0.916728700000021,"['c']",1,"left","['8']",3,0.782108500000504,"[0.38965727]",100,64,"letter",2,18,"V","R",NA,"easy","control","beta",-1,30,"easy"
31,0,"training",49,31,2.98307050000039,"['n']",0,"left","['9']",2,0.910755599999902,"[0.14816071]",6,49,"letter",2,18,"V","R",NA,"hard","control","beta",1,31,"hard"
32,0,"training",64,16,0.800188799999887,"['c']",1,"left","['9']",2,0.673755900000288,"[0.25169622]",100,64,"letter",2,18,"V","R",NA,"easy","control","beta",-1,32,"easy"
33,0,"training",23,57,1.6991708000005,"['c']",0,"right","['3']",4,0.569775100000697,"[-0.07817817]",13,57,"letter",2,18,"V","R",NA,"medium","control","beta",-1,33,"medium"
34,0,"training",31,49,0.932705499999429,"['n']",1,"right","['3']",4,0.51716690000012,"[-0.08842367]",90,49,"letter",2,18,"V","R",NA,"hard","control","beta",1,34,"hard"
35,0,"training",16,64,0.983377300000029,"['n']",1,"right","['2']",5,0.368401200000335,"[-0.04368013]",78,64,"letter",2,18,"V","R",NA,"easy","control","beta",1,35,"easy"
0,1,"training",57,23,1.76638619999994,"['n']",0,"left","['3']",4,1.42009510000025,"[0.33628956]",1,57,"letter",2,18,"V","R",NA,"medium","control","beta",1,36,"medium"
1,1,"training",23,57,1.65025109999988,"['c']",0,"right","['8']",3,0.680930800000169,"[-0.0140844]",42,57,"letter",2,18,"V","R",NA,"medium","control","beta",-1,37,"medium"
2,1,"training",23,57,0.81637050000063,"['n']",1,"right","['2']",5,1.90859849999924,"[-0.13109194]",85,57,"letter",2,18,"V","R",NA,"medium","control","beta",1,38,"medium"
3,1,"training",57,23,1.69987709999987,"['c']",1,"left","['3']",4,0.955200299999888,"[0.05660746]",74,57,"letter",2,18,"V","R",NA,"medium","control","beta",-1,39,"medium"
4,1,"training",23,57,1.49985250000009,"['c']",0,"right","['1']",6,0.528410800000529,"[0.06397394]",83,57,"letter",2,18,"V","R",NA,"medium","control","beta",-1,40,"medium"
5,1,"training",49,31,0.999355199999627,"['c']",1,"left","['3']",4,0.906769399999575,"[0.05463959]",74,49,"letter",2,18,"V","R",NA,"hard","control","beta",-1,41,"hard"
6,1,"training",49,31,1.55025430000023,"['c']",1,"left","['1']",6,0.512004300000626,"[0.11124841]",94,49,"letter",2,18,"V","R",NA,"hard","control","beta",-1,42,"hard"
7,1,"training",64,16,1.18322769999941,"['c']",1,"left","['1']",6,0.499687000000449,"[0.12665479]",96,64,"letter",2,18,"V","R",NA,"easy","control","beta",-1,43,"easy"
8,1,"training",64,16,1.09940540000025,"['c']",1,"left","['2']",5,1.08340899999985,"[0.28639727]",99,64,"letter",2,18,"V","R",NA,"easy","control","beta",-1,44,"easy"
9,1,"training",16,64,1.41622000000007,"['n']",1,"right","['2']",5,0.76669099999981,"[-0.33683489]",100,64,"letter",2,18,"V","R",NA,"easy","control","beta",1,45,"easy"
10,1,"training",23,57,0.96728129999974,"['n']",1,"right","['2']",5,0.400308399999631,"[-0.03537253]",73,57,"letter",2,18,"V","R",NA,"medium","control","beta",1,46,"medium"
11,1,"training",64,16,1.18331880000005,"['c']",1,"left","['2']",5,0.440763500000685,"[0.15944689]",99,64,"letter",2,18,"V","R",NA,"easy","control","beta",-1,47,"easy"
12,1,"training",64,16,1.51596990000053,"['c']",1,"left","['2']",5,0.41798209999979,"[0.08151597]",91,64,"letter",2,18,"V","R",NA,"easy","control","beta",-1,48,"easy"
13,1,"training",31,49,1.08344229999966,"['c']",0,"right","['2']",5,0.333295200000066,"[0.02986087]",72,49,"letter",2,18,"V","R",NA,"hard","control","beta",-1,49,"hard"
14,1,"training",57,23,2.46664039999996,"['c']",1,"left","['8']",3,0.980869199999688,"[0.23610807]",99,57,"letter",2,18,"V","R",NA,"medium","control","beta",-1,50,"medium"
15,1,"training",57,23,2.28363970000009,"['c']",1,"left","['8']",3,0.921390299999985,"[0.21345794]",98,57,"letter",2,18,"V","R",NA,"medium","control","beta",-1,51,"medium"
16,1,"training",49,31,2.26648109999951,"['n']",0,"left","['8']",3,0.384576099999322,"[-0.06412338]",87,49,"letter",2,18,"V","R",NA,"hard","control","beta",1,52,"hard"
17,1,"training",57,23,3.09965450000072,"['c']",1,"left","['3']",4,1.34138110000004,"[0.30898578]",99,57,"letter",2,18,"V","R",NA,"medium","control","beta",-1,53,"medium"
18,1,"training",16,64,1.01619780000055,"['n']",1,"right","['2']",5,0.630478799999764,"[-0.13875548]",96,64,"letter",2,18,"V","R",NA,"easy","control","beta",1,54,"easy"
19,1,"training",31,49,1.10016850000011,"['n']",1,"right","['1']",6,0.360975499999768,"[-0.21142525]",100,49,"letter",2,18,"V","R",NA,"hard","control","beta",1,55,"hard"
20,1,"training",49,31,3.06623310000032,"['n']",0,"left","['1']",6,0.263567899999543,"[-0.04950114]",85,49,"letter",2,18,"V","R",NA,"hard","control","beta",1,56,"hard"
21,1,"training",23,57,2.29996039999969,"['n']",1,"right","['3']",4,0.584747700000662,"[-0.05747148]",79,57,"letter",2,18,"V","R",NA,"medium","control","beta",1,57,"medium"
22,1,"training",31,49,1.03333780000048,"['c']",0,"right","['8']",3,0.846928500000104,"[-0.19783692]",2,49,"letter",2,18,"V","R",NA,"hard","control","beta",-1,58,"hard"
23,1,"training",31,49,1.40001220000067,"['n']",1,"right","['3']",4,0.461027899999863,"[-0.02145926]",64,49,"letter",2,18,"V","R",NA,"hard","control","beta",1,59,"hard"
24,1,"training",23,57,1.00138400000014,"['n']",1,"right","['2']",5,0.442117999999937,"[-0.07747309]",89,57,"letter",2,18,"V","R",NA,"medium","control","beta",1,60,"medium"
25,1,"training",16,64,1.08319720000054,"['n']",1,"right","['2']",5,0.388512700000319,"[-0.1393078]",98,64,"letter",2,18,"V","R",NA,"easy","control","beta",1,61,"easy"
26,1,"training",16,64,0.983337199999369,"['n']",1,"right","['1']",6,0.276646400000573,"[-0.11118245]",98,64,"letter",2,18,"V","R",NA,"easy","control","beta",1,62,"easy"
27,1,"training",31,49,0.916466699999546,"['n']",1,"right","['1']",6,0.284373999999843,"[-0.10167076]",97,49,"letter",2,18,"V","R",NA,"hard","control","beta",1,63,"hard"
28,1,"training",16,64,0.949879800000417,"['n']",1,"right","['1']",6,0.322217799999635,"[-0.17612983]",100,64,"letter",2,18,"V","R",NA,"easy","control","beta",1,64,"easy"
29,1,"training",57,23,2.21663329999956,"['c']",1,"left","['8']",3,0.787262300000293,"[0.16851847]",97,57,"letter",2,18,"V","R",NA,"medium","control","beta",-1,65,"medium"
30,1,"training",16,64,1.08332380000047,"['n']",1,"right","['2']",5,1.29576450000059,"[-0.31166909]",99,64,"letter",2,18,"V","R",NA,"easy","control","beta",1,66,"easy"
31,1,"training",31,49,1.11634500000036,"['n']",1,"right","['2']",5,0.294362000000547,"[-0.11878978]",98,49,"letter",2,18,"V","R",NA,"hard","control","beta",1,67,"hard"
32,1,"training",64,16,0.850106200000482,"['n']",0,"left","['1']",6,0.240083200000299,"[-0.03501184]",78,64,"letter",2,18,"V","R",NA,"easy","control","beta",1,68,"easy"
33,1,"training",49,31,1.98332410000057,"['c']",1,"left","['8']",3,0.46239930000047,"[0.03944383]",74,49,"letter",2,18,"V","R",NA,"hard","control","beta",-1,69,"hard"
34,1,"training",49,31,2.24906999999985,"['c']",1,"left","['9']",2,0.537570100000266,"[0.13950803]",97,49,"letter",2,18,"V","R",NA,"hard","control","beta",-1,70,"hard"
35,1,"training",64,16,2.61711529999957,"['c']",1,"left","['3']",4,0.78683699999965,"[0.11617109]",91,64,"letter",2,18,"V","R",NA,"easy","control","beta",-1,71,"easy"
0,2,"training",31,49,1.28331829999934,"['n']",1,"right","['8']",3,0.833744099999421,"[-0.26152032]",99,49,"letter",2,18,"V","R",NA,"hard","control","beta",1,72,"hard"
1,2,"training",57,23,1.10010629999942,"['c']",1,"left","['3']",4,0.459789900000033,"[0.06367808]",84,57,"letter",2,18,"V","R",NA,"medium","control","beta",-1,73,"medium"
2,2,"training",57,23,2.26627999999982,"['n']",0,"left","['9']",2,0.566121400000156,"[0.11341556]",6,57,"letter",2,18,"V","R",NA,"medium","control","beta",1,74,"medium"
3,2,"training",23,57,0.867261400000643,"['n']",1,"right","['2']",5,0.804318299999977,"[-0.13082235]",93,57,"letter",2,18,"V","R",NA,"medium","control","beta",1,75,"medium"
4,2,"training",49,31,1.56590189999952,"['c']",1,"left","['8']",3,1.46916989999954,"[0.01396543]",55,49,"letter",2,18,"V","R",NA,"hard","control","beta",-1,76,"hard"
5,2,"training",49,31,1.78254540000034,"['n']",0,"left","['2']",5,0.578282000000399,"[0.11763922]",6,49,"letter",2,18,"V","R",NA,"hard","control","beta",1,77,"hard"
6,2,"training",49,31,1.48230129999956,"['c']",1,"left","['2']",5,0.439191299999948,"[0.01316072]",59,49,"letter",2,18,"V","R",NA,"hard","control","beta",-1,78,"hard"
7,2,"training",31,49,1.91685580000012,"['n']",1,"right","['2']",5,0.624611299999742,"[-0.06603352]",82,49,"letter",2,18,"V","R",NA,"hard","control","beta",1,79,"hard"
8,2,"training",64,16,2.14980549999927,"['n']",0,"left","['3']",4,0.521119400000316,"[0.07734157]",13,64,"letter",2,18,"V","R",NA,"easy","control","beta",1,80,"easy"
9,2,"training",31,49,0.933089899999686,"['n']",1,"right","['3']",4,0.486420100000032,"[-0.09089345]",91,49,"letter",2,18,"V","R",NA,"hard","control","beta",1,81,"hard"
10,2,"training",64,16,1.06668009999976,"['c']",1,"left","['2']",5,0.926973100000396,"[0.22187504]",98,64,"letter",2,18,"V","R",NA,"easy","control","beta",-1,82,"easy"
11,2,"training",16,64,1.06572469999992,"['n']",1,"right","['2']",5,0.326978699999927,"[-0.21772001]",100,64,"letter",2,18,"V","R",NA,"easy","control","beta",1,83,"easy"
12,2,"training",57,23,1.3333262999995,"['c']",1,"left","['2']",5,0.364108800000395,"[0.09319967]",94,57,"letter",2,18,"V","R",NA,"medium","control","beta",-1,84,"medium"
13,2,"training",23,57,1.09996800000044,"['n']",1,"right","['2']",5,0.201012700000319,"[-0.01744897]",67,57,"letter",2,18,"V","R",NA,"medium","control","beta",1,85,"medium"
14,2,"training",23,57,0.783796599999732,"['n']",1,"right","['2']",5,0.329583400000047,"[-0.10366195]",96,57,"letter",2,18,"V","R",NA,"medium","control","beta",1,86,"medium"
15,2,"training",49,31,1.74995519999993,"['c']",1,"left","['2']",5,1.34191829999963,"[0.26490703]",98,49,"letter",2,18,"V","R",NA,"hard","control","beta",-1,87,"hard"
16,2,"training",16,64,0.999696900000345,"['n']",1,"right","['1']",6,0.663867000000209,"[-0.15939214]",97,64,"letter",2,18,"V","R",NA,"easy","control","beta",1,88,"easy"
17,2,"training",23,57,0.816575499999999,"['n']",1,"right","['1']",6,0.48439370000051,"[-0.10135914]",93,57,"letter",2,18,"V","R",NA,"medium","control","beta",1,89,"medium"
18,2,"training",16,64,0.816746800000146,"['n']",1,"right","['1']",6,0.2312079000003,"[-0.06651241]",92,64,"letter",2,18,"V","R",NA,"easy","control","beta",1,90,"easy"
19,2,"training",31,49,1.38273289999961,"['c']",0,"right","['9']",2,0.814197400000012,"[-0.17546882]",3,49,"letter",2,18,"V","R",NA,"hard","control","beta",-1,91,"hard"
20,2,"training",49,31,0.799709500000063,"['n']",0,"left","['1']",6,0.213417599999957,"[-0.01763664]",67,49,"letter",2,18,"V","R",NA,"hard","control","beta",1,92,"hard"
21,2,"training",31,49,0.88394210000024,"['n']",1,"right","['2']",5,0.256949999999961,"[-0.16202314]",100,49,"letter",2,18,"V","R",NA,"hard","control","beta",1,93,"hard"
22,2,"training",57,23,1.21680660000038,"['c']",1,"left","['3']",4,1.16538719999971,"[0.17553694]",95,57,"letter",2,18,"V","R",NA,"medium","control","beta",-1,94,"medium"
23,2,"training",64,16,0.89997779999976,"['n']",0,"left","['2']",5,0.529625600000145,"[0.04582757]",24,64,"letter",2,18,"V","R",NA,"easy","control","beta",1,95,"easy"
24,2,"training",64,16,1.08347800000047,"['c']",1,"left","['2']",5,0.488872400000218,"[0.14966652]",98,64,"letter",2,18,"V","R",NA,"easy","control","beta",-1,96,"easy"
25,2,"training",31,49,1.0165590000006,"['n']",1,"right","['1']",6,0.58004020000044,"[-0.04166641]",73,49,"letter",2,18,"V","R",NA,"hard","control","beta",1,97,"hard"
26,2,"training",16,64,1.66669840000031,"['n']",1,"right","['3']",4,0.945767899999737,"[-0.18864336]",97,64,"letter",2,18,"V","R",NA,"easy","control","beta",1,98,"easy"
27,2,"training",64,16,1.71618620000027,"['c']",1,"left","['8']",3,0.654980900000737,"[0.27316486]",100,64,"letter",2,18,"V","R",NA,"easy","control","beta",-1,99,"easy"
28,2,"training",49,31,1.01659329999984,"['c']",1,"left","['2']",5,0.643368699999883,"[0.03932635]",71,49,"letter",2,18,"V","R",NA,"hard","control","beta",-1,100,"hard"
29,2,"training",23,57,1.11626949999936,"['n']",1,"right","['2']",5,0.388425000000097,"[-0.09798391]",94,57,"letter",2,18,"V","R",NA,"medium","control","beta",1,101,"medium"
30,2,"training",16,64,0.766757899999902,"['n']",1,"right","['1']",6,0.237641500000791,"[-0.10248087]",98,64,"letter",2,18,"V","R",NA,"easy","control","beta",1,102,"easy"
31,2,"training",57,23,1.51638749999984,"['c']",1,"left","['2']",5,0.33457559999988,"[0.02481388]",68,57,"letter",2,18,"V","R",NA,"medium","control","beta",-1,103,"medium"
32,2,"training",23,57,0.866281999999956,"['n']",1,"right","['1']",6,0.262290800000301,"[-0.03375142]",77,57,"letter",2,18,"V","R",NA,"medium","control","beta",1,104,"medium"
33,2,"training",57,23,1.88296290000017,"['c']",1,"left","['8']",3,1.17622120000033,"[0.09239034]",82,57,"letter",2,18,"V","R",NA,"medium","control","beta",-1,105,"medium"
34,2,"training",16,64,1.01663399999961,"['n']",1,"right","['1']",6,0.279902100000072,"[-0.01079718]",59,64,"letter",2,18,"V","R",NA,"easy","control","beta",1,106,"easy"
35,2,"training",64,16,1.53224150000005,"['c']",1,"left","['2']",5,0.646234599999843,"[0.07231208]",83,64,"letter",2,18,"V","R",NA,"easy","control","beta",-1,107,"easy"
0,0,"training",36,44,1.06676890000017,"['n']",1,"right","['2']",5,4.48356869999952,"[-0.38492331]",94,44,"colour",2,18,"V","R",NA,"hard","minus","beta",1,0,"hard"
1,0,"training",33,47,2.61698829999932,"['n']",1,"right","['2']",5,0.558742100000018,"[-0.09053373]",70,47,"colour",2,18,"V","R",NA,"medium","minus","beta",1,1,"medium"
2,0,"training",36,44,1.06725259999985,"['n']",1,"right","['3']",4,0.309089800000038,"[-0.06939743]",61,44,"colour",2,18,"V","R",NA,"hard","minus","beta",1,2,"hard"
3,0,"training",36,44,0.999303399999917,"['c']",0,"right","['8']",3,0.42420409999977,"[0.1233522]",87,44,"colour",2,18,"V","R",NA,"hard","minus","beta",-1,3,"hard"
4,0,"training",36,44,1.28349069999967,"['c']",0,"right","['8']",3,0.235147100000177,"[0.09648391]",82,44,"colour",2,18,"V","R",NA,"hard","minus","beta",-1,4,"hard"
5,0,"training",27,53,0.783560899999429,"['n']",1,"right","['3']",4,0.346018799999911,"[-0.08756272]",73,53,"colour",2,18,"V","R",NA,"easy","minus","beta",1,5,"easy"
6,0,"training",47,33,0.866971499999636,"['c']",1,"left","['2']",5,0.337210800000321,"[0.09539309]",77,47,"colour",2,18,"V","R",NA,"medium","minus","beta",-1,6,"medium"
7,0,"training",47,33,0.866673800000171,"['c']",1,"left","['2']",5,0.296345599999768,"[0.05170259]",47,47,"colour",2,18,"V","R",NA,"medium","minus","beta",-1,7,"medium"
8,0,"training",33,47,1.50009990000035,"['n']",1,"right","['3']",4,0.792001599999821,"[-0.15023249]",87,47,"colour",2,18,"V","R",NA,"medium","minus","beta",1,8,"medium"
9,0,"training",44,36,0.900568600000042,"['c']",1,"left","['3']",4,0.219708999999966,"[0.06777396]",62,44,"colour",2,18,"V","R",NA,"hard","minus","beta",-1,9,"hard"
10,0,"training",27,53,1.23323460000029,"['c']",0,"right","['3']",4,0.32885830000032,"[-0.05961069]",3,53,"colour",2,18,"V","R",NA,"easy","minus","beta",-1,10,"easy"
11,0,"training",27,53,0.816808600000513,"['n']",1,"right","['3']",4,0.258469599999444,"[-0.02702925]",27,53,"colour",2,18,"V","R",NA,"easy","minus","beta",1,11,"easy"
12,0,"training",33,47,0.833573799999613,"['c']",0,"right","['3']",4,0.222200100000009,"[-0.07105033]",1,47,"colour",2,18,"V","R",NA,"medium","minus","beta",-1,12,"medium"
13,0,"training",47,33,0.833612700000231,"['c']",1,"left","['3']",4,0.235150600000452,"[0.01869046]",20,47,"colour",2,18,"V","R",NA,"medium","minus","beta",-1,13,"medium"
14,0,"training",47,33,1.23337849999916,"['c']",1,"left","['2']",5,0.296194099999411,"[0.08652491]",74,47,"colour",2,18,"V","R",NA,"medium","minus","beta",-1,14,"medium"
15,0,"training",53,27,1.05043699999987,"['c']",1,"left","['2']",5,0.249953399999868,"[0.00638501]",15,53,"colour",2,18,"V","R",NA,"easy","minus","beta",-1,15,"easy"
16,0,"training",47,33,1.19984349999959,"['c']",1,"left","['3']",4,0.231682900000123,"[0.09497875]",81,47,"colour",2,18,"V","R",NA,"medium","minus","beta",-1,16,"medium"
17,0,"training",27,53,0.933844700000009,"['n']",1,"right","['3']",4,0.272613599999204,"[-0.14372326]",95,53,"colour",2,18,"V","R",NA,"easy","minus","beta",1,17,"easy"
18,0,"training",53,27,1.00033370000074,"['c']",1,"left","['3']",4,0.229076599999644,"[0.15688928]",98,53,"colour",2,18,"V","R",NA,"easy","minus","beta",-1,18,"easy"
19,0,"training",53,27,0.716480399999455,"['c']",1,"left","['2']",5,0.262753699999848,"[0.0066405]",15,53,"colour",2,18,"V","R",NA,"easy","minus","beta",-1,19,"easy"
20,0,"training",33,47,0.800044700000399,"['n']",1,"right","['3']",4,0.259664199999861,"[-0.13032689]",93,47,"colour",2,18,"V","R",NA,"medium","minus","beta",1,20,"medium"
21,0,"training",27,53,0.916763399999581,"['n']",1,"right","['3']",4,0.236095700000078,"[-0.05970716]",54,53,"colour",2,18,"V","R",NA,"easy","minus","beta",1,21,"easy"
22,0,"training",44,36,0.967265600000246,"['c']",1,"left","['3']",4,0.227029000000584,"[0.07219798]",65,44,"colour",2,18,"V","R",NA,"hard","minus","beta",-1,22,"hard"
23,0,"training",44,36,1.06627140000001,"['c']",1,"left","['2']",5,0.198846100000083,"[-0.01226512]",6,44,"colour",2,18,"V","R",NA,"hard","minus","beta",-1,23,"hard"
24,0,"training",33,47,1.06680469999992,"['n']",1,"right","['3']",4,0.219619700000294,"[-0.10206043]",86,47,"colour",2,18,"V","R",NA,"medium","minus","beta",1,24,"medium"
25,0,"training",33,47,1.05023529999926,"['c']",0,"right","['3']",4,0.208146799999668,"[0.04086217]",36,47,"colour",2,18,"V","R",NA,"medium","minus","beta",-1,25,"medium"
26,0,"training",47,33,0.816728999999214,"['c']",1,"left","['3']",4,0.110657899999751,"[0.07982621]",79,47,"colour",2,18,"V","R",NA,"medium","minus","beta",-1,26,"medium"
27,0,"training",53,27,0.816974700000173,"['c']",1,"left","['3']",4,0.176869199999601,"[0.08958926]",81,53,"colour",2,18,"V","R",NA,"easy","minus","beta",-1,27,"easy"
28,0,"training",27,53,0.783546799999385,"['n']",1,"right","['3']",4,0.193815600000562,"[-0.04728441]",42,53,"colour",2,18,"V","R",NA,"easy","minus","beta",1,28,"easy"
29,0,"training",44,36,0.733362199999647,"['c']",1,"left","['2']",5,0.244110300000102,"[0.03904552]",35,44,"colour",2,18,"V","R",NA,"hard","minus","beta",-1,29,"hard"
30,0,"training",36,44,1.33357629999955,"['c']",0,"right","['3']",4,0.0926461999997628,"[0.03525582]",23,44,"colour",2,18,"V","R",NA,"hard","minus","beta",-1,30,"hard"
31,0,"training",44,36,1.56687539999984,"['c']",1,"left","['3']",4,0.289725800000269,"[0.08593728]",73,44,"colour",2,18,"V","R",NA,"hard","minus","beta",-1,31,"hard"
32,0,"training",44,36,1.13299150000057,"['c']",1,"left","['3']",4,1.37614260000009,"[0.1315948]",76,44,"colour",2,18,"V","R",NA,"hard","minus","beta",-1,32,"hard"
33,0,"training",36,44,1.11655789999986,"['c']",0,"right","['8']",3,0.723798699999861,"[0.0551592]",50,44,"colour",2,18,"V","R",NA,"hard","minus","beta",-1,33,"hard"
34,0,"training",53,27,1.21669459999976,"['c']",1,"left","['3']",4,0.189714999999524,"[0.07165423]",66,53,"colour",2,18,"V","R",NA,"easy","minus","beta",-1,34,"easy"
35,0,"training",53,27,0.999688899999455,"['c']",1,"left","['2']",5,0.293404099999862,"[0.07560203]",66,53,"colour",2,18,"V","R",NA,"easy","minus","beta",-1,35,"easy"
0,1,"training",44,36,1.06613900000048,"['c']",1,"left","['3']",4,0.225134300000718,"[0.1121028]",89,44,"colour",2,18,"V","R",NA,"hard","minus","beta",-1,36,"hard"
1,1,"training",44,36,0.96727220000048,"['c']",1,"left","['8']",3,0.664955799999916,"[0.16133107]",91,44,"colour",2,18,"V","R",NA,"hard","minus","beta",-1,37,"hard"
2,1,"training",47,33,1.65000599999985,"['n']",0,"left","['9']",2,0.372210900000027,"[0.06491519]",3,47,"colour",2,18,"V","R",NA,"medium","minus","beta",1,38,"medium"
3,1,"training",53,27,0.899775699999736,"['c']",1,"left","['2']",5,0.232340200000181,"[0.07399527]",67,53,"colour",2,18,"V","R",NA,"easy","minus","beta",-1,39,"easy"
4,1,"training",27,53,0.900002299999869,"['n']",1,"right","['1']",6,0.402708300000086,"[-0.2390625]",99,53,"colour",2,18,"V","R",NA,"easy","minus","beta",1,40,"easy"
5,1,"training",27,53,0.800293199999942,"['n']",1,"right","['1']",6,0.153757799999767,"[-0.03706693]",30,53,"colour",2,18,"V","R",NA,"easy","minus","beta",1,41,"easy"
6,1,"training",33,47,0.966531799999757,"['n']",1,"right","['2']",5,0.148173000000497,"[-0.0726949]",69,47,"colour",2,18,"V","R",NA,"medium","minus","beta",1,42,"medium"
7,1,"training",36,44,0.866642799999681,"['n']",1,"right","['2']",5,0.211335700000745,"[-0.13554181]",96,44,"colour",2,18,"V","R",NA,"hard","minus","beta",1,43,"hard"
8,1,"training",53,27,0.966344600000411,"['c']",1,"left","['2']",5,0.23557399999936,"[0.1646407]",98,53,"colour",2,18,"V","R",NA,"easy","minus","beta",-1,44,"easy"
9,1,"training",27,53,0.782910100000663,"['n']",1,"right","['2']",5,0.218421500000659,"[-0.06301615]",57,53,"colour",2,18,"V","R",NA,"easy","minus","beta",1,45,"easy"
10,1,"training",44,36,1.26668939999945,"['c']",1,"left","['2']",5,0.198950300000433,"[0.06778493]",62,44,"colour",2,18,"V","R",NA,"hard","minus","beta",-1,46,"hard"
11,1,"training",33,47,0.766999999999825,"['n']",1,"right","['2']",5,0.183701400000245,"[-0.12714473]",95,47,"colour",2,18,"V","R",NA,"medium","minus","beta",1,47,"medium"
12,1,"training",53,27,0.850056100000074,"['c']",1,"left","['2']",5,0.262145100000453,"[0.10225403]",84,53,"colour",2,18,"V","R",NA,"easy","minus","beta",-1,48,"easy"
13,1,"training",53,27,0.866968100000122,"['c']",1,"left","['2']",5,0.128544099999999,"[0.04446408]",36,53,"colour",2,18,"V","R",NA,"easy","minus","beta",-1,49,"easy"
14,1,"training",33,47,0.766082899999674,"['n']",1,"right","['2']",5,0.132114000000001,"[-0.05532565]",50,47,"colour",2,18,"V","R",NA,"medium","minus","beta",1,50,"medium"
15,1,"training",44,36,0.967086100000415,"['n']",0,"left","['2']",5,0.063908199999787,"[-0.11071888]",98,44,"colour",2,18,"V","R",NA,"hard","minus","beta",1,51,"hard"
16,1,"training",36,44,0.766860099999576,"['n']",1,"right","['2']",5,0.134144900000138,"[-0.07634465]",73,44,"colour",2,18,"V","R",NA,"hard","minus","beta",1,52,"hard"
17,1,"training",36,44,0.716735300000437,"['n']",1,"right","['2']",5,0.155755299999328,"[-0.04003816]",33,44,"colour",2,18,"V","R",NA,"hard","minus","beta",1,53,"hard"
18,1,"training",44,36,1.08348039999964,"['c']",1,"left","['2']",5,0.145397799999955,"[0.09625572]",87,44,"colour",2,18,"V","R",NA,"hard","minus","beta",-1,54,"hard"
19,1,"training",27,53,1.08238770000025,"['n']",1,"right","['2']",5,0.167832299999645,"[-0.05993091]",55,53,"colour",2,18,"V","R",NA,"easy","minus","beta",1,55,"easy"
20,1,"training",27,53,0.700541700000031,"['n']",1,"right","['2']",5,0.189015199999631,"[-0.03477218]",30,53,"colour",2,18,"V","R",NA,"easy","minus","beta",1,56,"easy"
21,1,"training",44,36,0.883371299999453,"['c']",1,"left","['2']",5,0.185331499999847,"[0.03904995]",33,44,"colour",2,18,"V","R",NA,"hard","minus","beta",-1,57,"hard"
22,1,"training",27,53,0.666791199999352,"['n']",1,"right","['2']",5,0.158929600000192,"[-0.11603781]",94,53,"colour",2,18,"V","R",NA,"easy","minus","beta",1,58,"easy"
23,1,"training",53,27,1.39892390000023,"['c']",1,"left","['2']",5,0.248087599999963,"[0.09504282]",81,53,"colour",2,18,"V","R",NA,"easy","minus","beta",-1,59,"easy"
24,1,"training",47,33,1.81672799999978,"['c']",1,"left","['2']",5,0.204840399999739,"[0.08883136]",79,47,"colour",2,18,"V","R",NA,"medium","minus","beta",-1,60,"medium"
25,1,"training",33,47,0.933066800000233,"['n']",1,"right","['2']",5,0.199154299999464,"[-0.11388615]",91,47,"colour",2,18,"V","R",NA,"medium","minus","beta",1,61,"medium"
26,1,"training",36,44,0.900085700000091,"['c']",0,"right","['2']",5,0.0824020999998538,"[-0.01140712]",2,44,"colour",2,18,"V","R",NA,"hard","minus","beta",-1,62,"hard"
27,1,"training",36,44,0.799593200000345,"['n']",1,"right","['2']",5,0.214661699999851,"[-0.08796619]",78,44,"colour",2,18,"V","R",NA,"hard","minus","beta",1,63,"hard"
28,1,"training",47,33,0.999985200000083,"['c']",1,"left","['3']",4,0.253791600000113,"[0.11543402]",89,47,"colour",2,18,"V","R",NA,"medium","minus","beta",-1,64,"medium"
29,1,"training",47,33,0.916534500000125,"['c']",1,"left","['3']",4,0.198065399999905,"[0.13083155]",95,47,"colour",2,18,"V","R",NA,"medium","minus","beta",-1,65,"medium"
30,1,"training",33,47,2.36580400000003,"['c']",0,"right","['3']",4,0.231089699999757,"[-0.06475827]",1,47,"colour",2,18,"V","R",NA,"medium","minus","beta",-1,66,"medium"
31,1,"training",47,33,0.916753700000299,"['c']",1,"left","['3']",4,0.208889399999862,"[0.08252571]",74,47,"colour",2,18,"V","R",NA,"medium","minus","beta",-1,67,"medium"
32,1,"training",36,44,1.08340789999966,"['n']",1,"right","['3']",4,0.324675999999272,"[0.00870616]",12,44,"colour",2,18,"V","R",NA,"hard","minus","beta",1,68,"hard"
33,1,"training",53,27,0.866423700000269,"['c']",1,"left","['2']",5,0.252435100000184,"[0.05263098]",47,53,"colour",2,18,"V","R",NA,"easy","minus","beta",-1,69,"easy"
34,1,"training",33,47,0.900934899999811,"['n']",1,"right","['2']",5,0.214238000000478,"[-0.05514752]",50,47,"colour",2,18,"V","R",NA,"medium","minus","beta",1,70,"medium"
35,1,"training",47,33,0.817369800000051,"['c']",1,"left","['3']",4,0.228310699999383,"[0.15312985]",98,47,"colour",2,18,"V","R",NA,"medium","minus","beta",-1,71,"medium"
0,2,"training",27,53,0.750146399999721,"['n']",1,"right","['3']",4,0.760850399999981,"[-0.2289941]",97,53,"colour",2,18,"V","R",NA,"easy","minus","beta",1,72,"easy"
1,2,"training",44,36,0.733774000000267,"['c']",1,"left","['3']",4,0.180458900000303,"[0.0217999]",19,44,"colour",2,18,"V","R",NA,"hard","minus","beta",-1,73,"hard"
2,2,"training",36,44,0.883441799999673,"['n']",1,"right","['3']",4,0.257774400000017,"[-0.08928615]",77,44,"colour",2,18,"V","R",NA,"hard","minus","beta",1,74,"hard"
3,2,"training",47,33,0.833309000000554,"['c']",1,"left","['3']",4,0.189349199999924,"[0.09106986]",81,47,"colour",2,18,"V","R",NA,"medium","minus","beta",-1,75,"medium"
4,2,"training",36,44,1.49936320000052,"['n']",1,"right","['3']",4,0.145129600000473,"[-0.05194661]",46,44,"colour",2,18,"V","R",NA,"hard","minus","beta",1,76,"hard"
5,2,"training",47,33,0.80006400000002,"['c']",1,"left","['3']",4,0.098737300000721,"[0.11397116]",97,47,"colour",2,18,"V","R",NA,"medium","minus","beta",-1,77,"medium"
6,2,"training",47,33,0.700429999999869,"['c']",1,"left","['3']",4,0.122427499999503,"[0.0480613]",41,47,"colour",2,18,"V","R",NA,"medium","minus","beta",-1,78,"medium"
7,2,"training",36,44,0.933357799999612,"['n']",1,"right","['3']",4,0.247360999999728,"[-0.07368618]",66,44,"colour",2,18,"V","R",NA,"hard","minus","beta",1,79,"hard"
8,2,"training",27,53,0.816420399999515,"['n']",1,"right","['3']",4,0.116471400000592,"[-0.04802595]",40,53,"colour",2,18,"V","R",NA,"easy","minus","beta",1,80,"easy"
9,2,"training",27,53,0.799730599999748,"['n']",1,"right","['3']",4,0.0874190000004091,"[-0.04374651]",33,53,"colour",2,18,"V","R",NA,"easy","minus","beta",1,81,"easy"
10,2,"training",53,27,0.783791799999562,"['c']",1,"left","['2']",5,0.188294900000074,"[0.11174321]",91,53,"colour",2,18,"V","R",NA,"easy","minus","beta",-1,82,"easy"
11,2,"training",47,33,0.949816300000748,"['c']",1,"left","['2']",5,0.118047500000102,"[0.02875262]",20,47,"colour",2,18,"V","R",NA,"medium","minus","beta",-1,83,"medium"
12,2,"training",44,36,1.21717430000081,"['c']",1,"left","['3']",4,0.18478690000029,"[0.07883546]",73,44,"colour",2,18,"V","R",NA,"hard","minus","beta",-1,84,"hard"
13,2,"training",33,47,0.816528899999867,"['n']",1,"right","['3']",4,0.184205300000031,"[-0.10507705]",89,47,"colour",2,18,"V","R",NA,"medium","minus","beta",1,85,"medium"
14,2,"training",33,47,1.10015830000066,"['n']",1,"right","['3']",4,0.1246112000008,"[-0.05649257]",51,47,"colour",2,18,"V","R",NA,"medium","minus","beta",1,86,"medium"
15,2,"training",53,27,0.81708990000061,"['c']",1,"left","['2']",5,0.254111399999601,"[0.08301954]",73,53,"colour",2,18,"V","R",NA,"easy","minus","beta",-1,87,"easy"
16,2,"training",33,47,1.21705180000026,"['n']",1,"right","['2']",5,0.282306800000697,"[-0.07585192]",67,47,"colour",2,18,"V","R",NA,"medium","minus","beta",1,88,"medium"
17,2,"training",36,44,1.26601799999935,"['c']",0,"right","['8']",3,0.676296900000125,"[0.05814547]",51,44,"colour",2,18,"V","R",NA,"hard","minus","beta",-1,89,"hard"
18,2,"training",53,27,0.900482299999567,"['c']",1,"left","['2']",5,0.364492200000313,"[0.15865586]",96,53,"colour",2,18,"V","R",NA,"easy","minus","beta",-1,90,"easy"
19,2,"training",44,36,0.866248300000734,"['c']",1,"left","['2']",5,0.163485899999614,"[0.03283167]",27,44,"colour",2,18,"V","R",NA,"hard","minus","beta",-1,91,"hard"
20,2,"training",33,47,0.733472799999618,"['n']",1,"right","['2']",5,0.134459799999604,"[-0.04653154]",39,47,"colour",2,18,"V","R",NA,"medium","minus","beta",1,92,"medium"
21,2,"training",36,44,1.31624170000032,"['n']",1,"right","['2']",5,0.0683704000002763,"[-0.07416679]",78,44,"colour",2,18,"V","R",NA,"hard","minus","beta",1,93,"hard"
22,2,"training",44,36,1.00015500000063,"['c']",1,"left","['3']",4,0.20955849999973,"[0.01840135]",19,44,"colour",2,18,"V","R",NA,"hard","minus","beta",-1,94,"hard"
23,2,"training",53,27,0.716706400000476,"['c']",1,"left","['2']",5,0.147753300000659,"[0.0321286]",25,53,"colour",2,18,"V","R",NA,"easy","minus","beta",-1,95,"easy"
24,2,"training",53,27,0.749917000000096,"['c']",1,"left","['2']",5,0.135118300000613,"[0.09280093]",86,53,"colour",2,18,"V","R",NA,"easy","minus","beta",-1,96,"easy"
25,2,"training",27,53,0.999935599999844,"['n']",1,"right","['2']",5,0.0980584999997518,"[-0.07048993]",70,53,"colour",2,18,"V","R",NA,"easy","minus","beta",1,97,"easy"
26,2,"training",44,36,0.733016799999859,"['c']",1,"left","['2']",5,0.152093900000182,"[0.03591917]",29,44,"colour",2,18,"V","R",NA,"hard","minus","beta",-1,98,"hard"
27,2,"training",47,33,1.43375859999924,"['c']",1,"left","['3']",4,0.256483399999524,"[0.01099396]",17,47,"colour",2,18,"V","R",NA,"medium","minus","beta",-1,99,"medium"
28,2,"training",27,53,0.716693399999713,"['n']",1,"right","['3']",4,0.128597400000217,"[-0.06991642]",67,53,"colour",2,18,"V","R",NA,"easy","minus","beta",1,100,"easy"
29,2,"training",44,36,0.88259459999972,"['c']",1,"left","['2']",5,0.12773449999986,"[0.01095831]",10,44,"colour",2,18,"V","R",NA,"hard","minus","beta",-1,101,"hard"
30,2,"training",27,53,0.71682839999994,"['n']",1,"right","['3']",4,0.245541599999342,"[-0.03919848]",36,53,"colour",2,18,"V","R",NA,"easy","minus","beta",1,102,"easy"
31,2,"training",33,47,0.716648099999475,"['n']",1,"right","['2']",5,0.0544256999992285,"[-0.04457866]",30,47,"colour",2,18,"V","R",NA,"medium","minus","beta",1,103,"medium"
32,2,"training",53,27,0.800131299999521,"['c']",1,"left","['3']",4,0.251524700000118,"[0.20133769]",99,53,"colour",2,18,"V","R",NA,"easy","minus","beta",-1,104,"easy"
33,2,"training",33,47,0.949721099999806,"['n']",1,"right","['3']",4,0.146862699999474,"[-0.02434029]",19,47,"colour",2,18,"V","R",NA,"medium","minus","beta",1,105,"medium"
34,2,"training",47,33,0.900046499999917,"['c']",1,"left","['3']",4,0.112780999999814,"[0.10195068]",92,47,"colour",2,18,"V","R",NA,"medium","minus","beta",-1,106,"medium"
35,2,"training",36,44,1.13288740000007,"['n']",1,"right","['3']",4,0.0704595999995945,"[-0.03842638]",24,44,"colour",2,18,"V","R",NA,"hard","minus","beta",1,107,"hard"
0,0,"training",57,23,1.75003209999977,"['c']",1,"left","['3']",4,0.853001899999981,"[0.20508012]",99,57,"shape",2,18,"V","R",NA,"medium","plus","beta",-1,0,"medium"
1,0,"training",31,49,1.63238900000033,"['c']",0,"right","['3']",4,0.248698200000035,"[-0.02136295]",77,49,"shape",2,18,"V","R",NA,"hard","plus","beta",-1,1,"hard"
2,0,"training",18,62,1.11684530000002,"['n']",1,"right","['3']",4,0.233616700000312,"[-0.08288609]",99,62,"shape",2,18,"V","R",NA,"easy","plus","beta",1,2,"easy"
3,0,"training",49,31,0.783626499999627,"['c']",1,"left","['3']",4,0.520587300000443,"[0.14667359]",99,49,"shape",2,18,"V","R",NA,"hard","plus","beta",-1,3,"hard"
4,0,"training",18,62,0.950495900000533,"['n']",1,"right","['2']",5,0.1330080000007,"[-0.09760679]",100,62,"shape",2,18,"V","R",NA,"easy","plus","beta",1,4,"easy"
5,0,"training",23,57,0.900262600000133,"['n']",1,"right","['2']",5,0.275325300000077,"[-0.10676153]",100,57,"shape",2,18,"V","R",NA,"medium","plus","beta",1,5,"medium"
6,0,"training",57,23,0.815701900000022,"['c']",1,"left","['2']",5,0.3194696999999,"[0.01604992]",91,57,"shape",2,18,"V","R",NA,"medium","plus","beta",-1,6,"medium"
7,0,"training",62,18,0.800108499999624,"['c']",1,"left","['2']",5,0.265255500000421,"[0.09916103]",100,62,"shape",2,18,"V","R",NA,"easy","plus","beta",-1,7,"easy"
8,0,"training",23,57,1.28460090000044,"['n']",1,"right","['3']",4,0.179070700000011,"[-0.11878139]",100,57,"shape",2,18,"V","R",NA,"medium","plus","beta",1,8,"medium"
9,0,"training",49,31,1.43412179999996,"['c']",1,"left","['3']",4,0.202137100000073,"[0.14957354]",100,49,"shape",2,18,"V","R",NA,"hard","plus","beta",-1,9,"hard"
10,0,"training",23,57,0.933171199999379,"['n']",1,"right","['2']",5,0.196351700000378,"[-0.05823122]",99,57,"shape",2,18,"V","R",NA,"medium","plus","beta",1,10,"medium"
11,0,"training",18,62,0.883533900000657,"['n']",1,"right","['1']",6,0.256924000000254,"[-0.07033867]",99,62,"shape",2,18,"V","R",NA,"easy","plus","beta",1,11,"easy"
12,0,"training",31,49,1.31719479999992,"['n']",1,"right","['2']",5,0.233380499999839,"[-0.07341775]",99,49,"shape",2,18,"V","R",NA,"hard","plus","beta",1,12,"hard"
13,0,"training",62,18,1.00031320000016,"['c']",1,"left","['2']",5,0.30379290000019,"[0.17293505]",100,62,"shape",2,18,"V","R",NA,"easy","plus","beta",-1,13,"easy"
14,0,"training",57,23,1.74938500000007,"['c']",1,"left","['2']",5,0.180687899999612,"[0.12365492]",100,57,"shape",2,18,"V","R",NA,"medium","plus","beta",-1,14,"medium"
15,0,"training",31,49,1.11588519999987,"['c']",0,"right","['2']",5,0.248650500000622,"[0.00841417]",91,49,"shape",2,18,"V","R",NA,"hard","plus","beta",-1,15,"hard"
16,0,"training",18,62,1.01659500000005,"['n']",1,"right","['2']",5,0.253433500000028,"[-0.0683885]",99,62,"shape",2,18,"V","R",NA,"easy","plus","beta",1,16,"easy"
17,0,"training",57,23,0.983596099999886,"['c']",1,"left","['3']",4,0.307247800000368,"[0.12452818]",100,57,"shape",2,18,"V","R",NA,"medium","plus","beta",-1,17,"medium"
18,0,"training",18,62,0.917571999999382,"['n']",1,"right","['2']",5,0.425516399999651,"[-0.18726709]",100,62,"shape",2,18,"V","R",NA,"easy","plus","beta",1,18,"easy"
19,0,"training",31,49,1.01686380000046,"['n']",1,"right","['2']",5,0.215275200000178,"[-0.0488135]",98,49,"shape",2,18,"V","R",NA,"hard","plus","beta",1,19,"hard"
20,0,"training",23,57,1.39993400000003,"['n']",1,"right","['3']",4,0.254279200000383,"[-0.08565865]",99,57,"shape",2,18,"V","R",NA,"medium","plus","beta",1,20,"medium"
21,0,"training",62,18,0.916599500000302,"['c']",1,"left","['2']",5,0.326736200000596,"[0.06500567]",98,62,"shape",2,18,"V","R",NA,"easy","plus","beta",-1,21,"easy"
22,0,"training",57,23,1.09981340000013,"['c']",1,"left","['2']",5,0.245010900000125,"[0.101963]",100,57,"shape",2,18,"V","R",NA,"medium","plus","beta",-1,22,"medium"
23,0,"training",31,49,0.866627600000356,"['c']",0,"right","['2']",5,0.20817580000039,"[0.05828005]",99,49,"shape",2,18,"V","R",NA,"hard","plus","beta",-1,23,"hard"
24,0,"training",49,31,1.33285199999955,"['c']",1,"left","['3']",4,0.121812299999874,"[0.08301713]",100,49,"shape",2,18,"V","R",NA,"hard","plus","beta",-1,24,"hard"
25,0,"training",49,31,0.866903000000093,"['c']",1,"left","['3']",4,0.201682300000357,"[0.11551502]",100,49,"shape",2,18,"V","R",NA,"hard","plus","beta",-1,25,"hard"
26,0,"training",23,57,0.883595299999797,"['n']",1,"right","['3']",4,0.213830299999245,"[-0.15929234]",100,57,"shape",2,18,"V","R",NA,"medium","plus","beta",1,26,"medium"
27,0,"training",49,31,2.00112150000041,"['c']",1,"left","['3']",4,0.10091999999986,"[0.01783196]",98,49,"shape",2,18,"V","R",NA,"hard","plus","beta",-1,27,"hard"
28,0,"training",62,18,1.08344709999983,"['c']",1,"left","['2']",5,0.157282199999827,"[0.10962275]",100,62,"shape",2,18,"V","R",NA,"easy","plus","beta",-1,28,"easy"
29,0,"training",62,18,0.866955499999676,"['c']",1,"left","['2']",5,0.123593899999833,"[0.09394374]",100,62,"shape",2,18,"V","R",NA,"easy","plus","beta",-1,29,"easy"
30,0,"training",49,31,0.899928199999522,"['c']",1,"left","['3']",4,0.138220499999989,"[0.05708481]",100,49,"shape",2,18,"V","R",NA,"hard","plus","beta",-1,30,"hard"
31,0,"training",57,23,0.683524399999442,"['c']",1,"left","['2']",5,0.160209600000599,"[0.04982289]",99,57,"shape",2,18,"V","R",NA,"medium","plus","beta",-1,31,"medium"
32,0,"training",18,62,0.784312300000238,"['n']",1,"right","['1']",6,0.289988399999856,"[-0.07094512]",99,62,"shape",2,18,"V","R",NA,"easy","plus","beta",1,32,"easy"
33,0,"training",23,57,0.784148199999436,"['n']",1,"right","['1']",6,0.158254799999668,"[-0.07646311]",100,57,"shape",2,18,"V","R",NA,"medium","plus","beta",1,33,"medium"
34,0,"training",31,49,1.51673489999939,"['n']",1,"right","['3']",4,0.162862799999857,"[-0.10727137]",100,49,"shape",2,18,"V","R",NA,"hard","plus","beta",1,34,"hard"
35,0,"training",62,18,0.884051900000486,"['c']",1,"left","['3']",4,0.224513799999841,"[0.08062781]",99,62,"shape",2,18,"V","R",NA,"easy","plus","beta",-1,35,"easy"
0,1,"training",49,31,1.70020250000016,"['c']",1,"left","['3']",4,3.9451341999993,"[0.4752596]",99,49,"shape",2,18,"V","R",NA,"hard","plus","beta",-1,36,"hard"
1,1,"training",18,62,0.883849499999997,"['n']",1,"right","['3']",4,0.158699700000398,"[-0.00718758]",94,62,"shape",2,18,"V","R",NA,"easy","plus","beta",1,37,"easy"
2,1,"training",57,23,0.850341399999706,"['c']",1,"left","['2']",5,0.237213800000063,"[0.05639635]",98,57,"shape",2,18,"V","R",NA,"medium","plus","beta",-1,38,"medium"
3,1,"training",31,49,1.06662939999933,"['n']",1,"right","['3']",4,0.192614100000355,"[-0.07695436]",100,49,"shape",2,18,"V","R",NA,"hard","plus","beta",1,39,"hard"
4,1,"training",23,57,2.03354850000051,"['n']",1,"right","['3']",4,0.158905699999195,"[-0.06144937]",99,57,"shape",2,18,"V","R",NA,"medium","plus","beta",1,40,"medium"
5,1,"training",31,49,0.966864799999712,"['c']",0,"right","['8']",3,0.617247499999394,"[-0.03455478]",62,49,"shape",2,18,"V","R",NA,"hard","plus","beta",-1,41,"hard"
6,1,"training",49,31,0.783698700000059,"['c']",1,"left","['3']",4,0.200323899999603,"[0.03727618]",98,49,"shape",2,18,"V","R",NA,"hard","plus","beta",-1,42,"hard"
7,1,"training",18,62,0.967228500000601,"['n']",1,"right","['2']",5,0.241470699999809,"[-0.10656618]",100,62,"shape",2,18,"V","R",NA,"easy","plus","beta",1,43,"easy"
8,1,"training",31,49,0.983086200000798,"['n']",1,"right","['2']",5,0.135680100000172,"[-0.05005662]",99,49,"shape",2,18,"V","R",NA,"hard","plus","beta",1,44,"hard"
9,1,"training",31,49,1.16697490000024,"['n']",1,"right","['2']",5,0.123232899999493,"[-0.00320989]",95,49,"shape",2,18,"V","R",NA,"hard","plus","beta",1,45,"hard"
10,1,"training",23,57,0.832945399999517,"['n']",1,"right","['2']",5,0.0923551999994743,"[-0.03217961]",99,57,"shape",2,18,"V","R",NA,"medium","plus","beta",1,46,"medium"
11,1,"training",49,31,0.849398199999996,"['n']",0,"left","['1']",6,0.206094199999825,"[-0.01514494]",94,49,"shape",2,18,"V","R",NA,"hard","plus","beta",1,47,"hard"
12,1,"training",62,18,0.933720600000015,"['c']",1,"left","['1']",6,0.167772699999659,"[0.09392242]",100,62,"shape",2,18,"V","R",NA,"easy","plus","beta",-1,48,"easy"
13,1,"training",31,49,1.91656809999949,"['n']",1,"right","['3']",4,0.332199299999957,"[-0.02129764]",92,49,"shape",2,18,"V","R",NA,"hard","plus","beta",1,49,"hard"
14,1,"training",23,57,0.816528800000015,"['n']",1,"right","['2']",5,0.085761199999979,"[-0.05694058]",100,57,"shape",2,18,"V","R",NA,"medium","plus","beta",1,50,"medium"
15,1,"training",18,62,0.717125000000124,"['n']",1,"right","['1']",6,0.205258999999387,"[-0.0247726]",96,62,"shape",2,18,"V","R",NA,"easy","plus","beta",1,51,"easy"
16,1,"training",57,23,1.05044079999971,"['c']",1,"left","['1']",6,0.194777300000169,"[0.0527998]",99,57,"shape",2,18,"V","R",NA,"medium","plus","beta",-1,52,"medium"
17,1,"training",62,18,0.633353100000022,"['c']",1,"left","['1']",6,0.232858899999883,"[-0.0021852]",88,62,"shape",2,18,"V","R",NA,"easy","plus","beta",-1,53,"easy"
18,1,"training",23,57,0.883891200000107,"['n']",1,"right","['1']",6,0.179845900000146,"[-0.02050158]",96,57,"shape",2,18,"V","R",NA,"medium","plus","beta",1,54,"medium"
19,1,"training",49,31,0.733067499999379,"['c']",1,"left","['1']",6,0.134937800000444,"[0.087847]",100,49,"shape",2,18,"V","R",NA,"hard","plus","beta",-1,55,"hard"
20,1,"training",31,49,0.800865500000327,"['n']",1,"right","['2']",5,0.20092779999959,"[-0.01785131]",95,49,"shape",2,18,"V","R",NA,"hard","plus","beta",1,56,"hard"
21,1,"training",62,18,0.717859999999746,"['c']",1,"left","['1']",6,0.108165499999814,"[0.03253233]",99,62,"shape",2,18,"V","R",NA,"easy","plus","beta",-1,57,"easy"
22,1,"training",57,23,0.66561880000063,"['c']",1,"left","['1']",6,0.116783999999825,"[0.12133036]",100,57,"shape",2,18,"V","R",NA,"medium","plus","beta",-1,58,"medium"
23,1,"training",62,18,1.28367539999999,"['c']",1,"left","['1']",6,0.116172099999858,"[0.06074533]",100,62,"shape",2,18,"V","R",NA,"easy","plus","beta",-1,59,"easy"
24,1,"training",62,18,0.866785999999593,"['c']",1,"left","['1']",6,0.164974100000109,"[0.12479702]",100,62,"shape",2,18,"V","R",NA,"easy","plus","beta",-1,60,"easy"
25,1,"training",18,62,0.783586400000786,"['n']",1,"right","['1']",6,0.102233499999784,"[-0.04390633]",100,62,"shape",2,18,"V","R",NA,"easy","plus","beta",1,61,"easy"
26,1,"training",18,62,0.650906200000463,"['n']",1,"right","['1']",6,0.303938799999742,"[-0.13924861]",100,62,"shape",2,18,"V","R",NA,"easy","plus","beta",1,62,"easy"
27,1,"training",18,62,0.733765700000731,"['n']",1,"right","['1']",6,0.0775745000000825,"[-0.08074258]",100,62,"shape",2,18,"V","R",NA,"easy","plus","beta",1,63,"easy"
28,1,"training",23,57,0.533588100000088,"['n']",1,"right","['1']",6,0.156552900000861,"[-0.13619011]",100,57,"shape",2,18,"V","R",NA,"medium","plus","beta",1,64,"medium"
29,1,"training",49,31,0.850184500000069,"['n']",0,"left","['1']",6,0.15541790000043,"[-0.02618641]",98,49,"shape",2,18,"V","R",NA,"hard","plus","beta",1,65,"hard"
30,1,"training",57,23,0.766362499999559,"['c']",1,"left","['1']",6,0.205837500000598,"[0.10770175]",100,57,"shape",2,18,"V","R",NA,"medium","plus","beta",-1,66,"medium"
31,1,"training",23,57,0.700950899999953,"['n']",1,"right","['2']",5,0.208714000000327,"[-0.13873096]",100,57,"shape",2,18,"V","R",NA,"medium","plus","beta",1,67,"medium"
32,1,"training",57,23,0.667721800000436,"['c']",1,"left","['1']",6,0.149478999999701,"[0.11348729]",100,57,"shape",2,18,"V","R",NA,"medium","plus","beta",-1,68,"medium"
33,1,"training",49,31,0.616138100000171,"['c']",1,"left","['1']",6,0.205989499999305,"[0.10577294]",100,49,"shape",2,18,"V","R",NA,"hard","plus","beta",-1,69,"hard"
34,1,"training",62,18,0.649410199999693,"['c']",1,"left","['1']",6,0.147079599999415,"[0.03597614]",99,62,"shape",2,18,"V","R",NA,"easy","plus","beta",-1,70,"easy"
35,1,"training",57,23,0.800188100000014,"['c']",1,"left","['3']",4,0.212647199999992,"[0.05887376]",99,57,"shape",2,18,"V","R",NA,"medium","plus","beta",-1,71,"medium"
0,2,"training",57,23,0.783994299999904,"['c']",1,"left","['1']",6,0.450504499999624,"[0.1178912]",99,57,"shape",2,18,"V","R",NA,"medium","plus","beta",-1,72,"medium"
1,2,"training",62,18,0.633666899999298,"['c']",1,"left","['1']",6,0.126777100000254,"[0.09019364]",100,62,"shape",2,18,"V","R",NA,"easy","plus","beta",-1,73,"easy"
2,2,"training",18,62,1.08245009999973,"['n']",1,"right","['2']",5,0.149820899999213,"[-0.10919466]",100,62,"shape",2,18,"V","R",NA,"easy","plus","beta",1,74,"easy"
3,2,"training",18,62,0.700404899999739,"['n']",1,"right","['2']",5,0.0918271999998979,"[-0.01563046]",99,62,"shape",2,18,"V","R",NA,"easy","plus","beta",1,75,"easy"
4,2,"training",49,31,0.633202800000618,"['c']",1,"left","['2']",5,0.133829100000185,"[0.06845131]",100,49,"shape",2,18,"V","R",NA,"hard","plus","beta",-1,76,"hard"
5,2,"training",49,31,0.833037200000035,"['n']",0,"left","['2']",5,0.0223915000005945,"[-0.04973777]",100,49,"shape",2,18,"V","R",NA,"hard","plus","beta",1,77,"hard"
6,2,"training",18,62,0.667093699999896,"['n']",1,"right","['1']",6,0.129893600000287,"[-0.11484659]",100,62,"shape",2,18,"V","R",NA,"easy","plus","beta",1,78,"easy"
7,2,"training",31,49,0.783494500000415,"['n']",1,"right","['1']",6,0.0207303000006505,"[-0.03288748]",100,49,"shape",2,18,"V","R",NA,"hard","plus","beta",1,79,"hard"
8,2,"training",23,57,0.982363400000395,"['n']",1,"right","['2']",5,0.148461899999347,"[-0.06586277]",100,57,"shape",2,18,"V","R",NA,"medium","plus","beta",1,80,"medium"
9,2,"training",23,57,0.800158099999862,"['n']",1,"right","['1']",6,0.0861985999999888,"[-0.05835289]",100,57,"shape",2,18,"V","R",NA,"medium","plus","beta",1,81,"medium"
10,2,"training",18,62,0.54970990000038,"['n']",1,"right","['1']",6,0.0842818999999508,"[-0.0535208]",100,62,"shape",2,18,"V","R",NA,"easy","plus","beta",1,82,"easy"
11,2,"training",31,49,0.60028279999915,"['n']",1,"right","['1']",6,0.0166558000000805,"[-0.05729856]",100,49,"shape",2,18,"V","R",NA,"hard","plus","beta",1,83,"hard"
12,2,"training",18,62,0.450271900000189,"['n']",1,"right","['1']",6,0.116669099999854,"[-0.05032204]",100,62,"shape",2,18,"V","R",NA,"easy","plus","beta",1,84,"easy"
13,2,"training",31,49,0.483148600000277,"['n']",1,"right","['1']",6,0.0846144999995886,"[-0.02898483]",99,49,"shape",2,18,"V","R",NA,"hard","plus","beta",1,85,"hard"
14,2,"training",62,18,0.899795599999379,"['c']",1,"left","['1']",6,0.116977700000461,"[0.0759678]",100,62,"shape",2,18,"V","R",NA,"easy","plus","beta",-1,86,"easy"
15,2,"training",49,31,1.08417629999985,"['c']",1,"left","['1']",6,0.0285632000004625,"[0.02309924]",100,49,"shape",2,18,"V","R",NA,"hard","plus","beta",-1,87,"hard"
16,2,"training",62,18,0.550308799999584,"['c']",1,"left","['1']",6,0.0768975000000864,"[0.09025667]",100,62,"shape",2,18,"V","R",NA,"easy","plus","beta",-1,88,"easy"
17,2,"training",18,62,0.916778100000556,"['n']",1,"right","['1']",6,0.0606311000001369,"[-0.04796125]",100,62,"shape",2,18,"V","R",NA,"easy","plus","beta",1,89,"easy"
18,2,"training",23,57,0.750300800000332,"['c']",0,"right","['1']",6,0.0356336000004376,"[0.03030892]",100,57,"shape",2,18,"V","R",NA,"medium","plus","beta",-1,90,"medium"
19,2,"training",62,18,0.799507099999573,"['c']",1,"left","['1']",6,0.057852300000377,"[0.03236353]",100,62,"shape",2,18,"V","R",NA,"easy","plus","beta",-1,91,"easy"
20,2,"training",57,23,0.649903200000153,"['c']",1,"left","['1']",6,0.0527980999995634,"[0.08057462]",100,57,"shape",2,18,"V","R",NA,"medium","plus","beta",-1,92,"medium"
21,2,"training",57,23,1.24980009999945,"['c']",1,"left","['1']",6,0.0404750999996395,"[0.05654606]",100,57,"shape",2,18,"V","R",NA,"medium","plus","beta",-1,93,"medium"
22,2,"training",62,18,0.734025299999303,"['c']",1,"left","['1']",6,0.0327816999997594,"[0.06960569]",100,62,"shape",2,18,"V","R",NA,"easy","plus","beta",-1,94,"easy"
23,2,"training",57,23,0.800328399999671,"['c']",1,"left","['1']",6,0.134883800000352,"[0.04366995]",99,57,"shape",2,18,"V","R",NA,"medium","plus","beta",-1,95,"medium"
24,2,"training",49,31,1.16687570000067,"['c']",1,"left","['1']",6,0.0749212000000625,"[0.03412243]",100,49,"shape",2,18,"V","R",NA,"hard","plus","beta",-1,96,"hard"
25,2,"training",31,49,0.800465400000576,"['n']",1,"right","['1']",6,0.14314689999992,"[-0.04854507]",99,49,"shape",2,18,"V","R",NA,"hard","plus","beta",1,97,"hard"
26,2,"training",62,18,0.683282500000132,"['c']",1,"left","['1']",6,0.0215905999993993,"[0.06225606]",100,62,"shape",2,18,"V","R",NA,"easy","plus","beta",-1,98,"easy"
27,2,"training",57,23,0.749671999999919,"['c']",1,"left","['1']",6,0.061740799999825,"[0.07941245]",100,57,"shape",2,18,"V","R",NA,"medium","plus","beta",-1,99,"medium"
28,2,"training",31,49,0.949801700000535,"['n']",1,"right","['2']",5,0.140687800000705,"[-0.05152075]",99,49,"shape",2,18,"V","R",NA,"hard","plus","beta",1,100,"hard"
29,2,"training",57,23,0.650566799999979,"['c']",1,"left","['2']",5,0.196545499999957,"[0.17038814]",100,57,"shape",2,18,"V","R",NA,"medium","plus","beta",-1,101,"medium"
30,2,"training",49,31,1.03351609999936,"['c']",1,"left","['1']",6,0.0746967000004588,"[0.03501455]",100,49,"shape",2,18,"V","R",NA,"hard","plus","beta",-1,102,"hard"
31,2,"training",49,31,0.717429399999673,"['c']",1,"left","['2']",5,0.0342459000003146,"[0.06310316]",100,49,"shape",2,18,"V","R",NA,"hard","plus","beta",-1,103,"hard"
32,2,"training",23,57,0.90046380000058,"['n']",1,"right","['2']",5,0.0520707000005132,"[-0.03438231]",100,57,"shape",2,18,"V","R",NA,"medium","plus","beta",1,104,"medium"
33,2,"training",31,49,0.566956200000277,"['n']",1,"right","['2']",5,0.130855300000803,"[-0.06242492]",100,49,"shape",2,18,"V","R",NA,"hard","plus","beta",1,105,"hard"
34,2,"training",23,57,0.667321599999923,"['n']",1,"right","['2']",5,0.874646499999471,"[-0.18632509]",99,57,"shape",2,18,"V","R",NA,"medium","plus","beta",1,106,"medium"
35,2,"training",23,57,1.16707919999953,"['n']",1,"right","['2']",5,0.0164494999999079,"[-0.05600106]",100,57,"shape",2,18,"V","R",NA,"medium","plus","beta",1,107,"medium"
2,0,"training",27,53,2.76621139999952,"['n']",1,"right","['9']",5,3.71937419999995,"[-0.86379627]",100,53,"colour",3,17,"V","R",NA,"easy","minus","beta",1,2,"easy"
3,0,"training",47,33,3.11571499999991,"['c']",1,"left","['3']",3,3.19004120000045,"[0.51896058]",99,47,"colour",3,17,"V","R",NA,"medium","minus","beta",-1,3,"medium"
5,0,"training",44,36,1.73250050000024,"['c']",1,"left","['9']",5,3.09649750000062,"[0.37513487]",96,44,"colour",3,17,"V","R",NA,"hard","minus","beta",-1,5,"hard"
6,0,"training",36,44,4.06593960000009,"['n']",1,"right","['2']",2,2.38620699999956,"[-0.2089497]",86,44,"colour",3,17,"V","R",NA,"hard","minus","beta",1,6,"hard"
7,0,"training",44,36,1.73230370000056,"['c']",1,"left","['9']",5,3.22028760000012,"[0.68662571]",100,44,"colour",3,17,"V","R",NA,"hard","minus","beta",-1,7,"hard"
8,0,"training",44,36,1.28364990000046,"['n']",0,"left","['9']",5,1.0477879,"[-0.07562679]",59,44,"colour",3,17,"V","R",NA,"hard","minus","beta",1,8,"hard"
9,0,"training",47,33,1.5160922999994,"['c']",1,"left","['9']",5,3.97659170000043,"[0.59047092]",99,47,"colour",3,17,"V","R",NA,"medium","minus","beta",-1,9,"medium"
10,0,"training",27,53,2.11645679999947,"['n']",1,"right","['9']",5,1.10034019999966,"[-0.24749432]",96,53,"colour",3,17,"V","R",NA,"easy","minus","beta",1,10,"easy"
11,0,"training",47,33,1.31667809999999,"['c']",1,"left","['9']",5,2.01919859999998,"[0.28954455]",95,47,"colour",3,17,"V","R",NA,"medium","minus","beta",-1,11,"medium"
12,0,"training",27,53,1.36608640000031,"['n']",1,"right","['0']",6,0.884014799999932,"[-0.28063546]",99,53,"colour",3,17,"V","R",NA,"easy","minus","beta",1,12,"easy"
13,0,"training",53,27,1.39951460000066,"['c']",1,"left","['9']",5,0.815727899999729,"[0.21944353]",96,53,"colour",3,17,"V","R",NA,"easy","minus","beta",-1,13,"easy"
14,0,"training",36,44,1.68347219999941,"['c']",0,"right","['3']",3,2.0355770999995,"[0.2946353]",95,44,"colour",3,17,"V","R",NA,"hard","minus","beta",-1,14,"hard"
15,0,"training",27,53,2.18224050000026,"['n']",1,"right","['0']",6,2.57865919999949,"[-0.6978986]",100,53,"colour",3,17,"V","R",NA,"easy","minus","beta",1,15,"easy"
16,0,"training",53,27,1.36629260000063,"['c']",1,"left","['0']",6,0.716584199999488,"[0.01673073]",30,53,"colour",3,17,"V","R",NA,"easy","minus","beta",-1,16,"easy"
17,0,"training",33,47,1.79914080000071,"['n']",1,"right","['9']",5,0.839246999999887,"[-0.13423676]",82,47,"colour",3,17,"V","R",NA,"medium","minus","beta",1,17,"medium"
18,0,"training",36,44,1.39945770000031,"['n']",1,"right","['9']",5,0.741842000000361,"[0.02386663]",16,44,"colour",3,17,"V","R",NA,"hard","minus","beta",1,18,"hard"
19,0,"training",36,44,1.8163027999999,"['n']",1,"right","['8']",4,0.927263999999923,"[-0.11272936]",74,44,"colour",3,17,"V","R",NA,"hard","minus","beta",1,19,"hard"
20,0,"training",53,27,1.54945790000056,"['c']",1,"left","['9']",5,0.676162099999601,"[0.14921961]",89,53,"colour",3,17,"V","R",NA,"easy","minus","beta",-1,20,"easy"
21,0,"training",33,47,1.68293220000032,"['n']",1,"right","['0']",6,2.26174739999988,"[-0.41792162]",99,47,"colour",3,17,"V","R",NA,"medium","minus","beta",1,21,"medium"
22,0,"training",33,47,3.14905420000014,"['c']",0,"right","['1']",1,1.07722939999985,"[-0.12907196]",4,47,"colour",3,17,"V","R",NA,"medium","minus","beta",-1,22,"medium"
23,0,"training",44,36,3.1992354999993,"['n']",0,"left","['2']",2,1.46691719999944,"[-0.15997327]",83,44,"colour",3,17,"V","R",NA,"hard","minus","beta",1,23,"hard"
24,0,"training",27,53,1.18316229999982,"['n']",1,"right","['0']",6,0.496196199999758,"[0.01337331]",15,53,"colour",3,17,"V","R",NA,"easy","minus","beta",1,24,"easy"
25,0,"training",53,27,1.10000919999948,"['c']",1,"left","['0']",6,1.27262789999986,"[0.16158299]",84,53,"colour",3,17,"V","R",NA,"easy","minus","beta",-1,25,"easy"
26,0,"training",33,47,3.06575690000045,"['n']",1,"right","['3']",3,1.05899919999956,"[-0.23308028]",96,47,"colour",3,17,"V","R",NA,"medium","minus","beta",1,26,"medium"
27,0,"training",47,33,1.58263590000024,"['c']",1,"left","['8']",4,2.24123439999948,"[0.40163532]",98,47,"colour",3,17,"V","R",NA,"medium","minus","beta",-1,27,"medium"
28,0,"training",44,36,2.13317520000055,"['c']",1,"left","['3']",3,0.473721400000613,"[0.08458794]",68,44,"colour",3,17,"V","R",NA,"hard","minus","beta",-1,28,"hard"
29,0,"training",33,47,4.24859780000043,"['n']",1,"right","['8']",4,2.4608361999999,"[-0.08038942]",57,47,"colour",3,17,"V","R",NA,"medium","minus","beta",1,29,"medium"
30,0,"training",33,47,1.63318580000032,"['n']",1,"right","['3']",3,0.53712650000034,"[-0.22310219]",98,47,"colour",3,17,"V","R",NA,"medium","minus","beta",1,30,"medium"
31,0,"training",36,44,1.79963159999988,"['n']",1,"right","['3']",3,0.339250799999718,"[-0.17738871]",98,44,"colour",3,17,"V","R",NA,"hard","minus","beta",1,31,"hard"
32,0,"training",44,36,1.93270310000025,"['c']",1,"left","['8']",4,0.408180800000082,"[-0.00321052]",16,44,"colour",3,17,"V","R",NA,"hard","minus","beta",-1,32,"hard"
33,0,"training",53,27,1.84962329999962,"['c']",1,"left","['0']",6,0.405617000000348,"[0.15158885]",94,53,"colour",3,17,"V","R",NA,"easy","minus","beta",-1,33,"easy"
34,0,"training",53,27,1.15000510000027,"['c']",1,"left","['0']",6,0.687066999999843,"[0.24550697]",98,53,"colour",3,17,"V","R",NA,"easy","minus","beta",-1,34,"easy"
35,0,"training",47,33,2.34906219999993,"['c']",1,"left","['9']",5,0.79735139999957,"[0.25133209]",98,47,"colour",3,17,"V","R",NA,"medium","minus","beta",-1,35,"medium"
1,1,"training",44,36,1.36631200000011,"['c']",1,"left","['3']",3,0.900643299999501,"[0.09090378]",66,44,"colour",3,17,"V","R",NA,"hard","minus","beta",-1,37,"hard"
2,1,"training",47,33,1.98333950000051,"['c']",1,"left","['8']",4,2.5690424000004,"[0.47517954]",99,47,"colour",3,17,"V","R",NA,"medium","minus","beta",-1,38,"medium"
3,1,"training",36,44,1.10026500000004,"['n']",1,"right","['9']",5,0.805249099999855,"[-0.1665143]",90,44,"colour",3,17,"V","R",NA,"hard","minus","beta",1,39,"hard"
4,1,"training",27,53,1.4832591000004,"['n']",1,"right","['9']",5,1.32979570000043,"[-0.1716668]",86,53,"colour",3,17,"V","R",NA,"easy","minus","beta",1,40,"easy"
5,1,"training",33,47,1.31683280000016,"['n']",1,"right","['0']",6,0.423407199999929,"[-0.16945196]",96,47,"colour",3,17,"V","R",NA,"medium","minus","beta",1,41,"medium"
6,1,"training",53,27,4.28226579999955,"['c']",1,"left","['0']",6,0.635385100000349,"[0.1858958]",95,53,"colour",3,17,"V","R",NA,"easy","minus","beta",-1,42,"easy"
7,1,"training",27,53,1.3825810999997,"['n']",1,"right","['0']",6,0.442021300000306,"[-0.22764475]",99,53,"colour",3,17,"V","R",NA,"easy","minus","beta",1,43,"easy"
8,1,"training",27,53,2.74954570000045,"['n']",1,"right","['8']",4,0.442434100000355,"[-0.1194541]",85,53,"colour",3,17,"V","R",NA,"easy","minus","beta",1,44,"easy"
9,1,"training",27,53,2.00002390000009,"['n']",1,"right","['8']",4,0.432684399999744,"[-0.07260392]",61,53,"colour",3,17,"V","R",NA,"easy","minus","beta",1,45,"easy"
10,1,"training",47,33,1.03216360000079,"['c']",1,"left","['8']",4,2.27060650000021,"[0.39135962]",98,47,"colour",3,17,"V","R",NA,"medium","minus","beta",-1,46,"medium"
11,1,"training",44,36,1.46750189999966,"['c']",1,"left","['8']",4,1.31195219999972,"[0.06904657]",55,44,"colour",3,17,"V","R",NA,"hard","minus","beta",-1,47,"hard"
12,1,"training",47,33,1.0998512999995,"['c']",1,"left","['0']",6,0.326859300000251,"[0.12398976]",90,47,"colour",3,17,"V","R",NA,"medium","minus","beta",-1,48,"medium"
13,1,"training",44,36,1.46603680000044,"['n']",0,"left","['9']",5,1.83893149999949,"[0.19423262]",4,44,"colour",3,17,"V","R",NA,"hard","minus","beta",1,49,"hard"
14,1,"training",33,47,1.2330550000006,"['c']",0,"right","['3']",3,0.371990800000276,"[0.0322258]",33,47,"colour",3,17,"V","R",NA,"medium","minus","beta",-1,50,"medium"
15,1,"training",53,27,1.58341920000021,"['c']",1,"left","['0']",6,1.29340289999982,"[0.54382848]",100,53,"colour",3,17,"V","R",NA,"easy","minus","beta",-1,51,"easy"
16,1,"training",36,44,1.46587369999997,"['n']",1,"right","['8']",4,0.263111700000081,"[0.00503911]",11,44,"colour",3,17,"V","R",NA,"hard","minus","beta",1,52,"hard"
17,1,"training",53,27,1.25004119999994,"['c']",1,"left","['0']",6,0.250456300000224,"[0.0985404]",82,53,"colour",3,17,"V","R",NA,"easy","minus","beta",-1,53,"easy"
18,1,"training",36,44,3.01588220000031,"['c']",0,"right","['9']",5,0.248241199999939,"[0.09957542]",83,44,"colour",3,17,"V","R",NA,"hard","minus","beta",-1,54,"hard"
19,1,"training",27,53,1.53358589999971,"['n']",1,"right","['9']",5,0.432998199999929,"[-0.02115957]",28,53,"colour",3,17,"V","R",NA,"easy","minus","beta",1,55,"easy"
20,1,"training",44,36,1.9497109999993,"['n']",0,"left","['8']",4,0.601930299999367,"[0.02263409]",14,44,"colour",3,17,"V","R",NA,"hard","minus","beta",1,56,"hard"
21,1,"training",36,44,2.31559300000026,"['n']",1,"right","['3']",3,0.501003600000331,"[-0.11936044]",83,44,"colour",3,17,"V","R",NA,"hard","minus","beta",1,57,"hard"
22,1,"training",44,36,3.39984189999996,"['c']",1,"left","['3']",3,0.400793900000281,"[0.12163113]",87,44,"colour",3,17,"V","R",NA,"hard","minus","beta",-1,58,"hard"
23,1,"training",53,27,1.78355529999953,"['c']",1,"left","['8']",4,1.76167600000008,"[0.43515099]",99,53,"colour",3,17,"V","R",NA,"easy","minus","beta",-1,59,"easy"
24,1,"training",33,47,1.49860100000024,"['n']",1,"right","['8']",4,0.686540300000161,"[-0.27101817]",99,47,"colour",3,17,"V","R",NA,"medium","minus","beta",1,60,"medium"
26,1,"training",53,27,1.38329820000035,"['c']",1,"left","['0']",6,0.397529899999427,"[0.11533445]",85,53,"colour",3,17,"V","R",NA,"easy","minus","beta",-1,62,"easy"
28,1,"training",47,33,1.53360549999979,"['c']",1,"left","['9']",5,4.62477840000065,"[0.66548138]",99,47,"colour",3,17,"V","R",NA,"medium","minus","beta",-1,64,"medium"
29,1,"training",53,27,1.61667579999994,"['c']",1,"left","['9']",5,0.318119700000352,"[0.12871514]",91,53,"colour",3,17,"V","R",NA,"easy","minus","beta",-1,65,"easy"
30,1,"training",47,33,1.23326089999955,"['c']",1,"left","['9']",5,0.200306499999897,"[0.07315118]",67,47,"colour",3,17,"V","R",NA,"medium","minus","beta",-1,66,"medium"
31,1,"training",27,53,1.11646810000002,"['n']",1,"right","['9']",5,0.259516000000076,"[-0.09322896]",79,53,"colour",3,17,"V","R",NA,"easy","minus","beta",1,67,"easy"
32,1,"training",33,47,3.18315269999948,"['c']",0,"right","['2']",2,0.586059299999761,"[-0.00534498]",19,47,"colour",3,17,"V","R",NA,"medium","minus","beta",-1,68,"medium"
33,1,"training",33,47,1.03447659999983,"['n']",1,"right","['9']",5,1.08873889999995,"[-0.17582647]",89,47,"colour",3,17,"V","R",NA,"medium","minus","beta",1,69,"medium"
34,1,"training",36,44,0.982954799999789,"['n']",1,"right","['0']",6,0.141599600000518,"[-0.05223238]",46,44,"colour",3,17,"V","R",NA,"hard","minus","beta",1,70,"hard"
35,1,"training",47,33,1.26644809999925,"['c']",1,"left","['0']",6,0.357045000000653,"[0.11925067]",87,47,"colour",3,17,"V","R",NA,"medium","minus","beta",-1,71,"medium"
0,2,"training",47,33,3.93332239999927,"['c']",1,"left","['0']",6,0.447282600000108,"[0.17499852]",96,47,"colour",3,17,"V","R",NA,"medium","minus","beta",-1,72,"medium"
1,2,"training",27,53,1.34973679999985,"['n']",1,"right","['0']",6,0.519594399999733,"[-0.1493966]",91,53,"colour",3,17,"V","R",NA,"easy","minus","beta",1,73,"easy"
2,2,"training",47,33,1.59974099999999,"['c']",1,"left","['8']",4,0.722398599999906,"[0.1376668]",85,47,"colour",3,17,"V","R",NA,"medium","minus","beta",-1,74,"medium"
3,2,"training",53,27,0.916266000000178,"['c']",1,"left","['0']",6,0.488434099999722,"[0.1452511]",91,53,"colour",3,17,"V","R",NA,"easy","minus","beta",-1,75,"easy"
4,2,"training",53,27,0.867158900000504,"['c']",1,"left","['0']",6,0.281584499999553,"[0.0844748]",73,53,"colour",3,17,"V","R",NA,"easy","minus","beta",-1,76,"easy"
5,2,"training",53,27,0.749753199999759,"['c']",1,"left","['9']",5,0.424284999999145,"[0.08620416]",70,53,"colour",3,17,"V","R",NA,"easy","minus","beta",-1,77,"easy"
6,2,"training",33,47,0.882766800000354,"['n']",1,"right","['9']",5,0.659800999999788,"[-0.31158199]",100,47,"colour",3,17,"V","R",NA,"medium","minus","beta",1,78,"medium"
7,2,"training",47,33,1.53321959999994,"['c']",1,"left","['9']",5,0.651661100000638,"[0.14396812]",88,47,"colour",3,17,"V","R",NA,"medium","minus","beta",-1,79,"medium"
8,2,"training",44,36,1.05001959999936,"['c']",1,"left","['8']",4,1.16727420000007,"[0.15907903]",85,44,"colour",3,17,"V","R",NA,"hard","minus","beta",-1,80,"hard"
9,2,"training",47,33,1.78344839999954,"['n']",0,"left","['3']",3,0.448917599999731,"[0.05093215]",5,47,"colour",3,17,"V","R",NA,"medium","minus","beta",1,81,"medium"
10,2,"training",36,44,2.38303809999979,"['c']",0,"right","['3']",3,0.984057499999835,"[0.01920406]",34,44,"colour",3,17,"V","R",NA,"hard","minus","beta",-1,82,"hard"
11,2,"training",44,36,4.49930479999966,"['n']",0,"left","['8']",4,0.38084230000004,"[-0.01568092]",24,44,"colour",3,17,"V","R",NA,"hard","minus","beta",1,83,"hard"
12,2,"training",27,53,1.58267660000001,"['n']",1,"right","['0']",6,0.342767199999798,"[0.0048648]",14,53,"colour",3,17,"V","R",NA,"easy","minus","beta",1,84,"easy"
14,2,"training",44,36,1.86657680000008,"['c']",1,"left","['8']",4,1.88213509999969,"[0.3194994]",97,44,"colour",3,17,"V","R",NA,"hard","minus","beta",-1,86,"hard"
15,2,"training",53,27,0.999381099999482,"['c']",1,"left","['0']",6,0.486341600000742,"[0.13256837]",88,53,"colour",3,17,"V","R",NA,"easy","minus","beta",-1,87,"easy"
16,2,"training",36,44,1.56642069999998,"['c']",0,"right","['3']",3,0.691964800000278,"[-0.04109639]",11,44,"colour",3,17,"V","R",NA,"hard","minus","beta",-1,88,"hard"
17,2,"training",53,27,1.76646290000008,"['c']",1,"left","['9']",5,0.753397000000405,"[0.08026718]",63,53,"colour",3,17,"V","R",NA,"easy","minus","beta",-1,89,"easy"
19,2,"training",36,44,1.56691729999966,"['c']",0,"right","['2']",2,0.910832499999742,"[0.03235852]",39,44,"colour",3,17,"V","R",NA,"hard","minus","beta",-1,91,"hard"
20,2,"training",27,53,1.11659650000001,"['n']",1,"right","['9']",5,0.261513799999193,"[-0.24516691]",100,53,"colour",3,17,"V","R",NA,"easy","minus","beta",1,92,"easy"
21,2,"training",27,53,1.15000340000006,"['c']",0,"right","['0']",6,0.205046200000652,"[-0.01762841]",5,53,"colour",3,17,"V","R",NA,"easy","minus","beta",-1,93,"easy"
22,2,"training",36,44,1.43305690000034,"['c']",0,"right","['8']",4,0.443048600000111,"[0.12626857]",87,44,"colour",3,17,"V","R",NA,"hard","minus","beta",-1,94,"hard"
23,2,"training",33,47,1.84950959999969,"['n']",1,"right","['9']",5,0.41497900000013,"[-0.05378255]",49,47,"colour",3,17,"V","R",NA,"medium","minus","beta",1,95,"medium"
24,2,"training",33,47,1.71650279999994,"['n']",1,"right","['9']",5,0.610300700000153,"[-0.2613071]",99,47,"colour",3,17,"V","R",NA,"medium","minus","beta",1,96,"medium"
25,2,"training",36,44,1.36663759999919,"['c']",0,"right","['9']",5,1.01882209999985,"[-0.07422481]",9,44,"colour",3,17,"V","R",NA,"hard","minus","beta",-1,97,"hard"
26,2,"training",47,33,1.36658609999995,"['c']",1,"left","['8']",4,0.699089100000492,"[0.04634519]",45,47,"colour",3,17,"V","R",NA,"medium","minus","beta",-1,98,"medium"
27,2,"training",44,36,1.26589329999933,"['c']",1,"left","['3']",3,1.26839250000012,"[0.29712752]",98,44,"colour",3,17,"V","R",NA,"hard","minus","beta",-1,99,"hard"
28,2,"training",44,36,2.49839989999964,"['c']",1,"left","['8']",4,0.229681199999504,"[0.02022944]",21,44,"colour",3,17,"V","R",NA,"hard","minus","beta",-1,100,"hard"
29,2,"training",33,47,1.88300760000038,"['n']",1,"right","['9']",5,0.169144099999357,"[-0.12004291]",94,47,"colour",3,17,"V","R",NA,"medium","minus","beta",1,101,"medium"
30,2,"training",33,47,1.69946479999999,"['n']",1,"right","['8']",4,0.27055830000063,"[-0.12179944]",91,47,"colour",3,17,"V","R",NA,"medium","minus","beta",1,102,"medium"
31,2,"training",53,27,0.900006800000483,"['c']",1,"left","['0']",6,0.279205900000306,"[0.11414102]",88,53,"colour",3,17,"V","R",NA,"easy","minus","beta",-1,103,"easy"
32,2,"training",27,53,1.43342709999979,"['n']",1,"right","['0']",6,0.33860199999981,"[-0.08619393]",72,53,"colour",3,17,"V","R",NA,"easy","minus","beta",1,104,"easy"
33,2,"training",33,47,1.13337080000019,"['n']",1,"right","['0']",6,0.103067999999439,"[-0.07760964]",77,47,"colour",3,17,"V","R",NA,"medium","minus","beta",1,105,"medium"
34,2,"training",36,44,1.03332049999972,"['n']",1,"right","['0']",6,0.282040900000538,"[-0.08066481]",70,44,"colour",3,17,"V","R",NA,"hard","minus","beta",1,106,"hard"
35,2,"training",44,36,2.63287630000013,"['c']",1,"left","['8']",4,0.845828499999698,"[0.23101208]",97,44,"colour",3,17,"V","R",NA,"hard","minus","beta",-1,107,"hard"
0,0,"training",49,31,2.30075450000004,"['c']",1,"left","['3']",3,3.60561560000042,"[0.11934884]",84,49,"shape",3,17,"V","R",NA,"hard","plus","beta",-1,0,"hard"
2,0,"training",62,18,1.13426579999941,"['c']",1,"left","['8']",4,0.42546239999956,"[0.13843016]",100,62,"shape",3,17,"V","R",NA,"easy","plus","beta",-1,2,"easy"
3,0,"training",23,57,1.94958660000066,"['n']",1,"right","['9']",5,0.577706600000056,"[-0.17024295]",100,57,"shape",3,17,"V","R",NA,"medium","plus","beta",1,3,"medium"
4,0,"training",31,49,1.93317970000044,"['c']",0,"right","['8']",4,1.09377469999981,"[0.12594735]",96,49,"shape",3,17,"V","R",NA,"hard","plus","beta",-1,4,"hard"
5,0,"training",49,31,1.31630490000043,"['c']",1,"left","['8']",4,0.549051599999984,"[0.16663917]",100,49,"shape",3,17,"V","R",NA,"hard","plus","beta",-1,5,"hard"
6,0,"training",57,23,1.11704360000022,"['c']",1,"left","['9']",5,0.330892099999801,"[0.09544719]",99,57,"shape",3,17,"V","R",NA,"medium","plus","beta",-1,6,"medium"
7,0,"training",23,57,1.43329110000013,"['n']",1,"right","['8']",4,0.34763329999987,"[-0.02520755]",92,57,"shape",3,17,"V","R",NA,"medium","plus","beta",1,7,"medium"
8,0,"training",49,31,1.36619710000014,"['c']",1,"left","['8']",4,0.359130499999992,"[0.03379792]",94,49,"shape",3,17,"V","R",NA,"hard","plus","beta",-1,8,"hard"
9,0,"training",57,23,0.982938300000569,"['c']",1,"left","['0']",6,0.441155999999864,"[0.06725593]",97,57,"shape",3,17,"V","R",NA,"medium","plus","beta",-1,9,"medium"
10,0,"training",23,57,1.64915010000004,"['n']",1,"right","['9']",5,0.205313599999499,"[-0.14280393]",100,57,"shape",3,17,"V","R",NA,"medium","plus","beta",1,10,"medium"
11,0,"training",62,18,1.66667390000021,"['c']",1,"left","['9']",5,0.282525100000385,"[0.07706892]",99,62,"shape",3,17,"V","R",NA,"easy","plus","beta",-1,11,"easy"
12,0,"training",18,62,1.06673319999936,"['n']",1,"right","['9']",5,0.300549300000057,"[-0.09223284]",99,62,"shape",3,17,"V","R",NA,"easy","plus","beta",1,12,"easy"
13,0,"training",18,62,1.1830886000007,"['n']",1,"right","['9']",5,0.0802857999997286,"[-0.05905393]",100,62,"shape",3,17,"V","R",NA,"easy","plus","beta",1,13,"easy"
14,0,"training",18,62,1.28338280000025,"['c']",0,"right","['3']",3,0.545567399999527,"[-0.16616071]",6,62,"shape",3,17,"V","R",NA,"easy","plus","beta",-1,14,"easy"
15,0,"training",31,49,3.49925859999985,"['c']",0,"right","['9']",5,0.728117999999995,"[-0.05884435]",48,49,"shape",3,17,"V","R",NA,"hard","plus","beta",-1,15,"hard"
16,0,"training",31,49,2.2155829000003,"['n']",1,"right","['8']",4,0.5064526999995,"[-0.07105501]",96,49,"shape",3,17,"V","R",NA,"hard","plus","beta",1,16,"hard"
17,0,"training",62,18,2.65010549999988,"['c']",1,"left","['9']",5,0.204217299999982,"[0.12400799]",100,62,"shape",3,17,"V","R",NA,"easy","plus","beta",-1,17,"easy"
18,0,"training",62,18,3.23297840000032,"['c']",1,"left","['0']",6,0.546657799999593,"[0.16491395]",100,62,"shape",3,17,"V","R",NA,"easy","plus","beta",-1,18,"easy"
19,0,"training",31,49,1.33286800000042,"['n']",1,"right","['0']",6,0.223385199999939,"[-0.13213907]",100,49,"shape",3,17,"V","R",NA,"hard","plus","beta",1,19,"hard"
20,0,"training",57,23,2.08311349999985,"['c']",1,"left","['9']",5,0.234942899999623,"[0.0816042]",99,57,"shape",3,17,"V","R",NA,"medium","plus","beta",-1,20,"medium"
21,0,"training",23,57,1.31700209999963,"['n']",1,"right","['9']",5,0.748999600000388,"[-0.03177185]",86,57,"shape",3,17,"V","R",NA,"medium","plus","beta",1,21,"medium"
22,0,"training",31,49,2.16694019999977,"['n']",1,"right","['8']",4,1.01668160000008,"[0.03612774]",59,49,"shape",3,17,"V","R",NA,"hard","plus","beta",1,22,"hard"
23,0,"training",62,18,1.04951979999987,"['c']",1,"left","['9']",5,0.48551260000022,"[0.18005463]",100,62,"shape",3,17,"V","R",NA,"easy","plus","beta",-1,23,"easy"
24,0,"training",18,62,1.00045580000005,"['n']",1,"right","['9']",5,0.137510399999883,"[-0.07508207]",100,62,"shape",3,17,"V","R",NA,"easy","plus","beta",1,24,"easy"
25,0,"training",23,57,2.71601110000029,"['c']",0,"right","['8']",4,0.423073900000418,"[-0.01453149]",76,57,"shape",3,17,"V","R",NA,"medium","plus","beta",-1,25,"medium"
26,0,"training",18,62,1.63434529999995,"['n']",1,"right","['0']",6,0.0845492999997077,"[-0.05684308]",100,62,"shape",3,17,"V","R",NA,"easy","plus","beta",1,26,"easy"
27,0,"training",18,62,1.24963349999962,"['n']",1,"right","['0']",6,0.0712425000001531,"[-0.06062978]",100,62,"shape",3,17,"V","R",NA,"easy","plus","beta",1,27,"easy"
28,0,"training",23,57,0.799495899999783,"['n']",1,"right","['0']",6,0.0843379999996614,"[-0.07398003]",100,57,"shape",3,17,"V","R",NA,"medium","plus","beta",1,28,"medium"
29,0,"training",57,23,1.70012610000049,"['c']",1,"left","['3']",3,0.116612199999508,"[0.05146489]",100,57,"shape",3,17,"V","R",NA,"medium","plus","beta",-1,29,"medium"
30,0,"training",57,23,3.64899349999996,"['c']",1,"left","['9']",5,0.462607099999332,"[0.0358996]",92,57,"shape",3,17,"V","R",NA,"medium","plus","beta",-1,30,"medium"
31,0,"training",62,18,1.11710359999961,"['c']",1,"left","['0']",6,0.199162400000205,"[0.10373746]",100,62,"shape",3,17,"V","R",NA,"easy","plus","beta",-1,31,"easy"
32,0,"training",49,31,1.06715700000041,"['n']",0,"left","['0']",6,0.0365326999999525,"[-0.05287404]",100,49,"shape",3,17,"V","R",NA,"hard","plus","beta",1,32,"hard"
33,0,"training",49,31,2.59973899999932,"['c']",1,"left","['0']",6,1.97946779999984,"[0.15966809]",94,49,"shape",3,17,"V","R",NA,"hard","plus","beta",-1,33,"hard"
34,0,"training",49,31,1.14931459999934,"['c']",1,"left","['0']",6,0.12585769999987,"[0.02255696]",98,49,"shape",3,17,"V","R",NA,"hard","plus","beta",-1,34,"hard"
35,0,"training",57,23,1.04920410000068,"['c']",1,"left","['9']",5,0.974501600000622,"[0.03193925]",83,57,"shape",3,17,"V","R",NA,"medium","plus","beta",-1,35,"medium"
0,1,"training",31,49,3.05047270000068,"['c']",0,"right","['3']",3,0.465398100000129,"[-0.05323382]",52,49,"shape",3,17,"V","R",NA,"hard","plus","beta",-1,36,"hard"
1,1,"training",18,62,1.48341329999948,"['n']",1,"right","['0']",6,0.307469200000014,"[-0.12330857]",100,62,"shape",3,17,"V","R",NA,"easy","plus","beta",1,37,"easy"
2,1,"training",62,18,0.850151300000107,"['c']",1,"left","['0']",6,0.0846725999999762,"[0.03121926]",100,62,"shape",3,17,"V","R",NA,"easy","plus","beta",-1,38,"easy"
3,1,"training",18,62,1.14938930000062,"['n']",1,"right","['0']",6,0.139359999999215,"[-0.0419445]",99,62,"shape",3,17,"V","R",NA,"easy","plus","beta",1,39,"easy"
4,1,"training",18,62,1.06702789999963,"['n']",1,"right","['9']",5,0.314664600000469,"[-0.14124773]",100,62,"shape",3,17,"V","R",NA,"easy","plus","beta",1,40,"easy"
5,1,"training",23,57,0.765799200000401,"['n']",1,"right","['0']",6,0.127258200000142,"[-0.01446047]",97,57,"shape",3,17,"V","R",NA,"medium","plus","beta",1,41,"medium"
6,1,"training",49,31,0.666449500000454,"['c']",1,"left","['9']",5,0.111530600000151,"[0.03201036]",99,49,"shape",3,17,"V","R",NA,"hard","plus","beta",-1,42,"hard"
7,1,"training",57,23,0.916330999999445,"['c']",1,"left","['9']",5,0.597725300000093,"[0.06895283]",95,57,"shape",3,17,"V","R",NA,"medium","plus","beta",-1,43,"medium"
8,1,"training",31,49,1.01630569999998,"['c']",0,"right","['0']",6,0.0213297999998758,"[0.05939079]",100,49,"shape",3,17,"V","R",NA,"hard","plus","beta",-1,44,"hard"
9,1,"training",31,49,0.733443200000693,"['c']",0,"right","['9']",5,0.279040100000202,"[0.04363241]",97,49,"shape",3,17,"V","R",NA,"hard","plus","beta",-1,45,"hard"
10,1,"training",23,57,0.900723600000674,"['c']",0,"right","['1']",1,1.17564309999943,"[-0.20843521]",7,57,"shape",3,17,"V","R",NA,"medium","plus","beta",-1,46,"medium"
11,1,"training",62,18,1.49992999999995,"['c']",1,"left","['0']",6,0.228648299999804,"[0.16240762]",100,62,"shape",3,17,"V","R",NA,"easy","plus","beta",-1,47,"easy"
12,1,"training",18,62,0.882932499999697,"['c']",0,"right","['8']",4,0.0958247999997184,"[0.00842678]",98,62,"shape",3,17,"V","R",NA,"easy","plus","beta",-1,48,"easy"
13,1,"training",49,31,0.950829100000192,"['c']",1,"left","['1']",1,1.04580679999981,"[0.0121528]",77,49,"shape",3,17,"V","R",NA,"hard","plus","beta",-1,49,"hard"
14,1,"training",23,57,1.05022030000055,"['n']",1,"right","['0']",6,0.233737899999142,"[-0.11794287]",100,57,"shape",3,17,"V","R",NA,"medium","plus","beta",1,50,"medium"
15,1,"training",23,57,1.38292480000018,"['n']",1,"right","['9']",5,0.0814657999999326,"[-0.0296127]",100,57,"shape",3,17,"V","R",NA,"medium","plus","beta",1,51,"medium"
16,1,"training",62,18,1.63353060000009,"['c']",1,"left","['8']",4,0.284790300000168,"[0.16572777]",100,62,"shape",3,17,"V","R",NA,"easy","plus","beta",-1,52,"easy"
17,1,"training",31,49,2.94934459999968,"['c']",0,"right","['3']",3,0.139836400000604,"[0.06474728]",100,49,"shape",3,17,"V","R",NA,"hard","plus","beta",-1,53,"hard"
18,1,"training",31,49,1.83347450000019,"['c']",0,"right","['8']",4,1.15674230000059,"[0.15709643]",97,49,"shape",3,17,"V","R",NA,"hard","plus","beta",-1,54,"hard"
19,1,"training",57,23,1.36628920000021,"['n']",0,"left","['8']",4,0.959584699999141,"[0.08332369]",38,57,"shape",3,17,"V","R",NA,"medium","plus","beta",1,55,"medium"
20,1,"training",62,18,2.34986339999978,"['c']",1,"left","['0']",6,0.651288800000657,"[0.28543364]",100,62,"shape",3,17,"V","R",NA,"easy","plus","beta",-1,56,"easy"
21,1,"training",18,62,1.05007500000011,"['n']",1,"right","['0']",6,0.158763700000236,"[-0.09849881]",100,62,"shape",3,17,"V","R",NA,"easy","plus","beta",1,57,"easy"
22,1,"training",49,31,2.84974980000061,"['c']",1,"left","['8']",4,0.270395999999892,"[0.0154397]",92,49,"shape",3,17,"V","R",NA,"hard","plus","beta",-1,58,"hard"
23,1,"training",57,23,1.23337590000028,"['c']",1,"left","['0']",6,0.0259160999994492,"[0.05008314]",100,57,"shape",3,17,"V","R",NA,"medium","plus","beta",-1,59,"medium"
24,1,"training",62,18,0.86687880000045,"['c']",1,"left","['0']",6,0.261735099999896,"[0.10070017]",100,62,"shape",3,17,"V","R",NA,"easy","plus","beta",-1,60,"easy"
25,1,"training",31,49,1.66695150000032,"['n']",1,"right","['9']",5,0.256492099999377,"[-0.05144171]",98,49,"shape",3,17,"V","R",NA,"hard","plus","beta",1,61,"hard"
26,1,"training",49,31,1.06728789999943,"['c']",1,"left","['0']",6,0.0750876000001881,"[0.11099243]",100,49,"shape",3,17,"V","R",NA,"hard","plus","beta",-1,62,"hard"
27,1,"training",57,23,0.716018600000098,"['c']",1,"left","['0']",6,0.0591512000000876,"[0.04730356]",100,57,"shape",3,17,"V","R",NA,"medium","plus","beta",-1,63,"medium"
28,1,"training",57,23,0.883986099999674,"['c']",1,"left","['9']",5,0.396915399999671,"[0.14083276]",100,57,"shape",3,17,"V","R",NA,"medium","plus","beta",-1,64,"medium"
29,1,"training",23,57,1.15002849999928,"['n']",1,"right","['9']",5,0.0469741999995676,"[-0.05624242]",100,57,"shape",3,17,"V","R",NA,"medium","plus","beta",1,65,"medium"
30,1,"training",49,31,0.750116199999866,"['c']",1,"left","['9']",5,0.198759699999755,"[-0.00776653]",87,49,"shape",3,17,"V","R",NA,"hard","plus","beta",-1,66,"hard"
31,1,"training",23,57,0.933512000000519,"['n']",1,"right","['9']",5,0.249473199999557,"[-0.12409163]",100,57,"shape",3,17,"V","R",NA,"medium","plus","beta",1,67,"medium"
32,1,"training",18,62,2.49904549999974,"['n']",1,"right","['8']",4,0.0677682000005007,"[-0.06505361]",100,62,"shape",3,17,"V","R",NA,"easy","plus","beta",1,68,"easy"
33,1,"training",62,18,0.833538699999735,"['c']",1,"left","['0']",6,0.0318412999995417,"[0.04971174]",100,62,"shape",3,17,"V","R",NA,"easy","plus","beta",-1,69,"easy"
34,1,"training",57,23,0.999593599999571,"['c']",1,"left","['9']",5,0.782410300000265,"[0.1362342]",98,57,"shape",3,17,"V","R",NA,"medium","plus","beta",-1,70,"medium"
35,1,"training",49,31,0.699758099999599,"['c']",1,"left","['9']",5,1.12229070000012,"[-0.01248539]",68,49,"shape",3,17,"V","R",NA,"hard","plus","beta",-1,71,"hard"
0,2,"training",18,62,1.11642510000001,"['n']",1,"right","['0']",6,0.0450487999996767,"[-0.03777423]",100,62,"shape",3,17,"V","R",NA,"easy","plus","beta",1,72,"easy"
1,2,"training",49,31,0.733826599999702,"['c']",1,"left","['0']",6,0.0215128999998342,"[0.04817543]",100,49,"shape",3,17,"V","R",NA,"hard","plus","beta",-1,73,"hard"
2,2,"training",31,49,0.783308099999886,"['c']",0,"right","['8']",4,0.0126215000000229,"[0.04913717]",100,49,"shape",3,17,"V","R",NA,"hard","plus","beta",-1,74,"hard"
3,2,"training",49,31,0.850349000000278,"['c']",1,"left","['9']",5,0.602001700000073,"[0.1339826]",99,49,"shape",3,17,"V","R",NA,"hard","plus","beta",-1,75,"hard"
4,2,"training",31,49,0.900469500000327,"['c']",0,"right","['9']",5,0.0132125999998607,"[0.05158155]",100,49,"shape",3,17,"V","R",NA,"hard","plus","beta",-1,76,"hard"
5,2,"training",23,57,0.716834400000153,"['c']",0,"right","['9']",5,0.0797944999994797,"[0.03824669]",100,57,"shape",3,17,"V","R",NA,"medium","plus","beta",-1,77,"medium"
6,2,"training",23,57,1.13346499999989,"['n']",1,"right","['0']",6,0.951157200000125,"[-0.14055683]",97,57,"shape",3,17,"V","R",NA,"medium","plus","beta",1,78,"medium"
7,2,"training",18,62,1.38346569999976,"['n']",1,"right","['9']",5,0.0652580000005401,"[-0.03969165]",100,62,"shape",3,17,"V","R",NA,"easy","plus","beta",1,79,"easy"
8,2,"training",18,62,1.21646640000017,"['n']",1,"right","['9']",5,0.0140269000003173,"[-0.05489172]",100,62,"shape",3,17,"V","R",NA,"easy","plus","beta",1,80,"easy"
9,2,"training",62,18,2.84986159999971,"['c']",1,"left","['3']",3,0.635640500000591,"[0.21331479]",100,62,"shape",3,17,"V","R",NA,"easy","plus","beta",-1,81,"easy"
10,2,"training",23,57,1.28305259999979,"['n']",1,"right","['0']",6,0.278505199999927,"[-0.04130343]",96,57,"shape",3,17,"V","R",NA,"medium","plus","beta",1,82,"medium"
11,2,"training",62,18,0.716783300000316,"['c']",1,"left","['9']",5,0.0782856999994692,"[0.09406075]",100,62,"shape",3,17,"V","R",NA,"easy","plus","beta",-1,83,"easy"
12,2,"training",57,23,0.867090400000052,"['c']",1,"left","['9']",5,0.031503100000009,"[0.06814721]",100,57,"shape",3,17,"V","R",NA,"medium","plus","beta",-1,84,"medium"
13,2,"training",49,31,0.833531899999798,"['c']",1,"left","['9']",5,0.0927216000000044,"[0.05943353]",100,49,"shape",3,17,"V","R",NA,"hard","plus","beta",-1,85,"hard"
14,2,"training",49,31,1.16689039999983,"['c']",1,"left","['9']",5,0.0341969999999492,"[0.0836408]",100,49,"shape",3,17,"V","R",NA,"hard","plus","beta",-1,86,"hard"
15,2,"training",23,57,1.56679189999977,"['n']",1,"right","['0']",6,0.138212800000474,"[-0.10645066]",100,57,"shape",3,17,"V","R",NA,"medium","plus","beta",1,87,"medium"
16,2,"training",31,49,1.49982440000076,"['n']",1,"right","['0']",6,0.728165499999704,"[-0.12925238]",98,49,"shape",3,17,"V","R",NA,"hard","plus","beta",1,88,"hard"
17,2,"training",62,18,0.633926000000429,"['c']",1,"left","['0']",6,0.0814156000005823,"[0.10304663]",100,62,"shape",3,17,"V","R",NA,"easy","plus","beta",-1,89,"easy"
18,2,"training",57,23,3.39909820000048,"['c']",1,"left","['3']",3,0.230737599999884,"[0.06530473]",99,57,"shape",3,17,"V","R",NA,"medium","plus","beta",-1,90,"medium"
19,2,"training",57,23,3.79900319999979,"['c']",1,"left","['9']",5,0.149963500000013,"[0.16860543]",100,57,"shape",3,17,"V","R",NA,"medium","plus","beta",-1,91,"medium"
20,2,"training",31,49,0.883160100000168,"['n']",1,"right","['9']",5,1.00450060000003,"[-0.15344386]",98,49,"shape",3,17,"V","R",NA,"hard","plus","beta",1,92,"hard"
21,2,"training",31,49,1.94956400000046,"['n']",1,"right","['8']",4,0.110203500000353,"[-0.04125909]",99,49,"shape",3,17,"V","R",NA,"hard","plus","beta",1,93,"hard"
22,2,"training",23,57,0.883134799999425,"['c']",0,"right","['8']",4,1.17407520000052,"[-0.0723398]",43,57,"shape",3,17,"V","R",NA,"medium","plus","beta",-1,94,"medium"
24,2,"training",57,23,1.6338009000001,"['c']",1,"left","['9']",5,0.673233599999548,"[0.25577403]",100,57,"shape",3,17,"V","R",NA,"medium","plus","beta",-1,96,"medium"
25,2,"training",57,23,1.7661263,"['c']",1,"left","['9']",5,0.00741669999933947,"[0.04983863]",100,57,"shape",3,17,"V","R",NA,"medium","plus","beta",-1,97,"medium"
26,2,"training",49,31,0.700296299999536,"['c']",1,"left","['9']",5,1.12271640000017,"[0.0796425]",91,49,"shape",3,17,"V","R",NA,"hard","plus","beta",-1,98,"hard"
27,2,"training",31,49,1.36712269999953,"['n']",1,"right","['9']",5,0.246687300000303,"[-0.08558492]",99,49,"shape",3,17,"V","R",NA,"hard","plus","beta",1,99,"hard"
28,2,"training",23,57,1.40012910000041,"['n']",1,"right","['8']",4,0.196925100000044,"[-0.12670431]",100,57,"shape",3,17,"V","R",NA,"medium","plus","beta",1,100,"medium"
29,2,"training",18,62,1.39965250000023,"['n']",1,"right","['8']",4,0.604931199999555,"[-0.17254058]",99,62,"shape",3,17,"V","R",NA,"easy","plus","beta",1,101,"easy"
30,2,"training",18,62,1.16705540000021,"['n']",1,"right","['8']",4,0.0458249000002979,"[-0.03751296]",100,62,"shape",3,17,"V","R",NA,"easy","plus","beta",1,102,"easy"
31,2,"training",62,18,0.699750099999619,"['c']",1,"left","['0']",6,0.11151289999998,"[0.05569391]",100,62,"shape",3,17,"V","R",NA,"easy","plus","beta",-1,103,"easy"
32,2,"training",62,18,0.716594100000293,"['c']",1,"left","['0']",6,0.181727600000158,"[0.06820113]",99,62,"shape",3,17,"V","R",NA,"easy","plus","beta",-1,104,"easy"
33,2,"training",49,31,0.717326299999513,"['c']",1,"left","['0']",6,0.145307599999796,"[-0.00230241]",92,49,"shape",3,17,"V","R",NA,"hard","plus","beta",-1,105,"hard"
34,2,"training",57,23,0.933674800000517,"['c']",1,"left","['0']",6,0.189951800000017,"[0.04398945]",98,57,"shape",3,17,"V","R",NA,"medium","plus","beta",-1,106,"medium"
35,2,"training",62,18,0.951176499999747,"['c']",1,"left","['0']",6,0.00774480000018229,"[0.04909415]",100,62,"shape",3,17,"V","R",NA,"easy","plus","beta",-1,107,"easy"
1,0,"training",23,57,4.9989814999999,"['n']",1,"right","['9']",5,1.3740244999999,"[-0.39838366]",100,57,"letter",3,17,"V","R",NA,"medium","control","beta",1,1,"medium"
2,0,"training",64,16,1.08342159999938,"['c']",1,"left","['0']",6,0.195562999999311,"[0.06651655]",94,64,"letter",3,17,"V","R",NA,"easy","control","beta",-1,2,"easy"
3,0,"training",23,57,1.40017230000012,"['n']",1,"right","['9']",5,0.051715200000217,"[-0.04339577]",97,57,"letter",3,17,"V","R",NA,"medium","control","beta",1,3,"medium"
4,0,"training",16,64,0.916179299999385,"['n']",1,"right","['9']",5,0.0130099000007249,"[-0.04033421]",100,64,"letter",3,17,"V","R",NA,"easy","control","beta",1,4,"easy"
5,0,"training",23,57,0.666376299999683,"['n']",1,"right","['9']",5,0.0732872999997198,"[-0.0511963]",97,57,"letter",3,17,"V","R",NA,"medium","control","beta",1,5,"medium"
6,0,"training",16,64,0.900063200000659,"['n']",1,"right","['9']",5,0.169349100000545,"[-0.06207621]",94,64,"letter",3,17,"V","R",NA,"easy","control","beta",1,6,"easy"
7,0,"training",16,64,0.816742499999236,"['n']",1,"right","['9']",5,0.0498697000002721,"[-0.03619561]",95,64,"letter",3,17,"V","R",NA,"easy","control","beta",1,7,"easy"
8,0,"training",57,23,0.882887499999924,"['c']",1,"left","['9']",5,0.0685476999997263,"[0.05441547]",98,57,"letter",3,17,"V","R",NA,"medium","control","beta",-1,8,"medium"
9,0,"training",49,31,0.833085899999787,"['c']",1,"left","['9']",5,0.864520800000719,"[0.0675844]",79,49,"letter",3,17,"V","R",NA,"hard","control","beta",-1,9,"hard"
10,0,"training",64,16,0.766484700000547,"['c']",1,"left","['9']",5,0.438930499999515,"[0.18343533]",99,64,"letter",3,17,"V","R",NA,"easy","control","beta",-1,10,"easy"
11,0,"training",49,31,1.06654379999964,"['n']",0,"left","['9']",5,0.602460500000234,"[-0.01415446]",58,49,"letter",3,17,"V","R",NA,"hard","control","beta",1,11,"hard"
12,0,"training",31,49,0.949613900000259,"['c']",0,"right","['2']",2,0.80380519999926,"[0.07406859]",82,49,"letter",3,17,"V","R",NA,"hard","control","beta",-1,12,"hard"
13,0,"training",49,31,0.883299399999487,"['n']",0,"left","['9']",5,0.0883790000007139,"[-0.0950564]",100,49,"letter",3,17,"V","R",NA,"hard","control","beta",1,13,"hard"
14,0,"training",16,64,0.784156300000177,"['n']",1,"right","['9']",5,0.0285073999993983,"[-0.06306993]",100,64,"letter",3,17,"V","R",NA,"easy","control","beta",1,14,"easy"
15,0,"training",57,23,0.733374799999183,"['c']",1,"left","['9']",5,0.0776112000003195,"[0.05421736]",97,57,"letter",3,17,"V","R",NA,"medium","control","beta",-1,15,"medium"
16,0,"training",23,57,1.41659169999912,"['n']",1,"right","['9']",5,0.0258868999999322,"[-0.02534235]",94,57,"letter",3,17,"V","R",NA,"medium","control","beta",1,16,"medium"
17,0,"training",31,49,1.06653559999995,"['c']",0,"right","['9']",5,0.0210011999997732,"[0.07570554]",100,49,"letter",3,17,"V","R",NA,"hard","control","beta",-1,17,"hard"
18,0,"training",57,23,0.616814599999998,"['c']",1,"left","['9']",5,0.483515599999919,"[0.24311351]",100,57,"letter",3,17,"V","R",NA,"medium","control","beta",-1,18,"medium"
19,0,"training",64,16,0.616445000000567,"['c']",1,"left","['9']",5,0.0555369000003338,"[0.06480185]",99,64,"letter",3,17,"V","R",NA,"easy","control","beta",-1,19,"easy"
20,0,"training",31,49,0.916403299999729,"['c']",0,"right","['9']",5,0.160126300000229,"[0.08845266]",98,49,"letter",3,17,"V","R",NA,"hard","control","beta",-1,20,"hard"
21,0,"training",49,31,0.716799400000127,"['n']",0,"left","['9']",5,0.0206177999998545,"[-0.03941404]",99,49,"letter",3,17,"V","R",NA,"hard","control","beta",1,21,"hard"
22,0,"training",57,23,0.666663300000437,"['c']",1,"left","['8']",4,0.208862000000408,"[0.07312174]",95,57,"letter",3,17,"V","R",NA,"medium","control","beta",-1,22,"medium"
23,0,"training",49,31,0.833980500000507,"['n']",0,"left","['9']",5,0.287001700000474,"[0.00178106]",49,49,"letter",3,17,"V","R",NA,"hard","control","beta",1,23,"hard"
24,0,"training",16,64,0.733182500000112,"['n']",1,"right","['9']",5,0.0457140999997137,"[-0.04249855]",97,64,"letter",3,17,"V","R",NA,"easy","control","beta",1,24,"easy"
25,0,"training",23,57,0.984484200000225,"['n']",1,"right","['9']",5,0.0522690999996485,"[-0.01134918]",71,57,"letter",3,17,"V","R",NA,"medium","control","beta",1,25,"medium"
26,0,"training",57,23,1.58323770000061,"['c']",1,"left","['9']",5,0.611000599999898,"[0.09124103]",89,57,"letter",3,17,"V","R",NA,"medium","control","beta",-1,26,"medium"
27,0,"training",23,57,0.916334700000334,"['n']",1,"right","['9']",5,0.0777249000002485,"[-0.06531071]",99,57,"letter",3,17,"V","R",NA,"medium","control","beta",1,27,"medium"
28,0,"training",64,16,1.78220830000009,"['c']",1,"left","['2']",2,0.427132700000584,"[0.11463816]",96,64,"letter",3,17,"V","R",NA,"easy","control","beta",-1,28,"easy"
29,0,"training",64,16,1.81621279999945,"['c']",1,"left","['8']",4,0.169474099999206,"[0.0927159]",98,64,"letter",3,17,"V","R",NA,"easy","control","beta",-1,29,"easy"
30,0,"training",31,49,1.54998259999957,"['n']",1,"right","['8']",4,0.124762000000374,"[-0.00811702]",60,49,"letter",3,17,"V","R",NA,"hard","control","beta",1,30,"hard"
31,0,"training",31,49,0.833325900000091,"['c']",0,"right","['8']",4,0.134043699999893,"[0.00676279]",58,49,"letter",3,17,"V","R",NA,"hard","control","beta",-1,31,"hard"
32,0,"training",49,31,1.11651710000024,"['n']",0,"left","['8']",4,0.156128999999964,"[0.00896224]",40,49,"letter",3,17,"V","R",NA,"hard","control","beta",1,32,"hard"
33,0,"training",57,23,1.13289020000047,"['c']",1,"left","['8']",4,0.560099199999968,"[0.09047958]",90,57,"letter",3,17,"V","R",NA,"medium","control","beta",-1,33,"medium"
34,0,"training",64,16,0.600030900000093,"['c']",1,"left","['9']",5,0.721215999999913,"[0.13408044]",94,64,"letter",3,17,"V","R",NA,"easy","control","beta",-1,34,"easy"
35,0,"training",16,64,0.666755799999919,"['n']",1,"right","['9']",5,0.0810730000002877,"[-0.03388163]",89,64,"letter",3,17,"V","R",NA,"easy","control","beta",1,35,"easy"
0,1,"training",57,23,2.71653139999944,"['c']",1,"left","['8']",4,0.39994360000037,"[0.09575524]",94,57,"letter",3,17,"V","R",NA,"medium","control","beta",-1,36,"medium"
1,1,"training",57,23,0.916910699999789,"['n']",0,"left","['8']",4,0.0672210000002451,"[-0.08496871]",100,57,"letter",3,17,"V","R",NA,"medium","control","beta",1,37,"medium"
2,1,"training",49,31,0.86657490000016,"['c']",1,"left","['8']",4,0.00592289999985951,"[0.05296229]",100,49,"letter",3,17,"V","R",NA,"hard","control","beta",-1,38,"hard"
3,1,"training",49,31,0.716496000000006,"['c']",1,"left","['8']",4,0.488448699999935,"[0.08824546]",91,49,"letter",3,17,"V","R",NA,"hard","control","beta",-1,39,"hard"
4,1,"training",31,49,0.649819100000059,"['n']",1,"right","['8']",4,0.0103343999999197,"[-0.07345092]",100,49,"letter",3,17,"V","R",NA,"hard","control","beta",1,40,"hard"
5,1,"training",16,64,1.03294520000054,"['c']",0,"right","['0']",6,0.351955599999201,"[-0.05794851]",15,64,"letter",3,17,"V","R",NA,"easy","control","beta",-1,41,"easy"
6,1,"training",49,31,0.882395500000712,"['c']",1,"left","['9']",5,0.0621326000000408,"[0.03804632]",94,49,"letter",3,17,"V","R",NA,"hard","control","beta",-1,42,"hard"
7,1,"training",64,16,0.799785299999712,"['c']",1,"left","['8']",4,0.099511800000073,"[0.14166854]",100,64,"letter",3,17,"V","R",NA,"easy","control","beta",-1,43,"easy"
8,1,"training",16,64,0.666558899999472,"['c']",0,"right","['0']",6,0.0519775000002483,"[0.02054021]",83,64,"letter",3,17,"V","R",NA,"easy","control","beta",-1,44,"easy"
9,1,"training",31,49,1.54962009999963,"['n']",1,"right","['9']",5,0.236052700000073,"[-0.00315969]",53,49,"letter",3,17,"V","R",NA,"hard","control","beta",1,45,"hard"
10,1,"training",16,64,0.849912399999994,"['n']",1,"right","['9']",5,0.273089599999366,"[-0.10714433]",98,64,"letter",3,17,"V","R",NA,"easy","control","beta",1,46,"easy"
11,1,"training",57,23,1.03321229999983,"['c']",1,"left","['9']",5,0.140097500000593,"[0.12216361]",100,57,"letter",3,17,"V","R",NA,"medium","control","beta",-1,47,"medium"
12,1,"training",23,57,1.8664316000004,"['n']",1,"right","['9']",5,0.0194217999996908,"[-0.05749625]",100,57,"letter",3,17,"V","R",NA,"medium","control","beta",1,48,"medium"
13,1,"training",23,57,1.18345479999971,"['n']",1,"right","['9']",5,0.435674199999994,"[-0.0884013]",92,57,"letter",3,17,"V","R",NA,"medium","control","beta",1,49,"medium"
14,1,"training",31,49,0.933251899999959,"['c']",0,"right","['3']",3,0.396102900000187,"[0.06287193]",86,49,"letter",3,17,"V","R",NA,"hard","control","beta",-1,50,"hard"
15,1,"training",23,57,0.933213299999807,"['n']",1,"right","['8']",4,0.134832800000368,"[-0.03869888]",87,57,"letter",3,17,"V","R",NA,"medium","control","beta",1,51,"medium"
16,1,"training",16,64,1.01579760000004,"['n']",1,"right","['9']",5,0.208683300000303,"[-0.01235295]",62,64,"letter",3,17,"V","R",NA,"easy","control","beta",1,52,"easy"
17,1,"training",57,23,0.716864199999691,"['c']",1,"left","['8']",4,0.251557300000059,"[0.13997329]",99,57,"letter",3,17,"V","R",NA,"medium","control","beta",-1,53,"medium"
18,1,"training",23,57,3.1827502999995,"['n']",1,"right","['8']",4,0.010428999999931,"[-0.02307053]",98,57,"letter",3,17,"V","R",NA,"medium","control","beta",1,54,"medium"
19,1,"training",64,16,0.700142599999708,"['c']",1,"left","['8']",4,0.421675500000674,"[0.06132591]",85,64,"letter",3,17,"V","R",NA,"easy","control","beta",-1,55,"easy"
20,1,"training",16,64,0.633246299999882,"['n']",1,"right","['9']",5,0.10628480000014,"[-0.0281982]",83,64,"letter",3,17,"V","R",NA,"easy","control","beta",1,56,"easy"
21,1,"training",31,49,0.650052100000721,"['c']",0,"right","['9']",5,0.0833651000002646,"[0.0334943]",89,49,"letter",3,17,"V","R",NA,"hard","control","beta",-1,57,"hard"
22,1,"training",57,23,0.949874799999634,"['n']",0,"left","['9']",5,0.0973654999997962,"[-0.10555568]",100,57,"letter",3,17,"V","R",NA,"medium","control","beta",1,58,"medium"
23,1,"training",57,23,0.649929600000178,"['c']",1,"left","['0']",6,0.339220800000476,"[0.04322423]",79,57,"letter",3,17,"V","R",NA,"medium","control","beta",-1,59,"medium"
24,1,"training",49,31,0.666677300000629,"['c']",1,"left","['1']",1,1.01072709999971,"[0.21316692]",98,49,"letter",3,17,"V","R",NA,"hard","control","beta",-1,60,"hard"
25,1,"training",49,31,1.20002359999944,"['c']",1,"left","['8']",4,1.28999120000026,"[0.12858089]",88,49,"letter",3,17,"V","R",NA,"hard","control","beta",-1,61,"hard"
26,1,"training",64,16,0.833405100000164,"['c']",1,"left","['0']",6,0.236826100000144,"[0.12586417]",99,64,"letter",3,17,"V","R",NA,"easy","control","beta",-1,62,"easy"
27,1,"training",16,64,0.748712000000523,"['n']",1,"right","['0']",6,0.084916499999963,"[-0.0684986]",99,64,"letter",3,17,"V","R",NA,"easy","control","beta",1,63,"easy"
28,1,"training",23,57,1.13341169999967,"['n']",1,"right","['0']",6,0.0761276000002908,"[-0.02972763]",87,57,"letter",3,17,"V","R",NA,"medium","control","beta",1,64,"medium"
29,1,"training",64,16,0.733599700000013,"['c']",1,"left","['9']",5,0.2190528000001,"[0.04569654]",85,64,"letter",3,17,"V","R",NA,"easy","control","beta",-1,65,"easy"
30,1,"training",31,49,0.566577300000063,"['n']",1,"right","['9']",5,0.0918318000003637,"[-0.05257126]",96,49,"letter",3,17,"V","R",NA,"hard","control","beta",1,66,"hard"
31,1,"training",64,16,0.849981700000171,"['c']",1,"left","['9']",5,0.165770399999928,"[0.08061546]",97,64,"letter",3,17,"V","R",NA,"easy","control","beta",-1,67,"easy"
32,1,"training",23,57,1.78277640000033,"['n']",1,"right","['0']",6,0.151975400000083,"[0.0162617]",32,57,"letter",3,17,"V","R",NA,"medium","control","beta",1,68,"medium"
33,1,"training",31,49,1.26635669999996,"['n']",1,"right","['9']",5,0.487300099999629,"[-0.05405261]",80,49,"letter",3,17,"V","R",NA,"hard","control","beta",1,69,"hard"
