trial,withinphasetrial,withinblocktrial,block,phase,dotsLeft,dotsRight,rt,resp,cor,cresp,conf_press,cj,RTconf,ev,fb,diff,difflevel,condition,task,manip,questionID,questionResp,sub,age,gender,handedness,
0,0,0,0,0,53,27,2484,['c'],1,left,['2'],5,3359,[0.61284327],100,53,easy,minus,dotcolour,beta,,,53,19,V,R,
1,1,1,0,0,53,27,1032,['c'],1,left,['3'],4,2918,[0.78495687],100,53,easy,minus,dotcolour,beta,,,53,19,V,R,
2,2,2,0,0,33,47,2599,['n'],1,right,['3'],4,3090,[-0.48208939],99,47,medium,minus,dotcolour,beta,,,53,19,V,R,
3,3,3,0,0,44,36,2166,['c'],1,left,['3'],4,1560,[0.20632804],90,44,hard,minus,dotcolour,beta,,,53,19,V,R,
4,4,4,0,0,47,33,1901,['n'],0,left,['3'],4,1255,[0.08295753],10,47,medium,minus,dotcolour,beta,,,53,19,V,R,
5,5,5,0,0,27,53,2498,['n'],1,right,['3'],4,2801,[-0.58539262],100,53,easy,minus,dotcolour,beta,,,53,19,V,R,
6,6,6,0,0,36,44,1749,['n'],1,right,['2'],5,2043,[-0.38852076],99,44,hard,minus,dotcolour,beta,,,53,19,V,R,
7,7,7,0,0,27,53,1983,['n'],1,right,['2'],5,2266,[-0.4282507],99,53,easy,minus,dotcolour,beta,,,53,19,V,R,
8,8,8,0,0,27,53,1716,['n'],1,right,['1'],6,651,[-0.04733046],45,53,easy,minus,dotcolour,beta,,,53,19,V,R,
9,9,9,0,0,53,27,1750,['c'],1,left,['2'],5,1333,[0.35429097],99,53,easy,minus,dotcolour,beta,,,53,19,V,R,
10,10,10,0,0,33,47,1447,['n'],1,right,['1'],6,934,[-0.22455637],96,47,medium,minus,dotcolour,beta,,,53,19,V,R,
11,11,11,0,0,33,47,1232,['n'],1,right,['1'],6,561,[-0.11021755],79,47,medium,minus,dotcolour,beta,,,53,19,V,R,
12,12,12,0,0,36,44,1133,['n'],1,right,['1'],6,846,[-0.17259544],91,44,hard,minus,dotcolour,beta,,,53,19,V,R,
13,13,13,0,0,47,33,1398,['c'],1,left,['3'],4,1605,[0.26695237],95,47,medium,minus,dotcolour,beta,,,53,19,V,R,
14,14,14,0,0,36,44,1182,['n'],1,right,['2'],5,1374,[-0.47779638],100,44,hard,minus,dotcolour,beta,,,53,19,V,R,
15,15,15,0,0,27,53,1582,['n'],1,right,['1'],6,641,[-0.16198107],92,53,easy,minus,dotcolour,beta,,,53,19,V,R,
16,16,16,0,0,33,47,1264,['n'],1,right,['2'],5,1390,[-0.1331436],77,47,medium,minus,dotcolour,beta,,,53,19,V,R,
17,17,17,0,0,53,27,1263,['c'],1,left,['3'],4,1772,[0.55566805],100,53,easy,minus,dotcolour,beta,,,53,19,V,R,
18,18,18,0,0,44,36,1417,['c'],1,left,['3'],4,1525,[0.31096991],98,44,hard,minus,dotcolour,beta,,,53,19,V,R,
19,19,19,0,0,36,44,1764,['n'],1,right,['3'],4,850,[-0.09316564],68,44,hard,minus,dotcolour,beta,,,53,19,V,R,
20,20,20,0,0,53,27,1199,['c'],1,left,['3'],4,2001,[0.37228118],98,53,easy,minus,dotcolour,beta,,,53,19,V,R,
21,21,21,0,0,53,27,1514,['c'],1,left,['2'],5,572,[0.31966387],100,53,easy,minus,dotcolour,beta,,,53,19,V,R,
22,22,22,0,0,27,53,1780,['n'],1,right,['1'],6,607,[-0.27886023],99,53,easy,minus,dotcolour,beta,,,53,19,V,R,
23,23,23,0,0,36,44,1098,['n'],1,right,['1'],6,868,[-0.20562767],95,44,hard,minus,dotcolour,beta,,,53,19,V,R,
24,24,24,0,0,47,33,1383,['c'],1,left,['3'],4,899,[0.02981379],38,47,medium,minus,dotcolour,beta,,,53,19,V,R,
25,25,25,0,0,27,53,1782,['n'],1,right,['3'],4,1137,[-0.33940554],99,53,easy,minus,dotcolour,beta,,,53,19,V,R,
26,26,26,0,0,44,36,1733,['n'],0,left,['3'],4,872,[-0.01472321],31,44,hard,minus,dotcolour,beta,,,53,19,V,R,
27,27,27,0,0,44,36,1164,['c'],1,left,['3'],4,1031,[0.10530139],71,44,hard,minus,dotcolour,beta,,,53,19,V,R,
28,28,28,0,0,47,33,1699,['n'],0,left,['3'],4,699,[-0.02275051],33,47,medium,minus,dotcolour,beta,,,53,19,V,R,
29,29,29,0,0,47,33,1215,['c'],1,left,['3'],4,791,[0.06196685],53,47,medium,minus,dotcolour,beta,,,53,19,V,R,
30,30,30,0,0,36,44,1350,['n'],1,right,['3'],4,603,[-0.04747987],45,44,hard,minus,dotcolour,beta,,,53,19,V,R,
31,31,31,0,0,44,36,3316,['n'],0,left,['3'],4,639,[-0.07201149],59,44,hard,minus,dotcolour,beta,,,53,19,V,R,
32,32,32,0,0,27,53,1266,['n'],1,right,['2'],5,779,[-0.12399118],80,53,easy,minus,dotcolour,beta,,,53,19,V,R,
33,33,33,0,0,33,47,2064,['n'],1,right,['3'],4,603,[-0.17468295],94,47,medium,minus,dotcolour,beta,,,53,19,V,R,
34,34,34,0,0,33,47,1415,['n'],1,right,['3'],4,562,[-0.11401991],80,47,medium,minus,dotcolour,beta,,,53,19,V,R,
35,35,35,0,0,53,27,1731,['n'],0,left,['3'],4,464,[-0.10009469],76,53,easy,minus,dotcolour,beta,,,53,19,V,R,
36,36,36,0,0,44,36,1282,['n'],0,left,['2'],5,539,[-0.09667306],73,44,hard,minus,dotcolour,beta,,,53,19,V,R,
37,37,37,0,0,47,33,1233,['n'],0,left,['2'],5,869,[0.20060646],1,47,medium,minus,dotcolour,beta,,,53,19,V,R,
38,38,38,0,0,36,44,2482,['n'],1,right,['3'],4,520,[-0.12972139],86,44,hard,minus,dotcolour,beta,,,53,19,V,R,
39,39,39,0,0,47,33,1247,['n'],0,left,['3'],4,650,[0.03925986],11,47,medium,minus,dotcolour,beta,,,53,19,V,R,
40,40,40,0,0,44,36,1264,['n'],0,left,['3'],4,622,[-0.11456693],79,44,hard,minus,dotcolour,beta,,,53,19,V,R,
41,41,41,0,0,33,47,1032,['n'],1,right,['3'],4,557,[-0.05744585],51,47,medium,minus,dotcolour,beta,,,53,19,V,R,
42,42,0,1,0,36,44,1100,['n'],1,right,['3'],4,509,[-0.11670105],82,44,hard,minus,dotcolour,beta,,,53,19,V,R,
43,43,1,1,0,47,33,1366,['n'],0,left,['3'],4,531,[0.07779383],4,47,medium,minus,dotcolour,beta,,,53,19,V,R,
44,44,2,1,0,47,33,1649,['c'],1,left,['3'],4,725,[0.13404274],84,47,medium,minus,dotcolour,beta,,,53,19,V,R,
45,45,3,1,0,44,36,1431,['n'],0,left,['3'],4,584,[-0.18708632],96,44,hard,minus,dotcolour,beta,,,53,19,V,R,
46,46,4,1,0,47,33,1364,['n'],0,left,['3'],4,474,[-0.02357471],30,47,medium,minus,dotcolour,beta,,,53,19,V,R,
47,47,5,1,0,33,47,1332,['n'],1,right,['3'],4,603,[-0.0592219],52,47,medium,minus,dotcolour,beta,,,53,19,V,R,
48,48,6,1,0,53,27,1814,['n'],0,left,['3'],4,396,[0.09238068],1,53,easy,minus,dotcolour,beta,,,53,19,V,R,
49,49,7,1,0,53,27,915,['c'],1,left,['2'],5,640,[0.25776284],99,53,easy,minus,dotcolour,beta,,,53,19,V,R,
50,50,8,1,0,47,33,1749,['n'],0,left,['3'],4,513,[-0.06223197],54,47,medium,minus,dotcolour,beta,,,53,19,V,R,
51,51,9,1,0,27,53,898,['n'],1,right,['2'],5,578,[-0.2223537],98,53,easy,minus,dotcolour,beta,,,53,19,V,R,
52,52,10,1,0,53,27,1715,['c'],1,left,['3'],4,584,[0.07188126],59,53,easy,minus,dotcolour,beta,,,53,19,V,R,
53,53,11,1,0,33,47,1016,['n'],1,right,['1'],6,528,[-0.27444816],100,47,medium,minus,dotcolour,beta,,,53,19,V,R,
54,54,12,1,0,36,44,1549,['n'],1,right,['3'],4,558,[-0.10532687],77,44,hard,minus,dotcolour,beta,,,53,19,V,R,
55,55,13,1,0,27,53,1031,['n'],1,right,['2'],5,479,[-0.19126079],97,53,easy,minus,dotcolour,beta,,,53,19,V,R,
56,56,14,1,0,27,53,1016,['n'],1,right,['2'],5,469,[-0.19557773],98,53,easy,minus,dotcolour,beta,,,53,19,V,R,
57,57,15,1,0,36,44,1083,['n'],1,right,['2'],5,391,[-0.02192438],28,44,hard,minus,dotcolour,beta,,,53,19,V,R,
58,58,16,1,0,44,36,1166,['n'],0,left,['1'],6,466,[0.056314],5,44,hard,minus,dotcolour,beta,,,53,19,V,R,
59,59,17,1,0,27,53,1700,['n'],1,right,['1'],6,285,[-0.10045878],82,53,easy,minus,dotcolour,beta,,,53,19,V,R,
60,60,18,1,0,53,27,1514,['c'],1,left,['1'],6,605,[0.29498077],100,53,easy,minus,dotcolour,beta,,,53,19,V,R,
61,61,19,1,0,36,44,1181,['n'],1,right,['2'],5,759,[-0.18426357],93,44,hard,minus,dotcolour,beta,,,53,19,V,R,
62,62,20,1,0,33,47,850,['n'],1,right,['2'],5,479,[-0.17808698],96,47,medium,minus,dotcolour,beta,,,53,19,V,R,
63,63,21,1,0,44,36,932,['n'],0,left,['1'],6,712,[0.01762349],17,44,hard,minus,dotcolour,beta,,,53,19,V,R,
64,64,22,1,0,27,53,1800,['n'],1,right,['2'],5,885,[-0.26868616],98,53,easy,minus,dotcolour,beta,,,53,19,V,R,
65,65,23,1,0,44,36,1033,['n'],0,left,['2'],5,424,[-0.04048699],40,44,hard,minus,dotcolour,beta,,,53,19,V,R,
66,66,24,1,0,47,33,1266,['n'],0,left,['2'],5,550,[0.05370865],7,47,medium,minus,dotcolour,beta,,,53,19,V,R,
67,67,25,1,0,47,33,1732,['n'],0,left,['3'],4,419,[-0.16235383],95,47,medium,minus,dotcolour,beta,,,53,19,V,R,
68,68,26,1,0,44,36,1329,['c'],1,left,['3'],4,727,[-0.0024201],23,44,hard,minus,dotcolour,beta,,,53,19,V,R,
69,69,27,1,0,36,44,965,['n'],1,right,['1'],6,596,[0.04580583],9,44,hard,minus,dotcolour,beta,,,53,19,V,R,
70,70,28,1,0,33,47,966,['n'],1,right,['2'],5,550,[-0.19845245],97,47,medium,minus,dotcolour,beta,,,53,19,V,R,
71,71,29,1,0,44,36,1465,['c'],1,left,['3'],4,471,[0.18256104],97,44,hard,minus,dotcolour,beta,,,53,19,V,R,
72,72,30,1,0,27,53,1116,['n'],1,right,['2'],5,536,[-0.18895812],96,53,easy,minus,dotcolour,beta,,,53,19,V,R,
73,73,31,1,0,44,36,2315,['n'],0,left,['3'],4,551,[0.00656761],18,44,hard,minus,dotcolour,beta,,,53,19,V,R,
74,74,32,1,0,36,44,1066,['n'],1,right,['2'],5,367,[-0.14175344],93,44,hard,minus,dotcolour,beta,,,53,19,V,R,
75,75,33,1,0,53,27,1315,['c'],1,left,['2'],5,533,[0.03760206],39,53,easy,minus,dotcolour,beta,,,53,19,V,R,
76,76,34,1,0,33,47,783,['n'],1,right,['1'],6,442,[-0.01340232],24,47,medium,minus,dotcolour,beta,,,53,19,V,R,
77,77,35,1,0,36,44,1249,['n'],1,right,['1'],6,623,[0.05279156],8,44,hard,minus,dotcolour,beta,,,53,19,V,R,
78,78,36,1,0,53,27,1950,['c'],1,left,['3'],4,441,[0.16913031],96,53,easy,minus,dotcolour,beta,,,53,19,V,R,
79,79,37,1,0,53,27,1516,['c'],1,left,['2'],5,924,[0.03913719],42,53,easy,minus,dotcolour,beta,,,53,19,V,R,
80,80,38,1,0,33,47,998,['n'],1,right,['2'],5,311,[-0.1222786],90,47,medium,minus,dotcolour,beta,,,53,19,V,R,
81,81,39,1,0,47,33,1864,['n'],0,left,['2'],5,1498,[0.09110534],10,47,medium,minus,dotcolour,beta,,,53,19,V,R,
82,82,40,1,0,33,47,982,['n'],1,right,['2'],5,959,[-0.27489246],98,47,medium,minus,dotcolour,beta,,,53,19,V,R,
83,83,41,1,0,27,53,800,['n'],1,right,['1'],6,314,[-0.06219541],55,53,easy,minus,dotcolour,beta,,,53,19,V,R,
84,84,0,2,0,36,44,1916,['n'],1,right,['2'],5,487,[-0.13918862],90,44,hard,minus,dotcolour,beta,,,53,19,V,R,
85,85,1,2,0,36,44,732,['n'],1,right,['1'],6,375,[-0.13917754],92,44,hard,minus,dotcolour,beta,,,53,19,V,R,
86,86,2,2,0,44,36,1365,['n'],0,left,['3'],4,435,[-0.0232152],29,44,hard,minus,dotcolour,beta,,,53,19,V,R,
87,87,3,2,0,27,53,766,['n'],1,right,['1'],6,875,[-0.3265626],99,53,easy,minus,dotcolour,beta,,,53,19,V,R,
88,88,4,2,0,27,53,782,['n'],1,right,['1'],6,386,[-0.1939313],98,53,easy,minus,dotcolour,beta,,,53,19,V,R,
89,89,5,2,0,36,44,1581,['n'],1,right,['2'],5,244,[-0.21020613],100,44,hard,minus,dotcolour,beta,,,53,19,V,R,
90,90,6,2,0,33,47,798,['n'],1,right,['1'],6,412,[-0.14685931],93,47,medium,minus,dotcolour,beta,,,53,19,V,R,
91,91,7,2,0,27,53,716,['n'],1,right,['1'],6,296,[-0.1565754],97,53,easy,minus,dotcolour,beta,,,53,19,V,R,
92,92,8,2,0,33,47,781,['n'],1,right,['1'],6,550,[0.0465432],8,47,medium,minus,dotcolour,beta,,,53,19,V,R,
93,93,9,2,0,44,36,1349,['n'],0,left,['2'],5,412,[-0.00040588],18,44,hard,minus,dotcolour,beta,,,53,19,V,R,
94,94,10,2,0,47,33,2282,['n'],0,left,['3'],4,329,[0.04954624],4,47,medium,minus,dotcolour,beta,,,53,19,V,R,
95,95,11,2,0,33,47,1648,['n'],1,right,['1'],6,427,[-0.09102305],73,47,medium,minus,dotcolour,beta,,,53,19,V,R,
96,96,12,2,0,44,36,1899,['c'],1,left,['3'],4,559,[0.13561287],87,44,hard,minus,dotcolour,beta,,,53,19,V,R,
97,97,13,2,0,36,44,947,['n'],1,right,['1'],6,723,[-0.11347653],77,44,hard,minus,dotcolour,beta,,,53,19,V,R,
98,98,14,2,0,47,33,2131,['n'],0,left,['3'],4,571,[-0.02170745],31,47,medium,minus,dotcolour,beta,,,53,19,V,R,
99,99,15,2,0,36,44,1100,['n'],1,right,['2'],5,345,[-0.09274809],76,44,hard,minus,dotcolour,beta,,,53,19,V,R,
100,100,16,2,0,47,33,2100,['c'],1,left,['2'],5,696,[-0.05932437],8,47,medium,minus,dotcolour,beta,,,53,19,V,R,
101,101,17,2,0,44,36,1967,['c'],1,left,['2'],5,719,[0.11951893],80,44,hard,minus,dotcolour,beta,,,53,19,V,R,
102,102,18,2,0,33,47,1516,['n'],1,right,['1'],6,1326,[-0.17179778],86,47,medium,minus,dotcolour,beta,,,53,19,V,R,
103,103,19,2,0,47,33,1281,['c'],1,left,['2'],5,1095,[0.05098039],48,47,medium,minus,dotcolour,beta,,,53,19,V,R,
104,104,20,2,0,53,27,1215,['c'],1,left,['2'],5,442,[0.13907476],91,53,easy,minus,dotcolour,beta,,,53,19,V,R,
105,105,21,2,0,44,36,1682,['c'],1,left,['2'],5,375,[0.04897774],45,44,hard,minus,dotcolour,beta,,,53,19,V,R,
106,106,22,2,0,53,27,1615,['c'],1,left,['2'],5,368,[0.15509078],95,53,easy,minus,dotcolour,beta,,,53,19,V,R,
107,107,23,2,0,47,33,1648,['n'],0,left,['2'],5,936,[0.13578423],3,47,medium,minus,dotcolour,beta,,,53,19,V,R,
108,108,24,2,0,33,47,1182,['n'],1,right,['2'],5,372,[-0.11396725],85,47,medium,minus,dotcolour,beta,,,53,19,V,R,
109,109,25,2,0,53,27,1448,['n'],0,left,['2'],5,292,[-0.01621989],21,53,easy,minus,dotcolour,beta,,,53,19,V,R,
110,110,26,2,0,47,33,1382,['c'],1,left,['2'],5,1106,[0.2324629],95,47,medium,minus,dotcolour,beta,,,53,19,V,R,
111,111,27,2,0,53,27,1682,['n'],0,left,['3'],4,2572,[0.46535961],0,53,easy,minus,dotcolour,beta,,,53,19,V,R,
112,112,28,2,0,53,27,1233,['c'],1,left,['2'],5,587,[0.1587598],92,53,easy,minus,dotcolour,beta,,,53,19,V,R,
113,113,29,2,0,47,33,1115,['c'],1,left,['2'],5,495,[0.1795047],96,47,medium,minus,dotcolour,beta,,,53,19,V,R,
114,114,30,2,0,27,53,1180,['n'],1,right,['1'],6,446,[-0.12721172],87,53,easy,minus,dotcolour,beta,,,53,19,V,R,
115,115,31,2,0,27,53,1000,['n'],1,right,['2'],5,781,[-0.11686807],78,53,easy,minus,dotcolour,beta,,,53,19,V,R,
116,116,32,2,0,27,53,815,['n'],1,right,['2'],5,614,[-0.26143353],99,53,easy,minus,dotcolour,beta,,,53,19,V,R,
117,117,33,2,0,36,44,931,['n'],1,right,['1'],6,322,[-0.10723412],84,44,hard,minus,dotcolour,beta,,,53,19,V,R,
118,118,34,2,0,36,44,816,['n'],1,right,['1'],6,350,[-0.11103569],84,44,hard,minus,dotcolour,beta,,,53,19,V,R,
119,119,35,2,0,44,36,1382,['c'],1,left,['1'],6,354,[0.11973352],87,44,hard,minus,dotcolour,beta,,,53,19,V,R,
120,120,36,2,0,53,27,883,['c'],1,left,['1'],6,473,[0.1708011],95,53,easy,minus,dotcolour,beta,,,53,19,V,R,
121,121,37,2,0,27,53,815,['n'],1,right,['1'],6,358,[-0.08776873],72,53,easy,minus,dotcolour,beta,,,53,19,V,R,
122,122,38,2,0,33,47,1350,['n'],1,right,['1'],6,363,[-0.05097705],47,47,medium,minus,dotcolour,beta,,,53,19,V,R,
123,123,39,2,0,44,36,1432,['n'],0,left,['1'],6,1101,[-0.0027613],29,44,hard,minus,dotcolour,beta,,,53,19,V,R,
124,124,40,2,0,53,27,1348,['c'],1,left,['2'],5,363,[0.17883259],98,53,easy,minus,dotcolour,beta,,,53,19,V,R,
125,125,41,2,0,33,47,1064,['n'],1,right,['1'],6,355,[-0.05831207],52,47,medium,minus,dotcolour,beta,,,53,19,V,R,
126,0,0,3,1,36,44,1366,['n'],1,right,['2'],5,1305,[0.13903438],21,44,hard,plus,dotcolour,beta,,,53,19,V,R,
127,1,1,3,1,44,36,1215,['n'],0,left,['2'],5,382,[-0.11970304],99,44,hard,plus,dotcolour,beta,,,53,19,V,R,
128,2,2,3,1,53,27,1482,['c'],1,left,['1'],6,395,[0.06697065],97,53,easy,plus,dotcolour,beta,,,53,19,V,R,
129,3,3,3,1,27,53,899,['n'],1,right,['1'],6,472,[-0.08184474],97,53,easy,plus,dotcolour,beta,,,53,19,V,R,
130,4,4,3,1,33,47,1697,['n'],1,right,['1'],6,874,[-0.19746911],99,47,medium,plus,dotcolour,beta,,,53,19,V,R,
131,5,5,3,1,53,27,1132,['c'],1,left,['1'],6,715,[0.18216557],99,53,easy,plus,dotcolour,beta,,,53,19,V,R,
132,6,6,3,1,33,47,766,['n'],1,right,['1'],6,368,[-0.084563],98,47,medium,plus,dotcolour,beta,,,53,19,V,R,
133,7,7,3,1,53,27,1082,['c'],1,left,['1'],6,824,[0.08470455],94,53,easy,plus,dotcolour,beta,,,53,19,V,R,
134,8,8,3,1,27,53,1114,['n'],1,right,['1'],6,355,[-0.08496195],99,53,easy,plus,dotcolour,beta,,,53,19,V,R,
135,9,9,3,1,53,27,1381,['c'],1,left,['2'],5,567,[0.102665],98,53,easy,plus,dotcolour,beta,,,53,19,V,R,
136,10,10,3,1,47,33,1665,['c'],1,left,['2'],5,407,[0.10584299],99,47,medium,plus,dotcolour,beta,,,53,19,V,R,
137,11,11,3,1,36,44,1713,['c'],0,right,['2'],5,451,[0.03795988],92,44,hard,plus,dotcolour,beta,,,53,19,V,R,
138,12,12,3,1,33,47,1082,['n'],1,right,['1'],6,1143,[-0.0426111],84,47,medium,plus,dotcolour,beta,,,53,19,V,R,
139,13,13,3,1,47,33,1133,['n'],0,left,['1'],6,677,[-0.03300707],87,47,medium,plus,dotcolour,beta,,,53,19,V,R,
140,14,14,3,1,44,36,1065,['n'],0,left,['1'],6,520,[-0.13928684],99,44,hard,plus,dotcolour,beta,,,53,19,V,R,
141,15,15,3,1,44,36,1214,['n'],0,left,['1'],6,707,[-0.13976957],98,44,hard,plus,dotcolour,beta,,,53,19,V,R,
142,16,16,3,1,36,44,949,['n'],1,right,['1'],6,386,[-0.06989246],97,44,hard,plus,dotcolour,beta,,,53,19,V,R,
143,17,17,3,1,44,36,1331,['c'],1,left,['2'],5,454,[-0.05103505],53,44,hard,plus,dotcolour,beta,,,53,19,V,R,
144,18,18,3,1,27,53,817,['n'],1,right,['1'],6,325,[-0.06387593],98,53,easy,plus,dotcolour,beta,,,53,19,V,R,
145,19,19,3,1,33,47,750,['n'],1,right,['1'],6,371,[-0.20566325],100,47,medium,plus,dotcolour,beta,,,53,19,V,R,
146,20,20,3,1,47,33,1197,['n'],0,left,['1'],6,598,[0.01818985],70,47,medium,plus,dotcolour,beta,,,53,19,V,R,
147,21,21,3,1,27,53,1134,['n'],1,right,['1'],6,386,[-0.08533831],98,53,easy,plus,dotcolour,beta,,,53,19,V,R,
148,22,22,3,1,47,33,1329,['n'],0,left,['1'],6,487,[0.01182509],76,47,medium,plus,dotcolour,beta,,,53,19,V,R,
149,23,23,3,1,44,36,1850,['c'],1,left,['2'],5,466,[0.26212886],100,44,hard,plus,dotcolour,beta,,,53,19,V,R,
150,24,24,3,1,44,36,897,['n'],0,left,['1'],6,380,[-0.20479433],100,44,hard,plus,dotcolour,beta,,,53,19,V,R,
151,25,25,3,1,53,27,1616,['c'],1,left,['2'],5,365,[0.11802735],99,53,easy,plus,dotcolour,beta,,,53,19,V,R,
152,26,26,3,1,33,47,749,['n'],1,right,['1'],6,378,[-0.04742346],95,47,medium,plus,dotcolour,beta,,,53,19,V,R,
153,27,27,3,1,53,27,2150,['c'],1,left,['2'],5,831,[0.11605316],97,53,easy,plus,dotcolour,beta,,,53,19,V,R,
154,28,28,3,1,47,33,2948,['n'],0,left,['3'],4,1032,[0.11131228],27,47,medium,plus,dotcolour,beta,,,53,19,V,R,
155,29,29,3,1,36,44,882,['n'],1,right,['1'],6,477,[-0.05319521],94,44,hard,plus,dotcolour,beta,,,53,19,V,R,
156,30,30,3,1,33,47,1081,['n'],1,right,['2'],5,479,[-0.03923082],92,47,medium,plus,dotcolour,beta,,,53,19,V,R,
157,31,31,3,1,33,47,830,['n'],1,right,['2'],5,324,[0.01043167],81,47,medium,plus,dotcolour,beta,,,53,19,V,R,
158,32,32,3,1,36,44,1183,['n'],1,right,['2'],5,537,[-0.00031331],80,44,hard,plus,dotcolour,beta,,,53,19,V,R,
159,33,33,3,1,47,33,833,['n'],0,left,['2'],5,324,[-0.05500905],97,47,medium,plus,dotcolour,beta,,,53,19,V,R,
160,34,34,3,1,47,33,1197,['n'],0,left,['3'],4,1048,[0.17371037],11,47,medium,plus,dotcolour,beta,,,53,19,V,R,
161,35,35,3,1,27,53,932,['n'],1,right,['1'],6,801,[-0.29261457],100,53,easy,plus,dotcolour,beta,,,53,19,V,R,
162,36,36,3,1,27,53,683,['n'],1,right,['1'],6,326,[-0.1370138],100,53,easy,plus,dotcolour,beta,,,53,19,V,R,
163,37,37,3,1,44,36,948,['n'],0,left,['1'],6,436,[-0.0046801],84,44,hard,plus,dotcolour,beta,,,53,19,V,R,
164,38,38,3,1,36,44,798,['n'],1,right,['1'],6,523,[-0.05493882],94,44,hard,plus,dotcolour,beta,,,53,19,V,R,
165,39,39,3,1,36,44,1650,['n'],1,right,['2'],5,333,[-0.09368062],99,44,hard,plus,dotcolour,beta,,,53,19,V,R,
166,40,40,3,1,53,27,2397,['c'],1,left,['3'],4,890,[0.24120473],100,53,easy,plus,dotcolour,beta,,,53,19,V,R,
167,41,41,3,1,27,53,765,['n'],1,right,['1'],6,360,[-0.14663279],100,53,easy,plus,dotcolour,beta,,,53,19,V,R,
168,42,0,4,1,33,47,1066,['n'],1,right,['2'],5,542,[-0.17370157],100,47,medium,plus,dotcolour,beta,,,53,19,V,R,
169,43,1,4,1,27,53,714,['n'],1,right,['2'],5,485,[-0.10747467],99,53,easy,plus,dotcolour,beta,,,53,19,V,R,
170,44,2,4,1,36,44,832,['n'],1,right,['2'],5,402,[-0.04250931],94,44,hard,plus,dotcolour,beta,,,53,19,V,R,
171,45,3,4,1,36,44,882,['n'],1,right,['2'],5,374,[-0.10282107],99,44,hard,plus,dotcolour,beta,,,53,19,V,R,
172,46,4,4,1,27,53,1199,['n'],1,right,['1'],6,377,[-0.18106918],100,53,easy,plus,dotcolour,beta,,,53,19,V,R,
173,47,5,4,1,27,53,982,['n'],1,right,['1'],6,371,[-0.04223629],95,53,easy,plus,dotcolour,beta,,,53,19,V,R,
174,48,6,4,1,27,53,730,['n'],1,right,['1'],6,360,[-0.15032003],100,53,easy,plus,dotcolour,beta,,,53,19,V,R,
175,49,7,4,1,27,53,681,['n'],1,right,['1'],6,319,[-0.20057592],100,53,easy,plus,dotcolour,beta,,,53,19,V,R,
176,50,8,4,1,53,27,1533,['c'],1,left,['1'],6,407,[0.1551989],100,53,easy,plus,dotcolour,beta,,,53,19,V,R,
177,51,9,4,1,44,36,1333,['n'],0,left,['1'],6,346,[-0.05794601],97,44,hard,plus,dotcolour,beta,,,53,19,V,R,
178,52,10,4,1,33,47,766,['n'],1,right,['1'],6,374,[-0.19559151],100,47,medium,plus,dotcolour,beta,,,53,19,V,R,
179,53,11,4,1,47,33,1650,['c'],1,left,['1'],6,462,[0.18977718],100,47,medium,plus,dotcolour,beta,,,53,19,V,R,
180,54,12,4,1,47,33,1600,['n'],0,left,['2'],5,461,[0.01477923],75,47,medium,plus,dotcolour,beta,,,53,19,V,R,
181,55,13,4,1,53,27,1250,['c'],1,left,['1'],6,354,[0.13441034],100,53,easy,plus,dotcolour,beta,,,53,19,V,R,
182,56,14,4,1,53,27,1131,['c'],1,left,['1'],6,455,[0.10398181],99,53,easy,plus,dotcolour,beta,,,53,19,V,R,
183,57,15,4,1,53,27,1548,['n'],0,left,['2'],5,408,[0.05860914],48,53,easy,plus,dotcolour,beta,,,53,19,V,R,
184,58,16,4,1,36,44,765,['n'],1,right,['1'],6,371,[-0.18722329],100,44,hard,plus,dotcolour,beta,,,53,19,V,R,
185,59,17,4,1,33,47,1132,['n'],1,right,['1'],6,287,[-0.06211648],98,47,medium,plus,dotcolour,beta,,,53,19,V,R,
186,60,18,4,1,27,53,748,['n'],1,right,['1'],6,391,[-0.10094444],99,53,easy,plus,dotcolour,beta,,,53,19,V,R,
187,61,19,4,1,33,47,732,['n'],1,right,['1'],6,347,[-0.04504071],96,47,medium,plus,dotcolour,beta,,,53,19,V,R,
188,62,20,4,1,44,36,1616,['c'],1,left,['2'],5,574,[0.05881343],94,44,hard,plus,dotcolour,beta,,,53,19,V,R,
189,63,21,4,1,44,36,1601,['n'],0,left,['3'],4,1200,[0.03997941],56,44,hard,plus,dotcolour,beta,,,53,19,V,R,
190,64,22,4,1,53,27,1733,['c'],1,left,['1'],6,371,[0.15745095],100,53,easy,plus,dotcolour,beta,,,53,19,V,R,
191,65,23,4,1,44,36,848,['n'],0,left,['1'],6,331,[-0.04100045],95,44,hard,plus,dotcolour,beta,,,53,19,V,R,
192,66,24,4,1,36,44,1200,['n'],1,right,['1'],6,231,[-0.12292432],100,44,hard,plus,dotcolour,beta,,,53,19,V,R,
193,67,25,4,1,33,47,931,['n'],1,right,['1'],6,265,[-0.07630679],99,47,medium,plus,dotcolour,beta,,,53,19,V,R,
194,68,26,4,1,53,27,1930,['c'],1,left,['3'],4,1283,[0.30134072],100,53,easy,plus,dotcolour,beta,,,53,19,V,R,
195,69,27,4,1,27,53,914,['n'],1,right,['1'],6,627,[-0.13021256],99,53,easy,plus,dotcolour,beta,,,53,19,V,R,
196,70,28,4,1,47,33,798,['n'],0,left,['1'],6,324,[-0.11145099],99,47,medium,plus,dotcolour,beta,,,53,19,V,R,
197,71,29,4,1,47,33,981,['n'],0,left,['1'],6,376,[0.01266772],78,47,medium,plus,dotcolour,beta,,,53,19,V,R,
198,72,30,4,1,44,36,932,['n'],0,left,['1'],6,237,[-0.01582313],93,44,hard,plus,dotcolour,beta,,,53,19,V,R,
199,73,31,4,1,36,44,750,['n'],1,right,['1'],6,239,[-0.04633555],98,44,hard,plus,dotcolour,beta,,,53,19,V,R,
200,74,32,4,1,44,36,1700,['n'],0,left,['1'],6,195,[-0.11026295],100,44,hard,plus,dotcolour,beta,,,53,19,V,R,
201,75,33,4,1,53,27,1583,['c'],1,left,['2'],5,693,[0.26952973],100,53,easy,plus,dotcolour,beta,,,53,19,V,R,
202,76,34,4,1,33,47,1098,['n'],1,right,['1'],6,958,[-0.07364952],91,47,medium,plus,dotcolour,beta,,,53,19,V,R,
203,77,35,4,1,36,44,766,['n'],1,right,['1'],6,339,[-0.06566452],98,44,hard,plus,dotcolour,beta,,,53,19,V,R,
204,78,36,4,1,47,33,1332,['c'],1,left,['2'],5,432,[0.16804991],100,47,medium,plus,dotcolour,beta,,,53,19,V,R,
205,79,37,4,1,47,33,948,['n'],0,left,['1'],6,298,[-0.09597541],99,47,medium,plus,dotcolour,beta,,,53,19,V,R,
206,80,38,4,1,47,33,1249,['c'],1,left,['1'],6,494,[0.06922939],96,47,medium,plus,dotcolour,beta,,,53,19,V,R,
207,81,39,4,1,36,44,1131,['n'],1,right,['1'],6,1382,[-0.12749519],94,44,hard,plus,dotcolour,beta,,,53,19,V,R,
208,82,40,4,1,33,47,784,['n'],1,right,['1'],6,343,[-0.11980489],100,47,medium,plus,dotcolour,beta,,,53,19,V,R,
209,83,41,4,1,44,36,1482,['c'],1,left,['2'],5,711,[0.18508885],99,44,hard,plus,dotcolour,beta,,,53,19,V,R,
210,84,0,5,1,27,53,783,['n'],1,right,['1'],6,613,[-0.15053248],99,53,easy,plus,dotcolour,beta,,,53,19,V,R,
211,85,1,5,1,36,44,865,['n'],1,right,['1'],6,323,[-0.08669674],99,44,hard,plus,dotcolour,beta,,,53,19,V,R,
212,86,2,5,1,27,53,648,['n'],1,right,['1'],6,309,[-0.17691138],100,53,easy,plus,dotcolour,beta,,,53,19,V,R,
213,87,3,5,1,53,27,1716,['c'],1,left,['1'],6,445,[0.23363048],100,53,easy,plus,dotcolour,beta,,,53,19,V,R,
214,88,4,5,1,33,47,932,['n'],1,right,['1'],6,383,[-0.19711182],100,47,medium,plus,dotcolour,beta,,,53,19,V,R,
215,89,5,5,1,36,44,648,['n'],1,right,['1'],6,302,[-0.05198173],97,44,hard,plus,dotcolour,beta,,,53,19,V,R,
216,90,6,5,1,33,47,665,['n'],1,right,['1'],6,264,[-0.00782826],90,47,medium,plus,dotcolour,beta,,,53,19,V,R,
217,91,7,5,1,44,36,1998,['n'],0,left,['2'],5,255,[-0.03519688],96,44,hard,plus,dotcolour,beta,,,53,19,V,R,
218,92,8,5,1,36,44,632,['n'],1,right,['1'],6,213,[-0.07931378],99,44,hard,plus,dotcolour,beta,,,53,19,V,R,
219,93,9,5,1,36,44,650,['n'],1,right,['1'],6,236,[-0.07426627],99,44,hard,plus,dotcolour,beta,,,53,19,V,R,
220,94,10,5,1,44,36,1918,['c'],1,left,['2'],5,399,[0.05777755],96,44,hard,plus,dotcolour,beta,,,53,19,V,R,
221,95,11,5,1,47,33,1265,['c'],1,left,['2'],5,310,[0.09266356],99,47,medium,plus,dotcolour,beta,,,53,19,V,R,
222,96,12,5,1,27,53,898,['n'],1,right,['1'],6,294,[-0.06095883],98,53,easy,plus,dotcolour,beta,,,53,19,V,R,
223,97,13,5,1,33,47,799,['n'],1,right,['1'],6,316,[-0.05535935],97,47,medium,plus,dotcolour,beta,,,53,19,V,R,
224,98,14,5,1,47,33,1182,['c'],1,left,['1'],6,473,[0.06636245],96,47,medium,plus,dotcolour,beta,,,53,19,V,R,
225,99,15,5,1,27,53,682,['n'],1,right,['1'],6,340,[-0.0602729],97,53,easy,plus,dotcolour,beta,,,53,19,V,R,
226,100,16,5,1,47,33,1049,['c'],1,left,['1'],6,909,[0.22502393],100,47,medium,plus,dotcolour,beta,,,53,19,V,R,
227,101,17,5,1,33,47,732,['n'],1,right,['1'],6,276,[0.00661603],84,47,medium,plus,dotcolour,beta,,,53,19,V,R,
228,102,18,5,1,27,53,915,['n'],1,right,['1'],6,302,[-0.07488799],99,53,easy,plus,dotcolour,beta,,,53,19,V,R,
229,103,19,5,1,53,27,716,['c'],1,left,['1'],6,574,[0.20045842],100,53,easy,plus,dotcolour,beta,,,53,19,V,R,
230,104,20,5,1,44,36,648,['n'],0,left,['1'],6,286,[0.03430207],67,44,hard,plus,dotcolour,beta,,,53,19,V,R,
231,105,21,5,1,53,27,1515,['c'],1,left,['2'],5,439,[0.04857837],94,53,easy,plus,dotcolour,beta,,,53,19,V,R,
232,106,22,5,1,33,47,783,['n'],1,right,['1'],6,287,[-0.17147085],100,47,medium,plus,dotcolour,beta,,,53,19,V,R,
233,107,23,5,1,36,44,832,['n'],1,right,['1'],6,220,[-0.10136477],100,44,hard,plus,dotcolour,beta,,,53,19,V,R,
234,108,24,5,1,53,27,981,['c'],1,left,['1'],6,325,[0.09595715],99,53,easy,plus,dotcolour,beta,,,53,19,V,R,
235,109,25,5,1,47,33,2316,['c'],1,left,['2'],5,364,[0.04179858],95,47,medium,plus,dotcolour,beta,,,53,19,V,R,
236,110,26,5,1,44,36,1864,['c'],1,left,['2'],5,292,[-0.04284108],60,44,hard,plus,dotcolour,beta,,,53,19,V,R,
237,111,27,5,1,47,33,1384,['c'],1,left,['2'],5,322,[0.12190596],100,47,medium,plus,dotcolour,beta,,,53,19,V,R,
238,112,28,5,1,53,27,981,['c'],1,left,['1'],6,303,[0.23524949],100,53,easy,plus,dotcolour,beta,,,53,19,V,R,
239,113,29,5,1,27,53,2015,['n'],1,right,['1'],6,995,[-0.24253985],100,53,easy,plus,dotcolour,beta,,,53,19,V,R,
240,114,30,5,1,53,27,950,['c'],1,left,['1'],6,646,[0.2817583],100,53,easy,plus,dotcolour,beta,,,53,19,V,R,
241,115,31,5,1,47,33,1532,['c'],1,left,['2'],5,369,[0.04321947],95,47,medium,plus,dotcolour,beta,,,53,19,V,R,
242,116,32,5,1,47,33,1099,['n'],0,left,['2'],5,639,[-0.03477331],88,47,medium,plus,dotcolour,beta,,,53,19,V,R,
243,117,33,5,1,27,53,665,['n'],1,right,['1'],6,300,[-0.12891206],100,53,easy,plus,dotcolour,beta,,,53,19,V,R,
244,118,34,5,1,36,44,814,['n'],1,right,['1'],6,256,[-0.16374618],100,44,hard,plus,dotcolour,beta,,,53,19,V,R,
245,119,35,5,1,53,27,1698,['n'],0,left,['2'],5,411,[-0.04028761],94,53,easy,plus,dotcolour,beta,,,53,19,V,R,
246,120,36,5,1,44,36,900,['n'],0,left,['2'],5,335,[-0.10172508],99,44,hard,plus,dotcolour,beta,,,53,19,V,R,
247,121,37,5,1,36,44,732,['n'],1,right,['1'],6,566,[-0.29308143],100,44,hard,plus,dotcolour,beta,,,53,19,V,R,
248,122,38,5,1,44,36,2782,['c'],1,left,['2'],5,593,[0.23378641],100,44,hard,plus,dotcolour,beta,,,53,19,V,R,
249,123,39,5,1,33,47,1033,['n'],1,right,['2'],5,321,[-0.01089055],89,47,medium,plus,dotcolour,beta,,,53,19,V,R,
250,124,40,5,1,44,36,1615,['c'],1,left,['2'],5,413,[0.17779214],100,44,hard,plus,dotcolour,beta,,,53,19,V,R,
251,125,41,5,1,33,47,1132,['n'],1,right,['1'],6,1056,[-0.28261209],100,47,medium,plus,dotcolour,beta,,,53,19,V,R,
252,0,0,6,2,33,47,766,['n'],1,right,['1'],6,684,[-0.20282895],96,47,medium,minus,dotcolour,beta,,,53,19,V,R,
253,1,1,6,2,53,27,999,['c'],1,left,['2'],5,425,[0.10366603],79,53,easy,minus,dotcolour,beta,,,53,19,V,R,
254,2,2,6,2,53,27,1266,['c'],1,left,['1'],6,310,[0.1629566],97,53,easy,minus,dotcolour,beta,,,53,19,V,R,
255,3,3,6,2,33,47,932,['n'],1,right,['1'],6,294,[-0.08095759],70,47,medium,minus,dotcolour,beta,,,53,19,V,R,
256,4,4,6,2,44,36,1131,['n'],0,left,['1'],6,422,[-0.06310707],55,44,hard,minus,dotcolour,beta,,,53,19,V,R,
257,5,5,6,2,47,33,2133,['c'],1,left,['2'],5,385,[0.09920954],78,47,medium,minus,dotcolour,beta,,,53,19,V,R,
258,6,6,6,2,44,36,883,['n'],0,left,['2'],5,544,[-0.08702123],68,44,hard,minus,dotcolour,beta,,,53,19,V,R,
259,7,7,6,2,36,44,1365,['n'],1,right,['2'],5,276,[-0.08777288],75,44,hard,minus,dotcolour,beta,,,53,19,V,R,
260,8,8,6,2,47,33,2432,['n'],0,left,['2'],5,425,[-0.0166824],25,47,medium,minus,dotcolour,beta,,,53,19,V,R,
261,9,9,6,2,44,36,1099,['n'],0,left,['2'],5,269,[-0.03604051],34,44,hard,minus,dotcolour,beta,,,53,19,V,R,
262,10,10,6,2,36,44,748,['n'],1,right,['2'],5,637,[-0.13845751],87,44,hard,minus,dotcolour,beta,,,53,19,V,R,
263,11,11,6,2,36,44,833,['n'],1,right,['2'],5,467,[-0.16375828],95,44,hard,minus,dotcolour,beta,,,53,19,V,R,
264,12,12,6,2,44,36,1065,['n'],0,left,['1'],6,304,[-0.10020797],81,44,hard,minus,dotcolour,beta,,,53,19,V,R,
265,13,13,6,2,36,44,1015,['n'],1,right,['2'],5,276,[-0.07502235],66,44,hard,minus,dotcolour,beta,,,53,19,V,R,
266,14,14,6,2,33,47,699,['n'],1,right,['1'],6,318,[-0.18901615],99,47,medium,minus,dotcolour,beta,,,53,19,V,R,
267,15,15,6,2,33,47,631,['n'],1,right,['1'],6,209,[-0.14858138],97,47,medium,minus,dotcolour,beta,,,53,19,V,R,
268,16,16,6,2,33,47,715,['n'],1,right,['1'],6,237,[-0.10088677],84,47,medium,minus,dotcolour,beta,,,53,19,V,R,
269,17,17,6,2,44,36,1549,['c'],1,left,['1'],6,399,[0.22297202],99,44,hard,minus,dotcolour,beta,,,53,19,V,R,
270,18,18,6,2,27,53,680,['n'],1,right,['1'],6,269,[-0.15918221],97,53,easy,minus,dotcolour,beta,,,53,19,V,R,
271,19,19,6,2,27,53,615,['n'],1,right,['1'],6,299,[-0.12270669],90,53,easy,minus,dotcolour,beta,,,53,19,V,R,
272,20,20,6,2,53,27,1316,['c'],1,left,['1'],6,380,[0.10964997],83,53,easy,minus,dotcolour,beta,,,53,19,V,R,
273,21,21,6,2,44,36,1048,['n'],0,left,['0'],1,2548,[0.08208706],17,44,hard,minus,dotcolour,beta,,,53,19,V,R,
274,22,22,6,2,47,33,1415,['c'],1,left,['1'],6,590,[0.06236918],54,47,medium,minus,dotcolour,beta,,,53,19,V,R,
275,23,23,6,2,53,27,2515,['n'],0,left,['2'],5,491,[-0.01037439],24,53,easy,minus,dotcolour,beta,,,53,19,V,R,
276,24,24,6,2,27,53,914,['n'],1,right,['1'],6,395,[-0.17860952],97,53,easy,minus,dotcolour,beta,,,53,19,V,R,
277,25,25,6,2,36,44,965,['n'],1,right,['1'],6,486,[-0.09028669],71,44,hard,minus,dotcolour,beta,,,53,19,V,R,
278,26,26,6,2,47,33,2163,['c'],1,left,['2'],5,532,[0.17525279],95,47,medium,minus,dotcolour,beta,,,53,19,V,R,
279,27,27,6,2,47,33,1414,['n'],0,left,['2'],5,463,[0.00761964],16,47,medium,minus,dotcolour,beta,,,53,19,V,R,
280,28,28,6,2,27,53,733,['n'],1,right,['1'],6,281,[-0.07717346],68,53,easy,minus,dotcolour,beta,,,53,19,V,R,
281,29,29,6,2,27,53,698,['n'],1,right,['1'],6,235,[-0.12355241],93,53,easy,minus,dotcolour,beta,,,53,19,V,R,
282,30,30,6,2,33,47,616,['n'],1,right,['1'],6,882,[-0.0818172],62,47,medium,minus,dotcolour,beta,,,53,19,V,R,
283,31,31,6,2,47,33,1749,['n'],0,left,['2'],5,433,[-0.11086681],82,47,medium,minus,dotcolour,beta,,,53,19,V,R,
284,32,32,6,2,53,27,1532,['c'],1,left,['1'],6,692,[0.03300435],38,53,easy,minus,dotcolour,beta,,,53,19,V,R,
285,33,33,6,2,36,44,815,['n'],1,right,['1'],6,224,[-0.05560024],50,44,hard,minus,dotcolour,beta,,,53,19,V,R,
286,34,34,6,2,47,33,1249,['c'],1,left,['2'],5,503,[0.13656063],89,47,medium,minus,dotcolour,beta,,,53,19,V,R,
287,35,35,6,2,53,27,1098,['c'],1,left,['2'],5,432,[0.10774294],81,53,easy,minus,dotcolour,beta,,,53,19,V,R,
288,36,36,6,2,27,53,1482,['n'],1,right,['1'],6,324,[-0.18060846],98,53,easy,minus,dotcolour,beta,,,53,19,V,R,
289,37,37,6,2,44,36,1482,['c'],1,left,['2'],5,773,[0.10378377],73,44,hard,minus,dotcolour,beta,,,53,19,V,R,
290,38,38,6,2,27,53,1400,['n'],1,right,['1'],6,374,[-0.1860605],98,53,easy,minus,dotcolour,beta,,,53,19,V,R,
291,39,39,6,2,33,47,765,['n'],1,right,['1'],6,258,[-0.10597066],86,47,medium,minus,dotcolour,beta,,,53,19,V,R,
292,40,40,6,2,53,27,1148,['c'],1,left,['2'],5,339,[0.13890286],93,53,easy,minus,dotcolour,beta,,,53,19,V,R,
293,41,41,6,2,36,44,748,['n'],1,right,['1'],6,320,[-0.07119518],62,44,hard,minus,dotcolour,beta,,,53,19,V,R,
294,42,0,7,2,53,27,1066,['c'],1,left,['1'],6,529,[0.15701],92,53,easy,minus,dotcolour,beta,,,53,19,V,R,
295,43,1,7,2,47,33,1433,['c'],1,left,['2'],5,348,[0.11476496],86,47,medium,minus,dotcolour,beta,,,53,19,V,R,
296,44,2,7,2,44,36,1181,['n'],0,left,['2'],5,280,[-0.0361669],34,44,hard,minus,dotcolour,beta,,,53,19,V,R,
297,45,3,7,2,33,47,932,['n'],1,right,['2'],5,312,[-0.04852589],44,47,medium,minus,dotcolour,beta,,,53,19,V,R,
298,46,4,7,2,33,47,767,['n'],1,right,['1'],6,311,[-0.06868667],60,47,medium,minus,dotcolour,beta,,,53,19,V,R,
299,47,5,7,2,36,44,799,['n'],1,right,['2'],5,563,[-0.12334476],84,44,hard,minus,dotcolour,beta,,,53,19,V,R,
300,48,6,7,2,33,47,551,['n'],1,right,['1'],6,304,[-0.14061425],94,47,medium,minus,dotcolour,beta,,,53,19,V,R,
301,49,7,7,2,47,33,1933,['c'],1,left,['2'],5,488,[0.0703292],59,47,medium,minus,dotcolour,beta,,,53,19,V,R,
302,50,8,7,2,47,33,1165,['c'],1,left,['2'],5,383,[0.12711251],89,47,medium,minus,dotcolour,beta,,,53,19,V,R,
303,51,9,7,2,44,36,1166,['n'],0,left,['1'],6,362,[0.01208789],12,44,hard,minus,dotcolour,beta,,,53,19,V,R,
304,52,10,7,2,27,53,683,['n'],1,right,['1'],6,297,[-0.07123131],63,53,easy,minus,dotcolour,beta,,,53,19,V,R,
305,53,11,7,2,53,27,1149,['c'],1,left,['1'],6,408,[0.08822295],72,53,easy,minus,dotcolour,beta,,,53,19,V,R,
306,54,12,7,2,27,53,849,['n'],1,right,['1'],6,335,[-0.13335941],92,53,easy,minus,dotcolour,beta,,,53,19,V,R,
307,55,13,7,2,47,33,1365,['n'],0,left,['1'],6,571,[-0.10748914],78,47,medium,minus,dotcolour,beta,,,53,19,V,R,
308,56,14,7,2,44,36,1049,['n'],0,left,['1'],6,323,[-0.08400465],71,44,hard,minus,dotcolour,beta,,,53,19,V,R,
309,57,15,7,2,33,47,765,['n'],1,right,['1'],6,241,[-0.1021236],85,47,medium,minus,dotcolour,beta,,,53,19,V,R,
310,58,16,7,2,44,36,1199,['n'],0,left,['1'],6,216,[-0.09684928],83,44,hard,minus,dotcolour,beta,,,53,19,V,R,
311,59,17,7,2,33,47,1698,['n'],1,right,['1'],6,357,[-0.16671857],97,47,medium,minus,dotcolour,beta,,,53,19,V,R,
312,60,18,7,2,47,33,1180,['n'],0,left,['2'],5,760,[-0.0294823],37,47,medium,minus,dotcolour,beta,,,53,19,V,R,
313,61,19,7,2,33,47,698,['n'],1,right,['1'],6,415,[-0.12110712],86,47,medium,minus,dotcolour,beta,,,53,19,V,R,
314,62,20,7,2,53,27,1232,['c'],1,left,['2'],5,422,[0.15640745],94,53,easy,minus,dotcolour,beta,,,53,19,V,R,
315,63,21,7,2,27,53,616,['n'],1,right,['1'],6,453,[-0.11627227],84,53,easy,minus,dotcolour,beta,,,53,19,V,R,
316,64,22,7,2,27,53,666,['n'],1,right,['1'],6,283,[-0.11187535],87,53,easy,minus,dotcolour,beta,,,53,19,V,R,
317,65,23,7,2,33,47,783,['n'],1,right,['1'],6,337,[-0.12053356],88,47,medium,minus,dotcolour,beta,,,53,19,V,R,
318,66,24,7,2,44,36,681,['n'],0,left,['1'],6,370,[-0.0381427],37,44,hard,minus,dotcolour,beta,,,53,19,V,R,
319,67,25,7,2,27,53,665,['n'],1,right,['1'],6,305,[-0.13424775],93,53,easy,minus,dotcolour,beta,,,53,19,V,R,
320,68,26,7,2,44,36,931,['n'],0,left,['1'],6,282,[-0.11359669],88,44,hard,minus,dotcolour,beta,,,53,19,V,R,
321,69,27,7,2,53,27,1417,['n'],0,left,['2'],5,238,[-0.10131299],84,53,easy,minus,dotcolour,beta,,,53,19,V,R,
322,70,28,7,2,36,44,682,['n'],1,right,['1'],6,259,[-0.100607],83,44,hard,minus,dotcolour,beta,,,53,19,V,R,
323,71,29,7,2,53,27,1233,['c'],1,left,['2'],5,689,[0.07473321],60,53,easy,minus,dotcolour,beta,,,53,19,V,R,
324,72,30,7,2,27,53,747,['n'],1,right,['1'],6,264,[-0.03582028],33,53,easy,minus,dotcolour,beta,,,53,19,V,R,
325,73,31,7,2,47,33,1614,['c'],1,left,['2'],5,302,[0.14754657],95,47,medium,minus,dotcolour,beta,,,53,19,V,R,
326,74,32,7,2,27,53,716,['n'],1,right,['1'],6,406,[-0.1317181],90,53,easy,minus,dotcolour,beta,,,53,19,V,R,
327,75,33,7,2,36,44,1616,['n'],1,right,['2'],5,350,[-0.09641924],78,44,hard,minus,dotcolour,beta,,,53,19,V,R,
328,76,34,7,2,53,27,980,['c'],1,left,['1'],6,371,[0.03669111],36,53,easy,minus,dotcolour,beta,,,53,19,V,R,
329,77,35,7,2,36,44,1216,['n'],1,right,['2'],5,397,[-0.15567536],95,44,hard,minus,dotcolour,beta,,,53,19,V,R,
330,78,36,7,2,36,44,865,['n'],1,right,['1'],6,251,[-0.04510116],41,44,hard,minus,dotcolour,beta,,,53,19,V,R,
331,79,37,7,2,44,36,783,['n'],0,left,['1'],6,260,[-0.11305119],88,44,hard,minus,dotcolour,beta,,,53,19,V,R,
332,80,38,7,2,36,44,614,['n'],1,right,['1'],6,289,[0.00514632],12,44,hard,minus,dotcolour,beta,,,53,19,V,R,
333,81,39,7,2,47,33,1399,['c'],1,left,['2'],5,310,[0.02657827],28,47,medium,minus,dotcolour,beta,,,53,19,V,R,
334,82,40,7,2,53,27,898,['c'],1,left,['2'],5,263,[0.21229989],100,53,easy,minus,dotcolour,beta,,,53,19,V,R,
335,83,41,7,2,36,44,764,['n'],1,right,['1'],6,287,[-0.10248148],83,44,hard,minus,dotcolour,beta,,,53,19,V,R,
336,84,0,8,2,36,44,1667,['n'],1,right,['1'],6,253,[-0.07195577],64,44,hard,minus,dotcolour,beta,,,53,19,V,R,
337,85,1,8,2,44,36,749,['n'],0,left,['1'],6,542,[-0.01438223],27,44,hard,minus,dotcolour,beta,,,53,19,V,R,
338,86,2,8,2,27,53,734,['n'],1,right,['1'],6,243,[-0.17578439],99,53,easy,minus,dotcolour,beta,,,53,19,V,R,
339,87,3,8,2,33,47,615,['n'],1,right,['1'],6,266,[-0.09615826],80,47,medium,minus,dotcolour,beta,,,53,19,V,R,
340,88,4,8,2,53,27,1400,['c'],1,left,['2'],5,305,[0.02606121],28,53,easy,minus,dotcolour,beta,,,53,19,V,R,
341,89,5,8,2,36,44,683,['n'],1,right,['1'],6,275,[-0.05874261],53,44,hard,minus,dotcolour,beta,,,53,19,V,R,
342,90,6,8,2,36,44,864,['n'],1,right,['1'],6,1142,[-0.16755541],87,44,hard,minus,dotcolour,beta,,,53,19,V,R,
343,91,7,8,2,47,33,664,['n'],0,left,['1'],6,247,[-0.01965371],21,47,medium,minus,dotcolour,beta,,,53,19,V,R,
344,92,8,8,2,47,33,2583,['c'],1,left,['3'],4,479,[0.1669449],95,47,medium,minus,dotcolour,beta,,,53,19,V,R,
345,93,9,8,2,36,44,732,['n'],1,right,['1'],6,895,[-0.08016357],61,44,hard,minus,dotcolour,beta,,,53,19,V,R,
346,94,10,8,2,53,27,1097,['c'],1,left,['1'],6,321,[0.11899213],88,53,easy,minus,dotcolour,beta,,,53,19,V,R,
347,95,11,8,2,47,33,1431,['c'],1,left,['2'],5,740,[0.15774452],89,47,medium,minus,dotcolour,beta,,,53,19,V,R,
348,96,12,8,2,27,53,715,['n'],1,right,['1'],6,242,[-0.05664108],51,53,easy,minus,dotcolour,beta,,,53,19,V,R,
349,97,13,8,2,33,47,2464,['c'],0,right,['2'],5,383,[-0.0562643],4,47,medium,minus,dotcolour,beta,,,53,19,V,R,
350,98,14,8,2,53,27,1297,['c'],1,left,['2'],5,341,[0.19676794],99,53,easy,minus,dotcolour,beta,,,53,19,V,R,
351,99,15,8,2,44,36,731,['n'],0,left,['1'],6,315,[-0.04904261],45,44,hard,minus,dotcolour,beta,,,53,19,V,R,
352,100,16,8,2,44,36,1299,['c'],1,left,['2'],5,724,[-0.05709152],8,44,hard,minus,dotcolour,beta,,,53,19,V,R,
353,101,17,8,2,33,47,681,['n'],1,right,['1'],6,276,[-0.12932594],93,47,medium,minus,dotcolour,beta,,,53,19,V,R,
354,102,18,8,2,47,33,1449,['c'],1,left,['2'],5,384,[0.03811108],38,47,medium,minus,dotcolour,beta,,,53,19,V,R,
355,103,19,8,2,47,33,1516,['c'],1,left,['2'],5,309,[0.13209399],92,47,medium,minus,dotcolour,beta,,,53,19,V,R,
356,104,20,8,2,44,36,1632,['n'],0,left,['2'],5,617,[-0.11374333],79,44,hard,minus,dotcolour,beta,,,53,19,V,R,
357,105,21,8,2,53,27,1166,['c'],1,left,['2'],5,299,[0.16950681],98,53,easy,minus,dotcolour,beta,,,53,19,V,R,
358,106,22,8,2,33,47,1382,['n'],1,right,['2'],5,569,[-0.03431026],38,47,medium,minus,dotcolour,beta,,,53,19,V,R,
359,107,23,8,2,47,33,1282,['n'],0,left,['9'],2,2751,[0.24888746],4,47,medium,minus,dotcolour,beta,,,53,19,V,R,
360,108,24,8,2,27,53,1683,['n'],1,right,['1'],6,295,[-0.06665862],59,53,easy,minus,dotcolour,beta,,,53,19,V,R,
361,109,25,8,2,33,47,1548,['n'],1,right,['2'],5,263,[-0.14228459],95,47,medium,minus,dotcolour,beta,,,53,19,V,R,
362,110,26,8,2,44,36,1299,['c'],1,left,['2'],5,409,[0.17130689],96,44,hard,minus,dotcolour,beta,,,53,19,V,R,
363,111,27,8,2,36,44,765,['n'],1,right,['1'],6,259,[-0.07612402],67,44,hard,minus,dotcolour,beta,,,53,19,V,R,
364,112,28,8,2,33,47,1047,['n'],1,right,['1'],6,399,[0.04254769],6,47,medium,minus,dotcolour,beta,,,53,19,V,R,
365,113,29,8,2,47,33,2415,['c'],1,left,['2'],5,360,[0.10161826],80,47,medium,minus,dotcolour,beta,,,53,19,V,R,
366,114,30,8,2,27,53,731,['n'],1,right,['1'],6,333,[-0.11949024],88,53,easy,minus,dotcolour,beta,,,53,19,V,R,
367,115,31,8,2,27,53,747,['n'],1,right,['1'],6,283,[-0.08247434],71,53,easy,minus,dotcolour,beta,,,53,19,V,R,
368,116,32,8,2,27,53,533,['n'],1,right,['1'],6,275,[-0.14650121],96,53,easy,minus,dotcolour,beta,,,53,19,V,R,
369,117,33,8,2,36,44,582,['n'],1,right,['1'],6,259,[-0.08261682],72,44,hard,minus,dotcolour,beta,,,53,19,V,R,
370,118,34,8,2,53,27,865,['n'],0,left,['1'],6,214,[-0.08658662],77,53,easy,minus,dotcolour,beta,,,53,19,V,R,
371,119,35,8,2,44,36,3531,['c'],1,left,['2'],5,257,[0.11820281],90,44,hard,minus,dotcolour,beta,,,53,19,V,R,
372,120,36,8,2,33,47,799,['n'],1,right,['1'],6,224,[-0.05821689],53,47,medium,minus,dotcolour,beta,,,53,19,V,R,
373,121,37,8,2,36,44,764,['n'],1,right,['1'],6,194,[-0.13201436],96,44,hard,minus,dotcolour,beta,,,53,19,V,R,
374,122,38,8,2,53,27,1747,['c'],1,left,['2'],5,277,[0.06916985],61,53,easy,minus,dotcolour,beta,,,53,19,V,R,
375,123,39,8,2,27,53,631,['n'],1,right,['1'],6,298,[-0.10883401],85,53,easy,minus,dotcolour,beta,,,53,19,V,R,
376,124,40,8,2,44,36,1133,['c'],1,left,['2'],5,305,[0.16829561],98,44,hard,minus,dotcolour,beta,,,53,19,V,R,
377,125,41,8,2,53,27,632,['c'],1,left,['1'],6,989,[0.31910628],99,53,easy,minus,dotcolour,beta,,,53,19,V,R,
378,0,0,9,3,47,33,2016,['c'],1,left,['1'],6,352,[0.14625004],100,47,medium,plus,dotcolour,beta,,,53,19,V,R,
379,1,1,9,3,36,44,632,['n'],1,right,['1'],6,403,[0.01123658],78,44,hard,plus,dotcolour,beta,,,53,19,V,R,
380,2,2,9,3,44,36,1515,['c'],1,left,['2'],5,319,[0.12216283],100,44,hard,plus,dotcolour,beta,,,53,19,V,R,
381,3,3,9,3,44,36,1000,['n'],0,left,['1'],6,259,[-0.14013787],100,44,hard,plus,dotcolour,beta,,,53,19,V,R,
382,4,4,9,3,53,27,2814,['c'],1,left,['3'],4,625,[0.09436881],97,53,easy,plus,dotcolour,beta,,,53,19,V,R,
383,5,5,9,3,33,47,882,['n'],1,right,['2'],5,597,[-0.09127035],97,47,medium,plus,dotcolour,beta,,,53,19,V,R,
384,6,6,9,3,44,36,2098,['c'],1,left,['2'],5,363,[0.11004897],99,44,hard,plus,dotcolour,beta,,,53,19,V,R,
385,7,7,9,3,53,27,1032,['c'],1,left,['2'],5,356,[0.21333504],100,53,easy,plus,dotcolour,beta,,,53,19,V,R,
386,8,8,9,3,47,33,716,['n'],0,left,['1'],6,666,[-0.00701463],80,47,medium,plus,dotcolour,beta,,,53,19,V,R,
387,9,9,9,3,27,53,648,['n'],1,right,['1'],6,294,[-0.13271649],100,53,easy,plus,dotcolour,beta,,,53,19,V,R,
388,10,10,9,3,44,36,1100,['n'],0,left,['1'],6,664,[-0.02949676],87,44,hard,plus,dotcolour,beta,,,53,19,V,R,
389,11,11,9,3,36,44,598,['n'],1,right,['2'],5,254,[-0.09670682],100,44,hard,plus,dotcolour,beta,,,53,19,V,R,
390,12,12,9,3,36,44,1031,['n'],1,right,['1'],6,179,[-0.13400017],100,44,hard,plus,dotcolour,beta,,,53,19,V,R,
391,13,13,9,3,27,53,648,['n'],1,right,['1'],6,179,[-0.13041198],100,53,easy,plus,dotcolour,beta,,,53,19,V,R,
392,14,14,9,3,47,33,1566,['c'],1,left,['2'],5,399,[0.03959598],94,47,medium,plus,dotcolour,beta,,,53,19,V,R,
393,15,15,9,3,53,27,1232,['n'],0,left,['1'],6,295,[0.01520572],79,53,easy,plus,dotcolour,beta,,,53,19,V,R,
394,16,16,9,3,33,47,1132,['n'],1,right,['1'],6,206,[-0.02669055],96,47,medium,plus,dotcolour,beta,,,53,19,V,R,
395,17,17,9,3,47,33,4432,['c'],1,left,['2'],5,303,[0.1274037],100,47,medium,plus,dotcolour,beta,,,53,19,V,R,
396,18,18,9,3,53,27,1532,['c'],1,left,['2'],5,270,[0.12671064],100,53,easy,plus,dotcolour,beta,,,53,19,V,R,
397,19,19,9,3,33,47,832,['n'],1,right,['1'],6,228,[-0.09840156],100,47,medium,plus,dotcolour,beta,,,53,19,V,R,
398,20,20,9,3,44,36,1299,['c'],1,left,['2'],5,264,[0.16351682],100,44,hard,plus,dotcolour,beta,,,53,19,V,R,
399,21,21,9,3,44,36,1382,['c'],1,left,['2'],5,247,[0.0425873],97,44,hard,plus,dotcolour,beta,,,53,19,V,R,
400,22,22,9,3,36,44,732,['n'],1,right,['1'],6,281,[-0.02971532],95,44,hard,plus,dotcolour,beta,,,53,19,V,R,
401,23,23,9,3,53,27,999,['c'],1,left,['2'],5,295,[0.23881261],100,53,easy,plus,dotcolour,beta,,,53,19,V,R,
402,24,24,9,3,44,36,1101,['c'],1,left,['2'],5,336,[0.09155976],99,44,hard,plus,dotcolour,beta,,,53,19,V,R,
403,25,25,9,3,27,53,649,['n'],1,right,['1'],6,307,[-0.08961548],99,53,easy,plus,dotcolour,beta,,,53,19,V,R,
404,26,26,9,3,53,27,2665,['n'],0,left,['3'],4,452,[-0.00347075],83,53,easy,plus,dotcolour,beta,,,53,19,V,R,
405,27,27,9,3,47,33,1649,['n'],0,left,['2'],5,450,[-0.02059759],89,47,medium,plus,dotcolour,beta,,,53,19,V,R,
406,28,28,9,3,36,44,950,['n'],1,right,['2'],5,235,[-0.0312679],96,44,hard,plus,dotcolour,beta,,,53,19,V,R,
407,29,29,9,3,47,33,2015,['n'],0,left,['2'],5,234,[-0.01090029],92,47,medium,plus,dotcolour,beta,,,53,19,V,R,
408,30,30,9,3,36,44,649,['n'],1,right,['2'],5,280,[-0.07458476],99,44,hard,plus,dotcolour,beta,,,53,19,V,R,
409,31,31,9,3,27,53,648,['n'],1,right,['2'],5,236,[-0.03415075],97,53,easy,plus,dotcolour,beta,,,53,19,V,R,
410,32,32,9,3,27,53,698,['n'],1,right,['2'],5,184,[-0.10139602],100,53,easy,plus,dotcolour,beta,,,53,19,V,R,
411,33,33,9,3,27,53,614,['n'],1,right,['2'],5,201,[-0.02775227],97,53,easy,plus,dotcolour,beta,,,53,19,V,R,
412,34,34,9,3,33,47,598,['n'],1,right,['1'],6,194,[-0.08960179],100,47,medium,plus,dotcolour,beta,,,53,19,V,R,
413,35,35,9,3,33,47,499,['n'],1,right,['1'],6,295,[-0.12396917],100,47,medium,plus,dotcolour,beta,,,53,19,V,R,
414,36,36,9,3,27,53,448,['n'],1,right,['1'],6,211,[-0.10989618],100,53,easy,plus,dotcolour,beta,,,53,19,V,R,
415,37,37,9,3,36,44,514,['n'],1,right,['1'],6,263,[0.02246355],76,44,hard,plus,dotcolour,beta,,,53,19,V,R,
416,38,38,9,3,33,47,615,['n'],1,right,['1'],6,285,[-0.11492472],100,47,medium,plus,dotcolour,beta,,,53,19,V,R,
417,39,39,9,3,33,47,615,['n'],1,right,['1'],6,226,[0.00204442],88,47,medium,plus,dotcolour,beta,,,53,19,V,R,
418,40,40,9,3,53,27,1848,['c'],1,left,['2'],5,264,[0.16089868],100,53,easy,plus,dotcolour,beta,,,53,19,V,R,
419,41,41,9,3,47,33,1216,['c'],1,left,['1'],6,246,[0.06891339],99,47,medium,plus,dotcolour,beta,,,53,19,V,R,
420,42,0,10,3,36,44,2033,['n'],1,right,['1'],6,226,[-0.03285436],97,44,hard,plus,dotcolour,beta,,,53,19,V,R,
421,43,1,10,3,47,33,1065,['c'],1,left,['2'],5,231,[0.04979251],98,47,medium,plus,dotcolour,beta,,,53,19,V,R,
422,44,2,10,3,44,36,583,['n'],0,left,['2'],5,1560,[-0.07153926],86,44,hard,plus,dotcolour,beta,,,53,19,V,R,
423,45,3,10,3,27,53,651,['n'],1,right,['1'],6,177,[-0.12819977],100,53,easy,plus,dotcolour,beta,,,53,19,V,R,
424,46,4,10,3,44,36,1149,['c'],1,left,['2'],5,237,[0.17744006],100,44,hard,plus,dotcolour,beta,,,53,19,V,R,
425,47,5,10,3,47,33,733,['n'],0,left,['9'],2,1783,[0.29644985],4,47,medium,plus,dotcolour,beta,,,53,19,V,R,
426,48,6,10,3,33,47,1250,['n'],1,right,['2'],5,206,[-0.01147252],93,47,medium,plus,dotcolour,beta,,,53,19,V,R,
427,49,7,10,3,27,53,648,['n'],1,right,['2'],5,229,[-0.09114916],100,53,easy,plus,dotcolour,beta,,,53,19,V,R,
428,50,8,10,3,33,47,947,['n'],1,right,['1'],6,191,[-0.09804509],100,47,medium,plus,dotcolour,beta,,,53,19,V,R,
429,51,9,10,3,27,53,500,['n'],1,right,['1'],6,228,[-0.07873995],99,53,easy,plus,dotcolour,beta,,,53,19,V,R,
430,52,10,10,3,36,44,966,['n'],1,right,['1'],6,253,[-0.08533838],99,44,hard,plus,dotcolour,beta,,,53,19,V,R,
431,53,11,10,3,44,36,2767,['c'],1,left,['3'],4,374,[0.04676196],95,44,hard,plus,dotcolour,beta,,,53,19,V,R,
432,54,12,10,3,47,33,1182,['c'],1,left,['2'],5,288,[0.17765745],100,47,medium,plus,dotcolour,beta,,,53,19,V,R,
433,55,13,10,3,44,36,1049,['c'],1,left,['2'],5,267,[0.09455992],99,44,hard,plus,dotcolour,beta,,,53,19,V,R,
434,56,14,10,3,36,44,698,['n'],1,right,['1'],6,230,[-0.1720362],100,44,hard,plus,dotcolour,beta,,,53,19,V,R,
435,57,15,10,3,53,27,982,['c'],1,left,['1'],6,318,[0.15624536],100,53,easy,plus,dotcolour,beta,,,53,19,V,R,
436,58,16,10,3,47,33,965,['n'],0,left,['2'],5,212,[-0.05910904],99,47,medium,plus,dotcolour,beta,,,53,19,V,R,
437,59,17,10,3,53,27,2699,['n'],0,left,['3'],4,329,[0.03310061],67,53,easy,plus,dotcolour,beta,,,53,19,V,R,
438,60,18,10,3,36,44,1198,['n'],1,right,['2'],5,301,[-0.10251049],99,44,hard,plus,dotcolour,beta,,,53,19,V,R,
439,61,19,10,3,47,33,1482,['c'],1,left,['2'],5,302,[0.05738082],98,47,medium,plus,dotcolour,beta,,,53,19,V,R,
440,62,20,10,3,44,36,799,['c'],1,left,['2'],5,275,[0.1372198],100,44,hard,plus,dotcolour,beta,,,53,19,V,R,
441,63,21,10,3,33,47,815,['n'],1,right,['1'],6,248,[-0.08637072],99,47,medium,plus,dotcolour,beta,,,53,19,V,R,
442,64,22,10,3,27,53,633,['n'],1,right,['1'],6,366,[-0.17402062],100,53,easy,plus,dotcolour,beta,,,53,19,V,R,
443,65,23,10,3,27,53,747,['n'],1,right,['1'],6,243,[-0.17725559],100,53,easy,plus,dotcolour,beta,,,53,19,V,R,
444,66,24,10,3,33,47,599,['n'],1,right,['1'],6,218,[-0.12965909],100,47,medium,plus,dotcolour,beta,,,53,19,V,R,
445,67,25,10,3,33,47,665,['n'],1,right,['1'],6,192,[-0.10216627],100,47,medium,plus,dotcolour,beta,,,53,19,V,R,
446,68,26,10,3,36,44,766,['n'],1,right,['1'],6,235,[-0.06513424],99,44,hard,plus,dotcolour,beta,,,53,19,V,R,
447,69,27,10,3,36,44,1732,['n'],1,right,['1'],6,246,[-0.02910798],96,44,hard,plus,dotcolour,beta,,,53,19,V,R,
448,70,28,10,3,27,53,631,['n'],1,right,['1'],6,188,[-0.16058963],100,53,easy,plus,dotcolour,beta,,,53,19,V,R,
449,71,29,10,3,44,36,782,['n'],0,left,['1'],6,253,[-0.0089616],91,44,hard,plus,dotcolour,beta,,,53,19,V,R,
450,72,30,10,3,47,33,714,['n'],0,left,['1'],6,192,[-0.07930614],100,47,medium,plus,dotcolour,beta,,,53,19,V,R,
451,73,31,10,3,36,44,716,['n'],1,right,['1'],6,261,[-0.0222333],94,44,hard,plus,dotcolour,beta,,,53,19,V,R,
452,74,32,10,3,47,33,1550,['c'],1,left,['2'],5,278,[0.11411665],100,47,medium,plus,dotcolour,beta,,,53,19,V,R,
453,75,33,10,3,53,27,1200,['n'],0,left,['1'],6,195,[-0.05555066],99,53,easy,plus,dotcolour,beta,,,53,19,V,R,
454,76,34,10,3,33,47,1166,['n'],1,right,['1'],6,174,[0.04332642],63,47,medium,plus,dotcolour,beta,,,53,19,V,R,
455,77,35,10,3,33,47,1649,['n'],1,right,['1'],6,175,[-0.14183145],100,47,medium,plus,dotcolour,beta,,,53,19,V,R,
456,78,36,10,3,53,27,1299,['c'],1,left,['2'],5,357,[0.17514725],100,53,easy,plus,dotcolour,beta,,,53,19,V,R,
457,79,37,10,3,27,53,864,['n'],1,right,['1'],6,397,[-0.15018256],100,53,easy,plus,dotcolour,beta,,,53,19,V,R,
458,80,38,10,3,53,27,1582,['c'],1,left,['2'],5,839,[0.11011554],96,53,easy,plus,dotcolour,beta,,,53,19,V,R,
459,81,39,10,3,53,27,965,['c'],1,left,['1'],6,263,[0.10722105],100,53,easy,plus,dotcolour,beta,,,53,19,V,R,
460,82,40,10,3,53,27,581,['c'],1,left,['1'],6,279,[0.16537405],100,53,easy,plus,dotcolour,beta,,,53,19,V,R,
461,83,41,10,3,44,36,897,['n'],0,left,['1'],6,329,[-0.09405104],99,44,hard,plus,dotcolour,beta,,,53,19,V,R,
462,84,0,11,3,47,33,1383,['c'],1,left,['2'],5,222,[0.12232588],100,47,medium,plus,dotcolour,beta,,,53,19,V,R,
463,85,1,11,3,44,36,883,['n'],0,left,['1'],6,244,[-0.07474665],99,44,hard,plus,dotcolour,beta,,,53,19,V,R,
464,86,2,11,3,47,33,2515,['c'],1,left,['3'],4,958,[0.080275],92,47,medium,plus,dotcolour,beta,,,53,19,V,R,
465,87,3,11,3,53,27,899,['c'],1,left,['1'],6,709,[0.06636411],93,53,easy,plus,dotcolour,beta,,,53,19,V,R,
466,88,4,11,3,33,47,583,['n'],1,right,['1'],6,314,[-0.03605497],95,47,medium,plus,dotcolour,beta,,,53,19,V,R,
467,89,5,11,3,33,47,1000,['n'],1,right,['1'],6,295,[-0.04666273],97,47,medium,plus,dotcolour,beta,,,53,19,V,R,
468,90,6,11,3,44,36,1649,['n'],0,left,['2'],5,674,[-0.09881192],97,44,hard,plus,dotcolour,beta,,,53,19,V,R,
469,91,7,11,3,47,33,1947,['c'],1,left,['2'],5,283,[0.14286705],100,47,medium,plus,dotcolour,beta,,,53,19,V,R,
470,92,8,11,3,27,53,648,['n'],1,right,['1'],6,398,[-0.15726816],100,53,easy,plus,dotcolour,beta,,,53,19,V,R,
471,93,9,11,3,33,47,833,['n'],1,right,['1'],6,326,[0.05647833],49,47,medium,plus,dotcolour,beta,,,53,19,V,R,
472,94,10,11,3,36,44,1100,['n'],1,right,['2'],5,862,[-0.19497159],99,44,hard,plus,dotcolour,beta,,,53,19,V,R,
473,95,11,11,3,36,44,866,['n'],1,right,['1'],6,618,[-0.24326443],100,44,hard,plus,dotcolour,beta,,,53,19,V,R,
474,96,12,11,3,47,33,2349,['n'],0,left,['2'],5,252,[-0.11849723],100,47,medium,plus,dotcolour,beta,,,53,19,V,R,
475,97,13,11,3,53,27,1299,['c'],1,left,['1'],6,351,[0.13682623],100,53,easy,plus,dotcolour,beta,,,53,19,V,R,
476,98,14,11,3,36,44,1549,['n'],1,right,['2'],5,197,[0.00222682],90,44,hard,plus,dotcolour,beta,,,53,19,V,R,
477,99,15,11,3,27,53,614,['n'],1,right,['1'],6,349,[0.02111672],74,53,easy,plus,dotcolour,beta,,,53,19,V,R,
478,100,16,11,3,27,53,632,['n'],1,right,['1'],6,192,[-0.09982904],100,53,easy,plus,dotcolour,beta,,,53,19,V,R,
479,101,17,11,3,44,36,1330,['c'],1,left,['2'],5,347,[0.07869026],98,44,hard,plus,dotcolour,beta,,,53,19,V,R,
480,102,18,11,3,36,44,1682,['n'],1,right,['2'],5,651,[-0.13916454],99,44,hard,plus,dotcolour,beta,,,53,19,V,R,
481,103,19,11,3,27,53,815,['n'],1,right,['2'],5,185,[-0.09436233],100,53,easy,plus,dotcolour,beta,,,53,19,V,R,
482,104,20,11,3,33,47,1048,['n'],1,right,['2'],5,193,[-0.14872332],100,47,medium,plus,dotcolour,beta,,,53,19,V,R,
483,105,21,11,3,27,53,649,['n'],1,right,['1'],6,392,[-0.19240375],100,53,easy,plus,dotcolour,beta,,,53,19,V,R,
484,106,22,11,3,44,36,666,['n'],0,left,['1'],6,199,[-0.09452821],100,44,hard,plus,dotcolour,beta,,,53,19,V,R,
485,107,23,11,3,33,47,1433,['c'],0,right,['2'],5,863,[-0.16817856],10,47,medium,plus,dotcolour,beta,,,53,19,V,R,
486,108,24,11,3,33,47,781,['n'],1,right,['1'],6,190,[-0.14390422],100,47,medium,plus,dotcolour,beta,,,53,19,V,R,
487,109,25,11,3,44,36,849,['n'],0,left,['1'],6,199,[-0.06653094],99,44,hard,plus,dotcolour,beta,,,53,19,V,R,
488,110,26,11,3,47,33,1415,['c'],1,left,['2'],5,223,[0.07037087],99,47,medium,plus,dotcolour,beta,,,53,19,V,R,
489,111,27,11,3,36,44,782,['n'],1,right,['1'],6,176,[-0.03222597],98,44,hard,plus,dotcolour,beta,,,53,19,V,R,
490,112,28,11,3,47,33,1098,['c'],1,left,['1'],6,542,[0.15104855],99,47,medium,plus,dotcolour,beta,,,53,19,V,R,
491,113,29,11,3,53,27,999,['c'],1,left,['1'],6,281,[0.03127568],95,53,easy,plus,dotcolour,beta,,,53,19,V,R,
492,114,30,11,3,27,53,683,['n'],1,right,['1'],6,188,[-0.0964009],100,53,easy,plus,dotcolour,beta,,,53,19,V,R,
493,115,31,11,3,53,27,1098,['c'],1,left,['2'],5,233,[0.12599644],100,53,easy,plus,dotcolour,beta,,,53,19,V,R,
494,116,32,11,3,53,27,647,['c'],1,left,['1'],6,239,[0.15344311],100,53,easy,plus,dotcolour,beta,,,53,19,V,R,
495,117,33,11,3,44,36,2183,['n'],0,left,['2'],5,183,[-0.08550269],100,44,hard,plus,dotcolour,beta,,,53,19,V,R,
496,118,34,11,3,27,53,732,['n'],1,right,['1'],6,252,[-0.11214852],100,53,easy,plus,dotcolour,beta,,,53,19,V,R,
497,119,35,11,3,36,44,649,['n'],1,right,['1'],6,201,[-0.07836891],100,44,hard,plus,dotcolour,beta,,,53,19,V,R,
498,120,36,11,3,53,27,932,['c'],1,left,['2'],5,381,[0.17894272],100,53,easy,plus,dotcolour,beta,,,53,19,V,R,
499,121,37,11,3,53,27,614,['c'],1,left,['1'],6,239,[0.1316598],100,53,easy,plus,dotcolour,beta,,,53,19,V,R,
500,122,38,11,3,47,33,949,['n'],0,left,['2'],5,424,[0.05351681],51,47,medium,plus,dotcolour,beta,,,53,19,V,R,
501,123,39,11,3,36,44,732,['n'],1,right,['2'],5,155,[-0.0841554],100,44,hard,plus,dotcolour,beta,,,53,19,V,R,
502,124,40,11,3,44,36,1833,['n'],0,left,['2'],5,132,[-0.04569268],99,44,hard,plus,dotcolour,beta,,,53,19,V,R,
503,125,41,11,3,33,47,615,['n'],1,right,['2'],5,159,[-0.07461301],100,47,medium,plus,dotcolour,beta,,,53,19,V,R,
504,0,0,12,4,33,47,1133,['n'],1,right,['2'],5,251,[-0.11469717],89,47,medium,minus,dotcolour,beta,,,53,19,V,R,
505,1,1,12,4,33,47,681,['n'],1,right,['1'],6,167,[-0.09732772],86,47,medium,minus,dotcolour,beta,,,53,19,V,R,
506,2,2,12,4,47,33,916,['c'],1,left,['2'],5,261,[0.13392847],94,47,medium,minus,dotcolour,beta,,,53,19,V,R,
507,3,3,12,4,47,33,1132,['n'],0,left,['2'],5,175,[-0.10161642],88,47,medium,minus,dotcolour,beta,,,53,19,V,R,
508,4,4,12,4,53,27,949,['c'],1,left,['2'],5,219,[0.11546637],91,53,easy,minus,dotcolour,beta,,,53,19,V,R,
509,5,5,12,4,33,47,966,['n'],1,right,['1'],6,164,[-0.09315013],84,47,medium,minus,dotcolour,beta,,,53,19,V,R,
510,6,6,12,4,27,53,597,['n'],1,right,['1'],6,191,[-0.08113929],74,53,easy,minus,dotcolour,beta,,,53,19,V,R,
511,7,7,12,4,36,44,665,['n'],1,right,['1'],6,198,[-0.16038677],99,44,hard,minus,dotcolour,beta,,,53,19,V,R,
512,8,8,12,4,47,33,949,['c'],1,left,['1'],6,409,[0.1182894],85,47,medium,minus,dotcolour,beta,,,53,19,V,R,
513,9,9,12,4,27,53,616,['n'],1,right,['1'],6,401,[-0.11356994],84,53,easy,minus,dotcolour,beta,,,53,19,V,R,
514,10,10,12,4,27,53,649,['n'],1,right,['2'],5,392,[-0.13494696],91,53,easy,minus,dotcolour,beta,,,53,19,V,R,
515,11,11,12,4,36,44,648,['n'],1,right,['1'],6,152,[-0.1150242],94,44,hard,minus,dotcolour,beta,,,53,19,V,R,
516,12,12,12,4,44,36,849,['n'],0,left,['2'],5,226,[-0.07398977],67,44,hard,minus,dotcolour,beta,,,53,19,V,R,
517,13,13,12,4,44,36,666,['n'],0,left,['1'],6,158,[-0.07966554],75,44,hard,minus,dotcolour,beta,,,53,19,V,R,
518,14,14,12,4,44,36,531,['n'],0,left,['1'],6,204,[-0.01366101],16,44,hard,minus,dotcolour,beta,,,53,19,V,R,
519,15,15,12,4,36,44,698,['n'],1,right,['1'],6,345,[-0.0732707],63,44,hard,minus,dotcolour,beta,,,53,19,V,R,
520,16,16,12,4,53,27,2298,['n'],0,left,['2'],5,184,[-0.07830549],72,53,easy,minus,dotcolour,beta,,,53,19,V,R,
521,17,17,12,4,47,33,1098,['n'],0,left,['2'],5,190,[-0.09617895],84,47,medium,minus,dotcolour,beta,,,53,19,V,R,
522,18,18,12,4,44,36,1150,['n'],0,left,['2'],5,154,[-0.13895523],98,44,hard,minus,dotcolour,beta,,,53,19,V,R,
523,19,19,12,4,36,44,965,['n'],1,right,['2'],5,190,[-0.09396072],83,44,hard,minus,dotcolour,beta,,,53,19,V,R,
524,20,20,12,4,36,44,750,['n'],1,right,['2'],5,282,[-0.02514657],26,44,hard,minus,dotcolour,beta,,,53,19,V,R,
525,21,21,12,4,33,47,715,['n'],1,right,['2'],5,379,[-0.17053517],97,47,medium,minus,dotcolour,beta,,,53,19,V,R,
526,22,22,12,4,53,27,1250,['c'],1,left,['3'],4,611,[0.14776081],89,53,easy,minus,dotcolour,beta,,,53,19,V,R,
527,23,23,12,4,44,36,1131,['n'],0,left,['2'],5,175,[-0.02346392],20,44,hard,minus,dotcolour,beta,,,53,19,V,R,
528,24,24,12,4,27,53,747,['n'],1,right,['1'],6,466,[-0.18500804],97,53,easy,minus,dotcolour,beta,,,53,19,V,R,
529,25,25,12,4,44,36,3097,['n'],0,left,['2'],5,165,[-0.12869503],96,44,hard,minus,dotcolour,beta,,,53,19,V,R,
530,26,26,12,4,44,36,1248,['c'],1,left,['2'],5,278,[0.09430945],79,44,hard,minus,dotcolour,beta,,,53,19,V,R,
531,27,27,12,4,47,33,1533,['c'],1,left,['2'],5,295,[0.13771397],94,47,medium,minus,dotcolour,beta,,,53,19,V,R,
532,28,28,12,4,27,53,649,['n'],1,right,['1'],6,314,[-0.12748681],91,53,easy,minus,dotcolour,beta,,,53,19,V,R,
533,29,29,12,4,47,33,1332,['n'],0,left,['2'],5,537,[-0.14363014],90,47,medium,minus,dotcolour,beta,,,53,19,V,R,
534,30,30,12,4,27,53,783,['n'],1,right,['1'],6,166,[-0.02455499],20,53,easy,minus,dotcolour,beta,,,53,19,V,R,
535,31,31,12,4,36,44,817,['n'],1,right,['1'],6,272,[-0.1141236],88,44,hard,minus,dotcolour,beta,,,53,19,V,R,
536,32,32,12,4,33,47,582,['n'],1,right,['1'],6,199,[-0.1813877],99,47,medium,minus,dotcolour,beta,,,53,19,V,R,
537,33,33,12,4,33,47,633,['n'],1,right,['1'],6,207,[-0.08473518],76,47,medium,minus,dotcolour,beta,,,53,19,V,R,
538,34,34,12,4,53,27,1250,['c'],1,left,['2'],5,222,[0.09965815],84,53,easy,minus,dotcolour,beta,,,53,19,V,R,
539,35,35,12,4,53,27,1250,['c'],1,left,['1'],6,444,[0.0442195],42,53,easy,minus,dotcolour,beta,,,53,19,V,R,
540,36,36,12,4,53,27,832,['c'],1,left,['1'],6,266,[0.09597962],80,53,easy,minus,dotcolour,beta,,,53,19,V,R,
541,37,37,12,4,36,44,1199,['n'],1,right,['2'],5,201,[-0.00624853],12,44,hard,minus,dotcolour,beta,,,53,19,V,R,
542,38,38,12,4,53,27,1480,['c'],1,left,['2'],5,214,[0.05068433],45,53,easy,minus,dotcolour,beta,,,53,19,V,R,
543,39,39,12,4,27,53,765,['n'],1,right,['1'],6,257,[-0.20375504],99,53,easy,minus,dotcolour,beta,,,53,19,V,R,
544,40,40,12,4,47,33,1099,['c'],1,left,['2'],5,195,[0.06674892],61,47,medium,minus,dotcolour,beta,,,53,19,V,R,
545,41,41,12,4,33,47,715,['n'],1,right,['1'],6,168,[-0.17369237],99,47,medium,minus,dotcolour,beta,,,53,19,V,R,
546,42,0,13,4,44,36,1066,['c'],1,left,['1'],6,243,[0.08169452],72,44,hard,minus,dotcolour,beta,,,53,19,V,R,
547,43,1,13,4,53,27,1382,['n'],0,left,['2'],5,196,[-0.02587997],23,53,easy,minus,dotcolour,beta,,,53,19,V,R,
548,44,2,13,4,27,53,617,['n'],1,right,['1'],6,220,[-0.14587444],97,53,easy,minus,dotcolour,beta,,,53,19,V,R,
549,45,3,13,4,36,44,615,['n'],1,right,['1'],6,204,[-0.16847365],99,44,hard,minus,dotcolour,beta,,,53,19,V,R,
550,46,4,13,4,27,53,717,['n'],1,right,['1'],6,401,[-0.09565268],76,53,easy,minus,dotcolour,beta,,,53,19,V,R,
551,47,5,13,4,53,27,1465,['c'],1,left,['2'],5,311,[0.13328037],92,53,easy,minus,dotcolour,beta,,,53,19,V,R,
552,48,6,13,4,44,36,1032,['n'],0,left,['2'],5,267,[0.00964114],9,44,hard,minus,dotcolour,beta,,,53,19,V,R,
553,49,7,13,4,36,44,782,['n'],1,right,['2'],5,185,[-0.06213277],57,44,hard,minus,dotcolour,beta,,,53,19,V,R,
554,50,8,13,4,33,47,566,['n'],1,right,['1'],6,197,[-0.07544992],69,47,medium,minus,dotcolour,beta,,,53,19,V,R,
555,51,9,13,4,27,53,517,['n'],1,right,['1'],6,209,[-0.14031392],97,53,easy,minus,dotcolour,beta,,,53,19,V,R,
556,52,10,13,4,53,27,1398,['c'],1,left,['2'],5,626,[0.30118937],100,53,easy,minus,dotcolour,beta,,,53,19,V,R,
557,53,11,13,4,27,53,582,['n'],1,right,['1'],6,323,[-0.06157041],55,53,easy,minus,dotcolour,beta,,,53,19,V,R,
558,54,12,13,4,33,47,516,['n'],1,right,['1'],6,266,[-0.14095464],95,47,medium,minus,dotcolour,beta,,,53,19,V,R,
559,55,13,13,4,44,36,849,['n'],0,left,['1'],6,247,[-0.07599051],68,44,hard,minus,dotcolour,beta,,,53,19,V,R,
560,56,14,13,4,44,36,1200,['c'],1,left,['2'],5,230,[0.07886537],71,44,hard,minus,dotcolour,beta,,,53,19,V,R,
561,57,15,13,4,47,33,2915,['n'],0,left,['3'],4,305,[0.04528953],4,47,medium,minus,dotcolour,beta,,,53,19,V,R,
562,58,16,13,4,36,44,1014,['n'],1,right,['2'],5,614,[-0.11117065],78,44,hard,minus,dotcolour,beta,,,53,19,V,R,
563,59,17,13,4,44,36,1232,['n'],0,left,['2'],5,397,[-0.03967733],39,44,hard,minus,dotcolour,beta,,,53,19,V,R,
564,60,18,13,4,36,44,898,['n'],1,right,['1'],6,539,[-0.07509841],62,44,hard,minus,dotcolour,beta,,,53,19,V,R,
565,61,19,13,4,36,44,1032,['n'],1,right,['2'],5,308,[-0.18087773],98,44,hard,minus,dotcolour,beta,,,53,19,V,R,
566,62,20,13,4,44,36,1347,['c'],1,left,['2'],5,315,[0.03971192],38,44,hard,minus,dotcolour,beta,,,53,19,V,R,
567,63,21,13,4,53,27,1266,['c'],1,left,['2'],5,357,[0.11082642],84,53,easy,minus,dotcolour,beta,,,53,19,V,R,
568,64,22,13,4,27,53,651,['n'],1,right,['1'],6,278,[-0.11503711],88,53,easy,minus,dotcolour,beta,,,53,19,V,R,
569,65,23,13,4,53,27,1115,['c'],1,left,['2'],5,279,[0.1197649],90,53,easy,minus,dotcolour,beta,,,53,19,V,R,
570,66,24,13,4,33,47,698,['n'],1,right,['1'],6,257,[-0.08897769],77,47,medium,minus,dotcolour,beta,,,53,19,V,R,
571,67,25,13,4,33,47,1782,['c'],0,right,['3'],4,552,[-0.07875493],4,47,medium,minus,dotcolour,beta,,,53,19,V,R,
572,68,26,13,4,27,53,681,['n'],1,right,['1'],6,257,[-0.15784901],97,53,easy,minus,dotcolour,beta,,,53,19,V,R,
573,69,27,13,4,36,44,733,['n'],1,right,['1'],6,305,[-0.00907324],18,44,hard,minus,dotcolour,beta,,,53,19,V,R,
574,70,28,13,4,53,27,949,['c'],1,left,['2'],5,320,[0.10496766],83,53,easy,minus,dotcolour,beta,,,53,19,V,R,
575,71,29,13,4,33,47,716,['n'],1,right,['1'],6,304,[-0.06443841],57,47,medium,minus,dotcolour,beta,,,53,19,V,R,
576,72,30,13,4,47,33,1531,['n'],0,left,['2'],5,256,[-0.07861805],69,47,medium,minus,dotcolour,beta,,,53,19,V,R,
577,73,31,13,4,47,33,1631,['n'],0,left,['2'],5,334,[-0.07070489],62,47,medium,minus,dotcolour,beta,,,53,19,V,R,
578,74,32,13,4,27,53,766,['n'],1,right,['1'],6,483,[-0.20488353],98,53,easy,minus,dotcolour,beta,,,53,19,V,R,
579,75,33,13,4,33,47,850,['n'],1,right,['1'],6,222,[-0.06724204],61,47,medium,minus,dotcolour,beta,,,53,19,V,R,
580,76,34,13,4,53,27,1201,['c'],1,left,['2'],5,311,[0.17652896],98,53,easy,minus,dotcolour,beta,,,53,19,V,R,
581,77,35,13,4,47,33,1533,['n'],0,left,['2'],5,199,[-0.04427872],39,47,medium,minus,dotcolour,beta,,,53,19,V,R,
582,78,36,13,4,33,47,680,['n'],1,right,['2'],5,285,[-0.17754923],98,47,medium,minus,dotcolour,beta,,,53,19,V,R,
583,79,37,13,4,44,36,1131,['n'],0,left,['2'],5,478,[-0.15998828],94,44,hard,minus,dotcolour,beta,,,53,19,V,R,
584,80,38,13,4,47,33,1349,['n'],0,left,['2'],5,309,[-0.11614162],88,47,medium,minus,dotcolour,beta,,,53,19,V,R,
585,81,39,13,4,47,33,1732,['n'],0,left,['2'],5,773,[0.1084023],3,47,medium,minus,dotcolour,beta,,,53,19,V,R,
586,82,40,13,4,36,44,1032,['n'],1,right,['1'],6,390,[-0.10158854],79,44,hard,minus,dotcolour,beta,,,53,19,V,R,
587,83,41,13,4,47,33,1231,['n'],0,left,['1'],6,717,[0.15031972],1,47,medium,minus,dotcolour,beta,,,53,19,V,R,
588,84,0,14,4,47,33,3232,['c'],1,left,['2'],5,792,[0.13750641],84,47,medium,minus,dotcolour,beta,,,53,19,V,R,
589,85,1,14,4,33,47,749,['n'],1,right,['1'],6,260,[-0.19199715],99,47,medium,minus,dotcolour,beta,,,53,19,V,R,
590,86,2,14,4,36,44,782,['n'],1,right,['1'],6,283,[-0.0975947],81,44,hard,minus,dotcolour,beta,,,53,19,V,R,
591,87,3,14,4,47,33,1149,['c'],1,left,['2'],5,619,[0.00522134],24,47,medium,minus,dotcolour,beta,,,53,19,V,R,
592,88,4,14,4,27,53,650,['n'],1,right,['1'],6,377,[-0.13388406],91,53,easy,minus,dotcolour,beta,,,53,19,V,R,
593,89,5,14,4,47,33,2182,['c'],1,left,['2'],5,1485,[0.2333045],93,47,medium,minus,dotcolour,beta,,,53,19,V,R,
594,90,6,14,4,47,33,782,['c'],1,left,['1'],6,514,[0.13258378],87,47,medium,minus,dotcolour,beta,,,53,19,V,R,
595,91,7,14,4,47,33,1081,['n'],0,left,['2'],5,307,[-0.00473778],16,47,medium,minus,dotcolour,beta,,,53,19,V,R,
596,92,8,14,4,33,47,598,['n'],1,right,['1'],6,776,[-0.06608448],55,47,medium,minus,dotcolour,beta,,,53,19,V,R,
597,93,9,14,4,36,44,632,['n'],1,right,['1'],6,281,[-0.05768429],52,44,hard,minus,dotcolour,beta,,,53,19,V,R,
598,94,10,14,4,27,53,648,['n'],1,right,['1'],6,188,[-0.1114541],91,53,easy,minus,dotcolour,beta,,,53,19,V,R,
599,95,11,14,4,27,53,631,['n'],1,right,['1'],6,260,[-0.04368813],40,53,easy,minus,dotcolour,beta,,,53,19,V,R,
600,96,12,14,4,33,47,782,['n'],1,right,['1'],6,164,[-0.16189612],99,47,medium,minus,dotcolour,beta,,,53,19,V,R,
601,97,13,14,4,53,27,2432,['n'],0,left,['3'],4,685,[0.03487962],12,53,easy,minus,dotcolour,beta,,,53,19,V,R,
602,98,14,14,4,36,44,783,['n'],1,right,['1'],6,459,[-0.02031127],28,44,hard,minus,dotcolour,beta,,,53,19,V,R,
603,99,15,14,4,33,47,948,['n'],1,right,['1'],6,180,[-0.10777438],90,47,medium,minus,dotcolour,beta,,,53,19,V,R,
604,100,16,14,4,27,53,864,['n'],1,right,['1'],6,187,[-0.1188075],93,53,easy,minus,dotcolour,beta,,,53,19,V,R,
605,101,17,14,4,33,47,1032,['n'],1,right,['1'],6,747,[-0.10783325],75,47,medium,minus,dotcolour,beta,,,53,19,V,R,
606,102,18,14,4,33,47,680,['n'],1,right,['1'],6,194,[-0.07315313],67,47,medium,minus,dotcolour,beta,,,53,19,V,R,
607,103,19,14,4,27,53,665,['n'],1,right,['1'],6,225,[-0.09026039],79,53,easy,minus,dotcolour,beta,,,53,19,V,R,
608,104,20,14,4,53,27,882,['c'],1,left,['2'],5,253,[0.07710845],68,53,easy,minus,dotcolour,beta,,,53,19,V,R,
609,105,21,14,4,44,36,748,['n'],0,left,['1'],6,246,[-0.03764437],34,44,hard,minus,dotcolour,beta,,,53,19,V,R,
610,106,22,14,4,36,44,682,['n'],1,right,['1'],6,202,[-0.12991933],95,44,hard,minus,dotcolour,beta,,,53,19,V,R,
611,107,23,14,4,47,33,1631,['c'],1,left,['3'],4,1058,[0.12224636],76,47,medium,minus,dotcolour,beta,,,53,19,V,R,
612,108,24,14,4,44,36,1382,['c'],1,left,['2'],5,410,[0.13306107],90,44,hard,minus,dotcolour,beta,,,53,19,V,R,
613,109,25,14,4,53,27,1031,['c'],1,left,['2'],5,313,[0.12075223],89,53,easy,minus,dotcolour,beta,,,53,19,V,R,
614,110,26,14,4,44,36,1365,['c'],1,left,['2'],5,927,[0.16020252],88,44,hard,minus,dotcolour,beta,,,53,19,V,R,
615,111,27,14,4,36,44,815,['n'],1,right,['1'],6,258,[-0.10218367],84,44,hard,minus,dotcolour,beta,,,53,19,V,R,
616,112,28,14,4,44,36,1916,['c'],1,left,['2'],5,300,[0.10345825],83,44,hard,minus,dotcolour,beta,,,53,19,V,R,
617,113,29,14,4,44,36,1348,['c'],1,left,['2'],5,251,[0.05978163],54,44,hard,minus,dotcolour,beta,,,53,19,V,R,
618,114,30,14,4,53,27,1031,['c'],1,left,['2'],5,297,[0.0756358],66,53,easy,minus,dotcolour,beta,,,53,19,V,R,
619,115,31,14,4,27,53,647,['n'],1,right,['1'],6,221,[-0.12045621],92,53,easy,minus,dotcolour,beta,,,53,19,V,R,
620,116,32,14,4,44,36,1532,['c'],1,left,['2'],5,216,[0.0663781],60,44,hard,minus,dotcolour,beta,,,53,19,V,R,
621,117,33,14,4,36,44,934,['n'],1,right,['1'],6,211,[-0.13002041],95,44,hard,minus,dotcolour,beta,,,53,19,V,R,
622,118,34,14,4,27,53,816,['n'],1,right,['1'],6,259,[-0.10391528],85,53,easy,minus,dotcolour,beta,,,53,19,V,R,
623,119,35,14,4,53,27,900,['c'],1,left,['1'],6,350,[0.00189621],16,53,easy,minus,dotcolour,beta,,,53,19,V,R,
624,120,36,14,4,53,27,1066,['c'],1,left,['2'],5,238,[0.11050124],88,53,easy,minus,dotcolour,beta,,,53,19,V,R,
625,121,37,14,4,36,44,632,['n'],1,right,['1'],6,236,[-0.08958584],78,44,hard,minus,dotcolour,beta,,,53,19,V,R,
626,122,38,14,4,47,33,1600,['c'],1,left,['2'],5,316,[0.15784016],96,47,medium,minus,dotcolour,beta,,,53,19,V,R,
627,123,39,14,4,53,27,2683,['c'],1,left,['2'],5,333,[0.13322024],92,53,easy,minus,dotcolour,beta,,,53,19,V,R,
628,124,40,14,4,33,47,699,['n'],1,right,['1'],6,254,[-0.06873956],62,47,medium,minus,dotcolour,beta,,,53,19,V,R,
629,125,41,14,4,44,36,3065,['n'],0,left,['3'],4,186,[-0.11619505],93,44,hard,minus,dotcolour,beta,,,53,19,V,R,
630,0,0,15,5,36,44,2350,['n'],1,right,['3'],4,272,[-0.11607858],100,44,hard,plus,dotcolour,beta,,,53,19,V,R,
631,1,1,15,5,27,53,1233,['n'],1,right,['1'],6,197,[-0.07168117],99,53,easy,plus,dotcolour,beta,,,53,19,V,R,
632,2,2,15,5,44,36,1732,['n'],0,left,['2'],5,161,[-0.10803814],100,44,hard,plus,dotcolour,beta,,,53,19,V,R,
633,3,3,15,5,47,33,2115,['n'],0,left,['2'],5,103,[-0.04127505],100,47,medium,plus,dotcolour,beta,,,53,19,V,R,
634,4,4,15,5,53,27,3415,['c'],1,left,['3'],4,636,[0.05986066],93,53,easy,plus,dotcolour,beta,,,53,19,V,R,
635,5,5,15,5,53,27,1265,['c'],1,left,['2'],5,305,[0.14296675],100,53,easy,plus,dotcolour,beta,,,53,19,V,R,
636,6,6,15,5,33,47,749,['n'],1,right,['1'],6,248,[-0.14305548],100,47,medium,plus,dotcolour,beta,,,53,19,V,R,
637,7,7,15,5,27,53,882,['n'],1,right,['1'],6,676,[-0.25249433],100,53,easy,plus,dotcolour,beta,,,53,19,V,R,
638,8,8,15,5,44,36,782,['n'],0,left,['1'],6,458,[-0.08464523],98,44,hard,plus,dotcolour,beta,,,53,19,V,R,
639,9,9,15,5,44,36,648,['n'],0,left,['1'],6,263,[-0.13648652],100,44,hard,plus,dotcolour,beta,,,53,19,V,R,
640,10,10,15,5,44,36,2066,['c'],1,left,['2'],5,475,[0.05563819],95,44,hard,plus,dotcolour,beta,,,53,19,V,R,
641,11,11,15,5,27,53,898,['n'],1,right,['1'],6,309,[-0.11116755],100,53,easy,plus,dotcolour,beta,,,53,19,V,R,
642,12,12,15,5,53,27,2215,['c'],1,left,['2'],5,241,[0.10758884],100,53,easy,plus,dotcolour,beta,,,53,19,V,R,
643,13,13,15,5,27,53,715,['n'],1,right,['1'],6,596,[-0.11706476],98,53,easy,plus,dotcolour,beta,,,53,19,V,R,
644,14,14,15,5,47,33,648,['n'],0,left,['2'],5,251,[-0.02254115],94,47,medium,plus,dotcolour,beta,,,53,19,V,R,
645,15,15,15,5,33,47,548,['n'],1,right,['1'],6,212,[-0.04084424],98,47,medium,plus,dotcolour,beta,,,53,19,V,R,
646,16,16,15,5,33,47,666,['n'],1,right,['1'],6,170,[-0.10206624],100,47,medium,plus,dotcolour,beta,,,53,19,V,R,
647,17,17,15,5,33,47,632,['n'],1,right,['1'],6,155,[-0.03934454],99,47,medium,plus,dotcolour,beta,,,53,19,V,R,
648,18,18,15,5,33,47,650,['n'],1,right,['1'],6,205,[-0.0607179],99,47,medium,plus,dotcolour,beta,,,53,19,V,R,
649,19,19,15,5,27,53,833,['n'],1,right,['1'],6,205,[-0.13386504],100,53,easy,plus,dotcolour,beta,,,53,19,V,R,
650,20,20,15,5,47,33,2215,['c'],1,left,['3'],4,253,[0.01380424],92,47,medium,plus,dotcolour,beta,,,53,19,V,R,
651,21,21,15,5,44,36,1197,['n'],0,left,['2'],5,158,[-0.03982558],99,44,hard,plus,dotcolour,beta,,,53,19,V,R,
652,22,22,15,5,36,44,765,['n'],1,right,['2'],5,209,[-0.05785029],99,44,hard,plus,dotcolour,beta,,,53,19,V,R,
653,23,23,15,5,47,33,1632,['n'],0,left,['2'],5,704,[-0.00476266],78,47,medium,plus,dotcolour,beta,,,53,19,V,R,
654,24,24,15,5,36,44,1030,['n'],1,right,['1'],6,227,[-0.10199884],100,44,hard,plus,dotcolour,beta,,,53,19,V,R,
655,25,25,15,5,36,44,698,['n'],1,right,['2'],5,264,[-0.11356536],100,44,hard,plus,dotcolour,beta,,,53,19,V,R,
656,26,26,15,5,44,36,2781,['n'],0,left,['3'],4,359,[0.00715012],81,44,hard,plus,dotcolour,beta,,,53,19,V,R,
657,27,27,15,5,47,33,1532,['n'],0,left,['2'],5,396,[-0.01091151],87,47,medium,plus,dotcolour,beta,,,53,19,V,R,
658,28,28,15,5,47,33,3282,['n'],0,left,['3'],4,402,[-0.10023213],99,47,medium,plus,dotcolour,beta,,,53,19,V,R,
659,29,29,15,5,44,36,1548,['n'],0,left,['2'],5,205,[-0.08038588],100,44,hard,plus,dotcolour,beta,,,53,19,V,R,
660,30,30,15,5,53,27,1399,['c'],1,left,['2'],5,327,[0.06111259],98,53,easy,plus,dotcolour,beta,,,53,19,V,R,
661,31,31,15,5,33,47,897,['n'],1,right,['2'],5,239,[-0.14042673],100,47,medium,plus,dotcolour,beta,,,53,19,V,R,
662,32,32,15,5,27,53,733,['n'],1,right,['1'],6,241,[-0.13736638],100,53,easy,plus,dotcolour,beta,,,53,19,V,R,
663,33,33,15,5,36,44,850,['n'],1,right,['1'],6,222,[-0.08241427],99,44,hard,plus,dotcolour,beta,,,53,19,V,R,
664,34,34,15,5,53,27,2582,['n'],0,left,['3'],4,399,[0.06497322],43,53,easy,plus,dotcolour,beta,,,53,19,V,R,
665,35,35,15,5,33,47,798,['n'],1,right,['1'],6,344,[-0.08647655],99,47,medium,plus,dotcolour,beta,,,53,19,V,R,
666,36,36,15,5,53,27,2831,['c'],1,left,['3'],4,266,[0.05663302],98,53,easy,plus,dotcolour,beta,,,53,19,V,R,
667,37,37,15,5,36,44,783,['n'],1,right,['1'],6,185,[-0.01159839],94,44,hard,plus,dotcolour,beta,,,53,19,V,R,
668,38,38,15,5,27,53,698,['n'],1,right,['1'],6,391,[-0.02949874],92,53,easy,plus,dotcolour,beta,,,53,19,V,R,
669,39,39,15,5,53,27,1765,['c'],1,left,['2'],5,474,[0.21923148],100,53,easy,plus,dotcolour,beta,,,53,19,V,R,
670,40,40,15,5,36,44,2614,['n'],1,right,['2'],5,1183,[-0.2354202],99,44,hard,plus,dotcolour,beta,,,53,19,V,R,
671,41,41,15,5,47,33,882,['n'],0,left,['1'],6,197,[-0.05301233],99,47,medium,plus,dotcolour,beta,,,53,19,V,R,
672,42,0,16,5,47,33,2249,['c'],1,left,['2'],5,496,[0.07676379],97,47,medium,plus,dotcolour,beta,,,53,19,V,R,
673,43,1,16,5,44,36,1416,['n'],0,left,['2'],5,397,[-0.06369831],97,44,hard,plus,dotcolour,beta,,,53,19,V,R,
674,44,2,16,5,33,47,799,['n'],1,right,['1'],6,295,[-0.03782603],96,47,medium,plus,dotcolour,beta,,,53,19,V,R,
675,45,3,16,5,53,27,1250,['n'],0,left,['1'],6,426,[-0.07476683],97,53,easy,plus,dotcolour,beta,,,53,19,V,R,
676,46,4,16,5,36,44,700,['n'],1,right,['1'],6,230,[-0.02962848],96,44,hard,plus,dotcolour,beta,,,53,19,V,R,
677,47,5,16,5,53,27,1582,['c'],1,left,['3'],4,318,[0.08490908],99,53,easy,plus,dotcolour,beta,,,53,19,V,R,
678,48,6,16,5,53,27,1399,['c'],1,left,['1'],6,683,[-0.0257521],66,53,easy,plus,dotcolour,beta,,,53,19,V,R,
679,49,7,16,5,44,36,1433,['n'],0,left,['1'],6,223,[0.01496113],82,44,hard,plus,dotcolour,beta,,,53,19,V,R,
680,50,8,16,5,44,36,1515,['n'],0,left,['1'],6,290,[0.0468084],57,44,hard,plus,dotcolour,beta,,,53,19,V,R,
681,51,9,16,5,47,33,1267,['c'],1,left,['1'],6,309,[0.12521239],100,47,medium,plus,dotcolour,beta,,,53,19,V,R,
682,52,10,16,5,44,36,1599,['c'],1,left,['1'],6,378,[0.05795555],97,44,hard,plus,dotcolour,beta,,,53,19,V,R,
683,53,11,16,5,36,44,1565,['n'],1,right,['1'],6,277,[-0.0918893],99,44,hard,plus,dotcolour,beta,,,53,19,V,R,
684,54,12,16,5,36,44,1197,['n'],1,right,['1'],6,307,[-0.13322857],100,44,hard,plus,dotcolour,beta,,,53,19,V,R,
685,55,13,16,5,27,53,767,['n'],1,right,['1'],6,233,[-0.13532747],100,53,easy,plus,dotcolour,beta,,,53,19,V,R,
686,56,14,16,5,27,53,716,['n'],1,right,['1'],6,524,[-0.23707329],100,53,easy,plus,dotcolour,beta,,,53,19,V,R,
687,57,15,16,5,33,47,681,['n'],1,right,['1'],6,293,[-0.09394562],99,47,medium,plus,dotcolour,beta,,,53,19,V,R,
688,58,16,16,5,27,53,649,['n'],1,right,['1'],6,344,[-0.13438996],100,53,easy,plus,dotcolour,beta,,,53,19,V,R,
689,59,17,16,5,53,27,2097,['c'],1,left,['3'],4,592,[0.08792875],97,53,easy,plus,dotcolour,beta,,,53,19,V,R,
690,60,18,16,5,47,33,1347,['c'],1,left,['2'],5,211,[0.03576777],97,47,medium,plus,dotcolour,beta,,,53,19,V,R,
691,61,19,16,5,53,27,1598,['c'],1,left,['2'],5,267,[0.09113474],99,53,easy,plus,dotcolour,beta,,,53,19,V,R,
692,62,20,16,5,27,53,766,['n'],1,right,['1'],6,211,[-0.1099432],100,53,easy,plus,dotcolour,beta,,,53,19,V,R,
693,63,21,16,5,44,36,2699,['n'],0,left,['3'],4,248,[-0.06746534],99,44,hard,plus,dotcolour,beta,,,53,19,V,R,
694,64,22,16,5,27,53,882,['n'],1,right,['1'],6,628,[-0.20233037],100,53,easy,plus,dotcolour,beta,,,53,19,V,R,
695,65,23,16,5,44,36,1433,['c'],1,left,['2'],5,315,[0.10151719],99,44,hard,plus,dotcolour,beta,,,53,19,V,R,
696,66,24,16,5,53,27,1382,['c'],1,left,['2'],5,240,[0.10641056],100,53,easy,plus,dotcolour,beta,,,53,19,V,R,
697,67,25,16,5,47,33,2015,['n'],0,left,['3'],4,351,[-0.14726498],100,47,medium,plus,dotcolour,beta,,,53,19,V,R,
698,68,26,16,5,47,33,1532,['c'],1,left,['2'],5,317,[0.07403467],98,47,medium,plus,dotcolour,beta,,,53,19,V,R,
699,69,27,16,5,33,47,849,['n'],1,right,['1'],6,176,[-0.14832771],100,47,medium,plus,dotcolour,beta,,,53,19,V,R,
700,70,28,16,5,33,47,682,['n'],1,right,['1'],6,166,[-0.08047479],100,47,medium,plus,dotcolour,beta,,,53,19,V,R,
701,71,29,16,5,33,47,699,['n'],1,right,['1'],6,213,[-0.04126269],98,47,medium,plus,dotcolour,beta,,,53,19,V,R,
702,72,30,16,5,44,36,1250,['c'],1,left,['2'],5,316,[0.05440194],97,44,hard,plus,dotcolour,beta,,,53,19,V,R,
703,73,31,16,5,47,33,1449,['c'],1,left,['3'],4,318,[0.09452827],99,47,medium,plus,dotcolour,beta,,,53,19,V,R,
704,74,32,16,5,36,44,1299,['n'],1,right,['2'],5,542,[-0.06311712],95,44,hard,plus,dotcolour,beta,,,53,19,V,R,
705,75,33,16,5,33,47,799,['n'],1,right,['1'],6,194,[-0.09685475],100,47,medium,plus,dotcolour,beta,,,53,19,V,R,
706,76,34,16,5,33,47,2133,['n'],1,right,['1'],6,638,[-0.04096306],90,47,medium,plus,dotcolour,beta,,,53,19,V,R,
707,77,35,16,5,27,53,715,['n'],1,right,['1'],6,216,[-0.2030696],100,53,easy,plus,dotcolour,beta,,,53,19,V,R,
708,78,36,16,5,36,44,815,['n'],1,right,['1'],6,144,[-0.04874294],99,44,hard,plus,dotcolour,beta,,,53,19,V,R,
709,79,37,16,5,53,27,1082,['n'],0,left,['2'],5,601,[0.01815759],70,53,easy,plus,dotcolour,beta,,,53,19,V,R,
710,80,38,16,5,27,53,665,['n'],1,right,['1'],6,383,[-0.12640051],99,53,easy,plus,dotcolour,beta,,,53,19,V,R,
711,81,39,16,5,36,44,2482,['n'],1,right,['3'],4,261,[-0.1025874],100,44,hard,plus,dotcolour,beta,,,53,19,V,R,
712,82,40,16,5,36,44,1016,['n'],1,right,['1'],6,251,[-0.10789141],100,44,hard,plus,dotcolour,beta,,,53,19,V,R,
713,83,41,16,5,47,33,1933,['n'],0,left,['3'],4,685,[0.03334742],62,47,medium,plus,dotcolour,beta,,,53,19,V,R,
714,84,0,17,5,53,27,1950,['c'],1,left,['1'],6,382,[0.08852748],99,53,easy,plus,dotcolour,beta,,,53,19,V,R,
715,85,1,17,5,27,53,1232,['n'],1,right,['1'],6,814,[-0.1872139],99,53,easy,plus,dotcolour,beta,,,53,19,V,R,
716,86,2,17,5,44,36,1366,['n'],0,left,['1'],6,472,[0.10410268],22,44,hard,plus,dotcolour,beta,,,53,19,V,R,
717,87,3,17,5,33,47,1084,['n'],1,right,['2'],5,538,[-0.22591896],100,47,medium,plus,dotcolour,beta,,,53,19,V,R,
718,88,4,17,5,47,33,931,['n'],0,left,['2'],5,328,[-0.0486596],96,47,medium,plus,dotcolour,beta,,,53,19,V,R,
719,89,5,17,5,33,47,748,['n'],1,right,['1'],6,222,[-0.06578085],99,47,medium,plus,dotcolour,beta,,,53,19,V,R,
720,90,6,17,5,44,36,1282,['c'],1,left,['2'],5,299,[0.0573741],98,44,hard,plus,dotcolour,beta,,,53,19,V,R,
721,91,7,17,5,33,47,648,['n'],1,right,['1'],6,230,[-0.08072182],99,47,medium,plus,dotcolour,beta,,,53,19,V,R,
722,92,8,17,5,44,36,1382,['n'],0,left,['2'],5,367,[-0.04191232],95,44,hard,plus,dotcolour,beta,,,53,19,V,R,
723,93,9,17,5,33,47,700,['n'],1,right,['2'],5,301,[-0.11916912],100,47,medium,plus,dotcolour,beta,,,53,19,V,R,
724,94,10,17,5,53,27,1815,['c'],1,left,['3'],4,882,[0.12419532],97,53,easy,plus,dotcolour,beta,,,53,19,V,R,
725,95,11,17,5,36,44,699,['n'],1,right,['1'],6,203,[-0.10362989],100,44,hard,plus,dotcolour,beta,,,53,19,V,R,
726,96,12,17,5,27,53,549,['n'],1,right,['1'],6,189,[-0.02984083],97,53,easy,plus,dotcolour,beta,,,53,19,V,R,
727,97,13,17,5,27,53,465,['n'],1,right,['1'],6,325,[-0.04194991],96,53,easy,plus,dotcolour,beta,,,53,19,V,R,
728,98,14,17,5,44,36,1099,['n'],0,left,['1'],6,197,[-0.11171522],100,44,hard,plus,dotcolour,beta,,,53,19,V,R,
729,99,15,17,5,33,47,665,['n'],1,right,['1'],6,155,[-0.03094654],98,47,medium,plus,dotcolour,beta,,,53,19,V,R,
730,100,16,17,5,53,27,1332,['c'],1,left,['2'],5,257,[0.09792495],100,53,easy,plus,dotcolour,beta,,,53,19,V,R,
731,101,17,17,5,27,53,700,['n'],1,right,['1'],6,188,[-0.05335936],99,53,easy,plus,dotcolour,beta,,,53,19,V,R,
732,102,18,17,5,47,33,914,['n'],0,left,['1'],6,192,[-0.07089908],99,47,medium,plus,dotcolour,beta,,,53,19,V,R,
733,103,19,17,5,27,53,600,['n'],1,right,['1'],6,465,[-0.09667917],98,53,easy,plus,dotcolour,beta,,,53,19,V,R,
734,104,20,17,5,27,53,582,['n'],1,right,['1'],6,145,[-0.04641661],99,53,easy,plus,dotcolour,beta,,,53,19,V,R,
735,105,21,17,5,53,27,1048,['c'],1,left,['1'],6,306,[0.06676495],98,53,easy,plus,dotcolour,beta,,,53,19,V,R,
736,106,22,17,5,44,36,2099,['c'],1,left,['3'],4,347,[0.11213709],99,44,hard,plus,dotcolour,beta,,,53,19,V,R,
737,107,23,17,5,44,36,865,['n'],0,left,['1'],6,244,[-0.02040777],94,44,hard,plus,dotcolour,beta,,,53,19,V,R,
738,108,24,17,5,27,53,948,['n'],1,right,['1'],6,941,[-0.18809215],99,53,easy,plus,dotcolour,beta,,,53,19,V,R,
739,109,25,17,5,47,33,1432,['c'],1,left,['2'],5,358,[0.13523798],100,47,medium,plus,dotcolour,beta,,,53,19,V,R,
740,110,26,17,5,53,27,1150,['c'],1,left,['2'],5,268,[0.14043382],100,53,easy,plus,dotcolour,beta,,,53,19,V,R,
741,111,27,17,5,36,44,765,['n'],1,right,['1'],6,171,[-0.14666209],100,44,hard,plus,dotcolour,beta,,,53,19,V,R,
742,112,28,17,5,36,44,815,['n'],1,right,['1'],6,349,[-0.08298362],99,44,hard,plus,dotcolour,beta,,,53,19,V,R,
743,113,29,17,5,36,44,699,['n'],1,right,['1'],6,188,[-0.07932362],100,44,hard,plus,dotcolour,beta,,,53,19,V,R,
744,114,30,17,5,44,36,965,['n'],0,left,['1'],6,175,[-0.09001277],100,44,hard,plus,dotcolour,beta,,,53,19,V,R,
745,115,31,17,5,53,27,1714,['n'],0,left,['2'],5,165,[0.0378463],69,53,easy,plus,dotcolour,beta,,,53,19,V,R,
746,116,32,17,5,47,33,2033,['n'],0,left,['3'],4,214,[-0.03750199],97,47,medium,plus,dotcolour,beta,,,53,19,V,R,
747,117,33,17,5,53,27,1515,['c'],1,left,['2'],5,538,[0.18095833],100,53,easy,plus,dotcolour,beta,,,53,19,V,R,
748,118,34,17,5,36,44,1165,['n'],1,right,['2'],5,615,[-0.0015115],79,44,hard,plus,dotcolour,beta,,,53,19,V,R,
749,119,35,17,5,47,33,2548,['n'],0,left,['3'],4,202,[-0.02817364],97,47,medium,plus,dotcolour,beta,,,53,19,V,R,
750,120,36,17,5,47,33,1515,['c'],1,left,['1'],6,374,[0.10689005],99,47,medium,plus,dotcolour,beta,,,53,19,V,R,
751,121,37,17,5,33,47,1082,['n'],1,right,['1'],6,197,[-0.17689701],100,47,medium,plus,dotcolour,beta,,,53,19,V,R,
752,122,38,17,5,47,33,1514,['c'],1,left,['1'],6,394,[0.12992275],100,47,medium,plus,dotcolour,beta,,,53,19,V,R,
753,123,39,17,5,33,47,632,['n'],1,right,['1'],6,794,[-0.20296023],99,47,medium,plus,dotcolour,beta,,,53,19,V,R,
754,124,40,17,5,36,44,797,['n'],1,right,['1'],6,643,[-0.1581613],99,44,hard,plus,dotcolour,beta,,,53,19,V,R,
755,125,41,17,5,36,44,747,['n'],1,right,['1'],6,204,[-0.07314379],99,44,hard,plus,dotcolour,beta,,,53,19,V,R,
,,,,,,,,,,,,,,,,,,,,,1,"ik weet niet of percentages over hoe coorect ons antwoord was wel effectief overeenkwam met de werkelijkheid, maar dit kan ook aan mij liggen",53,19,V,R,
,,,,,,,,,,,,,,,,,,,,,2,['f'],53,19,V,R,
,,,,,,,,,,,,,,,,,,,,,3,['g'],53,19,V,R,
,,,,,,,,,,,,,,,,,,,,,5,[],53,19,V,R,
