trial,withinphasetrial,withinblocktrial,block,phase,dotsLeft,dotsRight,rt,resp,cor,cresp,conf_press,cj,RTconf,ev,fb,diff,difflevel,condition,task,manip,questionID,questionResp,sub,age,gender,handedness,
0,0,0,0,0,27,53,1236,['n'],1,right,['0'],6,1050,[-0.3050484],100,53,easy,plus,dotcolour,beta,,,6,30,M,R,
1,1,1,0,0,27,53,1116,['n'],1,right,['9'],5,1024,[-0.27457227],100,53,easy,plus,dotcolour,beta,,,6,30,M,R,
2,2,2,0,0,44,36,749,['c'],1,left,['0'],6,774,[0.02503148],84,44,hard,plus,dotcolour,beta,,,6,30,M,R,
3,3,3,0,0,53,27,983,['c'],1,left,['9'],5,1006,[0.28921609],100,53,easy,plus,dotcolour,beta,,,6,30,M,R,
4,4,4,0,0,53,27,1550,['c'],1,left,['0'],6,1100,[0.22393701],99,53,easy,plus,dotcolour,beta,,,6,30,M,R,
5,5,5,0,0,27,53,1250,['n'],1,right,['0'],6,611,[-0.1737232],99,53,easy,plus,dotcolour,beta,,,6,30,M,R,
6,6,6,0,0,53,27,768,['c'],1,left,['0'],6,1266,[0.24368755],99,53,easy,plus,dotcolour,beta,,,6,30,M,R,
7,7,7,0,0,47,33,866,['c'],1,left,['0'],6,466,[0.01584453],87,47,medium,plus,dotcolour,beta,,,6,30,M,R,
8,8,8,0,0,27,53,1234,['c'],0,right,['0'],6,468,[-0.04966795],54,53,easy,plus,dotcolour,beta,,,6,30,M,R,
9,9,9,0,0,53,27,800,['c'],1,left,['0'],6,455,[0.0005284],82,53,easy,plus,dotcolour,beta,,,6,30,M,R,
10,10,10,0,0,53,27,816,['c'],1,left,['9'],5,506,[0.01404548],85,53,easy,plus,dotcolour,beta,,,6,30,M,R,
11,11,11,0,0,33,47,1217,['n'],1,right,['0'],6,499,[-0.09931183],98,47,medium,plus,dotcolour,beta,,,6,30,M,R,
12,12,12,0,0,53,27,851,['c'],1,left,['9'],5,651,[0.05537642],92,53,easy,plus,dotcolour,beta,,,6,30,M,R,
13,13,13,0,0,36,44,1467,['n'],1,right,['9'],5,548,[-0.04686522],92,44,hard,plus,dotcolour,beta,,,6,30,M,R,
14,14,14,0,0,33,47,933,['c'],0,right,['0'],6,655,[0.04076099],89,47,medium,plus,dotcolour,beta,,,6,30,M,R,
15,15,15,0,0,47,33,699,['c'],1,left,['0'],6,335,[0.20105022],100,47,medium,plus,dotcolour,beta,,,6,30,M,R,
16,16,16,0,0,27,53,683,['n'],1,right,['0'],6,429,[-0.13388101],99,53,easy,plus,dotcolour,beta,,,6,30,M,R,
17,17,17,0,0,27,53,899,['n'],1,right,['0'],6,382,[-0.06460144],97,53,easy,plus,dotcolour,beta,,,6,30,M,R,
18,18,18,0,0,47,33,616,['c'],1,left,['0'],6,461,[0.22174579],100,47,medium,plus,dotcolour,beta,,,6,30,M,R,
19,19,19,0,0,44,36,817,['c'],1,left,['0'],6,336,[0.09475036],99,44,hard,plus,dotcolour,beta,,,6,30,M,R,
20,20,20,0,0,36,44,1516,['n'],1,right,['0'],6,371,[-0.07923264],98,44,hard,plus,dotcolour,beta,,,6,30,M,R,
21,21,21,0,0,53,27,632,['c'],1,left,['0'],6,322,[0.10210992],99,53,easy,plus,dotcolour,beta,,,6,30,M,R,
22,22,22,0,0,36,44,899,['c'],0,right,['0'],6,288,[0.07546813],99,44,hard,plus,dotcolour,beta,,,6,30,M,R,
23,23,23,0,0,44,36,701,['c'],1,left,['0'],6,334,[0.06968908],98,44,hard,plus,dotcolour,beta,,,6,30,M,R,
24,24,24,0,0,47,33,816,['c'],1,left,['0'],6,311,[0.11312737],100,47,medium,plus,dotcolour,beta,,,6,30,M,R,
25,25,25,0,0,47,33,683,['c'],1,left,['0'],6,278,[0.12449664],100,47,medium,plus,dotcolour,beta,,,6,30,M,R,
26,26,26,0,0,36,44,950,['c'],0,right,['0'],6,267,[-0.00106262],87,44,hard,plus,dotcolour,beta,,,6,30,M,R,
27,27,27,0,0,36,44,966,['c'],0,right,['0'],6,256,[0.09002485],99,44,hard,plus,dotcolour,beta,,,6,30,M,R,
28,28,28,0,0,33,47,751,['n'],1,right,['0'],6,262,[-0.07612508],99,47,medium,plus,dotcolour,beta,,,6,30,M,R,
29,29,29,0,0,33,47,1017,['c'],0,right,['0'],6,762,[0.2422185],100,47,medium,plus,dotcolour,beta,,,6,30,M,R,
30,30,30,0,0,33,47,1033,['n'],1,right,['0'],6,248,[-0.15566707],100,47,medium,plus,dotcolour,beta,,,6,30,M,R,
31,31,31,0,0,33,47,1100,['c'],0,right,['0'],6,256,[0.15366612],100,47,medium,plus,dotcolour,beta,,,6,30,M,R,
32,32,32,0,0,44,36,765,['c'],1,left,['0'],6,270,[0.16921748],100,44,hard,plus,dotcolour,beta,,,6,30,M,R,
33,33,33,0,0,44,36,716,['n'],0,left,['0'],6,253,[-0.04826791],98,44,hard,plus,dotcolour,beta,,,6,30,M,R,
34,34,34,0,0,44,36,750,['c'],1,left,['0'],6,252,[0.16831545],100,44,hard,plus,dotcolour,beta,,,6,30,M,R,
35,35,35,0,0,47,33,667,['c'],1,left,['0'],6,366,[0.12499067],100,47,medium,plus,dotcolour,beta,,,6,30,M,R,
36,36,36,0,0,47,33,950,['n'],0,left,['0'],6,272,[-0.045464],97,47,medium,plus,dotcolour,beta,,,6,30,M,R,
37,37,37,0,0,27,53,632,['c'],0,right,['0'],6,306,[-0.01048956],81,53,easy,plus,dotcolour,beta,,,6,30,M,R,
38,38,38,0,0,36,44,1251,['c'],0,right,['0'],6,273,[0.09862401],100,44,hard,plus,dotcolour,beta,,,6,30,M,R,
39,39,39,0,0,44,36,800,['c'],1,left,['0'],6,213,[0.12129359],100,44,hard,plus,dotcolour,beta,,,6,30,M,R,
40,40,40,0,0,33,47,799,['n'],1,right,['0'],6,251,[-0.0665455],99,47,medium,plus,dotcolour,beta,,,6,30,M,R,
41,41,41,0,0,36,44,767,['c'],0,right,['0'],6,273,[0.0474431],97,44,hard,plus,dotcolour,beta,,,6,30,M,R,
42,42,0,1,0,33,47,667,['c'],0,right,['0'],6,209,[0.02245193],96,47,medium,plus,dotcolour,beta,,,6,30,M,R,
43,43,1,1,0,33,47,798,['c'],0,right,['0'],6,175,[0.06719359],99,47,medium,plus,dotcolour,beta,,,6,30,M,R,
44,44,2,1,0,53,27,733,['c'],1,left,['0'],6,233,[0.0637036],99,53,easy,plus,dotcolour,beta,,,6,30,M,R,
45,45,3,1,0,33,47,800,['n'],1,right,['0'],6,254,[-0.14620523],100,47,medium,plus,dotcolour,beta,,,6,30,M,R,
46,46,4,1,0,27,53,1217,['c'],0,right,['0'],6,337,[0.0623917],97,53,easy,plus,dotcolour,beta,,,6,30,M,R,
47,47,5,1,0,44,36,1167,['c'],1,left,['0'],6,275,[0.04022627],96,44,hard,plus,dotcolour,beta,,,6,30,M,R,
48,48,6,1,0,47,33,598,['c'],1,left,['0'],6,278,[0.10232044],100,47,medium,plus,dotcolour,beta,,,6,30,M,R,
49,49,7,1,0,53,27,633,['c'],1,left,['0'],6,288,[0.13209401],100,53,easy,plus,dotcolour,beta,,,6,30,M,R,
50,50,8,1,0,27,53,617,['n'],1,right,['0'],6,348,[-0.11818759],100,53,easy,plus,dotcolour,beta,,,6,30,M,R,
51,51,9,1,0,33,47,918,['n'],1,right,['9'],5,591,[-0.05334607],93,47,medium,plus,dotcolour,beta,,,6,30,M,R,
52,52,10,1,0,36,44,1769,['n'],1,right,['0'],6,702,[-0.14259974],99,44,hard,plus,dotcolour,beta,,,6,30,M,R,
53,53,11,1,0,47,33,650,['c'],1,left,['0'],6,279,[0.06728218],99,47,medium,plus,dotcolour,beta,,,6,30,M,R,
54,54,12,1,0,33,47,1285,['n'],1,right,['9'],5,1462,[-0.39709792],100,47,medium,plus,dotcolour,beta,,,6,30,M,R,
55,55,13,1,0,33,47,2085,['n'],1,right,['0'],6,356,[-0.11378789],99,47,medium,plus,dotcolour,beta,,,6,30,M,R,
56,56,14,1,0,36,44,1250,['n'],1,right,['0'],6,298,[-0.05922876],98,44,hard,plus,dotcolour,beta,,,6,30,M,R,
57,57,15,1,0,53,27,616,['c'],1,left,['0'],6,316,[0.10037185],99,53,easy,plus,dotcolour,beta,,,6,30,M,R,
58,58,16,1,0,47,33,950,['c'],1,left,['0'],6,280,[0.06255997],98,47,medium,plus,dotcolour,beta,,,6,30,M,R,
59,59,17,1,0,36,44,682,['n'],1,right,['0'],6,280,[-0.10857683],100,44,hard,plus,dotcolour,beta,,,6,30,M,R,
60,60,18,1,0,36,44,1134,['c'],0,right,['0'],6,286,[0.05496934],98,44,hard,plus,dotcolour,beta,,,6,30,M,R,
61,61,19,1,0,47,33,617,['c'],1,left,['0'],6,289,[0.20407433],100,47,medium,plus,dotcolour,beta,,,6,30,M,R,
62,62,20,1,0,27,53,783,['n'],1,right,['0'],6,301,[-0.07458872],99,53,easy,plus,dotcolour,beta,,,6,30,M,R,
63,63,21,1,0,44,36,1100,['c'],1,left,['0'],6,299,[0.05762843],98,44,hard,plus,dotcolour,beta,,,6,30,M,R,
64,64,22,1,0,27,53,1401,['n'],1,right,['0'],6,237,[-0.14150206],100,53,easy,plus,dotcolour,beta,,,6,30,M,R,
65,65,23,1,0,27,53,633,['n'],1,right,['0'],6,226,[-0.06193044],99,53,easy,plus,dotcolour,beta,,,6,30,M,R,
66,66,24,1,0,53,27,517,['c'],1,left,['0'],6,371,[0.15746569],100,53,easy,plus,dotcolour,beta,,,6,30,M,R,
67,67,25,1,0,44,36,750,['c'],1,left,['0'],6,212,[0.1335164],100,44,hard,plus,dotcolour,beta,,,6,30,M,R,
68,68,26,1,0,53,27,1098,['c'],1,left,['0'],6,229,[0.08225634],99,53,easy,plus,dotcolour,beta,,,6,30,M,R,
69,69,27,1,0,36,44,1501,['c'],0,right,['0'],6,310,[0.07162362],98,44,hard,plus,dotcolour,beta,,,6,30,M,R,
70,70,28,1,0,53,27,600,['c'],1,left,['0'],6,216,[0.09292622],100,53,easy,plus,dotcolour,beta,,,6,30,M,R,
71,71,29,1,0,47,33,733,['c'],1,left,['0'],6,241,[0.12719146],100,47,medium,plus,dotcolour,beta,,,6,30,M,R,
72,72,30,1,0,47,33,816,['c'],1,left,['0'],6,278,[0.1335609],100,47,medium,plus,dotcolour,beta,,,6,30,M,R,
73,73,31,1,0,27,53,568,['n'],1,right,['0'],6,282,[-0.10232074],100,53,easy,plus,dotcolour,beta,,,6,30,M,R,
74,74,32,1,0,36,44,750,['c'],0,right,['0'],6,200,[0.07668538],100,44,hard,plus,dotcolour,beta,,,6,30,M,R,
75,75,33,1,0,44,36,699,['c'],1,left,['0'],6,210,[0.0441979],98,44,hard,plus,dotcolour,beta,,,6,30,M,R,
76,76,34,1,0,44,36,1183,['c'],1,left,['0'],6,232,[0.08650023],100,44,hard,plus,dotcolour,beta,,,6,30,M,R,
77,77,35,1,0,36,44,1316,['n'],1,right,['0'],6,208,[-0.08341794],100,44,hard,plus,dotcolour,beta,,,6,30,M,R,
78,78,36,1,0,27,53,566,['n'],1,right,['0'],6,280,[-0.03743949],96,53,easy,plus,dotcolour,beta,,,6,30,M,R,
79,79,37,1,0,44,36,850,['c'],1,left,['0'],6,273,[0.11527619],100,44,hard,plus,dotcolour,beta,,,6,30,M,R,
80,80,38,1,0,47,33,633,['c'],1,left,['0'],6,299,[0.14340409],100,47,medium,plus,dotcolour,beta,,,6,30,M,R,
81,81,39,1,0,44,36,683,['c'],1,left,['0'],6,283,[0.09120919],99,44,hard,plus,dotcolour,beta,,,6,30,M,R,
82,82,40,1,0,53,27,650,['c'],1,left,['0'],6,245,[0.07794197],99,53,easy,plus,dotcolour,beta,,,6,30,M,R,
83,83,41,1,0,33,47,1135,['c'],0,right,['0'],6,252,[0.0381673],97,47,medium,plus,dotcolour,beta,,,6,30,M,R,
84,84,0,2,0,36,44,719,['c'],0,right,['0'],6,574,[0.12914372],99,44,hard,plus,dotcolour,beta,,,6,30,M,R,
85,85,1,2,0,44,36,834,['c'],1,left,['0'],6,1364,[0.29866551],100,44,hard,plus,dotcolour,beta,,,6,30,M,R,
86,86,2,2,0,27,53,700,['n'],1,right,['0'],6,447,[-0.08850047],98,53,easy,plus,dotcolour,beta,,,6,30,M,R,
87,87,3,2,0,33,47,783,['n'],1,right,['0'],6,284,[-0.10255545],100,47,medium,plus,dotcolour,beta,,,6,30,M,R,
88,88,4,2,0,36,44,868,['n'],1,right,['0'],6,309,[-0.03782719],95,44,hard,plus,dotcolour,beta,,,6,30,M,R,
89,89,5,2,0,36,44,851,['n'],1,right,['0'],6,332,[-0.07704488],98,44,hard,plus,dotcolour,beta,,,6,30,M,R,
90,90,6,2,0,44,36,851,['c'],1,left,['0'],6,324,[0.15235702],100,44,hard,plus,dotcolour,beta,,,6,30,M,R,
91,91,7,2,0,47,33,682,['c'],1,left,['0'],6,282,[0.24877078],100,47,medium,plus,dotcolour,beta,,,6,30,M,R,
92,92,8,2,0,53,27,617,['c'],1,left,['0'],6,237,[0.03180867],96,53,easy,plus,dotcolour,beta,,,6,30,M,R,
93,93,9,2,0,47,33,635,['c'],1,left,['0'],6,264,[0.13565449],100,47,medium,plus,dotcolour,beta,,,6,30,M,R,
94,94,10,2,0,27,53,852,['n'],1,right,['0'],6,330,[-0.15032563],100,53,easy,plus,dotcolour,beta,,,6,30,M,R,
95,95,11,2,0,27,53,666,['n'],1,right,['0'],6,329,[-0.1069624],99,53,easy,plus,dotcolour,beta,,,6,30,M,R,
96,96,12,2,0,47,33,584,['c'],1,left,['0'],6,275,[0.17332117],100,47,medium,plus,dotcolour,beta,,,6,30,M,R,
97,97,13,2,0,53,27,734,['c'],1,left,['0'],6,225,[0.0964565],100,53,easy,plus,dotcolour,beta,,,6,30,M,R,
98,98,14,2,0,27,53,500,['n'],1,right,['0'],6,315,[-0.0570101],97,53,easy,plus,dotcolour,beta,,,6,30,M,R,
99,99,15,2,0,53,27,515,['c'],1,left,['0'],6,240,[0.19285333],100,53,easy,plus,dotcolour,beta,,,6,30,M,R,
100,100,16,2,0,44,36,734,['c'],1,left,['0'],6,232,[0.08929232],100,44,hard,plus,dotcolour,beta,,,6,30,M,R,
101,101,17,2,0,36,44,1333,['n'],1,right,['0'],6,336,[-0.02964436],93,44,hard,plus,dotcolour,beta,,,6,30,M,R,
102,102,18,2,0,53,27,666,['c'],1,left,['0'],6,253,[0.18583742],100,53,easy,plus,dotcolour,beta,,,6,30,M,R,
103,103,19,2,0,33,47,715,['n'],1,right,['0'],6,262,[-0.21676761],100,47,medium,plus,dotcolour,beta,,,6,30,M,R,
104,104,20,2,0,33,47,784,['n'],1,right,['0'],6,282,[-0.14720599],100,47,medium,plus,dotcolour,beta,,,6,30,M,R,
105,105,21,2,0,44,36,1033,['n'],0,left,['0'],6,276,[0.01192684],82,44,hard,plus,dotcolour,beta,,,6,30,M,R,
106,106,22,2,0,53,27,817,['c'],1,left,['0'],6,270,[0.2080789],100,53,easy,plus,dotcolour,beta,,,6,30,M,R,
107,107,23,2,0,27,53,816,['n'],1,right,['0'],6,290,[-0.06011191],98,53,easy,plus,dotcolour,beta,,,6,30,M,R,
108,108,24,2,0,27,53,649,['n'],1,right,['0'],6,258,[-0.0979737],100,53,easy,plus,dotcolour,beta,,,6,30,M,R,
109,109,25,2,0,47,33,584,['c'],1,left,['0'],6,256,[-0.07012887],37,47,medium,plus,dotcolour,beta,,,6,30,M,R,
110,110,26,2,0,33,47,1201,['c'],0,right,['0'],6,267,[-0.02451186],75,47,medium,plus,dotcolour,beta,,,6,30,M,R,
111,111,27,2,0,47,33,885,['c'],1,left,['0'],6,267,[0.09114625],99,47,medium,plus,dotcolour,beta,,,6,30,M,R,
112,112,28,2,0,33,47,717,['n'],1,right,['0'],6,251,[-0.11716186],100,47,medium,plus,dotcolour,beta,,,6,30,M,R,
113,113,29,2,0,44,36,633,['c'],1,left,['0'],6,262,[0.02489913],94,44,hard,plus,dotcolour,beta,,,6,30,M,R,
114,114,30,2,0,44,36,951,['n'],0,left,['0'],6,276,[-0.02690589],94,44,hard,plus,dotcolour,beta,,,6,30,M,R,
115,115,31,2,0,47,33,1034,['c'],1,left,['0'],6,254,[0.07171329],99,47,medium,plus,dotcolour,beta,,,6,30,M,R,
116,116,32,2,0,27,53,631,['n'],1,right,['0'],6,248,[-0.21055192],100,53,easy,plus,dotcolour,beta,,,6,30,M,R,
117,117,33,2,0,36,44,784,['c'],0,right,['0'],6,214,[0.09066852],100,44,hard,plus,dotcolour,beta,,,6,30,M,R,
118,118,34,2,0,33,47,817,['n'],1,right,['0'],6,291,[-0.11510794],100,47,medium,plus,dotcolour,beta,,,6,30,M,R,
119,119,35,2,0,36,44,699,['n'],1,right,['0'],6,250,[-0.03828465],97,44,hard,plus,dotcolour,beta,,,6,30,M,R,
120,120,36,2,0,44,36,567,['c'],1,left,['0'],6,272,[0.08577065],99,44,hard,plus,dotcolour,beta,,,6,30,M,R,
121,121,37,2,0,33,47,665,['c'],0,right,['0'],6,234,[0.09625143],100,47,medium,plus,dotcolour,beta,,,6,30,M,R,
122,122,38,2,0,53,27,617,['c'],1,left,['0'],6,302,[-0.04361492],60,53,easy,plus,dotcolour,beta,,,6,30,M,R,
123,123,39,2,0,47,33,968,['n'],0,left,['0'],6,330,[-0.07590337],98,47,medium,plus,dotcolour,beta,,,6,30,M,R,
124,124,40,2,0,53,27,834,['c'],1,left,['0'],6,362,[0.10220303],99,53,easy,plus,dotcolour,beta,,,6,30,M,R,
125,125,41,2,0,36,44,799,['n'],1,right,['0'],6,258,[-0.14950429],100,44,hard,plus,dotcolour,beta,,,6,30,M,R,
126,0,0,3,1,36,44,785,['n'],1,right,['0'],6,241,[-0.00872919],15,44,hard,minus,dotcolour,beta,,,6,30,M,R,
127,1,1,3,1,47,33,716,['c'],1,left,['0'],6,225,[0.12820101],94,47,medium,minus,dotcolour,beta,,,6,30,M,R,
128,2,2,3,1,47,33,1033,['c'],1,left,['0'],6,293,[0.12579358],91,47,medium,minus,dotcolour,beta,,,6,30,M,R,
129,3,3,3,1,44,36,717,['c'],1,left,['0'],6,227,[0.04048874],36,44,hard,minus,dotcolour,beta,,,6,30,M,R,
130,4,4,3,1,33,47,1333,['n'],1,right,['0'],6,539,[-0.28106893],100,47,medium,minus,dotcolour,beta,,,6,30,M,R,
131,5,5,3,1,53,27,634,['c'],1,left,['0'],6,234,[0.15342908],97,53,easy,minus,dotcolour,beta,,,6,30,M,R,
132,6,6,3,1,36,44,1117,['n'],1,right,['0'],6,315,[-0.10281289],82,44,hard,minus,dotcolour,beta,,,6,30,M,R,
133,7,7,3,1,36,44,936,['n'],1,right,['0'],6,287,[-0.10454585],84,44,hard,minus,dotcolour,beta,,,6,30,M,R,
134,8,8,3,1,36,44,1083,['n'],1,right,['0'],6,247,[-0.11840844],91,44,hard,minus,dotcolour,beta,,,6,30,M,R,
135,9,9,3,1,44,36,700,['c'],1,left,['0'],6,239,[0.13476814],95,44,hard,minus,dotcolour,beta,,,6,30,M,R,
136,10,10,3,1,27,53,801,['n'],1,right,['0'],6,236,[-0.11805836],91,53,easy,minus,dotcolour,beta,,,6,30,M,R,
137,11,11,3,1,44,36,798,['c'],1,left,['0'],6,289,[0.07731842],67,44,hard,minus,dotcolour,beta,,,6,30,M,R,
138,12,12,3,1,47,33,1067,['c'],1,left,['0'],6,178,[0.13123117],96,47,medium,minus,dotcolour,beta,,,6,30,M,R,
139,13,13,3,1,27,53,751,['n'],1,right,['0'],6,275,[-0.11420087],88,53,easy,minus,dotcolour,beta,,,6,30,M,R,
140,14,14,3,1,44,36,700,['c'],1,left,['0'],6,242,[0.12824427],93,44,hard,minus,dotcolour,beta,,,6,30,M,R,
141,15,15,3,1,36,44,666,['n'],1,right,['0'],6,260,[-0.09457104],80,44,hard,minus,dotcolour,beta,,,6,30,M,R,
142,16,16,3,1,33,47,951,['n'],1,right,['0'],6,226,[-0.08740074],77,47,medium,minus,dotcolour,beta,,,6,30,M,R,
143,17,17,3,1,36,44,1218,['n'],1,right,['0'],6,239,[-0.11559899],90,44,hard,minus,dotcolour,beta,,,6,30,M,R,
144,18,18,3,1,36,44,983,['n'],1,right,['0'],6,220,[-0.00376562],12,44,hard,minus,dotcolour,beta,,,6,30,M,R,
145,19,19,3,1,53,27,618,['c'],1,left,['0'],6,282,[0.03917775],36,53,easy,minus,dotcolour,beta,,,6,30,M,R,
146,20,20,3,1,27,53,584,['n'],1,right,['0'],6,262,[-0.08618052],75,53,easy,minus,dotcolour,beta,,,6,30,M,R,
147,21,21,3,1,47,33,651,['c'],1,left,['0'],6,216,[0.07558556],68,47,medium,minus,dotcolour,beta,,,6,30,M,R,
148,22,22,3,1,53,27,702,['c'],1,left,['0'],6,298,[0.11965686],89,53,easy,minus,dotcolour,beta,,,6,30,M,R,
149,23,23,3,1,47,33,701,['c'],1,left,['0'],6,273,[0.10861393],86,47,medium,minus,dotcolour,beta,,,6,30,M,R,
150,24,24,3,1,53,27,684,['c'],1,left,['0'],6,209,[0.11521861],91,53,easy,minus,dotcolour,beta,,,6,30,M,R,
151,25,25,3,1,33,47,818,['n'],1,right,['0'],6,303,[-0.09591566],79,47,medium,minus,dotcolour,beta,,,6,30,M,R,
152,26,26,3,1,44,36,665,['c'],1,left,['0'],6,423,[0.11866996],85,44,hard,minus,dotcolour,beta,,,6,30,M,R,
153,27,27,3,1,33,47,1051,['n'],1,right,['0'],6,298,[-0.06808727],60,47,medium,minus,dotcolour,beta,,,6,30,M,R,
154,28,28,3,1,33,47,1017,['n'],1,right,['0'],6,299,[-0.03310811],32,47,medium,minus,dotcolour,beta,,,6,30,M,R,
155,29,29,3,1,44,36,1001,['c'],1,left,['0'],6,246,[0.02628921],26,44,hard,minus,dotcolour,beta,,,6,30,M,R,
156,30,30,3,1,27,53,801,['n'],1,right,['0'],6,282,[-0.1333849],93,53,easy,minus,dotcolour,beta,,,6,30,M,R,
157,31,31,3,1,27,53,1118,['n'],1,right,['0'],6,361,[-0.21181785],99,53,easy,minus,dotcolour,beta,,,6,30,M,R,
158,32,32,3,1,53,27,1252,['c'],1,left,['0'],6,574,[0.01089743],26,53,easy,minus,dotcolour,beta,,,6,30,M,R,
159,33,33,3,1,53,27,700,['c'],1,left,['0'],6,290,[0.14118743],95,53,easy,minus,dotcolour,beta,,,6,30,M,R,
160,34,34,3,1,27,53,751,['n'],1,right,['0'],6,319,[-0.09221493],76,53,easy,minus,dotcolour,beta,,,6,30,M,R,
161,35,35,3,1,33,47,1284,['n'],1,right,['0'],6,517,[-0.15968952],93,47,medium,minus,dotcolour,beta,,,6,30,M,R,
162,36,36,3,1,53,27,1582,['n'],0,left,['8'],4,2118,[0.40621257],0,53,easy,minus,dotcolour,beta,,,6,30,M,R,
163,37,37,3,1,27,53,800,['n'],1,right,['0'],6,669,[-0.13251706],84,53,easy,minus,dotcolour,beta,,,6,30,M,R,
164,38,38,3,1,44,36,782,['c'],1,left,['0'],6,274,[0.05205557],47,44,hard,minus,dotcolour,beta,,,6,30,M,R,
165,39,39,3,1,47,33,783,['c'],1,left,['0'],6,270,[0.09190926],78,47,medium,minus,dotcolour,beta,,,6,30,M,R,
166,40,40,3,1,33,47,650,['n'],1,right,['0'],6,320,[-0.09238098],76,47,medium,minus,dotcolour,beta,,,6,30,M,R,
167,41,41,3,1,47,33,897,['c'],1,left,['0'],6,373,[-0.02230573],9,47,medium,minus,dotcolour,beta,,,6,30,M,R,
168,42,0,4,1,47,33,71,['n'],0,left,['3'],3,2109,[0.15965445],6,47,medium,minus,dotcolour,beta,,,6,30,M,R,
169,43,1,4,1,44,36,1101,['c'],1,left,['0'],6,408,[0.08066274],67,44,hard,minus,dotcolour,beta,,,6,30,M,R,
170,44,2,4,1,44,36,834,['n'],0,left,['0'],6,269,[-0.02494934],26,44,hard,minus,dotcolour,beta,,,6,30,M,R,
171,45,3,4,1,27,53,766,['n'],1,right,['0'],6,274,[-0.11407599],88,53,easy,minus,dotcolour,beta,,,6,30,M,R,
172,46,4,4,1,33,47,1733,['n'],1,right,['0'],6,327,[-0.13148353],92,47,medium,minus,dotcolour,beta,,,6,30,M,R,
173,47,5,4,1,47,33,1116,['c'],1,left,['0'],6,956,[0.11156593],74,47,medium,minus,dotcolour,beta,,,6,30,M,R,
174,48,6,4,1,53,27,699,['c'],1,left,['0'],6,279,[0.0798041],70,53,easy,minus,dotcolour,beta,,,6,30,M,R,
175,49,7,4,1,33,47,716,['n'],1,right,['0'],6,278,[-0.1188267],90,47,medium,minus,dotcolour,beta,,,6,30,M,R,
176,50,8,4,1,33,47,600,['n'],1,right,['0'],6,281,[-0.13246753],93,47,medium,minus,dotcolour,beta,,,6,30,M,R,
177,51,9,4,1,27,53,799,['n'],1,right,['0'],6,261,[-0.12731288],93,53,easy,minus,dotcolour,beta,,,6,30,M,R,
178,52,10,4,1,53,27,649,['c'],1,left,['0'],6,335,[0.13870322],93,53,easy,minus,dotcolour,beta,,,6,30,M,R,
179,53,11,4,1,47,33,750,['c'],1,left,['0'],6,290,[0.14799526],96,47,medium,minus,dotcolour,beta,,,6,30,M,R,
180,54,12,4,1,47,33,817,['c'],1,left,['0'],6,237,[0.13418378],95,47,medium,minus,dotcolour,beta,,,6,30,M,R,
181,55,13,4,1,47,33,783,['c'],1,left,['0'],6,258,[0.07365889],66,47,medium,minus,dotcolour,beta,,,6,30,M,R,
182,56,14,4,1,36,44,832,['n'],1,right,['0'],6,293,[-0.07004655],62,44,hard,minus,dotcolour,beta,,,6,30,M,R,
183,57,15,4,1,47,33,649,['c'],1,left,['0'],6,334,[0.14929768],95,47,medium,minus,dotcolour,beta,,,6,30,M,R,
184,58,16,4,1,27,53,550,['n'],1,right,['0'],6,329,[-0.10220407],81,53,easy,minus,dotcolour,beta,,,6,30,M,R,
185,59,17,4,1,27,53,1035,['c'],0,right,['0'],6,393,[0.02377269],29,53,easy,minus,dotcolour,beta,,,6,30,M,R,
186,60,18,4,1,33,47,633,['n'],1,right,['0'],6,239,[-0.08488514],75,47,medium,minus,dotcolour,beta,,,6,30,M,R,
187,61,19,4,1,44,36,1050,['c'],1,left,['0'],6,313,[0.14019073],94,44,hard,minus,dotcolour,beta,,,6,30,M,R,
188,62,20,4,1,53,27,632,['c'],1,left,['0'],6,194,[0.12180624],94,53,easy,minus,dotcolour,beta,,,6,30,M,R,
189,63,21,4,1,36,44,967,['n'],1,right,['0'],6,314,[-0.0223287],26,44,hard,minus,dotcolour,beta,,,6,30,M,R,
190,64,22,4,1,44,36,649,['c'],1,left,['0'],6,234,[0.06836859],62,44,hard,minus,dotcolour,beta,,,6,30,M,R,
191,65,23,4,1,36,44,1150,['n'],1,right,['0'],6,264,[-0.14250917],95,44,hard,minus,dotcolour,beta,,,6,30,M,R,
192,66,24,4,1,44,36,967,['c'],1,left,['0'],6,246,[0.06187474],56,44,hard,minus,dotcolour,beta,,,6,30,M,R,
193,67,25,4,1,36,44,851,['n'],1,right,['0'],6,265,[-0.050434],46,44,hard,minus,dotcolour,beta,,,6,30,M,R,
194,68,26,4,1,44,36,749,['c'],1,left,['0'],6,199,[0.10223694],87,44,hard,minus,dotcolour,beta,,,6,30,M,R,
195,69,27,4,1,36,44,682,['n'],1,right,['0'],6,267,[-0.00792084],16,44,hard,minus,dotcolour,beta,,,6,30,M,R,
196,70,28,4,1,53,27,649,['c'],1,left,['0'],6,220,[0.10671103],88,53,easy,minus,dotcolour,beta,,,6,30,M,R,
197,71,29,4,1,33,47,816,['n'],1,right,['0'],6,314,[-0.12294513],90,47,medium,minus,dotcolour,beta,,,6,30,M,R,
198,72,30,4,1,53,27,767,['c'],1,left,['0'],6,285,[0.19051055],99,53,easy,minus,dotcolour,beta,,,6,30,M,R,
199,73,31,4,1,33,47,750,['n'],1,right,['0'],6,266,[-0.06956244],62,47,medium,minus,dotcolour,beta,,,6,30,M,R,
200,74,32,4,1,44,36,865,['n'],0,left,['0'],6,244,[-0.05861579],53,44,hard,minus,dotcolour,beta,,,6,30,M,R,
201,75,33,4,1,33,47,833,['n'],1,right,['0'],6,239,[-0.06220922],56,47,medium,minus,dotcolour,beta,,,6,30,M,R,
202,76,34,4,1,27,53,731,['n'],1,right,['0'],6,263,[-0.14235677],95,53,easy,minus,dotcolour,beta,,,6,30,M,R,
203,77,35,4,1,47,33,935,['c'],1,left,['0'],6,246,[0.2009929],99,47,medium,minus,dotcolour,beta,,,6,30,M,R,
204,78,36,4,1,36,44,1002,['c'],0,right,['0'],6,242,[0.08785641],77,44,hard,minus,dotcolour,beta,,,6,30,M,R,
205,79,37,4,1,36,44,751,['c'],0,right,['0'],6,225,[0.07124838],64,44,hard,minus,dotcolour,beta,,,6,30,M,R,
206,80,38,4,1,53,27,835,['c'],1,left,['0'],6,117,[-0.02010773],2,53,easy,minus,dotcolour,beta,,,6,30,M,R,
207,81,39,4,1,27,53,917,['n'],1,right,['0'],6,186,[-0.08067987],74,53,easy,minus,dotcolour,beta,,,6,30,M,R,
208,82,40,4,1,53,27,616,['c'],1,left,['0'],6,129,[0.14365645],99,53,easy,minus,dotcolour,beta,,,6,30,M,R,
209,83,41,4,1,27,53,699,['n'],1,right,['0'],6,247,[-0.1032901],85,53,easy,minus,dotcolour,beta,,,6,30,M,R,
210,84,0,5,1,27,53,734,['n'],1,right,['0'],6,262,[-0.14413559],96,53,easy,minus,dotcolour,beta,,,6,30,M,R,
211,85,1,5,1,53,27,666,['c'],1,left,['0'],6,176,[-0.00216325],8,53,easy,minus,dotcolour,beta,,,6,30,M,R,
212,86,2,5,1,36,44,650,['n'],1,right,['0'],6,237,[0.00394028],10,44,hard,minus,dotcolour,beta,,,6,30,M,R,
213,87,3,5,1,36,44,1033,['c'],0,right,['0'],6,241,[0.06379524],57,44,hard,minus,dotcolour,beta,,,6,30,M,R,
214,88,4,5,1,33,47,616,['n'],1,right,['0'],6,309,[-0.15241051],96,47,medium,minus,dotcolour,beta,,,6,30,M,R,
215,89,5,5,1,47,33,650,['c'],1,left,['0'],6,222,[0.06865045],62,47,medium,minus,dotcolour,beta,,,6,30,M,R,
216,90,6,5,1,27,53,1017,['n'],1,right,['0'],6,394,[-0.15895466],95,53,easy,minus,dotcolour,beta,,,6,30,M,R,
217,91,7,5,1,36,44,1184,['n'],1,right,['0'],6,273,[-0.06838167],61,44,hard,minus,dotcolour,beta,,,6,30,M,R,
218,92,8,5,1,27,53,650,['n'],1,right,['0'],6,284,[-0.19652807],99,53,easy,minus,dotcolour,beta,,,6,30,M,R,
219,93,9,5,1,44,36,483,['c'],1,left,['0'],6,300,[0.13932615],94,44,hard,minus,dotcolour,beta,,,6,30,M,R,
220,94,10,5,1,44,36,665,['c'],1,left,['0'],6,252,[0.11951171],91,44,hard,minus,dotcolour,beta,,,6,30,M,R,
221,95,11,5,1,53,27,666,['c'],1,left,['0'],6,247,[0.1018408],84,53,easy,minus,dotcolour,beta,,,6,30,M,R,
222,96,12,5,1,44,36,783,['c'],1,left,['0'],6,164,[0.07542494],71,44,hard,minus,dotcolour,beta,,,6,30,M,R,
223,97,13,5,1,33,47,750,['n'],1,right,['0'],6,206,[-0.16946292],99,47,medium,minus,dotcolour,beta,,,6,30,M,R,
224,98,14,5,1,36,44,683,['c'],0,right,['0'],6,145,[0.07841408],75,44,hard,minus,dotcolour,beta,,,6,30,M,R,
225,99,15,5,1,27,53,533,['n'],1,right,['0'],6,220,[-0.16385517],98,53,easy,minus,dotcolour,beta,,,6,30,M,R,
226,100,16,5,1,44,36,584,['n'],0,left,['3'],3,1196,[0.09145026],8,44,hard,minus,dotcolour,beta,,,6,30,M,R,
227,101,17,5,1,47,33,584,['c'],1,left,['0'],6,266,[0.07616208],67,47,medium,minus,dotcolour,beta,,,6,30,M,R,
228,102,18,5,1,47,33,851,['c'],1,left,['0'],6,228,[0.08901915],78,47,medium,minus,dotcolour,beta,,,6,30,M,R,
229,103,19,5,1,27,53,585,['n'],1,right,['0'],6,250,[-0.09141118],78,53,easy,minus,dotcolour,beta,,,6,30,M,R,
230,104,20,5,1,33,47,818,['n'],1,right,['0'],6,278,[-0.17463224],98,47,medium,minus,dotcolour,beta,,,6,30,M,R,
231,105,21,5,1,27,53,1084,['c'],0,right,['0'],6,397,[0.05408471],49,53,easy,minus,dotcolour,beta,,,6,30,M,R,
232,106,22,5,1,53,27,566,['c'],1,left,['0'],6,238,[0.08615027],76,53,easy,minus,dotcolour,beta,,,6,30,M,R,
233,107,23,5,1,33,47,1131,['c'],0,right,['0'],6,237,[0.16595353],98,47,medium,minus,dotcolour,beta,,,6,30,M,R,
234,108,24,5,1,44,36,918,['c'],1,left,['0'],6,269,[0.06532083],58,44,hard,minus,dotcolour,beta,,,6,30,M,R,
235,109,25,5,1,47,33,634,['c'],1,left,['0'],6,240,[0.06863849],62,47,medium,minus,dotcolour,beta,,,6,30,M,R,
236,110,26,5,1,33,47,951,['c'],0,right,['0'],6,239,[0.07429306],67,47,medium,minus,dotcolour,beta,,,6,30,M,R,
237,111,27,5,1,36,44,1550,['c'],0,right,['0'],6,197,[0.04118674],36,44,hard,minus,dotcolour,beta,,,6,30,M,R,
238,112,28,5,1,33,47,818,['n'],1,right,['0'],6,243,[-0.13897929],95,47,medium,minus,dotcolour,beta,,,6,30,M,R,
239,113,29,5,1,33,47,835,['n'],1,right,['0'],6,254,[-0.08998398],77,47,medium,minus,dotcolour,beta,,,6,30,M,R,
240,114,30,5,1,53,27,534,['c'],1,left,['0'],6,261,[0.11081028],88,53,easy,minus,dotcolour,beta,,,6,30,M,R,
241,115,31,5,1,36,44,1317,['c'],0,right,['0'],6,244,[0.05021973],45,44,hard,minus,dotcolour,beta,,,6,30,M,R,
242,116,32,5,1,53,27,566,['c'],1,left,['0'],6,250,[0.1312476],94,53,easy,minus,dotcolour,beta,,,6,30,M,R,
243,117,33,5,1,44,36,2070,['n'],0,left,['0'],6,275,[-0.11557359],89,44,hard,minus,dotcolour,beta,,,6,30,M,R,
244,118,34,5,1,44,36,866,['n'],0,left,['0'],6,292,[-0.04945128],45,44,hard,minus,dotcolour,beta,,,6,30,M,R,
245,119,35,5,1,47,33,917,['c'],1,left,['0'],6,257,[0.0789019],70,47,medium,minus,dotcolour,beta,,,6,30,M,R,
246,120,36,5,1,53,27,634,['c'],1,left,['0'],6,228,[0.09574365],82,53,easy,minus,dotcolour,beta,,,6,30,M,R,
247,121,37,5,1,36,44,716,['n'],1,right,['0'],6,262,[-0.07155683],64,44,hard,minus,dotcolour,beta,,,6,30,M,R,
248,122,38,5,1,47,33,1066,['c'],1,left,['0'],6,223,[0.14662913],97,47,medium,minus,dotcolour,beta,,,6,30,M,R,
249,123,39,5,1,53,27,607,['c'],1,left,['0'],6,276,[0.10549314],85,53,easy,minus,dotcolour,beta,,,6,30,M,R,
250,124,40,5,1,47,33,751,['c'],1,left,['0'],6,154,[0.0997035],88,47,medium,minus,dotcolour,beta,,,6,30,M,R,
251,125,41,5,1,27,53,884,['n'],1,right,['0'],6,343,[-0.1146218],86,53,easy,minus,dotcolour,beta,,,6,30,M,R,
252,0,0,6,2,53,27,668,['c'],1,left,['0'],6,242,[0.14663899],100,53,easy,plus,dotcolour,beta,,,6,30,M,R,
253,1,1,6,2,36,44,1402,['c'],0,right,['0'],6,287,[0.04651335],97,44,hard,plus,dotcolour,beta,,,6,30,M,R,
254,2,2,6,2,33,47,1051,['n'],1,right,['0'],6,263,[-0.07820774],99,47,medium,plus,dotcolour,beta,,,6,30,M,R,
255,3,3,6,2,36,44,884,['n'],1,right,['0'],6,272,[-0.0668297],99,44,hard,plus,dotcolour,beta,,,6,30,M,R,
256,4,4,6,2,27,53,583,['n'],1,right,['0'],6,285,[-0.05196967],97,53,easy,plus,dotcolour,beta,,,6,30,M,R,
257,5,5,6,2,33,47,665,['n'],1,right,['0'],6,278,[-0.09722443],99,47,medium,plus,dotcolour,beta,,,6,30,M,R,
258,6,6,6,2,27,53,567,['n'],1,right,['0'],6,307,[-0.16558512],100,53,easy,plus,dotcolour,beta,,,6,30,M,R,
259,7,7,6,2,44,36,717,['c'],1,left,['0'],6,272,[0.08516508],99,44,hard,plus,dotcolour,beta,,,6,30,M,R,
260,8,8,6,2,44,36,1066,['c'],1,left,['0'],6,281,[0.10109022],100,44,hard,plus,dotcolour,beta,,,6,30,M,R,
261,9,9,6,2,47,33,616,['c'],1,left,['0'],6,252,[0.07604094],99,47,medium,plus,dotcolour,beta,,,6,30,M,R,
262,10,10,6,2,27,53,734,['n'],1,right,['0'],6,252,[-0.12864228],100,53,easy,plus,dotcolour,beta,,,6,30,M,R,
263,11,11,6,2,27,53,651,['n'],1,right,['0'],6,318,[-0.06377643],98,53,easy,plus,dotcolour,beta,,,6,30,M,R,
264,12,12,6,2,53,27,650,['c'],1,left,['0'],6,303,[0.13992124],100,53,easy,plus,dotcolour,beta,,,6,30,M,R,
265,13,13,6,2,33,47,617,['n'],1,right,['0'],6,249,[-0.04539628],97,47,medium,plus,dotcolour,beta,,,6,30,M,R,
266,14,14,6,2,36,44,968,['n'],1,right,['0'],6,255,[-0.03508143],96,44,hard,plus,dotcolour,beta,,,6,30,M,R,
267,15,15,6,2,53,27,751,['c'],1,left,['0'],6,221,[0.12309697],100,53,easy,plus,dotcolour,beta,,,6,30,M,R,
268,16,16,6,2,53,27,551,['c'],1,left,['0'],6,253,[0.02941062],95,53,easy,plus,dotcolour,beta,,,6,30,M,R,
269,17,17,6,2,36,44,615,['n'],1,right,['0'],6,249,[-0.10338595],100,44,hard,plus,dotcolour,beta,,,6,30,M,R,
270,18,18,6,2,47,33,783,['c'],1,left,['0'],6,223,[0.16027496],100,47,medium,plus,dotcolour,beta,,,6,30,M,R,
271,19,19,6,2,47,33,634,['c'],1,left,['0'],6,211,[0.02781094],96,47,medium,plus,dotcolour,beta,,,6,30,M,R,
272,20,20,6,2,33,47,783,['n'],1,right,['0'],6,233,[-0.12860803],100,47,medium,plus,dotcolour,beta,,,6,30,M,R,
273,21,21,6,2,44,36,716,['c'],1,left,['0'],6,219,[0.11498724],100,44,hard,plus,dotcolour,beta,,,6,30,M,R,
274,22,22,6,2,44,36,631,['c'],1,left,['0'],6,239,[0.06868751],99,44,hard,plus,dotcolour,beta,,,6,30,M,R,
275,23,23,6,2,27,53,751,['n'],1,right,['0'],6,183,[-0.08331121],100,53,easy,plus,dotcolour,beta,,,6,30,M,R,
276,24,24,6,2,36,44,884,['n'],1,right,['0'],6,203,[-0.01646088],95,44,hard,plus,dotcolour,beta,,,6,30,M,R,
277,25,25,6,2,53,27,632,['c'],1,left,['0'],6,176,[0.13077557],100,53,easy,plus,dotcolour,beta,,,6,30,M,R,
278,26,26,6,2,33,47,634,['n'],1,right,['0'],6,214,[-0.09465579],100,47,medium,plus,dotcolour,beta,,,6,30,M,R,
279,27,27,6,2,27,53,850,['n'],1,right,['0'],6,210,[-0.11985628],100,53,easy,plus,dotcolour,beta,,,6,30,M,R,
280,28,28,6,2,47,33,700,['c'],1,left,['0'],6,196,[0.20038902],100,47,medium,plus,dotcolour,beta,,,6,30,M,R,
281,29,29,6,2,33,47,1101,['n'],1,right,['0'],6,231,[-0.10713597],100,47,medium,plus,dotcolour,beta,,,6,30,M,R,
282,30,30,6,2,53,27,699,['c'],1,left,['0'],6,224,[0.08268571],99,53,easy,plus,dotcolour,beta,,,6,30,M,R,
283,31,31,6,2,47,33,750,['c'],1,left,['0'],6,168,[0.1013313],100,47,medium,plus,dotcolour,beta,,,6,30,M,R,
284,32,32,6,2,36,44,650,['n'],1,right,['0'],6,246,[-0.19132068],100,44,hard,plus,dotcolour,beta,,,6,30,M,R,
285,33,33,6,2,44,36,848,['c'],1,left,['0'],6,121,[0.12322849],100,44,hard,plus,dotcolour,beta,,,6,30,M,R,
286,34,34,6,2,44,36,583,['c'],1,left,['0'],6,180,[0.04526442],99,44,hard,plus,dotcolour,beta,,,6,30,M,R,
287,35,35,6,2,53,27,532,['c'],1,left,['0'],6,159,[0.03976225],99,53,easy,plus,dotcolour,beta,,,6,30,M,R,
288,36,36,6,2,36,44,634,['n'],1,right,['0'],6,245,[-0.13996322],100,44,hard,plus,dotcolour,beta,,,6,30,M,R,
289,37,37,6,2,47,33,633,['c'],1,left,['0'],6,105,[0.11270073],100,47,medium,plus,dotcolour,beta,,,6,30,M,R,
290,38,38,6,2,33,47,733,['n'],1,right,['0'],6,198,[-0.14597753],100,47,medium,plus,dotcolour,beta,,,6,30,M,R,
291,39,39,6,2,47,33,600,['c'],1,left,['0'],6,214,[0.17959266],100,47,medium,plus,dotcolour,beta,,,6,30,M,R,
292,40,40,6,2,44,36,583,['c'],1,left,['0'],6,116,[0.13921463],100,44,hard,plus,dotcolour,beta,,,6,30,M,R,
293,41,41,6,2,27,53,534,['n'],1,right,['0'],6,242,[-0.09472518],100,53,easy,plus,dotcolour,beta,,,6,30,M,R,
294,42,0,7,2,53,27,650,['c'],1,left,['0'],6,195,[0.10857276],100,53,easy,plus,dotcolour,beta,,,6,30,M,R,
295,43,1,7,2,47,33,615,['c'],1,left,['0'],6,145,[0.13028878],100,47,medium,plus,dotcolour,beta,,,6,30,M,R,
296,44,2,7,2,33,47,450,['n'],1,right,['0'],6,200,[-0.0393877],98,47,medium,plus,dotcolour,beta,,,6,30,M,R,
297,45,3,7,2,36,44,1099,['n'],1,right,['0'],6,251,[-0.07332268],99,44,hard,plus,dotcolour,beta,,,6,30,M,R,
298,46,4,7,2,27,53,766,['n'],1,right,['0'],6,273,[-0.05726819],98,53,easy,plus,dotcolour,beta,,,6,30,M,R,
299,47,5,7,2,27,53,599,['n'],1,right,['0'],6,316,[-0.00309709],87,53,easy,plus,dotcolour,beta,,,6,30,M,R,
300,48,6,7,2,53,27,599,['c'],1,left,['0'],6,263,[0.07295173],99,53,easy,plus,dotcolour,beta,,,6,30,M,R,
301,49,7,7,2,44,36,633,['c'],1,left,['0'],6,258,[0.01062181],91,44,hard,plus,dotcolour,beta,,,6,30,M,R,
302,50,8,7,2,27,53,583,['n'],1,right,['0'],6,295,[-0.1180165],100,53,easy,plus,dotcolour,beta,,,6,30,M,R,
303,51,9,7,2,36,44,1167,['c'],0,right,['0'],6,226,[0.0792061],99,44,hard,plus,dotcolour,beta,,,6,30,M,R,
304,52,10,7,2,53,27,634,['c'],1,left,['0'],6,126,[0.14766498],100,53,easy,plus,dotcolour,beta,,,6,30,M,R,
305,53,11,7,2,36,44,1067,['c'],0,right,['0'],6,237,[0.02995272],96,44,hard,plus,dotcolour,beta,,,6,30,M,R,
306,54,12,7,2,44,36,966,['n'],0,left,['0'],6,252,[-0.07530515],99,44,hard,plus,dotcolour,beta,,,6,30,M,R,
307,55,13,7,2,53,27,985,['c'],1,left,['0'],6,488,[-0.02257455],70,53,easy,plus,dotcolour,beta,,,6,30,M,R,
308,56,14,7,2,44,36,984,['c'],1,left,['0'],6,259,[0.10613646],100,44,hard,plus,dotcolour,beta,,,6,30,M,R,
309,57,15,7,2,33,47,566,['n'],1,right,['0'],6,273,[-0.03978994],96,47,medium,plus,dotcolour,beta,,,6,30,M,R,
310,58,16,7,2,36,44,699,['n'],1,right,['0'],6,256,[-0.14064906],100,44,hard,plus,dotcolour,beta,,,6,30,M,R,
311,59,17,7,2,47,33,616,['c'],1,left,['0'],6,253,[0.08528001],99,47,medium,plus,dotcolour,beta,,,6,30,M,R,
312,60,18,7,2,47,33,465,['n'],0,left,['3'],3,1470,[0.04239263],55,47,medium,plus,dotcolour,beta,,,6,30,M,R,
313,61,19,7,2,53,27,683,['c'],1,left,['0'],6,237,[0.19460439],100,53,easy,plus,dotcolour,beta,,,6,30,M,R,
314,62,20,7,2,33,47,883,['n'],1,right,['0'],6,263,[-0.03891688],96,47,medium,plus,dotcolour,beta,,,6,30,M,R,
315,63,21,7,2,27,53,699,['n'],1,right,['0'],6,159,[-0.13095298],100,53,easy,plus,dotcolour,beta,,,6,30,M,R,
316,64,22,7,2,44,36,566,['c'],1,left,['0'],6,105,[0.08231439],100,44,hard,plus,dotcolour,beta,,,6,30,M,R,
317,65,23,7,2,44,36,466,['c'],1,left,['0'],6,81,[0.10410382],100,44,hard,plus,dotcolour,beta,,,6,30,M,R,
318,66,24,7,2,44,36,1051,['c'],1,left,['0'],6,139,[0.06050162],100,44,hard,plus,dotcolour,beta,,,6,30,M,R,
319,67,25,7,2,33,47,985,['n'],1,right,['0'],6,316,[-0.08948817],99,47,medium,plus,dotcolour,beta,,,6,30,M,R,
320,68,26,7,2,47,33,717,['c'],1,left,['0'],6,273,[0.07406757],99,47,medium,plus,dotcolour,beta,,,6,30,M,R,
321,69,27,7,2,36,44,866,['n'],1,right,['0'],6,210,[-0.14870477],100,44,hard,plus,dotcolour,beta,,,6,30,M,R,
322,70,28,7,2,47,33,850,['c'],1,left,['0'],6,190,[0.06242074],99,47,medium,plus,dotcolour,beta,,,6,30,M,R,
323,71,29,7,2,33,47,634,['n'],1,right,['0'],6,268,[-0.06771066],99,47,medium,plus,dotcolour,beta,,,6,30,M,R,
324,72,30,7,2,27,53,649,['n'],1,right,['0'],6,318,[-0.10336569],99,53,easy,plus,dotcolour,beta,,,6,30,M,R,
325,73,31,7,2,36,44,682,['n'],1,right,['0'],6,252,[-0.17827152],100,44,hard,plus,dotcolour,beta,,,6,30,M,R,
326,74,32,7,2,36,44,1117,['n'],1,right,['0'],6,363,[-0.00150168],85,44,hard,plus,dotcolour,beta,,,6,30,M,R,
327,75,33,7,2,27,53,667,['n'],1,right,['0'],6,208,[-0.08428012],100,53,easy,plus,dotcolour,beta,,,6,30,M,R,
328,76,34,7,2,53,27,549,['c'],1,left,['0'],6,153,[0.10515097],100,53,easy,plus,dotcolour,beta,,,6,30,M,R,
329,77,35,7,2,47,33,632,['c'],1,left,['0'],6,289,[0.1520874],100,47,medium,plus,dotcolour,beta,,,6,30,M,R,
330,78,36,7,2,33,47,551,['n'],1,right,['0'],6,165,[-0.03890169],99,47,medium,plus,dotcolour,beta,,,6,30,M,R,
331,79,37,7,2,53,27,484,['c'],1,left,['0'],6,162,[0.14765964],100,53,easy,plus,dotcolour,beta,,,6,30,M,R,
332,80,38,7,2,27,53,498,['n'],1,right,['0'],6,199,[-0.15668009],100,53,easy,plus,dotcolour,beta,,,6,30,M,R,
333,81,39,7,2,44,36,765,['c'],1,left,['0'],6,95,[0.07646258],100,44,hard,plus,dotcolour,beta,,,6,30,M,R,
334,82,40,7,2,33,47,516,['n'],1,right,['0'],6,149,[-0.0840936],100,47,medium,plus,dotcolour,beta,,,6,30,M,R,
335,83,41,7,2,47,33,567,['c'],1,left,['0'],6,72,[0.11771791],100,47,medium,plus,dotcolour,beta,,,6,30,M,R,
336,84,0,8,2,36,44,684,['n'],1,right,['0'],6,144,[-0.08092215],100,44,hard,plus,dotcolour,beta,,,6,30,M,R,
337,85,1,8,2,47,33,632,['c'],1,left,['0'],6,208,[0.16043665],100,47,medium,plus,dotcolour,beta,,,6,30,M,R,
338,86,2,8,2,44,36,684,['c'],1,left,['0'],6,187,[0.04706568],99,44,hard,plus,dotcolour,beta,,,6,30,M,R,
339,87,3,8,2,44,36,599,['c'],1,left,['0'],6,146,[0.05014385],99,44,hard,plus,dotcolour,beta,,,6,30,M,R,
340,88,4,8,2,44,36,668,['c'],1,left,['0'],6,113,[0.02452293],99,44,hard,plus,dotcolour,beta,,,6,30,M,R,
341,89,5,8,2,44,36,516,['c'],1,left,['0'],6,190,[0.08529035],100,44,hard,plus,dotcolour,beta,,,6,30,M,R,
342,90,6,8,2,33,47,648,['n'],1,right,['0'],6,180,[-0.05703669],99,47,medium,plus,dotcolour,beta,,,6,30,M,R,
343,91,7,8,2,47,33,598,['c'],1,left,['0'],6,244,[0.1261448],100,47,medium,plus,dotcolour,beta,,,6,30,M,R,
344,92,8,8,2,33,47,750,['n'],1,right,['0'],6,187,[-0.00671585],93,47,medium,plus,dotcolour,beta,,,6,30,M,R,
345,93,9,8,2,53,27,534,['c'],1,left,['0'],6,260,[0.09060184],99,53,easy,plus,dotcolour,beta,,,6,30,M,R,
346,94,10,8,2,33,47,785,['n'],1,right,['0'],6,153,[-0.02717516],98,47,medium,plus,dotcolour,beta,,,6,30,M,R,
347,95,11,8,2,33,47,1501,['n'],1,right,['0'],6,173,[-0.093942],100,47,medium,plus,dotcolour,beta,,,6,30,M,R,
348,96,12,8,2,27,53,800,['c'],0,right,['0'],6,149,[-0.02266358],82,53,easy,plus,dotcolour,beta,,,6,30,M,R,
349,97,13,8,2,53,27,1132,['c'],1,left,['0'],6,216,[0.12246036],100,53,easy,plus,dotcolour,beta,,,6,30,M,R,
350,98,14,8,2,36,44,600,['n'],1,right,['0'],6,166,[-0.14866536],100,44,hard,plus,dotcolour,beta,,,6,30,M,R,
351,99,15,8,2,27,53,633,['n'],1,right,['0'],6,181,[-0.16133017],100,53,easy,plus,dotcolour,beta,,,6,30,M,R,
352,100,16,8,2,53,27,583,['c'],1,left,['0'],6,173,[0.12848926],100,53,easy,plus,dotcolour,beta,,,6,30,M,R,
353,101,17,8,2,36,44,1134,['c'],0,right,['0'],6,135,[0.10296978],100,44,hard,plus,dotcolour,beta,,,6,30,M,R,
354,102,18,8,2,53,27,716,['c'],1,left,['0'],6,155,[0.13951788],100,53,easy,plus,dotcolour,beta,,,6,30,M,R,
355,103,19,8,2,36,44,1000,['n'],1,right,['0'],6,171,[-0.09344908],100,44,hard,plus,dotcolour,beta,,,6,30,M,R,
356,104,20,8,2,36,44,783,['n'],1,right,['0'],6,180,[-0.00941574],94,44,hard,plus,dotcolour,beta,,,6,30,M,R,
357,105,21,8,2,27,53,700,['n'],1,right,['0'],6,183,[-0.12071485],100,53,easy,plus,dotcolour,beta,,,6,30,M,R,
358,106,22,8,2,27,53,533,['n'],1,right,['0'],6,185,[-0.06735253],99,53,easy,plus,dotcolour,beta,,,6,30,M,R,
359,107,23,8,2,53,27,449,['c'],1,left,['0'],6,319,[0.21996011],100,53,easy,plus,dotcolour,beta,,,6,30,M,R,
360,108,24,8,2,47,33,783,['c'],1,left,['0'],6,265,[0.11226582],100,47,medium,plus,dotcolour,beta,,,6,30,M,R,
361,109,25,8,2,44,36,698,['c'],1,left,['0'],6,145,[0.10603815],100,44,hard,plus,dotcolour,beta,,,6,30,M,R,
362,110,26,8,2,47,33,500,['c'],1,left,['0'],6,206,[0.12427548],100,47,medium,plus,dotcolour,beta,,,6,30,M,R,
363,111,27,8,2,44,36,801,['c'],1,left,['0'],6,133,[0.07624502],100,44,hard,plus,dotcolour,beta,,,6,30,M,R,
364,112,28,8,2,36,44,717,['n'],1,right,['0'],6,146,[-0.05525896],99,44,hard,plus,dotcolour,beta,,,6,30,M,R,
365,113,29,8,2,53,27,616,['c'],1,left,['0'],6,130,[0.06507091],100,53,easy,plus,dotcolour,beta,,,6,30,M,R,
366,114,30,8,2,47,33,549,['c'],1,left,['0'],6,95,[0.08656164],100,47,medium,plus,dotcolour,beta,,,6,30,M,R,
367,115,31,8,2,27,53,566,['n'],1,right,['0'],6,139,[-0.11326622],100,53,easy,plus,dotcolour,beta,,,6,30,M,R,
368,116,32,8,2,53,27,500,['c'],1,left,['0'],6,120,[0.05302326],100,53,easy,plus,dotcolour,beta,,,6,30,M,R,
369,117,33,8,2,36,44,983,['c'],0,right,['0'],6,178,[0.06794223],99,44,hard,plus,dotcolour,beta,,,6,30,M,R,
370,118,34,8,2,33,47,683,['n'],1,right,['0'],6,134,[-0.06060255],100,47,medium,plus,dotcolour,beta,,,6,30,M,R,
371,119,35,8,2,27,53,598,['n'],1,right,['0'],6,271,[-0.04250113],97,53,easy,plus,dotcolour,beta,,,6,30,M,R,
372,120,36,8,2,33,47,585,['n'],1,right,['0'],6,197,[-0.12626448],100,47,medium,plus,dotcolour,beta,,,6,30,M,R,
373,121,37,8,2,47,33,601,['c'],1,left,['0'],6,156,[0.11669301],100,47,medium,plus,dotcolour,beta,,,6,30,M,R,
374,122,38,8,2,33,47,684,['n'],1,right,['0'],6,129,[-0.06281098],100,47,medium,plus,dotcolour,beta,,,6,30,M,R,
375,123,39,8,2,47,33,868,['c'],1,left,['0'],6,160,[0.06328424],100,47,medium,plus,dotcolour,beta,,,6,30,M,R,
376,124,40,8,2,44,36,784,['c'],1,left,['0'],6,240,[0.11266038],100,44,hard,plus,dotcolour,beta,,,6,30,M,R,
377,125,41,8,2,27,53,483,['n'],1,right,['0'],6,154,[-0.16559421],100,53,easy,plus,dotcolour,beta,,,6,30,M,R,
378,0,0,9,3,53,27,651,['c'],1,left,['0'],6,182,[0.12091008],94,53,easy,minus,dotcolour,beta,,,6,30,M,R,
379,1,1,9,3,36,44,583,['c'],0,right,['0'],6,214,[0.04185582],37,44,hard,minus,dotcolour,beta,,,6,30,M,R,
380,2,2,9,3,44,36,734,['c'],1,left,['0'],6,119,[0.10898503],94,44,hard,minus,dotcolour,beta,,,6,30,M,R,
381,3,3,9,3,44,36,633,['c'],1,left,['0'],6,80,[0.11384035],98,44,hard,minus,dotcolour,beta,,,6,30,M,R,
382,4,4,9,3,27,53,450,['n'],1,right,['0'],6,162,[-0.06021927],55,53,easy,minus,dotcolour,beta,,,6,30,M,R,
383,5,5,9,3,53,27,517,['c'],1,left,['0'],6,78,[0.09943999],94,53,easy,minus,dotcolour,beta,,,6,30,M,R,
384,6,6,9,3,36,44,717,['c'],0,right,['0'],6,61,[0.09128962],93,44,hard,minus,dotcolour,beta,,,6,30,M,R,
385,7,7,9,3,27,53,668,['n'],1,right,['0'],6,142,[-0.03812433],30,53,easy,minus,dotcolour,beta,,,6,30,M,R,
386,8,8,9,3,33,47,666,['c'],0,right,['0'],6,92,[0.05265348],46,47,medium,minus,dotcolour,beta,,,6,30,M,R,
387,9,9,9,3,53,27,784,['c'],1,left,['0'],6,48,[0.09261246],95,53,easy,minus,dotcolour,beta,,,6,30,M,R,
388,10,10,9,3,33,47,633,['n'],1,right,['0'],6,116,[-0.05443134],49,47,medium,minus,dotcolour,beta,,,6,30,M,R,
389,11,11,9,3,27,53,767,['c'],0,right,['0'],6,112,[0.07713841],76,53,easy,minus,dotcolour,beta,,,6,30,M,R,
390,12,12,9,3,36,44,831,['n'],1,right,['0'],6,120,[-0.05667732],51,44,hard,minus,dotcolour,beta,,,6,30,M,R,
391,13,13,9,3,27,53,1001,['n'],1,right,['0'],6,474,[-0.22255984],99,53,easy,minus,dotcolour,beta,,,6,30,M,R,
392,14,14,9,3,33,47,549,['n'],1,right,['0'],6,239,[-0.02928583],28,47,medium,minus,dotcolour,beta,,,6,30,M,R,
393,15,15,9,3,47,33,849,['c'],1,left,['0'],6,211,[0.04864132],43,47,medium,minus,dotcolour,beta,,,6,30,M,R,
394,16,16,9,3,47,33,817,['c'],1,left,['0'],6,161,[0.11373042],93,47,medium,minus,dotcolour,beta,,,6,30,M,R,
395,17,17,9,3,33,47,483,['n'],1,right,['0'],6,205,[-0.09954042],85,47,medium,minus,dotcolour,beta,,,6,30,M,R,
396,18,18,9,3,33,47,1000,['n'],1,right,['0'],6,212,[-0.14260243],97,47,medium,minus,dotcolour,beta,,,6,30,M,R,
397,19,19,9,3,53,27,851,['c'],1,left,['0'],6,193,[0.07830708],72,53,easy,minus,dotcolour,beta,,,6,30,M,R,
398,20,20,9,3,36,44,750,['c'],0,right,['0'],6,217,[0.14238008],97,44,hard,minus,dotcolour,beta,,,6,30,M,R,
399,21,21,9,3,47,33,967,['c'],1,left,['0'],6,336,[0.07897325],67,47,medium,minus,dotcolour,beta,,,6,30,M,R,
400,22,22,9,3,27,53,565,['n'],1,right,['0'],6,187,[-0.02678432],23,53,easy,minus,dotcolour,beta,,,6,30,M,R,
401,23,23,9,3,44,36,866,['c'],1,left,['0'],6,664,[0.08136102],64,44,hard,minus,dotcolour,beta,,,6,30,M,R,
402,24,24,9,3,36,44,934,['n'],1,right,['0'],6,222,[-0.08713189],77,44,hard,minus,dotcolour,beta,,,6,30,M,R,
403,25,25,9,3,36,44,1152,['n'],1,right,['0'],6,309,[-0.04097163],38,44,hard,minus,dotcolour,beta,,,6,30,M,R,
404,26,26,9,3,27,53,881,['n'],1,right,['0'],6,172,[-0.16263727],99,53,easy,minus,dotcolour,beta,,,6,30,M,R,
405,27,27,9,3,36,44,916,['n'],1,right,['0'],6,207,[-0.0571283],52,44,hard,minus,dotcolour,beta,,,6,30,M,R,
406,28,28,9,3,33,47,1132,['n'],1,right,['0'],6,167,[-0.13475523],97,47,medium,minus,dotcolour,beta,,,6,30,M,R,
407,29,29,9,3,53,27,767,['c'],1,left,['0'],6,128,[0.11302962],95,53,easy,minus,dotcolour,beta,,,6,30,M,R,
408,30,30,9,3,47,33,716,['c'],1,left,['0'],6,205,[0.14232524],97,47,medium,minus,dotcolour,beta,,,6,30,M,R,
409,31,31,9,3,44,36,1083,['c'],1,left,['0'],6,88,[0.04634489],36,44,hard,minus,dotcolour,beta,,,6,30,M,R,
410,32,32,9,3,47,33,583,['c'],1,left,['0'],6,108,[0.06675016],65,47,medium,minus,dotcolour,beta,,,6,30,M,R,
411,33,33,9,3,44,36,900,['c'],1,left,['0'],6,106,[0.0902994],87,44,hard,minus,dotcolour,beta,,,6,30,M,R,
412,34,34,9,3,53,27,715,['c'],1,left,['0'],6,97,[0.09736102],92,53,easy,minus,dotcolour,beta,,,6,30,M,R,
413,35,35,9,3,44,36,1017,['c'],1,left,['0'],6,162,[0.08070782],75,44,hard,minus,dotcolour,beta,,,6,30,M,R,
414,36,36,9,3,33,47,666,['n'],1,right,['0'],6,192,[-0.11360035],92,47,medium,minus,dotcolour,beta,,,6,30,M,R,
415,37,37,9,3,44,36,582,['n'],0,left,['0'],6,193,[-0.02517321],22,44,hard,minus,dotcolour,beta,,,6,30,M,R,
416,38,38,9,3,47,33,950,['c'],1,left,['0'],6,224,[0.09613698],82,47,medium,minus,dotcolour,beta,,,6,30,M,R,
417,39,39,9,3,53,27,582,['c'],1,left,['0'],6,110,[0.10574139],94,53,easy,minus,dotcolour,beta,,,6,30,M,R,
418,40,40,9,3,27,53,500,['n'],1,right,['0'],6,189,[-0.06725371],62,53,easy,minus,dotcolour,beta,,,6,30,M,R,
419,41,41,9,3,47,33,532,['c'],1,left,['0'],6,95,[0.10878481],96,47,medium,minus,dotcolour,beta,,,6,30,M,R,
420,42,0,10,3,33,47,534,['n'],1,right,['0'],6,183,[-0.1900148],100,47,medium,minus,dotcolour,beta,,,6,30,M,R,
421,43,1,10,3,47,33,749,['c'],1,left,['0'],6,160,[0.16376478],99,47,medium,minus,dotcolour,beta,,,6,30,M,R,
422,44,2,10,3,27,53,684,['n'],1,right,['0'],6,173,[-0.05018371],44,53,easy,minus,dotcolour,beta,,,6,30,M,R,
423,45,3,10,3,53,27,851,['c'],1,left,['0'],6,306,[0.10550631],84,53,easy,minus,dotcolour,beta,,,6,30,M,R,
424,46,4,10,3,33,47,499,['n'],1,right,['0'],6,192,[-0.05588706],50,47,medium,minus,dotcolour,beta,,,6,30,M,R,
425,47,5,10,3,44,36,651,['c'],1,left,['0'],6,133,[0.07794523],75,44,hard,minus,dotcolour,beta,,,6,30,M,R,
426,48,6,10,3,44,36,783,['c'],1,left,['0'],6,112,[0.04877009],41,44,hard,minus,dotcolour,beta,,,6,30,M,R,
427,49,7,10,3,36,44,834,['n'],1,right,['0'],6,24,[-0.07026788],85,44,hard,minus,dotcolour,beta,,,6,30,M,R,
428,50,8,10,3,47,33,800,['c'],1,left,['0'],6,151,[0.13745989],98,47,medium,minus,dotcolour,beta,,,6,30,M,R,
429,51,9,10,3,36,44,616,['n'],1,right,['0'],6,127,[-0.0351232],26,44,hard,minus,dotcolour,beta,,,6,30,M,R,
430,52,10,10,3,47,33,1150,['c'],1,left,['0'],6,90,[0.08158544],83,47,medium,minus,dotcolour,beta,,,6,30,M,R,
431,53,11,10,3,53,27,733,['c'],1,left,['0'],6,104,[0.14141088],99,53,easy,minus,dotcolour,beta,,,6,30,M,R,
432,54,12,10,3,44,36,1200,['c'],1,left,['0'],6,122,[0.01188389],10,44,hard,minus,dotcolour,beta,,,6,30,M,R,
433,55,13,10,3,36,44,734,['n'],1,right,['0'],6,367,[-0.04533616],42,44,hard,minus,dotcolour,beta,,,6,30,M,R,
434,56,14,10,3,53,27,598,['c'],1,left,['0'],6,208,[0.06278698],57,53,easy,minus,dotcolour,beta,,,6,30,M,R,
435,57,15,10,3,33,47,700,['n'],1,right,['0'],6,194,[-0.09110093],81,47,medium,minus,dotcolour,beta,,,6,30,M,R,
436,58,16,10,3,33,47,651,['n'],1,right,['0'],6,159,[-0.12817565],96,47,medium,minus,dotcolour,beta,,,6,30,M,R,
437,59,17,10,3,36,44,668,['n'],1,right,['0'],6,212,[-0.09794884],84,44,hard,minus,dotcolour,beta,,,6,30,M,R,
438,60,18,10,3,27,53,568,['n'],1,right,['0'],6,188,[0.00681369],7,53,easy,minus,dotcolour,beta,,,6,30,M,R,
439,61,19,10,3,33,47,568,['n'],1,right,['0'],6,197,[-0.02241695],21,47,medium,minus,dotcolour,beta,,,6,30,M,R,
440,62,20,10,3,44,36,635,['n'],0,left,['0'],6,122,[-0.06761327],65,44,hard,minus,dotcolour,beta,,,6,30,M,R,
441,63,21,10,3,53,27,951,['c'],1,left,['0'],6,102,[0.11011175],96,53,easy,minus,dotcolour,beta,,,6,30,M,R,
442,64,22,10,3,27,53,568,['n'],1,right,['0'],6,122,[-0.08340968],81,53,easy,minus,dotcolour,beta,,,6,30,M,R,
443,65,23,10,3,33,47,767,['n'],1,right,['0'],6,229,[-0.07079533],64,47,medium,minus,dotcolour,beta,,,6,30,M,R,
444,66,24,10,3,44,36,817,['n'],0,left,['0'],6,138,[7.77329626e-05],6,44,hard,minus,dotcolour,beta,,,6,30,M,R,
445,67,25,10,3,33,47,667,['n'],1,right,['0'],6,177,[-0.09048783],82,47,medium,minus,dotcolour,beta,,,6,30,M,R,
446,68,26,10,3,47,33,717,['c'],1,left,['3'],3,12,[0.05563533],50,47,medium,minus,dotcolour,beta,,,6,30,M,R,
447,69,27,10,3,44,36,834,['c'],1,left,['0'],6,408,[0.14975524],93,44,hard,minus,dotcolour,beta,,,6,30,M,R,
448,70,28,10,3,36,44,633,['n'],1,right,['0'],6,173,[-0.03365292],28,44,hard,minus,dotcolour,beta,,,6,30,M,R,
449,71,29,10,3,53,27,617,['c'],1,left,['0'],6,84,[0.0994021],94,53,easy,minus,dotcolour,beta,,,6,30,M,R,
450,72,30,10,3,53,27,718,['c'],1,left,['0'],6,148,[0.07830718],74,53,easy,minus,dotcolour,beta,,,6,30,M,R,
451,73,31,10,3,47,33,1167,['n'],0,left,['0'],6,605,[-0.00794814],25,47,medium,minus,dotcolour,beta,,,6,30,M,R,
452,74,32,10,3,44,36,883,['n'],0,left,['0'],6,336,[0.01129636],11,44,hard,minus,dotcolour,beta,,,6,30,M,R,
453,75,33,10,3,27,53,684,['n'],1,right,['0'],6,181,[-0.07293871],68,53,easy,minus,dotcolour,beta,,,6,30,M,R,
454,76,34,10,3,53,27,632,['c'],1,left,['0'],6,139,[0.00052978],7,53,easy,minus,dotcolour,beta,,,6,30,M,R,
455,77,35,10,3,27,53,466,['n'],1,right,['0'],6,106,[-0.082226],81,53,easy,minus,dotcolour,beta,,,6,30,M,R,
456,78,36,10,3,27,53,583,['n'],1,right,['0'],6,174,[-0.1335311],97,53,easy,minus,dotcolour,beta,,,6,30,M,R,
457,79,37,10,3,27,53,1000,['n'],1,right,['0'],6,157,[-0.13193385],97,53,easy,minus,dotcolour,beta,,,6,30,M,R,
458,80,38,10,3,36,44,1049,['n'],1,right,['0'],6,180,[-0.13458419],97,44,hard,minus,dotcolour,beta,,,6,30,M,R,
459,81,39,10,3,36,44,916,['n'],1,right,['0'],6,135,[-0.08601484],82,44,hard,minus,dotcolour,beta,,,6,30,M,R,
460,82,40,10,3,47,33,717,['c'],1,left,['0'],6,156,[0.01941761],16,47,medium,minus,dotcolour,beta,,,6,30,M,R,
461,83,41,10,3,47,33,833,['c'],1,left,['0'],6,187,[0.05543295],50,47,medium,minus,dotcolour,beta,,,6,30,M,R,
462,84,0,11,3,53,27,668,['c'],1,left,['0'],6,199,[0.06220151],57,53,easy,minus,dotcolour,beta,,,6,30,M,R,
463,85,1,11,3,47,33,599,['c'],1,left,['0'],6,158,[0.08836588],82,47,medium,minus,dotcolour,beta,,,6,30,M,R,
464,86,2,11,3,36,44,633,['n'],1,right,['0'],6,125,[-0.02998548],21,44,hard,minus,dotcolour,beta,,,6,30,M,R,
465,87,3,11,3,33,47,683,['n'],1,right,['0'],6,124,[-0.06955046],67,47,medium,minus,dotcolour,beta,,,6,30,M,R,
466,88,4,11,3,47,33,617,['c'],1,left,['0'],6,133,[0.08873899],84,47,medium,minus,dotcolour,beta,,,6,30,M,R,
467,89,5,11,3,53,27,916,['c'],1,left,['0'],6,129,[0.029364],21,53,easy,minus,dotcolour,beta,,,6,30,M,R,
468,90,6,11,3,44,36,749,['c'],1,left,['0'],6,149,[0.1222626],96,44,hard,minus,dotcolour,beta,,,6,30,M,R,
469,91,7,11,3,53,27,550,['c'],1,left,['0'],6,160,[0.08075933],76,53,easy,minus,dotcolour,beta,,,6,30,M,R,
470,92,8,11,3,33,47,649,['n'],1,right,['0'],6,134,[-0.16706462],100,47,medium,minus,dotcolour,beta,,,6,30,M,R,
471,93,9,11,3,33,47,650,['n'],1,right,['0'],6,158,[-0.14561298],98,47,medium,minus,dotcolour,beta,,,6,30,M,R,
472,94,10,11,3,47,33,566,['c'],1,left,['0'],6,160,[0.05659128],51,47,medium,minus,dotcolour,beta,,,6,30,M,R,
473,95,11,11,3,33,47,1050,['n'],1,right,['0'],6,222,[-0.09436502],81,47,medium,minus,dotcolour,beta,,,6,30,M,R,
474,96,12,11,3,33,47,682,['n'],1,right,['0'],6,248,[-0.14063901],96,47,medium,minus,dotcolour,beta,,,6,30,M,R,
475,97,13,11,3,27,53,500,['n'],1,right,['0'],6,177,[-0.149156],98,53,easy,minus,dotcolour,beta,,,6,30,M,R,
476,98,14,11,3,27,53,450,['n'],1,right,['0'],6,271,[-0.08834497],76,53,easy,minus,dotcolour,beta,,,6,30,M,R,
477,99,15,11,3,27,53,614,['n'],1,right,['0'],6,178,[-0.07174641],67,53,easy,minus,dotcolour,beta,,,6,30,M,R,
478,100,16,11,3,27,53,483,['n'],1,right,['0'],6,183,[-0.1403853],97,53,easy,minus,dotcolour,beta,,,6,30,M,R,
479,101,17,11,3,36,44,466,['n'],1,right,['0'],6,196,[-0.08649588],78,44,hard,minus,dotcolour,beta,,,6,30,M,R,
480,102,18,11,3,53,27,683,['c'],1,left,['0'],6,184,[0.05919536],54,53,easy,minus,dotcolour,beta,,,6,30,M,R,
481,103,19,11,3,27,53,598,['n'],1,right,['0'],6,151,[-0.10157703],89,53,easy,minus,dotcolour,beta,,,6,30,M,R,
482,104,20,11,3,47,33,785,['c'],1,left,['0'],6,128,[0.11713903],96,47,medium,minus,dotcolour,beta,,,6,30,M,R,
483,105,21,11,3,27,53,518,['n'],1,right,['0'],6,197,[-0.14528617],97,53,easy,minus,dotcolour,beta,,,6,30,M,R,
484,106,22,11,3,47,33,600,['c'],1,left,['0'],6,109,[0.04468225],36,47,medium,minus,dotcolour,beta,,,6,30,M,R,
485,107,23,11,3,44,36,716,['c'],1,left,['0'],6,106,[0.13147382],99,44,hard,minus,dotcolour,beta,,,6,30,M,R,
486,108,24,11,3,53,27,531,['c'],1,left,['0'],6,151,[0.10255889],90,53,easy,minus,dotcolour,beta,,,6,30,M,R,
487,109,25,11,3,27,53,500,['n'],1,right,['0'],6,108,[-0.02356881],15,53,easy,minus,dotcolour,beta,,,6,30,M,R,
488,110,26,11,3,36,44,731,['n'],1,right,['0'],6,105,[-0.12383303],98,44,hard,minus,dotcolour,beta,,,6,30,M,R,
489,111,27,11,3,44,36,649,['c'],1,left,['0'],6,146,[0.02739249],21,44,hard,minus,dotcolour,beta,,,6,30,M,R,
490,112,28,11,3,53,27,600,['c'],1,left,['0'],6,139,[0.06684749],63,53,easy,minus,dotcolour,beta,,,6,30,M,R,
491,113,29,11,3,44,36,517,['c'],1,left,['0'],6,111,[0.06197785],59,44,hard,minus,dotcolour,beta,,,6,30,M,R,
492,114,30,11,3,47,33,1050,['c'],1,left,['0'],6,175,[0.03804797],32,47,medium,minus,dotcolour,beta,,,6,30,M,R,
493,115,31,11,3,36,44,515,['n'],1,right,['0'],6,186,[-0.09816025],86,44,hard,minus,dotcolour,beta,,,6,30,M,R,
494,116,32,11,3,44,36,635,['c'],1,left,['0'],6,152,[0.09796823],88,44,hard,minus,dotcolour,beta,,,6,30,M,R,
495,117,33,11,3,44,36,768,['n'],0,left,['0'],6,146,[-0.06911349],65,44,hard,minus,dotcolour,beta,,,6,30,M,R,
496,118,34,11,3,44,36,1098,['n'],0,left,['0'],6,151,[-0.05859559],54,44,hard,minus,dotcolour,beta,,,6,30,M,R,
497,119,35,11,3,33,47,583,['c'],0,right,['3'],3,905,[0.06590481],55,47,medium,minus,dotcolour,beta,,,6,30,M,R,
498,120,36,11,3,36,44,1218,['n'],1,right,['0'],6,210,[-0.0030955],11,44,hard,minus,dotcolour,beta,,,6,30,M,R,
499,121,37,11,3,53,27,648,['c'],1,left,['0'],6,157,[0.09309637],85,53,easy,minus,dotcolour,beta,,,6,30,M,R,
500,122,38,11,3,47,33,817,['c'],1,left,['0'],6,413,[0.10216527],79,47,medium,minus,dotcolour,beta,,,6,30,M,R,
501,123,39,11,3,36,44,500,['n'],1,right,['0'],6,208,[-0.03135939],28,44,hard,minus,dotcolour,beta,,,6,30,M,R,
502,124,40,11,3,33,47,599,['n'],1,right,['0'],6,182,[-0.07167282],66,47,medium,minus,dotcolour,beta,,,6,30,M,R,
503,125,41,11,3,36,44,667,['n'],1,right,['0'],6,171,[-0.09909373],87,44,hard,minus,dotcolour,beta,,,6,30,M,R,
504,0,0,12,4,33,47,501,['n'],1,right,['0'],6,175,[-0.11306388],100,47,medium,plus,dotcolour,beta,,,6,30,M,R,
505,1,1,12,4,53,27,734,['c'],1,left,['0'],6,160,[0.10260576],100,53,easy,plus,dotcolour,beta,,,6,30,M,R,
506,2,2,12,4,36,44,734,['n'],1,right,['0'],6,163,[-0.05734068],99,44,hard,plus,dotcolour,beta,,,6,30,M,R,
507,3,3,12,4,44,36,949,['n'],0,left,['0'],6,221,[-0.11503428],100,44,hard,plus,dotcolour,beta,,,6,30,M,R,
508,4,4,12,4,27,53,582,['n'],1,right,['0'],6,188,[-0.08295969],100,53,easy,plus,dotcolour,beta,,,6,30,M,R,
509,5,5,12,4,47,33,650,['c'],1,left,['0'],6,225,[0.09660203],100,47,medium,plus,dotcolour,beta,,,6,30,M,R,
510,6,6,12,4,44,36,616,['c'],1,left,['0'],6,166,[0.04586436],99,44,hard,plus,dotcolour,beta,,,6,30,M,R,
511,7,7,12,4,53,27,550,['c'],1,left,['0'],6,136,[0.06333096],100,53,easy,plus,dotcolour,beta,,,6,30,M,R,
512,8,8,12,4,47,33,583,['c'],1,left,['0'],6,155,[0.01269384],96,47,medium,plus,dotcolour,beta,,,6,30,M,R,
513,9,9,12,4,36,44,634,['n'],1,right,['0'],6,186,[-0.1094434],100,44,hard,plus,dotcolour,beta,,,6,30,M,R,
514,10,10,12,4,36,44,782,['n'],1,right,['0'],6,202,[-0.06354438],99,44,hard,plus,dotcolour,beta,,,6,30,M,R,
515,11,11,12,4,47,33,601,['c'],1,left,['0'],6,209,[0.08794362],100,47,medium,plus,dotcolour,beta,,,6,30,M,R,
516,12,12,12,4,27,53,1183,['n'],1,right,['0'],6,335,[-0.19104028],100,53,easy,plus,dotcolour,beta,,,6,30,M,R,
517,13,13,12,4,33,47,584,['n'],1,right,['0'],6,218,[-0.02965062],96,47,medium,plus,dotcolour,beta,,,6,30,M,R,
518,14,14,12,4,33,47,617,['n'],1,right,['0'],6,175,[-0.14960128],100,47,medium,plus,dotcolour,beta,,,6,30,M,R,
519,15,15,12,4,33,47,600,['n'],1,right,['0'],6,191,[-0.02398168],96,47,medium,plus,dotcolour,beta,,,6,30,M,R,
520,16,16,12,4,53,27,717,['c'],1,left,['0'],6,145,[0.06640812],100,53,easy,plus,dotcolour,beta,,,6,30,M,R,
521,17,17,12,4,36,44,516,['n'],1,right,['0'],6,174,[-0.0677342],100,44,hard,plus,dotcolour,beta,,,6,30,M,R,
522,18,18,12,4,33,47,633,['n'],1,right,['0'],6,148,[-0.08551516],100,47,medium,plus,dotcolour,beta,,,6,30,M,R,
523,19,19,12,4,27,53,567,['n'],1,right,['0'],6,158,[-0.13854093],100,53,easy,plus,dotcolour,beta,,,6,30,M,R,
524,20,20,12,4,27,53,466,['n'],1,right,['0'],6,180,[-0.08961936],100,53,easy,plus,dotcolour,beta,,,6,30,M,R,
525,21,21,12,4,47,33,516,['n'],0,left,['0'],6,207,[-0.00374558],91,47,medium,plus,dotcolour,beta,,,6,30,M,R,
526,22,22,12,4,53,27,583,['c'],1,left,['0'],6,174,[0.08013628],100,53,easy,plus,dotcolour,beta,,,6,30,M,R,
527,23,23,12,4,44,36,816,['c'],1,left,['0'],6,85,[0.0834666],100,44,hard,plus,dotcolour,beta,,,6,30,M,R,
528,24,24,12,4,47,33,567,['n'],0,left,['0'],6,114,[-0.01460266],98,47,medium,plus,dotcolour,beta,,,6,30,M,R,
529,25,25,12,4,53,27,834,['n'],0,left,['3'],3,787,[0.19206871],6,53,easy,plus,dotcolour,beta,,,6,30,M,R,
530,26,26,12,4,27,53,568,['n'],1,right,['0'],6,347,[-0.1714375],100,53,easy,plus,dotcolour,beta,,,6,30,M,R,
531,27,27,12,4,47,33,615,['c'],1,left,['0'],6,131,[0.09920178],100,47,medium,plus,dotcolour,beta,,,6,30,M,R,
532,28,28,12,4,33,47,817,['n'],1,right,['0'],6,211,[-0.1848622],100,47,medium,plus,dotcolour,beta,,,6,30,M,R,
533,29,29,12,4,44,36,765,['c'],1,left,['0'],6,163,[0.13981501],100,44,hard,plus,dotcolour,beta,,,6,30,M,R,
534,30,30,12,4,36,44,582,['n'],1,right,['0'],6,244,[-0.07073105],99,44,hard,plus,dotcolour,beta,,,6,30,M,R,
535,31,31,12,4,44,36,916,['c'],1,left,['0'],6,172,[0.08745087],100,44,hard,plus,dotcolour,beta,,,6,30,M,R,
536,32,32,12,4,27,53,498,['n'],1,right,['0'],6,184,[-0.10742731],100,53,easy,plus,dotcolour,beta,,,6,30,M,R,
537,33,33,12,4,47,33,533,['c'],1,left,['0'],6,139,[0.0640549],100,47,medium,plus,dotcolour,beta,,,6,30,M,R,
538,34,34,12,4,36,44,983,['c'],0,right,['0'],6,148,[-0.01989685],84,44,hard,plus,dotcolour,beta,,,6,30,M,R,
539,35,35,12,4,44,36,765,['n'],0,left,['0'],6,150,[-0.10871399],100,44,hard,plus,dotcolour,beta,,,6,30,M,R,
540,36,36,12,4,27,53,566,['n'],1,right,['0'],6,145,[-0.03583434],99,53,easy,plus,dotcolour,beta,,,6,30,M,R,
541,37,37,12,4,53,27,550,['c'],1,left,['0'],6,180,[0.13424274],100,53,easy,plus,dotcolour,beta,,,6,30,M,R,
542,38,38,12,4,53,27,667,['c'],1,left,['0'],6,137,[0.10228575],100,53,easy,plus,dotcolour,beta,,,6,30,M,R,
543,39,39,12,4,44,36,1099,['c'],1,left,['0'],6,142,[0.06767701],100,44,hard,plus,dotcolour,beta,,,6,30,M,R,
544,40,40,12,4,36,44,566,['n'],1,right,['0'],6,144,[-0.07594099],100,44,hard,plus,dotcolour,beta,,,6,30,M,R,
545,41,41,12,4,33,47,633,['n'],1,right,['0'],6,160,[-0.18022011],100,47,medium,plus,dotcolour,beta,,,6,30,M,R,
546,42,0,13,4,27,53,550,['n'],1,right,['0'],6,154,[-0.06526233],100,53,easy,plus,dotcolour,beta,,,6,30,M,R,
547,43,1,13,4,47,33,500,['n'],0,left,['3'],3,943,[-0.05095909],88,47,medium,plus,dotcolour,beta,,,6,30,M,R,
548,44,2,13,4,53,27,667,['c'],1,left,['0'],6,236,[0.11605449],100,53,easy,plus,dotcolour,beta,,,6,30,M,R,
549,45,3,13,4,44,36,833,['c'],1,left,['0'],6,232,[0.11636374],100,44,hard,plus,dotcolour,beta,,,6,30,M,R,
550,46,4,13,4,47,33,683,['c'],1,left,['0'],6,242,[0.10730262],100,47,medium,plus,dotcolour,beta,,,6,30,M,R,
551,47,5,13,4,33,47,632,['n'],1,right,['0'],6,214,[-0.08781089],100,47,medium,plus,dotcolour,beta,,,6,30,M,R,
552,48,6,13,4,44,36,1466,['c'],1,left,['0'],6,177,[0.12632538],100,44,hard,plus,dotcolour,beta,,,6,30,M,R,
553,49,7,13,4,53,27,550,['c'],1,left,['0'],6,186,[0.04967376],99,53,easy,plus,dotcolour,beta,,,6,30,M,R,
554,50,8,13,4,44,36,733,['c'],1,left,['0'],6,124,[0.04933411],100,44,hard,plus,dotcolour,beta,,,6,30,M,R,
555,51,9,13,4,27,53,535,['n'],1,right,['0'],6,178,[-0.07084942],100,53,easy,plus,dotcolour,beta,,,6,30,M,R,
556,52,10,13,4,36,44,667,['n'],1,right,['0'],6,134,[-0.03189976],99,44,hard,plus,dotcolour,beta,,,6,30,M,R,
557,53,11,13,4,53,27,632,['c'],1,left,['0'],6,119,[0.08435228],100,53,easy,plus,dotcolour,beta,,,6,30,M,R,
558,54,12,13,4,33,47,648,['n'],1,right,['0'],6,111,[-0.12162515],100,47,medium,plus,dotcolour,beta,,,6,30,M,R,
559,55,13,13,4,44,36,733,['c'],1,left,['0'],6,132,[0.03613477],99,44,hard,plus,dotcolour,beta,,,6,30,M,R,
560,56,14,13,4,36,44,1134,['n'],1,right,['0'],6,144,[-0.04703072],99,44,hard,plus,dotcolour,beta,,,6,30,M,R,
561,57,15,13,4,33,47,867,['n'],1,right,['0'],6,126,[-0.10875309],100,47,medium,plus,dotcolour,beta,,,6,30,M,R,
562,58,16,13,4,36,44,483,['c'],0,right,['0'],6,140,[0.02861321],98,44,hard,plus,dotcolour,beta,,,6,30,M,R,
563,59,17,13,4,36,44,534,['n'],1,right,['0'],6,169,[-0.10753032],100,44,hard,plus,dotcolour,beta,,,6,30,M,R,
564,60,18,13,4,33,47,616,['n'],1,right,['0'],6,129,[-0.10890185],100,47,medium,plus,dotcolour,beta,,,6,30,M,R,
565,61,19,13,4,53,27,516,['c'],1,left,['0'],6,118,[0.11259084],100,53,easy,plus,dotcolour,beta,,,6,30,M,R,
566,62,20,13,4,44,36,801,['c'],1,left,['0'],6,79,[0.02111887],99,44,hard,plus,dotcolour,beta,,,6,30,M,R,
567,63,21,13,4,44,36,766,['c'],1,left,['0'],6,100,[0.10922016],100,44,hard,plus,dotcolour,beta,,,6,30,M,R,
568,64,22,13,4,36,44,665,['n'],1,right,['0'],6,60,[-0.03395444],100,44,hard,plus,dotcolour,beta,,,6,30,M,R,
569,65,23,13,4,53,27,533,['c'],1,left,['0'],6,92,[0.06313425],100,53,easy,plus,dotcolour,beta,,,6,30,M,R,
570,66,24,13,4,27,53,534,['n'],1,right,['0'],6,105,[-0.09255585],100,53,easy,plus,dotcolour,beta,,,6,30,M,R,
571,67,25,13,4,53,27,551,['c'],1,left,['0'],6,166,[0.14120298],100,53,easy,plus,dotcolour,beta,,,6,30,M,R,
572,68,26,13,4,36,44,516,['n'],1,right,['0'],6,114,[-0.11658935],100,44,hard,plus,dotcolour,beta,,,6,30,M,R,
573,69,27,13,4,33,47,666,['n'],1,right,['0'],6,97,[-0.0998756],100,47,medium,plus,dotcolour,beta,,,6,30,M,R,
574,70,28,13,4,27,53,549,['n'],1,right,['0'],6,70,[-0.10171958],100,53,easy,plus,dotcolour,beta,,,6,30,M,R,
575,71,29,13,4,27,53,550,['n'],1,right,['0'],6,84,[-0.05263002],100,53,easy,plus,dotcolour,beta,,,6,30,M,R,
576,72,30,13,4,47,33,599,['c'],1,left,['0'],6,136,[0.01583685],97,47,medium,plus,dotcolour,beta,,,6,30,M,R,
577,73,31,13,4,27,53,516,['n'],1,right,['0'],6,101,[-0.01970479],99,53,easy,plus,dotcolour,beta,,,6,30,M,R,
578,74,32,13,4,44,36,717,['c'],1,left,['0'],6,107,[0.06431279],100,44,hard,plus,dotcolour,beta,,,6,30,M,R,
579,75,33,13,4,53,27,634,['c'],1,left,['0'],6,157,[0.06923124],100,53,easy,plus,dotcolour,beta,,,6,30,M,R,
580,76,34,13,4,47,33,700,['c'],1,left,['0'],6,90,[0.1051013],100,47,medium,plus,dotcolour,beta,,,6,30,M,R,
581,77,35,13,4,33,47,699,['n'],1,right,['0'],6,130,[-0.13375821],100,47,medium,plus,dotcolour,beta,,,6,30,M,R,
582,78,36,13,4,47,33,599,['c'],1,left,['0'],6,203,[0.10433831],100,47,medium,plus,dotcolour,beta,,,6,30,M,R,
583,79,37,13,4,27,53,518,['n'],1,right,['0'],6,278,[-0.19014563],100,53,easy,plus,dotcolour,beta,,,6,30,M,R,
584,80,38,13,4,36,44,902,['n'],1,right,['0'],6,53,[-0.10261031],100,44,hard,plus,dotcolour,beta,,,6,30,M,R,
585,81,39,13,4,47,33,535,['c'],1,left,['0'],6,213,[0.07413451],99,47,medium,plus,dotcolour,beta,,,6,30,M,R,
586,82,40,13,4,33,47,517,['n'],1,right,['0'],6,103,[-0.09208766],100,47,medium,plus,dotcolour,beta,,,6,30,M,R,
587,83,41,13,4,47,33,500,['c'],1,left,['0'],6,150,[0.07009445],100,47,medium,plus,dotcolour,beta,,,6,30,M,R,
588,84,0,14,4,27,53,568,['n'],1,right,['0'],6,124,[-0.07327559],100,53,easy,plus,dotcolour,beta,,,6,30,M,R,
589,85,1,14,4,53,27,584,['c'],1,left,['0'],6,102,[0.06309145],100,53,easy,plus,dotcolour,beta,,,6,30,M,R,
590,86,2,14,4,53,27,515,['c'],1,left,['0'],6,181,[0.22672683],100,53,easy,plus,dotcolour,beta,,,6,30,M,R,
591,87,3,14,4,36,44,817,['n'],1,right,['0'],6,164,[-0.11053234],100,44,hard,plus,dotcolour,beta,,,6,30,M,R,
592,88,4,14,4,53,27,566,['c'],1,left,['0'],6,149,[0.10894828],100,53,easy,plus,dotcolour,beta,,,6,30,M,R,
593,89,5,14,4,47,33,649,['c'],1,left,['0'],6,85,[0.06250257],100,47,medium,plus,dotcolour,beta,,,6,30,M,R,
594,90,6,14,4,47,33,466,['c'],1,left,['0'],6,133,[0.11164946],100,47,medium,plus,dotcolour,beta,,,6,30,M,R,
595,91,7,14,4,36,44,815,['n'],1,right,['0'],6,926,[-0.08241431],93,44,hard,plus,dotcolour,beta,,,6,30,M,R,
596,92,8,14,4,27,53,485,['n'],1,right,['0'],6,147,[-0.09952129],100,53,easy,plus,dotcolour,beta,,,6,30,M,R,
597,93,9,14,4,44,36,449,['c'],1,left,['0'],6,123,[0.06397794],100,44,hard,plus,dotcolour,beta,,,6,30,M,R,
598,94,10,14,4,27,53,666,['n'],1,right,['0'],6,137,[-0.08992305],100,53,easy,plus,dotcolour,beta,,,6,30,M,R,
599,95,11,14,4,33,47,816,['n'],1,right,['0'],6,130,[-0.10075603],100,47,medium,plus,dotcolour,beta,,,6,30,M,R,
600,96,12,14,4,44,36,700,['c'],1,left,['0'],6,96,[0.02867931],99,44,hard,plus,dotcolour,beta,,,6,30,M,R,
601,97,13,14,4,33,47,599,['n'],1,right,['0'],6,75,[-0.05440385],100,47,medium,plus,dotcolour,beta,,,6,30,M,R,
602,98,14,14,4,33,47,617,['c'],0,right,['0'],6,1134,[-0.02607839],62,47,medium,plus,dotcolour,beta,,,6,30,M,R,
603,99,15,14,4,27,53,533,['n'],1,right,['0'],6,129,[-0.10579518],100,53,easy,plus,dotcolour,beta,,,6,30,M,R,
604,100,16,14,4,36,44,534,['n'],1,right,['0'],6,134,[-0.15575081],100,44,hard,plus,dotcolour,beta,,,6,30,M,R,
605,101,17,14,4,33,47,481,['n'],1,right,['0'],6,124,[-0.05453106],100,47,medium,plus,dotcolour,beta,,,6,30,M,R,
606,102,18,14,4,36,44,800,['n'],1,right,['0'],6,94,[-0.06920714],100,44,hard,plus,dotcolour,beta,,,6,30,M,R,
607,103,19,14,4,53,27,634,['c'],1,left,['0'],6,15,[0.08578861],100,53,easy,plus,dotcolour,beta,,,6,30,M,R,
608,104,20,14,4,44,36,616,['n'],0,left,['0'],6,69,[-0.04505601],100,44,hard,plus,dotcolour,beta,,,6,30,M,R,
609,105,21,14,4,53,27,650,['c'],1,left,['0'],6,16,[0.06143295],100,53,easy,plus,dotcolour,beta,,,6,30,M,R,
610,106,22,14,4,44,36,750,['c'],1,left,['0'],6,8,[0.07757979],100,44,hard,plus,dotcolour,beta,,,6,30,M,R,
611,107,23,14,4,47,33,685,['c'],1,left,['0'],6,91,[0.08424811],100,47,medium,plus,dotcolour,beta,,,6,30,M,R,
612,108,24,14,4,47,33,551,['c'],1,left,['0'],6,81,[0.09525447],100,47,medium,plus,dotcolour,beta,,,6,30,M,R,
613,109,25,14,4,44,36,700,['n'],0,left,['0'],6,168,[-0.07674882],100,44,hard,plus,dotcolour,beta,,,6,30,M,R,
614,110,26,14,4,33,47,516,['n'],1,right,['0'],6,76,[-0.07877323],100,47,medium,plus,dotcolour,beta,,,6,30,M,R,
615,111,27,14,4,44,36,998,['c'],1,left,['0'],6,416,[0.23712801],100,44,hard,plus,dotcolour,beta,,,6,30,M,R,
616,112,28,14,4,44,36,800,['c'],1,left,['0'],6,94,[0.07881912],100,44,hard,plus,dotcolour,beta,,,6,30,M,R,
617,113,29,14,4,33,47,484,['n'],1,right,['0'],6,142,[-0.00726082],95,47,medium,plus,dotcolour,beta,,,6,30,M,R,
618,114,30,14,4,47,33,719,['c'],1,left,['0'],6,338,[0.16257883],100,47,medium,plus,dotcolour,beta,,,6,30,M,R,
619,115,31,14,4,27,53,583,['n'],1,right,['0'],6,172,[-0.02825396],97,53,easy,plus,dotcolour,beta,,,6,30,M,R,
620,116,32,14,4,36,44,650,['n'],1,right,['0'],6,50,[-0.0922504],100,44,hard,plus,dotcolour,beta,,,6,30,M,R,
621,117,33,14,4,47,33,817,['c'],1,left,['0'],6,54,[0.04599588],100,47,medium,plus,dotcolour,beta,,,6,30,M,R,
622,118,34,14,4,47,33,682,['n'],0,left,['0'],6,57,[-0.09802883],100,47,medium,plus,dotcolour,beta,,,6,30,M,R,
623,119,35,14,4,27,53,949,['n'],1,right,['0'],6,95,[-0.08822205],100,53,easy,plus,dotcolour,beta,,,6,30,M,R,
624,120,36,14,4,36,44,682,['n'],1,right,['0'],6,78,[-0.06259815],100,44,hard,plus,dotcolour,beta,,,6,30,M,R,
625,121,37,14,4,33,47,634,['n'],1,right,['0'],6,584,[-0.05710634],93,47,medium,plus,dotcolour,beta,,,6,30,M,R,
626,122,38,14,4,53,27,717,['c'],1,left,['0'],6,99,[0.01418331],98,53,easy,plus,dotcolour,beta,,,6,30,M,R,
627,123,39,14,4,36,44,516,['n'],1,right,['0'],6,385,[-0.10499149],99,44,hard,plus,dotcolour,beta,,,6,30,M,R,
628,124,40,14,4,53,27,816,['c'],1,left,['0'],6,104,[0.12033052],100,53,easy,plus,dotcolour,beta,,,6,30,M,R,
629,125,41,14,4,27,53,549,['n'],1,right,['0'],6,21,[-0.09195933],100,53,easy,plus,dotcolour,beta,,,6,30,M,R,
630,0,0,15,5,53,27,550,['c'],1,left,['0'],6,146,[0.12123588],96,53,easy,minus,dotcolour,beta,,,6,30,M,R,
631,1,1,15,5,44,36,600,['n'],0,left,['0'],6,146,[-0.10383175],91,44,hard,minus,dotcolour,beta,,,6,30,M,R,
632,2,2,15,5,33,47,649,['n'],1,right,['0'],6,97,[-0.09313103],90,47,medium,minus,dotcolour,beta,,,6,30,M,R,
633,3,3,15,5,33,47,550,['n'],1,right,['0'],6,142,[-0.16272075],99,47,medium,minus,dotcolour,beta,,,6,30,M,R,
634,4,4,15,5,36,44,749,['c'],0,right,['0'],6,161,[-0.01206074],5,44,hard,minus,dotcolour,beta,,,6,30,M,R,
635,5,5,15,5,36,44,567,['n'],1,right,['0'],6,139,[-0.07092419],68,44,hard,minus,dotcolour,beta,,,6,30,M,R,
636,6,6,15,5,47,33,598,['c'],1,left,['0'],6,140,[0.09860229],89,47,medium,minus,dotcolour,beta,,,6,30,M,R,
637,7,7,15,5,53,27,515,['c'],1,left,['0'],6,113,[0.08464045],83,53,easy,minus,dotcolour,beta,,,6,30,M,R,
638,8,8,15,5,53,27,700,['c'],1,left,['0'],6,135,[0.08688187],82,53,easy,minus,dotcolour,beta,,,6,30,M,R,
639,9,9,15,5,33,47,583,['n'],1,right,['0'],6,194,[-0.08491449],77,47,medium,minus,dotcolour,beta,,,6,30,M,R,
640,10,10,15,5,36,44,466,['n'],1,right,['0'],6,238,[-0.00541887],14,44,hard,minus,dotcolour,beta,,,6,30,M,R,
641,11,11,15,5,33,47,566,['n'],1,right,['0'],6,148,[-0.15844276],99,47,medium,minus,dotcolour,beta,,,6,30,M,R,
642,12,12,15,5,44,36,466,['n'],0,left,['0'],6,203,[-0.10817198],89,44,hard,minus,dotcolour,beta,,,6,30,M,R,
643,13,13,15,5,53,27,733,['c'],1,left,['0'],6,180,[0.11306378],92,53,easy,minus,dotcolour,beta,,,6,30,M,R,
644,14,14,15,5,47,33,716,['c'],1,left,['0'],6,88,[0.07666805],78,47,medium,minus,dotcolour,beta,,,6,30,M,R,
645,15,15,15,5,36,44,583,['n'],1,right,['0'],6,155,[-0.06145072],57,44,hard,minus,dotcolour,beta,,,6,30,M,R,
646,16,16,15,5,44,36,867,['c'],1,left,['0'],6,193,[0.07900277],72,44,hard,minus,dotcolour,beta,,,6,30,M,R,
647,17,17,15,5,47,33,517,['n'],0,left,['0'],6,243,[-0.04288098],39,47,medium,minus,dotcolour,beta,,,6,30,M,R,
648,18,18,15,5,27,53,533,['n'],1,right,['0'],6,131,[-0.06271521],59,53,easy,minus,dotcolour,beta,,,6,30,M,R,
649,19,19,15,5,27,53,467,['n'],1,right,['0'],6,163,[-0.09527631],85,53,easy,minus,dotcolour,beta,,,6,30,M,R,
650,20,20,15,5,27,53,449,['n'],1,right,['0'],6,169,[-0.04053713],34,53,easy,minus,dotcolour,beta,,,6,30,M,R,
651,21,21,15,5,27,53,516,['n'],1,right,['0'],6,165,[-0.10117612],88,53,easy,minus,dotcolour,beta,,,6,30,M,R,
652,22,22,15,5,44,36,466,['n'],0,left,['0'],6,251,[-0.07759692],69,44,hard,minus,dotcolour,beta,,,6,30,M,R,
653,23,23,15,5,44,36,848,['c'],1,left,['0'],6,157,[0.08384764],78,44,hard,minus,dotcolour,beta,,,6,30,M,R,
654,24,24,15,5,36,44,584,['n'],1,right,['0'],6,486,[-0.05414181],49,44,hard,minus,dotcolour,beta,,,6,30,M,R,
655,25,25,15,5,44,36,599,['c'],1,left,['0'],6,81,[0.08123967],84,44,hard,minus,dotcolour,beta,,,6,30,M,R,
656,26,26,15,5,33,47,766,['n'],1,right,['0'],6,190,[-0.09344839],83,47,medium,minus,dotcolour,beta,,,6,30,M,R,
657,27,27,15,5,53,27,615,['c'],1,left,['0'],6,172,[-0.01813285],4,53,easy,minus,dotcolour,beta,,,6,30,M,R,
658,28,28,15,5,47,33,600,['n'],0,left,['0'],6,141,[-0.08597382],81,47,medium,minus,dotcolour,beta,,,6,30,M,R,
659,29,29,15,5,47,33,733,['c'],1,left,['0'],6,144,[0.09153142],85,47,medium,minus,dotcolour,beta,,,6,30,M,R,
660,30,30,15,5,27,53,467,['n'],1,right,['0'],6,119,[-0.05980215],56,53,easy,minus,dotcolour,beta,,,6,30,M,R,
661,31,31,15,5,47,33,432,['c'],1,left,['0'],6,144,[0.13362623],98,47,medium,minus,dotcolour,beta,,,6,30,M,R,
662,32,32,15,5,44,36,584,['c'],1,left,['0'],6,66,[0.05914838],56,44,hard,minus,dotcolour,beta,,,6,30,M,R,
663,33,33,15,5,27,53,566,['n'],1,right,['0'],6,127,[-0.15309175],99,53,easy,minus,dotcolour,beta,,,6,30,M,R,
664,34,34,15,5,36,44,1083,['n'],1,right,['0'],6,125,[-0.03511314],26,44,hard,minus,dotcolour,beta,,,6,30,M,R,
665,35,35,15,5,33,47,584,['n'],1,right,['0'],6,192,[-0.06040861],55,47,medium,minus,dotcolour,beta,,,6,30,M,R,
666,36,36,15,5,27,53,467,['n'],1,right,['0'],6,140,[-0.03244172],25,53,easy,minus,dotcolour,beta,,,6,30,M,R,
667,37,37,15,5,53,27,550,['c'],1,left,['0'],6,95,[0.09855938],92,53,easy,minus,dotcolour,beta,,,6,30,M,R,
668,38,38,15,5,47,33,549,['n'],0,left,['0'],6,132,[-0.05276321],47,47,medium,minus,dotcolour,beta,,,6,30,M,R,
669,39,39,15,5,53,27,533,['n'],0,left,['3'],3,1105,[0.00200797],27,53,easy,minus,dotcolour,beta,,,6,30,M,R,
670,40,40,15,5,33,47,683,['n'],1,right,['0'],6,151,[-0.01842844],15,47,medium,minus,dotcolour,beta,,,6,30,M,R,
671,41,41,15,5,36,44,701,['n'],1,right,['0'],6,132,[-0.05190082],45,44,hard,minus,dotcolour,beta,,,6,30,M,R,
672,42,0,16,5,36,44,584,['n'],1,right,['0'],6,406,[-0.11179075],83,44,hard,minus,dotcolour,beta,,,6,30,M,R,
673,43,1,16,5,36,44,564,['n'],1,right,['0'],6,686,[-0.06130848],53,44,hard,minus,dotcolour,beta,,,6,30,M,R,
674,44,2,16,5,33,47,499,['n'],1,right,['0'],6,197,[-0.21553835],100,47,medium,minus,dotcolour,beta,,,6,30,M,R,
675,45,3,16,5,44,36,799,['c'],1,left,['0'],6,188,[0.0806535],74,44,hard,minus,dotcolour,beta,,,6,30,M,R,
676,46,4,16,5,33,47,1184,['n'],1,right,['0'],6,179,[-0.07646074],71,47,medium,minus,dotcolour,beta,,,6,30,M,R,
677,47,5,16,5,53,27,567,['c'],1,left,['0'],6,164,[0.0488406],43,53,easy,minus,dotcolour,beta,,,6,30,M,R,
678,48,6,16,5,47,33,801,['c'],1,left,['0'],6,188,[0.17931704],99,47,medium,minus,dotcolour,beta,,,6,30,M,R,
679,49,7,16,5,27,53,767,['n'],1,right,['0'],6,140,[-0.09254363],86,53,easy,minus,dotcolour,beta,,,6,30,M,R,
680,50,8,16,5,27,53,698,['n'],1,right,['0'],6,97,[-0.11975076],98,53,easy,minus,dotcolour,beta,,,6,30,M,R,
681,51,9,16,5,27,53,684,['n'],1,right,['0'],6,153,[-0.08028606],76,53,easy,minus,dotcolour,beta,,,6,30,M,R,
682,52,10,16,5,33,47,483,['n'],1,right,['0'],6,110,[-0.17058828],100,47,medium,minus,dotcolour,beta,,,6,30,M,R,
683,53,11,16,5,44,36,700,['c'],1,left,['0'],6,197,[0.0700685],64,44,hard,minus,dotcolour,beta,,,6,30,M,R,
684,54,12,16,5,53,27,567,['c'],1,left,['0'],6,172,[0.11179139],92,53,easy,minus,dotcolour,beta,,,6,30,M,R,
685,55,13,16,5,44,36,516,['n'],0,left,['0'],6,263,[-0.12594129],92,44,hard,minus,dotcolour,beta,,,6,30,M,R,
686,56,14,16,5,44,36,682,['c'],1,left,['0'],6,160,[0.12795489],96,44,hard,minus,dotcolour,beta,,,6,30,M,R,
687,57,15,16,5,27,53,582,['n'],1,right,['0'],6,129,[-0.14431159],99,53,easy,minus,dotcolour,beta,,,6,30,M,R,
688,58,16,16,5,27,53,566,['n'],1,right,['0'],6,101,[-0.05546027],50,53,easy,minus,dotcolour,beta,,,6,30,M,R,
689,59,17,16,5,47,33,581,['c'],1,left,['0'],6,145,[0.04537989],38,47,medium,minus,dotcolour,beta,,,6,30,M,R,
690,60,18,16,5,53,27,533,['c'],1,left,['0'],6,148,[0.0319087],25,53,easy,minus,dotcolour,beta,,,6,30,M,R,
691,61,19,16,5,33,47,616,['n'],1,right,['0'],6,148,[-0.14091193],98,47,medium,minus,dotcolour,beta,,,6,30,M,R,
692,62,20,16,5,33,47,699,['n'],1,right,['0'],6,353,[-0.16544985],97,47,medium,minus,dotcolour,beta,,,6,30,M,R,
693,63,21,16,5,33,47,534,['c'],0,right,['0'],6,293,[0.08026015],69,47,medium,minus,dotcolour,beta,,,6,30,M,R,
694,64,22,16,5,36,44,952,['n'],1,right,['0'],6,161,[-0.06346403],59,44,hard,minus,dotcolour,beta,,,6,30,M,R,
695,65,23,16,5,47,33,600,['c'],1,left,['0'],6,122,[0.07722102],75,47,medium,minus,dotcolour,beta,,,6,30,M,R,
696,66,24,16,5,53,27,566,['c'],1,left,['0'],6,158,[0.10307227],90,53,easy,minus,dotcolour,beta,,,6,30,M,R,
697,67,25,16,5,36,44,650,['n'],1,right,['0'],6,116,[-0.08510899],83,44,hard,minus,dotcolour,beta,,,6,30,M,R,
698,68,26,16,5,27,53,549,['n'],1,right,['0'],6,128,[-0.11079379],94,53,easy,minus,dotcolour,beta,,,6,30,M,R,
699,69,27,16,5,53,27,633,['c'],1,left,['0'],6,177,[0.07551672],70,53,easy,minus,dotcolour,beta,,,6,30,M,R,
700,70,28,16,5,33,47,533,['n'],1,right,['0'],6,35,[-0.11665537],100,47,medium,minus,dotcolour,beta,,,6,30,M,R,
701,71,29,16,5,53,27,617,['c'],1,left,['0'],6,87,[0.04447503],34,53,easy,minus,dotcolour,beta,,,6,30,M,R,
702,72,30,16,5,47,33,549,['c'],1,left,['0'],6,133,[0.04458494],37,47,medium,minus,dotcolour,beta,,,6,30,M,R,
703,73,31,16,5,36,44,515,['n'],1,right,['0'],6,90,[-0.09073909],89,44,hard,minus,dotcolour,beta,,,6,30,M,R,
704,74,32,16,5,27,53,934,['n'],1,right,['0'],6,120,[-0.12603724],97,53,easy,minus,dotcolour,beta,,,6,30,M,R,
705,75,33,16,5,47,33,784,['n'],0,left,['0'],6,386,[-0.05777963],52,47,medium,minus,dotcolour,beta,,,6,30,M,R,
706,76,34,16,5,44,36,600,['c'],1,left,['0'],6,105,[0.08010887],80,44,hard,minus,dotcolour,beta,,,6,30,M,R,
707,77,35,16,5,53,27,500,['c'],1,left,['0'],6,112,[0.06632675],64,53,easy,minus,dotcolour,beta,,,6,30,M,R,
708,78,36,16,5,47,33,517,['c'],1,left,['0'],6,134,[0.05764864],53,47,medium,minus,dotcolour,beta,,,6,30,M,R,
709,79,37,16,5,44,36,1333,['c'],1,left,['0'],6,410,[0.09140204],73,44,hard,minus,dotcolour,beta,,,6,30,M,R,
710,80,38,16,5,36,44,682,['n'],1,right,['0'],6,140,[-0.06599356],62,44,hard,minus,dotcolour,beta,,,6,30,M,R,
711,81,39,16,5,36,44,799,['n'],1,right,['0'],6,30,[-0.07840398],91,44,hard,minus,dotcolour,beta,,,6,30,M,R,
712,82,40,16,5,47,33,699,['c'],1,left,['0'],6,175,[0.12309453],95,47,medium,minus,dotcolour,beta,,,6,30,M,R,
713,83,41,16,5,44,36,866,['c'],1,left,['0'],6,108,[0.03907519],29,44,hard,minus,dotcolour,beta,,,6,30,M,R,
714,84,0,17,5,44,36,750,['n'],0,left,['0'],6,163,[-0.04654652],40,44,hard,minus,dotcolour,beta,,,6,30,M,R,
715,85,1,17,5,33,47,532,['c'],0,right,['0'],6,175,[0.06902464],64,47,medium,minus,dotcolour,beta,,,6,30,M,R,
716,86,2,17,5,36,44,832,['n'],1,right,['0'],6,180,[-0.13554904],97,44,hard,minus,dotcolour,beta,,,6,30,M,R,
717,87,3,17,5,27,53,767,['n'],1,right,['0'],6,165,[-0.15008823],99,53,easy,minus,dotcolour,beta,,,6,30,M,R,
718,88,4,17,5,53,27,482,['c'],1,left,['0'],6,163,[0.02913834],24,53,easy,minus,dotcolour,beta,,,6,30,M,R,
719,89,5,17,5,47,33,534,['c'],1,left,['0'],6,174,[0.09242329],83,47,medium,minus,dotcolour,beta,,,6,30,M,R,
720,90,6,17,5,44,36,568,['c'],1,left,['0'],6,111,[0.12365391],98,44,hard,minus,dotcolour,beta,,,6,30,M,R,
721,91,7,17,5,44,36,685,['n'],0,left,['0'],6,102,[-0.09092936],88,44,hard,minus,dotcolour,beta,,,6,30,M,R,
722,92,8,17,5,33,47,1133,['c'],0,right,['0'],6,523,[0.07469259],62,47,medium,minus,dotcolour,beta,,,6,30,M,R,
723,93,9,17,5,53,27,550,['c'],1,left,['0'],6,175,[0.03265623],27,53,easy,minus,dotcolour,beta,,,6,30,M,R,
724,94,10,17,5,27,53,516,['n'],1,right,['0'],6,153,[-0.05540051],50,53,easy,minus,dotcolour,beta,,,6,30,M,R,
725,95,11,17,5,44,36,649,['n'],0,left,['0'],6,79,[-0.06286654],61,44,hard,minus,dotcolour,beta,,,6,30,M,R,
726,96,12,17,5,36,44,633,['n'],1,right,['0'],6,170,[-0.08020079],75,44,hard,minus,dotcolour,beta,,,6,30,M,R,
727,97,13,17,5,27,53,466,['n'],1,right,['0'],6,136,[-0.09029816],84,53,easy,minus,dotcolour,beta,,,6,30,M,R,
728,98,14,17,5,27,53,483,['n'],1,right,['0'],6,111,[-0.02315625],15,53,easy,minus,dotcolour,beta,,,6,30,M,R,
729,99,15,17,5,36,44,732,['c'],0,right,['0'],6,84,[0.10261749],95,44,hard,minus,dotcolour,beta,,,6,30,M,R,
730,100,16,17,5,33,47,566,['n'],1,right,['0'],6,89,[-0.07295351],74,47,medium,minus,dotcolour,beta,,,6,30,M,R,
731,101,17,17,5,33,47,617,['n'],1,right,['0'],6,43,[-0.0518399],42,47,medium,minus,dotcolour,beta,,,6,30,M,R,
732,102,18,17,5,47,33,449,['c'],1,left,['0'],6,126,[0.07851661],76,47,medium,minus,dotcolour,beta,,,6,30,M,R,
733,103,19,17,5,36,44,816,['n'],1,right,['0'],6,15,[-0.06456219],79,44,hard,minus,dotcolour,beta,,,6,30,M,R,
734,104,20,17,5,33,47,784,['c'],0,right,['0'],6,86,[0.05649678],51,47,medium,minus,dotcolour,beta,,,6,30,M,R,
735,105,21,17,5,53,27,567,['c'],1,left,['0'],6,123,[0.12787858],98,53,easy,minus,dotcolour,beta,,,6,30,M,R,
736,106,22,17,5,33,47,733,['n'],1,right,['0'],6,95,[-0.0954482],91,47,medium,minus,dotcolour,beta,,,6,30,M,R,
737,107,23,17,5,27,53,598,['n'],1,right,['0'],6,90,[-0.06293319],61,53,easy,minus,dotcolour,beta,,,6,30,M,R,
738,108,24,17,5,44,36,533,['c'],1,left,['0'],6,97,[0.09068922],88,44,hard,minus,dotcolour,beta,,,6,30,M,R,
739,109,25,17,5,33,47,432,['c'],0,right,['0'],6,123,[0.10086706],91,47,medium,minus,dotcolour,beta,,,6,30,M,R,
740,110,26,17,5,36,44,650,['n'],1,right,['0'],6,82,[-0.05227742],45,44,hard,minus,dotcolour,beta,,,6,30,M,R,
741,111,27,17,5,53,27,483,['c'],1,left,['0'],6,107,[0.06033331],57,53,easy,minus,dotcolour,beta,,,6,30,M,R,
742,112,28,17,5,47,33,702,['c'],1,left,['0'],6,114,[0.14109875],99,47,medium,minus,dotcolour,beta,,,6,30,M,R,
743,113,29,17,5,47,33,517,['c'],1,left,['0'],6,136,[0.10004389],90,47,medium,minus,dotcolour,beta,,,6,30,M,R,
744,114,30,17,5,36,44,467,['c'],0,right,['0'],6,126,[0.11170856],95,44,hard,minus,dotcolour,beta,,,6,30,M,R,
745,115,31,17,5,44,36,751,['n'],0,left,['0'],6,98,[-0.06547461],64,44,hard,minus,dotcolour,beta,,,6,30,M,R,
746,116,32,17,5,27,53,551,['n'],1,right,['0'],6,64,[-0.07512424],80,53,easy,minus,dotcolour,beta,,,6,30,M,R,
747,117,33,17,5,27,53,499,['n'],1,right,['0'],6,64,[-0.0768885],82,53,easy,minus,dotcolour,beta,,,6,30,M,R,
748,118,34,17,5,47,33,568,['c'],1,left,['0'],6,110,[0.09566729],90,47,medium,minus,dotcolour,beta,,,6,30,M,R,
749,119,35,17,5,47,33,500,['n'],0,left,['0'],6,60,[-0.04643779],34,47,medium,minus,dotcolour,beta,,,6,30,M,R,
750,120,36,17,5,44,36,466,['n'],0,left,['0'],6,78,[-0.05493958],49,44,hard,minus,dotcolour,beta,,,6,30,M,R,
751,121,37,17,5,53,27,565,['c'],1,left,['0'],6,147,[0.10478677],91,53,easy,minus,dotcolour,beta,,,6,30,M,R,
752,122,38,17,5,36,44,633,['n'],1,right,['0'],6,35,[-0.05835051],57,44,hard,minus,dotcolour,beta,,,6,30,M,R,
753,123,39,17,5,53,27,483,['c'],1,left,['0'],6,110,[0.10084231],92,53,easy,minus,dotcolour,beta,,,6,30,M,R,
754,124,40,17,5,47,33,584,['c'],1,left,['0'],6,80,[0.06653522],67,47,medium,minus,dotcolour,beta,,,6,30,M,R,
755,125,41,17,5,53,27,516,['c'],1,left,['0'],6,96,[0.14783259],100,53,easy,minus,dotcolour,beta,,,6,30,M,R,
,,,,,,,,,,,,,,,,,,,,,1,  neen ,6,30,M,R,
,,,,,,,,,,,,,,,,,,,,,2,['d'],6,30,M,R,
,,,,,,,,,,,,,,,,,,,,,3,['d'],6,30,M,R,
,,,,,,,,,,,,,,,,,,,,,5,[],6,30,M,R,
