trial,withinphasetrial,withinblocktrial,block,phase,dotsLeft,dotsRight,rt,resp,cor,cresp,conf_press,cj,RTconf,ev,fb,diff,difflevel,condition,task,manip,questionID,questionResp,sub,age,gender,handedness,
0,0,0,0,0,27,53,1618,['n'],1,right,['3'],4,3132,[-0.57980707],100,53,easy,plus,dotcolour,alfa,,,116,19,V,R,
1,1,1,0,0,44,36,1583,['c'],1,left,['2'],5,2488,[0.36490006],100,44,hard,plus,dotcolour,alfa,,,116,19,V,R,
2,2,2,0,0,27,53,2050,['n'],1,right,['1'],6,1361,[-0.51421074],100,53,easy,plus,dotcolour,alfa,,,116,19,V,R,
3,3,3,0,0,36,44,4750,['c'],0,right,['3'],4,2414,[0.05962867],80,44,hard,plus,dotcolour,alfa,,,116,19,V,R,
4,4,4,0,0,27,53,1383,['n'],1,right,['3'],4,2431,[-0.26096983],100,53,easy,plus,dotcolour,alfa,,,116,19,V,R,
5,5,5,0,0,44,36,1717,['c'],1,left,['2'],5,1346,[0.21557147],100,44,hard,plus,dotcolour,alfa,,,116,19,V,R,
6,6,6,0,0,33,47,2150,['n'],1,right,['8'],3,998,[-0.08121048],95,47,medium,plus,dotcolour,alfa,,,116,19,V,R,
7,7,7,0,0,53,27,1150,['c'],1,left,['1'],6,889,[0.22458523],100,53,easy,plus,dotcolour,alfa,,,116,19,V,R,
8,8,8,0,0,33,47,1866,['n'],1,right,['2'],5,1452,[-0.60670747],100,47,medium,plus,dotcolour,alfa,,,116,19,V,R,
9,9,9,0,0,27,53,1584,['n'],1,right,['2'],5,1123,[-0.18346676],100,53,easy,plus,dotcolour,alfa,,,116,19,V,R,
10,10,10,0,0,47,33,1233,['c'],1,left,['3'],4,766,[0.05640911],91,47,medium,plus,dotcolour,alfa,,,116,19,V,R,
11,11,11,0,0,33,47,2383,['c'],0,right,['8'],3,1666,[-0.06803714],13,47,medium,plus,dotcolour,alfa,,,116,19,V,R,
12,12,12,0,0,44,36,1067,['c'],1,left,['3'],4,949,[0.17710575],100,44,hard,plus,dotcolour,alfa,,,116,19,V,R,
13,13,13,0,0,44,36,1434,['c'],1,left,['2'],5,575,[0.09533663],99,44,hard,plus,dotcolour,alfa,,,116,19,V,R,
14,14,14,0,0,53,27,883,['c'],1,left,['1'],6,613,[0.2398571],100,53,easy,plus,dotcolour,alfa,,,116,19,V,R,
15,15,15,0,0,53,27,1100,['c'],1,left,['1'],6,434,[0.25419112],100,53,easy,plus,dotcolour,alfa,,,116,19,V,R,
16,16,16,0,0,36,44,1350,['n'],1,right,['1'],6,549,[-0.15165312],100,44,hard,plus,dotcolour,alfa,,,116,19,V,R,
17,17,17,0,0,53,27,900,['c'],1,left,['1'],6,572,[0.15927487],100,53,easy,plus,dotcolour,alfa,,,116,19,V,R,
18,18,18,0,0,47,33,1834,['c'],1,left,['3'],4,788,[0.15496643],100,47,medium,plus,dotcolour,alfa,,,116,19,V,R,
19,19,19,0,0,36,44,1266,['n'],1,right,['8'],3,1084,[0.0386042],21,44,hard,plus,dotcolour,alfa,,,116,19,V,R,
20,20,20,0,0,36,44,1617,['n'],1,right,['3'],4,671,[-0.11628176],99,44,hard,plus,dotcolour,alfa,,,116,19,V,R,
21,21,21,0,0,36,44,2533,['c'],0,right,['3'],4,784,[-0.07696316],4,44,hard,plus,dotcolour,alfa,,,116,19,V,R,
22,22,22,0,0,33,47,1067,['n'],1,right,['1'],6,791,[-0.35002917],100,47,medium,plus,dotcolour,alfa,,,116,19,V,R,
23,23,23,0,0,33,47,1066,['n'],1,right,['1'],6,389,[-0.15910017],100,47,medium,plus,dotcolour,alfa,,,116,19,V,R,
24,24,24,0,0,44,36,1099,['n'],0,left,['1'],6,548,[0.02177103],26,44,hard,plus,dotcolour,alfa,,,116,19,V,R,
25,25,25,0,0,53,27,1200,['c'],1,left,['1'],6,398,[0.2327418],100,53,easy,plus,dotcolour,alfa,,,116,19,V,R,
26,26,26,0,0,36,44,1118,['n'],1,right,['1'],6,291,[-0.17448759],100,44,hard,plus,dotcolour,alfa,,,116,19,V,R,
27,27,27,0,0,33,47,1216,['n'],1,right,['1'],6,288,[-0.06993539],99,47,medium,plus,dotcolour,alfa,,,116,19,V,R,
28,28,28,0,0,47,33,934,['c'],1,left,['1'],6,512,[-0.04361401],10,47,medium,plus,dotcolour,alfa,,,116,19,V,R,
29,29,29,0,0,47,33,800,['c'],1,left,['2'],5,597,[0.04620586],90,47,medium,plus,dotcolour,alfa,,,116,19,V,R,
30,30,30,0,0,27,53,917,['n'],1,right,['1'],6,1090,[-0.31482523],100,53,easy,plus,dotcolour,alfa,,,116,19,V,R,
31,31,31,0,0,27,53,1435,['c'],0,right,['3'],4,765,[-0.0300334],23,53,easy,plus,dotcolour,alfa,,,116,19,V,R,
32,32,32,0,0,44,36,2684,['n'],0,left,['8'],3,1629,[-0.18361058],99,44,hard,plus,dotcolour,alfa,,,116,19,V,R,
33,33,33,0,0,47,33,851,['c'],1,left,['2'],5,755,[0.26757484],100,47,medium,plus,dotcolour,alfa,,,116,19,V,R,
34,34,34,0,0,53,27,1118,['c'],1,left,['1'],6,457,[0.14760307],100,53,easy,plus,dotcolour,alfa,,,116,19,V,R,
35,35,35,0,0,44,36,1151,['c'],1,left,['1'],6,433,[0.12424302],100,44,hard,plus,dotcolour,alfa,,,116,19,V,R,
36,36,36,0,0,53,27,917,['c'],1,left,['2'],5,925,[0.09145605],97,53,easy,plus,dotcolour,alfa,,,116,19,V,R,
37,37,37,0,0,33,47,1167,['n'],1,right,['1'],6,322,[-0.04937379],96,47,medium,plus,dotcolour,alfa,,,116,19,V,R,
38,38,38,0,0,27,53,817,['n'],1,right,['1'],6,445,[-0.2277942],100,53,easy,plus,dotcolour,alfa,,,116,19,V,R,
39,39,39,0,0,47,33,717,['c'],1,left,['1'],6,344,[0.22481513],100,47,medium,plus,dotcolour,alfa,,,116,19,V,R,
40,40,40,0,0,47,33,917,['c'],1,left,['1'],6,390,[0.25279391],100,47,medium,plus,dotcolour,alfa,,,116,19,V,R,
41,41,41,0,0,36,44,850,['n'],1,right,['2'],5,406,[-0.16534357],100,44,hard,plus,dotcolour,alfa,,,116,19,V,R,
42,42,0,1,0,33,47,834,['n'],1,right,['1'],6,354,[-0.00225076],53,47,medium,plus,dotcolour,alfa,,,116,19,V,R,
43,43,1,1,0,33,47,818,['n'],1,right,['2'],5,892,[-0.03842993],81,47,medium,plus,dotcolour,alfa,,,116,19,V,R,
44,44,2,1,0,33,47,1167,['n'],1,right,['2'],5,843,[-0.22958122],100,47,medium,plus,dotcolour,alfa,,,116,19,V,R,
45,45,3,1,0,44,36,1900,['n'],0,left,['3'],4,422,[-0.04685364],93,44,hard,plus,dotcolour,alfa,,,116,19,V,R,
46,46,4,1,0,27,53,1833,['n'],1,right,['3'],4,532,[-0.15456967],100,53,easy,plus,dotcolour,alfa,,,116,19,V,R,
47,47,5,1,0,36,44,1250,['n'],1,right,['3'],4,470,[-0.04272479],90,44,hard,plus,dotcolour,alfa,,,116,19,V,R,
48,48,6,1,0,47,33,817,['c'],1,left,['2'],5,500,[0.14556468],100,47,medium,plus,dotcolour,alfa,,,116,19,V,R,
49,49,7,1,0,47,33,950,['n'],0,left,['2'],5,387,[-0.04936193],95,47,medium,plus,dotcolour,alfa,,,116,19,V,R,
50,50,8,1,0,44,36,850,['n'],0,left,['0'],1,2500,[-0.01673569],59,44,hard,plus,dotcolour,alfa,,,116,19,V,R,
51,51,9,1,0,53,27,1150,['c'],1,left,['2'],5,930,[0.13670638],99,53,easy,plus,dotcolour,alfa,,,116,19,V,R,
52,52,10,1,0,27,53,1100,['n'],1,right,['1'],6,426,[-0.14833557],100,53,easy,plus,dotcolour,alfa,,,116,19,V,R,
53,53,11,1,0,27,53,3149,['n'],1,right,['1'],6,419,[-0.04586416],93,53,easy,plus,dotcolour,alfa,,,116,19,V,R,
54,54,12,1,0,47,33,968,['c'],1,left,['2'],5,518,[0.23315529],100,47,medium,plus,dotcolour,alfa,,,116,19,V,R,
55,55,13,1,0,33,47,800,['n'],1,right,['1'],6,698,[0.00726352],42,47,medium,plus,dotcolour,alfa,,,116,19,V,R,
56,56,14,1,0,36,44,1000,['n'],1,right,['2'],5,439,[-0.03755427],88,44,hard,plus,dotcolour,alfa,,,116,19,V,R,
57,57,15,1,0,27,53,718,['n'],1,right,['2'],5,450,[-0.15402256],100,53,easy,plus,dotcolour,alfa,,,116,19,V,R,
58,58,16,1,0,27,53,699,['n'],1,right,['2'],5,405,[-0.03151466],86,53,easy,plus,dotcolour,alfa,,,116,19,V,R,
59,59,17,1,0,33,47,933,['n'],1,right,['1'],6,465,[-0.22337155],100,47,medium,plus,dotcolour,alfa,,,116,19,V,R,
60,60,18,1,0,53,27,900,['c'],1,left,['1'],6,371,[0.04290356],93,53,easy,plus,dotcolour,alfa,,,116,19,V,R,
61,61,19,1,0,36,44,2051,['c'],0,right,['2'],5,579,[-0.01502374],33,44,hard,plus,dotcolour,alfa,,,116,19,V,R,
62,62,20,1,0,36,44,1284,['c'],0,right,['3'],4,882,[-0.01558582],35,44,hard,plus,dotcolour,alfa,,,116,19,V,R,
63,63,21,1,0,53,27,833,['c'],1,left,['1'],6,303,[0.06899529],99,53,easy,plus,dotcolour,alfa,,,116,19,V,R,
64,64,22,1,0,27,53,884,['n'],1,right,['1'],6,289,[-0.06373009],99,53,easy,plus,dotcolour,alfa,,,116,19,V,R,
65,65,23,1,0,44,36,934,['c'],1,left,['2'],5,353,[0.12006858],100,44,hard,plus,dotcolour,alfa,,,116,19,V,R,
66,66,24,1,0,44,36,1117,['c'],1,left,['3'],4,367,[0.14478104],100,44,hard,plus,dotcolour,alfa,,,116,19,V,R,
67,67,25,1,0,47,33,684,['c'],1,left,['3'],4,439,[0.1614009],100,47,medium,plus,dotcolour,alfa,,,116,19,V,R,
68,68,26,1,0,53,27,634,['c'],1,left,['2'],5,589,[0.10626826],99,53,easy,plus,dotcolour,alfa,,,116,19,V,R,
69,69,27,1,0,36,44,1217,['n'],1,right,['3'],4,757,[-0.1821614],100,44,hard,plus,dotcolour,alfa,,,116,19,V,R,
70,70,28,1,0,44,36,884,['c'],1,left,['1'],6,333,[0.08999212],100,44,hard,plus,dotcolour,alfa,,,116,19,V,R,
71,71,29,1,0,53,27,1100,['c'],1,left,['1'],6,357,[0.04458602],94,53,easy,plus,dotcolour,alfa,,,116,19,V,R,
72,72,30,1,0,36,44,916,['c'],0,right,['2'],5,315,[0.11707547],100,44,hard,plus,dotcolour,alfa,,,116,19,V,R,
73,73,31,1,0,44,36,701,['c'],1,left,['1'],6,876,[-0.04978525],13,44,hard,plus,dotcolour,alfa,,,116,19,V,R,
74,74,32,1,0,53,27,849,['c'],1,left,['2'],5,480,[0.16886412],100,53,easy,plus,dotcolour,alfa,,,116,19,V,R,
75,75,33,1,0,33,47,950,['n'],1,right,['2'],5,648,[-0.06361358],95,47,medium,plus,dotcolour,alfa,,,116,19,V,R,
76,76,34,1,0,47,33,784,['c'],1,left,['2'],5,367,[0.22548294],100,47,medium,plus,dotcolour,alfa,,,116,19,V,R,
77,77,35,1,0,36,44,1067,['c'],0,right,['3'],4,920,[-0.00222278],48,44,hard,plus,dotcolour,alfa,,,116,19,V,R,
78,78,36,1,0,44,36,1317,['c'],1,left,['3'],4,1047,[0.08958867],96,44,hard,plus,dotcolour,alfa,,,116,19,V,R,
79,79,37,1,0,47,33,1184,['c'],1,left,['2'],5,375,[0.08847336],99,47,medium,plus,dotcolour,alfa,,,116,19,V,R,
80,80,38,1,0,33,47,750,['n'],1,right,['2'],5,467,[-0.21696067],100,47,medium,plus,dotcolour,alfa,,,116,19,V,R,
81,81,39,1,0,53,27,799,['c'],1,left,['2'],5,578,[0.19270805],100,53,easy,plus,dotcolour,alfa,,,116,19,V,R,
82,82,40,1,0,27,53,934,['n'],1,right,['1'],6,534,[-0.04753256],91,53,easy,plus,dotcolour,alfa,,,116,19,V,R,
83,83,41,1,0,47,33,1500,['c'],1,left,['3'],4,398,[0.14726619],100,47,medium,plus,dotcolour,alfa,,,116,19,V,R,
84,84,0,2,0,36,44,818,['n'],1,right,['1'],6,506,[-0.13472299],100,44,hard,plus,dotcolour,alfa,,,116,19,V,R,
85,85,1,2,0,33,47,750,['n'],1,right,['2'],5,457,[-0.17347454],100,47,medium,plus,dotcolour,alfa,,,116,19,V,R,
86,86,2,2,0,36,44,1200,['n'],1,right,['3'],4,295,[-0.18102615],100,44,hard,plus,dotcolour,alfa,,,116,19,V,R,
87,87,3,2,0,53,27,700,['c'],1,left,['1'],6,664,[0.21991943],100,53,easy,plus,dotcolour,alfa,,,116,19,V,R,
88,88,4,2,0,27,53,800,['n'],1,right,['1'],6,399,[-0.12888874],100,53,easy,plus,dotcolour,alfa,,,116,19,V,R,
89,89,5,2,0,44,36,817,['c'],1,left,['3'],4,439,[0.12627796],100,44,hard,plus,dotcolour,alfa,,,116,19,V,R,
90,90,6,2,0,36,44,1017,['n'],1,right,['2'],5,655,[-0.02800589],78,44,hard,plus,dotcolour,alfa,,,116,19,V,R,
91,91,7,2,0,47,33,1284,['c'],1,left,['2'],5,785,[0.16621468],100,47,medium,plus,dotcolour,alfa,,,116,19,V,R,
92,92,8,2,0,33,47,633,['n'],1,right,['1'],6,666,[0.00115015],49,47,medium,plus,dotcolour,alfa,,,116,19,V,R,
93,93,9,2,0,33,47,1234,['n'],1,right,['3'],4,887,[-0.32592108],100,47,medium,plus,dotcolour,alfa,,,116,19,V,R,
94,94,10,2,0,47,33,783,['c'],1,left,['2'],5,1086,[0.06481944],90,47,medium,plus,dotcolour,alfa,,,116,19,V,R,
95,95,11,2,0,27,53,750,['n'],1,right,['2'],5,492,[-0.21043516],100,53,easy,plus,dotcolour,alfa,,,116,19,V,R,
96,96,12,2,0,36,44,1233,['c'],0,right,['3'],4,1112,[-0.1307238],1,44,hard,plus,dotcolour,alfa,,,116,19,V,R,
97,97,13,2,0,36,44,1633,['n'],1,right,['2'],5,380,[-0.02846912],84,44,hard,plus,dotcolour,alfa,,,116,19,V,R,
98,98,14,2,0,47,33,999,['c'],1,left,['1'],6,902,[0.22390623],100,47,medium,plus,dotcolour,alfa,,,116,19,V,R,
99,99,15,2,0,27,53,700,['n'],1,right,['1'],6,407,[-0.08591475],99,53,easy,plus,dotcolour,alfa,,,116,19,V,R,
100,100,16,2,0,44,36,1334,['c'],1,left,['3'],4,754,[0.0777493],96,44,hard,plus,dotcolour,alfa,,,116,19,V,R,
101,101,17,2,0,47,33,833,['c'],1,left,['2'],5,483,[0.32716666],100,47,medium,plus,dotcolour,alfa,,,116,19,V,R,
102,102,18,2,0,33,47,900,['n'],1,right,['3'],4,573,[-0.09601024],99,47,medium,plus,dotcolour,alfa,,,116,19,V,R,
103,103,19,2,0,53,27,883,['c'],1,left,['1'],6,515,[0.14530039],100,53,easy,plus,dotcolour,alfa,,,116,19,V,R,
104,104,20,2,0,44,36,1100,['n'],0,left,['2'],5,492,[-0.12535747],100,44,hard,plus,dotcolour,alfa,,,116,19,V,R,
105,105,21,2,0,27,53,800,['n'],1,right,['1'],6,410,[-0.23478965],100,53,easy,plus,dotcolour,alfa,,,116,19,V,R,
106,106,22,2,0,33,47,1017,['n'],1,right,['2'],5,906,[-0.15659116],100,47,medium,plus,dotcolour,alfa,,,116,19,V,R,
107,107,23,2,0,27,53,684,['n'],1,right,['1'],6,403,[-0.14360647],100,53,easy,plus,dotcolour,alfa,,,116,19,V,R,
108,108,24,2,0,33,47,834,['n'],1,right,['1'],6,379,[-0.1797587],100,47,medium,plus,dotcolour,alfa,,,116,19,V,R,
109,109,25,2,0,27,53,602,['n'],1,right,['1'],6,373,[-0.015211],71,53,easy,plus,dotcolour,alfa,,,116,19,V,R,
110,110,26,2,0,47,33,851,['c'],1,left,['1'],6,525,[0.09717089],99,47,medium,plus,dotcolour,alfa,,,116,19,V,R,
111,111,27,2,0,44,36,1000,['c'],1,left,['2'],5,473,[0.00437533],56,44,hard,plus,dotcolour,alfa,,,116,19,V,R,
112,112,28,2,0,53,27,867,['c'],1,left,['1'],6,829,[0.34075569],100,53,easy,plus,dotcolour,alfa,,,116,19,V,R,
113,113,29,2,0,36,44,717,['n'],1,right,['2'],5,663,[-0.0482126],89,44,hard,plus,dotcolour,alfa,,,116,19,V,R,
114,114,30,2,0,53,27,717,['c'],1,left,['1'],6,338,[0.21829345],100,53,easy,plus,dotcolour,alfa,,,116,19,V,R,
115,115,31,2,0,36,44,783,['n'],1,right,['1'],6,359,[-0.08401699],99,44,hard,plus,dotcolour,alfa,,,116,19,V,R,
116,116,32,2,0,53,27,733,['c'],1,left,['1'],6,308,[0.194092],100,53,easy,plus,dotcolour,alfa,,,116,19,V,R,
117,117,33,2,0,44,36,650,['c'],1,left,['2'],5,663,[0.09276305],98,44,hard,plus,dotcolour,alfa,,,116,19,V,R,
118,118,34,2,0,27,53,699,['n'],1,right,['1'],6,417,[-0.03269019],86,53,easy,plus,dotcolour,alfa,,,116,19,V,R,
119,119,35,2,0,53,27,633,['c'],1,left,['1'],6,360,[0.09140053],100,53,easy,plus,dotcolour,alfa,,,116,19,V,R,
120,120,36,2,0,33,47,850,['n'],1,right,['1'],6,297,[-0.06935898],99,47,medium,plus,dotcolour,alfa,,,116,19,V,R,
121,121,37,2,0,44,36,683,['c'],1,left,['2'],5,403,[0.11784774],100,44,hard,plus,dotcolour,alfa,,,116,19,V,R,
122,122,38,2,0,44,36,884,['c'],1,left,['8'],3,1353,[0.18257277],100,44,hard,plus,dotcolour,alfa,,,116,19,V,R,
123,123,39,2,0,47,33,1083,['n'],0,left,['3'],4,1104,[0.03733825],22,47,medium,plus,dotcolour,alfa,,,116,19,V,R,
124,124,40,2,0,53,27,734,['c'],1,left,['2'],5,424,[0.1465418],100,53,easy,plus,dotcolour,alfa,,,116,19,V,R,
125,125,41,2,0,47,33,884,['n'],0,left,['2'],5,501,[-0.04620948],91,47,medium,plus,dotcolour,alfa,,,116,19,V,R,
126,0,0,3,1,47,33,1684,['n'],0,left,['8'],3,841,[0.01560602],46,47,medium,minus,dotcolour,alfa,,,116,19,V,R,
127,1,1,3,1,53,27,568,['c'],1,left,['1'],6,330,[0.08460867],79,53,easy,minus,dotcolour,alfa,,,116,19,V,R,
128,2,2,3,1,33,47,717,['n'],1,right,['2'],5,521,[-0.16446957],89,47,medium,minus,dotcolour,alfa,,,116,19,V,R,
129,3,3,3,1,36,44,633,['n'],1,right,['2'],5,348,[-0.11863078],86,44,hard,minus,dotcolour,alfa,,,116,19,V,R,
130,4,4,3,1,53,27,784,['c'],1,left,['1'],6,312,[0.08037028],78,53,easy,minus,dotcolour,alfa,,,116,19,V,R,
131,5,5,3,1,27,53,617,['n'],1,right,['1'],6,348,[-0.12084351],86,53,easy,minus,dotcolour,alfa,,,116,19,V,R,
132,6,6,3,1,53,27,700,['c'],1,left,['1'],6,339,[0.13293463],89,53,easy,minus,dotcolour,alfa,,,116,19,V,R,
133,7,7,3,1,44,36,1083,['n'],0,left,['2'],5,643,[-0.08034461],71,44,hard,minus,dotcolour,alfa,,,116,19,V,R,
134,8,8,3,1,33,47,783,['n'],1,right,['1'],6,691,[-0.12272929],79,47,medium,minus,dotcolour,alfa,,,116,19,V,R,
135,9,9,3,1,36,44,1900,['c'],0,right,['3'],4,853,[-0.04452983],39,44,hard,minus,dotcolour,alfa,,,116,19,V,R,
136,10,10,3,1,53,27,667,['c'],1,left,['1'],6,464,[0.12241901],83,53,easy,minus,dotcolour,alfa,,,116,19,V,R,
137,11,11,3,1,36,44,1517,['n'],1,right,['3'],4,482,[-0.09793313],78,44,hard,minus,dotcolour,alfa,,,116,19,V,R,
138,12,12,3,1,36,44,850,['c'],0,right,['8'],3,742,[0.09399803],73,44,hard,minus,dotcolour,alfa,,,116,19,V,R,
139,13,13,3,1,27,53,1134,['n'],1,right,['1'],6,572,[-0.12140492],81,53,easy,minus,dotcolour,alfa,,,116,19,V,R,
140,14,14,3,1,27,53,833,['n'],1,right,['2'],5,317,[-0.00334876],51,53,easy,minus,dotcolour,alfa,,,116,19,V,R,
141,15,15,3,1,44,36,733,['c'],1,left,['1'],6,812,[0.04081896],60,44,hard,minus,dotcolour,alfa,,,116,19,V,R,
142,16,16,3,1,33,47,684,['n'],1,right,['2'],5,562,[-0.07901044],72,47,medium,minus,dotcolour,alfa,,,116,19,V,R,
143,17,17,3,1,36,44,2167,['c'],0,right,['3'],4,598,[-0.0014988],50,44,hard,minus,dotcolour,alfa,,,116,19,V,R,
144,18,18,3,1,47,33,1134,['c'],1,left,['3'],4,698,[0.17620929],87,47,medium,minus,dotcolour,alfa,,,116,19,V,R,
145,19,19,3,1,27,53,800,['n'],1,right,['1'],6,383,[-0.0831213],77,53,easy,minus,dotcolour,alfa,,,116,19,V,R,
146,20,20,3,1,44,36,1051,['c'],1,left,['3'],4,375,[-0.00393516],49,44,hard,minus,dotcolour,alfa,,,116,19,V,R,
147,21,21,3,1,33,47,1150,['n'],1,right,['2'],5,619,[-0.00850094],52,47,medium,minus,dotcolour,alfa,,,116,19,V,R,
148,22,22,3,1,36,44,1066,['n'],1,right,['2'],5,440,[-0.12851531],85,44,hard,minus,dotcolour,alfa,,,116,19,V,R,
149,23,23,3,1,33,47,1050,['n'],1,right,['1'],6,478,[-0.18835017],92,47,medium,minus,dotcolour,alfa,,,116,19,V,R,
150,24,24,3,1,44,36,1066,['c'],1,left,['2'],5,561,[0.13602879],84,44,hard,minus,dotcolour,alfa,,,116,19,V,R,
151,25,25,3,1,53,27,1966,['n'],0,left,['3'],4,549,[-0.04464875],63,53,easy,minus,dotcolour,alfa,,,116,19,V,R,
152,26,26,3,1,44,36,1101,['c'],1,left,['1'],6,852,[0.14599377],81,44,hard,minus,dotcolour,alfa,,,116,19,V,R,
153,27,27,3,1,47,33,749,['c'],1,left,['1'],6,278,[0.05510617],72,47,medium,minus,dotcolour,alfa,,,116,19,V,R,
154,28,28,3,1,47,33,650,['c'],1,left,['1'],6,369,[0.18290274],94,47,medium,minus,dotcolour,alfa,,,116,19,V,R,
155,29,29,3,1,27,53,734,['n'],1,right,['1'],6,383,[-0.09641711],80,53,easy,minus,dotcolour,alfa,,,116,19,V,R,
156,30,30,3,1,44,36,783,['c'],1,left,['1'],6,337,[0.02610977],60,44,hard,minus,dotcolour,alfa,,,116,19,V,R,
157,31,31,3,1,47,33,1117,['c'],1,left,['2'],5,833,[0.22007012],90,47,medium,minus,dotcolour,alfa,,,116,19,V,R,
158,32,32,3,1,27,53,733,['n'],1,right,['1'],6,347,[-0.16540998],93,53,easy,minus,dotcolour,alfa,,,116,19,V,R,
159,33,33,3,1,53,27,684,['c'],1,left,['1'],6,307,[0.09949062],83,53,easy,minus,dotcolour,alfa,,,116,19,V,R,
160,34,34,3,1,47,33,800,['c'],1,left,['1'],6,320,[0.06072982],72,47,medium,minus,dotcolour,alfa,,,116,19,V,R,
161,35,35,3,1,47,33,633,['c'],1,left,['1'],6,275,[0.14758952],93,47,medium,minus,dotcolour,alfa,,,116,19,V,R,
162,36,36,3,1,53,27,667,['n'],0,left,['1'],6,351,[-0.01515713],56,53,easy,minus,dotcolour,alfa,,,116,19,V,R,
163,37,37,3,1,27,53,817,['n'],1,right,['1'],6,345,[-0.14209169],90,53,easy,minus,dotcolour,alfa,,,116,19,V,R,
164,38,38,3,1,44,36,616,['n'],0,left,['1'],6,396,[-0.02073585],57,44,hard,minus,dotcolour,alfa,,,116,19,V,R,
165,39,39,3,1,36,44,866,['n'],1,right,['1'],6,355,[-0.11775494],86,44,hard,minus,dotcolour,alfa,,,116,19,V,R,
166,40,40,3,1,33,47,650,['n'],1,right,['1'],6,299,[-0.07755719],78,47,medium,minus,dotcolour,alfa,,,116,19,V,R,
167,41,41,3,1,33,47,1167,['c'],0,right,['2'],5,746,[-0.02304195],44,47,medium,minus,dotcolour,alfa,,,116,19,V,R,
168,42,0,4,1,27,53,584,['n'],1,right,['1'],6,316,[-0.1026786],84,53,easy,minus,dotcolour,alfa,,,116,19,V,R,
169,43,1,4,1,36,44,701,['n'],1,right,['1'],6,396,[-0.01447212],55,44,hard,minus,dotcolour,alfa,,,116,19,V,R,
170,44,2,4,1,53,27,533,['n'],0,left,['0'],1,1112,[0.05389993],39,53,easy,minus,dotcolour,alfa,,,116,19,V,R,
171,45,3,4,1,53,27,984,['c'],1,left,['1'],6,302,[0.06649363],75,53,easy,minus,dotcolour,alfa,,,116,19,V,R,
172,46,4,4,1,47,33,1000,['n'],0,left,['3'],4,396,[-0.05537767],69,47,medium,minus,dotcolour,alfa,,,116,19,V,R,
173,47,5,4,1,33,47,966,['c'],0,right,['3'],4,830,[0.0486121],62,47,medium,minus,dotcolour,alfa,,,116,19,V,R,
174,48,6,4,1,53,27,683,['c'],1,left,['2'],5,427,[0.13553129],87,53,easy,minus,dotcolour,alfa,,,116,19,V,R,
175,49,7,4,1,36,44,850,['n'],1,right,['3'],4,424,[0.01733938],44,44,hard,minus,dotcolour,alfa,,,116,19,V,R,
176,50,8,4,1,27,53,650,['n'],1,right,['2'],5,358,[-0.06674448],73,53,easy,minus,dotcolour,alfa,,,116,19,V,R,
177,51,9,4,1,53,27,601,['c'],1,left,['1'],6,297,[0.13989938],91,53,easy,minus,dotcolour,alfa,,,116,19,V,R,
178,52,10,4,1,53,27,517,['c'],1,left,['1'],6,346,[0.10185553],83,53,easy,minus,dotcolour,alfa,,,116,19,V,R,
179,53,11,4,1,36,44,700,['n'],1,right,['1'],6,457,[-0.05724753],68,44,hard,minus,dotcolour,alfa,,,116,19,V,R,
180,54,12,4,1,27,53,716,['n'],1,right,['1'],6,371,[-0.19240598],94,53,easy,minus,dotcolour,alfa,,,116,19,V,R,
181,55,13,4,1,53,27,617,['c'],1,left,['1'],6,389,[0.12751717],86,53,easy,minus,dotcolour,alfa,,,116,19,V,R,
182,56,14,4,1,47,33,1066,['c'],1,left,['2'],5,371,[0.10567112],83,47,medium,minus,dotcolour,alfa,,,116,19,V,R,
183,57,15,4,1,53,27,668,['c'],1,left,['1'],6,290,[0.17717227],95,53,easy,minus,dotcolour,alfa,,,116,19,V,R,
184,58,16,4,1,33,47,683,['n'],1,right,['1'],6,373,[-0.13131901],87,47,medium,minus,dotcolour,alfa,,,116,19,V,R,
185,59,17,4,1,27,53,1017,['n'],1,right,['1'],6,406,[-0.14147855],88,53,easy,minus,dotcolour,alfa,,,116,19,V,R,
186,60,18,4,1,33,47,1617,['n'],1,right,['3'],4,710,[-0.22957057],92,47,medium,minus,dotcolour,alfa,,,116,19,V,R,
187,61,19,4,1,33,47,784,['n'],1,right,['1'],6,355,[-0.22138244],97,47,medium,minus,dotcolour,alfa,,,116,19,V,R,
188,62,20,4,1,44,36,984,['c'],1,left,['3'],4,382,[0.09059655],79,44,hard,minus,dotcolour,alfa,,,116,19,V,R,
189,63,21,4,1,36,44,733,['n'],1,right,['3'],4,427,[-0.16043428],90,44,hard,minus,dotcolour,alfa,,,116,19,V,R,
190,64,22,4,1,44,36,1133,['n'],0,left,['3'],4,454,[0.11884971],17,44,hard,minus,dotcolour,alfa,,,116,19,V,R,
191,65,23,4,1,44,36,984,['c'],1,left,['3'],4,365,[0.1612878],92,44,hard,minus,dotcolour,alfa,,,116,19,V,R,
192,66,24,4,1,47,33,967,['c'],1,left,['2'],5,401,[0.15948548],91,47,medium,minus,dotcolour,alfa,,,116,19,V,R,
193,67,25,4,1,27,53,917,['n'],1,right,['2'],5,701,[-0.21118405],91,53,easy,minus,dotcolour,alfa,,,116,19,V,R,
194,68,26,4,1,36,44,1350,['n'],1,right,['3'],4,317,[-0.03852676],65,44,hard,minus,dotcolour,alfa,,,116,19,V,R,
195,69,27,4,1,33,47,834,['c'],0,right,['3'],4,328,[-0.00158216],49,47,medium,minus,dotcolour,alfa,,,116,19,V,R,
196,70,28,4,1,44,36,868,['c'],1,left,['8'],3,1146,[0.09358278],69,44,hard,minus,dotcolour,alfa,,,116,19,V,R,
197,71,29,4,1,33,47,700,['n'],1,right,['3'],4,497,[-0.19625153],92,47,medium,minus,dotcolour,alfa,,,116,19,V,R,
198,72,30,4,1,47,33,1017,['c'],1,left,['2'],5,814,[0.31591584],96,47,medium,minus,dotcolour,alfa,,,116,19,V,R,
199,73,31,4,1,36,44,834,['n'],1,right,['3'],4,645,[-0.00735317],52,44,hard,minus,dotcolour,alfa,,,116,19,V,R,
200,74,32,4,1,27,53,750,['n'],1,right,['2'],5,1015,[-0.1213951],75,53,easy,minus,dotcolour,alfa,,,116,19,V,R,
201,75,33,4,1,44,36,850,['c'],1,left,['1'],6,533,[0.05674],67,44,hard,minus,dotcolour,alfa,,,116,19,V,R,
202,76,34,4,1,47,33,717,['c'],1,left,['1'],6,316,[0.08431638],79,47,medium,minus,dotcolour,alfa,,,116,19,V,R,
203,77,35,4,1,47,33,1151,['c'],1,left,['1'],6,443,[0.10095231],80,47,medium,minus,dotcolour,alfa,,,116,19,V,R,
204,78,36,4,1,33,47,667,['n'],1,right,['1'],6,392,[-0.08976596],78,47,medium,minus,dotcolour,alfa,,,116,19,V,R,
205,79,37,4,1,44,36,1034,['n'],0,left,['2'],5,592,[0.06793082],31,44,hard,minus,dotcolour,alfa,,,116,19,V,R,
206,80,38,4,1,44,36,1617,['c'],1,left,['3'],4,976,[0.01086071],52,44,hard,minus,dotcolour,alfa,,,116,19,V,R,
207,81,39,4,1,36,44,883,['c'],0,right,['2'],5,511,[-0.05386874],34,44,hard,minus,dotcolour,alfa,,,116,19,V,R,
208,82,40,4,1,27,53,634,['n'],1,right,['2'],5,355,[-0.11637721],85,53,easy,minus,dotcolour,alfa,,,116,19,V,R,
209,83,41,4,1,47,33,1001,['c'],1,left,['2'],5,621,[0.11711005],79,47,medium,minus,dotcolour,alfa,,,116,19,V,R,
210,84,0,5,1,27,53,651,['n'],1,right,['1'],6,276,[-0.16435521],94,53,easy,minus,dotcolour,alfa,,,116,19,V,R,
211,85,1,5,1,27,53,685,['n'],1,right,['2'],5,527,[-0.08727531],75,53,easy,minus,dotcolour,alfa,,,116,19,V,R,
212,86,2,5,1,47,33,783,['c'],1,left,['1'],6,299,[0.10938021],86,47,medium,minus,dotcolour,alfa,,,116,19,V,R,
213,87,3,5,1,53,27,549,['c'],1,left,['1'],6,370,[-0.05680597],30,53,easy,minus,dotcolour,alfa,,,116,19,V,R,
214,88,4,5,1,44,36,800,['c'],1,left,['1'],6,357,[0.12547846],87,44,hard,minus,dotcolour,alfa,,,116,19,V,R,
215,89,5,5,1,33,47,701,['n'],1,right,['1'],6,379,[0.00233515],49,47,medium,minus,dotcolour,alfa,,,116,19,V,R,
216,90,6,5,1,36,44,518,['n'],1,right,['1'],6,449,[-0.13726475],86,44,hard,minus,dotcolour,alfa,,,116,19,V,R,
217,91,7,5,1,47,33,600,['c'],1,left,['2'],5,392,[0.15969457],91,47,medium,minus,dotcolour,alfa,,,116,19,V,R,
218,92,8,5,1,44,36,1634,['n'],0,left,['8'],3,1088,[-0.08545809],68,44,hard,minus,dotcolour,alfa,,,116,19,V,R,
219,93,9,5,1,33,47,600,['n'],1,right,['2'],5,566,[-0.00460757],51,47,medium,minus,dotcolour,alfa,,,116,19,V,R,
220,94,10,5,1,33,47,617,['n'],1,right,['1'],6,359,[-0.1004809],82,47,medium,minus,dotcolour,alfa,,,116,19,V,R,
221,95,11,5,1,33,47,800,['n'],1,right,['2'],5,434,[-0.0580948],69,47,medium,minus,dotcolour,alfa,,,116,19,V,R,
222,96,12,5,1,53,27,767,['c'],1,left,['1'],6,347,[0.08962743],80,53,easy,minus,dotcolour,alfa,,,116,19,V,R,
223,97,13,5,1,44,36,800,['n'],0,left,['1'],6,326,[-0.06433576],73,44,hard,minus,dotcolour,alfa,,,116,19,V,R,
224,98,14,5,1,27,53,801,['n'],1,right,['1'],6,259,[-0.22778209],98,53,easy,minus,dotcolour,alfa,,,116,19,V,R,
225,99,15,5,1,36,44,700,['n'],1,right,['1'],6,269,[-0.10728076],87,44,hard,minus,dotcolour,alfa,,,116,19,V,R,
226,100,16,5,1,36,44,783,['n'],1,right,['1'],6,300,[-0.08805388],81,44,hard,minus,dotcolour,alfa,,,116,19,V,R,
227,101,17,5,1,36,44,933,['n'],1,right,['3'],4,413,[-0.19487765],94,44,hard,minus,dotcolour,alfa,,,116,19,V,R,
228,102,18,5,1,53,27,732,['c'],1,left,['2'],5,648,[0.17663421],88,53,easy,minus,dotcolour,alfa,,,116,19,V,R,
229,103,19,5,1,44,36,700,['c'],1,left,['1'],6,659,[0.05868197],66,44,hard,minus,dotcolour,alfa,,,116,19,V,R,
230,104,20,5,1,36,44,617,['n'],1,right,['2'],5,673,[-0.07663543],70,44,hard,minus,dotcolour,alfa,,,116,19,V,R,
231,105,21,5,1,44,36,700,['c'],1,left,['8'],3,1315,[0.33385633],93,44,hard,minus,dotcolour,alfa,,,116,19,V,R,
232,106,22,5,1,27,53,666,['n'],1,right,['1'],6,285,[-0.0271851],61,53,easy,minus,dotcolour,alfa,,,116,19,V,R,
233,107,23,5,1,53,27,733,['n'],0,left,['3'],4,1245,[0.02007379],46,53,easy,minus,dotcolour,alfa,,,116,19,V,R,
234,108,24,5,1,27,53,800,['n'],1,right,['1'],6,293,[-0.04460539],68,53,easy,minus,dotcolour,alfa,,,116,19,V,R,
235,109,25,5,1,44,36,850,['c'],1,left,['1'],6,489,[0.19828269],93,44,hard,minus,dotcolour,alfa,,,116,19,V,R,
236,110,26,5,1,53,27,1034,['c'],1,left,['1'],6,524,[0.06273608],69,53,easy,minus,dotcolour,alfa,,,116,19,V,R,
237,111,27,5,1,47,33,817,['n'],0,left,['2'],5,400,[-0.0241103],58,47,medium,minus,dotcolour,alfa,,,116,19,V,R,
238,112,28,5,1,44,36,1234,['n'],0,left,['8'],3,1823,[0.26682572],14,44,hard,minus,dotcolour,alfa,,,116,19,V,R,
239,113,29,5,1,27,53,733,['n'],1,right,['1'],6,250,[-0.1387635],92,53,easy,minus,dotcolour,alfa,,,116,19,V,R,
240,114,30,5,1,36,44,667,['n'],1,right,['1'],6,647,[-0.16469519],86,44,hard,minus,dotcolour,alfa,,,116,19,V,R,
241,115,31,5,1,47,33,1034,['c'],1,left,['2'],5,420,[0.10193684],80,47,medium,minus,dotcolour,alfa,,,116,19,V,R,
242,116,32,5,1,33,47,984,['c'],0,right,['3'],4,486,[0.05515438],67,47,medium,minus,dotcolour,alfa,,,116,19,V,R,
243,117,33,5,1,47,33,833,['c'],1,left,['2'],5,403,[0.02702394],59,47,medium,minus,dotcolour,alfa,,,116,19,V,R,
244,118,34,5,1,53,27,833,['c'],1,left,['1'],6,515,[0.24105318],95,53,easy,minus,dotcolour,alfa,,,116,19,V,R,
245,119,35,5,1,33,47,583,['n'],1,right,['1'],6,440,[-0.00599956],52,47,medium,minus,dotcolour,alfa,,,116,19,V,R,
246,120,36,5,1,27,53,549,['n'],1,right,['1'],6,569,[-0.25818152],96,53,easy,minus,dotcolour,alfa,,,116,19,V,R,
247,121,37,5,1,33,47,566,['n'],1,right,['1'],6,372,[-0.13696919],88,47,medium,minus,dotcolour,alfa,,,116,19,V,R,
248,122,38,5,1,47,33,734,['c'],1,left,['1'],6,313,[0.06953868],75,47,medium,minus,dotcolour,alfa,,,116,19,V,R,
249,123,39,5,1,36,44,783,['n'],1,right,['2'],5,319,[-0.11455951],86,44,hard,minus,dotcolour,alfa,,,116,19,V,R,
250,124,40,5,1,53,27,583,['n'],0,left,['0'],1,1004,[0.01261864],47,53,easy,minus,dotcolour,alfa,,,116,19,V,R,
251,125,41,5,1,47,33,933,['c'],1,left,['2'],5,399,[0.0833389],77,47,medium,minus,dotcolour,alfa,,,116,19,V,R,
252,0,0,6,2,44,36,917,['n'],0,left,['3'],4,468,[-0.00537658],57,44,hard,plus,dotcolour,alfa,,,116,19,V,R,
253,1,1,6,2,27,53,700,['n'],1,right,['2'],5,327,[-0.16425174],100,53,easy,plus,dotcolour,alfa,,,116,19,V,R,
254,2,2,6,2,33,47,650,['n'],1,right,['2'],5,521,[-0.2269542],100,47,medium,plus,dotcolour,alfa,,,116,19,V,R,
255,3,3,6,2,36,44,933,['n'],1,right,['1'],6,455,[0.00943557],38,44,hard,plus,dotcolour,alfa,,,116,19,V,R,
256,4,4,6,2,44,36,799,['c'],1,left,['1'],6,231,[0.13992277],100,44,hard,plus,dotcolour,alfa,,,116,19,V,R,
257,5,5,6,2,33,47,816,['n'],1,right,['1'],6,325,[-0.11330016],100,47,medium,plus,dotcolour,alfa,,,116,19,V,R,
258,6,6,6,2,36,44,684,['n'],1,right,['3'],4,486,[-0.06810645],97,44,hard,plus,dotcolour,alfa,,,116,19,V,R,
259,7,7,6,2,33,47,1150,['n'],1,right,['3'],4,342,[0.0322697],12,47,medium,plus,dotcolour,alfa,,,116,19,V,R,
260,8,8,6,2,53,27,617,['c'],1,left,['2'],5,369,[0.14526178],100,53,easy,plus,dotcolour,alfa,,,116,19,V,R,
261,9,9,6,2,27,53,583,['n'],1,right,['1'],6,300,[-0.18644159],100,53,easy,plus,dotcolour,alfa,,,116,19,V,R,
262,10,10,6,2,53,27,817,['c'],1,left,['1'],6,360,[0.08921951],100,53,easy,plus,dotcolour,alfa,,,116,19,V,R,
263,11,11,6,2,36,44,1200,['n'],1,right,['3'],4,475,[-0.07030247],98,44,hard,plus,dotcolour,alfa,,,116,19,V,R,
264,12,12,6,2,53,27,751,['c'],1,left,['1'],6,267,[0.23671962],100,53,easy,plus,dotcolour,alfa,,,116,19,V,R,
265,13,13,6,2,47,33,783,['c'],1,left,['1'],6,290,[0.10994643],100,47,medium,plus,dotcolour,alfa,,,116,19,V,R,
266,14,14,6,2,47,33,617,['c'],1,left,['1'],6,288,[0.18025475],100,47,medium,plus,dotcolour,alfa,,,116,19,V,R,
267,15,15,6,2,47,33,1167,['c'],1,left,['2'],5,711,[0.20554519],100,47,medium,plus,dotcolour,alfa,,,116,19,V,R,
268,16,16,6,2,44,36,617,['c'],1,left,['2'],5,306,[0.18498391],100,44,hard,plus,dotcolour,alfa,,,116,19,V,R,
269,17,17,6,2,53,27,816,['c'],1,left,['1'],6,382,[0.16752523],100,53,easy,plus,dotcolour,alfa,,,116,19,V,R,
270,18,18,6,2,47,33,916,['c'],1,left,['3'],4,372,[0.11202172],100,47,medium,plus,dotcolour,alfa,,,116,19,V,R,
271,19,19,6,2,44,36,1117,['n'],0,left,['3'],4,369,[0.01449579],30,44,hard,plus,dotcolour,alfa,,,116,19,V,R,
272,20,20,6,2,47,33,983,['c'],1,left,['3'],4,404,[0.05039738],95,47,medium,plus,dotcolour,alfa,,,116,19,V,R,
273,21,21,6,2,27,53,683,['n'],1,right,['1'],6,402,[-0.09998438],100,53,easy,plus,dotcolour,alfa,,,116,19,V,R,
274,22,22,6,2,44,36,1217,['n'],0,left,['3'],4,379,[0.01283609],32,44,hard,plus,dotcolour,alfa,,,116,19,V,R,
275,23,23,6,2,36,44,850,['c'],0,right,['3'],4,571,[0.15117532],100,44,hard,plus,dotcolour,alfa,,,116,19,V,R,
276,24,24,6,2,27,53,684,['n'],1,right,['3'],4,449,[-0.0684281],98,53,easy,plus,dotcolour,alfa,,,116,19,V,R,
277,25,25,6,2,36,44,933,['c'],0,right,['8'],3,931,[-0.07160182],6,44,hard,plus,dotcolour,alfa,,,116,19,V,R,
278,26,26,6,2,27,53,801,['n'],1,right,['2'],5,623,[-0.20209731],100,53,easy,plus,dotcolour,alfa,,,116,19,V,R,
279,27,27,6,2,47,33,1233,['c'],1,left,['1'],6,407,[0.15560107],100,47,medium,plus,dotcolour,alfa,,,116,19,V,R,
280,28,28,6,2,27,53,550,['n'],1,right,['1'],6,320,[0.02736288],15,53,easy,plus,dotcolour,alfa,,,116,19,V,R,
281,29,29,6,2,44,36,684,['n'],0,left,['3'],4,578,[-0.0740444],97,44,hard,plus,dotcolour,alfa,,,116,19,V,R,
282,30,30,6,2,33,47,1417,['c'],0,right,['3'],4,803,[0.06250739],92,47,medium,plus,dotcolour,alfa,,,116,19,V,R,
283,31,31,6,2,53,27,734,['c'],1,left,['1'],6,766,[0.01218256],62,53,easy,plus,dotcolour,alfa,,,116,19,V,R,
284,32,32,6,2,53,27,667,['c'],1,left,['1'],6,246,[0.10997093],100,53,easy,plus,dotcolour,alfa,,,116,19,V,R,
285,33,33,6,2,36,44,717,['n'],1,right,['1'],6,281,[-0.12029251],100,44,hard,plus,dotcolour,alfa,,,116,19,V,R,
286,34,34,6,2,44,36,967,['c'],1,left,['1'],6,272,[0.07432345],99,44,hard,plus,dotcolour,alfa,,,116,19,V,R,
287,35,35,6,2,53,27,700,['c'],1,left,['1'],6,235,[0.07573506],100,53,easy,plus,dotcolour,alfa,,,116,19,V,R,
288,36,36,6,2,47,33,816,['c'],1,left,['3'],4,594,[0.12584203],100,47,medium,plus,dotcolour,alfa,,,116,19,V,R,
289,37,37,6,2,33,47,599,['n'],1,right,['3'],4,331,[-0.21758689],100,47,medium,plus,dotcolour,alfa,,,116,19,V,R,
290,38,38,6,2,33,47,650,['n'],1,right,['3'],4,413,[-0.21185376],100,47,medium,plus,dotcolour,alfa,,,116,19,V,R,
291,39,39,6,2,27,53,784,['n'],1,right,['1'],6,295,[-0.18247045],100,53,easy,plus,dotcolour,alfa,,,116,19,V,R,
292,40,40,6,2,33,47,899,['c'],0,right,['1'],6,280,[0.00352636],56,47,medium,plus,dotcolour,alfa,,,116,19,V,R,
293,41,41,6,2,36,44,1100,['n'],1,right,['3'],4,1058,[-0.03089327],75,44,hard,plus,dotcolour,alfa,,,116,19,V,R,
294,42,0,7,2,36,44,1034,['n'],1,right,['3'],4,626,[0.02512276],24,44,hard,plus,dotcolour,alfa,,,116,19,V,R,
295,43,1,7,2,27,53,783,['n'],1,right,['1'],6,235,[-0.1019289],100,53,easy,plus,dotcolour,alfa,,,116,19,V,R,
296,44,2,7,2,44,36,700,['c'],1,left,['1'],6,239,[0.11919225],100,44,hard,plus,dotcolour,alfa,,,116,19,V,R,
297,45,3,7,2,53,27,668,['c'],1,left,['1'],6,179,[0.16050538],100,53,easy,plus,dotcolour,alfa,,,116,19,V,R,
298,46,4,7,2,27,53,567,['n'],1,right,['1'],6,247,[-0.07541988],100,53,easy,plus,dotcolour,alfa,,,116,19,V,R,
299,47,5,7,2,27,53,517,['n'],1,right,['1'],6,257,[-0.12249951],100,53,easy,plus,dotcolour,alfa,,,116,19,V,R,
300,48,6,7,2,44,36,817,['c'],1,left,['2'],5,455,[0.19930308],100,44,hard,plus,dotcolour,alfa,,,116,19,V,R,
301,49,7,7,2,47,33,566,['c'],1,left,['2'],5,615,[0.21129626],100,47,medium,plus,dotcolour,alfa,,,116,19,V,R,
302,50,8,7,2,33,47,749,['n'],1,right,['2'],5,187,[-0.15601719],100,47,medium,plus,dotcolour,alfa,,,116,19,V,R,
303,51,9,7,2,27,53,500,['n'],1,right,['1'],6,272,[-0.09503465],100,53,easy,plus,dotcolour,alfa,,,116,19,V,R,
304,52,10,7,2,44,36,684,['c'],1,left,['1'],6,211,[0.03179176],92,44,hard,plus,dotcolour,alfa,,,116,19,V,R,
305,53,11,7,2,33,47,583,['n'],1,right,['1'],6,220,[-0.04797372],98,47,medium,plus,dotcolour,alfa,,,116,19,V,R,
306,54,12,7,2,44,36,784,['c'],1,left,['1'],6,277,[0.04326756],95,44,hard,plus,dotcolour,alfa,,,116,19,V,R,
307,55,13,7,2,36,44,566,['n'],1,right,['1'],6,324,[0.03719123],9,44,hard,plus,dotcolour,alfa,,,116,19,V,R,
308,56,14,7,2,47,33,1033,['c'],1,left,['1'],6,264,[0.07825872],100,47,medium,plus,dotcolour,alfa,,,116,19,V,R,
309,57,15,7,2,36,44,650,['n'],1,right,['1'],6,196,[-0.12628334],100,44,hard,plus,dotcolour,alfa,,,116,19,V,R,
310,58,16,7,2,36,44,766,['n'],1,right,['1'],6,223,[-0.11760661],100,44,hard,plus,dotcolour,alfa,,,116,19,V,R,
311,59,17,7,2,36,44,835,['c'],0,right,['2'],5,469,[-0.03368584],15,44,hard,plus,dotcolour,alfa,,,116,19,V,R,
312,60,18,7,2,36,44,1218,['c'],0,right,['2'],5,651,[0.12655475],100,44,hard,plus,dotcolour,alfa,,,116,19,V,R,
313,61,19,7,2,47,33,584,['n'],0,left,['8'],3,715,[-0.09859694],99,47,medium,plus,dotcolour,alfa,,,116,19,V,R,
314,62,20,7,2,53,27,534,['c'],1,left,['1'],6,227,[0.06812865],99,53,easy,plus,dotcolour,alfa,,,116,19,V,R,
315,63,21,7,2,33,47,650,['n'],1,right,['1'],6,249,[-0.10455264],100,47,medium,plus,dotcolour,alfa,,,116,19,V,R,
316,64,22,7,2,27,53,633,['n'],1,right,['1'],6,167,[-0.11153235],100,53,easy,plus,dotcolour,alfa,,,116,19,V,R,
317,65,23,7,2,33,47,883,['n'],1,right,['2'],5,598,[-0.14852132],100,47,medium,plus,dotcolour,alfa,,,116,19,V,R,
318,66,24,7,2,53,27,667,['c'],1,left,['2'],5,341,[0.16717021],100,53,easy,plus,dotcolour,alfa,,,116,19,V,R,
319,67,25,7,2,33,47,600,['c'],0,right,['8'],3,2856,[-0.35048924],0,47,medium,plus,dotcolour,alfa,,,116,19,V,R,
320,68,26,7,2,27,53,633,['n'],1,right,['1'],6,285,[-0.08869515],100,53,easy,plus,dotcolour,alfa,,,116,19,V,R,
321,69,27,7,2,33,47,1067,['n'],1,right,['1'],6,337,[-0.12532479],100,47,medium,plus,dotcolour,alfa,,,116,19,V,R,
322,70,28,7,2,47,33,684,['n'],0,left,['1'],6,263,[0.01482645],26,47,medium,plus,dotcolour,alfa,,,116,19,V,R,
323,71,29,7,2,44,36,733,['c'],1,left,['2'],5,593,[0.21325703],100,44,hard,plus,dotcolour,alfa,,,116,19,V,R,
324,72,30,7,2,27,53,600,['n'],1,right,['1'],6,546,[-0.23558229],100,53,easy,plus,dotcolour,alfa,,,116,19,V,R,
325,73,31,7,2,47,33,632,['c'],1,left,['2'],5,445,[0.13309624],100,47,medium,plus,dotcolour,alfa,,,116,19,V,R,
326,74,32,7,2,47,33,817,['c'],1,left,['1'],6,323,[0.01676211],74,47,medium,plus,dotcolour,alfa,,,116,19,V,R,
327,75,33,7,2,53,27,600,['c'],1,left,['1'],6,271,[0.06173912],99,53,easy,plus,dotcolour,alfa,,,116,19,V,R,
328,76,34,7,2,53,27,467,['c'],1,left,['1'],6,234,[0.11381585],100,53,easy,plus,dotcolour,alfa,,,116,19,V,R,
329,77,35,7,2,33,47,600,['n'],1,right,['1'],6,227,[-0.08562952],100,47,medium,plus,dotcolour,alfa,,,116,19,V,R,
330,78,36,7,2,47,33,582,['c'],1,left,['1'],6,171,[0.13390849],100,47,medium,plus,dotcolour,alfa,,,116,19,V,R,
331,79,37,7,2,53,27,666,['c'],1,left,['1'],6,155,[0.11828754],100,53,easy,plus,dotcolour,alfa,,,116,19,V,R,
332,80,38,7,2,53,27,450,['c'],1,left,['1'],6,125,[0.08854485],100,53,easy,plus,dotcolour,alfa,,,116,19,V,R,
333,81,39,7,2,36,44,500,['c'],0,right,['1'],6,173,[0.03881002],97,44,hard,plus,dotcolour,alfa,,,116,19,V,R,
334,82,40,7,2,44,36,617,['n'],0,left,['1'],6,198,[-0.06025072],99,44,hard,plus,dotcolour,alfa,,,116,19,V,R,
335,83,41,7,2,44,36,500,['c'],1,left,['1'],6,235,[0.03687308],94,44,hard,plus,dotcolour,alfa,,,116,19,V,R,
336,84,0,8,2,44,36,717,['c'],1,left,['1'],6,214,[0.1000804],100,44,hard,plus,dotcolour,alfa,,,116,19,V,R,
337,85,1,8,2,27,53,600,['n'],1,right,['2'],5,214,[-0.02343227],86,53,easy,plus,dotcolour,alfa,,,116,19,V,R,
338,86,2,8,2,47,33,800,['c'],1,left,['3'],4,527,[0.16568569],100,47,medium,plus,dotcolour,alfa,,,116,19,V,R,
339,87,3,8,2,44,36,767,['c'],1,left,['3'],4,204,[0.09926853],100,44,hard,plus,dotcolour,alfa,,,116,19,V,R,
340,88,4,8,2,47,33,650,['c'],1,left,['1'],6,699,[-0.04234655],14,47,medium,plus,dotcolour,alfa,,,116,19,V,R,
341,89,5,8,2,27,53,633,['n'],1,right,['1'],6,200,[-0.17684916],100,53,easy,plus,dotcolour,alfa,,,116,19,V,R,
342,90,6,8,2,44,36,767,['c'],1,left,['1'],6,210,[0.03304364],93,44,hard,plus,dotcolour,alfa,,,116,19,V,R,
343,91,7,8,2,33,47,534,['n'],1,right,['1'],6,181,[-0.05786105],99,47,medium,plus,dotcolour,alfa,,,116,19,V,R,
344,92,8,8,2,27,53,783,['n'],1,right,['1'],6,216,[-0.12771648],100,53,easy,plus,dotcolour,alfa,,,116,19,V,R,
345,93,9,8,2,36,44,900,['c'],0,right,['3'],4,189,[0.08421207],100,44,hard,plus,dotcolour,alfa,,,116,19,V,R,
346,94,10,8,2,44,36,766,['c'],1,left,['3'],4,191,[0.09538461],100,44,hard,plus,dotcolour,alfa,,,116,19,V,R,
347,95,11,8,2,47,33,632,['c'],1,left,['3'],4,176,[0.0314507],94,47,medium,plus,dotcolour,alfa,,,116,19,V,R,
348,96,12,8,2,47,33,583,['c'],1,left,['1'],6,626,[0.11398195],99,47,medium,plus,dotcolour,alfa,,,116,19,V,R,
349,97,13,8,2,47,33,566,['c'],1,left,['1'],6,155,[0.0699176],100,47,medium,plus,dotcolour,alfa,,,116,19,V,R,
350,98,14,8,2,53,27,617,['c'],1,left,['1'],6,214,[0.05433932],99,53,easy,plus,dotcolour,alfa,,,116,19,V,R,
351,99,15,8,2,53,27,483,['c'],1,left,['1'],6,115,[0.13098763],100,53,easy,plus,dotcolour,alfa,,,116,19,V,R,
352,100,16,8,2,36,44,617,['n'],1,right,['1'],6,183,[-0.14645166],100,44,hard,plus,dotcolour,alfa,,,116,19,V,R,
353,101,17,8,2,53,27,567,['c'],1,left,['1'],6,170,[0.17455686],100,53,easy,plus,dotcolour,alfa,,,116,19,V,R,
354,102,18,8,2,33,47,617,['n'],1,right,['1'],6,181,[-0.11044227],100,47,medium,plus,dotcolour,alfa,,,116,19,V,R,
355,103,19,8,2,53,27,600,['c'],1,left,['1'],6,127,[0.14770895],100,53,easy,plus,dotcolour,alfa,,,116,19,V,R,
356,104,20,8,2,27,53,500,['n'],1,right,['1'],6,215,[-0.00345286],57,53,easy,plus,dotcolour,alfa,,,116,19,V,R,
357,105,21,8,2,36,44,683,['c'],0,right,['1'],6,196,[0.00660675],63,44,hard,plus,dotcolour,alfa,,,116,19,V,R,
358,106,22,8,2,27,53,517,['n'],1,right,['1'],6,145,[-0.15002592],100,53,easy,plus,dotcolour,alfa,,,116,19,V,R,
359,107,23,8,2,33,47,633,['n'],1,right,['1'],6,131,[-0.03636612],97,47,medium,plus,dotcolour,alfa,,,116,19,V,R,
360,108,24,8,2,33,47,700,['n'],1,right,['1'],6,203,[-0.07379857],100,47,medium,plus,dotcolour,alfa,,,116,19,V,R,
361,109,25,8,2,27,53,583,['n'],1,right,['1'],6,205,[-0.09483061],100,53,easy,plus,dotcolour,alfa,,,116,19,V,R,
362,110,26,8,2,36,44,550,['n'],1,right,['3'],4,504,[-0.01527033],68,44,hard,plus,dotcolour,alfa,,,116,19,V,R,
363,111,27,8,2,36,44,583,['n'],1,right,['3'],4,118,[-0.01883361],88,44,hard,plus,dotcolour,alfa,,,116,19,V,R,
364,112,28,8,2,53,27,552,['c'],1,left,['1'],6,148,[0.05135581],99,53,easy,plus,dotcolour,alfa,,,116,19,V,R,
365,113,29,8,2,47,33,567,['n'],0,left,['1'],6,169,[-0.00319683],57,47,medium,plus,dotcolour,alfa,,,116,19,V,R,
366,114,30,8,2,36,44,467,['n'],1,right,['1'],6,177,[-0.09381859],100,44,hard,plus,dotcolour,alfa,,,116,19,V,R,
367,115,31,8,2,44,36,550,['c'],1,left,['1'],6,157,[0.07748301],100,44,hard,plus,dotcolour,alfa,,,116,19,V,R,
368,116,32,8,2,44,36,617,['n'],0,left,['1'],6,119,[-0.07735554],100,44,hard,plus,dotcolour,alfa,,,116,19,V,R,
369,117,33,8,2,33,47,733,['c'],0,right,['2'],5,358,[0.14829919],100,47,medium,plus,dotcolour,alfa,,,116,19,V,R,
370,118,34,8,2,47,33,684,['c'],1,left,['1'],6,173,[0.18446864],100,47,medium,plus,dotcolour,alfa,,,116,19,V,R,
371,119,35,8,2,33,47,617,['n'],1,right,['1'],6,287,[-0.14416041],100,47,medium,plus,dotcolour,alfa,,,116,19,V,R,
372,120,36,8,2,53,27,767,['c'],1,left,['1'],6,502,[0.06998211],97,53,easy,plus,dotcolour,alfa,,,116,19,V,R,
373,121,37,8,2,33,47,667,['n'],1,right,['1'],6,281,[-0.04035496],94,47,medium,plus,dotcolour,alfa,,,116,19,V,R,
374,122,38,8,2,44,36,783,['c'],1,left,['2'],5,239,[0.10025106],100,44,hard,plus,dotcolour,alfa,,,116,19,V,R,
375,123,39,8,2,36,44,1351,['c'],0,right,['3'],4,681,[-0.01535704],34,44,hard,plus,dotcolour,alfa,,,116,19,V,R,
376,124,40,8,2,27,53,533,['n'],1,right,['1'],6,170,[-0.07507252],100,53,easy,plus,dotcolour,alfa,,,116,19,V,R,
377,125,41,8,2,53,27,601,['c'],1,left,['1'],6,164,[0.02108113],87,53,easy,plus,dotcolour,alfa,,,116,19,V,R,
378,0,0,9,3,44,36,1701,['c'],1,left,['2'],5,691,[0.15995936],85,44,hard,minus,dotcolour,alfa,,,116,19,V,R,
379,1,1,9,3,47,33,617,['c'],1,left,['1'],6,233,[0.05857396],75,47,medium,minus,dotcolour,alfa,,,116,19,V,R,
380,2,2,9,3,44,36,517,['c'],1,left,['1'],6,171,[0.06044174],79,44,hard,minus,dotcolour,alfa,,,116,19,V,R,
381,3,3,9,3,27,53,534,['n'],1,right,['1'],6,145,[-0.11740843],94,53,easy,minus,dotcolour,alfa,,,116,19,V,R,
382,4,4,9,3,27,53,433,['n'],1,right,['1'],6,171,[-0.07816058],85,53,easy,minus,dotcolour,alfa,,,116,19,V,R,
383,5,5,9,3,53,27,550,['c'],1,left,['1'],6,175,[0.08002193],85,53,easy,minus,dotcolour,alfa,,,116,19,V,R,
384,6,6,9,3,33,47,449,['n'],1,right,['1'],6,144,[-0.16092561],98,47,medium,minus,dotcolour,alfa,,,116,19,V,R,
385,7,7,9,3,44,36,517,['c'],1,left,['1'],6,150,[0.08289741],87,44,hard,minus,dotcolour,alfa,,,116,19,V,R,
386,8,8,9,3,27,53,500,['c'],0,right,['1'],6,221,[-0.02553291],38,53,easy,minus,dotcolour,alfa,,,116,19,V,R,
387,9,9,9,3,33,47,535,['n'],1,right,['1'],6,161,[-0.16406736],98,47,medium,minus,dotcolour,alfa,,,116,19,V,R,
388,10,10,9,3,33,47,434,['n'],1,right,['1'],6,194,[-0.07471106],82,47,medium,minus,dotcolour,alfa,,,116,19,V,R,
389,11,11,9,3,47,33,750,['c'],1,left,['1'],6,205,[0.08063767],83,47,medium,minus,dotcolour,alfa,,,116,19,V,R,
390,12,12,9,3,36,44,500,['c'],0,right,['1'],6,219,[0.09762395],87,44,hard,minus,dotcolour,alfa,,,116,19,V,R,
391,13,13,9,3,27,53,600,['n'],1,right,['1'],6,155,[-0.04876332],75,53,easy,minus,dotcolour,alfa,,,116,19,V,R,
392,14,14,9,3,36,44,484,['n'],1,right,['2'],5,315,[-0.05015916],69,44,hard,minus,dotcolour,alfa,,,116,19,V,R,
393,15,15,9,3,53,27,600,['c'],1,left,['1'],6,216,[0.07845895],82,53,easy,minus,dotcolour,alfa,,,116,19,V,R,
394,16,16,9,3,27,53,549,['n'],1,right,['1'],6,330,[-0.07689842],77,53,easy,minus,dotcolour,alfa,,,116,19,V,R,
395,17,17,9,3,47,33,617,['c'],1,left,['2'],5,837,[0.14568232],81,47,medium,minus,dotcolour,alfa,,,116,19,V,R,
396,18,18,9,3,44,36,650,['c'],1,left,['2'],5,411,[0.23682691],97,44,hard,minus,dotcolour,alfa,,,116,19,V,R,
397,19,19,9,3,47,33,634,['c'],1,left,['1'],6,210,[0.07049491],80,47,medium,minus,dotcolour,alfa,,,116,19,V,R,
398,20,20,9,3,33,47,583,['n'],1,right,['1'],6,211,[-0.11602779],91,47,medium,minus,dotcolour,alfa,,,116,19,V,R,
399,21,21,9,3,33,47,716,['n'],1,right,['1'],6,288,[-0.12622034],89,47,medium,minus,dotcolour,alfa,,,116,19,V,R,
400,22,22,9,3,44,36,784,['c'],1,left,['1'],6,255,[0.04976943],71,44,hard,minus,dotcolour,alfa,,,116,19,V,R,
401,23,23,9,3,36,44,583,['n'],1,right,['2'],5,278,[-0.12724052],90,44,hard,minus,dotcolour,alfa,,,116,19,V,R,
402,24,24,9,3,33,47,533,['n'],1,right,['1'],6,271,[-0.13000592],90,47,medium,minus,dotcolour,alfa,,,116,19,V,R,
403,25,25,9,3,27,53,967,['c'],0,right,['3'],4,647,[-0.03742573],40,53,easy,minus,dotcolour,alfa,,,116,19,V,R,
404,26,26,9,3,53,27,518,['n'],0,left,['8'],3,1081,[0.21290983],14,53,easy,minus,dotcolour,alfa,,,116,19,V,R,
405,27,27,9,3,53,27,717,['c'],1,left,['1'],6,259,[0.08480837],82,53,easy,minus,dotcolour,alfa,,,116,19,V,R,
406,28,28,9,3,47,33,667,['c'],1,left,['2'],5,679,[0.15544934],85,47,medium,minus,dotcolour,alfa,,,116,19,V,R,
407,29,29,9,3,53,27,567,['c'],1,left,['1'],6,270,[0.09907496],85,53,easy,minus,dotcolour,alfa,,,116,19,V,R,
408,30,30,9,3,27,53,567,['n'],1,right,['1'],6,230,[-0.15137208],94,53,easy,minus,dotcolour,alfa,,,116,19,V,R,
409,31,31,9,3,44,36,684,['c'],1,left,['3'],4,475,[0.08187592],74,44,hard,minus,dotcolour,alfa,,,116,19,V,R,
410,32,32,9,3,47,33,600,['c'],1,left,['3'],4,449,[-0.03870396],37,47,medium,minus,dotcolour,alfa,,,116,19,V,R,
411,33,33,9,3,47,33,651,['c'],1,left,['3'],4,295,[-0.00217152],49,47,medium,minus,dotcolour,alfa,,,116,19,V,R,
412,34,34,9,3,36,44,617,['n'],1,right,['8'],3,691,[0.0094953],47,44,hard,minus,dotcolour,alfa,,,116,19,V,R,
413,35,35,9,3,33,47,1016,['n'],1,right,['8'],3,808,[-0.09933565],73,47,medium,minus,dotcolour,alfa,,,116,19,V,R,
414,36,36,9,3,53,27,834,['c'],1,left,['2'],5,447,[0.23798708],96,53,easy,minus,dotcolour,alfa,,,116,19,V,R,
415,37,37,9,3,36,44,683,['n'],1,right,['1'],6,531,[-0.04421652],63,44,hard,minus,dotcolour,alfa,,,116,19,V,R,
416,38,38,9,3,44,36,783,['c'],1,left,['3'],4,239,[0.07703453],81,44,hard,minus,dotcolour,alfa,,,116,19,V,R,
417,39,39,9,3,53,27,601,['c'],1,left,['1'],6,287,[0.0278425],61,53,easy,minus,dotcolour,alfa,,,116,19,V,R,
418,40,40,9,3,36,44,784,['n'],1,right,['1'],6,317,[-0.05835753],72,44,hard,minus,dotcolour,alfa,,,116,19,V,R,
419,41,41,9,3,36,44,1249,['n'],1,right,['2'],5,200,[-0.12405833],92,44,hard,minus,dotcolour,alfa,,,116,19,V,R,
420,42,0,10,3,44,36,1250,['n'],0,left,['3'],4,974,[-0.10957538],73,44,hard,minus,dotcolour,alfa,,,116,19,V,R,
421,43,1,10,3,33,47,1017,['n'],1,right,['3'],4,471,[-0.05569975],67,47,medium,minus,dotcolour,alfa,,,116,19,V,R,
422,44,2,10,3,47,33,933,['c'],1,left,['1'],6,167,[0.12554398],94,47,medium,minus,dotcolour,alfa,,,116,19,V,R,
423,45,3,10,3,27,53,633,['n'],1,right,['1'],6,217,[-0.12062686],91,53,easy,minus,dotcolour,alfa,,,116,19,V,R,
424,46,4,10,3,44,36,1017,['c'],1,left,['2'],5,217,[0.17667231],97,44,hard,minus,dotcolour,alfa,,,116,19,V,R,
425,47,5,10,3,44,36,1200,['n'],0,left,['2'],5,265,[-0.03677995],66,44,hard,minus,dotcolour,alfa,,,116,19,V,R,
426,48,6,10,3,33,47,850,['c'],0,right,['2'],5,270,[0.05877594],73,47,medium,minus,dotcolour,alfa,,,116,19,V,R,
427,49,7,10,3,27,53,900,['c'],0,right,['2'],5,248,[0.0171979],58,53,easy,minus,dotcolour,alfa,,,116,19,V,R,
428,50,8,10,3,53,27,650,['c'],1,left,['2'],5,246,[0.01545449],57,53,easy,minus,dotcolour,alfa,,,116,19,V,R,
429,51,9,10,3,44,36,983,['c'],1,left,['1'],6,278,[0.03924204],66,44,hard,minus,dotcolour,alfa,,,116,19,V,R,
430,52,10,10,3,53,27,717,['c'],1,left,['1'],6,175,[0.13079812],94,53,easy,minus,dotcolour,alfa,,,116,19,V,R,
431,53,11,10,3,47,33,716,['c'],1,left,['1'],6,229,[0.16781768],96,47,medium,minus,dotcolour,alfa,,,116,19,V,R,
432,54,12,10,3,27,53,517,['n'],1,right,['1'],6,112,[-0.0043147],53,53,easy,minus,dotcolour,alfa,,,116,19,V,R,
433,55,13,10,3,33,47,733,['c'],0,right,['1'],6,144,[0.07986332],87,47,medium,minus,dotcolour,alfa,,,116,19,V,R,
434,56,14,10,3,47,33,799,['c'],1,left,['1'],6,220,[0.09178567],85,47,medium,minus,dotcolour,alfa,,,116,19,V,R,
435,57,15,10,3,36,44,617,['c'],0,right,['2'],5,339,[-0.0255521],40,44,hard,minus,dotcolour,alfa,,,116,19,V,R,
436,58,16,10,3,44,36,766,['c'],1,left,['2'],5,264,[0.17141936],95,44,hard,minus,dotcolour,alfa,,,116,19,V,R,
437,59,17,10,3,33,47,616,['n'],1,right,['1'],6,245,[-0.06962887],78,47,medium,minus,dotcolour,alfa,,,116,19,V,R,
438,60,18,10,3,53,27,900,['c'],1,left,['1'],6,257,[0.19729248],97,53,easy,minus,dotcolour,alfa,,,116,19,V,R,
439,61,19,10,3,53,27,616,['c'],1,left,['1'],6,159,[0.08599158],87,53,easy,minus,dotcolour,alfa,,,116,19,V,R,
440,62,20,10,3,47,33,1017,['c'],1,left,['1'],6,1201,[0.07171107],64,47,medium,minus,dotcolour,alfa,,,116,19,V,R,
441,63,21,10,3,53,27,534,['c'],1,left,['1'],6,196,[0.11035002],90,53,easy,minus,dotcolour,alfa,,,116,19,V,R,
442,64,22,10,3,36,44,800,['n'],1,right,['2'],5,286,[-0.03227175],63,44,hard,minus,dotcolour,alfa,,,116,19,V,R,
443,65,23,10,3,36,44,1067,['n'],1,right,['1'],6,177,[-0.09266392],88,44,hard,minus,dotcolour,alfa,,,116,19,V,R,
444,66,24,10,3,53,27,600,['c'],1,left,['1'],6,171,[0.09234306],88,53,easy,minus,dotcolour,alfa,,,116,19,V,R,
445,67,25,10,3,36,44,800,['n'],1,right,['1'],6,229,[-0.13379611],93,44,hard,minus,dotcolour,alfa,,,116,19,V,R,
446,68,26,10,3,44,36,700,['c'],1,left,['2'],5,994,[0.20412663],86,44,hard,minus,dotcolour,alfa,,,116,19,V,R,
447,69,27,10,3,36,44,918,['n'],1,right,['1'],6,422,[-0.10709303],82,44,hard,minus,dotcolour,alfa,,,116,19,V,R,
448,70,28,10,3,44,36,734,['c'],1,left,['1'],6,225,[0.08444836],83,44,hard,minus,dotcolour,alfa,,,116,19,V,R,
449,71,29,10,3,27,53,1102,['n'],1,right,['1'],6,181,[-0.15802889],97,53,easy,minus,dotcolour,alfa,,,116,19,V,R,
450,72,30,10,3,53,27,834,['c'],1,left,['1'],6,149,[-0.02050256],38,53,easy,minus,dotcolour,alfa,,,116,19,V,R,
451,73,31,10,3,36,44,716,['n'],1,right,['1'],6,92,[-0.06771346],88,44,hard,minus,dotcolour,alfa,,,116,19,V,R,
452,74,32,10,3,36,44,834,['c'],0,right,['1'],6,272,[0.08479561],81,44,hard,minus,dotcolour,alfa,,,116,19,V,R,
453,75,33,10,3,33,47,851,['n'],1,right,['1'],6,228,[-0.07578312],81,47,medium,minus,dotcolour,alfa,,,116,19,V,R,
454,76,34,10,3,27,53,1300,['n'],1,right,['1'],6,632,[-0.04486869],62,53,easy,minus,dotcolour,alfa,,,116,19,V,R,
455,77,35,10,3,47,33,651,['c'],1,left,['1'],6,166,[0.1131836],92,47,medium,minus,dotcolour,alfa,,,116,19,V,R,
456,78,36,10,3,27,53,567,['n'],1,right,['1'],6,187,[-0.029934],65,53,easy,minus,dotcolour,alfa,,,116,19,V,R,
457,79,37,10,3,47,33,701,['c'],1,left,['1'],6,169,[0.06108164],79,47,medium,minus,dotcolour,alfa,,,116,19,V,R,
458,80,38,10,3,33,47,900,['n'],1,right,['1'],6,767,[-0.12832145],79,47,medium,minus,dotcolour,alfa,,,116,19,V,R,
459,81,39,10,3,33,47,883,['c'],0,right,['1'],6,246,[0.01399977],56,47,medium,minus,dotcolour,alfa,,,116,19,V,R,
460,82,40,10,3,27,53,750,['n'],1,right,['1'],6,144,[-0.18364367],99,53,easy,minus,dotcolour,alfa,,,116,19,V,R,
461,83,41,10,3,47,33,717,['c'],1,left,['1'],6,254,[0.14153965],93,47,medium,minus,dotcolour,alfa,,,116,19,V,R,
462,84,0,11,3,47,33,651,['c'],1,left,['1'],6,162,[0.09638827],90,47,medium,minus,dotcolour,alfa,,,116,19,V,R,
463,85,1,11,3,36,44,700,['n'],1,right,['1'],6,121,[-0.0284564],68,44,hard,minus,dotcolour,alfa,,,116,19,V,R,
464,86,2,11,3,33,47,584,['n'],1,right,['1'],6,110,[-0.05824659],83,47,medium,minus,dotcolour,alfa,,,116,19,V,R,
465,87,3,11,3,33,47,850,['c'],0,right,['1'],6,169,[0.0648952],81,47,medium,minus,dotcolour,alfa,,,116,19,V,R,
466,88,4,11,3,27,53,617,['n'],1,right,['1'],6,163,[-0.09084369],88,53,easy,minus,dotcolour,alfa,,,116,19,V,R,
467,89,5,11,3,47,33,666,['c'],1,left,['1'],6,195,[0.07630323],83,47,medium,minus,dotcolour,alfa,,,116,19,V,R,
468,90,6,11,3,47,33,700,['c'],1,left,['2'],5,417,[0.09959977],80,47,medium,minus,dotcolour,alfa,,,116,19,V,R,
469,91,7,11,3,47,33,766,['c'],1,left,['2'],5,194,[0.07409772],82,47,medium,minus,dotcolour,alfa,,,116,19,V,R,
470,92,8,11,3,44,36,566,['c'],1,left,['2'],5,293,[0.15504063],93,44,hard,minus,dotcolour,alfa,,,116,19,V,R,
471,93,9,11,3,44,36,767,['n'],0,left,['2'],5,211,[-0.08138232],83,44,hard,minus,dotcolour,alfa,,,116,19,V,R,
472,94,10,11,3,33,47,867,['n'],1,right,['3'],4,354,[-0.07105942],75,47,medium,minus,dotcolour,alfa,,,116,19,V,R,
473,95,11,11,3,27,53,600,['n'],1,right,['1'],6,197,[-0.12758345],93,53,easy,minus,dotcolour,alfa,,,116,19,V,R,
474,96,12,11,3,44,36,1417,['c'],1,left,['3'],4,334,[0.13522272],89,44,hard,minus,dotcolour,alfa,,,116,19,V,R,
475,97,13,11,3,53,27,683,['c'],1,left,['3'],4,230,[0.07637323],81,53,easy,minus,dotcolour,alfa,,,116,19,V,R,
476,98,14,11,3,33,47,750,['n'],1,right,['3'],4,240,[-0.05275293],72,47,medium,minus,dotcolour,alfa,,,116,19,V,R,
477,99,15,11,3,33,47,850,['n'],1,right,['2'],5,245,[-0.06520384],77,47,medium,minus,dotcolour,alfa,,,116,19,V,R,
478,100,16,11,3,47,33,1018,['c'],1,left,['1'],6,973,[0.43050317],98,47,medium,minus,dotcolour,alfa,,,116,19,V,R,
479,101,17,11,3,27,53,583,['n'],1,right,['1'],6,215,[-0.10282353],88,53,easy,minus,dotcolour,alfa,,,116,19,V,R,
480,102,18,11,3,44,36,1283,['c'],1,left,['1'],6,700,[0.15706951],84,44,hard,minus,dotcolour,alfa,,,116,19,V,R,
481,103,19,11,3,36,44,1233,['c'],0,right,['1'],6,560,[-0.02333962],43,44,hard,minus,dotcolour,alfa,,,116,19,V,R,
482,104,20,11,3,44,36,651,['n'],0,left,['1'],6,161,[-0.0360408],69,44,hard,minus,dotcolour,alfa,,,116,19,V,R,
483,105,21,11,3,36,44,717,['n'],1,right,['1'],6,175,[-0.06160528],79,44,hard,minus,dotcolour,alfa,,,116,19,V,R,
484,106,22,11,3,53,27,667,['c'],1,left,['1'],6,158,[-0.00256536],49,53,easy,minus,dotcolour,alfa,,,116,19,V,R,
485,107,23,11,3,47,33,750,['c'],1,left,['3'],4,275,[0.11179847],87,47,medium,minus,dotcolour,alfa,,,116,19,V,R,
486,108,24,11,3,36,44,550,['n'],1,right,['2'],5,123,[-0.07618319],88,44,hard,minus,dotcolour,alfa,,,116,19,V,R,
487,109,25,11,3,27,53,652,['n'],1,right,['2'],5,173,[-0.09036476],88,53,easy,minus,dotcolour,alfa,,,116,19,V,R,
488,110,26,11,3,47,33,667,['c'],1,left,['2'],5,172,[0.0519563],76,47,medium,minus,dotcolour,alfa,,,116,19,V,R,
489,111,27,11,3,33,47,583,['n'],1,right,['2'],5,143,[-0.0658597],83,47,medium,minus,dotcolour,alfa,,,116,19,V,R,
490,112,28,11,3,36,44,650,['n'],1,right,['2'],5,113,[-0.08523401],91,44,hard,minus,dotcolour,alfa,,,116,19,V,R,
491,113,29,11,3,44,36,617,['c'],1,left,['0'],1,941,[0.2097012],87,44,hard,minus,dotcolour,alfa,,,116,19,V,R,
492,114,30,11,3,36,44,849,['n'],1,right,['3'],4,1838,[-0.17039602],76,44,hard,minus,dotcolour,alfa,,,116,19,V,R,
493,115,31,11,3,53,27,567,['n'],0,left,['1'],6,175,[-0.05681098],77,53,easy,minus,dotcolour,alfa,,,116,19,V,R,
494,116,32,11,3,27,53,600,['n'],1,right,['1'],6,129,[-0.11863591],95,53,easy,minus,dotcolour,alfa,,,116,19,V,R,
495,117,33,11,3,53,27,634,['n'],0,left,['0'],1,868,[0.21648588],11,53,easy,minus,dotcolour,alfa,,,116,19,V,R,
496,118,34,11,3,36,44,1017,['c'],0,right,['2'],5,601,[0.00902179],53,44,hard,minus,dotcolour,alfa,,,116,19,V,R,
497,119,35,11,3,27,53,566,['n'],1,right,['1'],6,292,[-0.08882273],81,53,easy,minus,dotcolour,alfa,,,116,19,V,R,
498,120,36,11,3,53,27,784,['c'],1,left,['1'],6,146,[0.10610728],92,53,easy,minus,dotcolour,alfa,,,116,19,V,R,
499,121,37,11,3,33,47,784,['n'],1,right,['2'],5,277,[-0.19388748],96,47,medium,minus,dotcolour,alfa,,,116,19,V,R,
500,122,38,11,3,53,27,1166,['c'],1,left,['1'],6,181,[0.07980467],84,53,easy,minus,dotcolour,alfa,,,116,19,V,R,
501,123,39,11,3,44,36,599,['c'],1,left,['1'],6,191,[0.16285395],97,44,hard,minus,dotcolour,alfa,,,116,19,V,R,
502,124,40,11,3,27,53,633,['n'],1,right,['1'],6,199,[-0.18141895],97,53,easy,minus,dotcolour,alfa,,,116,19,V,R,
503,125,41,11,3,53,27,817,['c'],1,left,['1'],6,288,[0.08762234],81,53,easy,minus,dotcolour,alfa,,,116,19,V,R,
504,0,0,12,4,44,36,868,['c'],1,left,['1'],6,177,[0.10994011],100,44,hard,plus,dotcolour,alfa,,,116,19,V,R,
505,1,1,12,4,36,44,817,['n'],1,right,['1'],6,154,[-0.14851461],100,44,hard,plus,dotcolour,alfa,,,116,19,V,R,
506,2,2,12,4,33,47,650,['n'],1,right,['1'],6,148,[-0.08705736],100,47,medium,plus,dotcolour,alfa,,,116,19,V,R,
507,3,3,12,4,53,27,650,['c'],1,left,['1'],6,190,[0.11062214],100,53,easy,plus,dotcolour,alfa,,,116,19,V,R,
508,4,4,12,4,44,36,717,['n'],0,left,['1'],6,147,[-0.05592935],99,44,hard,plus,dotcolour,alfa,,,116,19,V,R,
509,5,5,12,4,47,33,584,['c'],1,left,['1'],6,191,[0.12738047],100,47,medium,plus,dotcolour,alfa,,,116,19,V,R,
510,6,6,12,4,53,27,716,['n'],0,left,['1'],6,99,[-0.08134067],100,53,easy,plus,dotcolour,alfa,,,116,19,V,R,
511,7,7,12,4,44,36,634,['n'],0,left,['1'],6,103,[-0.06412596],100,44,hard,plus,dotcolour,alfa,,,116,19,V,R,
512,8,8,12,4,36,44,633,['n'],1,right,['1'],6,107,[-0.10204923],100,44,hard,plus,dotcolour,alfa,,,116,19,V,R,
513,9,9,12,4,44,36,866,['n'],0,left,['1'],6,141,[0.01887642],14,44,hard,plus,dotcolour,alfa,,,116,19,V,R,
514,10,10,12,4,33,47,583,['n'],1,right,['1'],6,97,[-0.07514696],100,47,medium,plus,dotcolour,alfa,,,116,19,V,R,
515,11,11,12,4,44,36,649,['n'],0,left,['1'],6,140,[-0.04768727],99,44,hard,plus,dotcolour,alfa,,,116,19,V,R,
516,12,12,12,4,53,27,617,['c'],1,left,['1'],6,175,[0.15626808],100,53,easy,plus,dotcolour,alfa,,,116,19,V,R,
517,13,13,12,4,27,53,534,['n'],1,right,['1'],6,84,[-0.08739822],100,53,easy,plus,dotcolour,alfa,,,116,19,V,R,
518,14,14,12,4,33,47,568,['n'],1,right,['1'],6,139,[-0.04271584],98,47,medium,plus,dotcolour,alfa,,,116,19,V,R,
519,15,15,12,4,47,33,483,['c'],1,left,['2'],5,516,[0.10474164],99,47,medium,plus,dotcolour,alfa,,,116,19,V,R,
520,16,16,12,4,53,27,667,['c'],1,left,['1'],6,126,[0.12752102],100,53,easy,plus,dotcolour,alfa,,,116,19,V,R,
521,17,17,12,4,33,47,584,['n'],1,right,['1'],6,82,[-0.04947557],100,47,medium,plus,dotcolour,alfa,,,116,19,V,R,
522,18,18,12,4,47,33,501,['n'],0,left,['0'],1,693,[0.12867063],0,47,medium,plus,dotcolour,alfa,,,116,19,V,R,
523,19,19,12,4,27,53,599,['n'],1,right,['1'],6,122,[-0.02905292],95,53,easy,plus,dotcolour,alfa,,,116,19,V,R,
524,20,20,12,4,36,44,566,['n'],1,right,['1'],6,104,[-0.10155588],100,44,hard,plus,dotcolour,alfa,,,116,19,V,R,
525,21,21,12,4,44,36,684,['n'],0,left,['8'],3,353,[-0.11507002],100,44,hard,plus,dotcolour,alfa,,,116,19,V,R,
526,22,22,12,4,36,44,634,['n'],1,right,['3'],4,307,[-0.14230589],100,44,hard,plus,dotcolour,alfa,,,116,19,V,R,
527,23,23,12,4,44,36,917,['c'],1,left,['2'],5,340,[0.07830671],99,44,hard,plus,dotcolour,alfa,,,116,19,V,R,
528,24,24,12,4,27,53,500,['n'],1,right,['1'],6,164,[-0.04342303],98,53,easy,plus,dotcolour,alfa,,,116,19,V,R,
529,25,25,12,4,36,44,500,['n'],1,right,['1'],6,154,[-0.04534848],98,44,hard,plus,dotcolour,alfa,,,116,19,V,R,
530,26,26,12,4,53,27,649,['c'],1,left,['3'],4,196,[0.07756688],100,53,easy,plus,dotcolour,alfa,,,116,19,V,R,
531,27,27,12,4,27,53,667,['n'],1,right,['2'],5,113,[-0.08669799],100,53,easy,plus,dotcolour,alfa,,,116,19,V,R,
532,28,28,12,4,27,53,567,['n'],1,right,['1'],6,127,[-0.13100811],100,53,easy,plus,dotcolour,alfa,,,116,19,V,R,
533,29,29,12,4,36,44,733,['c'],0,right,['1'],6,198,[0.02170127],85,44,hard,plus,dotcolour,alfa,,,116,19,V,R,
534,30,30,12,4,47,33,700,['c'],1,left,['1'],6,212,[0.15292789],100,47,medium,plus,dotcolour,alfa,,,116,19,V,R,
535,31,31,12,4,53,27,467,['c'],1,left,['1'],6,130,[0.08753436],100,53,easy,plus,dotcolour,alfa,,,116,19,V,R,
536,32,32,12,4,53,27,466,['c'],1,left,['1'],6,155,[0.06291476],100,53,easy,plus,dotcolour,alfa,,,116,19,V,R,
537,33,33,12,4,33,47,600,['n'],1,right,['1'],6,198,[-0.0537587],99,47,medium,plus,dotcolour,alfa,,,116,19,V,R,
538,34,34,12,4,36,44,1067,['n'],1,right,['3'],4,525,[-0.04275678],89,44,hard,plus,dotcolour,alfa,,,116,19,V,R,
539,35,35,12,4,47,33,600,['c'],1,left,['2'],5,265,[0.11853642],100,47,medium,plus,dotcolour,alfa,,,116,19,V,R,
540,36,36,12,4,47,33,817,['n'],0,left,['8'],3,1127,[0.01527653],37,47,medium,plus,dotcolour,alfa,,,116,19,V,R,
541,37,37,12,4,47,33,1083,['c'],1,left,['2'],5,248,[0.1090625],100,47,medium,plus,dotcolour,alfa,,,116,19,V,R,
542,38,38,12,4,27,53,934,['n'],1,right,['2'],5,474,[-0.07910017],98,53,easy,plus,dotcolour,alfa,,,116,19,V,R,
543,39,39,12,4,33,47,1433,['n'],1,right,['2'],5,478,[-0.27779917],100,47,medium,plus,dotcolour,alfa,,,116,19,V,R,
544,40,40,12,4,27,53,1117,['n'],1,right,['1'],6,199,[-0.1297673],100,53,easy,plus,dotcolour,alfa,,,116,19,V,R,
545,41,41,12,4,33,47,533,['n'],1,right,['1'],6,140,[-0.08388846],100,47,medium,plus,dotcolour,alfa,,,116,19,V,R,
546,42,0,13,4,27,53,701,['n'],1,right,['1'],6,100,[-0.03252536],98,53,easy,plus,dotcolour,alfa,,,116,19,V,R,
547,43,1,13,4,36,44,666,['n'],1,right,['1'],6,119,[-0.06990898],100,44,hard,plus,dotcolour,alfa,,,116,19,V,R,
548,44,2,13,4,33,47,650,['n'],1,right,['1'],6,97,[-0.07689323],100,47,medium,plus,dotcolour,alfa,,,116,19,V,R,
549,45,3,13,4,44,36,617,['c'],1,left,['2'],5,231,[0.07008745],99,44,hard,plus,dotcolour,alfa,,,116,19,V,R,
550,46,4,13,4,44,36,850,['n'],0,left,['1'],6,148,[-0.06972263],100,44,hard,plus,dotcolour,alfa,,,116,19,V,R,
551,47,5,13,4,53,27,650,['c'],1,left,['2'],5,181,[0.05661241],99,53,easy,plus,dotcolour,alfa,,,116,19,V,R,
552,48,6,13,4,47,33,600,['c'],1,left,['2'],5,143,[0.11247045],100,47,medium,plus,dotcolour,alfa,,,116,19,V,R,
553,49,7,13,4,53,27,700,['c'],1,left,['2'],5,191,[0.09308478],100,53,easy,plus,dotcolour,alfa,,,116,19,V,R,
554,50,8,13,4,27,53,550,['n'],1,right,['1'],6,122,[-0.08021063],100,53,easy,plus,dotcolour,alfa,,,116,19,V,R,
555,51,9,13,4,44,36,900,['c'],1,left,['1'],6,243,[0.12295319],100,44,hard,plus,dotcolour,alfa,,,116,19,V,R,
556,52,10,13,4,53,27,584,['c'],1,left,['1'],6,211,[0.12670982],100,53,easy,plus,dotcolour,alfa,,,116,19,V,R,
557,53,11,13,4,33,47,667,['c'],0,right,['1'],6,233,[0.0741233],100,47,medium,plus,dotcolour,alfa,,,116,19,V,R,
558,54,12,13,4,36,44,767,['n'],1,right,['2'],5,282,[-0.0866259],100,44,hard,plus,dotcolour,alfa,,,116,19,V,R,
559,55,13,13,4,36,44,617,['n'],1,right,['1'],6,640,[0.00157874],48,44,hard,plus,dotcolour,alfa,,,116,19,V,R,
560,56,14,13,4,27,53,517,['n'],1,right,['1'],6,242,[-0.14878048],100,53,easy,plus,dotcolour,alfa,,,116,19,V,R,
561,57,15,13,4,36,44,1117,['c'],0,right,['2'],5,277,[0.09614685],100,44,hard,plus,dotcolour,alfa,,,116,19,V,R,
562,58,16,13,4,44,36,700,['c'],1,left,['1'],6,191,[-0.02652194],10,44,hard,plus,dotcolour,alfa,,,116,19,V,R,
563,59,17,13,4,47,33,667,['c'],1,left,['1'],6,190,[0.04353175],97,47,medium,plus,dotcolour,alfa,,,116,19,V,R,
564,60,18,13,4,36,44,866,['n'],1,right,['2'],5,293,[-0.15553719],100,44,hard,plus,dotcolour,alfa,,,116,19,V,R,
565,61,19,13,4,47,33,633,['c'],1,left,['1'],6,248,[0.01375155],73,47,medium,plus,dotcolour,alfa,,,116,19,V,R,
566,62,20,13,4,53,27,667,['c'],1,left,['1'],6,237,[0.10955099],100,53,easy,plus,dotcolour,alfa,,,116,19,V,R,
567,63,21,13,4,27,53,667,['n'],1,right,['1'],6,114,[-0.15187319],100,53,easy,plus,dotcolour,alfa,,,116,19,V,R,
568,64,22,13,4,44,36,867,['c'],1,left,['1'],6,133,[0.05321112],99,44,hard,plus,dotcolour,alfa,,,116,19,V,R,
569,65,23,13,4,53,27,667,['c'],1,left,['1'],6,133,[0.09668662],100,53,easy,plus,dotcolour,alfa,,,116,19,V,R,
570,66,24,13,4,47,33,634,['c'],1,left,['1'],6,152,[0.16698129],100,47,medium,plus,dotcolour,alfa,,,116,19,V,R,
571,67,25,13,4,33,47,667,['n'],1,right,['1'],6,121,[-0.0690656],100,47,medium,plus,dotcolour,alfa,,,116,19,V,R,
572,68,26,13,4,33,47,600,['n'],1,right,['2'],5,254,[-0.05397277],98,47,medium,plus,dotcolour,alfa,,,116,19,V,R,
573,69,27,13,4,36,44,834,['n'],1,right,['2'],5,268,[-0.08706691],100,44,hard,plus,dotcolour,alfa,,,116,19,V,R,
574,70,28,13,4,33,47,800,['c'],0,right,['1'],6,194,[0.119834],100,47,medium,plus,dotcolour,alfa,,,116,19,V,R,
575,71,29,13,4,33,47,1333,['n'],1,right,['2'],5,246,[-0.12435434],100,47,medium,plus,dotcolour,alfa,,,116,19,V,R,
576,72,30,13,4,47,33,733,['c'],1,left,['1'],6,153,[0.04767504],99,47,medium,plus,dotcolour,alfa,,,116,19,V,R,
577,73,31,13,4,53,27,717,['c'],1,left,['1'],6,231,[0.09924269],100,53,easy,plus,dotcolour,alfa,,,116,19,V,R,
578,74,32,13,4,27,53,616,['n'],1,right,['2'],5,363,[-0.10040973],100,53,easy,plus,dotcolour,alfa,,,116,19,V,R,
579,75,33,13,4,27,53,684,['n'],1,right,['2'],5,157,[-0.04629284],99,53,easy,plus,dotcolour,alfa,,,116,19,V,R,
580,76,34,13,4,44,36,733,['c'],1,left,['1'],6,171,[0.06196405],100,44,hard,plus,dotcolour,alfa,,,116,19,V,R,
581,77,35,13,4,33,47,783,['n'],1,right,['1'],6,174,[-0.19391443],100,47,medium,plus,dotcolour,alfa,,,116,19,V,R,
582,78,36,13,4,47,33,650,['c'],1,left,['1'],6,151,[-0.02273277],11,47,medium,plus,dotcolour,alfa,,,116,19,V,R,
583,79,37,13,4,44,36,667,['c'],1,left,['1'],6,143,[0.11468991],100,44,hard,plus,dotcolour,alfa,,,116,19,V,R,
584,80,38,13,4,53,27,601,['c'],1,left,['2'],5,362,[0.12285822],100,53,easy,plus,dotcolour,alfa,,,116,19,V,R,
585,81,39,13,4,47,33,534,['c'],1,left,['1'],6,184,[0.09150276],100,47,medium,plus,dotcolour,alfa,,,116,19,V,R,
586,82,40,13,4,27,53,650,['n'],1,right,['1'],6,232,[-0.1609523],100,53,easy,plus,dotcolour,alfa,,,116,19,V,R,
587,83,41,13,4,36,44,850,['c'],0,right,['2'],5,310,[0.01377768],71,44,hard,plus,dotcolour,alfa,,,116,19,V,R,
588,84,0,14,4,33,47,1000,['n'],1,right,['3'],4,179,[-0.09978973],100,47,medium,plus,dotcolour,alfa,,,116,19,V,R,
589,85,1,14,4,27,53,717,['n'],1,right,['1'],6,176,[-0.05205592],99,53,easy,plus,dotcolour,alfa,,,116,19,V,R,
590,86,2,14,4,27,53,684,['n'],1,right,['1'],6,182,[-0.05066181],99,53,easy,plus,dotcolour,alfa,,,116,19,V,R,
591,87,3,14,4,27,53,600,['n'],1,right,['1'],6,184,[-0.13049721],100,53,easy,plus,dotcolour,alfa,,,116,19,V,R,
592,88,4,14,4,47,33,717,['c'],1,left,['1'],6,182,[0.14587423],100,47,medium,plus,dotcolour,alfa,,,116,19,V,R,
593,89,5,14,4,47,33,833,['c'],1,left,['1'],6,182,[0.12112864],100,47,medium,plus,dotcolour,alfa,,,116,19,V,R,
594,90,6,14,4,36,44,601,['n'],1,right,['1'],6,128,[-0.00535019],63,44,hard,plus,dotcolour,alfa,,,116,19,V,R,
595,91,7,14,4,53,27,633,['c'],1,left,['1'],6,155,[0.13516918],100,53,easy,plus,dotcolour,alfa,,,116,19,V,R,
596,92,8,14,4,36,44,666,['n'],1,right,['1'],6,212,[-0.07457082],100,44,hard,plus,dotcolour,alfa,,,116,19,V,R,
597,93,9,14,4,27,53,900,['n'],1,right,['3'],4,105,[-0.0753836],100,53,easy,plus,dotcolour,alfa,,,116,19,V,R,
598,94,10,14,4,27,53,533,['n'],1,right,['3'],4,232,[-0.14326109],100,53,easy,plus,dotcolour,alfa,,,116,19,V,R,
599,95,11,14,4,33,47,600,['n'],1,right,['2'],5,112,[-0.03064629],96,47,medium,plus,dotcolour,alfa,,,116,19,V,R,
600,96,12,14,4,36,44,568,['c'],0,right,['8'],3,630,[0.21137224],100,44,hard,plus,dotcolour,alfa,,,116,19,V,R,
601,97,13,14,4,27,53,566,['n'],1,right,['3'],4,312,[-0.17966514],100,53,easy,plus,dotcolour,alfa,,,116,19,V,R,
602,98,14,14,4,44,36,1283,['c'],1,left,['2'],5,313,[0.15278365],100,44,hard,plus,dotcolour,alfa,,,116,19,V,R,
603,99,15,14,4,33,47,883,['n'],1,right,['3'],4,731,[-0.0916702],98,47,medium,plus,dotcolour,alfa,,,116,19,V,R,
604,100,16,14,4,36,44,1018,['n'],1,right,['2'],5,534,[-0.01966126],72,44,hard,plus,dotcolour,alfa,,,116,19,V,R,
605,101,17,14,4,44,36,949,['c'],1,left,['3'],4,220,[0.12815419],100,44,hard,plus,dotcolour,alfa,,,116,19,V,R,
606,102,18,14,4,44,36,1167,['c'],1,left,['2'],5,478,[0.07632516],98,44,hard,plus,dotcolour,alfa,,,116,19,V,R,
607,103,19,14,4,36,44,900,['c'],0,right,['2'],5,240,[0.07879213],100,44,hard,plus,dotcolour,alfa,,,116,19,V,R,
608,104,20,14,4,33,47,534,['c'],0,right,['9'],2,786,[0.09783925],98,47,medium,plus,dotcolour,alfa,,,116,19,V,R,
609,105,21,14,4,53,27,700,['c'],1,left,['1'],6,191,[0.13542521],100,53,easy,plus,dotcolour,alfa,,,116,19,V,R,
610,106,22,14,4,36,44,850,['n'],1,right,['2'],5,118,[-0.00274675],57,44,hard,plus,dotcolour,alfa,,,116,19,V,R,
611,107,23,14,4,27,53,650,['c'],0,right,['1'],6,249,[-0.00428802],42,53,easy,plus,dotcolour,alfa,,,116,19,V,R,
612,108,24,14,4,44,36,767,['c'],1,left,['1'],6,226,[0.09194145],100,44,hard,plus,dotcolour,alfa,,,116,19,V,R,
613,109,25,14,4,47,33,567,['c'],1,left,['2'],5,579,[0.14126142],100,47,medium,plus,dotcolour,alfa,,,116,19,V,R,
614,110,26,14,4,53,27,749,['c'],1,left,['1'],6,232,[0.13744804],100,53,easy,plus,dotcolour,alfa,,,116,19,V,R,
615,111,27,14,4,44,36,900,['n'],0,left,['1'],6,147,[-0.06210625],100,44,hard,plus,dotcolour,alfa,,,116,19,V,R,
616,112,28,14,4,53,27,734,['c'],1,left,['1'],6,161,[0.06513367],100,53,easy,plus,dotcolour,alfa,,,116,19,V,R,
617,113,29,14,4,33,47,683,['n'],1,right,['1'],6,1648,[-0.29086001],100,47,medium,plus,dotcolour,alfa,,,116,19,V,R,
618,114,30,14,4,47,33,934,['c'],1,left,['1'],6,266,[0.05196331],97,47,medium,plus,dotcolour,alfa,,,116,19,V,R,
619,115,31,14,4,47,33,616,['n'],0,left,['1'],6,168,[-0.11827907],100,47,medium,plus,dotcolour,alfa,,,116,19,V,R,
620,116,32,14,4,47,33,717,['c'],1,left,['1'],6,150,[0.05689369],99,47,medium,plus,dotcolour,alfa,,,116,19,V,R,
621,117,33,14,4,44,36,867,['c'],1,left,['1'],6,182,[0.07289439],100,44,hard,plus,dotcolour,alfa,,,116,19,V,R,
622,118,34,14,4,33,47,633,['n'],1,right,['2'],5,207,[-0.07846888],100,47,medium,plus,dotcolour,alfa,,,116,19,V,R,
623,119,35,14,4,53,27,733,['c'],1,left,['1'],6,170,[0.10427847],100,53,easy,plus,dotcolour,alfa,,,116,19,V,R,
624,120,36,14,4,53,27,733,['c'],1,left,['1'],6,160,[0.10080256],100,53,easy,plus,dotcolour,alfa,,,116,19,V,R,
625,121,37,14,4,33,47,701,['n'],1,right,['2'],5,103,[-0.12152108],100,47,medium,plus,dotcolour,alfa,,,116,19,V,R,
626,122,38,14,4,44,36,799,['n'],0,left,['2'],5,260,[-0.07280261],99,44,hard,plus,dotcolour,alfa,,,116,19,V,R,
627,123,39,14,4,36,44,749,['n'],1,right,['2'],5,308,[-0.08680392],100,44,hard,plus,dotcolour,alfa,,,116,19,V,R,
628,124,40,14,4,47,33,717,['c'],1,left,['1'],6,148,[0.10055189],100,47,medium,plus,dotcolour,alfa,,,116,19,V,R,
629,125,41,14,4,53,27,600,['c'],1,left,['1'],6,120,[0.07094017],100,53,easy,plus,dotcolour,alfa,,,116,19,V,R,
630,0,0,15,5,44,36,783,['n'],0,left,['1'],6,69,[-0.06571478],90,44,hard,minus,dotcolour,alfa,,,116,19,V,R,
631,1,1,15,5,27,53,600,['c'],0,right,['9'],2,788,[-0.16270156],16,53,easy,minus,dotcolour,alfa,,,116,19,V,R,
632,2,2,15,5,47,33,783,['c'],1,left,['1'],6,126,[0.08849639],90,47,medium,minus,dotcolour,alfa,,,116,19,V,R,
633,3,3,15,5,47,33,582,['n'],0,left,['1'],6,90,[-0.06284697],87,47,medium,minus,dotcolour,alfa,,,116,19,V,R,
634,4,4,15,5,47,33,567,['c'],1,left,['2'],5,129,[0.12552571],96,47,medium,minus,dotcolour,alfa,,,116,19,V,R,
635,5,5,15,5,53,27,499,['c'],1,left,['1'],6,138,[0.07453034],86,53,easy,minus,dotcolour,alfa,,,116,19,V,R,
636,6,6,15,5,36,44,534,['n'],1,right,['1'],6,199,[-0.13479692],94,44,hard,minus,dotcolour,alfa,,,116,19,V,R,
637,7,7,15,5,33,47,633,['n'],1,right,['1'],6,80,[-0.05483677],85,47,medium,minus,dotcolour,alfa,,,116,19,V,R,
638,8,8,15,5,44,36,533,['n'],0,left,['1'],6,88,[-0.07134576],90,44,hard,minus,dotcolour,alfa,,,116,19,V,R,
639,9,9,15,5,36,44,282,['c'],0,right,['2'],5,107,[0.06243889],85,44,hard,minus,dotcolour,alfa,,,116,19,V,R,
640,10,10,15,5,27,53,451,['n'],1,right,['2'],5,94,[-0.06702499],88,53,easy,minus,dotcolour,alfa,,,116,19,V,R,
641,11,11,15,5,44,36,517,['c'],1,left,['1'],6,103,[0.04459044],78,44,hard,minus,dotcolour,alfa,,,116,19,V,R,
642,12,12,15,5,27,53,533,['n'],1,right,['2'],5,174,[-0.1729482],98,53,easy,minus,dotcolour,alfa,,,116,19,V,R,
643,13,13,15,5,36,44,483,['n'],1,right,['1'],6,157,[-0.04314638],73,44,hard,minus,dotcolour,alfa,,,116,19,V,R,
644,14,14,15,5,53,27,600,['c'],1,left,['1'],6,160,[0.09054326],88,53,easy,minus,dotcolour,alfa,,,116,19,V,R,
645,15,15,15,5,53,27,484,['c'],1,left,['1'],6,127,[0.11697051],95,53,easy,minus,dotcolour,alfa,,,116,19,V,R,
646,16,16,15,5,33,47,567,['n'],1,right,['1'],6,132,[-0.08086296],88,47,medium,minus,dotcolour,alfa,,,116,19,V,R,
647,17,17,15,5,27,53,534,['n'],1,right,['1'],6,99,[-0.08222117],91,53,easy,minus,dotcolour,alfa,,,116,19,V,R,
648,18,18,15,5,27,53,501,['n'],1,right,['1'],6,60,[-0.09373094],97,53,easy,minus,dotcolour,alfa,,,116,19,V,R,
649,19,19,15,5,27,53,450,['n'],1,right,['1'],6,265,[-0.10485792],86,53,easy,minus,dotcolour,alfa,,,116,19,V,R,
650,20,20,15,5,53,27,633,['c'],1,left,['1'],6,166,[0.19348628],99,53,easy,minus,dotcolour,alfa,,,116,19,V,R,
651,21,21,15,5,53,27,467,['c'],1,left,['1'],6,110,[0.06881139],87,53,easy,minus,dotcolour,alfa,,,116,19,V,R,
652,22,22,15,5,33,47,549,['n'],1,right,['1'],6,69,[-0.09565562],96,47,medium,minus,dotcolour,alfa,,,116,19,V,R,
653,23,23,15,5,33,47,534,['n'],1,right,['2'],5,174,[-0.09280298],88,47,medium,minus,dotcolour,alfa,,,116,19,V,R,
654,24,24,15,5,44,36,451,['c'],1,left,['1'],6,150,[0.11887914],94,44,hard,minus,dotcolour,alfa,,,116,19,V,R,
655,25,25,15,5,47,33,416,['c'],1,left,['1'],6,153,[0.10774212],92,47,medium,minus,dotcolour,alfa,,,116,19,V,R,
656,26,26,15,5,33,47,517,['n'],1,right,['2'],5,240,[-0.09793358],86,47,medium,minus,dotcolour,alfa,,,116,19,V,R,
657,27,27,15,5,36,44,633,['c'],0,right,['2'],5,206,[0.04000462],69,44,hard,minus,dotcolour,alfa,,,116,19,V,R,
658,28,28,15,5,44,36,517,['c'],1,left,['1'],6,170,[0.01786956],60,44,hard,minus,dotcolour,alfa,,,116,19,V,R,
659,29,29,15,5,36,44,468,['n'],1,right,['2'],5,226,[-0.0172825],58,44,hard,minus,dotcolour,alfa,,,116,19,V,R,
660,30,30,15,5,44,36,532,['n'],0,left,['2'],5,117,[-0.01983313],63,44,hard,minus,dotcolour,alfa,,,116,19,V,R,
661,31,31,15,5,47,33,634,['n'],0,left,['1'],6,96,[-0.07838809],91,47,medium,minus,dotcolour,alfa,,,116,19,V,R,
662,32,32,15,5,44,36,467,['c'],1,left,['1'],6,194,[0.09010882],86,44,hard,minus,dotcolour,alfa,,,116,19,V,R,
663,33,33,15,5,53,27,600,['c'],1,left,['1'],6,172,[0.10947971],91,53,easy,minus,dotcolour,alfa,,,116,19,V,R,
664,34,34,15,5,27,53,567,['n'],1,right,['2'],5,112,[-0.11082942],95,53,easy,minus,dotcolour,alfa,,,116,19,V,R,
665,35,35,15,5,36,44,633,['n'],1,right,['2'],5,204,[-0.07550406],82,44,hard,minus,dotcolour,alfa,,,116,19,V,R,
666,36,36,15,5,33,47,734,['n'],1,right,['1'],6,151,[-0.07865944],86,47,medium,minus,dotcolour,alfa,,,116,19,V,R,
667,37,37,15,5,47,33,750,['c'],1,left,['1'],6,372,[0.14259433],89,47,medium,minus,dotcolour,alfa,,,116,19,V,R,
668,38,38,15,5,36,44,599,['n'],1,right,['2'],5,135,[-0.12632509],96,44,hard,minus,dotcolour,alfa,,,116,19,V,R,
669,39,39,15,5,33,47,701,['n'],1,right,['3'],4,663,[-0.26234501],95,47,medium,minus,dotcolour,alfa,,,116,19,V,R,
670,40,40,15,5,53,27,1101,['c'],1,left,['1'],6,257,[0.12650391],90,53,easy,minus,dotcolour,alfa,,,116,19,V,R,
671,41,41,15,5,47,33,633,['c'],1,left,['1'],6,422,[0.12223804],84,47,medium,minus,dotcolour,alfa,,,116,19,V,R,
672,42,0,16,5,53,27,601,['c'],1,left,['1'],6,97,[0.03170372],71,53,easy,minus,dotcolour,alfa,,,116,19,V,R,
673,43,1,16,5,33,47,633,['n'],1,right,['1'],6,93,[-0.04825028],81,47,medium,minus,dotcolour,alfa,,,116,19,V,R,
674,44,2,16,5,27,53,567,['n'],1,right,['1'],6,68,[-0.06010167],89,53,easy,minus,dotcolour,alfa,,,116,19,V,R,
675,45,3,16,5,47,33,684,['c'],1,left,['1'],6,151,[0.07222438],84,47,medium,minus,dotcolour,alfa,,,116,19,V,R,
676,46,4,16,5,36,44,533,['n'],1,right,['1'],6,165,[-0.1606244],97,44,hard,minus,dotcolour,alfa,,,116,19,V,R,
677,47,5,16,5,47,33,451,['n'],0,left,['1'],6,230,[-0.16716099],96,47,medium,minus,dotcolour,alfa,,,116,19,V,R,
678,48,6,16,5,27,53,536,['n'],1,right,['1'],6,280,[-0.04488502],68,53,easy,minus,dotcolour,alfa,,,116,19,V,R,
679,49,7,16,5,36,44,750,['n'],1,right,['2'],5,209,[-0.04057784],69,44,hard,minus,dotcolour,alfa,,,116,19,V,R,
680,50,8,16,5,27,53,600,['n'],1,right,['2'],5,177,[-0.08846839],87,53,easy,minus,dotcolour,alfa,,,116,19,V,R,
681,51,9,16,5,47,33,684,['c'],1,left,['1'],6,304,[0.1636432],94,47,medium,minus,dotcolour,alfa,,,116,19,V,R,
682,52,10,16,5,44,36,633,['n'],0,left,['1'],6,508,[-0.1080017],80,44,hard,minus,dotcolour,alfa,,,116,19,V,R,
683,53,11,16,5,47,33,783,['c'],1,left,['1'],6,449,[0.11662036],83,47,medium,minus,dotcolour,alfa,,,116,19,V,R,
684,54,12,16,5,36,44,699,['n'],1,right,['2'],5,333,[0.03877776],35,44,hard,minus,dotcolour,alfa,,,116,19,V,R,
685,55,13,16,5,44,36,517,['c'],1,left,['1'],6,292,[0.11423143],87,44,hard,minus,dotcolour,alfa,,,116,19,V,R,
686,56,14,16,5,36,44,634,['n'],1,right,['2'],5,279,[-0.07369472],78,44,hard,minus,dotcolour,alfa,,,116,19,V,R,
687,57,15,16,5,36,44,533,['c'],0,right,['2'],5,336,[0.14895824],91,44,hard,minus,dotcolour,alfa,,,116,19,V,R,
688,58,16,16,5,53,27,801,['c'],1,left,['1'],6,148,[0.13108886],96,53,easy,minus,dotcolour,alfa,,,116,19,V,R,
689,59,17,16,5,53,27,466,['c'],1,left,['1'],6,197,[0.14385011],95,53,easy,minus,dotcolour,alfa,,,116,19,V,R,
690,60,18,16,5,47,33,451,['c'],1,left,['1'],6,213,[0.06021206],76,47,medium,minus,dotcolour,alfa,,,116,19,V,R,
691,61,19,16,5,27,53,584,['n'],1,right,['1'],6,158,[-0.07753596],85,53,easy,minus,dotcolour,alfa,,,116,19,V,R,
692,62,20,16,5,36,44,950,['c'],0,right,['2'],5,338,[0.00517076],52,44,hard,minus,dotcolour,alfa,,,116,19,V,R,
693,63,21,16,5,44,36,516,['c'],1,left,['1'],6,329,[0.06428662],73,44,hard,minus,dotcolour,alfa,,,116,19,V,R,
694,64,22,16,5,33,47,549,['n'],1,right,['1'],6,152,[-0.08890873],89,47,medium,minus,dotcolour,alfa,,,116,19,V,R,
695,65,23,16,5,27,53,617,['n'],1,right,['1'],6,114,[-0.07472409],88,53,easy,minus,dotcolour,alfa,,,116,19,V,R,
696,66,24,16,5,36,44,584,['c'],0,right,['1'],6,175,[0.07853027],84,44,hard,minus,dotcolour,alfa,,,116,19,V,R,
697,67,25,16,5,53,27,750,['c'],1,left,['1'],6,195,[0.02498675],62,53,easy,minus,dotcolour,alfa,,,116,19,V,R,
698,68,26,16,5,47,33,668,['n'],0,left,['2'],5,290,[0.03562067],36,47,medium,minus,dotcolour,alfa,,,116,19,V,R,
699,69,27,16,5,44,36,816,['c'],1,left,['2'],5,199,[0.05847457],76,44,hard,minus,dotcolour,alfa,,,116,19,V,R,
700,70,28,16,5,33,47,566,['n'],1,right,['2'],5,201,[-0.07346946],81,47,medium,minus,dotcolour,alfa,,,116,19,V,R,
701,71,29,16,5,44,36,484,['n'],0,left,['1'],6,311,[0.02428597],40,44,hard,minus,dotcolour,alfa,,,116,19,V,R,
702,72,30,16,5,44,36,567,['n'],0,left,['9'],2,733,[0.07164494],32,44,hard,minus,dotcolour,alfa,,,116,19,V,R,
703,73,31,16,5,33,47,716,['n'],1,right,['1'],6,164,[-0.10209757],91,47,medium,minus,dotcolour,alfa,,,116,19,V,R,
704,74,32,16,5,53,27,684,['c'],1,left,['1'],6,148,[0.12428626],95,53,easy,minus,dotcolour,alfa,,,116,19,V,R,
705,75,33,16,5,53,27,600,['c'],1,left,['1'],6,159,[0.0740084],84,53,easy,minus,dotcolour,alfa,,,116,19,V,R,
706,76,34,16,5,33,47,916,['c'],0,right,['2'],5,309,[-0.00884769],46,47,medium,minus,dotcolour,alfa,,,116,19,V,R,
707,77,35,16,5,33,47,883,['c'],0,right,['9'],2,615,[0.00959871],53,47,medium,minus,dotcolour,alfa,,,116,19,V,R,
708,78,36,16,5,27,53,667,['n'],1,right,['2'],5,229,[-0.10711757],88,53,easy,minus,dotcolour,alfa,,,116,19,V,R,
709,79,37,16,5,44,36,784,['c'],1,left,['9'],2,917,[0.03608956],58,44,hard,minus,dotcolour,alfa,,,116,19,V,R,
710,80,38,16,5,33,47,735,['n'],1,right,['1'],6,236,[-0.12449114],91,47,medium,minus,dotcolour,alfa,,,116,19,V,R,
711,81,39,16,5,47,33,816,['n'],0,left,['1'],6,227,[-0.10684608],88,47,medium,minus,dotcolour,alfa,,,116,19,V,R,
712,82,40,16,5,53,27,551,['c'],1,left,['1'],6,229,[0.14383404],94,53,easy,minus,dotcolour,alfa,,,116,19,V,R,
713,83,41,16,5,27,53,617,['n'],1,right,['1'],6,197,[-0.06446347],79,53,easy,minus,dotcolour,alfa,,,116,19,V,R,
714,84,0,17,5,44,36,551,['c'],1,left,['1'],6,131,[0.07781856],87,44,hard,minus,dotcolour,alfa,,,116,19,V,R,
715,85,1,17,5,36,44,617,['n'],1,right,['1'],6,167,[-0.10182508],90,44,hard,minus,dotcolour,alfa,,,116,19,V,R,
716,86,2,17,5,47,33,550,['c'],1,left,['1'],6,147,[0.07643432],86,47,medium,minus,dotcolour,alfa,,,116,19,V,R,
717,87,3,17,5,44,36,601,['c'],1,left,['1'],6,198,[0.1246044],93,44,hard,minus,dotcolour,alfa,,,116,19,V,R,
718,88,4,17,5,36,44,701,['n'],1,right,['2'],5,340,[-0.12932143],88,44,hard,minus,dotcolour,alfa,,,116,19,V,R,
719,89,5,17,5,27,53,499,['n'],1,right,['1'],6,179,[-0.07924198],84,53,easy,minus,dotcolour,alfa,,,116,19,V,R,
720,90,6,17,5,47,33,583,['c'],1,left,['1'],6,198,[0.14243902],95,47,medium,minus,dotcolour,alfa,,,116,19,V,R,
721,91,7,17,5,44,36,501,['c'],1,left,['1'],6,219,[0.0764258],81,44,hard,minus,dotcolour,alfa,,,116,19,V,R,
722,92,8,17,5,53,27,550,['c'],1,left,['2'],5,126,[0.08861343],90,53,easy,minus,dotcolour,alfa,,,116,19,V,R,
723,93,9,17,5,27,53,633,['n'],1,right,['2'],5,328,[-0.17417211],94,53,easy,minus,dotcolour,alfa,,,116,19,V,R,
724,94,10,17,5,44,36,584,['c'],1,left,['1'],6,117,[0.0840845],90,44,hard,minus,dotcolour,alfa,,,116,19,V,R,
725,95,11,17,5,53,27,400,['c'],1,left,['1'],6,114,[0.06848398],86,53,easy,minus,dotcolour,alfa,,,116,19,V,R,
726,96,12,17,5,44,36,433,['n'],0,left,['2'],5,109,[-0.02213644],65,44,hard,minus,dotcolour,alfa,,,116,19,V,R,
727,97,13,17,5,36,44,568,['c'],0,right,['1'],6,83,[0.06920476],90,44,hard,minus,dotcolour,alfa,,,116,19,V,R,
728,98,14,17,5,36,44,567,['n'],1,right,['2'],5,138,[-0.07798028],87,44,hard,minus,dotcolour,alfa,,,116,19,V,R,
729,99,15,17,5,53,27,401,['c'],1,left,['1'],6,118,[0.04612667],77,53,easy,minus,dotcolour,alfa,,,116,19,V,R,
730,100,16,17,5,53,27,434,['c'],1,left,['1'],6,162,[0.02638505],64,53,easy,minus,dotcolour,alfa,,,116,19,V,R,
731,101,17,17,5,27,53,450,['n'],1,right,['1'],6,154,[-0.06265094],81,53,easy,minus,dotcolour,alfa,,,116,19,V,R,
732,102,18,17,5,47,33,416,['c'],1,left,['1'],6,197,[0.15075272],96,47,medium,minus,dotcolour,alfa,,,116,19,V,R,
733,103,19,17,5,33,47,484,['n'],1,right,['1'],6,162,[-0.0527201],76,47,medium,minus,dotcolour,alfa,,,116,19,V,R,
734,104,20,17,5,27,53,451,['n'],1,right,['1'],6,132,[-0.09242705],91,53,easy,minus,dotcolour,alfa,,,116,19,V,R,
735,105,21,17,5,33,47,450,['n'],1,right,['2'],5,157,[-0.10188741],91,47,medium,minus,dotcolour,alfa,,,116,19,V,R,
736,106,22,17,5,44,36,500,['c'],1,left,['1'],6,173,[0.06446334],80,44,hard,minus,dotcolour,alfa,,,116,19,V,R,
737,107,23,17,5,33,47,435,['n'],1,right,['2'],5,85,[-0.11041151],97,47,medium,minus,dotcolour,alfa,,,116,19,V,R,
738,108,24,17,5,47,33,517,['c'],1,left,['1'],6,126,[0.08013759],88,47,medium,minus,dotcolour,alfa,,,116,19,V,R,
739,109,25,17,5,33,47,633,['n'],1,right,['2'],5,42,[-0.06657384],95,47,medium,minus,dotcolour,alfa,,,116,19,V,R,
740,110,26,17,5,53,27,717,['c'],1,left,['1'],6,204,[0.11884041],91,53,easy,minus,dotcolour,alfa,,,116,19,V,R,
741,111,27,17,5,27,53,534,['n'],1,right,['1'],6,176,[-0.09065098],87,53,easy,minus,dotcolour,alfa,,,116,19,V,R,
742,112,28,17,5,36,44,867,['n'],1,right,['1'],6,135,[-0.09905949],92,44,hard,minus,dotcolour,alfa,,,116,19,V,R,
743,113,29,17,5,33,47,668,['n'],1,right,['2'],5,128,[-0.06802085],85,47,medium,minus,dotcolour,alfa,,,116,19,V,R,
744,114,30,17,5,47,33,634,['c'],1,left,['1'],6,139,[0.16617825],98,47,medium,minus,dotcolour,alfa,,,116,19,V,R,
745,115,31,17,5,44,36,567,['n'],0,left,['2'],5,248,[0.00508342],48,44,hard,minus,dotcolour,alfa,,,116,19,V,R,
746,116,32,17,5,27,53,517,['n'],1,right,['1'],6,139,[-0.06728662],84,53,easy,minus,dotcolour,alfa,,,116,19,V,R,
747,117,33,17,5,33,47,534,['n'],1,right,['1'],6,90,[-0.11618261],97,47,medium,minus,dotcolour,alfa,,,116,19,V,R,
748,118,34,17,5,53,27,516,['c'],1,left,['1'],6,122,[0.0657705],84,53,easy,minus,dotcolour,alfa,,,116,19,V,R,
749,119,35,17,5,36,44,567,['n'],1,right,['1'],6,89,[-0.07320844],90,44,hard,minus,dotcolour,alfa,,,116,19,V,R,
750,120,36,17,5,47,33,483,['n'],0,left,['9'],2,1204,[-0.2196645],86,47,medium,minus,dotcolour,alfa,,,116,19,V,R,
751,121,37,17,5,33,47,516,['n'],1,right,['1'],6,151,[-0.1004082],91,47,medium,minus,dotcolour,alfa,,,116,19,V,R,
752,122,38,17,5,47,33,584,['c'],1,left,['1'],6,132,[0.05093769],78,47,medium,minus,dotcolour,alfa,,,116,19,V,R,
753,123,39,17,5,27,53,534,['n'],1,right,['1'],6,139,[-0.11058274],94,53,easy,minus,dotcolour,alfa,,,116,19,V,R,
754,124,40,17,5,36,44,550,['c'],0,right,['1'],6,96,[0.02609425],68,44,hard,minus,dotcolour,alfa,,,116,19,V,R,
755,125,41,17,5,53,27,550,['c'],1,left,['1'],6,95,[0.13425303],98,53,easy,minus,dotcolour,alfa,,,116,19,V,R,
,,,,,,,,,,,,,,,,,,,,,1,,116,19,V,R,
,,,,,,,,,,,,,,,,,,,,,2,['f'],116,19,V,R,
,,,,,,,,,,,,,,,,,,,,,3,['g'],116,19,V,R,
,,,,,,,,,,,,,,,,,,,,,5,"['4', '5']",116,19,V,R,
