trial,withinphasetrial,withinblocktrial,block,phase,dotsLeft,dotsRight,rt,resp,cor,cresp,conf_press,cj,RTconf,ev,fb,diff,difflevel,condition,task,manip,questionID,questionResp,sub,age,gender,handedness,
0,0,0,0,0,33,47,1535,['n'],1,right,['1'],6,1960,[-0.36522716],100,47,medium,plus,dotcolour,alfa,,,128,19,V,R,
1,1,1,0,0,53,27,2116,['c'],1,left,['2'],5,3148,[0.54712254],100,53,easy,plus,dotcolour,alfa,,,128,19,V,R,
2,2,2,0,0,47,33,1167,['c'],1,left,['1'],6,1832,[0.28693261],100,47,medium,plus,dotcolour,alfa,,,128,19,V,R,
3,3,3,0,0,44,36,4467,['c'],1,left,['1'],6,1093,[0.2797612],100,44,hard,plus,dotcolour,alfa,,,128,19,V,R,
4,4,4,0,0,36,44,683,['n'],1,right,['3'],4,1455,[-0.19162267],100,44,hard,plus,dotcolour,alfa,,,128,19,V,R,
5,5,5,0,0,27,53,851,['n'],1,right,['2'],5,1036,[-0.26637588],100,53,easy,plus,dotcolour,alfa,,,128,19,V,R,
6,6,6,0,0,47,33,967,['c'],1,left,['2'],5,989,[0.15005062],100,47,medium,plus,dotcolour,alfa,,,128,19,V,R,
7,7,7,0,0,27,53,1700,['n'],1,right,['1'],6,1170,[-0.32457788],100,53,easy,plus,dotcolour,alfa,,,128,19,V,R,
8,8,8,0,0,33,47,2034,['c'],0,right,['8'],3,1498,[0.01404895],60,47,medium,plus,dotcolour,alfa,,,128,19,V,R,
9,9,9,0,0,27,53,1333,['n'],1,right,['1'],6,746,[-0.25306016],100,53,easy,plus,dotcolour,alfa,,,128,19,V,R,
10,10,10,0,0,53,27,1417,['c'],1,left,['3'],4,956,[0.22051178],100,53,easy,plus,dotcolour,alfa,,,128,19,V,R,
11,11,11,0,0,36,44,2484,['n'],1,right,['0'],1,2428,[-0.23498247],100,44,hard,plus,dotcolour,alfa,,,128,19,V,R,
12,12,12,0,0,47,33,1550,['c'],1,left,['1'],6,974,[0.16707024],100,47,medium,plus,dotcolour,alfa,,,128,19,V,R,
13,13,13,0,0,47,33,983,['c'],1,left,['1'],6,577,[0.05863086],94,47,medium,plus,dotcolour,alfa,,,128,19,V,R,
14,14,14,0,0,36,44,1283,['n'],1,right,['3'],4,1150,[-0.1935988],100,44,hard,plus,dotcolour,alfa,,,128,19,V,R,
15,15,15,0,0,33,47,784,['n'],1,right,['1'],6,538,[-0.18507775],100,47,medium,plus,dotcolour,alfa,,,128,19,V,R,
16,16,16,0,0,33,47,701,['n'],1,right,['1'],6,1034,[0.04411912],17,47,medium,plus,dotcolour,alfa,,,128,19,V,R,
17,17,17,0,0,53,27,1534,['c'],1,left,['1'],6,1251,[0.17648048],100,53,easy,plus,dotcolour,alfa,,,128,19,V,R,
18,18,18,0,0,53,27,3217,['c'],1,left,['3'],4,1114,[0.3545814],100,53,easy,plus,dotcolour,alfa,,,128,19,V,R,
19,19,19,0,0,36,44,1733,['n'],1,right,['3'],4,793,[-0.08083355],96,44,hard,plus,dotcolour,alfa,,,128,19,V,R,
20,20,20,0,0,53,27,951,['c'],1,left,['1'],6,556,[0.15121618],100,53,easy,plus,dotcolour,alfa,,,128,19,V,R,
21,21,21,0,0,44,36,1050,['c'],1,left,['1'],6,389,[0.11539439],100,44,hard,plus,dotcolour,alfa,,,128,19,V,R,
22,22,22,0,0,47,33,1618,['c'],1,left,['1'],6,349,[0.07738658],99,47,medium,plus,dotcolour,alfa,,,128,19,V,R,
23,23,23,0,0,27,53,1616,['n'],1,right,['1'],6,904,[-0.18865056],100,53,easy,plus,dotcolour,alfa,,,128,19,V,R,
24,24,24,0,0,27,53,1000,['n'],1,right,['3'],4,797,[-0.15161776],100,53,easy,plus,dotcolour,alfa,,,128,19,V,R,
25,25,25,0,0,47,33,700,['c'],1,left,['2'],5,858,[0.22041337],100,47,medium,plus,dotcolour,alfa,,,128,19,V,R,
26,26,26,0,0,27,53,650,['n'],1,right,['1'],6,455,[-0.16683477],100,53,easy,plus,dotcolour,alfa,,,128,19,V,R,
27,27,27,0,0,44,36,950,['c'],1,left,['1'],6,487,[0.18807506],100,44,hard,plus,dotcolour,alfa,,,128,19,V,R,
28,28,28,0,0,27,53,667,['n'],1,right,['1'],6,458,[-0.18792004],100,53,easy,plus,dotcolour,alfa,,,128,19,V,R,
29,29,29,0,0,44,36,816,['c'],1,left,['1'],6,336,[-0.02231416],20,44,hard,plus,dotcolour,alfa,,,128,19,V,R,
30,30,30,0,0,36,44,1566,['n'],1,right,['1'],6,493,[0.0167387],30,44,hard,plus,dotcolour,alfa,,,128,19,V,R,
31,31,31,0,0,36,44,1266,['n'],1,right,['1'],6,512,[-0.15894108],100,44,hard,plus,dotcolour,alfa,,,128,19,V,R,
32,32,32,0,0,36,44,1150,['c'],0,right,['1'],6,519,[0.03976046],88,44,hard,plus,dotcolour,alfa,,,128,19,V,R,
33,33,33,0,0,53,27,1101,['c'],1,left,['1'],6,423,[0.12810209],100,53,easy,plus,dotcolour,alfa,,,128,19,V,R,
34,34,34,0,0,44,36,767,['c'],1,left,['1'],6,672,[0.04183187],86,44,hard,plus,dotcolour,alfa,,,128,19,V,R,
35,35,35,0,0,47,33,1316,['n'],0,left,['8'],3,1770,[0.13117008],3,47,medium,plus,dotcolour,alfa,,,128,19,V,R,
36,36,36,0,0,53,27,1167,['c'],1,left,['2'],5,940,[0.2641826],100,53,easy,plus,dotcolour,alfa,,,128,19,V,R,
37,37,37,0,0,44,36,884,['c'],1,left,['2'],5,629,[0.08869278],98,44,hard,plus,dotcolour,alfa,,,128,19,V,R,
38,38,38,0,0,33,47,883,['n'],1,right,['2'],5,721,[-0.08539612],97,47,medium,plus,dotcolour,alfa,,,128,19,V,R,
39,39,39,0,0,33,47,1583,['n'],1,right,['2'],5,446,[-0.03303536],86,47,medium,plus,dotcolour,alfa,,,128,19,V,R,
40,40,40,0,0,33,47,750,['n'],1,right,['1'],6,439,[-0.05283926],95,47,medium,plus,dotcolour,alfa,,,128,19,V,R,
41,41,41,0,0,44,36,817,['c'],1,left,['1'],6,462,[0.03339178],85,44,hard,plus,dotcolour,alfa,,,128,19,V,R,
42,42,0,1,0,36,44,784,['n'],1,right,['2'],5,767,[-0.1916608],100,44,hard,plus,dotcolour,alfa,,,128,19,V,R,
43,43,1,1,0,44,36,883,['c'],1,left,['3'],4,582,[0.05723846],94,44,hard,plus,dotcolour,alfa,,,128,19,V,R,
44,44,2,1,0,33,47,852,['n'],1,right,['2'],5,703,[-0.01168017],62,47,medium,plus,dotcolour,alfa,,,128,19,V,R,
45,45,3,1,0,44,36,1450,['c'],1,left,['2'],5,657,[0.05388873],92,44,hard,plus,dotcolour,alfa,,,128,19,V,R,
46,46,4,1,0,36,44,817,['n'],1,right,['3'],4,927,[-0.11117866],98,44,hard,plus,dotcolour,alfa,,,128,19,V,R,
47,47,5,1,0,36,44,700,['n'],1,right,['3'],4,367,[-0.13898671],100,44,hard,plus,dotcolour,alfa,,,128,19,V,R,
48,48,6,1,0,33,47,667,['n'],1,right,['1'],6,359,[-0.16362198],100,47,medium,plus,dotcolour,alfa,,,128,19,V,R,
49,49,7,1,0,36,44,683,['n'],1,right,['1'],6,327,[-0.07369084],99,44,hard,plus,dotcolour,alfa,,,128,19,V,R,
50,50,8,1,0,33,47,967,['n'],1,right,['2'],5,644,[-0.16645592],100,47,medium,plus,dotcolour,alfa,,,128,19,V,R,
51,51,9,1,0,27,53,1017,['n'],1,right,['2'],5,1250,[-0.28595931],100,53,easy,plus,dotcolour,alfa,,,128,19,V,R,
52,52,10,1,0,47,33,1549,['c'],1,left,['1'],6,1028,[0.08537655],95,47,medium,plus,dotcolour,alfa,,,128,19,V,R,
53,53,11,1,0,27,53,650,['n'],1,right,['2'],5,970,[-0.17247753],100,53,easy,plus,dotcolour,alfa,,,128,19,V,R,
54,54,12,1,0,47,33,884,['c'],1,left,['2'],5,304,[0.14596747],100,47,medium,plus,dotcolour,alfa,,,128,19,V,R,
55,55,13,1,0,33,47,650,['n'],1,right,['1'],6,348,[-0.13964621],100,47,medium,plus,dotcolour,alfa,,,128,19,V,R,
56,56,14,1,0,53,27,883,['c'],1,left,['1'],6,388,[0.17718364],100,53,easy,plus,dotcolour,alfa,,,128,19,V,R,
57,57,15,1,0,47,33,917,['c'],1,left,['1'],6,425,[0.15732633],100,47,medium,plus,dotcolour,alfa,,,128,19,V,R,
58,58,16,1,0,44,36,1467,['c'],1,left,['3'],4,574,[0.11672748],100,44,hard,plus,dotcolour,alfa,,,128,19,V,R,
59,59,17,1,0,36,44,1550,['n'],1,right,['8'],3,978,[-0.35372057],100,44,hard,plus,dotcolour,alfa,,,128,19,V,R,
60,60,18,1,0,47,33,784,['c'],1,left,['3'],4,1077,[0.2530347],100,47,medium,plus,dotcolour,alfa,,,128,19,V,R,
61,61,19,1,0,27,53,800,['n'],1,right,['1'],6,515,[-0.10474165],99,53,easy,plus,dotcolour,alfa,,,128,19,V,R,
62,62,20,1,0,33,47,1567,['n'],1,right,['0'],1,1305,[-0.24747276],100,47,medium,plus,dotcolour,alfa,,,128,19,V,R,
63,63,21,1,0,27,53,733,['n'],1,right,['1'],6,953,[-0.29311331],100,53,easy,plus,dotcolour,alfa,,,128,19,V,R,
64,64,22,1,0,36,44,1100,['c'],0,right,['3'],4,663,[0.0308055],80,44,hard,plus,dotcolour,alfa,,,128,19,V,R,
65,65,23,1,0,44,36,1366,['n'],0,left,['1'],6,679,[0.24378118],0,44,hard,plus,dotcolour,alfa,,,128,19,V,R,
66,66,24,1,0,27,53,1100,['n'],1,right,['1'],6,1273,[-0.27550704],100,53,easy,plus,dotcolour,alfa,,,128,19,V,R,
67,67,25,1,0,27,53,917,['n'],1,right,['2'],5,866,[-0.28431357],100,53,easy,plus,dotcolour,alfa,,,128,19,V,R,
68,68,26,1,0,44,36,817,['c'],1,left,['2'],5,912,[0.18620234],100,44,hard,plus,dotcolour,alfa,,,128,19,V,R,
69,69,27,1,0,53,27,967,['c'],1,left,['1'],6,462,[0.10713295],100,53,easy,plus,dotcolour,alfa,,,128,19,V,R,
70,70,28,1,0,53,27,1300,['c'],1,left,['1'],6,361,[0.02742216],84,53,easy,plus,dotcolour,alfa,,,128,19,V,R,
71,71,29,1,0,53,27,1066,['c'],1,left,['1'],6,330,[0.00351944],55,53,easy,plus,dotcolour,alfa,,,128,19,V,R,
72,72,30,1,0,44,36,1950,['c'],1,left,['2'],5,1143,[0.04515599],82,44,hard,plus,dotcolour,alfa,,,128,19,V,R,
73,73,31,1,0,47,33,934,['c'],1,left,['1'],6,493,[0.1930566],100,47,medium,plus,dotcolour,alfa,,,128,19,V,R,
74,74,32,1,0,53,27,1766,['n'],0,left,['0'],1,1596,[0.02788513],31,53,easy,plus,dotcolour,alfa,,,128,19,V,R,
75,75,33,1,0,27,53,1284,['n'],1,right,['8'],3,1321,[-0.25387923],100,53,easy,plus,dotcolour,alfa,,,128,19,V,R,
76,76,34,1,0,53,27,1017,['c'],1,left,['1'],6,724,[-0.07461967],4,53,easy,plus,dotcolour,alfa,,,128,19,V,R,
77,77,35,1,0,47,33,1050,['c'],1,left,['1'],6,846,[0.31510726],100,47,medium,plus,dotcolour,alfa,,,128,19,V,R,
78,78,36,1,0,53,27,716,['c'],1,left,['2'],5,826,[0.08918861],97,53,easy,plus,dotcolour,alfa,,,128,19,V,R,
79,79,37,1,0,36,44,1316,['n'],1,right,['8'],3,781,[-0.08630929],97,44,hard,plus,dotcolour,alfa,,,128,19,V,R,
80,80,38,1,0,44,36,2067,['c'],1,left,['1'],6,548,[0.18385584],100,44,hard,plus,dotcolour,alfa,,,128,19,V,R,
81,81,39,1,0,33,47,951,['n'],1,right,['3'],4,1289,[-0.15751436],99,47,medium,plus,dotcolour,alfa,,,128,19,V,R,
82,82,40,1,0,47,33,899,['c'],1,left,['1'],6,291,[0.10302181],100,47,medium,plus,dotcolour,alfa,,,128,19,V,R,
83,83,41,1,0,33,47,616,['n'],1,right,['3'],4,663,[-0.09220439],98,47,medium,plus,dotcolour,alfa,,,128,19,V,R,
84,84,0,2,0,33,47,1035,['n'],1,right,['1'],6,877,[-0.20552224],100,47,medium,plus,dotcolour,alfa,,,128,19,V,R,
85,85,1,2,0,44,36,1767,['c'],1,left,['1'],6,1356,[0.04159577],78,44,hard,plus,dotcolour,alfa,,,128,19,V,R,
86,86,2,2,0,27,53,1000,['n'],1,right,['1'],6,631,[-0.16273278],100,53,easy,plus,dotcolour,alfa,,,128,19,V,R,
87,87,3,2,0,53,27,951,['c'],1,left,['8'],3,585,[0.09493778],99,53,easy,plus,dotcolour,alfa,,,128,19,V,R,
88,88,4,2,0,36,44,1283,['n'],1,right,['1'],6,511,[-0.2377912],100,44,hard,plus,dotcolour,alfa,,,128,19,V,R,
89,89,5,2,0,53,27,3551,['c'],1,left,['1'],6,846,[0.40029965],100,53,easy,plus,dotcolour,alfa,,,128,19,V,R,
90,90,6,2,0,33,47,1367,['n'],1,right,['2'],5,903,[-0.10579132],98,47,medium,plus,dotcolour,alfa,,,128,19,V,R,
91,91,7,2,0,53,27,1399,['c'],1,left,['1'],6,811,[0.33565331],100,53,easy,plus,dotcolour,alfa,,,128,19,V,R,
92,92,8,2,0,36,44,734,['n'],1,right,['8'],3,1055,[-0.32194959],100,44,hard,plus,dotcolour,alfa,,,128,19,V,R,
93,93,9,2,0,36,44,750,['n'],1,right,['8'],3,663,[-0.14216146],100,44,hard,plus,dotcolour,alfa,,,128,19,V,R,
94,94,10,2,0,44,36,1751,['n'],0,left,['9'],2,753,[-0.1166614],99,44,hard,plus,dotcolour,alfa,,,128,19,V,R,
95,95,11,2,0,33,47,883,['n'],1,right,['1'],6,639,[-0.28315562],100,47,medium,plus,dotcolour,alfa,,,128,19,V,R,
96,96,12,2,0,47,33,1967,['c'],1,left,['1'],6,952,[0.18920725],100,47,medium,plus,dotcolour,alfa,,,128,19,V,R,
97,97,13,2,0,53,27,1083,['c'],1,left,['1'],6,760,[0.15762519],100,53,easy,plus,dotcolour,alfa,,,128,19,V,R,
98,98,14,2,0,47,33,1683,['c'],1,left,['1'],6,535,[0.16483475],100,47,medium,plus,dotcolour,alfa,,,128,19,V,R,
99,99,15,2,0,36,44,1551,['n'],1,right,['3'],4,885,[-0.11986231],99,44,hard,plus,dotcolour,alfa,,,128,19,V,R,
100,100,16,2,0,36,44,2884,['c'],0,right,['8'],3,1231,[0.05586355],86,44,hard,plus,dotcolour,alfa,,,128,19,V,R,
101,101,17,2,0,47,33,1151,['c'],1,left,['8'],3,297,[0.09652955],100,47,medium,plus,dotcolour,alfa,,,128,19,V,R,
102,102,18,2,0,47,33,883,['c'],1,left,['1'],6,588,[0.05849874],94,47,medium,plus,dotcolour,alfa,,,128,19,V,R,
103,103,19,2,0,27,53,1333,['n'],1,right,['8'],3,639,[-0.25478863],100,53,easy,plus,dotcolour,alfa,,,128,19,V,R,
104,104,20,2,0,53,27,783,['c'],1,left,['1'],6,688,[0.14032906],100,53,easy,plus,dotcolour,alfa,,,128,19,V,R,
105,105,21,2,0,47,33,1084,['c'],1,left,['1'],6,185,[0.09714535],100,47,medium,plus,dotcolour,alfa,,,128,19,V,R,
106,106,22,2,0,44,36,1534,['c'],1,left,['3'],4,1766,[0.25123001],100,44,hard,plus,dotcolour,alfa,,,128,19,V,R,
107,107,23,2,0,33,47,1152,['n'],1,right,['3'],4,978,[-0.18678439],100,47,medium,plus,dotcolour,alfa,,,128,19,V,R,
108,108,24,2,0,27,53,750,['n'],1,right,['1'],6,438,[-0.24393128],100,53,easy,plus,dotcolour,alfa,,,128,19,V,R,
109,109,25,2,0,44,36,2167,['c'],1,left,['1'],6,622,[0.13905094],100,44,hard,plus,dotcolour,alfa,,,128,19,V,R,
110,110,26,2,0,44,36,1666,['c'],1,left,['1'],6,948,[0.14543983],100,44,hard,plus,dotcolour,alfa,,,128,19,V,R,
111,111,27,2,0,47,33,1267,['c'],1,left,['1'],6,549,[0.12633315],100,47,medium,plus,dotcolour,alfa,,,128,19,V,R,
112,112,28,2,0,53,27,817,['c'],1,left,['1'],6,327,[0.1717011],100,53,easy,plus,dotcolour,alfa,,,128,19,V,R,
113,113,29,2,0,27,53,667,['n'],1,right,['1'],6,401,[-0.17222555],100,53,easy,plus,dotcolour,alfa,,,128,19,V,R,
114,114,30,2,0,33,47,1067,['n'],1,right,['1'],6,247,[-0.18650875],100,47,medium,plus,dotcolour,alfa,,,128,19,V,R,
115,115,31,2,0,36,44,1750,['n'],1,right,['2'],5,544,[0.04272648],11,44,hard,plus,dotcolour,alfa,,,128,19,V,R,
116,116,32,2,0,44,36,1068,['c'],1,left,['1'],6,209,[0.10531361],100,44,hard,plus,dotcolour,alfa,,,128,19,V,R,
117,117,33,2,0,27,53,750,['n'],1,right,['1'],6,284,[-0.06066632],98,53,easy,plus,dotcolour,alfa,,,128,19,V,R,
118,118,34,2,0,47,33,884,['c'],1,left,['1'],6,199,[0.0890096],100,47,medium,plus,dotcolour,alfa,,,128,19,V,R,
119,119,35,2,0,27,53,983,['n'],1,right,['1'],6,216,[-0.0749325],100,53,easy,plus,dotcolour,alfa,,,128,19,V,R,
120,120,36,2,0,44,36,917,['c'],1,left,['1'],6,205,[0.1542798],100,44,hard,plus,dotcolour,alfa,,,128,19,V,R,
121,121,37,2,0,36,44,1300,['c'],0,right,['3'],4,890,[0.21010125],100,44,hard,plus,dotcolour,alfa,,,128,19,V,R,
122,122,38,2,0,33,47,816,['n'],1,right,['8'],3,655,[-0.21301458],100,47,medium,plus,dotcolour,alfa,,,128,19,V,R,
123,123,39,2,0,33,47,1533,['n'],1,right,['8'],3,400,[-0.14490882],100,47,medium,plus,dotcolour,alfa,,,128,19,V,R,
124,124,40,2,0,27,53,751,['n'],1,right,['1'],6,243,[-0.06228805],99,53,easy,plus,dotcolour,alfa,,,128,19,V,R,
125,125,41,2,0,53,27,834,['c'],1,left,['1'],6,226,[0.17725029],100,53,easy,plus,dotcolour,alfa,,,128,19,V,R,
126,0,0,3,1,44,36,901,['n'],0,left,['1'],6,202,[-0.05466047],75,44,hard,minus,dotcolour,alfa,,,128,19,V,R,
127,1,1,3,1,33,47,2584,['c'],0,right,['1'],6,292,[0.00511342],52,47,medium,minus,dotcolour,alfa,,,128,19,V,R,
128,2,2,3,1,53,27,1650,['c'],1,left,['1'],6,271,[0.15475881],94,53,easy,minus,dotcolour,alfa,,,128,19,V,R,
129,3,3,3,1,36,44,1183,['c'],0,right,['1'],6,216,[0.09331173],86,44,hard,minus,dotcolour,alfa,,,128,19,V,R,
130,4,4,3,1,36,44,1333,['n'],1,right,['0'],1,1347,[-0.14779087],76,44,hard,minus,dotcolour,alfa,,,128,19,V,R,
131,5,5,3,1,44,36,1017,['n'],0,left,['1'],6,541,[-0.11936285],81,44,hard,minus,dotcolour,alfa,,,128,19,V,R,
132,6,6,3,1,33,47,884,['n'],1,right,['1'],6,213,[-0.06970958],80,47,medium,minus,dotcolour,alfa,,,128,19,V,R,
133,7,7,3,1,27,53,734,['n'],1,right,['2'],5,312,[-0.20609365],97,53,easy,minus,dotcolour,alfa,,,128,19,V,R,
134,8,8,3,1,44,36,1100,['c'],1,left,['1'],6,273,[0.05299399],71,44,hard,minus,dotcolour,alfa,,,128,19,V,R,
135,9,9,3,1,44,36,734,['n'],0,left,['0'],1,1706,[0.04030102],43,44,hard,minus,dotcolour,alfa,,,128,19,V,R,
136,10,10,3,1,36,44,2183,['n'],1,right,['0'],1,1255,[-0.06644537],63,44,hard,minus,dotcolour,alfa,,,128,19,V,R,
137,11,11,3,1,53,27,1483,['c'],1,left,['1'],6,546,[0.19708247],92,53,easy,minus,dotcolour,alfa,,,128,19,V,R,
138,12,12,3,1,53,27,1217,['c'],1,left,['1'],6,373,[0.07768813],76,53,easy,minus,dotcolour,alfa,,,128,19,V,R,
139,13,13,3,1,53,27,850,['c'],1,left,['2'],5,1373,[0.10140295],69,53,easy,minus,dotcolour,alfa,,,128,19,V,R,
140,14,14,3,1,33,47,700,['n'],1,right,['1'],6,732,[-0.04672754],62,47,medium,minus,dotcolour,alfa,,,128,19,V,R,
141,15,15,3,1,27,53,1216,['n'],1,right,['1'],6,399,[-0.0860528],77,53,easy,minus,dotcolour,alfa,,,128,19,V,R,
142,16,16,3,1,44,36,1700,['c'],1,left,['2'],5,868,[-0.02405155],44,44,hard,minus,dotcolour,alfa,,,128,19,V,R,
143,17,17,3,1,33,47,2250,['n'],1,right,['0'],1,848,[-0.15611004],82,47,medium,minus,dotcolour,alfa,,,128,19,V,R,
144,18,18,3,1,47,33,3583,['n'],0,left,['1'],6,776,[0.06534877],34,47,medium,minus,dotcolour,alfa,,,128,19,V,R,
145,19,19,3,1,47,33,1351,['c'],1,left,['3'],4,2756,[0.47291647],93,47,medium,minus,dotcolour,alfa,,,128,19,V,R,
146,20,20,3,1,47,33,766,['c'],1,left,['2'],5,655,[0.10209614],76,47,medium,minus,dotcolour,alfa,,,128,19,V,R,
147,21,21,3,1,47,33,1183,['c'],1,left,['1'],6,575,[0.07680688],71,47,medium,minus,dotcolour,alfa,,,128,19,V,R,
148,22,22,3,1,27,53,883,['n'],1,right,['1'],6,301,[-0.02881065],62,53,easy,minus,dotcolour,alfa,,,128,19,V,R,
149,23,23,3,1,44,36,1418,['c'],1,left,['2'],5,714,[-0.03852654],40,44,hard,minus,dotcolour,alfa,,,128,19,V,R,
150,24,24,3,1,27,53,883,['n'],1,right,['2'],5,1043,[-0.38238167],97,53,easy,minus,dotcolour,alfa,,,128,19,V,R,
151,25,25,3,1,27,53,834,['n'],1,right,['1'],6,385,[-0.20402947],95,53,easy,minus,dotcolour,alfa,,,128,19,V,R,
152,26,26,3,1,47,33,1850,['c'],1,left,['8'],3,833,[0.09636278],72,47,medium,minus,dotcolour,alfa,,,128,19,V,R,
153,27,27,3,1,33,47,817,['n'],1,right,['8'],3,361,[-0.11374065],85,47,medium,minus,dotcolour,alfa,,,128,19,V,R,
154,28,28,3,1,53,27,867,['c'],1,left,['1'],6,345,[0.03169932],62,53,easy,minus,dotcolour,alfa,,,128,19,V,R,
155,29,29,3,1,53,27,850,['c'],1,left,['1'],6,450,[0.08271153],75,53,easy,minus,dotcolour,alfa,,,128,19,V,R,
156,30,30,3,1,33,47,1616,['n'],1,right,['9'],2,537,[-0.09299708],76,47,medium,minus,dotcolour,alfa,,,128,19,V,R,
157,31,31,3,1,44,36,950,['c'],1,left,['1'],6,374,[0.00449761],52,44,hard,minus,dotcolour,alfa,,,128,19,V,R,
158,32,32,3,1,36,44,916,['n'],1,right,['2'],5,716,[-0.1370773],81,44,hard,minus,dotcolour,alfa,,,128,19,V,R,
159,33,33,3,1,33,47,684,['n'],1,right,['1'],6,477,[-0.24387043],96,47,medium,minus,dotcolour,alfa,,,128,19,V,R,
160,34,34,3,1,47,33,850,['c'],1,left,['1'],6,273,[0.16106685],94,47,medium,minus,dotcolour,alfa,,,128,19,V,R,
161,35,35,3,1,36,44,1383,['n'],1,right,['2'],5,487,[-0.12361644],83,44,hard,minus,dotcolour,alfa,,,128,19,V,R,
162,36,36,3,1,27,53,750,['n'],1,right,['2'],5,503,[-0.21793793],94,53,easy,minus,dotcolour,alfa,,,128,19,V,R,
163,37,37,3,1,36,44,1050,['c'],0,right,['1'],6,371,[0.04412767],66,44,hard,minus,dotcolour,alfa,,,128,19,V,R,
164,38,38,3,1,36,44,917,['n'],1,right,['2'],5,552,[-0.08477942],74,44,hard,minus,dotcolour,alfa,,,128,19,V,R,
165,39,39,3,1,53,27,1334,['c'],1,left,['2'],5,606,[0.08840887],74,53,easy,minus,dotcolour,alfa,,,128,19,V,R,
166,40,40,3,1,27,53,1183,['n'],1,right,['3'],4,1111,[-0.14676968],78,53,easy,minus,dotcolour,alfa,,,128,19,V,R,
167,41,41,3,1,47,33,1049,['c'],1,left,['1'],6,290,[0.1199335],88,47,medium,minus,dotcolour,alfa,,,128,19,V,R,
168,42,0,4,1,33,47,1918,['c'],0,right,['2'],5,597,[0.0422104],62,47,medium,minus,dotcolour,alfa,,,128,19,V,R,
169,43,1,4,1,47,33,1234,['c'],1,left,['2'],5,614,[0.09725146],75,47,medium,minus,dotcolour,alfa,,,128,19,V,R,
170,44,2,4,1,44,36,1150,['n'],0,left,['2'],5,664,[0.00641592],48,44,hard,minus,dotcolour,alfa,,,128,19,V,R,
171,45,3,4,1,27,53,750,['n'],1,right,['1'],6,457,[-0.02594872],59,53,easy,minus,dotcolour,alfa,,,128,19,V,R,
172,46,4,4,1,27,53,1934,['n'],1,right,['2'],5,699,[-0.28787492],96,53,easy,minus,dotcolour,alfa,,,128,19,V,R,
173,47,5,4,1,53,27,950,['c'],1,left,['1'],6,402,[0.16971754],92,53,easy,minus,dotcolour,alfa,,,128,19,V,R,
174,48,6,4,1,53,27,2218,['c'],1,left,['1'],6,779,[0.14939925],82,53,easy,minus,dotcolour,alfa,,,128,19,V,R,
175,49,7,4,1,33,47,833,['n'],1,right,['2'],5,979,[-0.08963162],69,47,medium,minus,dotcolour,alfa,,,128,19,V,R,
176,50,8,4,1,53,27,884,['c'],1,left,['2'],5,986,[0.14369174],79,53,easy,minus,dotcolour,alfa,,,128,19,V,R,
177,51,9,4,1,36,44,2116,['n'],1,right,['2'],5,431,[-0.0722062],73,44,hard,minus,dotcolour,alfa,,,128,19,V,R,
178,52,10,4,1,44,36,1633,['c'],1,left,['3'],4,925,[0.24502857],91,44,hard,minus,dotcolour,alfa,,,128,19,V,R,
179,53,11,4,1,44,36,967,['c'],1,left,['3'],4,882,[0.09673244],72,44,hard,minus,dotcolour,alfa,,,128,19,V,R,
180,54,12,4,1,44,36,1183,['c'],1,left,['8'],3,985,[0.29849514],94,44,hard,minus,dotcolour,alfa,,,128,19,V,R,
181,55,13,4,1,44,36,867,['c'],1,left,['8'],3,944,[0.14618695],79,44,hard,minus,dotcolour,alfa,,,128,19,V,R,
182,56,14,4,1,47,33,817,['c'],1,left,['3'],4,1275,[0.15996369],78,47,medium,minus,dotcolour,alfa,,,128,19,V,R,
183,57,15,4,1,33,47,1017,['n'],1,right,['3'],4,472,[-0.24239394],96,47,medium,minus,dotcolour,alfa,,,128,19,V,R,
184,58,16,4,1,47,33,1084,['c'],1,left,['2'],5,555,[0.08521903],74,47,medium,minus,dotcolour,alfa,,,128,19,V,R,
185,59,17,4,1,53,27,951,['c'],1,left,['2'],5,511,[0.06903707],70,53,easy,minus,dotcolour,alfa,,,128,19,V,R,
186,60,18,4,1,27,53,766,['n'],1,right,['2'],5,542,[-0.15364343],87,53,easy,minus,dotcolour,alfa,,,128,19,V,R,
187,61,19,4,1,53,27,1000,['c'],1,left,['2'],5,665,[0.16951041],87,53,easy,minus,dotcolour,alfa,,,128,19,V,R,
188,62,20,4,1,27,53,1434,['c'],0,right,['2'],5,590,[-0.12405178],19,53,easy,minus,dotcolour,alfa,,,128,19,V,R,
189,63,21,4,1,27,53,851,['n'],1,right,['2'],5,598,[-0.11351433],79,53,easy,minus,dotcolour,alfa,,,128,19,V,R,
190,64,22,4,1,47,33,901,['c'],1,left,['2'],5,379,[0.11138697],84,47,medium,minus,dotcolour,alfa,,,128,19,V,R,
191,65,23,4,1,44,36,851,['c'],1,left,['3'],4,627,[0.06972817],69,44,hard,minus,dotcolour,alfa,,,128,19,V,R,
192,66,24,4,1,27,53,600,['n'],1,right,['2'],5,435,[-0.15007144],89,53,easy,minus,dotcolour,alfa,,,128,19,V,R,
193,67,25,4,1,36,44,1216,['n'],1,right,['2'],5,266,[-0.09630146],84,44,hard,minus,dotcolour,alfa,,,128,19,V,R,
194,68,26,4,1,33,47,634,['n'],1,right,['2'],5,239,[-0.06947275],78,47,medium,minus,dotcolour,alfa,,,128,19,V,R,
195,69,27,4,1,53,27,2883,['c'],1,left,['2'],5,307,[0.21674879],97,53,easy,minus,dotcolour,alfa,,,128,19,V,R,
196,70,28,4,1,36,44,567,['n'],1,right,['2'],5,226,[-0.07382938],80,44,hard,minus,dotcolour,alfa,,,128,19,V,R,
197,71,29,4,1,36,44,4434,['n'],1,right,['0'],1,888,[-0.03644255],59,44,hard,minus,dotcolour,alfa,,,128,19,V,R,
198,72,30,4,1,36,44,866,['n'],1,right,['2'],5,324,[-0.01343127],55,44,hard,minus,dotcolour,alfa,,,128,19,V,R,
199,73,31,4,1,47,33,900,['c'],1,left,['2'],5,435,[0.06873785],72,47,medium,minus,dotcolour,alfa,,,128,19,V,R,
200,74,32,4,1,27,53,1017,['n'],1,right,['2'],5,346,[-0.23940079],97,53,easy,minus,dotcolour,alfa,,,128,19,V,R,
201,75,33,4,1,44,36,4184,['c'],1,left,['3'],4,1086,[0.19226136],84,44,hard,minus,dotcolour,alfa,,,128,19,V,R,
202,76,34,4,1,47,33,750,['c'],1,left,['1'],6,293,[0.09872899],84,47,medium,minus,dotcolour,alfa,,,128,19,V,R,
203,77,35,4,1,36,44,732,['n'],1,right,['2'],5,263,[-0.03499891],65,44,hard,minus,dotcolour,alfa,,,128,19,V,R,
204,78,36,4,1,33,47,650,['n'],1,right,['2'],5,290,[-0.02326174],60,47,medium,minus,dotcolour,alfa,,,128,19,V,R,
205,79,37,4,1,47,33,1333,['c'],1,left,['1'],6,434,[0.07587859],74,47,medium,minus,dotcolour,alfa,,,128,19,V,R,
206,80,38,4,1,53,27,783,['c'],1,left,['1'],6,475,[0.18636677],92,53,easy,minus,dotcolour,alfa,,,128,19,V,R,
207,81,39,4,1,36,44,767,['n'],1,right,['2'],5,362,[-0.08320149],78,44,hard,minus,dotcolour,alfa,,,128,19,V,R,
208,82,40,4,1,33,47,1483,['n'],1,right,['8'],3,522,[-0.17019126],89,47,medium,minus,dotcolour,alfa,,,128,19,V,R,
209,83,41,4,1,33,47,1250,['n'],1,right,['8'],3,396,[-0.23088169],96,47,medium,minus,dotcolour,alfa,,,128,19,V,R,
210,84,0,5,1,27,53,1734,['n'],1,right,['2'],5,479,[0.01431837],45,53,easy,minus,dotcolour,alfa,,,128,19,V,R,
211,85,1,5,1,53,27,967,['c'],1,left,['1'],6,558,[0.21791125],93,53,easy,minus,dotcolour,alfa,,,128,19,V,R,
212,86,2,5,1,47,33,2100,['c'],1,left,['2'],5,332,[0.2232525],97,47,medium,minus,dotcolour,alfa,,,128,19,V,R,
213,87,3,5,1,33,47,1016,['n'],1,right,['2'],5,424,[-0.11982574],84,47,medium,minus,dotcolour,alfa,,,128,19,V,R,
214,88,4,5,1,44,36,1068,['c'],1,left,['8'],3,1030,[0.19497633],85,44,hard,minus,dotcolour,alfa,,,128,19,V,R,
215,89,5,5,1,44,36,733,['c'],1,left,['8'],3,512,[-0.05578951],33,44,hard,minus,dotcolour,alfa,,,128,19,V,R,
216,90,6,5,1,44,36,1234,['n'],0,left,['2'],5,636,[-0.04943572],64,44,hard,minus,dotcolour,alfa,,,128,19,V,R,
217,91,7,5,1,47,33,750,['c'],1,left,['1'],6,309,[0.17578406],95,47,medium,minus,dotcolour,alfa,,,128,19,V,R,
218,92,8,5,1,47,33,716,['c'],1,left,['1'],6,365,[0.11422175],85,47,medium,minus,dotcolour,alfa,,,128,19,V,R,
219,93,9,5,1,27,53,817,['n'],1,right,['8'],3,439,[-0.11724981],83,53,easy,minus,dotcolour,alfa,,,128,19,V,R,
220,94,10,5,1,44,36,733,['c'],1,left,['2'],5,545,[0.10786503],79,44,hard,minus,dotcolour,alfa,,,128,19,V,R,
221,95,11,5,1,33,47,716,['n'],1,right,['3'],4,663,[-0.15562377],85,47,medium,minus,dotcolour,alfa,,,128,19,V,R,
222,96,12,5,1,27,53,618,['n'],1,right,['2'],5,677,[-0.0311314],58,53,easy,minus,dotcolour,alfa,,,128,19,V,R,
223,97,13,5,1,33,47,815,['n'],1,right,['1'],6,644,[-0.19589409],90,47,medium,minus,dotcolour,alfa,,,128,19,V,R,
224,98,14,5,1,47,33,1033,['c'],1,left,['2'],5,897,[0.22437358],89,47,medium,minus,dotcolour,alfa,,,128,19,V,R,
225,99,15,5,1,33,47,733,['n'],1,right,['2'],5,505,[-0.06779406],70,47,medium,minus,dotcolour,alfa,,,128,19,V,R,
226,100,16,5,1,53,27,1033,['c'],1,left,['1'],6,508,[0.0763988],72,53,easy,minus,dotcolour,alfa,,,128,19,V,R,
227,101,17,5,1,53,27,900,['c'],1,left,['1'],6,325,[0.14061344],90,53,easy,minus,dotcolour,alfa,,,128,19,V,R,
228,102,18,5,1,36,44,634,['n'],1,right,['1'],6,392,[-0.14225287],89,44,hard,minus,dotcolour,alfa,,,128,19,V,R,
229,103,19,5,1,53,27,950,['c'],1,left,['1'],6,235,[0.18901373],97,53,easy,minus,dotcolour,alfa,,,128,19,V,R,
230,104,20,5,1,44,36,1933,['c'],1,left,['1'],6,446,[0.07565785],73,44,hard,minus,dotcolour,alfa,,,128,19,V,R,
231,105,21,5,1,33,47,1033,['c'],0,right,['8'],3,684,[0.14326847],83,47,medium,minus,dotcolour,alfa,,,128,19,V,R,
232,106,22,5,1,47,33,916,['n'],0,left,['2'],5,269,[-0.06041747],74,47,medium,minus,dotcolour,alfa,,,128,19,V,R,
233,107,23,5,1,33,47,1117,['n'],1,right,['9'],2,503,[-0.19893218],93,47,medium,minus,dotcolour,alfa,,,128,19,V,R,
234,108,24,5,1,33,47,801,['n'],1,right,['8'],3,396,[-0.20776852],95,47,medium,minus,dotcolour,alfa,,,128,19,V,R,
235,109,25,5,1,47,33,1333,['c'],1,left,['8'],3,281,[0.03252492],63,47,medium,minus,dotcolour,alfa,,,128,19,V,R,
236,110,26,5,1,36,44,2400,['n'],1,right,['0'],1,654,[-0.08990715],73,44,hard,minus,dotcolour,alfa,,,128,19,V,R,
237,111,27,5,1,27,53,784,['n'],1,right,['2'],5,358,[-0.04402544],66,53,easy,minus,dotcolour,alfa,,,128,19,V,R,
238,112,28,5,1,53,27,817,['c'],1,left,['1'],6,305,[0.10994771],86,53,easy,minus,dotcolour,alfa,,,128,19,V,R,
239,113,29,5,1,36,44,933,['c'],0,right,['2'],5,440,[0.22204528],95,44,hard,minus,dotcolour,alfa,,,128,19,V,R,
240,114,30,5,1,53,27,684,['c'],1,left,['1'],6,348,[0.18469122],94,53,easy,minus,dotcolour,alfa,,,128,19,V,R,
241,115,31,5,1,27,53,700,['n'],1,right,['1'],6,275,[-0.02459687],60,53,easy,minus,dotcolour,alfa,,,128,19,V,R,
242,116,32,5,1,36,44,917,['n'],1,right,['9'],2,300,[-0.11550435],87,44,hard,minus,dotcolour,alfa,,,128,19,V,R,
243,117,33,5,1,27,53,617,['n'],1,right,['2'],5,513,[-0.11334281],81,53,easy,minus,dotcolour,alfa,,,128,19,V,R,
244,118,34,5,1,53,27,850,['c'],1,left,['1'],6,324,[0.12402757],88,53,easy,minus,dotcolour,alfa,,,128,19,V,R,
245,119,35,5,1,36,44,801,['n'],1,right,['1'],6,536,[-0.15287779],87,44,hard,minus,dotcolour,alfa,,,128,19,V,R,
246,120,36,5,1,36,44,883,['c'],0,right,['1'],6,209,[0.09032585],86,44,hard,minus,dotcolour,alfa,,,128,19,V,R,
247,121,37,5,1,44,36,1650,['n'],0,left,['0'],1,1063,[-0.08057813],67,44,hard,minus,dotcolour,alfa,,,128,19,V,R,
248,122,38,5,1,47,33,700,['c'],1,left,['1'],6,370,[0.14191568],89,47,medium,minus,dotcolour,alfa,,,128,19,V,R,
249,123,39,5,1,44,36,850,['c'],1,left,['2'],5,571,[0.1806859],90,44,hard,minus,dotcolour,alfa,,,128,19,V,R,
250,124,40,5,1,27,53,1917,['n'],1,right,['2'],5,384,[-0.20779454],95,53,easy,minus,dotcolour,alfa,,,128,19,V,R,
251,125,41,5,1,36,44,1233,['n'],1,right,['1'],6,288,[0.00845749],46,44,hard,minus,dotcolour,alfa,,,128,19,V,R,
252,0,0,6,2,33,47,801,['n'],1,right,['1'],6,358,[-0.09104437],100,47,medium,plus,dotcolour,alfa,,,128,19,V,R,
253,1,1,6,2,36,44,583,['n'],1,right,['1'],6,177,[-0.13088247],100,44,hard,plus,dotcolour,alfa,,,128,19,V,R,
254,2,2,6,2,27,53,867,['n'],1,right,['1'],6,241,[-0.08019364],100,53,easy,plus,dotcolour,alfa,,,128,19,V,R,
255,3,3,6,2,36,44,750,['n'],1,right,['1'],6,250,[-0.14434323],100,44,hard,plus,dotcolour,alfa,,,128,19,V,R,
256,4,4,6,2,47,33,599,['c'],1,left,['1'],6,306,[0.00779946],62,47,medium,plus,dotcolour,alfa,,,128,19,V,R,
257,5,5,6,2,44,36,567,['n'],0,left,['1'],6,224,[-0.05766398],99,44,hard,plus,dotcolour,alfa,,,128,19,V,R,
258,6,6,6,2,53,27,1517,['c'],1,left,['1'],6,211,[0.06057032],99,53,easy,plus,dotcolour,alfa,,,128,19,V,R,
259,7,7,6,2,44,36,617,['n'],0,left,['1'],6,203,[-0.07651172],100,44,hard,plus,dotcolour,alfa,,,128,19,V,R,
260,8,8,6,2,44,36,1050,['n'],0,left,['1'],6,210,[-0.01331102],74,44,hard,plus,dotcolour,alfa,,,128,19,V,R,
261,9,9,6,2,44,36,850,['c'],1,left,['1'],6,161,[0.06470131],100,44,hard,plus,dotcolour,alfa,,,128,19,V,R,
262,10,10,6,2,33,47,517,['n'],1,right,['1'],6,167,[-0.06581253],100,47,medium,plus,dotcolour,alfa,,,128,19,V,R,
263,11,11,6,2,36,44,583,['n'],1,right,['1'],6,218,[-0.0318543],92,44,hard,plus,dotcolour,alfa,,,128,19,V,R,
264,12,12,6,2,36,44,784,['n'],1,right,['2'],5,267,[-0.11828339],100,44,hard,plus,dotcolour,alfa,,,128,19,V,R,
265,13,13,6,2,27,53,601,['n'],1,right,['1'],6,266,[-0.01958589],80,53,easy,plus,dotcolour,alfa,,,128,19,V,R,
266,14,14,6,2,33,47,650,['n'],1,right,['2'],5,439,[-0.11603966],100,47,medium,plus,dotcolour,alfa,,,128,19,V,R,
267,15,15,6,2,33,47,600,['n'],1,right,['2'],5,310,[-0.11110432],100,47,medium,plus,dotcolour,alfa,,,128,19,V,R,
268,16,16,6,2,53,27,900,['c'],1,left,['1'],6,159,[0.11449538],100,53,easy,plus,dotcolour,alfa,,,128,19,V,R,
269,17,17,6,2,47,33,917,['c'],1,left,['1'],6,158,[0.12630795],100,47,medium,plus,dotcolour,alfa,,,128,19,V,R,
270,18,18,6,2,53,27,784,['c'],1,left,['1'],6,248,[0.12521607],100,53,easy,plus,dotcolour,alfa,,,128,19,V,R,
271,19,19,6,2,44,36,666,['n'],0,left,['2'],5,781,[0.09006724],2,44,hard,plus,dotcolour,alfa,,,128,19,V,R,
272,20,20,6,2,36,44,1184,['n'],1,right,['3'],4,376,[-0.04851442],95,44,hard,plus,dotcolour,alfa,,,128,19,V,R,
273,21,21,6,2,53,27,966,['c'],1,left,['1'],6,179,[0.098455],100,53,easy,plus,dotcolour,alfa,,,128,19,V,R,
274,22,22,6,2,44,36,1417,['n'],0,left,['1'],6,196,[-0.01080807],71,44,hard,plus,dotcolour,alfa,,,128,19,V,R,
275,23,23,6,2,33,47,900,['n'],1,right,['1'],6,258,[-0.170699],100,47,medium,plus,dotcolour,alfa,,,128,19,V,R,
276,24,24,6,2,27,53,584,['n'],1,right,['1'],6,234,[-0.19523945],100,53,easy,plus,dotcolour,alfa,,,128,19,V,R,
277,25,25,6,2,27,53,567,['n'],1,right,['1'],6,211,[-0.10058798],100,53,easy,plus,dotcolour,alfa,,,128,19,V,R,
278,26,26,6,2,47,33,2384,['c'],1,left,['1'],6,292,[0.09092422],100,47,medium,plus,dotcolour,alfa,,,128,19,V,R,
279,27,27,6,2,47,33,1700,['c'],1,left,['1'],6,182,[0.00106311],52,47,medium,plus,dotcolour,alfa,,,128,19,V,R,
280,28,28,6,2,47,33,867,['c'],1,left,['1'],6,132,[0.03005496],95,47,medium,plus,dotcolour,alfa,,,128,19,V,R,
281,29,29,6,2,47,33,750,['c'],1,left,['1'],6,147,[0.05774906],100,47,medium,plus,dotcolour,alfa,,,128,19,V,R,
282,30,30,6,2,27,53,634,['n'],1,right,['1'],6,236,[-0.11739664],100,53,easy,plus,dotcolour,alfa,,,128,19,V,R,
283,31,31,6,2,27,53,517,['n'],1,right,['2'],5,360,[-0.11345919],100,53,easy,plus,dotcolour,alfa,,,128,19,V,R,
284,32,32,6,2,47,33,1983,['n'],0,left,['1'],6,243,[-0.1907671],100,47,medium,plus,dotcolour,alfa,,,128,19,V,R,
285,33,33,6,2,53,27,1284,['c'],1,left,['1'],6,375,[0.10684144],100,53,easy,plus,dotcolour,alfa,,,128,19,V,R,
286,34,34,6,2,36,44,783,['n'],1,right,['1'],6,234,[-0.06996407],99,44,hard,plus,dotcolour,alfa,,,128,19,V,R,
287,35,35,6,2,27,53,817,['n'],1,right,['1'],6,241,[-0.07451787],100,53,easy,plus,dotcolour,alfa,,,128,19,V,R,
288,36,36,6,2,33,47,917,['c'],0,right,['8'],3,1108,[0.07132899],92,47,medium,plus,dotcolour,alfa,,,128,19,V,R,
289,37,37,6,2,44,36,800,['n'],0,left,['0'],1,1064,[0.09424274],4,44,hard,plus,dotcolour,alfa,,,128,19,V,R,
290,38,38,6,2,53,27,868,['n'],0,left,['0'],1,1044,[0.12713718],1,53,easy,plus,dotcolour,alfa,,,128,19,V,R,
291,39,39,6,2,53,27,766,['c'],1,left,['1'],6,590,[0.19904328],100,53,easy,plus,dotcolour,alfa,,,128,19,V,R,
292,40,40,6,2,33,47,783,['n'],1,right,['1'],6,183,[-0.17915653],100,47,medium,plus,dotcolour,alfa,,,128,19,V,R,
293,41,41,6,2,36,44,767,['n'],1,right,['1'],6,242,[-0.08581167],100,44,hard,plus,dotcolour,alfa,,,128,19,V,R,
294,42,0,7,2,47,33,1284,['n'],0,left,['1'],6,303,[-0.09690457],100,47,medium,plus,dotcolour,alfa,,,128,19,V,R,
295,43,1,7,2,53,27,1084,['c'],1,left,['8'],3,577,[0.01841666],71,53,easy,plus,dotcolour,alfa,,,128,19,V,R,
296,44,2,7,2,47,33,783,['c'],1,left,['1'],6,196,[0.04953052],98,47,medium,plus,dotcolour,alfa,,,128,19,V,R,
297,45,3,7,2,33,47,733,['n'],1,right,['1'],6,359,[0.03195653],13,47,medium,plus,dotcolour,alfa,,,128,19,V,R,
298,46,4,7,2,44,36,1367,['c'],1,left,['1'],6,180,[0.07711857],100,44,hard,plus,dotcolour,alfa,,,128,19,V,R,
299,47,5,7,2,47,33,833,['c'],1,left,['1'],6,212,[0.15961075],100,47,medium,plus,dotcolour,alfa,,,128,19,V,R,
300,48,6,7,2,33,47,684,['n'],1,right,['1'],6,226,[-0.06546328],99,47,medium,plus,dotcolour,alfa,,,128,19,V,R,
301,49,7,7,2,53,27,867,['c'],1,left,['1'],6,215,[0.19773274],100,53,easy,plus,dotcolour,alfa,,,128,19,V,R,
302,50,8,7,2,44,36,651,['n'],0,left,['1'],6,206,[-0.10925451],100,44,hard,plus,dotcolour,alfa,,,128,19,V,R,
303,51,9,7,2,47,33,750,['c'],1,left,['1'],6,160,[0.06283581],100,47,medium,plus,dotcolour,alfa,,,128,19,V,R,
304,52,10,7,2,44,36,1234,['n'],0,left,['1'],6,233,[-0.13592481],100,44,hard,plus,dotcolour,alfa,,,128,19,V,R,
305,53,11,7,2,53,27,784,['c'],1,left,['1'],6,274,[0.05821525],98,53,easy,plus,dotcolour,alfa,,,128,19,V,R,
306,54,12,7,2,27,53,634,['n'],1,right,['1'],6,351,[-0.0790991],99,53,easy,plus,dotcolour,alfa,,,128,19,V,R,
307,55,13,7,2,36,44,1184,['n'],1,right,['1'],6,203,[-0.04381473],97,44,hard,plus,dotcolour,alfa,,,128,19,V,R,
308,56,14,7,2,27,53,984,['n'],1,right,['1'],6,285,[-0.15377074],100,53,easy,plus,dotcolour,alfa,,,128,19,V,R,
309,57,15,7,2,53,27,1000,['c'],1,left,['1'],6,187,[0.09375564],100,53,easy,plus,dotcolour,alfa,,,128,19,V,R,
310,58,16,7,2,53,27,733,['c'],1,left,['1'],6,455,[0.19931125],100,53,easy,plus,dotcolour,alfa,,,128,19,V,R,
311,59,17,7,2,27,53,1000,['n'],1,right,['1'],6,198,[-0.03850333],96,53,easy,plus,dotcolour,alfa,,,128,19,V,R,
312,60,18,7,2,47,33,750,['c'],1,left,['1'],6,177,[0.03493557],95,47,medium,plus,dotcolour,alfa,,,128,19,V,R,
313,61,19,7,2,27,53,650,['n'],1,right,['2'],5,314,[-0.1936858],100,53,easy,plus,dotcolour,alfa,,,128,19,V,R,
314,62,20,7,2,36,44,783,['n'],1,right,['2'],5,231,[-0.00947464],67,44,hard,plus,dotcolour,alfa,,,128,19,V,R,
315,63,21,7,2,33,47,683,['n'],1,right,['1'],6,172,[-0.13266474],100,47,medium,plus,dotcolour,alfa,,,128,19,V,R,
316,64,22,7,2,53,27,733,['c'],1,left,['1'],6,305,[0.13602725],100,53,easy,plus,dotcolour,alfa,,,128,19,V,R,
317,65,23,7,2,44,36,817,['n'],0,left,['2'],5,461,[-0.06761485],97,44,hard,plus,dotcolour,alfa,,,128,19,V,R,
318,66,24,7,2,36,44,584,['n'],1,right,['1'],6,213,[-0.05144941],98,44,hard,plus,dotcolour,alfa,,,128,19,V,R,
319,67,25,7,2,53,27,1417,['c'],1,left,['1'],6,957,[0.12337299],99,53,easy,plus,dotcolour,alfa,,,128,19,V,R,
320,68,26,7,2,27,53,666,['n'],1,right,['1'],6,484,[-0.19337272],100,53,easy,plus,dotcolour,alfa,,,128,19,V,R,
321,69,27,7,2,36,44,650,['n'],1,right,['2'],5,321,[-0.10299315],100,44,hard,plus,dotcolour,alfa,,,128,19,V,R,
322,70,28,7,2,44,36,567,['n'],0,left,['1'],6,222,[-0.06393597],99,44,hard,plus,dotcolour,alfa,,,128,19,V,R,
323,71,29,7,2,33,47,883,['n'],1,right,['1'],6,267,[-0.11869886],100,47,medium,plus,dotcolour,alfa,,,128,19,V,R,
324,72,30,7,2,27,53,566,['n'],1,right,['1'],6,179,[-0.07119289],100,53,easy,plus,dotcolour,alfa,,,128,19,V,R,
325,73,31,7,2,33,47,600,['n'],1,right,['1'],6,205,[-0.0575545],99,47,medium,plus,dotcolour,alfa,,,128,19,V,R,
326,74,32,7,2,36,44,650,['c'],0,right,['1'],6,405,[0.02368855],79,44,hard,plus,dotcolour,alfa,,,128,19,V,R,
327,75,33,7,2,44,36,766,['c'],1,left,['2'],5,1110,[0.0305643],74,44,hard,plus,dotcolour,alfa,,,128,19,V,R,
328,76,34,7,2,36,44,617,['n'],1,right,['1'],6,163,[-0.06332509],100,44,hard,plus,dotcolour,alfa,,,128,19,V,R,
329,77,35,7,2,47,33,1283,['c'],1,left,['1'],6,330,[0.11451115],100,47,medium,plus,dotcolour,alfa,,,128,19,V,R,
330,78,36,7,2,27,53,716,['n'],1,right,['1'],6,217,[-0.08586493],100,53,easy,plus,dotcolour,alfa,,,128,19,V,R,
331,79,37,7,2,47,33,832,['c'],1,left,['1'],6,193,[0.15945143],100,47,medium,plus,dotcolour,alfa,,,128,19,V,R,
332,80,38,7,2,36,44,668,['c'],0,right,['1'],6,272,[0.0344454],92,44,hard,plus,dotcolour,alfa,,,128,19,V,R,
333,81,39,7,2,44,36,767,['n'],0,left,['1'],6,216,[-0.00548918],60,44,hard,plus,dotcolour,alfa,,,128,19,V,R,
334,82,40,7,2,33,47,750,['n'],1,right,['8'],3,218,[-0.05386221],98,47,medium,plus,dotcolour,alfa,,,128,19,V,R,
335,83,41,7,2,33,47,850,['n'],1,right,['1'],6,257,[-0.10389353],100,47,medium,plus,dotcolour,alfa,,,128,19,V,R,
336,84,0,8,2,36,44,1117,['n'],1,right,['1'],6,349,[-0.08194481],99,44,hard,plus,dotcolour,alfa,,,128,19,V,R,
337,85,1,8,2,27,53,751,['n'],1,right,['1'],6,275,[-0.17481333],100,53,easy,plus,dotcolour,alfa,,,128,19,V,R,
338,86,2,8,2,47,33,900,['c'],1,left,['1'],6,141,[0.13958606],100,47,medium,plus,dotcolour,alfa,,,128,19,V,R,
339,87,3,8,2,44,36,751,['c'],1,left,['2'],5,347,[0.16289051],100,44,hard,plus,dotcolour,alfa,,,128,19,V,R,
340,88,4,8,2,53,27,833,['c'],1,left,['1'],6,492,[0.12041931],100,53,easy,plus,dotcolour,alfa,,,128,19,V,R,
341,89,5,8,2,33,47,701,['n'],1,right,['2'],5,638,[-0.21748804],100,47,medium,plus,dotcolour,alfa,,,128,19,V,R,
342,90,6,8,2,44,36,1067,['c'],1,left,['1'],6,258,[0.04841229],97,44,hard,plus,dotcolour,alfa,,,128,19,V,R,
343,91,7,8,2,44,36,900,['n'],0,left,['1'],6,213,[-0.01141278],71,44,hard,plus,dotcolour,alfa,,,128,19,V,R,
344,92,8,8,2,53,27,967,['c'],1,left,['1'],6,455,[0.18116953],100,53,easy,plus,dotcolour,alfa,,,128,19,V,R,
345,93,9,8,2,27,53,667,['n'],1,right,['2'],5,523,[-0.22214465],100,53,easy,plus,dotcolour,alfa,,,128,19,V,R,
346,94,10,8,2,47,33,883,['c'],1,left,['1'],6,227,[0.10195539],100,47,medium,plus,dotcolour,alfa,,,128,19,V,R,
347,95,11,8,2,44,36,1133,['n'],0,left,['2'],5,470,[0.04794109],7,44,hard,plus,dotcolour,alfa,,,128,19,V,R,
348,96,12,8,2,44,36,1067,['c'],1,left,['1'],6,578,[0.15050167],100,44,hard,plus,dotcolour,alfa,,,128,19,V,R,
349,97,13,8,2,47,33,833,['c'],1,left,['1'],6,219,[0.07130945],100,47,medium,plus,dotcolour,alfa,,,128,19,V,R,
350,98,14,8,2,53,27,733,['c'],1,left,['2'],5,382,[-0.02595193],18,53,easy,plus,dotcolour,alfa,,,128,19,V,R,
351,99,15,8,2,47,33,1050,['c'],1,left,['1'],6,358,[0.0385166],91,47,medium,plus,dotcolour,alfa,,,128,19,V,R,
352,100,16,8,2,33,47,2850,['n'],1,right,['2'],5,303,[-0.08183819],100,47,medium,plus,dotcolour,alfa,,,128,19,V,R,
353,101,17,8,2,47,33,800,['c'],1,left,['1'],6,669,[0.19303224],100,47,medium,plus,dotcolour,alfa,,,128,19,V,R,
354,102,18,8,2,33,47,667,['n'],1,right,['2'],5,544,[-0.04106926],88,47,medium,plus,dotcolour,alfa,,,128,19,V,R,
355,103,19,8,2,36,44,967,['n'],1,right,['2'],5,237,[-0.17731448],100,44,hard,plus,dotcolour,alfa,,,128,19,V,R,
356,104,20,8,2,53,27,634,['c'],1,left,['1'],6,316,[0.08859965],100,53,easy,plus,dotcolour,alfa,,,128,19,V,R,
357,105,21,8,2,44,36,1083,['c'],1,left,['1'],6,1605,[0.1821987],99,44,hard,plus,dotcolour,alfa,,,128,19,V,R,
358,106,22,8,2,53,27,865,['n'],0,left,['1'],6,434,[-0.03315681],86,53,easy,plus,dotcolour,alfa,,,128,19,V,R,
359,107,23,8,2,36,44,634,['n'],1,right,['1'],6,226,[-0.09089239],100,44,hard,plus,dotcolour,alfa,,,128,19,V,R,
360,108,24,8,2,36,44,633,['n'],1,right,['1'],6,224,[-0.01153473],71,44,hard,plus,dotcolour,alfa,,,128,19,V,R,
361,109,25,8,2,47,33,1966,['c'],1,left,['1'],6,186,[0.12175968],100,47,medium,plus,dotcolour,alfa,,,128,19,V,R,
362,110,26,8,2,33,47,667,['n'],1,right,['1'],6,185,[-0.01771457],81,47,medium,plus,dotcolour,alfa,,,128,19,V,R,
363,111,27,8,2,27,53,685,['n'],1,right,['1'],6,240,[-0.08371546],100,53,easy,plus,dotcolour,alfa,,,128,19,V,R,
364,112,28,8,2,33,47,601,['n'],1,right,['1'],6,335,[-0.09162551],100,47,medium,plus,dotcolour,alfa,,,128,19,V,R,
365,113,29,8,2,33,47,584,['n'],1,right,['2'],5,420,[-0.09167318],99,47,medium,plus,dotcolour,alfa,,,128,19,V,R,
366,114,30,8,2,36,44,500,['n'],1,right,['1'],6,224,[-0.09618638],100,44,hard,plus,dotcolour,alfa,,,128,19,V,R,
367,115,31,8,2,36,44,1067,['c'],0,right,['1'],6,206,[0.00016222],50,44,hard,plus,dotcolour,alfa,,,128,19,V,R,
368,116,32,8,2,53,27,1201,['c'],1,left,['1'],6,270,[0.06185702],99,53,easy,plus,dotcolour,alfa,,,128,19,V,R,
369,117,33,8,2,33,47,650,['n'],1,right,['1'],6,219,[-0.19459577],100,47,medium,plus,dotcolour,alfa,,,128,19,V,R,
370,118,34,8,2,27,53,483,['n'],1,right,['1'],6,233,[-0.14659671],100,53,easy,plus,dotcolour,alfa,,,128,19,V,R,
371,119,35,8,2,27,53,650,['n'],1,right,['2'],5,206,[-0.0732395],100,53,easy,plus,dotcolour,alfa,,,128,19,V,R,
372,120,36,8,2,44,36,816,['c'],1,left,['8'],3,415,[0.03284762],86,44,hard,plus,dotcolour,alfa,,,128,19,V,R,
373,121,37,8,2,36,44,617,['n'],1,right,['2'],5,239,[-0.06858235],99,44,hard,plus,dotcolour,alfa,,,128,19,V,R,
374,122,38,8,2,27,53,666,['n'],1,right,['2'],5,484,[-0.11987006],100,53,easy,plus,dotcolour,alfa,,,128,19,V,R,
375,123,39,8,2,27,53,517,['n'],1,right,['3'],4,237,[-0.1331085],100,53,easy,plus,dotcolour,alfa,,,128,19,V,R,
376,124,40,8,2,47,33,400,['n'],0,left,['0'],1,1189,[0.00727725],44,47,medium,plus,dotcolour,alfa,,,128,19,V,R,
377,125,41,8,2,53,27,866,['c'],1,left,['1'],6,364,[0.04368879],93,53,easy,plus,dotcolour,alfa,,,128,19,V,R,
378,0,0,9,3,36,44,684,['n'],1,right,['2'],5,347,[-0.05215837],69,44,hard,minus,dotcolour,alfa,,,128,19,V,R,
379,1,1,9,3,36,44,967,['c'],0,right,['1'],6,464,[-0.02432645],42,44,hard,minus,dotcolour,alfa,,,128,19,V,R,
380,2,2,9,3,36,44,1516,['c'],0,right,['1'],6,354,[0.08297071],78,44,hard,minus,dotcolour,alfa,,,128,19,V,R,
381,3,3,9,3,36,44,667,['n'],1,right,['2'],5,314,[0.02113541],42,44,hard,minus,dotcolour,alfa,,,128,19,V,R,
382,4,4,9,3,27,53,751,['n'],1,right,['1'],6,409,[-0.14155207],88,53,easy,minus,dotcolour,alfa,,,128,19,V,R,
383,5,5,9,3,27,53,550,['n'],1,right,['2'],5,331,[-0.0804297],78,53,easy,minus,dotcolour,alfa,,,128,19,V,R,
384,6,6,9,3,53,27,1300,['c'],1,left,['2'],5,1035,[0.37952603],97,53,easy,minus,dotcolour,alfa,,,128,19,V,R,
385,7,7,9,3,44,36,834,['n'],0,left,['2'],5,513,[-0.00856645],53,44,hard,minus,dotcolour,alfa,,,128,19,V,R,
386,8,8,9,3,44,36,667,['n'],0,left,['2'],5,323,[-0.03481759],63,44,hard,minus,dotcolour,alfa,,,128,19,V,R,
387,9,9,9,3,27,53,717,['n'],1,right,['2'],5,611,[-0.23342362],94,53,easy,minus,dotcolour,alfa,,,128,19,V,R,
388,10,10,9,3,33,47,584,['n'],1,right,['2'],5,196,[-0.07209126],81,47,medium,minus,dotcolour,alfa,,,128,19,V,R,
389,11,11,9,3,33,47,2233,['n'],1,right,['3'],4,5188,[-0.83119111],96,47,medium,minus,dotcolour,alfa,,,128,19,V,R,
390,12,12,9,3,47,33,667,['n'],0,left,['3'],4,281,[-0.12965996],90,47,medium,minus,dotcolour,alfa,,,128,19,V,R,
391,13,13,9,3,44,36,634,['n'],0,left,['3'],4,198,[-0.03601337],67,44,hard,minus,dotcolour,alfa,,,128,19,V,R,
392,14,14,9,3,36,44,751,['n'],1,right,['2'],5,202,[-0.03344453],66,44,hard,minus,dotcolour,alfa,,,128,19,V,R,
393,15,15,9,3,36,44,901,['n'],1,right,['1'],6,479,[-0.13751547],86,44,hard,minus,dotcolour,alfa,,,128,19,V,R,
394,16,16,9,3,33,47,617,['n'],1,right,['2'],5,212,[-0.13783425],94,47,medium,minus,dotcolour,alfa,,,128,19,V,R,
395,17,17,9,3,47,33,1650,['c'],1,left,['1'],6,323,[0.16807831],93,47,medium,minus,dotcolour,alfa,,,128,19,V,R,
396,18,18,9,3,47,33,617,['n'],0,left,['2'],5,238,[-0.03774498],67,47,medium,minus,dotcolour,alfa,,,128,19,V,R,
397,19,19,9,3,44,36,333,['n'],0,left,['2'],5,249,[-0.01475822],57,44,hard,minus,dotcolour,alfa,,,128,19,V,R,
398,20,20,9,3,27,53,649,['n'],1,right,['3'],4,263,[-0.15310172],94,53,easy,minus,dotcolour,alfa,,,128,19,V,R,
399,21,21,9,3,33,47,649,['c'],0,right,['1'],6,324,[0.0431821],66,47,medium,minus,dotcolour,alfa,,,128,19,V,R,
400,22,22,9,3,53,27,818,['c'],1,left,['1'],6,223,[0.14583584],94,53,easy,minus,dotcolour,alfa,,,128,19,V,R,
401,23,23,9,3,47,33,1050,['c'],1,left,['1'],6,245,[0.12988228],91,47,medium,minus,dotcolour,alfa,,,128,19,V,R,
402,24,24,9,3,44,36,649,['n'],0,left,['2'],5,226,[-0.03329278],65,44,hard,minus,dotcolour,alfa,,,128,19,V,R,
403,25,25,9,3,27,53,450,['n'],1,right,['1'],6,273,[-0.14806694],93,53,easy,minus,dotcolour,alfa,,,128,19,V,R,
404,26,26,9,3,53,27,850,['c'],1,left,['1'],6,284,[0.04147831],67,53,easy,minus,dotcolour,alfa,,,128,19,V,R,
405,27,27,9,3,53,27,766,['c'],1,left,['2'],5,547,[0.04577085],64,53,easy,minus,dotcolour,alfa,,,128,19,V,R,
406,28,28,9,3,47,33,683,['n'],0,left,['2'],5,372,[0.07123067],26,47,medium,minus,dotcolour,alfa,,,128,19,V,R,
407,29,29,9,3,36,44,867,['n'],1,right,['2'],5,411,[-0.04858444],66,44,hard,minus,dotcolour,alfa,,,128,19,V,R,
408,30,30,9,3,44,36,767,['n'],0,left,['3'],4,237,[-0.10936621],88,44,hard,minus,dotcolour,alfa,,,128,19,V,R,
409,31,31,9,3,53,27,600,['c'],1,left,['3'],4,293,[0.07977225],79,53,easy,minus,dotcolour,alfa,,,128,19,V,R,
410,32,32,9,3,33,47,1200,['c'],0,right,['3'],4,434,[0.07759194],74,47,medium,minus,dotcolour,alfa,,,128,19,V,R,
411,33,33,9,3,53,27,650,['c'],1,left,['2'],5,528,[0.15059087],87,53,easy,minus,dotcolour,alfa,,,128,19,V,R,
412,34,34,9,3,47,33,550,['c'],1,left,['2'],5,350,[0.14380348],90,47,medium,minus,dotcolour,alfa,,,128,19,V,R,
413,35,35,9,3,47,33,534,['c'],1,left,['2'],5,316,[0.11647602],87,47,medium,minus,dotcolour,alfa,,,128,19,V,R,
414,36,36,9,3,33,47,734,['n'],1,right,['3'],4,283,[-0.11788772],88,47,medium,minus,dotcolour,alfa,,,128,19,V,R,
415,37,37,9,3,53,27,1067,['c'],1,left,['2'],5,303,[0.19046982],96,53,easy,minus,dotcolour,alfa,,,128,19,V,R,
416,38,38,9,3,33,47,800,['n'],1,right,['2'],5,228,[-0.1118587],89,47,medium,minus,dotcolour,alfa,,,128,19,V,R,
417,39,39,9,3,27,53,500,['n'],1,right,['2'],5,184,[-0.07630194],83,53,easy,minus,dotcolour,alfa,,,128,19,V,R,
418,40,40,9,3,44,36,749,['c'],1,left,['2'],5,212,[0.12208454],92,44,hard,minus,dotcolour,alfa,,,128,19,V,R,
419,41,41,9,3,27,53,634,['c'],0,right,['2'],5,244,[-0.02539972],39,53,easy,minus,dotcolour,alfa,,,128,19,V,R,
420,42,0,10,3,47,33,1033,['n'],0,left,['8'],3,522,[-0.02568574],58,47,medium,minus,dotcolour,alfa,,,128,19,V,R,
421,43,1,10,3,44,36,750,['c'],1,left,['2'],5,535,[0.24047187],95,44,hard,minus,dotcolour,alfa,,,128,19,V,R,
422,44,2,10,3,36,44,484,['n'],1,right,['2'],5,240,[-0.02411684],61,44,hard,minus,dotcolour,alfa,,,128,19,V,R,
423,45,3,10,3,44,36,766,['c'],1,left,['2'],5,257,[0.10945557],87,44,hard,minus,dotcolour,alfa,,,128,19,V,R,
424,46,4,10,3,33,47,1133,['n'],1,right,['2'],5,258,[-0.06449449],76,47,medium,minus,dotcolour,alfa,,,128,19,V,R,
425,47,5,10,3,36,44,717,['n'],1,right,['2'],5,268,[-0.17193815],95,44,hard,minus,dotcolour,alfa,,,128,19,V,R,
426,48,6,10,3,36,44,750,['n'],1,right,['2'],5,221,[-0.03529739],66,44,hard,minus,dotcolour,alfa,,,128,19,V,R,
427,49,7,10,3,36,44,783,['n'],1,right,['2'],5,470,[-0.17785663],91,44,hard,minus,dotcolour,alfa,,,128,19,V,R,
428,50,8,10,3,33,47,716,['n'],1,right,['1'],6,303,[-0.17181252],94,47,medium,minus,dotcolour,alfa,,,128,19,V,R,
429,51,9,10,3,44,36,617,['c'],1,left,['2'],5,261,[0.03290678],64,44,hard,minus,dotcolour,alfa,,,128,19,V,R,
430,52,10,10,3,36,44,667,['n'],1,right,['2'],5,192,[-0.05789046],77,44,hard,minus,dotcolour,alfa,,,128,19,V,R,
431,53,11,10,3,47,33,633,['n'],0,left,['2'],5,264,[-0.06081244],74,47,medium,minus,dotcolour,alfa,,,128,19,V,R,
432,54,12,10,3,44,36,634,['n'],0,left,['2'],5,518,[-0.1350732],84,44,hard,minus,dotcolour,alfa,,,128,19,V,R,
433,55,13,10,3,53,27,800,['n'],0,left,['2'],5,283,[-0.02217594],59,53,easy,minus,dotcolour,alfa,,,128,19,V,R,
434,56,14,10,3,47,33,816,['c'],1,left,['1'],6,376,[0.13489819],88,47,medium,minus,dotcolour,alfa,,,128,19,V,R,
435,57,15,10,3,33,47,1434,['n'],1,right,['2'],5,320,[-0.11390015],86,47,medium,minus,dotcolour,alfa,,,128,19,V,R,
436,58,16,10,3,44,36,683,['n'],0,left,['2'],5,210,[-0.12012335],91,44,hard,minus,dotcolour,alfa,,,128,19,V,R,
437,59,17,10,3,44,36,917,['c'],1,left,['2'],5,390,[0.17551466],93,44,hard,minus,dotcolour,alfa,,,128,19,V,R,
438,60,18,10,3,53,27,867,['c'],1,left,['2'],5,253,[0.13970175],92,53,easy,minus,dotcolour,alfa,,,128,19,V,R,
439,61,19,10,3,44,36,550,['c'],1,left,['2'],5,293,[0.07060872],76,44,hard,minus,dotcolour,alfa,,,128,19,V,R,
440,62,20,10,3,53,27,700,['c'],1,left,['1'],6,407,[0.11871468],84,53,easy,minus,dotcolour,alfa,,,128,19,V,R,
441,63,21,10,3,53,27,633,['c'],1,left,['1'],6,358,[0.11289419],85,53,easy,minus,dotcolour,alfa,,,128,19,V,R,
442,64,22,10,3,33,47,449,['c'],0,right,['2'],5,239,[0.01033018],55,47,medium,minus,dotcolour,alfa,,,128,19,V,R,
443,65,23,10,3,27,53,433,['n'],1,right,['9'],2,469,[-0.13940927],86,53,easy,minus,dotcolour,alfa,,,128,19,V,R,
444,66,24,10,3,47,33,719,['c'],1,left,['2'],5,191,[0.07878642],84,47,medium,minus,dotcolour,alfa,,,128,19,V,R,
445,67,25,10,3,27,53,551,['n'],1,right,['1'],6,307,[-0.18630162],95,53,easy,minus,dotcolour,alfa,,,128,19,V,R,
446,68,26,10,3,33,47,949,['n'],1,right,['9'],2,674,[0.01285545],46,47,medium,minus,dotcolour,alfa,,,128,19,V,R,
447,69,27,10,3,27,53,1283,['n'],1,right,['9'],2,2068,[-0.03542313],56,53,easy,minus,dotcolour,alfa,,,128,19,V,R,
448,70,28,10,3,47,33,833,['c'],1,left,['1'],6,353,[0.12530173],87,47,medium,minus,dotcolour,alfa,,,128,19,V,R,
449,71,29,10,3,36,44,3817,['n'],1,right,['1'],6,1220,[-0.07223204],64,44,hard,minus,dotcolour,alfa,,,128,19,V,R,
450,72,30,10,3,27,53,816,['n'],1,right,['2'],5,579,[-0.21859177],93,53,easy,minus,dotcolour,alfa,,,128,19,V,R,
451,73,31,10,3,47,33,750,['c'],1,left,['1'],6,367,[0.17189272],93,47,medium,minus,dotcolour,alfa,,,128,19,V,R,
452,74,32,10,3,27,53,667,['n'],1,right,['2'],5,222,[-0.06959959],79,53,easy,minus,dotcolour,alfa,,,128,19,V,R,
453,75,33,10,3,27,53,550,['n'],1,right,['1'],6,217,[-0.13782921],93,53,easy,minus,dotcolour,alfa,,,128,19,V,R,
454,76,34,10,3,53,27,634,['c'],1,left,['1'],6,200,[0.14188405],95,53,easy,minus,dotcolour,alfa,,,128,19,V,R,
455,77,35,10,3,36,44,516,['n'],1,right,['1'],6,189,[-0.03160036],66,44,hard,minus,dotcolour,alfa,,,128,19,V,R,
456,78,36,10,3,53,27,818,['c'],1,left,['1'],6,174,[0.13615801],95,53,easy,minus,dotcolour,alfa,,,128,19,V,R,
457,79,37,10,3,33,47,617,['n'],1,right,['2'],5,415,[-0.2439101],97,47,medium,minus,dotcolour,alfa,,,128,19,V,R,
458,80,38,10,3,27,53,567,['n'],1,right,['1'],6,353,[-0.05110515],68,53,easy,minus,dotcolour,alfa,,,128,19,V,R,
459,81,39,10,3,53,27,949,['c'],1,left,['1'],6,311,[0.10717466],85,53,easy,minus,dotcolour,alfa,,,128,19,V,R,
460,82,40,10,3,47,33,734,['n'],0,left,['2'],5,238,[-0.00397576],52,47,medium,minus,dotcolour,alfa,,,128,19,V,R,
461,83,41,10,3,33,47,584,['n'],1,right,['2'],5,447,[-0.12831299],85,47,medium,minus,dotcolour,alfa,,,128,19,V,R,
462,84,0,11,3,44,36,1201,['n'],0,left,['0'],1,1598,[0.19477177],20,44,hard,minus,dotcolour,alfa,,,128,19,V,R,
463,85,1,11,3,47,33,833,['c'],1,left,['1'],6,533,[0.0689131],70,47,medium,minus,dotcolour,alfa,,,128,19,V,R,
464,86,2,11,3,36,44,751,['n'],1,right,['9'],2,491,[-0.06627142],70,44,hard,minus,dotcolour,alfa,,,128,19,V,R,
465,87,3,11,3,36,44,900,['n'],1,right,['3'],4,892,[-0.06364831],65,44,hard,minus,dotcolour,alfa,,,128,19,V,R,
466,88,4,11,3,44,36,1433,['c'],1,left,['2'],5,424,[0.21637807],95,44,hard,minus,dotcolour,alfa,,,128,19,V,R,
467,89,5,11,3,27,53,650,['n'],1,right,['2'],5,551,[-0.15115127],86,53,easy,minus,dotcolour,alfa,,,128,19,V,R,
468,90,6,11,3,47,33,901,['c'],1,left,['2'],5,389,[0.12530956],86,47,medium,minus,dotcolour,alfa,,,128,19,V,R,
469,91,7,11,3,47,33,1150,['c'],1,left,['2'],5,257,[0.1263749],90,47,medium,minus,dotcolour,alfa,,,128,19,V,R,
470,92,8,11,3,36,44,717,['n'],1,right,['3'],4,515,[-0.09763702],77,44,hard,minus,dotcolour,alfa,,,128,19,V,R,
471,93,9,11,3,33,47,617,['n'],1,right,['2'],5,239,[-0.13799805],93,47,medium,minus,dotcolour,alfa,,,128,19,V,R,
472,94,10,11,3,33,47,750,['n'],1,right,['2'],5,224,[-0.08203348],83,47,medium,minus,dotcolour,alfa,,,128,19,V,R,
473,95,11,11,3,53,27,716,['c'],1,left,['2'],5,243,[0.10215935],87,53,easy,minus,dotcolour,alfa,,,128,19,V,R,
474,96,12,11,3,44,36,1150,['n'],0,left,['8'],3,317,[-0.02420419],60,44,hard,minus,dotcolour,alfa,,,128,19,V,R,
475,97,13,11,3,36,44,734,['n'],1,right,['2'],5,268,[-0.05620536],73,44,hard,minus,dotcolour,alfa,,,128,19,V,R,
476,98,14,11,3,36,44,618,['n'],1,right,['2'],5,243,[-0.0881045],83,44,hard,minus,dotcolour,alfa,,,128,19,V,R,
477,99,15,11,3,33,47,551,['n'],1,right,['2'],5,204,[-0.18065202],97,47,medium,minus,dotcolour,alfa,,,128,19,V,R,
478,100,16,11,3,53,27,1917,['n'],0,left,['0'],1,992,[0.01002629],48,53,easy,minus,dotcolour,alfa,,,128,19,V,R,
479,101,17,11,3,47,33,717,['c'],1,left,['2'],5,294,[0.20261734],97,47,medium,minus,dotcolour,alfa,,,128,19,V,R,
480,102,18,11,3,53,27,483,['c'],1,left,['2'],5,223,[0.1587086],95,53,easy,minus,dotcolour,alfa,,,128,19,V,R,
481,103,19,11,3,33,47,1566,['n'],1,right,['2'],5,304,[-0.12131492],88,47,medium,minus,dotcolour,alfa,,,128,19,V,R,
482,104,20,11,3,27,53,784,['n'],1,right,['1'],6,294,[-0.08346675],80,53,easy,minus,dotcolour,alfa,,,128,19,V,R,
483,105,21,11,3,33,47,650,['n'],1,right,['1'],6,217,[-0.18445845],97,47,medium,minus,dotcolour,alfa,,,128,19,V,R,
484,106,22,11,3,36,44,732,['n'],1,right,['1'],6,213,[-0.09900881],87,44,hard,minus,dotcolour,alfa,,,128,19,V,R,
485,107,23,11,3,47,33,1083,['n'],0,left,['2'],5,170,[-0.03006151],66,47,medium,minus,dotcolour,alfa,,,128,19,V,R,
486,108,24,11,3,44,36,700,['n'],0,left,['2'],5,337,[-0.03321648],63,44,hard,minus,dotcolour,alfa,,,128,19,V,R,
487,109,25,11,3,27,53,733,['n'],1,right,['2'],5,391,[-0.08443971],77,53,easy,minus,dotcolour,alfa,,,128,19,V,R,
488,110,26,11,3,27,53,600,['n'],1,right,['2'],5,408,[-0.04198512],64,53,easy,minus,dotcolour,alfa,,,128,19,V,R,
489,111,27,11,3,47,33,2400,['c'],1,left,['3'],4,537,[0.14912499],86,47,medium,minus,dotcolour,alfa,,,128,19,V,R,
490,112,28,11,3,53,27,733,['c'],1,left,['1'],6,223,[0.13454268],93,53,easy,minus,dotcolour,alfa,,,128,19,V,R,
491,113,29,11,3,33,47,634,['n'],1,right,['2'],5,182,[-0.04164276],71,47,medium,minus,dotcolour,alfa,,,128,19,V,R,
492,114,30,11,3,53,27,1233,['c'],1,left,['1'],6,663,[0.23775131],93,53,easy,minus,dotcolour,alfa,,,128,19,V,R,
493,115,31,11,3,44,36,950,['c'],1,left,['3'],4,391,[0.03222938],61,44,hard,minus,dotcolour,alfa,,,128,19,V,R,
494,116,32,11,3,53,27,834,['c'],1,left,['2'],5,335,[0.16538051],93,53,easy,minus,dotcolour,alfa,,,128,19,V,R,
495,117,33,11,3,44,36,800,['n'],0,left,['2'],5,291,[-0.11650284],87,44,hard,minus,dotcolour,alfa,,,128,19,V,R,
496,118,34,11,3,27,53,617,['n'],1,right,['1'],6,264,[-0.17165765],95,53,easy,minus,dotcolour,alfa,,,128,19,V,R,
497,119,35,11,3,44,36,700,['n'],0,left,['1'],6,403,[-0.08270511],76,44,hard,minus,dotcolour,alfa,,,128,19,V,R,
498,120,36,11,3,27,53,983,['n'],1,right,['2'],5,237,[-0.09513487],85,53,easy,minus,dotcolour,alfa,,,128,19,V,R,
499,121,37,11,3,47,33,1216,['c'],1,left,['2'],5,612,[0.3017073],97,47,medium,minus,dotcolour,alfa,,,128,19,V,R,
500,122,38,11,3,27,53,849,['n'],1,right,['2'],5,796,[-0.18171836],86,53,easy,minus,dotcolour,alfa,,,128,19,V,R,
501,123,39,11,3,36,44,950,['c'],0,right,['1'],6,254,[0.07033535],78,44,hard,minus,dotcolour,alfa,,,128,19,V,R,
502,124,40,11,3,33,47,700,['n'],1,right,['2'],5,666,[-0.12568477],80,47,medium,minus,dotcolour,alfa,,,128,19,V,R,
503,125,41,11,3,53,27,967,['c'],1,left,['1'],6,345,[0.14009537],90,53,easy,minus,dotcolour,alfa,,,128,19,V,R,
504,0,0,12,4,27,53,783,['n'],1,right,['2'],5,525,[-0.09317808],99,53,easy,plus,dotcolour,alfa,,,128,19,V,R,
505,1,1,12,4,47,33,400,['n'],0,left,['2'],5,218,[-0.07223908],100,47,medium,plus,dotcolour,alfa,,,128,19,V,R,
506,2,2,12,4,36,44,634,['n'],1,right,['2'],5,185,[-0.08278393],100,44,hard,plus,dotcolour,alfa,,,128,19,V,R,
507,3,3,12,4,53,27,533,['c'],1,left,['2'],5,222,[0.20160721],100,53,easy,plus,dotcolour,alfa,,,128,19,V,R,
508,4,4,12,4,27,53,550,['n'],1,right,['2'],5,224,[-0.06923612],99,53,easy,plus,dotcolour,alfa,,,128,19,V,R,
509,5,5,12,4,27,53,533,['n'],1,right,['1'],6,235,[-0.04055743],95,53,easy,plus,dotcolour,alfa,,,128,19,V,R,
510,6,6,12,4,33,47,683,['n'],1,right,['1'],6,207,[-0.03046526],92,47,medium,plus,dotcolour,alfa,,,128,19,V,R,
511,7,7,12,4,27,53,600,['n'],1,right,['1'],6,232,[-0.18804843],100,53,easy,plus,dotcolour,alfa,,,128,19,V,R,
512,8,8,12,4,53,27,1034,['c'],1,left,['1'],6,215,[0.06216228],99,53,easy,plus,dotcolour,alfa,,,128,19,V,R,
513,9,9,12,4,53,27,750,['c'],1,left,['1'],6,138,[0.08801338],100,53,easy,plus,dotcolour,alfa,,,128,19,V,R,
514,10,10,12,4,36,44,367,['n'],1,right,['1'],6,367,[-0.08324054],99,44,hard,plus,dotcolour,alfa,,,128,19,V,R,
515,11,11,12,4,47,33,734,['c'],1,left,['1'],6,236,[0.0946111],100,47,medium,plus,dotcolour,alfa,,,128,19,V,R,
516,12,12,12,4,44,36,583,['c'],1,left,['1'],6,189,[0.04344425],97,44,hard,plus,dotcolour,alfa,,,128,19,V,R,
517,13,13,12,4,36,44,717,['c'],0,right,['1'],6,402,[-0.02070455],24,44,hard,plus,dotcolour,alfa,,,128,19,V,R,
518,14,14,12,4,33,47,716,['n'],1,right,['1'],6,487,[-0.12575581],100,47,medium,plus,dotcolour,alfa,,,128,19,V,R,
519,15,15,12,4,44,36,550,['n'],0,left,['1'],6,222,[-0.03180332],92,44,hard,plus,dotcolour,alfa,,,128,19,V,R,
520,16,16,12,4,44,36,766,['c'],1,left,['1'],6,136,[0.11008718],100,44,hard,plus,dotcolour,alfa,,,128,19,V,R,
521,17,17,12,4,53,27,567,['c'],1,left,['1'],6,269,[0.08723147],100,53,easy,plus,dotcolour,alfa,,,128,19,V,R,
522,18,18,12,4,36,44,517,['c'],0,right,['1'],6,247,[0.02214153],83,44,hard,plus,dotcolour,alfa,,,128,19,V,R,
523,19,19,12,4,36,44,767,['n'],1,right,['1'],6,184,[-0.04626947],98,44,hard,plus,dotcolour,alfa,,,128,19,V,R,
524,20,20,12,4,53,27,717,['c'],1,left,['1'],6,653,[0.20432126],100,53,easy,plus,dotcolour,alfa,,,128,19,V,R,
525,21,21,12,4,33,47,751,['n'],1,right,['1'],6,286,[-0.07787005],99,47,medium,plus,dotcolour,alfa,,,128,19,V,R,
526,22,22,12,4,47,33,634,['n'],0,left,['8'],3,1427,[0.14451224],1,47,medium,plus,dotcolour,alfa,,,128,19,V,R,
527,23,23,12,4,33,47,917,['c'],0,right,['1'],6,750,[0.05840058],92,47,medium,plus,dotcolour,alfa,,,128,19,V,R,
528,24,24,12,4,53,27,1200,['c'],1,left,['1'],6,297,[0.11747823],100,53,easy,plus,dotcolour,alfa,,,128,19,V,R,
529,25,25,12,4,47,33,701,['n'],0,left,['1'],6,1091,[0.09938907],3,47,medium,plus,dotcolour,alfa,,,128,19,V,R,
530,26,26,12,4,44,36,784,['n'],0,left,['1'],6,240,[-0.09686277],100,44,hard,plus,dotcolour,alfa,,,128,19,V,R,
531,27,27,12,4,44,36,1101,['c'],1,left,['1'],6,300,[0.18665347],100,44,hard,plus,dotcolour,alfa,,,128,19,V,R,
532,28,28,12,4,47,33,867,['c'],1,left,['1'],6,390,[0.15073446],100,47,medium,plus,dotcolour,alfa,,,128,19,V,R,
533,29,29,12,4,53,27,633,['c'],1,left,['1'],6,286,[0.22861301],100,53,easy,plus,dotcolour,alfa,,,128,19,V,R,
534,30,30,12,4,47,33,984,['c'],1,left,['1'],6,293,[0.00233341],54,47,medium,plus,dotcolour,alfa,,,128,19,V,R,
535,31,31,12,4,27,53,1101,['n'],1,right,['1'],6,287,[-0.16751715],100,53,easy,plus,dotcolour,alfa,,,128,19,V,R,
536,32,32,12,4,47,33,983,['c'],1,left,['1'],6,325,[0.27542659],100,47,medium,plus,dotcolour,alfa,,,128,19,V,R,
537,33,33,12,4,27,53,549,['n'],1,right,['1'],6,179,[-0.10678836],100,53,easy,plus,dotcolour,alfa,,,128,19,V,R,
538,34,34,12,4,33,47,617,['n'],1,right,['1'],6,237,[-0.03464881],93,47,medium,plus,dotcolour,alfa,,,128,19,V,R,
539,35,35,12,4,33,47,584,['n'],1,right,['1'],6,261,[-0.12598029],100,47,medium,plus,dotcolour,alfa,,,128,19,V,R,
540,36,36,12,4,44,36,734,['c'],1,left,['1'],6,167,[0.06762463],100,44,hard,plus,dotcolour,alfa,,,128,19,V,R,
541,37,37,12,4,36,44,800,['n'],1,right,['1'],6,257,[-0.18076662],100,44,hard,plus,dotcolour,alfa,,,128,19,V,R,
542,38,38,12,4,33,47,600,['n'],1,right,['1'],6,200,[-0.10573925],100,47,medium,plus,dotcolour,alfa,,,128,19,V,R,
543,39,39,12,4,36,44,467,['n'],1,right,['1'],6,295,[-0.02991476],88,44,hard,plus,dotcolour,alfa,,,128,19,V,R,
544,40,40,12,4,44,36,717,['c'],1,left,['1'],6,224,[0.02027502],82,44,hard,plus,dotcolour,alfa,,,128,19,V,R,
545,41,41,12,4,27,53,516,['n'],1,right,['1'],6,210,[-0.07758569],100,53,easy,plus,dotcolour,alfa,,,128,19,V,R,
546,42,0,13,4,47,33,1000,['c'],1,left,['1'],6,365,[-0.02808484],16,47,medium,plus,dotcolour,alfa,,,128,19,V,R,
547,43,1,13,4,27,53,683,['n'],1,right,['1'],6,253,[-0.14120966],100,53,easy,plus,dotcolour,alfa,,,128,19,V,R,
548,44,2,13,4,53,27,784,['c'],1,left,['1'],6,237,[0.0542493],98,53,easy,plus,dotcolour,alfa,,,128,19,V,R,
549,45,3,13,4,47,33,1850,['c'],1,left,['2'],5,508,[0.11606342],100,47,medium,plus,dotcolour,alfa,,,128,19,V,R,
550,46,4,13,4,27,53,450,['n'],1,right,['1'],6,286,[-0.19633715],100,53,easy,plus,dotcolour,alfa,,,128,19,V,R,
551,47,5,13,4,53,27,800,['c'],1,left,['1'],6,292,[0.17913856],100,53,easy,plus,dotcolour,alfa,,,128,19,V,R,
552,48,6,13,4,36,44,767,['n'],1,right,['1'],6,242,[-0.13936922],100,44,hard,plus,dotcolour,alfa,,,128,19,V,R,
553,49,7,13,4,33,47,499,['n'],1,right,['1'],6,229,[-0.13608891],100,47,medium,plus,dotcolour,alfa,,,128,19,V,R,
554,50,8,13,4,47,33,834,['c'],1,left,['1'],6,292,[0.05659661],98,47,medium,plus,dotcolour,alfa,,,128,19,V,R,
555,51,9,13,4,36,44,617,['n'],1,right,['1'],6,217,[-0.09775283],100,44,hard,plus,dotcolour,alfa,,,128,19,V,R,
556,52,10,13,4,36,44,933,['c'],0,right,['1'],6,172,[0.06359202],100,44,hard,plus,dotcolour,alfa,,,128,19,V,R,
557,53,11,13,4,47,33,901,['c'],1,left,['2'],5,338,[0.06453887],98,47,medium,plus,dotcolour,alfa,,,128,19,V,R,
558,54,12,13,4,27,53,600,['n'],1,right,['1'],6,317,[-0.12649448],100,53,easy,plus,dotcolour,alfa,,,128,19,V,R,
559,55,13,13,4,47,33,683,['n'],0,left,['1'],6,199,[-0.01420111],76,47,medium,plus,dotcolour,alfa,,,128,19,V,R,
560,56,14,13,4,44,36,1633,['n'],0,left,['2'],5,383,[-0.03833568],90,44,hard,plus,dotcolour,alfa,,,128,19,V,R,
561,57,15,13,4,44,36,650,['n'],0,left,['2'],5,335,[-0.0886924],100,44,hard,plus,dotcolour,alfa,,,128,19,V,R,
562,58,16,13,4,44,36,799,['c'],1,left,['2'],5,195,[0.09276808],100,44,hard,plus,dotcolour,alfa,,,128,19,V,R,
563,59,17,13,4,27,53,617,['n'],1,right,['1'],6,180,[-0.10358591],100,53,easy,plus,dotcolour,alfa,,,128,19,V,R,
564,60,18,13,4,33,47,567,['n'],1,right,['1'],6,262,[-0.01417539],73,47,medium,plus,dotcolour,alfa,,,128,19,V,R,
565,61,19,13,4,36,44,800,['n'],1,right,['1'],6,342,[-0.11837896],100,44,hard,plus,dotcolour,alfa,,,128,19,V,R,
566,62,20,13,4,36,44,767,['n'],1,right,['2'],5,227,[-0.0722689],100,44,hard,plus,dotcolour,alfa,,,128,19,V,R,
567,63,21,13,4,33,47,617,['n'],1,right,['2'],5,258,[-0.13066653],100,47,medium,plus,dotcolour,alfa,,,128,19,V,R,
568,64,22,13,4,27,53,450,['n'],1,right,['1'],6,326,[-0.0130012],69,53,easy,plus,dotcolour,alfa,,,128,19,V,R,
569,65,23,13,4,44,36,667,['n'],0,left,['2'],5,816,[-0.22113883],100,44,hard,plus,dotcolour,alfa,,,128,19,V,R,
570,66,24,13,4,53,27,434,['c'],1,left,['2'],5,288,[0.11638258],100,53,easy,plus,dotcolour,alfa,,,128,19,V,R,
571,67,25,13,4,33,47,650,['n'],1,right,['2'],5,323,[-0.06571805],98,47,medium,plus,dotcolour,alfa,,,128,19,V,R,
572,68,26,13,4,47,33,534,['c'],1,left,['1'],6,298,[0.12113758],100,47,medium,plus,dotcolour,alfa,,,128,19,V,R,
573,69,27,13,4,53,27,1367,['c'],1,left,['3'],4,408,[0.05325953],95,53,easy,plus,dotcolour,alfa,,,128,19,V,R,
574,70,28,13,4,33,47,666,['n'],1,right,['2'],5,319,[-0.07386684],99,47,medium,plus,dotcolour,alfa,,,128,19,V,R,
575,71,29,13,4,44,36,583,['n'],0,left,['2'],5,205,[-0.14668227],100,44,hard,plus,dotcolour,alfa,,,128,19,V,R,
576,72,30,13,4,44,36,750,['c'],1,left,['2'],5,223,[0.0739652],100,44,hard,plus,dotcolour,alfa,,,128,19,V,R,
577,73,31,13,4,33,47,633,['n'],1,right,['2'],5,149,[-0.09139397],100,47,medium,plus,dotcolour,alfa,,,128,19,V,R,
578,74,32,13,4,47,33,417,['n'],0,left,['2'],5,240,[-0.01963751],81,47,medium,plus,dotcolour,alfa,,,128,19,V,R,
579,75,33,13,4,36,44,651,['n'],1,right,['1'],6,174,[-0.12514186],100,44,hard,plus,dotcolour,alfa,,,128,19,V,R,
580,76,34,13,4,53,27,533,['c'],1,left,['1'],6,226,[0.20984401],100,53,easy,plus,dotcolour,alfa,,,128,19,V,R,
581,77,35,13,4,33,47,600,['n'],1,right,['1'],6,218,[-0.10546075],100,47,medium,plus,dotcolour,alfa,,,128,19,V,R,
582,78,36,13,4,53,27,617,['n'],0,left,['0'],1,1314,[0.20065111],0,53,easy,plus,dotcolour,alfa,,,128,19,V,R,
583,79,37,13,4,27,53,800,['n'],1,right,['1'],6,599,[-0.15259782],100,53,easy,plus,dotcolour,alfa,,,128,19,V,R,
584,80,38,13,4,27,53,666,['n'],1,right,['1'],6,485,[-0.07834234],98,53,easy,plus,dotcolour,alfa,,,128,19,V,R,
585,81,39,13,4,44,36,567,['c'],1,left,['1'],6,213,[0.07621706],100,44,hard,plus,dotcolour,alfa,,,128,19,V,R,
586,82,40,13,4,53,27,867,['c'],1,left,['1'],6,195,[0.10747606],100,53,easy,plus,dotcolour,alfa,,,128,19,V,R,
587,83,41,13,4,36,44,833,['n'],1,right,['1'],6,267,[-0.12988156],100,44,hard,plus,dotcolour,alfa,,,128,19,V,R,
588,84,0,14,4,53,27,816,['c'],1,left,['1'],6,351,[0.1069383],100,53,easy,plus,dotcolour,alfa,,,128,19,V,R,
589,85,1,14,4,47,33,650,['c'],1,left,['1'],6,265,[0.07957558],100,47,medium,plus,dotcolour,alfa,,,128,19,V,R,
590,86,2,14,4,36,44,734,['n'],1,right,['1'],6,1122,[0.06861572],9,44,hard,plus,dotcolour,alfa,,,128,19,V,R,
591,87,3,14,4,53,27,816,['c'],1,left,['1'],6,349,[0.19182321],100,53,easy,plus,dotcolour,alfa,,,128,19,V,R,
592,88,4,14,4,47,33,767,['c'],1,left,['1'],6,258,[0.09349103],100,47,medium,plus,dotcolour,alfa,,,128,19,V,R,
593,89,5,14,4,33,47,550,['n'],1,right,['1'],6,243,[-0.14740105],100,47,medium,plus,dotcolour,alfa,,,128,19,V,R,
594,90,6,14,4,47,33,767,['n'],0,left,['1'],6,500,[0.01287519],34,47,medium,plus,dotcolour,alfa,,,128,19,V,R,
595,91,7,14,4,44,36,867,['c'],1,left,['1'],6,286,[0.15342203],100,44,hard,plus,dotcolour,alfa,,,128,19,V,R,
596,92,8,14,4,44,36,800,['c'],1,left,['1'],6,252,[0.05497238],98,44,hard,plus,dotcolour,alfa,,,128,19,V,R,
597,93,9,14,4,27,53,433,['n'],1,right,['1'],6,322,[-0.17664821],100,53,easy,plus,dotcolour,alfa,,,128,19,V,R,
598,94,10,14,4,47,33,550,['c'],1,left,['2'],5,232,[0.03728976],94,47,medium,plus,dotcolour,alfa,,,128,19,V,R,
599,95,11,14,4,53,27,801,['c'],1,left,['1'],6,224,[0.06425784],99,53,easy,plus,dotcolour,alfa,,,128,19,V,R,
600,96,12,14,4,33,47,483,['n'],1,right,['1'],6,237,[-0.08367069],100,47,medium,plus,dotcolour,alfa,,,128,19,V,R,
601,97,13,14,4,27,53,500,['n'],1,right,['1'],6,337,[-0.09615936],100,53,easy,plus,dotcolour,alfa,,,128,19,V,R,
602,98,14,14,4,33,47,884,['c'],0,right,['1'],6,202,[0.04354873],97,47,medium,plus,dotcolour,alfa,,,128,19,V,R,
603,99,15,14,4,36,44,683,['n'],1,right,['1'],6,207,[-0.13936527],100,44,hard,plus,dotcolour,alfa,,,128,19,V,R,
604,100,16,14,4,27,53,567,['n'],1,right,['1'],6,210,[-0.03820871],95,53,easy,plus,dotcolour,alfa,,,128,19,V,R,
605,101,17,14,4,33,47,583,['n'],1,right,['2'],5,234,[-0.10270126],100,47,medium,plus,dotcolour,alfa,,,128,19,V,R,
606,102,18,14,4,44,36,650,['n'],0,left,['2'],5,217,[-0.09379533],100,44,hard,plus,dotcolour,alfa,,,128,19,V,R,
607,103,19,14,4,44,36,650,['c'],1,left,['1'],6,216,[0.06960784],100,44,hard,plus,dotcolour,alfa,,,128,19,V,R,
608,104,20,14,4,44,36,534,['n'],0,left,['1'],6,299,[-0.13209399],100,44,hard,plus,dotcolour,alfa,,,128,19,V,R,
609,105,21,14,4,27,53,1234,['c'],0,right,['8'],3,751,[-0.1158211],1,53,easy,plus,dotcolour,alfa,,,128,19,V,R,
610,106,22,14,4,53,27,2966,['c'],1,left,['2'],5,508,[0.12780505],100,53,easy,plus,dotcolour,alfa,,,128,19,V,R,
611,107,23,14,4,33,47,716,['n'],1,right,['1'],6,292,[-0.08742277],100,47,medium,plus,dotcolour,alfa,,,128,19,V,R,
612,108,24,14,4,53,27,717,['c'],1,left,['1'],6,316,[0.13189064],100,53,easy,plus,dotcolour,alfa,,,128,19,V,R,
613,109,25,14,4,36,44,617,['n'],1,right,['2'],5,368,[-0.12114713],100,44,hard,plus,dotcolour,alfa,,,128,19,V,R,
614,110,26,14,4,33,47,550,['n'],1,right,['2'],5,245,[-0.15806241],100,47,medium,plus,dotcolour,alfa,,,128,19,V,R,
615,111,27,14,4,36,44,466,['n'],1,right,['2'],5,218,[-0.17723695],100,44,hard,plus,dotcolour,alfa,,,128,19,V,R,
616,112,28,14,4,33,47,466,['c'],0,right,['2'],5,232,[0.07139875],100,47,medium,plus,dotcolour,alfa,,,128,19,V,R,
617,113,29,14,4,27,53,567,['n'],1,right,['2'],5,201,[-0.14501239],100,53,easy,plus,dotcolour,alfa,,,128,19,V,R,
618,114,30,14,4,47,33,783,['c'],1,left,['2'],5,283,[0.11535846],100,47,medium,plus,dotcolour,alfa,,,128,19,V,R,
619,115,31,14,4,36,44,1017,['c'],0,right,['3'],4,609,[-0.08047733],2,44,hard,plus,dotcolour,alfa,,,128,19,V,R,
620,116,32,14,4,53,27,734,['c'],1,left,['1'],6,260,[0.04040555],95,53,easy,plus,dotcolour,alfa,,,128,19,V,R,
621,117,33,14,4,53,27,816,['c'],1,left,['1'],6,346,[0.12947943],100,53,easy,plus,dotcolour,alfa,,,128,19,V,R,
622,118,34,14,4,36,44,750,['n'],1,right,['2'],5,599,[-0.22163993],100,44,hard,plus,dotcolour,alfa,,,128,19,V,R,
623,119,35,14,4,47,33,667,['c'],1,left,['2'],5,198,[0.0640825],99,47,medium,plus,dotcolour,alfa,,,128,19,V,R,
624,120,36,14,4,27,53,468,['n'],1,right,['1'],6,685,[-0.15398613],100,53,easy,plus,dotcolour,alfa,,,128,19,V,R,
625,121,37,14,4,27,53,534,['n'],1,right,['2'],5,277,[-0.11782225],100,53,easy,plus,dotcolour,alfa,,,128,19,V,R,
626,122,38,14,4,36,44,3200,['n'],1,right,['3'],4,539,[-0.19577264],100,44,hard,plus,dotcolour,alfa,,,128,19,V,R,
627,123,39,14,4,44,36,1033,['c'],1,left,['2'],5,373,[0.11564914],100,44,hard,plus,dotcolour,alfa,,,128,19,V,R,
628,124,40,14,4,47,33,916,['c'],1,left,['2'],5,338,[0.14255894],100,47,medium,plus,dotcolour,alfa,,,128,19,V,R,
629,125,41,14,4,44,36,834,['n'],0,left,['2'],5,237,[-0.08304795],100,44,hard,plus,dotcolour,alfa,,,128,19,V,R,
630,0,0,15,5,47,33,1951,['c'],1,left,['3'],4,305,[0.04517852],68,47,medium,minus,dotcolour,alfa,,,128,19,V,R,
631,1,1,15,5,53,27,634,['c'],1,left,['1'],6,269,[0.11687605],88,53,easy,minus,dotcolour,alfa,,,128,19,V,R,
632,2,2,15,5,27,53,917,['n'],1,right,['2'],5,294,[-0.1829675],95,53,easy,minus,dotcolour,alfa,,,128,19,V,R,
633,3,3,15,5,27,53,600,['n'],1,right,['3'],4,604,[-0.18341879],89,53,easy,minus,dotcolour,alfa,,,128,19,V,R,
634,4,4,15,5,44,36,700,['c'],1,left,['2'],5,353,[0.07729172],76,44,hard,minus,dotcolour,alfa,,,128,19,V,R,
635,5,5,15,5,33,47,717,['n'],1,right,['2'],5,487,[-0.12345298],83,47,medium,minus,dotcolour,alfa,,,128,19,V,R,
636,6,6,15,5,47,33,816,['c'],1,left,['1'],6,428,[0.10258372],80,47,medium,minus,dotcolour,alfa,,,128,19,V,R,
637,7,7,15,5,36,44,734,['n'],1,right,['2'],5,503,[-0.03214482],60,44,hard,minus,dotcolour,alfa,,,128,19,V,R,
638,8,8,15,5,44,36,2334,['n'],0,left,['2'],5,311,[-0.08543384],80,44,hard,minus,dotcolour,alfa,,,128,19,V,R,
639,9,9,15,5,36,44,850,['c'],0,right,['1'],6,346,[-0.01857687],43,44,hard,minus,dotcolour,alfa,,,128,19,V,R,
640,10,10,15,5,36,44,932,['n'],1,right,['2'],5,383,[-0.04950073],67,44,hard,minus,dotcolour,alfa,,,128,19,V,R,
641,11,11,15,5,47,33,1049,['c'],1,left,['1'],6,1024,[0.11381445],73,47,medium,minus,dotcolour,alfa,,,128,19,V,R,
642,12,12,15,5,36,44,734,['n'],1,right,['2'],5,458,[-0.08246025],75,44,hard,minus,dotcolour,alfa,,,128,19,V,R,
643,13,13,15,5,53,27,883,['c'],1,left,['1'],6,278,[0.18244096],96,53,easy,minus,dotcolour,alfa,,,128,19,V,R,
644,14,14,15,5,33,47,583,['n'],1,right,['1'],6,228,[-0.07223572],80,47,medium,minus,dotcolour,alfa,,,128,19,V,R,
645,15,15,15,5,47,33,566,['c'],1,left,['2'],5,246,[0.0843693],82,47,medium,minus,dotcolour,alfa,,,128,19,V,R,
646,16,16,15,5,47,33,683,['c'],1,left,['2'],5,418,[0.1712942],92,47,medium,minus,dotcolour,alfa,,,128,19,V,R,
647,17,17,15,5,33,47,650,['n'],1,right,['2'],5,216,[-0.14328765],94,47,medium,minus,dotcolour,alfa,,,128,19,V,R,
648,18,18,15,5,44,36,733,['c'],1,left,['1'],6,172,[0.09463675],89,44,hard,minus,dotcolour,alfa,,,128,19,V,R,
649,19,19,15,5,27,53,434,['n'],1,right,['1'],6,213,[-0.07153701],80,53,easy,minus,dotcolour,alfa,,,128,19,V,R,
650,20,20,15,5,53,27,667,['n'],0,left,['0'],1,923,[0.01181075],47,53,easy,minus,dotcolour,alfa,,,128,19,V,R,
651,21,21,15,5,36,44,1166,['n'],1,right,['1'],6,200,[-0.08514887],85,44,hard,minus,dotcolour,alfa,,,128,19,V,R,
652,22,22,15,5,27,53,750,['n'],1,right,['1'],6,428,[-0.08249761],76,53,easy,minus,dotcolour,alfa,,,128,19,V,R,
653,23,23,15,5,53,27,701,['c'],1,left,['1'],6,296,[0.14603991],92,53,easy,minus,dotcolour,alfa,,,128,19,V,R,
654,24,24,15,5,47,33,715,['n'],0,left,['2'],5,321,[-0.02452981],60,47,medium,minus,dotcolour,alfa,,,128,19,V,R,
655,25,25,15,5,53,27,399,['n'],0,left,['1'],6,262,[-0.00867015],54,53,easy,minus,dotcolour,alfa,,,128,19,V,R,
656,26,26,15,5,27,53,1534,['n'],1,right,['1'],6,326,[-0.18017301],94,53,easy,minus,dotcolour,alfa,,,128,19,V,R,
657,27,27,15,5,44,36,750,['c'],1,left,['1'],6,260,[0.08269869],81,44,hard,minus,dotcolour,alfa,,,128,19,V,R,
658,28,28,15,5,44,36,699,['c'],1,left,['1'],6,247,[0.08023963],81,44,hard,minus,dotcolour,alfa,,,128,19,V,R,
659,29,29,15,5,44,36,634,['c'],1,left,['1'],6,341,[0.05900401],71,44,hard,minus,dotcolour,alfa,,,128,19,V,R,
660,30,30,15,5,47,33,750,['c'],1,left,['1'],6,323,[0.13693997],90,47,medium,minus,dotcolour,alfa,,,128,19,V,R,
661,31,31,15,5,27,53,516,['n'],1,right,['2'],5,314,[-0.13384789],90,53,easy,minus,dotcolour,alfa,,,128,19,V,R,
662,32,32,15,5,33,47,452,['n'],1,right,['1'],6,276,[-0.05644203],72,47,medium,minus,dotcolour,alfa,,,128,19,V,R,
663,33,33,15,5,33,47,351,['c'],0,right,['1'],6,308,[0.0126349],55,47,medium,minus,dotcolour,alfa,,,128,19,V,R,
664,34,34,15,5,27,53,283,['n'],1,right,['1'],6,374,[-0.20601931],95,53,easy,minus,dotcolour,alfa,,,128,19,V,R,
665,35,35,15,5,44,36,851,['c'],1,left,['2'],5,326,[0.11171265],85,44,hard,minus,dotcolour,alfa,,,128,19,V,R,
666,36,36,15,5,36,44,667,['n'],1,right,['2'],5,272,[-0.09418014],84,44,hard,minus,dotcolour,alfa,,,128,19,V,R,
667,37,37,15,5,53,27,967,['c'],1,left,['1'],6,647,[0.09194476],74,53,easy,minus,dotcolour,alfa,,,128,19,V,R,
668,38,38,15,5,53,27,766,['c'],1,left,['2'],5,312,[0.10061339],83,53,easy,minus,dotcolour,alfa,,,128,19,V,R,
669,39,39,15,5,33,47,500,['n'],1,right,['2'],5,289,[-0.10158393],85,47,medium,minus,dotcolour,alfa,,,128,19,V,R,
670,40,40,15,5,36,44,583,['n'],1,right,['2'],5,198,[-0.05618461],76,44,hard,minus,dotcolour,alfa,,,128,19,V,R,
671,41,41,15,5,33,47,450,['n'],1,right,['2'],5,190,[-0.10342566],89,47,medium,minus,dotcolour,alfa,,,128,19,V,R,
672,42,0,16,5,33,47,601,['n'],1,right,['2'],5,262,[-0.05301207],72,47,medium,minus,dotcolour,alfa,,,128,19,V,R,
673,43,1,16,5,33,47,550,['n'],1,right,['9'],2,4054,[-0.46865922],89,47,medium,minus,dotcolour,alfa,,,128,19,V,R,
674,44,2,16,5,53,27,567,['n'],0,left,['2'],5,295,[-0.04799441],69,53,easy,minus,dotcolour,alfa,,,128,19,V,R,
675,45,3,16,5,33,47,550,['n'],1,right,['2'],5,173,[-0.05618411],77,47,medium,minus,dotcolour,alfa,,,128,19,V,R,
676,46,4,16,5,44,36,532,['c'],1,left,['2'],5,194,[0.10011154],89,44,hard,minus,dotcolour,alfa,,,128,19,V,R,
677,47,5,16,5,27,53,484,['n'],1,right,['2'],5,264,[-0.12882361],91,53,easy,minus,dotcolour,alfa,,,128,19,V,R,
678,48,6,16,5,33,47,550,['n'],1,right,['2'],5,257,[-0.08692759],82,47,medium,minus,dotcolour,alfa,,,128,19,V,R,
679,49,7,16,5,44,36,349,['n'],0,left,['2'],5,225,[0.01893381],41,44,hard,minus,dotcolour,alfa,,,128,19,V,R,
680,50,8,16,5,44,36,883,['c'],1,left,['9'],2,582,[0.08306648],73,44,hard,minus,dotcolour,alfa,,,128,19,V,R,
681,51,9,16,5,44,36,400,['n'],0,left,['9'],2,688,[-0.00600352],52,44,hard,minus,dotcolour,alfa,,,128,19,V,R,
682,52,10,16,5,36,44,566,['n'],1,right,['2'],5,183,[-0.0972094],89,44,hard,minus,dotcolour,alfa,,,128,19,V,R,
683,53,11,16,5,27,53,466,['n'],1,right,['2'],5,182,[0.00864327],45,53,easy,minus,dotcolour,alfa,,,128,19,V,R,
684,54,12,16,5,27,53,651,['n'],1,right,['1'],6,358,[-0.1419076],89,53,easy,minus,dotcolour,alfa,,,128,19,V,R,
685,55,13,16,5,47,33,700,['c'],1,left,['2'],5,205,[0.04968336],73,47,medium,minus,dotcolour,alfa,,,128,19,V,R,
686,56,14,16,5,36,44,484,['n'],1,right,['1'],6,307,[-0.09407079],82,44,hard,minus,dotcolour,alfa,,,128,19,V,R,
687,57,15,16,5,47,33,799,['c'],1,left,['1'],6,343,[0.09136132],80,47,medium,minus,dotcolour,alfa,,,128,19,V,R,
688,58,16,16,5,47,33,467,['n'],0,left,['1'],6,224,[-0.08377486],83,47,medium,minus,dotcolour,alfa,,,128,19,V,R,
689,59,17,16,5,27,53,617,['n'],1,right,['1'],6,280,[-0.10292088],85,53,easy,minus,dotcolour,alfa,,,128,19,V,R,
690,60,18,16,5,53,27,949,['c'],1,left,['1'],6,191,[0.07255995],82,53,easy,minus,dotcolour,alfa,,,128,19,V,R,
691,61,19,16,5,44,36,616,['c'],1,left,['1'],6,272,[0.18859104],96,44,hard,minus,dotcolour,alfa,,,128,19,V,R,
692,62,20,16,5,33,47,567,['n'],1,right,['1'],6,280,[-0.0957769],84,47,medium,minus,dotcolour,alfa,,,128,19,V,R,
693,63,21,16,5,47,33,782,['c'],1,left,['1'],6,198,[0.04478214],71,47,medium,minus,dotcolour,alfa,,,128,19,V,R,
694,64,22,16,5,33,47,484,['n'],1,right,['2'],5,204,[-0.12108674],92,47,medium,minus,dotcolour,alfa,,,128,19,V,R,
695,65,23,16,5,53,27,849,['c'],1,left,['1'],6,172,[0.15043012],96,53,easy,minus,dotcolour,alfa,,,128,19,V,R,
696,66,24,16,5,53,27,801,['c'],1,left,['1'],6,262,[0.03624625],65,53,easy,minus,dotcolour,alfa,,,128,19,V,R,
697,67,25,16,5,36,44,451,['n'],1,right,['2'],5,227,[-0.1561414],95,44,hard,minus,dotcolour,alfa,,,128,19,V,R,
698,68,26,16,5,27,53,766,['n'],1,right,['2'],5,308,[-0.01251135],55,53,easy,minus,dotcolour,alfa,,,128,19,V,R,
699,69,27,16,5,27,53,484,['n'],1,right,['1'],6,286,[-0.14351258],92,53,easy,minus,dotcolour,alfa,,,128,19,V,R,
700,70,28,16,5,36,44,766,['n'],1,right,['1'],6,413,[-0.10825111],82,44,hard,minus,dotcolour,alfa,,,128,19,V,R,
701,71,29,16,5,36,44,634,['n'],1,right,['2'],5,229,[-0.11234765],89,44,hard,minus,dotcolour,alfa,,,128,19,V,R,
702,72,30,16,5,53,27,633,['c'],1,left,['1'],6,251,[0.15207172],94,53,easy,minus,dotcolour,alfa,,,128,19,V,R,
703,73,31,16,5,53,27,634,['c'],1,left,['2'],5,321,[0.07735762],77,53,easy,minus,dotcolour,alfa,,,128,19,V,R,
704,74,32,16,5,36,44,734,['n'],1,right,['2'],5,192,[-0.11789504],92,44,hard,minus,dotcolour,alfa,,,128,19,V,R,
705,75,33,16,5,53,27,717,['n'],0,left,['2'],5,189,[-0.08553172],85,53,easy,minus,dotcolour,alfa,,,128,19,V,R,
706,76,34,16,5,47,33,583,['n'],0,left,['1'],6,256,[-0.08383109],82,47,medium,minus,dotcolour,alfa,,,128,19,V,R,
707,77,35,16,5,44,36,383,['n'],0,left,['2'],5,272,[-0.053966],72,44,hard,minus,dotcolour,alfa,,,128,19,V,R,
708,78,36,16,5,47,33,584,['c'],1,left,['2'],5,230,[0.08083211],82,47,medium,minus,dotcolour,alfa,,,128,19,V,R,
709,79,37,16,5,47,33,301,['n'],0,left,['2'],5,203,[-0.09747991],88,47,medium,minus,dotcolour,alfa,,,128,19,V,R,
710,80,38,16,5,44,36,1400,['n'],0,left,['3'],4,388,[0.11710415],16,44,hard,minus,dotcolour,alfa,,,128,19,V,R,
711,81,39,16,5,36,44,950,['c'],0,right,['1'],6,223,[0.05649516],75,44,hard,minus,dotcolour,alfa,,,128,19,V,R,
712,82,40,16,5,27,53,399,['n'],1,right,['1'],6,223,[-0.0594353],76,53,easy,minus,dotcolour,alfa,,,128,19,V,R,
713,83,41,16,5,33,47,751,['n'],1,right,['1'],6,281,[-0.10271764],85,47,medium,minus,dotcolour,alfa,,,128,19,V,R,
714,84,0,17,5,53,27,684,['n'],0,left,['0'],1,735,[0.02928218],42,53,easy,minus,dotcolour,alfa,,,128,19,V,R,
715,85,1,17,5,47,33,650,['c'],1,left,['1'],6,200,[0.11223199],91,47,medium,minus,dotcolour,alfa,,,128,19,V,R,
716,86,2,17,5,36,44,900,['n'],1,right,['2'],5,566,[-0.16046173],87,44,hard,minus,dotcolour,alfa,,,128,19,V,R,
717,87,3,17,5,36,44,650,['n'],1,right,['1'],6,279,[-0.18619468],96,44,hard,minus,dotcolour,alfa,,,128,19,V,R,
718,88,4,17,5,36,44,650,['n'],1,right,['1'],6,242,[-0.05620352],74,44,hard,minus,dotcolour,alfa,,,128,19,V,R,
719,89,5,17,5,53,27,933,['c'],1,left,['1'],6,229,[0.03009614],64,53,easy,minus,dotcolour,alfa,,,128,19,V,R,
720,90,6,17,5,53,27,868,['c'],1,left,['1'],6,610,[0.11748445],79,53,easy,minus,dotcolour,alfa,,,128,19,V,R,
721,91,7,17,5,47,33,717,['n'],0,left,['2'],5,286,[0.02681389],39,47,medium,minus,dotcolour,alfa,,,128,19,V,R,
722,92,8,17,5,33,47,2150,['n'],1,right,['2'],5,2078,[-0.32242868],88,47,medium,minus,dotcolour,alfa,,,128,19,V,R,
723,93,9,17,5,27,53,617,['n'],1,right,['1'],6,363,[-0.21850338],96,53,easy,minus,dotcolour,alfa,,,128,19,V,R,
724,94,10,17,5,27,53,550,['n'],1,right,['1'],6,320,[-0.06457402],74,53,easy,minus,dotcolour,alfa,,,128,19,V,R,
725,95,11,17,5,44,36,668,['n'],0,left,['2'],5,458,[-0.06821011],71,44,hard,minus,dotcolour,alfa,,,128,19,V,R,
726,96,12,17,5,36,44,600,['n'],1,right,['1'],6,184,[-0.05265817],75,44,hard,minus,dotcolour,alfa,,,128,19,V,R,
727,97,13,17,5,44,36,499,['n'],0,left,['2'],5,366,[-0.03937837],64,44,hard,minus,dotcolour,alfa,,,128,19,V,R,
728,98,14,17,5,27,53,434,['c'],0,right,['0'],1,640,[0.02031017],56,53,easy,minus,dotcolour,alfa,,,128,19,V,R,
729,99,15,17,5,53,27,367,['n'],0,left,['0'],1,704,[0.0148246],46,53,easy,minus,dotcolour,alfa,,,128,19,V,R,
730,100,16,17,5,33,47,584,['n'],1,right,['2'],5,557,[-0.13300839],83,47,medium,minus,dotcolour,alfa,,,128,19,V,R,
731,101,17,17,5,47,33,749,['c'],1,left,['1'],6,298,[0.1445922],92,47,medium,minus,dotcolour,alfa,,,128,19,V,R,
732,102,18,17,5,36,44,516,['n'],1,right,['1'],6,187,[-0.0966817],88,44,hard,minus,dotcolour,alfa,,,128,19,V,R,
733,103,19,17,5,44,36,932,['c'],1,left,['1'],6,383,[0.10669965],83,44,hard,minus,dotcolour,alfa,,,128,19,V,R,
734,104,20,17,5,47,33,549,['c'],1,left,['1'],6,276,[0.06597692],76,47,medium,minus,dotcolour,alfa,,,128,19,V,R,
735,105,21,17,5,44,36,933,['n'],0,left,['2'],5,341,[-0.00158109],51,44,hard,minus,dotcolour,alfa,,,128,19,V,R,
736,106,22,17,5,53,27,784,['c'],1,left,['1'],6,240,[0.08740327],83,53,easy,minus,dotcolour,alfa,,,128,19,V,R,
737,107,23,17,5,53,27,467,['c'],1,left,['2'],5,285,[0.13367267],90,53,easy,minus,dotcolour,alfa,,,128,19,V,R,
738,108,24,17,5,36,44,699,['n'],1,right,['2'],5,367,[-0.08116706],77,44,hard,minus,dotcolour,alfa,,,128,19,V,R,
739,109,25,17,5,53,27,800,['c'],1,left,['1'],6,674,[0.15754089],85,53,easy,minus,dotcolour,alfa,,,128,19,V,R,
740,110,26,17,5,33,47,484,['n'],1,right,['2'],5,236,[-0.16773943],96,47,medium,minus,dotcolour,alfa,,,128,19,V,R,
741,111,27,17,5,27,53,699,['n'],1,right,['2'],5,256,[-0.11559794],89,53,easy,minus,dotcolour,alfa,,,128,19,V,R,
742,112,28,17,5,47,33,733,['n'],0,left,['2'],5,298,[0.04198755],33,47,medium,minus,dotcolour,alfa,,,128,19,V,R,
743,113,29,17,5,33,47,716,['n'],1,right,['1'],6,314,[-0.05279348],70,47,medium,minus,dotcolour,alfa,,,128,19,V,R,
744,114,30,17,5,33,47,667,['n'],1,right,['2'],5,220,[-0.11359967],90,47,medium,minus,dotcolour,alfa,,,128,19,V,R,
745,115,31,17,5,47,33,800,['c'],1,left,['2'],5,261,[0.15454444],94,47,medium,minus,dotcolour,alfa,,,128,19,V,R,
746,116,32,17,5,33,47,901,['n'],1,right,['2'],5,424,[-0.14872095],89,47,medium,minus,dotcolour,alfa,,,128,19,V,R,
747,117,33,17,5,44,36,1134,['c'],1,left,['2'],5,482,[0.10176854],79,44,hard,minus,dotcolour,alfa,,,128,19,V,R,
748,118,34,17,5,44,36,617,['n'],0,left,['2'],5,184,[-0.08278587],85,44,hard,minus,dotcolour,alfa,,,128,19,V,R,
749,119,35,17,5,27,53,650,['n'],1,right,['2'],5,192,[-0.07072276],81,53,easy,minus,dotcolour,alfa,,,128,19,V,R,
750,120,36,17,5,44,36,817,['c'],1,left,['1'],6,312,[0.04233663],66,44,hard,minus,dotcolour,alfa,,,128,19,V,R,
751,121,37,17,5,36,44,433,['n'],1,right,['2'],5,260,[-0.16252076],95,44,hard,minus,dotcolour,alfa,,,128,19,V,R,
752,122,38,17,5,27,53,399,['n'],1,right,['2'],5,218,[-0.09332968],86,53,easy,minus,dotcolour,alfa,,,128,19,V,R,
753,123,39,17,5,27,53,401,['n'],1,right,['2'],5,283,[-0.16055767],94,53,easy,minus,dotcolour,alfa,,,128,19,V,R,
754,124,40,17,5,47,33,533,['c'],1,left,['2'],5,204,[0.04515982],71,47,medium,minus,dotcolour,alfa,,,128,19,V,R,
755,125,41,17,5,33,47,367,['n'],1,right,['2'],5,222,[-0.12800008],92,47,medium,minus,dotcolour,alfa,,,128,19,V,R,
,,,,,,,,,,,,,,,,,,,,,1,"volgens mij werden de scores random toegewezen, om je te laten twijfelen",128,19,V,R,
,,,,,,,,,,,,,,,,,,,,,2,['g'],128,19,V,R,
,,,,,,,,,,,,,,,,,,,,,3,['f'],128,19,V,R,
,,,,,,,,,,,,,,,,,,,,,5,[],128,19,V,R,
