trial,withinphasetrial,withinblocktrial,block,phase,dotsLeft,dotsRight,rt,resp,cor,cresp,conf_press,cj,RTconf,ev,fb,diff,difflevel,condition,task,manip,questionID,questionResp,sub,age,gender,handedness,
0,0,0,0,0,27,53,5702,['n'],1,right,['8'],3,2970,[-0.59991575],100,53,easy,minus,dotcolour,beta,,,41,19,V,R,
1,1,1,0,0,27,53,4550,['c'],0,right,['8'],3,2853,[-0.35061572],1,53,easy,minus,dotcolour,beta,,,41,19,V,R,
2,2,2,0,0,47,33,2801,['n'],0,left,['2'],5,2348,[0.14840095],8,47,medium,minus,dotcolour,beta,,,41,19,V,R,
3,3,3,0,0,27,53,6916,['n'],1,right,['2'],5,2705,[-0.80671172],100,53,easy,minus,dotcolour,beta,,,41,19,V,R,
4,4,4,0,0,27,53,1217,['n'],1,right,['1'],6,925,[-0.27207253],98,53,easy,minus,dotcolour,beta,,,41,19,V,R,
5,5,5,0,0,33,47,1634,['n'],1,right,['1'],6,1527,[-0.09006026],62,47,medium,minus,dotcolour,beta,,,41,19,V,R,
6,6,6,0,0,27,53,1333,['n'],1,right,['1'],6,853,[-0.12024459],78,53,easy,minus,dotcolour,beta,,,41,19,V,R,
7,7,7,0,0,53,27,2301,['c'],1,left,['8'],3,1664,[0.15025977],79,53,easy,minus,dotcolour,beta,,,41,19,V,R,
8,8,8,0,0,36,44,1184,['n'],1,right,['1'],6,487,[-0.06719582],57,44,hard,minus,dotcolour,beta,,,41,19,V,R,
9,9,9,0,0,53,27,1416,['n'],0,left,['1'],6,868,[-0.11506235],76,53,easy,minus,dotcolour,beta,,,41,19,V,R,
10,10,10,0,0,53,27,1834,['n'],0,left,['3'],4,793,[0.0197022],18,53,easy,minus,dotcolour,beta,,,41,19,V,R,
11,11,11,0,0,36,44,1000,['n'],1,right,['1'],6,514,[-0.04103072],41,44,hard,minus,dotcolour,beta,,,41,19,V,R,
12,12,12,0,0,53,27,983,['c'],1,left,['1'],6,519,[0.24022251],99,53,easy,minus,dotcolour,beta,,,41,19,V,R,
13,13,13,0,0,44,36,983,['n'],0,left,['1'],6,396,[-0.13674074],91,44,hard,minus,dotcolour,beta,,,41,19,V,R,
14,14,14,0,0,36,44,1583,['n'],1,right,['1'],6,422,[-0.21458673],99,44,hard,minus,dotcolour,beta,,,41,19,V,R,
15,15,15,0,0,44,36,734,['n'],0,left,['1'],6,401,[-0.09511784],75,44,hard,minus,dotcolour,beta,,,41,19,V,R,
16,16,16,0,0,44,36,683,['n'],0,left,['3'],4,583,[-0.07738215],63,44,hard,minus,dotcolour,beta,,,41,19,V,R,
17,17,17,0,0,27,53,850,['n'],1,right,['1'],6,375,[-0.1761865],97,53,easy,minus,dotcolour,beta,,,41,19,V,R,
18,18,18,0,0,36,44,668,['n'],1,right,['1'],6,422,[-0.10562954],80,44,hard,minus,dotcolour,beta,,,41,19,V,R,
19,19,19,0,0,53,27,1066,['c'],1,left,['3'],4,589,[0.24677572],99,53,easy,minus,dotcolour,beta,,,41,19,V,R,
20,20,20,0,0,47,33,783,['n'],0,left,['1'],6,430,[0.06260711],4,47,medium,minus,dotcolour,beta,,,41,19,V,R,
21,21,21,0,0,33,47,784,['n'],1,right,['1'],6,414,[-0.1014624],78,47,medium,minus,dotcolour,beta,,,41,19,V,R,
22,22,22,0,0,36,44,983,['n'],1,right,['1'],6,449,[0.00171869],18,44,hard,minus,dotcolour,beta,,,41,19,V,R,
23,23,23,0,0,33,47,833,['n'],1,right,['1'],6,406,[-0.14742024],93,47,medium,minus,dotcolour,beta,,,41,19,V,R,
24,24,24,0,0,47,33,1066,['c'],1,left,['3'],4,588,[0.01421798],27,47,medium,minus,dotcolour,beta,,,41,19,V,R,
25,25,25,0,0,36,44,1583,['n'],1,right,['1'],6,486,[-0.09972492],76,44,hard,minus,dotcolour,beta,,,41,19,V,R,
26,26,26,0,0,36,44,835,['n'],1,right,['1'],6,435,[-0.13274049],89,44,hard,minus,dotcolour,beta,,,41,19,V,R,
27,27,27,0,0,33,47,667,['n'],1,right,['1'],6,432,[-0.06224453],55,47,medium,minus,dotcolour,beta,,,41,19,V,R,
28,28,28,0,0,44,36,717,['n'],0,left,['1'],6,372,[-0.1145407],85,44,hard,minus,dotcolour,beta,,,41,19,V,R,
29,29,29,0,0,44,36,883,['c'],1,left,['3'],4,418,[0.11823144],85,44,hard,minus,dotcolour,beta,,,41,19,V,R,
30,30,30,0,0,53,27,900,['c'],1,left,['2'],5,471,[0.19460768],97,53,easy,minus,dotcolour,beta,,,41,19,V,R,
31,31,31,0,0,27,53,1017,['n'],1,right,['1'],6,412,[-0.11441399],84,53,easy,minus,dotcolour,beta,,,41,19,V,R,
32,32,32,0,0,44,36,1900,['c'],1,left,['3'],4,409,[0.06729624],58,44,hard,minus,dotcolour,beta,,,41,19,V,R,
33,33,33,0,0,47,33,1516,['c'],1,left,['3'],4,469,[-0.00124665],18,47,medium,minus,dotcolour,beta,,,41,19,V,R,
34,34,34,0,0,47,33,1033,['c'],1,left,['2'],5,530,[0.18686694],96,47,medium,minus,dotcolour,beta,,,41,19,V,R,
35,35,35,0,0,47,33,2500,['n'],0,left,['0'],1,2539,[0.39106205],1,47,medium,minus,dotcolour,beta,,,41,19,V,R,
36,36,36,0,0,33,47,817,['n'],1,right,['1'],6,332,[-0.07990675],68,47,medium,minus,dotcolour,beta,,,41,19,V,R,
37,37,37,0,0,33,47,1034,['n'],1,right,['1'],6,344,[-0.09659519],78,47,medium,minus,dotcolour,beta,,,41,19,V,R,
38,38,38,0,0,44,36,2867,['n'],0,left,['3'],4,296,[-0.13880587],94,44,hard,minus,dotcolour,beta,,,41,19,V,R,
39,39,39,0,0,47,33,917,['c'],1,left,['3'],4,385,[0.19367373],98,47,medium,minus,dotcolour,beta,,,41,19,V,R,
40,40,40,0,0,53,27,900,['c'],1,left,['3'],4,439,[0.07072377],60,53,easy,minus,dotcolour,beta,,,41,19,V,R,
41,41,41,0,0,33,47,900,['n'],1,right,['1'],6,946,[-0.18333456],91,47,medium,minus,dotcolour,beta,,,41,19,V,R,
42,42,0,1,0,36,44,1934,['n'],1,right,['9'],2,568,[-0.11291241],80,44,hard,minus,dotcolour,beta,,,41,19,V,R,
43,43,1,1,0,47,33,1050,['c'],1,left,['3'],4,385,[0.05291872],48,47,medium,minus,dotcolour,beta,,,41,19,V,R,
44,44,2,1,0,47,33,1133,['n'],0,left,['3'],4,294,[-0.08021899],69,47,medium,minus,dotcolour,beta,,,41,19,V,R,
45,45,3,1,0,36,44,1217,['n'],1,right,['3'],4,306,[-0.05078263],46,44,hard,minus,dotcolour,beta,,,41,19,V,R,
46,46,4,1,0,33,47,850,['n'],1,right,['1'],6,893,[-0.10605082],72,47,medium,minus,dotcolour,beta,,,41,19,V,R,
47,47,5,1,0,27,53,783,['n'],1,right,['1'],6,459,[-0.13413229],89,53,easy,minus,dotcolour,beta,,,41,19,V,R,
48,48,6,1,0,33,47,884,['n'],1,right,['1'],6,351,[0.00163421],15,47,medium,minus,dotcolour,beta,,,41,19,V,R,
49,49,7,1,0,33,47,1083,['n'],1,right,['1'],6,351,[-0.20677815],99,47,medium,minus,dotcolour,beta,,,41,19,V,R,
50,50,8,1,0,36,44,850,['n'],1,right,['1'],6,336,[-0.08593292],72,44,hard,minus,dotcolour,beta,,,41,19,V,R,
51,51,9,1,0,36,44,1083,['n'],1,right,['1'],6,329,[-0.11578158],87,44,hard,minus,dotcolour,beta,,,41,19,V,R,
52,52,10,1,0,53,27,1117,['c'],1,left,['2'],5,424,[0.20640179],98,53,easy,minus,dotcolour,beta,,,41,19,V,R,
53,53,11,1,0,53,27,867,['n'],0,left,['1'],6,485,[0.04492842],7,53,easy,minus,dotcolour,beta,,,41,19,V,R,
54,54,12,1,0,47,33,1184,['n'],0,left,['1'],6,404,[-0.15463643],94,47,medium,minus,dotcolour,beta,,,41,19,V,R,
55,55,13,1,0,53,27,900,['n'],0,left,['3'],4,305,[-0.03630262],35,53,easy,minus,dotcolour,beta,,,41,19,V,R,
56,56,14,1,0,53,27,1100,['c'],1,left,['2'],5,338,[0.06014015],54,53,easy,minus,dotcolour,beta,,,41,19,V,R,
57,57,15,1,0,33,47,1833,['n'],1,right,['3'],4,676,[-0.28309203],99,47,medium,minus,dotcolour,beta,,,41,19,V,R,
58,58,16,1,0,36,44,2116,['n'],1,right,['8'],3,453,[-0.13939685],90,44,hard,minus,dotcolour,beta,,,41,19,V,R,
59,59,17,1,0,27,53,933,['n'],1,right,['1'],6,391,[-0.04965451],46,53,easy,minus,dotcolour,beta,,,41,19,V,R,
60,60,18,1,0,27,53,1333,['n'],1,right,['2'],5,427,[-0.10244804],78,53,easy,minus,dotcolour,beta,,,41,19,V,R,
61,61,19,1,0,44,36,917,['n'],0,left,['1'],6,327,[0.03431731],6,44,hard,minus,dotcolour,beta,,,41,19,V,R,
62,62,20,1,0,44,36,967,['n'],0,left,['1'],6,292,[0.03751105],4,44,hard,minus,dotcolour,beta,,,41,19,V,R,
63,63,21,1,0,27,53,750,['n'],1,right,['1'],6,404,[-0.09678153],76,53,easy,minus,dotcolour,beta,,,41,19,V,R,
64,64,22,1,0,47,33,984,['c'],1,left,['2'],5,549,[0.17506969],95,47,medium,minus,dotcolour,beta,,,41,19,V,R,
65,65,23,1,0,36,44,2950,['n'],1,right,['1'],6,443,[-0.20404768],98,44,hard,minus,dotcolour,beta,,,41,19,V,R,
66,66,24,1,0,27,53,768,['n'],1,right,['1'],6,340,[-0.18101685],98,53,easy,minus,dotcolour,beta,,,41,19,V,R,
67,67,25,1,0,47,33,1584,['n'],0,left,['3'],4,352,[-0.02712954],30,47,medium,minus,dotcolour,beta,,,41,19,V,R,
68,68,26,1,0,53,27,1067,['c'],1,left,['3'],4,408,[0.13029979],89,53,easy,minus,dotcolour,beta,,,41,19,V,R,
69,69,27,1,0,44,36,1233,['c'],1,left,['3'],4,352,[0.09133233],75,44,hard,minus,dotcolour,beta,,,41,19,V,R,
70,70,28,1,0,47,33,1383,['c'],1,left,['2'],5,468,[0.13249125],88,47,medium,minus,dotcolour,beta,,,41,19,V,R,
71,71,29,1,0,44,36,1183,['c'],1,left,['2'],5,683,[-0.02921191],14,44,hard,minus,dotcolour,beta,,,41,19,V,R,
72,72,30,1,0,44,36,1617,['n'],0,left,['1'],6,497,[0.0256763],11,44,hard,minus,dotcolour,beta,,,41,19,V,R,
73,73,31,1,0,44,36,1500,['c'],1,left,['2'],5,402,[0.14048032],92,44,hard,minus,dotcolour,beta,,,41,19,V,R,
74,74,32,1,0,33,47,1450,['n'],1,right,['3'],4,1418,[-0.10370854],67,47,medium,minus,dotcolour,beta,,,41,19,V,R,
75,75,33,1,0,36,44,1217,['n'],1,right,['1'],6,352,[-0.05461016],49,44,hard,minus,dotcolour,beta,,,41,19,V,R,
76,76,34,1,0,27,53,950,['n'],1,right,['1'],6,382,[-0.18013296],97,53,easy,minus,dotcolour,beta,,,41,19,V,R,
77,77,35,1,0,44,36,3967,['n'],0,left,['3'],4,553,[0.02971088],11,44,hard,minus,dotcolour,beta,,,41,19,V,R,
78,78,36,1,0,27,53,834,['n'],1,right,['1'],6,323,[-0.03951592],38,53,easy,minus,dotcolour,beta,,,41,19,V,R,
79,79,37,1,0,53,27,1434,['c'],1,left,['2'],5,502,[0.08661084],69,53,easy,minus,dotcolour,beta,,,41,19,V,R,
80,80,38,1,0,33,47,867,['n'],1,right,['2'],5,352,[-0.12171466],88,47,medium,minus,dotcolour,beta,,,41,19,V,R,
81,81,39,1,0,47,33,1250,['c'],1,left,['3'],4,386,[0.13171657],90,47,medium,minus,dotcolour,beta,,,41,19,V,R,
82,82,40,1,0,53,27,1033,['c'],1,left,['2'],5,410,[0.13964774],91,53,easy,minus,dotcolour,beta,,,41,19,V,R,
83,83,41,1,0,33,47,916,['n'],1,right,['1'],6,790,[-0.38166124],100,47,medium,minus,dotcolour,beta,,,41,19,V,R,
84,84,0,2,0,27,53,1050,['n'],1,right,['1'],6,371,[-0.13042979],90,53,easy,minus,dotcolour,beta,,,41,19,V,R,
85,85,1,2,0,33,47,634,['n'],1,right,['1'],6,300,[-0.08809862],74,47,medium,minus,dotcolour,beta,,,41,19,V,R,
86,86,2,2,0,53,27,1033,['c'],1,left,['1'],6,360,[0.08900731],73,53,easy,minus,dotcolour,beta,,,41,19,V,R,
87,87,3,2,0,27,53,866,['n'],1,right,['1'],6,352,[-0.11393784],85,53,easy,minus,dotcolour,beta,,,41,19,V,R,
88,88,4,2,0,44,36,1000,['c'],1,left,['2'],5,364,[0.08119511],68,44,hard,minus,dotcolour,beta,,,41,19,V,R,
89,89,5,2,0,53,27,1200,['c'],1,left,['2'],5,359,[0.03981677],38,53,easy,minus,dotcolour,beta,,,41,19,V,R,
90,90,6,2,0,53,27,1684,['c'],1,left,['2'],5,350,[0.00390609],17,53,easy,minus,dotcolour,beta,,,41,19,V,R,
91,91,7,2,0,47,33,1367,['n'],0,left,['2'],5,491,[0.13375044],1,47,medium,minus,dotcolour,beta,,,41,19,V,R,
92,92,8,2,0,53,27,1117,['c'],1,left,['3'],4,467,[0.19251363],97,53,easy,minus,dotcolour,beta,,,41,19,V,R,
93,93,9,2,0,44,36,933,['n'],0,left,['2'],5,1158,[-0.0150843],34,44,hard,minus,dotcolour,beta,,,41,19,V,R,
94,94,10,2,0,33,47,834,['n'],1,right,['2'],5,302,[-0.07245154],63,47,medium,minus,dotcolour,beta,,,41,19,V,R,
95,95,11,2,0,53,27,1050,['c'],1,left,['2'],5,385,[0.18704807],98,53,easy,minus,dotcolour,beta,,,41,19,V,R,
96,96,12,2,0,33,47,900,['n'],1,right,['3'],4,447,[-0.11772556],84,47,medium,minus,dotcolour,beta,,,41,19,V,R,
97,97,13,2,0,44,36,1033,['n'],0,left,['3'],4,318,[-0.01031001],19,44,hard,minus,dotcolour,beta,,,41,19,V,R,
98,98,14,2,0,36,44,8716,['n'],1,right,['2'],5,542,[-0.09256764],71,44,hard,minus,dotcolour,beta,,,41,19,V,R,
99,99,15,2,0,44,36,984,['c'],1,left,['3'],4,338,[0.09984067],80,44,hard,minus,dotcolour,beta,,,41,19,V,R,
100,100,16,2,0,27,53,884,['n'],1,right,['1'],6,283,[-0.03088178],30,53,easy,minus,dotcolour,beta,,,41,19,V,R,
101,101,17,2,0,33,47,917,['n'],1,right,['1'],6,260,[-0.17657426],99,47,medium,minus,dotcolour,beta,,,41,19,V,R,
102,102,18,2,0,53,27,833,['c'],1,left,['1'],6,665,[0.0258084],34,53,easy,minus,dotcolour,beta,,,41,19,V,R,
103,103,19,2,0,47,33,800,['n'],0,left,['2'],5,344,[-0.03571218],35,47,medium,minus,dotcolour,beta,,,41,19,V,R,
104,104,20,2,0,36,44,751,['n'],1,right,['1'],6,301,[0.00644621],12,44,hard,minus,dotcolour,beta,,,41,19,V,R,
105,105,21,2,0,47,33,1033,['c'],1,left,['1'],6,601,[0.10705902],77,47,medium,minus,dotcolour,beta,,,41,19,V,R,
106,106,22,2,0,47,33,883,['n'],0,left,['3'],4,431,[-0.0376752],38,47,medium,minus,dotcolour,beta,,,41,19,V,R,
107,107,23,2,0,36,44,1083,['n'],1,right,['3'],4,284,[-0.1346488],94,44,hard,minus,dotcolour,beta,,,41,19,V,R,
108,108,24,2,0,27,53,1200,['n'],1,right,['1'],6,250,[-0.06271415],56,53,easy,minus,dotcolour,beta,,,41,19,V,R,
109,109,25,2,0,27,53,617,['n'],1,right,['1'],6,233,[-0.05287518],48,53,easy,minus,dotcolour,beta,,,41,19,V,R,
110,110,26,2,0,44,36,850,['n'],0,left,['1'],6,231,[-0.14898211],97,44,hard,minus,dotcolour,beta,,,41,19,V,R,
111,111,27,2,0,44,36,1200,['c'],1,left,['2'],5,263,[0.02383038],25,44,hard,minus,dotcolour,beta,,,41,19,V,R,
112,112,28,2,0,36,44,1134,['n'],1,right,['3'],4,192,[-0.09479568],83,44,hard,minus,dotcolour,beta,,,41,19,V,R,
113,113,29,2,0,33,47,667,['n'],1,right,['1'],6,271,[-0.07306939],65,47,medium,minus,dotcolour,beta,,,41,19,V,R,
114,114,30,2,0,47,33,1583,['n'],0,left,['1'],6,254,[-0.12475775],92,47,medium,minus,dotcolour,beta,,,41,19,V,R,
115,115,31,2,0,33,47,884,['n'],1,right,['1'],6,282,[-0.12165469],90,47,medium,minus,dotcolour,beta,,,41,19,V,R,
116,116,32,2,0,53,27,1716,['n'],0,left,['3'],4,252,[-0.12498376],92,53,easy,minus,dotcolour,beta,,,41,19,V,R,
117,117,33,2,0,44,36,2450,['n'],0,left,['2'],5,601,[0.07798172],4,44,hard,minus,dotcolour,beta,,,41,19,V,R,
118,118,34,2,0,47,33,1167,['c'],1,left,['2'],5,452,[0.08583585],69,47,medium,minus,dotcolour,beta,,,41,19,V,R,
119,119,35,2,0,36,44,1501,['c'],0,right,['2'],5,319,[0.01132636],20,44,hard,minus,dotcolour,beta,,,41,19,V,R,
120,120,36,2,0,27,53,1017,['n'],1,right,['2'],5,347,[-0.06981183],61,53,easy,minus,dotcolour,beta,,,41,19,V,R,
121,121,37,2,0,36,44,1517,['c'],0,right,['2'],5,346,[0.09935757],79,44,hard,minus,dotcolour,beta,,,41,19,V,R,
122,122,38,2,0,27,53,1084,['c'],0,right,['0'],1,1850,[-0.34219838],1,53,easy,minus,dotcolour,beta,,,41,19,V,R,
123,123,39,2,0,33,47,833,['n'],1,right,['1'],6,448,[-0.07583571],63,47,medium,minus,dotcolour,beta,,,41,19,V,R,
124,124,40,2,0,47,33,1334,['n'],0,left,['3'],4,361,[-0.13780056],92,47,medium,minus,dotcolour,beta,,,41,19,V,R,
125,125,41,2,0,36,44,1334,['n'],1,right,['1'],6,382,[-0.06611892],58,44,hard,minus,dotcolour,beta,,,41,19,V,R,
126,0,0,3,1,47,33,1451,['c'],1,left,['3'],4,343,[0.08979543],99,47,medium,plus,dotcolour,beta,,,41,19,V,R,
127,1,1,3,1,44,36,1450,['c'],1,left,['3'],4,288,[0.10934265],100,44,hard,plus,dotcolour,beta,,,41,19,V,R,
128,2,2,3,1,53,27,934,['c'],1,left,['1'],6,313,[0.02277807],93,53,easy,plus,dotcolour,beta,,,41,19,V,R,
129,3,3,3,1,33,47,1333,['n'],1,right,['1'],6,248,[-0.09778728],100,47,medium,plus,dotcolour,beta,,,41,19,V,R,
130,4,4,3,1,47,33,1183,['c'],1,left,['1'],6,544,[0.10192614],98,47,medium,plus,dotcolour,beta,,,41,19,V,R,
131,5,5,3,1,27,53,2117,['n'],1,right,['0'],1,255,[-0.13875954],100,53,easy,plus,dotcolour,beta,,,41,19,V,R,
132,6,6,3,1,27,53,1000,['n'],1,right,['1'],6,278,[-0.14969749],100,53,easy,plus,dotcolour,beta,,,41,19,V,R,
133,7,7,3,1,47,33,966,['c'],1,left,['2'],5,311,[0.16872335],100,47,medium,plus,dotcolour,beta,,,41,19,V,R,
134,8,8,3,1,27,53,784,['n'],1,right,['1'],6,299,[-0.13546155],100,53,easy,plus,dotcolour,beta,,,41,19,V,R,
135,9,9,3,1,53,27,1100,['c'],1,left,['1'],6,284,[0.10174095],100,53,easy,plus,dotcolour,beta,,,41,19,V,R,
136,10,10,3,1,27,53,817,['n'],1,right,['1'],6,313,[-0.10440888],99,53,easy,plus,dotcolour,beta,,,41,19,V,R,
137,11,11,3,1,47,33,1617,['c'],1,left,['1'],6,294,[0.00299802],87,47,medium,plus,dotcolour,beta,,,41,19,V,R,
138,12,12,3,1,27,53,1067,['n'],1,right,['1'],6,320,[-0.16673645],100,53,easy,plus,dotcolour,beta,,,41,19,V,R,
139,13,13,3,1,33,47,617,['n'],1,right,['1'],6,284,[0.0094066],83,47,medium,plus,dotcolour,beta,,,41,19,V,R,
140,14,14,3,1,36,44,801,['n'],1,right,['1'],6,354,[-0.07618989],98,44,hard,plus,dotcolour,beta,,,41,19,V,R,
141,15,15,3,1,47,33,1150,['c'],1,left,['1'],6,295,[0.0613502],98,47,medium,plus,dotcolour,beta,,,41,19,V,R,
142,16,16,3,1,53,27,1117,['c'],1,left,['1'],6,480,[0.10997165],99,53,easy,plus,dotcolour,beta,,,41,19,V,R,
143,17,17,3,1,53,27,966,['c'],1,left,['1'],6,271,[0.18529553],100,53,easy,plus,dotcolour,beta,,,41,19,V,R,
144,18,18,3,1,36,44,700,['n'],1,right,['1'],6,242,[0.02687312],74,44,hard,plus,dotcolour,beta,,,41,19,V,R,
145,19,19,3,1,36,44,1000,['c'],0,right,['3'],4,305,[0.02826754],94,44,hard,plus,dotcolour,beta,,,41,19,V,R,
146,20,20,3,1,44,36,1467,['n'],0,left,['3'],4,267,[0.00083374],87,44,hard,plus,dotcolour,beta,,,41,19,V,R,
147,21,21,3,1,53,27,1016,['n'],0,left,['3'],4,265,[-0.03828852],96,53,easy,plus,dotcolour,beta,,,41,19,V,R,
148,22,22,3,1,44,36,934,['n'],0,left,['3'],4,202,[-0.12304853],100,44,hard,plus,dotcolour,beta,,,41,19,V,R,
149,23,23,3,1,36,44,1534,['c'],0,right,['3'],4,247,[0.02262911],94,44,hard,plus,dotcolour,beta,,,41,19,V,R,
150,24,24,3,1,27,53,1034,['n'],1,right,['3'],4,293,[-0.01631814],92,53,easy,plus,dotcolour,beta,,,41,19,V,R,
151,25,25,3,1,27,53,1234,['n'],1,right,['3'],4,281,[0.00675009],84,53,easy,plus,dotcolour,beta,,,41,19,V,R,
152,26,26,3,1,44,36,1467,['n'],0,left,['3'],4,204,[-0.08533755],100,44,hard,plus,dotcolour,beta,,,41,19,V,R,
153,27,27,3,1,53,27,2067,['c'],1,left,['3'],4,250,[0.17832989],100,53,easy,plus,dotcolour,beta,,,41,19,V,R,
154,28,28,3,1,33,47,650,['n'],1,right,['2'],5,352,[-0.19972126],100,47,medium,plus,dotcolour,beta,,,41,19,V,R,
155,29,29,3,1,44,36,1217,['c'],1,left,['2'],5,355,[0.02231662],91,44,hard,plus,dotcolour,beta,,,41,19,V,R,
156,30,30,3,1,33,47,851,['n'],1,right,['1'],6,380,[-0.07877936],98,47,medium,plus,dotcolour,beta,,,41,19,V,R,
157,31,31,3,1,33,47,1133,['n'],1,right,['1'],6,256,[-0.08888894],99,47,medium,plus,dotcolour,beta,,,41,19,V,R,
158,32,32,3,1,36,44,816,['n'],1,right,['1'],6,279,[-0.20478631],100,44,hard,plus,dotcolour,beta,,,41,19,V,R,
159,33,33,3,1,33,47,617,['n'],1,right,['1'],6,276,[-0.05451342],98,47,medium,plus,dotcolour,beta,,,41,19,V,R,
160,34,34,3,1,44,36,1033,['c'],1,left,['3'],4,360,[0.15585029],100,44,hard,plus,dotcolour,beta,,,41,19,V,R,
161,35,35,3,1,36,44,867,['n'],1,right,['2'],5,288,[-0.20929456],100,44,hard,plus,dotcolour,beta,,,41,19,V,R,
162,36,36,3,1,44,36,1117,['c'],1,left,['3'],4,281,[0.11453513],100,44,hard,plus,dotcolour,beta,,,41,19,V,R,
163,37,37,3,1,36,44,1134,['c'],0,right,['3'],4,379,[0.03365731],93,44,hard,plus,dotcolour,beta,,,41,19,V,R,
164,38,38,3,1,47,33,1034,['c'],1,left,['3'],4,275,[0.11968726],100,47,medium,plus,dotcolour,beta,,,41,19,V,R,
165,39,39,3,1,47,33,866,['n'],0,left,['3'],4,359,[0.05443531],51,47,medium,plus,dotcolour,beta,,,41,19,V,R,
166,40,40,3,1,53,27,1066,['c'],1,left,['1'],6,303,[0.11624328],100,53,easy,plus,dotcolour,beta,,,41,19,V,R,
167,41,41,3,1,33,47,750,['n'],1,right,['1'],6,278,[-0.07272912],99,47,medium,plus,dotcolour,beta,,,41,19,V,R,
168,42,0,4,1,47,33,1051,['c'],1,left,['3'],4,396,[0.1018254],99,47,medium,plus,dotcolour,beta,,,41,19,V,R,
169,43,1,4,1,44,36,1168,['c'],1,left,['2'],5,414,[0.04234893],94,44,hard,plus,dotcolour,beta,,,41,19,V,R,
170,44,2,4,1,36,44,1317,['n'],1,right,['2'],5,250,[-0.110532],100,44,hard,plus,dotcolour,beta,,,41,19,V,R,
171,45,3,4,1,27,53,917,['n'],1,right,['1'],6,245,[-0.09703853],100,53,easy,plus,dotcolour,beta,,,41,19,V,R,
172,46,4,4,1,53,27,1200,['c'],1,left,['1'],6,276,[0.13811451],100,53,easy,plus,dotcolour,beta,,,41,19,V,R,
173,47,5,4,1,53,27,833,['n'],0,left,['1'],6,249,[0.02128446],77,53,easy,plus,dotcolour,beta,,,41,19,V,R,
174,48,6,4,1,44,36,867,['n'],0,left,['0'],1,1254,[0.11115048],29,44,hard,plus,dotcolour,beta,,,41,19,V,R,
175,49,7,4,1,33,47,1851,['n'],1,right,['1'],6,674,[-0.11320958],98,47,medium,plus,dotcolour,beta,,,41,19,V,R,
176,50,8,4,1,27,53,884,['n'],1,right,['1'],6,221,[-0.07719448],99,53,easy,plus,dotcolour,beta,,,41,19,V,R,
177,51,9,4,1,53,27,2733,['c'],1,left,['1'],6,256,[0.10587588],100,53,easy,plus,dotcolour,beta,,,41,19,V,R,
178,52,10,4,1,36,44,1234,['n'],1,right,['1'],6,238,[-0.06907049],99,44,hard,plus,dotcolour,beta,,,41,19,V,R,
179,53,11,4,1,47,33,766,['n'],0,left,['1'],6,304,[-0.04208927],96,47,medium,plus,dotcolour,beta,,,41,19,V,R,
180,54,12,4,1,27,53,1265,['n'],1,right,['1'],6,347,[-0.13267649],100,53,easy,plus,dotcolour,beta,,,41,19,V,R,
181,55,13,4,1,27,53,800,['n'],1,right,['1'],6,206,[-0.07220862],99,53,easy,plus,dotcolour,beta,,,41,19,V,R,
182,56,14,4,1,47,33,1200,['c'],1,left,['2'],5,391,[0.1333946],100,47,medium,plus,dotcolour,beta,,,41,19,V,R,
183,57,15,4,1,33,47,683,['n'],1,right,['1'],6,221,[-0.14238913],100,47,medium,plus,dotcolour,beta,,,41,19,V,R,
184,58,16,4,1,33,47,917,['c'],0,right,['1'],6,233,[0.07175599],99,47,medium,plus,dotcolour,beta,,,41,19,V,R,
185,59,17,4,1,33,47,834,['n'],1,right,['1'],6,175,[-0.0852016],100,47,medium,plus,dotcolour,beta,,,41,19,V,R,
186,60,18,4,1,47,33,1268,['n'],0,left,['2'],5,199,[-0.03787501],98,47,medium,plus,dotcolour,beta,,,41,19,V,R,
187,61,19,4,1,33,47,768,['n'],1,right,['1'],6,241,[-0.08766096],99,47,medium,plus,dotcolour,beta,,,41,19,V,R,
188,62,20,4,1,53,27,1050,['c'],1,left,['1'],6,263,[0.16133534],100,53,easy,plus,dotcolour,beta,,,41,19,V,R,
189,63,21,4,1,47,33,1484,['n'],0,left,['3'],4,298,[-0.09127447],99,47,medium,plus,dotcolour,beta,,,41,19,V,R,
190,64,22,4,1,44,36,766,['n'],0,left,['1'],6,233,[-0.04390368],98,44,hard,plus,dotcolour,beta,,,41,19,V,R,
191,65,23,4,1,27,53,784,['n'],1,right,['1'],6,242,[-0.11360819],100,53,easy,plus,dotcolour,beta,,,41,19,V,R,
192,66,24,4,1,44,36,667,['n'],0,left,['1'],6,206,[-0.02050249],95,44,hard,plus,dotcolour,beta,,,41,19,V,R,
193,67,25,4,1,44,36,1084,['n'],0,left,['3'],4,236,[-0.08464745],99,44,hard,plus,dotcolour,beta,,,41,19,V,R,
194,68,26,4,1,27,53,649,['n'],1,right,['1'],6,266,[-0.13912226],100,53,easy,plus,dotcolour,beta,,,41,19,V,R,
195,69,27,4,1,53,27,1067,['c'],1,left,['2'],5,286,[0.08380138],99,53,easy,plus,dotcolour,beta,,,41,19,V,R,
196,70,28,4,1,47,33,1300,['c'],1,left,['1'],6,288,[0.07992152],99,47,medium,plus,dotcolour,beta,,,41,19,V,R,
197,71,29,4,1,36,44,1317,['n'],1,right,['3'],4,361,[-0.12576438],100,44,hard,plus,dotcolour,beta,,,41,19,V,R,
198,72,30,4,1,53,27,1483,['c'],1,left,['3'],4,257,[0.17358881],100,53,easy,plus,dotcolour,beta,,,41,19,V,R,
199,73,31,4,1,44,36,817,['n'],0,left,['1'],6,279,[-0.01188692],91,44,hard,plus,dotcolour,beta,,,41,19,V,R,
200,74,32,4,1,36,44,967,['n'],1,right,['2'],5,318,[0.01506589],78,44,hard,plus,dotcolour,beta,,,41,19,V,R,
201,75,33,4,1,36,44,600,['n'],1,right,['1'],6,299,[-0.13754669],100,44,hard,plus,dotcolour,beta,,,41,19,V,R,
202,76,34,4,1,33,47,600,['n'],1,right,['1'],6,280,[-0.10184665],100,47,medium,plus,dotcolour,beta,,,41,19,V,R,
203,77,35,4,1,36,44,567,['n'],1,right,['1'],6,271,[-0.04325363],97,44,hard,plus,dotcolour,beta,,,41,19,V,R,
204,78,36,4,1,33,47,800,['n'],1,right,['1'],6,333,[-0.0629018],98,47,medium,plus,dotcolour,beta,,,41,19,V,R,
205,79,37,4,1,44,36,1033,['n'],0,left,['1'],6,351,[-0.10352146],99,44,hard,plus,dotcolour,beta,,,41,19,V,R,
206,80,38,4,1,27,53,534,['n'],1,right,['1'],6,261,[-0.07635442],99,53,easy,plus,dotcolour,beta,,,41,19,V,R,
207,81,39,4,1,53,27,751,['n'],0,left,['0'],1,806,[-0.0507416],89,53,easy,plus,dotcolour,beta,,,41,19,V,R,
208,82,40,4,1,47,33,1301,['c'],1,left,['3'],4,379,[0.14629156],100,47,medium,plus,dotcolour,beta,,,41,19,V,R,
209,83,41,4,1,36,44,933,['c'],0,right,['3'],4,384,[0.0116421],88,44,hard,plus,dotcolour,beta,,,41,19,V,R,
210,84,0,5,1,27,53,817,['n'],1,right,['1'],6,209,[-0.12290211],100,53,easy,plus,dotcolour,beta,,,41,19,V,R,
211,85,1,5,1,44,36,867,['c'],1,left,['1'],6,271,[-0.00468026],85,44,hard,plus,dotcolour,beta,,,41,19,V,R,
212,86,2,5,1,53,27,918,['c'],1,left,['1'],6,297,[0.07399475],99,53,easy,plus,dotcolour,beta,,,41,19,V,R,
213,87,3,5,1,44,36,1283,['n'],0,left,['1'],6,251,[-0.06896557],99,44,hard,plus,dotcolour,beta,,,41,19,V,R,
214,88,4,5,1,33,47,918,['n'],1,right,['1'],6,270,[-0.16473554],100,47,medium,plus,dotcolour,beta,,,41,19,V,R,
215,89,5,5,1,44,36,1017,['n'],0,left,['1'],6,203,[-0.11285672],100,44,hard,plus,dotcolour,beta,,,41,19,V,R,
216,90,6,5,1,44,36,766,['n'],0,left,['1'],6,214,[-0.00887084],92,44,hard,plus,dotcolour,beta,,,41,19,V,R,
217,91,7,5,1,36,44,717,['n'],1,right,['1'],6,194,[-0.0844928],100,44,hard,plus,dotcolour,beta,,,41,19,V,R,
218,92,8,5,1,44,36,883,['n'],0,left,['1'],6,256,[-0.14997835],100,44,hard,plus,dotcolour,beta,,,41,19,V,R,
219,93,9,5,1,47,33,716,['n'],0,left,['1'],6,251,[0.06820059],39,47,medium,plus,dotcolour,beta,,,41,19,V,R,
220,94,10,5,1,36,44,1067,['n'],1,right,['1'],6,256,[-0.02440529],95,44,hard,plus,dotcolour,beta,,,41,19,V,R,
221,95,11,5,1,53,27,2017,['c'],1,left,['2'],5,358,[0.16236531],100,53,easy,plus,dotcolour,beta,,,41,19,V,R,
222,96,12,5,1,53,27,1166,['c'],1,left,['1'],6,322,[0.08517579],99,53,easy,plus,dotcolour,beta,,,41,19,V,R,
223,97,13,5,1,47,33,1067,['n'],0,left,['3'],4,259,[0.00838261],84,47,medium,plus,dotcolour,beta,,,41,19,V,R,
224,98,14,5,1,33,47,966,['n'],1,right,['1'],6,235,[-0.06067706],99,47,medium,plus,dotcolour,beta,,,41,19,V,R,
225,99,15,5,1,44,36,1300,['n'],0,left,['1'],6,280,[-0.11807719],100,44,hard,plus,dotcolour,beta,,,41,19,V,R,
226,100,16,5,1,44,36,1416,['c'],1,left,['3'],4,261,[0.1749573],100,44,hard,plus,dotcolour,beta,,,41,19,V,R,
227,101,17,5,1,36,44,900,['n'],1,right,['1'],6,271,[-0.06747671],99,44,hard,plus,dotcolour,beta,,,41,19,V,R,
228,102,18,5,1,47,33,3967,['c'],1,left,['3'],4,447,[0.06089884],96,47,medium,plus,dotcolour,beta,,,41,19,V,R,
229,103,19,5,1,33,47,1617,['n'],1,right,['1'],6,189,[-0.11692797],100,47,medium,plus,dotcolour,beta,,,41,19,V,R,
230,104,20,5,1,53,27,1016,['c'],1,left,['3'],4,310,[0.12116318],100,53,easy,plus,dotcolour,beta,,,41,19,V,R,
231,105,21,5,1,33,47,616,['n'],1,right,['1'],6,274,[-0.23410776],100,47,medium,plus,dotcolour,beta,,,41,19,V,R,
232,106,22,5,1,47,33,1784,['n'],0,left,['3'],4,3305,[0.2027828],19,47,medium,plus,dotcolour,beta,,,41,19,V,R,
233,107,23,5,1,47,33,884,['n'],0,left,['1'],6,298,[-0.10846002],100,47,medium,plus,dotcolour,beta,,,41,19,V,R,
234,108,24,5,1,53,27,783,['c'],1,left,['1'],6,256,[0.09116306],99,53,easy,plus,dotcolour,beta,,,41,19,V,R,
235,109,25,5,1,27,53,650,['n'],1,right,['1'],6,317,[-0.18446485],100,53,easy,plus,dotcolour,beta,,,41,19,V,R,
236,110,26,5,1,47,33,1867,['c'],1,left,['1'],6,302,[0.17148522],100,47,medium,plus,dotcolour,beta,,,41,19,V,R,
237,111,27,5,1,33,47,883,['n'],1,right,['1'],6,193,[-0.09090094],100,47,medium,plus,dotcolour,beta,,,41,19,V,R,
238,112,28,5,1,27,53,833,['n'],1,right,['1'],6,256,[-0.16290955],100,53,easy,plus,dotcolour,beta,,,41,19,V,R,
239,113,29,5,1,27,53,650,['n'],1,right,['1'],6,261,[-0.1476664],100,53,easy,plus,dotcolour,beta,,,41,19,V,R,
240,114,30,5,1,27,53,684,['n'],1,right,['1'],6,201,[-0.1503253],100,53,easy,plus,dotcolour,beta,,,41,19,V,R,
241,115,31,5,1,36,44,3133,['n'],1,right,['1'],6,197,[-0.09846999],100,44,hard,plus,dotcolour,beta,,,41,19,V,R,
242,116,32,5,1,33,47,616,['n'],1,right,['1'],6,253,[-0.18710476],100,47,medium,plus,dotcolour,beta,,,41,19,V,R,
243,117,33,5,1,27,53,667,['n'],1,right,['1'],6,274,[-0.05281974],98,53,easy,plus,dotcolour,beta,,,41,19,V,R,
244,118,34,5,1,36,44,783,['n'],1,right,['1'],6,265,[-0.09927093],100,44,hard,plus,dotcolour,beta,,,41,19,V,R,
245,119,35,5,1,53,27,916,['c'],1,left,['1'],6,251,[0.11849387],100,53,easy,plus,dotcolour,beta,,,41,19,V,R,
246,120,36,5,1,33,47,950,['n'],1,right,['1'],6,277,[-0.06769414],99,47,medium,plus,dotcolour,beta,,,41,19,V,R,
247,121,37,5,1,36,44,733,['n'],1,right,['1'],6,301,[-0.02188515],93,44,hard,plus,dotcolour,beta,,,41,19,V,R,
248,122,38,5,1,47,33,1100,['c'],1,left,['2'],5,871,[0.08268261],94,47,medium,plus,dotcolour,beta,,,41,19,V,R,
249,123,39,5,1,53,27,1317,['c'],1,left,['1'],6,264,[0.13987183],100,53,easy,plus,dotcolour,beta,,,41,19,V,R,
250,124,40,5,1,27,53,867,['n'],1,right,['1'],6,243,[-0.12333986],100,53,easy,plus,dotcolour,beta,,,41,19,V,R,
251,125,41,5,1,36,44,851,['n'],1,right,['1'],6,249,[-0.10378006],100,44,hard,plus,dotcolour,beta,,,41,19,V,R,
252,0,0,6,2,53,27,1218,['c'],1,left,['1'],6,292,[0.09462348],79,53,easy,minus,dotcolour,beta,,,41,19,V,R,
253,1,1,6,2,36,44,867,['c'],0,right,['1'],6,359,[0.08994723],74,44,hard,minus,dotcolour,beta,,,41,19,V,R,
254,2,2,6,2,33,47,1850,['n'],1,right,['3'],4,312,[-0.15290466],96,47,medium,minus,dotcolour,beta,,,41,19,V,R,
255,3,3,6,2,33,47,951,['n'],1,right,['1'],6,343,[-0.02228706],26,47,medium,minus,dotcolour,beta,,,41,19,V,R,
256,4,4,6,2,27,53,683,['n'],1,right,['1'],6,255,[-0.16310895],98,53,easy,minus,dotcolour,beta,,,41,19,V,R,
257,5,5,6,2,36,44,934,['n'],1,right,['1'],6,265,[-0.22329701],100,44,hard,minus,dotcolour,beta,,,41,19,V,R,
258,6,6,6,2,27,53,502,['n'],1,right,['1'],6,251,[-0.06064904],55,53,easy,minus,dotcolour,beta,,,41,19,V,R,
259,7,7,6,2,47,33,1067,['c'],1,left,['1'],6,248,[0.06814883],61,47,medium,minus,dotcolour,beta,,,41,19,V,R,
260,8,8,6,2,36,44,617,['n'],1,right,['1'],6,223,[-0.07366666],67,44,hard,minus,dotcolour,beta,,,41,19,V,R,
261,9,9,6,2,47,33,701,['n'],0,left,['1'],6,267,[0.04920512],3,47,medium,minus,dotcolour,beta,,,41,19,V,R,
262,10,10,6,2,53,27,734,['c'],1,left,['1'],6,260,[0.07115966],63,53,easy,minus,dotcolour,beta,,,41,19,V,R,
263,11,11,6,2,53,27,735,['c'],1,left,['1'],6,253,[0.0781307],69,53,easy,minus,dotcolour,beta,,,41,19,V,R,
264,12,12,6,2,36,44,783,['n'],1,right,['1'],6,188,[-0.08130419],74,44,hard,minus,dotcolour,beta,,,41,19,V,R,
265,13,13,6,2,36,44,1267,['c'],0,right,['3'],4,244,[0.077378],69,44,hard,minus,dotcolour,beta,,,41,19,V,R,
266,14,14,6,2,33,47,550,['n'],1,right,['1'],6,278,[-0.05020302],45,47,medium,minus,dotcolour,beta,,,41,19,V,R,
267,15,15,6,2,47,33,800,['n'],0,left,['1'],6,260,[-0.02944149],28,47,medium,minus,dotcolour,beta,,,41,19,V,R,
268,16,16,6,2,44,36,884,['n'],0,left,['1'],6,190,[-0.01429977],15,44,hard,minus,dotcolour,beta,,,41,19,V,R,
269,17,17,6,2,27,53,767,['c'],0,right,['1'],6,241,[-0.05740756],2,53,easy,minus,dotcolour,beta,,,41,19,V,R,
270,18,18,6,2,27,53,651,['n'],1,right,['1'],6,223,[-0.11778792],91,53,easy,minus,dotcolour,beta,,,41,19,V,R,
271,19,19,6,2,33,47,583,['n'],1,right,['1'],6,176,[-0.08130355],75,47,medium,minus,dotcolour,beta,,,41,19,V,R,
272,20,20,6,2,33,47,583,['n'],1,right,['1'],6,251,[-0.15643884],97,47,medium,minus,dotcolour,beta,,,41,19,V,R,
273,21,21,6,2,44,36,1051,['n'],0,left,['3'],4,151,[-0.03040445],24,44,hard,minus,dotcolour,beta,,,41,19,V,R,
274,22,22,6,2,27,53,600,['n'],1,right,['3'],4,243,[-0.1210807],92,53,easy,minus,dotcolour,beta,,,41,19,V,R,
275,23,23,6,2,47,33,1267,['c'],1,left,['1'],6,272,[0.18332871],99,47,medium,minus,dotcolour,beta,,,41,19,V,R,
276,24,24,6,2,47,33,1033,['n'],0,left,['3'],4,205,[-0.0363651],32,47,medium,minus,dotcolour,beta,,,41,19,V,R,
277,25,25,6,2,47,33,1201,['c'],1,left,['3'],4,166,[0.10664288],91,47,medium,minus,dotcolour,beta,,,41,19,V,R,
278,26,26,6,2,47,33,850,['n'],0,left,['3'],4,183,[-0.08755296],79,47,medium,minus,dotcolour,beta,,,41,19,V,R,
279,27,27,6,2,33,47,1451,['c'],0,right,['2'],5,295,[0.1202101],89,47,medium,minus,dotcolour,beta,,,41,19,V,R,
280,28,28,6,2,44,36,751,['n'],0,left,['1'],6,190,[-0.09534555],84,44,hard,minus,dotcolour,beta,,,41,19,V,R,
281,29,29,6,2,53,27,1017,['c'],1,left,['1'],6,206,[0.0561393],51,53,easy,minus,dotcolour,beta,,,41,19,V,R,
282,30,30,6,2,27,53,817,['n'],1,right,['1'],6,167,[-0.07744591],72,53,easy,minus,dotcolour,beta,,,41,19,V,R,
283,31,31,6,2,36,44,883,['n'],1,right,['1'],6,271,[-0.09244266],78,44,hard,minus,dotcolour,beta,,,41,19,V,R,
284,32,32,6,2,44,36,1083,['c'],1,left,['3'],4,210,[0.00981117],14,44,hard,minus,dotcolour,beta,,,41,19,V,R,
285,33,33,6,2,44,36,683,['n'],0,left,['1'],6,247,[-0.04929957],44,44,hard,minus,dotcolour,beta,,,41,19,V,R,
286,34,34,6,2,27,53,600,['n'],1,right,['1'],6,199,[-0.08862995],79,53,easy,minus,dotcolour,beta,,,41,19,V,R,
287,35,35,6,2,53,27,1500,['c'],1,left,['1'],6,188,[0.01959038],18,53,easy,minus,dotcolour,beta,,,41,19,V,R,
288,36,36,6,2,36,44,1184,['n'],1,right,['1'],6,167,[-0.08063085],75,44,hard,minus,dotcolour,beta,,,41,19,V,R,
289,37,37,6,2,44,36,1000,['n'],0,left,['1'],6,193,[-0.01677755],17,44,hard,minus,dotcolour,beta,,,41,19,V,R,
290,38,38,6,2,53,27,900,['c'],1,left,['1'],6,255,[0.2024187],99,53,easy,minus,dotcolour,beta,,,41,19,V,R,
291,39,39,6,2,44,36,1334,['c'],1,left,['1'],6,217,[0.02687456],25,44,hard,minus,dotcolour,beta,,,41,19,V,R,
292,40,40,6,2,33,47,835,['n'],1,right,['1'],6,176,[-0.01997484],18,47,medium,minus,dotcolour,beta,,,41,19,V,R,
293,41,41,6,2,53,27,1350,['c'],1,left,['1'],6,196,[0.04185999],36,53,easy,minus,dotcolour,beta,,,41,19,V,R,
294,42,0,7,2,44,36,1167,['c'],1,left,['3'],4,239,[0.13275484],94,44,hard,minus,dotcolour,beta,,,41,19,V,R,
295,43,1,7,2,33,47,4767,['n'],1,right,['1'],6,840,[-0.18886394],93,47,medium,minus,dotcolour,beta,,,41,19,V,R,
296,44,2,7,2,27,53,750,['n'],1,right,['1'],6,201,[-0.06078947],55,53,easy,minus,dotcolour,beta,,,41,19,V,R,
297,45,3,7,2,44,36,917,['c'],1,left,['1'],6,198,[0.0059549],12,44,hard,minus,dotcolour,beta,,,41,19,V,R,
298,46,4,7,2,33,47,1783,['n'],1,right,['1'],6,152,[-0.1350714],98,47,medium,minus,dotcolour,beta,,,41,19,V,R,
299,47,5,7,2,27,53,683,['n'],1,right,['1'],6,176,[-0.10225102],88,53,easy,minus,dotcolour,beta,,,41,19,V,R,
300,48,6,7,2,53,27,1067,['c'],1,left,['1'],6,271,[0.13937327],95,53,easy,minus,dotcolour,beta,,,41,19,V,R,
301,49,7,7,2,44,36,1416,['n'],0,left,['3'],4,245,[-0.07233857],65,44,hard,minus,dotcolour,beta,,,41,19,V,R,
302,50,8,7,2,53,27,867,['c'],1,left,['1'],6,242,[0.14409142],96,53,easy,minus,dotcolour,beta,,,41,19,V,R,
303,51,9,7,2,53,27,1367,['c'],1,left,['1'],6,219,[0.15132484],98,53,easy,minus,dotcolour,beta,,,41,19,V,R,
304,52,10,7,2,27,53,683,['n'],1,right,['1'],6,248,[-0.15910082],98,53,easy,minus,dotcolour,beta,,,41,19,V,R,
305,53,11,7,2,47,33,966,['c'],1,left,['1'],6,209,[0.11124836],90,47,medium,minus,dotcolour,beta,,,41,19,V,R,
306,54,12,7,2,33,47,799,['n'],1,right,['1'],6,210,[-0.11413134],91,47,medium,minus,dotcolour,beta,,,41,19,V,R,
307,55,13,7,2,27,53,667,['n'],1,right,['1'],6,207,[-0.15362559],98,53,easy,minus,dotcolour,beta,,,41,19,V,R,
308,56,14,7,2,47,33,1133,['n'],0,left,['1'],6,235,[-0.03325345],30,47,medium,minus,dotcolour,beta,,,41,19,V,R,
309,57,15,7,2,47,33,800,['n'],0,left,['1'],6,187,[-0.12067319],94,47,medium,minus,dotcolour,beta,,,41,19,V,R,
310,58,16,7,2,33,47,950,['c'],0,right,['1'],6,279,[-0.01054171],10,47,medium,minus,dotcolour,beta,,,41,19,V,R,
311,59,17,7,2,33,47,1467,['c'],0,right,['1'],6,298,[0.02211711],25,47,medium,minus,dotcolour,beta,,,41,19,V,R,
312,60,18,7,2,33,47,634,['n'],1,right,['1'],6,238,[-0.06871927],62,47,medium,minus,dotcolour,beta,,,41,19,V,R,
313,61,19,7,2,53,27,1300,['c'],1,left,['3'],4,219,[0.17864243],99,53,easy,minus,dotcolour,beta,,,41,19,V,R,
314,62,20,7,2,53,27,1117,['c'],1,left,['2'],5,511,[0.09335291],72,53,easy,minus,dotcolour,beta,,,41,19,V,R,
315,63,21,7,2,47,33,1717,['c'],1,left,['2'],5,358,[0.16246878],96,47,medium,minus,dotcolour,beta,,,41,19,V,R,
316,64,22,7,2,47,33,833,['c'],1,left,['2'],5,328,[0.07417126],64,47,medium,minus,dotcolour,beta,,,41,19,V,R,
317,65,23,7,2,44,36,1850,['n'],0,left,['2'],5,490,[-0.12948836],87,44,hard,minus,dotcolour,beta,,,41,19,V,R,
318,66,24,7,2,27,53,634,['n'],1,right,['1'],6,302,[-0.1523057],96,53,easy,minus,dotcolour,beta,,,41,19,V,R,
319,67,25,7,2,44,36,899,['c'],1,left,['2'],5,263,[0.07260989],65,44,hard,minus,dotcolour,beta,,,41,19,V,R,
320,68,26,7,2,36,44,1134,['n'],1,right,['1'],6,289,[-0.14388122],95,44,hard,minus,dotcolour,beta,,,41,19,V,R,
321,69,27,7,2,36,44,702,['n'],1,right,['1'],6,234,[-0.10121865],85,44,hard,minus,dotcolour,beta,,,41,19,V,R,
322,70,28,7,2,36,44,600,['n'],1,right,['1'],6,218,[-0.10906049],89,44,hard,minus,dotcolour,beta,,,41,19,V,R,
323,71,29,7,2,27,53,517,['n'],1,right,['1'],6,238,[-0.10969367],88,53,easy,minus,dotcolour,beta,,,41,19,V,R,
324,72,30,7,2,27,53,517,['n'],1,right,['1'],6,385,[-0.05255024],48,53,easy,minus,dotcolour,beta,,,41,19,V,R,
325,73,31,7,2,33,47,434,['n'],1,right,['1'],6,250,[-0.033751],31,47,medium,minus,dotcolour,beta,,,41,19,V,R,
326,74,32,7,2,36,44,499,['n'],1,right,['1'],6,221,[-0.07823938],70,44,hard,minus,dotcolour,beta,,,41,19,V,R,
327,75,33,7,2,53,27,1332,['c'],1,left,['1'],6,217,[0.10463767],87,53,easy,minus,dotcolour,beta,,,41,19,V,R,
328,76,34,7,2,36,44,634,['n'],1,right,['1'],6,192,[-0.03248049],28,44,hard,minus,dotcolour,beta,,,41,19,V,R,
329,77,35,7,2,47,33,1467,['c'],1,left,['3'],4,199,[0.12198007],94,47,medium,minus,dotcolour,beta,,,41,19,V,R,
330,78,36,7,2,44,36,1051,['n'],0,left,['2'],5,190,[-0.03158779],27,44,hard,minus,dotcolour,beta,,,41,19,V,R,
331,79,37,7,2,36,44,600,['n'],1,right,['2'],5,304,[-0.08675374],73,44,hard,minus,dotcolour,beta,,,41,19,V,R,
332,80,38,7,2,36,44,1249,['n'],1,right,['1'],6,259,[-0.00539356],15,44,hard,minus,dotcolour,beta,,,41,19,V,R,
333,81,39,7,2,53,27,1267,['n'],0,left,['2'],5,199,[0.00311714],9,53,easy,minus,dotcolour,beta,,,41,19,V,R,
334,82,40,7,2,47,33,2201,['c'],1,left,['2'],5,208,[0.05852917],53,47,medium,minus,dotcolour,beta,,,41,19,V,R,
335,83,41,7,2,44,36,1250,['n'],0,left,['3'],4,255,[-0.04812014],43,44,hard,minus,dotcolour,beta,,,41,19,V,R,
336,84,0,8,2,44,36,1618,['c'],1,left,['3'],4,262,[0.09335514],79,44,hard,minus,dotcolour,beta,,,41,19,V,R,
337,85,1,8,2,33,47,617,['n'],1,right,['1'],6,260,[-0.07051222],63,47,medium,minus,dotcolour,beta,,,41,19,V,R,
338,86,2,8,2,27,53,634,['n'],1,right,['1'],6,265,[-0.05182683],47,53,easy,minus,dotcolour,beta,,,41,19,V,R,
339,87,3,8,2,47,33,1233,['c'],1,left,['1'],6,311,[0.05621918],51,47,medium,minus,dotcolour,beta,,,41,19,V,R,
340,88,4,8,2,33,47,784,['n'],1,right,['3'],4,292,[-0.19310484],99,47,medium,minus,dotcolour,beta,,,41,19,V,R,
341,89,5,8,2,33,47,684,['n'],1,right,['1'],6,302,[-0.11593374],88,47,medium,minus,dotcolour,beta,,,41,19,V,R,
342,90,6,8,2,27,53,634,['n'],1,right,['1'],6,250,[-0.0790701],70,53,easy,minus,dotcolour,beta,,,41,19,V,R,
343,91,7,8,2,36,44,750,['n'],1,right,['1'],6,276,[-0.0366922],34,44,hard,minus,dotcolour,beta,,,41,19,V,R,
344,92,8,8,2,53,27,1185,['c'],1,left,['2'],5,306,[0.04168986],39,53,easy,minus,dotcolour,beta,,,41,19,V,R,
345,93,9,8,2,44,36,1200,['n'],0,left,['3'],4,207,[-0.06165034],56,44,hard,minus,dotcolour,beta,,,41,19,V,R,
346,94,10,8,2,47,33,967,['n'],0,left,['3'],4,201,[-0.0451325],40,47,medium,minus,dotcolour,beta,,,41,19,V,R,
347,95,11,8,2,44,36,1183,['n'],0,left,['2'],5,267,[-0.1061483],85,44,hard,minus,dotcolour,beta,,,41,19,V,R,
348,96,12,8,2,44,36,1117,['c'],1,left,['3'],4,245,[0.1748277],99,44,hard,minus,dotcolour,beta,,,41,19,V,R,
349,97,13,8,2,47,33,1083,['c'],1,left,['3'],4,313,[0.07800582],67,47,medium,minus,dotcolour,beta,,,41,19,V,R,
350,98,14,8,2,36,44,983,['n'],1,right,['1'],6,334,[-0.08145979],69,44,hard,minus,dotcolour,beta,,,41,19,V,R,
351,99,15,8,2,53,27,750,['n'],0,left,['1'],6,372,[-0.07854976],66,53,easy,minus,dotcolour,beta,,,41,19,V,R,
352,100,16,8,2,53,27,849,['c'],1,left,['1'],6,285,[0.07115157],63,53,easy,minus,dotcolour,beta,,,41,19,V,R,
353,101,17,8,2,53,27,1117,['c'],1,left,['2'],5,333,[0.15971797],96,53,easy,minus,dotcolour,beta,,,41,19,V,R,
354,102,18,8,2,47,33,734,['n'],0,left,['2'],5,316,[-0.08997186],75,47,medium,minus,dotcolour,beta,,,41,19,V,R,
355,103,19,8,2,33,47,667,['n'],1,right,['2'],5,214,[-0.10492636],87,47,medium,minus,dotcolour,beta,,,41,19,V,R,
356,104,20,8,2,47,33,1017,['n'],0,left,['2'],5,350,[-0.11242891],85,47,medium,minus,dotcolour,beta,,,41,19,V,R,
357,105,21,8,2,27,53,616,['n'],1,right,['1'],6,233,[-0.06635932],60,53,easy,minus,dotcolour,beta,,,41,19,V,R,
358,106,22,8,2,44,36,1117,['n'],0,left,['3'],4,212,[-0.05538389],50,44,hard,minus,dotcolour,beta,,,41,19,V,R,
359,107,23,8,2,33,47,833,['n'],1,right,['1'],6,244,[-0.12023478],91,47,medium,minus,dotcolour,beta,,,41,19,V,R,
360,108,24,8,2,53,27,600,['c'],1,left,['1'],6,316,[0.20304358],99,53,easy,minus,dotcolour,beta,,,41,19,V,R,
361,109,25,8,2,44,36,1700,['c'],1,left,['2'],5,524,[0.08969242],70,44,hard,minus,dotcolour,beta,,,41,19,V,R,
362,110,26,8,2,44,36,3200,['n'],0,left,['2'],5,311,[-0.05764808],52,44,hard,minus,dotcolour,beta,,,41,19,V,R,
363,111,27,8,2,53,27,1033,['c'],1,left,['2'],5,475,[0.08842835],70,53,easy,minus,dotcolour,beta,,,41,19,V,R,
364,112,28,8,2,36,44,1034,['n'],1,right,['2'],5,272,[-0.14893957],96,44,hard,minus,dotcolour,beta,,,41,19,V,R,
365,113,29,8,2,47,33,1483,['n'],0,left,['2'],5,219,[-0.06816089],62,47,medium,minus,dotcolour,beta,,,41,19,V,R,
366,114,30,8,2,33,47,1034,['n'],1,right,['1'],6,338,[-0.01309188],21,47,medium,minus,dotcolour,beta,,,41,19,V,R,
367,115,31,8,2,27,53,600,['n'],1,right,['1'],6,253,[-0.12319852],92,53,easy,minus,dotcolour,beta,,,41,19,V,R,
368,116,32,8,2,36,44,834,['n'],1,right,['1'],6,235,[-0.02541486],25,44,hard,minus,dotcolour,beta,,,41,19,V,R,
369,117,33,8,2,27,53,750,['n'],1,right,['1'],6,341,[-0.10887127],84,53,easy,minus,dotcolour,beta,,,41,19,V,R,
370,118,34,8,2,36,44,517,['n'],1,right,['1'],6,260,[-0.05815618],52,44,hard,minus,dotcolour,beta,,,41,19,V,R,
371,119,35,8,2,47,33,599,['n'],0,left,['2'],5,380,[-0.1020117],80,47,medium,minus,dotcolour,beta,,,41,19,V,R,
372,120,36,8,2,27,53,516,['n'],1,right,['1'],6,240,[-0.12589302],93,53,easy,minus,dotcolour,beta,,,41,19,V,R,
373,121,37,8,2,27,53,417,['n'],1,right,['1'],6,287,[-0.09863571],81,53,easy,minus,dotcolour,beta,,,41,19,V,R,
374,122,38,8,2,36,44,466,['n'],1,right,['1'],6,427,[-0.1161544],84,44,hard,minus,dotcolour,beta,,,41,19,V,R,
375,123,39,8,2,33,47,567,['n'],1,right,['1'],6,283,[-0.08536559],73,47,medium,minus,dotcolour,beta,,,41,19,V,R,
376,124,40,8,2,53,27,1535,['c'],1,left,['2'],5,236,[0.14630731],97,53,easy,minus,dotcolour,beta,,,41,19,V,R,
377,125,41,8,2,36,44,650,['n'],1,right,['1'],6,338,[-0.03895561],37,44,hard,minus,dotcolour,beta,,,41,19,V,R,
378,0,0,9,3,33,47,934,['n'],1,right,['1'],6,191,[-0.09314647],100,47,medium,plus,dotcolour,beta,,,41,19,V,R,
379,1,1,9,3,36,44,483,['n'],1,right,['1'],6,228,[-0.08687249],100,44,hard,plus,dotcolour,beta,,,41,19,V,R,
380,2,2,9,3,36,44,867,['n'],1,right,['3'],4,186,[-0.11932778],100,44,hard,plus,dotcolour,beta,,,41,19,V,R,
381,3,3,9,3,47,33,1217,['c'],1,left,['1'],6,219,[0.13788589],100,47,medium,plus,dotcolour,beta,,,41,19,V,R,
382,4,4,9,3,53,27,1367,['c'],1,left,['1'],6,293,[0.22140678],100,53,easy,plus,dotcolour,beta,,,41,19,V,R,
383,5,5,9,3,33,47,650,['n'],1,right,['1'],6,209,[-0.04668893],98,47,medium,plus,dotcolour,beta,,,41,19,V,R,
384,6,6,9,3,36,44,766,['c'],0,right,['1'],6,226,[0.08659796],100,44,hard,plus,dotcolour,beta,,,41,19,V,R,
385,7,7,9,3,33,47,1166,['c'],0,right,['2'],5,316,[-0.00011161],86,47,medium,plus,dotcolour,beta,,,41,19,V,R,
386,8,8,9,3,36,44,1050,['n'],1,right,['1'],6,295,[-0.12271591],100,44,hard,plus,dotcolour,beta,,,41,19,V,R,
387,9,9,9,3,27,53,734,['n'],1,right,['1'],6,231,[-0.09994508],100,53,easy,plus,dotcolour,beta,,,41,19,V,R,
388,10,10,9,3,47,33,1116,['c'],1,left,['1'],6,235,[0.11287346],100,47,medium,plus,dotcolour,beta,,,41,19,V,R,
389,11,11,9,3,44,36,3551,['c'],1,left,['1'],6,524,[0.21525809],100,44,hard,plus,dotcolour,beta,,,41,19,V,R,
390,12,12,9,3,36,44,1551,['n'],1,right,['1'],6,258,[-0.07580208],99,44,hard,plus,dotcolour,beta,,,41,19,V,R,
391,13,13,9,3,53,27,1401,['c'],1,left,['1'],6,233,[0.12208352],100,53,easy,plus,dotcolour,beta,,,41,19,V,R,
392,14,14,9,3,36,44,1284,['n'],1,right,['1'],6,214,[-0.15408983],100,44,hard,plus,dotcolour,beta,,,41,19,V,R,
393,15,15,9,3,53,27,751,['c'],1,left,['1'],6,241,[0.09659979],100,53,easy,plus,dotcolour,beta,,,41,19,V,R,
394,16,16,9,3,53,27,1067,['c'],1,left,['1'],6,221,[0.16532383],100,53,easy,plus,dotcolour,beta,,,41,19,V,R,
395,17,17,9,3,44,36,984,['n'],0,left,['1'],6,423,[-0.04998865],95,44,hard,plus,dotcolour,beta,,,41,19,V,R,
396,18,18,9,3,27,53,1367,['n'],1,right,['1'],6,216,[-0.04797773],98,53,easy,plus,dotcolour,beta,,,41,19,V,R,
397,19,19,9,3,47,33,1066,['c'],1,left,['1'],6,302,[0.20864932],100,47,medium,plus,dotcolour,beta,,,41,19,V,R,
398,20,20,9,3,33,47,649,['n'],1,right,['1'],6,185,[-0.06040729],99,47,medium,plus,dotcolour,beta,,,41,19,V,R,
399,21,21,9,3,27,53,734,['n'],1,right,['1'],6,230,[-0.07746971],99,53,easy,plus,dotcolour,beta,,,41,19,V,R,
400,22,22,9,3,44,36,816,['n'],0,left,['1'],6,293,[-0.04737796],97,44,hard,plus,dotcolour,beta,,,41,19,V,R,
401,23,23,9,3,47,33,1000,['c'],1,left,['1'],6,234,[0.13814397],100,47,medium,plus,dotcolour,beta,,,41,19,V,R,
402,24,24,9,3,47,33,667,['n'],0,left,['1'],6,192,[-0.03521125],98,47,medium,plus,dotcolour,beta,,,41,19,V,R,
403,25,25,9,3,53,27,850,['c'],1,left,['1'],6,175,[0.04651805],99,53,easy,plus,dotcolour,beta,,,41,19,V,R,
404,26,26,9,3,47,33,800,['c'],1,left,['1'],6,233,[0.13443191],100,47,medium,plus,dotcolour,beta,,,41,19,V,R,
405,27,27,9,3,44,36,1066,['n'],0,left,['3'],4,159,[-0.05132091],99,44,hard,plus,dotcolour,beta,,,41,19,V,R,
406,28,28,9,3,44,36,884,['n'],0,left,['1'],6,206,[-0.01704525],95,44,hard,plus,dotcolour,beta,,,41,19,V,R,
407,29,29,9,3,36,44,1001,['n'],1,right,['1'],6,159,[-0.09455642],100,44,hard,plus,dotcolour,beta,,,41,19,V,R,
408,30,30,9,3,33,47,833,['n'],1,right,['1'],6,177,[-0.08436197],100,47,medium,plus,dotcolour,beta,,,41,19,V,R,
409,31,31,9,3,27,53,634,['n'],1,right,['1'],6,193,[-0.124816],100,53,easy,plus,dotcolour,beta,,,41,19,V,R,
410,32,32,9,3,27,53,550,['n'],1,right,['1'],6,268,[-0.02011208],93,53,easy,plus,dotcolour,beta,,,41,19,V,R,
411,33,33,9,3,53,27,834,['c'],1,left,['1'],6,289,[0.15199642],100,53,easy,plus,dotcolour,beta,,,41,19,V,R,
412,34,34,9,3,27,53,816,['c'],0,right,['1'],6,254,[0.1448165],100,53,easy,plus,dotcolour,beta,,,41,19,V,R,
413,35,35,9,3,27,53,1101,['n'],1,right,['1'],6,178,[-0.12621631],100,53,easy,plus,dotcolour,beta,,,41,19,V,R,
414,36,36,9,3,53,27,766,['c'],1,left,['1'],6,477,[0.0742857],97,53,easy,plus,dotcolour,beta,,,41,19,V,R,
415,37,37,9,3,33,47,600,['n'],1,right,['1'],6,203,[-0.06170211],99,47,medium,plus,dotcolour,beta,,,41,19,V,R,
416,38,38,9,3,44,36,950,['n'],0,left,['1'],6,174,[-0.06163442],99,44,hard,plus,dotcolour,beta,,,41,19,V,R,
417,39,39,9,3,44,36,701,['n'],0,left,['1'],6,212,[-0.13006933],100,44,hard,plus,dotcolour,beta,,,41,19,V,R,
418,40,40,9,3,47,33,717,['c'],1,left,['1'],6,192,[0.13550076],100,47,medium,plus,dotcolour,beta,,,41,19,V,R,
419,41,41,9,3,33,47,1182,['n'],1,right,['1'],6,275,[-0.05329877],98,47,medium,plus,dotcolour,beta,,,41,19,V,R,
420,42,0,10,3,53,27,768,['c'],1,left,['1'],6,295,[0.13979792],100,53,easy,plus,dotcolour,beta,,,41,19,V,R,
421,43,1,10,3,36,44,683,['n'],1,right,['2'],5,449,[-0.06459968],96,44,hard,plus,dotcolour,beta,,,41,19,V,R,
422,44,2,10,3,53,27,1216,['c'],1,left,['3'],4,335,[0.11930888],100,53,easy,plus,dotcolour,beta,,,41,19,V,R,
423,45,3,10,3,27,53,599,['n'],1,right,['1'],6,219,[-0.18170296],100,53,easy,plus,dotcolour,beta,,,41,19,V,R,
424,46,4,10,3,36,44,1333,['c'],0,right,['3'],4,215,[0.07671094],99,44,hard,plus,dotcolour,beta,,,41,19,V,R,
425,47,5,10,3,53,27,1318,['c'],1,left,['3'],4,226,[0.09057237],100,53,easy,plus,dotcolour,beta,,,41,19,V,R,
426,48,6,10,3,27,53,634,['n'],1,right,['1'],6,249,[-0.06283252],99,53,easy,plus,dotcolour,beta,,,41,19,V,R,
427,49,7,10,3,33,47,1017,['c'],0,right,['9'],2,952,[-0.05556444],50,47,medium,plus,dotcolour,beta,,,41,19,V,R,
428,50,8,10,3,33,47,683,['n'],1,right,['1'],6,240,[-0.1436324],100,47,medium,plus,dotcolour,beta,,,41,19,V,R,
429,51,9,10,3,47,33,1151,['n'],0,left,['3'],4,289,[0.01117298],82,47,medium,plus,dotcolour,beta,,,41,19,V,R,
430,52,10,10,3,53,27,933,['c'],1,left,['1'],6,266,[0.17716446],100,53,easy,plus,dotcolour,beta,,,41,19,V,R,
431,53,11,10,3,36,44,950,['n'],1,right,['1'],6,258,[-0.08435456],99,44,hard,plus,dotcolour,beta,,,41,19,V,R,
432,54,12,10,3,47,33,749,['c'],1,left,['3'],4,250,[0.0962203],100,47,medium,plus,dotcolour,beta,,,41,19,V,R,
433,55,13,10,3,27,53,784,['n'],1,right,['1'],6,298,[-0.20926877],100,53,easy,plus,dotcolour,beta,,,41,19,V,R,
434,56,14,10,3,27,53,867,['n'],1,right,['1'],6,261,[-0.12461554],100,53,easy,plus,dotcolour,beta,,,41,19,V,R,
435,57,15,10,3,27,53,617,['n'],1,right,['1'],6,251,[-0.11347252],100,53,easy,plus,dotcolour,beta,,,41,19,V,R,
436,58,16,10,3,27,53,516,['n'],1,right,['1'],6,302,[-0.06111973],98,53,easy,plus,dotcolour,beta,,,41,19,V,R,
437,59,17,10,3,47,33,1218,['c'],1,left,['1'],6,219,[0.09547977],100,47,medium,plus,dotcolour,beta,,,41,19,V,R,
438,60,18,10,3,47,33,1550,['n'],0,left,['3'],4,277,[-0.01801007],93,47,medium,plus,dotcolour,beta,,,41,19,V,R,
439,61,19,10,3,44,36,1100,['n'],0,left,['3'],4,263,[0.01684378],80,44,hard,plus,dotcolour,beta,,,41,19,V,R,
440,62,20,10,3,33,47,651,['n'],1,right,['1'],6,268,[-0.09320272],99,47,medium,plus,dotcolour,beta,,,41,19,V,R,
441,63,21,10,3,47,33,917,['c'],1,left,['1'],6,214,[0.08795771],100,47,medium,plus,dotcolour,beta,,,41,19,V,R,
442,64,22,10,3,36,44,684,['n'],1,right,['1'],6,204,[0.02079925],80,44,hard,plus,dotcolour,beta,,,41,19,V,R,
443,65,23,10,3,33,47,600,['n'],1,right,['1'],6,228,[-0.15166696],100,47,medium,plus,dotcolour,beta,,,41,19,V,R,
444,66,24,10,3,44,36,817,['n'],0,left,['2'],5,300,[-0.0496741],97,44,hard,plus,dotcolour,beta,,,41,19,V,R,
445,67,25,10,3,47,33,1984,['c'],1,left,['2'],5,394,[0.0819214],98,47,medium,plus,dotcolour,beta,,,41,19,V,R,
446,68,26,10,3,53,27,1183,['c'],1,left,['2'],5,324,[0.17223948],100,53,easy,plus,dotcolour,beta,,,41,19,V,R,
447,69,27,10,3,36,44,751,['n'],1,right,['1'],6,442,[-0.08594485],98,44,hard,plus,dotcolour,beta,,,41,19,V,R,
448,70,28,10,3,33,47,683,['n'],1,right,['1'],6,294,[-0.12580905],100,47,medium,plus,dotcolour,beta,,,41,19,V,R,
449,71,29,10,3,33,47,1184,['n'],1,right,['1'],6,212,[-0.11108182],100,47,medium,plus,dotcolour,beta,,,41,19,V,R,
450,72,30,10,3,33,47,633,['n'],1,right,['1'],6,195,[-0.1020108],100,47,medium,plus,dotcolour,beta,,,41,19,V,R,
451,73,31,10,3,27,53,483,['n'],1,right,['1'],6,218,[-0.12776689],100,53,easy,plus,dotcolour,beta,,,41,19,V,R,
452,74,32,10,3,44,36,1550,['c'],1,left,['3'],4,508,[0.03972375],92,44,hard,plus,dotcolour,beta,,,41,19,V,R,
453,75,33,10,3,47,33,1717,['c'],1,left,['2'],5,316,[0.13868173],100,47,medium,plus,dotcolour,beta,,,41,19,V,R,
454,76,34,10,3,44,36,1216,['c'],1,left,['2'],5,201,[0.08082862],100,44,hard,plus,dotcolour,beta,,,41,19,V,R,
455,77,35,10,3,36,44,800,['n'],1,right,['1'],6,322,[-0.07961534],99,44,hard,plus,dotcolour,beta,,,41,19,V,R,
456,78,36,10,3,53,27,1450,['c'],1,left,['2'],5,396,[0.15318085],100,53,easy,plus,dotcolour,beta,,,41,19,V,R,
457,79,37,10,3,44,36,684,['n'],0,left,['1'],6,250,[0.03036557],71,44,hard,plus,dotcolour,beta,,,41,19,V,R,
458,80,38,10,3,36,44,733,['n'],1,right,['1'],6,212,[-0.04433794],98,44,hard,plus,dotcolour,beta,,,41,19,V,R,
459,81,39,10,3,53,27,1450,['c'],1,left,['2'],5,235,[0.08672627],99,53,easy,plus,dotcolour,beta,,,41,19,V,R,
460,82,40,10,3,44,36,733,['n'],0,left,['1'],6,270,[-0.05043758],98,44,hard,plus,dotcolour,beta,,,41,19,V,R,
461,83,41,10,3,44,36,1433,['c'],1,left,['2'],5,338,[0.18229455],100,44,hard,plus,dotcolour,beta,,,41,19,V,R,
462,84,0,11,3,36,44,3083,['n'],1,right,['1'],6,295,[-0.06872048],98,44,hard,plus,dotcolour,beta,,,41,19,V,R,
463,85,1,11,3,33,47,700,['n'],1,right,['1'],6,297,[-0.10641961],100,47,medium,plus,dotcolour,beta,,,41,19,V,R,
464,86,2,11,3,36,44,1316,['c'],0,right,['1'],6,250,[-0.02395813],76,44,hard,plus,dotcolour,beta,,,41,19,V,R,
465,87,3,11,3,44,36,1301,['n'],0,left,['1'],6,237,[-0.03373462],96,44,hard,plus,dotcolour,beta,,,41,19,V,R,
466,88,4,11,3,33,47,750,['n'],1,right,['1'],6,479,[-0.21106336],100,47,medium,plus,dotcolour,beta,,,41,19,V,R,
467,89,5,11,3,36,44,450,['n'],1,right,['1'],6,219,[-0.05524341],99,44,hard,plus,dotcolour,beta,,,41,19,V,R,
468,90,6,11,3,47,33,1283,['c'],1,left,['3'],4,224,[0.11948162],100,47,medium,plus,dotcolour,beta,,,41,19,V,R,
469,91,7,11,3,44,36,2200,['c'],1,left,['3'],4,184,[0.05999902],99,44,hard,plus,dotcolour,beta,,,41,19,V,R,
470,92,8,11,3,27,53,1083,['n'],1,right,['1'],6,247,[-0.12073982],100,53,easy,plus,dotcolour,beta,,,41,19,V,R,
471,93,9,11,3,36,44,1366,['n'],1,right,['2'],5,272,[-0.1130099],100,44,hard,plus,dotcolour,beta,,,41,19,V,R,
472,94,10,11,3,44,36,651,['n'],0,left,['1'],6,284,[-0.17113909],100,44,hard,plus,dotcolour,beta,,,41,19,V,R,
473,95,11,11,3,44,36,833,['n'],0,left,['1'],6,272,[-0.0391192],96,44,hard,plus,dotcolour,beta,,,41,19,V,R,
474,96,12,11,3,47,33,933,['n'],0,left,['2'],5,241,[-0.01107101],92,47,medium,plus,dotcolour,beta,,,41,19,V,R,
475,97,13,11,3,44,36,1084,['n'],0,left,['2'],5,293,[-0.09949596],99,44,hard,plus,dotcolour,beta,,,41,19,V,R,
476,98,14,11,3,27,53,583,['n'],1,right,['1'],6,291,[-0.07802709],99,53,easy,plus,dotcolour,beta,,,41,19,V,R,
477,99,15,11,3,44,36,2200,['c'],1,left,['2'],5,264,[0.08893002],99,44,hard,plus,dotcolour,beta,,,41,19,V,R,
478,100,16,11,3,27,53,1234,['n'],1,right,['2'],5,1518,[-0.0864095],89,53,easy,plus,dotcolour,beta,,,41,19,V,R,
479,101,17,11,3,53,27,933,['c'],1,left,['2'],5,261,[0.09476831],100,53,easy,plus,dotcolour,beta,,,41,19,V,R,
480,102,18,11,3,44,36,834,['n'],0,left,['1'],6,250,[-0.03761069],97,44,hard,plus,dotcolour,beta,,,41,19,V,R,
481,103,19,11,3,27,53,1567,['n'],1,right,['1'],6,250,[-0.03673779],97,53,easy,plus,dotcolour,beta,,,41,19,V,R,
482,104,20,11,3,33,47,683,['n'],1,right,['1'],6,303,[-0.09881472],99,47,medium,plus,dotcolour,beta,,,41,19,V,R,
483,105,21,11,3,47,33,800,['c'],1,left,['1'],6,203,[0.11677309],100,47,medium,plus,dotcolour,beta,,,41,19,V,R,
484,106,22,11,3,47,33,1450,['n'],0,left,['3'],4,235,[-0.05880954],99,47,medium,plus,dotcolour,beta,,,41,19,V,R,
485,107,23,11,3,33,47,1533,['n'],1,right,['2'],5,485,[0.02876374],67,47,medium,plus,dotcolour,beta,,,41,19,V,R,
486,108,24,11,3,47,33,1067,['c'],1,left,['1'],6,537,[0.19912021],100,47,medium,plus,dotcolour,beta,,,41,19,V,R,
487,109,25,11,3,53,27,1133,['c'],1,left,['2'],5,311,[0.05915611],98,53,easy,plus,dotcolour,beta,,,41,19,V,R,
488,110,26,11,3,36,44,717,['n'],1,right,['1'],6,279,[-0.11383054],100,44,hard,plus,dotcolour,beta,,,41,19,V,R,
489,111,27,11,3,36,44,5000,['n'],1,right,['8'],3,1093,[-0.17919249],98,44,hard,plus,dotcolour,beta,,,41,19,V,R,
490,112,28,11,3,33,47,1317,['n'],1,right,['1'],6,222,[-0.09092648],100,47,medium,plus,dotcolour,beta,,,41,19,V,R,
491,113,29,11,3,36,44,1300,['n'],1,right,['1'],6,226,[-0.08157849],99,44,hard,plus,dotcolour,beta,,,41,19,V,R,
492,114,30,11,3,47,33,917,['c'],1,left,['1'],6,222,[0.1902036],100,47,medium,plus,dotcolour,beta,,,41,19,V,R,
493,115,31,11,3,53,27,1367,['c'],1,left,['1'],6,216,[0.16489094],100,53,easy,plus,dotcolour,beta,,,41,19,V,R,
494,116,32,11,3,27,53,633,['n'],1,right,['1'],6,159,[-0.12323319],100,53,easy,plus,dotcolour,beta,,,41,19,V,R,
495,117,33,11,3,33,47,568,['n'],1,right,['1'],6,243,[-0.12330036],100,47,medium,plus,dotcolour,beta,,,41,19,V,R,
496,118,34,11,3,27,53,516,['n'],1,right,['1'],6,190,[-0.06322273],99,53,easy,plus,dotcolour,beta,,,41,19,V,R,
497,119,35,11,3,53,27,984,['c'],1,left,['1'],6,120,[0.06824927],100,53,easy,plus,dotcolour,beta,,,41,19,V,R,
498,120,36,11,3,53,27,1366,['c'],1,left,['1'],6,182,[0.10948264],100,53,easy,plus,dotcolour,beta,,,41,19,V,R,
499,121,37,11,3,33,47,884,['n'],1,right,['1'],6,140,[-0.02417384],98,47,medium,plus,dotcolour,beta,,,41,19,V,R,
500,122,38,11,3,47,33,1266,['n'],0,left,['3'],4,254,[-0.0711713],99,47,medium,plus,dotcolour,beta,,,41,19,V,R,
501,123,39,11,3,53,27,1467,['c'],1,left,['3'],4,202,[0.09931686],100,53,easy,plus,dotcolour,beta,,,41,19,V,R,
502,124,40,11,3,53,27,950,['c'],1,left,['3'],4,181,[0.14662604],100,53,easy,plus,dotcolour,beta,,,41,19,V,R,
503,125,41,11,3,27,53,667,['n'],1,right,['1'],6,245,[-0.01306028],92,53,easy,plus,dotcolour,beta,,,41,19,V,R,
504,0,0,12,4,53,27,1133,['c'],1,left,['3'],4,221,[0.08570759],76,53,easy,minus,dotcolour,beta,,,41,19,V,R,
505,1,1,12,4,36,44,967,['n'],1,right,['3'],4,223,[-0.09025362],79,44,hard,minus,dotcolour,beta,,,41,19,V,R,
506,2,2,12,4,53,27,1334,['c'],1,left,['3'],4,209,[0.18375859],99,53,easy,minus,dotcolour,beta,,,41,19,V,R,
507,3,3,12,4,27,53,634,['n'],1,right,['2'],5,241,[-0.17130926],99,53,easy,minus,dotcolour,beta,,,41,19,V,R,
508,4,4,12,4,36,44,717,['n'],1,right,['1'],6,275,[0.00343994],12,44,hard,minus,dotcolour,beta,,,41,19,V,R,
509,5,5,12,4,33,47,634,['n'],1,right,['1'],6,208,[-0.08442665],76,47,medium,minus,dotcolour,beta,,,41,19,V,R,
510,6,6,12,4,44,36,966,['c'],1,left,['2'],5,242,[0.12520404],93,44,hard,minus,dotcolour,beta,,,41,19,V,R,
511,7,7,12,4,33,47,550,['n'],1,right,['1'],6,171,[0.00245289],7,47,medium,minus,dotcolour,beta,,,41,19,V,R,
512,8,8,12,4,47,33,950,['c'],1,left,['1'],6,328,[0.11874392],88,47,medium,minus,dotcolour,beta,,,41,19,V,R,
513,9,9,12,4,36,44,600,['n'],1,right,['1'],6,268,[-0.0415402],38,44,hard,minus,dotcolour,beta,,,41,19,V,R,
514,10,10,12,4,47,33,1450,['n'],0,left,['8'],3,224,[0.07515793],1,47,medium,minus,dotcolour,beta,,,41,19,V,R,
515,11,11,12,4,47,33,1683,['c'],1,left,['3'],4,213,[0.03376431],30,47,medium,minus,dotcolour,beta,,,41,19,V,R,
516,12,12,12,4,53,27,1317,['c'],1,left,['3'],4,185,[0.04059559],35,53,easy,minus,dotcolour,beta,,,41,19,V,R,
517,13,13,12,4,33,47,1183,['n'],1,right,['1'],6,252,[-0.10778803],87,47,medium,minus,dotcolour,beta,,,41,19,V,R,
518,14,14,12,4,36,44,885,['n'],1,right,['1'],6,312,[-0.07799831],67,44,hard,minus,dotcolour,beta,,,41,19,V,R,
519,15,15,12,4,47,33,1333,['n'],0,left,['3'],4,215,[-0.02387569],23,47,medium,minus,dotcolour,beta,,,41,19,V,R,
520,16,16,12,4,27,53,817,['n'],1,right,['1'],6,215,[-0.06002557],54,53,easy,minus,dotcolour,beta,,,41,19,V,R,
521,17,17,12,4,47,33,1167,['c'],1,left,['1'],6,273,[0.04850125],44,47,medium,minus,dotcolour,beta,,,41,19,V,R,
522,18,18,12,4,33,47,716,['n'],1,right,['1'],6,307,[-0.13768221],94,47,medium,minus,dotcolour,beta,,,41,19,V,R,
523,19,19,12,4,27,53,483,['n'],1,right,['1'],6,252,[-0.08100695],71,53,easy,minus,dotcolour,beta,,,41,19,V,R,
524,20,20,12,4,27,53,467,['n'],1,right,['1'],6,177,[-0.13961984],97,53,easy,minus,dotcolour,beta,,,41,19,V,R,
525,21,21,12,4,36,44,484,['n'],1,right,['1'],6,367,[-0.0801893],68,44,hard,minus,dotcolour,beta,,,41,19,V,R,
526,22,22,12,4,53,27,1317,['c'],1,left,['3'],4,213,[0.05263594],47,53,easy,minus,dotcolour,beta,,,41,19,V,R,
527,23,23,12,4,44,36,633,['n'],0,left,['2'],5,381,[-0.06612453],58,44,hard,minus,dotcolour,beta,,,41,19,V,R,
528,24,24,12,4,44,36,500,['n'],0,left,['1'],6,227,[-0.09336482],81,44,hard,minus,dotcolour,beta,,,41,19,V,R,
529,25,25,12,4,53,27,1116,['c'],1,left,['1'],6,263,[0.14605567],96,53,easy,minus,dotcolour,beta,,,41,19,V,R,
530,26,26,12,4,53,27,784,['c'],1,left,['1'],6,278,[0.06533533],58,53,easy,minus,dotcolour,beta,,,41,19,V,R,
531,27,27,12,4,44,36,1134,['c'],1,left,['2'],5,423,[0.0531045],48,44,hard,minus,dotcolour,beta,,,41,19,V,R,
532,28,28,12,4,47,33,1367,['c'],1,left,['2'],5,216,[0.11842758],92,47,medium,minus,dotcolour,beta,,,41,19,V,R,
533,29,29,12,4,33,47,1149,['n'],1,right,['1'],6,299,[-0.102532],82,47,medium,minus,dotcolour,beta,,,41,19,V,R,
534,30,30,12,4,53,27,1182,['n'],0,left,['2'],5,289,[0.03454664],5,53,easy,minus,dotcolour,beta,,,41,19,V,R,
535,31,31,12,4,27,53,1000,['n'],1,right,['1'],6,246,[-0.11793646],91,53,easy,minus,dotcolour,beta,,,41,19,V,R,
536,32,32,12,4,33,47,550,['n'],1,right,['1'],6,327,[-0.25433622],100,47,medium,minus,dotcolour,beta,,,41,19,V,R,
537,33,33,12,4,44,36,1850,['n'],0,left,['1'],6,257,[-0.06474924],58,44,hard,minus,dotcolour,beta,,,41,19,V,R,
538,34,34,12,4,44,36,734,['n'],0,left,['1'],6,171,[-0.04839524],42,44,hard,minus,dotcolour,beta,,,41,19,V,R,
539,35,35,12,4,47,33,1284,['c'],1,left,['1'],6,210,[0.14410655],97,47,medium,minus,dotcolour,beta,,,41,19,V,R,
540,36,36,12,4,36,44,617,['n'],1,right,['1'],6,218,[-0.04375989],39,44,hard,minus,dotcolour,beta,,,41,19,V,R,
541,37,37,12,4,36,44,700,['n'],1,right,['1'],6,198,[-0.08638243],78,44,hard,minus,dotcolour,beta,,,41,19,V,R,
542,38,38,12,4,33,47,432,['n'],1,right,['1'],6,167,[-0.08439066],78,47,medium,minus,dotcolour,beta,,,41,19,V,R,
543,39,39,12,4,27,53,433,['n'],1,right,['1'],6,280,[-0.09398766],79,53,easy,minus,dotcolour,beta,,,41,19,V,R,
544,40,40,12,4,44,36,483,['n'],0,left,['1'],6,219,[-0.04429006],39,44,hard,minus,dotcolour,beta,,,41,19,V,R,
545,41,41,12,4,27,53,450,['n'],1,right,['1'],6,249,[-0.06221906],56,53,easy,minus,dotcolour,beta,,,41,19,V,R,
546,42,0,13,4,44,36,1233,['c'],1,left,['1'],6,254,[0.02678271],26,44,hard,minus,dotcolour,beta,,,41,19,V,R,
547,43,1,13,4,36,44,601,['n'],1,right,['1'],6,382,[-0.05610856],50,44,hard,minus,dotcolour,beta,,,41,19,V,R,
548,44,2,13,4,44,36,1050,['c'],1,left,['3'],4,214,[0.11990069],92,44,hard,minus,dotcolour,beta,,,41,19,V,R,
549,45,3,13,4,27,53,451,['n'],1,right,['1'],6,205,[-0.09073668],80,53,easy,minus,dotcolour,beta,,,41,19,V,R,
550,46,4,13,4,44,36,484,['n'],0,left,['1'],6,186,[-0.09081313],81,44,hard,minus,dotcolour,beta,,,41,19,V,R,
551,47,5,13,4,27,53,499,['n'],1,right,['1'],6,257,[-0.14146957],95,53,easy,minus,dotcolour,beta,,,41,19,V,R,
552,48,6,13,4,53,27,767,['c'],1,left,['1'],6,160,[0.08735779],81,53,easy,minus,dotcolour,beta,,,41,19,V,R,
553,49,7,13,4,53,27,601,['n'],0,left,['1'],6,203,[-0.00950565],14,53,easy,minus,dotcolour,beta,,,41,19,V,R,
554,50,8,13,4,47,33,817,['c'],1,left,['1'],6,180,[0.17689296],99,47,medium,minus,dotcolour,beta,,,41,19,V,R,
555,51,9,13,4,36,44,750,['n'],1,right,['3'],4,223,[-0.10019736],85,44,hard,minus,dotcolour,beta,,,41,19,V,R,
556,52,10,13,4,27,53,666,['n'],1,right,['1'],6,230,[-0.15834928],98,53,easy,minus,dotcolour,beta,,,41,19,V,R,
557,53,11,13,4,33,47,600,['n'],1,right,['1'],6,237,[-0.20053147],100,47,medium,minus,dotcolour,beta,,,41,19,V,R,
558,54,12,13,4,44,36,1134,['c'],1,left,['3'],4,208,[0.01908885],19,44,hard,minus,dotcolour,beta,,,41,19,V,R,
559,55,13,13,4,47,33,1084,['c'],1,left,['3'],4,253,[0.16016393],98,47,medium,minus,dotcolour,beta,,,41,19,V,R,
560,56,14,13,4,53,27,800,['c'],1,left,['1'],6,300,[0.12642301],91,53,easy,minus,dotcolour,beta,,,41,19,V,R,
561,57,15,13,4,53,27,850,['c'],1,left,['3'],4,408,[0.16986167],96,53,easy,minus,dotcolour,beta,,,41,19,V,R,
562,58,16,13,4,27,53,900,['n'],1,right,['3'],4,357,[-0.08497078],71,53,easy,minus,dotcolour,beta,,,41,19,V,R,
563,59,17,13,4,47,33,1217,['n'],0,left,['3'],4,254,[-0.06109092],55,47,medium,minus,dotcolour,beta,,,41,19,V,R,
564,60,18,13,4,36,44,1033,['n'],1,right,['1'],6,244,[-0.04259405],38,44,hard,minus,dotcolour,beta,,,41,19,V,R,
565,61,19,13,4,33,47,500,['n'],1,right,['1'],6,192,[-0.09830614],85,47,medium,minus,dotcolour,beta,,,41,19,V,R,
566,62,20,13,4,27,53,433,['n'],1,right,['1'],6,175,[-0.03665585],31,53,easy,minus,dotcolour,beta,,,41,19,V,R,
567,63,21,13,4,36,44,466,['n'],1,right,['1'],6,175,[-0.10357884],89,44,hard,minus,dotcolour,beta,,,41,19,V,R,
568,64,22,13,4,27,53,549,['n'],1,right,['1'],6,187,[-0.08002775],73,53,easy,minus,dotcolour,beta,,,41,19,V,R,
569,65,23,13,4,53,27,967,['c'],1,left,['1'],6,247,[0.19539627],99,53,easy,minus,dotcolour,beta,,,41,19,V,R,
570,66,24,13,4,33,47,616,['n'],1,right,['1'],6,221,[-0.02722985],25,47,medium,minus,dotcolour,beta,,,41,19,V,R,
571,67,25,13,4,44,36,3600,['c'],1,left,['3'],4,158,[0.11481919],94,44,hard,minus,dotcolour,beta,,,41,19,V,R,
572,68,26,13,4,44,36,1568,['n'],0,left,['3'],4,242,[-0.07822495],70,44,hard,minus,dotcolour,beta,,,41,19,V,R,
573,69,27,13,4,36,44,617,['n'],1,right,['3'],4,233,[-0.09885107],83,44,hard,minus,dotcolour,beta,,,41,19,V,R,
574,70,28,13,4,27,53,533,['n'],1,right,['3'],4,204,[-0.06988964],64,53,easy,minus,dotcolour,beta,,,41,19,V,R,
575,71,29,13,4,33,47,517,['n'],1,right,['1'],6,216,[-0.01046808],15,47,medium,minus,dotcolour,beta,,,41,19,V,R,
576,72,30,13,4,47,33,1000,['n'],0,left,['3'],4,209,[-0.06486428],59,47,medium,minus,dotcolour,beta,,,41,19,V,R,
577,73,31,13,4,44,36,967,['c'],1,left,['3'],4,187,[0.1005776],87,44,hard,minus,dotcolour,beta,,,41,19,V,R,
578,74,32,13,4,53,27,934,['c'],1,left,['1'],6,224,[0.10719992],88,53,easy,minus,dotcolour,beta,,,41,19,V,R,
579,75,33,13,4,53,27,767,['c'],1,left,['1'],6,161,[0.0638054],59,53,easy,minus,dotcolour,beta,,,41,19,V,R,
580,76,34,13,4,33,47,566,['n'],1,right,['1'],6,157,[-0.06818969],64,47,medium,minus,dotcolour,beta,,,41,19,V,R,
581,77,35,13,4,47,33,467,['n'],0,left,['1'],6,221,[-0.04023189],36,47,medium,minus,dotcolour,beta,,,41,19,V,R,
582,78,36,13,4,33,47,534,['n'],1,right,['1'],6,184,[-0.13495198],97,47,medium,minus,dotcolour,beta,,,41,19,V,R,
583,79,37,13,4,47,33,833,['c'],1,left,['2'],5,177,[0.04935083],43,47,medium,minus,dotcolour,beta,,,41,19,V,R,
584,80,38,13,4,36,44,734,['n'],1,right,['1'],6,182,[-0.04063669],35,44,hard,minus,dotcolour,beta,,,41,19,V,R,
585,81,39,13,4,33,47,584,['n'],1,right,['1'],6,240,[-0.07024027],63,47,medium,minus,dotcolour,beta,,,41,19,V,R,
586,82,40,13,4,47,33,984,['c'],1,left,['1'],6,153,[0.10897916],92,47,medium,minus,dotcolour,beta,,,41,19,V,R,
587,83,41,13,4,36,44,567,['n'],1,right,['1'],6,157,[-0.14390465],98,44,hard,minus,dotcolour,beta,,,41,19,V,R,
588,84,0,14,4,53,27,816,['n'],0,left,['1'],6,272,[-0.01827314],22,53,easy,minus,dotcolour,beta,,,41,19,V,R,
589,85,1,14,4,33,47,666,['n'],1,right,['1'],6,179,[-0.08174965],75,47,medium,minus,dotcolour,beta,,,41,19,V,R,
590,86,2,14,4,44,36,1000,['c'],1,left,['3'],4,157,[0.13690868],98,44,hard,minus,dotcolour,beta,,,41,19,V,R,
591,87,3,14,4,36,44,1134,['c'],0,right,['3'],4,147,[0.03792691],30,44,hard,minus,dotcolour,beta,,,41,19,V,R,
592,88,4,14,4,36,44,567,['n'],1,right,['1'],6,471,[-0.10066123],77,44,hard,minus,dotcolour,beta,,,41,19,V,R,
593,89,5,14,4,27,53,716,['n'],1,right,['1'],6,209,[-0.09212922],81,53,easy,minus,dotcolour,beta,,,41,19,V,R,
594,90,6,14,4,47,33,1034,['c'],1,left,['2'],5,240,[0.10108647],84,47,medium,minus,dotcolour,beta,,,41,19,V,R,
595,91,7,14,4,33,47,1249,['n'],1,right,['1'],6,190,[-0.14065732],97,47,medium,minus,dotcolour,beta,,,41,19,V,R,
596,92,8,14,4,33,47,601,['n'],1,right,['1'],6,183,[-0.11255994],92,47,medium,minus,dotcolour,beta,,,41,19,V,R,
597,93,9,14,4,44,36,533,['n'],0,left,['1'],6,260,[-0.06813252],61,44,hard,minus,dotcolour,beta,,,41,19,V,R,
598,94,10,14,4,27,53,683,['n'],1,right,['1'],6,199,[-0.09846367],85,53,easy,minus,dotcolour,beta,,,41,19,V,R,
599,95,11,14,4,27,53,566,['n'],1,right,['1'],6,210,[-0.09321225],81,53,easy,minus,dotcolour,beta,,,41,19,V,R,
600,96,12,14,4,33,47,483,['n'],1,right,['1'],6,199,[-0.10018262],86,47,medium,minus,dotcolour,beta,,,41,19,V,R,
601,97,13,14,4,36,44,434,['n'],1,right,['1'],6,215,[-0.0115151],15,44,hard,minus,dotcolour,beta,,,41,19,V,R,
602,98,14,14,4,44,36,833,['n'],0,left,['3'],4,182,[-0.08626828],79,44,hard,minus,dotcolour,beta,,,41,19,V,R,
603,99,15,14,4,27,53,683,['n'],1,right,['1'],6,205,[-0.00889207],14,53,easy,minus,dotcolour,beta,,,41,19,V,R,
604,100,16,14,4,53,27,1099,['c'],1,left,['1'],6,226,[0.13855247],96,53,easy,minus,dotcolour,beta,,,41,19,V,R,
605,101,17,14,4,36,44,533,['n'],1,right,['2'],5,301,[0.01716199],8,44,hard,minus,dotcolour,beta,,,41,19,V,R,
606,102,18,14,4,27,53,683,['n'],1,right,['1'],6,191,[-0.05276068],47,53,easy,minus,dotcolour,beta,,,41,19,V,R,
607,103,19,14,4,27,53,516,['n'],1,right,['1'],6,212,[-0.15365242],98,53,easy,minus,dotcolour,beta,,,41,19,V,R,
608,104,20,14,4,47,33,1100,['c'],1,left,['2'],5,184,[0.04317258],37,47,medium,minus,dotcolour,beta,,,41,19,V,R,
609,105,21,14,4,33,47,534,['n'],1,right,['2'],5,430,[-0.16805941],96,47,medium,minus,dotcolour,beta,,,41,19,V,R,
610,106,22,14,4,53,27,1617,['c'],1,left,['1'],6,229,[0.10065895],85,53,easy,minus,dotcolour,beta,,,41,19,V,R,
611,107,23,14,4,36,44,567,['n'],1,right,['1'],6,190,[-0.08985493],80,44,hard,minus,dotcolour,beta,,,41,19,V,R,
612,108,24,14,4,33,47,1084,['c'],0,right,['3'],4,228,[0.05146449],46,47,medium,minus,dotcolour,beta,,,41,19,V,R,
613,109,25,14,4,47,33,934,['c'],1,left,['3'],4,175,[0.10188691],88,47,medium,minus,dotcolour,beta,,,41,19,V,R,
614,110,26,14,4,53,27,1033,['c'],1,left,['2'],5,335,[0.0743568],64,53,easy,minus,dotcolour,beta,,,41,19,V,R,
615,111,27,14,4,47,33,1316,['c'],1,left,['1'],6,639,[0.24799736],99,47,medium,minus,dotcolour,beta,,,41,19,V,R,
616,112,28,14,4,53,27,967,['c'],1,left,['1'],6,239,[0.09210334],79,53,easy,minus,dotcolour,beta,,,41,19,V,R,
617,113,29,14,4,27,53,550,['n'],1,right,['1'],6,370,[-0.10748132],82,53,easy,minus,dotcolour,beta,,,41,19,V,R,
618,114,30,14,4,44,36,616,['n'],0,left,['1'],6,251,[-0.02231213],23,44,hard,minus,dotcolour,beta,,,41,19,V,R,
619,115,31,14,4,53,27,850,['c'],1,left,['1'],6,297,[0.14527578],95,53,easy,minus,dotcolour,beta,,,41,19,V,R,
620,116,32,14,4,36,44,400,['n'],1,right,['1'],6,286,[-0.12173888],90,44,hard,minus,dotcolour,beta,,,41,19,V,R,
621,117,33,14,4,33,47,600,['n'],1,right,['1'],6,260,[-0.11781312],90,47,medium,minus,dotcolour,beta,,,41,19,V,R,
622,118,34,14,4,36,44,984,['c'],0,right,['3'],4,179,[0.05382971],48,44,hard,minus,dotcolour,beta,,,41,19,V,R,
623,119,35,14,4,47,33,950,['c'],1,left,['1'],6,327,[0.11490081],87,47,medium,minus,dotcolour,beta,,,41,19,V,R,
624,120,36,14,4,44,36,651,['n'],0,left,['1'],6,257,[0.04643518],3,44,hard,minus,dotcolour,beta,,,41,19,V,R,
625,121,37,14,4,47,33,1483,['n'],0,left,['0'],1,340,[0.01159719],11,47,medium,minus,dotcolour,beta,,,41,19,V,R,
626,122,38,14,4,47,33,984,['c'],1,left,['3'],4,208,[0.08124921],73,47,medium,minus,dotcolour,beta,,,41,19,V,R,
627,123,39,14,4,44,36,750,['n'],0,left,['1'],6,219,[-0.06086626],55,44,hard,minus,dotcolour,beta,,,41,19,V,R,
628,124,40,14,4,44,36,950,['c'],1,left,['3'],4,231,[0.10665399],87,44,hard,minus,dotcolour,beta,,,41,19,V,R,
629,125,41,14,4,53,27,717,['c'],1,left,['1'],6,241,[0.14084228],96,53,easy,minus,dotcolour,beta,,,41,19,V,R,
630,0,0,15,5,33,47,1184,['n'],1,right,['1'],6,287,[-0.15191897],100,47,medium,plus,dotcolour,beta,,,41,19,V,R,
631,1,1,15,5,44,36,1100,['n'],0,left,['3'],4,185,[-0.05298045],99,44,hard,plus,dotcolour,beta,,,41,19,V,R,
632,2,2,15,5,33,47,1100,['n'],1,right,['1'],6,214,[-0.07336719],99,47,medium,plus,dotcolour,beta,,,41,19,V,R,
633,3,3,15,5,33,47,500,['n'],1,right,['1'],6,195,[-0.07644516],100,47,medium,plus,dotcolour,beta,,,41,19,V,R,
634,4,4,15,5,53,27,784,['c'],1,left,['1'],6,318,[0.12140402],100,53,easy,plus,dotcolour,beta,,,41,19,V,R,
635,5,5,15,5,47,33,800,['c'],1,left,['1'],6,202,[0.13295429],100,47,medium,plus,dotcolour,beta,,,41,19,V,R,
636,6,6,15,5,47,33,966,['c'],1,left,['3'],4,221,[0.13564824],100,47,medium,plus,dotcolour,beta,,,41,19,V,R,
637,7,7,15,5,47,33,1001,['c'],1,left,['1'],6,326,[0.17854894],100,47,medium,plus,dotcolour,beta,,,41,19,V,R,
638,8,8,15,5,33,47,483,['n'],1,right,['1'],6,174,[-0.16271856],100,47,medium,plus,dotcolour,beta,,,41,19,V,R,
639,9,9,15,5,33,47,483,['n'],1,right,['1'],6,213,[-0.10991635],100,47,medium,plus,dotcolour,beta,,,41,19,V,R,
640,10,10,15,5,33,47,500,['n'],1,right,['1'],6,193,[-0.08596598],100,47,medium,plus,dotcolour,beta,,,41,19,V,R,
641,11,11,15,5,53,27,850,['c'],1,left,['1'],6,265,[0.12457341],100,53,easy,plus,dotcolour,beta,,,41,19,V,R,
642,12,12,15,5,53,27,583,['n'],0,left,['1'],6,240,[-0.05886348],99,53,easy,plus,dotcolour,beta,,,41,19,V,R,
643,13,13,15,5,47,33,2666,['c'],1,left,['3'],4,173,[0.09285416],100,47,medium,plus,dotcolour,beta,,,41,19,V,R,
644,14,14,15,5,44,36,817,['n'],0,left,['1'],6,175,[-0.04990666],99,44,hard,plus,dotcolour,beta,,,41,19,V,R,
645,15,15,15,5,44,36,1116,['n'],0,left,['3'],4,188,[-0.08242842],100,44,hard,plus,dotcolour,beta,,,41,19,V,R,
646,16,16,15,5,47,33,767,['c'],1,left,['1'],6,239,[0.04077107],97,47,medium,plus,dotcolour,beta,,,41,19,V,R,
647,17,17,15,5,27,53,700,['n'],1,right,['1'],6,210,[-0.08894029],100,53,easy,plus,dotcolour,beta,,,41,19,V,R,
648,18,18,15,5,53,27,718,['c'],1,left,['1'],6,247,[0.02128133],94,53,easy,plus,dotcolour,beta,,,41,19,V,R,
649,19,19,15,5,36,44,1167,['c'],0,right,['1'],6,255,[0.0717629],99,44,hard,plus,dotcolour,beta,,,41,19,V,R,
650,20,20,15,5,36,44,633,['n'],1,right,['1'],6,173,[-0.09974982],100,44,hard,plus,dotcolour,beta,,,41,19,V,R,
651,21,21,15,5,47,33,650,['c'],1,left,['1'],6,309,[-0.00755665],83,47,medium,plus,dotcolour,beta,,,41,19,V,R,
652,22,22,15,5,44,36,1351,['c'],1,left,['2'],5,372,[0.104089],99,44,hard,plus,dotcolour,beta,,,41,19,V,R,
653,23,23,15,5,44,36,683,['n'],0,left,['1'],6,267,[-0.05730598],98,44,hard,plus,dotcolour,beta,,,41,19,V,R,
654,24,24,15,5,27,53,600,['n'],1,right,['1'],6,193,[-0.12170908],100,53,easy,plus,dotcolour,beta,,,41,19,V,R,
655,25,25,15,5,27,53,500,['n'],1,right,['1'],6,215,[-0.12057571],100,53,easy,plus,dotcolour,beta,,,41,19,V,R,
656,26,26,15,5,44,36,900,['c'],1,left,['3'],4,179,[0.082528],100,44,hard,plus,dotcolour,beta,,,41,19,V,R,
657,27,27,15,5,36,44,451,['n'],1,right,['1'],6,220,[-0.09185167],100,44,hard,plus,dotcolour,beta,,,41,19,V,R,
658,28,28,15,5,53,27,951,['c'],1,left,['1'],6,214,[0.13577395],100,53,easy,plus,dotcolour,beta,,,41,19,V,R,
659,29,29,15,5,27,53,700,['n'],1,right,['1'],6,203,[-0.11347091],100,53,easy,plus,dotcolour,beta,,,41,19,V,R,
660,30,30,15,5,27,53,684,['n'],1,right,['1'],6,209,[-0.06492247],99,53,easy,plus,dotcolour,beta,,,41,19,V,R,
661,31,31,15,5,53,27,1667,['c'],1,left,['1'],6,279,[0.05462717],98,53,easy,plus,dotcolour,beta,,,41,19,V,R,
662,32,32,15,5,44,36,750,['n'],0,left,['1'],6,271,[-0.08257884],99,44,hard,plus,dotcolour,beta,,,41,19,V,R,
663,33,33,15,5,36,44,866,['n'],1,right,['1'],6,211,[-0.09971976],100,44,hard,plus,dotcolour,beta,,,41,19,V,R,
664,34,34,15,5,53,27,667,['c'],1,left,['1'],6,241,[0.1665017],100,53,easy,plus,dotcolour,beta,,,41,19,V,R,
665,35,35,15,5,36,44,633,['n'],1,right,['1'],6,199,[-0.06068471],99,44,hard,plus,dotcolour,beta,,,41,19,V,R,
666,36,36,15,5,36,44,851,['n'],1,right,['1'],6,150,[-0.05053582],99,44,hard,plus,dotcolour,beta,,,41,19,V,R,
667,37,37,15,5,33,47,2534,['n'],1,right,['1'],6,228,[-0.03532102],97,47,medium,plus,dotcolour,beta,,,41,19,V,R,
668,38,38,15,5,27,53,450,['n'],1,right,['1'],6,162,[-0.0845365],100,53,easy,plus,dotcolour,beta,,,41,19,V,R,
669,39,39,15,5,47,33,718,['c'],1,left,['1'],6,176,[0.07350688],100,47,medium,plus,dotcolour,beta,,,41,19,V,R,
670,40,40,15,5,27,53,567,['n'],1,right,['1'],6,212,[-0.07421897],99,53,easy,plus,dotcolour,beta,,,41,19,V,R,
671,41,41,15,5,36,44,500,['n'],1,right,['1'],6,225,[-0.0960819],100,44,hard,plus,dotcolour,beta,,,41,19,V,R,
672,42,0,16,5,33,47,1050,['n'],1,right,['1'],6,151,[-0.05956223],100,47,medium,plus,dotcolour,beta,,,41,19,V,R,
673,43,1,16,5,44,36,683,['n'],0,left,['1'],6,135,[-0.0983738],100,44,hard,plus,dotcolour,beta,,,41,19,V,R,
674,44,2,16,5,47,33,483,['n'],0,left,['1'],6,239,[-0.17326614],100,47,medium,plus,dotcolour,beta,,,41,19,V,R,
675,45,3,16,5,44,36,567,['n'],0,left,['1'],6,113,[-0.07804478],100,44,hard,plus,dotcolour,beta,,,41,19,V,R,
676,46,4,16,5,36,44,433,['n'],1,right,['1'],6,140,[-0.07271622],100,44,hard,plus,dotcolour,beta,,,41,19,V,R,
677,47,5,16,5,27,53,417,['n'],1,right,['1'],6,158,[-0.13240171],100,53,easy,plus,dotcolour,beta,,,41,19,V,R,
678,48,6,16,5,53,27,1266,['c'],1,left,['1'],6,174,[0.1018368],100,53,easy,plus,dotcolour,beta,,,41,19,V,R,
679,49,7,16,5,53,27,767,['c'],1,left,['1'],6,210,[0.11124619],100,53,easy,plus,dotcolour,beta,,,41,19,V,R,
680,50,8,16,5,36,44,1017,['n'],1,right,['1'],6,137,[-0.08889044],100,44,hard,plus,dotcolour,beta,,,41,19,V,R,
681,51,9,16,5,36,44,950,['c'],0,right,['1'],6,176,[0.05380571],99,44,hard,plus,dotcolour,beta,,,41,19,V,R,
682,52,10,16,5,36,44,601,['n'],1,right,['1'],6,194,[-0.0107112],94,44,hard,plus,dotcolour,beta,,,41,19,V,R,
683,53,11,16,5,53,27,1016,['c'],1,left,['1'],6,194,[0.06529307],99,53,easy,plus,dotcolour,beta,,,41,19,V,R,
684,54,12,16,5,47,33,667,['n'],0,left,['1'],6,161,[-0.00709291],94,47,medium,plus,dotcolour,beta,,,41,19,V,R,
685,55,13,16,5,27,53,1083,['n'],1,right,['1'],6,168,[-0.11898545],100,53,easy,plus,dotcolour,beta,,,41,19,V,R,
686,56,14,16,5,53,27,600,['n'],0,left,['1'],6,236,[0.04009577],64,53,easy,plus,dotcolour,beta,,,41,19,V,R,
687,57,15,16,5,33,47,517,['n'],1,right,['1'],6,166,[-0.11791749],100,47,medium,plus,dotcolour,beta,,,41,19,V,R,
688,58,16,16,5,44,36,1001,['c'],1,left,['1'],6,201,[0.11724859],100,44,hard,plus,dotcolour,beta,,,41,19,V,R,
689,59,17,16,5,33,47,617,['n'],1,right,['1'],6,186,[-0.06368065],99,47,medium,plus,dotcolour,beta,,,41,19,V,R,
690,60,18,16,5,53,27,633,['n'],0,left,['1'],6,179,[-0.0599566],99,53,easy,plus,dotcolour,beta,,,41,19,V,R,
691,61,19,16,5,47,33,1000,['c'],1,left,['1'],6,229,[0.12131987],100,47,medium,plus,dotcolour,beta,,,41,19,V,R,
692,62,20,16,5,44,36,1484,['c'],1,left,['1'],6,193,[0.02397105],96,44,hard,plus,dotcolour,beta,,,41,19,V,R,
693,63,21,16,5,44,36,700,['c'],1,left,['1'],6,239,[0.08754826],99,44,hard,plus,dotcolour,beta,,,41,19,V,R,
694,64,22,16,5,27,53,667,['n'],1,right,['1'],6,179,[-0.17390319],100,53,easy,plus,dotcolour,beta,,,41,19,V,R,
695,65,23,16,5,53,27,767,['c'],1,left,['1'],6,239,[0.10550278],100,53,easy,plus,dotcolour,beta,,,41,19,V,R,
696,66,24,16,5,47,33,1350,['c'],1,left,['1'],6,152,[0.12100003],100,47,medium,plus,dotcolour,beta,,,41,19,V,R,
697,67,25,16,5,47,33,1150,['n'],0,left,['1'],6,285,[-0.04868945],97,47,medium,plus,dotcolour,beta,,,41,19,V,R,
698,68,26,16,5,33,47,602,['n'],1,right,['1'],6,203,[-0.05090658],99,47,medium,plus,dotcolour,beta,,,41,19,V,R,
699,69,27,16,5,44,36,650,['c'],1,left,['1'],6,203,[0.13439698],100,44,hard,plus,dotcolour,beta,,,41,19,V,R,
700,70,28,16,5,47,33,1000,['c'],1,left,['1'],6,196,[0.0928905],100,47,medium,plus,dotcolour,beta,,,41,19,V,R,
701,71,29,16,5,27,53,716,['n'],1,right,['1'],6,233,[-0.16920463],100,53,easy,plus,dotcolour,beta,,,41,19,V,R,
702,72,30,16,5,53,27,750,['c'],1,left,['1'],6,211,[0.16304098],100,53,easy,plus,dotcolour,beta,,,41,19,V,R,
703,73,31,16,5,27,53,533,['n'],1,right,['1'],6,190,[-0.09044811],100,53,easy,plus,dotcolour,beta,,,41,19,V,R,
704,74,32,16,5,44,36,565,['n'],0,left,['1'],6,281,[-0.0584826],98,44,hard,plus,dotcolour,beta,,,41,19,V,R,
705,75,33,16,5,33,47,584,['n'],1,right,['1'],6,184,[-0.13507551],100,47,medium,plus,dotcolour,beta,,,41,19,V,R,
706,76,34,16,5,33,47,500,['n'],1,right,['1'],6,342,[-0.0665886],98,47,medium,plus,dotcolour,beta,,,41,19,V,R,
707,77,35,16,5,27,53,450,['n'],1,right,['1'],6,127,[-0.09653676],100,53,easy,plus,dotcolour,beta,,,41,19,V,R,
708,78,36,16,5,36,44,1367,['n'],1,right,['1'],6,316,[-0.13164814],100,44,hard,plus,dotcolour,beta,,,41,19,V,R,
709,79,37,16,5,47,33,883,['c'],1,left,['1'],6,142,[0.10313807],100,47,medium,plus,dotcolour,beta,,,41,19,V,R,
710,80,38,16,5,27,53,567,['n'],1,right,['1'],6,218,[-0.09507213],100,53,easy,plus,dotcolour,beta,,,41,19,V,R,
711,81,39,16,5,33,47,500,['n'],1,right,['1'],6,135,[-0.09527744],100,47,medium,plus,dotcolour,beta,,,41,19,V,R,
712,82,40,16,5,36,44,550,['n'],1,right,['1'],6,173,[-0.09252492],100,44,hard,plus,dotcolour,beta,,,41,19,V,R,
713,83,41,16,5,36,44,517,['n'],1,right,['1'],6,170,[-0.07816882],100,44,hard,plus,dotcolour,beta,,,41,19,V,R,
714,84,0,17,5,47,33,734,['n'],0,left,['1'],6,167,[-0.056624],99,47,medium,plus,dotcolour,beta,,,41,19,V,R,
715,85,1,17,5,36,44,417,['n'],1,right,['1'],6,161,[-0.14140853],100,44,hard,plus,dotcolour,beta,,,41,19,V,R,
716,86,2,17,5,36,44,367,['n'],1,right,['1'],6,181,[-0.05100044],99,44,hard,plus,dotcolour,beta,,,41,19,V,R,
717,87,3,17,5,33,47,500,['n'],1,right,['1'],6,219,[-0.07152899],99,47,medium,plus,dotcolour,beta,,,41,19,V,R,
718,88,4,17,5,27,53,450,['n'],1,right,['1'],6,202,[-0.07919206],100,53,easy,plus,dotcolour,beta,,,41,19,V,R,
719,89,5,17,5,44,36,483,['n'],0,left,['1'],6,249,[-0.12077069],100,44,hard,plus,dotcolour,beta,,,41,19,V,R,
720,90,6,17,5,27,53,433,['n'],1,right,['1'],6,158,[-0.06354265],100,53,easy,plus,dotcolour,beta,,,41,19,V,R,
721,91,7,17,5,36,44,450,['n'],1,right,['1'],6,167,[-0.06364616],99,44,hard,plus,dotcolour,beta,,,41,19,V,R,
722,92,8,17,5,47,33,867,['n'],0,left,['1'],6,167,[-0.05042849],99,47,medium,plus,dotcolour,beta,,,41,19,V,R,
723,93,9,17,5,53,27,784,['n'],0,left,['1'],6,218,[-0.00019619],90,53,easy,plus,dotcolour,beta,,,41,19,V,R,
724,94,10,17,5,44,36,567,['n'],0,left,['1'],6,172,[-0.03291446],98,44,hard,plus,dotcolour,beta,,,41,19,V,R,
725,95,11,17,5,33,47,400,['n'],1,right,['1'],6,207,[-0.17596271],100,47,medium,plus,dotcolour,beta,,,41,19,V,R,
726,96,12,17,5,27,53,500,['n'],1,right,['1'],6,156,[-0.06714015],100,53,easy,plus,dotcolour,beta,,,41,19,V,R,
727,97,13,17,5,33,47,367,['n'],1,right,['1'],6,241,[-0.13282442],100,47,medium,plus,dotcolour,beta,,,41,19,V,R,
728,98,14,17,5,47,33,367,['n'],0,left,['1'],6,225,[-0.03454116],97,47,medium,plus,dotcolour,beta,,,41,19,V,R,
729,99,15,17,5,47,33,483,['c'],1,left,['1'],6,190,[0.06333734],99,47,medium,plus,dotcolour,beta,,,41,19,V,R,
730,100,16,17,5,53,27,900,['c'],1,left,['3'],4,163,[0.09952124],100,53,easy,plus,dotcolour,beta,,,41,19,V,R,
731,101,17,17,5,36,44,500,['n'],1,right,['1'],6,154,[-0.16104231],100,44,hard,plus,dotcolour,beta,,,41,19,V,R,
732,102,18,17,5,44,36,717,['n'],0,left,['1'],6,192,[-0.13225522],100,44,hard,plus,dotcolour,beta,,,41,19,V,R,
733,103,19,17,5,44,36,651,['n'],0,left,['1'],6,168,[-0.06854558],100,44,hard,plus,dotcolour,beta,,,41,19,V,R,
734,104,20,17,5,53,27,783,['c'],1,left,['1'],6,187,[0.10606461],100,53,easy,plus,dotcolour,beta,,,41,19,V,R,
735,105,21,17,5,33,47,567,['n'],1,right,['1'],6,215,[-0.05112723],98,47,medium,plus,dotcolour,beta,,,41,19,V,R,
736,106,22,17,5,36,44,466,['n'],1,right,['1'],6,205,[-0.07606331],99,44,hard,plus,dotcolour,beta,,,41,19,V,R,
737,107,23,17,5,44,36,467,['n'],0,left,['1'],6,188,[-0.0545322],99,44,hard,plus,dotcolour,beta,,,41,19,V,R,
738,108,24,17,5,53,27,766,['c'],1,left,['1'],6,223,[0.04738261],98,53,easy,plus,dotcolour,beta,,,41,19,V,R,
739,109,25,17,5,47,33,801,['c'],1,left,['1'],6,279,[0.02508013],94,47,medium,plus,dotcolour,beta,,,41,19,V,R,
740,110,26,17,5,47,33,717,['c'],1,left,['1'],6,248,[0.11507698],100,47,medium,plus,dotcolour,beta,,,41,19,V,R,
741,111,27,17,5,53,27,749,['c'],1,left,['1'],6,329,[0.1911408],100,53,easy,plus,dotcolour,beta,,,41,19,V,R,
742,112,28,17,5,47,33,566,['c'],1,left,['1'],6,303,[0.16236454],100,47,medium,plus,dotcolour,beta,,,41,19,V,R,
743,113,29,17,5,53,27,450,['n'],0,left,['1'],6,194,[0.03950995],66,53,easy,plus,dotcolour,beta,,,41,19,V,R,
744,114,30,17,5,33,47,518,['c'],0,right,['1'],6,215,[0.04570127],98,47,medium,plus,dotcolour,beta,,,41,19,V,R,
745,115,31,17,5,27,53,733,['n'],1,right,['1'],6,146,[-0.04859549],99,53,easy,plus,dotcolour,beta,,,41,19,V,R,
746,116,32,17,5,33,47,750,['n'],1,right,['1'],6,143,[-0.05083076],99,47,medium,plus,dotcolour,beta,,,41,19,V,R,
747,117,33,17,5,36,44,501,['n'],1,right,['1'],6,183,[-0.09016219],100,44,hard,plus,dotcolour,beta,,,41,19,V,R,
748,118,34,17,5,53,27,651,['n'],0,left,['1'],6,279,[-0.14094075],100,53,easy,plus,dotcolour,beta,,,41,19,V,R,
749,119,35,17,5,27,53,933,['n'],1,right,['1'],6,151,[-0.05416129],99,53,easy,plus,dotcolour,beta,,,41,19,V,R,
750,120,36,17,5,27,53,500,['n'],1,right,['1'],6,399,[-0.21909998],100,53,easy,plus,dotcolour,beta,,,41,19,V,R,
751,121,37,17,5,44,36,783,['c'],1,left,['1'],6,273,[0.07886361],99,44,hard,plus,dotcolour,beta,,,41,19,V,R,
752,122,38,17,5,44,36,1000,['c'],1,left,['1'],6,175,[0.08126419],100,44,hard,plus,dotcolour,beta,,,41,19,V,R,
753,123,39,17,5,36,44,667,['n'],1,right,['1'],6,150,[-0.06536457],100,44,hard,plus,dotcolour,beta,,,41,19,V,R,
754,124,40,17,5,27,53,633,['c'],0,right,['1'],6,168,[0.05400382],99,53,easy,plus,dotcolour,beta,,,41,19,V,R,
755,125,41,17,5,33,47,517,['n'],1,right,['1'],6,198,[-0.16885584],100,47,medium,plus,dotcolour,beta,,,41,19,V,R,
,,,,,,,,,,,,,,,,,,,,,1,"soms als ik de foute keuze had gemaakt, kwam er nog steeds op dat het juist was
",41,19,V,R,
,,,,,,,,,,,,,,,,,,,,,2,['f'],41,19,V,R,
,,,,,,,,,,,,,,,,,,,,,3,['f'],41,19,V,R,
,,,,,,,,,,,,,,,,,,,,,5,[],41,19,V,R,
