trial,withinphasetrial,withinblocktrial,block,phase,dotsLeft,dotsRight,rt,resp,cor,cresp,conf_press,cj,RTconf,ev,fb,diff,difflevel,condition,task,manip,questionID,questionResp,sub,age,gender,handedness,
0,0,0,0,0,47,33,2501,['n'],0,left,['3'],3,6264,[0.49094518],2,47,medium,minus,dotcolour,beta,,,23,19,V,R,
1,1,1,0,0,44,36,2066,['c'],1,left,['9'],5,3282,[0.42007003],97,44,hard,minus,dotcolour,beta,,,23,19,V,R,
2,2,2,0,0,36,44,2899,['n'],1,right,['8'],4,4219,[-0.63041252],99,44,hard,minus,dotcolour,beta,,,23,19,V,R,
3,3,3,0,0,36,44,3281,['n'],1,right,['9'],5,2254,[-0.24125651],90,44,hard,minus,dotcolour,beta,,,23,19,V,R,
4,4,4,0,0,53,27,1899,['c'],1,left,['2'],2,2193,[0.21232246],87,53,easy,minus,dotcolour,beta,,,23,19,V,R,
5,5,5,0,0,47,33,3149,['n'],0,left,['8'],4,4347,[0.31444259],4,47,medium,minus,dotcolour,beta,,,23,19,V,R,
6,6,6,0,0,53,27,1897,['c'],1,left,['9'],5,2257,[0.44599156],99,53,easy,minus,dotcolour,beta,,,23,19,V,R,
7,7,7,0,0,36,44,1433,['n'],1,right,['9'],5,2702,[-0.35869554],97,44,hard,minus,dotcolour,beta,,,23,19,V,R,
8,8,8,0,0,27,53,1499,['n'],1,right,['9'],5,1150,[-0.24825346],96,53,easy,minus,dotcolour,beta,,,23,19,V,R,
9,9,9,0,0,47,33,1284,['c'],1,left,['1'],1,3685,[0.64969025],100,47,medium,minus,dotcolour,beta,,,23,19,V,R,
10,10,10,0,0,44,36,6913,['n'],0,left,['3'],3,1549,[-0.02027535],38,44,hard,minus,dotcolour,beta,,,23,19,V,R,
11,11,11,0,0,53,27,1551,['c'],1,left,['9'],5,4074,[0.62188443],99,53,easy,minus,dotcolour,beta,,,23,19,V,R,
12,12,12,0,0,47,33,2967,['c'],1,left,['9'],5,6624,[0.95581325],100,47,medium,minus,dotcolour,beta,,,23,19,V,R,
13,13,13,0,0,53,27,998,['c'],1,left,['9'],5,758,[0.15958708],90,53,easy,minus,dotcolour,beta,,,23,19,V,R,
14,14,14,0,0,53,27,914,['c'],1,left,['9'],5,564,[0.11316837],80,53,easy,minus,dotcolour,beta,,,23,19,V,R,
15,15,15,0,0,33,47,1367,['c'],0,right,['8'],4,832,[0.04337709],44,47,medium,minus,dotcolour,beta,,,23,19,V,R,
16,16,16,0,0,53,27,1368,['c'],1,left,['8'],4,793,[0.1591326],89,53,easy,minus,dotcolour,beta,,,23,19,V,R,
17,17,17,0,0,47,33,1849,['n'],0,left,['9'],5,3088,[0.17771471],8,47,medium,minus,dotcolour,beta,,,23,19,V,R,
18,18,18,0,0,44,36,1150,['c'],1,left,['8'],4,1271,[0.07369639],57,44,hard,minus,dotcolour,beta,,,23,19,V,R,
19,19,19,0,0,36,44,1466,['n'],1,right,['9'],5,786,[-0.17277909],92,44,hard,minus,dotcolour,beta,,,23,19,V,R,
20,20,20,0,0,33,47,1515,['c'],0,right,['8'],4,1439,[-0.20733756],2,47,medium,minus,dotcolour,beta,,,23,19,V,R,
21,21,21,0,0,36,44,1600,['n'],1,right,['9'],5,622,[-0.11172807],78,44,hard,minus,dotcolour,beta,,,23,19,V,R,
22,22,22,0,0,27,53,2447,['n'],1,right,['8'],4,812,[-0.19912605],95,53,easy,minus,dotcolour,beta,,,23,19,V,R,
23,23,23,0,0,33,47,1133,['c'],0,right,['8'],4,831,[-0.03211047],15,47,medium,minus,dotcolour,beta,,,23,19,V,R,
24,24,24,0,0,44,36,863,['c'],1,left,['8'],4,476,[0.01070333],24,44,hard,minus,dotcolour,beta,,,23,19,V,R,
25,25,25,0,0,44,36,3017,['n'],0,left,['8'],4,1409,[-0.00746594],33,44,hard,minus,dotcolour,beta,,,23,19,V,R,
26,26,26,0,0,27,53,1517,['n'],1,right,['8'],4,789,[-0.18865973],94,53,easy,minus,dotcolour,beta,,,23,19,V,R,
27,27,27,0,0,36,44,1132,['n'],1,right,['8'],4,1729,[-0.18278104],85,44,hard,minus,dotcolour,beta,,,23,19,V,R,
28,28,28,0,0,44,36,863,['c'],1,left,['8'],4,875,[0.09093405],66,44,hard,minus,dotcolour,beta,,,23,19,V,R,
29,29,29,0,0,53,27,832,['c'],1,left,['9'],5,438,[0.16828588],96,53,easy,minus,dotcolour,beta,,,23,19,V,R,
30,30,30,0,0,33,47,866,['n'],1,right,['9'],5,747,[-0.20694152],96,47,medium,minus,dotcolour,beta,,,23,19,V,R,
31,31,31,0,0,27,53,1780,['n'],1,right,['3'],3,1335,[-0.2932083],98,53,easy,minus,dotcolour,beta,,,23,19,V,R,
32,32,32,0,0,27,53,1699,['n'],1,right,['9'],5,758,[-0.19371615],95,53,easy,minus,dotcolour,beta,,,23,19,V,R,
33,33,33,0,0,47,33,766,['c'],1,left,['0'],6,1171,[0.07858076],59,47,medium,minus,dotcolour,beta,,,23,19,V,R,
34,34,34,0,0,27,53,2200,['n'],1,right,['8'],4,2268,[-0.55775386],100,53,easy,minus,dotcolour,beta,,,23,19,V,R,
35,35,35,0,0,33,47,1400,['n'],1,right,['8'],4,1155,[-0.14227583],81,47,medium,minus,dotcolour,beta,,,23,19,V,R,
36,36,36,0,0,33,47,2767,['n'],1,right,['9'],5,1047,[-0.28672706],98,47,medium,minus,dotcolour,beta,,,23,19,V,R,
37,37,37,0,0,27,53,1200,['n'],1,right,['9'],5,781,[-0.30319735],99,53,easy,minus,dotcolour,beta,,,23,19,V,R,
38,38,38,0,0,47,33,1782,['n'],0,left,['3'],3,2583,[0.26927069],3,47,medium,minus,dotcolour,beta,,,23,19,V,R,
39,39,39,0,0,44,36,2064,['c'],1,left,['3'],3,414,[-0.03922563],7,44,hard,minus,dotcolour,beta,,,23,19,V,R,
40,40,40,0,0,36,44,1533,['c'],0,right,['9'],5,881,[0.12991466],81,44,hard,minus,dotcolour,beta,,,23,19,V,R,
41,41,41,0,0,33,47,2515,['n'],1,right,['3'],3,890,[-0.3302833],99,47,medium,minus,dotcolour,beta,,,23,19,V,R,
42,42,0,1,0,27,53,784,['n'],1,right,['9'],5,2191,[-0.19727569],85,53,easy,minus,dotcolour,beta,,,23,19,V,R,
43,43,1,1,0,44,36,1399,['c'],1,left,['8'],4,840,[0.12117554],78,44,hard,minus,dotcolour,beta,,,23,19,V,R,
44,44,2,1,0,44,36,816,['c'],1,left,['8'],4,390,[0.08714247],71,44,hard,minus,dotcolour,beta,,,23,19,V,R,
45,45,3,1,0,36,44,1417,['c'],0,right,['8'],4,343,[-0.0014891],15,44,hard,minus,dotcolour,beta,,,23,19,V,R,
46,46,4,1,0,33,47,1031,['n'],1,right,['8'],4,705,[-0.00578116],26,47,medium,minus,dotcolour,beta,,,23,19,V,R,
47,47,5,1,0,33,47,1981,['c'],0,right,['9'],5,694,[-0.00199005],22,47,medium,minus,dotcolour,beta,,,23,19,V,R,
48,48,6,1,0,27,53,716,['n'],1,right,['9'],5,431,[-0.14819694],93,53,easy,minus,dotcolour,beta,,,23,19,V,R,
49,49,7,1,0,27,53,817,['n'],1,right,['9'],5,278,[-0.17365507],98,53,easy,minus,dotcolour,beta,,,23,19,V,R,
50,50,8,1,0,33,47,1967,['c'],0,right,['8'],4,878,[0.02202359],34,47,medium,minus,dotcolour,beta,,,23,19,V,R,
51,51,9,1,0,33,47,1250,['c'],0,right,['9'],5,434,[0.12224117],86,47,medium,minus,dotcolour,beta,,,23,19,V,R,
52,52,10,1,0,47,33,864,['c'],1,left,['0'],6,479,[0.03584057],37,47,medium,minus,dotcolour,beta,,,23,19,V,R,
53,53,11,1,0,47,33,713,['c'],1,left,['0'],6,304,[0.15265319],96,47,medium,minus,dotcolour,beta,,,23,19,V,R,
54,54,12,1,0,27,53,883,['n'],1,right,['9'],5,514,[-0.15473183],92,53,easy,minus,dotcolour,beta,,,23,19,V,R,
55,55,13,1,0,44,36,899,['c'],1,left,['0'],6,338,[0.13674009],93,44,hard,minus,dotcolour,beta,,,23,19,V,R,
56,56,14,1,0,33,47,1866,['c'],0,right,['0'],6,371,[0.00899666],20,47,medium,minus,dotcolour,beta,,,23,19,V,R,
57,57,15,1,0,53,27,633,['c'],1,left,['0'],6,309,[0.08805597],74,53,easy,minus,dotcolour,beta,,,23,19,V,R,
58,58,16,1,0,36,44,999,['n'],1,right,['9'],5,450,[-0.07220381],61,44,hard,minus,dotcolour,beta,,,23,19,V,R,
59,59,17,1,0,53,27,1116,['c'],1,left,['0'],6,1108,[0.28469867],98,53,easy,minus,dotcolour,beta,,,23,19,V,R,
60,60,18,1,0,53,27,817,['c'],1,left,['0'],6,256,[0.15589239],97,53,easy,minus,dotcolour,beta,,,23,19,V,R,
61,61,19,1,0,47,33,751,['c'],1,left,['0'],6,225,[0.10444706],86,47,medium,minus,dotcolour,beta,,,23,19,V,R,
62,62,20,1,0,36,44,1198,['c'],0,right,['9'],5,433,[-0.02202067],11,44,hard,minus,dotcolour,beta,,,23,19,V,R,
63,63,21,1,0,33,47,1583,['c'],0,right,['9'],5,321,[0.09522221],78,47,medium,minus,dotcolour,beta,,,23,19,V,R,
64,64,22,1,0,36,44,1333,['c'],0,right,['9'],5,376,[0.04829612],45,44,hard,minus,dotcolour,beta,,,23,19,V,R,
65,65,23,1,0,53,27,783,['c'],1,left,['0'],6,298,[0.1625448],97,53,easy,minus,dotcolour,beta,,,23,19,V,R,
66,66,24,1,0,47,33,947,['c'],1,left,['0'],6,210,[0.11776934],92,47,medium,minus,dotcolour,beta,,,23,19,V,R,
67,67,25,1,0,53,27,564,['c'],1,left,['0'],6,259,[0.12526431],92,53,easy,minus,dotcolour,beta,,,23,19,V,R,
68,68,26,1,0,27,53,1448,['n'],1,right,['9'],5,296,[-0.09236072],77,53,easy,minus,dotcolour,beta,,,23,19,V,R,
69,69,27,1,0,36,44,1497,['n'],1,right,['8'],4,402,[-0.0393255],39,44,hard,minus,dotcolour,beta,,,23,19,V,R,
70,70,28,1,0,44,36,1100,['c'],1,left,['9'],5,415,[0.12887093],89,44,hard,minus,dotcolour,beta,,,23,19,V,R,
71,71,29,1,0,47,33,683,['c'],1,left,['9'],5,220,[0.09738509],83,47,medium,minus,dotcolour,beta,,,23,19,V,R,
72,72,30,1,0,47,33,950,['c'],1,left,['9'],5,511,[0.06025619],53,47,medium,minus,dotcolour,beta,,,23,19,V,R,
73,73,31,1,0,36,44,1114,['c'],0,right,['9'],5,399,[-0.06356234],3,44,hard,minus,dotcolour,beta,,,23,19,V,R,
74,74,32,1,0,36,44,834,['n'],1,right,['8'],4,335,[-0.15011444],95,44,hard,minus,dotcolour,beta,,,23,19,V,R,
75,75,33,1,0,53,27,700,['c'],1,left,['9'],5,319,[0.05615646],50,53,easy,minus,dotcolour,beta,,,23,19,V,R,
76,76,34,1,0,33,47,899,['n'],1,right,['8'],4,432,[-0.02360562],29,47,medium,minus,dotcolour,beta,,,23,19,V,R,
77,77,35,1,0,44,36,1633,['n'],0,left,['9'],5,502,[-0.03073237],35,44,hard,minus,dotcolour,beta,,,23,19,V,R,
78,78,36,1,0,44,36,2967,['n'],0,left,['3'],3,1461,[-0.12032547],72,44,hard,minus,dotcolour,beta,,,23,19,V,R,
79,79,37,1,0,53,27,1434,['c'],1,left,['0'],6,873,[0.26764483],98,53,easy,minus,dotcolour,beta,,,23,19,V,R,
80,80,38,1,0,27,53,933,['n'],1,right,['0'],6,354,[-0.1721032],97,53,easy,minus,dotcolour,beta,,,23,19,V,R,
81,81,39,1,0,27,53,784,['n'],1,right,['0'],6,293,[-0.02103221],24,53,easy,minus,dotcolour,beta,,,23,19,V,R,
82,82,40,1,0,44,36,1181,['c'],1,left,['0'],6,283,[0.13232361],93,44,hard,minus,dotcolour,beta,,,23,19,V,R,
83,83,41,1,0,47,33,1115,['c'],1,left,['0'],6,220,[0.08330897],74,47,medium,minus,dotcolour,beta,,,23,19,V,R,
84,84,0,2,0,27,53,817,['n'],1,right,['0'],6,322,[-0.13514649],93,53,easy,minus,dotcolour,beta,,,23,19,V,R,
85,85,1,2,0,33,47,1117,['n'],1,right,['9'],5,721,[-0.08639808],66,47,medium,minus,dotcolour,beta,,,23,19,V,R,
86,86,2,2,0,33,47,1233,['n'],1,right,['9'],5,740,[-0.26083383],99,47,medium,minus,dotcolour,beta,,,23,19,V,R,
87,87,3,2,0,53,27,917,['c'],1,left,['9'],5,450,[0.06374748],55,53,easy,minus,dotcolour,beta,,,23,19,V,R,
88,88,4,2,0,33,47,1267,['n'],1,right,['8'],4,631,[-0.10241005],74,47,medium,minus,dotcolour,beta,,,23,19,V,R,
89,89,5,2,0,44,36,966,['c'],1,left,['9'],5,743,[-0.05534341],9,44,hard,minus,dotcolour,beta,,,23,19,V,R,
90,90,6,2,0,36,44,1017,['c'],0,right,['8'],4,681,[0.05703705],51,44,hard,minus,dotcolour,beta,,,23,19,V,R,
91,91,7,2,0,47,33,1200,['c'],1,left,['9'],5,519,[0.19797968],97,47,medium,minus,dotcolour,beta,,,23,19,V,R,
92,92,8,2,0,47,33,1015,['c'],1,left,['9'],5,323,[0.13544433],93,47,medium,minus,dotcolour,beta,,,23,19,V,R,
93,93,9,2,0,27,53,1217,['n'],1,right,['0'],6,631,[-0.19258402],96,53,easy,minus,dotcolour,beta,,,23,19,V,R,
94,94,10,2,0,27,53,981,['c'],0,right,['8'],4,1247,[-0.16395774],3,53,easy,minus,dotcolour,beta,,,23,19,V,R,
95,95,11,2,0,44,36,798,['c'],1,left,['9'],5,446,[0.11715263],84,44,hard,minus,dotcolour,beta,,,23,19,V,R,
96,96,12,2,0,53,27,914,['c'],1,left,['9'],5,376,[0.10321591],80,53,easy,minus,dotcolour,beta,,,23,19,V,R,
97,97,13,2,0,47,33,1098,['c'],1,left,['8'],4,247,[0.21737076],100,47,medium,minus,dotcolour,beta,,,23,19,V,R,
98,98,14,2,0,27,53,1150,['n'],1,right,['9'],5,391,[-0.11685669],85,53,easy,minus,dotcolour,beta,,,23,19,V,R,
99,99,15,2,0,53,27,1416,['c'],1,left,['9'],5,304,[0.10067968],81,53,easy,minus,dotcolour,beta,,,23,19,V,R,
100,100,16,2,0,44,36,867,['c'],1,left,['8'],4,251,[0.09432123],80,44,hard,minus,dotcolour,beta,,,23,19,V,R,
101,101,17,2,0,47,33,816,['c'],1,left,['8'],4,457,[0.2111522],98,47,medium,minus,dotcolour,beta,,,23,19,V,R,
102,102,18,2,0,53,27,833,['c'],1,left,['8'],4,431,[0.17207858],96,53,easy,minus,dotcolour,beta,,,23,19,V,R,
103,103,19,2,0,53,27,746,['c'],1,left,['9'],5,385,[-0.0312818],7,53,easy,minus,dotcolour,beta,,,23,19,V,R,
104,104,20,2,0,36,44,1081,['c'],0,right,['3'],3,2232,[0.09514665],62,44,hard,minus,dotcolour,beta,,,23,19,V,R,
105,105,21,2,0,44,36,1466,['c'],1,left,['3'],3,700,[0.23829065],98,44,hard,minus,dotcolour,beta,,,23,19,V,R,
106,106,22,2,0,47,33,3197,['c'],1,left,['8'],4,417,[0.07548769],64,47,medium,minus,dotcolour,beta,,,23,19,V,R,
107,107,23,2,0,33,47,1015,['n'],1,right,['8'],4,425,[-0.06256473],55,47,medium,minus,dotcolour,beta,,,23,19,V,R,
108,108,24,2,0,36,44,1250,['n'],1,right,['8'],4,1023,[-0.1706697],89,44,hard,minus,dotcolour,beta,,,23,19,V,R,
109,109,25,2,0,36,44,1981,['c'],0,right,['1'],1,1888,[0.11963518],70,44,hard,minus,dotcolour,beta,,,23,19,V,R,
110,110,26,2,0,36,44,2066,['n'],1,right,['3'],3,1273,[-0.35738185],99,44,hard,minus,dotcolour,beta,,,23,19,V,R,
111,111,27,2,0,27,53,1450,['n'],1,right,['0'],6,493,[-0.13560146],89,53,easy,minus,dotcolour,beta,,,23,19,V,R,
112,112,28,2,0,44,36,1567,['c'],1,left,['8'],4,604,[0.12499438],83,44,hard,minus,dotcolour,beta,,,23,19,V,R,
113,113,29,2,0,36,44,1499,['n'],1,right,['8'],4,689,[-0.1234655],81,44,hard,minus,dotcolour,beta,,,23,19,V,R,
114,114,30,2,0,27,53,1982,['n'],1,right,['8'],4,1071,[-0.03724699],42,53,easy,minus,dotcolour,beta,,,23,19,V,R,
115,115,31,2,0,53,27,849,['c'],1,left,['9'],5,803,[0.2131473],96,53,easy,minus,dotcolour,beta,,,23,19,V,R,
116,116,32,2,0,33,47,2150,['n'],1,right,['8'],4,469,[-0.11371019],82,47,medium,minus,dotcolour,beta,,,23,19,V,R,
117,117,33,2,0,47,33,2000,['c'],1,left,['9'],5,764,[0.11172915],76,47,medium,minus,dotcolour,beta,,,23,19,V,R,
118,118,34,2,0,36,44,1266,['n'],1,right,['9'],5,235,[-0.04718996],42,44,hard,minus,dotcolour,beta,,,23,19,V,R,
119,119,35,2,0,44,36,1333,['c'],1,left,['9'],5,238,[0.12931335],94,44,hard,minus,dotcolour,beta,,,23,19,V,R,
120,120,36,2,0,33,47,849,['n'],1,right,['9'],5,219,[-0.10409163],87,47,medium,minus,dotcolour,beta,,,23,19,V,R,
121,121,37,2,0,33,47,1381,['n'],1,right,['9'],5,277,[-0.09662605],80,47,medium,minus,dotcolour,beta,,,23,19,V,R,
122,122,38,2,0,44,36,2384,['c'],1,left,['8'],4,475,[0.19234066],97,44,hard,minus,dotcolour,beta,,,23,19,V,R,
123,123,39,2,0,53,27,899,['c'],1,left,['0'],6,309,[0.0482737],44,53,easy,minus,dotcolour,beta,,,23,19,V,R,
124,124,40,2,0,27,53,982,['n'],1,right,['9'],5,619,[-0.27912714],99,53,easy,minus,dotcolour,beta,,,23,19,V,R,
125,125,41,2,0,47,33,1363,['c'],1,left,['8'],4,476,[-0.0054555],17,47,medium,minus,dotcolour,beta,,,23,19,V,R,
126,0,0,3,1,47,33,1117,['c'],1,left,['9'],5,281,[0.09018644],99,47,medium,plus,dotcolour,beta,,,23,19,V,R,
127,1,1,3,1,36,44,866,['n'],1,right,['9'],5,269,[-0.10906191],100,44,hard,plus,dotcolour,beta,,,23,19,V,R,
128,2,2,3,1,44,36,1017,['c'],1,left,['9'],5,419,[0.09306913],98,44,hard,plus,dotcolour,beta,,,23,19,V,R,
129,3,3,3,1,33,47,884,['n'],1,right,['9'],5,287,[-0.04755201],97,47,medium,plus,dotcolour,beta,,,23,19,V,R,
130,4,4,3,1,47,33,981,['c'],1,left,['0'],6,221,[-0.03790507],66,47,medium,plus,dotcolour,beta,,,23,19,V,R,
131,5,5,3,1,44,36,883,['c'],1,left,['0'],6,202,[0.04887686],98,44,hard,plus,dotcolour,beta,,,23,19,V,R,
132,6,6,3,1,33,47,847,['n'],1,right,['8'],4,530,[-0.10342638],98,47,medium,plus,dotcolour,beta,,,23,19,V,R,
133,7,7,3,1,36,44,1014,['n'],1,right,['9'],5,261,[0.01811817],79,44,hard,plus,dotcolour,beta,,,23,19,V,R,
134,8,8,3,1,44,36,1433,['c'],1,left,['8'],4,1075,[0.20440587],99,44,hard,plus,dotcolour,beta,,,23,19,V,R,
135,9,9,3,1,53,27,1167,['c'],1,left,['8'],4,370,[0.07480677],98,53,easy,plus,dotcolour,beta,,,23,19,V,R,
136,10,10,3,1,36,44,1133,['n'],1,right,['9'],5,422,[-0.10108483],99,44,hard,plus,dotcolour,beta,,,23,19,V,R,
137,11,11,3,1,36,44,1433,['n'],1,right,['9'],5,1685,[-0.26759408],99,44,hard,plus,dotcolour,beta,,,23,19,V,R,
138,12,12,3,1,36,44,2215,['n'],1,right,['9'],5,778,[-0.09806454],96,44,hard,plus,dotcolour,beta,,,23,19,V,R,
139,13,13,3,1,53,27,2400,['c'],1,left,['9'],5,612,[0.09100292],97,53,easy,plus,dotcolour,beta,,,23,19,V,R,
140,14,14,3,1,53,27,1000,['c'],1,left,['9'],5,197,[0.00268543],91,53,easy,plus,dotcolour,beta,,,23,19,V,R,
141,15,15,3,1,36,44,816,['n'],1,right,['8'],4,581,[-0.06058689],94,44,hard,plus,dotcolour,beta,,,23,19,V,R,
142,16,16,3,1,53,27,2483,['n'],0,left,['3'],3,1740,[0.17093513],17,53,easy,plus,dotcolour,beta,,,23,19,V,R,
143,17,17,3,1,47,33,1031,['c'],1,left,['9'],5,326,[0.11558083],100,47,medium,plus,dotcolour,beta,,,23,19,V,R,
144,18,18,3,1,27,53,947,['n'],1,right,['9'],5,236,[-0.14495878],100,53,easy,plus,dotcolour,beta,,,23,19,V,R,
145,19,19,3,1,33,47,3199,['n'],1,right,['8'],4,427,[-0.05795919],96,47,medium,plus,dotcolour,beta,,,23,19,V,R,
146,20,20,3,1,33,47,750,['n'],1,right,['8'],4,294,[-0.05566526],98,47,medium,plus,dotcolour,beta,,,23,19,V,R,
147,21,21,3,1,27,53,1266,['n'],1,right,['9'],5,224,[-0.05648105],99,53,easy,plus,dotcolour,beta,,,23,19,V,R,
148,22,22,3,1,47,33,996,['c'],1,left,['9'],5,360,[0.18524126],100,47,medium,plus,dotcolour,beta,,,23,19,V,R,
149,23,23,3,1,33,47,850,['n'],1,right,['9'],5,240,[-0.06331206],99,47,medium,plus,dotcolour,beta,,,23,19,V,R,
150,24,24,3,1,44,36,1216,['n'],0,left,['9'],5,239,[-0.15254777],100,44,hard,plus,dotcolour,beta,,,23,19,V,R,
151,25,25,3,1,44,36,1416,['n'],0,left,['9'],5,262,[-0.06593792],99,44,hard,plus,dotcolour,beta,,,23,19,V,R,
152,26,26,3,1,27,53,766,['n'],1,right,['9'],5,238,[-0.14323962],100,53,easy,plus,dotcolour,beta,,,23,19,V,R,
153,27,27,3,1,53,27,1032,['c'],1,left,['9'],5,228,[0.15048099],100,53,easy,plus,dotcolour,beta,,,23,19,V,R,
154,28,28,3,1,33,47,900,['n'],1,right,['9'],5,224,[-0.1469792],100,47,medium,plus,dotcolour,beta,,,23,19,V,R,
155,29,29,3,1,27,53,1466,['n'],1,right,['9'],5,310,[-0.06163776],98,53,easy,plus,dotcolour,beta,,,23,19,V,R,
156,30,30,3,1,33,47,1799,['n'],1,right,['9'],5,410,[-0.176233],100,47,medium,plus,dotcolour,beta,,,23,19,V,R,
157,31,31,3,1,36,44,800,['c'],0,right,['9'],5,171,[0.01757851],96,44,hard,plus,dotcolour,beta,,,23,19,V,R,
158,32,32,3,1,53,27,1151,['c'],1,left,['9'],5,176,[0.0643456],99,53,easy,plus,dotcolour,beta,,,23,19,V,R,
159,33,33,3,1,47,33,815,['c'],1,left,['9'],5,169,[0.01027432],95,47,medium,plus,dotcolour,beta,,,23,19,V,R,
160,34,34,3,1,47,33,998,['c'],1,left,['9'],5,172,[0.12612521],100,47,medium,plus,dotcolour,beta,,,23,19,V,R,
161,35,35,3,1,27,53,667,['n'],1,right,['0'],6,292,[-0.08997877],99,53,easy,plus,dotcolour,beta,,,23,19,V,R,
162,36,36,3,1,27,53,998,['c'],0,right,['0'],6,233,[0.06540574],99,53,easy,plus,dotcolour,beta,,,23,19,V,R,
163,37,37,3,1,44,36,1666,['c'],1,left,['9'],5,206,[0.14615185],100,44,hard,plus,dotcolour,beta,,,23,19,V,R,
164,38,38,3,1,27,53,898,['n'],1,right,['9'],5,211,[-0.13474279],100,53,easy,plus,dotcolour,beta,,,23,19,V,R,
165,39,39,3,1,47,33,748,['c'],1,left,['9'],5,214,[0.15552496],100,47,medium,plus,dotcolour,beta,,,23,19,V,R,
166,40,40,3,1,44,36,748,['n'],0,left,['9'],5,248,[-0.13906157],100,44,hard,plus,dotcolour,beta,,,23,19,V,R,
167,41,41,3,1,53,27,699,['c'],1,left,['9'],5,172,[0.11244186],100,53,easy,plus,dotcolour,beta,,,23,19,V,R,
168,42,0,4,1,44,36,984,['c'],1,left,['9'],5,166,[0.02343685],97,44,hard,plus,dotcolour,beta,,,23,19,V,R,
169,43,1,4,1,47,33,767,['c'],1,left,['9'],5,210,[0.11765412],100,47,medium,plus,dotcolour,beta,,,23,19,V,R,
170,44,2,4,1,36,44,748,['n'],1,right,['9'],5,236,[-0.09503903],100,44,hard,plus,dotcolour,beta,,,23,19,V,R,
171,45,3,4,1,33,47,2534,['c'],0,right,['8'],4,327,[0.06624868],98,47,medium,plus,dotcolour,beta,,,23,19,V,R,
172,46,4,4,1,53,27,1116,['c'],1,left,['9'],5,470,[0.06352377],96,53,easy,plus,dotcolour,beta,,,23,19,V,R,
173,47,5,4,1,53,27,1849,['c'],1,left,['8'],4,546,[0.12110592],99,53,easy,plus,dotcolour,beta,,,23,19,V,R,
174,48,6,4,1,53,27,950,['c'],1,left,['8'],4,192,[0.06885289],99,53,easy,plus,dotcolour,beta,,,23,19,V,R,
175,49,7,4,1,44,36,1565,['n'],0,left,['9'],5,450,[0.06102762],46,44,hard,plus,dotcolour,beta,,,23,19,V,R,
176,50,8,4,1,27,53,1616,['n'],1,right,['9'],5,233,[-0.09311816],100,53,easy,plus,dotcolour,beta,,,23,19,V,R,
177,51,9,4,1,36,44,1167,['c'],0,right,['9'],5,234,[0.0066396],91,44,hard,plus,dotcolour,beta,,,23,19,V,R,
178,52,10,4,1,44,36,817,['c'],1,left,['8'],4,266,[0.03783512],96,44,hard,plus,dotcolour,beta,,,23,19,V,R,
179,53,11,4,1,44,36,617,['c'],1,left,['8'],4,184,[0.08543138],100,44,hard,plus,dotcolour,beta,,,23,19,V,R,
180,54,12,4,1,47,33,2050,['n'],0,left,['9'],5,552,[0.06333155],45,47,medium,plus,dotcolour,beta,,,23,19,V,R,
181,55,13,4,1,27,53,783,['n'],1,right,['8'],4,292,[-0.03167205],95,53,easy,plus,dotcolour,beta,,,23,19,V,R,
182,56,14,4,1,27,53,465,['n'],1,right,['8'],4,334,[-0.21515073],100,53,easy,plus,dotcolour,beta,,,23,19,V,R,
183,57,15,4,1,44,36,1164,['n'],0,left,['9'],5,228,[-0.02592531],96,44,hard,plus,dotcolour,beta,,,23,19,V,R,
184,58,16,4,1,44,36,1547,['n'],0,left,['8'],4,502,[-0.10684292],98,44,hard,plus,dotcolour,beta,,,23,19,V,R,
185,59,17,4,1,47,33,1249,['c'],1,left,['9'],5,489,[0.10396791],98,47,medium,plus,dotcolour,beta,,,23,19,V,R,
186,60,18,4,1,36,44,4033,['n'],1,right,['8'],4,421,[-0.12874257],99,44,hard,plus,dotcolour,beta,,,23,19,V,R,
187,61,19,4,1,33,47,1067,['n'],1,right,['8'],4,339,[-0.11292959],99,47,medium,plus,dotcolour,beta,,,23,19,V,R,
188,62,20,4,1,47,33,884,['c'],1,left,['9'],5,451,[0.01100633],86,47,medium,plus,dotcolour,beta,,,23,19,V,R,
189,63,21,4,1,33,47,700,['n'],1,right,['9'],5,174,[-0.14848621],100,47,medium,plus,dotcolour,beta,,,23,19,V,R,
190,64,22,4,1,44,36,1431,['c'],1,left,['8'],4,255,[0.01684423],93,44,hard,plus,dotcolour,beta,,,23,19,V,R,
191,65,23,4,1,36,44,950,['n'],1,right,['9'],5,272,[-0.02688612],95,44,hard,plus,dotcolour,beta,,,23,19,V,R,
192,66,24,4,1,33,47,613,['n'],1,right,['9'],5,254,[-0.04382927],97,47,medium,plus,dotcolour,beta,,,23,19,V,R,
193,67,25,4,1,53,27,749,['c'],1,left,['0'],6,344,[0.21292812],100,53,easy,plus,dotcolour,beta,,,23,19,V,R,
194,68,26,4,1,27,53,883,['n'],1,right,['0'],6,216,[-0.13577875],100,53,easy,plus,dotcolour,beta,,,23,19,V,R,
195,69,27,4,1,33,47,883,['n'],1,right,['9'],5,301,[-0.1226077],100,47,medium,plus,dotcolour,beta,,,23,19,V,R,
196,70,28,4,1,53,27,949,['c'],1,left,['9'],5,1452,[0.53056189],100,53,easy,plus,dotcolour,beta,,,23,19,V,R,
197,71,29,4,1,27,53,665,['n'],1,right,['0'],6,304,[-0.16148717],100,53,easy,plus,dotcolour,beta,,,23,19,V,R,
198,72,30,4,1,47,33,1167,['c'],1,left,['9'],5,326,[0.20690935],100,47,medium,plus,dotcolour,beta,,,23,19,V,R,
199,73,31,4,1,33,47,817,['c'],0,right,['9'],5,194,[0.01934326],96,47,medium,plus,dotcolour,beta,,,23,19,V,R,
200,74,32,4,1,53,27,681,['c'],1,left,['0'],6,296,[0.17355],100,53,easy,plus,dotcolour,beta,,,23,19,V,R,
201,75,33,4,1,47,33,650,['c'],1,left,['0'],6,203,[0.12546076],100,47,medium,plus,dotcolour,beta,,,23,19,V,R,
202,76,34,4,1,27,53,1132,['n'],1,right,['9'],5,535,[-0.16755669],100,53,easy,plus,dotcolour,beta,,,23,19,V,R,
203,77,35,4,1,27,53,1099,['n'],1,right,['9'],5,271,[-0.05866069],98,53,easy,plus,dotcolour,beta,,,23,19,V,R,
204,78,36,4,1,53,27,782,['c'],1,left,['0'],6,254,[0.12789054],100,53,easy,plus,dotcolour,beta,,,23,19,V,R,
205,79,37,4,1,33,47,850,['n'],1,right,['9'],5,396,[-0.15876246],100,47,medium,plus,dotcolour,beta,,,23,19,V,R,
206,80,38,4,1,36,44,1100,['c'],0,right,['8'],4,393,[0.12572469],99,44,hard,plus,dotcolour,beta,,,23,19,V,R,
207,81,39,4,1,36,44,1066,['n'],1,right,['9'],5,448,[-0.11634583],99,44,hard,plus,dotcolour,beta,,,23,19,V,R,
208,82,40,4,1,47,33,850,['n'],0,left,['9'],5,245,[-0.00198986],89,47,medium,plus,dotcolour,beta,,,23,19,V,R,
209,83,41,4,1,36,44,983,['c'],0,right,['9'],5,229,[0.00840709],92,44,hard,plus,dotcolour,beta,,,23,19,V,R,
210,84,0,5,1,33,47,1684,['n'],1,right,['9'],5,622,[-0.06749101],94,47,medium,plus,dotcolour,beta,,,23,19,V,R,
211,85,1,5,1,27,53,600,['n'],1,right,['9'],5,245,[-0.17378946],100,53,easy,plus,dotcolour,beta,,,23,19,V,R,
212,86,2,5,1,33,47,546,['n'],1,right,['9'],5,207,[-0.12787725],100,47,medium,plus,dotcolour,beta,,,23,19,V,R,
213,87,3,5,1,36,44,799,['n'],1,right,['9'],5,240,[-0.08226235],99,44,hard,plus,dotcolour,beta,,,23,19,V,R,
214,88,4,5,1,27,53,533,['n'],1,right,['9'],5,225,[-0.09953107],100,53,easy,plus,dotcolour,beta,,,23,19,V,R,
215,89,5,5,1,47,33,767,['c'],1,left,['9'],5,235,[0.07105096],99,47,medium,plus,dotcolour,beta,,,23,19,V,R,
216,90,6,5,1,33,47,1484,['n'],1,right,['8'],4,327,[-0.06005772],97,47,medium,plus,dotcolour,beta,,,23,19,V,R,
217,91,7,5,1,27,53,967,['n'],1,right,['9'],5,372,[-0.11664124],99,53,easy,plus,dotcolour,beta,,,23,19,V,R,
218,92,8,5,1,44,36,866,['c'],1,left,['9'],5,612,[0.1129596],98,44,hard,plus,dotcolour,beta,,,23,19,V,R,
219,93,9,5,1,53,27,667,['c'],1,left,['9'],5,201,[0.12214554],100,53,easy,plus,dotcolour,beta,,,23,19,V,R,
220,94,10,5,1,27,53,716,['n'],1,right,['9'],5,246,[-0.11662394],100,53,easy,plus,dotcolour,beta,,,23,19,V,R,
221,95,11,5,1,47,33,1017,['c'],1,left,['0'],6,181,[0.05755459],99,47,medium,plus,dotcolour,beta,,,23,19,V,R,
222,96,12,5,1,27,53,699,['n'],1,right,['9'],5,387,[-0.07709441],98,53,easy,plus,dotcolour,beta,,,23,19,V,R,
223,97,13,5,1,36,44,1382,['n'],1,right,['8'],4,565,[-0.13366556],99,44,hard,plus,dotcolour,beta,,,23,19,V,R,
224,98,14,5,1,27,53,666,['n'],1,right,['9'],5,276,[-0.08659569],99,53,easy,plus,dotcolour,beta,,,23,19,V,R,
225,99,15,5,1,53,27,882,['c'],1,left,['0'],6,383,[0.08879079],99,53,easy,plus,dotcolour,beta,,,23,19,V,R,
226,100,16,5,1,47,33,499,['c'],1,left,['9'],5,260,[0.08036641],99,47,medium,plus,dotcolour,beta,,,23,19,V,R,
227,101,17,5,1,36,44,783,['n'],1,right,['9'],5,243,[-0.08366053],99,44,hard,plus,dotcolour,beta,,,23,19,V,R,
228,102,18,5,1,44,36,850,['c'],1,left,['8'],4,457,[0.095368],98,44,hard,plus,dotcolour,beta,,,23,19,V,R,
229,103,19,5,1,44,36,1216,['c'],1,left,['9'],5,351,[0.05335136],96,44,hard,plus,dotcolour,beta,,,23,19,V,R,
230,104,20,5,1,27,53,816,['n'],1,right,['9'],5,281,[-0.14883633],100,53,easy,plus,dotcolour,beta,,,23,19,V,R,
231,105,21,5,1,53,27,767,['c'],1,left,['0'],6,225,[0.15883793],100,53,easy,plus,dotcolour,beta,,,23,19,V,R,
232,106,22,5,1,53,27,683,['c'],1,left,['0'],6,413,[0.21503639],100,53,easy,plus,dotcolour,beta,,,23,19,V,R,
233,107,23,5,1,44,36,550,['c'],1,left,['9'],5,200,[0.08664826],100,44,hard,plus,dotcolour,beta,,,23,19,V,R,
234,108,24,5,1,33,47,734,['n'],1,right,['9'],5,268,[-0.15809087],100,47,medium,plus,dotcolour,beta,,,23,19,V,R,
235,109,25,5,1,44,36,733,['c'],1,left,['8'],4,373,[0.10788721],99,44,hard,plus,dotcolour,beta,,,23,19,V,R,
236,110,26,5,1,53,27,964,['c'],1,left,['9'],5,209,[0.09379754],100,53,easy,plus,dotcolour,beta,,,23,19,V,R,
237,111,27,5,1,47,33,949,['c'],1,left,['9'],5,203,[0.02292771],96,47,medium,plus,dotcolour,beta,,,23,19,V,R,
238,112,28,5,1,36,44,1566,['n'],1,right,['8'],4,374,[-0.12417548],99,44,hard,plus,dotcolour,beta,,,23,19,V,R,
239,113,29,5,1,44,36,1164,['n'],0,left,['9'],5,361,[0.00072611],84,44,hard,plus,dotcolour,beta,,,23,19,V,R,
240,114,30,5,1,44,36,864,['n'],0,left,['9'],5,297,[-0.04104055],96,44,hard,plus,dotcolour,beta,,,23,19,V,R,
241,115,31,5,1,36,44,1400,['c'],0,right,['1'],1,1647,[-0.09870613],35,44,hard,plus,dotcolour,beta,,,23,19,V,R,
242,116,32,5,1,53,27,665,['c'],1,left,['9'],5,227,[0.1050368],100,53,easy,plus,dotcolour,beta,,,23,19,V,R,
243,117,33,5,1,33,47,700,['c'],0,right,['9'],5,183,[0.09745102],100,47,medium,plus,dotcolour,beta,,,23,19,V,R,
244,118,34,5,1,33,47,1232,['n'],1,right,['9'],5,191,[-0.03566037],98,47,medium,plus,dotcolour,beta,,,23,19,V,R,
245,119,35,5,1,47,33,1266,['c'],1,left,['8'],4,398,[0.06505359],97,47,medium,plus,dotcolour,beta,,,23,19,V,R,
246,120,36,5,1,47,33,782,['c'],1,left,['9'],5,224,[0.09459261],100,47,medium,plus,dotcolour,beta,,,23,19,V,R,
247,121,37,5,1,53,27,580,['c'],1,left,['0'],6,329,[0.1010517],99,53,easy,plus,dotcolour,beta,,,23,19,V,R,
248,122,38,5,1,36,44,817,['n'],1,right,['0'],6,540,[-0.11829546],99,44,hard,plus,dotcolour,beta,,,23,19,V,R,
249,123,39,5,1,47,33,1051,['c'],1,left,['0'],6,205,[0.1220532],100,47,medium,plus,dotcolour,beta,,,23,19,V,R,
250,124,40,5,1,36,44,1214,['n'],1,right,['9'],5,269,[-0.13285994],100,44,hard,plus,dotcolour,beta,,,23,19,V,R,
251,125,41,5,1,33,47,933,['n'],1,right,['9'],5,239,[-0.09035027],100,47,medium,plus,dotcolour,beta,,,23,19,V,R,
252,0,0,6,2,27,53,884,['n'],1,right,['9'],5,255,[-0.08734724],76,53,easy,minus,dotcolour,beta,,,23,19,V,R,
253,1,1,6,2,44,36,1032,['c'],1,left,['9'],5,253,[0.13646145],95,44,hard,minus,dotcolour,beta,,,23,19,V,R,
254,2,2,6,2,36,44,1100,['n'],1,right,['9'],5,256,[-0.11223275],88,44,hard,minus,dotcolour,beta,,,23,19,V,R,
255,3,3,6,2,44,36,917,['c'],1,left,['9'],5,219,[0.0841701],75,44,hard,minus,dotcolour,beta,,,23,19,V,R,
256,4,4,6,2,27,53,766,['c'],0,right,['8'],4,364,[0.00082971],16,53,easy,minus,dotcolour,beta,,,23,19,V,R,
257,5,5,6,2,36,44,664,['n'],1,right,['8'],4,444,[-0.16251523],95,44,hard,minus,dotcolour,beta,,,23,19,V,R,
258,6,6,6,2,33,47,1150,['n'],1,right,['8'],4,293,[-0.03932623],37,47,medium,minus,dotcolour,beta,,,23,19,V,R,
259,7,7,6,2,27,53,679,['n'],1,right,['9'],5,271,[-0.19813059],99,53,easy,minus,dotcolour,beta,,,23,19,V,R,
260,8,8,6,2,53,27,683,['c'],1,left,['9'],5,282,[0.16909289],98,53,easy,minus,dotcolour,beta,,,23,19,V,R,
261,9,9,6,2,53,27,699,['c'],1,left,['0'],6,211,[0.12020316],93,53,easy,minus,dotcolour,beta,,,23,19,V,R,
262,10,10,6,2,36,44,816,['n'],1,right,['9'],5,228,[-0.05385222],48,44,hard,minus,dotcolour,beta,,,23,19,V,R,
263,11,11,6,2,33,47,1030,['n'],1,right,['8'],4,322,[-0.19822607],99,47,medium,minus,dotcolour,beta,,,23,19,V,R,
264,12,12,6,2,27,53,934,['c'],0,right,['9'],5,289,[0.10714415],85,53,easy,minus,dotcolour,beta,,,23,19,V,R,
265,13,13,6,2,36,44,1233,['n'],1,right,['8'],4,478,[-0.14854853],92,44,hard,minus,dotcolour,beta,,,23,19,V,R,
266,14,14,6,2,36,44,901,['n'],1,right,['8'],4,369,[-0.14512837],93,44,hard,minus,dotcolour,beta,,,23,19,V,R,
267,15,15,6,2,36,44,999,['n'],1,right,['9'],5,378,[-0.14526748],93,44,hard,minus,dotcolour,beta,,,23,19,V,R,
268,16,16,6,2,53,27,2249,['c'],1,left,['0'],6,674,[0.14517416],88,53,easy,minus,dotcolour,beta,,,23,19,V,R,
269,17,17,6,2,36,44,1598,['c'],0,right,['9'],5,152,[0.09315836],85,44,hard,minus,dotcolour,beta,,,23,19,V,R,
270,18,18,6,2,47,33,1400,['c'],1,left,['9'],5,131,[0.09651165],88,47,medium,minus,dotcolour,beta,,,23,19,V,R,
271,19,19,6,2,33,47,697,['n'],1,right,['9'],5,187,[-0.12891581],95,47,medium,minus,dotcolour,beta,,,23,19,V,R,
272,20,20,6,2,47,33,850,['c'],1,left,['9'],5,163,[0.05262076],47,47,medium,minus,dotcolour,beta,,,23,19,V,R,
273,21,21,6,2,44,36,584,['c'],1,left,['9'],5,175,[0.09678128],85,44,hard,minus,dotcolour,beta,,,23,19,V,R,
274,22,22,6,2,33,47,1201,['n'],1,right,['8'],4,320,[-0.06440556],57,47,medium,minus,dotcolour,beta,,,23,19,V,R,
275,23,23,6,2,53,27,818,['c'],1,left,['9'],5,277,[0.08473402],73,53,easy,minus,dotcolour,beta,,,23,19,V,R,
276,24,24,6,2,27,53,933,['n'],1,right,['9'],5,725,[-0.22957728],98,53,easy,minus,dotcolour,beta,,,23,19,V,R,
277,25,25,6,2,33,47,1383,['n'],1,right,['9'],5,226,[-0.15433182],98,47,medium,minus,dotcolour,beta,,,23,19,V,R,
278,26,26,6,2,33,47,700,['n'],1,right,['9'],5,222,[-0.14684819],97,47,medium,minus,dotcolour,beta,,,23,19,V,R,
279,27,27,6,2,47,33,866,['c'],1,left,['9'],5,148,[0.06847936],65,47,medium,minus,dotcolour,beta,,,23,19,V,R,
280,28,28,6,2,47,33,1383,['c'],1,left,['0'],6,168,[0.10202061],88,47,medium,minus,dotcolour,beta,,,23,19,V,R,
281,29,29,6,2,44,36,1150,['n'],0,left,['9'],5,452,[-0.06260419],55,44,hard,minus,dotcolour,beta,,,23,19,V,R,
282,30,30,6,2,27,53,747,['n'],1,right,['8'],4,262,[-0.05601442],50,53,easy,minus,dotcolour,beta,,,23,19,V,R,
283,31,31,6,2,44,36,1149,['c'],1,left,['9'],5,335,[0.12536118],90,44,hard,minus,dotcolour,beta,,,23,19,V,R,
284,32,32,6,2,47,33,998,['c'],1,left,['9'],5,178,[0.10711835],90,47,medium,minus,dotcolour,beta,,,23,19,V,R,
285,33,33,6,2,53,27,999,['c'],1,left,['0'],6,236,[0.11297385],89,53,easy,minus,dotcolour,beta,,,23,19,V,R,
286,34,34,6,2,27,53,1133,['n'],1,right,['9'],5,222,[-0.14084655],96,53,easy,minus,dotcolour,beta,,,23,19,V,R,
287,35,35,6,2,33,47,566,['n'],1,right,['9'],5,360,[-0.08502064],71,47,medium,minus,dotcolour,beta,,,23,19,V,R,
288,36,36,6,2,47,33,783,['c'],1,left,['0'],6,227,[0.09567587],82,47,medium,minus,dotcolour,beta,,,23,19,V,R,
289,37,37,6,2,47,33,850,['c'],1,left,['9'],5,265,[0.06385978],57,47,medium,minus,dotcolour,beta,,,23,19,V,R,
290,38,38,6,2,44,36,783,['n'],0,left,['9'],5,209,[-0.0131749],16,44,hard,minus,dotcolour,beta,,,23,19,V,R,
291,39,39,6,2,53,27,897,['c'],1,left,['0'],6,197,[0.12944228],95,53,easy,minus,dotcolour,beta,,,23,19,V,R,
292,40,40,6,2,53,27,717,['c'],1,left,['0'],6,170,[0.08292041],77,53,easy,minus,dotcolour,beta,,,23,19,V,R,
293,41,41,6,2,44,36,1049,['n'],0,left,['9'],5,242,[0.01376076],7,44,hard,minus,dotcolour,beta,,,23,19,V,R,
294,42,0,7,2,36,44,1000,['n'],1,right,['9'],5,222,[-0.14391249],97,44,hard,minus,dotcolour,beta,,,23,19,V,R,
295,43,1,7,2,53,27,1298,['c'],1,left,['0'],6,211,[0.14625455],97,53,easy,minus,dotcolour,beta,,,23,19,V,R,
296,44,2,7,2,53,27,563,['c'],1,left,['0'],6,189,[0.16808026],99,53,easy,minus,dotcolour,beta,,,23,19,V,R,
297,45,3,7,2,47,33,867,['c'],1,left,['9'],5,164,[0.09904154],87,47,medium,minus,dotcolour,beta,,,23,19,V,R,
298,46,4,7,2,47,33,667,['c'],1,left,['9'],5,212,[0.13975115],96,47,medium,minus,dotcolour,beta,,,23,19,V,R,
299,47,5,7,2,47,33,849,['c'],1,left,['9'],5,227,[0.13274754],95,47,medium,minus,dotcolour,beta,,,23,19,V,R,
300,48,6,7,2,47,33,680,['c'],1,left,['9'],5,384,[0.16210619],96,47,medium,minus,dotcolour,beta,,,23,19,V,R,
301,49,7,7,2,44,36,1033,['n'],0,left,['8'],4,400,[-0.0676433],59,44,hard,minus,dotcolour,beta,,,23,19,V,R,
302,50,8,7,2,33,47,900,['n'],1,right,['8'],4,270,[-0.10867879],86,47,medium,minus,dotcolour,beta,,,23,19,V,R,
303,51,9,7,2,36,44,533,['n'],1,right,['9'],5,311,[-0.0190252],24,44,hard,minus,dotcolour,beta,,,23,19,V,R,
304,52,10,7,2,53,27,965,['c'],1,left,['9'],5,292,[0.09476812],79,53,easy,minus,dotcolour,beta,,,23,19,V,R,
305,53,11,7,2,53,27,1681,['n'],0,left,['8'],4,726,[0.09153145],4,53,easy,minus,dotcolour,beta,,,23,19,V,R,
306,54,12,7,2,33,47,1549,['c'],0,right,['9'],5,725,[-0.02905525],14,47,medium,minus,dotcolour,beta,,,23,19,V,R,
307,55,13,7,2,44,36,832,['c'],1,left,['9'],5,207,[0.09222343],81,44,hard,minus,dotcolour,beta,,,23,19,V,R,
308,56,14,7,2,44,36,684,['c'],1,left,['8'],4,500,[0.13065679],87,44,hard,minus,dotcolour,beta,,,23,19,V,R,
309,57,15,7,2,27,53,1131,['n'],1,right,['9'],5,412,[-0.1466798],93,53,easy,minus,dotcolour,beta,,,23,19,V,R,
310,58,16,7,2,33,47,1117,['n'],1,right,['9'],5,473,[-0.12436235],86,47,medium,minus,dotcolour,beta,,,23,19,V,R,
311,59,17,7,2,27,53,600,['n'],1,right,['9'],5,214,[-0.11110713],90,53,easy,minus,dotcolour,beta,,,23,19,V,R,
312,60,18,7,2,33,47,599,['n'],1,right,['9'],5,175,[-0.09808793],86,47,medium,minus,dotcolour,beta,,,23,19,V,R,
313,61,19,7,2,44,36,1099,['c'],1,left,['9'],5,165,[0.09166054],83,44,hard,minus,dotcolour,beta,,,23,19,V,R,
314,62,20,7,2,33,47,948,['n'],1,right,['8'],4,258,[-0.10734404],86,47,medium,minus,dotcolour,beta,,,23,19,V,R,
315,63,21,7,2,53,27,783,['c'],1,left,['9'],5,161,[0.1058257],91,53,easy,minus,dotcolour,beta,,,23,19,V,R,
316,64,22,7,2,53,27,516,['c'],1,left,['9'],5,143,[0.04710902],40,53,easy,minus,dotcolour,beta,,,23,19,V,R,
317,65,23,7,2,36,44,850,['n'],1,right,['8'],4,208,[-0.0963615],83,44,hard,minus,dotcolour,beta,,,23,19,V,R,
318,66,24,7,2,36,44,597,['n'],1,right,['9'],5,233,[-0.12304991],93,44,hard,minus,dotcolour,beta,,,23,19,V,R,
319,67,25,7,2,44,36,1667,['n'],0,left,['8'],4,391,[0.01409914],12,44,hard,minus,dotcolour,beta,,,23,19,V,R,
320,68,26,7,2,44,36,550,['c'],1,left,['9'],5,146,[0.05592022],50,44,hard,minus,dotcolour,beta,,,23,19,V,R,
321,69,27,7,2,53,27,450,['c'],1,left,['0'],6,235,[0.05733945],52,53,easy,minus,dotcolour,beta,,,23,19,V,R,
322,70,28,7,2,27,53,833,['n'],1,right,['9'],5,226,[-0.1323464],95,53,easy,minus,dotcolour,beta,,,23,19,V,R,
323,71,29,7,2,36,44,1083,['n'],1,right,['9'],5,230,[-0.0726777],66,44,hard,minus,dotcolour,beta,,,23,19,V,R,
324,72,30,7,2,33,47,963,['n'],1,right,['8'],4,304,[-0.13936081],94,47,medium,minus,dotcolour,beta,,,23,19,V,R,
325,73,31,7,2,36,44,1217,['c'],0,right,['1'],1,1292,[0.03560484],42,44,hard,minus,dotcolour,beta,,,23,19,V,R,
326,74,32,7,2,47,33,1851,['n'],0,left,['8'],4,374,[-0.08758513],72,47,medium,minus,dotcolour,beta,,,23,19,V,R,
327,75,33,7,2,47,33,651,['n'],0,left,['1'],1,1070,[0.10128808],6,47,medium,minus,dotcolour,beta,,,23,19,V,R,
328,76,34,7,2,44,36,1731,['n'],0,left,['8'],4,263,[-0.04994464],45,44,hard,minus,dotcolour,beta,,,23,19,V,R,
329,77,35,7,2,36,44,2566,['c'],0,right,['8'],4,399,[0.08540321],70,44,hard,minus,dotcolour,beta,,,23,19,V,R,
330,78,36,7,2,33,47,1049,['n'],1,right,['9'],5,390,[-0.06511539],57,47,medium,minus,dotcolour,beta,,,23,19,V,R,
331,79,37,7,2,27,53,1333,['n'],1,right,['9'],5,730,[-0.16464383],91,53,easy,minus,dotcolour,beta,,,23,19,V,R,
332,80,38,7,2,27,53,799,['n'],1,right,['9'],5,182,[-0.081216],75,53,easy,minus,dotcolour,beta,,,23,19,V,R,
333,81,39,7,2,27,53,600,['n'],1,right,['9'],5,320,[-0.06849336],60,53,easy,minus,dotcolour,beta,,,23,19,V,R,
334,82,40,7,2,47,33,901,['c'],1,left,['9'],5,296,[0.04670594],43,47,medium,minus,dotcolour,beta,,,23,19,V,R,
335,83,41,7,2,27,53,867,['n'],1,right,['9'],5,267,[-0.0488217],44,53,easy,minus,dotcolour,beta,,,23,19,V,R,
336,84,0,8,2,36,44,834,['n'],1,right,['8'],4,244,[-0.11185334],89,44,hard,minus,dotcolour,beta,,,23,19,V,R,
337,85,1,8,2,27,53,665,['n'],1,right,['9'],5,265,[-0.14965044],96,53,easy,minus,dotcolour,beta,,,23,19,V,R,
338,86,2,8,2,36,44,717,['n'],1,right,['9'],5,203,[-0.11847197],93,44,hard,minus,dotcolour,beta,,,23,19,V,R,
339,87,3,8,2,47,33,882,['n'],0,left,['9'],5,528,[0.01377917],15,47,medium,minus,dotcolour,beta,,,23,19,V,R,
340,88,4,8,2,27,53,697,['n'],1,right,['9'],5,232,[-0.11365879],90,53,easy,minus,dotcolour,beta,,,23,19,V,R,
341,89,5,8,2,53,27,1098,['c'],1,left,['9'],5,164,[0.04569301],39,53,easy,minus,dotcolour,beta,,,23,19,V,R,
342,90,6,8,2,33,47,532,['n'],1,right,['9'],5,202,[-0.07539838],69,47,medium,minus,dotcolour,beta,,,23,19,V,R,
343,91,7,8,2,53,27,783,['c'],1,left,['9'],5,188,[0.07581347],70,53,easy,minus,dotcolour,beta,,,23,19,V,R,
344,92,8,8,2,47,33,567,['c'],1,left,['9'],5,247,[0.1314779],94,47,medium,minus,dotcolour,beta,,,23,19,V,R,
345,93,9,8,2,53,27,568,['c'],1,left,['8'],4,223,[0.06031105],55,53,easy,minus,dotcolour,beta,,,23,19,V,R,
346,94,10,8,2,27,53,798,['n'],1,right,['8'],4,335,[-0.19447333],99,53,easy,minus,dotcolour,beta,,,23,19,V,R,
347,95,11,8,2,36,44,849,['n'],1,right,['9'],5,209,[-0.05737125],52,44,hard,minus,dotcolour,beta,,,23,19,V,R,
348,96,12,8,2,33,47,963,['n'],1,right,['9'],5,211,[-0.09655742],83,47,medium,minus,dotcolour,beta,,,23,19,V,R,
349,97,13,8,2,53,27,1266,['n'],0,left,['8'],4,994,[-0.06791599],56,53,easy,minus,dotcolour,beta,,,23,19,V,R,
350,98,14,8,2,27,53,1267,['n'],1,right,['9'],5,232,[-0.0550376],50,53,easy,minus,dotcolour,beta,,,23,19,V,R,
351,99,15,8,2,36,44,1132,['c'],0,right,['9'],5,227,[0.07975044],71,44,hard,minus,dotcolour,beta,,,23,19,V,R,
352,100,16,8,2,44,36,916,['n'],0,left,['9'],5,206,[0.04770541],2,44,hard,minus,dotcolour,beta,,,23,19,V,R,
353,101,17,8,2,53,27,1130,['c'],1,left,['9'],5,218,[0.0999115],85,53,easy,minus,dotcolour,beta,,,23,19,V,R,
354,102,18,8,2,33,47,1266,['n'],1,right,['9'],5,255,[-0.178673],99,47,medium,minus,dotcolour,beta,,,23,19,V,R,
355,103,19,8,2,47,33,1047,['n'],0,left,['9'],5,195,[-0.12070718],93,47,medium,minus,dotcolour,beta,,,23,19,V,R,
356,104,20,8,2,53,27,783,['c'],1,left,['9'],5,157,[0.04009754],33,53,easy,minus,dotcolour,beta,,,23,19,V,R,
357,105,21,8,2,47,33,899,['c'],1,left,['9'],5,244,[0.04804723],43,47,medium,minus,dotcolour,beta,,,23,19,V,R,
358,106,22,8,2,27,53,767,['n'],1,right,['9'],5,357,[-0.16731552],97,53,easy,minus,dotcolour,beta,,,23,19,V,R,
359,107,23,8,2,44,36,1433,['c'],1,left,['9'],5,310,[0.10967619],85,44,hard,minus,dotcolour,beta,,,23,19,V,R,
360,108,24,8,2,33,47,2149,['n'],1,right,['8'],4,301,[-0.04931935],45,47,medium,minus,dotcolour,beta,,,23,19,V,R,
361,109,25,8,2,44,36,948,['n'],0,left,['9'],5,172,[-0.07256436],68,44,hard,minus,dotcolour,beta,,,23,19,V,R,
362,110,26,8,2,44,36,767,['n'],0,left,['9'],5,248,[0.05657532],2,44,hard,minus,dotcolour,beta,,,23,19,V,R,
363,111,27,8,2,47,33,1383,['c'],1,left,['9'],5,144,[0.09118843],84,47,medium,minus,dotcolour,beta,,,23,19,V,R,
364,112,28,8,2,33,47,733,['n'],1,right,['9'],5,182,[-0.10176669],88,47,medium,minus,dotcolour,beta,,,23,19,V,R,
365,113,29,8,2,44,36,667,['c'],1,left,['9'],5,117,[0.09743216],90,44,hard,minus,dotcolour,beta,,,23,19,V,R,
366,114,30,8,2,36,44,1267,['n'],1,right,['8'],4,255,[-0.05955046],54,44,hard,minus,dotcolour,beta,,,23,19,V,R,
367,115,31,8,2,47,33,650,['c'],1,left,['9'],5,205,[0.09382236],82,47,medium,minus,dotcolour,beta,,,23,19,V,R,
368,116,32,8,2,27,53,833,['n'],1,right,['9'],5,244,[-0.11948034],91,53,easy,minus,dotcolour,beta,,,23,19,V,R,
369,117,33,8,2,44,36,533,['n'],0,left,['9'],5,190,[-0.04152877],36,44,hard,minus,dotcolour,beta,,,23,19,V,R,
370,118,34,8,2,33,47,649,['n'],1,right,['9'],5,125,[-0.07189889],70,47,medium,minus,dotcolour,beta,,,23,19,V,R,
371,119,35,8,2,33,47,1000,['c'],0,right,['8'],4,178,[0.07835175],73,47,medium,minus,dotcolour,beta,,,23,19,V,R,
372,120,36,8,2,36,44,1634,['n'],1,right,['8'],4,266,[-0.0374885],35,44,hard,minus,dotcolour,beta,,,23,19,V,R,
373,121,37,8,2,53,27,830,['c'],1,left,['0'],6,207,[0.04744531],42,53,easy,minus,dotcolour,beta,,,23,19,V,R,
374,122,38,8,2,47,33,517,['c'],1,left,['9'],5,419,[0.13482618],90,47,medium,minus,dotcolour,beta,,,23,19,V,R,
375,123,39,8,2,44,36,716,['c'],1,left,['9'],5,167,[0.10057755],88,44,hard,minus,dotcolour,beta,,,23,19,V,R,
376,124,40,8,2,36,44,716,['n'],1,right,['9'],5,221,[-0.06214808],56,44,hard,minus,dotcolour,beta,,,23,19,V,R,
377,125,41,8,2,27,53,631,['n'],1,right,['0'],6,292,[-0.11068528],86,53,easy,minus,dotcolour,beta,,,23,19,V,R,
378,0,0,9,3,47,33,1117,['c'],1,left,['8'],4,2924,[0.48234676],100,47,medium,plus,dotcolour,beta,,,23,19,V,R,
379,1,1,9,3,44,36,2467,['n'],0,left,['8'],4,220,[-0.02122428],95,44,hard,plus,dotcolour,beta,,,23,19,V,R,
380,2,2,9,3,53,27,1350,['n'],0,left,['8'],4,278,[0.03374343],68,53,easy,plus,dotcolour,beta,,,23,19,V,R,
381,3,3,9,3,47,33,1284,['c'],1,left,['8'],4,489,[0.12963369],99,47,medium,plus,dotcolour,beta,,,23,19,V,R,
382,4,4,9,3,53,27,698,['c'],1,left,['9'],5,250,[0.15031135],100,53,easy,plus,dotcolour,beta,,,23,19,V,R,
383,5,5,9,3,53,27,500,['c'],1,left,['0'],6,269,[0.10295443],100,53,easy,plus,dotcolour,beta,,,23,19,V,R,
384,6,6,9,3,33,47,450,['c'],0,right,['1'],1,689,[-0.07196041],41,47,medium,plus,dotcolour,beta,,,23,19,V,R,
385,7,7,9,3,47,33,1033,['c'],1,left,['9'],5,693,[0.16760568],99,47,medium,plus,dotcolour,beta,,,23,19,V,R,
386,8,8,9,3,27,53,899,['n'],1,right,['9'],5,215,[-0.15213216],100,53,easy,plus,dotcolour,beta,,,23,19,V,R,
387,9,9,9,3,33,47,2532,['c'],0,right,['8'],4,282,[0.05541444],98,47,medium,plus,dotcolour,beta,,,23,19,V,R,
388,10,10,9,3,44,36,1284,['c'],1,left,['8'],4,165,[0.08344774],100,44,hard,plus,dotcolour,beta,,,23,19,V,R,
389,11,11,9,3,53,27,900,['c'],1,left,['9'],5,195,[0.13079152],100,53,easy,plus,dotcolour,beta,,,23,19,V,R,
390,12,12,9,3,33,47,484,['c'],0,right,['1'],1,577,[-0.02256619],69,47,medium,plus,dotcolour,beta,,,23,19,V,R,
391,13,13,9,3,47,33,2734,['c'],1,left,['8'],4,1718,[0.11472245],91,47,medium,plus,dotcolour,beta,,,23,19,V,R,
392,14,14,9,3,53,27,765,['c'],1,left,['9'],5,163,[0.09652734],100,53,easy,plus,dotcolour,beta,,,23,19,V,R,
393,15,15,9,3,33,47,2267,['c'],0,right,['9'],5,179,[0.06919503],100,47,medium,plus,dotcolour,beta,,,23,19,V,R,
394,16,16,9,3,44,36,800,['c'],1,left,['9'],5,141,[0.04445969],99,44,hard,plus,dotcolour,beta,,,23,19,V,R,
395,17,17,9,3,27,53,916,['n'],1,right,['9'],5,204,[-0.09938569],100,53,easy,plus,dotcolour,beta,,,23,19,V,R,
396,18,18,9,3,36,44,866,['c'],0,right,['9'],5,178,[0.06455465],99,44,hard,plus,dotcolour,beta,,,23,19,V,R,
397,19,19,9,3,27,53,983,['c'],0,right,['8'],4,189,[0.1163651],100,53,easy,plus,dotcolour,beta,,,23,19,V,R,
398,20,20,9,3,36,44,749,['n'],1,right,['9'],5,216,[-0.09058856],100,44,hard,plus,dotcolour,beta,,,23,19,V,R,
399,21,21,9,3,27,53,1017,['n'],1,right,['9'],5,249,[-0.10627629],100,53,easy,plus,dotcolour,beta,,,23,19,V,R,
400,22,22,9,3,44,36,1016,['c'],1,left,['9'],5,127,[0.1249723],100,44,hard,plus,dotcolour,beta,,,23,19,V,R,
401,23,23,9,3,44,36,1299,['c'],1,left,['8'],4,295,[0.06974578],98,44,hard,plus,dotcolour,beta,,,23,19,V,R,
402,24,24,9,3,44,36,700,['c'],1,left,['9'],5,145,[0.06501522],100,44,hard,plus,dotcolour,beta,,,23,19,V,R,
403,25,25,9,3,27,53,849,['n'],1,right,['9'],5,210,[-0.05334914],99,53,easy,plus,dotcolour,beta,,,23,19,V,R,
404,26,26,9,3,53,27,867,['c'],1,left,['9'],5,128,[0.09770018],100,53,easy,plus,dotcolour,beta,,,23,19,V,R,
405,27,27,9,3,33,47,1500,['n'],1,right,['8'],4,424,[-0.17804223],100,47,medium,plus,dotcolour,beta,,,23,19,V,R,
406,28,28,9,3,36,44,1864,['n'],1,right,['8'],4,253,[-0.04069768],97,44,hard,plus,dotcolour,beta,,,23,19,V,R,
407,29,29,9,3,36,44,583,['n'],1,right,['8'],4,213,[-0.00839868],92,44,hard,plus,dotcolour,beta,,,23,19,V,R,
408,30,30,9,3,47,33,882,['c'],1,left,['9'],5,146,[0.07090044],100,47,medium,plus,dotcolour,beta,,,23,19,V,R,
409,31,31,9,3,33,47,1765,['n'],1,right,['8'],4,903,[-0.23458924],100,47,medium,plus,dotcolour,beta,,,23,19,V,R,
410,32,32,9,3,47,33,1799,['c'],1,left,['9'],5,204,[0.05524377],99,47,medium,plus,dotcolour,beta,,,23,19,V,R,
411,33,33,9,3,33,47,1017,['n'],1,right,['8'],4,180,[-0.11008681],100,47,medium,plus,dotcolour,beta,,,23,19,V,R,
412,34,34,9,3,36,44,1066,['n'],1,right,['8'],4,219,[-0.12420297],100,44,hard,plus,dotcolour,beta,,,23,19,V,R,
413,35,35,9,3,53,27,897,['c'],1,left,['0'],6,160,[0.07989715],100,53,easy,plus,dotcolour,beta,,,23,19,V,R,
414,36,36,9,3,47,33,767,['c'],1,left,['0'],6,156,[0.11637188],100,47,medium,plus,dotcolour,beta,,,23,19,V,R,
415,37,37,9,3,44,36,766,['c'],1,left,['9'],5,152,[0.05106768],99,44,hard,plus,dotcolour,beta,,,23,19,V,R,
416,38,38,9,3,36,44,916,['c'],0,right,['1'],1,711,[0.0420016],89,44,hard,plus,dotcolour,beta,,,23,19,V,R,
417,39,39,9,3,27,53,1134,['n'],1,right,['8'],4,702,[-0.16583525],99,53,easy,plus,dotcolour,beta,,,23,19,V,R,
418,40,40,9,3,36,44,1447,['n'],1,right,['9'],5,209,[-0.07361648],99,44,hard,plus,dotcolour,beta,,,23,19,V,R,
419,41,41,9,3,27,53,516,['n'],1,right,['9'],5,156,[-0.17507313],100,53,easy,plus,dotcolour,beta,,,23,19,V,R,
420,42,0,10,3,27,53,784,['n'],1,right,['9'],5,223,[-0.02474855],96,53,easy,plus,dotcolour,beta,,,23,19,V,R,
421,43,1,10,3,36,44,1317,['c'],0,right,['8'],4,146,[0.09106555],100,44,hard,plus,dotcolour,beta,,,23,19,V,R,
422,44,2,10,3,27,53,799,['n'],1,right,['9'],5,286,[-0.02919245],95,53,easy,plus,dotcolour,beta,,,23,19,V,R,
423,45,3,10,3,36,44,1550,['n'],1,right,['8'],4,229,[-0.14847229],100,44,hard,plus,dotcolour,beta,,,23,19,V,R,
424,46,4,10,3,44,36,1083,['c'],1,left,['8'],4,210,[0.03110107],97,44,hard,plus,dotcolour,beta,,,23,19,V,R,
425,47,5,10,3,47,33,667,['c'],1,left,['8'],4,160,[0.0461632],99,47,medium,plus,dotcolour,beta,,,23,19,V,R,
426,48,6,10,3,44,36,648,['c'],1,left,['8'],4,152,[0.04001574],99,44,hard,plus,dotcolour,beta,,,23,19,V,R,
427,49,7,10,3,27,53,765,['n'],1,right,['9'],5,212,[-0.07769646],99,53,easy,plus,dotcolour,beta,,,23,19,V,R,
428,50,8,10,3,47,33,833,['c'],1,left,['9'],5,164,[0.09540256],100,47,medium,plus,dotcolour,beta,,,23,19,V,R,
429,51,9,10,3,53,27,500,['c'],1,left,['9'],5,130,[0.08399802],100,53,easy,plus,dotcolour,beta,,,23,19,V,R,
430,52,10,10,3,33,47,1067,['n'],1,right,['9'],5,156,[-0.04632771],99,47,medium,plus,dotcolour,beta,,,23,19,V,R,
431,53,11,10,3,27,53,748,['n'],1,right,['9'],5,256,[-0.15627827],100,53,easy,plus,dotcolour,beta,,,23,19,V,R,
432,54,12,10,3,36,44,801,['n'],1,right,['8'],4,367,[0.06991404],39,44,hard,plus,dotcolour,beta,,,23,19,V,R,
433,55,13,10,3,47,33,1565,['c'],1,left,['9'],5,218,[0.03614445],97,47,medium,plus,dotcolour,beta,,,23,19,V,R,
434,56,14,10,3,44,36,617,['n'],0,left,['0'],6,994,[0.03302522],60,44,hard,plus,dotcolour,beta,,,23,19,V,R,
435,57,15,10,3,33,47,999,['n'],1,right,['9'],5,284,[-0.10576075],100,47,medium,plus,dotcolour,beta,,,23,19,V,R,
436,58,16,10,3,53,27,1701,['c'],1,left,['9'],5,270,[0.17400916],100,53,easy,plus,dotcolour,beta,,,23,19,V,R,
437,59,17,10,3,53,27,4050,['c'],1,left,['8'],4,707,[0.12131689],98,53,easy,plus,dotcolour,beta,,,23,19,V,R,
438,60,18,10,3,53,27,534,['c'],1,left,['9'],5,186,[0.08427848],100,53,easy,plus,dotcolour,beta,,,23,19,V,R,
439,61,19,10,3,36,44,867,['n'],1,right,['9'],5,192,[-0.1038405],100,44,hard,plus,dotcolour,beta,,,23,19,V,R,
440,62,20,10,3,33,47,1115,['c'],0,right,['9'],5,165,[0.06611214],100,47,medium,plus,dotcolour,beta,,,23,19,V,R,
441,63,21,10,3,33,47,581,['c'],0,right,['9'],5,136,[0.11962935],100,47,medium,plus,dotcolour,beta,,,23,19,V,R,
442,64,22,10,3,36,44,733,['n'],1,right,['9'],5,239,[-0.12931278],100,44,hard,plus,dotcolour,beta,,,23,19,V,R,
443,65,23,10,3,27,53,732,['n'],1,right,['9'],5,178,[-0.11747004],100,53,easy,plus,dotcolour,beta,,,23,19,V,R,
444,66,24,10,3,36,44,883,['n'],1,right,['9'],5,160,[-0.09422559],100,44,hard,plus,dotcolour,beta,,,23,19,V,R,
445,67,25,10,3,44,36,750,['n'],0,left,['9'],5,149,[-0.00533325],94,44,hard,plus,dotcolour,beta,,,23,19,V,R,
446,68,26,10,3,47,33,884,['c'],1,left,['9'],5,117,[0.17132941],100,47,medium,plus,dotcolour,beta,,,23,19,V,R,
447,69,27,10,3,33,47,2450,['n'],1,right,['8'],4,192,[-0.11126718],100,47,medium,plus,dotcolour,beta,,,23,19,V,R,
448,70,28,10,3,33,47,916,['n'],1,right,['9'],5,140,[-0.0986376],100,47,medium,plus,dotcolour,beta,,,23,19,V,R,
449,71,29,10,3,44,36,1116,['n'],0,left,['9'],5,172,[-0.00680636],94,44,hard,plus,dotcolour,beta,,,23,19,V,R,
450,72,30,10,3,47,33,847,['c'],1,left,['9'],5,148,[0.06958483],100,47,medium,plus,dotcolour,beta,,,23,19,V,R,
451,73,31,10,3,47,33,716,['c'],1,left,['9'],5,98,[0.1135356],100,47,medium,plus,dotcolour,beta,,,23,19,V,R,
452,74,32,10,3,47,33,782,['c'],1,left,['9'],5,136,[0.11550412],100,47,medium,plus,dotcolour,beta,,,23,19,V,R,
453,75,33,10,3,33,47,666,['n'],1,right,['9'],5,114,[-0.09285105],100,47,medium,plus,dotcolour,beta,,,23,19,V,R,
454,76,34,10,3,27,53,799,['n'],1,right,['9'],5,190,[-0.11959929],100,53,easy,plus,dotcolour,beta,,,23,19,V,R,
455,77,35,10,3,53,27,584,['n'],0,left,['1'],1,736,[-0.0022511],77,53,easy,plus,dotcolour,beta,,,23,19,V,R,
456,78,36,10,3,36,44,999,['n'],1,right,['8'],4,260,[-0.13459435],100,44,hard,plus,dotcolour,beta,,,23,19,V,R,
457,79,37,10,3,53,27,714,['c'],1,left,['9'],5,166,[0.08038942],100,53,easy,plus,dotcolour,beta,,,23,19,V,R,
458,80,38,10,3,44,36,899,['c'],1,left,['9'],5,164,[0.11288668],100,44,hard,plus,dotcolour,beta,,,23,19,V,R,
459,81,39,10,3,27,53,734,['n'],1,right,['9'],5,186,[-0.11188674],100,53,easy,plus,dotcolour,beta,,,23,19,V,R,
460,82,40,10,3,53,27,715,['c'],1,left,['9'],5,110,[0.13207601],100,53,easy,plus,dotcolour,beta,,,23,19,V,R,
461,83,41,10,3,44,36,900,['n'],0,left,['9'],5,167,[-0.02358918],97,44,hard,plus,dotcolour,beta,,,23,19,V,R,
462,84,0,11,3,33,47,667,['n'],1,right,['8'],4,193,[-0.12167817],100,47,medium,plus,dotcolour,beta,,,23,19,V,R,
463,85,1,11,3,33,47,517,['n'],1,right,['8'],4,182,[-0.09658484],100,47,medium,plus,dotcolour,beta,,,23,19,V,R,
464,86,2,11,3,47,33,615,['c'],1,left,['9'],5,127,[0.08608908],100,47,medium,plus,dotcolour,beta,,,23,19,V,R,
465,87,3,11,3,36,44,597,['n'],1,right,['9'],5,147,[-0.13973878],100,44,hard,plus,dotcolour,beta,,,23,19,V,R,
466,88,4,11,3,36,44,667,['n'],1,right,['9'],5,212,[-0.11129264],100,44,hard,plus,dotcolour,beta,,,23,19,V,R,
467,89,5,11,3,53,27,782,['c'],1,left,['9'],5,149,[0.1178558],100,53,easy,plus,dotcolour,beta,,,23,19,V,R,
468,90,6,11,3,27,53,867,['c'],0,right,['9'],5,118,[0.09510546],100,53,easy,plus,dotcolour,beta,,,23,19,V,R,
469,91,7,11,3,44,36,783,['c'],1,left,['9'],5,123,[0.08356399],100,44,hard,plus,dotcolour,beta,,,23,19,V,R,
470,92,8,11,3,33,47,849,['n'],1,right,['9'],5,189,[-0.13600662],100,47,medium,plus,dotcolour,beta,,,23,19,V,R,
471,93,9,11,3,44,36,1180,['c'],1,left,['9'],5,111,[0.07042813],100,44,hard,plus,dotcolour,beta,,,23,19,V,R,
472,94,10,11,3,33,47,784,['c'],0,right,['9'],5,196,[-0.01679594],83,47,medium,plus,dotcolour,beta,,,23,19,V,R,
473,95,11,11,3,53,27,784,['c'],1,left,['0'],6,358,[0.13362674],100,53,easy,plus,dotcolour,beta,,,23,19,V,R,
474,96,12,11,3,44,36,648,['c'],1,left,['9'],5,143,[0.06829085],100,44,hard,plus,dotcolour,beta,,,23,19,V,R,
475,97,13,11,3,27,53,780,['n'],1,right,['9'],5,171,[-0.08590988],100,53,easy,plus,dotcolour,beta,,,23,19,V,R,
476,98,14,11,3,47,33,914,['c'],1,left,['8'],4,193,[0.09324285],100,47,medium,plus,dotcolour,beta,,,23,19,V,R,
477,99,15,11,3,44,36,899,['c'],1,left,['9'],5,150,[0.1024936],100,44,hard,plus,dotcolour,beta,,,23,19,V,R,
478,100,16,11,3,44,36,668,['c'],1,left,['9'],5,167,[0.12276425],100,44,hard,plus,dotcolour,beta,,,23,19,V,R,
479,101,17,11,3,47,33,616,['c'],1,left,['9'],5,161,[0.08416285],100,47,medium,plus,dotcolour,beta,,,23,19,V,R,
480,102,18,11,3,27,53,733,['c'],0,right,['9'],5,174,[0.06208172],99,53,easy,plus,dotcolour,beta,,,23,19,V,R,
481,103,19,11,3,27,53,633,['n'],1,right,['8'],4,167,[-0.10152672],100,53,easy,plus,dotcolour,beta,,,23,19,V,R,
482,104,20,11,3,44,36,666,['n'],0,left,['9'],5,199,[-0.15546955],100,44,hard,plus,dotcolour,beta,,,23,19,V,R,
483,105,21,11,3,36,44,2167,['c'],0,right,['8'],4,1970,[-0.06140511],48,44,hard,plus,dotcolour,beta,,,23,19,V,R,
484,106,22,11,3,36,44,1700,['n'],1,right,['8'],4,231,[-0.1060376],100,44,hard,plus,dotcolour,beta,,,23,19,V,R,
485,107,23,11,3,27,53,616,['n'],1,right,['8'],4,239,[-0.11689038],100,53,easy,plus,dotcolour,beta,,,23,19,V,R,
486,108,24,11,3,47,33,833,['c'],1,left,['9'],5,141,[0.04311954],99,47,medium,plus,dotcolour,beta,,,23,19,V,R,
487,109,25,11,3,47,33,800,['c'],1,left,['9'],5,128,[0.11790612],100,47,medium,plus,dotcolour,beta,,,23,19,V,R,
488,110,26,11,3,27,53,867,['n'],1,right,['9'],5,154,[-0.09864509],100,53,easy,plus,dotcolour,beta,,,23,19,V,R,
489,111,27,11,3,33,47,617,['n'],1,right,['9'],5,172,[-0.00770287],94,47,medium,plus,dotcolour,beta,,,23,19,V,R,
490,112,28,11,3,53,27,1100,['c'],1,left,['9'],5,106,[0.02756369],99,53,easy,plus,dotcolour,beta,,,23,19,V,R,
491,113,29,11,3,44,36,614,['c'],1,left,['9'],5,79,[0.08018072],100,44,hard,plus,dotcolour,beta,,,23,19,V,R,
492,114,30,11,3,53,27,348,['c'],1,left,['9'],5,1191,[0.25291388],99,53,easy,plus,dotcolour,beta,,,23,19,V,R,
493,115,31,11,3,36,44,650,['c'],0,right,['9'],5,86,[0.0546676],100,44,hard,plus,dotcolour,beta,,,23,19,V,R,
494,116,32,11,3,53,27,482,['c'],1,left,['9'],5,72,[0.0808763],100,53,easy,plus,dotcolour,beta,,,23,19,V,R,
495,117,33,11,3,47,33,650,['c'],1,left,['9'],5,92,[0.07682673],100,47,medium,plus,dotcolour,beta,,,23,19,V,R,
496,118,34,11,3,33,47,516,['c'],0,right,['8'],4,189,[-0.05749526],48,47,medium,plus,dotcolour,beta,,,23,19,V,R,
497,119,35,11,3,53,27,616,['c'],1,left,['9'],5,197,[0.11435055],100,53,easy,plus,dotcolour,beta,,,23,19,V,R,
498,120,36,11,3,53,27,484,['c'],1,left,['9'],5,195,[0.03447516],98,53,easy,plus,dotcolour,beta,,,23,19,V,R,
499,121,37,11,3,27,53,831,['n'],1,right,['9'],5,211,[-0.04290459],98,53,easy,plus,dotcolour,beta,,,23,19,V,R,
500,122,38,11,3,36,44,766,['n'],1,right,['8'],4,438,[-0.18939179],100,44,hard,plus,dotcolour,beta,,,23,19,V,R,
501,123,39,11,3,36,44,1000,['n'],1,right,['8'],4,174,[-0.11760158],100,44,hard,plus,dotcolour,beta,,,23,19,V,R,
502,124,40,11,3,47,33,615,['c'],1,left,['9'],5,127,[0.1236792],100,47,medium,plus,dotcolour,beta,,,23,19,V,R,
503,125,41,11,3,33,47,583,['n'],1,right,['9'],5,171,[-0.12543399],100,47,medium,plus,dotcolour,beta,,,23,19,V,R,
504,0,0,12,4,47,33,934,['c'],1,left,['8'],4,253,[0.03555753],33,47,medium,minus,dotcolour,beta,,,23,19,V,R,
505,1,1,12,4,33,47,983,['n'],1,right,['9'],5,156,[-0.03457742],28,47,medium,minus,dotcolour,beta,,,23,19,V,R,
506,2,2,12,4,47,33,1000,['c'],1,left,['9'],5,159,[0.10125589],89,47,medium,minus,dotcolour,beta,,,23,19,V,R,
507,3,3,12,4,53,27,1101,['c'],1,left,['9'],5,181,[0.04692186],41,53,easy,minus,dotcolour,beta,,,23,19,V,R,
508,4,4,12,4,53,27,630,['c'],1,left,['9'],5,166,[0.09987746],88,53,easy,minus,dotcolour,beta,,,23,19,V,R,
509,5,5,12,4,44,36,583,['c'],1,left,['0'],6,234,[0.06604544],60,44,hard,minus,dotcolour,beta,,,23,19,V,R,
510,6,6,12,4,47,33,1516,['c'],1,left,['9'],5,205,[0.04139921],36,47,medium,minus,dotcolour,beta,,,23,19,V,R,
511,7,7,12,4,33,47,767,['c'],0,right,['9'],5,143,[-0.00287253],6,47,medium,minus,dotcolour,beta,,,23,19,V,R,
512,8,8,12,4,36,44,1166,['c'],0,right,['0'],6,140,[0.10014106],90,44,hard,minus,dotcolour,beta,,,23,19,V,R,
513,9,9,12,4,27,53,733,['n'],1,right,['9'],5,235,[-0.12737325],94,53,easy,minus,dotcolour,beta,,,23,19,V,R,
514,10,10,12,4,33,47,2100,['n'],1,right,['8'],4,271,[-0.16904557],98,47,medium,minus,dotcolour,beta,,,23,19,V,R,
515,11,11,12,4,36,44,1016,['n'],1,right,['8'],4,165,[0.00640284],6,44,hard,minus,dotcolour,beta,,,23,19,V,R,
516,12,12,12,4,36,44,3617,['n'],1,right,['8'],4,1263,[0.08507918],10,44,hard,minus,dotcolour,beta,,,23,19,V,R,
517,13,13,12,4,33,47,1617,['n'],1,right,['9'],5,221,[-0.08972594],79,47,medium,minus,dotcolour,beta,,,23,19,V,R,
518,14,14,12,4,27,53,667,['n'],1,right,['9'],5,146,[-0.18613451],100,53,easy,minus,dotcolour,beta,,,23,19,V,R,
519,15,15,12,4,33,47,632,['n'],1,right,['8'],4,140,[-0.06132712],57,47,medium,minus,dotcolour,beta,,,23,19,V,R,
520,16,16,12,4,53,27,750,['c'],1,left,['9'],5,98,[0.14903567],100,53,easy,minus,dotcolour,beta,,,23,19,V,R,
521,17,17,12,4,44,36,1580,['c'],1,left,['9'],5,160,[0.05094851],45,44,hard,minus,dotcolour,beta,,,23,19,V,R,
522,18,18,12,4,44,36,683,['c'],1,left,['9'],5,119,[0.10513086],93,44,hard,minus,dotcolour,beta,,,23,19,V,R,
523,19,19,12,4,53,27,716,['c'],1,left,['9'],5,103,[0.10031663],92,53,easy,minus,dotcolour,beta,,,23,19,V,R,
524,20,20,12,4,44,36,583,['c'],1,left,['9'],5,165,[0.12055634],95,44,hard,minus,dotcolour,beta,,,23,19,V,R,
525,21,21,12,4,47,33,616,['c'],1,left,['8'],4,287,[0.0340615],33,47,medium,minus,dotcolour,beta,,,23,19,V,R,
526,22,22,12,4,44,36,884,['n'],0,left,['8'],4,353,[-0.06123236],54,44,hard,minus,dotcolour,beta,,,23,19,V,R,
527,23,23,12,4,27,53,817,['n'],1,right,['9'],5,355,[-0.07572982],65,53,easy,minus,dotcolour,beta,,,23,19,V,R,
528,24,24,12,4,36,44,984,['n'],1,right,['9'],5,399,[-0.04800745],45,44,hard,minus,dotcolour,beta,,,23,19,V,R,
529,25,25,12,4,47,33,567,['c'],1,left,['9'],5,145,[0.0983725],88,47,medium,minus,dotcolour,beta,,,23,19,V,R,
530,26,26,12,4,33,47,933,['n'],1,right,['9'],5,207,[-0.11382642],91,47,medium,minus,dotcolour,beta,,,23,19,V,R,
531,27,27,12,4,27,53,600,['n'],1,right,['9'],5,168,[-0.10447627],90,53,easy,minus,dotcolour,beta,,,23,19,V,R,
532,28,28,12,4,44,36,848,['c'],1,left,['9'],5,113,[0.11387743],96,44,hard,minus,dotcolour,beta,,,23,19,V,R,
533,29,29,12,4,53,27,731,['c'],1,left,['9'],5,96,[0.0594212],56,53,easy,minus,dotcolour,beta,,,23,19,V,R,
534,30,30,12,4,27,53,1097,['n'],1,right,['0'],6,177,[-0.02205991],19,53,easy,minus,dotcolour,beta,,,23,19,V,R,
535,31,31,12,4,36,44,1250,['n'],1,right,['8'],4,290,[-0.17083954],98,44,hard,minus,dotcolour,beta,,,23,19,V,R,
536,32,32,12,4,44,36,799,['n'],0,left,['8'],4,399,[-0.11900491],86,44,hard,minus,dotcolour,beta,,,23,19,V,R,
537,33,33,12,4,47,33,1131,['c'],1,left,['8'],4,171,[0.05815684],53,47,medium,minus,dotcolour,beta,,,23,19,V,R,
538,34,34,12,4,53,27,849,['c'],1,left,['9'],5,179,[0.06294982],58,53,easy,minus,dotcolour,beta,,,23,19,V,R,
539,35,35,12,4,27,53,1100,['c'],0,right,['9'],5,145,[0.09551042],87,53,easy,minus,dotcolour,beta,,,23,19,V,R,
540,36,36,12,4,36,44,597,['n'],1,right,['9'],5,429,[-0.12151519],86,44,hard,minus,dotcolour,beta,,,23,19,V,R,
541,37,37,12,4,36,44,600,['n'],1,right,['9'],5,189,[-0.09000866],81,44,hard,minus,dotcolour,beta,,,23,19,V,R,
542,38,38,12,4,27,53,733,['n'],1,right,['9'],5,185,[-0.07866323],72,53,easy,minus,dotcolour,beta,,,23,19,V,R,
543,39,39,12,4,33,47,516,['n'],1,right,['9'],5,199,[-0.06647239],61,47,medium,minus,dotcolour,beta,,,23,19,V,R,
544,40,40,12,4,53,27,749,['c'],1,left,['9'],5,186,[0.17023925],99,53,easy,minus,dotcolour,beta,,,23,19,V,R,
545,41,41,12,4,47,33,2350,['n'],0,left,['8'],4,310,[-0.08743054],74,47,medium,minus,dotcolour,beta,,,23,19,V,R,
546,42,0,13,4,33,47,1034,['n'],1,right,['8'],4,415,[-0.08167019],67,47,medium,minus,dotcolour,beta,,,23,19,V,R,
547,43,1,13,4,44,36,765,['c'],1,left,['9'],5,193,[0.12750021],95,44,hard,minus,dotcolour,beta,,,23,19,V,R,
548,44,2,13,4,44,36,897,['c'],1,left,['9'],5,135,[0.08344311],80,44,hard,minus,dotcolour,beta,,,23,19,V,R,
549,45,3,13,4,36,44,1064,['n'],1,right,['9'],5,264,[-0.16863258],98,44,hard,minus,dotcolour,beta,,,23,19,V,R,
550,46,4,13,4,33,47,1147,['c'],0,right,['9'],5,185,[0.02342269],21,47,medium,minus,dotcolour,beta,,,23,19,V,R,
551,47,5,13,4,47,33,700,['c'],1,left,['9'],5,174,[0.06124272],56,47,medium,minus,dotcolour,beta,,,23,19,V,R,
552,48,6,13,4,53,27,532,['c'],1,left,['9'],5,155,[0.0707189],67,53,easy,minus,dotcolour,beta,,,23,19,V,R,
553,49,7,13,4,53,27,583,['c'],1,left,['9'],5,294,[0.13391518],93,53,easy,minus,dotcolour,beta,,,23,19,V,R,
554,50,8,13,4,36,44,1017,['c'],0,right,['8'],4,251,[0.08054244],71,44,hard,minus,dotcolour,beta,,,23,19,V,R,
555,51,9,13,4,47,33,667,['c'],1,left,['9'],5,159,[0.11139107],93,47,medium,minus,dotcolour,beta,,,23,19,V,R,
556,52,10,13,4,47,33,516,['c'],1,left,['9'],5,181,[0.13998982],97,47,medium,minus,dotcolour,beta,,,23,19,V,R,
557,53,11,13,4,33,47,917,['n'],1,right,['9'],5,219,[-0.12093025],93,47,medium,minus,dotcolour,beta,,,23,19,V,R,
558,54,12,13,4,36,44,766,['n'],1,right,['8'],4,173,[-0.07049593],66,44,hard,minus,dotcolour,beta,,,23,19,V,R,
559,55,13,13,4,47,33,817,['c'],1,left,['8'],4,254,[0.18597799],99,47,medium,minus,dotcolour,beta,,,23,19,V,R,
560,56,14,13,4,44,36,682,['c'],1,left,['8'],4,225,[0.09880821],84,44,hard,minus,dotcolour,beta,,,23,19,V,R,
561,57,15,13,4,47,33,817,['c'],1,left,['9'],5,153,[0.06734615],63,47,medium,minus,dotcolour,beta,,,23,19,V,R,
562,58,16,13,4,27,53,766,['n'],1,right,['9'],5,229,[-0.1077577],88,53,easy,minus,dotcolour,beta,,,23,19,V,R,
563,59,17,13,4,33,47,701,['n'],1,right,['9'],5,185,[-0.07866912],72,47,medium,minus,dotcolour,beta,,,23,19,V,R,
564,60,18,13,4,36,44,800,['n'],1,right,['9'],5,211,[-0.08686978],77,44,hard,minus,dotcolour,beta,,,23,19,V,R,
565,61,19,13,4,53,27,2099,['c'],1,left,['9'],5,159,[0.09903164],88,53,easy,minus,dotcolour,beta,,,23,19,V,R,
566,62,20,13,4,53,27,484,['c'],1,left,['9'],5,78,[0.09182861],91,53,easy,minus,dotcolour,beta,,,23,19,V,R,
567,63,21,13,4,33,47,681,['n'],1,right,['9'],5,201,[-0.10549994],88,47,medium,minus,dotcolour,beta,,,23,19,V,R,
568,64,22,13,4,47,33,833,['c'],1,left,['9'],5,137,[0.00310813],7,47,medium,minus,dotcolour,beta,,,23,19,V,R,
569,65,23,13,4,27,53,617,['n'],1,right,['0'],6,269,[-0.09251694],78,53,easy,minus,dotcolour,beta,,,23,19,V,R,
570,66,24,13,4,27,53,897,['n'],1,right,['9'],5,262,[-0.09916401],82,53,easy,minus,dotcolour,beta,,,23,19,V,R,
571,67,25,13,4,44,36,834,['n'],0,left,['9'],5,292,[-0.10987018],86,44,hard,minus,dotcolour,beta,,,23,19,V,R,
572,68,26,13,4,36,44,866,['c'],0,right,['9'],5,150,[0.10176628],90,44,hard,minus,dotcolour,beta,,,23,19,V,R,
573,69,27,13,4,53,27,698,['c'],1,left,['9'],5,134,[0.1947435],100,53,easy,minus,dotcolour,beta,,,23,19,V,R,
574,70,28,13,4,27,53,717,['n'],1,right,['9'],5,213,[-0.10230085],86,53,easy,minus,dotcolour,beta,,,23,19,V,R,
575,71,29,13,4,44,36,581,['c'],1,left,['9'],5,110,[0.0570215],52,44,hard,minus,dotcolour,beta,,,23,19,V,R,
576,72,30,13,4,44,36,1068,['n'],0,left,['0'],6,297,[-0.03169544],31,44,hard,minus,dotcolour,beta,,,23,19,V,R,
577,73,31,13,4,53,27,982,['c'],1,left,['9'],5,127,[0.10226157],91,53,easy,minus,dotcolour,beta,,,23,19,V,R,
578,74,32,13,4,27,53,666,['n'],1,right,['9'],5,216,[-0.07681453],69,53,easy,minus,dotcolour,beta,,,23,19,V,R,
579,75,33,13,4,27,53,832,['n'],1,right,['9'],5,295,[-0.10881187],85,53,easy,minus,dotcolour,beta,,,23,19,V,R,
580,76,34,13,4,53,27,650,['c'],1,left,['8'],4,178,[0.13313633],96,53,easy,minus,dotcolour,beta,,,23,19,V,R,
581,77,35,13,4,47,33,648,['c'],1,left,['0'],6,227,[0.13619681],95,47,medium,minus,dotcolour,beta,,,23,19,V,R,
582,78,36,13,4,36,44,732,['c'],0,right,['9'],5,125,[0.07029127],68,44,hard,minus,dotcolour,beta,,,23,19,V,R,
583,79,37,13,4,33,47,766,['n'],1,right,['0'],6,234,[-0.13239955],95,47,medium,minus,dotcolour,beta,,,23,19,V,R,
584,80,38,13,4,33,47,649,['n'],1,right,['9'],5,248,[-0.15103798],97,47,medium,minus,dotcolour,beta,,,23,19,V,R,
585,81,39,13,4,36,44,533,['n'],1,right,['8'],4,234,[-0.08526666],75,44,hard,minus,dotcolour,beta,,,23,19,V,R,
586,82,40,13,4,27,53,566,['n'],1,right,['9'],5,452,[-0.01210915],24,53,easy,minus,dotcolour,beta,,,23,19,V,R,
587,83,41,13,4,44,36,867,['c'],1,left,['8'],4,217,[0.09268794],81,44,hard,minus,dotcolour,beta,,,23,19,V,R,
588,84,0,14,4,44,36,1000,['n'],0,left,['8'],4,199,[-0.06901462],63,44,hard,minus,dotcolour,beta,,,23,19,V,R,
589,85,1,14,4,44,36,750,['n'],0,left,['9'],5,346,[-0.16052708],96,44,hard,minus,dotcolour,beta,,,23,19,V,R,
590,86,2,14,4,53,27,583,['c'],1,left,['9'],5,150,[0.05851334],53,53,easy,minus,dotcolour,beta,,,23,19,V,R,
591,87,3,14,4,44,36,547,['c'],1,left,['9'],5,148,[0.05342307],48,44,hard,minus,dotcolour,beta,,,23,19,V,R,
592,88,4,14,4,33,47,567,['c'],0,right,['8'],4,88,[0.11076727],97,47,medium,minus,dotcolour,beta,,,23,19,V,R,
593,89,5,14,4,27,53,450,['n'],1,right,['9'],5,204,[-0.08266835],75,53,easy,minus,dotcolour,beta,,,23,19,V,R,
594,90,6,14,4,36,44,750,['n'],1,right,['9'],5,207,[-0.10681698],88,44,hard,minus,dotcolour,beta,,,23,19,V,R,
595,91,7,14,4,47,33,765,['n'],0,left,['8'],4,193,[-0.15885059],99,47,medium,minus,dotcolour,beta,,,23,19,V,R,
596,92,8,14,4,33,47,516,['n'],1,right,['9'],5,318,[-0.13868213],93,47,medium,minus,dotcolour,beta,,,23,19,V,R,
597,93,9,14,4,44,36,863,['c'],1,left,['9'],5,104,[0.04876295],41,44,hard,minus,dotcolour,beta,,,23,19,V,R,
598,94,10,14,4,36,44,1164,['n'],1,right,['9'],5,430,[-0.16512942],95,44,hard,minus,dotcolour,beta,,,23,19,V,R,
599,95,11,14,4,36,44,1181,['n'],1,right,['8'],4,183,[-0.06518732],60,44,hard,minus,dotcolour,beta,,,23,19,V,R,
600,96,12,14,4,53,27,968,['c'],1,left,['9'],5,162,[0.09341109],84,53,easy,minus,dotcolour,beta,,,23,19,V,R,
601,97,13,14,4,33,47,1417,['n'],1,right,['9'],5,1109,[-0.02888894],39,47,medium,minus,dotcolour,beta,,,23,19,V,R,
602,98,14,14,4,47,33,783,['c'],1,left,['9'],5,162,[0.11155633],92,47,medium,minus,dotcolour,beta,,,23,19,V,R,
603,99,15,14,4,44,36,930,['c'],1,left,['8'],4,87,[0.08739278],87,44,hard,minus,dotcolour,beta,,,23,19,V,R,
604,100,16,14,4,44,36,732,['c'],1,left,['9'],5,144,[0.06522626],61,44,hard,minus,dotcolour,beta,,,23,19,V,R,
605,101,17,14,4,53,27,483,['c'],1,left,['9'],5,128,[0.10754447],93,53,easy,minus,dotcolour,beta,,,23,19,V,R,
606,102,18,14,4,36,44,748,['n'],1,right,['9'],5,134,[-0.06122168],57,44,hard,minus,dotcolour,beta,,,23,19,V,R,
607,103,19,14,4,53,27,1130,['c'],1,left,['9'],5,140,[0.08141112],78,53,easy,minus,dotcolour,beta,,,23,19,V,R,
608,104,20,14,4,53,27,846,['c'],1,left,['9'],5,166,[0.08943323],82,53,easy,minus,dotcolour,beta,,,23,19,V,R,
609,105,21,14,4,27,53,750,['n'],1,right,['9'],5,155,[-0.09282653],85,53,easy,minus,dotcolour,beta,,,23,19,V,R,
610,106,22,14,4,33,47,666,['n'],1,right,['8'],4,283,[-0.00865227],17,47,medium,minus,dotcolour,beta,,,23,19,V,R,
611,107,23,14,4,33,47,651,['n'],1,right,['9'],5,175,[-0.12809967],96,47,medium,minus,dotcolour,beta,,,23,19,V,R,
612,108,24,14,4,36,44,666,['n'],1,right,['9'],5,182,[-0.12518608],95,44,hard,minus,dotcolour,beta,,,23,19,V,R,
613,109,25,14,4,53,27,816,['c'],1,left,['9'],5,152,[0.10685756],91,53,easy,minus,dotcolour,beta,,,23,19,V,R,
614,110,26,14,4,27,53,617,['n'],1,right,['9'],5,194,[-0.04314305],38,53,easy,minus,dotcolour,beta,,,23,19,V,R,
615,111,27,14,4,27,53,766,['n'],1,right,['9'],5,149,[-0.08696648],81,53,easy,minus,dotcolour,beta,,,23,19,V,R,
616,112,28,14,4,44,36,849,['c'],1,left,['9'],5,166,[0.12534608],96,44,hard,minus,dotcolour,beta,,,23,19,V,R,
617,113,29,14,4,53,27,800,['c'],1,left,['9'],5,137,[0.03808586],30,53,easy,minus,dotcolour,beta,,,23,19,V,R,
618,114,30,14,4,27,53,683,['n'],1,right,['9'],5,130,[-0.04510564],37,53,easy,minus,dotcolour,beta,,,23,19,V,R,
619,115,31,14,4,47,33,767,['c'],1,left,['8'],4,463,[-0.03426391],9,47,medium,minus,dotcolour,beta,,,23,19,V,R,
620,116,32,14,4,36,44,833,['n'],1,right,['9'],5,148,[-0.02895096],22,44,hard,minus,dotcolour,beta,,,23,19,V,R,
621,117,33,14,4,33,47,816,['n'],1,right,['9'],5,159,[-0.01639837],15,47,medium,minus,dotcolour,beta,,,23,19,V,R,
622,118,34,14,4,47,33,683,['c'],1,left,['9'],5,142,[0.11587369],95,47,medium,minus,dotcolour,beta,,,23,19,V,R,
623,119,35,14,4,33,47,1299,['c'],0,right,['9'],5,149,[0.01383789],13,47,medium,minus,dotcolour,beta,,,23,19,V,R,
624,120,36,14,4,47,33,883,['c'],1,left,['9'],5,38,[0.07144217],81,47,medium,minus,dotcolour,beta,,,23,19,V,R,
625,121,37,14,4,47,33,497,['c'],1,left,['9'],5,113,[0.08413882],82,47,medium,minus,dotcolour,beta,,,23,19,V,R,
626,122,38,14,4,36,44,633,['n'],1,right,['9'],5,148,[-0.06678588],63,44,hard,minus,dotcolour,beta,,,23,19,V,R,
627,123,39,14,4,47,33,799,['c'],1,left,['9'],5,167,[0.11441987],93,47,medium,minus,dotcolour,beta,,,23,19,V,R,
628,124,40,14,4,27,53,1117,['c'],0,right,['9'],5,118,[0.09001633],86,53,easy,minus,dotcolour,beta,,,23,19,V,R,
629,125,41,14,4,27,53,1147,['n'],1,right,['9'],5,156,[-0.12902328],97,53,easy,minus,dotcolour,beta,,,23,19,V,R,
630,0,0,15,5,27,53,701,['n'],1,right,['9'],5,134,[-0.14370729],100,53,easy,plus,dotcolour,beta,,,23,19,V,R,
631,1,1,15,5,27,53,682,['n'],1,right,['9'],5,197,[-0.13070276],100,53,easy,plus,dotcolour,beta,,,23,19,V,R,
632,2,2,15,5,27,53,483,['n'],1,right,['8'],4,236,[-0.14686704],100,53,easy,plus,dotcolour,beta,,,23,19,V,R,
633,3,3,15,5,44,36,732,['c'],1,left,['9'],5,118,[0.02793927],99,44,hard,plus,dotcolour,beta,,,23,19,V,R,
634,4,4,15,5,27,53,1084,['n'],1,right,['9'],5,159,[-0.11749834],100,53,easy,plus,dotcolour,beta,,,23,19,V,R,
635,5,5,15,5,33,47,514,['n'],1,right,['9'],5,325,[-0.24327787],100,47,medium,plus,dotcolour,beta,,,23,19,V,R,
636,6,6,15,5,33,47,517,['n'],1,right,['9'],5,140,[-0.038304],99,47,medium,plus,dotcolour,beta,,,23,19,V,R,
637,7,7,15,5,47,33,564,['c'],1,left,['9'],5,105,[0.08688749],100,47,medium,plus,dotcolour,beta,,,23,19,V,R,
638,8,8,15,5,33,47,1349,['n'],1,right,['8'],4,129,[-0.05921131],100,47,medium,plus,dotcolour,beta,,,23,19,V,R,
639,9,9,15,5,53,27,531,['c'],1,left,['9'],5,104,[0.07079608],100,53,easy,plus,dotcolour,beta,,,23,19,V,R,
640,10,10,15,5,44,36,616,['n'],0,left,['8'],4,132,[-0.08060897],100,44,hard,plus,dotcolour,beta,,,23,19,V,R,
641,11,11,15,5,36,44,1431,['c'],0,right,['9'],5,143,[0.05204464],99,44,hard,plus,dotcolour,beta,,,23,19,V,R,
642,12,12,15,5,36,44,717,['n'],1,right,['8'],4,165,[-0.08142708],100,44,hard,plus,dotcolour,beta,,,23,19,V,R,
643,13,13,15,5,33,47,780,['c'],0,right,['9'],5,169,[0.09365772],100,47,medium,plus,dotcolour,beta,,,23,19,V,R,
644,14,14,15,5,44,36,1114,['c'],1,left,['9'],5,103,[0.06992535],100,44,hard,plus,dotcolour,beta,,,23,19,V,R,
645,15,15,15,5,44,36,930,['n'],0,left,['9'],5,191,[-0.12945665],100,44,hard,plus,dotcolour,beta,,,23,19,V,R,
646,16,16,15,5,33,47,1583,['c'],0,right,['9'],5,137,[0.07469299],100,47,medium,plus,dotcolour,beta,,,23,19,V,R,
647,17,17,15,5,53,27,800,['c'],1,left,['9'],5,173,[0.02184679],97,53,easy,plus,dotcolour,beta,,,23,19,V,R,
648,18,18,15,5,27,53,800,['n'],1,right,['9'],5,191,[-0.0260235],97,53,easy,plus,dotcolour,beta,,,23,19,V,R,
649,19,19,15,5,36,44,1066,['n'],1,right,['9'],5,165,[-0.14485223],100,44,hard,plus,dotcolour,beta,,,23,19,V,R,
650,20,20,15,5,47,33,699,['c'],1,left,['9'],5,148,[0.14750167],100,47,medium,plus,dotcolour,beta,,,23,19,V,R,
651,21,21,15,5,44,36,600,['c'],1,left,['9'],5,119,[0.07535995],100,44,hard,plus,dotcolour,beta,,,23,19,V,R,
652,22,22,15,5,53,27,750,['c'],1,left,['9'],5,294,[0.07856195],99,53,easy,plus,dotcolour,beta,,,23,19,V,R,
653,23,23,15,5,53,27,517,['c'],1,left,['0'],6,95,[0.10281672],100,53,easy,plus,dotcolour,beta,,,23,19,V,R,
654,24,24,15,5,36,44,567,['c'],0,right,['0'],6,134,[0.09671578],100,44,hard,plus,dotcolour,beta,,,23,19,V,R,
655,25,25,15,5,47,33,649,['c'],1,left,['9'],5,167,[0.14558826],100,47,medium,plus,dotcolour,beta,,,23,19,V,R,
656,26,26,15,5,44,36,533,['n'],0,left,['8'],4,189,[-0.04117409],98,44,hard,plus,dotcolour,beta,,,23,19,V,R,
657,27,27,15,5,47,33,966,['c'],1,left,['9'],5,136,[0.13180481],100,47,medium,plus,dotcolour,beta,,,23,19,V,R,
658,28,28,15,5,53,27,633,['c'],1,left,['9'],5,75,[0.08049063],100,53,easy,plus,dotcolour,beta,,,23,19,V,R,
659,29,29,15,5,44,36,813,['n'],0,left,['9'],5,128,[-0.0291166],99,44,hard,plus,dotcolour,beta,,,23,19,V,R,
660,30,30,15,5,36,44,999,['n'],1,right,['8'],4,325,[-0.1573944],100,44,hard,plus,dotcolour,beta,,,23,19,V,R,
661,31,31,15,5,47,33,849,['c'],1,left,['9'],5,134,[0.09623166],100,47,medium,plus,dotcolour,beta,,,23,19,V,R,
662,32,32,15,5,27,53,880,['c'],0,right,['1'],1,591,[-0.20040603],3,53,easy,plus,dotcolour,beta,,,23,19,V,R,
663,33,33,15,5,47,33,1150,['c'],1,left,['9'],5,338,[0.10617741],99,47,medium,plus,dotcolour,beta,,,23,19,V,R,
664,34,34,15,5,33,47,1549,['n'],1,right,['8'],4,167,[-0.04126656],99,47,medium,plus,dotcolour,beta,,,23,19,V,R,
665,35,35,15,5,53,27,1099,['n'],0,left,['9'],5,206,[-0.08272341],100,53,easy,plus,dotcolour,beta,,,23,19,V,R,
666,36,36,15,5,53,27,1082,['c'],1,left,['9'],5,99,[0.1212471],100,53,easy,plus,dotcolour,beta,,,23,19,V,R,
667,37,37,15,5,33,47,816,['n'],1,right,['9'],5,160,[-0.11863152],100,47,medium,plus,dotcolour,beta,,,23,19,V,R,
668,38,38,15,5,27,53,499,['n'],1,right,['9'],5,159,[-0.11639997],100,53,easy,plus,dotcolour,beta,,,23,19,V,R,
669,39,39,15,5,36,44,700,['n'],1,right,['8'],4,173,[-0.09335841],100,44,hard,plus,dotcolour,beta,,,23,19,V,R,
670,40,40,15,5,36,44,684,['n'],1,right,['9'],5,204,[-0.08216725],100,44,hard,plus,dotcolour,beta,,,23,19,V,R,
671,41,41,15,5,47,33,779,['c'],1,left,['8'],4,758,[-0.02785813],64,47,medium,plus,dotcolour,beta,,,23,19,V,R,
672,42,0,16,5,47,33,751,['n'],0,left,['8'],4,468,[0.02656393],68,47,medium,plus,dotcolour,beta,,,23,19,V,R,
673,43,1,16,5,33,47,999,['c'],0,right,['9'],5,130,[0.06695656],100,47,medium,plus,dotcolour,beta,,,23,19,V,R,
674,44,2,16,5,36,44,750,['n'],1,right,['9'],5,184,[-0.10082847],100,44,hard,plus,dotcolour,beta,,,23,19,V,R,
675,45,3,16,5,36,44,1583,['n'],1,right,['8'],4,267,[-0.12921264],100,44,hard,plus,dotcolour,beta,,,23,19,V,R,
676,46,4,16,5,27,53,1033,['n'],1,right,['9'],5,192,[-0.04748636],99,53,easy,plus,dotcolour,beta,,,23,19,V,R,
677,47,5,16,5,53,27,916,['c'],1,left,['9'],5,189,[0.07990541],100,53,easy,plus,dotcolour,beta,,,23,19,V,R,
678,48,6,16,5,44,36,533,['c'],1,left,['9'],5,121,[0.11264612],100,44,hard,plus,dotcolour,beta,,,23,19,V,R,
679,49,7,16,5,44,36,1133,['c'],1,left,['9'],5,201,[0.03874631],98,44,hard,plus,dotcolour,beta,,,23,19,V,R,
680,50,8,16,5,53,27,600,['c'],1,left,['9'],5,170,[0.09337546],100,53,easy,plus,dotcolour,beta,,,23,19,V,R,
681,51,9,16,5,53,27,584,['c'],1,left,['9'],5,157,[0.03439948],98,53,easy,plus,dotcolour,beta,,,23,19,V,R,
682,52,10,16,5,47,33,717,['c'],1,left,['9'],5,107,[0.14080355],100,47,medium,plus,dotcolour,beta,,,23,19,V,R,
683,53,11,16,5,27,53,1646,['n'],1,right,['8'],4,151,[-0.10422503],100,53,easy,plus,dotcolour,beta,,,23,19,V,R,
684,54,12,16,5,53,27,666,['c'],1,left,['9'],5,143,[0.11405896],100,53,easy,plus,dotcolour,beta,,,23,19,V,R,
685,55,13,16,5,36,44,783,['n'],1,right,['9'],5,139,[-0.07838595],100,44,hard,plus,dotcolour,beta,,,23,19,V,R,
686,56,14,16,5,36,44,717,['n'],1,right,['9'],5,322,[-0.0852621],99,44,hard,plus,dotcolour,beta,,,23,19,V,R,
687,57,15,16,5,33,47,1100,['n'],1,right,['9'],5,154,[-0.0789387],100,47,medium,plus,dotcolour,beta,,,23,19,V,R,
688,58,16,16,5,36,44,1331,['c'],0,right,['8'],4,167,[0.08485976],100,44,hard,plus,dotcolour,beta,,,23,19,V,R,
689,59,17,16,5,33,47,966,['c'],0,right,['8'],4,219,[0.04959367],98,47,medium,plus,dotcolour,beta,,,23,19,V,R,
690,60,18,16,5,53,27,1584,['c'],1,left,['9'],5,165,[0.053808],99,53,easy,plus,dotcolour,beta,,,23,19,V,R,
691,61,19,16,5,47,33,800,['n'],0,left,['8'],4,151,[-0.06188076],100,47,medium,plus,dotcolour,beta,,,23,19,V,R,
692,62,20,16,5,44,36,2450,['c'],1,left,['2'],2,1745,[0.22253081],98,44,hard,plus,dotcolour,beta,,,23,19,V,R,
693,63,21,16,5,36,44,1566,['n'],1,right,['8'],4,245,[-0.09905314],100,44,hard,plus,dotcolour,beta,,,23,19,V,R,
694,64,22,16,5,27,53,1197,['n'],1,right,['9'],5,501,[-0.16801273],100,53,easy,plus,dotcolour,beta,,,23,19,V,R,
695,65,23,16,5,27,53,483,['n'],1,right,['9'],5,166,[-0.04424376],99,53,easy,plus,dotcolour,beta,,,23,19,V,R,
696,66,24,16,5,53,27,715,['c'],1,left,['9'],5,100,[0.05143639],100,53,easy,plus,dotcolour,beta,,,23,19,V,R,
697,67,25,16,5,44,36,647,['c'],1,left,['8'],4,71,[0.11350055],100,44,hard,plus,dotcolour,beta,,,23,19,V,R,
698,68,26,16,5,27,53,518,['c'],0,right,['8'],4,49,[0.05118051],100,53,easy,plus,dotcolour,beta,,,23,19,V,R,
699,69,27,16,5,36,44,851,['n'],1,right,['9'],5,118,[-0.06195006],100,44,hard,plus,dotcolour,beta,,,23,19,V,R,
700,70,28,16,5,53,27,1034,['n'],0,left,['8'],4,121,[-0.14160818],100,53,easy,plus,dotcolour,beta,,,23,19,V,R,
701,71,29,16,5,33,47,1233,['n'],1,right,['8'],4,133,[-0.01058257],96,47,medium,plus,dotcolour,beta,,,23,19,V,R,
702,72,30,16,5,27,53,3100,['n'],1,right,['8'],4,341,[-0.12378325],100,53,easy,plus,dotcolour,beta,,,23,19,V,R,
703,73,31,16,5,27,53,666,['n'],1,right,['8'],4,133,[-0.06801811],100,53,easy,plus,dotcolour,beta,,,23,19,V,R,
704,74,32,16,5,44,36,1200,['n'],0,left,['8'],4,185,[-0.1202025],100,44,hard,plus,dotcolour,beta,,,23,19,V,R,
705,75,33,16,5,47,33,1467,['c'],1,left,['9'],5,184,[0.07679411],100,47,medium,plus,dotcolour,beta,,,23,19,V,R,
706,76,34,16,5,44,36,500,['c'],1,left,['9'],5,134,[0.06449341],100,44,hard,plus,dotcolour,beta,,,23,19,V,R,
707,77,35,16,5,44,36,548,['c'],1,left,['9'],5,76,[0.07693257],100,44,hard,plus,dotcolour,beta,,,23,19,V,R,
708,78,36,16,5,47,33,649,['c'],1,left,['8'],4,208,[0.03220262],97,47,medium,plus,dotcolour,beta,,,23,19,V,R,
709,79,37,16,5,33,47,983,['n'],1,right,['8'],4,161,[-0.10690878],100,47,medium,plus,dotcolour,beta,,,23,19,V,R,
710,80,38,16,5,33,47,582,['n'],1,right,['8'],4,197,[-0.1212231],100,47,medium,plus,dotcolour,beta,,,23,19,V,R,
711,81,39,16,5,47,33,616,['n'],0,left,['8'],4,741,[-0.10078383],96,47,medium,plus,dotcolour,beta,,,23,19,V,R,
712,82,40,16,5,47,33,983,['n'],0,left,['9'],5,225,[-0.09324162],100,47,medium,plus,dotcolour,beta,,,23,19,V,R,
713,83,41,16,5,33,47,1033,['n'],1,right,['9'],5,208,[-0.00758616],92,47,medium,plus,dotcolour,beta,,,23,19,V,R,
714,84,0,17,5,36,44,1116,['c'],0,right,['8'],4,129,[0.1200047],100,44,hard,plus,dotcolour,beta,,,23,19,V,R,
715,85,1,17,5,47,33,914,['c'],1,left,['2'],2,1456,[0.13051308],94,47,medium,plus,dotcolour,beta,,,23,19,V,R,
716,86,2,17,5,27,53,716,['n'],1,right,['9'],5,154,[-0.13682095],100,53,easy,plus,dotcolour,beta,,,23,19,V,R,
717,87,3,17,5,47,33,933,['c'],1,left,['9'],5,128,[0.13916707],100,47,medium,plus,dotcolour,beta,,,23,19,V,R,
718,88,4,17,5,33,47,800,['n'],1,right,['9'],5,156,[-0.11853606],100,47,medium,plus,dotcolour,beta,,,23,19,V,R,
719,89,5,17,5,44,36,716,['c'],1,left,['9'],5,66,[0.11910879],100,44,hard,plus,dotcolour,beta,,,23,19,V,R,
720,90,6,17,5,33,47,631,['n'],1,right,['9'],5,103,[-0.11344646],100,47,medium,plus,dotcolour,beta,,,23,19,V,R,
721,91,7,17,5,47,33,766,['c'],1,left,['9'],5,86,[0.08308426],100,47,medium,plus,dotcolour,beta,,,23,19,V,R,
722,92,8,17,5,44,36,701,['c'],1,left,['9'],5,112,[0.11976923],100,44,hard,plus,dotcolour,beta,,,23,19,V,R,
723,93,9,17,5,47,33,616,['c'],1,left,['9'],5,92,[0.07007355],100,47,medium,plus,dotcolour,beta,,,23,19,V,R,
724,94,10,17,5,47,33,500,['c'],1,left,['9'],5,21,[0.07802185],100,47,medium,plus,dotcolour,beta,,,23,19,V,R,
725,95,11,17,5,27,53,648,['n'],1,right,['9'],5,75,[-0.05659094],100,53,easy,plus,dotcolour,beta,,,23,19,V,R,
726,96,12,17,5,33,47,933,['n'],1,right,['8'],4,148,[-0.08221451],100,47,medium,plus,dotcolour,beta,,,23,19,V,R,
727,97,13,17,5,44,36,1814,['c'],1,left,['8'],4,103,[0.0428767],100,44,hard,plus,dotcolour,beta,,,23,19,V,R,
728,98,14,17,5,53,27,749,['c'],1,left,['9'],5,85,[0.10949667],100,53,easy,plus,dotcolour,beta,,,23,19,V,R,
729,99,15,17,5,47,33,1017,['c'],1,left,['8'],4,131,[0.13521231],100,47,medium,plus,dotcolour,beta,,,23,19,V,R,
730,100,16,17,5,53,27,733,['c'],1,left,['9'],5,105,[0.05609122],100,53,easy,plus,dotcolour,beta,,,23,19,V,R,
731,101,17,17,5,44,36,631,['c'],1,left,['9'],5,148,[0.11779551],100,44,hard,plus,dotcolour,beta,,,23,19,V,R,
732,102,18,17,5,36,44,849,['n'],1,right,['9'],5,134,[-0.10870374],100,44,hard,plus,dotcolour,beta,,,23,19,V,R,
733,103,19,17,5,53,27,2014,['c'],1,left,['9'],5,112,[0.08323942],100,53,easy,plus,dotcolour,beta,,,23,19,V,R,
734,104,20,17,5,27,53,2167,['n'],1,right,['8'],4,206,[-0.10246295],100,53,easy,plus,dotcolour,beta,,,23,19,V,R,
735,105,21,17,5,53,27,783,['c'],1,left,['9'],5,104,[0.07484015],100,53,easy,plus,dotcolour,beta,,,23,19,V,R,
736,106,22,17,5,36,44,750,['n'],1,right,['9'],5,136,[-0.08540664],100,44,hard,plus,dotcolour,beta,,,23,19,V,R,
737,107,23,17,5,27,53,647,['n'],1,right,['9'],5,394,[-0.12909444],100,53,easy,plus,dotcolour,beta,,,23,19,V,R,
738,108,24,17,5,33,47,1117,['c'],0,right,['9'],5,135,[-0.01135786],90,47,medium,plus,dotcolour,beta,,,23,19,V,R,
739,109,25,17,5,44,36,683,['c'],1,left,['9'],5,134,[0.07504531],100,44,hard,plus,dotcolour,beta,,,23,19,V,R,
740,110,26,17,5,53,27,515,['c'],1,left,['9'],5,118,[0.05953787],100,53,easy,plus,dotcolour,beta,,,23,19,V,R,
741,111,27,17,5,53,27,549,['c'],1,left,['9'],5,124,[0.03396328],99,53,easy,plus,dotcolour,beta,,,23,19,V,R,
742,112,28,17,5,33,47,833,['n'],1,right,['9'],5,119,[-0.12080959],100,47,medium,plus,dotcolour,beta,,,23,19,V,R,
743,113,29,17,5,53,27,732,['c'],1,left,['9'],5,166,[0.17774201],100,53,easy,plus,dotcolour,beta,,,23,19,V,R,
744,114,30,17,5,36,44,747,['c'],0,right,['9'],5,155,[0.09791083],100,44,hard,plus,dotcolour,beta,,,23,19,V,R,
745,115,31,17,5,47,33,550,['c'],1,left,['9'],5,152,[0.11881899],100,47,medium,plus,dotcolour,beta,,,23,19,V,R,
746,116,32,17,5,33,47,567,['c'],0,right,['9'],5,164,[0.04211783],99,47,medium,plus,dotcolour,beta,,,23,19,V,R,
747,117,33,17,5,27,53,400,['n'],1,right,['9'],5,151,[-0.10880897],100,53,easy,plus,dotcolour,beta,,,23,19,V,R,
748,118,34,17,5,44,36,716,['c'],1,left,['9'],5,94,[0.08326093],100,44,hard,plus,dotcolour,beta,,,23,19,V,R,
749,119,35,17,5,36,44,533,['n'],1,right,['9'],5,158,[-0.11727383],100,44,hard,plus,dotcolour,beta,,,23,19,V,R,
750,120,36,17,5,36,44,933,['c'],0,right,['8'],4,163,[0.05759523],99,44,hard,plus,dotcolour,beta,,,23,19,V,R,
751,121,37,17,5,27,53,765,['n'],1,right,['9'],5,127,[-0.04529124],99,53,easy,plus,dotcolour,beta,,,23,19,V,R,
752,122,38,17,5,36,44,684,['n'],1,right,['8'],4,232,[-0.05085686],98,44,hard,plus,dotcolour,beta,,,23,19,V,R,
753,123,39,17,5,33,47,499,['n'],1,right,['8'],4,156,[-0.05415416],99,47,medium,plus,dotcolour,beta,,,23,19,V,R,
754,124,40,17,5,44,36,1033,['c'],1,left,['9'],5,110,[0.0484008],100,44,hard,plus,dotcolour,beta,,,23,19,V,R,
755,125,41,17,5,27,53,1149,['n'],1,right,['8'],4,437,[-0.20240255],100,53,easy,plus,dotcolour,beta,,,23,19,V,R,
,,,,,,,,,,,,,,,,,,,,,1,,23,19,V,R,
,,,,,,,,,,,,,,,,,,,,,2,['f'],23,19,V,R,
,,,,,,,,,,,,,,,,,,,,,3,['d'],23,19,V,R,
,,,,,,,,,,,,,,,,,,,,,5,[],23,19,V,R,
