trial,withinphasetrial,withinblocktrial,block,phase,dotsLeft,dotsRight,rt,resp,cor,cresp,conf_press,cj,RTconf,ev,fb,diff,difflevel,condition,task,manip,questionID,questionResp,sub,age,gender,handedness,
0,0,0,0,0,44,36,2833,['n'],0,left,['2'],5,2567,[0.09877929],15,44,hard,minus,dotcolour,beta,,,29,18,V,R,
1,1,1,0,0,53,27,2950,['n'],0,left,['9'],2,1242,[0.33422161],0,53,easy,minus,dotcolour,beta,,,29,18,V,R,
2,2,2,0,0,33,47,1699,['c'],0,right,['3'],4,1996,[-0.06701982],17,47,medium,minus,dotcolour,beta,,,29,18,V,R,
3,3,3,0,0,53,27,1365,['c'],1,left,['3'],4,886,[0.20131382],94,53,easy,minus,dotcolour,beta,,,29,18,V,R,
4,4,4,0,0,47,33,1165,['c'],1,left,['1'],6,813,[0.23361738],97,47,medium,minus,dotcolour,beta,,,29,18,V,R,
5,5,5,0,0,27,53,2731,['n'],1,right,['9'],2,1360,[-0.13581423],78,53,easy,minus,dotcolour,beta,,,29,18,V,R,
6,6,6,0,0,33,47,2115,['c'],0,right,['3'],4,1013,[0.03423037],41,47,medium,minus,dotcolour,beta,,,29,18,V,R,
7,7,7,0,0,53,27,1865,['n'],0,left,['8'],3,723,[-0.00814812],27,53,easy,minus,dotcolour,beta,,,29,18,V,R,
8,8,8,0,0,27,53,1600,['n'],1,right,['3'],4,862,[-0.16482671],89,53,easy,minus,dotcolour,beta,,,29,18,V,R,
9,9,9,0,0,47,33,1149,['c'],1,left,['3'],4,478,[0.12308682],85,47,medium,minus,dotcolour,beta,,,29,18,V,R,
10,10,10,0,0,27,53,1199,['c'],0,right,['3'],4,356,[-0.14538365],0,53,easy,minus,dotcolour,beta,,,29,18,V,R,
11,11,11,0,0,36,44,1332,['n'],1,right,['3'],4,762,[-0.19253849],94,44,hard,minus,dotcolour,beta,,,29,18,V,R,
12,12,12,0,0,47,33,1517,['c'],1,left,['3'],4,288,[0.05158072],47,47,medium,minus,dotcolour,beta,,,29,18,V,R,
13,13,13,0,0,36,44,1382,['n'],1,right,['8'],3,574,[-0.18825355],96,44,hard,minus,dotcolour,beta,,,29,18,V,R,
14,14,14,0,0,47,33,2833,['n'],0,left,['0'],1,631,[0.05587027],7,47,medium,minus,dotcolour,beta,,,29,18,V,R,
15,15,15,0,0,36,44,1832,['c'],0,right,['3'],4,398,[0.07502198],64,44,hard,minus,dotcolour,beta,,,29,18,V,R,
16,16,16,0,0,27,53,883,['n'],1,right,['8'],3,644,[-0.17568139],94,53,easy,minus,dotcolour,beta,,,29,18,V,R,
17,17,17,0,0,47,33,1131,['c'],1,left,['3'],4,350,[0.10964008],84,47,medium,minus,dotcolour,beta,,,29,18,V,R,
18,18,18,0,0,44,36,1666,['c'],1,left,['3'],4,214,[0.08236035],74,44,hard,minus,dotcolour,beta,,,29,18,V,R,
19,19,19,0,0,27,53,1682,['n'],1,right,['2'],5,355,[-0.05401515],49,53,easy,minus,dotcolour,beta,,,29,18,V,R,
20,20,20,0,0,44,36,1546,['c'],1,left,['8'],3,808,[0.10746588],74,44,hard,minus,dotcolour,beta,,,29,18,V,R,
21,21,21,0,0,47,33,2016,['n'],0,left,['9'],2,328,[-0.15690649],96,47,medium,minus,dotcolour,beta,,,29,18,V,R,
22,22,22,0,0,33,47,1132,['c'],0,right,['3'],4,439,[-0.03728522],7,47,medium,minus,dotcolour,beta,,,29,18,V,R,
23,23,23,0,0,53,27,1448,['n'],0,left,['2'],5,940,[0.03575464],16,53,easy,minus,dotcolour,beta,,,29,18,V,R,
24,24,24,0,0,44,36,1083,['c'],1,left,['2'],5,764,[0.1553389],89,44,hard,minus,dotcolour,beta,,,29,18,V,R,
25,25,25,0,0,36,44,1466,['n'],1,right,['9'],2,676,[-0.06731882],56,44,hard,minus,dotcolour,beta,,,29,18,V,R,
26,26,26,0,0,33,47,848,['c'],0,right,['3'],4,360,[0.03181172],33,47,medium,minus,dotcolour,beta,,,29,18,V,R,
27,27,27,0,0,44,36,616,['n'],0,left,['9'],2,322,[-0.09074567],75,44,hard,minus,dotcolour,beta,,,29,18,V,R,
28,28,28,0,0,47,33,981,['c'],1,left,['2'],5,655,[0.18195659],94,47,medium,minus,dotcolour,beta,,,29,18,V,R,
29,29,29,0,0,53,27,383,['n'],0,left,['9'],2,350,[-0.06148111],54,53,easy,minus,dotcolour,beta,,,29,18,V,R,
30,30,30,0,0,53,27,1783,['c'],1,left,['2'],5,282,[0.151588],96,53,easy,minus,dotcolour,beta,,,29,18,V,R,
31,31,31,0,0,36,44,948,['n'],1,right,['0'],1,234,[-0.08896009],78,44,hard,minus,dotcolour,beta,,,29,18,V,R,
32,32,32,0,0,27,53,2116,['c'],0,right,['3'],4,581,[-0.0386221],10,53,easy,minus,dotcolour,beta,,,29,18,V,R,
33,33,33,0,0,33,47,1148,['c'],0,right,['2'],5,482,[-0.08628612],2,47,medium,minus,dotcolour,beta,,,29,18,V,R,
34,34,34,0,0,44,36,1130,['c'],1,left,['0'],1,978,[0.03304715],40,44,hard,minus,dotcolour,beta,,,29,18,V,R,
35,35,35,0,0,53,27,948,['c'],1,left,['2'],5,574,[0.19944055],97,53,easy,minus,dotcolour,beta,,,29,18,V,R,
36,36,36,0,0,36,44,1114,['n'],1,right,['2'],5,707,[-0.03869589],41,44,hard,minus,dotcolour,beta,,,29,18,V,R,
37,37,37,0,0,33,47,1397,['n'],1,right,['9'],2,336,[-0.03327204],33,47,medium,minus,dotcolour,beta,,,29,18,V,R,
38,38,38,0,0,36,44,665,['c'],0,right,['9'],2,937,[0.09065081],66,44,hard,minus,dotcolour,beta,,,29,18,V,R,
39,39,39,0,0,44,36,1081,['c'],1,left,['2'],5,393,[0.05381433],49,44,hard,minus,dotcolour,beta,,,29,18,V,R,
40,40,40,0,0,33,47,1099,['c'],0,right,['3'],4,463,[0.01596327],26,47,medium,minus,dotcolour,beta,,,29,18,V,R,
41,41,41,0,0,27,53,1015,['n'],1,right,['2'],5,925,[-0.23573984],97,53,easy,minus,dotcolour,beta,,,29,18,V,R,
42,42,0,1,0,33,47,1483,['c'],0,right,['3'],4,689,[0.05142203],48,47,medium,minus,dotcolour,beta,,,29,18,V,R,
43,43,1,1,0,27,53,966,['n'],1,right,['8'],3,896,[-0.20632036],95,53,easy,minus,dotcolour,beta,,,29,18,V,R,
44,44,2,1,0,36,44,1214,['n'],1,right,['3'],4,477,[-0.05377079],49,44,hard,minus,dotcolour,beta,,,29,18,V,R,
45,45,3,1,0,44,36,1033,['c'],1,left,['2'],5,433,[0.17027393],96,44,hard,minus,dotcolour,beta,,,29,18,V,R,
46,46,4,1,0,33,47,1048,['n'],1,right,['3'],4,575,[-0.1430271],89,47,medium,minus,dotcolour,beta,,,29,18,V,R,
47,47,5,1,0,44,36,932,['c'],1,left,['2'],5,292,[-0.02130782],7,44,hard,minus,dotcolour,beta,,,29,18,V,R,
48,48,6,1,0,47,33,1132,['n'],0,left,['3'],4,468,[0.00538874],17,47,medium,minus,dotcolour,beta,,,29,18,V,R,
49,49,7,1,0,53,27,1582,['n'],0,left,['9'],2,267,[-0.08465643],73,53,easy,minus,dotcolour,beta,,,29,18,V,R,
50,50,8,1,0,53,27,1098,['c'],1,left,['3'],4,309,[0.20419363],99,53,easy,minus,dotcolour,beta,,,29,18,V,R,
51,51,9,1,0,53,27,767,['c'],1,left,['1'],6,307,[0.08556074],73,53,easy,minus,dotcolour,beta,,,29,18,V,R,
52,52,10,1,0,33,47,882,['n'],1,right,['2'],5,340,[-0.09561316],77,47,medium,minus,dotcolour,beta,,,29,18,V,R,
53,53,11,1,0,36,44,1032,['c'],0,right,['2'],5,279,[0.0324023],31,44,hard,minus,dotcolour,beta,,,29,18,V,R,
54,54,12,1,0,53,27,716,['c'],1,left,['2'],5,320,[0.08167579],70,53,easy,minus,dotcolour,beta,,,29,18,V,R,
55,55,13,1,0,44,36,1365,['c'],1,left,['3'],4,317,[0.07697853],66,44,hard,minus,dotcolour,beta,,,29,18,V,R,
56,56,14,1,0,47,33,947,['c'],1,left,['2'],5,323,[0.0965823],79,47,medium,minus,dotcolour,beta,,,29,18,V,R,
57,57,15,1,0,44,36,831,['c'],1,left,['3'],4,294,[0.17744008],98,44,hard,minus,dotcolour,beta,,,29,18,V,R,
58,58,16,1,0,27,53,881,['n'],1,right,['3'],4,568,[-0.22916341],98,53,easy,minus,dotcolour,beta,,,29,18,V,R,
59,59,17,1,0,47,33,882,['c'],1,left,['8'],3,599,[0.07233165],60,47,medium,minus,dotcolour,beta,,,29,18,V,R,
60,60,18,1,0,53,27,732,['c'],1,left,['8'],3,411,[0.08819991],71,53,easy,minus,dotcolour,beta,,,29,18,V,R,
61,61,19,1,0,47,33,664,['c'],1,left,['8'],3,321,[0.09982881],80,47,medium,minus,dotcolour,beta,,,29,18,V,R,
62,62,20,1,0,27,53,701,['n'],1,right,['3'],4,345,[-0.16748633],97,53,easy,minus,dotcolour,beta,,,29,18,V,R,
63,63,21,1,0,47,33,749,['n'],0,left,['3'],4,327,[-0.00483364],17,47,medium,minus,dotcolour,beta,,,29,18,V,R,
64,64,22,1,0,36,44,1249,['n'],1,right,['8'],3,401,[-0.12902606],89,44,hard,minus,dotcolour,beta,,,29,18,V,R,
65,65,23,1,0,27,53,1416,['n'],1,right,['3'],4,289,[-0.15183445],96,53,easy,minus,dotcolour,beta,,,29,18,V,R,
66,66,24,1,0,53,27,666,['c'],1,left,['3'],4,219,[0.01847668],19,53,easy,minus,dotcolour,beta,,,29,18,V,R,
67,67,25,1,0,33,47,932,['n'],1,right,['3'],4,791,[-0.17888017],92,47,medium,minus,dotcolour,beta,,,29,18,V,R,
68,68,26,1,0,27,53,899,['n'],1,right,['3'],4,332,[-0.0190629],24,53,easy,minus,dotcolour,beta,,,29,18,V,R,
69,69,27,1,0,44,36,847,['c'],1,left,['3'],4,310,[0.02087688],25,44,hard,minus,dotcolour,beta,,,29,18,V,R,
70,70,28,1,0,33,47,666,['n'],1,right,['8'],3,312,[-0.05724654],51,47,medium,minus,dotcolour,beta,,,29,18,V,R,
71,71,29,1,0,36,44,866,['c'],0,right,['3'],4,426,[0.01375712],24,44,hard,minus,dotcolour,beta,,,29,18,V,R,
72,72,30,1,0,53,27,698,['n'],0,left,['8'],3,246,[0.00222285],11,53,easy,minus,dotcolour,beta,,,29,18,V,R,
73,73,31,1,0,47,33,1214,['c'],1,left,['0'],1,269,[0.15913563],97,47,medium,minus,dotcolour,beta,,,29,18,V,R,
74,74,32,1,0,27,53,1116,['n'],1,right,['3'],4,351,[-0.11592864],86,53,easy,minus,dotcolour,beta,,,29,18,V,R,
75,75,33,1,0,36,44,833,['c'],0,right,['9'],2,264,[0.02325049],24,44,hard,minus,dotcolour,beta,,,29,18,V,R,
76,76,34,1,0,44,36,684,['c'],1,left,['9'],2,412,[0.01796888],26,44,hard,minus,dotcolour,beta,,,29,18,V,R,
77,77,35,1,0,36,44,815,['n'],1,right,['8'],3,283,[-0.08543017],73,44,hard,minus,dotcolour,beta,,,29,18,V,R,
78,78,36,1,0,36,44,932,['c'],0,right,['3'],4,268,[0.12903919],93,44,hard,minus,dotcolour,beta,,,29,18,V,R,
79,79,37,1,0,47,33,699,['c'],1,left,['3'],4,551,[0.12945074],86,47,medium,minus,dotcolour,beta,,,29,18,V,R,
80,80,38,1,0,27,53,682,['n'],1,right,['8'],3,174,[-0.06433496],59,53,easy,minus,dotcolour,beta,,,29,18,V,R,
81,81,39,1,0,33,47,1315,['c'],0,right,['9'],2,1955,[-0.12138793],9,47,medium,minus,dotcolour,beta,,,29,18,V,R,
82,82,40,1,0,33,47,715,['c'],0,right,['3'],4,282,[0.00426127],15,47,medium,minus,dotcolour,beta,,,29,18,V,R,
83,83,41,1,0,44,36,1133,['n'],0,left,['9'],2,346,[-0.03965559],38,44,hard,minus,dotcolour,beta,,,29,18,V,R,
84,84,0,2,0,36,44,866,['n'],1,right,['8'],3,295,[-0.08535192],73,44,hard,minus,dotcolour,beta,,,29,18,V,R,
85,85,1,2,0,53,27,615,['c'],1,left,['3'],4,251,[0.09182966],79,53,easy,minus,dotcolour,beta,,,29,18,V,R,
86,86,2,2,0,36,44,582,['c'],0,right,['3'],4,259,[0.13762848],95,44,hard,minus,dotcolour,beta,,,29,18,V,R,
87,87,3,2,0,36,44,698,['c'],0,right,['9'],2,565,[-0.03006375],11,44,hard,minus,dotcolour,beta,,,29,18,V,R,
88,88,4,2,0,53,27,365,['c'],1,left,['3'],4,369,[0.12266395],88,53,easy,minus,dotcolour,beta,,,29,18,V,R,
89,89,5,2,0,53,27,729,['c'],1,left,['1'],6,254,[0.14540933],96,53,easy,minus,dotcolour,beta,,,29,18,V,R,
90,90,6,2,0,47,33,616,['c'],1,left,['1'],6,204,[0.06693333],61,47,medium,minus,dotcolour,beta,,,29,18,V,R,
91,91,7,2,0,33,47,933,['n'],1,right,['8'],3,392,[-0.11433898],84,47,medium,minus,dotcolour,beta,,,29,18,V,R,
92,92,8,2,0,47,33,966,['n'],0,left,['3'],4,187,[-0.05654624],51,47,medium,minus,dotcolour,beta,,,29,18,V,R,
93,93,9,2,0,36,44,649,['n'],1,right,['9'],2,699,[-0.06231903],54,44,hard,minus,dotcolour,beta,,,29,18,V,R,
94,94,10,2,0,36,44,767,['c'],0,right,['3'],4,289,[-0.01637292],8,44,hard,minus,dotcolour,beta,,,29,18,V,R,
95,95,11,2,0,53,27,615,['c'],1,left,['1'],6,174,[0.09612334],85,53,easy,minus,dotcolour,beta,,,29,18,V,R,
96,96,12,2,0,44,36,582,['c'],1,left,['3'],4,289,[0.01552127],21,44,hard,minus,dotcolour,beta,,,29,18,V,R,
97,97,13,2,0,53,27,747,['c'],1,left,['1'],6,256,[0.17841143],99,53,easy,minus,dotcolour,beta,,,29,18,V,R,
98,98,14,2,0,33,47,600,['c'],0,right,['2'],5,255,[0.06614965],59,47,medium,minus,dotcolour,beta,,,29,18,V,R,
99,99,15,2,0,27,53,733,['n'],1,right,['3'],4,585,[-0.11933365],82,53,easy,minus,dotcolour,beta,,,29,18,V,R,
100,100,16,2,0,33,47,866,['n'],1,right,['2'],5,272,[-0.19015926],99,47,medium,minus,dotcolour,beta,,,29,18,V,R,
101,101,17,2,0,47,33,1299,['c'],1,left,['1'],6,202,[0.00788657],13,47,medium,minus,dotcolour,beta,,,29,18,V,R,
102,102,18,2,0,44,36,1181,['c'],1,left,['2'],5,2044,[0.44891383],99,44,hard,minus,dotcolour,beta,,,29,18,V,R,
103,103,19,2,0,36,44,716,['n'],1,right,['3'],4,678,[-0.12929661],83,44,hard,minus,dotcolour,beta,,,29,18,V,R,
104,104,20,2,0,53,27,699,['c'],1,left,['3'],4,449,[0.09017755],72,53,easy,minus,dotcolour,beta,,,29,18,V,R,
105,105,21,2,0,33,47,1099,['c'],0,right,['3'],4,523,[0.07747479],63,47,medium,minus,dotcolour,beta,,,29,18,V,R,
106,106,22,2,0,44,36,816,['c'],1,left,['2'],5,335,[0.03978965],38,44,hard,minus,dotcolour,beta,,,29,18,V,R,
107,107,23,2,0,27,53,782,['n'],1,right,['8'],3,651,[-0.13018499],84,53,easy,minus,dotcolour,beta,,,29,18,V,R,
108,108,24,2,0,33,47,766,['n'],1,right,['3'],4,276,[-0.10011384],82,47,medium,minus,dotcolour,beta,,,29,18,V,R,
109,109,25,2,0,27,53,681,['n'],1,right,['3'],4,623,[-0.22309726],98,53,easy,minus,dotcolour,beta,,,29,18,V,R,
110,110,26,2,0,47,33,1199,['c'],1,left,['3'],4,319,[0.07493555],65,47,medium,minus,dotcolour,beta,,,29,18,V,R,
111,111,27,2,0,27,53,297,['n'],1,right,['3'],4,360,[-0.10741448],83,53,easy,minus,dotcolour,beta,,,29,18,V,R,
112,112,28,2,0,33,47,1999,['n'],1,right,['1'],6,2346,[-0.44658429],99,47,medium,minus,dotcolour,beta,,,29,18,V,R,
113,113,29,2,0,53,27,599,['c'],1,left,['3'],4,245,[0.08967576],78,53,easy,minus,dotcolour,beta,,,29,18,V,R,
114,114,30,2,0,47,33,316,['n'],0,left,['8'],3,255,[0.029914],5,47,medium,minus,dotcolour,beta,,,29,18,V,R,
115,115,31,2,0,47,33,1400,['n'],0,left,['3'],4,446,[-0.16879477],95,47,medium,minus,dotcolour,beta,,,29,18,V,R,
116,116,32,2,0,33,47,848,['n'],1,right,['3'],4,243,[-0.0559293],50,47,medium,minus,dotcolour,beta,,,29,18,V,R,
117,117,33,2,0,47,33,933,['c'],1,left,['3'],4,197,[0.12207004],94,47,medium,minus,dotcolour,beta,,,29,18,V,R,
118,118,34,2,0,44,36,599,['c'],1,left,['3'],4,239,[0.14325903],96,44,hard,minus,dotcolour,beta,,,29,18,V,R,
119,119,35,2,0,44,36,932,['c'],1,left,['9'],2,345,[0.11141547],85,44,hard,minus,dotcolour,beta,,,29,18,V,R,
120,120,36,2,0,27,53,832,['n'],1,right,['3'],4,323,[-0.09280711],76,53,easy,minus,dotcolour,beta,,,29,18,V,R,
121,121,37,2,0,27,53,119,['n'],1,right,['9'],2,175,[-0.15601249],99,53,easy,minus,dotcolour,beta,,,29,18,V,R,
122,122,38,2,0,27,53,349,['c'],0,right,['0'],1,819,[-0.00904618],22,53,easy,minus,dotcolour,beta,,,29,18,V,R,
123,123,39,2,0,44,36,1099,['c'],1,left,['3'],4,495,[0.17499674],96,44,hard,minus,dotcolour,beta,,,29,18,V,R,
124,124,40,2,0,36,44,1033,['n'],1,right,['9'],2,259,[-0.16364255],98,44,hard,minus,dotcolour,beta,,,29,18,V,R,
125,125,41,2,0,44,36,784,['c'],1,left,['3'],4,410,[0.02733119],31,44,hard,minus,dotcolour,beta,,,29,18,V,R,
126,0,0,3,1,27,53,934,['c'],0,right,['3'],4,306,[-0.03431793],67,53,easy,plus,dotcolour,beta,,,29,18,V,R,
127,1,1,3,1,47,33,1181,['c'],1,left,['2'],5,247,[0.10263096],100,47,medium,plus,dotcolour,beta,,,29,18,V,R,
128,2,2,3,1,44,36,815,['c'],1,left,['2'],5,334,[0.1112251],99,44,hard,plus,dotcolour,beta,,,29,18,V,R,
129,3,3,3,1,36,44,766,['n'],1,right,['8'],3,490,[-0.14454375],99,44,hard,plus,dotcolour,beta,,,29,18,V,R,
130,4,4,3,1,36,44,480,['n'],1,right,['3'],4,276,[-0.14372498],100,44,hard,plus,dotcolour,beta,,,29,18,V,R,
131,5,5,3,1,44,36,1049,['c'],1,left,['3'],4,304,[0.03958371],96,44,hard,plus,dotcolour,beta,,,29,18,V,R,
132,6,6,3,1,47,33,815,['c'],1,left,['3'],4,293,[0.1369399],100,47,medium,plus,dotcolour,beta,,,29,18,V,R,
133,7,7,3,1,44,36,781,['c'],1,left,['2'],5,275,[0.15125074],100,44,hard,plus,dotcolour,beta,,,29,18,V,R,
134,8,8,3,1,44,36,566,['c'],1,left,['2'],5,330,[0.08996607],99,44,hard,plus,dotcolour,beta,,,29,18,V,R,
135,9,9,3,1,33,47,865,['c'],0,right,['2'],5,340,[0.02320686],92,47,medium,plus,dotcolour,beta,,,29,18,V,R,
136,10,10,3,1,53,27,683,['c'],1,left,['2'],5,340,[0.13204212],100,53,easy,plus,dotcolour,beta,,,29,18,V,R,
137,11,11,3,1,33,47,416,['c'],0,right,['3'],4,390,[0.07004033],97,47,medium,plus,dotcolour,beta,,,29,18,V,R,
138,12,12,3,1,27,53,733,['n'],1,right,['3'],4,330,[-0.09082526],99,53,easy,plus,dotcolour,beta,,,29,18,V,R,
139,13,13,3,1,44,36,882,['c'],1,left,['3'],4,195,[0.18514832],100,44,hard,plus,dotcolour,beta,,,29,18,V,R,
140,14,14,3,1,47,33,915,['c'],1,left,['3'],4,327,[0.15825587],100,47,medium,plus,dotcolour,beta,,,29,18,V,R,
141,15,15,3,1,27,53,265,['c'],0,right,['2'],5,321,[0.03612353],95,53,easy,plus,dotcolour,beta,,,29,18,V,R,
142,16,16,3,1,33,47,316,['c'],0,right,['2'],5,272,[0.13937519],100,47,medium,plus,dotcolour,beta,,,29,18,V,R,
143,17,17,3,1,47,33,883,['c'],1,left,['2'],5,300,[0.01416653],91,47,medium,plus,dotcolour,beta,,,29,18,V,R,
144,18,18,3,1,27,53,732,['n'],1,right,['3'],4,220,[-0.15720572],100,53,easy,plus,dotcolour,beta,,,29,18,V,R,
145,19,19,3,1,36,44,783,['c'],0,right,['3'],4,253,[0.03646589],96,44,hard,plus,dotcolour,beta,,,29,18,V,R,
146,20,20,3,1,47,33,933,['c'],1,left,['8'],3,271,[0.11221093],100,47,medium,plus,dotcolour,beta,,,29,18,V,R,
147,21,21,3,1,33,47,682,['c'],0,right,['8'],3,330,[0.10343141],99,47,medium,plus,dotcolour,beta,,,29,18,V,R,
148,22,22,3,1,53,27,932,['c'],1,left,['3'],4,3185,[0.23198422],95,53,easy,plus,dotcolour,beta,,,29,18,V,R,
149,23,23,3,1,33,47,933,['n'],1,right,['8'],3,300,[-0.11012305],100,47,medium,plus,dotcolour,beta,,,29,18,V,R,
150,24,24,3,1,27,53,1199,['n'],1,right,['9'],2,506,[-0.09038306],98,53,easy,plus,dotcolour,beta,,,29,18,V,R,
151,25,25,3,1,44,36,482,['n'],0,left,['3'],4,267,[-0.01731134],93,44,hard,plus,dotcolour,beta,,,29,18,V,R,
152,26,26,3,1,47,33,782,['n'],0,left,['3'],4,202,[-0.0815927],100,47,medium,plus,dotcolour,beta,,,29,18,V,R,
153,27,27,3,1,53,27,549,['c'],1,left,['3'],4,277,[0.1173923],100,53,easy,plus,dotcolour,beta,,,29,18,V,R,
154,28,28,3,1,27,53,515,['c'],0,right,['3'],4,271,[0.07626401],99,53,easy,plus,dotcolour,beta,,,29,18,V,R,
155,29,29,3,1,53,27,699,['c'],1,left,['2'],5,297,[0.07270937],99,53,easy,plus,dotcolour,beta,,,29,18,V,R,
156,30,30,3,1,33,47,515,['c'],0,right,['3'],4,370,[-0.06018076],47,47,medium,plus,dotcolour,beta,,,29,18,V,R,
157,31,31,3,1,36,44,633,['n'],1,right,['9'],2,266,[-0.14008458],100,44,hard,plus,dotcolour,beta,,,29,18,V,R,
158,32,32,3,1,27,53,683,['n'],1,right,['9'],2,309,[0.02550938],73,53,easy,plus,dotcolour,beta,,,29,18,V,R,
159,33,33,3,1,44,36,58,['n'],0,left,['3'],4,562,[-0.04332985],91,44,hard,plus,dotcolour,beta,,,29,18,V,R,
160,34,34,3,1,53,27,616,['c'],1,left,['2'],5,292,[0.16815525],100,53,easy,plus,dotcolour,beta,,,29,18,V,R,
161,35,35,3,1,47,33,632,['c'],1,left,['3'],4,344,[0.04486251],96,47,medium,plus,dotcolour,beta,,,29,18,V,R,
162,36,36,3,1,36,44,665,['c'],0,right,['2'],5,265,[-0.0082099],84,44,hard,plus,dotcolour,beta,,,29,18,V,R,
163,37,37,3,1,53,27,1416,['n'],0,left,['8'],3,215,[-0.07484525],99,53,easy,plus,dotcolour,beta,,,29,18,V,R,
164,38,38,3,1,36,44,882,['n'],1,right,['3'],4,229,[-0.04725452],98,44,hard,plus,dotcolour,beta,,,29,18,V,R,
165,39,39,3,1,36,44,731,['n'],1,right,['8'],3,599,[-0.06988036],95,44,hard,plus,dotcolour,beta,,,29,18,V,R,
166,40,40,3,1,53,27,715,['c'],1,left,['3'],4,324,[0.22987073],100,53,easy,plus,dotcolour,beta,,,29,18,V,R,
167,41,41,3,1,33,47,680,['c'],0,right,['3'],4,244,[0.12449986],100,47,medium,plus,dotcolour,beta,,,29,18,V,R,
168,42,0,4,1,27,53,1450,['n'],1,right,['8'],3,372,[-0.12634827],100,53,easy,plus,dotcolour,beta,,,29,18,V,R,
169,43,1,4,1,33,47,649,['n'],1,right,['3'],4,276,[-0.14087043],100,47,medium,plus,dotcolour,beta,,,29,18,V,R,
170,44,2,4,1,36,44,849,['n'],1,right,['3'],4,225,[-0.08919718],100,44,hard,plus,dotcolour,beta,,,29,18,V,R,
171,45,3,4,1,33,47,499,['n'],1,right,['3'],4,340,[-0.1589042],100,47,medium,plus,dotcolour,beta,,,29,18,V,R,
172,46,4,4,1,47,33,814,['c'],1,left,['3'],4,191,[0.11023796],100,47,medium,plus,dotcolour,beta,,,29,18,V,R,
173,47,5,4,1,47,33,483,['c'],1,left,['3'],4,197,[0.07369504],99,47,medium,plus,dotcolour,beta,,,29,18,V,R,
174,48,6,4,1,44,36,316,['n'],0,left,['8'],3,154,[-0.0408252],99,44,hard,plus,dotcolour,beta,,,29,18,V,R,
175,49,7,4,1,53,27,1916,['c'],1,left,['3'],4,481,[0.11184299],99,53,easy,plus,dotcolour,beta,,,29,18,V,R,
176,50,8,4,1,36,44,600,['c'],0,right,['3'],4,230,[-0.0100572],85,44,hard,plus,dotcolour,beta,,,29,18,V,R,
177,51,9,4,1,36,44,450,['n'],1,right,['3'],4,244,[-0.10878908],100,44,hard,plus,dotcolour,beta,,,29,18,V,R,
178,52,10,4,1,27,53,548,['n'],1,right,['3'],4,198,[-0.06833738],99,53,easy,plus,dotcolour,beta,,,29,18,V,R,
179,53,11,4,1,44,36,399,['n'],0,left,['3'],4,199,[-0.09705405],100,44,hard,plus,dotcolour,beta,,,29,18,V,R,
180,54,12,4,1,33,47,449,['c'],0,right,['3'],4,182,[0.09793969],100,47,medium,plus,dotcolour,beta,,,29,18,V,R,
181,55,13,4,1,53,27,381,['c'],1,left,['3'],4,153,[0.11237242],100,53,easy,plus,dotcolour,beta,,,29,18,V,R,
182,56,14,4,1,53,27,415,['c'],1,left,['3'],4,116,[0.05543967],100,53,easy,plus,dotcolour,beta,,,29,18,V,R,
183,57,15,4,1,27,53,548,['c'],0,right,['3'],4,146,[0.05841271],100,53,easy,plus,dotcolour,beta,,,29,18,V,R,
184,58,16,4,1,27,53,2581,['n'],1,right,['8'],3,670,[-0.10049797],97,53,easy,plus,dotcolour,beta,,,29,18,V,R,
185,59,17,4,1,27,53,682,['c'],0,right,['2'],5,121,[0.04788952],100,53,easy,plus,dotcolour,beta,,,29,18,V,R,
186,60,18,4,1,33,47,1714,['c'],0,right,['2'],5,153,[0.1377896],100,47,medium,plus,dotcolour,beta,,,29,18,V,R,
187,61,19,4,1,44,36,550,['c'],1,left,['3'],4,166,[0.09955767],100,44,hard,plus,dotcolour,beta,,,29,18,V,R,
188,62,20,4,1,53,27,849,['c'],1,left,['2'],5,271,[0.15896078],100,53,easy,plus,dotcolour,beta,,,29,18,V,R,
189,63,21,4,1,44,36,37,['c'],1,left,['3'],4,21,[0.0761067],100,44,hard,plus,dotcolour,beta,,,29,18,V,R,
190,64,22,4,1,33,47,600,['n'],1,right,['3'],4,549,[-0.0818502],97,47,medium,plus,dotcolour,beta,,,29,18,V,R,
191,65,23,4,1,53,27,949,['c'],1,left,['3'],4,362,[0.20546666],100,53,easy,plus,dotcolour,beta,,,29,18,V,R,
192,66,24,4,1,27,53,649,['n'],1,right,['3'],4,331,[-0.1297335],100,53,easy,plus,dotcolour,beta,,,29,18,V,R,
193,67,25,4,1,53,27,966,['c'],1,left,['3'],4,161,[0.08656747],100,53,easy,plus,dotcolour,beta,,,29,18,V,R,
194,68,26,4,1,36,44,633,['c'],0,right,['3'],4,186,[0.06452532],99,44,hard,plus,dotcolour,beta,,,29,18,V,R,
195,69,27,4,1,36,44,617,['c'],0,right,['3'],4,187,[0.06788625],99,44,hard,plus,dotcolour,beta,,,29,18,V,R,
196,70,28,4,1,47,33,367,['n'],0,left,['8'],3,327,[-0.0569054],97,47,medium,plus,dotcolour,beta,,,29,18,V,R,
197,71,29,4,1,47,33,732,['c'],1,left,['3'],4,149,[0.10941388],100,47,medium,plus,dotcolour,beta,,,29,18,V,R,
198,72,30,4,1,44,36,465,['n'],0,left,['3'],4,470,[-0.02269931],89,44,hard,plus,dotcolour,beta,,,29,18,V,R,
199,73,31,4,1,36,44,499,['n'],1,right,['3'],4,240,[-0.02323016],95,44,hard,plus,dotcolour,beta,,,29,18,V,R,
200,74,32,4,1,44,36,365,['n'],0,left,['3'],4,193,[-0.08266647],100,44,hard,plus,dotcolour,beta,,,29,18,V,R,
201,75,33,4,1,33,47,665,['n'],1,right,['3'],4,240,[-0.11191606],100,47,medium,plus,dotcolour,beta,,,29,18,V,R,
202,76,34,4,1,33,47,499,['n'],1,right,['3'],4,291,[-0.14377758],100,47,medium,plus,dotcolour,beta,,,29,18,V,R,
203,77,35,4,1,53,27,450,['n'],0,left,['3'],4,767,[0.10948087],25,53,easy,plus,dotcolour,beta,,,29,18,V,R,
204,78,36,4,1,47,33,1216,['c'],1,left,['3'],4,216,[0.02761264],96,47,medium,plus,dotcolour,beta,,,29,18,V,R,
205,79,37,4,1,47,33,717,['c'],1,left,['3'],4,181,[0.04515362],99,47,medium,plus,dotcolour,beta,,,29,18,V,R,
206,80,38,4,1,27,53,682,['n'],1,right,['3'],4,211,[-0.05269996],99,53,easy,plus,dotcolour,beta,,,29,18,V,R,
207,81,39,4,1,36,44,482,['n'],1,right,['1'],6,785,[-0.18858517],99,44,hard,plus,dotcolour,beta,,,29,18,V,R,
208,82,40,4,1,47,33,415,['c'],1,left,['3'],4,298,[0.05559384],98,47,medium,plus,dotcolour,beta,,,29,18,V,R,
209,83,41,4,1,44,36,616,['c'],1,left,['3'],4,270,[0.08092631],99,44,hard,plus,dotcolour,beta,,,29,18,V,R,
210,84,0,5,1,53,27,666,['c'],1,left,['3'],4,262,[0.03946123],97,53,easy,plus,dotcolour,beta,,,29,18,V,R,
211,85,1,5,1,36,44,432,['c'],0,right,['3'],4,283,[0.08965646],99,44,hard,plus,dotcolour,beta,,,29,18,V,R,
212,86,2,5,1,36,44,882,['n'],1,right,['3'],4,486,[-0.03745639],92,44,hard,plus,dotcolour,beta,,,29,18,V,R,
213,87,3,5,1,53,27,616,['c'],1,left,['3'],4,123,[0.07130911],100,53,easy,plus,dotcolour,beta,,,29,18,V,R,
214,88,4,5,1,33,47,649,['n'],1,right,['3'],4,493,[-0.17466781],100,47,medium,plus,dotcolour,beta,,,29,18,V,R,
215,89,5,5,1,33,47,683,['c'],0,right,['3'],4,439,[-0.03887947],61,47,medium,plus,dotcolour,beta,,,29,18,V,R,
216,90,6,5,1,27,53,599,['n'],1,right,['9'],2,287,[-0.14135206],100,53,easy,plus,dotcolour,beta,,,29,18,V,R,
217,91,7,5,1,36,44,648,['c'],0,right,['3'],4,154,[0.04848696],99,44,hard,plus,dotcolour,beta,,,29,18,V,R,
218,92,8,5,1,44,36,515,['n'],0,left,['8'],3,168,[-0.05629267],99,44,hard,plus,dotcolour,beta,,,29,18,V,R,
219,93,9,5,1,33,47,1432,['c'],0,right,['3'],4,1897,[0.06833958],83,47,medium,plus,dotcolour,beta,,,29,18,V,R,
220,94,10,5,1,47,33,599,['c'],1,left,['3'],4,166,[0.02476007],97,47,medium,plus,dotcolour,beta,,,29,18,V,R,
221,95,11,5,1,47,33,681,['c'],1,left,['3'],4,158,[0.05598681],99,47,medium,plus,dotcolour,beta,,,29,18,V,R,
222,96,12,5,1,36,44,666,['n'],1,right,['3'],4,221,[-0.14972808],100,44,hard,plus,dotcolour,beta,,,29,18,V,R,
223,97,13,5,1,27,53,20,['n'],1,right,['3'],4,310,[0.03618931],65,53,easy,plus,dotcolour,beta,,,29,18,V,R,
224,98,14,5,1,36,44,265,['c'],0,right,['3'],4,288,[0.08254619],99,44,hard,plus,dotcolour,beta,,,29,18,V,R,
225,99,15,5,1,47,33,2431,['n'],0,left,['8'],3,492,[0.05421647],51,47,medium,plus,dotcolour,beta,,,29,18,V,R,
226,100,16,5,1,53,27,532,['c'],1,left,['3'],4,172,[0.14153749],100,53,easy,plus,dotcolour,beta,,,29,18,V,R,
227,101,17,5,1,44,36,1215,['n'],0,left,['0'],1,510,[0.04332689],58,44,hard,plus,dotcolour,beta,,,29,18,V,R,
228,102,18,5,1,27,53,499,['c'],0,right,['1'],6,383,[0.03509081],93,53,easy,plus,dotcolour,beta,,,29,18,V,R,
229,103,19,5,1,36,44,715,['c'],0,right,['0'],1,317,[-0.03966802],62,44,hard,plus,dotcolour,beta,,,29,18,V,R,
230,104,20,5,1,47,33,565,['c'],1,left,['2'],5,386,[0.11413885],99,47,medium,plus,dotcolour,beta,,,29,18,V,R,
231,105,21,5,1,27,53,716,['n'],1,right,['0'],1,295,[-0.10553097],100,53,easy,plus,dotcolour,beta,,,29,18,V,R,
232,106,22,5,1,27,53,331,['c'],0,right,['2'],5,303,[0.11875125],100,53,easy,plus,dotcolour,beta,,,29,18,V,R,
233,107,23,5,1,44,36,1366,['n'],0,left,['0'],1,142,[-0.08974472],100,44,hard,plus,dotcolour,beta,,,29,18,V,R,
234,108,24,5,1,47,33,498,['c'],1,left,['2'],5,413,[0.18335844],100,47,medium,plus,dotcolour,beta,,,29,18,V,R,
235,109,25,5,1,44,36,816,['c'],1,left,['3'],4,876,[0.10422198],96,44,hard,plus,dotcolour,beta,,,29,18,V,R,
236,110,26,5,1,44,36,34,['n'],0,left,['0'],1,1122,[0.14437862],18,44,hard,plus,dotcolour,beta,,,29,18,V,R,
237,111,27,5,1,53,27,547,['c'],1,left,['3'],4,257,[0.15943527],100,53,easy,plus,dotcolour,beta,,,29,18,V,R,
238,112,28,5,1,53,27,567,['c'],1,left,['3'],4,186,[0.04576441],99,53,easy,plus,dotcolour,beta,,,29,18,V,R,
239,113,29,5,1,53,27,299,['c'],1,left,['3'],4,246,[0.08507623],99,53,easy,plus,dotcolour,beta,,,29,18,V,R,
240,114,30,5,1,36,44,347,['n'],1,right,['0'],1,672,[0.0291201],64,44,hard,plus,dotcolour,beta,,,29,18,V,R,
241,115,31,5,1,33,47,1183,['n'],1,right,['0'],1,271,[-0.09231371],99,47,medium,plus,dotcolour,beta,,,29,18,V,R,
242,116,32,5,1,47,33,84,['c'],1,left,['9'],2,508,[0.04272285],92,47,medium,plus,dotcolour,beta,,,29,18,V,R,
243,117,33,5,1,27,53,200,['n'],1,right,['0'],1,425,[-0.13555069],99,53,easy,plus,dotcolour,beta,,,29,18,V,R,
244,118,34,5,1,53,27,565,['c'],1,left,['3'],4,227,[0.12350159],100,53,easy,plus,dotcolour,beta,,,29,18,V,R,
245,119,35,5,1,44,36,664,['c'],1,left,['3'],4,120,[0.10179099],100,44,hard,plus,dotcolour,beta,,,29,18,V,R,
246,120,36,5,1,27,53,932,['n'],1,right,['0'],1,367,[-0.04427261],95,53,easy,plus,dotcolour,beta,,,29,18,V,R,
247,121,37,5,1,33,47,515,['c'],0,right,['3'],4,181,[0.02380279],97,47,medium,plus,dotcolour,beta,,,29,18,V,R,
248,122,38,5,1,33,47,949,['n'],1,right,['0'],1,266,[-0.11266747],100,47,medium,plus,dotcolour,beta,,,29,18,V,R,
249,123,39,5,1,44,36,681,['c'],1,left,['3'],4,117,[0.07761731],100,44,hard,plus,dotcolour,beta,,,29,18,V,R,
250,124,40,5,1,33,47,764,['n'],1,right,['0'],1,75,[-0.0820055],100,47,medium,plus,dotcolour,beta,,,29,18,V,R,
251,125,41,5,1,47,33,665,['c'],1,left,['3'],4,104,[0.04549378],100,47,medium,plus,dotcolour,beta,,,29,18,V,R,
252,0,0,6,2,33,47,699,['n'],1,right,['9'],2,291,[-0.18920885],99,47,medium,minus,dotcolour,beta,,,29,18,V,R,
253,1,1,6,2,47,33,465,['c'],1,left,['3'],4,398,[0.13943025],92,47,medium,minus,dotcolour,beta,,,29,18,V,R,
254,2,2,6,2,53,27,632,['c'],1,left,['3'],4,382,[0.21588628],99,53,easy,minus,dotcolour,beta,,,29,18,V,R,
255,3,3,6,2,47,33,648,['c'],1,left,['3'],4,173,[0.06563167],61,47,medium,minus,dotcolour,beta,,,29,18,V,R,
256,4,4,6,2,53,27,532,['c'],1,left,['3'],4,291,[0.1189339],89,53,easy,minus,dotcolour,beta,,,29,18,V,R,
257,5,5,6,2,36,44,315,['c'],0,right,['3'],4,228,[0.11660921],91,44,hard,minus,dotcolour,beta,,,29,18,V,R,
258,6,6,6,2,33,47,599,['n'],1,right,['0'],1,292,[-0.04451656],41,47,medium,minus,dotcolour,beta,,,29,18,V,R,
259,7,7,6,2,27,53,532,['n'],1,right,['3'],4,195,[0.02476994],4,53,easy,minus,dotcolour,beta,,,29,18,V,R,
260,8,8,6,2,36,44,299,['n'],1,right,['3'],4,217,[-0.07235102],66,44,hard,minus,dotcolour,beta,,,29,18,V,R,
261,9,9,6,2,33,47,332,['n'],1,right,['3'],4,292,[-0.08662261],74,47,medium,minus,dotcolour,beta,,,29,18,V,R,
262,10,10,6,2,36,44,216,['c'],0,right,['3'],4,281,[0.00118171],14,44,hard,minus,dotcolour,beta,,,29,18,V,R,
263,11,11,6,2,53,27,399,['n'],0,left,['3'],4,344,[-0.02846971],30,53,easy,minus,dotcolour,beta,,,29,18,V,R,
264,12,12,6,2,47,33,865,['c'],1,left,['3'],4,240,[0.0711977],64,47,medium,minus,dotcolour,beta,,,29,18,V,R,
265,13,13,6,2,33,47,332,['n'],1,right,['3'],4,338,[-0.17968076],98,47,medium,minus,dotcolour,beta,,,29,18,V,R,
266,14,14,6,2,44,36,1948,['n'],0,left,['0'],1,2600,[0.09357965],16,44,hard,minus,dotcolour,beta,,,29,18,V,R,
267,15,15,6,2,44,36,615,['c'],1,left,['3'],4,264,[0.14465421],96,44,hard,minus,dotcolour,beta,,,29,18,V,R,
268,16,16,6,2,53,27,565,['c'],1,left,['3'],4,223,[0.08557101],76,53,easy,minus,dotcolour,beta,,,29,18,V,R,
269,17,17,6,2,44,36,548,['c'],1,left,['3'],4,138,[0.14457114],99,44,hard,minus,dotcolour,beta,,,29,18,V,R,
270,18,18,6,2,27,53,715,['n'],1,right,['8'],3,209,[-0.10089886],86,53,easy,minus,dotcolour,beta,,,29,18,V,R,
271,19,19,6,2,27,53,533,['n'],1,right,['3'],4,324,[-0.21253051],99,53,easy,minus,dotcolour,beta,,,29,18,V,R,
272,20,20,6,2,53,27,565,['n'],0,left,['3'],4,193,[-0.04452559],39,53,easy,minus,dotcolour,beta,,,29,18,V,R,
273,21,21,6,2,27,53,583,['n'],1,right,['3'],4,179,[-0.15329051],98,53,easy,minus,dotcolour,beta,,,29,18,V,R,
274,22,22,6,2,44,36,600,['c'],1,left,['3'],4,93,[0.13977923],99,44,hard,minus,dotcolour,beta,,,29,18,V,R,
275,23,23,6,2,33,47,665,['c'],0,right,['3'],4,73,[0.06549205],66,47,medium,minus,dotcolour,beta,,,29,18,V,R,
276,24,24,6,2,44,36,582,['c'],1,left,['3'],4,463,[0.13590206],89,44,hard,minus,dotcolour,beta,,,29,18,V,R,
277,25,25,6,2,47,33,1315,['c'],1,left,['2'],5,186,[0.10307625],88,47,medium,minus,dotcolour,beta,,,29,18,V,R,
278,26,26,6,2,36,44,548,['c'],0,right,['2'],5,102,[0.08819362],86,44,hard,minus,dotcolour,beta,,,29,18,V,R,
279,27,27,6,2,53,27,3350,['c'],1,left,['2'],5,372,[0.11661972],86,53,easy,minus,dotcolour,beta,,,29,18,V,R,
280,28,28,6,2,53,27,565,['c'],1,left,['2'],5,105,[0.09154027],88,53,easy,minus,dotcolour,beta,,,29,18,V,R,
281,29,29,6,2,36,44,1583,['c'],0,right,['3'],4,246,[0.03023768],29,44,hard,minus,dotcolour,beta,,,29,18,V,R,
282,30,30,6,2,27,53,766,['n'],1,right,['3'],4,431,[-0.14384189],92,53,easy,minus,dotcolour,beta,,,29,18,V,R,
283,31,31,6,2,33,47,499,['n'],1,right,['2'],5,155,[-0.061748],57,47,medium,minus,dotcolour,beta,,,29,18,V,R,
284,32,32,6,2,47,33,298,['n'],0,left,['1'],6,218,[0.00335863],9,47,medium,minus,dotcolour,beta,,,29,18,V,R,
285,33,33,6,2,33,47,349,['n'],1,right,['2'],5,188,[-0.09110054],81,47,medium,minus,dotcolour,beta,,,29,18,V,R,
286,34,34,6,2,47,33,815,['n'],0,left,['2'],5,229,[0.00484684],9,47,medium,minus,dotcolour,beta,,,29,18,V,R,
287,35,35,6,2,44,36,190,['c'],1,left,['2'],5,277,[0.03388741],32,44,hard,minus,dotcolour,beta,,,29,18,V,R,
288,36,36,6,2,36,44,532,['n'],1,right,['2'],5,174,[-0.11552353],93,44,hard,minus,dotcolour,beta,,,29,18,V,R,
289,37,37,6,2,36,44,498,['n'],1,right,['2'],5,171,[-0.00147079],9,44,hard,minus,dotcolour,beta,,,29,18,V,R,
290,38,38,6,2,44,36,515,['n'],0,left,['2'],5,154,[-0.05713311],52,44,hard,minus,dotcolour,beta,,,29,18,V,R,
291,39,39,6,2,27,53,515,['n'],1,right,['2'],5,169,[-0.06274047],58,53,easy,minus,dotcolour,beta,,,29,18,V,R,
292,40,40,6,2,27,53,1332,['n'],1,right,['2'],5,414,[-0.20657493],99,53,easy,minus,dotcolour,beta,,,29,18,V,R,
293,41,41,6,2,47,33,832,['n'],0,left,['0'],1,542,[0.01264385],16,47,medium,minus,dotcolour,beta,,,29,18,V,R,
294,42,0,7,2,27,53,484,['c'],0,right,['2'],5,342,[0.04046477],39,53,easy,minus,dotcolour,beta,,,29,18,V,R,
295,43,1,7,2,36,44,114,['n'],1,right,['9'],2,234,[-0.07621876],68,44,hard,minus,dotcolour,beta,,,29,18,V,R,
296,44,2,7,2,53,27,1867,['n'],0,left,['2'],5,1343,[0.00664252],28,53,easy,minus,dotcolour,beta,,,29,18,V,R,
297,45,3,7,2,27,53,416,['n'],1,right,['0'],1,314,[-0.1192685],89,53,easy,minus,dotcolour,beta,,,29,18,V,R,
298,46,4,7,2,27,53,315,['c'],0,right,['2'],5,330,[0.06960776],61,53,easy,minus,dotcolour,beta,,,29,18,V,R,
299,47,5,7,2,33,47,483,['n'],1,right,['0'],1,242,[-0.10482337],86,47,medium,minus,dotcolour,beta,,,29,18,V,R,
300,48,6,7,2,47,33,398,['c'],1,left,['3'],4,297,[0.09844737],80,47,medium,minus,dotcolour,beta,,,29,18,V,R,
301,49,7,7,2,33,47,682,['c'],0,right,['2'],5,196,[0.03107422],27,47,medium,minus,dotcolour,beta,,,29,18,V,R,
302,50,8,7,2,33,47,465,['n'],1,right,['0'],1,226,[-0.17411533],99,47,medium,minus,dotcolour,beta,,,29,18,V,R,
303,51,9,7,2,36,44,82,['c'],0,right,['3'],4,50,[0.09230042],95,44,hard,minus,dotcolour,beta,,,29,18,V,R,
304,52,10,7,2,27,53,98,['n'],1,right,['9'],2,130,[-0.09558945],88,53,easy,minus,dotcolour,beta,,,29,18,V,R,
305,53,11,7,2,53,27,1365,['c'],1,left,['2'],5,455,[0.18760534],97,53,easy,minus,dotcolour,beta,,,29,18,V,R,
306,54,12,7,2,27,53,965,['n'],1,right,['2'],5,263,[-0.05743992],52,53,easy,minus,dotcolour,beta,,,29,18,V,R,
307,55,13,7,2,33,47,632,['n'],1,right,['0'],1,244,[-0.07431495],66,47,medium,minus,dotcolour,beta,,,29,18,V,R,
308,56,14,7,2,36,44,266,['n'],1,right,['2'],5,281,[-0.07447021],66,44,hard,minus,dotcolour,beta,,,29,18,V,R,
309,57,15,7,2,47,33,350,['n'],0,left,['2'],5,241,[0.0066541],9,47,medium,minus,dotcolour,beta,,,29,18,V,R,
310,58,16,7,2,44,36,2132,['c'],1,left,['8'],3,1019,[0.07877788],60,44,hard,minus,dotcolour,beta,,,29,18,V,R,
311,59,17,7,2,47,33,683,['c'],1,left,['3'],4,176,[0.07931094],73,47,medium,minus,dotcolour,beta,,,29,18,V,R,
312,60,18,7,2,47,33,764,['n'],0,left,['0'],1,187,[-0.11570765],92,47,medium,minus,dotcolour,beta,,,29,18,V,R,
313,61,19,7,2,27,53,949,['n'],1,right,['2'],5,583,[-0.25138329],99,53,easy,minus,dotcolour,beta,,,29,18,V,R,
314,62,20,7,2,53,27,633,['c'],1,left,['3'],4,328,[0.13774748],93,53,easy,minus,dotcolour,beta,,,29,18,V,R,
315,63,21,7,2,36,44,732,['c'],0,right,['3'],4,294,[0.02717605],28,44,hard,minus,dotcolour,beta,,,29,18,V,R,
316,64,22,7,2,33,47,715,['n'],1,right,['8'],3,287,[-0.05124761],46,47,medium,minus,dotcolour,beta,,,29,18,V,R,
317,65,23,7,2,47,33,584,['c'],1,left,['3'],4,238,[-0.00046732],11,47,medium,minus,dotcolour,beta,,,29,18,V,R,
318,66,24,7,2,53,27,126,['c'],1,left,['3'],4,669,[0.10696561],76,53,easy,minus,dotcolour,beta,,,29,18,V,R,
319,67,25,7,2,44,36,367,['n'],0,left,['8'],3,357,[-0.03381301],34,44,hard,minus,dotcolour,beta,,,29,18,V,R,
320,68,26,7,2,44,36,18,['c'],1,left,['3'],4,184,[0.14145589],97,44,hard,minus,dotcolour,beta,,,29,18,V,R,
321,69,27,7,2,44,36,162,['n'],0,left,['8'],3,305,[-0.03951259],37,44,hard,minus,dotcolour,beta,,,29,18,V,R,
322,70,28,7,2,53,27,317,['c'],1,left,['3'],4,274,[0.05527323],50,53,easy,minus,dotcolour,beta,,,29,18,V,R,
323,71,29,7,2,27,53,1198,['n'],1,right,['3'],4,783,[-0.31589236],100,53,easy,minus,dotcolour,beta,,,29,18,V,R,
324,72,30,7,2,47,33,516,['c'],1,left,['3'],4,237,[0.04669332],42,47,medium,minus,dotcolour,beta,,,29,18,V,R,
325,73,31,7,2,53,27,499,['c'],1,left,['2'],5,104,[0.10569229],94,53,easy,minus,dotcolour,beta,,,29,18,V,R,
326,74,32,7,2,53,27,482,['c'],1,left,['2'],5,122,[0.08750065],84,53,easy,minus,dotcolour,beta,,,29,18,V,R,
327,75,33,7,2,44,36,731,['n'],0,left,['3'],4,258,[-0.10306615],84,44,hard,minus,dotcolour,beta,,,29,18,V,R,
328,76,34,7,2,36,44,716,['n'],1,right,['2'],5,116,[-0.0514092],45,44,hard,minus,dotcolour,beta,,,29,18,V,R,
329,77,35,7,2,44,36,599,['n'],0,left,['2'],5,680,[0.02385179],15,44,hard,minus,dotcolour,beta,,,29,18,V,R,
330,78,36,7,2,36,44,1099,['c'],0,right,['3'],4,330,[0.02795998],30,44,hard,minus,dotcolour,beta,,,29,18,V,R,
331,79,37,7,2,33,47,899,['c'],0,right,['2'],5,226,[-0.01564077],6,47,medium,minus,dotcolour,beta,,,29,18,V,R,
332,80,38,7,2,33,47,949,['n'],1,right,['2'],5,252,[-0.11050114],88,47,medium,minus,dotcolour,beta,,,29,18,V,R,
333,81,39,7,2,36,44,415,['n'],1,right,['2'],5,115,[-0.0382915],29,44,hard,minus,dotcolour,beta,,,29,18,V,R,
334,82,40,7,2,47,33,432,['n'],0,left,['2'],5,190,[-0.07453525],69,47,medium,minus,dotcolour,beta,,,29,18,V,R,
335,83,41,7,2,44,36,382,['n'],0,left,['2'],5,161,[-0.0962164],86,44,hard,minus,dotcolour,beta,,,29,18,V,R,
336,84,0,8,2,33,47,434,['n'],1,right,['2'],5,147,[-0.04353419],36,47,medium,minus,dotcolour,beta,,,29,18,V,R,
337,85,1,8,2,36,44,1233,['n'],1,right,['2'],5,637,[-0.02243084],32,44,hard,minus,dotcolour,beta,,,29,18,V,R,
338,86,2,8,2,36,44,383,['n'],1,right,['2'],5,285,[-0.00060665],14,44,hard,minus,dotcolour,beta,,,29,18,V,R,
339,87,3,8,2,36,44,532,['n'],1,right,['2'],5,238,[-0.17957086],99,44,hard,minus,dotcolour,beta,,,29,18,V,R,
340,88,4,8,2,44,36,334,['n'],0,left,['2'],5,136,[-0.05113961],45,44,hard,minus,dotcolour,beta,,,29,18,V,R,
341,89,5,8,2,33,47,1466,['n'],1,right,['8'],3,385,[-0.22103264],99,47,medium,minus,dotcolour,beta,,,29,18,V,R,
342,90,6,8,2,47,33,766,['c'],1,left,['2'],5,716,[0.100928],72,47,medium,minus,dotcolour,beta,,,29,18,V,R,
343,91,7,8,2,27,53,548,['c'],0,right,['3'],4,130,[0.05550311],50,53,easy,minus,dotcolour,beta,,,29,18,V,R,
344,92,8,8,2,36,44,466,['c'],0,right,['2'],5,108,[0.06629936],64,44,hard,minus,dotcolour,beta,,,29,18,V,R,
345,93,9,8,2,27,53,399,['c'],0,right,['2'],5,128,[0.09787743],89,53,easy,minus,dotcolour,beta,,,29,18,V,R,
346,94,10,8,2,27,53,1533,['c'],0,right,['9'],2,615,[0.0860897],67,53,easy,minus,dotcolour,beta,,,29,18,V,R,
347,95,11,8,2,36,44,533,['n'],1,right,['9'],2,146,[-0.0975015],88,44,hard,minus,dotcolour,beta,,,29,18,V,R,
348,96,12,8,2,44,36,1132,['c'],1,left,['3'],4,160,[0.01422156],13,44,hard,minus,dotcolour,beta,,,29,18,V,R,
349,97,13,8,2,44,36,349,['n'],0,left,['9'],2,245,[-0.13480709],95,44,hard,minus,dotcolour,beta,,,29,18,V,R,
350,98,14,8,2,47,33,298,['c'],1,left,['3'],4,216,[0.1865943],99,47,medium,minus,dotcolour,beta,,,29,18,V,R,
351,99,15,8,2,33,47,981,['n'],1,right,['3'],4,162,[-0.09856243],87,47,medium,minus,dotcolour,beta,,,29,18,V,R,
352,100,16,8,2,33,47,482,['n'],1,right,['2'],5,121,[-0.09394042],88,47,medium,minus,dotcolour,beta,,,29,18,V,R,
353,101,17,8,2,53,27,581,['c'],1,left,['3'],4,135,[0.09064573],85,53,easy,minus,dotcolour,beta,,,29,18,V,R,
354,102,18,8,2,53,27,566,['c'],1,left,['2'],5,99,[0.070389],70,53,easy,minus,dotcolour,beta,,,29,18,V,R,
355,103,19,8,2,53,27,549,['c'],1,left,['2'],5,106,[0.08993006],87,53,easy,minus,dotcolour,beta,,,29,18,V,R,
356,104,20,8,2,27,53,632,['n'],1,right,['2'],5,214,[-0.13216566],95,53,easy,minus,dotcolour,beta,,,29,18,V,R,
357,105,21,8,2,27,53,565,['n'],1,right,['2'],5,184,[-0.10392777],88,53,easy,minus,dotcolour,beta,,,29,18,V,R,
358,106,22,8,2,47,33,1082,['n'],0,left,['2'],5,1511,[-0.04787139],47,47,medium,minus,dotcolour,beta,,,29,18,V,R,
359,107,23,8,2,33,47,449,['n'],1,right,['2'],5,402,[-0.21539038],99,47,medium,minus,dotcolour,beta,,,29,18,V,R,
360,108,24,8,2,47,33,632,['c'],1,left,['2'],5,186,[0.11698715],93,47,medium,minus,dotcolour,beta,,,29,18,V,R,
361,109,25,8,2,36,44,515,['c'],0,right,['2'],5,167,[0.01019734],12,44,hard,minus,dotcolour,beta,,,29,18,V,R,
362,110,26,8,2,47,33,281,['n'],0,left,['2'],5,294,[-0.04183758],39,47,medium,minus,dotcolour,beta,,,29,18,V,R,
363,111,27,8,2,33,47,448,['c'],0,right,['2'],5,841,[-0.12193049],3,47,medium,minus,dotcolour,beta,,,29,18,V,R,
364,112,28,8,2,47,33,265,['c'],1,left,['2'],5,158,[0.10192288],89,47,medium,minus,dotcolour,beta,,,29,18,V,R,
365,113,29,8,2,27,53,765,['c'],0,right,['9'],2,770,[-0.14064949],2,53,easy,minus,dotcolour,beta,,,29,18,V,R,
366,114,30,8,2,53,27,17,['n'],0,left,['0'],1,68,[-0.10251392],96,53,easy,minus,dotcolour,beta,,,29,18,V,R,
367,115,31,8,2,44,36,1899,['n'],0,left,['8'],3,182,[-0.19145913],100,44,hard,minus,dotcolour,beta,,,29,18,V,R,
368,116,32,8,2,44,36,398,['c'],1,left,['3'],4,296,[0.10747747],85,44,hard,minus,dotcolour,beta,,,29,18,V,R,
369,117,33,8,2,53,27,849,['c'],1,left,['3'],4,179,[0.14077114],97,53,easy,minus,dotcolour,beta,,,29,18,V,R,
370,118,34,8,2,44,36,299,['c'],1,left,['2'],5,153,[0.05533124],50,44,hard,minus,dotcolour,beta,,,29,18,V,R,
371,119,35,8,2,33,47,298,['c'],0,right,['2'],5,72,[0.08433345],87,47,medium,minus,dotcolour,beta,,,29,18,V,R,
372,120,36,8,2,44,36,699,['n'],0,left,['2'],5,171,[-0.08703851],80,44,hard,minus,dotcolour,beta,,,29,18,V,R,
373,121,37,8,2,53,27,515,['c'],1,left,['2'],5,112,[0.03002841],20,53,easy,minus,dotcolour,beta,,,29,18,V,R,
374,122,38,8,2,53,27,400,['c'],1,left,['1'],6,109,[0.0816968],81,53,easy,minus,dotcolour,beta,,,29,18,V,R,
375,123,39,8,2,36,44,898,['n'],1,right,['1'],6,206,[-0.08522121],76,44,hard,minus,dotcolour,beta,,,29,18,V,R,
376,124,40,8,2,47,33,715,['c'],1,left,['1'],6,131,[0.08387977],80,47,medium,minus,dotcolour,beta,,,29,18,V,R,
377,125,41,8,2,27,53,182,['n'],1,right,['3'],4,606,[-0.14826664],90,53,easy,minus,dotcolour,beta,,,29,18,V,R,
378,0,0,9,3,44,36,882,['c'],1,left,['2'],5,169,[0.10294622],100,44,hard,plus,dotcolour,beta,,,29,18,V,R,
379,1,1,9,3,27,53,448,['c'],0,right,['0'],1,698,[0.05568032],92,53,easy,plus,dotcolour,beta,,,29,18,V,R,
380,2,2,9,3,44,36,5183,['c'],1,left,['2'],5,272,[0.20867363],100,44,hard,plus,dotcolour,beta,,,29,18,V,R,
381,3,3,9,3,53,27,565,['c'],1,left,['2'],5,152,[0.05062448],99,53,easy,plus,dotcolour,beta,,,29,18,V,R,
382,4,4,9,3,53,27,682,['c'],1,left,['2'],5,192,[0.10509054],100,53,easy,plus,dotcolour,beta,,,29,18,V,R,
383,5,5,9,3,47,33,466,['c'],1,left,['2'],5,191,[0.1618919],100,47,medium,plus,dotcolour,beta,,,29,18,V,R,
384,6,6,9,3,36,44,332,['c'],0,right,['2'],5,170,[0.03277767],98,44,hard,plus,dotcolour,beta,,,29,18,V,R,
385,7,7,9,3,36,44,349,['c'],0,right,['2'],5,159,[0.10137696],100,44,hard,plus,dotcolour,beta,,,29,18,V,R,
386,8,8,9,3,47,33,648,['c'],1,left,['2'],5,160,[0.03370209],98,47,medium,plus,dotcolour,beta,,,29,18,V,R,
387,9,9,9,3,33,47,599,['c'],0,right,['2'],5,171,[0.01451732],95,47,medium,plus,dotcolour,beta,,,29,18,V,R,
388,10,10,9,3,36,44,4299,['n'],1,right,['8'],3,609,[-0.04525727],91,44,hard,plus,dotcolour,beta,,,29,18,V,R,
389,11,11,9,3,33,47,866,['c'],0,right,['3'],4,255,[0.08465582],99,47,medium,plus,dotcolour,beta,,,29,18,V,R,
390,12,12,9,3,44,36,665,['n'],0,left,['8'],3,290,[0.03313208],68,44,hard,plus,dotcolour,beta,,,29,18,V,R,
391,13,13,9,3,27,53,699,['n'],1,right,['2'],5,348,[-0.21055914],100,53,easy,plus,dotcolour,beta,,,29,18,V,R,
392,14,14,9,3,44,36,399,['n'],0,left,['2'],5,359,[-0.05249433],96,44,hard,plus,dotcolour,beta,,,29,18,V,R,
393,15,15,9,3,36,44,465,['n'],1,right,['2'],5,279,[-0.13590935],100,44,hard,plus,dotcolour,beta,,,29,18,V,R,
394,16,16,9,3,53,27,1133,['c'],1,left,['2'],5,152,[0.0495763],99,53,easy,plus,dotcolour,beta,,,29,18,V,R,
395,17,17,9,3,33,47,648,['n'],1,right,['2'],5,273,[-0.05469816],98,47,medium,plus,dotcolour,beta,,,29,18,V,R,
396,18,18,9,3,47,33,615,['c'],1,left,['2'],5,142,[0.11811877],100,47,medium,plus,dotcolour,beta,,,29,18,V,R,
397,19,19,9,3,53,27,499,['n'],0,left,['2'],5,190,[0.03336779],71,53,easy,plus,dotcolour,beta,,,29,18,V,R,
398,20,20,9,3,44,36,832,['c'],1,left,['3'],4,350,[0.13974056],100,44,hard,plus,dotcolour,beta,,,29,18,V,R,
399,21,21,9,3,47,33,232,['c'],1,left,['2'],5,88,[0.10883104],100,47,medium,plus,dotcolour,beta,,,29,18,V,R,
400,22,22,9,3,27,53,415,['c'],0,right,['2'],5,53,[0.05918841],100,53,easy,plus,dotcolour,beta,,,29,18,V,R,
401,23,23,9,3,36,44,181,['n'],1,right,['2'],5,212,[0.05944833],46,44,hard,plus,dotcolour,beta,,,29,18,V,R,
402,24,24,9,3,27,53,665,['n'],1,right,['8'],3,322,[-0.15905389],100,53,easy,plus,dotcolour,beta,,,29,18,V,R,
403,25,25,9,3,33,47,432,['n'],1,right,['2'],5,293,[-0.11755555],100,47,medium,plus,dotcolour,beta,,,29,18,V,R,
404,26,26,9,3,36,44,448,['c'],0,right,['2'],5,153,[0.03938065],99,44,hard,plus,dotcolour,beta,,,29,18,V,R,
405,27,27,9,3,47,33,949,['n'],0,left,['3'],4,566,[0.0603161],47,47,medium,plus,dotcolour,beta,,,29,18,V,R,
406,28,28,9,3,53,27,566,['c'],1,left,['3'],4,146,[0.07409453],100,53,easy,plus,dotcolour,beta,,,29,18,V,R,
407,29,29,9,3,27,53,349,['c'],0,right,['2'],5,271,[0.00759937],90,53,easy,plus,dotcolour,beta,,,29,18,V,R,
408,30,30,9,3,33,47,532,['n'],1,right,['2'],5,232,[-0.09402438],100,47,medium,plus,dotcolour,beta,,,29,18,V,R,
409,31,31,9,3,33,47,348,['c'],0,right,['3'],4,130,[0.09036558],100,47,medium,plus,dotcolour,beta,,,29,18,V,R,
410,32,32,9,3,47,33,398,['n'],0,left,['3'],4,414,[0.08866471],28,47,medium,plus,dotcolour,beta,,,29,18,V,R,
411,33,33,9,3,44,36,615,['n'],0,left,['8'],3,174,[-0.11613187],100,44,hard,plus,dotcolour,beta,,,29,18,V,R,
412,34,34,9,3,36,44,400,['c'],0,right,['2'],5,121,[0.09793908],100,44,hard,plus,dotcolour,beta,,,29,18,V,R,
413,35,35,9,3,27,53,482,['n'],1,right,['3'],4,386,[-0.08295036],98,53,easy,plus,dotcolour,beta,,,29,18,V,R,
414,36,36,9,3,47,33,848,['c'],1,left,['3'],4,417,[-0.07150189],39,47,medium,plus,dotcolour,beta,,,29,18,V,R,
415,37,37,9,3,53,27,298,['n'],0,left,['8'],3,261,[0.04261973],61,53,easy,plus,dotcolour,beta,,,29,18,V,R,
416,38,38,9,3,33,47,281,['n'],1,right,['3'],4,385,[-0.08046747],98,47,medium,plus,dotcolour,beta,,,29,18,V,R,
417,39,39,9,3,44,36,600,['n'],0,left,['3'],4,266,[-0.01300211],92,44,hard,plus,dotcolour,beta,,,29,18,V,R,
418,40,40,9,3,27,53,798,['n'],1,right,['8'],3,233,[-0.08843483],100,53,easy,plus,dotcolour,beta,,,29,18,V,R,
419,41,41,9,3,53,27,765,['c'],1,left,['3'],4,115,[0.11122569],100,53,easy,plus,dotcolour,beta,,,29,18,V,R,
420,42,0,10,3,36,44,784,['c'],0,right,['3'],4,174,[0.04924899],99,44,hard,plus,dotcolour,beta,,,29,18,V,R,
421,43,1,10,3,33,47,333,['n'],1,right,['8'],3,75,[-0.06682196],100,47,medium,plus,dotcolour,beta,,,29,18,V,R,
422,44,2,10,3,53,27,366,['c'],1,left,['3'],4,394,[0.26566357],100,53,easy,plus,dotcolour,beta,,,29,18,V,R,
423,45,3,10,3,36,44,365,['c'],0,right,['9'],2,940,[0.17813745],99,44,hard,plus,dotcolour,beta,,,29,18,V,R,
424,46,4,10,3,27,53,849,['c'],0,right,['3'],4,582,[0.02178614],86,53,easy,plus,dotcolour,beta,,,29,18,V,R,
425,47,5,10,3,44,36,266,['n'],0,left,['8'],3,325,[-0.0622734],98,44,hard,plus,dotcolour,beta,,,29,18,V,R,
426,48,6,10,3,47,33,282,['n'],0,left,['3'],4,614,[0.05905013],48,47,medium,plus,dotcolour,beta,,,29,18,V,R,
427,49,7,10,3,33,47,616,['n'],1,right,['3'],4,230,[-0.06208975],99,47,medium,plus,dotcolour,beta,,,29,18,V,R,
428,50,8,10,3,44,36,447,['c'],1,left,['8'],3,284,[0.01775581],92,44,hard,plus,dotcolour,beta,,,29,18,V,R,
429,51,9,10,3,27,53,465,['n'],1,right,['8'],3,167,[-0.09294888],100,53,easy,plus,dotcolour,beta,,,29,18,V,R,
430,52,10,10,3,36,44,467,['n'],1,right,['3'],4,143,[-0.10881799],100,44,hard,plus,dotcolour,beta,,,29,18,V,R,
431,53,11,10,3,33,47,1949,['c'],0,right,['8'],3,164,[0.02787118],98,47,medium,plus,dotcolour,beta,,,29,18,V,R,
432,54,12,10,3,27,53,749,['n'],1,right,['3'],4,289,[-0.11142662],100,53,easy,plus,dotcolour,beta,,,29,18,V,R,
433,55,13,10,3,27,53,615,['n'],1,right,['3'],4,199,[-0.11142484],100,53,easy,plus,dotcolour,beta,,,29,18,V,R,
434,56,14,10,3,44,36,382,['n'],0,left,['3'],4,264,[-0.05603348],98,44,hard,plus,dotcolour,beta,,,29,18,V,R,
435,57,15,10,3,44,36,1049,['c'],1,left,['3'],4,174,[0.04387926],99,44,hard,plus,dotcolour,beta,,,29,18,V,R,
436,58,16,10,3,53,27,415,['c'],1,left,['2'],5,151,[0.0369263],99,53,easy,plus,dotcolour,beta,,,29,18,V,R,
437,59,17,10,3,53,27,434,['c'],1,left,['2'],5,121,[0.0963916],100,53,easy,plus,dotcolour,beta,,,29,18,V,R,
438,60,18,10,3,53,27,398,['c'],1,left,['2'],5,118,[0.10195927],100,53,easy,plus,dotcolour,beta,,,29,18,V,R,
439,61,19,10,3,36,44,766,['n'],1,right,['2'],5,260,[-0.03654654],96,44,hard,plus,dotcolour,beta,,,29,18,V,R,
440,62,20,10,3,33,47,516,['c'],0,right,['2'],5,182,[0.10607366],100,47,medium,plus,dotcolour,beta,,,29,18,V,R,
441,63,21,10,3,36,44,648,['n'],1,right,['2'],5,230,[-0.1068192],100,44,hard,plus,dotcolour,beta,,,29,18,V,R,
442,64,22,10,3,47,33,617,['c'],1,left,['3'],4,253,[0.09487267],100,47,medium,plus,dotcolour,beta,,,29,18,V,R,
443,65,23,10,3,27,53,5348,['c'],0,right,['3'],4,254,[0.01467707],92,53,easy,plus,dotcolour,beta,,,29,18,V,R,
444,66,24,10,3,33,47,948,['n'],1,right,['8'],3,239,[-0.08575574],99,47,medium,plus,dotcolour,beta,,,29,18,V,R,
445,67,25,10,3,36,44,4116,['c'],0,right,['8'],3,530,[0.00252705],81,44,hard,plus,dotcolour,beta,,,29,18,V,R,
446,68,26,10,3,36,44,632,['c'],0,right,['8'],3,604,[-0.02272796],68,44,hard,plus,dotcolour,beta,,,29,18,V,R,
447,69,27,10,3,53,27,616,['c'],1,left,['3'],4,212,[0.16088942],100,53,easy,plus,dotcolour,beta,,,29,18,V,R,
448,70,28,10,3,33,47,366,['n'],1,right,['8'],3,206,[-0.01491646],94,47,medium,plus,dotcolour,beta,,,29,18,V,R,
449,71,29,10,3,47,33,665,['c'],1,left,['3'],4,156,[0.03782142],99,47,medium,plus,dotcolour,beta,,,29,18,V,R,
450,72,30,10,3,27,53,466,['c'],0,right,['0'],1,548,[-0.0319833],64,53,easy,plus,dotcolour,beta,,,29,18,V,R,
451,73,31,10,3,53,27,1065,['c'],1,left,['3'],4,149,[0.05014638],99,53,easy,plus,dotcolour,beta,,,29,18,V,R,
452,74,32,10,3,47,33,599,['c'],1,left,['3'],4,104,[0.11676491],100,47,medium,plus,dotcolour,beta,,,29,18,V,R,
453,75,33,10,3,33,47,915,['n'],1,right,['2'],5,232,[-0.0808374],99,47,medium,plus,dotcolour,beta,,,29,18,V,R,
454,76,34,10,3,53,27,682,['c'],1,left,['2'],5,156,[0.04845341],99,53,easy,plus,dotcolour,beta,,,29,18,V,R,
455,77,35,10,3,47,33,799,['n'],0,left,['3'],4,336,[-0.0186696],91,47,medium,plus,dotcolour,beta,,,29,18,V,R,
456,78,36,10,3,44,36,764,['c'],1,left,['3'],4,173,[0.05607619],99,44,hard,plus,dotcolour,beta,,,29,18,V,R,
457,79,37,10,3,47,33,617,['c'],1,left,['3'],4,151,[0.07964938],100,47,medium,plus,dotcolour,beta,,,29,18,V,R,
458,80,38,10,3,27,53,449,['n'],1,right,['8'],3,400,[-0.22024271],100,53,easy,plus,dotcolour,beta,,,29,18,V,R,
459,81,39,10,3,44,36,2482,['c'],1,left,['2'],5,470,[0.08013297],97,44,hard,plus,dotcolour,beta,,,29,18,V,R,
460,82,40,10,3,47,33,765,['c'],1,left,['8'],3,4173,[0.34185387],97,47,medium,plus,dotcolour,beta,,,29,18,V,R,
461,83,41,10,3,44,36,681,['c'],1,left,['3'],4,163,[0.08664298],100,44,hard,plus,dotcolour,beta,,,29,18,V,R,
462,84,0,11,3,47,33,766,['n'],0,left,['3'],4,439,[-0.04359749],94,47,medium,plus,dotcolour,beta,,,29,18,V,R,
463,85,1,11,3,53,27,599,['c'],1,left,['3'],4,238,[0.11372692],100,53,easy,plus,dotcolour,beta,,,29,18,V,R,
464,86,2,11,3,47,33,1082,['c'],1,left,['8'],3,698,[0.16550111],99,47,medium,plus,dotcolour,beta,,,29,18,V,R,
465,87,3,11,3,47,33,782,['c'],1,left,['3'],4,176,[0.05001502],99,47,medium,plus,dotcolour,beta,,,29,18,V,R,
466,88,4,11,3,36,44,466,['n'],1,right,['3'],4,215,[-0.0658113],99,44,hard,plus,dotcolour,beta,,,29,18,V,R,
467,89,5,11,3,36,44,95,['n'],1,right,['3'],4,240,[-0.09878354],100,44,hard,plus,dotcolour,beta,,,29,18,V,R,
468,90,6,11,3,44,36,432,['n'],0,left,['3'],4,214,[-0.04992094],98,44,hard,plus,dotcolour,beta,,,29,18,V,R,
469,91,7,11,3,27,53,583,['n'],1,right,['3'],4,271,[-0.12496118],100,53,easy,plus,dotcolour,beta,,,29,18,V,R,
470,92,8,11,3,27,53,483,['c'],0,right,['8'],3,450,[0.07160119],97,53,easy,plus,dotcolour,beta,,,29,18,V,R,
471,93,9,11,3,36,44,666,['c'],0,right,['3'],4,143,[0.05209878],99,44,hard,plus,dotcolour,beta,,,29,18,V,R,
472,94,10,11,3,33,47,650,['c'],0,right,['2'],5,120,[0.08661174],100,47,medium,plus,dotcolour,beta,,,29,18,V,R,
473,95,11,11,3,36,44,765,['n'],1,right,['2'],5,246,[0.04123872],63,44,hard,plus,dotcolour,beta,,,29,18,V,R,
474,96,12,11,3,27,53,532,['n'],1,right,['2'],5,184,[-0.04856493],99,53,easy,plus,dotcolour,beta,,,29,18,V,R,
475,97,13,11,3,33,47,415,['n'],1,right,['2'],5,185,[-0.12291664],100,47,medium,plus,dotcolour,beta,,,29,18,V,R,
476,98,14,11,3,47,33,1064,['c'],1,left,['2'],5,2536,[0.13302074],89,47,medium,plus,dotcolour,beta,,,29,18,V,R,
477,99,15,11,3,47,33,698,['c'],1,left,['2'],5,120,[0.08076174],100,47,medium,plus,dotcolour,beta,,,29,18,V,R,
478,100,16,11,3,44,36,382,['c'],1,left,['2'],5,141,[0.06955897],100,44,hard,plus,dotcolour,beta,,,29,18,V,R,
479,101,17,11,3,33,47,1632,['c'],0,right,['2'],5,119,[0.09205021],100,47,medium,plus,dotcolour,beta,,,29,18,V,R,
480,102,18,11,3,44,36,116,['n'],0,left,['3'],4,140,[-0.07872762],100,44,hard,plus,dotcolour,beta,,,29,18,V,R,
481,103,19,11,3,53,27,415,['c'],1,left,['3'],4,279,[0.10595236],100,53,easy,plus,dotcolour,beta,,,29,18,V,R,
482,104,20,11,3,53,27,399,['c'],1,left,['3'],4,173,[0.07923384],100,53,easy,plus,dotcolour,beta,,,29,18,V,R,
483,105,21,11,3,44,36,348,['c'],1,left,['3'],4,50,[0.08992608],100,44,hard,plus,dotcolour,beta,,,29,18,V,R,
484,106,22,11,3,53,27,282,['c'],1,left,['3'],4,77,[0.07969855],100,53,easy,plus,dotcolour,beta,,,29,18,V,R,
485,107,23,11,3,27,53,348,['c'],0,right,['3'],4,150,[0.06454079],100,53,easy,plus,dotcolour,beta,,,29,18,V,R,
486,108,24,11,3,53,27,566,['c'],1,left,['8'],3,490,[0.10029577],98,53,easy,plus,dotcolour,beta,,,29,18,V,R,
487,109,25,11,3,53,27,332,['c'],1,left,['2'],5,139,[0.17944772],100,53,easy,plus,dotcolour,beta,,,29,18,V,R,
488,110,26,11,3,33,47,948,['n'],1,right,['2'],5,240,[-0.00037235],89,47,medium,plus,dotcolour,beta,,,29,18,V,R,
489,111,27,11,3,27,53,415,['c'],0,right,['0'],1,561,[0.07801432],96,53,easy,plus,dotcolour,beta,,,29,18,V,R,
490,112,28,11,3,36,44,632,['c'],0,right,['3'],4,201,[0.05226104],99,44,hard,plus,dotcolour,beta,,,29,18,V,R,
491,113,29,11,3,44,36,682,['c'],1,left,['3'],4,103,[0.08503328],100,44,hard,plus,dotcolour,beta,,,29,18,V,R,
492,114,30,11,3,33,47,915,['c'],0,right,['2'],5,343,[0.08253357],99,47,medium,plus,dotcolour,beta,,,29,18,V,R,
493,115,31,11,3,47,33,933,['c'],1,left,['3'],4,182,[0.17965236],100,47,medium,plus,dotcolour,beta,,,29,18,V,R,
494,116,32,11,3,47,33,380,['n'],0,left,['3'],4,312,[-0.02457294],93,47,medium,plus,dotcolour,beta,,,29,18,V,R,
495,117,33,11,3,53,27,882,['c'],1,left,['3'],4,73,[0.04611694],100,53,easy,plus,dotcolour,beta,,,29,18,V,R,
496,118,34,11,3,36,44,516,['n'],1,right,['9'],2,203,[-0.1145421],100,44,hard,plus,dotcolour,beta,,,29,18,V,R,
497,119,35,11,3,27,53,249,['n'],1,right,['9'],2,163,[-0.16155414],100,53,easy,plus,dotcolour,beta,,,29,18,V,R,
498,120,36,11,3,33,47,267,['n'],1,right,['2'],5,155,[-0.10776912],100,47,medium,plus,dotcolour,beta,,,29,18,V,R,
499,121,37,11,3,33,47,30,['n'],1,right,['2'],5,22,[-0.09575669],100,47,medium,plus,dotcolour,beta,,,29,18,V,R,
500,122,38,11,3,27,53,1367,['n'],1,right,['2'],5,247,[-0.07322611],99,53,easy,plus,dotcolour,beta,,,29,18,V,R,
501,123,39,11,3,36,44,566,['n'],1,right,['3'],4,592,[0.01152199],74,44,hard,plus,dotcolour,beta,,,29,18,V,R,
502,124,40,11,3,44,36,765,['n'],0,left,['2'],5,298,[-0.0211792],93,44,hard,plus,dotcolour,beta,,,29,18,V,R,
503,125,41,11,3,44,36,614,['c'],1,left,['3'],4,151,[0.10472228],100,44,hard,plus,dotcolour,beta,,,29,18,V,R,
504,0,0,12,4,53,27,850,['c'],1,left,['3'],4,135,[0.16936865],100,53,easy,minus,dotcolour,beta,,,29,18,V,R,
505,1,1,12,4,53,27,333,['c'],1,left,['3'],4,109,[0.14328851],99,53,easy,minus,dotcolour,beta,,,29,18,V,R,
506,2,2,12,4,44,36,631,['c'],1,left,['3'],4,72,[0.06847055],70,44,hard,minus,dotcolour,beta,,,29,18,V,R,
507,3,3,12,4,33,47,664,['n'],1,right,['3'],4,212,[-0.12642676],94,47,medium,minus,dotcolour,beta,,,29,18,V,R,
508,4,4,12,4,44,36,615,['c'],1,left,['3'],4,132,[0.0360836],28,44,hard,minus,dotcolour,beta,,,29,18,V,R,
509,5,5,12,4,47,33,683,['c'],1,left,['3'],4,101,[0.09142856],88,47,medium,minus,dotcolour,beta,,,29,18,V,R,
510,6,6,12,4,44,36,682,['c'],1,left,['3'],4,143,[0.0901668],84,44,hard,minus,dotcolour,beta,,,29,18,V,R,
511,7,7,12,4,33,47,106,['c'],0,right,['3'],4,18,[0.05986983],64,47,medium,minus,dotcolour,beta,,,29,18,V,R,
512,8,8,12,4,47,33,549,['c'],1,left,['3'],4,101,[0.0762392],76,47,medium,minus,dotcolour,beta,,,29,18,V,R,
513,9,9,12,4,47,33,599,['c'],1,left,['3'],4,138,[0.068841],66,47,medium,minus,dotcolour,beta,,,29,18,V,R,
514,10,10,12,4,47,33,316,['c'],1,left,['3'],4,58,[0.08842158],92,47,medium,minus,dotcolour,beta,,,29,18,V,R,
515,11,11,12,4,36,44,548,['c'],0,right,['3'],4,42,[0.08959446],95,44,hard,minus,dotcolour,beta,,,29,18,V,R,
516,12,12,12,4,27,53,682,['c'],0,right,['3'],4,78,[0.04732912],37,53,easy,minus,dotcolour,beta,,,29,18,V,R,
517,13,13,12,4,36,44,965,['n'],1,right,['3'],4,221,[-0.07788737],70,44,hard,minus,dotcolour,beta,,,29,18,V,R,
518,14,14,12,4,44,36,700,['c'],1,left,['9'],2,666,[0.03789382],40,44,hard,minus,dotcolour,beta,,,29,18,V,R,
519,15,15,12,4,53,27,649,['n'],0,left,['3'],4,382,[-0.00233574],18,53,easy,minus,dotcolour,beta,,,29,18,V,R,
520,16,16,12,4,44,36,932,['c'],1,left,['3'],4,411,[0.13795439],91,44,hard,minus,dotcolour,beta,,,29,18,V,R,
521,17,17,12,4,33,47,383,['n'],1,right,['3'],4,140,[-0.11987381],96,47,medium,minus,dotcolour,beta,,,29,18,V,R,
522,18,18,12,4,33,47,332,['c'],0,right,['3'],4,115,[0.04004254],31,47,medium,minus,dotcolour,beta,,,29,18,V,R,
523,19,19,12,4,33,47,316,['n'],1,right,['3'],4,266,[-0.09859446],82,47,medium,minus,dotcolour,beta,,,29,18,V,R,
524,20,20,12,4,27,53,315,['c'],0,right,['8'],3,268,[0.03328488],32,53,easy,minus,dotcolour,beta,,,29,18,V,R,
525,21,21,12,4,47,33,114,['n'],0,left,['3'],4,123,[-0.02389268],16,47,medium,minus,dotcolour,beta,,,29,18,V,R,
526,22,22,12,4,33,47,333,['c'],0,right,['8'],3,234,[0.10680368],87,47,medium,minus,dotcolour,beta,,,29,18,V,R,
527,23,23,12,4,44,36,333,['n'],0,left,['8'],3,173,[0.01273505],5,44,hard,minus,dotcolour,beta,,,29,18,V,R,
528,24,24,12,4,27,53,399,['n'],1,right,['8'],3,22,[-0.08586828],98,53,easy,minus,dotcolour,beta,,,29,18,V,R,
529,25,25,12,4,36,44,1032,['c'],0,right,['3'],4,61,[0.09399027],94,44,hard,minus,dotcolour,beta,,,29,18,V,R,
530,26,26,12,4,47,33,299,['n'],0,left,['8'],3,88,[-0.09240887],90,47,medium,minus,dotcolour,beta,,,29,18,V,R,
531,27,27,12,4,27,53,699,['n'],1,right,['3'],4,155,[-0.13233107],97,53,easy,minus,dotcolour,beta,,,29,18,V,R,
532,28,28,12,4,47,33,515,['n'],0,left,['3'],4,281,[-0.03336887],32,47,medium,minus,dotcolour,beta,,,29,18,V,R,
533,29,29,12,4,36,44,515,['c'],0,right,['3'],4,74,[0.09534676],93,44,hard,minus,dotcolour,beta,,,29,18,V,R,
534,30,30,12,4,27,53,681,['n'],1,right,['3'],4,166,[-0.13480806],97,53,easy,minus,dotcolour,beta,,,29,18,V,R,
535,31,31,12,4,27,53,515,['n'],1,right,['3'],4,195,[-0.1120514],91,53,easy,minus,dotcolour,beta,,,29,18,V,R,
536,32,32,12,4,53,27,716,['c'],1,left,['3'],4,113,[0.07744022],76,53,easy,minus,dotcolour,beta,,,29,18,V,R,
537,33,33,12,4,36,44,682,['n'],1,right,['3'],4,298,[-0.11561142],88,44,hard,minus,dotcolour,beta,,,29,18,V,R,
538,34,34,12,4,53,27,632,['c'],1,left,['3'],4,86,[0.03137515],18,53,easy,minus,dotcolour,beta,,,29,18,V,R,
539,35,35,12,4,36,44,148,['c'],0,right,['3'],4,68,[0.02794383],13,44,hard,minus,dotcolour,beta,,,29,18,V,R,
540,36,36,12,4,44,36,531,['c'],1,left,['3'],4,61,[0.09981987],96,44,hard,minus,dotcolour,beta,,,29,18,V,R,
541,37,37,12,4,53,27,75,['c'],1,left,['3'],4,1580,[0.52778294],100,53,easy,minus,dotcolour,beta,,,29,18,V,R,
542,38,38,12,4,33,47,966,['n'],1,right,['8'],3,462,[-0.2287108],99,47,medium,minus,dotcolour,beta,,,29,18,V,R,
543,39,39,12,4,27,53,567,['n'],1,right,['3'],4,270,[-0.17250261],98,53,easy,minus,dotcolour,beta,,,29,18,V,R,
544,40,40,12,4,53,27,500,['c'],1,left,['3'],4,120,[0.09652285],89,53,easy,minus,dotcolour,beta,,,29,18,V,R,
545,41,41,12,4,36,44,516,['c'],0,right,['2'],5,96,[0.0502062],42,44,hard,minus,dotcolour,beta,,,29,18,V,R,
546,42,0,13,4,44,36,399,['n'],0,left,['2'],5,142,[-0.07577153],72,44,hard,minus,dotcolour,beta,,,29,18,V,R,
547,43,1,13,4,33,47,266,['c'],0,right,['2'],5,87,[0.04081717],29,47,medium,minus,dotcolour,beta,,,29,18,V,R,
548,44,2,13,4,36,44,1349,['n'],1,right,['2'],5,455,[-0.09832329],76,44,hard,minus,dotcolour,beta,,,29,18,V,R,
549,45,3,13,4,44,36,716,['c'],1,left,['2'],5,105,[0.09946602],92,44,hard,minus,dotcolour,beta,,,29,18,V,R,
550,46,4,13,4,47,33,848,['n'],0,left,['2'],5,421,[-0.04405906],42,47,medium,minus,dotcolour,beta,,,29,18,V,R,
551,47,5,13,4,47,33,415,['c'],1,left,['2'],5,116,[0.07216158],71,47,medium,minus,dotcolour,beta,,,29,18,V,R,
552,48,6,13,4,53,27,399,['c'],1,left,['2'],5,81,[0.0744467],77,53,easy,minus,dotcolour,beta,,,29,18,V,R,
553,49,7,13,4,53,27,582,['c'],1,left,['2'],5,120,[0.15154001],99,53,easy,minus,dotcolour,beta,,,29,18,V,R,
554,50,8,13,4,47,33,418,['c'],1,left,['2'],5,123,[0.05748921],52,47,medium,minus,dotcolour,beta,,,29,18,V,R,
555,51,9,13,4,36,44,817,['n'],1,right,['2'],5,231,[-0.14489037],97,44,hard,minus,dotcolour,beta,,,29,18,V,R,
556,52,10,13,4,33,47,466,['n'],1,right,['2'],5,196,[-0.11875288],93,47,medium,minus,dotcolour,beta,,,29,18,V,R,
557,53,11,13,4,53,27,699,['c'],1,left,['2'],5,145,[0.05693711],52,53,easy,minus,dotcolour,beta,,,29,18,V,R,
558,54,12,13,4,27,53,565,['n'],1,right,['2'],5,158,[-0.06190995],57,53,easy,minus,dotcolour,beta,,,29,18,V,R,
559,55,13,13,4,33,47,415,['n'],1,right,['1'],6,120,[-0.11689007],96,47,medium,minus,dotcolour,beta,,,29,18,V,R,
560,56,14,13,4,33,47,698,['n'],1,right,['2'],5,160,[-0.08288402],77,47,medium,minus,dotcolour,beta,,,29,18,V,R,
561,57,15,13,4,36,44,1032,['c'],0,right,['8'],3,162,[0.1046779],90,44,hard,minus,dotcolour,beta,,,29,18,V,R,
562,58,16,13,4,44,36,848,['c'],1,left,['0'],1,786,[0.00680649],27,44,hard,minus,dotcolour,beta,,,29,18,V,R,
563,59,17,13,4,44,36,648,['c'],1,left,['2'],5,506,[0.11924431],83,44,hard,minus,dotcolour,beta,,,29,18,V,R,
564,60,18,13,4,27,53,698,['n'],1,right,['3'],4,298,[-0.07686161],67,53,easy,minus,dotcolour,beta,,,29,18,V,R,
565,61,19,13,4,47,33,631,['c'],1,left,['2'],5,143,[0.14990168],99,47,medium,minus,dotcolour,beta,,,29,18,V,R,
566,62,20,13,4,27,53,616,['c'],0,right,['0'],1,641,[-0.05632112],7,53,easy,minus,dotcolour,beta,,,29,18,V,R,
567,63,21,13,4,47,33,1165,['c'],1,left,['3'],4,194,[0.09369247],83,47,medium,minus,dotcolour,beta,,,29,18,V,R,
568,64,22,13,4,47,33,548,['c'],1,left,['2'],5,149,[0.02987497],23,47,medium,minus,dotcolour,beta,,,29,18,V,R,
569,65,23,13,4,53,27,682,['c'],1,left,['3'],4,157,[0.11937433],95,53,easy,minus,dotcolour,beta,,,29,18,V,R,
570,66,24,13,4,33,47,583,['n'],1,right,['3'],4,328,[-0.17076077],97,47,medium,minus,dotcolour,beta,,,29,18,V,R,
571,67,25,13,4,27,53,366,['n'],1,right,['3'],4,245,[-0.11956862],91,53,easy,minus,dotcolour,beta,,,29,18,V,R,
572,68,26,13,4,36,44,1532,['c'],0,right,['3'],4,159,[-0.0096938],5,44,hard,minus,dotcolour,beta,,,29,18,V,R,
573,69,27,13,4,44,36,299,['c'],1,left,['2'],5,1951,[0.19727223],86,44,hard,minus,dotcolour,beta,,,29,18,V,R,
574,70,28,13,4,53,27,599,['c'],1,left,['3'],4,353,[-0.01552449],10,53,easy,minus,dotcolour,beta,,,29,18,V,R,
575,71,29,13,4,53,27,115,['n'],0,left,['8'],3,180,[-0.12090124],94,53,easy,minus,dotcolour,beta,,,29,18,V,R,
576,72,30,13,4,33,47,748,['c'],0,right,['3'],4,272,[-0.02026562],7,47,medium,minus,dotcolour,beta,,,29,18,V,R,
577,73,31,13,4,44,36,1583,['n'],0,left,['2'],5,1062,[-0.30715004],99,44,hard,minus,dotcolour,beta,,,29,18,V,R,
578,74,32,13,4,27,53,934,['n'],1,right,['2'],5,432,[-0.02825288],32,53,easy,minus,dotcolour,beta,,,29,18,V,R,
579,75,33,13,4,36,44,616,['n'],1,right,['3'],4,223,[-0.11186331],90,44,hard,minus,dotcolour,beta,,,29,18,V,R,
580,76,34,13,4,27,53,600,['n'],1,right,['3'],4,352,[-0.30199705],100,53,easy,minus,dotcolour,beta,,,29,18,V,R,
581,77,35,13,4,44,36,716,['n'],0,left,['3'],4,238,[-0.07141261],64,44,hard,minus,dotcolour,beta,,,29,18,V,R,
582,78,36,13,4,27,53,432,['n'],1,right,['3'],4,196,[-0.12076305],93,53,easy,minus,dotcolour,beta,,,29,18,V,R,
583,79,37,13,4,53,27,349,['n'],0,left,['3'],4,216,[-0.02134396],21,53,easy,minus,dotcolour,beta,,,29,18,V,R,
584,80,38,13,4,36,44,65,['n'],1,right,['3'],4,49,[-0.03986084],22,44,hard,minus,dotcolour,beta,,,29,18,V,R,
585,81,39,13,4,47,33,265,['n'],0,left,['3'],4,125,[-0.09737792],89,47,medium,minus,dotcolour,beta,,,29,18,V,R,
586,82,40,13,4,36,44,50,['n'],1,right,['3'],4,41,[-0.0881961],95,44,hard,minus,dotcolour,beta,,,29,18,V,R,
587,83,41,13,4,33,47,266,['n'],1,right,['3'],4,181,[-0.0854369],78,47,medium,minus,dotcolour,beta,,,29,18,V,R,
588,84,0,14,4,36,44,733,['n'],1,right,['2'],5,202,[-0.07947475],72,44,hard,minus,dotcolour,beta,,,29,18,V,R,
589,85,1,14,4,47,33,249,['n'],0,left,['8'],3,457,[-0.08010011],66,47,medium,minus,dotcolour,beta,,,29,18,V,R,
590,86,2,14,4,36,44,698,['c'],0,right,['9'],2,468,[-0.04512182],7,44,hard,minus,dotcolour,beta,,,29,18,V,R,
591,87,3,14,4,53,27,216,['n'],0,left,['9'],2,1713,[0.32749435],1,53,easy,minus,dotcolour,beta,,,29,18,V,R,
592,88,4,14,4,33,47,748,['n'],1,right,['9'],2,415,[-0.1076022],81,47,medium,minus,dotcolour,beta,,,29,18,V,R,
593,89,5,14,4,27,53,665,['n'],1,right,['3'],4,229,[-0.07860473],70,53,easy,minus,dotcolour,beta,,,29,18,V,R,
594,90,6,14,4,33,47,516,['n'],1,right,['2'],5,144,[-0.09937068],89,47,medium,minus,dotcolour,beta,,,29,18,V,R,
595,91,7,14,4,44,36,1199,['n'],0,left,['9'],2,339,[-0.03884839],37,44,hard,minus,dotcolour,beta,,,29,18,V,R,
596,92,8,14,4,47,33,432,['c'],1,left,['2'],5,165,[0.12727442],96,47,medium,minus,dotcolour,beta,,,29,18,V,R,
597,93,9,14,4,36,44,2032,['n'],1,right,['9'],2,166,[-0.13370411],97,44,hard,minus,dotcolour,beta,,,29,18,V,R,
598,94,10,14,4,53,27,1847,['n'],0,left,['9'],2,79,[-0.05330658],46,53,easy,minus,dotcolour,beta,,,29,18,V,R,
599,95,11,14,4,27,53,1349,['n'],1,right,['2'],5,399,[-0.19079032],98,53,easy,minus,dotcolour,beta,,,29,18,V,R,
600,96,12,14,4,44,36,2083,['n'],0,left,['9'],2,69,[-0.00627067],3,44,hard,minus,dotcolour,beta,,,29,18,V,R,
601,97,13,14,4,53,27,69,['c'],1,left,['0'],1,300,[0.04013927],38,53,easy,minus,dotcolour,beta,,,29,18,V,R,
602,98,14,14,4,33,47,59,['n'],1,right,['9'],2,1377,[-0.28165956],97,47,medium,minus,dotcolour,beta,,,29,18,V,R,
603,99,15,14,4,47,33,2499,['c'],1,left,['3'],4,127,[0.05914149],55,47,medium,minus,dotcolour,beta,,,29,18,V,R,
604,100,16,14,4,27,53,666,['n'],1,right,['2'],5,393,[-0.1227859],87,53,easy,minus,dotcolour,beta,,,29,18,V,R,
605,101,17,14,4,27,53,615,['n'],1,right,['2'],5,169,[-0.04562607],39,53,easy,minus,dotcolour,beta,,,29,18,V,R,
606,102,18,14,4,53,27,715,['c'],1,left,['3'],4,79,[0.09483394],93,53,easy,minus,dotcolour,beta,,,29,18,V,R,
607,103,19,14,4,33,47,549,['n'],1,right,['2'],5,176,[-0.12520871],95,47,medium,minus,dotcolour,beta,,,29,18,V,R,
608,104,20,14,4,36,44,581,['n'],1,right,['2'],5,114,[-0.03422631],24,44,hard,minus,dotcolour,beta,,,29,18,V,R,
609,105,21,14,4,27,53,783,['c'],0,right,['3'],4,96,[0.06792285],67,53,easy,minus,dotcolour,beta,,,29,18,V,R,
610,106,22,14,4,33,47,548,['n'],1,right,['2'],5,191,[-0.0970315],85,47,medium,minus,dotcolour,beta,,,29,18,V,R,
611,107,23,14,4,47,33,632,['c'],1,left,['3'],4,96,[0.06093325],58,47,medium,minus,dotcolour,beta,,,29,18,V,R,
612,108,24,14,4,53,27,515,['c'],1,left,['3'],4,80,[0.08874658],89,53,easy,minus,dotcolour,beta,,,29,18,V,R,
613,109,25,14,4,33,47,548,['n'],1,right,['2'],5,152,[-0.05271225],47,47,medium,minus,dotcolour,beta,,,29,18,V,R,
614,110,26,14,4,47,33,515,['n'],0,left,['9'],2,711,[-0.00135957],24,47,medium,minus,dotcolour,beta,,,29,18,V,R,
615,111,27,14,4,36,44,632,['c'],0,right,['3'],4,130,[0.04609087],38,44,hard,minus,dotcolour,beta,,,29,18,V,R,
616,112,28,14,4,44,36,698,['c'],1,left,['3'],4,114,[0.10818307],94,44,hard,minus,dotcolour,beta,,,29,18,V,R,
617,113,29,14,4,53,27,566,['c'],1,left,['2'],5,152,[0.07145104],68,53,easy,minus,dotcolour,beta,,,29,18,V,R,
618,114,30,14,4,44,36,27,['c'],1,left,['3'],4,107,[0.14115348],99,44,hard,minus,dotcolour,beta,,,29,18,V,R,
619,115,31,14,4,36,44,56,['c'],0,right,['3'],4,1328,[-0.0521462],16,44,hard,minus,dotcolour,beta,,,29,18,V,R,
620,116,32,14,4,27,53,317,['c'],0,right,['2'],5,313,[-0.02228811],8,53,easy,minus,dotcolour,beta,,,29,18,V,R,
621,117,33,14,4,33,47,36,['c'],0,right,['3'],4,60,[0.06043135],59,47,medium,minus,dotcolour,beta,,,29,18,V,R,
622,118,34,14,4,27,53,382,['n'],1,right,['9'],2,92,[-0.10418395],95,53,easy,minus,dotcolour,beta,,,29,18,V,R,
623,119,35,14,4,47,33,332,['c'],1,left,['3'],4,12,[0.06864106],90,47,medium,minus,dotcolour,beta,,,29,18,V,R,
624,120,36,14,4,53,27,449,['n'],0,left,['8'],3,2170,[0.13250751],9,53,easy,minus,dotcolour,beta,,,29,18,V,R,
625,121,37,14,4,47,33,716,['c'],1,left,['3'],4,232,[0.07863917],70,47,medium,minus,dotcolour,beta,,,29,18,V,R,
626,122,38,14,4,36,44,499,['n'],1,right,['2'],5,292,[-0.11381347],87,44,hard,minus,dotcolour,beta,,,29,18,V,R,
627,123,39,14,4,44,36,715,['c'],1,left,['3'],4,141,[0.02440359],18,44,hard,minus,dotcolour,beta,,,29,18,V,R,
628,124,40,14,4,44,36,683,['c'],1,left,['2'],5,148,[0.12062016],95,44,hard,minus,dotcolour,beta,,,29,18,V,R,
629,125,41,14,4,44,36,1533,['c'],1,left,['2'],5,1059,[0.09050678],65,44,hard,minus,dotcolour,beta,,,29,18,V,R,
630,0,0,15,5,53,27,883,['n'],0,left,['9'],2,91,[-0.05005671],100,53,easy,plus,dotcolour,beta,,,29,18,V,R,
631,1,1,15,5,33,47,300,['n'],1,right,['9'],2,109,[-0.10426883],100,47,medium,plus,dotcolour,beta,,,29,18,V,R,
632,2,2,15,5,47,33,365,['c'],1,left,['3'],4,139,[0.04152504],99,47,medium,plus,dotcolour,beta,,,29,18,V,R,
633,3,3,15,5,27,53,698,['n'],1,right,['8'],3,122,[-0.13957906],100,53,easy,plus,dotcolour,beta,,,29,18,V,R,
634,4,4,15,5,27,53,1050,['c'],0,right,['3'],4,91,[0.01879553],99,53,easy,plus,dotcolour,beta,,,29,18,V,R,
635,5,5,15,5,33,47,499,['n'],1,right,['0'],1,37,[-0.07023943],100,47,medium,plus,dotcolour,beta,,,29,18,V,R,
636,6,6,15,5,36,44,331,['n'],1,right,['2'],5,423,[-0.03869319],93,44,hard,plus,dotcolour,beta,,,29,18,V,R,
637,7,7,15,5,53,27,95,['n'],0,left,['9'],2,80,[-0.11602738],100,53,easy,plus,dotcolour,beta,,,29,18,V,R,
638,8,8,15,5,27,53,2798,['c'],0,right,['2'],5,109,[0.09931683],100,53,easy,plus,dotcolour,beta,,,29,18,V,R,
639,9,9,15,5,47,33,715,['c'],1,left,['2'],5,134,[0.09315253],100,47,medium,plus,dotcolour,beta,,,29,18,V,R,
640,10,10,15,5,33,47,382,['n'],1,right,['9'],2,970,[-0.12494247],96,47,medium,plus,dotcolour,beta,,,29,18,V,R,
641,11,11,15,5,36,44,7183,['n'],1,right,['8'],3,365,[-0.04156053],95,44,hard,plus,dotcolour,beta,,,29,18,V,R,
642,12,12,15,5,33,47,55,['c'],0,right,['3'],4,103,[0.10151814],100,47,medium,plus,dotcolour,beta,,,29,18,V,R,
643,13,13,15,5,44,36,798,['c'],1,left,['9'],2,597,[0.08591805],96,44,hard,plus,dotcolour,beta,,,29,18,V,R,
644,14,14,15,5,53,27,732,['c'],1,left,['9'],2,3041,[0.73689548],100,53,easy,plus,dotcolour,beta,,,29,18,V,R,
645,15,15,15,5,44,36,715,['c'],1,left,['3'],4,147,[0.03831579],99,44,hard,plus,dotcolour,beta,,,29,18,V,R,
646,16,16,15,5,47,33,648,['c'],1,left,['3'],4,164,[0.09447691],100,47,medium,plus,dotcolour,beta,,,29,18,V,R,
647,17,17,15,5,47,33,666,['c'],1,left,['3'],4,172,[0.11995043],100,47,medium,plus,dotcolour,beta,,,29,18,V,R,
648,18,18,15,5,36,44,732,['n'],1,right,['3'],4,249,[-0.07582531],99,44,hard,plus,dotcolour,beta,,,29,18,V,R,
649,19,19,15,5,44,36,2099,['c'],1,left,['3'],4,1796,[0.22500878],98,44,hard,plus,dotcolour,beta,,,29,18,V,R,
650,20,20,15,5,36,44,915,['n'],1,right,['8'],3,1128,[0.05512079],50,44,hard,plus,dotcolour,beta,,,29,18,V,R,
651,21,21,15,5,36,44,682,['c'],0,right,['3'],4,137,[0.07147406],100,44,hard,plus,dotcolour,beta,,,29,18,V,R,
652,22,22,15,5,27,53,549,['n'],1,right,['3'],4,207,[-0.08740913],100,53,easy,plus,dotcolour,beta,,,29,18,V,R,
653,23,23,15,5,33,47,648,['c'],0,right,['8'],3,2925,[-0.47696711],1,47,medium,plus,dotcolour,beta,,,29,18,V,R,
654,24,24,15,5,53,27,282,['c'],1,left,['3'],4,2165,[0.3019682],99,53,easy,plus,dotcolour,beta,,,29,18,V,R,
655,25,25,15,5,53,27,815,['c'],1,left,['3'],4,751,[0.27946826],100,53,easy,plus,dotcolour,beta,,,29,18,V,R,
656,26,26,15,5,53,27,550,['c'],1,left,['3'],4,187,[-0.00925903],87,53,easy,plus,dotcolour,beta,,,29,18,V,R,
657,27,27,15,5,44,36,102,['c'],1,left,['3'],4,54,[0.11162999],100,44,hard,plus,dotcolour,beta,,,29,18,V,R,
658,28,28,15,5,27,53,465,['n'],1,right,['8'],3,66,[-0.07531379],100,53,easy,plus,dotcolour,beta,,,29,18,V,R,
659,29,29,15,5,33,47,349,['n'],1,right,['3'],4,99,[-0.13533259],100,47,medium,plus,dotcolour,beta,,,29,18,V,R,
660,30,30,15,5,36,44,1065,['c'],0,right,['3'],4,797,[0.02348968],83,44,hard,plus,dotcolour,beta,,,29,18,V,R,
661,31,31,15,5,44,36,414,['n'],0,left,['3'],4,2078,[-0.36327918],99,44,hard,plus,dotcolour,beta,,,29,18,V,R,
662,32,32,15,5,53,27,782,['n'],0,left,['9'],2,115,[-0.04730899],100,53,easy,plus,dotcolour,beta,,,29,18,V,R,
663,33,33,15,5,47,33,733,['n'],0,left,['3'],4,267,[-0.04821667],97,47,medium,plus,dotcolour,beta,,,29,18,V,R,
664,34,34,15,5,36,44,517,['n'],1,right,['3'],4,197,[-0.1092652],100,44,hard,plus,dotcolour,beta,,,29,18,V,R,
665,35,35,15,5,47,33,383,['n'],0,left,['3'],4,95,[-0.05972634],100,47,medium,plus,dotcolour,beta,,,29,18,V,R,
666,36,36,15,5,27,53,1048,['n'],1,right,['3'],4,59,[-0.11775907],100,53,easy,plus,dotcolour,beta,,,29,18,V,R,
667,37,37,15,5,44,36,399,['n'],0,left,['3'],4,74,[-0.13958779],100,44,hard,plus,dotcolour,beta,,,29,18,V,R,
668,38,38,15,5,33,47,34,['n'],1,right,['8'],3,1296,[-0.10701156],93,47,medium,plus,dotcolour,beta,,,29,18,V,R,
669,39,39,15,5,44,36,414,['c'],1,left,['3'],4,133,[0.06399144],100,44,hard,plus,dotcolour,beta,,,29,18,V,R,
670,40,40,15,5,47,33,348,['c'],1,left,['3'],4,5123,[1.0498508],100,47,medium,plus,dotcolour,beta,,,29,18,V,R,
671,41,41,15,5,27,53,2148,['c'],0,right,['3'],4,87,[0.06181226],100,53,easy,plus,dotcolour,beta,,,29,18,V,R,
672,42,0,16,5,53,27,1649,['c'],1,left,['3'],4,147,[0.10494105],100,53,easy,plus,dotcolour,beta,,,29,18,V,R,
673,43,1,16,5,44,36,582,['c'],1,left,['2'],5,111,[0.0848968],100,44,hard,plus,dotcolour,beta,,,29,18,V,R,
674,44,2,16,5,47,33,765,['n'],0,left,['8'],3,245,[-0.00077765],89,47,medium,plus,dotcolour,beta,,,29,18,V,R,
675,45,3,16,5,53,27,266,['c'],1,left,['3'],4,154,[0.13862042],100,53,easy,plus,dotcolour,beta,,,29,18,V,R,
676,46,4,16,5,36,44,433,['c'],0,right,['2'],5,107,[0.00552938],97,44,hard,plus,dotcolour,beta,,,29,18,V,R,
677,47,5,16,5,47,33,217,['c'],1,left,['3'],4,136,[0.05765054],100,47,medium,plus,dotcolour,beta,,,29,18,V,R,
678,48,6,16,5,44,36,1783,['c'],1,left,['3'],4,493,[0.10126914],98,44,hard,plus,dotcolour,beta,,,29,18,V,R,
679,49,7,16,5,53,27,82,['c'],1,left,['3'],4,34,[0.09139071],100,53,easy,plus,dotcolour,beta,,,29,18,V,R,
680,50,8,16,5,47,33,583,['c'],1,left,['2'],5,179,[0.09706303],100,47,medium,plus,dotcolour,beta,,,29,18,V,R,
681,51,9,16,5,36,44,350,['c'],0,right,['3'],4,111,[0.00511833],96,44,hard,plus,dotcolour,beta,,,29,18,V,R,
682,52,10,16,5,44,36,532,['n'],0,left,['8'],3,246,[-0.06399965],99,44,hard,plus,dotcolour,beta,,,29,18,V,R,
683,53,11,16,5,44,36,749,['c'],1,left,['9'],2,1839,[0.09801452],88,44,hard,plus,dotcolour,beta,,,29,18,V,R,
684,54,12,16,5,33,47,799,['c'],0,right,['8'],3,807,[0.09774291],96,47,medium,plus,dotcolour,beta,,,29,18,V,R,
685,55,13,16,5,33,47,749,['c'],0,right,['3'],4,242,[0.08731799],99,47,medium,plus,dotcolour,beta,,,29,18,V,R,
686,56,14,16,5,33,47,137,['c'],0,right,['3'],4,73,[0.10610132],100,47,medium,plus,dotcolour,beta,,,29,18,V,R,
687,57,15,16,5,47,33,533,['c'],1,left,['3'],4,114,[0.06793706],100,47,medium,plus,dotcolour,beta,,,29,18,V,R,
688,58,16,16,5,36,44,580,['c'],0,right,['3'],4,136,[0.05418806],100,44,hard,plus,dotcolour,beta,,,29,18,V,R,
689,59,17,16,5,44,36,531,['n'],0,left,['8'],3,86,[-0.04940298],100,44,hard,plus,dotcolour,beta,,,29,18,V,R,
690,60,18,16,5,27,53,365,['c'],0,right,['3'],4,165,[0.05344013],99,53,easy,plus,dotcolour,beta,,,29,18,V,R,
691,61,19,16,5,27,53,16,['c'],0,right,['3'],4,80,[0.02188085],99,53,easy,plus,dotcolour,beta,,,29,18,V,R,
692,62,20,16,5,47,33,616,['n'],0,left,['3'],4,245,[-0.08048799],99,47,medium,plus,dotcolour,beta,,,29,18,V,R,
693,63,21,16,5,36,44,299,['c'],0,right,['2'],5,609,[-0.06124225],47,44,hard,plus,dotcolour,beta,,,29,18,V,R,
694,64,22,16,5,44,36,366,['c'],1,left,['9'],2,547,[0.12476636],99,44,hard,plus,dotcolour,beta,,,29,18,V,R,
695,65,23,16,5,47,33,1233,['n'],0,left,['3'],4,917,[-0.05767094],89,47,medium,plus,dotcolour,beta,,,29,18,V,R,
696,66,24,16,5,36,44,249,['c'],0,right,['3'],4,23,[0.0652783],100,44,hard,plus,dotcolour,beta,,,29,18,V,R,
697,67,25,16,5,27,53,54,['c'],0,right,['3'],4,200,[0.07228605],99,53,easy,plus,dotcolour,beta,,,29,18,V,R,
698,68,26,16,5,27,53,764,['n'],1,right,['9'],2,418,[-0.08372976],98,53,easy,plus,dotcolour,beta,,,29,18,V,R,
699,69,27,16,5,33,47,44,['n'],1,right,['8'],3,83,[-0.10113719],100,47,medium,plus,dotcolour,beta,,,29,18,V,R,
700,70,28,16,5,53,27,632,['n'],0,left,['9'],2,87,[-0.09665627],100,53,easy,plus,dotcolour,beta,,,29,18,V,R,
701,71,29,16,5,33,47,333,['n'],1,right,['9'],2,112,[-0.13029983],100,47,medium,plus,dotcolour,beta,,,29,18,V,R,
702,72,30,16,5,36,44,516,['c'],0,right,['3'],4,176,[0.07172219],100,44,hard,plus,dotcolour,beta,,,29,18,V,R,
703,73,31,16,5,27,53,832,['c'],0,right,['3'],4,633,[-0.04172665],58,53,easy,plus,dotcolour,beta,,,29,18,V,R,
704,74,32,16,5,33,47,532,['n'],1,right,['3'],4,556,[-0.15884017],99,47,medium,plus,dotcolour,beta,,,29,18,V,R,
705,75,33,16,5,53,27,334,['c'],1,left,['3'],4,177,[0.14426655],100,53,easy,plus,dotcolour,beta,,,29,18,V,R,
706,76,34,16,5,27,53,400,['c'],0,right,"['9', '2']",2,187,[0.00664011],93,53,easy,plus,dotcolour,beta,,,29,18,V,R,
707,77,35,16,5,27,53,1116,['n'],1,right,['3'],4,295,[-0.09402091],99,53,easy,plus,dotcolour,beta,,,29,18,V,R,
708,78,36,16,5,47,33,816,['c'],1,left,['9'],2,244,[0.12372848],100,47,medium,plus,dotcolour,beta,,,29,18,V,R,
709,79,37,16,5,36,44,865,['n'],1,right,['3'],4,161,[-0.00608174],94,44,hard,plus,dotcolour,beta,,,29,18,V,R,
710,80,38,16,5,53,27,1332,['c'],1,left,['3'],4,30,[0.04351857],100,53,easy,plus,dotcolour,beta,,,29,18,V,R,
711,81,39,16,5,53,27,1216,['c'],1,left,['3'],4,150,[0.09736604],100,53,easy,plus,dotcolour,beta,,,29,18,V,R,
712,82,40,16,5,33,47,566,['n'],1,right,['8'],3,10,[-0.06926425],100,47,medium,plus,dotcolour,beta,,,29,18,V,R,
713,83,41,16,5,44,36,1349,['c'],1,left,['8'],3,2117,[0.00565432],68,44,hard,plus,dotcolour,beta,,,29,18,V,R,
714,84,0,17,5,27,53,400,['c'],0,right,['3'],4,81,[0.06826986],100,53,easy,plus,dotcolour,beta,,,29,18,V,R,
715,85,1,17,5,47,33,1998,['n'],0,left,['9'],2,631,[-0.06134738],93,47,medium,plus,dotcolour,beta,,,29,18,V,R,
716,86,2,17,5,53,27,94,['c'],1,left,['3'],4,46,[0.09240053],100,53,easy,plus,dotcolour,beta,,,29,18,V,R,
717,87,3,17,5,36,44,466,['n'],1,right,['3'],4,259,[-0.04948948],98,44,hard,plus,dotcolour,beta,,,29,18,V,R,
718,88,4,17,5,27,53,131,['c'],0,right,['3'],4,58,[0.04238946],100,53,easy,plus,dotcolour,beta,,,29,18,V,R,
719,89,5,17,5,36,44,431,['c'],0,right,['3'],4,151,[0.03958105],99,44,hard,plus,dotcolour,beta,,,29,18,V,R,
720,90,6,17,5,53,27,332,['c'],1,left,['3'],4,117,[0.03200524],99,53,easy,plus,dotcolour,beta,,,29,18,V,R,
721,91,7,17,5,44,36,365,['c'],1,left,['3'],4,43,[0.06399779],100,44,hard,plus,dotcolour,beta,,,29,18,V,R,
722,92,8,17,5,47,33,482,['c'],1,left,['3'],4,119,[0.07494251],100,47,medium,plus,dotcolour,beta,,,29,18,V,R,
723,93,9,17,5,33,47,532,['c'],0,right,['2'],5,326,[0.04756066],96,47,medium,plus,dotcolour,beta,,,29,18,V,R,
724,94,10,17,5,44,36,682,['c'],1,left,['3'],4,71,[0.01319897],99,44,hard,plus,dotcolour,beta,,,29,18,V,R,
725,95,11,17,5,33,47,3899,['c'],0,right,"['9', '8']",2,258,[0.09917163],100,47,medium,plus,dotcolour,beta,,,29,18,V,R,
726,96,12,17,5,27,53,749,['n'],1,right,['9'],2,194,[0.00090634],90,53,easy,plus,dotcolour,beta,,,29,18,V,R,
727,97,13,17,5,44,36,598,['c'],1,left,['3'],4,156,[0.11373951],100,44,hard,plus,dotcolour,beta,,,29,18,V,R,
728,98,14,17,5,44,36,948,['n'],0,left,['9'],2,529,[0.08764839],31,44,hard,plus,dotcolour,beta,,,29,18,V,R,
729,99,15,17,5,33,47,665,['c'],0,right,['3'],4,163,[0.0203696],97,47,medium,plus,dotcolour,beta,,,29,18,V,R,
730,100,16,17,5,53,27,482,['n'],0,left,['3'],4,297,[0.00365928],85,53,easy,plus,dotcolour,beta,,,29,18,V,R,
731,101,17,17,5,27,53,565,['n'],1,right,['3'],4,224,[-0.05713391],99,53,easy,plus,dotcolour,beta,,,29,18,V,R,
732,102,18,17,5,47,33,632,['n'],0,left,['2'],5,247,[-0.1037996],100,47,medium,plus,dotcolour,beta,,,29,18,V,R,
733,103,19,17,5,44,36,615,['n'],0,left,['9'],2,174,[-0.15005581],100,44,hard,plus,dotcolour,beta,,,29,18,V,R,
734,104,20,17,5,33,47,175,['n'],1,right,['2'],5,200,[-0.07657788],100,47,medium,plus,dotcolour,beta,,,29,18,V,R,
735,105,21,17,5,53,27,548,['c'],1,left,['3'],4,147,[0.10257247],100,53,easy,plus,dotcolour,beta,,,29,18,V,R,
736,106,22,17,5,27,53,949,['n'],1,right,['9'],2,224,[-0.15065062],100,53,easy,plus,dotcolour,beta,,,29,18,V,R,
737,107,23,17,5,53,27,449,['n'],0,left,['8'],3,263,[-0.06236944],98,53,easy,plus,dotcolour,beta,,,29,18,V,R,
738,108,24,17,5,27,53,216,['c'],0,right,['3'],4,181,[0.01340324],95,53,easy,plus,dotcolour,beta,,,29,18,V,R,
739,109,25,17,5,53,27,530,['n'],0,left,['9'],2,881,[0.04061555],57,53,easy,plus,dotcolour,beta,,,29,18,V,R,
740,110,26,17,5,44,36,549,['n'],0,left,['2'],5,217,[0.04010831],64,44,hard,plus,dotcolour,beta,,,29,18,V,R,
741,111,27,17,5,53,27,999,['c'],1,left,['2'],5,313,[0.14221258],100,53,easy,plus,dotcolour,beta,,,29,18,V,R,
742,112,28,17,5,44,36,648,['c'],1,left,['3'],4,173,[0.02571349],97,44,hard,plus,dotcolour,beta,,,29,18,V,R,
743,113,29,17,5,47,33,1116,['c'],1,left,['3'],4,594,[0.09297095],97,47,medium,plus,dotcolour,beta,,,29,18,V,R,
744,114,30,17,5,36,44,1133,['c'],0,right,['3'],4,198,[-0.00809707],87,44,hard,plus,dotcolour,beta,,,29,18,V,R,
745,115,31,17,5,47,33,119,['n'],0,left,['2'],5,167,[-0.01516138],96,47,medium,plus,dotcolour,beta,,,29,18,V,R,
746,116,32,17,5,47,33,315,['n'],0,left,['2'],5,806,[-0.02452666],83,47,medium,plus,dotcolour,beta,,,29,18,V,R,
747,117,33,17,5,47,33,1015,['n'],0,left,['9'],2,38,[-0.06198079],100,47,medium,plus,dotcolour,beta,,,29,18,V,R,
748,118,34,17,5,36,44,365,['c'],0,right,['2'],5,167,[0.13006385],100,44,hard,plus,dotcolour,beta,,,29,18,V,R,
749,119,35,17,5,27,53,763,['n'],1,right,['3'],4,203,[-0.07815709],100,53,easy,plus,dotcolour,beta,,,29,18,V,R,
750,120,36,17,5,36,44,416,['n'],1,right,['3'],4,132,[-0.0907174],100,44,hard,plus,dotcolour,beta,,,29,18,V,R,
751,121,37,17,5,33,47,583,['n'],1,right,['3'],4,153,[-0.15354479],100,47,medium,plus,dotcolour,beta,,,29,18,V,R,
752,122,38,17,5,36,44,964,['c'],0,right,['3'],4,149,[0.04990751],99,44,hard,plus,dotcolour,beta,,,29,18,V,R,
753,123,39,17,5,33,47,266,['c'],0,right,['3'],4,134,[0.09175295],100,47,medium,plus,dotcolour,beta,,,29,18,V,R,
754,124,40,17,5,33,47,432,['n'],1,right,['8'],3,161,[-0.08349725],100,47,medium,plus,dotcolour,beta,,,29,18,V,R,
755,125,41,17,5,36,44,2198,['n'],1,right,['3'],4,555,[-0.13312422],99,44,hard,plus,dotcolour,beta,,,29,18,V,R,
,,,,,,,,,,,,,,,,,,,,,1, ik denk dat er meer rood was dan blauw,29,18,V,R,
,,,,,,,,,,,,,,,,,,,,,2,['g'],29,18,V,R,
,,,,,,,,,,,,,,,,,,,,,3,['g'],29,18,V,R,
,,,,,,,,,,,,,,,,,,,,,5,['4'],29,18,V,R,
