trial,withinphasetrial,withinblocktrial,block,phase,dotsLeft,dotsRight,rt,resp,cor,cresp,conf_press,cj,RTconf,ev,fb,diff,difflevel,condition,task,manip,questionID,questionResp,sub,age,gender,handedness,
0,0,0,0,0,53,27,3600,['n'],0,left,['1'],1,3843,[0.13529907],8,53,easy,plus,dotcolour,alfa,,,130,18,V,R,
1,1,1,0,0,36,44,3367,['n'],1,right,['9'],5,4882,[-0.41503238],100,44,hard,plus,dotcolour,alfa,,,130,18,V,R,
2,2,2,0,0,33,47,2767,['n'],1,right,['0'],6,1745,[-0.17557811],99,47,medium,plus,dotcolour,alfa,,,130,18,V,R,
3,3,3,0,0,36,44,2817,['n'],1,right,['0'],6,1306,[-0.20166589],100,44,hard,plus,dotcolour,alfa,,,130,18,V,R,
4,4,4,0,0,53,27,2867,['c'],1,left,['0'],6,749,[0.30646125],100,53,easy,plus,dotcolour,alfa,,,130,18,V,R,
5,5,5,0,0,53,27,3250,['c'],1,left,['0'],6,685,[0.16141115],100,53,easy,plus,dotcolour,alfa,,,130,18,V,R,
6,6,6,0,0,47,33,2233,['c'],1,left,['0'],6,745,[0.01724166],67,47,medium,plus,dotcolour,alfa,,,130,18,V,R,
7,7,7,0,0,47,33,2683,['n'],0,left,['9'],5,9225,[0.94720667],0,47,medium,plus,dotcolour,alfa,,,130,18,V,R,
8,8,8,0,0,27,53,1800,['n'],1,right,['2'],2,4343,[-0.56915628],100,53,easy,plus,dotcolour,alfa,,,130,18,V,R,
9,9,9,0,0,33,47,1534,['n'],1,right,['0'],6,1067,[-0.15011553],99,47,medium,plus,dotcolour,alfa,,,130,18,V,R,
10,10,10,0,0,33,47,1834,['n'],1,right,['0'],6,1064,[-0.29675966],100,47,medium,plus,dotcolour,alfa,,,130,18,V,R,
11,11,11,0,0,36,44,1767,['n'],1,right,['0'],6,520,[-0.09997165],99,44,hard,plus,dotcolour,alfa,,,130,18,V,R,
12,12,12,0,0,44,36,3082,['n'],0,left,['8'],4,2289,[-0.07673423],86,44,hard,plus,dotcolour,alfa,,,130,18,V,R,
13,13,13,0,0,33,47,2749,['n'],1,right,['8'],4,2208,[-0.31398275],100,47,medium,plus,dotcolour,alfa,,,130,18,V,R,
14,14,14,0,0,36,44,1749,['n'],1,right,['0'],6,426,[-0.11323064],100,44,hard,plus,dotcolour,alfa,,,130,18,V,R,
15,15,15,0,0,33,47,1283,['n'],1,right,['0'],6,679,[-0.10826462],99,47,medium,plus,dotcolour,alfa,,,130,18,V,R,
16,16,16,0,0,47,33,1449,['c'],1,left,['0'],6,1755,[0.07679881],89,47,medium,plus,dotcolour,alfa,,,130,18,V,R,
17,17,17,0,0,44,36,2533,['n'],0,left,['0'],6,2040,[0.10986764],6,44,hard,plus,dotcolour,alfa,,,130,18,V,R,
18,18,18,0,0,47,33,1633,['c'],1,left,['8'],4,3014,[0.45438686],100,47,medium,plus,dotcolour,alfa,,,130,18,V,R,
19,19,19,0,0,36,44,1583,['n'],1,right,['8'],4,2654,[-0.01935789],61,44,hard,plus,dotcolour,alfa,,,130,18,V,R,
20,20,20,0,0,44,36,1583,['c'],1,left,['3'],3,3645,[0.03985521],68,44,hard,plus,dotcolour,alfa,,,130,18,V,R,
21,21,21,0,0,47,33,2733,['n'],0,left,['9'],5,1918,[0.10338393],6,47,medium,plus,dotcolour,alfa,,,130,18,V,R,
22,22,22,0,0,27,53,1366,['n'],1,right,['0'],6,1700,[-0.48395572],100,53,easy,plus,dotcolour,alfa,,,130,18,V,R,
23,23,23,0,0,53,27,1317,['c'],1,left,['0'],6,1212,[0.34854408],100,53,easy,plus,dotcolour,alfa,,,130,18,V,R,
24,24,24,0,0,36,44,1233,['n'],1,right,['9'],5,1179,[-0.20864482],100,44,hard,plus,dotcolour,alfa,,,130,18,V,R,
25,25,25,0,0,47,33,1233,['c'],1,left,['0'],6,740,[0.11840803],99,47,medium,plus,dotcolour,alfa,,,130,18,V,R,
26,26,26,0,0,27,53,1099,['n'],1,right,['0'],6,428,[-0.01186487],66,53,easy,plus,dotcolour,alfa,,,130,18,V,R,
27,27,27,0,0,53,27,2217,['c'],1,left,['9'],5,3035,[0.36578924],100,53,easy,plus,dotcolour,alfa,,,130,18,V,R,
28,28,28,0,0,27,53,1149,['n'],1,right,['0'],6,660,[-0.18499793],100,53,easy,plus,dotcolour,alfa,,,130,18,V,R,
29,29,29,0,0,53,27,3133,['c'],1,left,['3'],3,3396,[0.6955004],100,53,easy,plus,dotcolour,alfa,,,130,18,V,R,
30,30,30,0,0,44,36,2350,['c'],1,left,['8'],4,1407,[0.26933607],100,44,hard,plus,dotcolour,alfa,,,130,18,V,R,
31,31,31,0,0,33,47,1868,['n'],1,right,['8'],4,869,[-0.10857661],99,47,medium,plus,dotcolour,alfa,,,130,18,V,R,
32,32,32,0,0,33,47,1683,['n'],1,right,['8'],4,648,[-0.10459173],99,47,medium,plus,dotcolour,alfa,,,130,18,V,R,
33,33,33,0,0,36,44,1551,['n'],1,right,['0'],6,1345,[0.04389059],20,44,hard,plus,dotcolour,alfa,,,130,18,V,R,
34,34,34,0,0,27,53,1183,['n'],1,right,['0'],6,708,[-0.13747417],100,53,easy,plus,dotcolour,alfa,,,130,18,V,R,
35,35,35,0,0,44,36,1333,['n'],0,left,['0'],6,684,[0.01053728],39,44,hard,plus,dotcolour,alfa,,,130,18,V,R,
36,36,36,0,0,44,36,1133,['c'],1,left,['0'],6,3292,[0.50053419],100,44,hard,plus,dotcolour,alfa,,,130,18,V,R,
37,37,37,0,0,44,36,1235,['n'],0,left,['9'],5,815,[-0.03981129],83,44,hard,plus,dotcolour,alfa,,,130,18,V,R,
38,38,38,0,0,53,27,984,['c'],1,left,['0'],6,600,[0.18260067],100,53,easy,plus,dotcolour,alfa,,,130,18,V,R,
39,39,39,0,0,47,33,4133,['c'],1,left,['3'],3,1796,[0.57925849],100,47,medium,plus,dotcolour,alfa,,,130,18,V,R,
40,40,40,0,0,27,53,1317,['n'],1,right,['0'],6,1152,[-0.29780549],100,53,easy,plus,dotcolour,alfa,,,130,18,V,R,
41,41,41,0,0,27,53,1117,['n'],1,right,['0'],6,438,[-0.20423816],100,53,easy,plus,dotcolour,alfa,,,130,18,V,R,
42,42,0,1,0,33,47,2150,['n'],1,right,['0'],6,409,[-0.13151296],100,47,medium,plus,dotcolour,alfa,,,130,18,V,R,
43,43,1,1,0,27,53,1600,['n'],1,right,['0'],6,281,[-0.24292573],100,53,easy,plus,dotcolour,alfa,,,130,18,V,R,
44,44,2,1,0,36,44,1267,['n'],1,right,['0'],6,381,[-0.04059235],91,44,hard,plus,dotcolour,alfa,,,130,18,V,R,
45,45,3,1,0,27,53,2551,['n'],1,right,['8'],4,1201,[-0.28636184],100,53,easy,plus,dotcolour,alfa,,,130,18,V,R,
46,46,4,1,0,53,27,2051,['c'],1,left,['0'],6,543,[0.10469975],99,53,easy,plus,dotcolour,alfa,,,130,18,V,R,
47,47,5,1,0,27,53,1017,['n'],1,right,['9'],5,978,[-0.1707851],100,53,easy,plus,dotcolour,alfa,,,130,18,V,R,
48,48,6,1,0,27,53,1134,['n'],1,right,['0'],6,479,[-0.19300776],100,53,easy,plus,dotcolour,alfa,,,130,18,V,R,
49,49,7,1,0,53,27,967,['c'],1,left,['9'],5,1415,[0.24878381],100,53,easy,plus,dotcolour,alfa,,,130,18,V,R,
50,50,8,1,0,53,27,1100,['c'],1,left,['9'],5,442,[0.20148129],100,53,easy,plus,dotcolour,alfa,,,130,18,V,R,
51,51,9,1,0,47,33,1284,['c'],1,left,['0'],6,886,[0.06262946],92,47,medium,plus,dotcolour,alfa,,,130,18,V,R,
52,52,10,1,0,27,53,983,['n'],1,right,['0'],6,324,[-0.18561776],100,53,easy,plus,dotcolour,alfa,,,130,18,V,R,
53,53,11,1,0,27,53,2117,['n'],1,right,['0'],6,251,[-0.0633879],99,53,easy,plus,dotcolour,alfa,,,130,18,V,R,
54,54,12,1,0,47,33,882,['c'],1,left,['0'],6,672,[0.27559076],100,47,medium,plus,dotcolour,alfa,,,130,18,V,R,
55,55,13,1,0,36,44,1166,['n'],1,right,['9'],5,567,[-0.02620147],78,44,hard,plus,dotcolour,alfa,,,130,18,V,R,
56,56,14,1,0,33,47,2533,['n'],1,right,['0'],6,652,[-0.10857356],99,47,medium,plus,dotcolour,alfa,,,130,18,V,R,
57,57,15,1,0,47,33,2332,['c'],1,left,['8'],4,1470,[0.27588584],100,47,medium,plus,dotcolour,alfa,,,130,18,V,R,
58,58,16,1,0,44,36,1333,['n'],0,left,['8'],4,470,[-0.05223613],94,44,hard,plus,dotcolour,alfa,,,130,18,V,R,
59,59,17,1,0,33,47,2150,['n'],1,right,['0'],6,503,[-0.12236196],100,47,medium,plus,dotcolour,alfa,,,130,18,V,R,
60,60,18,1,0,47,33,2334,['c'],1,left,['3'],3,2390,[0.28564186],100,47,medium,plus,dotcolour,alfa,,,130,18,V,R,
61,61,19,1,0,33,47,2833,['n'],1,right,['0'],6,558,[-0.16250922],100,47,medium,plus,dotcolour,alfa,,,130,18,V,R,
62,62,20,1,0,33,47,2650,['n'],1,right,['0'],6,591,[-0.26029792],100,47,medium,plus,dotcolour,alfa,,,130,18,V,R,
63,63,21,1,0,44,36,1733,['c'],1,left,['0'],6,418,[0.04090219],91,44,hard,plus,dotcolour,alfa,,,130,18,V,R,
64,64,22,1,0,44,36,2268,['c'],1,left,['8'],4,3328,[0.02816942],64,44,hard,plus,dotcolour,alfa,,,130,18,V,R,
65,65,23,1,0,44,36,1583,['n'],0,left,['0'],6,293,[-0.01925798],78,44,hard,plus,dotcolour,alfa,,,130,18,V,R,
66,66,24,1,0,36,44,1233,['n'],1,right,['0'],6,504,[-0.09910298],99,44,hard,plus,dotcolour,alfa,,,130,18,V,R,
67,67,25,1,0,47,33,1583,['c'],1,left,['0'],6,390,[0.11900246],100,47,medium,plus,dotcolour,alfa,,,130,18,V,R,
68,68,26,1,0,36,44,1333,['n'],1,right,['9'],5,1034,[-0.27577871],100,44,hard,plus,dotcolour,alfa,,,130,18,V,R,
69,69,27,1,0,36,44,1600,['n'],1,right,['9'],5,465,[-0.15472676],100,44,hard,plus,dotcolour,alfa,,,130,18,V,R,
70,70,28,1,0,47,33,1950,['c'],1,left,['9'],5,570,[0.22170181],100,47,medium,plus,dotcolour,alfa,,,130,18,V,R,
71,71,29,1,0,33,47,2066,['n'],1,right,['0'],6,609,[-0.18111753],100,47,medium,plus,dotcolour,alfa,,,130,18,V,R,
72,72,30,1,0,53,27,1334,['c'],1,left,['0'],6,308,[0.12236907],100,53,easy,plus,dotcolour,alfa,,,130,18,V,R,
73,73,31,1,0,36,44,1416,['n'],1,right,['0'],6,328,[-0.04834671],95,44,hard,plus,dotcolour,alfa,,,130,18,V,R,
74,74,32,1,0,47,33,1717,['c'],1,left,['8'],4,2872,[0.3945657],100,47,medium,plus,dotcolour,alfa,,,130,18,V,R,
75,75,33,1,0,53,27,1050,['c'],1,left,['0'],6,291,[0.07216821],99,53,easy,plus,dotcolour,alfa,,,130,18,V,R,
76,76,34,1,0,36,44,1717,['n'],1,right,['0'],6,404,[-0.01430352],69,44,hard,plus,dotcolour,alfa,,,130,18,V,R,
77,77,35,1,0,27,53,1683,['n'],1,right,['0'],6,378,[-0.18233138],100,53,easy,plus,dotcolour,alfa,,,130,18,V,R,
78,78,36,1,0,53,27,1067,['c'],1,left,['0'],6,337,[0.24639253],100,53,easy,plus,dotcolour,alfa,,,130,18,V,R,
79,79,37,1,0,44,36,2267,['n'],0,left,['3'],3,1218,[0.1258144],2,44,hard,plus,dotcolour,alfa,,,130,18,V,R,
80,80,38,1,0,44,36,1217,['n'],0,left,['0'],6,970,[-0.2662646],100,44,hard,plus,dotcolour,alfa,,,130,18,V,R,
81,81,39,1,0,33,47,916,['n'],1,right,['9'],5,911,[-0.03445317],79,47,medium,plus,dotcolour,alfa,,,130,18,V,R,
82,82,40,1,0,44,36,1650,['c'],1,left,['8'],4,1154,[0.143554],99,44,hard,plus,dotcolour,alfa,,,130,18,V,R,
83,83,41,1,0,53,27,1150,['c'],1,left,['0'],6,303,[0.18584411],100,53,easy,plus,dotcolour,alfa,,,130,18,V,R,
84,84,0,2,0,36,44,1985,['c'],0,right,['8'],4,367,[-0.01264666],32,44,hard,plus,dotcolour,alfa,,,130,18,V,R,
85,85,1,2,0,36,44,2784,['n'],1,right,['2'],2,1330,[-0.04795133],82,44,hard,plus,dotcolour,alfa,,,130,18,V,R,
86,86,2,2,0,53,27,2416,['c'],1,left,['9'],5,525,[0.17751273],100,53,easy,plus,dotcolour,alfa,,,130,18,V,R,
87,87,3,2,0,47,33,2200,['c'],1,left,['9'],5,425,[0.04214084],91,47,medium,plus,dotcolour,alfa,,,130,18,V,R,
88,88,4,2,0,44,36,1117,['n'],0,left,['0'],6,461,[-0.11626653],100,44,hard,plus,dotcolour,alfa,,,130,18,V,R,
89,89,5,2,0,53,27,883,['c'],1,left,['0'],6,336,[0.01262687],69,53,easy,plus,dotcolour,alfa,,,130,18,V,R,
90,90,6,2,0,36,44,1400,['c'],0,right,['8'],4,540,[-0.08162894],2,44,hard,plus,dotcolour,alfa,,,130,18,V,R,
91,91,7,2,0,33,47,1768,['n'],1,right,['0'],6,329,[-0.04748725],95,47,medium,plus,dotcolour,alfa,,,130,18,V,R,
92,92,8,2,0,27,53,1250,['n'],1,right,['9'],5,379,[-0.20388568],100,53,easy,plus,dotcolour,alfa,,,130,18,V,R,
93,93,9,2,0,47,33,1733,['c'],1,left,['8'],4,872,[0.03064695],77,47,medium,plus,dotcolour,alfa,,,130,18,V,R,
94,94,10,2,0,36,44,1250,['n'],1,right,['9'],5,300,[-0.01986994],79,44,hard,plus,dotcolour,alfa,,,130,18,V,R,
95,95,11,2,0,44,36,1267,['n'],0,left,['0'],6,406,[0.13814935],0,44,hard,plus,dotcolour,alfa,,,130,18,V,R,
96,96,12,2,0,33,47,867,['n'],1,right,['0'],6,636,[-0.12610575],100,47,medium,plus,dotcolour,alfa,,,130,18,V,R,
97,97,13,2,0,33,47,933,['n'],1,right,['9'],5,910,[-0.09406994],97,47,medium,plus,dotcolour,alfa,,,130,18,V,R,
98,98,14,2,0,27,53,917,['n'],1,right,['0'],6,318,[-0.02622207],84,53,easy,plus,dotcolour,alfa,,,130,18,V,R,
99,99,15,2,0,36,44,984,['n'],1,right,['0'],6,268,[-0.09354],100,44,hard,plus,dotcolour,alfa,,,130,18,V,R,
100,100,16,2,0,44,36,1584,['c'],1,left,['3'],3,1051,[0.27289424],100,44,hard,plus,dotcolour,alfa,,,130,18,V,R,
101,101,17,2,0,36,44,967,['n'],1,right,['0'],6,291,[-0.01053167],67,44,hard,plus,dotcolour,alfa,,,130,18,V,R,
102,102,18,2,0,33,47,1434,['c'],0,right,['0'],6,279,[0.05025918],97,47,medium,plus,dotcolour,alfa,,,130,18,V,R,
103,103,19,2,0,53,27,1100,['c'],1,left,['0'],6,505,[0.10515806],100,53,easy,plus,dotcolour,alfa,,,130,18,V,R,
104,104,20,2,0,47,33,1466,['c'],1,left,['3'],3,1827,[0.1357897],97,47,medium,plus,dotcolour,alfa,,,130,18,V,R,
105,105,21,2,0,36,44,1850,['n'],1,right,['8'],4,465,[0.0256223],21,44,hard,plus,dotcolour,alfa,,,130,18,V,R,
106,106,22,2,0,27,53,1300,['n'],1,right,['0'],6,283,[-0.08510871],100,53,easy,plus,dotcolour,alfa,,,130,18,V,R,
107,107,23,2,0,27,53,851,['n'],1,right,['0'],6,223,[-0.15697624],100,53,easy,plus,dotcolour,alfa,,,130,18,V,R,
108,108,24,2,0,47,33,1500,['c'],1,left,['0'],6,323,[0.14007388],100,47,medium,plus,dotcolour,alfa,,,130,18,V,R,
109,109,25,2,0,53,27,1117,['c'],1,left,['8'],4,954,[0.14782349],100,53,easy,plus,dotcolour,alfa,,,130,18,V,R,
110,110,26,2,0,27,53,951,['n'],1,right,['0'],6,303,[-0.15346164],100,53,easy,plus,dotcolour,alfa,,,130,18,V,R,
111,111,27,2,0,33,47,633,['n'],1,right,['0'],6,187,[-0.13350484],100,47,medium,plus,dotcolour,alfa,,,130,18,V,R,
112,112,28,2,0,47,33,967,['c'],1,left,['0'],6,199,[0.07469021],100,47,medium,plus,dotcolour,alfa,,,130,18,V,R,
113,113,29,2,0,27,53,1033,['n'],1,right,['0'],6,231,[-0.09298412],100,53,easy,plus,dotcolour,alfa,,,130,18,V,R,
114,114,30,2,0,44,36,934,['n'],0,left,['0'],6,225,[-0.02718999],89,44,hard,plus,dotcolour,alfa,,,130,18,V,R,
115,115,31,2,0,44,36,1067,['n'],0,left,['8'],4,710,[0.06383632],6,44,hard,plus,dotcolour,alfa,,,130,18,V,R,
116,116,32,2,0,33,47,700,['n'],1,right,['8'],4,247,[-0.08217724],100,47,medium,plus,dotcolour,alfa,,,130,18,V,R,
117,117,33,2,0,44,36,1100,['n'],0,left,['0'],6,506,[-0.09322603],99,44,hard,plus,dotcolour,alfa,,,130,18,V,R,
118,118,34,2,0,53,27,1234,['c'],1,left,['0'],6,238,[0.11470689],100,53,easy,plus,dotcolour,alfa,,,130,18,V,R,
119,119,35,2,0,53,27,2834,['c'],1,left,['8'],4,2485,[0.53602253],100,53,easy,plus,dotcolour,alfa,,,130,18,V,R,
120,120,36,2,0,47,33,1066,['c'],1,left,['9'],5,1623,[0.19905057],100,47,medium,plus,dotcolour,alfa,,,130,18,V,R,
121,121,37,2,0,33,47,1000,['n'],1,right,['9'],5,423,[-0.17035302],100,47,medium,plus,dotcolour,alfa,,,130,18,V,R,
122,122,38,2,0,44,36,784,['n'],0,left,['9'],5,736,[0.00140529],49,44,hard,plus,dotcolour,alfa,,,130,18,V,R,
123,123,39,2,0,47,33,1400,['c'],1,left,['8'],4,1251,[-0.03706246],23,47,medium,plus,dotcolour,alfa,,,130,18,V,R,
124,124,40,2,0,53,27,1284,['c'],1,left,['9'],5,398,[0.14575971],100,53,easy,plus,dotcolour,alfa,,,130,18,V,R,
125,125,41,2,0,27,53,850,['n'],1,right,['0'],6,374,[-0.03117057],86,53,easy,plus,dotcolour,alfa,,,130,18,V,R,
126,0,0,3,1,44,36,1783,['n'],0,left,['3'],3,623,[-0.02524152],57,44,hard,minus,dotcolour,alfa,,,130,18,V,R,
127,1,1,3,1,47,33,1700,['c'],1,left,['9'],5,1619,[0.26120981],86,47,medium,minus,dotcolour,alfa,,,130,18,V,R,
128,2,2,3,1,44,36,1200,['n'],0,left,['0'],6,491,[-0.09078855],76,44,hard,minus,dotcolour,alfa,,,130,18,V,R,
129,3,3,3,1,36,44,933,['n'],1,right,['9'],5,491,[-0.06706293],70,44,hard,minus,dotcolour,alfa,,,130,18,V,R,
130,4,4,3,1,27,53,1049,['n'],1,right,['9'],5,462,[-0.17420141],91,53,easy,minus,dotcolour,alfa,,,130,18,V,R,
131,5,5,3,1,44,36,1083,['c'],1,left,['9'],5,394,[0.23435968],97,44,hard,minus,dotcolour,alfa,,,130,18,V,R,
132,6,6,3,1,33,47,1232,['n'],1,right,['9'],5,978,[-0.2672886],92,47,medium,minus,dotcolour,alfa,,,130,18,V,R,
133,7,7,3,1,53,27,2184,['c'],1,left,['0'],6,460,[0.04742464],65,53,easy,minus,dotcolour,alfa,,,130,18,V,R,
134,8,8,3,1,53,27,850,['c'],1,left,['9'],5,1209,[0.0669137],63,53,easy,minus,dotcolour,alfa,,,130,18,V,R,
135,9,9,3,1,36,44,1050,['n'],1,right,['0'],6,456,[-0.04362394],64,44,hard,minus,dotcolour,alfa,,,130,18,V,R,
136,10,10,3,1,33,47,867,['n'],1,right,['0'],6,259,[-0.10898368],87,47,medium,minus,dotcolour,alfa,,,130,18,V,R,
137,11,11,3,1,27,53,734,['n'],1,right,['0'],6,413,[-0.11786711],84,53,easy,minus,dotcolour,alfa,,,130,18,V,R,
138,12,12,3,1,36,44,1283,['c'],0,right,['8'],4,1610,[-0.06347623],39,44,hard,minus,dotcolour,alfa,,,130,18,V,R,
139,13,13,3,1,44,36,1352,['c'],1,left,['8'],4,1229,[0.22589006],86,44,hard,minus,dotcolour,alfa,,,130,18,V,R,
140,14,14,3,1,33,47,1167,['n'],1,right,['0'],6,262,[-0.10013989],85,47,medium,minus,dotcolour,alfa,,,130,18,V,R,
141,15,15,3,1,47,33,2750,['n'],0,left,['8'],4,519,[-0.03118231],60,47,medium,minus,dotcolour,alfa,,,130,18,V,R,
142,16,16,3,1,47,33,1184,['c'],1,left,['9'],5,1060,[0.13588573],77,47,medium,minus,dotcolour,alfa,,,130,18,V,R,
143,17,17,3,1,44,36,1700,['n'],0,left,['0'],6,239,[-0.07809144],81,44,hard,minus,dotcolour,alfa,,,130,18,V,R,
144,18,18,3,1,36,44,1866,['n'],1,right,['8'],4,908,[-0.18355154],85,44,hard,minus,dotcolour,alfa,,,130,18,V,R,
145,19,19,3,1,53,27,1101,['n'],0,left,['1'],1,3972,[0.03805089],46,53,easy,minus,dotcolour,alfa,,,130,18,V,R,
146,20,20,3,1,33,47,1168,['n'],1,right,['0'],6,295,[-0.0818451],80,47,medium,minus,dotcolour,alfa,,,130,18,V,R,
147,21,21,3,1,36,44,1050,['n'],1,right,['0'],6,258,[-0.0744902],79,44,hard,minus,dotcolour,alfa,,,130,18,V,R,
148,22,22,3,1,53,27,3000,['c'],1,left,['9'],5,1065,[0.17848819],83,53,easy,minus,dotcolour,alfa,,,130,18,V,R,
149,23,23,3,1,27,53,2017,['n'],1,right,['9'],5,599,[-0.11254546],79,53,easy,minus,dotcolour,alfa,,,130,18,V,R,
150,24,24,3,1,47,33,1601,['c'],1,left,['8'],4,1008,[0.13222867],77,47,medium,minus,dotcolour,alfa,,,130,18,V,R,
151,25,25,3,1,53,27,1833,['c'],1,left,['9'],5,272,[0.08019748],80,53,easy,minus,dotcolour,alfa,,,130,18,V,R,
152,26,26,3,1,47,33,800,['c'],1,left,['9'],5,231,[0.07914209],81,47,medium,minus,dotcolour,alfa,,,130,18,V,R,
153,27,27,3,1,27,53,984,['n'],1,right,['0'],6,367,[-0.11805252],85,53,easy,minus,dotcolour,alfa,,,130,18,V,R,
154,28,28,3,1,53,27,785,['n'],0,left,['0'],6,82,[-0.08856949],94,53,easy,minus,dotcolour,alfa,,,130,18,V,R,
155,29,29,3,1,27,53,800,['n'],1,right,['0'],6,104,[-0.07026266],88,53,easy,minus,dotcolour,alfa,,,130,18,V,R,
156,30,30,3,1,47,33,1217,['c'],1,left,['9'],5,245,[0.16424988],95,47,medium,minus,dotcolour,alfa,,,130,18,V,R,
157,31,31,3,1,36,44,783,['n'],1,right,['0'],6,245,[-0.08003433],81,44,hard,minus,dotcolour,alfa,,,130,18,V,R,
158,32,32,3,1,44,36,86,['c'],1,left,['9'],5,725,[0.24158167],93,44,hard,minus,dotcolour,alfa,,,130,18,V,R,
159,33,33,3,1,33,47,800,['n'],1,right,['9'],5,336,[-0.08162107],78,47,medium,minus,dotcolour,alfa,,,130,18,V,R,
160,34,34,3,1,33,47,717,['n'],1,right,['8'],4,1159,[-0.24867516],89,47,medium,minus,dotcolour,alfa,,,130,18,V,R,
161,35,35,3,1,44,36,934,['c'],1,left,['9'],5,269,[0.04238901],68,44,hard,minus,dotcolour,alfa,,,130,18,V,R,
162,36,36,3,1,27,53,667,['n'],1,right,['0'],6,249,[-0.172463],96,53,easy,minus,dotcolour,alfa,,,130,18,V,R,
163,37,37,3,1,47,33,1000,['c'],1,left,['0'],6,392,[0.07299145],74,47,medium,minus,dotcolour,alfa,,,130,18,V,R,
164,38,38,3,1,53,27,850,['c'],1,left,['9'],5,567,[0.11224157],79,53,easy,minus,dotcolour,alfa,,,130,18,V,R,
165,39,39,3,1,27,53,667,['n'],1,right,['0'],6,200,[-0.11802257],91,53,easy,minus,dotcolour,alfa,,,130,18,V,R,
166,40,40,3,1,36,44,1633,['n'],1,right,['9'],5,264,[-0.07931888],80,44,hard,minus,dotcolour,alfa,,,130,18,V,R,
167,41,41,3,1,33,47,784,['n'],1,right,['9'],5,382,[-0.08063422],76,47,medium,minus,dotcolour,alfa,,,130,18,V,R,
168,42,0,4,1,36,44,1350,['n'],1,right,['9'],5,220,[-0.06298115],77,44,hard,minus,dotcolour,alfa,,,130,18,V,R,
169,43,1,4,1,44,36,1050,['c'],1,left,['8'],4,706,[0.13360107],81,44,hard,minus,dotcolour,alfa,,,130,18,V,R,
170,44,2,4,1,53,27,2633,['c'],1,left,['0'],6,1047,[0.24480022],90,53,easy,minus,dotcolour,alfa,,,130,18,V,R,
171,45,3,4,1,36,44,1283,['n'],1,right,['9'],5,730,[-0.1210699],78,44,hard,minus,dotcolour,alfa,,,130,18,V,R,
172,46,4,4,1,36,44,1600,['n'],1,right,['9'],5,862,[-0.2860107],94,44,hard,minus,dotcolour,alfa,,,130,18,V,R,
173,47,5,4,1,44,36,750,['c'],1,left,['0'],6,496,[0.07474921],72,44,hard,minus,dotcolour,alfa,,,130,18,V,R,
174,48,6,4,1,33,47,1116,['n'],1,right,['8'],4,879,[-0.29587405],94,47,medium,minus,dotcolour,alfa,,,130,18,V,R,
175,49,7,4,1,33,47,1116,['n'],1,right,['9'],5,392,[-0.06805259],73,47,medium,minus,dotcolour,alfa,,,130,18,V,R,
176,50,8,4,1,33,47,1084,['n'],1,right,['0'],6,631,[-0.18318475],89,47,medium,minus,dotcolour,alfa,,,130,18,V,R,
177,51,9,4,1,47,33,1350,['c'],1,left,['9'],5,2000,[0.10168188],66,47,medium,minus,dotcolour,alfa,,,130,18,V,R,
178,52,10,4,1,36,44,3751,['n'],1,right,['8'],4,3579,[-0.32985835],83,44,hard,minus,dotcolour,alfa,,,130,18,V,R,
179,53,11,4,1,27,53,1317,['n'],1,right,['9'],5,872,[-0.1289787],78,53,easy,minus,dotcolour,alfa,,,130,18,V,R,
180,54,12,4,1,27,53,1000,['n'],1,right,['0'],6,302,[-0.0228344],59,53,easy,minus,dotcolour,alfa,,,130,18,V,R,
181,55,13,4,1,33,47,1483,['c'],0,right,['8'],4,856,[0.03925002],59,47,medium,minus,dotcolour,alfa,,,130,18,V,R,
182,56,14,4,1,53,27,1067,['c'],1,left,['0'],6,820,[0.29659678],95,53,easy,minus,dotcolour,alfa,,,130,18,V,R,
183,57,15,4,1,36,44,1083,['n'],1,right,['0'],6,424,[-0.07551165],74,44,hard,minus,dotcolour,alfa,,,130,18,V,R,
184,58,16,4,1,44,36,1566,['n'],0,left,['0'],6,370,[-0.04902737],67,44,hard,minus,dotcolour,alfa,,,130,18,V,R,
185,59,17,4,1,27,53,2400,['n'],1,right,['3'],3,3764,[-1.04098362],99,53,easy,minus,dotcolour,alfa,,,130,18,V,R,
186,60,18,4,1,33,47,1783,['n'],1,right,['0'],6,534,[-0.18220202],90,47,medium,minus,dotcolour,alfa,,,130,18,V,R,
187,61,19,4,1,53,27,1950,['c'],1,left,['0'],6,516,[0.11642892],81,53,easy,minus,dotcolour,alfa,,,130,18,V,R,
188,62,20,4,1,27,53,1001,['n'],1,right,['0'],6,249,[-0.06521804],76,53,easy,minus,dotcolour,alfa,,,130,18,V,R,
189,63,21,4,1,27,53,784,['n'],1,right,['0'],6,193,[-0.14397868],95,53,easy,minus,dotcolour,alfa,,,130,18,V,R,
190,64,22,4,1,44,36,1934,['c'],1,left,['3'],3,1389,[0.00137984],50,44,hard,minus,dotcolour,alfa,,,130,18,V,R,
191,65,23,4,1,47,33,850,['n'],0,left,['8'],4,196,[-0.04417592],71,47,medium,minus,dotcolour,alfa,,,130,18,V,R,
192,66,24,4,1,47,33,1300,['n'],0,left,['0'],6,290,[-0.10780741],86,47,medium,minus,dotcolour,alfa,,,130,18,V,R,
193,67,25,4,1,44,36,851,['c'],1,left,['0'],6,261,[0.02938597],63,44,hard,minus,dotcolour,alfa,,,130,18,V,R,
194,68,26,4,1,53,27,950,['c'],1,left,['0'],6,238,[0.10913696],88,53,easy,minus,dotcolour,alfa,,,130,18,V,R,
195,69,27,4,1,44,36,917,['c'],1,left,['9'],5,1457,[0.20786816],82,44,hard,minus,dotcolour,alfa,,,130,18,V,R,
196,70,28,4,1,33,47,984,['c'],0,right,['0'],6,256,[0.1055556],87,47,medium,minus,dotcolour,alfa,,,130,18,V,R,
197,71,29,4,1,53,27,1001,['c'],1,left,['9'],5,2295,[0.68151103],98,53,easy,minus,dotcolour,alfa,,,130,18,V,R,
198,72,30,4,1,36,44,1000,['n'],1,right,['0'],6,220,[-0.17360099],97,44,hard,minus,dotcolour,alfa,,,130,18,V,R,
199,73,31,4,1,47,33,882,['c'],1,left,['0'],6,218,[0.13537013],93,47,medium,minus,dotcolour,alfa,,,130,18,V,R,
200,74,32,4,1,27,53,950,['n'],1,right,['0'],6,244,[-0.16328927],95,53,easy,minus,dotcolour,alfa,,,130,18,V,R,
201,75,33,4,1,27,53,2901,['c'],0,right,['3'],3,1127,[-0.21436063],14,53,easy,minus,dotcolour,alfa,,,130,18,V,R,
202,76,34,4,1,44,36,1901,['c'],1,left,['0'],6,263,[0.08804472],82,44,hard,minus,dotcolour,alfa,,,130,18,V,R,
203,77,35,4,1,53,27,1017,['c'],1,left,['0'],6,221,[0.12870254],92,53,easy,minus,dotcolour,alfa,,,130,18,V,R,
204,78,36,4,1,47,33,1317,['c'],1,left,['3'],3,673,[0.32692095],97,47,medium,minus,dotcolour,alfa,,,130,18,V,R,
205,79,37,4,1,47,33,1134,['n'],0,left,['9'],5,217,[0.00205951],49,47,medium,minus,dotcolour,alfa,,,130,18,V,R,
206,80,38,4,1,53,27,834,['c'],1,left,['9'],5,265,[0.15224428],93,53,easy,minus,dotcolour,alfa,,,130,18,V,R,
207,81,39,4,1,47,33,817,['c'],1,left,['0'],6,207,[0.15774778],96,47,medium,minus,dotcolour,alfa,,,130,18,V,R,
208,82,40,4,1,36,44,1083,['n'],1,right,['0'],6,268,[-0.07070938],77,44,hard,minus,dotcolour,alfa,,,130,18,V,R,
209,83,41,4,1,33,47,1116,['n'],1,right,['0'],6,222,[-0.14284247],94,47,medium,minus,dotcolour,alfa,,,130,18,V,R,
210,84,0,5,1,44,36,2434,['c'],1,left,['3'],3,716,[0.02068749],55,44,hard,minus,dotcolour,alfa,,,130,18,V,R,
211,85,1,5,1,44,36,1633,['c'],1,left,['9'],5,871,[0.11078551],74,44,hard,minus,dotcolour,alfa,,,130,18,V,R,
212,86,2,5,1,33,47,885,['n'],1,right,['0'],6,162,[-0.13894876],96,47,medium,minus,dotcolour,alfa,,,130,18,V,R,
213,87,3,5,1,33,47,1000,['n'],1,right,['0'],6,308,[-0.04347614],67,47,medium,minus,dotcolour,alfa,,,130,18,V,R,
214,88,4,5,1,27,53,784,['n'],1,right,['9'],5,346,[-0.01357596],55,53,easy,minus,dotcolour,alfa,,,130,18,V,R,
215,89,5,5,1,47,33,817,['n'],0,left,['0'],6,204,[-0.05777135],76,47,medium,minus,dotcolour,alfa,,,130,18,V,R,
216,90,6,5,1,36,44,1167,['n'],1,right,['3'],3,463,[-0.12515695],84,44,hard,minus,dotcolour,alfa,,,130,18,V,R,
217,91,7,5,1,36,44,949,['n'],1,right,['9'],5,279,[-0.16249617],94,44,hard,minus,dotcolour,alfa,,,130,18,V,R,
218,92,8,5,1,44,36,683,['n'],0,left,['0'],6,218,[-0.05654463],75,44,hard,minus,dotcolour,alfa,,,130,18,V,R,
219,93,9,5,1,53,27,1033,['c'],1,left,['9'],5,362,[0.19178392],95,53,easy,minus,dotcolour,alfa,,,130,18,V,R,
220,94,10,5,1,47,33,1200,['n'],0,left,['0'],6,2124,[0.31966047],12,47,medium,minus,dotcolour,alfa,,,130,18,V,R,
221,95,11,5,1,27,53,750,['n'],1,right,['0'],6,122,[-0.11383792],95,53,easy,minus,dotcolour,alfa,,,130,18,V,R,
222,96,12,5,1,36,44,2051,['n'],1,right,['9'],5,277,[-0.0687046],76,44,hard,minus,dotcolour,alfa,,,130,18,V,R,
223,97,13,5,1,47,33,1784,['n'],0,left,['8'],4,427,[0.04894382],34,47,medium,minus,dotcolour,alfa,,,130,18,V,R,
224,98,14,5,1,53,27,2066,['c'],1,left,['8'],4,416,[0.0880766],77,53,easy,minus,dotcolour,alfa,,,130,18,V,R,
225,99,15,5,1,33,47,950,['n'],1,right,['9'],5,291,[-0.03009438],62,47,medium,minus,dotcolour,alfa,,,130,18,V,R,
226,100,16,5,1,33,47,1250,['n'],1,right,['0'],6,135,[-0.11463273],94,47,medium,minus,dotcolour,alfa,,,130,18,V,R,
227,101,17,5,1,47,33,1518,['n'],0,left,['9'],5,422,[-0.01831869],56,47,medium,minus,dotcolour,alfa,,,130,18,V,R,
228,102,18,5,1,36,44,1183,['n'],1,right,['0'],6,335,[-0.20713624],96,44,hard,minus,dotcolour,alfa,,,130,18,V,R,
229,103,19,5,1,53,27,1984,['c'],1,left,['0'],6,219,[0.14423413],94,53,easy,minus,dotcolour,alfa,,,130,18,V,R,
230,104,20,5,1,27,53,800,['n'],1,right,['0'],6,211,[-0.09260282],86,53,easy,minus,dotcolour,alfa,,,130,18,V,R,
231,105,21,5,1,27,53,650,['n'],1,right,['0'],6,178,[-0.10168866],90,53,easy,minus,dotcolour,alfa,,,130,18,V,R,
232,106,22,5,1,33,47,616,['n'],1,right,['0'],6,228,[-0.08858277],84,47,medium,minus,dotcolour,alfa,,,130,18,V,R,
233,107,23,5,1,44,36,1084,['n'],0,left,['0'],6,225,[-0.09357446],86,44,hard,minus,dotcolour,alfa,,,130,18,V,R,
234,108,24,5,1,47,33,833,['n'],0,left,['0'],6,287,[-0.09530424],83,47,medium,minus,dotcolour,alfa,,,130,18,V,R,
235,109,25,5,1,47,33,1834,['n'],0,left,['0'],6,220,[-0.00239512],51,47,medium,minus,dotcolour,alfa,,,130,18,V,R,
236,110,26,5,1,44,36,1484,['c'],1,left,['8'],4,177,[0.06999415],82,44,hard,minus,dotcolour,alfa,,,130,18,V,R,
237,111,27,5,1,53,27,1034,['c'],1,left,['0'],6,194,[0.18402403],98,53,easy,minus,dotcolour,alfa,,,130,18,V,R,
238,112,28,5,1,27,53,1017,['n'],1,right,['0'],6,202,[-0.17175027],97,53,easy,minus,dotcolour,alfa,,,130,18,V,R,
239,113,29,5,1,53,27,1400,['c'],1,left,['8'],4,228,[0.17732227],97,53,easy,minus,dotcolour,alfa,,,130,18,V,R,
240,114,30,5,1,27,53,733,['n'],1,right,['0'],6,1046,[-0.19112182],84,53,easy,minus,dotcolour,alfa,,,130,18,V,R,
241,115,31,5,1,44,36,967,['n'],0,left,['0'],6,495,[0.07760449],27,44,hard,minus,dotcolour,alfa,,,130,18,V,R,
242,116,32,5,1,33,47,634,['n'],1,right,['9'],5,283,[-0.1009716],85,47,medium,minus,dotcolour,alfa,,,130,18,V,R,
243,117,33,5,1,27,53,700,['n'],1,right,['0'],6,253,[-0.20920788],98,53,easy,minus,dotcolour,alfa,,,130,18,V,R,
244,118,34,5,1,36,44,600,['n'],1,right,['0'],6,237,[-0.07749301],81,44,hard,minus,dotcolour,alfa,,,130,18,V,R,
245,119,35,5,1,36,44,1251,['n'],1,right,['8'],4,859,[-0.12852758],78,44,hard,minus,dotcolour,alfa,,,130,18,V,R,
246,120,36,5,1,53,27,934,['c'],1,left,['0'],6,228,[0.13132727],92,53,easy,minus,dotcolour,alfa,,,130,18,V,R,
247,121,37,5,1,44,36,850,['n'],0,left,['0'],6,226,[-0.18181176],97,44,hard,minus,dotcolour,alfa,,,130,18,V,R,
248,122,38,5,1,36,44,767,['n'],1,right,['0'],6,203,[-0.11065105],90,44,hard,minus,dotcolour,alfa,,,130,18,V,R,
249,123,39,5,1,33,47,667,['n'],1,right,['9'],5,690,[-0.21500717],91,47,medium,minus,dotcolour,alfa,,,130,18,V,R,
250,124,40,5,1,53,27,818,['n'],0,left,['1'],1,1454,[0.09780305],33,53,easy,minus,dotcolour,alfa,,,130,18,V,R,
251,125,41,5,1,47,33,933,['n'],0,left,['8'],4,336,[-0.06067671],72,47,medium,minus,dotcolour,alfa,,,130,18,V,R,
252,0,0,6,2,47,33,2183,['c'],1,left,['9'],5,746,[0.21049833],100,47,medium,plus,dotcolour,alfa,,,130,18,V,R,
253,1,1,6,2,27,53,3800,['n'],1,right,['0'],6,366,[-0.11705783],100,53,easy,plus,dotcolour,alfa,,,130,18,V,R,
254,2,2,6,2,44,36,1917,['n'],0,left,['8'],4,1300,[-0.05115461],83,44,hard,plus,dotcolour,alfa,,,130,18,V,R,
255,3,3,6,2,47,33,1700,['n'],0,left,['0'],6,356,[-0.04596514],94,47,medium,plus,dotcolour,alfa,,,130,18,V,R,
256,4,4,6,2,36,44,916,['n'],1,right,['8'],4,819,[-0.01396443],64,44,hard,plus,dotcolour,alfa,,,130,18,V,R,
257,5,5,6,2,44,36,783,['n'],0,left,['8'],4,2443,[0.13395414],4,44,hard,plus,dotcolour,alfa,,,130,18,V,R,
258,6,6,6,2,44,36,1467,['n'],0,left,['9'],5,439,[-0.02644372],81,44,hard,plus,dotcolour,alfa,,,130,18,V,R,
259,7,7,6,2,44,36,650,['c'],1,left,['9'],5,293,[0.11349493],100,44,hard,plus,dotcolour,alfa,,,130,18,V,R,
260,8,8,6,2,53,27,1201,['c'],1,left,['0'],6,426,[0.21297046],100,53,easy,plus,dotcolour,alfa,,,130,18,V,R,
261,9,9,6,2,33,47,1167,['n'],1,right,['9'],5,283,[-0.10233402],100,47,medium,plus,dotcolour,alfa,,,130,18,V,R,
262,10,10,6,2,27,53,1301,['n'],1,right,['9'],5,293,[-0.07206589],99,53,easy,plus,dotcolour,alfa,,,130,18,V,R,
263,11,11,6,2,27,53,917,['n'],1,right,['0'],6,198,[-0.12747826],100,53,easy,plus,dotcolour,alfa,,,130,18,V,R,
264,12,12,6,2,27,53,683,['n'],1,right,['0'],6,251,[-0.07430245],100,53,easy,plus,dotcolour,alfa,,,130,18,V,R,
265,13,13,6,2,33,47,900,['n'],1,right,['0'],6,247,[-0.13605118],100,47,medium,plus,dotcolour,alfa,,,130,18,V,R,
266,14,14,6,2,36,44,817,['n'],1,right,['0'],6,253,[-0.0811251],100,44,hard,plus,dotcolour,alfa,,,130,18,V,R,
267,15,15,6,2,27,53,600,['n'],1,right,['0'],6,301,[-0.10897445],100,53,easy,plus,dotcolour,alfa,,,130,18,V,R,
268,16,16,6,2,53,27,1333,['c'],1,left,['0'],6,221,[0.13302406],100,53,easy,plus,dotcolour,alfa,,,130,18,V,R,
269,17,17,6,2,36,44,1100,['n'],1,right,['0'],6,241,[-0.11249158],100,44,hard,plus,dotcolour,alfa,,,130,18,V,R,
270,18,18,6,2,33,47,632,['n'],1,right,['0'],6,247,[-0.07668027],100,47,medium,plus,dotcolour,alfa,,,130,18,V,R,
271,19,19,6,2,33,47,749,['n'],1,right,['0'],6,241,[-0.08223925],100,47,medium,plus,dotcolour,alfa,,,130,18,V,R,
272,20,20,6,2,44,36,717,['n'],0,left,['0'],6,235,[-0.05649909],99,44,hard,plus,dotcolour,alfa,,,130,18,V,R,
273,21,21,6,2,53,27,1150,['c'],1,left,['9'],5,381,[0.17457954],100,53,easy,plus,dotcolour,alfa,,,130,18,V,R,
274,22,22,6,2,36,44,750,['n'],1,right,['0'],6,217,[-0.11123637],100,44,hard,plus,dotcolour,alfa,,,130,18,V,R,
275,23,23,6,2,53,27,934,['c'],1,left,['9'],5,309,[0.12253363],100,53,easy,plus,dotcolour,alfa,,,130,18,V,R,
276,24,24,6,2,53,27,1200,['n'],0,left,['9'],5,802,[0.04521011],14,53,easy,plus,dotcolour,alfa,,,130,18,V,R,
277,25,25,6,2,36,44,767,['n'],1,right,['0'],6,244,[-0.08608978],100,44,hard,plus,dotcolour,alfa,,,130,18,V,R,
278,26,26,6,2,47,33,1067,['n'],0,left,['8'],4,296,[0.05663417],2,47,medium,plus,dotcolour,alfa,,,130,18,V,R,
279,27,27,6,2,27,53,817,['n'],1,right,['0'],6,205,[-0.17455888],100,53,easy,plus,dotcolour,alfa,,,130,18,V,R,
280,28,28,6,2,27,53,650,['n'],1,right,['0'],6,229,[-0.05642103],99,53,easy,plus,dotcolour,alfa,,,130,18,V,R,
281,29,29,6,2,47,33,901,['c'],1,left,['9'],5,576,[0.03016216],81,47,medium,plus,dotcolour,alfa,,,130,18,V,R,
282,30,30,6,2,36,44,701,['n'],1,right,['0'],6,182,[-0.04054921],97,44,hard,plus,dotcolour,alfa,,,130,18,V,R,
283,31,31,6,2,44,36,650,['n'],0,left,['0'],6,158,[-0.06801416],100,44,hard,plus,dotcolour,alfa,,,130,18,V,R,
284,32,32,6,2,44,36,751,['n'],0,left,['3'],3,827,[-0.0794686],96,44,hard,plus,dotcolour,alfa,,,130,18,V,R,
285,33,33,6,2,47,33,650,['n'],0,left,['0'],6,201,[-0.0114927],72,47,medium,plus,dotcolour,alfa,,,130,18,V,R,
286,34,34,6,2,33,47,801,['n'],1,right,['0'],6,227,[-0.08522604],100,47,medium,plus,dotcolour,alfa,,,130,18,V,R,
287,35,35,6,2,53,27,867,['c'],1,left,['9'],5,240,[0.1628277],100,53,easy,plus,dotcolour,alfa,,,130,18,V,R,
288,36,36,6,2,33,47,950,['c'],0,right,['9'],5,289,[-0.0287601],13,47,medium,plus,dotcolour,alfa,,,130,18,V,R,
289,37,37,6,2,33,47,901,['n'],1,right,['0'],6,307,[-0.13565869],100,47,medium,plus,dotcolour,alfa,,,130,18,V,R,
290,38,38,6,2,47,33,1700,['c'],1,left,['9'],5,371,[0.14862156],100,47,medium,plus,dotcolour,alfa,,,130,18,V,R,
291,39,39,6,2,36,44,667,['n'],1,right,['9'],5,291,[0.00962656],34,44,hard,plus,dotcolour,alfa,,,130,18,V,R,
292,40,40,6,2,47,33,984,['c'],1,left,['8'],4,617,[0.15602899],100,47,medium,plus,dotcolour,alfa,,,130,18,V,R,
293,41,41,6,2,53,27,1484,['c'],1,left,['0'],6,677,[0.0600814],93,53,easy,plus,dotcolour,alfa,,,130,18,V,R,
294,42,0,7,2,44,36,1500,['n'],0,left,['0'],6,190,[-0.02818996],91,44,hard,plus,dotcolour,alfa,,,130,18,V,R,
295,43,1,7,2,44,36,1050,['n'],0,left,['8'],4,509,[0.03651016],14,44,hard,plus,dotcolour,alfa,,,130,18,V,R,
296,44,2,7,2,53,27,1434,['c'],1,left,['9'],5,256,[0.13919413],100,53,easy,plus,dotcolour,alfa,,,130,18,V,R,
297,45,3,7,2,47,33,1551,['c'],1,left,['9'],5,505,[0.20077639],100,47,medium,plus,dotcolour,alfa,,,130,18,V,R,
298,46,4,7,2,27,53,1467,['n'],1,right,['0'],6,411,[-0.10507978],100,53,easy,plus,dotcolour,alfa,,,130,18,V,R,
299,47,5,7,2,36,44,2017,['c'],0,right,['8'],4,411,[-0.02924376],16,44,hard,plus,dotcolour,alfa,,,130,18,V,R,
300,48,6,7,2,36,44,1001,['n'],1,right,['0'],6,308,[-0.07141608],99,44,hard,plus,dotcolour,alfa,,,130,18,V,R,
301,49,7,7,2,44,36,849,['n'],0,left,['8'],4,295,[-0.01236528],69,44,hard,plus,dotcolour,alfa,,,130,18,V,R,
302,50,8,7,2,36,44,1050,['n'],1,right,['9'],5,442,[-0.13244949],100,44,hard,plus,dotcolour,alfa,,,130,18,V,R,
303,51,9,7,2,44,36,1666,['n'],0,left,['9'],5,263,[-0.09923647],100,44,hard,plus,dotcolour,alfa,,,130,18,V,R,
304,52,10,7,2,27,53,866,['n'],1,right,['9'],5,355,[-0.28328802],100,53,easy,plus,dotcolour,alfa,,,130,18,V,R,
305,53,11,7,2,44,36,1199,['c'],1,left,['9'],5,406,[0.06046831],97,44,hard,plus,dotcolour,alfa,,,130,18,V,R,
306,54,12,7,2,44,36,733,['c'],1,left,['9'],5,225,[0.15116506],100,44,hard,plus,dotcolour,alfa,,,130,18,V,R,
307,55,13,7,2,47,33,1433,['c'],1,left,['9'],5,552,[0.1678023],100,47,medium,plus,dotcolour,alfa,,,130,18,V,R,
308,56,14,7,2,33,47,1018,['n'],1,right,['9'],5,178,[-0.1309235],100,47,medium,plus,dotcolour,alfa,,,130,18,V,R,
309,57,15,7,2,47,33,834,['c'],1,left,['9'],5,219,[0.19396891],100,47,medium,plus,dotcolour,alfa,,,130,18,V,R,
310,58,16,7,2,27,53,783,['n'],1,right,['9'],5,275,[-0.06973637],99,53,easy,plus,dotcolour,alfa,,,130,18,V,R,
311,59,17,7,2,33,47,883,['n'],1,right,['0'],6,269,[-0.15124775],100,47,medium,plus,dotcolour,alfa,,,130,18,V,R,
312,60,18,7,2,27,53,1533,['n'],1,right,['0'],6,383,[-0.1524534],100,53,easy,plus,dotcolour,alfa,,,130,18,V,R,
313,61,19,7,2,36,44,1300,['c'],0,right,['0'],6,540,[0.10599053],99,44,hard,plus,dotcolour,alfa,,,130,18,V,R,
314,62,20,7,2,53,27,1783,['n'],0,left,['8'],4,680,[0.11431398],1,53,easy,plus,dotcolour,alfa,,,130,18,V,R,
315,63,21,7,2,53,27,933,['c'],1,left,['0'],6,137,[0.07057917],100,53,easy,plus,dotcolour,alfa,,,130,18,V,R,
316,64,22,7,2,47,33,767,['c'],1,left,['0'],6,238,[0.06918576],99,47,medium,plus,dotcolour,alfa,,,130,18,V,R,
317,65,23,7,2,33,47,734,['n'],1,right,['0'],6,169,[-0.10104382],100,47,medium,plus,dotcolour,alfa,,,130,18,V,R,
318,66,24,7,2,47,33,718,['c'],1,left,['0'],6,199,[0.09391936],100,47,medium,plus,dotcolour,alfa,,,130,18,V,R,
319,67,25,7,2,53,27,767,['c'],1,left,['0'],6,202,[0.19476025],100,53,easy,plus,dotcolour,alfa,,,130,18,V,R,
320,68,26,7,2,53,27,1117,['c'],1,left,['0'],6,158,[0.11338438],100,53,easy,plus,dotcolour,alfa,,,130,18,V,R,
321,69,27,7,2,47,33,983,['c'],1,left,['0'],6,170,[0.16875536],100,47,medium,plus,dotcolour,alfa,,,130,18,V,R,
322,70,28,7,2,36,44,950,['n'],1,right,['0'],6,182,[-0.13759836],100,44,hard,plus,dotcolour,alfa,,,130,18,V,R,
323,71,29,7,2,53,27,817,['c'],1,left,['0'],6,224,[0.17166475],100,53,easy,plus,dotcolour,alfa,,,130,18,V,R,
324,72,30,7,2,33,47,967,['n'],1,right,['0'],6,201,[-0.07786497],100,47,medium,plus,dotcolour,alfa,,,130,18,V,R,
325,73,31,7,2,47,33,667,['c'],1,left,['0'],6,192,[0.08680607],100,47,medium,plus,dotcolour,alfa,,,130,18,V,R,
326,74,32,7,2,53,27,884,['c'],1,left,['0'],6,157,[0.04795652],99,53,easy,plus,dotcolour,alfa,,,130,18,V,R,
327,75,33,7,2,36,44,635,['n'],1,right,['0'],6,151,[-0.09869514],100,44,hard,plus,dotcolour,alfa,,,130,18,V,R,
328,76,34,7,2,36,44,1317,['c'],0,right,['8'],4,190,[0.14011102],100,44,hard,plus,dotcolour,alfa,,,130,18,V,R,
329,77,35,7,2,27,53,1100,['n'],1,right,['0'],6,147,[-0.08105025],100,53,easy,plus,dotcolour,alfa,,,130,18,V,R,
330,78,36,7,2,27,53,749,['n'],1,right,['0'],6,185,[-0.08542903],100,53,easy,plus,dotcolour,alfa,,,130,18,V,R,
331,79,37,7,2,33,47,4084,['c'],0,right,['3'],3,631,[0.06403851],95,47,medium,plus,dotcolour,alfa,,,130,18,V,R,
332,80,38,7,2,33,47,634,['n'],1,right,['0'],6,134,[-0.16246644],100,47,medium,plus,dotcolour,alfa,,,130,18,V,R,
333,81,39,7,2,44,36,783,['n'],0,left,['0'],6,99,[-0.05681335],100,44,hard,plus,dotcolour,alfa,,,130,18,V,R,
334,82,40,7,2,27,53,400,['n'],1,right,['0'],6,160,[-0.15991671],100,53,easy,plus,dotcolour,alfa,,,130,18,V,R,
335,83,41,7,2,33,47,600,['n'],1,right,['0'],6,91,[-0.07985617],100,47,medium,plus,dotcolour,alfa,,,130,18,V,R,
336,84,0,8,2,53,27,1083,['c'],1,left,['0'],6,200,[0.18089689],100,53,easy,plus,dotcolour,alfa,,,130,18,V,R,
337,85,1,8,2,44,36,1483,['n'],0,left,['8'],4,182,[-0.08460808],100,44,hard,plus,dotcolour,alfa,,,130,18,V,R,
338,86,2,8,2,47,33,1000,['n'],0,left,['8'],4,248,[-0.01509567],75,47,medium,plus,dotcolour,alfa,,,130,18,V,R,
339,87,3,8,2,53,27,917,['c'],1,left,['0'],6,178,[0.12274643],100,53,easy,plus,dotcolour,alfa,,,130,18,V,R,
340,88,4,8,2,27,53,917,['n'],1,right,['0'],6,151,[-0.09366198],100,53,easy,plus,dotcolour,alfa,,,130,18,V,R,
341,89,5,8,2,27,53,634,['n'],1,right,['0'],6,122,[-0.16456544],100,53,easy,plus,dotcolour,alfa,,,130,18,V,R,
342,90,6,8,2,36,44,1349,['n'],1,right,['8'],4,120,[-0.10863959],100,44,hard,plus,dotcolour,alfa,,,130,18,V,R,
343,91,7,8,2,47,33,1300,['n'],0,left,['9'],5,249,[0.00605344],39,47,medium,plus,dotcolour,alfa,,,130,18,V,R,
344,92,8,8,2,33,47,617,['n'],1,right,['0'],6,120,[-0.09309006],100,47,medium,plus,dotcolour,alfa,,,130,18,V,R,
345,93,9,8,2,44,36,666,['n'],0,left,['0'],6,98,[-0.07366693],100,44,hard,plus,dotcolour,alfa,,,130,18,V,R,
346,94,10,8,2,47,33,466,['n'],0,left,['0'],6,109,[-0.07725934],100,47,medium,plus,dotcolour,alfa,,,130,18,V,R,
347,95,11,8,2,27,53,501,['n'],1,right,['0'],6,109,[-0.08804376],100,53,easy,plus,dotcolour,alfa,,,130,18,V,R,
348,96,12,8,2,44,36,400,['n'],0,left,['0'],6,177,[-0.03586482],96,44,hard,plus,dotcolour,alfa,,,130,18,V,R,
349,97,13,8,2,33,47,533,['n'],1,right,['0'],6,110,[-0.06921555],100,47,medium,plus,dotcolour,alfa,,,130,18,V,R,
350,98,14,8,2,36,44,484,['n'],1,right,['0'],6,168,[-0.13694644],100,44,hard,plus,dotcolour,alfa,,,130,18,V,R,
351,99,15,8,2,44,36,1050,['n'],0,left,['2'],2,1920,[-0.04815644],78,44,hard,plus,dotcolour,alfa,,,130,18,V,R,
352,100,16,8,2,47,33,2016,['c'],1,left,['0'],6,331,[0.15500721],100,47,medium,plus,dotcolour,alfa,,,130,18,V,R,
353,101,17,8,2,44,36,1051,['n'],0,left,['0'],6,478,[-0.04816124],92,44,hard,plus,dotcolour,alfa,,,130,18,V,R,
354,102,18,8,2,36,44,700,['c'],0,right,['0'],6,295,[0.05208742],97,44,hard,plus,dotcolour,alfa,,,130,18,V,R,
355,103,19,8,2,33,47,950,['n'],1,right,['0'],6,183,[-0.10763931],100,47,medium,plus,dotcolour,alfa,,,130,18,V,R,
356,104,20,8,2,36,44,651,['n'],1,right,['0'],6,135,[-0.0555532],100,44,hard,plus,dotcolour,alfa,,,130,18,V,R,
357,105,21,8,2,53,27,883,['c'],1,left,['0'],6,144,[0.03680023],97,53,easy,plus,dotcolour,alfa,,,130,18,V,R,
358,106,22,8,2,53,27,800,['c'],1,left,['0'],6,107,[0.11142034],100,53,easy,plus,dotcolour,alfa,,,130,18,V,R,
359,107,23,8,2,53,27,800,['c'],1,left,['0'],6,159,[0.07992032],100,53,easy,plus,dotcolour,alfa,,,130,18,V,R,
360,108,24,8,2,47,33,799,['c'],1,left,['0'],6,250,[0.01788764],78,47,medium,plus,dotcolour,alfa,,,130,18,V,R,
361,109,25,8,2,33,47,751,['c'],0,right,['0'],6,171,[0.1142253],100,47,medium,plus,dotcolour,alfa,,,130,18,V,R,
362,110,26,8,2,33,47,1616,['n'],1,right,['0'],6,134,[-0.05678745],100,47,medium,plus,dotcolour,alfa,,,130,18,V,R,
363,111,27,8,2,27,53,683,['n'],1,right,['0'],6,150,[-0.07632259],100,53,easy,plus,dotcolour,alfa,,,130,18,V,R,
364,112,28,8,2,47,33,684,['c'],1,left,['0'],6,158,[0.09432947],100,47,medium,plus,dotcolour,alfa,,,130,18,V,R,
365,113,29,8,2,44,36,767,['c'],1,left,['0'],6,226,[0.10956097],100,44,hard,plus,dotcolour,alfa,,,130,18,V,R,
366,114,30,8,2,27,53,649,['n'],1,right,['0'],6,192,[-0.0698392],100,53,easy,plus,dotcolour,alfa,,,130,18,V,R,
367,115,31,8,2,33,47,633,['n'],1,right,['0'],6,144,[-0.16910509],100,47,medium,plus,dotcolour,alfa,,,130,18,V,R,
368,116,32,8,2,36,44,633,['n'],1,right,['0'],6,122,[-0.06857357],100,44,hard,plus,dotcolour,alfa,,,130,18,V,R,
369,117,33,8,2,47,33,2684,['c'],1,left,['3'],3,1235,[0.2419754],100,47,medium,plus,dotcolour,alfa,,,130,18,V,R,
370,118,34,8,2,33,47,583,['n'],1,right,['0'],6,107,[-0.07741627],100,47,medium,plus,dotcolour,alfa,,,130,18,V,R,
371,119,35,8,2,36,44,534,['n'],1,right,['0'],6,91,[-0.05926565],100,44,hard,plus,dotcolour,alfa,,,130,18,V,R,
372,120,36,8,2,53,27,1834,['c'],1,left,['0'],6,182,[0.10964923],100,53,easy,plus,dotcolour,alfa,,,130,18,V,R,
373,121,37,8,2,27,53,600,['n'],1,right,['0'],6,945,[-0.19227388],100,53,easy,plus,dotcolour,alfa,,,130,18,V,R,
374,122,38,8,2,27,53,584,['n'],1,right,['0'],6,109,[-0.07197828],100,53,easy,plus,dotcolour,alfa,,,130,18,V,R,
375,123,39,8,2,44,36,634,['n'],0,left,['0'],6,88,[-0.06783674],100,44,hard,plus,dotcolour,alfa,,,130,18,V,R,
376,124,40,8,2,36,44,401,['n'],1,right,['0'],6,166,[0.00171044],46,44,hard,plus,dotcolour,alfa,,,130,18,V,R,
377,125,41,8,2,53,27,650,['c'],1,left,['0'],6,143,[0.06990141],100,53,easy,plus,dotcolour,alfa,,,130,18,V,R,
378,0,0,9,3,53,27,1083,['c'],1,left,['0'],6,172,[0.12649554],94,53,easy,minus,dotcolour,alfa,,,130,18,V,R,
379,1,1,9,3,44,36,934,['c'],1,left,['0'],6,122,[0.01950762],62,44,hard,minus,dotcolour,alfa,,,130,18,V,R,
380,2,2,9,3,33,47,1367,['n'],1,right,['8'],4,119,[-0.1085842],94,47,medium,minus,dotcolour,alfa,,,130,18,V,R,
381,3,3,9,3,27,53,818,['n'],1,right,['0'],6,139,[-0.11474616],94,53,easy,minus,dotcolour,alfa,,,130,18,V,R,
382,4,4,9,3,47,33,683,['n'],0,left,['0'],6,132,[-0.03337862],70,47,medium,minus,dotcolour,alfa,,,130,18,V,R,
383,5,5,9,3,27,53,900,['n'],1,right,['0'],6,156,[-0.09599918],90,53,easy,minus,dotcolour,alfa,,,130,18,V,R,
384,6,6,9,3,33,47,583,['n'],1,right,['0'],6,111,[-0.06826434],86,47,medium,minus,dotcolour,alfa,,,130,18,V,R,
385,7,7,9,3,47,33,666,['c'],1,left,['0'],6,193,[0.0518835],74,47,medium,minus,dotcolour,alfa,,,130,18,V,R,
386,8,8,9,3,53,27,1184,['c'],1,left,['0'],6,139,[0.06861274],84,53,easy,minus,dotcolour,alfa,,,130,18,V,R,
387,9,9,9,3,36,44,617,['n'],1,right,['0'],6,127,[-0.02368277],65,44,hard,minus,dotcolour,alfa,,,130,18,V,R,
388,10,10,9,3,44,36,417,['c'],1,left,['0'],6,178,[0.12822687],94,44,hard,minus,dotcolour,alfa,,,130,18,V,R,
389,11,11,9,3,27,53,867,['n'],1,right,['9'],5,130,[-0.13066933],96,53,easy,minus,dotcolour,alfa,,,130,18,V,R,
390,12,12,9,3,44,36,800,['c'],1,left,['0'],6,173,[0.13325009],95,44,hard,minus,dotcolour,alfa,,,130,18,V,R,
391,13,13,9,3,33,47,851,['n'],1,right,['0'],6,101,[-0.05288782],82,47,medium,minus,dotcolour,alfa,,,130,18,V,R,
392,14,14,9,3,53,27,700,['c'],1,left,['9'],5,262,[0.04559701],69,53,easy,minus,dotcolour,alfa,,,130,18,V,R,
393,15,15,9,3,44,36,1683,['n'],0,left,['8'],4,394,[0.03176156],39,44,hard,minus,dotcolour,alfa,,,130,18,V,R,
394,16,16,9,3,47,33,1283,['c'],1,left,['9'],5,696,[0.09568636],74,47,medium,minus,dotcolour,alfa,,,130,18,V,R,
395,17,17,9,3,36,44,683,['n'],1,right,['0'],6,90,[-0.09355303],94,44,hard,minus,dotcolour,alfa,,,130,18,V,R,
396,18,18,9,3,53,27,1649,['n'],0,left,['9'],5,453,[-0.03192825],61,53,easy,minus,dotcolour,alfa,,,130,18,V,R,
397,19,19,9,3,53,27,750,['n'],0,left,['1'],1,1454,[0.16302439],23,53,easy,minus,dotcolour,alfa,,,130,18,V,R,
398,20,20,9,3,36,44,600,['n'],1,right,['0'],6,101,[-0.05712138],83,44,hard,minus,dotcolour,alfa,,,130,18,V,R,
399,21,21,9,3,27,53,700,['n'],1,right,['0'],6,86,[-0.05425837],84,53,easy,minus,dotcolour,alfa,,,130,18,V,R,
400,22,22,9,3,47,33,1917,['n'],0,left,['0'],6,119,[-0.04520109],76,47,medium,minus,dotcolour,alfa,,,130,18,V,R,
401,23,23,9,3,36,44,1335,['n'],1,right,['0'],6,255,[-0.12597716],90,44,hard,minus,dotcolour,alfa,,,130,18,V,R,
402,24,24,9,3,27,53,551,['n'],1,right,['0'],6,88,[-0.05844349],85,53,easy,minus,dotcolour,alfa,,,130,18,V,R,
403,25,25,9,3,33,47,884,['n'],1,right,['0'],6,219,[-0.07989807],82,47,medium,minus,dotcolour,alfa,,,130,18,V,R,
404,26,26,9,3,27,53,400,['n'],1,right,['0'],6,196,[-0.10235948],89,53,easy,minus,dotcolour,alfa,,,130,18,V,R,
405,27,27,9,3,36,44,450,['n'],1,right,['0'],6,99,[-0.08518806],92,44,hard,minus,dotcolour,alfa,,,130,18,V,R,
406,28,28,9,3,44,36,484,['n'],0,left,['0'],6,85,[-0.05063649],83,44,hard,minus,dotcolour,alfa,,,130,18,V,R,
407,29,29,9,3,27,53,667,['n'],1,right,['0'],6,72,[-0.10605729],97,53,easy,minus,dotcolour,alfa,,,130,18,V,R,
408,30,30,9,3,47,33,1150,['c'],1,left,['0'],6,129,[0.04631156],76,47,medium,minus,dotcolour,alfa,,,130,18,V,R,
409,31,31,9,3,44,36,1383,['c'],1,left,['8'],4,182,[0.09707931],89,44,hard,minus,dotcolour,alfa,,,130,18,V,R,
410,32,32,9,3,33,47,767,['c'],0,right,['8'],4,114,[0.08245924],90,47,medium,minus,dotcolour,alfa,,,130,18,V,R,
411,33,33,9,3,33,47,617,['c'],0,right,['0'],6,117,[0.06609783],85,47,medium,minus,dotcolour,alfa,,,130,18,V,R,
412,34,34,9,3,36,44,550,['n'],1,right,['0'],6,51,[-0.06287425],92,44,hard,minus,dotcolour,alfa,,,130,18,V,R,
413,35,35,9,3,53,27,800,['c'],1,left,['0'],6,251,[0.1225152],90,53,easy,minus,dotcolour,alfa,,,130,18,V,R,
414,36,36,9,3,47,33,583,['c'],1,left,['0'],6,59,[0.0525723],88,47,medium,minus,dotcolour,alfa,,,130,18,V,R,
415,37,37,9,3,33,47,466,['c'],0,right,['0'],6,103,[0.08398409],91,47,medium,minus,dotcolour,alfa,,,130,18,V,R,
416,38,38,9,3,53,27,817,['c'],1,left,['0'],6,84,[0.10014982],96,53,easy,minus,dotcolour,alfa,,,130,18,V,R,
417,39,39,9,3,47,33,650,['c'],1,left,['0'],6,72,[0.04712039],83,47,medium,minus,dotcolour,alfa,,,130,18,V,R,
418,40,40,9,3,44,36,634,['c'],1,left,['0'],6,125,[0.06938055],85,44,hard,minus,dotcolour,alfa,,,130,18,V,R,
419,41,41,9,3,36,44,433,['c'],0,right,['0'],6,95,[0.03550149],74,44,hard,minus,dotcolour,alfa,,,130,18,V,R,
420,42,0,10,3,47,33,1134,['n'],0,left,['0'],6,145,[-0.08291754],88,47,medium,minus,dotcolour,alfa,,,130,18,V,R,
421,43,1,10,3,47,33,666,['c'],1,left,['0'],6,98,[0.06112341],85,47,medium,minus,dotcolour,alfa,,,130,18,V,R,
422,44,2,10,3,33,47,550,['c'],0,right,['1'],1,2057,[-0.21608589],20,47,medium,minus,dotcolour,alfa,,,130,18,V,R,
423,45,3,10,3,47,33,700,['n'],0,left,['0'],6,52,[-0.10810958],99,47,medium,minus,dotcolour,alfa,,,130,18,V,R,
424,46,4,10,3,27,53,733,['n'],1,right,['0'],6,53,[-0.06103596],92,53,easy,minus,dotcolour,alfa,,,130,18,V,R,
425,47,5,10,3,36,44,1533,['n'],1,right,['9'],5,175,[-0.11885857],93,44,hard,minus,dotcolour,alfa,,,130,18,V,R,
426,48,6,10,3,36,44,466,['n'],1,right,['0'],6,111,[-0.07881383],89,44,hard,minus,dotcolour,alfa,,,130,18,V,R,
427,49,7,10,3,47,33,485,['n'],0,left,['0'],6,64,[-0.0415627],81,47,medium,minus,dotcolour,alfa,,,130,18,V,R,
428,50,8,10,3,33,47,467,['n'],1,right,['0'],6,76,[-0.08137346],93,47,medium,minus,dotcolour,alfa,,,130,18,V,R,
429,51,9,10,3,47,33,316,['n'],0,left,['0'],6,77,[-0.05621783],86,47,medium,minus,dotcolour,alfa,,,130,18,V,R,
430,52,10,10,3,44,36,1250,['n'],0,left,['0'],6,257,[-0.08034292],81,44,hard,minus,dotcolour,alfa,,,130,18,V,R,
431,53,11,10,3,53,27,699,['c'],1,left,['0'],6,117,[0.05817479],82,53,easy,minus,dotcolour,alfa,,,130,18,V,R,
432,54,12,10,3,27,53,949,['n'],1,right,['0'],6,108,[-0.08084745],90,53,easy,minus,dotcolour,alfa,,,130,18,V,R,
433,55,13,10,3,27,53,567,['n'],1,right,['0'],6,81,[-0.07496648],91,53,easy,minus,dotcolour,alfa,,,130,18,V,R,
434,56,14,10,3,33,47,400,['n'],1,right,['0'],6,55,[-0.06330274],92,47,medium,minus,dotcolour,alfa,,,130,18,V,R,
435,57,15,10,3,36,44,1417,['n'],1,right,['0'],6,69,[-0.10367593],97,44,hard,minus,dotcolour,alfa,,,130,18,V,R,
436,58,16,10,3,44,36,867,['n'],0,left,['3'],3,2657,[0.02982899],46,44,hard,minus,dotcolour,alfa,,,130,18,V,R,
437,59,17,10,3,53,27,1467,['c'],1,left,['0'],6,85,[0.13338189],98,53,easy,minus,dotcolour,alfa,,,130,18,V,R,
438,60,18,10,3,36,44,717,['n'],1,right,['0'],6,94,[-0.07067444],89,44,hard,minus,dotcolour,alfa,,,130,18,V,R,
439,61,19,10,3,27,53,750,['n'],1,right,['0'],6,205,[-0.05497634],75,53,easy,minus,dotcolour,alfa,,,130,18,V,R,
440,62,20,10,3,44,36,684,['c'],1,left,['0'],6,172,[0.14868899],96,44,hard,minus,dotcolour,alfa,,,130,18,V,R,
441,63,21,10,3,27,53,666,['n'],1,right,['0'],6,84,[-0.07380358],91,53,easy,minus,dotcolour,alfa,,,130,18,V,R,
442,64,22,10,3,53,27,568,['n'],0,left,['0'],6,27,[-0.08542114],99,53,easy,minus,dotcolour,alfa,,,130,18,V,R,
443,65,23,10,3,27,53,834,['n'],1,right,['0'],6,65,[-0.08885937],96,53,easy,minus,dotcolour,alfa,,,130,18,V,R,
444,66,24,10,3,53,27,750,['c'],1,left,['0'],6,90,[0.07296689],90,53,easy,minus,dotcolour,alfa,,,130,18,V,R,
445,67,25,10,3,47,33,567,['n'],0,left,['0'],6,57,[-0.06523993],92,47,medium,minus,dotcolour,alfa,,,130,18,V,R,
446,68,26,10,3,53,27,317,['n'],0,left,['0'],6,51,[-0.02368639],72,53,easy,minus,dotcolour,alfa,,,130,18,V,R,
447,69,27,10,3,44,36,866,['n'],0,left,['0'],6,39,[-0.07622264],97,44,hard,minus,dotcolour,alfa,,,130,18,V,R,
448,70,28,10,3,47,33,1600,['c'],1,left,['0'],6,127,[0.02464565],65,47,medium,minus,dotcolour,alfa,,,130,18,V,R,
449,71,29,10,3,36,44,917,['n'],1,right,['8'],4,815,[-0.11930097],77,44,hard,minus,dotcolour,alfa,,,130,18,V,R,
450,72,30,10,3,44,36,1033,['n'],0,left,['2'],2,4958,[0.28463223],24,44,hard,minus,dotcolour,alfa,,,130,18,V,R,
451,73,31,10,3,53,27,2416,['n'],0,left,['3'],3,591,[-0.00314968],51,53,easy,minus,dotcolour,alfa,,,130,18,V,R,
452,74,32,10,3,44,36,1100,['n'],0,left,['3'],3,868,[-0.02486502],56,44,hard,minus,dotcolour,alfa,,,130,18,V,R,
453,75,33,10,3,33,47,467,['n'],1,right,['0'],6,136,[0.00195346],49,47,medium,minus,dotcolour,alfa,,,130,18,V,R,
454,76,34,10,3,33,47,717,['n'],1,right,['0'],6,79,[-0.11338904],97,47,medium,minus,dotcolour,alfa,,,130,18,V,R,
455,77,35,10,3,44,36,1350,['c'],1,left,['8'],4,567,[0.06521835],69,44,hard,minus,dotcolour,alfa,,,130,18,V,R,
456,78,36,10,3,33,47,700,['n'],1,right,['0'],6,78,[-0.08152916],93,47,medium,minus,dotcolour,alfa,,,130,18,V,R,
457,79,37,10,3,53,27,567,['n'],0,left,['0'],6,93,[-0.07554488],90,53,easy,minus,dotcolour,alfa,,,130,18,V,R,
458,80,38,10,3,27,53,734,['n'],1,right,['9'],5,780,[-0.18975597],87,53,easy,minus,dotcolour,alfa,,,130,18,V,R,
459,81,39,10,3,33,47,817,['c'],0,right,['1'],1,1382,[-0.14328995],25,47,medium,minus,dotcolour,alfa,,,130,18,V,R,
460,82,40,10,3,36,44,451,['n'],1,right,['0'],6,77,[-0.08535904],94,44,hard,minus,dotcolour,alfa,,,130,18,V,R,
461,83,41,10,3,36,44,367,['n'],1,right,['0'],6,116,[-0.14103056],98,44,hard,minus,dotcolour,alfa,,,130,18,V,R,
462,84,0,11,3,44,36,1717,['c'],1,left,['0'],6,177,[0.11817948],93,44,hard,minus,dotcolour,alfa,,,130,18,V,R,
463,85,1,11,3,36,44,1682,['n'],1,right,['0'],6,72,[-0.06942777],91,44,hard,minus,dotcolour,alfa,,,130,18,V,R,
464,86,2,11,3,27,53,667,['n'],1,right,['0'],6,12,[-0.06854315],100,53,easy,minus,dotcolour,alfa,,,130,18,V,R,
465,87,3,11,3,47,33,1016,['c'],1,left,['0'],6,124,[0.09534046],92,47,medium,minus,dotcolour,alfa,,,130,18,V,R,
466,88,4,11,3,33,47,1067,['n'],1,right,['0'],6,141,[-0.10006068],92,47,medium,minus,dotcolour,alfa,,,130,18,V,R,
467,89,5,11,3,27,53,484,['n'],1,right,['0'],6,69,[-0.08659103],95,53,easy,minus,dotcolour,alfa,,,130,18,V,R,
468,90,6,11,3,36,44,933,['c'],0,right,['0'],6,86,[0.07506884],91,44,hard,minus,dotcolour,alfa,,,130,18,V,R,
469,91,7,11,3,33,47,584,['n'],1,right,['0'],6,85,[-0.10258369],96,47,medium,minus,dotcolour,alfa,,,130,18,V,R,
470,92,8,11,3,44,36,850,['c'],1,left,['0'],6,265,[0.16461672],95,44,hard,minus,dotcolour,alfa,,,130,18,V,R,
471,93,9,11,3,27,53,433,['n'],1,right,['0'],6,87,[-0.0658471],88,53,easy,minus,dotcolour,alfa,,,130,18,V,R,
472,94,10,11,3,53,27,716,['c'],1,left,['0'],6,80,[0.09279322],95,53,easy,minus,dotcolour,alfa,,,130,18,V,R,
473,95,11,11,3,44,36,451,['n'],0,left,['0'],6,84,[-0.08606589],94,44,hard,minus,dotcolour,alfa,,,130,18,V,R,
474,96,12,11,3,44,36,1917,['c'],1,left,['0'],6,101,[0.05970495],84,44,hard,minus,dotcolour,alfa,,,130,18,V,R,
475,97,13,11,3,53,27,684,['n'],0,left,['0'],6,95,[-0.04813124],80,53,easy,minus,dotcolour,alfa,,,130,18,V,R,
476,98,14,11,3,27,53,767,['n'],1,right,['0'],6,22,[-0.07419616],99,53,easy,minus,dotcolour,alfa,,,130,18,V,R,
477,99,15,11,3,36,44,717,['c'],0,right,['0'],6,146,[0.05564276],79,44,hard,minus,dotcolour,alfa,,,130,18,V,R,
478,100,16,11,3,36,44,417,['n'],1,right,['0'],6,100,[-0.10009984],95,44,hard,minus,dotcolour,alfa,,,130,18,V,R,
479,101,17,11,3,53,27,666,['n'],0,left,['1'],1,1136,[0.02946988],44,53,easy,minus,dotcolour,alfa,,,130,18,V,R,
480,102,18,11,3,47,33,1200,['n'],0,left,['0'],6,394,[0.01355868],45,47,medium,minus,dotcolour,alfa,,,130,18,V,R,
481,103,19,11,3,27,53,717,['n'],1,right,['0'],6,63,[-0.12165858],99,53,easy,minus,dotcolour,alfa,,,130,18,V,R,
482,104,20,11,3,47,33,667,['c'],1,left,['0'],6,83,[0.14342892],99,47,medium,minus,dotcolour,alfa,,,130,18,V,R,
483,105,21,11,3,33,47,517,['n'],1,right,['0'],6,61,[-0.0136273],62,47,medium,minus,dotcolour,alfa,,,130,18,V,R,
484,106,22,11,3,27,53,800,['c'],0,right,['0'],6,115,[0.08206751],90,53,easy,minus,dotcolour,alfa,,,130,18,V,R,
485,107,23,11,3,33,47,467,['n'],1,right,['0'],6,85,[-0.09629157],95,47,medium,minus,dotcolour,alfa,,,130,18,V,R,
486,108,24,11,3,44,36,350,['c'],1,left,['0'],6,133,[0.08954794],90,44,hard,minus,dotcolour,alfa,,,130,18,V,R,
487,109,25,11,3,33,47,933,['n'],1,right,['0'],6,84,[-0.10413001],96,47,medium,minus,dotcolour,alfa,,,130,18,V,R,
488,110,26,11,3,27,53,584,['n'],1,right,['0'],6,90,[-0.07567321],91,53,easy,minus,dotcolour,alfa,,,130,18,V,R,
489,111,27,11,3,47,33,617,['c'],1,left,['0'],6,151,[0.12138591],94,47,medium,minus,dotcolour,alfa,,,130,18,V,R,
490,112,28,11,3,53,27,783,['c'],1,left,['0'],6,131,[0.02548108],65,53,easy,minus,dotcolour,alfa,,,130,18,V,R,
491,113,29,11,3,47,33,834,['c'],1,left,['0'],6,46,[0.07167884],95,47,medium,minus,dotcolour,alfa,,,130,18,V,R,
492,114,30,11,3,53,27,850,['c'],1,left,['0'],6,75,[0.0736979],92,53,easy,minus,dotcolour,alfa,,,130,18,V,R,
493,115,31,11,3,53,27,534,['c'],1,left,['0'],6,123,[0.08542537],90,53,easy,minus,dotcolour,alfa,,,130,18,V,R,
494,116,32,11,3,36,44,1650,['n'],1,right,['0'],6,38,[-0.05749289],93,44,hard,minus,dotcolour,alfa,,,130,18,V,R,
495,117,33,11,3,33,47,1634,['n'],1,right,['0'],6,45,[-0.03119238],79,47,medium,minus,dotcolour,alfa,,,130,18,V,R,
496,118,34,11,3,53,27,816,['c'],1,left,['9'],5,91,[0.05154666],82,53,easy,minus,dotcolour,alfa,,,130,18,V,R,
497,119,35,11,3,36,44,1733,['n'],1,right,['9'],5,154,[-0.07055379],83,44,hard,minus,dotcolour,alfa,,,130,18,V,R,
498,120,36,11,3,33,47,1017,['n'],1,right,['9'],5,125,[-0.16877875],99,47,medium,minus,dotcolour,alfa,,,130,18,V,R,
499,121,37,11,3,36,44,734,['n'],1,right,['0'],6,604,[-0.05694218],66,44,hard,minus,dotcolour,alfa,,,130,18,V,R,
500,122,38,11,3,44,36,1000,['c'],1,left,['9'],5,172,[0.04127271],71,44,hard,minus,dotcolour,alfa,,,130,18,V,R,
501,123,39,11,3,44,36,483,['c'],1,left,['9'],5,163,[0.05387087],77,44,hard,minus,dotcolour,alfa,,,130,18,V,R,
502,124,40,11,3,47,33,883,['c'],1,left,['9'],5,107,[0.10528868],95,47,medium,minus,dotcolour,alfa,,,130,18,V,R,
503,125,41,11,3,47,33,867,['c'],1,left,['1'],1,845,[0.08398603],69,47,medium,minus,dotcolour,alfa,,,130,18,V,R,
504,0,0,12,4,44,36,2200,['n'],0,left,['9'],5,253,[-0.05497854],98,44,hard,plus,dotcolour,alfa,,,130,18,V,R,
505,1,1,12,4,53,27,817,['c'],1,left,['0'],6,235,[0.15348758],100,53,easy,plus,dotcolour,alfa,,,130,18,V,R,
506,2,2,12,4,33,47,733,['n'],1,right,['0'],6,94,[-0.01325711],83,47,medium,plus,dotcolour,alfa,,,130,18,V,R,
507,3,3,12,4,47,33,684,['c'],1,left,['0'],6,81,[0.06764563],100,47,medium,plus,dotcolour,alfa,,,130,18,V,R,
508,4,4,12,4,53,27,650,['c'],1,left,['0'],6,132,[0.07793558],100,53,easy,plus,dotcolour,alfa,,,130,18,V,R,
509,5,5,12,4,33,47,633,['n'],1,right,['0'],6,119,[-0.04394806],99,47,medium,plus,dotcolour,alfa,,,130,18,V,R,
510,6,6,12,4,33,47,968,['n'],1,right,['0'],6,69,[-0.10132238],100,47,medium,plus,dotcolour,alfa,,,130,18,V,R,
511,7,7,12,4,36,44,767,['n'],1,right,['0'],6,53,[-0.09109147],100,44,hard,plus,dotcolour,alfa,,,130,18,V,R,
512,8,8,12,4,36,44,767,['n'],1,right,['0'],6,46,[-0.05538614],100,44,hard,plus,dotcolour,alfa,,,130,18,V,R,
513,9,9,12,4,27,53,433,['n'],1,right,['0'],6,75,[-0.10573608],100,53,easy,plus,dotcolour,alfa,,,130,18,V,R,
514,10,10,12,4,27,53,400,['n'],1,right,['0'],6,65,[-0.05080414],100,53,easy,plus,dotcolour,alfa,,,130,18,V,R,
515,11,11,12,4,36,44,418,['n'],1,right,['0'],6,7,[-0.08123251],100,44,hard,plus,dotcolour,alfa,,,130,18,V,R,
516,12,12,12,4,44,36,518,['n'],0,left,['0'],6,59,[-0.08329284],100,44,hard,plus,dotcolour,alfa,,,130,18,V,R,
517,13,13,12,4,47,33,1034,['c'],1,left,['0'],6,81,[0.07492714],100,47,medium,plus,dotcolour,alfa,,,130,18,V,R,
518,14,14,12,4,33,47,1251,['n'],1,right,['0'],6,181,[-0.06890124],100,47,medium,plus,dotcolour,alfa,,,130,18,V,R,
519,15,15,12,4,33,47,500,['n'],1,right,['0'],6,50,[-0.06618545],100,47,medium,plus,dotcolour,alfa,,,130,18,V,R,
520,16,16,12,4,47,33,616,['c'],1,left,['0'],6,73,[0.09046488],100,47,medium,plus,dotcolour,alfa,,,130,18,V,R,
521,17,17,12,4,33,47,650,['n'],1,right,['0'],6,69,[-0.06179049],100,47,medium,plus,dotcolour,alfa,,,130,18,V,R,
522,18,18,12,4,47,33,800,['c'],1,left,['0'],6,109,[0.03924308],99,47,medium,plus,dotcolour,alfa,,,130,18,V,R,
523,19,19,12,4,27,53,583,['n'],1,right,['0'],6,65,[-0.08142144],100,53,easy,plus,dotcolour,alfa,,,130,18,V,R,
524,20,20,12,4,44,36,1049,['c'],1,left,['0'],6,95,[0.15312802],100,44,hard,plus,dotcolour,alfa,,,130,18,V,R,
525,21,21,12,4,47,33,1149,['c'],1,left,['0'],6,109,[0.09705433],100,47,medium,plus,dotcolour,alfa,,,130,18,V,R,
526,22,22,12,4,44,36,2333,['n'],0,left,['8'],4,101,[-0.03095038],97,44,hard,plus,dotcolour,alfa,,,130,18,V,R,
527,23,23,12,4,44,36,833,['c'],1,left,['0'],6,48,[0.05860428],100,44,hard,plus,dotcolour,alfa,,,130,18,V,R,
528,24,24,12,4,36,44,467,['n'],1,right,['0'],6,61,[-0.04491821],100,44,hard,plus,dotcolour,alfa,,,130,18,V,R,
529,25,25,12,4,53,27,1033,['c'],1,left,['0'],6,83,[0.06815185],100,53,easy,plus,dotcolour,alfa,,,130,18,V,R,
530,26,26,12,4,47,33,466,['n'],0,left,['0'],6,71,[-0.08208397],100,47,medium,plus,dotcolour,alfa,,,130,18,V,R,
531,27,27,12,4,27,53,633,['c'],0,right,['0'],6,83,[0.07111163],100,53,easy,plus,dotcolour,alfa,,,130,18,V,R,
532,28,28,12,4,36,44,500,['n'],1,right,['0'],6,21,[-0.08525434],100,44,hard,plus,dotcolour,alfa,,,130,18,V,R,
533,29,29,12,4,27,53,417,['n'],1,right,['0'],6,61,[-0.09110748],100,53,easy,plus,dotcolour,alfa,,,130,18,V,R,
534,30,30,12,4,44,36,517,['c'],1,left,['0'],6,63,[0.06058794],100,44,hard,plus,dotcolour,alfa,,,130,18,V,R,
535,31,31,12,4,27,53,367,['n'],1,right,['0'],6,79,[-0.10428362],100,53,easy,plus,dotcolour,alfa,,,130,18,V,R,
536,32,32,12,4,53,27,700,['c'],1,left,['0'],6,33,[0.07486118],100,53,easy,plus,dotcolour,alfa,,,130,18,V,R,
537,33,33,12,4,27,53,484,['n'],1,right,['0'],6,54,[-0.08429542],100,53,easy,plus,dotcolour,alfa,,,130,18,V,R,
538,34,34,12,4,53,27,434,['c'],1,left,['0'],6,164,[0.1145547],100,53,easy,plus,dotcolour,alfa,,,130,18,V,R,
539,35,35,12,4,53,27,766,['c'],1,left,['0'],6,96,[0.04467085],99,53,easy,plus,dotcolour,alfa,,,130,18,V,R,
540,36,36,12,4,53,27,500,['c'],1,left,['0'],6,25,[0.096479],100,53,easy,plus,dotcolour,alfa,,,130,18,V,R,
541,37,37,12,4,33,47,684,['n'],1,right,['0'],6,62,[-0.0690204],100,47,medium,plus,dotcolour,alfa,,,130,18,V,R,
542,38,38,12,4,47,33,634,['n'],0,left,['0'],6,35,[-0.07703923],100,47,medium,plus,dotcolour,alfa,,,130,18,V,R,
543,39,39,12,4,44,36,566,['n'],0,left,['0'],6,52,[-0.07722871],100,44,hard,plus,dotcolour,alfa,,,130,18,V,R,
544,40,40,12,4,36,44,584,['c'],0,right,['0'],6,28,[0.09505065],100,44,hard,plus,dotcolour,alfa,,,130,18,V,R,
545,41,41,12,4,36,44,351,['n'],1,right,['0'],6,71,[-0.06416201],100,44,hard,plus,dotcolour,alfa,,,130,18,V,R,
546,42,0,13,4,33,47,767,['n'],1,right,['0'],6,62,[-0.12208128],100,47,medium,plus,dotcolour,alfa,,,130,18,V,R,
547,43,1,13,4,44,36,1334,['c'],1,left,['0'],6,48,[0.04704462],100,44,hard,plus,dotcolour,alfa,,,130,18,V,R,
548,44,2,13,4,36,44,567,['n'],1,right,['0'],6,1184,[-0.15180897],99,44,hard,plus,dotcolour,alfa,,,130,18,V,R,
549,45,3,13,4,47,33,1167,['c'],1,left,['0'],6,59,[0.09113971],100,47,medium,plus,dotcolour,alfa,,,130,18,V,R,
550,46,4,13,4,36,44,667,['n'],1,right,['0'],6,55,[-0.07156258],100,44,hard,plus,dotcolour,alfa,,,130,18,V,R,
551,47,5,13,4,27,53,517,['n'],1,right,['0'],6,66,[-0.06270757],100,53,easy,plus,dotcolour,alfa,,,130,18,V,R,
552,48,6,13,4,33,47,517,['n'],1,right,['0'],6,52,[-0.04739797],100,47,medium,plus,dotcolour,alfa,,,130,18,V,R,
553,49,7,13,4,53,27,751,['c'],1,left,['0'],6,101,[0.05182147],100,53,easy,plus,dotcolour,alfa,,,130,18,V,R,
554,50,8,13,4,36,44,449,['n'],1,right,['0'],6,48,[-0.06589834],100,44,hard,plus,dotcolour,alfa,,,130,18,V,R,
555,51,9,13,4,44,36,1534,['c'],1,left,['8'],4,114,[0.1096162],100,44,hard,plus,dotcolour,alfa,,,130,18,V,R,
556,52,10,13,4,33,47,567,['n'],1,right,['0'],6,72,[-0.07319399],100,47,medium,plus,dotcolour,alfa,,,130,18,V,R,
557,53,11,13,4,36,44,500,['n'],1,right,['0'],6,67,[-0.08082561],100,44,hard,plus,dotcolour,alfa,,,130,18,V,R,
558,54,12,13,4,36,44,467,['n'],1,right,['0'],6,55,[-0.05023578],100,44,hard,plus,dotcolour,alfa,,,130,18,V,R,
559,55,13,13,4,27,53,567,['n'],1,right,['0'],6,72,[-0.06896534],100,53,easy,plus,dotcolour,alfa,,,130,18,V,R,
560,56,14,13,4,47,33,734,['c'],1,left,['0'],6,129,[0.09450961],100,47,medium,plus,dotcolour,alfa,,,130,18,V,R,
561,57,15,13,4,47,33,884,['c'],1,left,['0'],6,73,[0.05755957],100,47,medium,plus,dotcolour,alfa,,,130,18,V,R,
562,58,16,13,4,27,53,800,['c'],0,right,['0'],6,168,[-0.0533196],1,53,easy,plus,dotcolour,alfa,,,130,18,V,R,
563,59,17,13,4,44,36,851,['c'],1,left,['0'],6,89,[0.07080784],100,44,hard,plus,dotcolour,alfa,,,130,18,V,R,
564,60,18,13,4,47,33,800,['c'],1,left,['0'],6,62,[0.07202327],100,47,medium,plus,dotcolour,alfa,,,130,18,V,R,
565,61,19,13,4,53,27,684,['c'],1,left,['0'],6,17,[0.07343489],100,53,easy,plus,dotcolour,alfa,,,130,18,V,R,
566,62,20,13,4,27,53,934,['n'],1,right,['0'],6,93,[-0.10860466],100,53,easy,plus,dotcolour,alfa,,,130,18,V,R,
567,63,21,13,4,44,36,667,['c'],1,left,['0'],6,15,[0.08983985],100,44,hard,plus,dotcolour,alfa,,,130,18,V,R,
568,64,22,13,4,33,47,1067,['n'],1,right,['0'],6,37,[-0.06740924],100,47,medium,plus,dotcolour,alfa,,,130,18,V,R,
569,65,23,13,4,27,53,583,['c'],0,right,['0'],6,70,[0.04892841],100,53,easy,plus,dotcolour,alfa,,,130,18,V,R,
570,66,24,13,4,53,27,1017,['c'],1,left,['0'],6,36,[0.10192919],100,53,easy,plus,dotcolour,alfa,,,130,18,V,R,
571,67,25,13,4,33,47,617,['n'],1,right,['0'],6,76,[-0.04536444],100,47,medium,plus,dotcolour,alfa,,,130,18,V,R,
572,68,26,13,4,44,36,751,['n'],0,left,['0'],6,68,[-0.0774093],100,44,hard,plus,dotcolour,alfa,,,130,18,V,R,
573,69,27,13,4,53,27,550,['c'],1,left,['0'],6,60,[0.09953027],100,53,easy,plus,dotcolour,alfa,,,130,18,V,R,
574,70,28,13,4,36,44,517,['n'],1,right,['0'],6,94,[-0.06146626],100,44,hard,plus,dotcolour,alfa,,,130,18,V,R,
575,71,29,13,4,27,53,600,['n'],1,right,['0'],6,83,[-0.08709288],100,53,easy,plus,dotcolour,alfa,,,130,18,V,R,
576,72,30,13,4,33,47,701,['n'],1,right,['0'],6,62,[-0.10099427],100,47,medium,plus,dotcolour,alfa,,,130,18,V,R,
577,73,31,13,4,47,33,700,['c'],1,left,['0'],6,49,[0.11174939],100,47,medium,plus,dotcolour,alfa,,,130,18,V,R,
578,74,32,13,4,53,27,501,['n'],0,left,['0'],6,75,[-0.0814144],100,53,easy,plus,dotcolour,alfa,,,130,18,V,R,
579,75,33,13,4,53,27,550,['c'],1,left,['0'],6,67,[0.11055575],100,53,easy,plus,dotcolour,alfa,,,130,18,V,R,
580,76,34,13,4,36,44,549,['n'],1,right,['0'],6,93,[-0.07151625],100,44,hard,plus,dotcolour,alfa,,,130,18,V,R,
581,77,35,13,4,44,36,533,['n'],0,left,['0'],6,92,[-0.04455004],99,44,hard,plus,dotcolour,alfa,,,130,18,V,R,
582,78,36,13,4,27,53,1017,['n'],1,right,['0'],6,353,[-0.18770802],100,53,easy,plus,dotcolour,alfa,,,130,18,V,R,
583,79,37,13,4,47,33,701,['c'],1,left,['0'],6,112,[0.04783584],99,47,medium,plus,dotcolour,alfa,,,130,18,V,R,
584,80,38,13,4,33,47,517,['n'],1,right,['0'],6,64,[-0.10882424],100,47,medium,plus,dotcolour,alfa,,,130,18,V,R,
585,81,39,13,4,53,27,567,['c'],1,left,['0'],6,24,[0.06801441],100,53,easy,plus,dotcolour,alfa,,,130,18,V,R,
586,82,40,13,4,47,33,650,['n'],0,left,['0'],6,78,[-0.05066932],100,47,medium,plus,dotcolour,alfa,,,130,18,V,R,
587,83,41,13,4,44,36,567,['c'],1,left,['0'],6,94,[0.02697555],96,44,hard,plus,dotcolour,alfa,,,130,18,V,R,
588,84,0,14,4,33,47,2201,['c'],0,right,['8'],4,101,[0.07204883],100,47,medium,plus,dotcolour,alfa,,,130,18,V,R,
589,85,1,14,4,36,44,651,['n'],1,right,['0'],6,41,[-0.06363071],100,44,hard,plus,dotcolour,alfa,,,130,18,V,R,
590,86,2,14,4,53,27,584,['c'],1,left,['0'],6,72,[0.08859009],100,53,easy,plus,dotcolour,alfa,,,130,18,V,R,
591,87,3,14,4,47,33,717,['n'],0,left,['0'],6,75,[-0.12644988],100,47,medium,plus,dotcolour,alfa,,,130,18,V,R,
592,88,4,14,4,47,33,516,['c'],1,left,['0'],6,76,[0.06748733],100,47,medium,plus,dotcolour,alfa,,,130,18,V,R,
593,89,5,14,4,47,33,650,['c'],1,left,['0'],6,32,[0.06689717],100,47,medium,plus,dotcolour,alfa,,,130,18,V,R,
594,90,6,14,4,33,47,950,['n'],1,right,['0'],6,50,[-0.07413253],100,47,medium,plus,dotcolour,alfa,,,130,18,V,R,
595,91,7,14,4,36,44,734,['n'],1,right,['0'],6,76,[-0.08224407],100,44,hard,plus,dotcolour,alfa,,,130,18,V,R,
596,92,8,14,4,47,33,417,['n'],0,left,['0'],6,26,[-0.03947713],100,47,medium,plus,dotcolour,alfa,,,130,18,V,R,
597,93,9,14,4,27,53,567,['n'],1,right,['0'],6,43,[-0.09880135],100,53,easy,plus,dotcolour,alfa,,,130,18,V,R,
598,94,10,14,4,44,36,500,['c'],1,left,['0'],6,46,[0.08966167],100,44,hard,plus,dotcolour,alfa,,,130,18,V,R,
599,95,11,14,4,27,53,584,['n'],1,right,['0'],6,38,[-0.04914311],100,53,easy,plus,dotcolour,alfa,,,130,18,V,R,
600,96,12,14,4,47,33,750,['c'],1,left,['0'],6,64,[0.08272398],100,47,medium,plus,dotcolour,alfa,,,130,18,V,R,
601,97,13,14,4,36,44,601,['n'],1,right,['0'],6,87,[-0.07511106],100,44,hard,plus,dotcolour,alfa,,,130,18,V,R,
602,98,14,14,4,27,53,583,['n'],1,right,['0'],6,77,[-0.01531391],88,53,easy,plus,dotcolour,alfa,,,130,18,V,R,
603,99,15,14,4,36,44,533,['n'],1,right,['0'],6,86,[-0.10751367],100,44,hard,plus,dotcolour,alfa,,,130,18,V,R,
604,100,16,14,4,47,33,617,['n'],0,left,['8'],4,684,[-0.10089361],99,47,medium,plus,dotcolour,alfa,,,130,18,V,R,
605,101,17,14,4,44,36,583,['n'],0,left,['0'],6,98,[-0.05953657],100,44,hard,plus,dotcolour,alfa,,,130,18,V,R,
606,102,18,14,4,27,53,433,['n'],1,right,['0'],6,166,[-0.07716319],100,53,easy,plus,dotcolour,alfa,,,130,18,V,R,
607,103,19,14,4,53,27,901,['n'],0,left,['8'],4,28,[-0.06246494],100,53,easy,plus,dotcolour,alfa,,,130,18,V,R,
608,104,20,14,4,44,36,1083,['n'],0,left,['0'],6,170,[-0.06802021],100,44,hard,plus,dotcolour,alfa,,,130,18,V,R,
609,105,21,14,4,33,47,566,['n'],1,right,['0'],6,61,[-0.08115082],100,47,medium,plus,dotcolour,alfa,,,130,18,V,R,
610,106,22,14,4,36,44,533,['n'],1,right,['0'],6,103,[-0.08892774],100,44,hard,plus,dotcolour,alfa,,,130,18,V,R,
611,107,23,14,4,27,53,668,['n'],1,right,['0'],6,74,[-0.079328],100,53,easy,plus,dotcolour,alfa,,,130,18,V,R,
612,108,24,14,4,44,36,850,['n'],0,left,['8'],4,69,[-0.09384173],100,44,hard,plus,dotcolour,alfa,,,130,18,V,R,
613,109,25,14,4,53,27,667,['n'],0,left,['0'],6,49,[-0.05477341],100,53,easy,plus,dotcolour,alfa,,,130,18,V,R,
614,110,26,14,4,36,44,367,['n'],1,right,['8'],4,82,[-0.10159106],100,44,hard,plus,dotcolour,alfa,,,130,18,V,R,
615,111,27,14,4,36,44,450,['n'],1,right,['0'],6,110,[-0.06970703],100,44,hard,plus,dotcolour,alfa,,,130,18,V,R,
616,112,28,14,4,53,27,634,['c'],1,left,['0'],6,113,[0.07597579],100,53,easy,plus,dotcolour,alfa,,,130,18,V,R,
617,113,29,14,4,44,36,1317,['c'],1,left,['8'],4,186,[0.03460587],95,44,hard,plus,dotcolour,alfa,,,130,18,V,R,
618,114,30,14,4,27,53,700,['n'],1,right,['0'],6,47,[-0.07040788],100,53,easy,plus,dotcolour,alfa,,,130,18,V,R,
619,115,31,14,4,27,53,517,['n'],1,right,['0'],6,50,[-0.0459013],100,53,easy,plus,dotcolour,alfa,,,130,18,V,R,
620,116,32,14,4,44,36,683,['c'],1,left,['0'],6,78,[0.06069017],100,44,hard,plus,dotcolour,alfa,,,130,18,V,R,
621,117,33,14,4,33,47,867,['n'],1,right,['0'],6,81,[-0.05534405],100,47,medium,plus,dotcolour,alfa,,,130,18,V,R,
622,118,34,14,4,44,36,534,['n'],0,left,['0'],6,58,[-0.08591277],100,44,hard,plus,dotcolour,alfa,,,130,18,V,R,
623,119,35,14,4,53,27,600,['c'],1,left,['0'],6,104,[0.03433518],98,53,easy,plus,dotcolour,alfa,,,130,18,V,R,
624,120,36,14,4,53,27,350,['n'],0,left,['0'],6,64,[-0.06804271],100,53,easy,plus,dotcolour,alfa,,,130,18,V,R,
625,121,37,14,4,33,47,633,['n'],1,right,['0'],6,77,[-0.08442928],100,47,medium,plus,dotcolour,alfa,,,130,18,V,R,
626,122,38,14,4,53,27,649,['n'],0,left,['0'],6,137,[-0.06367246],100,53,easy,plus,dotcolour,alfa,,,130,18,V,R,
627,123,39,14,4,33,47,549,['n'],1,right,['0'],6,120,[-0.09277388],100,47,medium,plus,dotcolour,alfa,,,130,18,V,R,
628,124,40,14,4,33,47,500,['c'],0,right,['0'],6,112,[0.06486956],100,47,medium,plus,dotcolour,alfa,,,130,18,V,R,
629,125,41,14,4,47,33,933,['c'],1,left,['0'],6,31,[0.10271552],100,47,medium,plus,dotcolour,alfa,,,130,18,V,R,
630,0,0,15,5,33,47,717,['c'],0,right,['0'],6,223,[0.16075189],96,47,medium,minus,dotcolour,alfa,,,130,18,V,R,
631,1,1,15,5,47,33,818,['c'],1,left,['0'],6,63,[0.09677971],97,47,medium,minus,dotcolour,alfa,,,130,18,V,R,
632,2,2,15,5,36,44,584,['n'],1,right,['0'],6,62,[-0.07676528],94,44,hard,minus,dotcolour,alfa,,,130,18,V,R,
633,3,3,15,5,36,44,617,['n'],1,right,['0'],6,44,[-0.07642882],96,44,hard,minus,dotcolour,alfa,,,130,18,V,R,
634,4,4,15,5,44,36,633,['c'],1,left,['0'],6,34,[0.05916882],95,44,hard,minus,dotcolour,alfa,,,130,18,V,R,
635,5,5,15,5,47,33,1300,['c'],1,left,['9'],5,78,[0.02191579],67,47,medium,minus,dotcolour,alfa,,,130,18,V,R,
636,6,6,15,5,33,47,217,['c'],0,right,['0'],6,92,[0.05807916],85,47,medium,minus,dotcolour,alfa,,,130,18,V,R,
637,7,7,15,5,27,53,701,['c'],0,right,['0'],6,60,[0.06469197],92,53,easy,minus,dotcolour,alfa,,,130,18,V,R,
638,8,8,15,5,47,33,982,['c'],1,left,['9'],5,612,[0.12376201],81,47,medium,minus,dotcolour,alfa,,,130,18,V,R,
639,9,9,15,5,53,27,516,['c'],1,left,['0'],6,80,[0.08758724],94,53,easy,minus,dotcolour,alfa,,,130,18,V,R,
640,10,10,15,5,44,36,467,['c'],1,left,['0'],6,115,[0.12943703],97,44,hard,minus,dotcolour,alfa,,,130,18,V,R,
641,11,11,15,5,27,53,451,['c'],0,right,['0'],6,78,[0.04797932],82,53,easy,minus,dotcolour,alfa,,,130,18,V,R,
642,12,12,15,5,36,44,1301,['n'],1,right,['8'],4,112,[-0.0842273],91,44,hard,minus,dotcolour,alfa,,,130,18,V,R,
643,13,13,15,5,53,27,900,['c'],1,left,['0'],6,112,[0.13327441],97,53,easy,minus,dotcolour,alfa,,,130,18,V,R,
644,14,14,15,5,36,44,1234,['n'],1,right,['9'],5,107,[-0.16008737],99,44,hard,minus,dotcolour,alfa,,,130,18,V,R,
645,15,15,15,5,53,27,684,['c'],1,left,['9'],5,93,[0.12685997],98,53,easy,minus,dotcolour,alfa,,,130,18,V,R,
646,16,16,15,5,36,44,1183,['n'],1,right,['8'],4,107,[-0.01596137],61,44,hard,minus,dotcolour,alfa,,,130,18,V,R,
647,17,17,15,5,27,53,867,['n'],1,right,['0'],6,29,[-0.08288214],99,53,easy,minus,dotcolour,alfa,,,130,18,V,R,
648,18,18,15,5,33,47,583,['n'],1,right,['0'],6,45,[-0.07845877],97,47,medium,minus,dotcolour,alfa,,,130,18,V,R,
649,19,19,15,5,27,53,451,['n'],1,right,['0'],6,43,[-0.0727563],96,53,easy,minus,dotcolour,alfa,,,130,18,V,R,
650,20,20,15,5,47,33,617,['c'],1,left,['0'],6,65,[0.10581145],98,47,medium,minus,dotcolour,alfa,,,130,18,V,R,
651,21,21,15,5,27,53,450,['n'],1,right,['0'],6,78,[-0.14238649],99,53,easy,minus,dotcolour,alfa,,,130,18,V,R,
652,22,22,15,5,44,36,967,['c'],1,left,['9'],5,149,[0.05608662],79,44,hard,minus,dotcolour,alfa,,,130,18,V,R,
653,23,23,15,5,33,47,500,['n'],1,right,['0'],6,45,[-0.0961707],98,47,medium,minus,dotcolour,alfa,,,130,18,V,R,
654,24,24,15,5,33,47,417,['n'],1,right,['0'],6,35,[-0.08740129],99,47,medium,minus,dotcolour,alfa,,,130,18,V,R,
655,25,25,15,5,33,47,817,['n'],1,right,['0'],6,107,[-0.12981894],97,47,medium,minus,dotcolour,alfa,,,130,18,V,R,
656,26,26,15,5,53,27,867,['c'],1,left,['0'],6,301,[0.09458865],83,53,easy,minus,dotcolour,alfa,,,130,18,V,R,
657,27,27,15,5,44,36,500,['c'],1,left,['0'],6,70,[0.08113778],94,44,hard,minus,dotcolour,alfa,,,130,18,V,R,
658,28,28,15,5,33,47,401,['c'],0,right,['0'],6,85,[0.00795402],56,47,medium,minus,dotcolour,alfa,,,130,18,V,R,
659,29,29,15,5,36,44,483,['n'],1,right,['0'],6,55,[-0.09474771],97,44,hard,minus,dotcolour,alfa,,,130,18,V,R,
660,30,30,15,5,53,27,917,['c'],1,left,['0'],6,50,[0.10315985],98,53,easy,minus,dotcolour,alfa,,,130,18,V,R,
661,31,31,15,5,53,27,684,['c'],1,left,['0'],6,94,[0.10525947],96,53,easy,minus,dotcolour,alfa,,,130,18,V,R,
662,32,32,15,5,53,27,584,['c'],1,left,['0'],6,69,[0.08981773],96,53,easy,minus,dotcolour,alfa,,,130,18,V,R,
663,33,33,15,5,47,33,482,['c'],1,left,['0'],6,79,[0.05738538],86,47,medium,minus,dotcolour,alfa,,,130,18,V,R,
664,34,34,15,5,27,53,566,['n'],1,right,['8'],4,71,[-0.1093409],98,53,easy,minus,dotcolour,alfa,,,130,18,V,R,
665,35,35,15,5,47,33,1066,['c'],1,left,['0'],6,59,[0.11391291],99,47,medium,minus,dotcolour,alfa,,,130,18,V,R,
666,36,36,15,5,44,36,450,['n'],0,left,['0'],6,80,[-0.03945304],78,44,hard,minus,dotcolour,alfa,,,130,18,V,R,
667,37,37,15,5,47,33,700,['c'],1,left,['0'],6,33,[0.0535015],93,47,medium,minus,dotcolour,alfa,,,130,18,V,R,
668,38,38,15,5,36,44,400,['c'],0,right,['0'],6,97,[0.02183322],65,44,hard,minus,dotcolour,alfa,,,130,18,V,R,
669,39,39,15,5,44,36,733,['n'],0,left,['0'],6,25,[-0.05441647],96,44,hard,minus,dotcolour,alfa,,,130,18,V,R,
670,40,40,15,5,44,36,417,['c'],1,left,['0'],6,48,[0.05413928],90,44,hard,minus,dotcolour,alfa,,,130,18,V,R,
671,41,41,15,5,27,53,3734,['n'],1,right,['0'],6,59,[-0.10287168],98,53,easy,minus,dotcolour,alfa,,,130,18,V,R,
672,42,0,16,5,44,36,1134,['n'],0,left,['0'],6,774,[-0.03535185],59,44,hard,minus,dotcolour,alfa,,,130,18,V,R,
673,43,1,16,5,44,36,867,['n'],0,left,['0'],6,53,[-0.00115427],51,44,hard,minus,dotcolour,alfa,,,130,18,V,R,
674,44,2,16,5,27,53,717,['n'],1,right,['0'],6,112,[-0.11823309],96,53,easy,minus,dotcolour,alfa,,,130,18,V,R,
675,45,3,16,5,47,33,1149,['c'],1,left,['9'],5,127,[0.10862704],94,47,medium,minus,dotcolour,alfa,,,130,18,V,R,
676,46,4,16,5,36,44,1532,['n'],1,right,['9'],5,317,[-0.10718298],85,44,hard,minus,dotcolour,alfa,,,130,18,V,R,
677,47,5,16,5,53,27,867,['c'],1,left,['9'],5,216,[0.1041206],88,53,easy,minus,dotcolour,alfa,,,130,18,V,R,
678,48,6,16,5,36,44,950,['n'],1,right,['0'],6,186,[-0.02732609],64,44,hard,minus,dotcolour,alfa,,,130,18,V,R,
679,49,7,16,5,36,44,733,['n'],1,right,['0'],6,46,[-0.10391382],99,44,hard,minus,dotcolour,alfa,,,130,18,V,R,
680,50,8,16,5,27,53,684,['n'],1,right,['0'],6,51,[-0.05655076],90,53,easy,minus,dotcolour,alfa,,,130,18,V,R,
681,51,9,16,5,44,36,501,['n'],0,left,['0'],6,62,[-0.0838357],95,44,hard,minus,dotcolour,alfa,,,130,18,V,R,
682,52,10,16,5,44,36,649,['c'],1,left,['0'],6,42,[0.05718311],92,44,hard,minus,dotcolour,alfa,,,130,18,V,R,
683,53,11,16,5,47,33,484,['n'],0,left,['0'],6,39,[-0.0349638],83,47,medium,minus,dotcolour,alfa,,,130,18,V,R,
684,54,12,16,5,33,47,416,['n'],1,right,['8'],4,78,[-0.02979687],72,47,medium,minus,dotcolour,alfa,,,130,18,V,R,
685,55,13,16,5,27,53,633,['n'],1,right,['0'],6,74,[-0.03009248],73,53,easy,minus,dotcolour,alfa,,,130,18,V,R,
686,56,14,16,5,27,53,501,['c'],0,right,['0'],6,93,[0.14223188],99,53,easy,minus,dotcolour,alfa,,,130,18,V,R,
687,57,15,16,5,47,33,784,['c'],1,left,['0'],6,91,[0.08129575],92,47,medium,minus,dotcolour,alfa,,,130,18,V,R,
688,58,16,16,5,53,27,834,['c'],1,left,['0'],6,111,[0.11232917],95,53,easy,minus,dotcolour,alfa,,,130,18,V,R,
689,59,17,16,5,33,47,733,['c'],0,right,['0'],6,134,[0.14080984],97,47,medium,minus,dotcolour,alfa,,,130,18,V,R,
690,60,18,16,5,27,53,650,['c'],0,right,['9'],5,160,[0.0246],63,53,easy,minus,dotcolour,alfa,,,130,18,V,R,
691,61,19,16,5,36,44,433,['c'],0,right,['0'],6,97,[0.03491797],73,44,hard,minus,dotcolour,alfa,,,130,18,V,R,
692,62,20,16,5,53,27,2967,['c'],1,left,['0'],6,72,[0.09058417],95,53,easy,minus,dotcolour,alfa,,,130,18,V,R,
693,63,21,16,5,36,44,600,['c'],0,right,['0'],6,102,[0.09034282],93,44,hard,minus,dotcolour,alfa,,,130,18,V,R,
694,64,22,16,5,33,47,617,['c'],0,right,['9'],5,43,[0.04269634],86,47,medium,minus,dotcolour,alfa,,,130,18,V,R,
695,65,23,16,5,27,53,533,['c'],0,right,['9'],5,109,[0.02908163],69,53,easy,minus,dotcolour,alfa,,,130,18,V,R,
696,66,24,16,5,44,36,317,['c'],1,left,['0'],6,77,[0.10227396],97,44,hard,minus,dotcolour,alfa,,,130,18,V,R,
697,67,25,16,5,53,27,617,['c'],1,left,['0'],6,1099,[0.17573512],82,53,easy,minus,dotcolour,alfa,,,130,18,V,R,
698,68,26,16,5,47,33,667,['c'],1,left,['0'],6,69,[0.03655304],78,47,medium,minus,dotcolour,alfa,,,130,18,V,R,
699,69,27,16,5,33,47,267,['c'],0,right,['0'],6,17,[0.05477464],98,47,medium,minus,dotcolour,alfa,,,130,18,V,R,
700,70,28,16,5,47,33,216,['c'],1,left,['0'],6,58,[0.1024936],98,47,medium,minus,dotcolour,alfa,,,130,18,V,R,
701,71,29,16,5,47,33,300,['c'],1,left,['0'],6,68,[0.04388915],82,47,medium,minus,dotcolour,alfa,,,130,18,V,R,
702,72,30,16,5,33,47,283,['c'],0,right,['9'],5,263,[0.09001269],83,47,medium,minus,dotcolour,alfa,,,130,18,V,R,
703,73,31,16,5,36,44,350,['c'],0,right,['0'],6,232,[0.08666093],83,44,hard,minus,dotcolour,alfa,,,130,18,V,R,
704,74,32,16,5,53,27,417,['c'],1,left,['0'],6,175,[0.16587237],97,53,easy,minus,dotcolour,alfa,,,130,18,V,R,
705,75,33,16,5,44,36,416,['c'],1,left,['0'],6,121,[0.06553568],84,44,hard,minus,dotcolour,alfa,,,130,18,V,R,
706,76,34,16,5,53,27,367,['c'],1,left,['9'],5,94,[0.04428333],79,53,easy,minus,dotcolour,alfa,,,130,18,V,R,
707,77,35,16,5,47,33,283,['c'],1,left,['0'],6,96,[0.09584929],94,47,medium,minus,dotcolour,alfa,,,130,18,V,R,
708,78,36,16,5,33,47,317,['c'],0,right,['0'],6,81,[0.07133798],91,47,medium,minus,dotcolour,alfa,,,130,18,V,R,
709,79,37,16,5,33,47,317,['c'],0,right,['0'],6,122,[0.07681285],88,47,medium,minus,dotcolour,alfa,,,130,18,V,R,
710,80,38,16,5,44,36,334,['c'],1,left,['9'],5,106,[0.10113203],94,44,hard,minus,dotcolour,alfa,,,130,18,V,R,
711,81,39,16,5,53,27,1101,['n'],0,left,['0'],6,243,[-0.1246756],91,53,easy,minus,dotcolour,alfa,,,130,18,V,R,
712,82,40,16,5,27,53,834,['n'],1,right,['0'],6,41,[-0.06384044],94,53,easy,minus,dotcolour,alfa,,,130,18,V,R,
713,83,41,16,5,36,44,318,['n'],1,right,['0'],6,36,[-0.0826694],98,44,hard,minus,dotcolour,alfa,,,130,18,V,R,
714,84,0,17,5,33,47,1851,['n'],1,right,['0'],6,193,[-0.17875293],97,47,medium,minus,dotcolour,alfa,,,130,18,V,R,
715,85,1,17,5,36,44,601,['n'],1,right,['0'],6,58,[-0.02090189],69,44,hard,minus,dotcolour,alfa,,,130,18,V,R,
716,86,2,17,5,47,33,751,['c'],1,left,['0'],6,42,[0.05367973],91,47,medium,minus,dotcolour,alfa,,,130,18,V,R,
717,87,3,17,5,53,27,717,['n'],0,left,['0'],6,61,[-0.04825153],85,53,easy,minus,dotcolour,alfa,,,130,18,V,R,
718,88,4,17,5,44,36,283,['n'],0,left,['9'],5,48,[-0.08661265],97,44,hard,minus,dotcolour,alfa,,,130,18,V,R,
719,89,5,17,5,53,27,300,['n'],0,left,['0'],6,36,[-0.09134789],99,53,easy,minus,dotcolour,alfa,,,130,18,V,R,
720,90,6,17,5,44,36,173,['n'],0,left,['8'],4,829,[0.05037223],38,44,hard,minus,dotcolour,alfa,,,130,18,V,R,
721,91,7,17,5,44,36,300,['n'],0,left,['8'],4,16,[-0.0608221],99,44,hard,minus,dotcolour,alfa,,,130,18,V,R,
722,92,8,17,5,36,44,89,['n'],1,right,['0'],6,137,[-0.0491146],77,44,hard,minus,dotcolour,alfa,,,130,18,V,R,
723,93,9,17,5,47,33,232,['n'],0,left,['9'],5,1612,[-0.009823],52,47,medium,minus,dotcolour,alfa,,,130,18,V,R,
724,94,10,17,5,53,27,333,['n'],0,left,"['0', '8']",6,55,[-0.06996013],94,53,easy,minus,dotcolour,alfa,,,130,18,V,R,
725,95,11,17,5,47,33,334,['n'],0,left,['0'],6,80,[-0.08907544],94,47,medium,minus,dotcolour,alfa,,,130,18,V,R,
726,96,12,17,5,47,33,299,['n'],0,left,['0'],6,2914,[0.7109936],2,47,medium,minus,dotcolour,alfa,,,130,18,V,R,
727,97,13,17,5,47,33,1268,['n'],0,left,['0'],6,28,[-0.06397971],97,47,medium,minus,dotcolour,alfa,,,130,18,V,R,
728,98,14,17,5,36,44,634,['n'],1,right,['0'],6,10,[-0.06678181],100,44,hard,minus,dotcolour,alfa,,,130,18,V,R,
729,99,15,17,5,47,33,699,['c'],1,left,['0'],6,176,[0.15740928],97,47,medium,minus,dotcolour,alfa,,,130,18,V,R,
730,100,16,17,5,36,44,1017,['n'],1,right,['0'],6,64,[-0.08615683],96,44,hard,minus,dotcolour,alfa,,,130,18,V,R,
731,101,17,17,5,53,27,785,['c'],1,left,['0'],6,159,[0.04071048],71,53,easy,minus,dotcolour,alfa,,,130,18,V,R,
732,102,18,17,5,36,44,716,['n'],1,right,['0'],6,78,[-0.10124533],96,44,hard,minus,dotcolour,alfa,,,130,18,V,R,
733,103,19,17,5,27,53,268,['n'],1,right,['0'],6,185,[-0.11972346],92,53,easy,minus,dotcolour,alfa,,,130,18,V,R,
734,104,20,17,5,44,36,267,['n'],0,left,['0'],6,112,[-0.05441399],81,44,hard,minus,dotcolour,alfa,,,130,18,V,R,
735,105,21,17,5,53,27,250,['n'],0,left,['0'],6,187,[-0.02780296],64,53,easy,minus,dotcolour,alfa,,,130,18,V,R,
736,106,22,17,5,27,53,334,['c'],0,right,['0'],6,144,[0.07475395],85,53,easy,minus,dotcolour,alfa,,,130,18,V,R,
737,107,23,17,5,44,36,685,['n'],0,left,['9'],5,127,[-0.09280876],91,44,hard,minus,dotcolour,alfa,,,130,18,V,R,
738,108,24,17,5,33,47,367,['n'],1,right,['9'],5,85,[-0.10318641],96,47,medium,minus,dotcolour,alfa,,,130,18,V,R,
739,109,25,17,5,33,47,300,['n'],1,right,['0'],6,79,[-0.09182878],95,47,medium,minus,dotcolour,alfa,,,130,18,V,R,
740,110,26,17,5,53,27,950,['c'],1,left,['0'],6,94,[0.08468858],92,53,easy,minus,dotcolour,alfa,,,130,18,V,R,
741,111,27,17,5,47,33,6468,['n'],0,left,['0'],6,89,[-0.07578654],91,47,medium,minus,dotcolour,alfa,,,130,18,V,R,
742,112,28,17,5,27,53,121,['n'],1,right,['0'],6,24,[-0.08653171],99,53,easy,minus,dotcolour,alfa,,,130,18,V,R,
743,113,29,17,5,27,53,1151,['c'],0,right,['9'],5,194,[0.07092788],81,53,easy,minus,dotcolour,alfa,,,130,18,V,R,
744,114,30,17,5,53,27,141,['c'],1,left,['0'],6,180,[0.10873777],91,53,easy,minus,dotcolour,alfa,,,130,18,V,R,
745,115,31,17,5,27,53,367,['c'],0,right,['0'],6,95,[0.04671402],80,53,easy,minus,dotcolour,alfa,,,130,18,V,R,
746,116,32,17,5,33,47,2233,['n'],1,right,['8'],4,1196,[-0.24218927],88,47,medium,minus,dotcolour,alfa,,,130,18,V,R,
747,117,33,17,5,33,47,899,['c'],0,right,['0'],6,48,[0.05036791],89,47,medium,minus,dotcolour,alfa,,,130,18,V,R,
748,118,34,17,5,27,53,192,['c'],0,right,['0'],6,40,[0.01980803],71,53,easy,minus,dotcolour,alfa,,,130,18,V,R,
749,119,35,17,5,36,44,233,['c'],0,right,['0'],6,2062,[0.10467762],66,44,hard,minus,dotcolour,alfa,,,130,18,V,R,
750,120,36,17,5,44,36,216,['c'],1,left,['0'],6,4,[0.06868646],100,44,hard,minus,dotcolour,alfa,,,130,18,V,R,
751,121,37,17,5,44,36,367,['c'],1,left,['0'],6,678,[0.1351684],81,44,hard,minus,dotcolour,alfa,,,130,18,V,R,
752,122,38,17,5,36,44,1000,['n'],1,right,['0'],6,76,[-0.07737317],93,44,hard,minus,dotcolour,alfa,,,130,18,V,R,
753,123,39,17,5,33,47,368,['n'],1,right,['0'],6,52,[-0.03037288],77,47,medium,minus,dotcolour,alfa,,,130,18,V,R,
754,124,40,17,5,27,53,285,['n'],1,right,['0'],6,47,[-0.10952548],99,53,easy,minus,dotcolour,alfa,,,130,18,V,R,
755,125,41,17,5,33,47,216,['n'],1,right,['0'],6,38,[-0.08978131],98,47,medium,minus,dotcolour,alfa,,,130,18,V,R,
,,,,,,,,,,,,,,,,,,,,,1,"soms stond er correct als ik bv een typfout had gemaakt en dus de verkeerde kle
ur zei",130,18,V,R,
,,,,,,,,,,,,,,,,,,,,,2,['f'],130,18,V,R,
,,,,,,,,,,,,,,,,,,,,,3,['g'],130,18,V,R,
,,,,,,,,,,,,,,,,,,,,,5,['5'],130,18,V,R,
