trial,withinphasetrial,withinblocktrial,block,phase,dotsLeft,dotsRight,rt,resp,cor,cresp,conf_press,cj,RTconf,ev,fb,diff,difflevel,condition,task,manip,questionID,questionResp,sub,age,gender,handedness,
0,0,0,0,0,44,36,2034,['n'],0,left,['3'],3,4273,[0.16524387],13,44,hard,minus,dotcolour,beta,,,67,19,V,R,
1,1,1,0,0,36,44,2683,['c'],0,right,['8'],4,2371,[-0.09943872],14,44,hard,minus,dotcolour,beta,,,67,19,V,R,
2,2,2,0,0,47,33,1681,['n'],0,left,['9'],5,2513,[0.06783021],20,47,medium,minus,dotcolour,beta,,,67,19,V,R,
3,3,3,0,0,33,47,1350,['n'],1,right,['9'],5,871,[-0.30073615],99,47,medium,minus,dotcolour,beta,,,67,19,V,R,
4,4,4,0,0,36,44,1365,['n'],1,right,['9'],5,718,[-0.34898856],100,44,hard,minus,dotcolour,beta,,,67,19,V,R,
5,5,5,0,0,27,53,1300,['n'],1,right,['9'],5,583,[-0.19312078],96,53,easy,minus,dotcolour,beta,,,67,19,V,R,
6,6,6,0,0,36,44,2116,['n'],1,right,['9'],5,668,[-0.10868705],76,44,hard,minus,dotcolour,beta,,,67,19,V,R,
7,7,7,0,0,44,36,2100,['c'],1,left,['3'],3,1022,[0.02078039],35,44,hard,minus,dotcolour,beta,,,67,19,V,R,
8,8,8,0,0,27,53,1630,['n'],1,right,['9'],5,717,[-0.1717981],92,53,easy,minus,dotcolour,beta,,,67,19,V,R,
9,9,9,0,0,33,47,1517,['n'],1,right,['0'],6,525,[-0.10766274],78,47,medium,minus,dotcolour,beta,,,67,19,V,R,
10,10,10,0,0,44,36,2100,['c'],1,left,['9'],5,693,[-0.00389611],22,44,hard,minus,dotcolour,beta,,,67,19,V,R,
11,11,11,0,0,33,47,1282,['n'],1,right,['0'],6,1071,[-0.0071097],30,47,medium,minus,dotcolour,beta,,,67,19,V,R,
12,12,12,0,0,33,47,1298,['n'],1,right,['9'],5,817,[-0.06544129],55,47,medium,minus,dotcolour,beta,,,67,19,V,R,
13,13,13,0,0,47,33,1467,['c'],1,left,['9'],5,967,[0.19787851],93,47,medium,minus,dotcolour,beta,,,67,19,V,R,
14,14,14,0,0,27,53,1267,['n'],1,right,['0'],6,638,[-0.10604134],76,53,easy,minus,dotcolour,beta,,,67,19,V,R,
15,15,15,0,0,53,27,1234,['c'],1,left,['9'],5,476,[0.14790762],92,53,easy,minus,dotcolour,beta,,,67,19,V,R,
16,16,16,0,0,53,27,933,['c'],1,left,['9'],5,453,[0.07984216],66,53,easy,minus,dotcolour,beta,,,67,19,V,R,
17,17,17,0,0,44,36,3917,['n'],0,left,['3'],3,1479,[-0.03503453],42,44,hard,minus,dotcolour,beta,,,67,19,V,R,
18,18,18,0,0,36,44,814,['n'],1,right,['8'],4,1973,[-0.09556318],63,44,hard,minus,dotcolour,beta,,,67,19,V,R,
19,19,19,0,0,33,47,1168,['n'],1,right,['9'],5,448,[-0.03048686],34,47,medium,minus,dotcolour,beta,,,67,19,V,R,
20,20,20,0,0,53,27,1217,['c'],1,left,['3'],3,543,[0.14992788],91,53,easy,minus,dotcolour,beta,,,67,19,V,R,
21,21,21,0,0,47,33,1716,['n'],0,left,['3'],3,677,[0.11527537],2,47,medium,minus,dotcolour,beta,,,67,19,V,R,
22,22,22,0,0,53,27,2966,['c'],1,left,['1'],1,1045,[0.20601317],93,53,easy,minus,dotcolour,beta,,,67,19,V,R,
23,23,23,0,0,36,44,4183,['n'],1,right,['0'],6,405,[-0.04256652],41,44,hard,minus,dotcolour,beta,,,67,19,V,R,
24,24,24,0,0,36,44,1283,['n'],1,right,['0'],6,378,[-0.07584834],64,44,hard,minus,dotcolour,beta,,,67,19,V,R,
25,25,25,0,0,36,44,2731,['n'],1,right,['3'],3,687,[-0.1342077],85,44,hard,minus,dotcolour,beta,,,67,19,V,R,
26,26,26,0,0,47,33,1483,['c'],1,left,['2'],2,1073,[0.34157404],99,47,medium,minus,dotcolour,beta,,,67,19,V,R,
27,27,27,0,0,53,27,1533,['c'],1,left,['8'],4,1185,[0.34930133],99,53,easy,minus,dotcolour,beta,,,67,19,V,R,
28,28,28,0,0,33,47,1184,['n'],1,right,['0'],6,619,[0.02886886],13,47,medium,minus,dotcolour,beta,,,67,19,V,R,
29,29,29,0,0,47,33,1333,['c'],1,left,['3'],3,510,[0.15228021],92,47,medium,minus,dotcolour,beta,,,67,19,V,R,
30,30,30,0,0,53,27,1101,['n'],0,left,['3'],3,1423,[0.03086957],21,53,easy,minus,dotcolour,beta,,,67,19,V,R,
31,31,31,0,0,47,33,1367,['c'],1,left,['3'],3,704,[0.17546952],93,47,medium,minus,dotcolour,beta,,,67,19,V,R,
32,32,32,0,0,47,33,2467,['c'],1,left,['0'],6,618,[0.13847734],87,47,medium,minus,dotcolour,beta,,,67,19,V,R,
33,33,33,0,0,53,27,2834,['n'],0,left,['3'],3,409,[-0.00762113],21,53,easy,minus,dotcolour,beta,,,67,19,V,R,
34,34,34,0,0,27,53,967,['n'],1,right,['8'],4,1219,[-0.15668876],84,53,easy,minus,dotcolour,beta,,,67,19,V,R,
35,35,35,0,0,44,36,2883,['c'],1,left,['8'],4,1344,[0.28477705],97,44,hard,minus,dotcolour,beta,,,67,19,V,R,
36,36,36,0,0,27,53,967,['n'],1,right,['0'],6,580,[-0.30127715],100,53,easy,minus,dotcolour,beta,,,67,19,V,R,
37,37,37,0,0,27,53,1216,['n'],1,right,['0'],6,461,[-0.11433874],83,53,easy,minus,dotcolour,beta,,,67,19,V,R,
38,38,38,0,0,27,53,1147,['n'],1,right,['0'],6,710,[-0.29907924],99,53,easy,minus,dotcolour,beta,,,67,19,V,R,
39,39,39,0,0,33,47,850,['n'],1,right,['9'],5,945,[-0.170972],89,47,medium,minus,dotcolour,beta,,,67,19,V,R,
40,40,40,0,0,44,36,1433,['c'],1,left,['8'],4,1946,[0.0699689],55,44,hard,minus,dotcolour,beta,,,67,19,V,R,
41,41,41,0,0,44,36,1383,['c'],1,left,['8'],4,1021,[0.21814379],95,44,hard,minus,dotcolour,beta,,,67,19,V,R,
42,42,0,1,0,53,27,3083,['c'],1,left,['3'],3,459,[0.09790368],75,53,easy,minus,dotcolour,beta,,,67,19,V,R,
43,43,1,1,0,27,53,967,['n'],1,right,['8'],4,371,[-0.01075133],21,53,easy,minus,dotcolour,beta,,,67,19,V,R,
44,44,2,1,0,27,53,1183,['n'],1,right,['8'],4,343,[-0.1529608],95,53,easy,minus,dotcolour,beta,,,67,19,V,R,
45,45,3,1,0,36,44,1401,['c'],0,right,['2'],2,522,[-0.03929784],9,44,hard,minus,dotcolour,beta,,,67,19,V,R,
46,46,4,1,0,53,27,1317,['c'],1,left,['3'],3,697,[0.10055878],73,53,easy,minus,dotcolour,beta,,,67,19,V,R,
47,47,5,1,0,36,44,1249,['c'],0,right,['3'],3,316,[0.13662199],93,44,hard,minus,dotcolour,beta,,,67,19,V,R,
48,48,6,1,0,53,27,1399,['c'],1,left,['8'],4,929,[0.22417535],96,53,easy,minus,dotcolour,beta,,,67,19,V,R,
49,49,7,1,0,47,33,1683,['n'],0,left,['8'],4,425,[0.03895533],7,47,medium,minus,dotcolour,beta,,,67,19,V,R,
50,50,8,1,0,53,27,2017,['c'],1,left,['2'],2,457,[0.20837493],98,53,easy,minus,dotcolour,beta,,,67,19,V,R,
51,51,9,1,0,47,33,2267,['c'],1,left,['8'],4,541,[0.14819906],91,47,medium,minus,dotcolour,beta,,,67,19,V,R,
52,52,10,1,0,27,53,1200,['n'],1,right,['3'],3,952,[-0.05744042],51,53,easy,minus,dotcolour,beta,,,67,19,V,R,
53,53,11,1,0,36,44,2833,['n'],1,right,['3'],3,233,[-0.04555057],41,44,hard,minus,dotcolour,beta,,,67,19,V,R,
54,54,12,1,0,27,53,1000,['n'],1,right,['8'],4,481,[-0.07397271],62,53,easy,minus,dotcolour,beta,,,67,19,V,R,
55,55,13,1,0,33,47,2134,['n'],1,right,['3'],3,473,[-0.05914354],52,47,medium,minus,dotcolour,beta,,,67,19,V,R,
56,56,14,1,0,53,27,1350,['c'],1,left,['3'],3,721,[0.15013309],88,53,easy,minus,dotcolour,beta,,,67,19,V,R,
57,57,15,1,0,33,47,1166,['n'],1,right,['8'],4,415,[-0.11742256],85,47,medium,minus,dotcolour,beta,,,67,19,V,R,
58,58,16,1,0,47,33,1384,['c'],1,left,['8'],4,352,[0.06618516],58,47,medium,minus,dotcolour,beta,,,67,19,V,R,
59,59,17,1,0,33,47,1132,['n'],1,right,['8'],4,301,[-0.03503051],34,47,medium,minus,dotcolour,beta,,,67,19,V,R,
60,60,18,1,0,36,44,2234,['n'],1,right,['3'],3,305,[0.03153167],6,44,hard,minus,dotcolour,beta,,,67,19,V,R,
61,61,19,1,0,27,53,817,['n'],1,right,['3'],3,430,[-0.30259916],100,53,easy,minus,dotcolour,beta,,,67,19,V,R,
62,62,20,1,0,47,33,2066,['c'],1,left,['3'],3,619,[0.1555095],91,47,medium,minus,dotcolour,beta,,,67,19,V,R,
63,63,21,1,0,36,44,1350,['n'],1,right,['3'],3,1030,[-0.14837802],84,44,hard,minus,dotcolour,beta,,,67,19,V,R,
64,64,22,1,0,36,44,1067,['n'],1,right,['8'],4,523,[-0.0203549],29,44,hard,minus,dotcolour,beta,,,67,19,V,R,
65,65,23,1,0,44,36,2283,['n'],0,left,['3'],3,644,[-0.03843388],41,44,hard,minus,dotcolour,beta,,,67,19,V,R,
66,66,24,1,0,44,36,2117,['n'],0,left,['3'],3,319,[-0.06660865],59,44,hard,minus,dotcolour,beta,,,67,19,V,R,
67,67,25,1,0,47,33,1383,['c'],1,left,['3'],3,323,[0.01809625],23,47,medium,minus,dotcolour,beta,,,67,19,V,R,
68,68,26,1,0,44,36,1216,['c'],1,left,['3'],3,286,[0.04866173],44,44,hard,minus,dotcolour,beta,,,67,19,V,R,
69,69,27,1,0,27,53,1050,['n'],1,right,['8'],4,891,[-0.14355991],84,53,easy,minus,dotcolour,beta,,,67,19,V,R,
70,70,28,1,0,33,47,3067,['n'],1,right,['3'],3,381,[-0.16100478],96,47,medium,minus,dotcolour,beta,,,67,19,V,R,
71,71,29,1,0,33,47,833,['n'],1,right,['3'],3,318,[-0.05863036],52,47,medium,minus,dotcolour,beta,,,67,19,V,R,
72,72,30,1,0,33,47,1234,['n'],1,right,['3'],3,185,[-0.09885891],86,47,medium,minus,dotcolour,beta,,,67,19,V,R,
73,73,31,1,0,53,27,1367,['c'],1,left,['3'],3,389,[0.1016125],79,53,easy,minus,dotcolour,beta,,,67,19,V,R,
74,74,32,1,0,44,36,1399,['c'],1,left,['3'],3,254,[0.17885933],99,44,hard,minus,dotcolour,beta,,,67,19,V,R,
75,75,33,1,0,36,44,848,['n'],1,right,['8'],4,291,[0.0006937],13,44,hard,minus,dotcolour,beta,,,67,19,V,R,
76,76,34,1,0,47,33,2184,['c'],1,left,['8'],4,1089,[0.00994667],31,47,medium,minus,dotcolour,beta,,,67,19,V,R,
77,77,35,1,0,44,36,1451,['c'],1,left,['8'],4,380,[0.10690379],82,44,hard,minus,dotcolour,beta,,,67,19,V,R,
78,78,36,1,0,44,36,2649,['c'],1,left,['3'],3,292,[0.17987357],98,44,hard,minus,dotcolour,beta,,,67,19,V,R,
79,79,37,1,0,53,27,1801,['c'],1,left,['3'],3,298,[0.11766152],89,53,easy,minus,dotcolour,beta,,,67,19,V,R,
80,80,38,1,0,33,47,2162,['n'],1,right,['8'],4,328,[-0.04903179],45,47,medium,minus,dotcolour,beta,,,67,19,V,R,
81,81,39,1,0,27,53,917,['n'],1,right,['8'],4,304,[-0.12723942],91,53,easy,minus,dotcolour,beta,,,67,19,V,R,
82,82,40,1,0,44,36,2034,['c'],1,left,['2'],2,1252,[0.20182172],91,44,hard,minus,dotcolour,beta,,,67,19,V,R,
83,83,41,1,0,47,33,1866,['n'],0,left,['1'],1,832,[0.00839007],22,47,medium,minus,dotcolour,beta,,,67,19,V,R,
84,84,0,2,0,33,47,1450,['n'],1,right,['8'],4,260,[-0.08064841],71,47,medium,minus,dotcolour,beta,,,67,19,V,R,
85,85,1,2,0,53,27,1134,['c'],1,left,['8'],4,365,[0.08982258],74,53,easy,minus,dotcolour,beta,,,67,19,V,R,
86,86,2,2,0,44,36,1150,['c'],1,left,['8'],4,226,[0.04985339],45,44,hard,minus,dotcolour,beta,,,67,19,V,R,
87,87,3,2,0,36,44,734,['c'],0,right,['8'],4,404,[0.15434939],94,44,hard,minus,dotcolour,beta,,,67,19,V,R,
88,88,4,2,0,33,47,1650,['n'],1,right,['8'],4,316,[-0.17121933],98,47,medium,minus,dotcolour,beta,,,67,19,V,R,
89,89,5,2,0,47,33,1551,['c'],1,left,['3'],3,731,[0.06360517],54,47,medium,minus,dotcolour,beta,,,67,19,V,R,
90,90,6,2,0,44,36,1132,['c'],1,left,['3'],3,241,[0.1445717],96,44,hard,minus,dotcolour,beta,,,67,19,V,R,
91,91,7,2,0,27,53,1083,['n'],1,right,['3'],3,269,[-0.21181228],100,53,easy,minus,dotcolour,beta,,,67,19,V,R,
92,92,8,2,0,53,27,3250,['n'],0,left,['3'],3,90,[-0.02836967],16,53,easy,minus,dotcolour,beta,,,67,19,V,R,
93,93,9,2,0,47,33,951,['n'],0,left,['3'],3,114,[0.00398115],4,47,medium,minus,dotcolour,beta,,,67,19,V,R,
94,94,10,2,0,44,36,1564,['c'],1,left,['3'],3,280,[0.14095206],95,44,hard,minus,dotcolour,beta,,,67,19,V,R,
95,95,11,2,0,47,33,1549,['c'],1,left,['8'],4,328,[0.07597966],66,47,medium,minus,dotcolour,beta,,,67,19,V,R,
96,96,12,2,0,33,47,768,['n'],1,right,['8'],4,253,[-0.03852577],35,47,medium,minus,dotcolour,beta,,,67,19,V,R,
97,97,13,2,0,36,44,1217,['n'],1,right,['1'],1,1131,[-0.2273035],95,44,hard,minus,dotcolour,beta,,,67,19,V,R,
98,98,14,2,0,44,36,1583,['c'],1,left,['1'],1,687,[0.05171475],48,44,hard,minus,dotcolour,beta,,,67,19,V,R,
99,99,15,2,0,27,53,766,['n'],1,right,['3'],3,1678,[-0.45121015],100,53,easy,minus,dotcolour,beta,,,67,19,V,R,
100,100,16,2,0,33,47,1167,['n'],1,right,['3'],3,316,[-0.12031875],89,47,medium,minus,dotcolour,beta,,,67,19,V,R,
101,101,17,2,0,27,53,518,['n'],1,right,['3'],3,260,[-0.24813095],100,53,easy,minus,dotcolour,beta,,,67,19,V,R,
102,102,18,2,0,36,44,634,['n'],1,right,['3'],3,98,[-0.12520239],98,44,hard,minus,dotcolour,beta,,,67,19,V,R,
103,103,19,2,0,27,53,684,['n'],1,right,['3'],3,124,[-0.12889664],98,53,easy,minus,dotcolour,beta,,,67,19,V,R,
104,104,20,2,0,27,53,484,['n'],1,right,['3'],3,156,[-0.05576061],50,53,easy,minus,dotcolour,beta,,,67,19,V,R,
105,105,21,2,0,33,47,1418,['n'],1,right,['3'],3,799,[-0.1624561],90,47,medium,minus,dotcolour,beta,,,67,19,V,R,
106,106,22,2,0,33,47,1284,['n'],1,right,['3'],3,228,[-0.11459237],90,47,medium,minus,dotcolour,beta,,,67,19,V,R,
107,107,23,2,0,36,44,714,['n'],1,right,['3'],3,168,[-0.14044836],98,44,hard,minus,dotcolour,beta,,,67,19,V,R,
108,108,24,2,0,47,33,1299,['c'],1,left,['8'],4,254,[0.02190621],23,47,medium,minus,dotcolour,beta,,,67,19,V,R,
109,109,25,2,0,47,33,2051,['c'],1,left,['2'],2,739,[0.13835699],85,47,medium,minus,dotcolour,beta,,,67,19,V,R,
110,110,26,2,0,33,47,1016,['n'],1,right,['2'],2,342,[-0.10525709],82,47,medium,minus,dotcolour,beta,,,67,19,V,R,
111,111,27,2,0,44,36,1217,['c'],1,left,['2'],2,448,[0.10195749],78,44,hard,minus,dotcolour,beta,,,67,19,V,R,
112,112,28,2,0,53,27,1500,['c'],1,left,['1'],1,652,[0.11261643],78,53,easy,minus,dotcolour,beta,,,67,19,V,R,
113,113,29,2,0,47,33,1301,['c'],1,left,['2'],2,1287,[0.2440239],95,47,medium,minus,dotcolour,beta,,,67,19,V,R,
114,114,30,2,0,44,36,1033,['c'],1,left,['2'],2,354,[0.16098069],96,44,hard,minus,dotcolour,beta,,,67,19,V,R,
115,115,31,2,0,36,44,3350,['c'],0,right,['2'],2,328,[0.10871723],84,44,hard,minus,dotcolour,beta,,,67,19,V,R,
116,116,32,2,0,53,27,1133,['c'],1,left,['8'],4,726,[0.28168806],99,53,easy,minus,dotcolour,beta,,,67,19,V,R,
117,117,33,2,0,53,27,750,['c'],1,left,['3'],3,908,[0.25831056],98,53,easy,minus,dotcolour,beta,,,67,19,V,R,
118,118,34,2,0,53,27,1782,['c'],1,left,['8'],4,298,[-0.01249626],10,53,easy,minus,dotcolour,beta,,,67,19,V,R,
119,119,35,2,0,27,53,2017,['n'],1,right,['1'],1,254,[-0.09929875],83,53,easy,minus,dotcolour,beta,,,67,19,V,R,
120,120,36,2,0,44,36,1749,['n'],0,left,['1'],1,255,[-0.05919458],53,44,hard,minus,dotcolour,beta,,,67,19,V,R,
121,121,37,2,0,53,27,1467,['c'],1,left,['8'],4,1212,[0.37959828],100,53,easy,minus,dotcolour,beta,,,67,19,V,R,
122,122,38,2,0,27,53,900,['n'],1,right,['8'],4,305,[-0.07115621],62,53,easy,minus,dotcolour,beta,,,67,19,V,R,
123,123,39,2,0,47,33,1217,['c'],1,left,['8'],4,380,[0.11788083],86,47,medium,minus,dotcolour,beta,,,67,19,V,R,
124,124,40,2,0,36,44,766,['n'],1,right,['8'],4,272,[-0.07471431],66,44,hard,minus,dotcolour,beta,,,67,19,V,R,
125,125,41,2,0,36,44,2550,['c'],0,right,['3'],3,296,[-0.02490777],7,44,hard,minus,dotcolour,beta,,,67,19,V,R,
126,0,0,3,1,53,27,1316,['c'],1,left,['8'],4,216,[0.054344],99,53,easy,plus,dotcolour,beta,,,67,19,V,R,
127,1,1,3,1,33,47,667,['n'],1,right,['8'],4,222,[-0.02994165],96,47,medium,plus,dotcolour,beta,,,67,19,V,R,
128,2,2,3,1,47,33,900,['n'],0,left,['8'],4,234,[-0.04818739],98,47,medium,plus,dotcolour,beta,,,67,19,V,R,
129,3,3,3,1,27,53,750,['n'],1,right,['8'],4,268,[-0.06466292],98,53,easy,plus,dotcolour,beta,,,67,19,V,R,
130,4,4,3,1,44,36,1182,['c'],1,left,['8'],4,220,[0.11533663],100,44,hard,plus,dotcolour,beta,,,67,19,V,R,
131,5,5,3,1,44,36,1347,['n'],0,left,['8'],4,190,[-0.06639959],99,44,hard,plus,dotcolour,beta,,,67,19,V,R,
132,6,6,3,1,53,27,734,['c'],1,left,['8'],4,195,[0.04530256],98,53,easy,plus,dotcolour,beta,,,67,19,V,R,
133,7,7,3,1,33,47,931,['n'],1,right,['8'],4,151,[-0.0734192],100,47,medium,plus,dotcolour,beta,,,67,19,V,R,
134,8,8,3,1,27,53,667,['n'],1,right,['8'],4,207,[-0.09179096],100,53,easy,plus,dotcolour,beta,,,67,19,V,R,
135,9,9,3,1,44,36,2899,['c'],1,left,['3'],3,172,[0.07934362],100,44,hard,plus,dotcolour,beta,,,67,19,V,R,
136,10,10,3,1,36,44,1017,['c'],0,right,['3'],3,1062,[-0.05984166],48,44,hard,plus,dotcolour,beta,,,67,19,V,R,
137,11,11,3,1,47,33,1517,['c'],1,left,['1'],1,1256,[0.29191197],100,47,medium,plus,dotcolour,beta,,,67,19,V,R,
138,12,12,3,1,36,44,2217,['n'],1,right,['8'],4,270,[-0.1930799],100,44,hard,plus,dotcolour,beta,,,67,19,V,R,
139,13,13,3,1,44,36,1017,['n'],0,left,['8'],4,235,[-0.06189177],99,44,hard,plus,dotcolour,beta,,,67,19,V,R,
140,14,14,3,1,33,47,1467,['n'],1,right,['3'],3,833,[-0.17421341],99,47,medium,plus,dotcolour,beta,,,67,19,V,R,
141,15,15,3,1,36,44,1300,['n'],1,right,['3'],3,309,[-0.01886172],92,44,hard,plus,dotcolour,beta,,,67,19,V,R,
142,16,16,3,1,33,47,1267,['n'],1,right,['9'],5,1063,[-0.02036215],79,47,medium,plus,dotcolour,beta,,,67,19,V,R,
143,17,17,3,1,53,27,1283,['c'],1,left,['8'],4,290,[0.15894238],100,53,easy,plus,dotcolour,beta,,,67,19,V,R,
144,18,18,3,1,47,33,1050,['n'],0,left,['8'],4,277,[-0.01647854],92,47,medium,plus,dotcolour,beta,,,67,19,V,R,
145,19,19,3,1,36,44,967,['n'],1,right,['9'],5,509,[-0.10230185],98,44,hard,plus,dotcolour,beta,,,67,19,V,R,
146,20,20,3,1,53,27,1800,['c'],1,left,['3'],3,225,[0.1204984],100,53,easy,plus,dotcolour,beta,,,67,19,V,R,
147,21,21,3,1,27,53,933,['n'],1,right,['9'],5,292,[-0.05821143],98,53,easy,plus,dotcolour,beta,,,67,19,V,R,
148,22,22,3,1,53,27,734,['c'],1,left,['3'],3,180,[0.07252081],100,53,easy,plus,dotcolour,beta,,,67,19,V,R,
149,23,23,3,1,44,36,933,['n'],0,left,['8'],4,985,[0.02734158],63,44,hard,plus,dotcolour,beta,,,67,19,V,R,
150,24,24,3,1,27,53,550,['n'],1,right,['8'],4,252,[-0.13646197],100,53,easy,plus,dotcolour,beta,,,67,19,V,R,
151,25,25,3,1,27,53,1101,['n'],1,right,['9'],5,271,[-0.07306975],99,53,easy,plus,dotcolour,beta,,,67,19,V,R,
152,26,26,3,1,27,53,416,['n'],1,right,['9'],5,237,[-0.06126921],99,53,easy,plus,dotcolour,beta,,,67,19,V,R,
153,27,27,3,1,33,47,317,['n'],1,right,['9'],5,128,[-0.09726301],100,47,medium,plus,dotcolour,beta,,,67,19,V,R,
154,28,28,3,1,53,27,684,['c'],1,left,['3'],3,177,[0.07002217],100,53,easy,plus,dotcolour,beta,,,67,19,V,R,
155,29,29,3,1,47,33,717,['c'],1,left,['9'],5,214,[0.11297142],100,47,medium,plus,dotcolour,beta,,,67,19,V,R,
156,30,30,3,1,47,33,567,['c'],1,left,['3'],3,585,[0.19683628],100,47,medium,plus,dotcolour,beta,,,67,19,V,R,
157,31,31,3,1,53,27,333,['c'],1,left,['3'],3,221,[0.10975012],100,53,easy,plus,dotcolour,beta,,,67,19,V,R,
158,32,32,3,1,47,33,750,['c'],1,left,['3'],3,183,[0.05343204],99,47,medium,plus,dotcolour,beta,,,67,19,V,R,
159,33,33,3,1,27,53,734,['n'],1,right,['9'],5,195,[-0.105294],100,53,easy,plus,dotcolour,beta,,,67,19,V,R,
160,34,34,3,1,44,36,650,['c'],1,left,['2'],2,1179,[0.27860603],100,44,hard,plus,dotcolour,beta,,,67,19,V,R,
161,35,35,3,1,36,44,617,['n'],1,right,['9'],5,260,[-0.11758598],100,44,hard,plus,dotcolour,beta,,,67,19,V,R,
162,36,36,3,1,44,36,784,['c'],1,left,['9'],5,411,[0.08266483],98,44,hard,plus,dotcolour,beta,,,67,19,V,R,
163,37,37,3,1,33,47,784,['n'],1,right,['1'],1,1133,[-0.06656507],89,47,medium,plus,dotcolour,beta,,,67,19,V,R,
164,38,38,3,1,33,47,767,['n'],1,right,['9'],5,314,[-0.15293918],100,47,medium,plus,dotcolour,beta,,,67,19,V,R,
165,39,39,3,1,36,44,783,['n'],1,right,['9'],5,191,[-0.03300684],97,44,hard,plus,dotcolour,beta,,,67,19,V,R,
166,40,40,3,1,47,33,984,['c'],1,left,['9'],5,225,[0.09246563],100,47,medium,plus,dotcolour,beta,,,67,19,V,R,
167,41,41,3,1,36,44,900,['n'],1,right,['9'],5,165,[-0.07315089],100,44,hard,plus,dotcolour,beta,,,67,19,V,R,
168,42,0,4,1,33,47,884,['n'],1,right,['9'],5,141,[-0.09542918],100,47,medium,plus,dotcolour,beta,,,67,19,V,R,
169,43,1,4,1,53,27,818,['c'],1,left,['9'],5,231,[0.11513057],100,53,easy,plus,dotcolour,beta,,,67,19,V,R,
170,44,2,4,1,47,33,917,['c'],1,left,['9'],5,147,[0.03606437],99,47,medium,plus,dotcolour,beta,,,67,19,V,R,
171,45,3,4,1,36,44,2417,['n'],1,right,['9'],5,758,[-0.06417679],92,44,hard,plus,dotcolour,beta,,,67,19,V,R,
172,46,4,4,1,53,27,766,['c'],1,left,['9'],5,145,[0.09502666],100,53,easy,plus,dotcolour,beta,,,67,19,V,R,
173,47,5,4,1,27,53,683,['n'],1,right,['9'],5,161,[-0.1625347],100,53,easy,plus,dotcolour,beta,,,67,19,V,R,
174,48,6,4,1,47,33,750,['c'],1,left,['9'],5,142,[0.10959137],100,47,medium,plus,dotcolour,beta,,,67,19,V,R,
175,49,7,4,1,47,33,534,['c'],1,left,['9'],5,140,[0.0634336],100,47,medium,plus,dotcolour,beta,,,67,19,V,R,
176,50,8,4,1,47,33,416,['c'],1,left,['9'],5,119,[0.12456699],100,47,medium,plus,dotcolour,beta,,,67,19,V,R,
177,51,9,4,1,53,27,300,['c'],1,left,['9'],5,80,[0.10884097],100,53,easy,plus,dotcolour,beta,,,67,19,V,R,
178,52,10,4,1,36,44,233,['c'],0,right,['9'],5,21,[0.08211216],100,44,hard,plus,dotcolour,beta,,,67,19,V,R,
179,53,11,4,1,33,47,215,['c'],0,right,['9'],5,1069,[0.07524381],91,47,medium,plus,dotcolour,beta,,,67,19,V,R,
180,54,12,4,1,33,47,384,['c'],0,right,['9'],5,99,[0.06211489],100,47,medium,plus,dotcolour,beta,,,67,19,V,R,
181,55,13,4,1,33,47,3083,['n'],1,right,['9'],5,661,[-0.0862979],96,47,medium,plus,dotcolour,beta,,,67,19,V,R,
182,56,14,4,1,44,36,334,['c'],1,left,['9'],5,159,[0.07742303],100,44,hard,plus,dotcolour,beta,,,67,19,V,R,
183,57,15,4,1,27,53,217,['n'],1,right,['9'],5,209,[-0.02470901],96,53,easy,plus,dotcolour,beta,,,67,19,V,R,
184,58,16,4,1,36,44,867,['n'],1,right,['9'],5,727,[-0.1027901],97,44,hard,plus,dotcolour,beta,,,67,19,V,R,
185,59,17,4,1,53,27,750,['c'],1,left,['9'],5,149,[0.09058291],100,53,easy,plus,dotcolour,beta,,,67,19,V,R,
186,60,18,4,1,33,47,137,['c'],0,right,['9'],5,64,[0.05966023],100,47,medium,plus,dotcolour,beta,,,67,19,V,R,
187,61,19,4,1,27,53,17,['n'],1,right,['9'],5,543,[-0.04318273],92,53,easy,plus,dotcolour,beta,,,67,19,V,R,
188,62,20,4,1,36,44,2767,['n'],1,right,['9'],5,163,[-0.11825929],100,44,hard,plus,dotcolour,beta,,,67,19,V,R,
189,63,21,4,1,47,33,300,['c'],1,left,['9'],5,138,[0.08019164],100,47,medium,plus,dotcolour,beta,,,67,19,V,R,
190,64,22,4,1,33,47,1817,['n'],1,right,['9'],5,333,[-0.01874278],91,47,medium,plus,dotcolour,beta,,,67,19,V,R,
191,65,23,4,1,44,36,300,['c'],1,left,['9'],5,181,[0.11915596],100,44,hard,plus,dotcolour,beta,,,67,19,V,R,
192,66,24,4,1,44,36,367,['n'],0,left,['9'],5,320,[0.04461164],59,44,hard,plus,dotcolour,beta,,,67,19,V,R,
193,67,25,4,1,44,36,300,['c'],1,left,['9'],5,113,[0.08184077],100,44,hard,plus,dotcolour,beta,,,67,19,V,R,
194,68,26,4,1,27,53,383,['c'],0,right,['9'],5,751,[0.04223418],88,53,easy,plus,dotcolour,beta,,,67,19,V,R,
195,69,27,4,1,53,27,265,['c'],1,left,['9'],5,175,[0.10711974],100,53,easy,plus,dotcolour,beta,,,67,19,V,R,
196,70,28,4,1,36,44,250,['c'],0,right,['9'],5,159,[0.07132795],100,44,hard,plus,dotcolour,beta,,,67,19,V,R,
197,71,29,4,1,27,53,163,['c'],0,right,['9'],5,130,[0.10551742],100,53,easy,plus,dotcolour,beta,,,67,19,V,R,
198,72,30,4,1,47,33,1217,['n'],0,left,['9'],5,253,[-0.10239781],100,47,medium,plus,dotcolour,beta,,,67,19,V,R,
199,73,31,4,1,44,36,284,['c'],1,left,['9'],5,121,[0.11666463],100,44,hard,plus,dotcolour,beta,,,67,19,V,R,
200,74,32,4,1,27,53,296,['n'],1,right,['9'],5,233,[-0.12637695],100,53,easy,plus,dotcolour,beta,,,67,19,V,R,
201,75,33,4,1,53,27,284,['c'],1,left,['9'],5,182,[0.11517056],100,53,easy,plus,dotcolour,beta,,,67,19,V,R,
202,76,34,4,1,36,44,416,['c'],0,right,['9'],5,183,[0.07132435],100,44,hard,plus,dotcolour,beta,,,67,19,V,R,
203,77,35,4,1,44,36,75,['c'],1,left,['8'],4,97,[0.0833581],100,44,hard,plus,dotcolour,beta,,,67,19,V,R,
204,78,36,4,1,33,47,267,['c'],0,right,['8'],4,244,[0.0516551],98,47,medium,plus,dotcolour,beta,,,67,19,V,R,
205,79,37,4,1,47,33,300,['c'],1,left,['8'],4,271,[0.09490211],99,47,medium,plus,dotcolour,beta,,,67,19,V,R,
206,80,38,4,1,44,36,883,['c'],1,left,['8'],4,226,[0.12756254],100,44,hard,plus,dotcolour,beta,,,67,19,V,R,
207,81,39,4,1,36,44,333,['c'],0,right,['8'],4,5,[0.05393019],100,44,hard,plus,dotcolour,beta,,,67,19,V,R,
208,82,40,4,1,53,27,102,['c'],1,left,['8'],4,94,[0.08892267],100,53,easy,plus,dotcolour,beta,,,67,19,V,R,
209,83,41,4,1,27,53,284,['c'],0,right,['8'],4,168,[0.02032044],97,53,easy,plus,dotcolour,beta,,,67,19,V,R,
210,84,0,5,1,33,47,1768,['n'],1,right,['8'],4,145,[-0.05373383],99,47,medium,plus,dotcolour,beta,,,67,19,V,R,
211,85,1,5,1,53,27,250,['n'],0,left,['8'],4,1058,[-0.11165183],95,53,easy,plus,dotcolour,beta,,,67,19,V,R,
212,86,2,5,1,36,44,899,['n'],1,right,['8'],4,349,[-0.11744492],99,44,hard,plus,dotcolour,beta,,,67,19,V,R,
213,87,3,5,1,27,53,297,['c'],0,right,['8'],4,147,[0.04416204],99,53,easy,plus,dotcolour,beta,,,67,19,V,R,
214,88,4,5,1,36,44,367,['n'],1,right,['8'],4,313,[-0.12661072],100,44,hard,plus,dotcolour,beta,,,67,19,V,R,
215,89,5,5,1,53,27,234,['c'],1,left,['8'],4,180,[0.17272971],100,53,easy,plus,dotcolour,beta,,,67,19,V,R,
216,90,6,5,1,44,36,1649,['n'],0,left,['8'],4,668,[0.01890728],69,44,hard,plus,dotcolour,beta,,,67,19,V,R,
217,91,7,5,1,27,53,1532,['n'],1,right,['8'],4,44,[-0.08347757],100,53,easy,plus,dotcolour,beta,,,67,19,V,R,
218,92,8,5,1,47,33,266,['n'],0,left,['8'],4,409,[0.02402526],71,47,medium,plus,dotcolour,beta,,,67,19,V,R,
219,93,9,5,1,47,33,250,['n'],0,left,['8'],4,304,[0.01523821],79,47,medium,plus,dotcolour,beta,,,67,19,V,R,
220,94,10,5,1,33,47,432,['c'],0,right,['8'],4,244,[0.0247393],95,47,medium,plus,dotcolour,beta,,,67,19,V,R,
221,95,11,5,1,33,47,350,['c'],0,right,['8'],4,117,[0.09332548],100,47,medium,plus,dotcolour,beta,,,67,19,V,R,
222,96,12,5,1,27,53,417,['c'],0,right,['8'],4,481,[0.04805522],94,53,easy,plus,dotcolour,beta,,,67,19,V,R,
223,97,13,5,1,33,47,816,['n'],1,right,['8'],4,542,[-0.05320234],93,47,medium,plus,dotcolour,beta,,,67,19,V,R,
224,98,14,5,1,36,44,300,['c'],0,right,['8'],4,254,[0.03521596],96,44,hard,plus,dotcolour,beta,,,67,19,V,R,
225,99,15,5,1,36,44,2983,['n'],1,right,['9'],5,222,[-0.03815663],97,44,hard,plus,dotcolour,beta,,,67,19,V,R,
226,100,16,5,1,47,33,451,['c'],1,left,['2'],2,316,[0.23346273],100,47,medium,plus,dotcolour,beta,,,67,19,V,R,
227,101,17,5,1,53,27,250,['c'],1,left,['9'],5,399,[0.10993957],99,53,easy,plus,dotcolour,beta,,,67,19,V,R,
228,102,18,5,1,33,47,177,['n'],1,right,['2'],2,337,[-0.14434924],100,47,medium,plus,dotcolour,beta,,,67,19,V,R,
229,103,19,5,1,27,53,149,['c'],0,right,['2'],2,237,[0.05791459],99,53,easy,plus,dotcolour,beta,,,67,19,V,R,
230,104,20,5,1,44,36,181,['n'],0,left,['2'],2,156,[-0.10370152],100,44,hard,plus,dotcolour,beta,,,67,19,V,R,
231,105,21,5,1,47,33,233,['c'],1,left,['9'],5,286,[0.06100997],98,47,medium,plus,dotcolour,beta,,,67,19,V,R,
232,106,22,5,1,47,33,1099,['c'],1,left,['9'],5,288,[0.0546055],98,47,medium,plus,dotcolour,beta,,,67,19,V,R,
233,107,23,5,1,53,27,383,['c'],1,left,['8'],4,238,[0.05913428],99,53,easy,plus,dotcolour,beta,,,67,19,V,R,
234,108,24,5,1,44,36,1117,['c'],1,left,['8'],4,450,[0.02587421],90,44,hard,plus,dotcolour,beta,,,67,19,V,R,
235,109,25,5,1,27,53,1383,['n'],1,right,['8'],4,1418,[-0.19430809],98,53,easy,plus,dotcolour,beta,,,67,19,V,R,
236,110,26,5,1,36,44,350,['n'],1,right,['8'],4,308,[-0.10355041],99,44,hard,plus,dotcolour,beta,,,67,19,V,R,
237,111,27,5,1,47,33,250,['c'],1,left,['8'],4,6,[0.08356428],100,47,medium,plus,dotcolour,beta,,,67,19,V,R,
238,112,28,5,1,53,27,831,['n'],0,left,['8'],4,46,[-0.04964792],100,53,easy,plus,dotcolour,beta,,,67,19,V,R,
239,113,29,5,1,33,47,366,['c'],0,right,['9'],5,175,[0.03401861],98,47,medium,plus,dotcolour,beta,,,67,19,V,R,
240,114,30,5,1,27,53,281,['n'],1,right,['9'],5,374,[-0.18368107],100,53,easy,plus,dotcolour,beta,,,67,19,V,R,
241,115,31,5,1,44,36,283,['c'],1,left,['9'],5,164,[0.10222248],100,44,hard,plus,dotcolour,beta,,,67,19,V,R,
242,116,32,5,1,53,27,300,['n'],0,left,['9'],5,203,[-0.0920136],100,53,easy,plus,dotcolour,beta,,,67,19,V,R,
243,117,33,5,1,33,47,350,['c'],0,right,['9'],5,158,[0.02618068],98,47,medium,plus,dotcolour,beta,,,67,19,V,R,
244,118,34,5,1,44,36,767,['c'],1,left,['9'],5,515,[0.1700648],100,44,hard,plus,dotcolour,beta,,,67,19,V,R,
245,119,35,5,1,53,27,332,['n'],0,left,['9'],5,434,[-0.09877171],99,53,easy,plus,dotcolour,beta,,,67,19,V,R,
246,120,36,5,1,36,44,681,['c'],0,right,['9'],5,62,[0.05190675],100,44,hard,plus,dotcolour,beta,,,67,19,V,R,
247,121,37,5,1,27,53,267,['c'],0,right,['9'],5,138,[0.08766784],100,53,easy,plus,dotcolour,beta,,,67,19,V,R,
248,122,38,5,1,44,36,533,['c'],1,left,['9'],5,273,[0.05301811],98,44,hard,plus,dotcolour,beta,,,67,19,V,R,
249,123,39,5,1,36,44,433,['c'],0,right,['9'],5,238,[0.01226699],92,44,hard,plus,dotcolour,beta,,,67,19,V,R,
250,124,40,5,1,44,36,317,['c'],1,left,['9'],5,264,[-0.01515137],80,44,hard,plus,dotcolour,beta,,,67,19,V,R,
251,125,41,5,1,47,33,350,['c'],1,left,['9'],5,321,[0.08020792],99,47,medium,plus,dotcolour,beta,,,67,19,V,R,
252,0,0,6,2,44,36,235,['c'],1,left,['9'],5,234,[0.10109611],84,44,hard,minus,dotcolour,beta,,,67,19,V,R,
253,1,1,6,2,53,27,1800,['n'],0,left,['9'],5,370,[-0.065334],57,53,easy,minus,dotcolour,beta,,,67,19,V,R,
254,2,2,6,2,47,33,750,['c'],1,left,['9'],5,791,[0.18211827],93,47,medium,minus,dotcolour,beta,,,67,19,V,R,
255,3,3,6,2,47,33,81,['n'],0,left,['9'],5,512,[0.03588812],9,47,medium,minus,dotcolour,beta,,,67,19,V,R,
256,4,4,6,2,47,33,158,['c'],1,left,['9'],5,109,[0.02973276],20,47,medium,minus,dotcolour,beta,,,67,19,V,R,
257,5,5,6,2,27,53,91,['c'],0,right,['9'],5,418,[-0.01596124],12,53,easy,minus,dotcolour,beta,,,67,19,V,R,
258,6,6,6,2,47,33,108,['n'],0,left,['9'],5,330,[-0.07501687],65,47,medium,minus,dotcolour,beta,,,67,19,V,R,
259,7,7,6,2,53,27,266,['c'],1,left,['9'],5,404,[0.20121652],98,53,easy,minus,dotcolour,beta,,,67,19,V,R,
260,8,8,6,2,36,44,350,['c'],0,right,['9'],5,718,[-0.03377087],13,44,hard,minus,dotcolour,beta,,,67,19,V,R,
261,9,9,6,2,33,47,333,['c'],0,right,['9'],5,350,[-0.01209232],11,47,medium,minus,dotcolour,beta,,,67,19,V,R,
262,10,10,6,2,47,33,316,['c'],1,left,['9'],5,276,[0.11166569],87,47,medium,minus,dotcolour,beta,,,67,19,V,R,
263,11,11,6,2,36,44,384,['c'],0,right,['9'],5,187,[0.03156984],27,44,hard,minus,dotcolour,beta,,,67,19,V,R,
264,12,12,6,2,44,36,431,['c'],1,left,['9'],5,492,[0.09787256],75,44,hard,minus,dotcolour,beta,,,67,19,V,R,
265,13,13,6,2,44,36,484,['c'],1,left,['9'],5,398,[0.10766735],82,44,hard,minus,dotcolour,beta,,,67,19,V,R,
266,14,14,6,2,27,53,450,['c'],0,right,['9'],5,701,[-0.20290258],0,53,easy,minus,dotcolour,beta,,,67,19,V,R,
267,15,15,6,2,27,53,333,['c'],0,right,['9'],5,221,[0.0395368],35,53,easy,minus,dotcolour,beta,,,67,19,V,R,
268,16,16,6,2,44,36,333,['n'],0,left,['9'],5,217,[-0.03636766],32,44,hard,minus,dotcolour,beta,,,67,19,V,R,
269,17,17,6,2,36,44,284,['c'],0,right,['9'],5,478,[0.06238095],54,44,hard,minus,dotcolour,beta,,,67,19,V,R,
270,18,18,6,2,27,53,165,['n'],1,right,['9'],5,372,[-0.04047896],39,53,easy,minus,dotcolour,beta,,,67,19,V,R,
271,19,19,6,2,33,47,174,['n'],1,right,['9'],5,334,[-0.0883078],73,47,medium,minus,dotcolour,beta,,,67,19,V,R,
272,20,20,6,2,44,36,349,['c'],1,left,['9'],5,308,[0.09664428],79,44,hard,minus,dotcolour,beta,,,67,19,V,R,
273,21,21,6,2,27,53,816,['n'],1,right,['9'],5,2032,[-0.36149536],98,53,easy,minus,dotcolour,beta,,,67,19,V,R,
274,22,22,6,2,53,27,46,['n'],0,left,['9'],5,360,[0.04473775],5,53,easy,minus,dotcolour,beta,,,67,19,V,R,
275,23,23,6,2,36,44,348,['c'],0,right,['9'],5,284,[0.03752728],35,44,hard,minus,dotcolour,beta,,,67,19,V,R,
276,24,24,6,2,36,44,351,['c'],0,right,['9'],5,372,[-0.0469454],5,44,hard,minus,dotcolour,beta,,,67,19,V,R,
277,25,25,6,2,47,33,467,['c'],1,left,['9'],5,188,[0.03581056],31,47,medium,minus,dotcolour,beta,,,67,19,V,R,
278,26,26,6,2,33,47,433,['n'],1,right,['9'],5,420,[-0.09944089],77,47,medium,minus,dotcolour,beta,,,67,19,V,R,
279,27,27,6,2,53,27,166,['c'],1,left,['9'],5,260,[0.07252403],65,53,easy,minus,dotcolour,beta,,,67,19,V,R,
280,28,28,6,2,44,36,366,['c'],1,left,['9'],5,253,[0.14540331],96,44,hard,minus,dotcolour,beta,,,67,19,V,R,
281,29,29,6,2,44,36,177,['n'],0,left,['9'],5,403,[-0.10721461],81,44,hard,minus,dotcolour,beta,,,67,19,V,R,
282,30,30,6,2,33,47,198,['c'],0,right,['9'],5,261,[0.00706452],15,47,medium,minus,dotcolour,beta,,,67,19,V,R,
283,31,31,6,2,53,27,92,['c'],1,left,['9'],5,388,[0.13246217],90,53,easy,minus,dotcolour,beta,,,67,19,V,R,
284,32,32,6,2,27,53,54,['c'],0,right,['9'],5,198,[0.10606319],89,53,easy,minus,dotcolour,beta,,,67,19,V,R,
285,33,33,6,2,36,44,41,['n'],1,right,['9'],5,55,[-0.06385495],65,44,hard,minus,dotcolour,beta,,,67,19,V,R,
286,34,34,6,2,36,44,1250,['c'],0,right,['9'],5,340,[0.07089297],62,44,hard,minus,dotcolour,beta,,,67,19,V,R,
287,35,35,6,2,27,53,300,['c'],0,right,['9'],5,435,[-0.08331495],2,53,easy,minus,dotcolour,beta,,,67,19,V,R,
288,36,36,6,2,33,47,817,['n'],1,right,['9'],5,186,[-0.17186381],99,47,medium,minus,dotcolour,beta,,,67,19,V,R,
289,37,37,6,2,47,33,1334,['c'],1,left,['9'],5,167,[0.11804855],94,47,medium,minus,dotcolour,beta,,,67,19,V,R,
290,38,38,6,2,53,27,116,['c'],1,left,['9'],5,314,[0.11906332],88,53,easy,minus,dotcolour,beta,,,67,19,V,R,
291,39,39,6,2,33,47,183,['c'],0,right,['9'],5,350,[0.03245741],33,47,medium,minus,dotcolour,beta,,,67,19,V,R,
292,40,40,6,2,53,27,634,['c'],1,left,['9'],5,256,[-0.03967315],3,53,easy,minus,dotcolour,beta,,,67,19,V,R,
293,41,41,6,2,33,47,234,['n'],1,right,['9'],5,358,[-0.22674366],99,47,medium,minus,dotcolour,beta,,,67,19,V,R,
294,42,0,7,2,44,36,317,['c'],1,left,['8'],4,62,[0.05884877],56,44,hard,minus,dotcolour,beta,,,67,19,V,R,
295,43,1,7,2,47,33,1351,['n'],0,left,['3'],3,775,[0.00814706],21,47,medium,minus,dotcolour,beta,,,67,19,V,R,
296,44,2,7,2,53,27,768,['c'],1,left,['9'],5,298,[0.19278827],99,53,easy,minus,dotcolour,beta,,,67,19,V,R,
297,45,3,7,2,53,27,1351,['c'],1,left,['9'],5,601,[0.22131208],98,53,easy,minus,dotcolour,beta,,,67,19,V,R,
298,46,4,7,2,27,53,451,['n'],1,right,['9'],5,345,[-0.06461602],57,53,easy,minus,dotcolour,beta,,,67,19,V,R,
299,47,5,7,2,27,53,400,['c'],0,right,['9'],5,260,[0.07770822],69,53,easy,minus,dotcolour,beta,,,67,19,V,R,
300,48,6,7,2,47,33,36,['c'],1,left,['9'],5,347,[0.18634397],98,47,medium,minus,dotcolour,beta,,,67,19,V,R,
301,49,7,7,2,44,36,199,['c'],1,left,['9'],5,342,[0.12465247],89,44,hard,minus,dotcolour,beta,,,67,19,V,R,
302,50,8,7,2,47,33,1750,['n'],0,left,['9'],5,700,[-0.2041714],96,47,medium,minus,dotcolour,beta,,,67,19,V,R,
303,51,9,7,2,36,44,42,['c'],0,right,['9'],5,369,[0.02203811],27,44,hard,minus,dotcolour,beta,,,67,19,V,R,
304,52,10,7,2,36,44,217,['c'],0,right,['9'],5,451,[0.13582226],90,44,hard,minus,dotcolour,beta,,,67,19,V,R,
305,53,11,7,2,27,53,267,['c'],0,right,['9'],5,1127,[-0.13910897],4,53,easy,minus,dotcolour,beta,,,67,19,V,R,
306,54,12,7,2,47,33,284,['c'],1,left,['9'],5,240,[0.11237813],89,47,medium,minus,dotcolour,beta,,,67,19,V,R,
307,55,13,7,2,44,36,233,['c'],1,left,['9'],5,342,[0.03434772],34,44,hard,minus,dotcolour,beta,,,67,19,V,R,
308,56,14,7,2,27,53,43,['c'],0,right,['9'],5,506,[0.02697553],33,53,easy,minus,dotcolour,beta,,,67,19,V,R,
309,57,15,7,2,44,36,183,['c'],1,left,['9'],5,270,[0.04812531],44,44,hard,minus,dotcolour,beta,,,67,19,V,R,
310,58,16,7,2,33,47,23,['n'],1,right,['9'],5,645,[-0.044453],44,47,medium,minus,dotcolour,beta,,,67,19,V,R,
311,59,17,7,2,47,33,383,['c'],1,left,['9'],5,253,[0.11314499],89,47,medium,minus,dotcolour,beta,,,67,19,V,R,
312,60,18,7,2,36,44,17,['n'],1,right,['9'],5,404,[-0.10456936],80,44,hard,minus,dotcolour,beta,,,67,19,V,R,
313,61,19,7,2,44,36,233,['c'],1,left,['9'],5,244,[0.07277601],65,44,hard,minus,dotcolour,beta,,,67,19,V,R,
314,62,20,7,2,33,47,37,['n'],1,right,['9'],5,708,[-0.0352341],39,47,medium,minus,dotcolour,beta,,,67,19,V,R,
315,63,21,7,2,44,36,333,['n'],0,left,['9'],5,339,[-0.11967361],88,44,hard,minus,dotcolour,beta,,,67,19,V,R,
316,64,22,7,2,33,47,126,['c'],0,right,['9'],5,230,[0.07501822],67,47,medium,minus,dotcolour,beta,,,67,19,V,R,
317,65,23,7,2,33,47,18,['c'],0,right,['9'],5,382,[-0.05701354],4,47,medium,minus,dotcolour,beta,,,67,19,V,R,
318,66,24,7,2,36,44,534,['c'],0,right,['9'],5,539,[0.0443914],43,44,hard,minus,dotcolour,beta,,,67,19,V,R,
319,67,25,7,2,36,44,317,['c'],0,right,['9'],5,538,[0.03314922],37,44,hard,minus,dotcolour,beta,,,67,19,V,R,
320,68,26,7,2,33,47,133,['n'],1,right,['9'],5,349,[-0.11411761],86,47,medium,minus,dotcolour,beta,,,67,19,V,R,
321,69,27,7,2,33,47,97,['n'],1,right,['9'],5,344,[-0.06462202],57,47,medium,minus,dotcolour,beta,,,67,19,V,R,
322,70,28,7,2,27,53,384,['c'],0,right,['9'],5,252,[0.09292341],79,53,easy,minus,dotcolour,beta,,,67,19,V,R,
323,71,29,7,2,44,36,172,['c'],1,left,['9'],5,347,[0.05467024],49,44,hard,minus,dotcolour,beta,,,67,19,V,R,
324,72,30,7,2,33,47,317,['c'],0,right,['9'],5,402,[0.07452462],63,47,medium,minus,dotcolour,beta,,,67,19,V,R,
325,73,31,7,2,53,27,180,['c'],1,left,['9'],5,387,[0.16778441],96,53,easy,minus,dotcolour,beta,,,67,19,V,R,
326,74,32,7,2,36,44,967,['n'],1,right,['9'],5,575,[-0.12898842],85,44,hard,minus,dotcolour,beta,,,67,19,V,R,
327,75,33,7,2,47,33,283,['c'],1,left,['9'],5,398,[-0.00975924],13,47,medium,minus,dotcolour,beta,,,67,19,V,R,
328,76,34,7,2,53,27,280,['c'],1,left,['9'],5,227,[0.08209689],73,53,easy,minus,dotcolour,beta,,,67,19,V,R,
329,77,35,7,2,53,27,267,['n'],0,left,['9'],5,113,[-0.02690212],18,53,easy,minus,dotcolour,beta,,,67,19,V,R,
330,78,36,7,2,27,53,234,['c'],0,right,['9'],5,92,[0.02943873],18,53,easy,minus,dotcolour,beta,,,67,19,V,R,
331,79,37,7,2,53,27,266,['n'],0,left,['9'],5,167,[-0.05042336],44,53,easy,minus,dotcolour,beta,,,67,19,V,R,
332,80,38,7,2,27,53,107,['c'],0,right,['9'],5,26,[0.09037791],98,53,easy,minus,dotcolour,beta,,,67,19,V,R,
333,81,39,7,2,36,44,161,['c'],0,right,['9'],5,41,[0.10805001],99,44,hard,minus,dotcolour,beta,,,67,19,V,R,
334,82,40,7,2,47,33,97,['c'],1,left,['9'],5,553,[0.12614013],85,47,medium,minus,dotcolour,beta,,,67,19,V,R,
335,83,41,7,2,53,27,233,['c'],1,left,['9'],5,115,[0.17469806],100,53,easy,minus,dotcolour,beta,,,67,19,V,R,
336,84,0,8,2,53,27,317,['c'],1,left,['9'],5,89,[0.06075427],58,53,easy,minus,dotcolour,beta,,,67,19,V,R,
337,85,1,8,2,47,33,199,['c'],1,left,['9'],5,23,[0.07623502],92,47,medium,minus,dotcolour,beta,,,67,19,V,R,
338,86,2,8,2,36,44,267,['c'],0,right,['9'],5,333,[0.11624623],87,44,hard,minus,dotcolour,beta,,,67,19,V,R,
339,87,3,8,2,33,47,130,['n'],1,right,['9'],5,321,[-0.13652012],93,47,medium,minus,dotcolour,beta,,,67,19,V,R,
340,88,4,8,2,36,44,250,['n'],1,right,['9'],5,211,[-0.13872857],96,44,hard,minus,dotcolour,beta,,,67,19,V,R,
341,89,5,8,2,44,36,173,['c'],1,left,['9'],5,84,[0.08708775],88,44,hard,minus,dotcolour,beta,,,67,19,V,R,
342,90,6,8,2,44,36,234,['c'],1,left,['9'],5,153,[0.19424195],100,44,hard,minus,dotcolour,beta,,,67,19,V,R,
343,91,7,8,2,47,33,267,['c'],1,left,['9'],5,249,[0.08371377],73,47,medium,minus,dotcolour,beta,,,67,19,V,R,
344,92,8,8,2,27,53,317,['c'],0,right,['9'],5,84,[0.05291943],46,53,easy,minus,dotcolour,beta,,,67,19,V,R,
345,93,9,8,2,47,33,267,['c'],1,left,['9'],5,151,[0.02883421],22,47,medium,minus,dotcolour,beta,,,67,19,V,R,
346,94,10,8,2,47,33,188,['n'],0,left,['9'],5,235,[-0.09641226],82,47,medium,minus,dotcolour,beta,,,67,19,V,R,
347,95,11,8,2,44,36,132,['n'],0,left,['9'],5,98,[-0.0921978],89,44,hard,minus,dotcolour,beta,,,67,19,V,R,
348,96,12,8,2,53,27,185,['n'],0,left,['9'],5,87,[-0.10756398],96,53,easy,minus,dotcolour,beta,,,67,19,V,R,
349,97,13,8,2,27,53,700,['c'],0,right,['9'],5,153,[0.04269037],36,53,easy,minus,dotcolour,beta,,,67,19,V,R,
350,98,14,8,2,33,47,300,['c'],0,right,['9'],5,176,[0.07448785],69,47,medium,minus,dotcolour,beta,,,67,19,V,R,
351,99,15,8,2,36,44,267,['n'],1,right,['9'],5,216,[-0.07028938],64,44,hard,minus,dotcolour,beta,,,67,19,V,R,
352,100,16,8,2,53,27,25,['n'],0,left,['9'],5,49,[-0.09091714],95,53,easy,minus,dotcolour,beta,,,67,19,V,R,
353,101,17,8,2,33,47,217,['n'],1,right,['9'],5,176,[-0.01637071],16,47,medium,minus,dotcolour,beta,,,67,19,V,R,
354,102,18,8,2,47,33,250,['c'],1,left,['9'],5,167,[0.13899835],98,47,medium,minus,dotcolour,beta,,,67,19,V,R,
355,103,19,8,2,44,36,1183,['c'],1,left,['9'],5,155,[0.08722952],81,44,hard,minus,dotcolour,beta,,,67,19,V,R,
356,104,20,8,2,33,47,266,['c'],0,right,['9'],5,11,[0.05850712],62,47,medium,minus,dotcolour,beta,,,67,19,V,R,
357,105,21,8,2,33,47,917,['c'],0,right,['9'],5,128,[0.08299399],80,47,medium,minus,dotcolour,beta,,,67,19,V,R,
358,106,22,8,2,36,44,234,['n'],1,right,['9'],5,170,[-0.07591299],71,44,hard,minus,dotcolour,beta,,,67,19,V,R,
359,107,23,8,2,36,44,250,['c'],0,right,['9'],5,122,[0.10280253],92,44,hard,minus,dotcolour,beta,,,67,19,V,R,
360,108,24,8,2,33,47,40,['n'],1,right,['9'],5,439,[-0.12156377],86,47,medium,minus,dotcolour,beta,,,67,19,V,R,
361,109,25,8,2,27,53,93,['c'],0,right,['9'],5,46,[0.05214537],43,53,easy,minus,dotcolour,beta,,,67,19,V,R,
362,110,26,8,2,53,27,143,['c'],1,left,['9'],5,78,[0.1083181],97,53,easy,minus,dotcolour,beta,,,67,19,V,R,
363,111,27,8,2,44,36,17,['n'],0,left,['9'],5,51,[-0.05139337],42,44,hard,minus,dotcolour,beta,,,67,19,V,R,
364,112,28,8,2,44,36,186,['n'],0,left,['9'],5,203,[-0.05616718],51,44,hard,minus,dotcolour,beta,,,67,19,V,R,
365,113,29,8,2,47,33,2515,['n'],0,left,['9'],5,1736,[0.18565038],4,47,medium,minus,dotcolour,beta,,,67,19,V,R,
366,114,30,8,2,53,27,499,['c'],1,left,['9'],5,271,[0.01698412],21,53,easy,minus,dotcolour,beta,,,67,19,V,R,
367,115,31,8,2,36,44,217,['c'],0,right,['9'],5,109,[0.06276033],60,44,hard,minus,dotcolour,beta,,,67,19,V,R,
368,116,32,8,2,44,36,267,['c'],1,left,['9'],5,207,[0.10632832],88,44,hard,minus,dotcolour,beta,,,67,19,V,R,
369,117,33,8,2,33,47,234,['c'],0,right,['9'],5,134,[0.05239694],46,47,medium,minus,dotcolour,beta,,,67,19,V,R,
370,118,34,8,2,36,44,217,['n'],1,right,['9'],5,226,[-0.09129335],79,44,hard,minus,dotcolour,beta,,,67,19,V,R,
371,119,35,8,2,53,27,267,['c'],1,left,['9'],5,95,[0.06141472],58,53,easy,minus,dotcolour,beta,,,67,19,V,R,
372,120,36,8,2,53,27,117,['c'],1,left,['9'],5,37,[0.06546557],72,53,easy,minus,dotcolour,beta,,,67,19,V,R,
373,121,37,8,2,27,53,234,['c'],0,right,['9'],5,67,[0.0675742],70,53,easy,minus,dotcolour,beta,,,67,19,V,R,
374,122,38,8,2,47,33,164,['c'],1,left,['9'],5,50,[0.03672227],18,47,medium,minus,dotcolour,beta,,,67,19,V,R,
375,123,39,8,2,27,53,90,['c'],0,right,['9'],5,42,[0.06766935],74,53,easy,minus,dotcolour,beta,,,67,19,V,R,
376,124,40,8,2,27,53,74,['c'],0,right,['9'],5,17,[0.07918456],96,53,easy,minus,dotcolour,beta,,,67,19,V,R,
377,125,41,8,2,27,53,26,['c'],0,right,['9'],5,401,[-0.0302465],8,53,easy,minus,dotcolour,beta,,,67,19,V,R,
378,0,0,9,3,36,44,800,['c'],0,right,['9'],5,93,[0.04474682],100,44,hard,plus,dotcolour,beta,,,67,19,V,R,
379,1,1,9,3,33,47,467,['c'],0,right,['9'],5,1296,[-0.00874795],68,47,medium,plus,dotcolour,beta,,,67,19,V,R,
380,2,2,9,3,33,47,267,['c'],0,right,['9'],5,138,[0.0840135],100,47,medium,plus,dotcolour,beta,,,67,19,V,R,
381,3,3,9,3,33,47,266,['c'],0,right,['9'],5,250,[0.08748585],99,47,medium,plus,dotcolour,beta,,,67,19,V,R,
382,4,4,9,3,27,53,234,['c'],0,right,['9'],5,201,[0.04330269],98,53,easy,plus,dotcolour,beta,,,67,19,V,R,
383,5,5,9,3,36,44,314,['c'],0,right,['9'],5,181,[0.01987732],96,44,hard,plus,dotcolour,beta,,,67,19,V,R,
384,6,6,9,3,27,53,17,['c'],0,right,['9'],5,23,[0.07793354],100,53,easy,plus,dotcolour,beta,,,67,19,V,R,
385,7,7,9,3,44,36,160,['c'],1,left,['9'],5,71,[0.01615108],99,44,hard,plus,dotcolour,beta,,,67,19,V,R,
386,8,8,9,3,36,44,217,['c'],0,right,['9'],5,93,[0.09414311],100,44,hard,plus,dotcolour,beta,,,67,19,V,R,
387,9,9,9,3,27,53,163,['c'],0,right,['9'],5,114,[0.06871259],100,53,easy,plus,dotcolour,beta,,,67,19,V,R,
388,10,10,9,3,33,47,216,['c'],0,right,['9'],5,166,[0.14148219],100,47,medium,plus,dotcolour,beta,,,67,19,V,R,
389,11,11,9,3,47,33,1667,['c'],1,left,['9'],5,286,[0.13732992],100,47,medium,plus,dotcolour,beta,,,67,19,V,R,
390,12,12,9,3,27,53,300,['c'],0,right,['9'],5,240,[0.00319265],90,53,easy,plus,dotcolour,beta,,,67,19,V,R,
391,13,13,9,3,27,53,248,['c'],0,right,['9'],5,221,[0.07553827],99,53,easy,plus,dotcolour,beta,,,67,19,V,R,
392,14,14,9,3,47,33,217,['c'],1,left,['9'],5,213,[0.09820612],100,47,medium,plus,dotcolour,beta,,,67,19,V,R,
393,15,15,9,3,47,33,281,['c'],1,left,['9'],5,171,[0.10100642],100,47,medium,plus,dotcolour,beta,,,67,19,V,R,
394,16,16,9,3,27,53,70,['c'],0,right,['9'],5,60,[0.0648457],100,53,easy,plus,dotcolour,beta,,,67,19,V,R,
395,17,17,9,3,53,27,234,['c'],1,left,['9'],5,186,[0.07436751],100,53,easy,plus,dotcolour,beta,,,67,19,V,R,
396,18,18,9,3,44,36,217,['c'],1,left,['9'],5,195,[0.13978916],100,44,hard,plus,dotcolour,beta,,,67,19,V,R,
397,19,19,9,3,44,36,667,['c'],1,left,['9'],5,154,[0.11981161],100,44,hard,plus,dotcolour,beta,,,67,19,V,R,
398,20,20,9,3,36,44,283,['c'],0,right,['9'],5,194,[0.078393],100,44,hard,plus,dotcolour,beta,,,67,19,V,R,
399,21,21,9,3,33,47,266,['c'],0,right,['9'],5,145,[0.01902216],97,47,medium,plus,dotcolour,beta,,,67,19,V,R,
400,22,22,9,3,44,36,283,['c'],1,left,['9'],5,177,[0.10881091],100,44,hard,plus,dotcolour,beta,,,67,19,V,R,
401,23,23,9,3,33,47,217,['c'],0,right,['9'],5,138,[0.03971888],99,47,medium,plus,dotcolour,beta,,,67,19,V,R,
402,24,24,9,3,44,36,415,['c'],1,left,['9'],5,357,[0.05910434],97,44,hard,plus,dotcolour,beta,,,67,19,V,R,
403,25,25,9,3,33,47,128,['c'],0,right,['9'],5,247,[0.10873336],100,47,medium,plus,dotcolour,beta,,,67,19,V,R,
404,26,26,9,3,53,27,151,['c'],1,left,['9'],5,255,[0.08551075],99,53,easy,plus,dotcolour,beta,,,67,19,V,R,
405,27,27,9,3,53,27,85,['c'],1,left,['9'],5,45,[0.07296532],100,53,easy,plus,dotcolour,beta,,,67,19,V,R,
406,28,28,9,3,53,27,749,['c'],1,left,['9'],5,111,[0.14018381],100,53,easy,plus,dotcolour,beta,,,67,19,V,R,
407,29,29,9,3,53,27,249,['c'],1,left,['9'],5,177,[0.14272445],100,53,easy,plus,dotcolour,beta,,,67,19,V,R,
408,30,30,9,3,27,53,108,['c'],0,right,['9'],5,491,[-0.05101193],53,53,easy,plus,dotcolour,beta,,,67,19,V,R,
409,31,31,9,3,47,33,282,['c'],1,left,['9'],5,173,[0.18588287],100,47,medium,plus,dotcolour,beta,,,67,19,V,R,
410,32,32,9,3,36,44,284,['c'],0,right,['9'],5,148,[0.05608434],99,44,hard,plus,dotcolour,beta,,,67,19,V,R,
411,33,33,9,3,47,33,217,['c'],1,left,['9'],5,310,[0.21917526],100,47,medium,plus,dotcolour,beta,,,67,19,V,R,
412,34,34,9,3,36,44,51,['c'],0,right,['9'],5,307,[0.09427354],99,44,hard,plus,dotcolour,beta,,,67,19,V,R,
413,35,35,9,3,47,33,25,['c'],1,left,['9'],5,336,[0.04691237],96,47,medium,plus,dotcolour,beta,,,67,19,V,R,
414,36,36,9,3,47,33,116,['c'],1,left,['9'],5,259,[0.15813861],100,47,medium,plus,dotcolour,beta,,,67,19,V,R,
415,37,37,9,3,53,27,1400,['c'],1,left,['9'],5,274,[0.04525102],97,53,easy,plus,dotcolour,beta,,,67,19,V,R,
416,38,38,9,3,53,27,284,['c'],1,left,['9'],5,253,[0.12684997],100,53,easy,plus,dotcolour,beta,,,67,19,V,R,
417,39,39,9,3,44,36,283,['c'],1,left,['9'],5,193,[0.16748424],100,44,hard,plus,dotcolour,beta,,,67,19,V,R,
418,40,40,9,3,44,36,234,['c'],1,left,['9'],5,128,[0.04797719],99,44,hard,plus,dotcolour,beta,,,67,19,V,R,
419,41,41,9,3,36,44,298,['c'],0,right,['9'],5,145,[0.07781664],100,44,hard,plus,dotcolour,beta,,,67,19,V,R,
420,42,0,10,3,53,27,334,['c'],1,left,['9'],5,166,[0.12077],100,53,easy,plus,dotcolour,beta,,,67,19,V,R,
421,43,1,10,3,44,36,170,['c'],1,left,['9'],5,105,[0.08240417],100,44,hard,plus,dotcolour,beta,,,67,19,V,R,
422,44,2,10,3,47,33,141,['c'],1,left,['9'],5,126,[0.10682235],100,47,medium,plus,dotcolour,beta,,,67,19,V,R,
423,45,3,10,3,33,47,168,['c'],0,right,['9'],5,138,[0.07125878],100,47,medium,plus,dotcolour,beta,,,67,19,V,R,
424,46,4,10,3,53,27,713,['c'],1,left,['8'],4,153,[0.07101239],100,53,easy,plus,dotcolour,beta,,,67,19,V,R,
425,47,5,10,3,27,53,45,['c'],0,right,['0'],6,28,[0.06531383],100,53,easy,plus,dotcolour,beta,,,67,19,V,R,
426,48,6,10,3,36,44,233,['c'],0,right,['0'],6,194,[0.03635736],98,44,hard,plus,dotcolour,beta,,,67,19,V,R,
427,49,7,10,3,27,53,150,['c'],0,right,['0'],6,116,[0.06089678],100,53,easy,plus,dotcolour,beta,,,67,19,V,R,
428,50,8,10,3,33,47,25,['c'],0,right,['0'],6,89,[0.07301884],100,47,medium,plus,dotcolour,beta,,,67,19,V,R,
429,51,9,10,3,44,36,88,['c'],1,left,['0'],6,54,[0.06136718],100,44,hard,plus,dotcolour,beta,,,67,19,V,R,
430,52,10,10,3,27,53,1050,['c'],0,right,['0'],6,219,[0.05471892],99,53,easy,plus,dotcolour,beta,,,67,19,V,R,
431,53,11,10,3,33,47,301,['c'],0,right,['0'],6,248,[0.05157117],98,47,medium,plus,dotcolour,beta,,,67,19,V,R,
432,54,12,10,3,27,53,17,['c'],0,right,['0'],6,55,[0.08157762],100,53,easy,plus,dotcolour,beta,,,67,19,V,R,
433,55,13,10,3,53,27,234,['c'],1,left,['0'],6,253,[0.03370969],96,53,easy,plus,dotcolour,beta,,,67,19,V,R,
434,56,14,10,3,27,53,250,['c'],0,right,['0'],6,234,[0.0034377],90,53,easy,plus,dotcolour,beta,,,67,19,V,R,
435,57,15,10,3,53,27,1401,['c'],1,left,['0'],6,226,[0.12071703],100,53,easy,plus,dotcolour,beta,,,67,19,V,R,
436,58,16,10,3,47,33,115,['c'],1,left,['0'],6,354,[0.07797353],98,47,medium,plus,dotcolour,beta,,,67,19,V,R,
437,59,17,10,3,47,33,283,['c'],1,left,['0'],6,193,[0.10634159],100,47,medium,plus,dotcolour,beta,,,67,19,V,R,
438,60,18,10,3,44,36,250,['c'],1,left,['0'],6,256,[0.07463396],99,44,hard,plus,dotcolour,beta,,,67,19,V,R,
439,61,19,10,3,36,44,86,['c'],0,right,['0'],6,335,[0.06204788],97,44,hard,plus,dotcolour,beta,,,67,19,V,R,
440,62,20,10,3,44,36,1450,['c'],1,left,['0'],6,208,[0.08252296],100,44,hard,plus,dotcolour,beta,,,67,19,V,R,
441,63,21,10,3,44,36,265,['c'],1,left,['0'],6,310,[0.05178699],97,44,hard,plus,dotcolour,beta,,,67,19,V,R,
442,64,22,10,3,47,33,125,['c'],1,left,['0'],6,235,[0.08209731],99,47,medium,plus,dotcolour,beta,,,67,19,V,R,
443,65,23,10,3,33,47,117,['c'],0,right,['0'],6,123,[0.05182811],100,47,medium,plus,dotcolour,beta,,,67,19,V,R,
444,66,24,10,3,36,44,97,['c'],0,right,['0'],6,168,[0.09569911],100,44,hard,plus,dotcolour,beta,,,67,19,V,R,
445,67,25,10,3,47,33,60,['c'],1,left,['0'],6,315,[0.15318131],100,47,medium,plus,dotcolour,beta,,,67,19,V,R,
446,68,26,10,3,27,53,184,['c'],0,right,['0'],6,199,[0.00085195],91,53,easy,plus,dotcolour,beta,,,67,19,V,R,
447,69,27,10,3,33,47,147,['c'],0,right,['0'],6,49,[0.06872077],100,47,medium,plus,dotcolour,beta,,,67,19,V,R,
448,70,28,10,3,27,53,234,['c'],0,right,['0'],6,94,[0.0711193],100,53,easy,plus,dotcolour,beta,,,67,19,V,R,
449,71,29,10,3,47,33,266,['c'],1,left,['0'],6,145,[0.07693892],100,47,medium,plus,dotcolour,beta,,,67,19,V,R,
450,72,30,10,3,36,44,267,['c'],0,right,['0'],6,74,[0.06247476],100,44,hard,plus,dotcolour,beta,,,67,19,V,R,
451,73,31,10,3,47,33,233,['c'],1,left,['0'],6,78,[0.05663836],100,47,medium,plus,dotcolour,beta,,,67,19,V,R,
452,74,32,10,3,36,44,249,['c'],0,right,['0'],6,106,[0.11944526],100,44,hard,plus,dotcolour,beta,,,67,19,V,R,
453,75,33,10,3,53,27,121,['c'],1,left,['0'],6,48,[0.049879],100,53,easy,plus,dotcolour,beta,,,67,19,V,R,
454,76,34,10,3,33,47,231,['c'],0,right,['0'],6,126,[0.03471176],99,47,medium,plus,dotcolour,beta,,,67,19,V,R,
455,77,35,10,3,36,44,161,['c'],0,right,['0'],6,58,[0.08687576],100,44,hard,plus,dotcolour,beta,,,67,19,V,R,
456,78,36,10,3,33,47,266,['c'],0,right,['0'],6,70,[0.07627957],100,47,medium,plus,dotcolour,beta,,,67,19,V,R,
457,79,37,10,3,36,44,484,['c'],0,right,['0'],6,688,[-0.01529726],71,44,hard,plus,dotcolour,beta,,,67,19,V,R,
458,80,38,10,3,44,36,250,['c'],1,left,['0'],6,196,[0.04656195],98,44,hard,plus,dotcolour,beta,,,67,19,V,R,
459,81,39,10,3,44,36,217,['c'],1,left,['0'],6,141,[0.06584004],100,44,hard,plus,dotcolour,beta,,,67,19,V,R,
460,82,40,10,3,53,27,19,['c'],1,left,['0'],6,320,[0.07375928],98,53,easy,plus,dotcolour,beta,,,67,19,V,R,
461,83,41,10,3,53,27,217,['c'],1,left,['0'],6,156,[0.03442886],98,53,easy,plus,dotcolour,beta,,,67,19,V,R,
462,84,0,11,3,44,36,633,['c'],1,left,['0'],6,172,[0.03127379],98,44,hard,plus,dotcolour,beta,,,67,19,V,R,
463,85,1,11,3,36,44,166,['c'],0,right,['0'],6,94,[0.05163892],100,44,hard,plus,dotcolour,beta,,,67,19,V,R,
464,86,2,11,3,33,47,334,['c'],0,right,['0'],6,174,[0.08850598],100,47,medium,plus,dotcolour,beta,,,67,19,V,R,
465,87,3,11,3,33,47,159,['c'],0,right,['0'],6,192,[0.08964203],100,47,medium,plus,dotcolour,beta,,,67,19,V,R,
466,88,4,11,3,36,44,251,['c'],0,right,['0'],6,176,[-0.00696587],89,44,hard,plus,dotcolour,beta,,,67,19,V,R,
467,89,5,11,3,53,27,217,['c'],1,left,['0'],6,353,[0.09721669],99,53,easy,plus,dotcolour,beta,,,67,19,V,R,
468,90,6,11,3,33,47,217,['c'],0,right,['0'],6,172,[0.05406702],99,47,medium,plus,dotcolour,beta,,,67,19,V,R,
469,91,7,11,3,27,53,183,['c'],0,right,['0'],6,174,[0.01212578],95,53,easy,plus,dotcolour,beta,,,67,19,V,R,
470,92,8,11,3,44,36,263,['c'],1,left,['0'],6,189,[0.01376315],95,44,hard,plus,dotcolour,beta,,,67,19,V,R,
471,93,9,11,3,36,44,398,['c'],0,right,['0'],6,736,[0.02347262],84,44,hard,plus,dotcolour,beta,,,67,19,V,R,
472,94,10,11,3,53,27,283,['c'],1,left,['0'],6,152,[0.0624979],100,53,easy,plus,dotcolour,beta,,,67,19,V,R,
473,95,11,11,3,47,33,333,['c'],1,left,['0'],6,342,[0.1110688],99,47,medium,plus,dotcolour,beta,,,67,19,V,R,
474,96,12,11,3,53,27,300,['c'],1,left,['0'],6,230,[0.12925756],100,53,easy,plus,dotcolour,beta,,,67,19,V,R,
475,97,13,11,3,47,33,266,['c'],1,left,['0'],6,123,[0.09888345],100,47,medium,plus,dotcolour,beta,,,67,19,V,R,
476,98,14,11,3,47,33,332,['c'],1,left,['0'],6,194,[0.06202476],99,47,medium,plus,dotcolour,beta,,,67,19,V,R,
477,99,15,11,3,27,53,179,['c'],0,right,['0'],6,332,[0.04972085],96,53,easy,plus,dotcolour,beta,,,67,19,V,R,
478,100,16,11,3,33,47,783,['c'],0,right,['0'],6,192,[0.01222545],94,47,medium,plus,dotcolour,beta,,,67,19,V,R,
479,101,17,11,3,53,27,115,['c'],1,left,['0'],6,282,[0.21385646],100,53,easy,plus,dotcolour,beta,,,67,19,V,R,
480,102,18,11,3,36,44,120,['c'],0,right,['0'],6,128,[0.11395334],100,44,hard,plus,dotcolour,beta,,,67,19,V,R,
481,103,19,11,3,53,27,1333,['c'],1,left,['0'],6,158,[0.16453888],100,53,easy,plus,dotcolour,beta,,,67,19,V,R,
482,104,20,11,3,36,44,317,['c'],0,right,['0'],6,84,[0.01933082],99,44,hard,plus,dotcolour,beta,,,67,19,V,R,
483,105,21,11,3,27,53,284,['c'],0,right,['0'],6,559,[0.09978642],98,53,easy,plus,dotcolour,beta,,,67,19,V,R,
484,106,22,11,3,47,33,161,['c'],1,left,['0'],6,10,[0.06434776],100,47,medium,plus,dotcolour,beta,,,67,19,V,R,
485,107,23,11,3,27,53,1400,['c'],0,right,['0'],6,154,[0.11228782],100,53,easy,plus,dotcolour,beta,,,67,19,V,R,
486,108,24,11,3,53,27,63,['c'],1,left,['0'],6,21,[0.05065397],100,53,easy,plus,dotcolour,beta,,,67,19,V,R,
487,109,25,11,3,27,53,216,['c'],0,right,['0'],6,125,[0.04296601],99,53,easy,plus,dotcolour,beta,,,67,19,V,R,
488,110,26,11,3,44,36,49,['c'],1,left,['0'],6,8,[0.07621638],100,44,hard,plus,dotcolour,beta,,,67,19,V,R,
489,111,27,11,3,44,36,99,['c'],1,left,['0'],6,98,[0.05975732],100,44,hard,plus,dotcolour,beta,,,67,19,V,R,
490,112,28,11,3,33,47,160,['c'],0,right,['0'],6,103,[0.10005111],100,47,medium,plus,dotcolour,beta,,,67,19,V,R,
491,113,29,11,3,47,33,216,['c'],1,left,['0'],6,220,[0.08407671],100,47,medium,plus,dotcolour,beta,,,67,19,V,R,
492,114,30,11,3,47,33,86,['c'],1,left,['9'],5,164,[0.09739087],100,47,medium,plus,dotcolour,beta,,,67,19,V,R,
493,115,31,11,3,44,36,817,['c'],1,left,['9'],5,222,[0.05638967],99,44,hard,plus,dotcolour,beta,,,67,19,V,R,
494,116,32,11,3,44,36,119,['c'],1,left,['9'],5,342,[0.17993412],100,44,hard,plus,dotcolour,beta,,,67,19,V,R,
495,117,33,11,3,44,36,3299,['c'],1,left,['9'],5,142,[0.09264545],100,44,hard,plus,dotcolour,beta,,,67,19,V,R,
496,118,34,11,3,47,33,300,['c'],1,left,['9'],5,237,[0.03639133],97,47,medium,plus,dotcolour,beta,,,67,19,V,R,
497,119,35,11,3,33,47,234,['c'],0,right,['9'],5,227,[0.04812803],98,47,medium,plus,dotcolour,beta,,,67,19,V,R,
498,120,36,11,3,36,44,266,['c'],0,right,['9'],5,352,[0.16591038],100,44,hard,plus,dotcolour,beta,,,67,19,V,R,
499,121,37,11,3,27,53,700,['c'],0,right,['9'],5,136,[0.05537102],100,53,easy,plus,dotcolour,beta,,,67,19,V,R,
500,122,38,11,3,53,27,157,['c'],1,left,['9'],5,299,[0.13366857],100,53,easy,plus,dotcolour,beta,,,67,19,V,R,
501,123,39,11,3,33,47,177,['c'],0,right,['9'],5,80,[0.11830518],100,47,medium,plus,dotcolour,beta,,,67,19,V,R,
502,124,40,11,3,27,53,250,['c'],0,right,['9'],5,164,[-0.00348512],91,53,easy,plus,dotcolour,beta,,,67,19,V,R,
503,125,41,11,3,36,44,198,['c'],0,right,['9'],5,143,[0.09149987],100,44,hard,plus,dotcolour,beta,,,67,19,V,R,
504,0,0,12,4,47,33,267,['c'],1,left,['9'],5,113,[0.07834824],77,47,medium,minus,dotcolour,beta,,,67,19,V,R,
505,1,1,12,4,33,47,46,['c'],0,right,['9'],5,6,[0.06151125],80,47,medium,minus,dotcolour,beta,,,67,19,V,R,
506,2,2,12,4,36,44,283,['c'],0,right,['9'],5,1971,[0.17330243],82,44,hard,minus,dotcolour,beta,,,67,19,V,R,
507,3,3,12,4,27,53,183,['c'],0,right,['9'],5,158,[0.03802162],31,53,easy,minus,dotcolour,beta,,,67,19,V,R,
508,4,4,12,4,36,44,217,['c'],0,right,['9'],5,215,[0.006753],13,44,hard,minus,dotcolour,beta,,,67,19,V,R,
509,5,5,12,4,47,33,582,['c'],1,left,['9'],5,249,[0.19473464],99,47,medium,minus,dotcolour,beta,,,67,19,V,R,
510,6,6,12,4,44,36,300,['c'],1,left,['9'],5,172,[0.14563944],98,44,hard,minus,dotcolour,beta,,,67,19,V,R,
511,7,7,12,4,33,47,95,['c'],0,right,['9'],5,70,[0.05399185],47,47,medium,minus,dotcolour,beta,,,67,19,V,R,
512,8,8,12,4,47,33,174,['c'],1,left,['9'],5,556,[0.18019295],95,47,medium,minus,dotcolour,beta,,,67,19,V,R,
513,9,9,12,4,44,36,250,['c'],1,left,['9'],5,413,[0.07219293],61,44,hard,minus,dotcolour,beta,,,67,19,V,R,
514,10,10,12,4,27,53,266,['c'],0,right,['9'],5,1203,[-0.26715555],0,53,easy,minus,dotcolour,beta,,,67,19,V,R,
515,11,11,12,4,27,53,17,['c'],0,right,['9'],5,84,[0.04185351],30,53,easy,minus,dotcolour,beta,,,67,19,V,R,
516,12,12,12,4,36,44,84,['c'],0,right,['9'],5,113,[0.07717416],76,44,hard,minus,dotcolour,beta,,,67,19,V,R,
517,13,13,12,4,33,47,1117,['c'],0,right,['9'],5,290,[0.0133551],20,47,medium,minus,dotcolour,beta,,,67,19,V,R,
518,14,14,12,4,27,53,484,['n'],1,right,['9'],5,372,[-0.0814616],68,53,easy,minus,dotcolour,beta,,,67,19,V,R,
519,15,15,12,4,53,27,800,['n'],0,left,['9'],5,446,[-0.0881942],71,53,easy,minus,dotcolour,beta,,,67,19,V,R,
520,16,16,12,4,47,33,282,['n'],0,left,['9'],5,217,[-0.00091665],11,47,medium,minus,dotcolour,beta,,,67,19,V,R,
521,17,17,12,4,53,27,233,['n'],0,left,['9'],5,185,[-0.01830752],17,53,easy,minus,dotcolour,beta,,,67,19,V,R,
522,18,18,12,4,47,33,284,['c'],1,left,['8'],4,152,[0.09712809],87,47,medium,minus,dotcolour,beta,,,67,19,V,R,
523,19,19,12,4,27,53,1067,['n'],1,right,['8'],4,287,[-0.19122158],99,53,easy,minus,dotcolour,beta,,,67,19,V,R,
524,20,20,12,4,53,27,17,['n'],0,left,['8'],4,14,[-0.10634858],100,53,easy,minus,dotcolour,beta,,,67,19,V,R,
525,21,21,12,4,27,53,713,['n'],1,right,['8'],4,361,[-0.23593181],100,53,easy,minus,dotcolour,beta,,,67,19,V,R,
526,22,22,12,4,33,47,233,['n'],1,right,['8'],4,195,[-0.06950309],64,47,medium,minus,dotcolour,beta,,,67,19,V,R,
527,23,23,12,4,53,27,51,['n'],0,left,['8'],4,357,[-0.06389302],56,53,easy,minus,dotcolour,beta,,,67,19,V,R,
528,24,24,12,4,47,33,333,['n'],0,left,['8'],4,490,[0.01736978],13,47,medium,minus,dotcolour,beta,,,67,19,V,R,
529,25,25,12,4,44,36,48,['n'],0,left,['8'],4,423,[0.00610008],15,44,hard,minus,dotcolour,beta,,,67,19,V,R,
530,26,26,12,4,36,44,233,['c'],0,right,['9'],5,134,[0.07494605],72,44,hard,minus,dotcolour,beta,,,67,19,V,R,
531,27,27,12,4,53,27,162,['c'],1,left,['9'],5,169,[0.13444102],97,53,easy,minus,dotcolour,beta,,,67,19,V,R,
532,28,28,12,4,36,44,933,['c'],0,right,['9'],5,223,[-0.00241844],10,44,hard,minus,dotcolour,beta,,,67,19,V,R,
533,29,29,12,4,53,27,384,['c'],1,left,['9'],5,176,[0.10023825],87,53,easy,minus,dotcolour,beta,,,67,19,V,R,
534,30,30,12,4,36,44,232,['c'],0,right,['9'],5,216,[0.0687612],63,44,hard,minus,dotcolour,beta,,,67,19,V,R,
535,31,31,12,4,53,27,317,['c'],1,left,['9'],5,220,[0.17124479],99,53,easy,minus,dotcolour,beta,,,67,19,V,R,
536,32,32,12,4,33,47,233,['c'],0,right,['9'],5,147,[0.14059779],98,47,medium,minus,dotcolour,beta,,,67,19,V,R,
537,33,33,12,4,44,36,177,['c'],1,left,['9'],5,111,[0.09249734],88,44,hard,minus,dotcolour,beta,,,67,19,V,R,
538,34,34,12,4,33,47,92,['c'],0,right,['9'],5,75,[0.02717246],13,47,medium,minus,dotcolour,beta,,,67,19,V,R,
539,35,35,12,4,44,36,717,['c'],1,left,['8'],4,357,[0.11930923],87,44,hard,minus,dotcolour,beta,,,67,19,V,R,
540,36,36,12,4,44,36,250,['c'],1,left,['8'],4,189,[0.14234581],97,44,hard,minus,dotcolour,beta,,,67,19,V,R,
541,37,37,12,4,36,44,917,['c'],0,right,['8'],4,155,[0.03497989],28,44,hard,minus,dotcolour,beta,,,67,19,V,R,
542,38,38,12,4,27,53,466,['c'],0,right,['9'],5,35,[0.06052254],62,53,easy,minus,dotcolour,beta,,,67,19,V,R,
543,39,39,12,4,47,33,450,['c'],1,left,['9'],5,585,[0.1069343],77,47,medium,minus,dotcolour,beta,,,67,19,V,R,
544,40,40,12,4,33,47,1131,['c'],0,right,['9'],5,213,[0.03043106],27,47,medium,minus,dotcolour,beta,,,67,19,V,R,
545,41,41,12,4,44,36,317,['c'],1,left,['9'],5,185,[0.06549435],60,44,hard,minus,dotcolour,beta,,,67,19,V,R,
546,42,0,13,4,33,47,266,['c'],0,right,['9'],5,191,[0.06722496],62,47,medium,minus,dotcolour,beta,,,67,19,V,R,
547,43,1,13,4,36,44,251,['c'],0,right,['9'],5,6,[0.07161539],98,44,hard,minus,dotcolour,beta,,,67,19,V,R,
548,44,2,13,4,47,33,366,['c'],1,left,['9'],5,344,[0.21761026],99,47,medium,minus,dotcolour,beta,,,67,19,V,R,
549,45,3,13,4,44,36,333,['c'],1,left,['9'],5,110,[0.08605799],84,44,hard,minus,dotcolour,beta,,,67,19,V,R,
550,46,4,13,4,47,33,124,['c'],1,left,['9'],5,379,[0.15984378],95,47,medium,minus,dotcolour,beta,,,67,19,V,R,
551,47,5,13,4,33,47,1450,['c'],0,right,['9'],5,203,[0.02802381],25,47,medium,minus,dotcolour,beta,,,67,19,V,R,
552,48,6,13,4,47,33,250,['c'],1,left,['9'],5,98,[0.08941735],88,47,medium,minus,dotcolour,beta,,,67,19,V,R,
553,49,7,13,4,36,44,152,['c'],0,right,['9'],5,111,[0.03078823],21,44,hard,minus,dotcolour,beta,,,67,19,V,R,
554,50,8,13,4,44,36,266,['c'],1,left,['9'],5,497,[0.16776356],95,44,hard,minus,dotcolour,beta,,,67,19,V,R,
555,51,9,13,4,36,44,217,['c'],0,right,['9'],5,102,[0.07773494],78,44,hard,minus,dotcolour,beta,,,67,19,V,R,
556,52,10,13,4,27,53,216,['c'],0,right,['9'],5,147,[-0.00113171],7,53,easy,minus,dotcolour,beta,,,67,19,V,R,
557,53,11,13,4,44,36,450,['c'],1,left,['9'],5,300,[0.03304723],32,44,hard,minus,dotcolour,beta,,,67,19,V,R,
558,54,12,13,4,36,44,136,['c'],0,right,['9'],5,233,[0.03608654],33,44,hard,minus,dotcolour,beta,,,67,19,V,R,
559,55,13,13,4,27,53,749,['c'],0,right,['0'],6,139,[-6.99152203e-05],6,53,easy,minus,dotcolour,beta,,,67,19,V,R,
560,56,14,13,4,36,44,484,['n'],1,right,['9'],5,371,[-0.18578658],98,44,hard,minus,dotcolour,beta,,,67,19,V,R,
561,57,15,13,4,44,36,250,['n'],0,left,['9'],5,172,[-0.12110141],95,44,hard,minus,dotcolour,beta,,,67,19,V,R,
562,58,16,13,4,33,47,182,['n'],1,right,['9'],5,206,[-0.12994563],95,47,medium,minus,dotcolour,beta,,,67,19,V,R,
563,59,17,13,4,53,27,251,['n'],0,left,['9'],5,197,[-0.12666448],95,53,easy,minus,dotcolour,beta,,,67,19,V,R,
564,60,18,13,4,53,27,80,['n'],0,left,['9'],5,286,[-0.059334],53,53,easy,minus,dotcolour,beta,,,67,19,V,R,
565,61,19,13,4,53,27,17,['n'],0,left,['9'],5,276,[-0.12060651],90,53,easy,minus,dotcolour,beta,,,67,19,V,R,
566,62,20,13,4,47,33,214,['n'],0,left,['9'],5,265,[-0.10996956],87,47,medium,minus,dotcolour,beta,,,67,19,V,R,
567,63,21,13,4,27,53,233,['n'],1,right,['9'],5,223,[-0.16639328],99,53,easy,minus,dotcolour,beta,,,67,19,V,R,
568,64,22,13,4,47,33,350,['n'],0,left,['9'],5,161,[-0.06534368],61,47,medium,minus,dotcolour,beta,,,67,19,V,R,
569,65,23,13,4,47,33,267,['n'],0,left,['9'],5,169,[-0.01542738],15,47,medium,minus,dotcolour,beta,,,67,19,V,R,
570,66,24,13,4,44,36,250,['n'],0,left,['9'],5,178,[-0.11582462],93,44,hard,minus,dotcolour,beta,,,67,19,V,R,
571,67,25,13,4,53,27,26,['n'],0,left,['9'],5,52,[-0.04340196],28,53,easy,minus,dotcolour,beta,,,67,19,V,R,
572,68,26,13,4,53,27,164,['n'],0,left,['9'],5,187,[-0.05467732],49,53,easy,minus,dotcolour,beta,,,67,19,V,R,
573,69,27,13,4,36,44,284,['n'],1,right,['9'],5,153,[-0.09207712],84,44,hard,minus,dotcolour,beta,,,67,19,V,R,
574,70,28,13,4,53,27,483,['n'],0,left,['9'],5,281,[-0.10029015],82,53,easy,minus,dotcolour,beta,,,67,19,V,R,
575,71,29,13,4,27,53,383,['n'],1,right,['9'],5,656,[-0.21463163],97,53,easy,minus,dotcolour,beta,,,67,19,V,R,
576,72,30,13,4,27,53,417,['n'],1,right,['9'],5,382,[-0.11612463],85,53,easy,minus,dotcolour,beta,,,67,19,V,R,
577,73,31,13,4,36,44,317,['n'],1,right,['9'],5,155,[-0.04988575],44,44,hard,minus,dotcolour,beta,,,67,19,V,R,
578,74,32,13,4,44,36,600,['n'],0,left,['9'],5,310,[-0.04549203],42,44,hard,minus,dotcolour,beta,,,67,19,V,R,
579,75,33,13,4,33,47,334,['n'],1,right,['9'],5,190,[-0.09219544],82,47,medium,minus,dotcolour,beta,,,67,19,V,R,
580,76,34,13,4,33,47,1833,['n'],1,right,['9'],5,269,[-0.08408287],73,47,medium,minus,dotcolour,beta,,,67,19,V,R,
581,77,35,13,4,44,36,317,['n'],0,left,['9'],5,183,[-0.05285574],47,44,hard,minus,dotcolour,beta,,,67,19,V,R,
582,78,36,13,4,47,33,104,['n'],0,left,['9'],5,304,[0.01524289],9,47,medium,minus,dotcolour,beta,,,67,19,V,R,
583,79,37,13,4,53,27,1366,['n'],0,left,['9'],5,208,[-0.07077016],65,53,easy,minus,dotcolour,beta,,,67,19,V,R,
584,80,38,13,4,27,53,1283,['n'],1,right,['9'],5,189,[-0.10086652],87,53,easy,minus,dotcolour,beta,,,67,19,V,R,
585,81,39,13,4,27,53,316,['n'],1,right,['9'],5,153,[-0.08622912],80,53,easy,minus,dotcolour,beta,,,67,19,V,R,
586,82,40,13,4,33,47,365,['n'],1,right,['9'],5,166,[-0.02627214],22,47,medium,minus,dotcolour,beta,,,67,19,V,R,
587,83,41,13,4,33,47,450,['n'],1,right,['9'],5,247,[-0.02366706],24,47,medium,minus,dotcolour,beta,,,67,19,V,R,
588,84,0,14,4,53,27,251,['n'],0,left,['9'],5,138,[-0.00893767],9,53,easy,minus,dotcolour,beta,,,67,19,V,R,
589,85,1,14,4,36,44,300,['c'],0,right,['9'],5,145,[-0.00847455],5,44,hard,minus,dotcolour,beta,,,67,19,V,R,
590,86,2,14,4,36,44,684,['n'],1,right,['9'],5,169,[-0.05080149],45,44,hard,minus,dotcolour,beta,,,67,19,V,R,
591,87,3,14,4,47,33,1147,['n'],0,left,['8'],4,214,[-0.05695414],51,47,medium,minus,dotcolour,beta,,,67,19,V,R,
592,88,4,14,4,33,47,267,['n'],1,right,['8'],4,212,[-0.12085205],93,47,medium,minus,dotcolour,beta,,,67,19,V,R,
593,89,5,14,4,47,33,217,['n'],0,left,['8'],4,180,[-0.02386135],21,47,medium,minus,dotcolour,beta,,,67,19,V,R,
594,90,6,14,4,44,36,168,['n'],0,left,['8'],4,142,[-0.02449702],18,44,hard,minus,dotcolour,beta,,,67,19,V,R,
595,91,7,14,4,33,47,234,['n'],1,right,['8'],4,176,[-0.13484579],97,47,medium,minus,dotcolour,beta,,,67,19,V,R,
596,92,8,14,4,36,44,266,['n'],1,right,['8'],4,143,[-0.11191086],94,44,hard,minus,dotcolour,beta,,,67,19,V,R,
597,93,9,14,4,36,44,217,['n'],1,right,['8'],4,138,[-0.04188675],34,44,hard,minus,dotcolour,beta,,,67,19,V,R,
598,94,10,14,4,44,36,432,['n'],0,left,['8'],4,101,[-0.08640659],85,44,hard,minus,dotcolour,beta,,,67,19,V,R,
599,95,11,14,4,27,53,282,['n'],1,right,['8'],4,222,[-0.11681287],91,53,easy,minus,dotcolour,beta,,,67,19,V,R,
600,96,12,14,4,47,33,483,['n'],0,left,['8'],4,116,[-0.10516035],93,47,medium,minus,dotcolour,beta,,,67,19,V,R,
601,97,13,14,4,27,53,317,['n'],1,right,['8'],4,100,[-0.02380302],14,53,easy,minus,dotcolour,beta,,,67,19,V,R,
602,98,14,14,4,44,36,284,['n'],0,left,['8'],4,142,[-0.03923642],31,44,hard,minus,dotcolour,beta,,,67,19,V,R,
603,99,15,14,4,53,27,300,['n'],0,left,['8'],4,165,[-0.04863882],42,53,easy,minus,dotcolour,beta,,,67,19,V,R,
604,100,16,14,4,53,27,65,['n'],0,left,['9'],5,32,[-0.03648466],13,53,easy,minus,dotcolour,beta,,,67,19,V,R,
605,101,17,14,4,44,36,121,['c'],1,left,['3'],3,368,[0.07058548],61,44,hard,minus,dotcolour,beta,,,67,19,V,R,
606,102,18,14,4,33,47,249,['c'],0,right,['3'],3,192,[0.07263589],67,47,medium,minus,dotcolour,beta,,,67,19,V,R,
607,103,19,14,4,53,27,217,['c'],1,left,['3'],3,152,[0.05787253],53,53,easy,minus,dotcolour,beta,,,67,19,V,R,
608,104,20,14,4,47,33,28,['c'],1,left,['3'],3,612,[0.10338707],75,47,medium,minus,dotcolour,beta,,,67,19,V,R,
609,105,21,14,4,27,53,316,['c'],0,right,['3'],3,128,[0.07542764],73,53,easy,minus,dotcolour,beta,,,67,19,V,R,
610,106,22,14,4,44,36,233,['c'],1,left,['3'],3,131,[0.04744186],40,44,hard,minus,dotcolour,beta,,,67,19,V,R,
611,107,23,14,4,53,27,217,['c'],1,left,['3'],3,230,[0.19271971],99,53,easy,minus,dotcolour,beta,,,67,19,V,R,
612,108,24,14,4,53,27,217,['n'],0,left,['8'],4,245,[-0.16670862],98,53,easy,minus,dotcolour,beta,,,67,19,V,R,
613,109,25,14,4,44,36,283,['c'],1,left,['3'],3,225,[0.09755993],83,44,hard,minus,dotcolour,beta,,,67,19,V,R,
614,110,26,14,4,27,53,266,['n'],1,right,['8'],4,191,[-0.08698788],78,53,easy,minus,dotcolour,beta,,,67,19,V,R,
615,111,27,14,4,47,33,434,['n'],0,left,['8'],4,1071,[0.06246841],11,47,medium,minus,dotcolour,beta,,,67,19,V,R,
616,112,28,14,4,27,53,916,['n'],1,right,['8'],4,1704,[-0.26343584],95,53,easy,minus,dotcolour,beta,,,67,19,V,R,
617,113,29,14,4,47,33,333,['n'],0,left,['9'],5,807,[0.03643388],14,47,medium,minus,dotcolour,beta,,,67,19,V,R,
618,114,30,14,4,47,33,334,['n'],0,left,['9'],5,107,[-0.08702357],85,47,medium,minus,dotcolour,beta,,,67,19,V,R,
619,115,31,14,4,33,47,136,['n'],1,right,['9'],5,23,[-0.06580295],77,47,medium,minus,dotcolour,beta,,,67,19,V,R,
620,116,32,14,4,33,47,233,['c'],0,right,['3'],3,166,[0.12606316],96,47,medium,minus,dotcolour,beta,,,67,19,V,R,
621,117,33,14,4,33,47,350,['c'],0,right,['3'],3,163,[0.07025516],66,47,medium,minus,dotcolour,beta,,,67,19,V,R,
622,118,34,14,4,53,27,1367,['c'],1,left,['3'],3,159,[0.07617258],72,53,easy,minus,dotcolour,beta,,,67,19,V,R,
623,119,35,14,4,27,53,450,['n'],1,right,['9'],5,279,[-0.0836835],72,53,easy,minus,dotcolour,beta,,,67,19,V,R,
624,120,36,14,4,44,36,934,['c'],1,left,['3'],3,216,[0.12419063],93,44,hard,minus,dotcolour,beta,,,67,19,V,R,
625,121,37,14,4,33,47,816,['n'],1,right,['9'],5,1080,[-0.26955789],98,47,medium,minus,dotcolour,beta,,,67,19,V,R,
626,122,38,14,4,36,44,317,['n'],1,right,['9'],5,1105,[-0.12358023],76,44,hard,minus,dotcolour,beta,,,67,19,V,R,
627,123,39,14,4,27,53,283,['c'],0,right,['3'],3,194,[0.05560018],50,53,easy,minus,dotcolour,beta,,,67,19,V,R,
628,124,40,14,4,36,44,1549,['n'],1,right,['9'],5,262,[-0.20773285],100,44,hard,minus,dotcolour,beta,,,67,19,V,R,
629,125,41,14,4,36,44,298,['n'],1,right,['9'],5,233,[-0.15724949],98,44,hard,minus,dotcolour,beta,,,67,19,V,R,
630,0,0,15,5,44,36,334,['n'],0,left,['9'],5,198,[-0.14547707],100,44,hard,plus,dotcolour,beta,,,67,19,V,R,
631,1,1,15,5,33,47,301,['n'],1,right,['9'],5,156,[-0.08843497],100,47,medium,plus,dotcolour,beta,,,67,19,V,R,
632,2,2,15,5,27,53,137,['n'],1,right,['9'],5,159,[-0.00965631],95,53,easy,plus,dotcolour,beta,,,67,19,V,R,
633,3,3,15,5,53,27,282,['n'],0,left,['9'],5,278,[-0.07300866],99,53,easy,plus,dotcolour,beta,,,67,19,V,R,
634,4,4,15,5,47,33,266,['n'],0,left,['9'],5,170,[-0.07252987],100,47,medium,plus,dotcolour,beta,,,67,19,V,R,
635,5,5,15,5,44,36,157,['c'],1,left,['3'],3,300,[0.04723305],97,44,hard,plus,dotcolour,beta,,,67,19,V,R,
636,6,6,15,5,33,47,249,['n'],1,right,['9'],5,159,[-0.08086019],100,47,medium,plus,dotcolour,beta,,,67,19,V,R,
637,7,7,15,5,44,36,317,['n'],0,left,['9'],5,181,[-0.09006445],100,44,hard,plus,dotcolour,beta,,,67,19,V,R,
638,8,8,15,5,53,27,161,['n'],0,left,['9'],5,95,[-0.05728772],100,53,easy,plus,dotcolour,beta,,,67,19,V,R,
639,9,9,15,5,33,47,234,['n'],1,right,['9'],5,67,[-0.05487344],100,47,medium,plus,dotcolour,beta,,,67,19,V,R,
640,10,10,15,5,27,53,82,['n'],1,right,['9'],5,362,[-0.17187202],100,53,easy,plus,dotcolour,beta,,,67,19,V,R,
641,11,11,15,5,44,36,85,['n'],0,left,['9'],5,373,[-0.13300461],100,44,hard,plus,dotcolour,beta,,,67,19,V,R,
642,12,12,15,5,27,53,233,['c'],0,right,['3'],3,173,[0.05649238],99,53,easy,plus,dotcolour,beta,,,67,19,V,R,
643,13,13,15,5,47,33,96,['n'],0,left,['9'],5,96,[-0.05926898],100,47,medium,plus,dotcolour,beta,,,67,19,V,R,
644,14,14,15,5,33,47,53,['c'],0,right,['3'],3,29,[0.05828631],100,47,medium,plus,dotcolour,beta,,,67,19,V,R,
645,15,15,15,5,36,44,93,['n'],1,right,['9'],5,269,[-0.06261842],98,44,hard,plus,dotcolour,beta,,,67,19,V,R,
646,16,16,15,5,36,44,483,['n'],1,right,['9'],5,241,[-0.16812505],100,44,hard,plus,dotcolour,beta,,,67,19,V,R,
647,17,17,15,5,47,33,667,['n'],0,left,['9'],5,341,[-0.13547107],100,47,medium,plus,dotcolour,beta,,,67,19,V,R,
648,18,18,15,5,36,44,233,['c'],0,right,['9'],5,159,[0.03824355],99,44,hard,plus,dotcolour,beta,,,67,19,V,R,
649,19,19,15,5,36,44,268,['c'],0,right,['9'],5,167,[0.09473884],100,44,hard,plus,dotcolour,beta,,,67,19,V,R,
650,20,20,15,5,27,53,266,['c'],0,right,['9'],5,111,[0.07375482],100,53,easy,plus,dotcolour,beta,,,67,19,V,R,
651,21,21,15,5,53,27,157,['c'],1,left,['9'],5,100,[0.04607491],100,53,easy,plus,dotcolour,beta,,,67,19,V,R,
652,22,22,15,5,53,27,349,['c'],1,left,['9'],5,507,[0.17851443],100,53,easy,plus,dotcolour,beta,,,67,19,V,R,
653,23,23,15,5,27,53,314,['c'],0,right,['9'],5,91,[0.04856275],100,53,easy,plus,dotcolour,beta,,,67,19,V,R,
654,24,24,15,5,36,44,267,['c'],0,right,['9'],5,174,[0.08760967],100,44,hard,plus,dotcolour,beta,,,67,19,V,R,
655,25,25,15,5,47,33,350,['c'],1,left,['9'],5,267,[0.20186213],100,47,medium,plus,dotcolour,beta,,,67,19,V,R,
656,26,26,15,5,36,44,266,['c'],0,right,['9'],5,207,[0.0516129],99,44,hard,plus,dotcolour,beta,,,67,19,V,R,
657,27,27,15,5,33,47,129,['c'],0,right,['9'],5,63,[0.00980651],99,47,medium,plus,dotcolour,beta,,,67,19,V,R,
658,28,28,15,5,27,53,649,['c'],0,right,['9'],5,164,[-0.10468418],10,53,easy,plus,dotcolour,beta,,,67,19,V,R,
659,29,29,15,5,47,33,797,['c'],1,left,['9'],5,118,[0.12440028],100,47,medium,plus,dotcolour,beta,,,67,19,V,R,
660,30,30,15,5,44,36,115,['c'],1,left,['9'],5,67,[0.06891038],100,44,hard,plus,dotcolour,beta,,,67,19,V,R,
661,31,31,15,5,44,36,51,['n'],0,left,['9'],5,42,[-0.09348141],100,44,hard,plus,dotcolour,beta,,,67,19,V,R,
662,32,32,15,5,27,53,382,['n'],1,right,['9'],5,154,[-0.07899704],100,53,easy,plus,dotcolour,beta,,,67,19,V,R,
663,33,33,15,5,44,36,191,['n'],0,left,['9'],5,101,[-0.06105281],100,44,hard,plus,dotcolour,beta,,,67,19,V,R,
664,34,34,15,5,53,27,121,['n'],0,left,['9'],5,74,[-0.04599903],100,53,easy,plus,dotcolour,beta,,,67,19,V,R,
665,35,35,15,5,36,44,17,['n'],1,right,['9'],5,505,[-0.02777813],89,44,hard,plus,dotcolour,beta,,,67,19,V,R,
666,36,36,15,5,33,47,250,['n'],1,right,['9'],5,164,[-0.1192689],100,47,medium,plus,dotcolour,beta,,,67,19,V,R,
667,37,37,15,5,53,27,176,['n'],0,left,['9'],5,135,[-0.0301619],99,53,easy,plus,dotcolour,beta,,,67,19,V,R,
668,38,38,15,5,47,33,300,['n'],0,left,['9'],5,118,[-0.10279507],100,47,medium,plus,dotcolour,beta,,,67,19,V,R,
669,39,39,15,5,53,27,314,['n'],0,left,['9'],5,190,[0.04949224],56,53,easy,plus,dotcolour,beta,,,67,19,V,R,
670,40,40,15,5,33,47,96,['n'],1,right,['9'],5,351,[-0.00307305],86,47,medium,plus,dotcolour,beta,,,67,19,V,R,
671,41,41,15,5,47,33,217,['n'],0,left,['9'],5,426,[-0.08331672],98,47,medium,plus,dotcolour,beta,,,67,19,V,R,
672,42,0,16,5,33,47,717,['n'],1,right,['9'],5,147,[-0.11899433],100,47,medium,plus,dotcolour,beta,,,67,19,V,R,
673,43,1,16,5,47,33,399,['n'],0,left,['9'],5,454,[-0.03060041],91,47,medium,plus,dotcolour,beta,,,67,19,V,R,
674,44,2,16,5,33,47,180,['n'],1,right,['9'],5,126,[-0.1200743],100,47,medium,plus,dotcolour,beta,,,67,19,V,R,
675,45,3,16,5,44,36,317,['n'],0,left,['9'],5,109,[-0.08300902],100,44,hard,plus,dotcolour,beta,,,67,19,V,R,
676,46,4,16,5,27,53,58,['n'],1,right,['9'],5,50,[-0.09346235],100,53,easy,plus,dotcolour,beta,,,67,19,V,R,
677,47,5,16,5,53,27,250,['n'],0,left,['9'],5,103,[-0.07974898],100,53,easy,plus,dotcolour,beta,,,67,19,V,R,
678,48,6,16,5,27,53,189,['n'],1,right,['9'],5,124,[-0.11009954],100,53,easy,plus,dotcolour,beta,,,67,19,V,R,
679,49,7,16,5,36,44,216,['n'],1,right,['9'],5,160,[-0.14334778],100,44,hard,plus,dotcolour,beta,,,67,19,V,R,
680,50,8,16,5,44,36,177,['n'],0,left,['9'],5,106,[-0.06575146],100,44,hard,plus,dotcolour,beta,,,67,19,V,R,
681,51,9,16,5,27,53,150,['n'],1,right,['9'],5,104,[-0.04017119],100,53,easy,plus,dotcolour,beta,,,67,19,V,R,
682,52,10,16,5,27,53,350,['n'],1,right,['9'],5,198,[-0.10732604],100,53,easy,plus,dotcolour,beta,,,67,19,V,R,
683,53,11,16,5,47,33,250,['n'],0,left,['9'],5,150,[-0.03842681],99,47,medium,plus,dotcolour,beta,,,67,19,V,R,
684,54,12,16,5,33,47,249,['n'],1,right,['9'],5,175,[-0.08545096],100,47,medium,plus,dotcolour,beta,,,67,19,V,R,
685,55,13,16,5,36,44,266,['n'],1,right,['9'],5,182,[-0.06285309],99,44,hard,plus,dotcolour,beta,,,67,19,V,R,
686,56,14,16,5,44,36,50,['n'],0,left,['9'],5,88,[-0.05587492],100,44,hard,plus,dotcolour,beta,,,67,19,V,R,
687,57,15,16,5,36,44,38,['n'],1,right,['9'],5,94,[-0.07680067],100,44,hard,plus,dotcolour,beta,,,67,19,V,R,
688,58,16,16,5,44,36,266,['n'],0,left,['9'],5,176,[-0.07174117],100,44,hard,plus,dotcolour,beta,,,67,19,V,R,
689,59,17,16,5,53,27,172,['n'],0,left,['9'],5,122,[-0.10646746],100,53,easy,plus,dotcolour,beta,,,67,19,V,R,
690,60,18,16,5,27,53,103,['n'],1,right,['9'],5,78,[-0.08566298],100,53,easy,plus,dotcolour,beta,,,67,19,V,R,
691,61,19,16,5,44,36,1566,['n'],0,left,['9'],5,182,[-0.01005938],94,44,hard,plus,dotcolour,beta,,,67,19,V,R,
692,62,20,16,5,53,27,1699,['n'],0,left,['9'],5,156,[-0.10742704],100,53,easy,plus,dotcolour,beta,,,67,19,V,R,
693,63,21,16,5,47,33,2200,['n'],0,left,['9'],5,14,[-0.07369649],100,47,medium,plus,dotcolour,beta,,,67,19,V,R,
694,64,22,16,5,44,36,217,['n'],0,left,['9'],5,134,[-0.05140468],99,44,hard,plus,dotcolour,beta,,,67,19,V,R,
695,65,23,16,5,33,47,19,['n'],1,right,['9'],5,114,[-0.0713318],100,47,medium,plus,dotcolour,beta,,,67,19,V,R,
696,66,24,16,5,27,53,1883,['n'],1,right,['9'],5,156,[-0.0884794],100,53,easy,plus,dotcolour,beta,,,67,19,V,R,
697,67,25,16,5,36,44,250,['n'],1,right,['9'],5,173,[-0.06236872],99,44,hard,plus,dotcolour,beta,,,67,19,V,R,
698,68,26,16,5,36,44,128,['n'],1,right,['9'],5,79,[-0.13973396],100,44,hard,plus,dotcolour,beta,,,67,19,V,R,
699,69,27,16,5,44,36,250,['n'],0,left,['9'],5,171,[-0.04501498],99,44,hard,plus,dotcolour,beta,,,67,19,V,R,
700,70,28,16,5,33,47,128,['n'],1,right,['9'],5,78,[-0.05300623],100,47,medium,plus,dotcolour,beta,,,67,19,V,R,
701,71,29,16,5,53,27,349,['n'],0,left,['9'],5,198,[-0.05915291],99,53,easy,plus,dotcolour,beta,,,67,19,V,R,
702,72,30,16,5,33,47,216,['n'],1,right,['9'],5,151,[-0.11466623],100,47,medium,plus,dotcolour,beta,,,67,19,V,R,
703,73,31,16,5,47,33,250,['n'],0,left,['9'],5,175,[-0.06168606],99,47,medium,plus,dotcolour,beta,,,67,19,V,R,
704,74,32,16,5,47,33,42,['n'],0,left,['9'],5,417,[0.0688782],41,47,medium,plus,dotcolour,beta,,,67,19,V,R,
705,75,33,16,5,47,33,247,['n'],0,left,['9'],5,127,[-0.15367373],100,47,medium,plus,dotcolour,beta,,,67,19,V,R,
706,76,34,16,5,53,27,299,['n'],0,left,['9'],5,135,[-0.0797251],100,53,easy,plus,dotcolour,beta,,,67,19,V,R,
707,77,35,16,5,36,44,349,['n'],1,right,['9'],5,205,[-0.09065591],100,44,hard,plus,dotcolour,beta,,,67,19,V,R,
708,78,36,16,5,27,53,716,['n'],1,right,['9'],5,226,[-0.14362431],100,53,easy,plus,dotcolour,beta,,,67,19,V,R,
709,79,37,16,5,36,44,417,['n'],1,right,['9'],5,225,[-0.07241713],99,44,hard,plus,dotcolour,beta,,,67,19,V,R,
710,80,38,16,5,33,47,300,['n'],1,right,['9'],5,149,[-0.13020381],100,47,medium,plus,dotcolour,beta,,,67,19,V,R,
711,81,39,16,5,53,27,300,['n'],0,left,['9'],5,116,[-0.09526121],100,53,easy,plus,dotcolour,beta,,,67,19,V,R,
712,82,40,16,5,53,27,232,['n'],0,left,['9'],5,112,[-0.03209587],99,53,easy,plus,dotcolour,beta,,,67,19,V,R,
713,83,41,16,5,47,33,232,['n'],0,left,['9'],5,123,[-0.03677571],99,47,medium,plus,dotcolour,beta,,,67,19,V,R,
714,84,0,17,5,47,33,618,['n'],0,left,['9'],5,167,[-0.09308405],100,47,medium,plus,dotcolour,beta,,,67,19,V,R,
715,85,1,17,5,33,47,234,['n'],1,right,['9'],5,160,[-0.05923537],99,47,medium,plus,dotcolour,beta,,,67,19,V,R,
716,86,2,17,5,36,44,193,['n'],1,right,['9'],5,139,[-0.07270682],100,44,hard,plus,dotcolour,beta,,,67,19,V,R,
717,87,3,17,5,44,36,141,['n'],0,left,['9'],5,790,[-0.10462615],96,44,hard,plus,dotcolour,beta,,,67,19,V,R,
718,88,4,17,5,47,33,301,['n'],0,left,['9'],5,132,[-0.12283388],100,47,medium,plus,dotcolour,beta,,,67,19,V,R,
719,89,5,17,5,33,47,192,['n'],1,right,['9'],5,168,[-0.04471084],99,47,medium,plus,dotcolour,beta,,,67,19,V,R,
720,90,6,17,5,47,33,164,['n'],0,left,['9'],5,74,[-0.10116355],100,47,medium,plus,dotcolour,beta,,,67,19,V,R,
721,91,7,17,5,27,53,137,['n'],1,right,['9'],5,65,[-0.03431222],100,53,easy,plus,dotcolour,beta,,,67,19,V,R,
722,92,8,17,5,27,53,96,['n'],1,right,['9'],5,48,[-0.0623316],100,53,easy,plus,dotcolour,beta,,,67,19,V,R,
723,93,9,17,5,27,53,104,['n'],1,right,['9'],5,87,[-0.07890099],100,53,easy,plus,dotcolour,beta,,,67,19,V,R,
724,94,10,17,5,44,36,148,['n'],0,left,['9'],5,100,[-0.08409661],100,44,hard,plus,dotcolour,beta,,,67,19,V,R,
725,95,11,17,5,27,53,99,['n'],1,right,['9'],5,114,[-0.10049929],100,53,easy,plus,dotcolour,beta,,,67,19,V,R,
726,96,12,17,5,53,27,283,['n'],0,left,['9'],5,1378,[0.25771015],4,53,easy,plus,dotcolour,beta,,,67,19,V,R,
727,97,13,17,5,44,36,283,['n'],0,left,['9'],5,137,[-0.04740622],99,44,hard,plus,dotcolour,beta,,,67,19,V,R,
728,98,14,17,5,53,27,299,['n'],0,left,['9'],5,105,[-0.08298227],100,53,easy,plus,dotcolour,beta,,,67,19,V,R,
729,99,15,17,5,44,36,283,['n'],0,left,['9'],5,147,[-0.10046903],100,44,hard,plus,dotcolour,beta,,,67,19,V,R,
730,100,16,17,5,33,47,233,['n'],1,right,['9'],5,141,[-0.12173415],100,47,medium,plus,dotcolour,beta,,,67,19,V,R,
731,101,17,17,5,44,36,301,['n'],0,left,['9'],5,156,[-0.09214154],100,44,hard,plus,dotcolour,beta,,,67,19,V,R,
732,102,18,17,5,53,27,283,['n'],0,left,['9'],5,140,[0.01951373],85,53,easy,plus,dotcolour,beta,,,67,19,V,R,
733,103,19,17,5,27,53,367,['n'],1,right,['9'],5,144,[-0.11160439],100,53,easy,plus,dotcolour,beta,,,67,19,V,R,
734,104,20,17,5,53,27,315,['n'],0,left,['9'],5,295,[-0.04059502],96,53,easy,plus,dotcolour,beta,,,67,19,V,R,
735,105,21,17,5,47,33,265,['n'],0,left,['9'],5,162,[-0.04775252],99,47,medium,plus,dotcolour,beta,,,67,19,V,R,
736,106,22,17,5,36,44,1199,['n'],1,right,['9'],5,196,[-0.06449675],99,44,hard,plus,dotcolour,beta,,,67,19,V,R,
737,107,23,17,5,53,27,251,['n'],0,left,['9'],5,148,[-0.05220159],99,53,easy,plus,dotcolour,beta,,,67,19,V,R,
738,108,24,17,5,33,47,79,['n'],1,right,['9'],5,63,[-0.12293095],100,47,medium,plus,dotcolour,beta,,,67,19,V,R,
739,109,25,17,5,33,47,1065,['n'],1,right,['9'],5,243,[-0.06040776],99,47,medium,plus,dotcolour,beta,,,67,19,V,R,
740,110,26,17,5,33,47,333,['n'],1,right,['9'],5,173,[-0.09423614],100,47,medium,plus,dotcolour,beta,,,67,19,V,R,
741,111,27,17,5,44,36,250,['n'],0,left,['9'],5,286,[-0.056084],98,44,hard,plus,dotcolour,beta,,,67,19,V,R,
742,112,28,17,5,36,44,173,['n'],1,right,['9'],5,307,[-0.09409567],99,44,hard,plus,dotcolour,beta,,,67,19,V,R,
743,113,29,17,5,27,53,233,['n'],1,right,['9'],5,127,[-0.09906403],100,53,easy,plus,dotcolour,beta,,,67,19,V,R,
744,114,30,17,5,47,33,266,['n'],0,left,['9'],5,160,[-0.12494028],100,47,medium,plus,dotcolour,beta,,,67,19,V,R,
745,115,31,17,5,36,44,17,['n'],1,right,['9'],5,43,[-0.07572901],100,44,hard,plus,dotcolour,beta,,,67,19,V,R,
746,116,32,17,5,36,44,109,['n'],1,right,['9'],5,122,[-0.13660835],100,44,hard,plus,dotcolour,beta,,,67,19,V,R,
747,117,33,17,5,47,33,218,['n'],0,left,['9'],5,166,[-0.01600693],96,47,medium,plus,dotcolour,beta,,,67,19,V,R,
748,118,34,17,5,47,33,1184,['n'],0,left,['9'],5,217,[0.05643248],49,47,medium,plus,dotcolour,beta,,,67,19,V,R,
749,119,35,17,5,33,47,299,['n'],1,right,['9'],5,205,[-0.0467669],98,47,medium,plus,dotcolour,beta,,,67,19,V,R,
750,120,36,17,5,27,53,78,['n'],1,right,['9'],5,69,[-0.07656246],100,53,easy,plus,dotcolour,beta,,,67,19,V,R,
751,121,37,17,5,44,36,142,['n'],0,left,['9'],5,52,[-0.07514353],100,44,hard,plus,dotcolour,beta,,,67,19,V,R,
752,122,38,17,5,36,44,267,['n'],1,right,['9'],5,97,[-0.04301515],100,44,hard,plus,dotcolour,beta,,,67,19,V,R,
753,123,39,17,5,36,44,151,['n'],1,right,['9'],5,70,[-0.0554066],100,44,hard,plus,dotcolour,beta,,,67,19,V,R,
754,124,40,17,5,53,27,110,['n'],0,left,['9'],5,37,[-0.09542532],100,53,easy,plus,dotcolour,beta,,,67,19,V,R,
755,125,41,17,5,53,27,94,['n'],0,left,['9'],5,29,[-0.08069164],100,53,easy,plus,dotcolour,beta,,,67,19,V,R,
,,,,,,,,,,,,,,,,,,,,,1,9    nee      ,67,19,V,R,
,,,,,,,,,,,,,,,,,,,,,2,['g'],67,19,V,R,
,,,,,,,,,,,,,,,,,,,,,3,['g'],67,19,V,R,
,,,,,,,,,,,,,,,,,,,,,5,"['1', '2']",67,19,V,R,
