trial,withinphasetrial,withinblocktrial,block,phase,dotsLeft,dotsRight,rt,resp,cor,cresp,conf_press,cj,RTconf,ev,fb,diff,difflevel,condition,task,manip,questionID,questionResp,sub,age,gender,handedness,
0,0,0,0,0,47,33,2716,['n'],0,left,['3'],4,2422,[0.09319148],15,47,medium,minus,dotcolour,beta,,,73,19,V,L,
1,1,1,0,0,44,36,2399,['c'],1,left,['3'],4,1645,[0.23359627],92,44,hard,minus,dotcolour,beta,,,73,19,V,L,
2,2,2,0,0,44,36,2797,['n'],0,left,['8'],3,2964,[0.33628989],2,44,hard,minus,dotcolour,beta,,,73,19,V,L,
3,3,3,0,0,27,53,1500,['n'],1,right,['2'],5,3530,[-0.80404915],100,53,easy,minus,dotcolour,beta,,,73,19,V,L,
4,4,4,0,0,47,33,2448,['n'],0,left,['0'],1,1858,[0.25521269],2,47,medium,minus,dotcolour,beta,,,73,19,V,L,
5,5,5,0,0,44,36,3181,['c'],1,left,['8'],3,2969,[0.17711838],78,44,hard,minus,dotcolour,beta,,,73,19,V,L,
6,6,6,0,0,53,27,1766,['c'],1,left,['2'],5,1283,[0.04484199],46,53,easy,minus,dotcolour,beta,,,73,19,V,L,
7,7,7,0,0,33,47,2599,['n'],1,right,['0'],1,1433,[-0.20936707],91,47,medium,minus,dotcolour,beta,,,73,19,V,L,
8,8,8,0,0,27,53,1865,['n'],1,right,['2'],5,2181,[-0.43248255],99,53,easy,minus,dotcolour,beta,,,73,19,V,L,
9,9,9,0,0,47,33,4265,['c'],1,left,['9'],2,2764,[0.35278173],96,47,medium,minus,dotcolour,beta,,,73,19,V,L,
10,10,10,0,0,53,27,1365,['c'],1,left,['1'],6,1376,[0.20258382],91,53,easy,minus,dotcolour,beta,,,73,19,V,L,
11,11,11,0,0,27,53,2614,['c'],0,right,['8'],3,1489,[-0.13113682],6,53,easy,minus,dotcolour,beta,,,73,19,V,L,
12,12,12,0,0,53,27,1265,['c'],1,left,['1'],6,6147,[1.15332956],100,53,easy,minus,dotcolour,beta,,,73,19,V,L,
13,13,13,0,0,27,53,2515,['n'],1,right,['1'],6,744,[-0.13260896],83,53,easy,minus,dotcolour,beta,,,73,19,V,L,
14,14,14,0,0,36,44,1531,['n'],1,right,['8'],3,1646,[-0.16803526],83,44,hard,minus,dotcolour,beta,,,73,19,V,L,
15,15,15,0,0,44,36,1581,['n'],0,left,['2'],5,1909,[0.14115854],7,44,hard,minus,dotcolour,beta,,,73,19,V,L,
16,16,16,0,0,27,53,916,['n'],1,right,['1'],6,781,[-0.19388762],94,53,easy,minus,dotcolour,beta,,,73,19,V,L,
17,17,17,0,0,47,33,817,['c'],1,left,['1'],6,630,[0.15875602],91,47,medium,minus,dotcolour,beta,,,73,19,V,L,
18,18,18,0,0,33,47,1932,['n'],1,right,['1'],6,1249,[-0.23373728],95,47,medium,minus,dotcolour,beta,,,73,19,V,L,
19,19,19,0,0,33,47,1014,['n'],1,right,['1'],6,431,[-0.13328442],89,47,medium,minus,dotcolour,beta,,,73,19,V,L,
20,20,20,0,0,44,36,1833,['c'],1,left,['1'],6,334,[0.10091114],80,44,hard,minus,dotcolour,beta,,,73,19,V,L,
21,21,21,0,0,27,53,865,['n'],1,right,['1'],6,367,[-0.10140413],80,53,easy,minus,dotcolour,beta,,,73,19,V,L,
22,22,22,0,0,53,27,1198,['c'],1,left,['2'],5,1505,[0.30351937],97,53,easy,minus,dotcolour,beta,,,73,19,V,L,
23,23,23,0,0,44,36,1548,['c'],1,left,['1'],6,496,[0.06646229],57,44,hard,minus,dotcolour,beta,,,73,19,V,L,
24,24,24,0,0,53,27,1365,['n'],0,left,['0'],1,4031,[0.15475524],13,53,easy,minus,dotcolour,beta,,,73,19,V,L,
25,25,25,0,0,33,47,1966,['c'],0,right,['1'],6,4871,[-0.48400025],1,47,medium,minus,dotcolour,beta,,,73,19,V,L,
26,26,26,0,0,36,44,1080,['n'],1,right,['1'],6,848,[-0.03741565],41,44,hard,minus,dotcolour,beta,,,73,19,V,L,
27,27,27,0,0,47,33,2165,['n'],0,left,['0'],1,832,[-0.03132476],38,47,medium,minus,dotcolour,beta,,,73,19,V,L,
28,28,28,0,0,33,47,1981,['n'],1,right,['0'],1,392,[-0.03133423],33,47,medium,minus,dotcolour,beta,,,73,19,V,L,
29,29,29,0,0,53,27,2015,['c'],1,left,['1'],6,704,[0.03373861],39,53,easy,minus,dotcolour,beta,,,73,19,V,L,
30,30,30,0,0,33,47,965,['n'],1,right,['1'],6,511,[-0.02856128],34,47,medium,minus,dotcolour,beta,,,73,19,V,L,
31,31,31,0,0,36,44,1715,['c'],0,right,['1'],6,1159,[-0.02323292],21,44,hard,minus,dotcolour,beta,,,73,19,V,L,
32,32,32,0,0,47,33,1432,['n'],0,left,['1'],6,856,[-0.07374889],59,47,medium,minus,dotcolour,beta,,,73,19,V,L,
33,33,33,0,0,53,27,160,['n'],0,left,['2'],5,847,[0.0874323],6,53,easy,minus,dotcolour,beta,,,73,19,V,L,
34,34,34,0,0,27,53,417,['n'],1,right,['2'],5,1117,[-0.11461444],73,53,easy,minus,dotcolour,beta,,,73,19,V,L,
35,35,35,0,0,36,44,299,['n'],1,right,['2'],5,253,[-0.06835398],61,44,hard,minus,dotcolour,beta,,,73,19,V,L,
36,36,36,0,0,36,44,196,['n'],1,right,['2'],5,164,[-0.08490599],79,44,hard,minus,dotcolour,beta,,,73,19,V,L,
37,37,37,0,0,44,36,198,['n'],0,left,['9'],2,175,[-0.01994012],18,44,hard,minus,dotcolour,beta,,,73,19,V,L,
38,38,38,0,0,33,47,449,['n'],1,right,['9'],2,231,[-0.06577642],59,47,medium,minus,dotcolour,beta,,,73,19,V,L,
39,39,39,0,0,36,44,366,['n'],1,right,['9'],2,224,[-0.10472477],87,44,hard,minus,dotcolour,beta,,,73,19,V,L,
40,40,40,0,0,47,33,1715,['n'],0,left,['9'],2,883,[-0.0555181],50,47,medium,minus,dotcolour,beta,,,73,19,V,L,
41,41,41,0,0,36,44,415,['c'],0,right,['9'],2,841,[-0.06827194],8,44,hard,minus,dotcolour,beta,,,73,19,V,L,
42,42,0,1,0,53,27,1732,['n'],0,left,['9'],2,859,[0.03925173],14,53,easy,minus,dotcolour,beta,,,73,19,V,L,
43,43,1,1,0,36,44,3399,['c'],0,right,['2'],5,1162,[0.1992232],92,44,hard,minus,dotcolour,beta,,,73,19,V,L,
44,44,2,1,0,44,36,697,['n'],0,left,['9'],2,448,[0.04443834],6,44,hard,minus,dotcolour,beta,,,73,19,V,L,
45,45,3,1,0,33,47,965,['c'],0,right,['9'],2,329,[-0.04709986],4,47,medium,minus,dotcolour,beta,,,73,19,V,L,
46,46,4,1,0,47,33,765,['n'],0,left,['9'],2,422,[-0.00478465],20,47,medium,minus,dotcolour,beta,,,73,19,V,L,
47,47,5,1,0,44,36,698,['c'],1,left,['2'],5,322,[-0.02386355],7,44,hard,minus,dotcolour,beta,,,73,19,V,L,
48,48,6,1,0,33,47,965,['c'],0,right,['9'],2,823,[-0.05428302],10,47,medium,minus,dotcolour,beta,,,73,19,V,L,
49,49,7,1,0,27,53,1032,['n'],1,right,['9'],2,366,[-0.12386339],88,53,easy,minus,dotcolour,beta,,,73,19,V,L,
50,50,8,1,0,27,53,1465,['c'],0,right,['9'],2,1294,[-0.22183518],1,53,easy,minus,dotcolour,beta,,,73,19,V,L,
51,51,9,1,0,53,27,316,['c'],1,left,['9'],2,967,[0.27810106],98,53,easy,minus,dotcolour,beta,,,73,19,V,L,
52,52,10,1,0,33,47,798,['c'],0,right,['1'],6,1281,[-0.11604881],6,47,medium,minus,dotcolour,beta,,,73,19,V,L,
53,53,11,1,0,27,53,966,['n'],1,right,['1'],6,1096,[-0.24966867],97,53,easy,minus,dotcolour,beta,,,73,19,V,L,
54,54,12,1,0,53,27,1049,['c'],1,left,['1'],6,427,[0.08063144],67,53,easy,minus,dotcolour,beta,,,73,19,V,L,
55,55,13,1,0,27,53,549,['n'],1,right,['1'],6,461,[-0.10182155],77,53,easy,minus,dotcolour,beta,,,73,19,V,L,
56,56,14,1,0,36,44,998,['n'],1,right,['1'],6,604,[-0.18144467],95,44,hard,minus,dotcolour,beta,,,73,19,V,L,
57,57,15,1,0,47,33,532,['c'],1,left,['1'],6,599,[0.17687105],94,47,medium,minus,dotcolour,beta,,,73,19,V,L,
58,58,16,1,0,47,33,193,['n'],0,left,['1'],6,464,[0.05390463],5,47,medium,minus,dotcolour,beta,,,73,19,V,L,
59,59,17,1,0,47,33,1898,['n'],0,left,['1'],6,1131,[-0.03584003],42,47,medium,minus,dotcolour,beta,,,73,19,V,L,
60,60,18,1,0,44,36,484,['n'],0,left,['2'],5,619,[0.00161139],21,44,hard,minus,dotcolour,beta,,,73,19,V,L,
61,61,19,1,0,33,47,250,['c'],0,right,['1'],6,2106,[-0.10194971],12,47,medium,minus,dotcolour,beta,,,73,19,V,L,
62,62,20,1,0,47,33,565,['c'],1,left,['1'],6,367,[0.09584473],77,47,medium,minus,dotcolour,beta,,,73,19,V,L,
63,63,21,1,0,27,53,177,['c'],0,right,['1'],6,290,[0.07904893],69,53,easy,minus,dotcolour,beta,,,73,19,V,L,
64,64,22,1,0,53,27,715,['n'],0,left,['9'],2,115,[-0.06548558],63,53,easy,minus,dotcolour,beta,,,73,19,V,L,
65,65,23,1,0,36,44,549,['c'],0,right,['2'],5,146,[0.03067285],24,44,hard,minus,dotcolour,beta,,,73,19,V,L,
66,66,24,1,0,36,44,565,['c'],0,right,['3'],4,142,[0.01139581],11,44,hard,minus,dotcolour,beta,,,73,19,V,L,
67,67,25,1,0,44,36,249,['n'],0,left,['9'],2,144,[-0.00831832],10,44,hard,minus,dotcolour,beta,,,73,19,V,L,
68,68,26,1,0,53,27,178,['c'],1,left,['1'],6,107,[0.15422489],100,53,easy,minus,dotcolour,beta,,,73,19,V,L,
69,69,27,1,0,47,33,849,['n'],0,left,['0'],1,173,[-0.08255395],76,47,medium,minus,dotcolour,beta,,,73,19,V,L,
70,70,28,1,0,44,36,96,['c'],1,left,['2'],5,65,[0.09558756],94,44,hard,minus,dotcolour,beta,,,73,19,V,L,
71,71,29,1,0,27,53,1098,['c'],0,right,['9'],2,403,[0.13363889],90,53,easy,minus,dotcolour,beta,,,73,19,V,L,
72,72,30,1,0,53,27,549,['n'],0,left,['9'],2,175,[-0.0703099],65,53,easy,minus,dotcolour,beta,,,73,19,V,L,
73,73,31,1,0,33,47,233,['c'],0,right,['3'],4,127,[0.03053717],22,47,medium,minus,dotcolour,beta,,,73,19,V,L,
74,74,32,1,0,36,44,172,['n'],1,right,['9'],2,187,[0.00661408],7,44,hard,minus,dotcolour,beta,,,73,19,V,L,
75,75,33,1,0,36,44,4250,['c'],0,right,['2'],5,315,[0.02440087],27,44,hard,minus,dotcolour,beta,,,73,19,V,L,
76,76,34,1,0,47,33,2916,['c'],1,left,['2'],5,883,[0.23143026],97,47,medium,minus,dotcolour,beta,,,73,19,V,L,
77,77,35,1,0,44,36,432,['n'],0,left,['9'],2,1112,[0.0102923],25,44,hard,minus,dotcolour,beta,,,73,19,V,L,
78,78,36,1,0,27,53,648,['c'],0,right,['2'],5,834,[-0.18728845],1,53,easy,minus,dotcolour,beta,,,73,19,V,L,
79,79,37,1,0,33,47,799,['n'],1,right,['9'],2,850,[-0.14601025],85,47,medium,minus,dotcolour,beta,,,73,19,V,L,
80,80,38,1,0,53,27,332,['c'],1,left,['9'],2,476,[0.12160811],85,53,easy,minus,dotcolour,beta,,,73,19,V,L,
81,81,39,1,0,44,36,216,['c'],1,left,['9'],2,265,[0.05896683],53,44,hard,minus,dotcolour,beta,,,73,19,V,L,
82,82,40,1,0,36,44,382,['c'],0,right,['9'],2,216,[0.0973821],83,44,hard,minus,dotcolour,beta,,,73,19,V,L,
83,83,41,1,0,33,47,33,['c'],0,right,['9'],2,89,[0.02244853],12,47,medium,minus,dotcolour,beta,,,73,19,V,L,
84,84,0,2,0,33,47,417,['c'],0,right,['9'],2,313,[0.11936962],89,47,medium,minus,dotcolour,beta,,,73,19,V,L,
85,85,1,2,0,53,27,365,['c'],1,left,['9'],2,191,[0.10916493],90,53,easy,minus,dotcolour,beta,,,73,19,V,L,
86,86,2,2,0,53,27,632,['c'],1,left,['9'],2,159,[0.06688993],63,53,easy,minus,dotcolour,beta,,,73,19,V,L,
87,87,3,2,0,33,47,465,['c'],0,right,['9'],2,175,[0.10007855],87,47,medium,minus,dotcolour,beta,,,73,19,V,L,
88,88,4,2,0,47,33,465,['c'],1,left,['9'],2,159,[0.11366846],93,47,medium,minus,dotcolour,beta,,,73,19,V,L,
89,89,5,2,0,33,47,298,['n'],1,right,['2'],5,613,[-0.05849573],52,47,medium,minus,dotcolour,beta,,,73,19,V,L,
90,90,6,2,0,33,47,1231,['n'],1,right,['2'],5,245,[-0.05684575],51,47,medium,minus,dotcolour,beta,,,73,19,V,L,
91,91,7,2,0,36,44,1132,['c'],0,right,['2'],5,487,[0.17216712],95,44,hard,minus,dotcolour,beta,,,73,19,V,L,
92,92,8,2,0,36,44,666,['c'],0,right,['2'],5,282,[0.113568],88,44,hard,minus,dotcolour,beta,,,73,19,V,L,
93,93,9,2,0,44,36,564,['c'],1,left,['2'],5,185,[0.10327971],88,44,hard,minus,dotcolour,beta,,,73,19,V,L,
94,94,10,2,0,36,44,280,['n'],1,right,['9'],2,296,[-0.04181806],39,44,hard,minus,dotcolour,beta,,,73,19,V,L,
95,95,11,2,0,47,33,1834,['c'],1,left,['9'],2,1563,[0.24543239],94,47,medium,minus,dotcolour,beta,,,73,19,V,L,
96,96,12,2,0,53,27,283,['c'],1,left,['9'],2,314,[0.18164269],98,53,easy,minus,dotcolour,beta,,,73,19,V,L,
97,97,13,2,0,27,53,2448,['c'],0,right,['9'],2,469,[-0.01590371],13,53,easy,minus,dotcolour,beta,,,73,19,V,L,
98,98,14,2,0,53,27,178,['c'],1,left,['9'],2,419,[0.06353686],56,53,easy,minus,dotcolour,beta,,,73,19,V,L,
99,99,15,2,0,47,33,332,['c'],1,left,['9'],2,542,[0.22867209],99,47,medium,minus,dotcolour,beta,,,73,19,V,L,
100,100,16,2,0,53,27,367,['n'],0,left,['2'],5,315,[0.00140469],14,53,easy,minus,dotcolour,beta,,,73,19,V,L,
101,101,17,2,0,33,47,981,['n'],1,right,['9'],2,481,[-0.15522274],93,47,medium,minus,dotcolour,beta,,,73,19,V,L,
102,102,18,2,0,47,33,332,['n'],0,left,['9'],2,505,[0.06802355],4,47,medium,minus,dotcolour,beta,,,73,19,V,L,
103,103,19,2,0,27,53,1633,['n'],1,right,['9'],2,164,[-0.1179622],94,53,easy,minus,dotcolour,beta,,,73,19,V,L,
104,104,20,2,0,36,44,797,['n'],1,right,['9'],2,183,[-0.05686511],51,44,hard,minus,dotcolour,beta,,,73,19,V,L,
105,105,21,2,0,27,53,880,['n'],1,right,['9'],2,214,[-0.08196319],74,53,easy,minus,dotcolour,beta,,,73,19,V,L,
106,106,22,2,0,27,53,966,['n'],1,right,['9'],2,184,[-0.07497787],69,53,easy,minus,dotcolour,beta,,,73,19,V,L,
107,107,23,2,0,36,44,914,['n'],1,right,['9'],2,293,[-0.12079138],90,44,hard,minus,dotcolour,beta,,,73,19,V,L,
108,108,24,2,0,44,36,731,['n'],0,left,['9'],2,213,[0.03969996],2,44,hard,minus,dotcolour,beta,,,73,19,V,L,
109,109,25,2,0,44,36,797,['c'],1,left,['2'],5,126,[0.03118574],23,44,hard,minus,dotcolour,beta,,,73,19,V,L,
110,110,26,2,0,44,36,532,['n'],0,left,['9'],2,156,[-0.08229789],77,44,hard,minus,dotcolour,beta,,,73,19,V,L,
111,111,27,2,0,44,36,714,['n'],0,left,['2'],5,227,[-0.04576595],41,44,hard,minus,dotcolour,beta,,,73,19,V,L,
112,112,28,2,0,33,47,414,['n'],1,right,['9'],2,178,[-0.11625131],93,47,medium,minus,dotcolour,beta,,,73,19,V,L,
113,113,29,2,0,27,53,632,['c'],0,right,['2'],5,138,[0.00417863],8,53,easy,minus,dotcolour,beta,,,73,19,V,L,
114,114,30,2,0,36,44,682,['n'],1,right,['9'],2,243,[-0.06657787],60,44,hard,minus,dotcolour,beta,,,73,19,V,L,
115,115,31,2,0,44,36,364,['c'],1,left,['2'],5,180,[0.10461304],89,44,hard,minus,dotcolour,beta,,,73,19,V,L,
116,116,32,2,0,27,53,1865,['c'],0,right,['2'],5,107,[0.04714635],39,53,easy,minus,dotcolour,beta,,,73,19,V,L,
117,117,33,2,0,53,27,266,['c'],1,left,['2'],5,109,[0.08838311],86,53,easy,minus,dotcolour,beta,,,73,19,V,L,
118,118,34,2,0,33,47,782,['n'],1,right,['9'],2,234,[-0.14314063],96,47,medium,minus,dotcolour,beta,,,73,19,V,L,
119,119,35,2,0,27,53,365,['c'],0,right,['1'],6,204,[0.00510704],12,53,easy,minus,dotcolour,beta,,,73,19,V,L,
120,120,36,2,0,36,44,382,['c'],0,right,['1'],6,206,[0.07412864],68,44,hard,minus,dotcolour,beta,,,73,19,V,L,
121,121,37,2,0,44,36,515,['c'],1,left,['1'],6,187,[0.06797163],63,44,hard,minus,dotcolour,beta,,,73,19,V,L,
122,122,38,2,0,53,27,414,['c'],1,left,['1'],6,179,[0.08834542],80,53,easy,minus,dotcolour,beta,,,73,19,V,L,
123,123,39,2,0,47,33,330,['c'],1,left,['2'],5,208,[0.06477958],59,47,medium,minus,dotcolour,beta,,,73,19,V,L,
124,124,40,2,0,47,33,482,['c'],1,left,['1'],6,165,[0.14185714],98,47,medium,minus,dotcolour,beta,,,73,19,V,L,
125,125,41,2,0,47,33,651,['c'],1,left,['1'],6,166,[0.03216617],26,47,medium,minus,dotcolour,beta,,,73,19,V,L,
126,0,0,3,1,44,36,550,['c'],1,left,['1'],6,247,[0.06393201],99,44,hard,plus,dotcolour,beta,,,73,19,V,L,
127,1,1,3,1,36,44,915,['n'],1,right,['1'],6,481,[-0.08433739],97,44,hard,plus,dotcolour,beta,,,73,19,V,L,
128,2,2,3,1,53,27,415,['n'],0,left,['1'],6,230,[-0.0791256],99,53,easy,plus,dotcolour,beta,,,73,19,V,L,
129,3,3,3,1,47,33,799,['c'],1,left,['1'],6,1303,[0.53485647],100,47,medium,plus,dotcolour,beta,,,73,19,V,L,
130,4,4,3,1,33,47,2283,['c'],0,right,['1'],6,480,[0.13935211],99,47,medium,plus,dotcolour,beta,,,73,19,V,L,
131,5,5,3,1,33,47,399,['c'],0,right,['1'],6,414,[0.13215978],99,47,medium,plus,dotcolour,beta,,,73,19,V,L,
132,6,6,3,1,44,36,1598,['c'],1,left,['1'],6,374,[0.12724088],100,44,hard,plus,dotcolour,beta,,,73,19,V,L,
133,7,7,3,1,53,27,365,['c'],1,left,['1'],6,2730,[0.59978247],100,53,easy,plus,dotcolour,beta,,,73,19,V,L,
134,8,8,3,1,53,27,1081,['c'],1,left,['1'],6,186,[0.08603457],100,53,easy,plus,dotcolour,beta,,,73,19,V,L,
135,9,9,3,1,47,33,832,['n'],0,left,['1'],6,427,[-0.0286864],91,47,medium,plus,dotcolour,beta,,,73,19,V,L,
136,10,10,3,1,36,44,898,['c'],0,right,['1'],6,223,[0.06938451],99,44,hard,plus,dotcolour,beta,,,73,19,V,L,
137,11,11,3,1,36,44,631,['c'],0,right,['1'],6,198,[0.02000515],96,44,hard,plus,dotcolour,beta,,,73,19,V,L,
138,12,12,3,1,33,47,581,['n'],1,right,['1'],6,376,[-0.05099842],96,47,medium,plus,dotcolour,beta,,,73,19,V,L,
139,13,13,3,1,53,27,681,['c'],1,left,['1'],6,310,[0.18212879],100,53,easy,plus,dotcolour,beta,,,73,19,V,L,
140,14,14,3,1,47,33,650,['c'],1,left,['1'],6,217,[0.17231838],100,47,medium,plus,dotcolour,beta,,,73,19,V,L,
141,15,15,3,1,27,53,882,['c'],0,right,['1'],6,1727,[-0.21040871],11,53,easy,plus,dotcolour,beta,,,73,19,V,L,
142,16,16,3,1,47,33,699,['c'],1,left,['1'],6,143,[0.14285294],100,47,medium,plus,dotcolour,beta,,,73,19,V,L,
143,17,17,3,1,44,36,682,['c'],1,left,['1'],6,199,[0.13040231],100,44,hard,plus,dotcolour,beta,,,73,19,V,L,
144,18,18,3,1,33,47,282,['c'],0,right,['1'],6,189,[0.06545119],99,47,medium,plus,dotcolour,beta,,,73,19,V,L,
145,19,19,3,1,27,53,416,['c'],0,right,['1'],6,285,[0.12795939],100,53,easy,plus,dotcolour,beta,,,73,19,V,L,
146,20,20,3,1,36,44,381,['c'],0,right,['1'],6,364,[0.09510332],99,44,hard,plus,dotcolour,beta,,,73,19,V,L,
147,21,21,3,1,33,47,316,['c'],0,right,['1'],6,203,[0.0923023],100,47,medium,plus,dotcolour,beta,,,73,19,V,L,
148,22,22,3,1,44,36,316,['c'],1,left,['1'],6,271,[0.09986096],100,44,hard,plus,dotcolour,beta,,,73,19,V,L,
149,23,23,3,1,36,44,3833,['c'],0,right,['1'],6,627,[-0.05808006],49,44,hard,plus,dotcolour,beta,,,73,19,V,L,
150,24,24,3,1,53,27,514,['c'],1,left,['1'],6,999,[0.23551761],99,53,easy,plus,dotcolour,beta,,,73,19,V,L,
151,25,25,3,1,33,47,582,['c'],0,right,['1'],6,545,[0.15968267],99,47,medium,plus,dotcolour,beta,,,73,19,V,L,
152,26,26,3,1,36,44,1465,['c'],0,right,['1'],6,298,[0.01973598],92,44,hard,plus,dotcolour,beta,,,73,19,V,L,
153,27,27,3,1,53,27,159,['c'],1,left,['1'],6,494,[0.09510828],98,53,easy,plus,dotcolour,beta,,,73,19,V,L,
154,28,28,3,1,53,27,381,['c'],1,left,['1'],6,556,[0.24480466],100,53,easy,plus,dotcolour,beta,,,73,19,V,L,
155,29,29,3,1,44,36,118,['c'],1,left,['1'],6,319,[0.06121937],98,44,hard,plus,dotcolour,beta,,,73,19,V,L,
156,30,30,3,1,27,53,381,['c'],0,right,['1'],6,332,[0.04910658],96,53,easy,plus,dotcolour,beta,,,73,19,V,L,
157,31,31,3,1,47,33,933,['c'],1,left,['1'],6,291,[0.04081061],96,47,medium,plus,dotcolour,beta,,,73,19,V,L,
158,32,32,3,1,36,44,466,['n'],1,right,['0'],1,749,[-0.15998221],99,44,hard,plus,dotcolour,beta,,,73,19,V,L,
159,33,33,3,1,27,53,1814,['c'],0,right,['1'],6,616,[-0.06368514],45,53,easy,plus,dotcolour,beta,,,73,19,V,L,
160,34,34,3,1,44,36,347,['c'],1,left,['1'],6,538,[0.10941186],98,44,hard,plus,dotcolour,beta,,,73,19,V,L,
161,35,35,3,1,33,47,367,['c'],0,right,['1'],6,534,[-0.03206131],64,47,medium,plus,dotcolour,beta,,,73,19,V,L,
162,36,36,3,1,47,33,632,['c'],1,left,['1'],6,330,[0.04104717],95,47,medium,plus,dotcolour,beta,,,73,19,V,L,
163,37,37,3,1,47,33,565,['c'],1,left,['1'],6,199,[0.0671452],99,47,medium,plus,dotcolour,beta,,,73,19,V,L,
164,38,38,3,1,27,53,3431,['c'],0,right,['1'],6,471,[-0.12182946],15,53,easy,plus,dotcolour,beta,,,73,19,V,L,
165,39,39,3,1,27,53,1882,['c'],0,right,['9'],2,906,[-0.0479705],54,53,easy,plus,dotcolour,beta,,,73,19,V,L,
166,40,40,3,1,27,53,2381,['c'],0,right,['1'],6,287,[-0.01930458],77,53,easy,plus,dotcolour,beta,,,73,19,V,L,
167,41,41,3,1,44,36,481,['c'],1,left,"['2', '1']",5,226,[0.05397209],98,44,hard,plus,dotcolour,beta,,,73,19,V,L,
168,42,0,4,1,36,44,250,['c'],0,right,['1'],6,115,[0.0102868],97,44,hard,plus,dotcolour,beta,,,73,19,V,L,
169,43,1,4,1,27,53,365,['c'],0,right,['1'],6,138,[0.11197631],100,53,easy,plus,dotcolour,beta,,,73,19,V,L,
170,44,2,4,1,44,36,332,['c'],1,left,['1'],6,159,[0.09674278],100,44,hard,plus,dotcolour,beta,,,73,19,V,L,
171,45,3,4,1,33,47,349,['c'],0,right,['1'],6,140,[0.0603257],100,47,medium,plus,dotcolour,beta,,,73,19,V,L,
172,46,4,4,1,47,33,383,['c'],1,left,['1'],6,153,[-0.01980482],84,47,medium,plus,dotcolour,beta,,,73,19,V,L,
173,47,5,4,1,27,53,731,['c'],0,right,['1'],6,111,[0.03422814],99,53,easy,plus,dotcolour,beta,,,73,19,V,L,
174,48,6,4,1,27,53,381,['c'],0,right,['1'],6,124,[0.03310834],99,53,easy,plus,dotcolour,beta,,,73,19,V,L,
175,49,7,4,1,47,33,365,['c'],1,left,"['2', '1']",5,98,[0.08124955],100,47,medium,plus,dotcolour,beta,,,73,19,V,L,
176,50,8,4,1,53,27,381,['c'],1,left,['2'],5,72,[0.09880863],100,53,easy,plus,dotcolour,beta,,,73,19,V,L,
177,51,9,4,1,27,53,716,['c'],0,right,['1'],6,202,[-0.03115765],73,53,easy,plus,dotcolour,beta,,,73,19,V,L,
178,52,10,4,1,36,44,83,['c'],0,right,['1'],6,66,[0.06079512],100,44,hard,plus,dotcolour,beta,,,73,19,V,L,
179,53,11,4,1,53,27,314,['c'],1,left,['1'],6,165,[0.11982253],100,53,easy,plus,dotcolour,beta,,,73,19,V,L,
180,54,12,4,1,53,27,383,['c'],1,left,['2'],5,128,[0.12603417],100,53,easy,plus,dotcolour,beta,,,73,19,V,L,
181,55,13,4,1,33,47,715,['c'],0,right,['1'],6,183,[0.04704799],99,47,medium,plus,dotcolour,beta,,,73,19,V,L,
182,56,14,4,1,53,27,17,['c'],1,left,['2'],5,74,[0.04983328],100,53,easy,plus,dotcolour,beta,,,73,19,V,L,
183,57,15,4,1,36,44,1180,['c'],0,right,['1'],6,696,[0.01466201],82,44,hard,plus,dotcolour,beta,,,73,19,V,L,
184,58,16,4,1,33,47,383,['c'],0,right,['1'],6,390,[0.10322307],99,47,medium,plus,dotcolour,beta,,,73,19,V,L,
185,59,17,4,1,36,44,6516,['c'],0,right,['1'],6,611,[0.01372527],83,44,hard,plus,dotcolour,beta,,,73,19,V,L,
186,60,18,4,1,53,27,417,['c'],1,left,['1'],6,331,[0.11040208],99,53,easy,plus,dotcolour,beta,,,73,19,V,L,
187,61,19,4,1,53,27,349,['c'],1,left,['9'],2,457,[0.28735226],100,53,easy,plus,dotcolour,beta,,,73,19,V,L,
188,62,20,4,1,47,33,78,['c'],1,left,['9'],2,287,[0.02961146],95,47,medium,plus,dotcolour,beta,,,73,19,V,L,
189,63,21,4,1,36,44,298,['c'],0,right,['9'],2,793,[0.06642293],92,44,hard,plus,dotcolour,beta,,,73,19,V,L,
190,64,22,4,1,33,47,416,['c'],0,right,['1'],6,177,[0.06401909],99,47,medium,plus,dotcolour,beta,,,73,19,V,L,
191,65,23,4,1,33,47,2314,['c'],0,right,['1'],6,319,[0.10462606],99,47,medium,plus,dotcolour,beta,,,73,19,V,L,
192,66,24,4,1,53,27,798,['c'],1,left,"['2', '1']",5,300,[0.10781469],100,53,easy,plus,dotcolour,beta,,,73,19,V,L,
193,67,25,4,1,44,36,249,['c'],1,left,['1'],6,287,[0.12746165],100,44,hard,plus,dotcolour,beta,,,73,19,V,L,
194,68,26,4,1,27,53,117,['c'],0,right,['1'],6,1005,[-0.10131854],31,53,easy,plus,dotcolour,beta,,,73,19,V,L,
195,69,27,4,1,36,44,498,['c'],0,right,['1'],6,185,[0.0150656],95,44,hard,plus,dotcolour,beta,,,73,19,V,L,
196,70,28,4,1,44,36,850,['n'],0,left,['9'],2,265,[-0.00983669],91,44,hard,plus,dotcolour,beta,,,73,19,V,L,
197,71,29,4,1,44,36,1200,['c'],1,left,['1'],6,256,[0.08655216],99,44,hard,plus,dotcolour,beta,,,73,19,V,L,
198,72,30,4,1,33,47,515,['c'],0,right,['1'],6,187,[0.07152149],99,47,medium,plus,dotcolour,beta,,,73,19,V,L,
199,73,31,4,1,44,36,399,['c'],1,left,['1'],6,213,[0.06697811],99,44,hard,plus,dotcolour,beta,,,73,19,V,L,
200,74,32,4,1,27,53,697,['c'],0,right,['1'],6,169,[0.04661773],99,53,easy,plus,dotcolour,beta,,,73,19,V,L,
201,75,33,4,1,47,33,366,['c'],1,left,['1'],6,213,[0.08402315],100,47,medium,plus,dotcolour,beta,,,73,19,V,L,
202,76,34,4,1,36,44,449,['c'],0,right,['1'],6,244,[-0.0436167],61,44,hard,plus,dotcolour,beta,,,73,19,V,L,
203,77,35,4,1,47,33,107,['c'],1,left,['1'],6,291,[0.17132572],100,47,medium,plus,dotcolour,beta,,,73,19,V,L,
204,78,36,4,1,47,33,3031,['c'],1,left,['1'],6,328,[0.13347551],100,47,medium,plus,dotcolour,beta,,,73,19,V,L,
205,79,37,4,1,27,53,1764,['c'],0,right,['1'],6,877,[-0.03831209],58,53,easy,plus,dotcolour,beta,,,73,19,V,L,
206,80,38,4,1,47,33,115,['c'],1,left,['1'],6,379,[0.16451156],100,47,medium,plus,dotcolour,beta,,,73,19,V,L,
207,81,39,4,1,44,36,69,['c'],1,left,['1'],6,93,[0.07481694],100,44,hard,plus,dotcolour,beta,,,73,19,V,L,
208,82,40,4,1,33,47,2999,['n'],1,right,['0'],1,1114,[-0.20714706],99,47,medium,plus,dotcolour,beta,,,73,19,V,L,
209,83,41,4,1,44,36,62,['n'],0,left,['1'],6,830,[0.05262047],51,44,hard,plus,dotcolour,beta,,,73,19,V,L,
210,84,0,5,1,44,36,1033,['c'],1,left,['1'],6,1504,[0.26775172],99,44,hard,plus,dotcolour,beta,,,73,19,V,L,
211,85,1,5,1,53,27,365,['c'],1,left,['1'],6,342,[0.12238051],100,53,easy,plus,dotcolour,beta,,,73,19,V,L,
212,86,2,5,1,36,44,1848,['c'],0,right,['1'],6,368,[0.14411114],100,44,hard,plus,dotcolour,beta,,,73,19,V,L,
213,87,3,5,1,27,53,297,['c'],0,right,['1'],6,909,[0.0110163],78,53,easy,plus,dotcolour,beta,,,73,19,V,L,
214,88,4,5,1,36,44,398,['n'],1,right,['2'],5,1010,[-0.08335551],92,44,hard,plus,dotcolour,beta,,,73,19,V,L,
215,89,5,5,1,36,44,615,['c'],0,right,['1'],6,1042,[-0.04253954],56,44,hard,plus,dotcolour,beta,,,73,19,V,L,
216,90,6,5,1,47,33,398,['n'],0,left,['1'],6,401,[0.16729232],4,47,medium,plus,dotcolour,beta,,,73,19,V,L,
217,91,7,5,1,53,27,297,['c'],1,left,['1'],6,743,[0.09333819],96,53,easy,plus,dotcolour,beta,,,73,19,V,L,
218,92,8,5,1,33,47,681,['c'],0,right,['1'],6,439,[0.13573253],99,47,medium,plus,dotcolour,beta,,,73,19,V,L,
219,93,9,5,1,47,33,849,['c'],1,left,['1'],6,253,[0.15540241],100,47,medium,plus,dotcolour,beta,,,73,19,V,L,
220,94,10,5,1,44,36,897,['c'],1,left,['1'],6,152,[0.05709005],99,44,hard,plus,dotcolour,beta,,,73,19,V,L,
221,95,11,5,1,27,53,816,['n'],1,right,['1'],6,442,[-0.30584854],100,53,easy,plus,dotcolour,beta,,,73,19,V,L,
222,96,12,5,1,33,47,931,['n'],1,right,['1'],6,468,[-0.09309751],98,47,medium,plus,dotcolour,beta,,,73,19,V,L,
223,97,13,5,1,47,33,632,['n'],0,left,['1'],6,641,[0.07186027],41,47,medium,plus,dotcolour,beta,,,73,19,V,L,
224,98,14,5,1,53,27,365,['c'],1,left,['1'],6,259,[0.16195046],100,53,easy,plus,dotcolour,beta,,,73,19,V,L,
225,99,15,5,1,33,47,565,['c'],0,right,['1'],6,194,[0.0793688],100,47,medium,plus,dotcolour,beta,,,73,19,V,L,
226,100,16,5,1,27,53,331,['c'],0,right,['1'],6,150,[0.11011035],100,53,easy,plus,dotcolour,beta,,,73,19,V,L,
227,101,17,5,1,47,33,366,['c'],1,left,['1'],6,122,[0.1159294],100,47,medium,plus,dotcolour,beta,,,73,19,V,L,
228,102,18,5,1,53,27,883,['c'],1,left,['1'],6,140,[-0.01052113],90,53,easy,plus,dotcolour,beta,,,73,19,V,L,
229,103,19,5,1,44,36,447,['c'],1,left,['1'],6,205,[0.03922529],98,44,hard,plus,dotcolour,beta,,,73,19,V,L,
230,104,20,5,1,27,53,366,['c'],0,right,['1'],6,288,[0.13488919],100,53,easy,plus,dotcolour,beta,,,73,19,V,L,
231,105,21,5,1,33,47,314,['c'],0,right,['1'],6,192,[0.02093513],96,47,medium,plus,dotcolour,beta,,,73,19,V,L,
232,106,22,5,1,33,47,650,['c'],0,right,['1'],6,503,[-0.03885296],60,47,medium,plus,dotcolour,beta,,,73,19,V,L,
233,107,23,5,1,44,36,866,['c'],1,left,['1'],6,314,[0.12283898],100,44,hard,plus,dotcolour,beta,,,73,19,V,L,
234,108,24,5,1,47,33,331,['c'],1,left,['1'],6,409,[0.12541061],99,47,medium,plus,dotcolour,beta,,,73,19,V,L,
235,109,25,5,1,53,27,43,['c'],1,left,['1'],6,314,[0.09104556],99,53,easy,plus,dotcolour,beta,,,73,19,V,L,
236,110,26,5,1,33,47,700,['c'],0,right,['1'],6,323,[0.06805661],98,47,medium,plus,dotcolour,beta,,,73,19,V,L,
237,111,27,5,1,33,47,332,['c'],0,right,['1'],6,378,[0.0689631],97,47,medium,plus,dotcolour,beta,,,73,19,V,L,
238,112,28,5,1,44,36,331,['c'],1,left,['1'],6,398,[0.13196001],100,44,hard,plus,dotcolour,beta,,,73,19,V,L,
239,113,29,5,1,47,33,331,['c'],1,left,['1'],6,170,[0.08239435],100,47,medium,plus,dotcolour,beta,,,73,19,V,L,
240,114,30,5,1,36,44,265,['c'],0,right,['1'],6,154,[0.10147203],100,44,hard,plus,dotcolour,beta,,,73,19,V,L,
241,115,31,5,1,44,36,363,['c'],1,left,['1'],6,87,[0.08289575],100,44,hard,plus,dotcolour,beta,,,73,19,V,L,
242,116,32,5,1,47,33,682,['c'],1,left,['1'],6,161,[0.10674654],100,47,medium,plus,dotcolour,beta,,,73,19,V,L,
243,117,33,5,1,53,27,399,['c'],1,left,['1'],6,140,[-0.00551811],92,53,easy,plus,dotcolour,beta,,,73,19,V,L,
244,118,34,5,1,27,53,314,['c'],0,right,['1'],6,195,[0.05842295],99,53,easy,plus,dotcolour,beta,,,73,19,V,L,
245,119,35,5,1,36,44,2314,['c'],0,right,['1'],6,128,[0.04818719],99,44,hard,plus,dotcolour,beta,,,73,19,V,L,
246,120,36,5,1,36,44,700,['c'],0,right,['1'],6,144,[0.05749584],100,44,hard,plus,dotcolour,beta,,,73,19,V,L,
247,121,37,5,1,44,36,350,['c'],1,left,['1'],6,125,[0.09314352],100,44,hard,plus,dotcolour,beta,,,73,19,V,L,
248,122,38,5,1,53,27,332,['c'],1,left,"['2', '1']",5,140,[0.08426351],100,53,easy,plus,dotcolour,beta,,,73,19,V,L,
249,123,39,5,1,36,44,299,['c'],0,right,['2'],5,115,[0.04735543],100,44,hard,plus,dotcolour,beta,,,73,19,V,L,
250,124,40,5,1,27,53,498,['c'],0,right,['2'],5,100,[0.0500016],100,53,easy,plus,dotcolour,beta,,,73,19,V,L,
251,125,41,5,1,27,53,264,['c'],0,right,['2'],5,166,[-0.00742543],89,53,easy,plus,dotcolour,beta,,,73,19,V,L,
252,0,0,6,2,47,33,766,['c'],1,left,['2'],5,198,[0.06656747],61,47,medium,minus,dotcolour,beta,,,73,19,V,L,
253,1,1,6,2,27,53,450,['c'],0,right,['2'],5,157,[0.07693426],73,53,easy,minus,dotcolour,beta,,,73,19,V,L,
254,2,2,6,2,44,36,2749,['c'],1,left,['2'],5,203,[0.16395232],99,44,hard,minus,dotcolour,beta,,,73,19,V,L,
255,3,3,6,2,47,33,550,['c'],1,left,['2'],5,406,[0.12751623],88,47,medium,minus,dotcolour,beta,,,73,19,V,L,
256,4,4,6,2,27,53,416,['c'],0,right,['1'],6,302,[0.08111775],70,53,easy,minus,dotcolour,beta,,,73,19,V,L,
257,5,5,6,2,47,33,849,['c'],1,left,['1'],6,353,[0.07286472],63,47,medium,minus,dotcolour,beta,,,73,19,V,L,
258,6,6,6,2,44,36,315,['c'],1,left,['2'],5,159,[0.02209351],18,44,hard,minus,dotcolour,beta,,,73,19,V,L,
259,7,7,6,2,33,47,105,['c'],0,right,['2'],5,201,[0.04474004],39,47,medium,minus,dotcolour,beta,,,73,19,V,L,
260,8,8,6,2,36,44,316,['c'],0,right,['1'],6,246,[0.06894755],62,44,hard,minus,dotcolour,beta,,,73,19,V,L,
261,9,9,6,2,33,47,159,['n'],1,right,['9'],2,294,[-0.08007645],69,47,medium,minus,dotcolour,beta,,,73,19,V,L,
262,10,10,6,2,47,33,900,['n'],0,left,['0'],1,2455,[0.10877758],13,47,medium,minus,dotcolour,beta,,,73,19,V,L,
263,11,11,6,2,53,27,784,['c'],1,left,['1'],6,974,[0.22115118],95,53,easy,minus,dotcolour,beta,,,73,19,V,L,
264,12,12,6,2,47,33,1167,['c'],1,left,['2'],5,1026,[0.08190448],61,47,medium,minus,dotcolour,beta,,,73,19,V,L,
265,13,13,6,2,33,47,899,['c'],0,right,['3'],4,886,[-0.09820099],5,47,medium,minus,dotcolour,beta,,,73,19,V,L,
266,14,14,6,2,47,33,2080,['c'],1,left,['2'],5,728,[0.03172719],38,47,medium,minus,dotcolour,beta,,,73,19,V,L,
267,15,15,6,2,27,53,1900,['c'],0,right,['2'],5,656,[-0.09510003],3,53,easy,minus,dotcolour,beta,,,73,19,V,L,
268,16,16,6,2,36,44,1516,['n'],1,right,['9'],2,626,[-0.0920759],70,44,hard,minus,dotcolour,beta,,,73,19,V,L,
269,17,17,6,2,44,36,700,['c'],1,left,['2'],5,662,[0.18743631],95,44,hard,minus,dotcolour,beta,,,73,19,V,L,
270,18,18,6,2,44,36,915,['n'],0,left,['9'],2,335,[0.02473966],8,44,hard,minus,dotcolour,beta,,,73,19,V,L,
271,19,19,6,2,44,36,416,['c'],1,left,['1'],6,9659,[1.01025362],100,44,hard,minus,dotcolour,beta,,,73,19,V,L,
272,20,20,6,2,33,47,3498,['c'],0,right,['0'],1,1115,[-0.3240999],0,47,medium,minus,dotcolour,beta,,,73,19,V,L,
273,21,21,6,2,47,33,1298,['c'],1,left,['1'],6,732,[0.16422882],91,47,medium,minus,dotcolour,beta,,,73,19,V,L,
274,22,22,6,2,27,53,264,['c'],0,right,['2'],5,173,[0.0820544],76,53,easy,minus,dotcolour,beta,,,73,19,V,L,
275,23,23,6,2,36,44,749,['c'],0,right,['2'],5,225,[0.10163723],85,44,hard,minus,dotcolour,beta,,,73,19,V,L,
276,24,24,6,2,33,47,632,['c'],0,right,['2'],5,112,[0.03877239],29,47,medium,minus,dotcolour,beta,,,73,19,V,L,
277,25,25,6,2,27,53,533,['c'],0,right,['2'],5,87,[0.01322296],7,53,easy,minus,dotcolour,beta,,,73,19,V,L,
278,26,26,6,2,44,36,1115,['c'],1,left,['8'],3,1321,[-0.03973109],18,44,hard,minus,dotcolour,beta,,,73,19,V,L,
279,27,27,6,2,36,44,566,['n'],1,right,['0'],1,582,[-0.17544068],94,44,hard,minus,dotcolour,beta,,,73,19,V,L,
280,28,28,6,2,53,27,1130,['c'],1,left,['2'],5,978,[0.16220296],87,53,easy,minus,dotcolour,beta,,,73,19,V,L,
281,29,29,6,2,33,47,732,['n'],1,right,['0'],1,407,[-0.04053846],40,47,medium,minus,dotcolour,beta,,,73,19,V,L,
282,30,30,6,2,36,44,312,['c'],0,right,['1'],6,187,[0.05955263],54,44,hard,minus,dotcolour,beta,,,73,19,V,L,
283,31,31,6,2,53,27,383,['c'],1,left,['1'],6,246,[0.15362295],97,53,easy,minus,dotcolour,beta,,,73,19,V,L,
284,32,32,6,2,53,27,782,['c'],1,left,['1'],6,150,[0.09448109],86,53,easy,minus,dotcolour,beta,,,73,19,V,L,
285,33,33,6,2,36,44,17,['n'],1,right,['0'],1,89,[-0.10737052],96,44,hard,minus,dotcolour,beta,,,73,19,V,L,
286,34,34,6,2,53,27,332,['c'],1,left,['1'],6,161,[0.14777369],98,53,easy,minus,dotcolour,beta,,,73,19,V,L,
287,35,35,6,2,53,27,682,['n'],0,left,['0'],1,585,[0.05978319],6,53,easy,minus,dotcolour,beta,,,73,19,V,L,
288,36,36,6,2,53,27,932,['c'],1,left,['1'],6,229,[0.2098945],100,53,easy,minus,dotcolour,beta,,,73,19,V,L,
289,37,37,6,2,27,53,416,['n'],1,right,['0'],1,404,[-0.22180211],99,53,easy,minus,dotcolour,beta,,,73,19,V,L,
290,38,38,6,2,33,47,849,['c'],0,right,['2'],5,332,[0.1048195],82,47,medium,minus,dotcolour,beta,,,73,19,V,L,
291,39,39,6,2,36,44,381,['n'],1,right,['2'],5,185,[-0.05987404],55,44,hard,minus,dotcolour,beta,,,73,19,V,L,
292,40,40,6,2,44,36,833,['c'],1,left,['2'],5,185,[0.05712279],52,44,hard,minus,dotcolour,beta,,,73,19,V,L,
293,41,41,6,2,27,53,297,['c'],0,right,['2'],5,119,[0.1271208],98,53,easy,minus,dotcolour,beta,,,73,19,V,L,
294,42,0,7,2,47,33,1082,['c'],1,left,['2'],5,149,[0.05028202],44,47,medium,minus,dotcolour,beta,,,73,19,V,L,
295,43,1,7,2,44,36,1416,['c'],1,left,['2'],5,528,[0.05491704],50,44,hard,minus,dotcolour,beta,,,73,19,V,L,
296,44,2,7,2,27,53,530,['c'],0,right,['2'],5,190,[0.03328249],29,53,easy,minus,dotcolour,beta,,,73,19,V,L,
297,45,3,7,2,33,47,281,['c'],0,right,['2'],5,205,[-0.01230321],6,47,medium,minus,dotcolour,beta,,,73,19,V,L,
298,46,4,7,2,53,27,614,['c'],1,left,['3'],4,165,[0.11913952],94,53,easy,minus,dotcolour,beta,,,73,19,V,L,
299,47,5,7,2,47,33,781,['n'],0,left,['8'],3,321,[-0.06329737],56,47,medium,minus,dotcolour,beta,,,73,19,V,L,
300,48,6,7,2,47,33,531,['n'],0,left,['0'],1,296,[-0.05059382],46,47,medium,minus,dotcolour,beta,,,73,19,V,L,
301,49,7,7,2,36,44,365,['n'],1,right,['0'],1,2646,[-0.15282225],75,44,hard,minus,dotcolour,beta,,,73,19,V,L,
302,50,8,7,2,47,33,1767,['n'],0,left,['0'],1,1022,[0.18711537],1,47,medium,minus,dotcolour,beta,,,73,19,V,L,
303,51,9,7,2,27,53,2664,['c'],0,right,['2'],5,812,[0.01565418],31,53,easy,minus,dotcolour,beta,,,73,19,V,L,
304,52,10,7,2,47,33,265,['c'],1,left,['2'],5,1666,[0.16361814],82,47,medium,minus,dotcolour,beta,,,73,19,V,L,
305,53,11,7,2,44,36,166,['c'],1,left,['2'],5,160,[0.02287457],19,44,hard,minus,dotcolour,beta,,,73,19,V,L,
306,54,12,7,2,33,47,415,['c'],0,right,['2'],5,602,[0.04103202],42,47,medium,minus,dotcolour,beta,,,73,19,V,L,
307,55,13,7,2,36,44,1582,['c'],0,right,['2'],5,340,[0.14007389],93,44,hard,minus,dotcolour,beta,,,73,19,V,L,
308,56,14,7,2,53,27,764,['n'],0,left,['2'],5,456,[-0.09583963],75,53,easy,minus,dotcolour,beta,,,73,19,V,L,
309,57,15,7,2,27,53,71,['n'],1,right,['2'],5,191,[-0.13716483],97,53,easy,minus,dotcolour,beta,,,73,19,V,L,
310,58,16,7,2,53,27,57,['n'],0,left,['2'],5,97,[-0.07986007],80,53,easy,minus,dotcolour,beta,,,73,19,V,L,
311,59,17,7,2,33,47,3150,['c'],0,right,['2'],5,424,[0.11817923],85,47,medium,minus,dotcolour,beta,,,73,19,V,L,
312,60,18,7,2,47,33,917,['c'],1,left,['2'],5,451,[0.06342249],55,47,medium,minus,dotcolour,beta,,,73,19,V,L,
313,61,19,7,2,36,44,268,['c'],0,right,['2'],5,520,[-0.02098217],13,44,hard,minus,dotcolour,beta,,,73,19,V,L,
314,62,20,7,2,33,47,631,['c'],0,right,['2'],5,243,[0.06452651],58,47,medium,minus,dotcolour,beta,,,73,19,V,L,
315,63,21,7,2,36,44,1597,['c'],0,right,['2'],5,618,[0.0569612],51,44,hard,minus,dotcolour,beta,,,73,19,V,L,
316,64,22,7,2,47,33,732,['c'],1,left,['2'],5,134,[0.0440212],36,47,medium,minus,dotcolour,beta,,,73,19,V,L,
317,65,23,7,2,27,53,649,['c'],0,right,['2'],5,215,[0.05214861],47,53,easy,minus,dotcolour,beta,,,73,19,V,L,
318,66,24,7,2,33,47,664,['c'],0,right,['2'],5,134,[0.04155642],33,47,medium,minus,dotcolour,beta,,,73,19,V,L,
319,67,25,7,2,27,53,2083,['c'],0,right,['2'],5,246,[0.07259592],65,53,easy,minus,dotcolour,beta,,,73,19,V,L,
320,68,26,7,2,44,36,1580,['c'],1,left,['2'],5,126,[0.136183],98,44,hard,minus,dotcolour,beta,,,73,19,V,L,
321,69,27,7,2,44,36,632,['c'],1,left,['2'],5,49,[0.07260263],80,44,hard,minus,dotcolour,beta,,,73,19,V,L,
322,70,28,7,2,33,47,6014,['c'],0,right,['9'],2,3007,[-0.44652002],1,47,medium,minus,dotcolour,beta,,,73,19,V,L,
323,71,29,7,2,53,27,3680,['n'],0,left,['0'],1,1188,[0.10421184],7,53,easy,minus,dotcolour,beta,,,73,19,V,L,
324,72,30,7,2,44,36,648,['c'],1,left,['1'],6,636,[0.05876393],52,44,hard,minus,dotcolour,beta,,,73,19,V,L,
325,73,31,7,2,53,27,1299,['c'],1,left,['1'],6,1031,[0.15470648],85,53,easy,minus,dotcolour,beta,,,73,19,V,L,
326,74,32,7,2,36,44,1132,['c'],0,right,['1'],6,337,[0.07623857],66,44,hard,minus,dotcolour,beta,,,73,19,V,L,
327,75,33,7,2,27,53,6866,['n'],1,right,['1'],6,929,[-0.09921784],69,53,easy,minus,dotcolour,beta,,,73,19,V,L,
328,76,34,7,2,53,27,733,['c'],1,left,['1'],6,656,[0.23738507],98,53,easy,minus,dotcolour,beta,,,73,19,V,L,
329,77,35,7,2,44,36,3333,['n'],0,left,['2'],5,2457,[0.14224575],9,44,hard,minus,dotcolour,beta,,,73,19,V,L,
330,78,36,7,2,27,53,1349,['c'],0,right,['1'],6,3961,[-0.49603573],1,53,easy,minus,dotcolour,beta,,,73,19,V,L,
331,79,37,7,2,53,27,1031,['c'],1,left,['1'],6,345,[0.09973811],79,53,easy,minus,dotcolour,beta,,,73,19,V,L,
332,80,38,7,2,36,44,1482,['c'],0,right,['1'],6,441,[0.10961778],81,44,hard,minus,dotcolour,beta,,,73,19,V,L,
333,81,39,7,2,36,44,665,['c'],0,right,['1'],6,2174,[-0.09403077],14,44,hard,minus,dotcolour,beta,,,73,19,V,L,
334,82,40,7,2,44,36,547,['c'],1,left,['1'],6,250,[0.0269907],26,44,hard,minus,dotcolour,beta,,,73,19,V,L,
335,83,41,7,2,33,47,40,['c'],0,right,"['2', '1']",5,113,[0.01303823],9,47,medium,minus,dotcolour,beta,,,73,19,V,L,
336,84,0,8,2,27,53,683,['c'],0,right,['1'],6,928,[0.09398703],67,53,easy,minus,dotcolour,beta,,,73,19,V,L,
337,85,1,8,2,27,53,1132,['c'],0,right,['2'],5,111,[0.05361342],47,53,easy,minus,dotcolour,beta,,,73,19,V,L,
338,86,2,8,2,27,53,782,['c'],0,right,"['2', '1']",5,252,[0.05456868],49,53,easy,minus,dotcolour,beta,,,73,19,V,L,
339,87,3,8,2,36,44,1632,['n'],1,right,['0'],1,185,[-0.11788617],93,44,hard,minus,dotcolour,beta,,,73,19,V,L,
340,88,4,8,2,36,44,514,['n'],1,right,['2'],5,279,[-0.05131426],46,44,hard,minus,dotcolour,beta,,,73,19,V,L,
341,89,5,8,2,44,36,1549,['n'],0,left,['0'],1,151,[-0.03426804],27,44,hard,minus,dotcolour,beta,,,73,19,V,L,
342,90,6,8,2,33,47,382,['c'],0,right,['2'],5,170,[0.09968387],87,47,medium,minus,dotcolour,beta,,,73,19,V,L,
343,91,7,8,2,27,53,565,['c'],0,right,['2'],5,295,[-0.06663212],2,53,easy,minus,dotcolour,beta,,,73,19,V,L,
344,92,8,8,2,47,33,416,['n'],0,left,['0'],1,155,[0.02962147],2,47,medium,minus,dotcolour,beta,,,73,19,V,L,
345,93,9,8,2,47,33,366,['c'],1,left,['1'],6,224,[0.08711938],77,47,medium,minus,dotcolour,beta,,,73,19,V,L,
346,94,10,8,2,47,33,97,['n'],0,left,['0'],1,1391,[0.01311724],26,47,medium,minus,dotcolour,beta,,,73,19,V,L,
347,95,11,8,2,44,36,731,['n'],0,left,['0'],1,195,[-0.10467608],88,44,hard,minus,dotcolour,beta,,,73,19,V,L,
348,96,12,8,2,44,36,2950,['c'],1,left,['2'],5,1215,[0.20388888],92,44,hard,minus,dotcolour,beta,,,73,19,V,L,
349,97,13,8,2,36,44,1215,['c'],0,right,['2'],5,414,[0.05768679],51,44,hard,minus,dotcolour,beta,,,73,19,V,L,
350,98,14,8,2,36,44,70,['c'],0,right,['2'],5,551,[0.11039978],79,44,hard,minus,dotcolour,beta,,,73,19,V,L,
351,99,15,8,2,33,47,2032,['c'],0,right,['0'],1,1033,[-0.0721406],9,47,medium,minus,dotcolour,beta,,,73,19,V,L,
352,100,16,8,2,53,27,799,['n'],0,left,['2'],5,609,[0.00834838],19,53,easy,minus,dotcolour,beta,,,73,19,V,L,
353,101,17,8,2,44,36,482,['c'],1,left,['1'],6,934,[0.11725365],76,44,hard,minus,dotcolour,beta,,,73,19,V,L,
354,102,18,8,2,53,27,2083,['c'],1,left,['1'],6,1935,[0.38168217],99,53,easy,minus,dotcolour,beta,,,73,19,V,L,
355,103,19,8,2,53,27,865,['c'],1,left,['1'],6,591,[0.15643121],91,53,easy,minus,dotcolour,beta,,,73,19,V,L,
356,104,20,8,2,53,27,248,['c'],1,left,['1'],6,423,[0.13103959],89,53,easy,minus,dotcolour,beta,,,73,19,V,L,
357,105,21,8,2,44,36,582,['c'],1,left,['1'],6,679,[0.03652321],40,44,hard,minus,dotcolour,beta,,,73,19,V,L,
358,106,22,8,2,33,47,2282,['c'],0,right,['1'],6,170,[0.02463852],21,47,medium,minus,dotcolour,beta,,,73,19,V,L,
359,107,23,8,2,47,33,365,['c'],1,left,['1'],6,246,[0.04246458],38,47,medium,minus,dotcolour,beta,,,73,19,V,L,
360,108,24,8,2,33,47,4584,['n'],1,right,['1'],6,382,[-0.10651657],82,47,medium,minus,dotcolour,beta,,,73,19,V,L,
361,109,25,8,2,44,36,2899,['c'],1,left,['9'],2,2453,[0.3071164],95,44,hard,minus,dotcolour,beta,,,73,19,V,L,
362,110,26,8,2,27,53,1515,['c'],0,right,['2'],5,990,[-0.13818869],3,53,easy,minus,dotcolour,beta,,,73,19,V,L,
363,111,27,8,2,36,44,282,['c'],0,right,['2'],5,428,[-0.00132667],17,44,hard,minus,dotcolour,beta,,,73,19,V,L,
364,112,28,8,2,44,36,315,['c'],1,left,['2'],5,168,[0.07909467],74,44,hard,minus,dotcolour,beta,,,73,19,V,L,
365,113,29,8,2,36,44,299,['c'],0,right,['2'],5,214,[0.06663967],61,44,hard,minus,dotcolour,beta,,,73,19,V,L,
366,114,30,8,2,53,27,366,['n'],0,left,['9'],2,200,[-0.00470071],11,53,easy,minus,dotcolour,beta,,,73,19,V,L,
367,115,31,8,2,36,44,366,['c'],0,right,['2'],5,610,[-0.01902039],15,44,hard,minus,dotcolour,beta,,,73,19,V,L,
368,116,32,8,2,47,33,298,['c'],1,left,['2'],5,223,[0.13491171],95,47,medium,minus,dotcolour,beta,,,73,19,V,L,
369,117,33,8,2,33,47,266,['c'],0,right,['2'],5,173,[0.0431605],37,47,medium,minus,dotcolour,beta,,,73,19,V,L,
370,118,34,8,2,47,33,564,['c'],1,left,['2'],5,137,[0.11741307],95,47,medium,minus,dotcolour,beta,,,73,19,V,L,
371,119,35,8,2,47,33,582,['c'],1,left,['2'],5,109,[0.11236544],96,47,medium,minus,dotcolour,beta,,,73,19,V,L,
372,120,36,8,2,53,27,732,['c'],1,left,['2'],5,141,[0.09878101],89,53,easy,minus,dotcolour,beta,,,73,19,V,L,
373,121,37,8,2,33,47,714,['c'],0,right,['2'],5,211,[0.02294487],22,47,medium,minus,dotcolour,beta,,,73,19,V,L,
374,122,38,8,2,53,27,1464,['n'],0,left,['2'],5,2226,[0.11570115],11,53,easy,minus,dotcolour,beta,,,73,19,V,L,
375,123,39,8,2,27,53,598,['c'],0,right,['2'],5,193,[-0.01287539],6,53,easy,minus,dotcolour,beta,,,73,19,V,L,
376,124,40,8,2,27,53,432,['n'],1,right,['9'],2,408,[-0.11731489],85,53,easy,minus,dotcolour,beta,,,73,19,V,L,
377,125,41,8,2,33,47,649,['c'],0,right,['2'],5,136,[-0.00818113],4,47,medium,minus,dotcolour,beta,,,73,19,V,L,
378,0,0,9,3,27,53,550,['n'],1,right,['9'],2,1316,[-0.33310587],100,53,easy,plus,dotcolour,beta,,,73,19,V,L,
379,1,1,9,3,27,53,1182,['c'],0,right,['9'],2,626,[-0.09387104],29,53,easy,plus,dotcolour,beta,,,73,19,V,L,
380,2,2,9,3,33,47,366,['c'],0,right,['2'],5,130,[0.07723437],100,47,medium,plus,dotcolour,beta,,,73,19,V,L,
381,3,3,9,3,53,27,134,['c'],1,left,['2'],5,134,[0.15794561],100,53,easy,plus,dotcolour,beta,,,73,19,V,L,
382,4,4,9,3,44,36,280,['c'],1,left,['2'],5,215,[0.09209979],100,44,hard,plus,dotcolour,beta,,,73,19,V,L,
383,5,5,9,3,47,33,1165,['c'],1,left,['2'],5,201,[0.07577797],99,47,medium,plus,dotcolour,beta,,,73,19,V,L,
384,6,6,9,3,36,44,316,['c'],0,right,['2'],5,1877,[-0.30085614],4,44,hard,plus,dotcolour,beta,,,73,19,V,L,
385,7,7,9,3,33,47,466,['c'],0,right,['2'],5,121,[0.05915688],100,47,medium,plus,dotcolour,beta,,,73,19,V,L,
386,8,8,9,3,53,27,332,['c'],1,left,['2'],5,80,[0.09827657],100,53,easy,plus,dotcolour,beta,,,73,19,V,L,
387,9,9,9,3,27,53,1616,['c'],0,right,['2'],5,45,[0.05045838],100,53,easy,plus,dotcolour,beta,,,73,19,V,L,
388,10,10,9,3,53,27,448,['c'],1,left,['2'],5,162,[0.08494682],100,53,easy,plus,dotcolour,beta,,,73,19,V,L,
389,11,11,9,3,33,47,349,['c'],0,right,['2'],5,127,[0.1019003],100,47,medium,plus,dotcolour,beta,,,73,19,V,L,
390,12,12,9,3,33,47,382,['c'],0,right,['2'],5,148,[0.01064934],96,47,medium,plus,dotcolour,beta,,,73,19,V,L,
391,13,13,9,3,47,33,799,['c'],1,left,['2'],5,191,[0.0895795],100,47,medium,plus,dotcolour,beta,,,73,19,V,L,
392,14,14,9,3,27,53,349,['c'],0,right,['0'],1,298,[0.00994426],90,53,easy,plus,dotcolour,beta,,,73,19,V,L,
393,15,15,9,3,27,53,349,['c'],0,right,['9'],2,346,[0.10653715],99,53,easy,plus,dotcolour,beta,,,73,19,V,L,
394,16,16,9,3,53,27,466,['c'],1,left,['2'],5,171,[0.15307296],100,53,easy,plus,dotcolour,beta,,,73,19,V,L,
395,17,17,9,3,36,44,1365,['c'],0,right,['2'],5,134,[0.02911679],98,44,hard,plus,dotcolour,beta,,,73,19,V,L,
396,18,18,9,3,47,33,132,['c'],1,left,['2'],5,130,[0.00375847],95,47,medium,plus,dotcolour,beta,,,73,19,V,L,
397,19,19,9,3,44,36,1648,['c'],1,left,['2'],5,173,[0.12267158],100,44,hard,plus,dotcolour,beta,,,73,19,V,L,
398,20,20,9,3,47,33,364,['c'],1,left,['2'],5,208,[0.10261886],100,47,medium,plus,dotcolour,beta,,,73,19,V,L,
399,21,21,9,3,53,27,1450,['c'],1,left,['2'],5,167,[0.07903507],100,53,easy,plus,dotcolour,beta,,,73,19,V,L,
400,22,22,9,3,33,47,483,['c'],0,right,['2'],5,174,[0.08895256],100,47,medium,plus,dotcolour,beta,,,73,19,V,L,
401,23,23,9,3,44,36,79,['c'],1,left,['2'],5,64,[0.0360906],100,44,hard,plus,dotcolour,beta,,,73,19,V,L,
402,24,24,9,3,47,33,397,['c'],1,left,['2'],5,199,[0.159592],100,47,medium,plus,dotcolour,beta,,,73,19,V,L,
403,25,25,9,3,36,44,765,['c'],0,right,['2'],5,185,[0.04826145],99,44,hard,plus,dotcolour,beta,,,73,19,V,L,
404,26,26,9,3,36,44,349,['c'],0,right,['2'],5,454,[0.07479276],97,44,hard,plus,dotcolour,beta,,,73,19,V,L,
405,27,27,9,3,36,44,631,['c'],0,right,['2'],5,178,[0.07165725],100,44,hard,plus,dotcolour,beta,,,73,19,V,L,
406,28,28,9,3,27,53,399,['c'],0,right,['2'],5,197,[-0.00908516],87,53,easy,plus,dotcolour,beta,,,73,19,V,L,
407,29,29,9,3,36,44,298,['c'],0,right,['2'],5,209,[0.07471945],99,44,hard,plus,dotcolour,beta,,,73,19,V,L,
408,30,30,9,3,47,33,446,['c'],1,left,['2'],5,192,[0.05415572],99,47,medium,plus,dotcolour,beta,,,73,19,V,L,
409,31,31,9,3,53,27,749,['c'],1,left,['2'],5,204,[0.00228578],91,53,easy,plus,dotcolour,beta,,,73,19,V,L,
410,32,32,9,3,44,36,1149,['c'],1,left,['2'],5,175,[0.0846157],100,44,hard,plus,dotcolour,beta,,,73,19,V,L,
411,33,33,9,3,27,53,1032,['c'],0,right,['2'],5,247,[0.06116712],99,53,easy,plus,dotcolour,beta,,,73,19,V,L,
412,34,34,9,3,47,33,680,['n'],0,left,['9'],2,299,[-0.03462719],95,47,medium,plus,dotcolour,beta,,,73,19,V,L,
413,35,35,9,3,33,47,451,['c'],0,right,['2'],5,383,[0.01153032],88,47,medium,plus,dotcolour,beta,,,73,19,V,L,
414,36,36,9,3,33,47,48,['c'],0,right,['1'],6,697,[-0.01512245],71,47,medium,plus,dotcolour,beta,,,73,19,V,L,
415,37,37,9,3,44,36,2066,['c'],1,left,['2'],5,259,[0.14986687],100,44,hard,plus,dotcolour,beta,,,73,19,V,L,
416,38,38,9,3,53,27,465,['c'],1,left,['3'],4,983,[0.21599118],99,53,easy,plus,dotcolour,beta,,,73,19,V,L,
417,39,39,9,3,44,36,1582,['c'],1,left,['2'],5,433,[0.03577022],92,44,hard,plus,dotcolour,beta,,,73,19,V,L,
418,40,40,9,3,36,44,1416,['n'],1,right,['9'],2,1121,[-0.10211859],94,44,hard,plus,dotcolour,beta,,,73,19,V,L,
419,41,41,9,3,44,36,965,['c'],1,left,['2'],5,215,[0.08077331],99,44,hard,plus,dotcolour,beta,,,73,19,V,L,
420,42,0,10,3,27,53,1833,['c'],0,right,['2'],5,513,[0.05998907],95,53,easy,plus,dotcolour,beta,,,73,19,V,L,
421,43,1,10,3,33,47,682,['c'],0,right,['2'],5,410,[-0.09279664],26,47,medium,plus,dotcolour,beta,,,73,19,V,L,
422,44,2,10,3,53,27,382,['c'],1,left,['2'],5,404,[0.20774327],100,53,easy,plus,dotcolour,beta,,,73,19,V,L,
423,45,3,10,3,33,47,1415,['n'],1,right,['9'],2,781,[-0.25884322],100,47,medium,plus,dotcolour,beta,,,73,19,V,L,
424,46,4,10,3,53,27,332,['c'],1,left,['2'],5,416,[0.07336903],97,53,easy,plus,dotcolour,beta,,,73,19,V,L,
425,47,5,10,3,44,36,817,['n'],0,left,['9'],2,361,[-0.05729246],97,44,hard,plus,dotcolour,beta,,,73,19,V,L,
426,48,6,10,3,53,27,666,['c'],1,left,['2'],5,289,[0.04247873],96,53,easy,plus,dotcolour,beta,,,73,19,V,L,
427,49,7,10,3,53,27,1016,['c'],1,left,['2'],5,230,[0.15119462],100,53,easy,plus,dotcolour,beta,,,73,19,V,L,
428,50,8,10,3,27,53,548,['c'],0,right,['2'],5,144,[0.07313022],100,53,easy,plus,dotcolour,beta,,,73,19,V,L,
429,51,9,10,3,53,27,549,['c'],1,left,['2'],5,245,[0.13156272],100,53,easy,plus,dotcolour,beta,,,73,19,V,L,
430,52,10,10,3,36,44,665,['c'],0,right,['2'],5,242,[0.0771966],99,44,hard,plus,dotcolour,beta,,,73,19,V,L,
431,53,11,10,3,44,36,3164,['c'],1,left,['2'],5,179,[0.03538954],98,44,hard,plus,dotcolour,beta,,,73,19,V,L,
432,54,12,10,3,44,36,448,['c'],1,left,['2'],5,195,[0.05225083],99,44,hard,plus,dotcolour,beta,,,73,19,V,L,
433,55,13,10,3,33,47,1932,['c'],0,right,['2'],5,182,[0.01473003],95,47,medium,plus,dotcolour,beta,,,73,19,V,L,
434,56,14,10,3,33,47,567,['c'],0,right,['2'],5,202,[0.05631332],99,47,medium,plus,dotcolour,beta,,,73,19,V,L,
435,57,15,10,3,27,53,1816,['c'],0,right,['2'],5,267,[0.02609703],95,53,easy,plus,dotcolour,beta,,,73,19,V,L,
436,58,16,10,3,27,53,1648,['c'],0,right,['2'],5,216,[0.0197182],95,53,easy,plus,dotcolour,beta,,,73,19,V,L,
437,59,17,10,3,27,53,39,['c'],0,right,['2'],5,48,[0.12478167],100,53,easy,plus,dotcolour,beta,,,73,19,V,L,
438,60,18,10,3,47,33,1899,['c'],1,left,['2'],5,227,[0.10068079],100,47,medium,plus,dotcolour,beta,,,73,19,V,L,
439,61,19,10,3,47,33,1215,['c'],1,left,['2'],5,235,[0.17830073],100,47,medium,plus,dotcolour,beta,,,73,19,V,L,
440,62,20,10,3,33,47,898,['c'],0,right,['2'],5,231,[0.04224938],97,47,medium,plus,dotcolour,beta,,,73,19,V,L,
441,63,21,10,3,36,44,516,['c'],0,right,['2'],5,234,[0.10722551],100,44,hard,plus,dotcolour,beta,,,73,19,V,L,
442,64,22,10,3,44,36,49,['c'],1,left,['2'],5,73,[0.12402728],100,44,hard,plus,dotcolour,beta,,,73,19,V,L,
443,65,23,10,3,44,36,265,['c'],1,left,['2'],5,158,[0.07105582],100,44,hard,plus,dotcolour,beta,,,73,19,V,L,
444,66,24,10,3,33,47,72,['c'],0,right,['2'],5,177,[0.05005666],99,47,medium,plus,dotcolour,beta,,,73,19,V,L,
445,67,25,10,3,27,53,398,['c'],0,right,['2'],5,3986,[-0.38653156],5,53,easy,plus,dotcolour,beta,,,73,19,V,L,
446,68,26,10,3,53,27,865,['c'],1,left,['2'],5,336,[0.1355049],100,53,easy,plus,dotcolour,beta,,,73,19,V,L,
447,69,27,10,3,47,33,2232,['c'],1,left,['3'],4,531,[0.13731745],99,47,medium,plus,dotcolour,beta,,,73,19,V,L,
448,70,28,10,3,36,44,1683,['c'],0,right,['1'],6,1179,[-0.04668488],54,44,hard,plus,dotcolour,beta,,,73,19,V,L,
449,71,29,10,3,47,33,6896,['c'],1,left,['2'],5,233,[0.10615613],100,47,medium,plus,dotcolour,beta,,,73,19,V,L,
450,72,30,10,3,36,44,731,['c'],0,right,['9'],2,1235,[-0.32636159],1,44,hard,plus,dotcolour,beta,,,73,19,V,L,
451,73,31,10,3,47,33,1483,['c'],1,left,['9'],2,959,[0.2484273],100,47,medium,plus,dotcolour,beta,,,73,19,V,L,
452,74,32,10,3,36,44,715,['c'],0,right,['9'],2,453,[0.11213423],99,44,hard,plus,dotcolour,beta,,,73,19,V,L,
453,75,33,10,3,36,44,566,['c'],0,right,['9'],2,582,[0.02398978],87,44,hard,plus,dotcolour,beta,,,73,19,V,L,
454,76,34,10,3,47,33,316,['c'],1,left,['9'],2,467,[0.1676462],100,47,medium,plus,dotcolour,beta,,,73,19,V,L,
455,77,35,10,3,47,33,2463,['c'],1,left,['9'],2,631,[0.04989006],92,47,medium,plus,dotcolour,beta,,,73,19,V,L,
456,78,36,10,3,33,47,3100,['c'],0,right,['2'],5,531,[0.1184733],99,47,medium,plus,dotcolour,beta,,,73,19,V,L,
457,79,37,10,3,27,53,1165,['c'],0,right,['2'],5,224,[0.14793131],100,53,easy,plus,dotcolour,beta,,,73,19,V,L,
458,80,38,10,3,44,36,16,['c'],1,left,['2'],5,63,[0.06579301],100,44,hard,plus,dotcolour,beta,,,73,19,V,L,
459,81,39,10,3,53,27,1681,['c'],1,left,['2'],5,211,[0.05418084],99,53,easy,plus,dotcolour,beta,,,73,19,V,L,
460,82,40,10,3,36,44,399,['c'],0,right,['2'],5,219,[0.03821525],97,44,hard,plus,dotcolour,beta,,,73,19,V,L,
461,83,41,10,3,44,36,283,['c'],1,left,['2'],5,177,[0.10131965],100,44,hard,plus,dotcolour,beta,,,73,19,V,L,
462,84,0,11,3,33,47,367,['c'],0,right,['2'],5,197,[0.09489773],100,47,medium,plus,dotcolour,beta,,,73,19,V,L,
463,85,1,11,3,36,44,466,['c'],0,right,['2'],5,228,[0.05465022],98,44,hard,plus,dotcolour,beta,,,73,19,V,L,
464,86,2,11,3,36,44,1248,['c'],0,right,['2'],5,210,[0.06438699],99,44,hard,plus,dotcolour,beta,,,73,19,V,L,
465,87,3,11,3,44,36,1649,['c'],1,left,['2'],5,137,[0.08271563],100,44,hard,plus,dotcolour,beta,,,73,19,V,L,
466,88,4,11,3,33,47,1332,['c'],0,right,['2'],5,238,[0.00115608],89,47,medium,plus,dotcolour,beta,,,73,19,V,L,
467,89,5,11,3,27,53,1899,['c'],0,right,['2'],5,203,[0.04353276],98,53,easy,plus,dotcolour,beta,,,73,19,V,L,
468,90,6,11,3,33,47,1130,['c'],0,right,['2'],5,359,[0.03015985],93,47,medium,plus,dotcolour,beta,,,73,19,V,L,
469,91,7,11,3,27,53,1365,['c'],0,right,['2'],5,219,[0.04815433],98,53,easy,plus,dotcolour,beta,,,73,19,V,L,
470,92,8,11,3,53,27,2216,['c'],1,left,['2'],5,235,[0.1315328],100,53,easy,plus,dotcolour,beta,,,73,19,V,L,
471,93,9,11,3,53,27,1330,['c'],1,left,['2'],5,1085,[0.27475437],100,53,easy,plus,dotcolour,beta,,,73,19,V,L,
472,94,10,11,3,44,36,415,['c'],1,left,['2'],5,1530,[0.01031438],72,44,hard,plus,dotcolour,beta,,,73,19,V,L,
473,95,11,11,3,47,33,9566,['n'],0,left,['0'],1,1255,[0.02255587],63,47,medium,plus,dotcolour,beta,,,73,19,V,L,
474,96,12,11,3,36,44,367,['c'],0,right,['2'],5,495,[0.0533541],94,44,hard,plus,dotcolour,beta,,,73,19,V,L,
475,97,13,11,3,47,33,188,['n'],0,left,['9'],2,444,[-0.00184669],83,47,medium,plus,dotcolour,beta,,,73,19,V,L,
476,98,14,11,3,44,36,1316,['c'],1,left,['2'],5,262,[-0.01109508],83,44,hard,plus,dotcolour,beta,,,73,19,V,L,
477,99,15,11,3,36,44,5214,['c'],0,right,['2'],5,940,[-0.0881637],35,44,hard,plus,dotcolour,beta,,,73,19,V,L,
478,100,16,11,3,44,36,498,['c'],1,left,['2'],5,140,[0.12401324],100,44,hard,plus,dotcolour,beta,,,73,19,V,L,
479,101,17,11,3,36,44,5181,['c'],0,right,['2'],5,313,[0.10852621],99,44,hard,plus,dotcolour,beta,,,73,19,V,L,
480,102,18,11,3,27,53,449,['c'],0,right,['2'],5,172,[0.12885006],100,53,easy,plus,dotcolour,beta,,,73,19,V,L,
481,103,19,11,3,27,53,3515,['c'],0,right,['3'],4,177,[0.06436803],99,53,easy,plus,dotcolour,beta,,,73,19,V,L,
482,104,20,11,3,27,53,282,['c'],0,right,['3'],4,32,[0.06883327],100,53,easy,plus,dotcolour,beta,,,73,19,V,L,
483,105,21,11,3,44,36,2298,['c'],1,left,['3'],4,252,[0.08642502],99,44,hard,plus,dotcolour,beta,,,73,19,V,L,
484,106,22,11,3,47,33,1398,['c'],1,left,['3'],4,412,[0.16979889],100,47,medium,plus,dotcolour,beta,,,73,19,V,L,
485,107,23,11,3,44,36,2815,['c'],1,left,['2'],5,1003,[0.26560111],100,44,hard,plus,dotcolour,beta,,,73,19,V,L,
486,108,24,11,3,36,44,5482,['n'],1,right,['9'],2,857,[-0.24054305],100,44,hard,plus,dotcolour,beta,,,73,19,V,L,
487,109,25,11,3,47,33,299,['c'],1,left,['1'],6,636,[0.10704555],98,47,medium,plus,dotcolour,beta,,,73,19,V,L,
488,110,26,11,3,27,53,1699,['c'],0,right,['2'],5,311,[-0.07399077],36,53,easy,plus,dotcolour,beta,,,73,19,V,L,
489,111,27,11,3,47,33,17,['c'],1,left,['2'],5,363,[0.01694918],90,47,medium,plus,dotcolour,beta,,,73,19,V,L,
490,112,28,11,3,47,33,433,['c'],1,left,['2'],5,285,[0.10088991],99,47,medium,plus,dotcolour,beta,,,73,19,V,L,
491,113,29,11,3,53,27,533,['c'],1,left,['2'],5,253,[0.12518087],100,53,easy,plus,dotcolour,beta,,,73,19,V,L,
492,114,30,11,3,53,27,334,['c'],1,left,['2'],5,207,[0.13337003],100,53,easy,plus,dotcolour,beta,,,73,19,V,L,
493,115,31,11,3,36,44,648,['n'],1,right,['9'],2,222,[-0.12481818],100,44,hard,plus,dotcolour,beta,,,73,19,V,L,
494,116,32,11,3,53,27,383,['c'],1,left,['1'],6,191,[0.02581701],97,53,easy,plus,dotcolour,beta,,,73,19,V,L,
495,117,33,11,3,33,47,348,['c'],0,right,['1'],6,194,[0.06251273],99,47,medium,plus,dotcolour,beta,,,73,19,V,L,
496,118,34,11,3,47,33,1566,['c'],1,left,['2'],5,101,[0.08669818],100,47,medium,plus,dotcolour,beta,,,73,19,V,L,
497,119,35,11,3,44,36,332,['c'],1,left,['1'],6,708,[-0.00375986],75,44,hard,plus,dotcolour,beta,,,73,19,V,L,
498,120,36,11,3,33,47,400,['c'],0,right,['1'],6,281,[0.08759858],99,47,medium,plus,dotcolour,beta,,,73,19,V,L,
499,121,37,11,3,27,53,633,['c'],0,right,['1'],6,197,[0.14813056],100,53,easy,plus,dotcolour,beta,,,73,19,V,L,
500,122,38,11,3,53,27,2117,['c'],1,left,['1'],6,451,[0.03527184],92,53,easy,plus,dotcolour,beta,,,73,19,V,L,
501,123,39,11,3,33,47,431,['c'],0,right,['1'],6,504,[-0.19594967],3,47,medium,plus,dotcolour,beta,,,73,19,V,L,
502,124,40,11,3,33,47,682,['n'],1,right,['2'],5,305,[-0.05601007],97,47,medium,plus,dotcolour,beta,,,73,19,V,L,
503,125,41,11,3,53,27,1047,['n'],0,left,['9'],2,668,[-0.00983793],81,53,easy,plus,dotcolour,beta,,,73,19,V,L,
504,0,0,12,4,44,36,1416,['c'],1,left,['9'],2,711,[0.10519938],74,44,hard,minus,dotcolour,beta,,,73,19,V,L,
505,1,1,12,4,27,53,383,['n'],1,right,['9'],2,325,[-0.02982486],31,53,easy,minus,dotcolour,beta,,,73,19,V,L,
506,2,2,12,4,27,53,381,['c'],0,right,['2'],5,138,[0.05126286],45,53,easy,minus,dotcolour,beta,,,73,19,V,L,
507,3,3,12,4,53,27,432,['n'],0,left,['9'],2,164,[-0.06094104],56,53,easy,minus,dotcolour,beta,,,73,19,V,L,
508,4,4,12,4,27,53,266,['c'],0,right,['2'],5,156,[0.02765098],22,53,easy,minus,dotcolour,beta,,,73,19,V,L,
509,5,5,12,4,33,47,349,['c'],0,right,['2'],5,129,[0.01159811],10,47,medium,minus,dotcolour,beta,,,73,19,V,L,
510,6,6,12,4,44,36,216,['c'],1,left,['2'],5,117,[0.06486752],62,44,hard,minus,dotcolour,beta,,,73,19,V,L,
511,7,7,12,4,36,44,316,['c'],0,right,['2'],5,100,[0.09760371],92,44,hard,minus,dotcolour,beta,,,73,19,V,L,
512,8,8,12,4,53,27,1266,['c'],1,left,['2'],5,151,[0.1820292],100,53,easy,minus,dotcolour,beta,,,73,19,V,L,
513,9,9,12,4,47,33,515,['n'],0,left,['9'],2,230,[0.02295488],5,47,medium,minus,dotcolour,beta,,,73,19,V,L,
514,10,10,12,4,47,33,816,['c'],1,left,['2'],5,213,[0.10436509],87,47,medium,minus,dotcolour,beta,,,73,19,V,L,
515,11,11,12,4,36,44,1049,['c'],0,right,['2'],5,124,[0.14015369],99,44,hard,minus,dotcolour,beta,,,73,19,V,L,
516,12,12,12,4,47,33,331,['c'],1,left,['2'],5,234,[-0.00374043],10,47,medium,minus,dotcolour,beta,,,73,19,V,L,
517,13,13,12,4,53,27,348,['c'],1,left,['2'],5,76,[0.07295612],76,53,easy,minus,dotcolour,beta,,,73,19,V,L,
518,14,14,12,4,36,44,398,['c'],0,right,['2'],5,146,[0.07067092],67,44,hard,minus,dotcolour,beta,,,73,19,V,L,
519,15,15,12,4,33,47,102,['c'],0,right,['2'],5,61,[0.02831699],12,47,medium,minus,dotcolour,beta,,,73,19,V,L,
520,16,16,12,4,44,36,315,['n'],0,left,['9'],2,168,[-0.10034858],88,44,hard,minus,dotcolour,beta,,,73,19,V,L,
521,17,17,12,4,33,47,333,['c'],0,right,['2'],5,213,[0.06769941],62,47,medium,minus,dotcolour,beta,,,73,19,V,L,
522,18,18,12,4,44,36,550,['c'],1,left,['2'],5,70,[0.05445818],48,44,hard,minus,dotcolour,beta,,,73,19,V,L,
523,19,19,12,4,53,27,349,['c'],1,left,['2'],5,111,[0.13672618],99,53,easy,minus,dotcolour,beta,,,73,19,V,L,
524,20,20,12,4,27,53,432,['c'],0,right,['2'],5,131,[0.01838292],14,53,easy,minus,dotcolour,beta,,,73,19,V,L,
525,21,21,12,4,27,53,413,['c'],0,right,['2'],5,102,[0.02380458],14,53,easy,minus,dotcolour,beta,,,73,19,V,L,
526,22,22,12,4,53,27,1213,['c'],1,left,['2'],5,179,[0.12836896],96,53,easy,minus,dotcolour,beta,,,73,19,V,L,
527,23,23,12,4,33,47,649,['c'],0,right,['2'],5,147,[0.03387453],27,47,medium,minus,dotcolour,beta,,,73,19,V,L,
528,24,24,12,4,36,44,498,['c'],0,right,['2'],5,146,[0.05324129],47,44,hard,minus,dotcolour,beta,,,73,19,V,L,
529,25,25,12,4,33,47,465,['c'],0,right,['2'],5,138,[0.07776285],75,47,medium,minus,dotcolour,beta,,,73,19,V,L,
530,26,26,12,4,47,33,498,['c'],1,left,['2'],5,129,[0.06689779],64,47,medium,minus,dotcolour,beta,,,73,19,V,L,
531,27,27,12,4,27,53,648,['c'],0,right,['2'],5,163,[-0.0046206],6,53,easy,minus,dotcolour,beta,,,73,19,V,L,
532,28,28,12,4,47,33,284,['c'],1,left,['2'],5,139,[-0.01776905],3,47,medium,minus,dotcolour,beta,,,73,19,V,L,
533,29,29,12,4,33,47,465,['c'],0,right,['2'],5,316,[0.01812187],23,47,medium,minus,dotcolour,beta,,,73,19,V,L,
534,30,30,12,4,44,36,176,['c'],1,left,['2'],5,120,[0.08419325],82,44,hard,minus,dotcolour,beta,,,73,19,V,L,
535,31,31,12,4,36,44,447,['c'],0,right,['2'],5,35,[0.10105445],99,44,hard,minus,dotcolour,beta,,,73,19,V,L,
536,32,32,12,4,44,36,384,['c'],1,left,['2'],5,116,[0.07039261],69,44,hard,minus,dotcolour,beta,,,73,19,V,L,
537,33,33,12,4,53,27,1533,['c'],1,left,['2'],5,155,[0.13617387],98,53,easy,minus,dotcolour,beta,,,73,19,V,L,
538,34,34,12,4,27,53,2501,['c'],0,right,['2'],5,202,[0.06826534],62,53,easy,minus,dotcolour,beta,,,73,19,V,L,
539,35,35,12,4,33,47,233,['c'],0,right,['2'],5,194,[0.00437222],11,47,medium,minus,dotcolour,beta,,,73,19,V,L,
540,36,36,12,4,47,33,2166,['c'],1,left,['8'],3,5069,[0.58173107],99,47,medium,minus,dotcolour,beta,,,73,19,V,L,
541,37,37,12,4,44,36,432,['c'],1,left,['3'],4,824,[0.11485938],76,44,hard,minus,dotcolour,beta,,,73,19,V,L,
542,38,38,12,4,53,27,749,['c'],1,left,['3'],4,1354,[0.08864877],63,53,easy,minus,dotcolour,beta,,,73,19,V,L,
543,39,39,12,4,36,44,1032,['c'],0,right,['1'],6,659,[0.03628542],39,44,hard,minus,dotcolour,beta,,,73,19,V,L,
544,40,40,12,4,36,44,914,['n'],1,right,['9'],2,373,[-0.07857136],66,44,hard,minus,dotcolour,beta,,,73,19,V,L,
545,41,41,12,4,47,33,1682,['c'],1,left,['2'],5,1092,[0.12142967],76,47,medium,minus,dotcolour,beta,,,73,19,V,L,
546,42,0,13,4,44,36,716,['c'],1,left,['3'],4,192,[0.08376472],76,44,hard,minus,dotcolour,beta,,,73,19,V,L,
547,43,1,13,4,33,47,483,['c'],0,right,['2'],5,470,[0.06815794],58,47,medium,minus,dotcolour,beta,,,73,19,V,L,
548,44,2,13,4,36,44,3948,['n'],1,right,['2'],5,710,[-0.01099088],28,44,hard,minus,dotcolour,beta,,,73,19,V,L,
549,45,3,13,4,33,47,1516,['n'],1,right,['2'],5,358,[-0.0874938],72,47,medium,minus,dotcolour,beta,,,73,19,V,L,
550,46,4,13,4,27,53,599,['n'],1,right,['2'],5,209,[-0.14635419],97,53,easy,minus,dotcolour,beta,,,73,19,V,L,
551,47,5,13,4,53,27,1714,['c'],1,left,['2'],5,381,[0.1773004],97,53,easy,minus,dotcolour,beta,,,73,19,V,L,
552,48,6,13,4,47,33,717,['c'],1,left,['2'],5,258,[0.05449411],49,47,medium,minus,dotcolour,beta,,,73,19,V,L,
553,49,7,13,4,47,33,717,['c'],1,left,['2'],5,1124,[0.11490837],73,47,medium,minus,dotcolour,beta,,,73,19,V,L,
554,50,8,13,4,47,33,532,['c'],1,left,['2'],5,163,[0.041286],35,47,medium,minus,dotcolour,beta,,,73,19,V,L,
555,51,9,13,4,53,27,432,['c'],1,left,['2'],5,356,[0.1579654],96,53,easy,minus,dotcolour,beta,,,73,19,V,L,
556,52,10,13,4,33,47,466,['c'],0,right,['9'],2,2372,[-0.40530377],0,47,medium,minus,dotcolour,beta,,,73,19,V,L,
557,53,11,13,4,27,53,3098,['c'],0,right,['2'],5,2178,[-0.1363024],9,53,easy,minus,dotcolour,beta,,,73,19,V,L,
558,54,12,13,4,36,44,1365,['n'],1,right,['2'],5,557,[-0.11416401],80,44,hard,minus,dotcolour,beta,,,73,19,V,L,
559,55,13,13,4,53,27,465,['c'],1,left,['2'],5,1268,[0.31827047],99,53,easy,minus,dotcolour,beta,,,73,19,V,L,
560,56,14,13,4,44,36,583,['c'],1,left,['2'],5,379,[0.18172352],98,44,hard,minus,dotcolour,beta,,,73,19,V,L,
561,57,15,13,4,53,27,433,['c'],1,left,['2'],5,700,[0.13214649],84,53,easy,minus,dotcolour,beta,,,73,19,V,L,
562,58,16,13,4,44,36,764,['c'],1,left,['2'],5,194,[0.03838445],33,44,hard,minus,dotcolour,beta,,,73,19,V,L,
563,59,17,13,4,33,47,2664,['c'],0,right,['2'],5,217,[0.00097499],11,47,medium,minus,dotcolour,beta,,,73,19,V,L,
564,60,18,13,4,36,44,2782,['c'],0,right,['2'],5,451,[0.10125993],77,44,hard,minus,dotcolour,beta,,,73,19,V,L,
565,61,19,13,4,27,53,2398,['n'],1,right,['1'],6,1465,[-0.26811419],96,53,easy,minus,dotcolour,beta,,,73,19,V,L,
566,62,20,13,4,53,27,866,['c'],1,left,['2'],5,524,[0.21934931],98,53,easy,minus,dotcolour,beta,,,73,19,V,L,
567,63,21,13,4,27,53,949,['c'],0,right,['2'],5,290,[0.08538406],73,53,easy,minus,dotcolour,beta,,,73,19,V,L,
568,64,22,13,4,33,47,916,['c'],0,right,['2'],5,515,[0.06087652],53,47,medium,minus,dotcolour,beta,,,73,19,V,L,
569,65,23,13,4,33,47,749,['c'],0,right,['2'],5,777,[0.04434748],44,47,medium,minus,dotcolour,beta,,,73,19,V,L,
570,66,24,13,4,27,53,3099,['c'],0,right,['1'],6,688,[-0.03286241],13,53,easy,minus,dotcolour,beta,,,73,19,V,L,
571,67,25,13,4,44,36,1466,['c'],1,left,['2'],5,282,[0.06951337],62,44,hard,minus,dotcolour,beta,,,73,19,V,L,
572,68,26,13,4,36,44,449,['c'],0,right,['3'],4,198,[0.11990594],93,44,hard,minus,dotcolour,beta,,,73,19,V,L,
573,69,27,13,4,47,33,432,['c'],1,left,['2'],5,166,[0.13418798],97,47,medium,minus,dotcolour,beta,,,73,19,V,L,
574,70,28,13,4,44,36,415,['c'],1,left,['1'],6,192,[0.03823901],33,44,hard,minus,dotcolour,beta,,,73,19,V,L,
575,71,29,13,4,27,53,448,['c'],0,right,['3'],4,184,[0.0237342],21,53,easy,minus,dotcolour,beta,,,73,19,V,L,
576,72,30,13,4,53,27,483,['c'],1,left,['3'],4,207,[0.14667694],97,53,easy,minus,dotcolour,beta,,,73,19,V,L,
577,73,31,13,4,27,53,1583,['n'],1,right,['1'],6,1024,[-0.10277204],70,53,easy,minus,dotcolour,beta,,,73,19,V,L,
578,74,32,13,4,47,33,999,['c'],1,left,['2'],5,488,[0.17303482],95,47,medium,minus,dotcolour,beta,,,73,19,V,L,
579,75,33,13,4,47,33,951,['n'],0,left,['2'],5,608,[-0.08560124],67,47,medium,minus,dotcolour,beta,,,73,19,V,L,
580,76,34,13,4,44,36,3866,['c'],1,left,['1'],6,694,[0.10023109],72,44,hard,minus,dotcolour,beta,,,73,19,V,L,
581,77,35,13,4,33,47,9249,['c'],0,right,['2'],5,1201,[-0.20647108],1,47,medium,minus,dotcolour,beta,,,73,19,V,L,
582,78,36,13,4,36,44,3716,['n'],1,right,['0'],1,518,[0.09001624],3,44,hard,minus,dotcolour,beta,,,73,19,V,L,
583,79,37,13,4,53,27,1315,['c'],1,left,['3'],4,709,[0.20048864],96,53,easy,minus,dotcolour,beta,,,73,19,V,L,
584,80,38,13,4,36,44,633,['c'],0,right,['3'],4,168,[0.0704724],66,44,hard,minus,dotcolour,beta,,,73,19,V,L,
585,81,39,13,4,47,33,466,['c'],1,left,['3'],4,120,[0.07327481],72,47,medium,minus,dotcolour,beta,,,73,19,V,L,
586,82,40,13,4,36,44,383,['c'],0,right,['3'],4,150,[0.02178568],17,44,hard,minus,dotcolour,beta,,,73,19,V,L,
587,83,41,13,4,44,36,699,['c'],1,left,['3'],4,174,[0.03804045],32,44,hard,minus,dotcolour,beta,,,73,19,V,L,
588,84,0,14,4,36,44,567,['c'],0,right,['3'],4,123,[0.09214504],87,44,hard,minus,dotcolour,beta,,,73,19,V,L,
589,85,1,14,4,33,47,732,['c'],0,right,['2'],5,490,[-0.01958448],13,47,medium,minus,dotcolour,beta,,,73,19,V,L,
590,86,2,14,4,44,36,749,['c'],1,left,['2'],5,145,[0.13164506],97,44,hard,minus,dotcolour,beta,,,73,19,V,L,
591,87,3,14,4,44,36,648,['c'],1,left,['2'],5,170,[0.02468635],21,44,hard,minus,dotcolour,beta,,,73,19,V,L,
592,88,4,14,4,44,36,632,['c'],1,left,['3'],4,212,[0.08490445],76,44,hard,minus,dotcolour,beta,,,73,19,V,L,
593,89,5,14,4,47,33,615,['c'],1,left,['2'],5,436,[0.25703947],100,47,medium,minus,dotcolour,beta,,,73,19,V,L,
594,90,6,14,4,36,44,1632,['n'],1,right,['2'],5,1106,[-0.00396377],29,44,hard,minus,dotcolour,beta,,,73,19,V,L,
595,91,7,14,4,53,27,466,['c'],1,left,['2'],5,108,[0.08091536],80,53,easy,minus,dotcolour,beta,,,73,19,V,L,
596,92,8,14,4,47,33,731,['c'],1,left,['2'],5,171,[0.05976374],55,47,medium,minus,dotcolour,beta,,,73,19,V,L,
597,93,9,14,4,27,53,481,['c'],0,right,['2'],5,195,[0.05836313],53,53,easy,minus,dotcolour,beta,,,73,19,V,L,
598,94,10,14,4,47,33,1032,['c'],1,left,['2'],5,210,[0.14955871],98,47,medium,minus,dotcolour,beta,,,73,19,V,L,
599,95,11,14,4,36,44,499,['c'],0,right,['2'],5,215,[0.09697766],83,44,hard,minus,dotcolour,beta,,,73,19,V,L,
600,96,12,14,4,33,47,998,['c'],0,right,['2'],5,1520,[0.0264009],40,47,medium,minus,dotcolour,beta,,,73,19,V,L,
601,97,13,14,4,33,47,299,['c'],0,right,['2'],5,184,[0.05576985],50,47,medium,minus,dotcolour,beta,,,73,19,V,L,
602,98,14,14,4,33,47,1500,['n'],1,right,['2'],5,446,[-0.10582089],79,47,medium,minus,dotcolour,beta,,,73,19,V,L,
603,99,15,14,4,36,44,965,['n'],1,right,['2'],5,135,[-0.06278833],59,44,hard,minus,dotcolour,beta,,,73,19,V,L,
604,100,16,14,4,27,53,365,['n'],1,right,['2'],5,171,[-0.14546559],98,53,easy,minus,dotcolour,beta,,,73,19,V,L,
605,101,17,14,4,53,27,2399,['n'],0,left,['2'],5,495,[-0.01767917],28,53,easy,minus,dotcolour,beta,,,73,19,V,L,
606,102,18,14,4,33,47,550,['c'],0,right,['2'],5,190,[0.10769249],90,47,medium,minus,dotcolour,beta,,,73,19,V,L,
607,103,19,14,4,36,44,231,['n'],1,right,['2'],5,126,[-0.06228728],58,44,hard,minus,dotcolour,beta,,,73,19,V,L,
608,104,20,14,4,53,27,299,['c'],1,left,['2'],5,246,[0.04818344],43,53,easy,minus,dotcolour,beta,,,73,19,V,L,
609,105,21,14,4,47,33,433,['c'],1,left,['2'],5,276,[0.10691013],85,47,medium,minus,dotcolour,beta,,,73,19,V,L,
610,106,22,14,4,27,53,1549,['c'],0,right,['2'],5,1196,[-0.21391958],1,53,easy,minus,dotcolour,beta,,,73,19,V,L,
611,107,23,14,4,33,47,299,['c'],0,right,['2'],5,289,[0.03076732],30,47,medium,minus,dotcolour,beta,,,73,19,V,L,
612,108,24,14,4,27,53,398,['c'],0,right,['2'],5,272,[0.0287852],28,53,easy,minus,dotcolour,beta,,,73,19,V,L,
613,109,25,14,4,44,36,865,['c'],1,left,['2'],5,171,[0.01674945],16,44,hard,minus,dotcolour,beta,,,73,19,V,L,
614,110,26,14,4,27,53,431,['c'],0,right,['2'],5,220,[0.01658726],18,53,easy,minus,dotcolour,beta,,,73,19,V,L,
615,111,27,14,4,27,53,566,['c'],0,right,['2'],5,101,[0.05056651],43,53,easy,minus,dotcolour,beta,,,73,19,V,L,
616,112,28,14,4,47,33,481,['c'],1,left,['2'],5,240,[0.03619474],33,47,medium,minus,dotcolour,beta,,,73,19,V,L,
617,113,29,14,4,44,36,650,['c'],1,left,['2'],5,661,[0.10712788],76,44,hard,minus,dotcolour,beta,,,73,19,V,L,
618,114,30,14,4,44,36,467,['c'],1,left,['2'],5,145,[0.08093255],77,44,hard,minus,dotcolour,beta,,,73,19,V,L,
619,115,31,14,4,53,27,701,['c'],1,left,['2'],5,185,[0.15238226],98,53,easy,minus,dotcolour,beta,,,73,19,V,L,
620,116,32,14,4,53,27,649,['c'],1,left,['2'],5,73,[0.04512724],33,53,easy,minus,dotcolour,beta,,,73,19,V,L,
621,117,33,14,4,27,53,598,['c'],0,right,['2'],5,127,[0.00347836],7,53,easy,minus,dotcolour,beta,,,73,19,V,L,
622,118,34,14,4,44,36,683,['c'],1,left,['2'],5,200,[0.03400633],30,44,hard,minus,dotcolour,beta,,,73,19,V,L,
623,119,35,14,4,47,33,799,['c'],1,left,['2'],5,184,[0.11351101],92,47,medium,minus,dotcolour,beta,,,73,19,V,L,
624,120,36,14,4,53,27,383,['c'],1,left,['2'],5,163,[0.10700888],91,53,easy,minus,dotcolour,beta,,,73,19,V,L,
625,121,37,14,4,36,44,432,['c'],0,right,['2'],5,197,[0.01603153],17,44,hard,minus,dotcolour,beta,,,73,19,V,L,
626,122,38,14,4,53,27,2016,['c'],1,left,['2'],5,261,[0.08437298],73,53,easy,minus,dotcolour,beta,,,73,19,V,L,
627,123,39,14,4,36,44,599,['c'],0,right,['2'],5,180,[0.12433267],95,44,hard,minus,dotcolour,beta,,,73,19,V,L,
628,124,40,14,4,33,47,730,['c'],0,right,['2'],5,169,[0.05418516],49,47,medium,minus,dotcolour,beta,,,73,19,V,L,
629,125,41,14,4,47,33,516,['c'],1,left,['2'],5,135,[0.07216334],69,47,medium,minus,dotcolour,beta,,,73,19,V,L,
630,0,0,15,5,44,36,933,['c'],1,left,['2'],5,317,[0.14682087],100,44,hard,plus,dotcolour,beta,,,73,19,V,L,
631,1,1,15,5,53,27,483,['c'],1,left,['2'],5,214,[0.10948564],100,53,easy,plus,dotcolour,beta,,,73,19,V,L,
632,2,2,15,5,47,33,682,['c'],1,left,['3'],4,300,[0.13599448],100,47,medium,plus,dotcolour,beta,,,73,19,V,L,
633,3,3,15,5,27,53,450,['c'],0,right,['3'],4,495,[0.02463301],89,53,easy,plus,dotcolour,beta,,,73,19,V,L,
634,4,4,15,5,27,53,416,['c'],0,right,['2'],5,227,[0.05307931],98,53,easy,plus,dotcolour,beta,,,73,19,V,L,
635,5,5,15,5,36,44,567,['c'],0,right,['3'],4,173,[0.05921558],99,44,hard,plus,dotcolour,beta,,,73,19,V,L,
636,6,6,15,5,36,44,349,['c'],0,right,['3'],4,153,[0.13192244],100,44,hard,plus,dotcolour,beta,,,73,19,V,L,
637,7,7,15,5,47,33,616,['n'],0,left,['3'],4,2820,[0.21228798],16,47,medium,plus,dotcolour,beta,,,73,19,V,L,
638,8,8,15,5,53,27,315,['c'],1,left,['3'],4,558,[0.16649002],100,53,easy,plus,dotcolour,beta,,,73,19,V,L,
639,9,9,15,5,47,33,765,['c'],1,left,['3'],4,234,[0.07831514],99,47,medium,plus,dotcolour,beta,,,73,19,V,L,
640,10,10,15,5,36,44,27,['c'],0,right,['3'],4,450,[0.04109433],93,44,hard,plus,dotcolour,beta,,,73,19,V,L,
641,11,11,15,5,36,44,138,['c'],0,right,['3'],4,153,[0.13173683],100,44,hard,plus,dotcolour,beta,,,73,19,V,L,
642,12,12,15,5,33,47,483,['c'],0,right,['2'],5,257,[0.05827005],98,47,medium,plus,dotcolour,beta,,,73,19,V,L,
643,13,13,15,5,47,33,599,['c'],1,left,['3'],4,216,[0.11070703],100,47,medium,plus,dotcolour,beta,,,73,19,V,L,
644,14,14,15,5,53,27,533,['c'],1,left,['2'],5,195,[0.07684905],100,53,easy,plus,dotcolour,beta,,,73,19,V,L,
645,15,15,15,5,36,44,381,['c'],0,right,['2'],5,174,[0.05752329],99,44,hard,plus,dotcolour,beta,,,73,19,V,L,
646,16,16,15,5,47,33,565,['c'],1,left,['2'],5,161,[0.11143575],100,47,medium,plus,dotcolour,beta,,,73,19,V,L,
647,17,17,15,5,53,27,981,['c'],1,left,['2'],5,956,[0.09277427],94,53,easy,plus,dotcolour,beta,,,73,19,V,L,
648,18,18,15,5,33,47,315,['c'],0,right,['2'],5,130,[0.07008836],100,47,medium,plus,dotcolour,beta,,,73,19,V,L,
649,19,19,15,5,27,53,349,['c'],0,right,['2'],5,136,[0.06561388],100,53,easy,plus,dotcolour,beta,,,73,19,V,L,
650,20,20,15,5,33,47,366,['c'],0,right,['2'],5,142,[0.03807606],99,47,medium,plus,dotcolour,beta,,,73,19,V,L,
651,21,21,15,5,33,47,1615,['c'],0,right,['2'],5,520,[0.0860596],97,47,medium,plus,dotcolour,beta,,,73,19,V,L,
652,22,22,15,5,47,33,2265,['c'],1,left,['1'],6,506,[0.13716092],99,47,medium,plus,dotcolour,beta,,,73,19,V,L,
653,23,23,15,5,36,44,398,['c'],0,right,['2'],5,151,[0.07333464],100,44,hard,plus,dotcolour,beta,,,73,19,V,L,
654,24,24,15,5,33,47,264,['c'],0,right,['2'],5,119,[0.07153668],100,47,medium,plus,dotcolour,beta,,,73,19,V,L,
655,25,25,15,5,33,47,266,['c'],0,right,['1'],6,225,[0.05065722],98,47,medium,plus,dotcolour,beta,,,73,19,V,L,
656,26,26,15,5,47,33,315,['c'],1,left,['2'],5,413,[0.30431875],100,47,medium,plus,dotcolour,beta,,,73,19,V,L,
657,27,27,15,5,44,36,298,['c'],1,left,['2'],5,154,[0.05500173],99,44,hard,plus,dotcolour,beta,,,73,19,V,L,
658,28,28,15,5,33,47,299,['c'],0,right,['2'],5,200,[0.04480754],98,47,medium,plus,dotcolour,beta,,,73,19,V,L,
659,29,29,15,5,53,27,48,['c'],1,left,['2'],5,18,[0.07822352],100,53,easy,plus,dotcolour,beta,,,73,19,V,L,
660,30,30,15,5,44,36,75,['c'],1,left,['1'],6,506,[0.04333409],92,44,hard,plus,dotcolour,beta,,,73,19,V,L,
661,31,31,15,5,27,53,104,['c'],0,right,['1'],6,135,[0.04541915],99,53,easy,plus,dotcolour,beta,,,73,19,V,L,
662,32,32,15,5,44,36,1716,['c'],1,left,['1'],6,247,[0.15522249],100,44,hard,plus,dotcolour,beta,,,73,19,V,L,
663,33,33,15,5,27,53,165,['c'],0,right,['1'],6,310,[0.00834669],89,53,easy,plus,dotcolour,beta,,,73,19,V,L,
664,34,34,15,5,44,36,232,['c'],1,left,['1'],6,209,[0.06401024],99,44,hard,plus,dotcolour,beta,,,73,19,V,L,
665,35,35,15,5,53,27,16,['c'],1,left,['1'],6,1,[0.07074086],100,53,easy,plus,dotcolour,beta,,,73,19,V,L,
666,36,36,15,5,44,36,282,['c'],1,left,['1'],6,120,[0.07434116],100,44,hard,plus,dotcolour,beta,,,73,19,V,L,
667,37,37,15,5,27,53,1814,['c'],0,right,['1'],6,179,[0.07078326],100,53,easy,plus,dotcolour,beta,,,73,19,V,L,
668,38,38,15,5,44,36,1431,['c'],1,left,['1'],6,3516,[0.48264487],99,44,hard,plus,dotcolour,beta,,,73,19,V,L,
669,39,39,15,5,53,27,120,['c'],1,left,['1'],6,103,[0.10564358],100,53,easy,plus,dotcolour,beta,,,73,19,V,L,
670,40,40,15,5,36,44,349,['c'],0,right,['0'],1,2335,[-0.18547526],18,44,hard,plus,dotcolour,beta,,,73,19,V,L,
671,41,41,15,5,27,53,4149,['c'],0,right,['1'],6,132,[0.10105105],100,53,easy,plus,dotcolour,beta,,,73,19,V,L,
672,42,0,16,5,44,36,449,['c'],1,left,['1'],6,152,[0.11029038],100,44,hard,plus,dotcolour,beta,,,73,19,V,L,
673,43,1,16,5,36,44,499,['c'],0,right,['1'],6,191,[0.04509751],98,44,hard,plus,dotcolour,beta,,,73,19,V,L,
674,44,2,16,5,33,47,1516,['c'],0,right,['1'],6,195,[0.01763134],95,47,medium,plus,dotcolour,beta,,,73,19,V,L,
675,45,3,16,5,27,53,1981,['c'],0,right,['1'],6,245,[0.03441819],96,53,easy,plus,dotcolour,beta,,,73,19,V,L,
676,46,4,16,5,36,44,365,['c'],0,right,['1'],6,278,[0.09096203],99,44,hard,plus,dotcolour,beta,,,73,19,V,L,
677,47,5,16,5,47,33,60,['c'],1,left,['1'],6,372,[0.05857252],97,47,medium,plus,dotcolour,beta,,,73,19,V,L,
678,48,6,16,5,47,33,381,['c'],1,left,['1'],6,311,[0.11573369],100,47,medium,plus,dotcolour,beta,,,73,19,V,L,
679,49,7,16,5,33,47,399,['c'],0,right,['2'],5,267,[0.09877996],100,47,medium,plus,dotcolour,beta,,,73,19,V,L,
680,50,8,16,5,27,53,465,['c'],0,right,['2'],5,208,[0.03947627],98,53,easy,plus,dotcolour,beta,,,73,19,V,L,
681,51,9,16,5,47,33,382,['c'],1,left,['1'],6,193,[0.06739663],99,47,medium,plus,dotcolour,beta,,,73,19,V,L,
682,52,10,16,5,47,33,665,['c'],1,left,['1'],6,168,[0.1313615],100,47,medium,plus,dotcolour,beta,,,73,19,V,L,
683,53,11,16,5,36,44,384,['c'],0,right,['2'],5,171,[0.07987829],100,44,hard,plus,dotcolour,beta,,,73,19,V,L,
684,54,12,16,5,53,27,399,['c'],1,left,['1'],6,197,[0.09632473],100,53,easy,plus,dotcolour,beta,,,73,19,V,L,
685,55,13,16,5,44,36,766,['c'],1,left,"['2', '1']",5,280,[0.12365913],100,44,hard,plus,dotcolour,beta,,,73,19,V,L,
686,56,14,16,5,53,27,499,['c'],1,left,['2'],5,249,[0.08435419],99,53,easy,plus,dotcolour,beta,,,73,19,V,L,
687,57,15,16,5,36,44,682,['c'],0,right,['2'],5,21,[0.05848898],100,44,hard,plus,dotcolour,beta,,,73,19,V,L,
688,58,16,16,5,53,27,783,['c'],1,left,['2'],5,63,[0.06638954],100,53,easy,plus,dotcolour,beta,,,73,19,V,L,
689,59,17,16,5,33,47,367,['c'],0,right,['2'],5,167,[0.07775203],100,47,medium,plus,dotcolour,beta,,,73,19,V,L,
690,60,18,16,5,27,53,1616,['c'],0,right,['2'],5,121,[0.01388463],97,53,easy,plus,dotcolour,beta,,,73,19,V,L,
691,61,19,16,5,33,47,848,['c'],0,right,['2'],5,180,[0.06111935],99,47,medium,plus,dotcolour,beta,,,73,19,V,L,
692,62,20,16,5,47,33,62,['c'],1,left,['2'],5,61,[0.03334463],100,47,medium,plus,dotcolour,beta,,,73,19,V,L,
693,63,21,16,5,44,36,917,['c'],1,left,['2'],5,143,[0.10372952],100,44,hard,plus,dotcolour,beta,,,73,19,V,L,
694,64,22,16,5,44,36,348,['c'],1,left,['2'],5,173,[0.03744481],98,44,hard,plus,dotcolour,beta,,,73,19,V,L,
695,65,23,16,5,36,44,598,['c'],0,right,['2'],5,864,[0.04915272],88,44,hard,plus,dotcolour,beta,,,73,19,V,L,
696,66,24,16,5,33,47,331,['c'],0,right,['2'],5,193,[0.02149987],96,47,medium,plus,dotcolour,beta,,,73,19,V,L,
697,67,25,16,5,53,27,549,['c'],1,left,['2'],5,100,[0.08782019],100,53,easy,plus,dotcolour,beta,,,73,19,V,L,
698,68,26,16,5,36,44,365,['c'],0,right,['1'],6,147,[0.02655554],98,44,hard,plus,dotcolour,beta,,,73,19,V,L,
699,69,27,16,5,27,53,365,['c'],0,right,['1'],6,168,[0.0975963],100,53,easy,plus,dotcolour,beta,,,73,19,V,L,
700,70,28,16,5,53,27,315,['c'],1,left,['1'],6,190,[0.16967007],100,53,easy,plus,dotcolour,beta,,,73,19,V,L,
701,71,29,16,5,47,33,314,['c'],1,left,['2'],5,179,[0.01183411],95,47,medium,plus,dotcolour,beta,,,73,19,V,L,
702,72,30,16,5,44,36,215,['c'],1,left,['2'],5,140,[0.03574626],99,44,hard,plus,dotcolour,beta,,,73,19,V,L,
703,73,31,16,5,27,53,381,['c'],0,right,['2'],5,209,[0.05283641],99,53,easy,plus,dotcolour,beta,,,73,19,V,L,
704,74,32,16,5,53,27,90,['c'],1,left,['2'],5,34,[0.05025117],100,53,easy,plus,dotcolour,beta,,,73,19,V,L,
705,75,33,16,5,36,44,315,['c'],0,right,['2'],5,149,[0.00087043],93,44,hard,plus,dotcolour,beta,,,73,19,V,L,
706,76,34,16,5,27,53,2015,['c'],0,right,['1'],6,312,[-0.03694358],65,53,easy,plus,dotcolour,beta,,,73,19,V,L,
707,77,35,16,5,33,47,847,['c'],0,right,['1'],6,874,[0.01753661],80,47,medium,plus,dotcolour,beta,,,73,19,V,L,
708,78,36,16,5,47,33,732,['c'],1,left,['2'],5,987,[0.22374333],99,47,medium,plus,dotcolour,beta,,,73,19,V,L,
709,79,37,16,5,44,36,514,['c'],1,left,['1'],6,448,[0.17361485],100,44,hard,plus,dotcolour,beta,,,73,19,V,L,
710,80,38,16,5,53,27,2933,['c'],1,left,['2'],5,202,[0.13680247],100,53,easy,plus,dotcolour,beta,,,73,19,V,L,
711,81,39,16,5,27,53,2015,['c'],0,right,['1'],6,1194,[-0.20494272],8,53,easy,plus,dotcolour,beta,,,73,19,V,L,
712,82,40,16,5,33,47,349,['c'],0,right,['1'],6,725,[0.0398616],88,47,medium,plus,dotcolour,beta,,,73,19,V,L,
713,83,41,16,5,44,36,415,['c'],1,left,['2'],5,160,[0.05471302],99,44,hard,plus,dotcolour,beta,,,73,19,V,L,
714,84,0,17,5,36,44,1066,['c'],0,right,['2'],5,279,[0.0108234],91,44,hard,plus,dotcolour,beta,,,73,19,V,L,
715,85,1,17,5,33,47,1766,['c'],0,right,['2'],5,534,[-0.0146446],73,47,medium,plus,dotcolour,beta,,,73,19,V,L,
716,86,2,17,5,44,36,615,['c'],1,left,['2'],5,466,[0.11753563],99,44,hard,plus,dotcolour,beta,,,73,19,V,L,
717,87,3,17,5,47,33,81,['c'],1,left,['2'],5,952,[0.0137866],78,47,medium,plus,dotcolour,beta,,,73,19,V,L,
718,88,4,17,5,36,44,230,['c'],0,right,['2'],5,378,[0.06514569],97,44,hard,plus,dotcolour,beta,,,73,19,V,L,
719,89,5,17,5,53,27,233,['c'],1,left,['2'],5,370,[-0.00592362],81,53,easy,plus,dotcolour,beta,,,73,19,V,L,
720,90,6,17,5,53,27,382,['c'],1,left,['2'],5,197,[0.05402991],99,53,easy,plus,dotcolour,beta,,,73,19,V,L,
721,91,7,17,5,53,27,598,['c'],1,left,['2'],5,222,[0.07728564],99,53,easy,plus,dotcolour,beta,,,73,19,V,L,
722,92,8,17,5,33,47,111,['c'],0,right,['2'],5,143,[0.04456027],99,47,medium,plus,dotcolour,beta,,,73,19,V,L,
723,93,9,17,5,53,27,314,['c'],1,left,['2'],5,206,[0.02652958],96,53,easy,plus,dotcolour,beta,,,73,19,V,L,
724,94,10,17,5,36,44,916,['c'],0,right,['2'],5,131,[0.09191714],100,44,hard,plus,dotcolour,beta,,,73,19,V,L,
725,95,11,17,5,27,53,365,['c'],0,right,['2'],5,184,[0.0866571],100,53,easy,plus,dotcolour,beta,,,73,19,V,L,
726,96,12,17,5,44,36,144,['c'],1,left,['2'],5,866,[-0.02759396],63,44,hard,plus,dotcolour,beta,,,73,19,V,L,
727,97,13,17,5,53,27,1131,['c'],1,left,['2'],5,474,[0.17053539],100,53,easy,plus,dotcolour,beta,,,73,19,V,L,
728,98,14,17,5,47,33,416,['c'],1,left,['2'],5,232,[0.12064098],100,47,medium,plus,dotcolour,beta,,,73,19,V,L,
729,99,15,17,5,44,36,716,['c'],1,left,['2'],5,155,[0.08499459],100,44,hard,plus,dotcolour,beta,,,73,19,V,L,
730,100,16,17,5,27,53,598,['c'],0,right,['2'],5,286,[-0.13249853],7,53,easy,plus,dotcolour,beta,,,73,19,V,L,
731,101,17,17,5,53,27,4381,['c'],1,left,['2'],5,621,[0.1077447],98,53,easy,plus,dotcolour,beta,,,73,19,V,L,
732,102,18,17,5,36,44,581,['c'],0,right,['1'],6,342,[0.01891914],91,44,hard,plus,dotcolour,beta,,,73,19,V,L,
733,103,19,17,5,47,33,1600,['c'],1,left,['1'],6,121,[0.08600491],100,47,medium,plus,dotcolour,beta,,,73,19,V,L,
734,104,20,17,5,47,33,432,['c'],1,left,['1'],6,252,[0.04983144],98,47,medium,plus,dotcolour,beta,,,73,19,V,L,
735,105,21,17,5,33,47,449,['c'],0,right,['1'],6,130,[0.05918619],100,47,medium,plus,dotcolour,beta,,,73,19,V,L,
736,106,22,17,5,33,47,2783,['n'],1,right,['1'],6,495,[-0.18981256],100,47,medium,plus,dotcolour,beta,,,73,19,V,L,
737,107,23,17,5,27,53,350,['c'],0,right,['1'],6,622,[-0.13218199],15,53,easy,plus,dotcolour,beta,,,73,19,V,L,
738,108,24,17,5,53,27,549,['c'],1,left,['1'],6,448,[0.17179082],100,53,easy,plus,dotcolour,beta,,,73,19,V,L,
739,109,25,17,5,27,53,433,['c'],0,right,['1'],6,174,[0.06226212],99,53,easy,plus,dotcolour,beta,,,73,19,V,L,
740,110,26,17,5,27,53,348,['c'],0,right,['1'],6,163,[0.0572496],99,53,easy,plus,dotcolour,beta,,,73,19,V,L,
741,111,27,17,5,27,53,382,['c'],0,right,['1'],6,166,[0.08847255],100,53,easy,plus,dotcolour,beta,,,73,19,V,L,
742,112,28,17,5,33,47,365,['c'],0,right,['1'],6,178,[0.14338269],100,47,medium,plus,dotcolour,beta,,,73,19,V,L,
743,113,29,17,5,27,53,233,['c'],0,right,['1'],6,218,[0.1164718],100,53,easy,plus,dotcolour,beta,,,73,19,V,L,
744,114,30,17,5,36,44,698,['c'],0,right,['1'],6,271,[0.07801368],99,44,hard,plus,dotcolour,beta,,,73,19,V,L,
745,115,31,17,5,44,36,732,['c'],1,left,['1'],6,312,[0.11211393],100,44,hard,plus,dotcolour,beta,,,73,19,V,L,
746,116,32,17,5,47,33,831,['c'],1,left,['1'],6,315,[0.04845955],97,47,medium,plus,dotcolour,beta,,,73,19,V,L,
747,117,33,17,5,33,47,632,['c'],0,right,['2'],5,374,[0.06566383],97,47,medium,plus,dotcolour,beta,,,73,19,V,L,
748,118,34,17,5,47,33,1115,['c'],1,left,['2'],5,172,[0.0799998],100,47,medium,plus,dotcolour,beta,,,73,19,V,L,
749,119,35,17,5,36,44,1082,['c'],0,right,['3'],4,283,[0.07838525],99,44,hard,plus,dotcolour,beta,,,73,19,V,L,
750,120,36,17,5,44,36,1132,['c'],1,left,['2'],5,236,[0.12909649],100,44,hard,plus,dotcolour,beta,,,73,19,V,L,
751,121,37,17,5,44,36,715,['c'],1,left,['2'],5,143,[0.03377012],99,44,hard,plus,dotcolour,beta,,,73,19,V,L,
752,122,38,17,5,36,44,464,['c'],0,right,['2'],5,216,[-0.0345555],69,44,hard,plus,dotcolour,beta,,,73,19,V,L,
753,123,39,17,5,44,36,567,['c'],1,left,['2'],5,1642,[0.19051625],97,44,hard,plus,dotcolour,beta,,,73,19,V,L,
754,124,40,17,5,33,47,632,['c'],0,right,['2'],5,215,[0.03753255],97,47,medium,plus,dotcolour,beta,,,73,19,V,L,
755,125,41,17,5,47,33,730,['c'],1,left,['3'],4,243,[0.16672259],100,47,medium,plus,dotcolour,beta,,,73,19,V,L,
,,,,,,,,,,,,,,,,,,,,,1,"neen,",73,19,V,L,
,,,,,,,,,,,,,,,,,,,,,2,['h'],73,19,V,L,
,,,,,,,,,,,,,,,,,,,,,3,['h'],73,19,V,L,
,,,,,,,,,,,,,,,,,,,,,5,"['1', '2', '3', '4', '5', '6']",73,19,V,L,
