trial,withinphasetrial,withinblocktrial,block,phase,dotsLeft,dotsRight,rt,resp,cor,cresp,conf_press,cj,RTconf,ev,fb,diff,difflevel,condition,task,manip,questionID,questionResp,sub,age,gender,handedness,
0,0,0,0,0,27,53,1919,['n'],1,right,['8'],4,4286,[-0.67261696],100,53,easy,plus,dotcolour,beta,,,34,18,V,R,
1,1,1,0,0,27,53,1851,['n'],1,right,['0'],6,905,[-0.21587566],99,53,easy,plus,dotcolour,beta,,,34,18,V,R,
2,2,2,0,0,53,27,1783,['c'],1,left,['0'],6,726,[0.27322719],100,53,easy,plus,dotcolour,beta,,,34,18,V,R,
3,3,3,0,0,47,33,1633,['c'],1,left,['9'],5,432,[0.19916798],100,47,medium,plus,dotcolour,beta,,,34,18,V,R,
4,4,4,0,0,36,44,1118,['n'],1,right,['9'],5,451,[-0.12108208],99,44,hard,plus,dotcolour,beta,,,34,18,V,R,
5,5,5,0,0,44,36,1034,['c'],1,left,['0'],6,1257,[0.09474414],92,44,hard,plus,dotcolour,beta,,,34,18,V,R,
6,6,6,0,0,33,47,1018,['n'],1,right,['8'],4,1847,[-0.05858075],82,47,medium,plus,dotcolour,beta,,,34,18,V,R,
7,7,7,0,0,27,53,917,['n'],1,right,['9'],5,393,[-0.12888153],100,53,easy,plus,dotcolour,beta,,,34,18,V,R,
8,8,8,0,0,27,53,2051,['n'],1,right,['3'],3,329,[-0.05612139],97,53,easy,plus,dotcolour,beta,,,34,18,V,R,
9,9,9,0,0,33,47,1601,['c'],0,right,['9'],5,397,[0.01034929],87,47,medium,plus,dotcolour,beta,,,34,18,V,R,
10,10,10,0,0,44,36,1034,['c'],1,left,['9'],5,805,[0.18401321],99,44,hard,plus,dotcolour,beta,,,34,18,V,R,
11,11,11,0,0,47,33,866,['c'],1,left,['9'],5,371,[0.09272112],99,47,medium,plus,dotcolour,beta,,,34,18,V,R,
12,12,12,0,0,36,44,1134,['c'],0,right,['0'],6,648,[-0.00540187],75,44,hard,plus,dotcolour,beta,,,34,18,V,R,
13,13,13,0,0,53,27,983,['c'],1,left,['0'],6,352,[0.16744103],100,53,easy,plus,dotcolour,beta,,,34,18,V,R,
14,14,14,0,0,47,33,750,['c'],1,left,['0'],6,341,[0.08054066],99,47,medium,plus,dotcolour,beta,,,34,18,V,R,
15,15,15,0,0,33,47,851,['n'],1,right,['9'],5,358,[-0.00258733],85,47,medium,plus,dotcolour,beta,,,34,18,V,R,
16,16,16,0,0,33,47,1801,['c'],0,right,['9'],5,377,[-0.00322388],82,47,medium,plus,dotcolour,beta,,,34,18,V,R,
17,17,17,0,0,53,27,551,['c'],1,left,['8'],4,461,[0.1178573],99,53,easy,plus,dotcolour,beta,,,34,18,V,R,
18,18,18,0,0,36,44,1933,['n'],1,right,['8'],4,406,[-0.04447272],94,44,hard,plus,dotcolour,beta,,,34,18,V,R,
19,19,19,0,0,36,44,968,['c'],0,right,['9'],5,680,[0.01253674],82,44,hard,plus,dotcolour,beta,,,34,18,V,R,
20,20,20,0,0,36,44,683,['c'],0,right,['9'],5,403,[-0.04946534],54,44,hard,plus,dotcolour,beta,,,34,18,V,R,
21,21,21,0,0,44,36,1001,['c'],1,left,['9'],5,468,[0.15217304],100,44,hard,plus,dotcolour,beta,,,34,18,V,R,
22,22,22,0,0,47,33,651,['c'],1,left,['0'],6,360,[0.15851556],100,47,medium,plus,dotcolour,beta,,,34,18,V,R,
23,23,23,0,0,33,47,851,['n'],1,right,['9'],5,625,[-0.19220651],100,47,medium,plus,dotcolour,beta,,,34,18,V,R,
24,24,24,0,0,44,36,668,['c'],1,left,['9'],5,470,[0.03622712],92,44,hard,plus,dotcolour,beta,,,34,18,V,R,
25,25,25,0,0,44,36,1167,['c'],1,left,['0'],6,391,[0.04354998],95,44,hard,plus,dotcolour,beta,,,34,18,V,R,
26,26,26,0,0,36,44,801,['c'],0,right,['9'],5,295,[0.01252234],91,44,hard,plus,dotcolour,beta,,,34,18,V,R,
27,27,27,0,0,33,47,849,['n'],1,right,['8'],4,371,[-0.15525541],100,47,medium,plus,dotcolour,beta,,,34,18,V,R,
28,28,28,0,0,44,36,716,['c'],1,left,['0'],6,608,[0.11574912],98,44,hard,plus,dotcolour,beta,,,34,18,V,R,
29,29,29,0,0,47,33,534,['c'],1,left,['9'],5,315,[0.14381184],100,47,medium,plus,dotcolour,beta,,,34,18,V,R,
30,30,30,0,0,44,36,984,['c'],1,left,['0'],6,409,[0.0533397],96,44,hard,plus,dotcolour,beta,,,34,18,V,R,
31,31,31,0,0,53,27,784,['c'],1,left,['0'],6,275,[0.12736429],100,53,easy,plus,dotcolour,beta,,,34,18,V,R,
32,32,32,0,0,33,47,1250,['n'],1,right,['8'],4,439,[-0.11150159],99,47,medium,plus,dotcolour,beta,,,34,18,V,R,
33,33,33,0,0,27,53,850,['n'],1,right,['9'],5,732,[-0.03471147],87,53,easy,plus,dotcolour,beta,,,34,18,V,R,
34,34,34,0,0,27,53,633,['n'],1,right,['0'],6,343,[-0.09968125],99,53,easy,plus,dotcolour,beta,,,34,18,V,R,
35,35,35,0,0,53,27,801,['c'],1,left,['0'],6,266,[0.13079912],100,53,easy,plus,dotcolour,beta,,,34,18,V,R,
36,36,36,0,0,53,27,668,['c'],1,left,['0'],6,269,[0.03818885],96,53,easy,plus,dotcolour,beta,,,34,18,V,R,
37,37,37,0,0,47,33,684,['c'],1,left,['0'],6,352,[0.07410951],98,47,medium,plus,dotcolour,beta,,,34,18,V,R,
38,38,38,0,0,53,27,617,['c'],1,left,['0'],6,314,[0.03453607],95,53,easy,plus,dotcolour,beta,,,34,18,V,R,
39,39,39,0,0,27,53,617,['n'],1,right,['9'],5,390,[-0.13717669],100,53,easy,plus,dotcolour,beta,,,34,18,V,R,
40,40,40,0,0,36,44,1517,['n'],1,right,['8'],4,339,[-0.07692693],98,44,hard,plus,dotcolour,beta,,,34,18,V,R,
41,41,41,0,0,47,33,1100,['n'],0,left,['8'],4,475,[0.03330808],64,47,medium,plus,dotcolour,beta,,,34,18,V,R,
42,42,0,1,0,27,53,1501,['n'],1,right,['9'],5,759,[-0.18923235],99,53,easy,plus,dotcolour,beta,,,34,18,V,R,
43,43,1,1,0,36,44,701,['n'],1,right,['9'],5,317,[-0.10454517],99,44,hard,plus,dotcolour,beta,,,34,18,V,R,
44,44,2,1,0,27,53,617,['n'],1,right,['9'],5,361,[-0.12147767],100,53,easy,plus,dotcolour,beta,,,34,18,V,R,
45,45,3,1,0,47,33,601,['c'],1,left,['8'],4,420,[0.27194224],100,47,medium,plus,dotcolour,beta,,,34,18,V,R,
46,46,4,1,0,27,53,600,['n'],1,right,['0'],6,428,[-0.15220398],100,53,easy,plus,dotcolour,beta,,,34,18,V,R,
47,47,5,1,0,44,36,1068,['c'],1,left,['8'],4,593,[0.13766991],99,44,hard,plus,dotcolour,beta,,,34,18,V,R,
48,48,6,1,0,53,27,751,['c'],1,left,['0'],6,797,[0.15502912],99,53,easy,plus,dotcolour,beta,,,34,18,V,R,
49,49,7,1,0,53,27,584,['c'],1,left,['0'],6,319,[0.09518368],99,53,easy,plus,dotcolour,beta,,,34,18,V,R,
50,50,8,1,0,27,53,1034,['n'],1,right,['9'],5,1034,[-0.26637172],100,53,easy,plus,dotcolour,beta,,,34,18,V,R,
51,51,9,1,0,47,33,618,['c'],1,left,['0'],6,352,[0.11187767],99,47,medium,plus,dotcolour,beta,,,34,18,V,R,
52,52,10,1,0,44,36,634,['c'],1,left,['8'],4,361,[0.10146387],99,44,hard,plus,dotcolour,beta,,,34,18,V,R,
53,53,11,1,0,44,36,1434,['c'],1,left,['9'],5,251,[0.0929306],100,44,hard,plus,dotcolour,beta,,,34,18,V,R,
54,54,12,1,0,53,27,650,['c'],1,left,['0'],6,336,[0.04394878],96,53,easy,plus,dotcolour,beta,,,34,18,V,R,
55,55,13,1,0,44,36,883,['c'],1,left,['3'],3,537,[0.07083591],96,44,hard,plus,dotcolour,beta,,,34,18,V,R,
56,56,14,1,0,33,47,917,['n'],1,right,['8'],4,415,[-0.18521763],100,47,medium,plus,dotcolour,beta,,,34,18,V,R,
57,57,15,1,0,27,53,1734,['n'],1,right,['9'],5,306,[-0.12354225],100,53,easy,plus,dotcolour,beta,,,34,18,V,R,
58,58,16,1,0,33,47,550,['n'],1,right,['9'],5,473,[-0.0892033],98,47,medium,plus,dotcolour,beta,,,34,18,V,R,
59,59,17,1,0,36,44,1833,['n'],1,right,['9'],5,309,[-0.04098585],96,44,hard,plus,dotcolour,beta,,,34,18,V,R,
60,60,18,1,0,47,33,767,['c'],1,left,['8'],4,475,[0.13844661],99,47,medium,plus,dotcolour,beta,,,34,18,V,R,
61,61,19,1,0,44,36,1068,['c'],1,left,['9'],5,839,[0.21130907],99,44,hard,plus,dotcolour,beta,,,34,18,V,R,
62,62,20,1,0,47,33,866,['c'],1,left,['9'],5,292,[0.14796111],100,47,medium,plus,dotcolour,beta,,,34,18,V,R,
63,63,21,1,0,44,36,2500,['c'],1,left,['3'],3,381,[0.16065232],100,44,hard,plus,dotcolour,beta,,,34,18,V,R,
64,64,22,1,0,53,27,832,['c'],1,left,['0'],6,567,[0.04105485],91,53,easy,plus,dotcolour,beta,,,34,18,V,R,
65,65,23,1,0,36,44,6899,['n'],1,right,['3'],3,948,[0.00560574],72,44,hard,plus,dotcolour,beta,,,34,18,V,R,
66,66,24,1,0,33,47,2016,['c'],0,right,['9'],5,583,[-0.0306822],64,47,medium,plus,dotcolour,beta,,,34,18,V,R,
67,67,25,1,0,47,33,2417,['n'],0,left,['8'],4,1232,[-0.051955],85,47,medium,plus,dotcolour,beta,,,34,18,V,R,
68,68,26,1,0,33,47,967,['c'],0,right,['9'],5,391,[0.01371114],88,47,medium,plus,dotcolour,beta,,,34,18,V,R,
69,69,27,1,0,53,27,949,['c'],1,left,['9'],5,500,[0.07981394],97,53,easy,plus,dotcolour,beta,,,34,18,V,R,
70,70,28,1,0,53,27,951,['c'],1,left,['0'],6,578,[0.21883164],100,53,easy,plus,dotcolour,beta,,,34,18,V,R,
71,71,29,1,0,36,44,767,['n'],1,right,['9'],5,382,[-0.0662237],97,44,hard,plus,dotcolour,beta,,,34,18,V,R,
72,72,30,1,0,27,53,851,['n'],1,right,['9'],5,709,[-0.1042111],97,53,easy,plus,dotcolour,beta,,,34,18,V,R,
73,73,31,1,0,36,44,1001,['c'],0,right,['0'],6,362,[0.05169845],96,44,hard,plus,dotcolour,beta,,,34,18,V,R,
74,74,32,1,0,33,47,534,['n'],1,right,['0'],6,656,[-0.13638332],99,47,medium,plus,dotcolour,beta,,,34,18,V,R,
75,75,33,1,0,33,47,1000,['c'],0,right,['8'],4,534,[0.00227466],81,47,medium,plus,dotcolour,beta,,,34,18,V,R,
76,76,34,1,0,27,53,667,['n'],1,right,['0'],6,983,[-0.08514432],93,53,easy,plus,dotcolour,beta,,,34,18,V,R,
77,77,35,1,0,36,44,734,['n'],1,right,['0'],6,323,[-0.08397697],99,44,hard,plus,dotcolour,beta,,,34,18,V,R,
78,78,36,1,0,36,44,734,['n'],1,right,['0'],6,282,[-0.08022062],99,44,hard,plus,dotcolour,beta,,,34,18,V,R,
79,79,37,1,0,53,27,767,['c'],1,left,['0'],6,689,[0.13212987],98,53,easy,plus,dotcolour,beta,,,34,18,V,R,
80,80,38,1,0,44,36,1400,['n'],0,left,['9'],5,318,[-0.00551476],88,44,hard,plus,dotcolour,beta,,,34,18,V,R,
81,81,39,1,0,47,33,817,['c'],1,left,['0'],6,402,[0.02486528],91,47,medium,plus,dotcolour,beta,,,34,18,V,R,
82,82,40,1,0,47,33,901,['c'],1,left,['3'],3,871,[-0.05167342],52,47,medium,plus,dotcolour,beta,,,34,18,V,R,
83,83,41,1,0,33,47,1333,['c'],0,right,['8'],4,288,[0.05904901],98,47,medium,plus,dotcolour,beta,,,34,18,V,R,
84,84,0,2,0,44,36,1568,['c'],1,left,['3'],3,471,[0.09015976],98,44,hard,plus,dotcolour,beta,,,34,18,V,R,
85,85,1,2,0,53,27,717,['c'],1,left,['0'],6,441,[0.26468143],100,53,easy,plus,dotcolour,beta,,,34,18,V,R,
86,86,2,2,0,53,27,567,['c'],1,left,['0'],6,354,[0.08127512],98,53,easy,plus,dotcolour,beta,,,34,18,V,R,
87,87,3,2,0,53,27,684,['c'],1,left,['0'],6,216,[-0.0219946],79,53,easy,plus,dotcolour,beta,,,34,18,V,R,
88,88,4,2,0,27,53,634,['n'],1,right,['0'],6,512,[-0.19712863],100,53,easy,plus,dotcolour,beta,,,34,18,V,R,
89,89,5,2,0,47,33,600,['c'],1,left,['9'],5,358,[0.22472894],100,47,medium,plus,dotcolour,beta,,,34,18,V,R,
90,90,6,2,0,47,33,617,['c'],1,left,['9'],5,327,[0.18295433],100,47,medium,plus,dotcolour,beta,,,34,18,V,R,
91,91,7,2,0,27,53,701,['n'],1,right,['0'],6,415,[-0.18280158],100,53,easy,plus,dotcolour,beta,,,34,18,V,R,
92,92,8,2,0,33,47,1416,['c'],0,right,['9'],5,207,[0.04947063],98,47,medium,plus,dotcolour,beta,,,34,18,V,R,
93,93,9,2,0,33,47,1301,['n'],1,right,['0'],6,348,[-0.08379992],99,47,medium,plus,dotcolour,beta,,,34,18,V,R,
94,94,10,2,0,44,36,700,['c'],1,left,['9'],5,707,[0.16754865],99,44,hard,plus,dotcolour,beta,,,34,18,V,R,
95,95,11,2,0,47,33,683,['n'],0,left,['9'],5,429,[-0.01989122],89,47,medium,plus,dotcolour,beta,,,34,18,V,R,
96,96,12,2,0,53,27,550,['c'],1,left,['0'],6,415,[0.20598706],100,53,easy,plus,dotcolour,beta,,,34,18,V,R,
97,97,13,2,0,44,36,900,['n'],0,left,['0'],6,291,[-0.01570108],92,44,hard,plus,dotcolour,beta,,,34,18,V,R,
98,98,14,2,0,27,53,1301,['c'],0,right,['3'],3,285,[-0.0179702],78,53,easy,plus,dotcolour,beta,,,34,18,V,R,
99,99,15,2,0,33,47,1033,['n'],1,right,['0'],6,345,[-0.0398238],95,47,medium,plus,dotcolour,beta,,,34,18,V,R,
100,100,16,2,0,47,33,2134,['n'],0,left,['8'],4,671,[-0.08678879],96,47,medium,plus,dotcolour,beta,,,34,18,V,R,
101,101,17,2,0,33,47,718,['n'],1,right,['3'],3,946,[-0.07511498],92,47,medium,plus,dotcolour,beta,,,34,18,V,R,
102,102,18,2,0,47,33,934,['n'],0,left,['9'],5,1103,[0.09226699],35,47,medium,plus,dotcolour,beta,,,34,18,V,R,
103,103,19,2,0,44,36,2517,['c'],1,left,['9'],5,342,[0.13448956],100,44,hard,plus,dotcolour,beta,,,34,18,V,R,
104,104,20,2,0,27,53,1584,['c'],0,right,['2'],2,1155,[0.06757228],89,53,easy,plus,dotcolour,beta,,,34,18,V,R,
105,105,21,2,0,33,47,1067,['c'],0,right,['8'],4,428,[0.00510517],84,47,medium,plus,dotcolour,beta,,,34,18,V,R,
106,106,22,2,0,53,27,1200,['c'],1,left,['9'],5,452,[0.1967729],100,53,easy,plus,dotcolour,beta,,,34,18,V,R,
107,107,23,2,0,27,53,851,['n'],1,right,['0'],6,368,[-0.177903],100,53,easy,plus,dotcolour,beta,,,34,18,V,R,
108,108,24,2,0,44,36,851,['c'],1,left,['0'],6,281,[0.08790314],99,44,hard,plus,dotcolour,beta,,,34,18,V,R,
109,109,25,2,0,47,33,1401,['c'],1,left,['9'],5,431,[0.15911432],100,47,medium,plus,dotcolour,beta,,,34,18,V,R,
110,110,26,2,0,27,53,633,['n'],1,right,['0'],6,325,[-0.18490499],100,53,easy,plus,dotcolour,beta,,,34,18,V,R,
111,111,27,2,0,36,44,868,['c'],0,right,['0'],6,208,[0.04340652],98,44,hard,plus,dotcolour,beta,,,34,18,V,R,
112,112,28,2,0,33,47,1318,['c'],0,right,['9'],5,332,[-0.00033414],85,47,medium,plus,dotcolour,beta,,,34,18,V,R,
113,113,29,2,0,53,27,1301,['c'],1,left,['9'],5,420,[0.24738596],100,53,easy,plus,dotcolour,beta,,,34,18,V,R,
114,114,30,2,0,44,36,1284,['c'],1,left,['9'],5,360,[0.04461511],95,44,hard,plus,dotcolour,beta,,,34,18,V,R,
115,115,31,2,0,36,44,901,['c'],0,right,['9'],5,438,[0.02200322],89,44,hard,plus,dotcolour,beta,,,34,18,V,R,
116,116,32,2,0,53,27,768,['c'],1,left,['9'],5,215,[0.12451355],100,53,easy,plus,dotcolour,beta,,,34,18,V,R,
117,117,33,2,0,36,44,1468,['c'],0,right,['0'],6,165,[0.04395687],99,44,hard,plus,dotcolour,beta,,,34,18,V,R,
118,118,34,2,0,33,47,1218,['n'],1,right,['0'],6,287,[-0.13899917],100,47,medium,plus,dotcolour,beta,,,34,18,V,R,
119,119,35,2,0,44,36,3534,['n'],0,left,['9'],5,327,[-0.10339108],99,44,hard,plus,dotcolour,beta,,,34,18,V,R,
120,120,36,2,0,47,33,683,['c'],1,left,['0'],6,456,[0.01702723],87,47,medium,plus,dotcolour,beta,,,34,18,V,R,
121,121,37,2,0,36,44,1084,['c'],0,right,['9'],5,451,[0.04895714],94,44,hard,plus,dotcolour,beta,,,34,18,V,R,
122,122,38,2,0,36,44,1300,['n'],1,right,['8'],4,343,[-0.17684355],100,44,hard,plus,dotcolour,beta,,,34,18,V,R,
123,123,39,2,0,27,53,817,['n'],1,right,['8'],4,369,[-0.05796603],97,53,easy,plus,dotcolour,beta,,,34,18,V,R,
124,124,40,2,0,36,44,983,['n'],1,right,['8'],4,244,[-0.13597345],100,44,hard,plus,dotcolour,beta,,,34,18,V,R,
125,125,41,2,0,36,44,867,['c'],0,right,['9'],5,249,[0.06058086],99,44,hard,plus,dotcolour,beta,,,34,18,V,R,
126,0,0,3,1,33,47,1384,['n'],1,right,['0'],6,245,[-0.10187881],84,47,medium,minus,dotcolour,beta,,,34,18,V,R,
127,1,1,3,1,33,47,933,['n'],1,right,['9'],5,407,[-0.04457741],42,47,medium,minus,dotcolour,beta,,,34,18,V,R,
128,2,2,3,1,47,33,650,['c'],1,left,['0'],6,1982,[0.13328392],73,47,medium,minus,dotcolour,beta,,,34,18,V,R,
129,3,3,3,1,44,36,918,['c'],1,left,['9'],5,442,[0.09324023],74,44,hard,minus,dotcolour,beta,,,34,18,V,R,
130,4,4,3,1,33,47,1284,['n'],1,right,['3'],3,942,[-0.19472486],93,47,medium,minus,dotcolour,beta,,,34,18,V,R,
131,5,5,3,1,47,33,2068,['c'],1,left,['8'],4,799,[0.07944125],62,47,medium,minus,dotcolour,beta,,,34,18,V,R,
132,6,6,3,1,36,44,833,['n'],1,right,['9'],5,311,[-0.09097952],76,44,hard,minus,dotcolour,beta,,,34,18,V,R,
133,7,7,3,1,27,53,616,['n'],1,right,['0'],6,611,[-0.12113935],82,53,easy,minus,dotcolour,beta,,,34,18,V,R,
134,8,8,3,1,33,47,1483,['c'],0,right,['9'],5,248,[0.01946461],21,47,medium,minus,dotcolour,beta,,,34,18,V,R,
135,9,9,3,1,27,53,599,['n'],1,right,['0'],6,512,[-0.05846143],52,53,easy,minus,dotcolour,beta,,,34,18,V,R,
136,10,10,3,1,36,44,850,['n'],1,right,['9'],5,354,[-0.04076354],39,44,hard,minus,dotcolour,beta,,,34,18,V,R,
137,11,11,3,1,36,44,1001,['n'],1,right,['8'],4,1357,[-0.07966538],59,44,hard,minus,dotcolour,beta,,,34,18,V,R,
138,12,12,3,1,27,53,1466,['n'],1,right,['8'],4,373,[-0.05116747],47,53,easy,minus,dotcolour,beta,,,34,18,V,R,
139,13,13,3,1,47,33,1634,['c'],1,left,['8'],4,478,[0.11447111],82,47,medium,minus,dotcolour,beta,,,34,18,V,R,
140,14,14,3,1,44,36,1067,['c'],1,left,['9'],5,377,[0.08655412],71,44,hard,minus,dotcolour,beta,,,34,18,V,R,
141,15,15,3,1,47,33,1150,['c'],1,left,['9'],5,421,[0.0783096],65,47,medium,minus,dotcolour,beta,,,34,18,V,R,
142,16,16,3,1,47,33,1150,['c'],1,left,['9'],5,263,[0.08343863],73,47,medium,minus,dotcolour,beta,,,34,18,V,R,
143,17,17,3,1,27,53,933,['n'],1,right,['8'],4,705,[-0.09399202],70,53,easy,minus,dotcolour,beta,,,34,18,V,R,
144,18,18,3,1,33,47,1201,['c'],0,right,['8'],4,406,[0.06746164],58,47,medium,minus,dotcolour,beta,,,34,18,V,R,
145,19,19,3,1,44,36,950,['c'],1,left,['3'],3,696,[-0.02463007],15,44,hard,minus,dotcolour,beta,,,34,18,V,R,
146,20,20,3,1,47,33,1184,['c'],1,left,['8'],4,646,[0.15561631],90,47,medium,minus,dotcolour,beta,,,34,18,V,R,
147,21,21,3,1,53,27,767,['c'],1,left,['9'],5,335,[0.15018787],95,53,easy,minus,dotcolour,beta,,,34,18,V,R,
148,22,22,3,1,53,27,551,['c'],1,left,['0'],6,269,[0.1220315],91,53,easy,minus,dotcolour,beta,,,34,18,V,R,
149,23,23,3,1,53,27,667,['c'],1,left,['0'],6,337,[0.08588683],72,53,easy,minus,dotcolour,beta,,,34,18,V,R,
150,24,24,3,1,47,33,784,['c'],1,left,['9'],5,277,[0.10014386],82,47,medium,minus,dotcolour,beta,,,34,18,V,R,
151,25,25,3,1,53,27,417,['c'],1,left,['9'],5,299,[0.20507525],99,53,easy,minus,dotcolour,beta,,,34,18,V,R,
152,26,26,3,1,36,44,1616,['c'],0,right,['0'],6,199,[0.0568903],51,44,hard,minus,dotcolour,beta,,,34,18,V,R,
153,27,27,3,1,44,36,834,['n'],0,left,['9'],5,407,[-0.0982345],77,44,hard,minus,dotcolour,beta,,,34,18,V,R,
154,28,28,3,1,53,27,1818,['c'],1,left,['8'],4,559,[0.13527684],87,53,easy,minus,dotcolour,beta,,,34,18,V,R,
155,29,29,3,1,36,44,1050,['n'],1,right,['9'],5,384,[0.0026169],16,44,hard,minus,dotcolour,beta,,,34,18,V,R,
156,30,30,3,1,53,27,701,['c'],1,left,['9'],5,502,[0.06570694],56,53,easy,minus,dotcolour,beta,,,34,18,V,R,
157,31,31,3,1,27,53,834,['n'],1,right,['0'],6,545,[-0.16199036],93,53,easy,minus,dotcolour,beta,,,34,18,V,R,
158,32,32,3,1,33,47,1366,['n'],1,right,['0'],6,286,[-0.16221709],97,47,medium,minus,dotcolour,beta,,,34,18,V,R,
159,33,33,3,1,53,27,932,['c'],1,left,['0'],6,328,[0.04390422],41,53,easy,minus,dotcolour,beta,,,34,18,V,R,
160,34,34,3,1,36,44,1849,['c'],0,right,['8'],4,481,[-0.0747602],3,44,hard,minus,dotcolour,beta,,,34,18,V,R,
161,35,35,3,1,44,36,1267,['c'],1,left,['3'],3,628,[-0.00900894],19,44,hard,minus,dotcolour,beta,,,34,18,V,R,
162,36,36,3,1,27,53,1134,['n'],1,right,['8'],4,486,[-0.18006973],96,53,easy,minus,dotcolour,beta,,,34,18,V,R,
163,37,37,3,1,33,47,634,['n'],1,right,['8'],4,323,[-0.08487325],72,47,medium,minus,dotcolour,beta,,,34,18,V,R,
164,38,38,3,1,44,36,967,['c'],1,left,['9'],5,384,[0.11347792],84,44,hard,minus,dotcolour,beta,,,34,18,V,R,
165,39,39,3,1,44,36,884,['c'],1,left,['9'],5,159,[0.06500246],61,44,hard,minus,dotcolour,beta,,,34,18,V,R,
166,40,40,3,1,36,44,900,['n'],1,right,['1'],1,1303,[-0.05853425],51,44,hard,minus,dotcolour,beta,,,34,18,V,R,
167,41,41,3,1,27,53,1483,['n'],1,right,['3'],3,248,[-0.21381191],100,53,easy,minus,dotcolour,beta,,,34,18,V,R,
168,42,0,4,1,53,27,734,['c'],1,left,['9'],5,287,[0.15066762],96,53,easy,minus,dotcolour,beta,,,34,18,V,R,
169,43,1,4,1,44,36,1101,['c'],1,left,['8'],4,336,[0.05483198],49,44,hard,minus,dotcolour,beta,,,34,18,V,R,
170,44,2,4,1,53,27,834,['c'],1,left,['8'],4,402,[0.16291474],95,53,easy,minus,dotcolour,beta,,,34,18,V,R,
171,45,3,4,1,33,47,734,['c'],0,right,['3'],3,510,[-0.03584526],9,47,medium,minus,dotcolour,beta,,,34,18,V,R,
172,46,4,4,1,33,47,818,['n'],1,right,['9'],5,306,[-0.11581636],88,47,medium,minus,dotcolour,beta,,,34,18,V,R,
173,47,5,4,1,33,47,900,['n'],1,right,['9'],5,235,[-0.070777],64,47,medium,minus,dotcolour,beta,,,34,18,V,R,
174,48,6,4,1,33,47,734,['n'],1,right,['3'],3,773,[-0.1225005],80,47,medium,minus,dotcolour,beta,,,34,18,V,R,
175,49,7,4,1,53,27,867,['c'],1,left,['9'],5,429,[0.27186784],100,53,easy,minus,dotcolour,beta,,,34,18,V,R,
176,50,8,4,1,27,53,716,['n'],1,right,['0'],6,320,[-0.19426296],99,53,easy,minus,dotcolour,beta,,,34,18,V,R,
177,51,9,4,1,27,53,518,['n'],1,right,['0'],6,343,[-0.25037908],100,53,easy,minus,dotcolour,beta,,,34,18,V,R,
178,52,10,4,1,44,36,700,['c'],1,left,['0'],6,366,[0.10002153],79,44,hard,minus,dotcolour,beta,,,34,18,V,R,
179,53,11,4,1,33,47,1634,['n'],1,right,['3'],3,360,[-0.03056153],32,47,medium,minus,dotcolour,beta,,,34,18,V,R,
180,54,12,4,1,53,27,1266,['c'],1,left,['0'],6,303,[0.05575183],50,53,easy,minus,dotcolour,beta,,,34,18,V,R,
181,55,13,4,1,53,27,651,['c'],1,left,['0'],6,626,[0.16113247],92,53,easy,minus,dotcolour,beta,,,34,18,V,R,
182,56,14,4,1,27,53,650,['n'],1,right,['0'],6,328,[-0.13668214],93,53,easy,minus,dotcolour,beta,,,34,18,V,R,
183,57,15,4,1,44,36,684,['c'],1,left,['8'],4,977,[0.2421403],97,44,hard,minus,dotcolour,beta,,,34,18,V,R,
184,58,16,4,1,47,33,666,['c'],1,left,['8'],4,321,[0.10785195],84,47,medium,minus,dotcolour,beta,,,34,18,V,R,
185,59,17,4,1,44,36,583,['c'],1,left,['9'],5,317,[-0.02565482],7,44,hard,minus,dotcolour,beta,,,34,18,V,R,
186,60,18,4,1,33,47,667,['n'],1,right,['3'],3,567,[-0.06889252],58,47,medium,minus,dotcolour,beta,,,34,18,V,R,
187,61,19,4,1,47,33,1916,['c'],1,left,['3'],3,589,[0.02567616],33,47,medium,minus,dotcolour,beta,,,34,18,V,R,
188,62,20,4,1,27,53,1000,['n'],1,right,['9'],5,311,[-0.16854343],97,53,easy,minus,dotcolour,beta,,,34,18,V,R,
189,63,21,4,1,47,33,1017,['c'],1,left,['9'],5,323,[-0.00861278],12,47,medium,minus,dotcolour,beta,,,34,18,V,R,
190,64,22,4,1,47,33,916,['c'],1,left,['9'],5,539,[0.15881511],93,47,medium,minus,dotcolour,beta,,,34,18,V,R,
191,65,23,4,1,33,47,850,['n'],1,right,['9'],5,292,[-0.17881008],98,47,medium,minus,dotcolour,beta,,,34,18,V,R,
192,66,24,4,1,36,44,1268,['c'],0,right,['8'],4,358,[-0.00956564],12,44,hard,minus,dotcolour,beta,,,34,18,V,R,
193,67,25,4,1,36,44,901,['n'],1,right,['0'],6,253,[-0.15080833],97,44,hard,minus,dotcolour,beta,,,34,18,V,R,
194,68,26,4,1,27,53,501,['n'],1,right,['0'],6,345,[-0.04461997],42,53,easy,minus,dotcolour,beta,,,34,18,V,R,
195,69,27,4,1,36,44,1434,['c'],0,right,['3'],3,522,[0.21101895],98,44,hard,minus,dotcolour,beta,,,34,18,V,R,
196,70,28,4,1,36,44,716,['n'],1,right,['0'],6,402,[-0.18760369],98,44,hard,minus,dotcolour,beta,,,34,18,V,R,
197,71,29,4,1,27,53,951,['n'],1,right,['0'],6,301,[-0.1291757],92,53,easy,minus,dotcolour,beta,,,34,18,V,R,
198,72,30,4,1,36,44,1050,['c'],0,right,['8'],4,385,[-0.00586486],14,44,hard,minus,dotcolour,beta,,,34,18,V,R,
199,73,31,4,1,44,36,1450,['c'],1,left,['3'],3,472,[0.04621645],44,44,hard,minus,dotcolour,beta,,,34,18,V,R,
200,74,32,4,1,36,44,1150,['c'],0,right,['3'],3,297,[0.02026609],24,44,hard,minus,dotcolour,beta,,,34,18,V,R,
201,75,33,4,1,44,36,1100,['c'],1,left,['8'],4,427,[-0.00468561],16,44,hard,minus,dotcolour,beta,,,34,18,V,R,
202,76,34,4,1,53,27,766,['c'],1,left,['8'],4,467,[0.03058733],34,53,easy,minus,dotcolour,beta,,,34,18,V,R,
203,77,35,4,1,47,33,783,['c'],1,left,['8'],4,499,[0.19895064],97,47,medium,minus,dotcolour,beta,,,34,18,V,R,
204,78,36,4,1,53,27,717,['c'],1,left,['9'],5,435,[0.16857213],96,53,easy,minus,dotcolour,beta,,,34,18,V,R,
205,79,37,4,1,27,53,551,['n'],1,right,['0'],6,309,[-0.1330827],92,53,easy,minus,dotcolour,beta,,,34,18,V,R,
206,80,38,4,1,36,44,984,['c'],0,right,['0'],6,290,[0.15838403],97,44,hard,minus,dotcolour,beta,,,34,18,V,R,
207,81,39,4,1,47,33,651,['c'],1,left,['0'],6,247,[0.08086592],71,47,medium,minus,dotcolour,beta,,,34,18,V,R,
208,82,40,4,1,47,33,901,['c'],1,left,['8'],4,585,[0.16857108],93,47,medium,minus,dotcolour,beta,,,34,18,V,R,
209,83,41,4,1,44,36,868,['n'],0,left,['9'],5,321,[-0.03567343],35,44,hard,minus,dotcolour,beta,,,34,18,V,R,
210,84,0,5,1,44,36,1384,['c'],1,left,['8'],4,358,[0.01669148],24,44,hard,minus,dotcolour,beta,,,34,18,V,R,
211,85,1,5,1,27,53,984,['n'],1,right,['9'],5,937,[-0.12592652],79,53,easy,minus,dotcolour,beta,,,34,18,V,R,
212,86,2,5,1,47,33,733,['n'],0,left,['3'],3,863,[-0.03311849],39,47,medium,minus,dotcolour,beta,,,34,18,V,R,
213,87,3,5,1,53,27,800,['c'],1,left,['8'],4,438,[0.18753601],97,53,easy,minus,dotcolour,beta,,,34,18,V,R,
214,88,4,5,1,53,27,1317,['c'],1,left,['9'],5,257,[0.083368],73,53,easy,minus,dotcolour,beta,,,34,18,V,R,
215,89,5,5,1,44,36,784,['n'],0,left,['0'],6,337,[-0.00472239],17,44,hard,minus,dotcolour,beta,,,34,18,V,R,
216,90,6,5,1,47,33,1315,['c'],1,left,['8'],4,600,[0.06725358],57,47,medium,minus,dotcolour,beta,,,34,18,V,R,
217,91,7,5,1,36,44,667,['n'],1,right,['8'],4,454,[-0.14022157],91,44,hard,minus,dotcolour,beta,,,34,18,V,R,
218,92,8,5,1,36,44,600,['c'],0,right,['9'],5,268,[0.06340642],57,44,hard,minus,dotcolour,beta,,,34,18,V,R,
219,93,9,5,1,27,53,601,['n'],1,right,['0'],6,443,[-0.11282464],82,53,easy,minus,dotcolour,beta,,,34,18,V,R,
220,94,10,5,1,47,33,817,['c'],1,left,['0'],6,434,[0.07593324],64,47,medium,minus,dotcolour,beta,,,34,18,V,R,
221,95,11,5,1,33,47,750,['c'],0,right,['9'],5,292,[0.06032398],54,47,medium,minus,dotcolour,beta,,,34,18,V,R,
222,96,12,5,1,47,33,1235,['c'],1,left,['8'],4,416,[0.18260851],97,47,medium,minus,dotcolour,beta,,,34,18,V,R,
223,97,13,5,1,47,33,750,['c'],1,left,['0'],6,218,[0.05472667],49,47,medium,minus,dotcolour,beta,,,34,18,V,R,
224,98,14,5,1,44,36,700,['c'],1,left,['9'],5,183,[0.07196248],67,44,hard,minus,dotcolour,beta,,,34,18,V,R,
225,99,15,5,1,47,33,784,['c'],1,left,['0'],6,274,[0.18920591],99,47,medium,minus,dotcolour,beta,,,34,18,V,R,
226,100,16,5,1,36,44,800,['n'],1,right,['8'],4,424,[-0.08935595],72,44,hard,minus,dotcolour,beta,,,34,18,V,R,
227,101,17,5,1,33,47,1151,['n'],1,right,['9'],5,394,[-0.11999935],86,47,medium,minus,dotcolour,beta,,,34,18,V,R,
228,102,18,5,1,27,53,684,['n'],1,right,['8'],4,416,[-0.10861064],81,53,easy,minus,dotcolour,beta,,,34,18,V,R,
229,103,19,5,1,33,47,516,['n'],1,right,['9'],5,349,[-0.03878784],37,47,medium,minus,dotcolour,beta,,,34,18,V,R,
230,104,20,5,1,44,36,617,['c'],1,left,['3'],3,294,[0.16181638],97,44,hard,minus,dotcolour,beta,,,34,18,V,R,
231,105,21,5,1,44,36,1016,['c'],1,left,['9'],5,307,[0.13378334],93,44,hard,minus,dotcolour,beta,,,34,18,V,R,
232,106,22,5,1,53,27,649,['c'],1,left,['9'],5,318,[0.1793048],98,53,easy,minus,dotcolour,beta,,,34,18,V,R,
233,107,23,5,1,33,47,817,['c'],0,right,['8'],4,258,[0.06772283],61,47,medium,minus,dotcolour,beta,,,34,18,V,R,
234,108,24,5,1,36,44,734,['n'],1,right,['9'],5,851,[-0.14265593],85,44,hard,minus,dotcolour,beta,,,34,18,V,R,
235,109,25,5,1,36,44,1101,['n'],1,right,['9'],5,214,[-0.01142128],15,44,hard,minus,dotcolour,beta,,,34,18,V,R,
236,110,26,5,1,27,53,1217,['n'],1,right,['8'],4,366,[-0.13471305],91,53,easy,minus,dotcolour,beta,,,34,18,V,R,
237,111,27,5,1,33,47,2134,['c'],0,right,['9'],5,428,[-0.03737876],7,47,medium,minus,dotcolour,beta,,,34,18,V,R,
238,112,28,5,1,33,47,1266,['c'],0,right,['8'],4,266,[0.03165498],30,47,medium,minus,dotcolour,beta,,,34,18,V,R,
239,113,29,5,1,44,36,867,['c'],1,left,['0'],6,405,[0.06178675],54,44,hard,minus,dotcolour,beta,,,34,18,V,R,
240,114,30,5,1,53,27,584,['c'],1,left,['0'],6,182,[0.10549511],89,53,easy,minus,dotcolour,beta,,,34,18,V,R,
241,115,31,5,1,27,53,717,['c'],0,right,['9'],5,372,[-0.09137228],1,53,easy,minus,dotcolour,beta,,,34,18,V,R,
242,116,32,5,1,36,44,1102,['c'],0,right,['8'],4,442,[-0.01854517],12,44,hard,minus,dotcolour,beta,,,34,18,V,R,
243,117,33,5,1,33,47,966,['n'],1,right,['8'],4,522,[-0.11931983],83,47,medium,minus,dotcolour,beta,,,34,18,V,R,
244,118,34,5,1,53,27,850,['c'],1,left,['9'],5,628,[0.18881543],95,53,easy,minus,dotcolour,beta,,,34,18,V,R,
245,119,35,5,1,53,27,900,['c'],1,left,['0'],6,409,[0.16783287],96,53,easy,minus,dotcolour,beta,,,34,18,V,R,
246,120,36,5,1,44,36,583,['c'],1,left,['0'],6,314,[0.07498428],65,44,hard,minus,dotcolour,beta,,,34,18,V,R,
247,121,37,5,1,27,53,667,['n'],1,right,['0'],6,316,[-0.11705703],88,53,easy,minus,dotcolour,beta,,,34,18,V,R,
248,122,38,5,1,47,33,868,['c'],1,left,['0'],6,438,[0.17555116],96,47,medium,minus,dotcolour,beta,,,34,18,V,R,
249,123,39,5,1,27,53,1534,['n'],1,right,['9'],5,296,[-0.18581487],99,53,easy,minus,dotcolour,beta,,,34,18,V,R,
250,124,40,5,1,53,27,517,['c'],1,left,['9'],5,505,[0.18094344],96,53,easy,minus,dotcolour,beta,,,34,18,V,R,
251,125,41,5,1,36,44,666,['c'],0,right,['9'],5,258,[0.11251326],88,44,hard,minus,dotcolour,beta,,,34,18,V,R,
252,0,0,6,2,53,27,3084,['c'],1,left,['8'],4,229,[0.23317709],100,53,easy,plus,dotcolour,beta,,,34,18,V,R,
253,1,1,6,2,27,53,1067,['n'],1,right,['9'],5,322,[-0.13579062],100,53,easy,plus,dotcolour,beta,,,34,18,V,R,
254,2,2,6,2,33,47,801,['n'],1,right,['9'],5,318,[-0.02793172],93,47,medium,plus,dotcolour,beta,,,34,18,V,R,
255,3,3,6,2,36,44,600,['c'],0,right,['0'],6,235,[0.03319158],96,44,hard,plus,dotcolour,beta,,,34,18,V,R,
256,4,4,6,2,33,47,651,['n'],1,right,['9'],5,448,[-0.18834532],100,47,medium,plus,dotcolour,beta,,,34,18,V,R,
257,5,5,6,2,27,53,700,['n'],1,right,['0'],6,348,[-0.16365835],100,53,easy,plus,dotcolour,beta,,,34,18,V,R,
258,6,6,6,2,36,44,600,['n'],1,right,['0'],6,231,[-0.04808031],98,44,hard,plus,dotcolour,beta,,,34,18,V,R,
259,7,7,6,2,53,27,751,['c'],1,left,['0'],6,217,[0.08360111],100,53,easy,plus,dotcolour,beta,,,34,18,V,R,
260,8,8,6,2,47,33,751,['c'],1,left,['0'],6,308,[0.06729216],98,47,medium,plus,dotcolour,beta,,,34,18,V,R,
261,9,9,6,2,53,27,418,['c'],1,left,['0'],6,496,[0.2061856],100,53,easy,plus,dotcolour,beta,,,34,18,V,R,
262,10,10,6,2,27,53,568,['n'],1,right,['0'],6,246,[-0.02862175],95,53,easy,plus,dotcolour,beta,,,34,18,V,R,
263,11,11,6,2,44,36,667,['n'],0,left,['8'],4,1251,[0.10490456],31,44,hard,plus,dotcolour,beta,,,34,18,V,R,
264,12,12,6,2,36,44,567,['c'],0,right,['9'],5,267,[0.07057891],99,44,hard,plus,dotcolour,beta,,,34,18,V,R,
265,13,13,6,2,47,33,1317,['c'],1,left,['0'],6,157,[0.1160397],100,47,medium,plus,dotcolour,beta,,,34,18,V,R,
266,14,14,6,2,27,53,466,['n'],1,right,['0'],6,269,[-0.09452978],99,53,easy,plus,dotcolour,beta,,,34,18,V,R,
267,15,15,6,2,47,33,567,['c'],1,left,['3'],3,525,[0.15230031],99,47,medium,plus,dotcolour,beta,,,34,18,V,R,
268,16,16,6,2,27,53,1434,['n'],1,right,['0'],6,256,[-0.14533112],100,53,easy,plus,dotcolour,beta,,,34,18,V,R,
269,17,17,6,2,36,44,818,['n'],1,right,['0'],6,238,[-0.21650944],100,44,hard,plus,dotcolour,beta,,,34,18,V,R,
270,18,18,6,2,47,33,750,['c'],1,left,['9'],5,216,[-0.00517749],88,47,medium,plus,dotcolour,beta,,,34,18,V,R,
271,19,19,6,2,44,36,567,['n'],0,left,['2'],2,1353,[0.03702244],57,44,hard,plus,dotcolour,beta,,,34,18,V,R,
272,20,20,6,2,44,36,717,['c'],1,left,['8'],4,223,[0.08139816],99,44,hard,plus,dotcolour,beta,,,34,18,V,R,
273,21,21,6,2,53,27,750,['c'],1,left,['9'],5,313,[0.09183085],99,53,easy,plus,dotcolour,beta,,,34,18,V,R,
274,22,22,6,2,47,33,617,['c'],1,left,['0'],6,239,[0.10402594],100,47,medium,plus,dotcolour,beta,,,34,18,V,R,
275,23,23,6,2,44,36,734,['c'],1,left,['0'],6,183,[0.08145633],100,44,hard,plus,dotcolour,beta,,,34,18,V,R,
276,24,24,6,2,27,53,733,['n'],1,right,['0'],6,244,[-0.22673279],100,53,easy,plus,dotcolour,beta,,,34,18,V,R,
277,25,25,6,2,33,47,534,['n'],1,right,['0'],6,398,[-0.13069448],100,47,medium,plus,dotcolour,beta,,,34,18,V,R,
278,26,26,6,2,53,27,917,['c'],1,left,['9'],5,283,[0.09595819],99,53,easy,plus,dotcolour,beta,,,34,18,V,R,
279,27,27,6,2,47,33,501,['c'],1,left,['9'],5,205,[5.7399963e-05],90,47,medium,plus,dotcolour,beta,,,34,18,V,R,
280,28,28,6,2,33,47,484,['c'],0,right,['9'],5,267,[0.10227353],100,47,medium,plus,dotcolour,beta,,,34,18,V,R,
281,29,29,6,2,33,47,500,['c'],0,right,['9'],5,845,[-0.11179282],25,47,medium,plus,dotcolour,beta,,,34,18,V,R,
282,30,30,6,2,33,47,817,['n'],1,right,['9'],5,307,[0.01197183],80,47,medium,plus,dotcolour,beta,,,34,18,V,R,
283,31,31,6,2,36,44,668,['n'],1,right,['9'],5,485,[-0.01735142],87,44,hard,plus,dotcolour,beta,,,34,18,V,R,
284,32,32,6,2,33,47,600,['n'],1,right,['0'],6,323,[-0.04186545],96,47,medium,plus,dotcolour,beta,,,34,18,V,R,
285,33,33,6,2,27,53,651,['n'],1,right,['0'],6,221,[-0.21302138],100,53,easy,plus,dotcolour,beta,,,34,18,V,R,
286,34,34,6,2,44,36,900,['c'],1,left,['9'],5,617,[0.00122866],79,44,hard,plus,dotcolour,beta,,,34,18,V,R,
287,35,35,6,2,36,44,784,['n'],1,right,['9'],5,290,[-0.05060932],97,44,hard,plus,dotcolour,beta,,,34,18,V,R,
288,36,36,6,2,44,36,950,['c'],1,left,['0'],6,185,[0.15281594],100,44,hard,plus,dotcolour,beta,,,34,18,V,R,
289,37,37,6,2,53,27,650,['c'],1,left,['0'],6,265,[0.11607851],100,53,easy,plus,dotcolour,beta,,,34,18,V,R,
290,38,38,6,2,44,36,551,['c'],1,left,['0'],6,282,[0.08066129],99,44,hard,plus,dotcolour,beta,,,34,18,V,R,
291,39,39,6,2,53,27,567,['c'],1,left,['0'],6,193,[0.11208066],100,53,easy,plus,dotcolour,beta,,,34,18,V,R,
292,40,40,6,2,47,33,467,['c'],1,left,['0'],6,256,[0.08773852],99,47,medium,plus,dotcolour,beta,,,34,18,V,R,
293,41,41,6,2,36,44,783,['c'],0,right,['0'],6,199,[0.02990505],97,44,hard,plus,dotcolour,beta,,,34,18,V,R,
294,42,0,7,2,53,27,669,['c'],1,left,['9'],5,554,[0.10161886],98,53,easy,plus,dotcolour,beta,,,34,18,V,R,
295,43,1,7,2,27,53,951,['n'],1,right,['9'],5,303,[-0.08311291],99,53,easy,plus,dotcolour,beta,,,34,18,V,R,
296,44,2,7,2,53,27,633,['c'],1,left,['0'],6,260,[0.11557343],100,53,easy,plus,dotcolour,beta,,,34,18,V,R,
297,45,3,7,2,36,44,867,['n'],1,right,['9'],5,279,[-0.08311015],99,44,hard,plus,dotcolour,beta,,,34,18,V,R,
298,46,4,7,2,36,44,816,['n'],1,right,['3'],3,1213,[-0.12107536],95,44,hard,plus,dotcolour,beta,,,34,18,V,R,
299,47,5,7,2,33,47,917,['n'],1,right,['9'],5,344,[-0.19134909],100,47,medium,plus,dotcolour,beta,,,34,18,V,R,
300,48,6,7,2,44,36,518,['c'],1,left,['3'],3,808,[0.28930033],100,44,hard,plus,dotcolour,beta,,,34,18,V,R,
301,49,7,7,2,36,44,1534,['c'],0,right,['0'],6,178,[0.10892043],100,44,hard,plus,dotcolour,beta,,,34,18,V,R,
302,50,8,7,2,47,33,701,['n'],0,left,['0'],6,384,[0.05186545],53,47,medium,plus,dotcolour,beta,,,34,18,V,R,
303,51,9,7,2,33,47,4600,['n'],1,right,['3'],3,922,[-0.19413226],99,47,medium,plus,dotcolour,beta,,,34,18,V,R,
304,52,10,7,2,33,47,1233,['n'],1,right,['9'],5,261,[-0.08396263],99,47,medium,plus,dotcolour,beta,,,34,18,V,R,
305,53,11,7,2,36,44,751,['n'],1,right,['9'],5,470,[-0.1891742],100,44,hard,plus,dotcolour,beta,,,34,18,V,R,
306,54,12,7,2,27,53,617,['n'],1,right,['0'],6,308,[-0.09586744],99,53,easy,plus,dotcolour,beta,,,34,18,V,R,
307,55,13,7,2,44,36,650,['n'],0,left,['0'],6,222,[-0.04072041],98,44,hard,plus,dotcolour,beta,,,34,18,V,R,
308,56,14,7,2,47,33,3117,['c'],1,left,['0'],6,114,[0.03456338],99,47,medium,plus,dotcolour,beta,,,34,18,V,R,
309,57,15,7,2,44,36,833,['c'],1,left,['0'],6,382,[0.00763964],86,44,hard,plus,dotcolour,beta,,,34,18,V,R,
310,58,16,7,2,27,53,550,['n'],1,right,['9'],5,321,[-0.22832608],100,53,easy,plus,dotcolour,beta,,,34,18,V,R,
311,59,17,7,2,27,53,566,['n'],1,right,['9'],5,286,[-0.13968731],100,53,easy,plus,dotcolour,beta,,,34,18,V,R,
312,60,18,7,2,36,44,600,['c'],0,right,['0'],6,221,[0.07710159],99,44,hard,plus,dotcolour,beta,,,34,18,V,R,
313,61,19,7,2,44,36,600,['c'],1,left,['0'],6,188,[0.05944361],99,44,hard,plus,dotcolour,beta,,,34,18,V,R,
314,62,20,7,2,53,27,466,['c'],1,left,['0'],6,195,[0.07461036],100,53,easy,plus,dotcolour,beta,,,34,18,V,R,
315,63,21,7,2,33,47,500,['c'],0,right,['9'],5,424,[0.07497826],97,47,medium,plus,dotcolour,beta,,,34,18,V,R,
316,64,22,7,2,27,53,1334,['n'],1,right,['9'],5,371,[-0.27344514],100,53,easy,plus,dotcolour,beta,,,34,18,V,R,
317,65,23,7,2,53,27,650,['c'],1,left,['0'],6,211,[0.1120796],100,53,easy,plus,dotcolour,beta,,,34,18,V,R,
318,66,24,7,2,27,53,884,['n'],1,right,['0'],6,248,[-0.11265785],100,53,easy,plus,dotcolour,beta,,,34,18,V,R,
319,67,25,7,2,47,33,484,['c'],1,left,['0'],6,205,[0.13093044],100,47,medium,plus,dotcolour,beta,,,34,18,V,R,
320,68,26,7,2,47,33,534,['c'],1,left,['0'],6,184,[0.10037761],100,47,medium,plus,dotcolour,beta,,,34,18,V,R,
321,69,27,7,2,27,53,549,['n'],1,right,['0'],6,228,[-0.13250898],100,53,easy,plus,dotcolour,beta,,,34,18,V,R,
322,70,28,7,2,53,27,750,['c'],1,left,['0'],6,182,[0.06491604],99,53,easy,plus,dotcolour,beta,,,34,18,V,R,
323,71,29,7,2,33,47,499,['c'],0,right,['3'],3,676,[0.1443441],99,47,medium,plus,dotcolour,beta,,,34,18,V,R,
324,72,30,7,2,44,36,633,['c'],1,left,['0'],6,409,[0.08388366],98,44,hard,plus,dotcolour,beta,,,34,18,V,R,
325,73,31,7,2,44,36,633,['c'],1,left,['9'],5,448,[0.14761878],100,44,hard,plus,dotcolour,beta,,,34,18,V,R,
326,74,32,7,2,33,47,783,['n'],1,right,['9'],5,328,[-0.2015392],100,47,medium,plus,dotcolour,beta,,,34,18,V,R,
327,75,33,7,2,47,33,635,['c'],1,left,['0'],6,259,[0.04292784],97,47,medium,plus,dotcolour,beta,,,34,18,V,R,
328,76,34,7,2,44,36,567,['c'],1,left,['9'],5,314,[0.04862359],97,44,hard,plus,dotcolour,beta,,,34,18,V,R,
329,77,35,7,2,53,27,468,['c'],1,left,['0'],6,300,[0.10081386],99,53,easy,plus,dotcolour,beta,,,34,18,V,R,
330,78,36,7,2,33,47,566,['n'],1,right,['0'],6,316,[-0.14807299],100,47,medium,plus,dotcolour,beta,,,34,18,V,R,
331,79,37,7,2,36,44,535,['n'],1,right,['0'],6,234,[-0.13049244],100,44,hard,plus,dotcolour,beta,,,34,18,V,R,
332,80,38,7,2,47,33,584,['c'],1,left,['0'],6,275,[0.06171356],98,47,medium,plus,dotcolour,beta,,,34,18,V,R,
333,81,39,7,2,47,33,767,['c'],1,left,['0'],6,322,[0.11826465],100,47,medium,plus,dotcolour,beta,,,34,18,V,R,
334,82,40,7,2,53,27,518,['c'],1,left,['0'],6,194,[0.03639868],98,53,easy,plus,dotcolour,beta,,,34,18,V,R,
335,83,41,7,2,36,44,866,['c'],0,right,['0'],6,192,[0.08187797],100,44,hard,plus,dotcolour,beta,,,34,18,V,R,
336,84,0,8,2,53,27,1100,['c'],1,left,['0'],6,166,[0.11213159],100,53,easy,plus,dotcolour,beta,,,34,18,V,R,
337,85,1,8,2,53,27,533,['c'],1,left,['0'],6,435,[0.13777263],99,53,easy,plus,dotcolour,beta,,,34,18,V,R,
338,86,2,8,2,27,53,617,['n'],1,right,['0'],6,226,[-0.18640111],100,53,easy,plus,dotcolour,beta,,,34,18,V,R,
339,87,3,8,2,33,47,533,['n'],1,right,['0'],6,269,[-0.05085544],98,47,medium,plus,dotcolour,beta,,,34,18,V,R,
340,88,4,8,2,33,47,667,['n'],1,right,['9'],5,297,[0.02071147],76,47,medium,plus,dotcolour,beta,,,34,18,V,R,
341,89,5,8,2,47,33,983,['c'],1,left,['9'],5,279,[0.21156978],100,47,medium,plus,dotcolour,beta,,,34,18,V,R,
342,90,6,8,2,47,33,801,['n'],0,left,['3'],3,997,[0.14406461],17,47,medium,plus,dotcolour,beta,,,34,18,V,R,
343,91,7,8,2,33,47,600,['n'],1,right,['0'],6,366,[-0.11138993],99,47,medium,plus,dotcolour,beta,,,34,18,V,R,
344,92,8,8,2,27,53,500,['n'],1,right,['0'],6,300,[-0.10564809],100,53,easy,plus,dotcolour,beta,,,34,18,V,R,
345,93,9,8,2,44,36,550,['c'],1,left,['9'],5,260,[0.01069904],91,44,hard,plus,dotcolour,beta,,,34,18,V,R,
346,94,10,8,2,36,44,1283,['c'],0,right,['3'],3,473,[0.10149468],98,44,hard,plus,dotcolour,beta,,,34,18,V,R,
347,95,11,8,2,44,36,566,['c'],1,left,['0'],6,184,[0.08926302],100,44,hard,plus,dotcolour,beta,,,34,18,V,R,
348,96,12,8,2,36,44,684,['n'],1,right,['0'],6,269,[-0.1360408],100,44,hard,plus,dotcolour,beta,,,34,18,V,R,
349,97,13,8,2,44,36,633,['c'],1,left,['0'],6,268,[0.13684561],100,44,hard,plus,dotcolour,beta,,,34,18,V,R,
350,98,14,8,2,27,53,2517,['c'],0,right,['3'],3,661,[-0.00522052],75,53,easy,plus,dotcolour,beta,,,34,18,V,R,
351,99,15,8,2,47,33,1183,['c'],1,left,['9'],5,268,[0.13214356],100,47,medium,plus,dotcolour,beta,,,34,18,V,R,
352,100,16,8,2,53,27,519,['c'],1,left,['0'],6,214,[0.07248524],99,53,easy,plus,dotcolour,beta,,,34,18,V,R,
353,101,17,8,2,44,36,1051,['c'],1,left,['0'],6,157,[0.1020185],100,44,hard,plus,dotcolour,beta,,,34,18,V,R,
354,102,18,8,2,27,53,567,['n'],1,right,['0'],6,273,[-0.15302667],100,53,easy,plus,dotcolour,beta,,,34,18,V,R,
355,103,19,8,2,44,36,601,['c'],1,left,['0'],6,207,[0.09923363],100,44,hard,plus,dotcolour,beta,,,34,18,V,R,
356,104,20,8,2,33,47,667,['n'],1,right,['0'],6,237,[-0.13817396],100,47,medium,plus,dotcolour,beta,,,34,18,V,R,
357,105,21,8,2,33,47,567,['n'],1,right,['0'],6,270,[-0.1986885],100,47,medium,plus,dotcolour,beta,,,34,18,V,R,
358,106,22,8,2,27,53,616,['n'],1,right,['0'],6,196,[-0.12913893],100,53,easy,plus,dotcolour,beta,,,34,18,V,R,
359,107,23,8,2,44,36,751,['c'],1,left,['0'],6,224,[0.08274191],99,44,hard,plus,dotcolour,beta,,,34,18,V,R,
360,108,24,8,2,47,33,851,['c'],1,left,['0'],6,374,[0.15875186],100,47,medium,plus,dotcolour,beta,,,34,18,V,R,
361,109,25,8,2,36,44,717,['n'],1,right,['9'],5,187,[-0.1264888],100,44,hard,plus,dotcolour,beta,,,34,18,V,R,
362,110,26,8,2,36,44,584,['n'],1,right,['9'],5,220,[-0.08845615],100,44,hard,plus,dotcolour,beta,,,34,18,V,R,
363,111,27,8,2,44,36,518,['c'],1,left,['9'],5,240,[0.17556555],100,44,hard,plus,dotcolour,beta,,,34,18,V,R,
364,112,28,8,2,53,27,601,['c'],1,left,['0'],6,183,[0.07152648],100,53,easy,plus,dotcolour,beta,,,34,18,V,R,
365,113,29,8,2,53,27,517,['c'],1,left,['0'],6,213,[0.13340892],100,53,easy,plus,dotcolour,beta,,,34,18,V,R,
366,114,30,8,2,47,33,633,['n'],0,left,['0'],6,180,[-0.09227507],100,47,medium,plus,dotcolour,beta,,,34,18,V,R,
367,115,31,8,2,33,47,784,['n'],1,right,['0'],6,351,[-0.13286958],100,47,medium,plus,dotcolour,beta,,,34,18,V,R,
368,116,32,8,2,36,44,703,['c'],0,right,['0'],6,198,[0.02452084],96,44,hard,plus,dotcolour,beta,,,34,18,V,R,
369,117,33,8,2,27,53,617,['n'],1,right,['0'],6,224,[-0.17524616],100,53,easy,plus,dotcolour,beta,,,34,18,V,R,
370,118,34,8,2,27,53,551,['c'],0,right,['2'],2,1177,[0.08758794],91,53,easy,plus,dotcolour,beta,,,34,18,V,R,
371,119,35,8,2,47,33,867,['c'],1,left,['0'],6,144,[0.10667617],100,47,medium,plus,dotcolour,beta,,,34,18,V,R,
372,120,36,8,2,36,44,534,['n'],1,right,['0'],6,231,[-0.05149121],98,44,hard,plus,dotcolour,beta,,,34,18,V,R,
373,121,37,8,2,47,33,466,['c'],1,left,['0'],6,204,[0.06313236],99,47,medium,plus,dotcolour,beta,,,34,18,V,R,
374,122,38,8,2,53,27,583,['c'],1,left,['0'],6,190,[0.07092108],99,53,easy,plus,dotcolour,beta,,,34,18,V,R,
375,123,39,8,2,53,27,466,['c'],1,left,['0'],6,212,[0.07621263],99,53,easy,plus,dotcolour,beta,,,34,18,V,R,
376,124,40,8,2,36,44,716,['n'],1,right,['0'],6,128,[-0.12238203],100,44,hard,plus,dotcolour,beta,,,34,18,V,R,
377,125,41,8,2,33,47,417,['n'],1,right,['0'],6,188,[-0.12150152],100,47,medium,plus,dotcolour,beta,,,34,18,V,R,
378,0,0,9,3,33,47,1368,['n'],1,right,['9'],5,258,[-0.15093264],97,47,medium,minus,dotcolour,beta,,,34,18,V,R,
379,1,1,9,3,36,44,801,['n'],1,right,['9'],5,192,[-0.06110175],56,44,hard,minus,dotcolour,beta,,,34,18,V,R,
380,2,2,9,3,53,27,1318,['c'],1,left,['0'],6,197,[0.13155532],96,53,easy,minus,dotcolour,beta,,,34,18,V,R,
381,3,3,9,3,33,47,550,['n'],1,right,['0'],6,232,[-0.0509099],46,47,medium,minus,dotcolour,beta,,,34,18,V,R,
382,4,4,9,3,36,44,1216,['c'],0,right,['8'],4,264,[0.08106825],71,44,hard,minus,dotcolour,beta,,,34,18,V,R,
383,5,5,9,3,44,36,785,['c'],1,left,['9'],5,167,[0.00805135],11,44,hard,minus,dotcolour,beta,,,34,18,V,R,
384,6,6,9,3,47,33,1066,['c'],1,left,['0'],6,279,[0.06773715],60,47,medium,minus,dotcolour,beta,,,34,18,V,R,
385,7,7,9,3,36,44,618,['c'],0,right,['9'],5,308,[0.07188311],63,44,hard,minus,dotcolour,beta,,,34,18,V,R,
386,8,8,9,3,36,44,667,['n'],1,right,['8'],4,310,[-0.16962738],98,44,hard,minus,dotcolour,beta,,,34,18,V,R,
387,9,9,9,3,27,53,600,['n'],1,right,['8'],4,235,[-0.1237218],93,53,easy,minus,dotcolour,beta,,,34,18,V,R,
388,10,10,9,3,27,53,617,['n'],1,right,['9'],5,267,[-0.11657423],89,53,easy,minus,dotcolour,beta,,,34,18,V,R,
389,11,11,9,3,47,33,667,['c'],1,left,['9'],5,255,[0.0691314],62,47,medium,minus,dotcolour,beta,,,34,18,V,R,
390,12,12,9,3,27,53,718,['n'],1,right,['8'],4,368,[-0.2149666],99,53,easy,minus,dotcolour,beta,,,34,18,V,R,
391,13,13,9,3,36,44,1083,['c'],0,right,['8'],4,256,[0.0891113],77,44,hard,minus,dotcolour,beta,,,34,18,V,R,
392,14,14,9,3,44,36,1001,['c'],1,left,['9'],5,198,[0.16706329],99,44,hard,minus,dotcolour,beta,,,34,18,V,R,
393,15,15,9,3,44,36,650,['n'],0,left,['3'],3,910,[0.01219815],22,44,hard,minus,dotcolour,beta,,,34,18,V,R,
394,16,16,9,3,47,33,733,['c'],1,left,['9'],5,325,[0.074832],65,47,medium,minus,dotcolour,beta,,,34,18,V,R,
395,17,17,9,3,33,47,684,['n'],1,right,['9'],5,294,[-0.06465932],57,47,medium,minus,dotcolour,beta,,,34,18,V,R,
396,18,18,9,3,33,47,800,['n'],1,right,['9'],5,955,[-0.37619784],100,47,medium,minus,dotcolour,beta,,,34,18,V,R,
397,19,19,9,3,53,27,984,['c'],1,left,['0'],6,335,[0.20933414],99,53,easy,minus,dotcolour,beta,,,34,18,V,R,
398,20,20,9,3,53,27,750,['c'],1,left,['0'],6,260,[0.11641556],90,53,easy,minus,dotcolour,beta,,,34,18,V,R,
399,21,21,9,3,36,44,933,['n'],1,right,['9'],5,254,[-0.01132497],17,44,hard,minus,dotcolour,beta,,,34,18,V,R,
400,22,22,9,3,47,33,501,['c'],1,left,['0'],6,241,[0.1263585],93,47,medium,minus,dotcolour,beta,,,34,18,V,R,
401,23,23,9,3,53,27,515,['c'],1,left,['0'],6,195,[0.08254525],75,53,easy,minus,dotcolour,beta,,,34,18,V,R,
402,24,24,9,3,47,33,517,['c'],1,left,['0'],6,504,[0.14120527],90,47,medium,minus,dotcolour,beta,,,34,18,V,R,
403,25,25,9,3,27,53,550,['n'],1,right,['9'],5,231,[-0.11612329],91,53,easy,minus,dotcolour,beta,,,34,18,V,R,
404,26,26,9,3,53,27,634,['c'],1,left,['0'],6,205,[0.16306712],99,53,easy,minus,dotcolour,beta,,,34,18,V,R,
405,27,27,9,3,44,36,732,['c'],1,left,['9'],5,465,[0.00303409],20,44,hard,minus,dotcolour,beta,,,34,18,V,R,
406,28,28,9,3,27,53,633,['n'],1,right,['9'],5,214,[-0.15676344],98,53,easy,minus,dotcolour,beta,,,34,18,V,R,
407,29,29,9,3,53,27,483,['c'],1,left,['0'],6,229,[0.14889392],97,53,easy,minus,dotcolour,beta,,,34,18,V,R,
408,30,30,9,3,47,33,666,['c'],1,left,['0'],6,265,[0.11912086],90,47,medium,minus,dotcolour,beta,,,34,18,V,R,
409,31,31,9,3,33,47,750,['n'],1,right,['9'],5,217,[-0.05840408],53,47,medium,minus,dotcolour,beta,,,34,18,V,R,
410,32,32,9,3,44,36,1085,['c'],1,left,['8'],4,239,[0.1612191],98,44,hard,minus,dotcolour,beta,,,34,18,V,R,
411,33,33,9,3,36,44,533,['c'],0,right,['9'],5,201,[0.04551045],40,44,hard,minus,dotcolour,beta,,,34,18,V,R,
412,34,34,9,3,27,53,1383,['n'],1,right,['0'],6,219,[-0.12147643],93,53,easy,minus,dotcolour,beta,,,34,18,V,R,
413,35,35,9,3,44,36,851,['c'],1,left,['0'],6,129,[0.07528584],73,44,hard,minus,dotcolour,beta,,,34,18,V,R,
414,36,36,9,3,47,33,916,['c'],1,left,['9'],5,257,[0.02577749],26,47,medium,minus,dotcolour,beta,,,34,18,V,R,
415,37,37,9,3,33,47,651,['n'],1,right,['9'],5,286,[-0.02282005],25,47,medium,minus,dotcolour,beta,,,34,18,V,R,
416,38,38,9,3,44,36,701,['c'],1,left,['8'],4,152,[0.04495092],38,44,hard,minus,dotcolour,beta,,,34,18,V,R,
417,39,39,9,3,27,53,666,['n'],1,right,['8'],4,257,[-0.0697592],62,53,easy,minus,dotcolour,beta,,,34,18,V,R,
418,40,40,9,3,53,27,617,['n'],0,left,['2'],2,799,[0.07986329],6,53,easy,minus,dotcolour,beta,,,34,18,V,R,
419,41,41,9,3,33,47,1584,['c'],0,right,['3'],3,737,[-0.07396625],6,47,medium,minus,dotcolour,beta,,,34,18,V,R,
420,42,0,10,3,33,47,1284,['c'],0,right,['9'],5,280,[0.01607398],21,47,medium,minus,dotcolour,beta,,,34,18,V,R,
421,43,1,10,3,47,33,950,['c'],1,left,['3'],3,255,[0.1052334],85,47,medium,minus,dotcolour,beta,,,34,18,V,R,
422,44,2,10,3,44,36,1117,['c'],1,left,['3'],3,337,[0.16319414],97,44,hard,minus,dotcolour,beta,,,34,18,V,R,
423,45,3,10,3,33,47,783,['n'],1,right,['8'],4,222,[-0.10688137],88,47,medium,minus,dotcolour,beta,,,34,18,V,R,
424,46,4,10,3,47,33,668,['c'],1,left,['9'],5,171,[0.03445627],29,47,medium,minus,dotcolour,beta,,,34,18,V,R,
425,47,5,10,3,47,33,734,['c'],1,left,['9'],5,176,[0.12483514],95,47,medium,minus,dotcolour,beta,,,34,18,V,R,
426,48,6,10,3,36,44,619,['c'],0,right,['9'],5,105,[0.0862771],85,44,hard,minus,dotcolour,beta,,,34,18,V,R,
427,49,7,10,3,53,27,667,['c'],1,left,['9'],5,138,[0.08131955],78,53,easy,minus,dotcolour,beta,,,34,18,V,R,
428,50,8,10,3,47,33,684,['c'],1,left,['9'],5,178,[0.07231041],67,47,medium,minus,dotcolour,beta,,,34,18,V,R,
429,51,9,10,3,27,53,602,['n'],1,right,['9'],5,173,[-0.06544267],61,53,easy,minus,dotcolour,beta,,,34,18,V,R,
430,52,10,10,3,44,36,1100,['c'],1,left,['8'],4,228,[0.04404993],39,44,hard,minus,dotcolour,beta,,,34,18,V,R,
431,53,11,10,3,27,53,734,['c'],0,right,['3'],3,333,[0.14021661],93,53,easy,minus,dotcolour,beta,,,34,18,V,R,
432,54,12,10,3,27,53,584,['n'],1,right,['9'],5,210,[-0.05603788],50,53,easy,minus,dotcolour,beta,,,34,18,V,R,
433,55,13,10,3,27,53,1018,['c'],0,right,['2'],2,1034,[-0.19867223],1,53,easy,minus,dotcolour,beta,,,34,18,V,R,
434,56,14,10,3,36,44,1001,['c'],0,right,['9'],5,137,[0.0326891],25,44,hard,minus,dotcolour,beta,,,34,18,V,R,
435,57,15,10,3,44,36,467,['n'],0,left,['0'],6,730,[-0.17171272],92,44,hard,minus,dotcolour,beta,,,34,18,V,R,
436,58,16,10,3,27,53,634,['n'],1,right,['0'],6,221,[-0.08001455],72,53,easy,minus,dotcolour,beta,,,34,18,V,R,
437,59,17,10,3,36,44,783,['c'],0,right,['9'],5,166,[-0.00700484],6,44,hard,minus,dotcolour,beta,,,34,18,V,R,
438,60,18,10,3,53,27,633,['c'],1,left,['9'],5,135,[0.01802537],14,53,easy,minus,dotcolour,beta,,,34,18,V,R,
439,61,19,10,3,27,53,900,['n'],1,right,['0'],6,191,[-0.06688373],61,53,easy,minus,dotcolour,beta,,,34,18,V,R,
440,62,20,10,3,36,44,783,['c'],0,right,['9'],5,153,[0.05645278],51,44,hard,minus,dotcolour,beta,,,34,18,V,R,
441,63,21,10,3,33,47,734,['c'],0,right,['0'],6,295,[0.13519568],93,47,medium,minus,dotcolour,beta,,,34,18,V,R,
442,64,22,10,3,53,27,601,['n'],0,left,['1'],1,1109,[0.16532805],2,53,easy,minus,dotcolour,beta,,,34,18,V,R,
443,65,23,10,3,33,47,1202,['n'],1,right,['0'],6,201,[-0.06682226],61,47,medium,minus,dotcolour,beta,,,34,18,V,R,
444,66,24,10,3,44,36,866,['c'],1,left,['0'],6,272,[0.04148997],38,44,hard,minus,dotcolour,beta,,,34,18,V,R,
445,67,25,10,3,27,53,1316,['n'],1,right,['8'],4,1170,[-0.16510893],86,53,easy,minus,dotcolour,beta,,,34,18,V,R,
446,68,26,10,3,44,36,849,['c'],1,left,['9'],5,194,[0.0825258],75,44,hard,minus,dotcolour,beta,,,34,18,V,R,
447,69,27,10,3,36,44,717,['c'],0,right,['9'],5,982,[0.03311733],40,44,hard,minus,dotcolour,beta,,,34,18,V,R,
448,70,28,10,3,44,36,1252,['c'],1,left,['9'],5,221,[0.09056417],79,44,hard,minus,dotcolour,beta,,,34,18,V,R,
449,71,29,10,3,47,33,700,['c'],1,left,['9'],5,129,[0.17008523],100,47,medium,minus,dotcolour,beta,,,34,18,V,R,
450,72,30,10,3,44,36,1217,['c'],1,left,['9'],5,477,[0.11378157],82,44,hard,minus,dotcolour,beta,,,34,18,V,R,
451,73,31,10,3,53,27,634,['c'],1,left,['9'],5,121,[0.08971125],85,53,easy,minus,dotcolour,beta,,,34,18,V,R,
452,74,32,10,3,53,27,601,['c'],1,left,['0'],6,189,[0.05654281],51,53,easy,minus,dotcolour,beta,,,34,18,V,R,
453,75,33,10,3,53,27,484,['c'],1,left,['0'],6,235,[0.06825483],62,53,easy,minus,dotcolour,beta,,,34,18,V,R,
454,76,34,10,3,36,44,866,['n'],1,right,['9'],5,409,[-0.0917597],73,44,hard,minus,dotcolour,beta,,,34,18,V,R,
455,77,35,10,3,33,47,1251,['n'],1,right,['3'],3,912,[-0.1434425],84,47,medium,minus,dotcolour,beta,,,34,18,V,R,
456,78,36,10,3,53,27,699,['c'],1,left,['8'],4,705,[0.22010542],97,53,easy,minus,dotcolour,beta,,,34,18,V,R,
457,79,37,10,3,47,33,566,['c'],1,left,['0'],6,2382,[0.16888797],79,47,medium,minus,dotcolour,beta,,,34,18,V,R,
458,80,38,10,3,36,44,683,['c'],0,right,['0'],6,532,[0.02507856],32,44,hard,minus,dotcolour,beta,,,34,18,V,R,
459,81,39,10,3,33,47,850,['n'],1,right,['9'],5,327,[-0.0729304],63,47,medium,minus,dotcolour,beta,,,34,18,V,R,
460,82,40,10,3,33,47,718,['n'],1,right,['9'],5,206,[-0.02774214],25,47,medium,minus,dotcolour,beta,,,34,18,V,R,
461,83,41,10,3,47,33,701,['c'],1,left,['9'],5,155,[0.07168153],68,47,medium,minus,dotcolour,beta,,,34,18,V,R,
462,84,0,11,3,44,36,868,['c'],1,left,['9'],5,177,[0.13087088],96,44,hard,minus,dotcolour,beta,,,34,18,V,R,
463,85,1,11,3,44,36,517,['c'],1,left,['9'],5,158,[0.12130326],95,44,hard,minus,dotcolour,beta,,,34,18,V,R,
464,86,2,11,3,53,27,551,['c'],1,left,['9'],5,164,[0.12721527],96,53,easy,minus,dotcolour,beta,,,34,18,V,R,
465,87,3,11,3,36,44,616,['n'],1,right,['8'],4,309,[-0.01019782],19,44,hard,minus,dotcolour,beta,,,34,18,V,R,
466,88,4,11,3,27,53,1534,['n'],1,right,['8'],4,245,[-0.10899194],87,53,easy,minus,dotcolour,beta,,,34,18,V,R,
467,89,5,11,3,33,47,567,['n'],1,right,['9'],5,789,[-0.14486113],86,47,medium,minus,dotcolour,beta,,,34,18,V,R,
468,90,6,11,3,33,47,600,['n'],1,right,['9'],5,215,[-0.18285828],99,47,medium,minus,dotcolour,beta,,,34,18,V,R,
469,91,7,11,3,53,27,534,['c'],1,left,['0'],6,234,[0.14611297],97,53,easy,minus,dotcolour,beta,,,34,18,V,R,
470,92,8,11,3,27,53,549,['n'],1,right,['0'],6,229,[-0.09433336],81,53,easy,minus,dotcolour,beta,,,34,18,V,R,
471,93,9,11,3,53,27,651,['c'],1,left,['0'],6,138,[0.04708175],40,53,easy,minus,dotcolour,beta,,,34,18,V,R,
472,94,10,11,3,33,47,618,['n'],1,right,['3'],3,588,[-0.05232775],48,47,medium,minus,dotcolour,beta,,,34,18,V,R,
473,95,11,11,3,27,53,966,['n'],1,right,['9'],5,271,[-0.10817233],86,53,easy,minus,dotcolour,beta,,,34,18,V,R,
474,96,12,11,3,53,27,600,['n'],0,left,['0'],6,277,[-0.00235623],14,53,easy,minus,dotcolour,beta,,,34,18,V,R,
475,97,13,11,3,44,36,899,['c'],1,left,['0'],6,145,[0.08634681],81,44,hard,minus,dotcolour,beta,,,34,18,V,R,
476,98,14,11,3,53,27,551,['c'],1,left,['0'],6,134,[0.09637878],88,53,easy,minus,dotcolour,beta,,,34,18,V,R,
477,99,15,11,3,47,33,583,['c'],1,left,['0'],6,217,[0.10492061],87,47,medium,minus,dotcolour,beta,,,34,18,V,R,
478,100,16,11,3,44,36,566,['c'],1,left,['0'],6,211,[0.03974071],35,44,hard,minus,dotcolour,beta,,,34,18,V,R,
479,101,17,11,3,47,33,784,['c'],1,left,['0'],6,229,[0.09245149],80,47,medium,minus,dotcolour,beta,,,34,18,V,R,
480,102,18,11,3,44,36,534,['c'],1,left,['0'],6,208,[0.12209511],93,44,hard,minus,dotcolour,beta,,,34,18,V,R,
481,103,19,11,3,27,53,634,['n'],1,right,['0'],6,199,[-0.06037862],55,53,easy,minus,dotcolour,beta,,,34,18,V,R,
482,104,20,11,3,27,53,683,['n'],1,right,['0'],6,189,[-0.16054829],99,53,easy,minus,dotcolour,beta,,,34,18,V,R,
483,105,21,11,3,47,33,817,['c'],1,left,['0'],6,158,[0.13968269],98,47,medium,minus,dotcolour,beta,,,34,18,V,R,
484,106,22,11,3,47,33,566,['c'],1,left,['0'],6,194,[0.16095233],99,47,medium,minus,dotcolour,beta,,,34,18,V,R,
485,107,23,11,3,47,33,602,['c'],1,left,['0'],6,243,[0.07974374],71,47,medium,minus,dotcolour,beta,,,34,18,V,R,
486,108,24,11,3,33,47,817,['n'],1,right,['0'],6,178,[-0.01379668],14,47,medium,minus,dotcolour,beta,,,34,18,V,R,
487,109,25,11,3,44,36,499,['c'],1,left,['9'],5,256,[0.10731447],86,44,hard,minus,dotcolour,beta,,,34,18,V,R,
488,110,26,11,3,33,47,568,['c'],0,right,['9'],5,216,[0.06218535],56,47,medium,minus,dotcolour,beta,,,34,18,V,R,
489,111,27,11,3,53,27,667,['c'],1,left,['0'],6,229,[0.17755008],99,53,easy,minus,dotcolour,beta,,,34,18,V,R,
490,112,28,11,3,33,47,800,['n'],1,right,['0'],6,222,[-0.00271367],12,47,medium,minus,dotcolour,beta,,,34,18,V,R,
491,113,29,11,3,27,53,617,['n'],1,right,['0'],6,213,[-0.14074365],97,53,easy,minus,dotcolour,beta,,,34,18,V,R,
492,114,30,11,3,47,33,849,['c'],1,left,['0'],6,108,[0.06594483],64,47,medium,minus,dotcolour,beta,,,34,18,V,R,
493,115,31,11,3,47,33,1235,['c'],1,left,['0'],6,168,[0.13133752],97,47,medium,minus,dotcolour,beta,,,34,18,V,R,
494,116,32,11,3,36,44,834,['n'],1,right,['9'],5,352,[-0.14875237],94,44,hard,minus,dotcolour,beta,,,34,18,V,R,
495,117,33,11,3,36,44,634,['n'],1,right,['9'],5,226,[-0.03798375],34,44,hard,minus,dotcolour,beta,,,34,18,V,R,
496,118,34,11,3,36,44,667,['n'],1,right,['8'],4,247,[-0.1180284],91,44,hard,minus,dotcolour,beta,,,34,18,V,R,
497,119,35,11,3,44,36,566,['c'],1,left,['8'],4,216,[0.03785466],34,44,hard,minus,dotcolour,beta,,,34,18,V,R,
498,120,36,11,3,36,44,502,['c'],0,right,['8'],4,333,[0.06044499],54,44,hard,minus,dotcolour,beta,,,34,18,V,R,
499,121,37,11,3,36,44,517,['n'],1,right,['3'],3,508,[-0.14416724],90,44,hard,minus,dotcolour,beta,,,34,18,V,R,
500,122,38,11,3,33,47,1234,['c'],0,right,['8'],4,151,[0.03508995],28,47,medium,minus,dotcolour,beta,,,34,18,V,R,
501,123,39,11,3,53,27,583,['c'],1,left,['8'],4,165,[0.1369604],97,53,easy,minus,dotcolour,beta,,,34,18,V,R,
502,124,40,11,3,27,53,651,['c'],0,right,['9'],5,140,[-0.00119299],6,53,easy,minus,dotcolour,beta,,,34,18,V,R,
503,125,41,11,3,36,44,1418,['n'],1,right,['0'],6,287,[-0.0274897],28,44,hard,minus,dotcolour,beta,,,34,18,V,R,
504,0,0,12,4,27,53,602,['n'],1,right,['9'],5,279,[-0.12198217],100,53,easy,plus,dotcolour,beta,,,34,18,V,R,
505,1,1,12,4,47,33,1750,['c'],1,left,['9'],5,230,[0.11122425],100,47,medium,plus,dotcolour,beta,,,34,18,V,R,
506,2,2,12,4,27,53,1051,['n'],1,right,['9'],5,285,[-0.17076775],100,53,easy,plus,dotcolour,beta,,,34,18,V,R,
507,3,3,12,4,47,33,983,['c'],1,left,['9'],5,123,[0.13013088],100,47,medium,plus,dotcolour,beta,,,34,18,V,R,
508,4,4,12,4,36,44,735,['n'],1,right,['9'],5,178,[-0.11685049],100,44,hard,plus,dotcolour,beta,,,34,18,V,R,
509,5,5,12,4,44,36,652,['n'],0,left,['8'],4,1091,[0.03442912],59,44,hard,plus,dotcolour,beta,,,34,18,V,R,
510,6,6,12,4,44,36,3018,['c'],1,left,['9'],5,319,[0.03874284],95,44,hard,plus,dotcolour,beta,,,34,18,V,R,
511,7,7,12,4,27,53,949,['c'],0,right,['2'],2,1030,[-0.16621341],12,53,easy,plus,dotcolour,beta,,,34,18,V,R,
512,8,8,12,4,33,47,900,['c'],0,right,['9'],5,889,[-0.14823258],15,47,medium,plus,dotcolour,beta,,,34,18,V,R,
513,9,9,12,4,36,44,800,['n'],1,right,['0'],6,255,[0.02060792],78,44,hard,plus,dotcolour,beta,,,34,18,V,R,
514,10,10,12,4,36,44,718,['c'],0,right,['0'],6,161,[0.04786712],99,44,hard,plus,dotcolour,beta,,,34,18,V,R,
515,11,11,12,4,53,27,549,['c'],1,left,['0'],6,406,[0.26398563],100,53,easy,plus,dotcolour,beta,,,34,18,V,R,
516,12,12,12,4,44,36,782,['n'],0,left,['9'],5,191,[-0.02060458],96,44,hard,plus,dotcolour,beta,,,34,18,V,R,
517,13,13,12,4,33,47,884,['n'],1,right,['9'],5,189,[-0.08511172],100,47,medium,plus,dotcolour,beta,,,34,18,V,R,
518,14,14,12,4,33,47,684,['c'],0,right,['0'],6,156,[0.00949123],95,47,medium,plus,dotcolour,beta,,,34,18,V,R,
519,15,15,12,4,53,27,769,['c'],1,left,['0'],6,439,[0.15934816],100,53,easy,plus,dotcolour,beta,,,34,18,V,R,
520,16,16,12,4,27,53,716,['n'],1,right,['9'],5,259,[-0.07813757],99,53,easy,plus,dotcolour,beta,,,34,18,V,R,
521,17,17,12,4,47,33,1118,['c'],1,left,['0'],6,164,[0.10433153],100,47,medium,plus,dotcolour,beta,,,34,18,V,R,
522,18,18,12,4,47,33,1084,['c'],1,left,['9'],5,683,[0.16080606],99,47,medium,plus,dotcolour,beta,,,34,18,V,R,
523,19,19,12,4,53,27,683,['c'],1,left,['9'],5,103,[0.05922336],100,53,easy,plus,dotcolour,beta,,,34,18,V,R,
524,20,20,12,4,33,47,434,['c'],0,right,['2'],2,642,[0.05460385],92,47,medium,plus,dotcolour,beta,,,34,18,V,R,
525,21,21,12,4,27,53,517,['n'],1,right,['9'],5,221,[-0.03329131],97,53,easy,plus,dotcolour,beta,,,34,18,V,R,
526,22,22,12,4,47,33,700,['c'],1,left,['0'],6,105,[0.09701995],100,47,medium,plus,dotcolour,beta,,,34,18,V,R,
527,23,23,12,4,44,36,699,['n'],0,left,['0'],6,154,[-0.06356922],100,44,hard,plus,dotcolour,beta,,,34,18,V,R,
528,24,24,12,4,53,27,650,['c'],1,left,['0'],6,187,[0.08919464],100,53,easy,plus,dotcolour,beta,,,34,18,V,R,
529,25,25,12,4,36,44,533,['n'],1,right,['9'],5,352,[-0.01897242],91,44,hard,plus,dotcolour,beta,,,34,18,V,R,
530,26,26,12,4,44,36,666,['c'],1,left,['0'],6,170,[0.06055866],99,44,hard,plus,dotcolour,beta,,,34,18,V,R,
531,27,27,12,4,36,44,701,['n'],1,right,['2'],2,902,[-0.05645119],89,44,hard,plus,dotcolour,beta,,,34,18,V,R,
532,28,28,12,4,27,53,1068,['n'],1,right,['9'],5,296,[-0.18347187],100,53,easy,plus,dotcolour,beta,,,34,18,V,R,
533,29,29,12,4,53,27,500,['c'],1,left,['9'],5,250,[0.13739455],100,53,easy,plus,dotcolour,beta,,,34,18,V,R,
534,30,30,12,4,36,44,501,['c'],0,right,['8'],4,238,[0.07773012],99,44,hard,plus,dotcolour,beta,,,34,18,V,R,
535,31,31,12,4,33,47,751,['c'],0,right,['8'],4,111,[0.06058042],100,47,medium,plus,dotcolour,beta,,,34,18,V,R,
536,32,32,12,4,36,44,768,['n'],1,right,['8'],4,413,[-0.1353047],100,44,hard,plus,dotcolour,beta,,,34,18,V,R,
537,33,33,12,4,33,47,834,['n'],1,right,['9'],5,292,[-0.07221256],99,47,medium,plus,dotcolour,beta,,,34,18,V,R,
538,34,34,12,4,53,27,535,['c'],1,left,['0'],6,172,[0.11007371],100,53,easy,plus,dotcolour,beta,,,34,18,V,R,
539,35,35,12,4,27,53,634,['n'],1,right,['0'],6,165,[-0.11075693],100,53,easy,plus,dotcolour,beta,,,34,18,V,R,
540,36,36,12,4,44,36,766,['c'],1,left,['0'],6,161,[0.01014344],95,44,hard,plus,dotcolour,beta,,,34,18,V,R,
541,37,37,12,4,53,27,550,['c'],1,left,['0'],6,158,[0.052421],99,53,easy,plus,dotcolour,beta,,,34,18,V,R,
542,38,38,12,4,33,47,1118,['n'],1,right,['0'],6,316,[-0.06682881],98,47,medium,plus,dotcolour,beta,,,34,18,V,R,
543,39,39,12,4,44,36,431,['c'],1,left,['0'],6,408,[0.14839425],100,44,hard,plus,dotcolour,beta,,,34,18,V,R,
544,40,40,12,4,47,33,717,['c'],1,left,['0'],6,139,[0.04401056],99,47,medium,plus,dotcolour,beta,,,34,18,V,R,
545,41,41,12,4,47,33,1033,['c'],1,left,['0'],6,245,[0.0839921],99,47,medium,plus,dotcolour,beta,,,34,18,V,R,
546,42,0,13,4,36,44,1451,['n'],1,right,['9'],5,190,[-0.10788457],100,44,hard,plus,dotcolour,beta,,,34,18,V,R,
547,43,1,13,4,27,53,702,['n'],1,right,['0'],6,179,[-0.05079818],99,53,easy,plus,dotcolour,beta,,,34,18,V,R,
548,44,2,13,4,53,27,434,['c'],1,left,['0'],6,196,[0.1126637],100,53,easy,plus,dotcolour,beta,,,34,18,V,R,
549,45,3,13,4,44,36,617,['c'],1,left,['0'],6,204,[0.12853309],100,44,hard,plus,dotcolour,beta,,,34,18,V,R,
550,46,4,13,4,27,53,601,['n'],1,right,['0'],6,238,[-0.05542903],98,53,easy,plus,dotcolour,beta,,,34,18,V,R,
551,47,5,13,4,33,47,532,['c'],0,right,['0'],6,191,[0.03930431],98,47,medium,plus,dotcolour,beta,,,34,18,V,R,
552,48,6,13,4,27,53,651,['n'],1,right,['0'],6,175,[-0.102708],100,53,easy,plus,dotcolour,beta,,,34,18,V,R,
553,49,7,13,4,53,27,484,['c'],1,left,['0'],6,157,[0.12177804],100,53,easy,plus,dotcolour,beta,,,34,18,V,R,
554,50,8,13,4,33,47,650,['n'],1,right,['0'],6,262,[-0.17324837],100,47,medium,plus,dotcolour,beta,,,34,18,V,R,
555,51,9,13,4,44,36,1051,['c'],1,left,['9'],5,179,[0.12295313],100,44,hard,plus,dotcolour,beta,,,34,18,V,R,
556,52,10,13,4,36,44,683,['c'],0,right,['9'],5,138,[0.05197486],99,44,hard,plus,dotcolour,beta,,,34,18,V,R,
557,53,11,13,4,33,47,1401,['n'],1,right,['9'],5,709,[-0.16250037],99,47,medium,plus,dotcolour,beta,,,34,18,V,R,
558,54,12,13,4,44,36,732,['c'],1,left,['9'],5,180,[0.1100331],100,44,hard,plus,dotcolour,beta,,,34,18,V,R,
559,55,13,13,4,47,33,583,['c'],1,left,['9'],5,142,[0.0886421],100,47,medium,plus,dotcolour,beta,,,34,18,V,R,
560,56,14,13,4,53,27,535,['c'],1,left,['9'],5,181,[0.07783838],100,53,easy,plus,dotcolour,beta,,,34,18,V,R,
561,57,15,13,4,47,33,516,['c'],1,left,['9'],5,170,[0.1213183],100,47,medium,plus,dotcolour,beta,,,34,18,V,R,
562,58,16,13,4,27,53,668,['n'],1,right,['9'],5,210,[-0.05579228],99,53,easy,plus,dotcolour,beta,,,34,18,V,R,
563,59,17,13,4,33,47,601,['n'],1,right,['3'],3,875,[-0.22591506],100,47,medium,plus,dotcolour,beta,,,34,18,V,R,
564,60,18,13,4,53,27,517,['n'],0,left,['8'],4,1028,[0.02044896],65,53,easy,plus,dotcolour,beta,,,34,18,V,R,
565,61,19,13,4,44,36,750,['c'],1,left,['0'],6,166,[0.14162923],100,44,hard,plus,dotcolour,beta,,,34,18,V,R,
566,62,20,13,4,33,47,583,['c'],0,right,['0'],6,129,[0.01347876],97,47,medium,plus,dotcolour,beta,,,34,18,V,R,
567,63,21,13,4,27,53,567,['n'],1,right,['0'],6,215,[-0.12732769],100,53,easy,plus,dotcolour,beta,,,34,18,V,R,
568,64,22,13,4,27,53,801,['n'],1,right,['9'],5,352,[-0.12408392],100,53,easy,plus,dotcolour,beta,,,34,18,V,R,
569,65,23,13,4,47,33,1267,['n'],0,left,['9'],5,360,[-0.11307986],99,47,medium,plus,dotcolour,beta,,,34,18,V,R,
570,66,24,13,4,36,44,1532,['c'],0,right,['9'],5,230,[0.02117648],95,44,hard,plus,dotcolour,beta,,,34,18,V,R,
571,67,25,13,4,33,47,667,['n'],1,right,['9'],5,275,[-0.16352948],100,47,medium,plus,dotcolour,beta,,,34,18,V,R,
572,68,26,13,4,47,33,850,['c'],1,left,['9'],5,151,[0.08838292],100,47,medium,plus,dotcolour,beta,,,34,18,V,R,
573,69,27,13,4,47,33,700,['c'],1,left,['9'],5,183,[0.12728783],100,47,medium,plus,dotcolour,beta,,,34,18,V,R,
574,70,28,13,4,27,53,651,['c'],0,right,['9'],5,295,[0.07415961],99,53,easy,plus,dotcolour,beta,,,34,18,V,R,
575,71,29,13,4,53,27,567,['c'],1,left,['9'],5,125,[0.09547026],100,53,easy,plus,dotcolour,beta,,,34,18,V,R,
576,72,30,13,4,47,33,567,['c'],1,left,['0'],6,138,[0.10083708],100,47,medium,plus,dotcolour,beta,,,34,18,V,R,
577,73,31,13,4,53,27,484,['c'],1,left,['0'],6,122,[0.13450188],100,53,easy,plus,dotcolour,beta,,,34,18,V,R,
578,74,32,13,4,36,44,400,['c'],0,right,['0'],6,278,[0.06409077],98,44,hard,plus,dotcolour,beta,,,34,18,V,R,
579,75,33,13,4,44,36,550,['c'],1,left,['0'],6,207,[0.13933398],100,44,hard,plus,dotcolour,beta,,,34,18,V,R,
580,76,34,13,4,36,44,567,['n'],1,right,['0'],6,137,[-0.14826668],100,44,hard,plus,dotcolour,beta,,,34,18,V,R,
581,77,35,13,4,36,44,1134,['c'],0,right,['0'],6,879,[0.11728445],97,44,hard,plus,dotcolour,beta,,,34,18,V,R,
582,78,36,13,4,33,47,567,['n'],1,right,['0'],6,167,[-0.04948527],99,47,medium,plus,dotcolour,beta,,,34,18,V,R,
583,79,37,13,4,44,36,598,['c'],1,left,['0'],6,170,[0.09901553],100,44,hard,plus,dotcolour,beta,,,34,18,V,R,
584,80,38,13,4,44,36,1233,['c'],1,left,['0'],6,331,[0.16503637],100,44,hard,plus,dotcolour,beta,,,34,18,V,R,
585,81,39,13,4,53,27,667,['c'],1,left,['0'],6,164,[0.06322029],99,53,easy,plus,dotcolour,beta,,,34,18,V,R,
586,82,40,13,4,36,44,734,['n'],1,right,['0'],6,163,[-0.0718884],100,44,hard,plus,dotcolour,beta,,,34,18,V,R,
587,83,41,13,4,47,33,650,['c'],1,left,['0'],6,194,[0.15630662],100,47,medium,plus,dotcolour,beta,,,34,18,V,R,
588,84,0,14,4,44,36,500,['c'],1,left,['9'],5,253,[0.12847306],100,44,hard,plus,dotcolour,beta,,,34,18,V,R,
589,85,1,14,4,36,44,584,['c'],0,right,['9'],5,244,[0.11870882],100,44,hard,plus,dotcolour,beta,,,34,18,V,R,
590,86,2,14,4,27,53,784,['n'],1,right,['0'],6,220,[-0.13284706],100,53,easy,plus,dotcolour,beta,,,34,18,V,R,
591,87,3,14,4,44,36,534,['c'],1,left,['0'],6,191,[0.09041356],100,44,hard,plus,dotcolour,beta,,,34,18,V,R,
592,88,4,14,4,33,47,750,['n'],1,right,['0'],6,154,[-0.06049983],100,47,medium,plus,dotcolour,beta,,,34,18,V,R,
593,89,5,14,4,53,27,486,['c'],1,left,['0'],6,154,[0.09709408],100,53,easy,plus,dotcolour,beta,,,34,18,V,R,
594,90,6,14,4,27,53,484,['n'],1,right,['0'],6,170,[-0.09713618],100,53,easy,plus,dotcolour,beta,,,34,18,V,R,
595,91,7,14,4,36,44,533,['c'],0,right,['9'],5,167,[-0.02193537],81,44,hard,plus,dotcolour,beta,,,34,18,V,R,
596,92,8,14,4,53,27,434,['n'],0,left,['3'],3,760,[-0.00160478],76,53,easy,plus,dotcolour,beta,,,34,18,V,R,
597,93,9,14,4,27,53,833,['n'],1,right,['8'],4,162,[-0.07016],100,53,easy,plus,dotcolour,beta,,,34,18,V,R,
598,94,10,14,4,27,53,683,['n'],1,right,['9'],5,273,[-0.12997426],100,53,easy,plus,dotcolour,beta,,,34,18,V,R,
599,95,11,14,4,27,53,550,['n'],1,right,['9'],5,281,[-0.11234787],100,53,easy,plus,dotcolour,beta,,,34,18,V,R,
600,96,12,14,4,47,33,684,['c'],1,left,['9'],5,243,[0.05108212],98,47,medium,plus,dotcolour,beta,,,34,18,V,R,
601,97,13,14,4,36,44,801,['n'],1,right,['0'],6,227,[-0.17877934],100,44,hard,plus,dotcolour,beta,,,34,18,V,R,
602,98,14,14,4,47,33,550,['c'],1,left,['0'],6,172,[0.13220257],100,47,medium,plus,dotcolour,beta,,,34,18,V,R,
603,99,15,14,4,44,36,450,['c'],1,left,['0'],6,293,[0.05866734],98,44,hard,plus,dotcolour,beta,,,34,18,V,R,
604,100,16,14,4,33,47,667,['n'],1,right,['0'],6,216,[-0.08135685],100,47,medium,plus,dotcolour,beta,,,34,18,V,R,
605,101,17,14,4,47,33,899,['c'],1,left,['0'],6,164,[0.08958],100,47,medium,plus,dotcolour,beta,,,34,18,V,R,
606,102,18,14,4,53,27,550,['c'],1,left,['0'],6,218,[0.15708206],100,53,easy,plus,dotcolour,beta,,,34,18,V,R,
607,103,19,14,4,44,36,684,['c'],1,left,['0'],6,174,[0.12305139],100,44,hard,plus,dotcolour,beta,,,34,18,V,R,
608,104,20,14,4,44,36,483,['c'],1,left,['0'],6,149,[0.02793139],98,44,hard,plus,dotcolour,beta,,,34,18,V,R,
609,105,21,14,4,47,33,767,['n'],0,left,['9'],5,194,[-0.12543778],100,47,medium,plus,dotcolour,beta,,,34,18,V,R,
610,106,22,14,4,36,44,567,['c'],0,right,['0'],6,157,[0.0013496],93,44,hard,plus,dotcolour,beta,,,34,18,V,R,
611,107,23,14,4,47,33,684,['c'],1,left,['9'],5,180,[0.07572411],100,47,medium,plus,dotcolour,beta,,,34,18,V,R,
612,108,24,14,4,27,53,785,['n'],1,right,['9'],5,550,[-0.12744177],99,53,easy,plus,dotcolour,beta,,,34,18,V,R,
613,109,25,14,4,33,47,851,['n'],1,right,['0'],6,200,[-0.07982982],100,47,medium,plus,dotcolour,beta,,,34,18,V,R,
614,110,26,14,4,33,47,534,['c'],0,right,['0'],6,148,[0.06275005],100,47,medium,plus,dotcolour,beta,,,34,18,V,R,
615,111,27,14,4,33,47,617,['c'],0,right,['0'],6,150,[0.05326123],99,47,medium,plus,dotcolour,beta,,,34,18,V,R,
616,112,28,14,4,53,27,684,['c'],1,left,['9'],5,103,[0.09446261],100,53,easy,plus,dotcolour,beta,,,34,18,V,R,
617,113,29,14,4,44,36,651,['c'],1,left,['9'],5,154,[0.10638351],100,44,hard,plus,dotcolour,beta,,,34,18,V,R,
618,114,30,14,4,44,36,618,['c'],1,left,['9'],5,45,[0.09698045],100,44,hard,plus,dotcolour,beta,,,34,18,V,R,
619,115,31,14,4,36,44,2918,['c'],0,right,['9'],5,463,[-0.05916709],48,44,hard,plus,dotcolour,beta,,,34,18,V,R,
620,116,32,14,4,36,44,583,['n'],1,right,['8'],4,333,[0.04315759],60,44,hard,plus,dotcolour,beta,,,34,18,V,R,
621,117,33,14,4,27,53,735,['n'],1,right,['8'],4,181,[-0.08767168],100,53,easy,plus,dotcolour,beta,,,34,18,V,R,
622,118,34,14,4,47,33,900,['c'],1,left,['9'],5,203,[0.15767392],100,47,medium,plus,dotcolour,beta,,,34,18,V,R,
623,119,35,14,4,53,27,551,['c'],1,left,['0'],6,142,[0.05076244],99,53,easy,plus,dotcolour,beta,,,34,18,V,R,
624,120,36,14,4,33,47,1350,['n'],1,right,['0'],6,155,[-0.06820302],100,47,medium,plus,dotcolour,beta,,,34,18,V,R,
625,121,37,14,4,47,33,501,['c'],1,left,['0'],6,194,[0.10263962],100,47,medium,plus,dotcolour,beta,,,34,18,V,R,
626,122,38,14,4,36,44,535,['c'],0,right,['0'],6,166,[0.09599257],100,44,hard,plus,dotcolour,beta,,,34,18,V,R,
627,123,39,14,4,53,27,851,['c'],1,left,['0'],6,167,[0.0838381],100,53,easy,plus,dotcolour,beta,,,34,18,V,R,
628,124,40,14,4,53,27,501,['c'],1,left,['0'],6,141,[0.10776767],100,53,easy,plus,dotcolour,beta,,,34,18,V,R,
629,125,41,14,4,33,47,549,['c'],0,right,['9'],5,252,[0.00890752],91,47,medium,plus,dotcolour,beta,,,34,18,V,R,
630,0,0,15,5,27,53,569,['n'],1,right,['9'],5,173,[-0.05154891],46,53,easy,minus,dotcolour,beta,,,34,18,V,R,
631,1,1,15,5,44,36,467,['c'],1,left,['9'],5,172,[0.07835391],73,44,hard,minus,dotcolour,beta,,,34,18,V,R,
632,2,2,15,5,44,36,667,['c'],1,left,['9'],5,164,[0.02608343],21,44,hard,minus,dotcolour,beta,,,34,18,V,R,
633,3,3,15,5,36,44,550,['c'],0,right,['9'],5,184,[0.11119548],91,44,hard,minus,dotcolour,beta,,,34,18,V,R,
634,4,4,15,5,33,47,715,['n'],1,right,['0'],6,246,[-0.18263352],99,47,medium,minus,dotcolour,beta,,,34,18,V,R,
635,5,5,15,5,27,53,501,['n'],1,right,['0'],6,137,[-0.13262013],98,53,easy,minus,dotcolour,beta,,,34,18,V,R,
636,6,6,15,5,36,44,1001,['n'],1,right,['9'],5,188,[-0.13688695],97,44,hard,minus,dotcolour,beta,,,34,18,V,R,
637,7,7,15,5,33,47,618,['c'],0,right,['9'],5,326,[0.01593182],22,47,medium,minus,dotcolour,beta,,,34,18,V,R,
638,8,8,15,5,47,33,551,['c'],1,left,['9'],5,339,[0.16398348],97,47,medium,minus,dotcolour,beta,,,34,18,V,R,
639,9,9,15,5,27,53,1534,['n'],1,right,['0'],6,233,[-0.12346252],93,53,easy,minus,dotcolour,beta,,,34,18,V,R,
640,10,10,15,5,36,44,785,['c'],0,right,['9'],5,210,[0.06757512],62,44,hard,minus,dotcolour,beta,,,34,18,V,R,
641,11,11,15,5,33,47,800,['c'],0,right,['9'],5,370,[-0.0225703],9,47,medium,minus,dotcolour,beta,,,34,18,V,R,
642,12,12,15,5,44,36,601,['c'],1,left,['9'],5,205,[0.12302781],94,44,hard,minus,dotcolour,beta,,,34,18,V,R,
643,13,13,15,5,53,27,602,['c'],1,left,['0'],6,221,[0.10003793],85,53,easy,minus,dotcolour,beta,,,34,18,V,R,
644,14,14,15,5,53,27,368,['c'],1,left,['0'],6,191,[0.08457008],77,53,easy,minus,dotcolour,beta,,,34,18,V,R,
645,15,15,15,5,47,33,666,['c'],1,left,['0'],6,285,[0.04667933],43,47,medium,minus,dotcolour,beta,,,34,18,V,R,
646,16,16,15,5,47,33,667,['c'],1,left,['0'],6,145,[0.0621318],58,47,medium,minus,dotcolour,beta,,,34,18,V,R,
647,17,17,15,5,47,33,433,['c'],1,left,['0'],6,220,[0.0970283],83,47,medium,minus,dotcolour,beta,,,34,18,V,R,
648,18,18,15,5,53,27,535,['c'],1,left,['0'],6,247,[0.12302181],92,53,easy,minus,dotcolour,beta,,,34,18,V,R,
649,19,19,15,5,27,53,367,['c'],0,right,['0'],6,191,[-0.01147785],6,53,easy,minus,dotcolour,beta,,,34,18,V,R,
650,20,20,15,5,27,53,1034,['n'],1,right,['9'],5,152,[-0.08318044],78,53,easy,minus,dotcolour,beta,,,34,18,V,R,
651,21,21,15,5,33,47,600,['n'],1,right,['9'],5,179,[-0.10798902],90,47,medium,minus,dotcolour,beta,,,34,18,V,R,
652,22,22,15,5,44,36,700,['n'],0,left,['9'],5,256,[0.04970116],2,44,hard,minus,dotcolour,beta,,,34,18,V,R,
653,23,23,15,5,36,44,1217,['n'],1,right,['9'],5,190,[-0.09749387],85,44,hard,minus,dotcolour,beta,,,34,18,V,R,
654,24,24,15,5,53,27,600,['n'],0,left,['2'],2,936,[0.20749629],1,53,easy,minus,dotcolour,beta,,,34,18,V,R,
655,25,25,15,5,36,44,901,['n'],1,right,['8'],4,319,[-0.16352667],97,44,hard,minus,dotcolour,beta,,,34,18,V,R,
656,26,26,15,5,33,47,835,['n'],1,right,['8'],4,1242,[-0.17070045],87,47,medium,minus,dotcolour,beta,,,34,18,V,R,
657,27,27,15,5,47,33,583,['c'],1,left,['1'],1,162,[0.08290409],77,47,medium,minus,dotcolour,beta,,,34,18,V,R,
658,28,28,15,5,53,27,1617,['c'],1,left,['9'],5,212,[0.11801608],92,53,easy,minus,dotcolour,beta,,,34,18,V,R,
659,29,29,15,5,27,53,667,['n'],1,right,['9'],5,267,[-0.040894],38,53,easy,minus,dotcolour,beta,,,34,18,V,R,
660,30,30,15,5,44,36,1151,['c'],1,left,['9'],5,396,[0.11607542],85,44,hard,minus,dotcolour,beta,,,34,18,V,R,
661,31,31,15,5,33,47,885,['n'],1,right,['0'],6,249,[-0.09367168],80,47,medium,minus,dotcolour,beta,,,34,18,V,R,
662,32,32,15,5,27,53,850,['c'],0,right,['9'],5,239,[0.06006138],54,53,easy,minus,dotcolour,beta,,,34,18,V,R,
663,33,33,15,5,53,27,1467,['c'],1,left,['9'],5,395,[0.1786847],97,53,easy,minus,dotcolour,beta,,,34,18,V,R,
664,34,34,15,5,44,36,417,['n'],0,left,['9'],5,220,[-0.06838582],62,44,hard,minus,dotcolour,beta,,,34,18,V,R,
665,35,35,15,5,36,44,600,['n'],1,right,['9'],5,204,[-0.04939004],44,44,hard,minus,dotcolour,beta,,,34,18,V,R,
666,36,36,15,5,53,27,500,['c'],1,left,['9'],5,153,[0.0649426],61,53,easy,minus,dotcolour,beta,,,34,18,V,R,
667,37,37,15,5,36,44,750,['n'],1,right,['9'],5,183,[-0.12320734],95,44,hard,minus,dotcolour,beta,,,34,18,V,R,
668,38,38,15,5,47,33,652,['c'],1,left,['0'],6,279,[0.11020623],87,47,medium,minus,dotcolour,beta,,,34,18,V,R,
669,39,39,15,5,44,36,1000,['c'],1,left,['0'],6,189,[0.11157956],91,44,hard,minus,dotcolour,beta,,,34,18,V,R,
670,40,40,15,5,47,33,651,['c'],1,left,['0'],6,237,[0.10025303],84,47,medium,minus,dotcolour,beta,,,34,18,V,R,
671,41,41,15,5,33,47,718,['n'],1,right,['9'],5,160,[-0.0683599],64,47,medium,minus,dotcolour,beta,,,34,18,V,R,
672,42,0,16,5,36,44,784,['n'],1,right,['0'],6,250,[-0.14509216],96,44,hard,minus,dotcolour,beta,,,34,18,V,R,
673,43,1,16,5,44,36,550,['c'],1,left,['9'],5,139,[0.06864216],65,44,hard,minus,dotcolour,beta,,,34,18,V,R,
674,44,2,16,5,33,47,650,['c'],0,right,['9'],5,117,[0.08076737],79,47,medium,minus,dotcolour,beta,,,34,18,V,R,
675,45,3,16,5,53,27,651,['c'],1,left,['9'],5,143,[0.10839133],93,53,easy,minus,dotcolour,beta,,,34,18,V,R,
676,46,4,16,5,47,33,452,['c'],1,left,['9'],5,161,[0.07621089],72,47,medium,minus,dotcolour,beta,,,34,18,V,R,
677,47,5,16,5,36,44,501,['c'],0,right,['9'],5,144,[0.14809852],99,44,hard,minus,dotcolour,beta,,,34,18,V,R,
678,48,6,16,5,53,27,734,['c'],1,left,['9'],5,94,[0.10724308],95,53,easy,minus,dotcolour,beta,,,34,18,V,R,
679,49,7,16,5,53,27,534,['c'],1,left,['9'],5,141,[0.09161826],85,53,easy,minus,dotcolour,beta,,,34,18,V,R,
680,50,8,16,5,53,27,419,['c'],1,left,['9'],5,224,[0.15197362],98,53,easy,minus,dotcolour,beta,,,34,18,V,R,
681,51,9,16,5,53,27,350,['c'],1,left,['0'],6,147,[0.08740321],82,53,easy,minus,dotcolour,beta,,,34,18,V,R,
682,52,10,16,5,33,47,784,['n'],1,right,['0'],6,151,[-0.14738466],99,47,medium,minus,dotcolour,beta,,,34,18,V,R,
683,53,11,16,5,44,36,517,['c'],1,left,['0'],6,125,[0.05575324],50,44,hard,minus,dotcolour,beta,,,34,18,V,R,
684,54,12,16,5,36,44,667,['c'],0,right,['9'],5,222,[0.01247896],16,44,hard,minus,dotcolour,beta,,,34,18,V,R,
685,55,13,16,5,47,33,468,['n'],0,left,['1'],1,1516,[0.1050467],9,47,medium,minus,dotcolour,beta,,,34,18,V,R,
686,56,14,16,5,27,53,885,['n'],1,right,['9'],5,197,[-0.09126581],81,53,easy,minus,dotcolour,beta,,,34,18,V,R,
687,57,15,16,5,47,33,534,['c'],1,left,['0'],6,168,[0.06720973],63,47,medium,minus,dotcolour,beta,,,34,18,V,R,
688,58,16,16,5,36,44,800,['c'],0,right,['9'],5,604,[0.03644806],39,44,hard,minus,dotcolour,beta,,,34,18,V,R,
689,59,17,16,5,44,36,466,['c'],1,left,['9'],5,194,[0.0531927],48,44,hard,minus,dotcolour,beta,,,34,18,V,R,
690,60,18,16,5,33,47,584,['n'],1,right,['9'],5,195,[-0.05650452],51,47,medium,minus,dotcolour,beta,,,34,18,V,R,
691,61,19,16,5,36,44,466,['c'],0,right,['9'],5,282,[0.13868075],94,44,hard,minus,dotcolour,beta,,,34,18,V,R,
692,62,20,16,5,53,27,550,['c'],1,left,['0'],6,170,[0.12601968],96,53,easy,minus,dotcolour,beta,,,34,18,V,R,
693,63,21,16,5,33,47,868,['n'],1,right,['9'],5,249,[-0.09729406],82,47,medium,minus,dotcolour,beta,,,34,18,V,R,
694,64,22,16,5,44,36,500,['n'],0,left,['8'],4,805,[-0.02521756],35,44,hard,minus,dotcolour,beta,,,34,18,V,R,
695,65,23,16,5,44,36,1100,['c'],1,left,['0'],6,201,[0.09242489],81,44,hard,minus,dotcolour,beta,,,34,18,V,R,
696,66,24,16,5,27,53,650,['n'],1,right,['9'],5,225,[-0.05546515],50,53,easy,minus,dotcolour,beta,,,34,18,V,R,
697,67,25,16,5,44,36,651,['c'],1,left,['0'],6,255,[0.12249557],92,44,hard,minus,dotcolour,beta,,,34,18,V,R,
698,68,26,16,5,27,53,733,['n'],1,right,['9'],5,352,[-0.12805707],90,53,easy,minus,dotcolour,beta,,,34,18,V,R,
699,69,27,16,5,33,47,567,['n'],1,right,['9'],5,245,[-0.1770798],99,47,medium,minus,dotcolour,beta,,,34,18,V,R,
700,70,28,16,5,36,44,717,['c'],0,right,['8'],4,200,[0.10969222],90,44,hard,minus,dotcolour,beta,,,34,18,V,R,
701,71,29,16,5,47,33,617,['c'],1,left,['9'],5,408,[0.07729109],65,47,medium,minus,dotcolour,beta,,,34,18,V,R,
702,72,30,16,5,44,36,567,['c'],1,left,['8'],4,266,[0.09342234],79,44,hard,minus,dotcolour,beta,,,34,18,V,R,
703,73,31,16,5,27,53,850,['n'],1,right,['0'],6,143,[-0.09618684],87,53,easy,minus,dotcolour,beta,,,34,18,V,R,
704,74,32,16,5,47,33,468,['c'],1,left,['0'],6,144,[0.0914679],85,47,medium,minus,dotcolour,beta,,,34,18,V,R,
705,75,33,16,5,47,33,517,['c'],1,left,['0'],6,118,[0.1085082],94,47,medium,minus,dotcolour,beta,,,34,18,V,R,
706,76,34,16,5,27,53,517,['n'],1,right,['0'],6,151,[-0.06923082],65,53,easy,minus,dotcolour,beta,,,34,18,V,R,
707,77,35,16,5,33,47,717,['c'],0,right,['0'],6,117,[0.1008168],92,47,medium,minus,dotcolour,beta,,,34,18,V,R,
708,78,36,16,5,33,47,699,['c'],0,right,['9'],5,135,[0.06385501],60,47,medium,minus,dotcolour,beta,,,34,18,V,R,
709,79,37,16,5,27,53,668,['n'],1,right,['9'],5,167,[-0.11783041],94,53,easy,minus,dotcolour,beta,,,34,18,V,R,
710,80,38,16,5,27,53,684,['c'],0,right,['0'],6,295,[0.01625839],21,53,easy,minus,dotcolour,beta,,,34,18,V,R,
711,81,39,16,5,36,44,634,['c'],0,right,['9'],5,130,[0.008749],9,44,hard,minus,dotcolour,beta,,,34,18,V,R,
712,82,40,16,5,47,33,683,['c'],1,left,['0'],6,283,[0.18030409],99,47,medium,minus,dotcolour,beta,,,34,18,V,R,
713,83,41,16,5,53,27,567,['c'],1,left,['0'],6,204,[0.02249533],21,53,easy,minus,dotcolour,beta,,,34,18,V,R,
714,84,0,17,5,27,53,1235,['n'],1,right,['0'],6,141,[-0.11163047],94,53,easy,minus,dotcolour,beta,,,34,18,V,R,
715,85,1,17,5,36,44,549,['c'],0,right,['0'],6,106,[0.04701071],38,44,hard,minus,dotcolour,beta,,,34,18,V,R,
716,86,2,17,5,44,36,516,['c'],1,left,['9'],5,106,[0.13678162],99,44,hard,minus,dotcolour,beta,,,34,18,V,R,
717,87,3,17,5,47,33,467,['n'],0,left,['9'],5,308,[0.05642461],3,47,medium,minus,dotcolour,beta,,,34,18,V,R,
718,88,4,17,5,47,33,734,['c'],1,left,['0'],6,155,[0.16390178],99,47,medium,minus,dotcolour,beta,,,34,18,V,R,
719,89,5,17,5,33,47,1151,['c'],0,right,['0'],6,264,[0.17528974],99,47,medium,minus,dotcolour,beta,,,34,18,V,R,
720,90,6,17,5,36,44,918,['n'],1,right,['9'],5,522,[-0.1314538],87,44,hard,minus,dotcolour,beta,,,34,18,V,R,
721,91,7,17,5,44,36,517,['c'],1,left,['0'],6,234,[0.05305078],48,44,hard,minus,dotcolour,beta,,,34,18,V,R,
722,92,8,17,5,36,44,1017,['n'],1,right,['9'],5,314,[-0.08224083],70,44,hard,minus,dotcolour,beta,,,34,18,V,R,
723,93,9,17,5,33,47,1168,['n'],1,right,['8'],4,423,[-0.19846726],98,47,medium,minus,dotcolour,beta,,,34,18,V,R,
724,94,10,17,5,44,36,749,['c'],1,left,['0'],6,81,[0.08923413],89,44,hard,minus,dotcolour,beta,,,34,18,V,R,
725,95,11,17,5,53,27,1851,['c'],1,left,['0'],6,229,[0.23084527],100,53,easy,minus,dotcolour,beta,,,34,18,V,R,
726,96,12,17,5,33,47,800,['n'],1,right,['9'],5,165,[-0.0216788],18,47,medium,minus,dotcolour,beta,,,34,18,V,R,
727,97,13,17,5,47,33,1218,['c'],1,left,['0'],6,215,[0.03042443],27,47,medium,minus,dotcolour,beta,,,34,18,V,R,
728,98,14,17,5,53,27,668,['c'],1,left,['0'],6,165,[0.03700327],31,53,easy,minus,dotcolour,beta,,,34,18,V,R,
729,99,15,17,5,53,27,1284,['c'],1,left,['0'],6,157,[0.05687384],51,53,easy,minus,dotcolour,beta,,,34,18,V,R,
730,100,16,17,5,44,36,601,['c'],1,left,['0'],6,103,[0.05370386],47,44,hard,minus,dotcolour,beta,,,34,18,V,R,
731,101,17,17,5,47,33,1033,['c'],1,left,['0'],6,379,[0.0852287],70,47,medium,minus,dotcolour,beta,,,34,18,V,R,
732,102,18,17,5,27,53,651,['n'],1,right,['9'],5,315,[-0.05724499],51,53,easy,minus,dotcolour,beta,,,34,18,V,R,
733,103,19,17,5,33,47,668,['n'],1,right,['3'],3,829,[-0.11624848],77,47,medium,minus,dotcolour,beta,,,34,18,V,R,
734,104,20,17,5,27,53,800,['n'],1,right,['8'],4,173,[-0.08647746],79,53,easy,minus,dotcolour,beta,,,34,18,V,R,
735,105,21,17,5,47,33,933,['c'],1,left,['8'],4,259,[0.06781349],61,47,medium,minus,dotcolour,beta,,,34,18,V,R,
736,106,22,17,5,27,53,734,['n'],1,right,['9'],5,236,[-0.10343495],85,53,easy,minus,dotcolour,beta,,,34,18,V,R,
737,107,23,17,5,53,27,683,['c'],1,left,['9'],5,184,[0.09483005],84,53,easy,minus,dotcolour,beta,,,34,18,V,R,
738,108,24,17,5,53,27,1050,['c'],1,left,['9'],5,152,[0.01739466],15,53,easy,minus,dotcolour,beta,,,34,18,V,R,
739,109,25,17,5,36,44,866,['c'],0,right,['8'],4,234,[0.10900234],88,44,hard,minus,dotcolour,beta,,,34,18,V,R,
740,110,26,17,5,53,27,601,['c'],1,left,['9'],5,313,[0.13642523],93,53,easy,minus,dotcolour,beta,,,34,18,V,R,
741,111,27,17,5,44,36,567,['c'],1,left,['0'],6,183,[0.0668477],62,44,hard,minus,dotcolour,beta,,,34,18,V,R,
742,112,28,17,5,27,53,601,['n'],1,right,['8'],4,385,[-0.00354918],18,53,easy,minus,dotcolour,beta,,,34,18,V,R,
743,113,29,17,5,27,53,1484,['n'],1,right,['9'],5,184,[-0.06150847],56,53,easy,minus,dotcolour,beta,,,34,18,V,R,
744,114,30,17,5,27,53,583,['n'],1,right,['9'],5,202,[-0.13941662],97,53,easy,minus,dotcolour,beta,,,34,18,V,R,
745,115,31,17,5,33,47,651,['n'],1,right,['9'],5,162,[-0.07738925],73,47,medium,minus,dotcolour,beta,,,34,18,V,R,
746,116,32,17,5,36,44,567,['n'],1,right,['9'],5,174,[-0.06268476],58,44,hard,minus,dotcolour,beta,,,34,18,V,R,
747,117,33,17,5,53,27,784,['c'],1,left,['8'],4,401,[0.0312612],33,53,easy,minus,dotcolour,beta,,,34,18,V,R,
748,118,34,17,5,44,36,1184,['c'],1,left,['9'],5,220,[0.09665355],83,44,hard,minus,dotcolour,beta,,,34,18,V,R,
749,119,35,17,5,33,47,834,['n'],1,right,['9'],5,154,[-0.01111076],12,47,medium,minus,dotcolour,beta,,,34,18,V,R,
750,120,36,17,5,47,33,717,['c'],1,left,['0'],6,305,[0.07782557],67,47,medium,minus,dotcolour,beta,,,34,18,V,R,
751,121,37,17,5,47,33,517,['c'],1,left,['0'],6,120,[0.06048136],56,47,medium,minus,dotcolour,beta,,,34,18,V,R,
752,122,38,17,5,36,44,467,['n'],1,right,['0'],6,186,[-0.09063785],81,44,hard,minus,dotcolour,beta,,,34,18,V,R,
753,123,39,17,5,44,36,467,['c'],1,left,['9'],5,257,[0.06801615],61,44,hard,minus,dotcolour,beta,,,34,18,V,R,
754,124,40,17,5,33,47,566,['c'],0,right,['9'],5,258,[0.06259552],56,47,medium,minus,dotcolour,beta,,,34,18,V,R,
755,125,41,17,5,36,44,484,['c'],0,right,['8'],4,180,[0.02817275],24,44,hard,minus,dotcolour,beta,,,34,18,V,R,
,,,,,,,,,,,,,,,,,,,,,1,in sommige reeksen werd veel aangeduid met een hoge percentage correct en bij  andere reeksen werd er veel aangeduid met lage percentage correct  ,34,18,V,R,
,,,,,,,,,,,,,,,,,,,,,2,['g'],34,18,V,R,
,,,,,,,,,,,,,,,,,,,,,3,['f'],34,18,V,R,
,,,,,,,,,,,,,,,,,,,,,5,[],34,18,V,R,
