trial,withinphasetrial,withinblocktrial,block,phase,dotsLeft,dotsRight,rt,resp,cor,cresp,conf_press,cj,RTconf,ev,fb,diff,difflevel,condition,task,manip,questionID,questionResp,sub,age,gender,handedness,
0,0,0,0,0,27,53,1616,['c'],0,right,['2'],5,4113,[-0.8300039],0,53,easy,plus,dotcolour,beta,,,4,23,V,R,
1,1,1,0,0,47,33,2349,['n'],0,left,['9'],2,4078,[0.47512613],2,47,medium,plus,dotcolour,beta,,,4,23,V,R,
2,2,2,0,0,33,47,4700,['c'],0,right,['2'],5,2479,[-0.03374193],56,47,medium,plus,dotcolour,beta,,,4,23,V,R,
3,3,3,0,0,33,47,6398,['n'],1,right,['8'],3,3500,[-0.67336206],100,47,medium,plus,dotcolour,beta,,,4,23,V,R,
4,4,4,0,0,33,47,2832,['c'],0,right,['3'],4,2215,[0.00812474],68,47,medium,plus,dotcolour,beta,,,4,23,V,R,
5,5,5,0,0,44,36,4131,['n'],0,left,['3'],4,2553,[0.09026863],40,44,hard,plus,dotcolour,beta,,,4,23,V,R,
6,6,6,0,0,27,53,3150,['c'],0,right,['1'],6,1661,[-0.02920604],59,53,easy,plus,dotcolour,beta,,,4,23,V,R,
7,7,7,0,0,47,33,1715,['c'],1,left,['1'],6,830,[0.14452617],98,47,medium,plus,dotcolour,beta,,,4,23,V,R,
8,8,8,0,0,53,27,1116,['c'],1,left,['1'],6,738,[0.2165391],100,53,easy,plus,dotcolour,beta,,,4,23,V,R,
9,9,9,0,0,44,36,3017,['n'],0,left,['8'],3,2132,[0.08651362],41,44,hard,plus,dotcolour,beta,,,4,23,V,R,
10,10,10,0,0,44,36,1216,['c'],1,left,['1'],6,751,[0.31514865],100,44,hard,plus,dotcolour,beta,,,4,23,V,R,
11,11,11,0,0,44,36,1349,['c'],1,left,['1'],6,340,[0.04409605],96,44,hard,plus,dotcolour,beta,,,4,23,V,R,
12,12,12,0,0,36,44,1032,['c'],0,right,['1'],6,349,[0.06746404],98,44,hard,plus,dotcolour,beta,,,4,23,V,R,
13,13,13,0,0,44,36,781,['c'],1,left,['1'],6,346,[0.07267994],98,44,hard,plus,dotcolour,beta,,,4,23,V,R,
14,14,14,0,0,47,33,1215,['c'],1,left,['1'],6,268,[0.12198858],100,47,medium,plus,dotcolour,beta,,,4,23,V,R,
15,15,15,0,0,53,27,981,['n'],0,left,['0'],1,331,[-0.02869041],93,53,easy,plus,dotcolour,beta,,,4,23,V,R,
16,16,16,0,0,36,44,881,['n'],1,right,['0'],1,284,[-0.0714177],99,44,hard,plus,dotcolour,beta,,,4,23,V,R,
17,17,17,0,0,36,44,799,['n'],1,right,['0'],1,305,[-0.03030238],94,44,hard,plus,dotcolour,beta,,,4,23,V,R,
18,18,18,0,0,47,33,4316,['n'],0,left,['0'],1,338,[0.02058986],75,47,medium,plus,dotcolour,beta,,,4,23,V,R,
19,19,19,0,0,53,27,897,['c'],1,left,['1'],6,233,[0.06526898],99,53,easy,plus,dotcolour,beta,,,4,23,V,R,
20,20,20,0,0,36,44,815,['n'],1,right,['9'],2,696,[-0.06871338],94,44,hard,plus,dotcolour,beta,,,4,23,V,R,
21,21,21,0,0,44,36,1149,['n'],0,left,['0'],1,319,[-0.05168337],97,44,hard,plus,dotcolour,beta,,,4,23,V,R,
22,22,22,0,0,27,53,633,['n'],1,right,['0'],1,235,[-0.19781263],100,53,easy,plus,dotcolour,beta,,,4,23,V,R,
23,23,23,0,0,33,47,583,['n'],1,right,['0'],1,291,[-0.06315549],98,47,medium,plus,dotcolour,beta,,,4,23,V,R,
24,24,24,0,0,33,47,649,['n'],1,right,['0'],1,279,[-0.17271027],100,47,medium,plus,dotcolour,beta,,,4,23,V,R,
25,25,25,0,0,53,27,915,['c'],1,left,['1'],6,248,[0.12688106],100,53,easy,plus,dotcolour,beta,,,4,23,V,R,
26,26,26,0,0,36,44,630,['n'],1,right,['0'],1,238,[-0.06012105],99,44,hard,plus,dotcolour,beta,,,4,23,V,R,
27,27,27,0,0,53,27,783,['c'],1,left,['1'],6,231,[0.09871228],100,53,easy,plus,dotcolour,beta,,,4,23,V,R,
28,28,28,0,0,33,47,598,['n'],1,right,['0'],1,311,[-0.09258419],99,47,medium,plus,dotcolour,beta,,,4,23,V,R,
29,29,29,0,0,47,33,1000,['c'],1,left,['1'],6,227,[0.0634938],99,47,medium,plus,dotcolour,beta,,,4,23,V,R,
30,30,30,0,0,53,27,648,['n'],0,left,['0'],1,233,[-0.13800894],100,53,easy,plus,dotcolour,beta,,,4,23,V,R,
31,31,31,0,0,44,36,932,['n'],0,left,['0'],1,228,[-0.12313165],100,44,hard,plus,dotcolour,beta,,,4,23,V,R,
32,32,32,0,0,27,53,698,['n'],1,right,['0'],1,200,[-0.11797007],100,53,easy,plus,dotcolour,beta,,,4,23,V,R,
33,33,33,0,0,36,44,682,['n'],1,right,['0'],1,238,[-0.1018072],100,44,hard,plus,dotcolour,beta,,,4,23,V,R,
34,34,34,0,0,27,53,732,['n'],1,right,['0'],1,249,[-0.08916609],99,53,easy,plus,dotcolour,beta,,,4,23,V,R,
35,35,35,0,0,36,44,599,['n'],1,right,['0'],1,216,[-0.11867966],100,44,hard,plus,dotcolour,beta,,,4,23,V,R,
36,36,36,0,0,33,47,614,['n'],1,right,['0'],1,272,[-0.14612258],100,47,medium,plus,dotcolour,beta,,,4,23,V,R,
37,37,37,0,0,47,33,800,['c'],1,left,['1'],6,247,[0.09930892],100,47,medium,plus,dotcolour,beta,,,4,23,V,R,
38,38,38,0,0,53,27,1982,['c'],1,left,['1'],6,167,[0.11389907],100,53,easy,plus,dotcolour,beta,,,4,23,V,R,
39,39,39,0,0,47,33,1883,['c'],1,left,['3'],4,462,[0.14400749],99,47,medium,plus,dotcolour,beta,,,4,23,V,R,
40,40,40,0,0,27,53,682,['n'],1,right,['0'],1,274,[-0.07692677],99,53,easy,plus,dotcolour,beta,,,4,23,V,R,
41,41,41,0,0,27,53,580,['n'],1,right,['0'],1,288,[-0.07925602],99,53,easy,plus,dotcolour,beta,,,4,23,V,R,
42,42,0,1,0,53,27,1650,['c'],1,left,['1'],6,232,[0.08726261],100,53,easy,plus,dotcolour,beta,,,4,23,V,R,
43,43,1,1,0,27,53,582,['n'],1,right,['0'],1,249,[-0.14201625],100,53,easy,plus,dotcolour,beta,,,4,23,V,R,
44,44,2,1,0,53,27,798,['c'],1,left,['1'],6,272,[0.11759943],100,53,easy,plus,dotcolour,beta,,,4,23,V,R,
45,45,3,1,0,53,27,832,['c'],1,left,['1'],6,277,[0.11726568],100,53,easy,plus,dotcolour,beta,,,4,23,V,R,
46,46,4,1,0,47,33,1599,['c'],1,left,['1'],6,235,[0.13989138],100,47,medium,plus,dotcolour,beta,,,4,23,V,R,
47,47,5,1,0,36,44,649,['n'],1,right,['0'],1,298,[-0.12319737],100,44,hard,plus,dotcolour,beta,,,4,23,V,R,
48,48,6,1,0,27,53,582,['n'],1,right,['0'],1,272,[-0.07541461],99,53,easy,plus,dotcolour,beta,,,4,23,V,R,
49,49,7,1,0,47,33,1165,['c'],1,left,['1'],6,247,[0.02952672],96,47,medium,plus,dotcolour,beta,,,4,23,V,R,
50,50,8,1,0,47,33,1898,['c'],1,left,['1'],6,234,[0.15064288],100,47,medium,plus,dotcolour,beta,,,4,23,V,R,
51,51,9,1,0,27,53,516,['n'],1,right,['0'],1,221,[-0.17771687],100,53,easy,plus,dotcolour,beta,,,4,23,V,R,
52,52,10,1,0,33,47,617,['n'],1,right,['0'],1,254,[-0.09389381],100,47,medium,plus,dotcolour,beta,,,4,23,V,R,
53,53,11,1,0,36,44,932,['n'],1,right,['0'],1,231,[0.02056722],79,44,hard,plus,dotcolour,beta,,,4,23,V,R,
54,54,12,1,0,27,53,1065,['n'],1,right,['0'],1,332,[-0.16457549],100,53,easy,plus,dotcolour,beta,,,4,23,V,R,
55,55,13,1,0,44,36,1051,['c'],1,left,['1'],6,270,[0.09406803],99,44,hard,plus,dotcolour,beta,,,4,23,V,R,
56,56,14,1,0,53,27,1381,['c'],1,left,['1'],6,253,[0.09986169],100,53,easy,plus,dotcolour,beta,,,4,23,V,R,
57,57,15,1,0,53,27,816,['c'],1,left,['1'],6,284,[0.02466791],94,53,easy,plus,dotcolour,beta,,,4,23,V,R,
58,58,16,1,0,27,53,931,['n'],1,right,['0'],1,876,[-0.12071453],97,53,easy,plus,dotcolour,beta,,,4,23,V,R,
59,59,17,1,0,47,33,4799,['n'],0,left,['9'],2,1955,[-0.04984064],80,47,medium,plus,dotcolour,beta,,,4,23,V,R,
60,60,18,1,0,33,47,2216,['c'],0,right,['1'],6,508,[0.01157033],84,47,medium,plus,dotcolour,beta,,,4,23,V,R,
61,61,19,1,0,44,36,2365,['c'],1,left,['2'],5,1722,[0.11748498],91,44,hard,plus,dotcolour,beta,,,4,23,V,R,
62,62,20,1,0,33,47,1082,['n'],1,right,['1'],6,594,[-0.12219815],98,47,medium,plus,dotcolour,beta,,,4,23,V,R,
63,63,21,1,0,33,47,699,['n'],1,right,['1'],6,296,[-0.13089766],100,47,medium,plus,dotcolour,beta,,,4,23,V,R,
64,64,22,1,0,27,53,633,['n'],1,right,['1'],6,292,[-0.05336113],97,53,easy,plus,dotcolour,beta,,,4,23,V,R,
65,65,23,1,0,53,27,865,['c'],1,left,['1'],6,351,[0.0625708],97,53,easy,plus,dotcolour,beta,,,4,23,V,R,
66,66,24,1,0,47,33,966,['c'],1,left,['1'],6,315,[0.06468431],98,47,medium,plus,dotcolour,beta,,,4,23,V,R,
67,67,25,1,0,44,36,765,['n'],0,left,['1'],6,370,[-0.01366011],89,44,hard,plus,dotcolour,beta,,,4,23,V,R,
68,68,26,1,0,53,27,1048,['c'],1,left,['1'],6,314,[0.05044197],97,53,easy,plus,dotcolour,beta,,,4,23,V,R,
69,69,27,1,0,33,47,965,['n'],1,right,['2'],5,1568,[-0.22071355],98,47,medium,plus,dotcolour,beta,,,4,23,V,R,
70,70,28,1,0,36,44,681,['n'],1,right,['1'],6,279,[-0.05023457],97,44,hard,plus,dotcolour,beta,,,4,23,V,R,
71,71,29,1,0,33,47,582,['n'],1,right,['1'],6,381,[-0.08360252],98,47,medium,plus,dotcolour,beta,,,4,23,V,R,
72,72,30,1,0,36,44,1733,['c'],0,right,['1'],6,274,[0.07895667],99,44,hard,plus,dotcolour,beta,,,4,23,V,R,
73,73,31,1,0,27,53,634,['n'],1,right,['1'],6,255,[-0.08529601],99,53,easy,plus,dotcolour,beta,,,4,23,V,R,
74,74,32,1,0,36,44,865,['c'],0,right,['1'],6,307,[0.05668766],97,44,hard,plus,dotcolour,beta,,,4,23,V,R,
75,75,33,1,0,33,47,598,['n'],1,right,['1'],6,328,[-0.07362604],98,47,medium,plus,dotcolour,beta,,,4,23,V,R,
76,76,34,1,0,44,36,2599,['c'],1,left,['1'],6,316,[-0.08089826],31,44,hard,plus,dotcolour,beta,,,4,23,V,R,
77,77,35,1,0,44,36,1765,['c'],1,left,['1'],6,986,[0.0498568],87,44,hard,plus,dotcolour,beta,,,4,23,V,R,
78,78,36,1,0,47,33,1463,['c'],1,left,['1'],6,344,[0.11220913],99,47,medium,plus,dotcolour,beta,,,4,23,V,R,
79,79,37,1,0,47,33,3182,['n'],0,left,['8'],3,1805,[-0.05035518],81,47,medium,plus,dotcolour,beta,,,4,23,V,R,
80,80,38,1,0,36,44,1299,['c'],0,right,['1'],6,417,[0.10876284],99,44,hard,plus,dotcolour,beta,,,4,23,V,R,
81,81,39,1,0,44,36,1033,['c'],1,left,['1'],6,384,[0.00167604],84,44,hard,plus,dotcolour,beta,,,4,23,V,R,
82,82,40,1,0,36,44,1250,['n'],1,right,['8'],3,968,[-0.22067012],99,44,hard,plus,dotcolour,beta,,,4,23,V,R,
83,83,41,1,0,44,36,1997,['c'],1,left,['3'],4,826,[-0.06377658],46,44,hard,plus,dotcolour,beta,,,4,23,V,R,
84,84,0,2,0,53,27,1050,['c'],1,left,['2'],5,1137,[0.23328514],99,53,easy,plus,dotcolour,beta,,,4,23,V,R,
85,85,1,2,0,44,36,1182,['c'],1,left,['3'],4,333,[-0.02220394],74,44,hard,plus,dotcolour,beta,,,4,23,V,R,
86,86,2,2,0,27,53,782,['n'],1,right,['1'],6,426,[-0.08928973],98,53,easy,plus,dotcolour,beta,,,4,23,V,R,
87,87,3,2,0,53,27,933,['c'],1,left,['1'],6,365,[0.09593706],99,53,easy,plus,dotcolour,beta,,,4,23,V,R,
88,88,4,2,0,53,27,1633,['c'],1,left,['1'],6,278,[0.17457449],100,53,easy,plus,dotcolour,beta,,,4,23,V,R,
89,89,5,2,0,36,44,1999,['n'],1,right,['1'],6,219,[-0.15129975],100,44,hard,plus,dotcolour,beta,,,4,23,V,R,
90,90,6,2,0,44,36,1149,['c'],1,left,['3'],4,478,[0.12848795],99,44,hard,plus,dotcolour,beta,,,4,23,V,R,
91,91,7,2,0,47,33,764,['c'],1,left,['1'],6,325,[-0.06076618],46,47,medium,plus,dotcolour,beta,,,4,23,V,R,
92,92,8,2,0,27,53,864,['n'],1,right,['1'],6,295,[-0.10410327],99,53,easy,plus,dotcolour,beta,,,4,23,V,R,
93,93,9,2,0,47,33,1833,['c'],1,left,['1'],6,283,[0.04308929],97,47,medium,plus,dotcolour,beta,,,4,23,V,R,
94,94,10,2,0,53,27,981,['c'],1,left,['1'],6,305,[0.04637288],97,53,easy,plus,dotcolour,beta,,,4,23,V,R,
95,95,11,2,0,44,36,598,['n'],0,left,['1'],6,271,[-0.11607934],100,44,hard,plus,dotcolour,beta,,,4,23,V,R,
96,96,12,2,0,36,44,614,['n'],1,right,['1'],6,229,[-0.0206937],95,44,hard,plus,dotcolour,beta,,,4,23,V,R,
97,97,13,2,0,33,47,780,['n'],1,right,['1'],6,342,[-0.05939315],97,47,medium,plus,dotcolour,beta,,,4,23,V,R,
98,98,14,2,0,33,47,1299,['n'],1,right,['1'],6,213,[-0.02303258],96,47,medium,plus,dotcolour,beta,,,4,23,V,R,
99,99,15,2,0,47,33,983,['c'],1,left,['2'],5,807,[0.12063846],97,47,medium,plus,dotcolour,beta,,,4,23,V,R,
100,100,16,2,0,36,44,2799,['c'],0,right,['3'],4,1231,[-0.03875128],57,44,hard,plus,dotcolour,beta,,,4,23,V,R,
101,101,17,2,0,44,36,1334,['c'],1,left,['2'],5,322,[0.09301259],99,44,hard,plus,dotcolour,beta,,,4,23,V,R,
102,102,18,2,0,47,33,647,['c'],1,left,['2'],5,340,[0.12133454],100,47,medium,plus,dotcolour,beta,,,4,23,V,R,
103,103,19,2,0,47,33,966,['c'],1,left,['2'],5,536,[0.04762018],93,47,medium,plus,dotcolour,beta,,,4,23,V,R,
104,104,20,2,0,27,53,648,['n'],1,right,['2'],5,347,[-0.07972625],98,53,easy,plus,dotcolour,beta,,,4,23,V,R,
105,105,21,2,0,44,36,1749,['c'],1,left,['2'],5,456,[0.07949887],97,44,hard,plus,dotcolour,beta,,,4,23,V,R,
106,106,22,2,0,53,27,798,['n'],0,left,['2'],5,375,[-0.04557597],95,53,easy,plus,dotcolour,beta,,,4,23,V,R,
107,107,23,2,0,36,44,1298,['c'],0,right,['2'],5,628,[0.14048194],99,44,hard,plus,dotcolour,beta,,,4,23,V,R,
108,108,24,2,0,36,44,566,['n'],1,right,['2'],5,558,[-0.06904587],95,44,hard,plus,dotcolour,beta,,,4,23,V,R,
109,109,25,2,0,27,53,534,['n'],1,right,['2'],5,587,[-0.15179055],99,53,easy,plus,dotcolour,beta,,,4,23,V,R,
110,110,26,2,0,44,36,382,['n'],0,left,['2'],5,662,[-0.11393749],98,44,hard,plus,dotcolour,beta,,,4,23,V,R,
111,111,27,2,0,33,47,1330,['c'],0,right,['0'],1,1223,[-0.06115524],48,47,medium,plus,dotcolour,beta,,,4,23,V,R,
112,112,28,2,0,53,27,816,['c'],1,left,['1'],6,750,[0.16229431],99,53,easy,plus,dotcolour,beta,,,4,23,V,R,
113,113,29,2,0,27,53,2148,['n'],1,right,['1'],6,1076,[-0.29829766],100,53,easy,plus,dotcolour,beta,,,4,23,V,R,
114,114,30,2,0,36,44,2466,['c'],0,right,['1'],6,687,[0.0349589],88,44,hard,plus,dotcolour,beta,,,4,23,V,R,
115,115,31,2,0,53,27,1198,['c'],1,left,['2'],5,844,[0.16275865],99,53,easy,plus,dotcolour,beta,,,4,23,V,R,
116,116,32,2,0,33,47,1115,['n'],1,right,['2'],5,655,[-0.18303846],100,47,medium,plus,dotcolour,beta,,,4,23,V,R,
117,117,33,2,0,47,33,1032,['c'],1,left,['2'],5,764,[0.13863208],98,47,medium,plus,dotcolour,beta,,,4,23,V,R,
118,118,34,2,0,47,33,1331,['c'],1,left,['2'],5,4513,[0.62476276],100,47,medium,plus,dotcolour,beta,,,4,23,V,R,
119,119,35,2,0,33,47,1364,['n'],1,right,['3'],4,750,[-0.05090896],90,47,medium,plus,dotcolour,beta,,,4,23,V,R,
120,120,36,2,0,36,44,1483,['c'],0,right,['2'],5,534,[0.00552979],82,44,hard,plus,dotcolour,beta,,,4,23,V,R,
121,121,37,2,0,27,53,1881,['n'],1,right,['8'],3,871,[-0.2273139],100,53,easy,plus,dotcolour,beta,,,4,23,V,R,
122,122,38,2,0,44,36,1782,['c'],1,left,['3'],4,486,[0.10181441],98,44,hard,plus,dotcolour,beta,,,4,23,V,R,
123,123,39,2,0,27,53,1265,['n'],1,right,['1'],6,585,[-0.35116284],100,53,easy,plus,dotcolour,beta,,,4,23,V,R,
124,124,40,2,0,33,47,665,['n'],1,right,['1'],6,327,[-0.04352189],96,47,medium,plus,dotcolour,beta,,,4,23,V,R,
125,125,41,2,0,33,47,849,['n'],1,right,['1'],6,353,[-0.06754118],98,47,medium,plus,dotcolour,beta,,,4,23,V,R,
126,0,0,3,1,44,36,1700,['c'],1,left,['3'],4,1143,[0.17721531],89,44,hard,minus,dotcolour,beta,,,4,23,V,R,
127,1,1,3,1,53,27,1080,['c'],1,left,['2'],5,415,[0.10753423],81,53,easy,minus,dotcolour,beta,,,4,23,V,R,
128,2,2,3,1,27,53,1299,['n'],1,right,['1'],6,659,[-0.19599534],96,53,easy,minus,dotcolour,beta,,,4,23,V,R,
129,3,3,3,1,44,36,2081,['c'],1,left,['1'],6,311,[0.05640196],51,44,hard,minus,dotcolour,beta,,,4,23,V,R,
130,4,4,3,1,44,36,1233,['n'],0,left,['1'],6,346,[-0.16421819],97,44,hard,minus,dotcolour,beta,,,4,23,V,R,
131,5,5,3,1,53,27,1083,['c'],1,left,['1'],6,386,[0.08858106],72,53,easy,minus,dotcolour,beta,,,4,23,V,R,
132,6,6,3,1,36,44,1782,['c'],0,right,['1'],6,300,[0.06577233],58,44,hard,minus,dotcolour,beta,,,4,23,V,R,
133,7,7,3,1,27,53,699,['n'],1,right,['1'],6,334,[-0.18171253],98,53,easy,minus,dotcolour,beta,,,4,23,V,R,
134,8,8,3,1,53,27,1048,['c'],1,left,['1'],6,319,[0.15757774],96,53,easy,minus,dotcolour,beta,,,4,23,V,R,
135,9,9,3,1,27,53,497,['n'],1,right,['1'],6,375,[-0.08193971],68,53,easy,minus,dotcolour,beta,,,4,23,V,R,
136,10,10,3,1,36,44,1414,['c'],0,right,['1'],6,489,[0.05948171],53,44,hard,minus,dotcolour,beta,,,4,23,V,R,
137,11,11,3,1,33,47,800,['n'],1,right,['1'],6,438,[0.00481777],16,47,medium,minus,dotcolour,beta,,,4,23,V,R,
138,12,12,3,1,27,53,633,['n'],1,right,['1'],6,365,[-0.18566637],98,53,easy,minus,dotcolour,beta,,,4,23,V,R,
139,13,13,3,1,44,36,683,['n'],0,left,['1'],6,260,[-0.00670198],15,44,hard,minus,dotcolour,beta,,,4,23,V,R,
140,14,14,3,1,53,27,1301,['c'],1,left,['1'],6,335,[0.01939524],25,53,easy,minus,dotcolour,beta,,,4,23,V,R,
141,15,15,3,1,27,53,583,['n'],1,right,['2'],5,1091,[-0.33184318],99,53,easy,minus,dotcolour,beta,,,4,23,V,R,
142,16,16,3,1,27,53,1433,['n'],1,right,['1'],6,423,[-0.20398329],98,53,easy,minus,dotcolour,beta,,,4,23,V,R,
143,17,17,3,1,36,44,933,['n'],1,right,['1'],6,266,[-0.10353456],84,44,hard,minus,dotcolour,beta,,,4,23,V,R,
144,18,18,3,1,47,33,1301,['c'],1,left,['2'],5,421,[0.2126079],99,47,medium,minus,dotcolour,beta,,,4,23,V,R,
145,19,19,3,1,44,36,799,['n'],0,left,['1'],6,301,[-0.0361942],35,44,hard,minus,dotcolour,beta,,,4,23,V,R,
146,20,20,3,1,44,36,833,['c'],1,left,['2'],5,384,[0.07750969],65,44,hard,minus,dotcolour,beta,,,4,23,V,R,
147,21,21,3,1,47,33,2517,['c'],1,left,['3'],4,421,[0.06803505],59,47,medium,minus,dotcolour,beta,,,4,23,V,R,
148,22,22,3,1,33,47,1064,['c'],0,right,['3'],4,659,[0.06773376],57,47,medium,minus,dotcolour,beta,,,4,23,V,R,
149,23,23,3,1,47,33,697,['n'],0,left,['2'],5,381,[-0.12114167],87,47,medium,minus,dotcolour,beta,,,4,23,V,R,
150,24,24,3,1,33,47,850,['c'],0,right,['2'],5,302,[0.04462854],41,47,medium,minus,dotcolour,beta,,,4,23,V,R,
151,25,25,3,1,44,36,699,['n'],0,left,['9'],2,2655,[0.03093763],28,44,hard,minus,dotcolour,beta,,,4,23,V,R,
152,26,26,3,1,33,47,1598,['n'],1,right,['2'],5,933,[-0.13333373],81,47,medium,minus,dotcolour,beta,,,4,23,V,R,
153,27,27,3,1,47,33,883,['c'],1,left,['2'],5,429,[0.07624164],64,47,medium,minus,dotcolour,beta,,,4,23,V,R,
154,28,28,3,1,33,47,2031,['n'],1,right,['2'],5,555,[-0.062651],54,47,medium,minus,dotcolour,beta,,,4,23,V,R,
155,29,29,3,1,33,47,2783,['n'],1,right,['8'],3,1087,[-0.39648789],100,47,medium,minus,dotcolour,beta,,,4,23,V,R,
156,30,30,3,1,27,53,1116,['n'],1,right,['1'],6,655,[-0.29928231],100,53,easy,minus,dotcolour,beta,,,4,23,V,R,
157,31,31,3,1,36,44,9099,['c'],0,right,['3'],4,2882,[-0.41851354],1,44,hard,minus,dotcolour,beta,,,4,23,V,R,
158,32,32,3,1,47,33,2100,['n'],0,left,['8'],3,1715,[-0.16560855],82,47,medium,minus,dotcolour,beta,,,4,23,V,R,
159,33,33,3,1,47,33,1599,['c'],1,left,['1'],6,631,[0.00936502],26,47,medium,minus,dotcolour,beta,,,4,23,V,R,
160,34,34,3,1,33,47,781,['n'],1,right,['9'],2,551,[-0.23049491],99,47,medium,minus,dotcolour,beta,,,4,23,V,R,
161,35,35,3,1,36,44,883,['c'],0,right,['9'],2,1159,[0.15702571],84,44,hard,minus,dotcolour,beta,,,4,23,V,R,
162,36,36,3,1,53,27,1298,['c'],1,left,['1'],6,462,[0.23489088],99,53,easy,minus,dotcolour,beta,,,4,23,V,R,
163,37,37,3,1,47,33,2148,['c'],1,left,['1'],6,487,[0.17266121],95,47,medium,minus,dotcolour,beta,,,4,23,V,R,
164,38,38,3,1,36,44,1015,['n'],1,right,['8'],3,923,[-0.09660891],68,44,hard,minus,dotcolour,beta,,,4,23,V,R,
165,39,39,3,1,53,27,732,['c'],1,left,['3'],4,330,[0.1020748],81,53,easy,minus,dotcolour,beta,,,4,23,V,R,
166,40,40,3,1,53,27,815,['c'],1,left,['1'],6,333,[0.01316513],21,53,easy,minus,dotcolour,beta,,,4,23,V,R,
167,41,41,3,1,36,44,949,['n'],1,right,['2'],5,435,[0.0029964],17,44,hard,minus,dotcolour,beta,,,4,23,V,R,
168,42,0,4,1,27,53,2434,['n'],1,right,['3'],4,918,[-0.33067023],99,53,easy,minus,dotcolour,beta,,,4,23,V,R,
169,43,1,4,1,47,33,1566,['c'],1,left,['2'],5,362,[0.03551634],35,47,medium,minus,dotcolour,beta,,,4,23,V,R,
170,44,2,4,1,27,53,699,['n'],1,right,['1'],6,665,[-0.0732209],60,53,easy,minus,dotcolour,beta,,,4,23,V,R,
171,45,3,4,1,36,44,1600,['c'],0,right,['1'],6,295,[0.09113549],76,44,hard,minus,dotcolour,beta,,,4,23,V,R,
172,46,4,4,1,47,33,864,['c'],1,left,['1'],6,290,[0.10306214],83,47,medium,minus,dotcolour,beta,,,4,23,V,R,
173,47,5,4,1,53,27,964,['c'],1,left,['1'],6,297,[0.24164862],100,53,easy,minus,dotcolour,beta,,,4,23,V,R,
174,48,6,4,1,33,47,584,['n'],1,right,['1'],6,295,[-0.12364537],91,47,medium,minus,dotcolour,beta,,,4,23,V,R,
175,49,7,4,1,47,33,748,['c'],1,left,['1'],6,270,[0.13631402],94,47,medium,minus,dotcolour,beta,,,4,23,V,R,
176,50,8,4,1,44,36,1980,['n'],0,left,['1'],6,214,[-0.09825319],84,44,hard,minus,dotcolour,beta,,,4,23,V,R,
177,51,9,4,1,33,47,900,['n'],1,right,['1'],6,339,[-0.13744391],93,47,medium,minus,dotcolour,beta,,,4,23,V,R,
178,52,10,4,1,36,44,614,['n'],1,right,['1'],6,182,[-0.08826721],80,44,hard,minus,dotcolour,beta,,,4,23,V,R,
179,53,11,4,1,36,44,1298,['c'],0,right,['1'],6,308,[0.10495026],83,44,hard,minus,dotcolour,beta,,,4,23,V,R,
180,54,12,4,1,53,27,999,['c'],1,left,['1'],6,280,[0.13415381],94,53,easy,minus,dotcolour,beta,,,4,23,V,R,
181,55,13,4,1,53,27,616,['c'],1,left,['1'],6,270,[0.08849674],76,53,easy,minus,dotcolour,beta,,,4,23,V,R,
182,56,14,4,1,36,44,1232,['c'],0,right,['1'],6,363,[0.10240209],80,44,hard,minus,dotcolour,beta,,,4,23,V,R,
183,57,15,4,1,33,47,1465,['n'],1,right,['1'],6,290,[-0.15524022],97,47,medium,minus,dotcolour,beta,,,4,23,V,R,
184,58,16,4,1,47,33,866,['c'],1,left,['1'],6,262,[0.05065417],46,47,medium,minus,dotcolour,beta,,,4,23,V,R,
185,59,17,4,1,36,44,731,['n'],1,right,['3'],4,374,[-0.04208825],40,44,hard,minus,dotcolour,beta,,,4,23,V,R,
186,60,18,4,1,33,47,715,['n'],1,right,['2'],5,236,[-0.02312208],23,47,medium,minus,dotcolour,beta,,,4,23,V,R,
187,61,19,4,1,27,53,849,['n'],1,right,['1'],6,882,[-0.14808562],85,53,easy,minus,dotcolour,beta,,,4,23,V,R,
188,62,20,4,1,53,27,1682,['n'],0,left,['8'],3,4955,[0.48384266],1,53,easy,minus,dotcolour,beta,,,4,23,V,R,
189,63,21,4,1,44,36,2015,['c'],1,left,['3'],4,2013,[0.18324095],83,44,hard,minus,dotcolour,beta,,,4,23,V,R,
190,64,22,4,1,47,33,816,['c'],1,left,['3'],4,932,[0.22274811],96,47,medium,minus,dotcolour,beta,,,4,23,V,R,
191,65,23,4,1,33,47,965,['n'],1,right,['1'],6,409,[-0.03789578],38,47,medium,minus,dotcolour,beta,,,4,23,V,R,
192,66,24,4,1,44,36,3733,['c'],1,left,['1'],6,845,[-0.00140111],25,44,hard,minus,dotcolour,beta,,,4,23,V,R,
193,67,25,4,1,33,47,1166,['c'],0,right,['2'],5,453,[0.12650308],87,47,medium,minus,dotcolour,beta,,,4,23,V,R,
194,68,26,4,1,27,53,664,['n'],1,right,['1'],6,474,[-0.07496117],62,53,easy,minus,dotcolour,beta,,,4,23,V,R,
195,69,27,4,1,44,36,782,['c'],1,left,['1'],6,288,[0.05968561],53,44,hard,minus,dotcolour,beta,,,4,23,V,R,
196,70,28,4,1,36,44,1014,['n'],1,right,['1'],6,485,[-0.16029404],94,44,hard,minus,dotcolour,beta,,,4,23,V,R,
197,71,29,4,1,33,47,1166,['n'],1,right,['1'],6,420,[-0.1344671],90,47,medium,minus,dotcolour,beta,,,4,23,V,R,
198,72,30,4,1,44,36,882,['c'],1,left,['1'],6,314,[0.06888445],61,44,hard,minus,dotcolour,beta,,,4,23,V,R,
199,73,31,4,1,53,27,867,['c'],1,left,['2'],5,316,[0.09733472],79,53,easy,minus,dotcolour,beta,,,4,23,V,R,
200,74,32,4,1,53,27,683,['c'],1,left,['1'],6,373,[0.18462713],98,53,easy,minus,dotcolour,beta,,,4,23,V,R,
201,75,33,4,1,36,44,830,['c'],0,right,['2'],5,598,[0.05023047],47,44,hard,minus,dotcolour,beta,,,4,23,V,R,
202,76,34,4,1,47,33,782,['c'],1,left,['2'],5,320,[0.0653979],58,47,medium,minus,dotcolour,beta,,,4,23,V,R,
203,77,35,4,1,44,36,716,['c'],1,left,['2'],5,352,[0.23484273],100,44,hard,minus,dotcolour,beta,,,4,23,V,R,
204,78,36,4,1,27,53,583,['n'],1,right,['1'],6,324,[-0.07262256],63,53,easy,minus,dotcolour,beta,,,4,23,V,R,
205,79,37,4,1,47,33,682,['c'],1,left,['1'],6,300,[0.12205585],90,47,medium,minus,dotcolour,beta,,,4,23,V,R,
206,80,38,4,1,27,53,631,['n'],1,right,['2'],5,1440,[-0.21811493],92,53,easy,minus,dotcolour,beta,,,4,23,V,R,
207,81,39,4,1,27,53,1599,['n'],1,right,['1'],6,335,[-0.25826543],100,53,easy,minus,dotcolour,beta,,,4,23,V,R,
208,82,40,4,1,44,36,3165,['c'],1,left,['3'],4,1644,[0.25861587],95,44,hard,minus,dotcolour,beta,,,4,23,V,R,
209,83,41,4,1,53,27,765,['c'],1,left,['3'],4,269,[0.10214495],83,53,easy,minus,dotcolour,beta,,,4,23,V,R,
210,84,0,5,1,27,53,1066,['n'],1,right,['2'],5,684,[-0.19566309],95,53,easy,minus,dotcolour,beta,,,4,23,V,R,
211,85,1,5,1,36,44,482,['n'],1,right,['2'],5,487,[-0.02072039],29,44,hard,minus,dotcolour,beta,,,4,23,V,R,
212,86,2,5,1,47,33,1314,['c'],1,left,['8'],3,631,[0.21025755],97,47,medium,minus,dotcolour,beta,,,4,23,V,R,
213,87,3,5,1,33,47,798,['n'],1,right,['3'],4,391,[-0.23114776],99,47,medium,minus,dotcolour,beta,,,4,23,V,R,
214,88,4,5,1,27,53,531,['n'],1,right,['2'],5,315,[-0.01937539],24,53,easy,minus,dotcolour,beta,,,4,23,V,R,
215,89,5,5,1,33,47,581,['n'],1,right,['1'],6,416,[0.03282683],8,47,medium,minus,dotcolour,beta,,,4,23,V,R,
216,90,6,5,1,36,44,848,['n'],1,right,['1'],6,407,[-0.17167122],96,44,hard,minus,dotcolour,beta,,,4,23,V,R,
217,91,7,5,1,36,44,948,['c'],0,right,['8'],3,746,[0.02108356],33,44,hard,minus,dotcolour,beta,,,4,23,V,R,
218,92,8,5,1,47,33,750,['c'],1,left,['3'],4,903,[0.13706915],82,47,medium,minus,dotcolour,beta,,,4,23,V,R,
219,93,9,5,1,53,27,832,['c'],1,left,['2'],5,547,[0.12147268],83,53,easy,minus,dotcolour,beta,,,4,23,V,R,
220,94,10,5,1,44,36,715,['c'],1,left,['2'],5,289,[0.06939601],61,44,hard,minus,dotcolour,beta,,,4,23,V,R,
221,95,11,5,1,33,47,1200,['n'],1,right,['2'],5,887,[-0.13080444],81,47,medium,minus,dotcolour,beta,,,4,23,V,R,
222,96,12,5,1,53,27,583,['c'],1,left,['1'],6,309,[0.11506734],87,53,easy,minus,dotcolour,beta,,,4,23,V,R,
223,97,13,5,1,47,33,799,['c'],1,left,['1'],6,241,[0.07550124],68,47,medium,minus,dotcolour,beta,,,4,23,V,R,
224,98,14,5,1,27,53,598,['n'],1,right,['1'],6,289,[-0.1523794],96,53,easy,minus,dotcolour,beta,,,4,23,V,R,
225,99,15,5,1,53,27,916,['c'],1,left,['1'],6,346,[0.11931476],88,53,easy,minus,dotcolour,beta,,,4,23,V,R,
226,100,16,5,1,44,36,2917,['c'],1,left,['3'],4,689,[0.07380829],60,44,hard,minus,dotcolour,beta,,,4,23,V,R,
227,101,17,5,1,47,33,1031,['n'],0,left,['0'],1,1757,[0.29490799],1,47,medium,minus,dotcolour,beta,,,4,23,V,R,
228,102,18,5,1,36,44,1015,['c'],0,right,['3'],4,1086,[-0.0167941],22,44,hard,minus,dotcolour,beta,,,4,23,V,R,
229,103,19,5,1,33,47,1748,['c'],0,right,['3'],4,422,[0.05366167],49,47,medium,minus,dotcolour,beta,,,4,23,V,R,
230,104,20,5,1,27,53,748,['n'],1,right,['3'],4,503,[-0.0997549],75,53,easy,minus,dotcolour,beta,,,4,23,V,R,
231,105,21,5,1,44,36,1165,['n'],0,left,['0'],1,686,[0.02123638],16,44,hard,minus,dotcolour,beta,,,4,23,V,R,
232,106,22,5,1,27,53,933,['n'],1,right,['2'],5,671,[-0.17474522],93,53,easy,minus,dotcolour,beta,,,4,23,V,R,
233,107,23,5,1,36,44,749,['n'],1,right,['2'],5,295,[-0.1672283],98,44,hard,minus,dotcolour,beta,,,4,23,V,R,
234,108,24,5,1,47,33,631,['n'],0,left,['2'],5,339,[-0.02061608],25,47,medium,minus,dotcolour,beta,,,4,23,V,R,
235,109,25,5,1,44,36,1266,['n'],0,left,['9'],2,795,[0.03233375],15,44,hard,minus,dotcolour,beta,,,4,23,V,R,
236,110,26,5,1,47,33,2384,['c'],1,left,['3'],4,1309,[0.09576678],65,47,medium,minus,dotcolour,beta,,,4,23,V,R,
237,111,27,5,1,27,53,831,['n'],1,right,['1'],6,809,[-0.18265574],93,53,easy,minus,dotcolour,beta,,,4,23,V,R,
238,112,28,5,1,33,47,584,['n'],1,right,['1'],6,258,[-0.03483271],32,47,medium,minus,dotcolour,beta,,,4,23,V,R,
239,113,29,5,1,36,44,583,['n'],1,right,['1'],6,386,[-0.1182694],86,44,hard,minus,dotcolour,beta,,,4,23,V,R,
240,114,30,5,1,53,27,899,['c'],1,left,['2'],5,455,[0.15892659],94,53,easy,minus,dotcolour,beta,,,4,23,V,R,
241,115,31,5,1,33,47,648,['n'],1,right,['1'],6,259,[-0.07821561],69,47,medium,minus,dotcolour,beta,,,4,23,V,R,
242,116,32,5,1,53,27,748,['c'],1,left,['3'],4,316,[-0.00560093],12,53,easy,minus,dotcolour,beta,,,4,23,V,R,
243,117,33,5,1,47,33,498,['n'],0,left,['2'],5,325,[-0.18706199],98,47,medium,minus,dotcolour,beta,,,4,23,V,R,
244,118,34,5,1,33,47,647,['n'],1,right,['2'],5,303,[0.02238874],7,47,medium,minus,dotcolour,beta,,,4,23,V,R,
245,119,35,5,1,53,27,683,['n'],0,left,['9'],2,264,[-0.07750363],68,53,easy,minus,dotcolour,beta,,,4,23,V,R,
246,120,36,5,1,44,36,1266,['c'],1,left,['2'],5,276,[0.08041387],70,44,hard,minus,dotcolour,beta,,,4,23,V,R,
247,121,37,5,1,36,44,799,['n'],1,right,['1'],6,282,[-0.0723606],64,44,hard,minus,dotcolour,beta,,,4,23,V,R,
248,122,38,5,1,44,36,731,['c'],1,left,['1'],6,475,[0.10958728],80,44,hard,minus,dotcolour,beta,,,4,23,V,R,
249,123,39,5,1,53,27,1015,['c'],1,left,['1'],6,320,[0.02127484],25,53,easy,minus,dotcolour,beta,,,4,23,V,R,
250,124,40,5,1,27,53,516,['n'],1,right,['1'],6,359,[-0.15020537],94,53,easy,minus,dotcolour,beta,,,4,23,V,R,
251,125,41,5,1,44,36,764,['n'],0,left,['1'],6,243,[-0.0488587],44,44,hard,minus,dotcolour,beta,,,4,23,V,R,
252,0,0,6,2,27,53,850,['n'],1,right,['2'],5,643,[-0.15358968],99,53,easy,plus,dotcolour,beta,,,4,23,V,R,
253,1,1,6,2,44,36,1133,['c'],1,left,"['2', '1']",5,397,[0.0644224],97,44,hard,plus,dotcolour,beta,,,4,23,V,R,
254,2,2,6,2,53,27,848,['n'],0,left,['2'],5,316,[0.06927258],39,53,easy,plus,dotcolour,beta,,,4,23,V,R,
255,3,3,6,2,33,47,748,['c'],0,right,['2'],5,395,[0.10571288],99,47,medium,plus,dotcolour,beta,,,4,23,V,R,
256,4,4,6,2,33,47,633,['n'],1,right,['2'],5,299,[-0.14953784],100,47,medium,plus,dotcolour,beta,,,4,23,V,R,
257,5,5,6,2,44,36,683,['n'],0,left,['2'],5,309,[-0.1160316],100,44,hard,plus,dotcolour,beta,,,4,23,V,R,
258,6,6,6,2,47,33,982,['n'],0,left,['2'],5,386,[0.01379487],77,47,medium,plus,dotcolour,beta,,,4,23,V,R,
259,7,7,6,2,44,36,498,['n'],0,left,['2'],5,352,[-0.07080488],98,44,hard,plus,dotcolour,beta,,,4,23,V,R,
260,8,8,6,2,47,33,383,['n'],0,left,['2'],5,340,[-0.06363349],98,47,medium,plus,dotcolour,beta,,,4,23,V,R,
261,9,9,6,2,47,33,332,['n'],0,left,['2'],5,370,[0.00373432],82,47,medium,plus,dotcolour,beta,,,4,23,V,R,
262,10,10,6,2,53,27,331,['n'],0,left,['2'],5,375,[0.03667295],64,53,easy,plus,dotcolour,beta,,,4,23,V,R,
263,11,11,6,2,33,47,715,['n'],1,right,['2'],5,508,[-0.15553546],100,47,medium,plus,dotcolour,beta,,,4,23,V,R,
264,12,12,6,2,33,47,617,['n'],1,right,['2'],5,192,[-0.08407248],100,47,medium,plus,dotcolour,beta,,,4,23,V,R,
265,13,13,6,2,53,27,630,['c'],1,left,['2'],5,320,[0.14824868],100,53,easy,plus,dotcolour,beta,,,4,23,V,R,
266,14,14,6,2,36,44,666,['n'],1,right,['1'],6,257,[-0.17983417],100,44,hard,plus,dotcolour,beta,,,4,23,V,R,
267,15,15,6,2,47,33,581,['c'],1,left,['1'],6,401,[0.08968535],98,47,medium,plus,dotcolour,beta,,,4,23,V,R,
268,16,16,6,2,53,27,816,['c'],1,left,['2'],5,417,[0.08705518],98,53,easy,plus,dotcolour,beta,,,4,23,V,R,
269,17,17,6,2,47,33,798,['n'],0,left,['1'],6,450,[0.00914756],78,47,medium,plus,dotcolour,beta,,,4,23,V,R,
270,18,18,6,2,53,27,581,['c'],1,left,['1'],6,274,[0.09792391],99,53,easy,plus,dotcolour,beta,,,4,23,V,R,
271,19,19,6,2,36,44,565,['n'],1,right,['1'],6,281,[-0.10524434],100,44,hard,plus,dotcolour,beta,,,4,23,V,R,
272,20,20,6,2,33,47,932,['n'],1,right,['1'],6,282,[-0.13243789],100,47,medium,plus,dotcolour,beta,,,4,23,V,R,
273,21,21,6,2,27,53,748,['n'],1,right,['1'],6,162,[-0.12453781],100,53,easy,plus,dotcolour,beta,,,4,23,V,R,
274,22,22,6,2,33,47,449,['n'],1,right,['1'],6,242,[-0.15517703],100,47,medium,plus,dotcolour,beta,,,4,23,V,R,
275,23,23,6,2,47,33,817,['c'],1,left,['1'],6,233,[0.00808991],91,47,medium,plus,dotcolour,beta,,,4,23,V,R,
276,24,24,6,2,27,53,583,['n'],1,right,['1'],6,314,[-0.19621498],100,53,easy,plus,dotcolour,beta,,,4,23,V,R,
277,25,25,6,2,44,36,797,['n'],0,left,['1'],6,230,[-0.02011717],94,44,hard,plus,dotcolour,beta,,,4,23,V,R,
278,26,26,6,2,53,27,699,['c'],1,left,['1'],6,251,[0.07987644],99,53,easy,plus,dotcolour,beta,,,4,23,V,R,
279,27,27,6,2,27,53,598,['n'],1,right,['1'],6,378,[-0.13973399],100,53,easy,plus,dotcolour,beta,,,4,23,V,R,
280,28,28,6,2,33,47,1348,['n'],1,right,['1'],6,182,[-0.12614473],100,47,medium,plus,dotcolour,beta,,,4,23,V,R,
281,29,29,6,2,44,36,1231,['c'],1,left,['2'],5,855,[0.13809497],98,44,hard,plus,dotcolour,beta,,,4,23,V,R,
282,30,30,6,2,36,44,549,['n'],1,right,['1'],6,319,[-0.12637176],100,44,hard,plus,dotcolour,beta,,,4,23,V,R,
283,31,31,6,2,36,44,1966,['n'],1,right,['3'],4,1245,[-0.13263184],95,44,hard,plus,dotcolour,beta,,,4,23,V,R,
284,32,32,6,2,27,53,549,['n'],1,right,['1'],6,359,[-0.05404056],96,53,easy,plus,dotcolour,beta,,,4,23,V,R,
285,33,33,6,2,44,36,949,['c'],1,left,['1'],6,283,[0.06697831],98,44,hard,plus,dotcolour,beta,,,4,23,V,R,
286,34,34,6,2,36,44,532,['n'],1,right,['1'],6,434,[-0.13786688],99,44,hard,plus,dotcolour,beta,,,4,23,V,R,
287,35,35,6,2,36,44,615,['n'],1,right,['1'],6,306,[-0.07673208],99,44,hard,plus,dotcolour,beta,,,4,23,V,R,
288,36,36,6,2,27,53,649,['n'],1,right,['1'],6,276,[-0.14265383],100,53,easy,plus,dotcolour,beta,,,4,23,V,R,
289,37,37,6,2,47,33,815,['c'],1,left,['1'],6,274,[0.04887041],97,47,medium,plus,dotcolour,beta,,,4,23,V,R,
290,38,38,6,2,44,36,501,['n'],0,left,['1'],6,292,[-0.07466222],99,44,hard,plus,dotcolour,beta,,,4,23,V,R,
291,39,39,6,2,53,27,833,['c'],1,left,['1'],6,264,[0.13354558],100,53,easy,plus,dotcolour,beta,,,4,23,V,R,
292,40,40,6,2,27,53,699,['n'],1,right,['1'],6,242,[-0.11784387],100,53,easy,plus,dotcolour,beta,,,4,23,V,R,
293,41,41,6,2,36,44,631,['n'],1,right,['1'],6,233,[-0.09080653],100,44,hard,plus,dotcolour,beta,,,4,23,V,R,
294,42,0,7,2,36,44,1533,['n'],1,right,['2'],5,208,[-0.07983999],100,44,hard,plus,dotcolour,beta,,,4,23,V,R,
295,43,1,7,2,33,47,465,['n'],1,right,['1'],6,278,[-0.07939367],99,47,medium,plus,dotcolour,beta,,,4,23,V,R,
296,44,2,7,2,53,27,681,['n'],0,left,['8'],3,1904,[0.22374857],10,53,easy,plus,dotcolour,beta,,,4,23,V,R,
297,45,3,7,2,33,47,615,['n'],1,right,['1'],6,237,[-0.10359221],100,47,medium,plus,dotcolour,beta,,,4,23,V,R,
298,46,4,7,2,27,53,533,['n'],1,right,['1'],6,199,[-0.0712361],99,53,easy,plus,dotcolour,beta,,,4,23,V,R,
299,47,5,7,2,47,33,399,['c'],1,left,['2'],5,784,[0.19862565],99,47,medium,plus,dotcolour,beta,,,4,23,V,R,
300,48,6,7,2,47,33,764,['c'],1,left,['1'],6,323,[-0.01203069],80,47,medium,plus,dotcolour,beta,,,4,23,V,R,
301,49,7,7,2,27,53,499,['n'],1,right,['1'],6,299,[-0.10931298],100,53,easy,plus,dotcolour,beta,,,4,23,V,R,
302,50,8,7,2,53,27,1116,['c'],1,left,['1'],6,396,[0.12611385],99,53,easy,plus,dotcolour,beta,,,4,23,V,R,
303,51,9,7,2,36,44,1046,['n'],1,right,['1'],6,195,[-0.05319265],99,44,hard,plus,dotcolour,beta,,,4,23,V,R,
304,52,10,7,2,53,27,664,['c'],1,left,['1'],6,194,[0.12267539],100,53,easy,plus,dotcolour,beta,,,4,23,V,R,
305,53,11,7,2,36,44,598,['n'],1,right,['1'],6,267,[-0.0005097],88,44,hard,plus,dotcolour,beta,,,4,23,V,R,
306,54,12,7,2,44,36,617,['n'],0,left,['1'],6,273,[-0.07384297],99,44,hard,plus,dotcolour,beta,,,4,23,V,R,
307,55,13,7,2,44,36,1765,['c'],1,left,['1'],6,256,[0.10079102],100,44,hard,plus,dotcolour,beta,,,4,23,V,R,
308,56,14,7,2,53,27,900,['c'],1,left,['1'],6,276,[0.11610668],100,53,easy,plus,dotcolour,beta,,,4,23,V,R,
309,57,15,7,2,53,27,517,['c'],1,left,['2'],5,405,[-0.01261918],77,53,easy,plus,dotcolour,beta,,,4,23,V,R,
310,58,16,7,2,36,44,565,['c'],0,right,['1'],6,240,[0.03218375],96,44,hard,plus,dotcolour,beta,,,4,23,V,R,
311,59,17,7,2,36,44,583,['n'],1,right,['1'],6,232,[-0.16410133],100,44,hard,plus,dotcolour,beta,,,4,23,V,R,
312,60,18,7,2,27,53,1614,['c'],0,right,['1'],6,206,[0.01281152],94,53,easy,plus,dotcolour,beta,,,4,23,V,R,
313,61,19,7,2,33,47,581,['n'],1,right,['1'],6,193,[-0.10504215],100,47,medium,plus,dotcolour,beta,,,4,23,V,R,
314,62,20,7,2,47,33,2098,['c'],1,left,['1'],6,351,[0.1047473],99,47,medium,plus,dotcolour,beta,,,4,23,V,R,
315,63,21,7,2,53,27,932,['c'],1,left,['1'],6,213,[0.04771935],98,53,easy,plus,dotcolour,beta,,,4,23,V,R,
316,64,22,7,2,44,36,1033,['c'],1,left,['1'],6,275,[-0.00178996],86,44,hard,plus,dotcolour,beta,,,4,23,V,R,
317,65,23,7,2,53,27,680,['n'],0,left,['2'],5,366,[-0.02482415],92,53,easy,plus,dotcolour,beta,,,4,23,V,R,
318,66,24,7,2,27,53,616,['c'],0,right,['8'],3,1360,[0.03375069],80,53,easy,plus,dotcolour,beta,,,4,23,V,R,
319,67,25,7,2,44,36,848,['n'],0,left,['1'],6,320,[-0.02487659],93,44,hard,plus,dotcolour,beta,,,4,23,V,R,
320,68,26,7,2,47,33,1332,['c'],1,left,['3'],4,735,[0.1983463],100,47,medium,plus,dotcolour,beta,,,4,23,V,R,
321,69,27,7,2,33,47,632,['n'],1,right,['1'],6,282,[-0.07099827],99,47,medium,plus,dotcolour,beta,,,4,23,V,R,
322,70,28,7,2,44,36,765,['c'],1,left,['2'],5,305,[0.06211708],98,44,hard,plus,dotcolour,beta,,,4,23,V,R,
323,71,29,7,2,36,44,350,['n'],1,right,['3'],4,560,[-0.16881863],100,44,hard,plus,dotcolour,beta,,,4,23,V,R,
324,72,30,7,2,47,33,1364,['c'],1,left,['3'],4,244,[0.02244611],94,47,medium,plus,dotcolour,beta,,,4,23,V,R,
325,73,31,7,2,33,47,549,['n'],1,right,['1'],6,270,[-0.12805225],100,47,medium,plus,dotcolour,beta,,,4,23,V,R,
326,74,32,7,2,33,47,648,['n'],1,right,['1'],6,250,[-0.10791559],100,47,medium,plus,dotcolour,beta,,,4,23,V,R,
327,75,33,7,2,47,33,632,['n'],0,left,['1'],6,304,[-0.06252406],98,47,medium,plus,dotcolour,beta,,,4,23,V,R,
328,76,34,7,2,44,36,448,['n'],0,left,['3'],4,1405,[-0.07286814],88,44,hard,plus,dotcolour,beta,,,4,23,V,R,
329,77,35,7,2,47,33,1566,['n'],0,left,['2'],5,254,[-0.04298902],97,47,medium,plus,dotcolour,beta,,,4,23,V,R,
330,78,36,7,2,27,53,733,['n'],1,right,['2'],5,1896,[-0.62376149],100,53,easy,plus,dotcolour,beta,,,4,23,V,R,
331,79,37,7,2,36,44,1698,['n'],1,right,['1'],6,657,[-0.1362434],99,44,hard,plus,dotcolour,beta,,,4,23,V,R,
332,80,38,7,2,27,53,765,['n'],1,right,['1'],6,504,[-0.04522215],93,53,easy,plus,dotcolour,beta,,,4,23,V,R,
333,81,39,7,2,33,47,850,['n'],1,right,['1'],6,283,[-0.07475407],99,47,medium,plus,dotcolour,beta,,,4,23,V,R,
334,82,40,7,2,44,36,815,['n'],0,left,['1'],6,224,[-0.1073264],100,44,hard,plus,dotcolour,beta,,,4,23,V,R,
335,83,41,7,2,27,53,598,['n'],1,right,['1'],6,256,[-0.11396428],100,53,easy,plus,dotcolour,beta,,,4,23,V,R,
336,84,0,8,2,53,27,3266,['c'],1,left,['1'],6,1400,[0.03044054],79,53,easy,plus,dotcolour,beta,,,4,23,V,R,
337,85,1,8,2,44,36,599,['n'],0,left,['1'],6,257,[-0.06375029],99,44,hard,plus,dotcolour,beta,,,4,23,V,R,
338,86,2,8,2,36,44,598,['n'],1,right,['1'],6,199,[-0.08780014],100,44,hard,plus,dotcolour,beta,,,4,23,V,R,
339,87,3,8,2,53,27,965,['c'],1,left,['2'],5,378,[0.01567916],89,53,easy,plus,dotcolour,beta,,,4,23,V,R,
340,88,4,8,2,33,47,600,['n'],1,right,['1'],6,220,[-0.21082141],100,47,medium,plus,dotcolour,beta,,,4,23,V,R,
341,89,5,8,2,47,33,748,['c'],1,left,['2'],5,311,[0.02484565],93,47,medium,plus,dotcolour,beta,,,4,23,V,R,
342,90,6,8,2,33,47,515,['n'],1,right,['1'],6,247,[-0.17648184],100,47,medium,plus,dotcolour,beta,,,4,23,V,R,
343,91,7,8,2,36,44,915,['c'],0,right,['8'],3,1162,[0.04403827],84,44,hard,plus,dotcolour,beta,,,4,23,V,R,
344,92,8,8,2,47,33,782,['c'],1,left,['3'],4,396,[0.13773073],100,47,medium,plus,dotcolour,beta,,,4,23,V,R,
345,93,9,8,2,47,33,1249,['c'],1,left,['2'],5,436,[-0.01600029],75,47,medium,plus,dotcolour,beta,,,4,23,V,R,
346,94,10,8,2,53,27,615,['n'],0,left,['3'],4,436,[-0.17056015],100,53,easy,plus,dotcolour,beta,,,4,23,V,R,
347,95,11,8,2,27,53,715,['n'],1,right,['2'],5,303,[-0.13509813],100,53,easy,plus,dotcolour,beta,,,4,23,V,R,
348,96,12,8,2,44,36,748,['c'],1,left,['3'],4,557,[0.01238937],84,44,hard,plus,dotcolour,beta,,,4,23,V,R,
349,97,13,8,2,33,47,716,['n'],1,right,['2'],5,236,[-0.07746572],99,47,medium,plus,dotcolour,beta,,,4,23,V,R,
350,98,14,8,2,53,27,799,['c'],1,left,['2'],5,203,[0.12846782],100,53,easy,plus,dotcolour,beta,,,4,23,V,R,
351,99,15,8,2,47,33,665,['c'],1,left,['2'],5,217,[0.16736834],100,47,medium,plus,dotcolour,beta,,,4,23,V,R,
352,100,16,8,2,33,47,899,['n'],1,right,['2'],5,166,[-0.12829366],100,47,medium,plus,dotcolour,beta,,,4,23,V,R,
353,101,17,8,2,27,53,515,['n'],1,right,['2'],5,228,[-0.09221243],100,53,easy,plus,dotcolour,beta,,,4,23,V,R,
354,102,18,8,2,36,44,632,['n'],1,right,['2'],5,139,[-0.10128631],100,44,hard,plus,dotcolour,beta,,,4,23,V,R,
355,103,19,8,2,36,44,832,['n'],1,right,['1'],6,197,[-0.04384293],98,44,hard,plus,dotcolour,beta,,,4,23,V,R,
356,104,20,8,2,47,33,780,['c'],1,left,['2'],5,248,[0.14852481],100,47,medium,plus,dotcolour,beta,,,4,23,V,R,
357,105,21,8,2,33,47,632,['n'],1,right,['1'],6,405,[-0.15721797],100,47,medium,plus,dotcolour,beta,,,4,23,V,R,
358,106,22,8,2,33,47,784,['n'],1,right,['1'],6,183,[-0.06152806],99,47,medium,plus,dotcolour,beta,,,4,23,V,R,
359,107,23,8,2,44,36,848,['c'],1,left,['2'],5,231,[0.11873711],100,44,hard,plus,dotcolour,beta,,,4,23,V,R,
360,108,24,8,2,27,53,530,['n'],1,right,['1'],6,217,[-0.11096961],100,53,easy,plus,dotcolour,beta,,,4,23,V,R,
361,109,25,8,2,33,47,631,['n'],1,right,['1'],6,209,[-0.07908359],100,47,medium,plus,dotcolour,beta,,,4,23,V,R,
362,110,26,8,2,27,53,450,['c'],0,right,['8'],3,1280,[-0.29188734],2,53,easy,plus,dotcolour,beta,,,4,23,V,R,
363,111,27,8,2,44,36,564,['n'],0,left,['3'],4,814,[0.05929153],48,44,hard,plus,dotcolour,beta,,,4,23,V,R,
364,112,28,8,2,36,44,798,['c'],0,right,['8'],3,895,[-0.11854406],23,44,hard,plus,dotcolour,beta,,,4,23,V,R,
365,113,29,8,2,53,27,831,['c'],1,left,['3'],4,315,[0.06028864],98,53,easy,plus,dotcolour,beta,,,4,23,V,R,
366,114,30,8,2,47,33,1150,['c'],1,left,['3'],4,249,[0.13287512],100,47,medium,plus,dotcolour,beta,,,4,23,V,R,
367,115,31,8,2,47,33,815,['c'],1,left,['1'],6,280,[0.15049449],100,47,medium,plus,dotcolour,beta,,,4,23,V,R,
368,116,32,8,2,36,44,631,['n'],1,right,['0'],1,389,[-0.25574579],100,44,hard,plus,dotcolour,beta,,,4,23,V,R,
369,117,33,8,2,27,53,798,['n'],1,right,['1'],6,183,[-0.09839042],100,53,easy,plus,dotcolour,beta,,,4,23,V,R,
370,118,34,8,2,27,53,549,['n'],1,right,['1'],6,258,[-0.00810241],91,53,easy,plus,dotcolour,beta,,,4,23,V,R,
371,119,35,8,2,27,53,447,['n'],1,right,['1'],6,615,[-0.18818534],100,53,easy,plus,dotcolour,beta,,,4,23,V,R,
372,120,36,8,2,44,36,865,['c'],1,left,['2'],5,285,[0.12239765],100,44,hard,plus,dotcolour,beta,,,4,23,V,R,
373,121,37,8,2,53,27,816,['c'],1,left,['2'],5,274,[0.15896806],100,53,easy,plus,dotcolour,beta,,,4,23,V,R,
374,122,38,8,2,53,27,650,['c'],1,left,['3'],4,342,[0.12702913],100,53,easy,plus,dotcolour,beta,,,4,23,V,R,
375,123,39,8,2,44,36,599,['c'],1,left,['3'],4,249,[0.12745064],100,44,hard,plus,dotcolour,beta,,,4,23,V,R,
376,124,40,8,2,36,44,566,['c'],0,right,['3'],4,266,[-0.00876937],84,44,hard,plus,dotcolour,beta,,,4,23,V,R,
377,125,41,8,2,44,36,682,['c'],1,left,['3'],4,277,[0.04373431],97,44,hard,plus,dotcolour,beta,,,4,23,V,R,
378,0,0,9,3,47,33,2533,['c'],1,left,['2'],5,507,[0.09659899],74,47,medium,minus,dotcolour,beta,,,4,23,V,R,
379,1,1,9,3,33,47,632,['n'],1,right,['1'],6,279,[-0.04897528],44,47,medium,minus,dotcolour,beta,,,4,23,V,R,
380,2,2,9,3,33,47,632,['n'],1,right,['1'],6,308,[0.03205582],6,47,medium,minus,dotcolour,beta,,,4,23,V,R,
381,3,3,9,3,33,47,748,['n'],1,right,['1'],6,258,[-0.09430785],80,47,medium,minus,dotcolour,beta,,,4,23,V,R,
382,4,4,9,3,47,33,1199,['c'],1,left,['2'],5,313,[0.06905126],61,47,medium,minus,dotcolour,beta,,,4,23,V,R,
383,5,5,9,3,47,33,1148,['c'],1,left,['1'],6,287,[0.09545139],79,47,medium,minus,dotcolour,beta,,,4,23,V,R,
384,6,6,9,3,44,36,582,['n'],0,left,['1'],6,470,[-0.14409869],91,44,hard,minus,dotcolour,beta,,,4,23,V,R,
385,7,7,9,3,44,36,832,['c'],1,left,['1'],6,267,[0.04920119],44,44,hard,minus,dotcolour,beta,,,4,23,V,R,
386,8,8,9,3,36,44,682,['n'],1,right,['1'],6,182,[-0.05521687],50,44,hard,minus,dotcolour,beta,,,4,23,V,R,
387,9,9,9,3,47,33,815,['n'],0,left,['1'],6,167,[-0.00750388],11,47,medium,minus,dotcolour,beta,,,4,23,V,R,
388,10,10,9,3,36,44,448,['n'],1,right,['1'],6,296,[-0.1022508],82,44,hard,minus,dotcolour,beta,,,4,23,V,R,
389,11,11,9,3,53,27,814,['n'],0,left,['1'],6,237,[0.10749224],0,53,easy,minus,dotcolour,beta,,,4,23,V,R,
390,12,12,9,3,27,53,750,['n'],1,right,['1'],6,222,[-0.11407676],90,53,easy,minus,dotcolour,beta,,,4,23,V,R,
391,13,13,9,3,36,44,1181,['c'],0,right,['1'],6,312,[-0.01819644],8,44,hard,minus,dotcolour,beta,,,4,23,V,R,
392,14,14,9,3,33,47,515,['n'],1,right,['1'],6,208,[-0.13464778],96,47,medium,minus,dotcolour,beta,,,4,23,V,R,
393,15,15,9,3,44,36,715,['c'],1,left,['1'],6,252,[0.18258857],99,44,hard,minus,dotcolour,beta,,,4,23,V,R,
394,16,16,9,3,33,47,549,['n'],1,right,['1'],6,237,[-0.06493187],59,47,medium,minus,dotcolour,beta,,,4,23,V,R,
395,17,17,9,3,27,53,515,['n'],1,right,['1'],6,233,[-0.02364392],23,53,easy,minus,dotcolour,beta,,,4,23,V,R,
396,18,18,9,3,53,27,867,['c'],1,left,['2'],5,262,[0.18484097],99,53,easy,minus,dotcolour,beta,,,4,23,V,R,
397,19,19,9,3,47,33,633,['c'],1,left,['2'],5,307,[0.13661116],93,47,medium,minus,dotcolour,beta,,,4,23,V,R,
398,20,20,9,3,53,27,580,['n'],0,left,['9'],2,816,[-0.00509713],27,53,easy,minus,dotcolour,beta,,,4,23,V,R,
399,21,21,9,3,36,44,748,['c'],0,right,['2'],5,307,[-0.01347338],10,44,hard,minus,dotcolour,beta,,,4,23,V,R,
400,22,22,9,3,27,53,716,['c'],0,right,['0'],1,1979,[-0.3770475],0,53,easy,minus,dotcolour,beta,,,4,23,V,R,
401,23,23,9,3,44,36,2432,['c'],1,left,['3'],4,563,[0.1245575],84,44,hard,minus,dotcolour,beta,,,4,23,V,R,
402,24,24,9,3,44,36,816,['c'],1,left,['2'],5,253,[0.03121875],30,44,hard,minus,dotcolour,beta,,,4,23,V,R,
403,25,25,9,3,53,27,682,['c'],1,left,['2'],5,249,[0.02983522],28,53,easy,minus,dotcolour,beta,,,4,23,V,R,
404,26,26,9,3,36,44,613,['n'],1,right,['2'],5,351,[-0.09819071],79,44,hard,minus,dotcolour,beta,,,4,23,V,R,
405,27,27,9,3,27,53,681,['n'],1,right,['2'],5,264,[0.00036385],12,53,easy,minus,dotcolour,beta,,,4,23,V,R,
406,28,28,9,3,47,33,982,['c'],1,left,['2'],5,263,[0.12084527],91,47,medium,minus,dotcolour,beta,,,4,23,V,R,
407,29,29,9,3,27,53,715,['n'],1,right,['2'],5,288,[-0.15251215],96,53,easy,minus,dotcolour,beta,,,4,23,V,R,
408,30,30,9,3,44,36,982,['c'],1,left,['8'],3,647,[0.18202187],94,44,hard,minus,dotcolour,beta,,,4,23,V,R,
409,31,31,9,3,27,53,715,['n'],1,right,['2'],5,353,[-0.1634329],96,53,easy,minus,dotcolour,beta,,,4,23,V,R,
410,32,32,9,3,53,27,850,['c'],1,left,['3'],4,290,[0.0903664],76,53,easy,minus,dotcolour,beta,,,4,23,V,R,
411,33,33,9,3,53,27,615,['n'],0,left,['1'],6,334,[-0.00859532],19,53,easy,minus,dotcolour,beta,,,4,23,V,R,
412,34,34,9,3,33,47,664,['c'],0,right,['8'],3,264,[0.07350654],65,47,medium,minus,dotcolour,beta,,,4,23,V,R,
413,35,35,9,3,27,53,633,['c'],0,right,['0'],1,1285,[-0.09244553],9,53,easy,minus,dotcolour,beta,,,4,23,V,R,
414,36,36,9,3,33,47,982,['n'],1,right,['1'],6,787,[-0.04964951],47,47,medium,minus,dotcolour,beta,,,4,23,V,R,
415,37,37,9,3,44,36,797,['n'],0,left,['1'],6,252,[-0.03066192],29,44,hard,minus,dotcolour,beta,,,4,23,V,R,
416,38,38,9,3,36,44,765,['c'],0,right,['9'],2,469,[0.00642447],22,44,hard,minus,dotcolour,beta,,,4,23,V,R,
417,39,39,9,3,53,27,681,['n'],0,left,['9'],2,2120,[0.34692723],1,53,easy,minus,dotcolour,beta,,,4,23,V,R,
418,40,40,9,3,36,44,867,['n'],1,right,['1'],6,354,[-0.19358517],98,44,hard,minus,dotcolour,beta,,,4,23,V,R,
419,41,41,9,3,47,33,699,['c'],1,left,['1'],6,409,[0.19743077],98,47,medium,minus,dotcolour,beta,,,4,23,V,R,
420,42,0,10,3,53,27,733,['c'],1,left,['2'],5,431,[0.027978],32,53,easy,minus,dotcolour,beta,,,4,23,V,R,
421,43,1,10,3,33,47,650,['n'],1,right,['1'],6,213,[-0.09991886],85,47,medium,minus,dotcolour,beta,,,4,23,V,R,
422,44,2,10,3,27,53,599,['n'],1,right,['1'],6,262,[-0.1430811],96,53,easy,minus,dotcolour,beta,,,4,23,V,R,
423,45,3,10,3,27,53,534,['n'],1,right,['1'],6,215,[-0.06988222],64,53,easy,minus,dotcolour,beta,,,4,23,V,R,
424,46,4,10,3,53,27,765,['c'],1,left,['9'],2,321,[0.05207273],47,53,easy,minus,dotcolour,beta,,,4,23,V,R,
425,47,5,10,3,53,27,565,['c'],1,left,['3'],4,903,[0.23640428],97,53,easy,minus,dotcolour,beta,,,4,23,V,R,
426,48,6,10,3,47,33,1417,['c'],1,left,['8'],3,226,[0.10447315],86,47,medium,minus,dotcolour,beta,,,4,23,V,R,
427,49,7,10,3,44,36,516,['c'],1,left,['3'],4,230,[0.03953859],35,44,hard,minus,dotcolour,beta,,,4,23,V,R,
428,50,8,10,3,47,33,1064,['c'],1,left,['1'],6,275,[0.07301646],65,47,medium,minus,dotcolour,beta,,,4,23,V,R,
429,51,9,10,3,33,47,682,['n'],1,right,['1'],6,206,[-0.18360951],99,47,medium,minus,dotcolour,beta,,,4,23,V,R,
430,52,10,10,3,33,47,517,['n'],1,right,['1'],6,202,[-0.05857169],53,47,medium,minus,dotcolour,beta,,,4,23,V,R,
431,53,11,10,3,47,33,1932,['n'],0,left,['8'],3,1166,[-0.0658818],54,47,medium,minus,dotcolour,beta,,,4,23,V,R,
432,54,12,10,3,53,27,1015,['n'],0,left,['3'],4,640,[0.07004608],6,53,easy,minus,dotcolour,beta,,,4,23,V,R,
433,55,13,10,3,47,33,1466,['c'],1,left,['1'],6,541,[0.04200043],42,47,medium,minus,dotcolour,beta,,,4,23,V,R,
434,56,14,10,3,44,36,1032,['c'],1,left,['1'],6,279,[0.07199694],64,44,hard,minus,dotcolour,beta,,,4,23,V,R,
435,57,15,10,3,36,44,529,['n'],1,right,['1'],6,279,[-0.04778575],43,44,hard,minus,dotcolour,beta,,,4,23,V,R,
436,58,16,10,3,33,47,715,['n'],1,right,['1'],6,249,[-0.03892179],35,47,medium,minus,dotcolour,beta,,,4,23,V,R,
437,59,17,10,3,36,44,634,['c'],0,right,['2'],5,263,[-0.10746441],0,44,hard,minus,dotcolour,beta,,,4,23,V,R,
438,60,18,10,3,33,47,1033,['n'],1,right,['1'],6,252,[-0.1161313],90,47,medium,minus,dotcolour,beta,,,4,23,V,R,
439,61,19,10,3,47,33,834,['c'],1,left,['3'],4,306,[0.00965645],18,47,medium,minus,dotcolour,beta,,,4,23,V,R,
440,62,20,10,3,27,53,550,['n'],1,right,['1'],6,305,[-0.26766705],100,53,easy,minus,dotcolour,beta,,,4,23,V,R,
441,63,21,10,3,44,36,616,['n'],0,left,['2'],5,470,[-0.18271478],97,44,hard,minus,dotcolour,beta,,,4,23,V,R,
442,64,22,10,3,33,47,450,['n'],1,right,['1'],6,338,[-0.17386848],97,47,medium,minus,dotcolour,beta,,,4,23,V,R,
443,65,23,10,3,27,53,483,['n'],1,right,['1'],6,386,[-0.07242214],62,53,easy,minus,dotcolour,beta,,,4,23,V,R,
444,66,24,10,3,53,27,367,['n'],0,left,['3'],4,805,[0.02539083],16,53,easy,minus,dotcolour,beta,,,4,23,V,R,
445,67,25,10,3,36,44,500,['n'],1,right,['1'],6,354,[-0.05952167],53,44,hard,minus,dotcolour,beta,,,4,23,V,R,
446,68,26,10,3,44,36,1250,['c'],1,left,['3'],4,323,[0.13967186],93,44,hard,minus,dotcolour,beta,,,4,23,V,R,
447,69,27,10,3,44,36,633,['c'],1,left,['3'],4,310,[0.06446992],57,44,hard,minus,dotcolour,beta,,,4,23,V,R,
448,70,28,10,3,53,27,551,['c'],1,left,['1'],6,292,[0.12928508],92,53,easy,minus,dotcolour,beta,,,4,23,V,R,
449,71,29,10,3,27,53,566,['n'],1,right,['1'],6,363,[-0.09388268],76,53,easy,minus,dotcolour,beta,,,4,23,V,R,
450,72,30,10,3,36,44,616,['n'],1,right,['1'],6,213,[-0.0833905],75,44,hard,minus,dotcolour,beta,,,4,23,V,R,
451,73,31,10,3,27,53,551,['n'],1,right,['1'],6,192,[-0.13840923],97,53,easy,minus,dotcolour,beta,,,4,23,V,R,
452,74,32,10,3,36,44,633,['n'],1,right,['1'],6,208,[-0.07342879],67,44,hard,minus,dotcolour,beta,,,4,23,V,R,
453,75,33,10,3,47,33,1084,['c'],1,left,['2'],5,293,[0.19676165],99,47,medium,minus,dotcolour,beta,,,4,23,V,R,
454,76,34,10,3,53,27,933,['c'],1,left,['2'],5,261,[0.14625301],96,53,easy,minus,dotcolour,beta,,,4,23,V,R,
455,77,35,10,3,36,44,650,['n'],1,right,['1'],6,242,[-0.02553229],25,44,hard,minus,dotcolour,beta,,,4,23,V,R,
456,78,36,10,3,44,36,966,['n'],0,left,['2'],5,234,[-0.09477384],81,44,hard,minus,dotcolour,beta,,,4,23,V,R,
457,79,37,10,3,47,33,816,['n'],0,left,['2'],5,434,[-0.06192558],54,47,medium,minus,dotcolour,beta,,,4,23,V,R,
458,80,38,10,3,33,47,1550,['c'],0,right,['3'],4,860,[0.03143591],39,47,medium,minus,dotcolour,beta,,,4,23,V,R,
459,81,39,10,3,27,53,733,['n'],1,right,['2'],5,389,[-0.10523799],81,53,easy,minus,dotcolour,beta,,,4,23,V,R,
460,82,40,10,3,44,36,900,['c'],1,left,['8'],3,499,[-0.01057517],16,44,hard,minus,dotcolour,beta,,,4,23,V,R,
461,83,41,10,3,36,44,783,['n'],1,right,['2'],5,249,[-0.1450295],96,44,hard,minus,dotcolour,beta,,,4,23,V,R,
462,84,0,11,3,27,53,1000,['n'],1,right,['9'],2,750,[-0.29101248],99,53,easy,minus,dotcolour,beta,,,4,23,V,R,
463,85,1,11,3,36,44,1450,['c'],0,right,['1'],6,359,[0.0665098],58,44,hard,minus,dotcolour,beta,,,4,23,V,R,
464,86,2,11,3,44,36,617,['n'],0,left,['1'],6,321,[0.00289133],14,44,hard,minus,dotcolour,beta,,,4,23,V,R,
465,87,3,11,3,47,33,1300,['c'],1,left,['2'],5,250,[0.03611925],33,47,medium,minus,dotcolour,beta,,,4,23,V,R,
466,88,4,11,3,33,47,650,['n'],1,right,['1'],6,335,[-0.09236628],76,47,medium,minus,dotcolour,beta,,,4,23,V,R,
467,89,5,11,3,47,33,617,['c'],1,left,['1'],6,506,[-0.02285029],12,47,medium,minus,dotcolour,beta,,,4,23,V,R,
468,90,6,11,3,53,27,650,['c'],1,left,['2'],5,357,[0.07208853],62,53,easy,minus,dotcolour,beta,,,4,23,V,R,
469,91,7,11,3,44,36,600,['c'],1,left,['1'],6,408,[0.1619823],95,44,hard,minus,dotcolour,beta,,,4,23,V,R,
470,92,8,11,3,27,53,650,['n'],1,right,['1'],6,342,[-0.05662656],51,53,easy,minus,dotcolour,beta,,,4,23,V,R,
471,93,9,11,3,47,33,650,['c'],1,left,['2'],5,272,[0.07935872],69,47,medium,minus,dotcolour,beta,,,4,23,V,R,
472,94,10,11,3,47,33,601,['c'],1,left,['3'],4,294,[0.14269599],95,47,medium,minus,dotcolour,beta,,,4,23,V,R,
473,95,11,11,3,44,36,616,['c'],1,left,['2'],5,331,[0.11427655],86,44,hard,minus,dotcolour,beta,,,4,23,V,R,
474,96,12,11,3,36,44,516,['c'],0,right,['3'],4,282,[0.04447252],41,44,hard,minus,dotcolour,beta,,,4,23,V,R,
475,97,13,11,3,47,33,617,['n'],0,left,['3'],4,2040,[0.13571419],8,47,medium,minus,dotcolour,beta,,,4,23,V,R,
476,98,14,11,3,44,36,1317,['c'],1,left,['2'],5,354,[0.09713489],78,44,hard,minus,dotcolour,beta,,,4,23,V,R,
477,99,15,11,3,33,47,650,['n'],1,right,['2'],5,234,[-0.17172286],99,47,medium,minus,dotcolour,beta,,,4,23,V,R,
478,100,16,11,3,36,44,667,['n'],1,right,['2'],5,232,[-0.04414441],39,44,hard,minus,dotcolour,beta,,,4,23,V,R,
479,101,17,11,3,33,47,1034,['n'],1,right,['2'],5,478,[-0.04973124],46,47,medium,minus,dotcolour,beta,,,4,23,V,R,
480,102,18,11,3,44,36,934,['c'],1,left,['1'],6,311,[0.1414187],94,44,hard,minus,dotcolour,beta,,,4,23,V,R,
481,103,19,11,3,53,27,984,['c'],1,left,['2'],5,316,[0.08312151],71,53,easy,minus,dotcolour,beta,,,4,23,V,R,
482,104,20,11,3,44,36,700,['n'],0,left,['1'],6,325,[-0.07020317],61,44,hard,minus,dotcolour,beta,,,4,23,V,R,
483,105,21,11,3,53,27,1149,['c'],1,left,['3'],4,323,[0.14455276],94,53,easy,minus,dotcolour,beta,,,4,23,V,R,
484,106,22,11,3,27,53,683,['n'],1,right,['1'],6,300,[-0.13118873],92,53,easy,minus,dotcolour,beta,,,4,23,V,R,
485,107,23,11,3,33,47,667,['n'],1,right,['2'],5,294,[-0.07798875],68,47,medium,minus,dotcolour,beta,,,4,23,V,R,
486,108,24,11,3,27,53,867,['n'],1,right,['2'],5,185,[-0.14699592],98,53,easy,minus,dotcolour,beta,,,4,23,V,R,
487,109,25,11,3,27,53,500,['n'],1,right,['1'],6,263,[-0.12069225],91,53,easy,minus,dotcolour,beta,,,4,23,V,R,
488,110,26,11,3,33,47,549,['n'],1,right,['2'],5,248,[-0.10854894],87,47,medium,minus,dotcolour,beta,,,4,23,V,R,
489,111,27,11,3,53,27,849,['c'],1,left,['2'],5,221,[0.12564246],94,53,easy,minus,dotcolour,beta,,,4,23,V,R,
490,112,28,11,3,36,44,500,['n'],1,right,['2'],5,361,[-0.08814647],73,44,hard,minus,dotcolour,beta,,,4,23,V,R,
491,113,29,11,3,44,36,517,['n'],0,left,['2'],5,248,[-0.09221752],79,44,hard,minus,dotcolour,beta,,,4,23,V,R,
492,114,30,11,3,47,33,550,['c'],1,left,['2'],5,281,[0.14198591],95,47,medium,minus,dotcolour,beta,,,4,23,V,R,
493,115,31,11,3,53,27,733,['c'],1,left,['1'],6,393,[0.18652367],98,53,easy,minus,dotcolour,beta,,,4,23,V,R,
494,116,32,11,3,27,53,483,['n'],1,right,['1'],6,239,[-0.04429393],40,53,easy,minus,dotcolour,beta,,,4,23,V,R,
495,117,33,11,3,33,47,784,['c'],0,right,['2'],5,176,[0.07135878],66,47,medium,minus,dotcolour,beta,,,4,23,V,R,
496,118,34,11,3,36,44,600,['n'],1,right,['2'],5,242,[-0.05491177],49,44,hard,minus,dotcolour,beta,,,4,23,V,R,
497,119,35,11,3,53,27,550,['c'],1,left,['2'],5,284,[0.04654878],42,53,easy,minus,dotcolour,beta,,,4,23,V,R,
498,120,36,11,3,27,53,534,['n'],1,right,['1'],6,260,[-0.00907821],16,53,easy,minus,dotcolour,beta,,,4,23,V,R,
499,121,37,11,3,36,44,750,['c'],0,right,['8'],3,725,[-0.06340024],7,44,hard,minus,dotcolour,beta,,,4,23,V,R,
500,122,38,11,3,53,27,667,['n'],0,left,['0'],1,1662,[0.19584909],3,53,easy,minus,dotcolour,beta,,,4,23,V,R,
501,123,39,11,3,36,44,1417,['n'],1,right,['1'],6,300,[-0.04515252],42,44,hard,minus,dotcolour,beta,,,4,23,V,R,
502,124,40,11,3,33,47,716,['n'],1,right,['1'],6,261,[-0.12849814],93,47,medium,minus,dotcolour,beta,,,4,23,V,R,
503,125,41,11,3,47,33,817,['c'],1,left,['2'],5,331,[0.16739913],97,47,medium,minus,dotcolour,beta,,,4,23,V,R,
504,0,0,12,4,47,33,1584,['c'],1,left,['2'],5,368,[0.06574855],97,47,medium,plus,dotcolour,beta,,,4,23,V,R,
505,1,1,12,4,27,53,550,['n'],1,right,['2'],5,293,[-0.1284655],100,53,easy,plus,dotcolour,beta,,,4,23,V,R,
506,2,2,12,4,47,33,1566,['c'],1,left,['3'],4,316,[0.08727687],99,47,medium,plus,dotcolour,beta,,,4,23,V,R,
507,3,3,12,4,36,44,566,['n'],1,right,['1'],6,329,[-0.16786291],100,44,hard,plus,dotcolour,beta,,,4,23,V,R,
508,4,4,12,4,44,36,834,['c'],1,left,['2'],5,388,[0.13642401],100,44,hard,plus,dotcolour,beta,,,4,23,V,R,
509,5,5,12,4,33,47,566,['n'],1,right,['2'],5,518,[-0.18434638],100,47,medium,plus,dotcolour,beta,,,4,23,V,R,
510,6,6,12,4,44,36,416,['n'],0,left,['3'],4,450,[0.00109056],81,44,hard,plus,dotcolour,beta,,,4,23,V,R,
511,7,7,12,4,27,53,666,['n'],1,right,['3'],4,446,[-0.2372082],100,53,easy,plus,dotcolour,beta,,,4,23,V,R,
512,8,8,12,4,27,53,450,['n'],1,right,['3'],4,291,[-0.20801881],100,53,easy,plus,dotcolour,beta,,,4,23,V,R,
513,9,9,12,4,36,44,1267,['c'],0,right,['3'],4,302,[0.04745526],97,44,hard,plus,dotcolour,beta,,,4,23,V,R,
514,10,10,12,4,44,36,332,['n'],0,left,['3'],4,366,[0.08816954],27,44,hard,plus,dotcolour,beta,,,4,23,V,R,
515,11,11,12,4,27,53,367,['n'],1,right,['3'],4,474,[-0.26102924],100,53,easy,plus,dotcolour,beta,,,4,23,V,R,
516,12,12,12,4,27,53,517,['n'],1,right,['2'],5,235,[-0.08799251],100,53,easy,plus,dotcolour,beta,,,4,23,V,R,
517,13,13,12,4,47,33,767,['c'],1,left,['3'],4,253,[0.07363449],99,47,medium,plus,dotcolour,beta,,,4,23,V,R,
518,14,14,12,4,33,47,583,['n'],1,right,['3'],4,301,[-0.04628592],97,47,medium,plus,dotcolour,beta,,,4,23,V,R,
519,15,15,12,4,53,27,1000,['c'],1,left,['3'],4,218,[0.1054387],100,53,easy,plus,dotcolour,beta,,,4,23,V,R,
520,16,16,12,4,36,44,567,['c'],0,right,['1'],6,372,[0.12677056],100,44,hard,plus,dotcolour,beta,,,4,23,V,R,
521,17,17,12,4,27,53,533,['n'],1,right,['1'],6,209,[-0.05272546],99,53,easy,plus,dotcolour,beta,,,4,23,V,R,
522,18,18,12,4,44,36,551,['c'],1,left,['1'],6,300,[0.10421306],99,44,hard,plus,dotcolour,beta,,,4,23,V,R,
523,19,19,12,4,47,33,817,['n'],0,left,['1'],6,233,[0.02112154],78,47,medium,plus,dotcolour,beta,,,4,23,V,R,
524,20,20,12,4,33,47,650,['n'],1,right,['2'],5,647,[-0.02788831],87,47,medium,plus,dotcolour,beta,,,4,23,V,R,
525,21,21,12,4,47,33,983,['c'],1,left,['3'],4,711,[0.06712237],93,47,medium,plus,dotcolour,beta,,,4,23,V,R,
526,22,22,12,4,47,33,667,['c'],1,left,['2'],5,497,[0.11239023],99,47,medium,plus,dotcolour,beta,,,4,23,V,R,
527,23,23,12,4,53,27,750,['c'],1,left,['1'],6,384,[0.17247418],100,53,easy,plus,dotcolour,beta,,,4,23,V,R,
528,24,24,12,4,27,53,633,['n'],1,right,['2'],5,312,[-0.10189385],99,53,easy,plus,dotcolour,beta,,,4,23,V,R,
529,25,25,12,4,33,47,567,['n'],1,right,['3'],4,342,[-0.08150531],99,47,medium,plus,dotcolour,beta,,,4,23,V,R,
530,26,26,12,4,53,27,650,['c'],1,left,['3'],4,311,[0.13125961],100,53,easy,plus,dotcolour,beta,,,4,23,V,R,
531,27,27,12,4,53,27,916,['n'],0,left,['3'],4,199,[0.03461431],70,53,easy,plus,dotcolour,beta,,,4,23,V,R,
532,28,28,12,4,44,36,1233,['c'],1,left,['3'],4,311,[-0.03098276],69,44,hard,plus,dotcolour,beta,,,4,23,V,R,
533,29,29,12,4,33,47,533,['n'],1,right,['1'],6,311,[-0.13648647],100,47,medium,plus,dotcolour,beta,,,4,23,V,R,
534,30,30,12,4,33,47,567,['n'],1,right,['1'],6,221,[-0.08264404],99,47,medium,plus,dotcolour,beta,,,4,23,V,R,
535,31,31,12,4,47,33,2000,['c'],1,left,['2'],5,469,[0.1398529],99,47,medium,plus,dotcolour,beta,,,4,23,V,R,
536,32,32,12,4,44,36,817,['c'],1,left,['2'],5,203,[0.08797087],100,44,hard,plus,dotcolour,beta,,,4,23,V,R,
537,33,33,12,4,53,27,733,['c'],1,left,['3'],4,287,[0.12040421],100,53,easy,plus,dotcolour,beta,,,4,23,V,R,
538,34,34,12,4,33,47,900,['n'],1,right,['3'],4,297,[-0.09355117],99,47,medium,plus,dotcolour,beta,,,4,23,V,R,
539,35,35,12,4,44,36,817,['c'],1,left,['3'],4,270,[0.09900531],100,44,hard,plus,dotcolour,beta,,,4,23,V,R,
540,36,36,12,4,36,44,600,['c'],0,right,['8'],3,308,[0.034409],95,44,hard,plus,dotcolour,beta,,,4,23,V,R,
541,37,37,12,4,36,44,650,['c'],0,right,['8'],3,423,[0.05307156],95,44,hard,plus,dotcolour,beta,,,4,23,V,R,
542,38,38,12,4,53,27,667,['c'],1,left,['8'],3,316,[0.19756963],100,53,easy,plus,dotcolour,beta,,,4,23,V,R,
543,39,39,12,4,36,44,1133,['c'],0,right,['3'],4,1147,[0.03710752],83,44,hard,plus,dotcolour,beta,,,4,23,V,R,
544,40,40,12,4,36,44,666,['c'],0,right,['0'],1,1091,[0.04343564],85,44,hard,plus,dotcolour,beta,,,4,23,V,R,
545,41,41,12,4,53,27,1116,['c'],1,left,['3'],4,300,[0.05790434],98,53,easy,plus,dotcolour,beta,,,4,23,V,R,
546,42,0,13,4,53,27,717,['c'],1,left,['2'],5,281,[0.21224875],100,53,easy,plus,dotcolour,beta,,,4,23,V,R,
547,43,1,13,4,44,36,584,['n'],0,left,['1'],6,224,[-0.03726983],97,44,hard,plus,dotcolour,beta,,,4,23,V,R,
548,44,2,13,4,27,53,517,['n'],1,right,['1'],6,203,[-0.04991534],99,53,easy,plus,dotcolour,beta,,,4,23,V,R,
549,45,3,13,4,44,36,533,['n'],0,left,['1'],6,239,[-0.03982507],97,44,hard,plus,dotcolour,beta,,,4,23,V,R,
550,46,4,13,4,27,53,600,['n'],1,right,['1'],6,191,[-0.11859676],100,53,easy,plus,dotcolour,beta,,,4,23,V,R,
551,47,5,13,4,47,33,1149,['c'],1,left,['3'],4,251,[0.07282493],99,47,medium,plus,dotcolour,beta,,,4,23,V,R,
552,48,6,13,4,33,47,717,['n'],1,right,['1'],6,277,[-0.11018405],100,47,medium,plus,dotcolour,beta,,,4,23,V,R,
553,49,7,13,4,36,44,600,['n'],1,right,['1'],6,251,[-0.05356389],98,44,hard,plus,dotcolour,beta,,,4,23,V,R,
554,50,8,13,4,33,47,433,['n'],1,right,['1'],6,225,[-0.10000148],100,47,medium,plus,dotcolour,beta,,,4,23,V,R,
555,51,9,13,4,47,33,999,['c'],1,left,['3'],4,265,[0.1258576],100,47,medium,plus,dotcolour,beta,,,4,23,V,R,
556,52,10,13,4,36,44,833,['n'],1,right,['1'],6,183,[-0.0693918],99,44,hard,plus,dotcolour,beta,,,4,23,V,R,
557,53,11,13,4,27,53,534,['n'],1,right,['1'],6,227,[-0.12539146],100,53,easy,plus,dotcolour,beta,,,4,23,V,R,
558,54,12,13,4,53,27,550,['n'],0,left,['1'],6,205,[-0.03485305],97,53,easy,plus,dotcolour,beta,,,4,23,V,R,
559,55,13,13,4,53,27,683,['n'],0,left,['2'],5,467,[-0.02475421],89,53,easy,plus,dotcolour,beta,,,4,23,V,R,
560,56,14,13,4,53,27,284,['n'],0,left,['2'],5,406,[-0.09252525],98,53,easy,plus,dotcolour,beta,,,4,23,V,R,
561,57,15,13,4,33,47,1017,['n'],1,right,['3'],4,1798,[-0.18267289],96,47,medium,plus,dotcolour,beta,,,4,23,V,R,
562,58,16,13,4,53,27,950,['c'],1,left,['3'],4,289,[0.10038587],99,53,easy,plus,dotcolour,beta,,,4,23,V,R,
563,59,17,13,4,27,53,466,['n'],1,right,['1'],6,236,[-0.01174001],92,53,easy,plus,dotcolour,beta,,,4,23,V,R,
564,60,18,13,4,33,47,666,['n'],1,right,['1'],6,185,[-0.1442817],100,47,medium,plus,dotcolour,beta,,,4,23,V,R,
565,61,19,13,4,44,36,900,['c'],1,left,['2'],5,215,[0.00388987],91,44,hard,plus,dotcolour,beta,,,4,23,V,R,
566,62,20,13,4,44,36,500,['n'],0,left,['1'],6,227,[0.00854003],86,44,hard,plus,dotcolour,beta,,,4,23,V,R,
567,63,21,13,4,47,33,884,['c'],1,left,['2'],5,256,[0.09885452],100,47,medium,plus,dotcolour,beta,,,4,23,V,R,
568,64,22,13,4,36,44,651,['n'],1,right,['1'],6,244,[-0.02645217],95,44,hard,plus,dotcolour,beta,,,4,23,V,R,
569,65,23,13,4,53,27,916,['c'],1,left,['2'],5,183,[0.12632193],100,53,easy,plus,dotcolour,beta,,,4,23,V,R,
570,66,24,13,4,27,53,567,['n'],1,right,['1'],6,643,[-0.08250204],96,53,easy,plus,dotcolour,beta,,,4,23,V,R,
571,67,25,13,4,47,33,700,['n'],0,left,['1'],6,214,[-0.05351661],99,47,medium,plus,dotcolour,beta,,,4,23,V,R,
572,68,26,13,4,36,44,717,['n'],1,right,['1'],6,186,[-0.09974435],100,44,hard,plus,dotcolour,beta,,,4,23,V,R,
573,69,27,13,4,47,33,717,['c'],1,left,['2'],5,207,[0.06411432],99,47,medium,plus,dotcolour,beta,,,4,23,V,R,
574,70,28,13,4,53,27,616,['c'],1,left,['2'],5,335,[0.04837046],96,53,easy,plus,dotcolour,beta,,,4,23,V,R,
575,71,29,13,4,36,44,700,['n'],1,right,['2'],5,558,[-0.18353219],100,44,hard,plus,dotcolour,beta,,,4,23,V,R,
576,72,30,13,4,33,47,1249,['n'],1,right,['2'],5,231,[-0.07190612],99,47,medium,plus,dotcolour,beta,,,4,23,V,R,
577,73,31,13,4,27,53,666,['n'],1,right,['1'],6,348,[-0.18026226],100,53,easy,plus,dotcolour,beta,,,4,23,V,R,
578,74,32,13,4,47,33,700,['c'],1,left,['2'],5,244,[0.10361745],100,47,medium,plus,dotcolour,beta,,,4,23,V,R,
579,75,33,13,4,27,53,533,['n'],1,right,['1'],6,302,[-0.07893033],99,53,easy,plus,dotcolour,beta,,,4,23,V,R,
580,76,34,13,4,47,33,900,['c'],1,left,['3'],4,551,[0.05164102],93,47,medium,plus,dotcolour,beta,,,4,23,V,R,
581,77,35,13,4,33,47,584,['n'],1,right,['1'],6,210,[-0.09721225],100,47,medium,plus,dotcolour,beta,,,4,23,V,R,
582,78,36,13,4,44,36,1034,['c'],1,left,['2'],5,210,[0.13379739],100,44,hard,plus,dotcolour,beta,,,4,23,V,R,
583,79,37,13,4,44,36,767,['n'],0,left,['2'],5,188,[-0.09451634],100,44,hard,plus,dotcolour,beta,,,4,23,V,R,
584,80,38,13,4,36,44,733,['n'],1,right,['1'],6,200,[-0.12931154],100,44,hard,plus,dotcolour,beta,,,4,23,V,R,
585,81,39,13,4,44,36,1434,['c'],1,left,['8'],3,985,[0.15068299],98,44,hard,plus,dotcolour,beta,,,4,23,V,R,
586,82,40,13,4,33,47,767,['c'],0,right,['3'],4,315,[0.10037308],99,47,medium,plus,dotcolour,beta,,,4,23,V,R,
587,83,41,13,4,36,44,1216,['c'],0,right,['3'],4,271,[0.06459493],98,44,hard,plus,dotcolour,beta,,,4,23,V,R,
588,84,0,14,4,44,36,800,['c'],1,left,['3'],4,282,[0.06920887],99,44,hard,plus,dotcolour,beta,,,4,23,V,R,
589,85,1,14,4,47,33,583,['n'],0,left,['2'],5,328,[0.07655539],34,47,medium,plus,dotcolour,beta,,,4,23,V,R,
590,86,2,14,4,27,53,683,['c'],0,right,['3'],4,297,[0.02874588],94,53,easy,plus,dotcolour,beta,,,4,23,V,R,
591,87,3,14,4,27,53,400,['n'],1,right,['3'],4,342,[-0.12837635],100,53,easy,plus,dotcolour,beta,,,4,23,V,R,
592,88,4,14,4,33,47,517,['c'],0,right,['3'],4,317,[0.04528246],96,47,medium,plus,dotcolour,beta,,,4,23,V,R,
593,89,5,14,4,53,27,1650,['c'],1,left,['3'],4,264,[0.11468719],100,53,easy,plus,dotcolour,beta,,,4,23,V,R,
594,90,6,14,4,53,27,884,['c'],1,left,['1'],6,243,[0.10895425],100,53,easy,plus,dotcolour,beta,,,4,23,V,R,
595,91,7,14,4,27,53,466,['n'],1,right,['3'],4,400,[-0.13956502],100,53,easy,plus,dotcolour,beta,,,4,23,V,R,
596,92,8,14,4,33,47,549,['n'],1,right,['1'],6,171,[-0.1004302],100,47,medium,plus,dotcolour,beta,,,4,23,V,R,
597,93,9,14,4,47,33,800,['c'],1,left,['1'],6,198,[0.08501317],100,47,medium,plus,dotcolour,beta,,,4,23,V,R,
598,94,10,14,4,53,27,1016,['c'],1,left,['1'],6,566,[0.19728022],100,53,easy,plus,dotcolour,beta,,,4,23,V,R,
599,95,11,14,4,44,36,483,['n'],0,left,['1'],6,206,[-0.02275808],96,44,hard,plus,dotcolour,beta,,,4,23,V,R,
600,96,12,14,4,53,27,616,['c'],1,left,['1'],6,215,[0.09509862],100,53,easy,plus,dotcolour,beta,,,4,23,V,R,
601,97,13,14,4,33,47,3066,['n'],1,right,['0'],1,740,[-0.20561388],100,47,medium,plus,dotcolour,beta,,,4,23,V,R,
602,98,14,14,4,36,44,882,['c'],0,right,['0'],1,1204,[-0.08780767],37,44,hard,plus,dotcolour,beta,,,4,23,V,R,
603,99,15,14,4,33,47,501,['n'],1,right,['1'],6,201,[-0.07974519],100,47,medium,plus,dotcolour,beta,,,4,23,V,R,
604,100,16,14,4,27,53,500,['n'],1,right,['1'],6,238,[-0.14816265],100,53,easy,plus,dotcolour,beta,,,4,23,V,R,
605,101,17,14,4,33,47,466,['n'],1,right,['1'],6,188,[-0.11246582],100,47,medium,plus,dotcolour,beta,,,4,23,V,R,
606,102,18,14,4,53,27,2067,['c'],1,left,['1'],6,315,[0.1964485],100,53,easy,plus,dotcolour,beta,,,4,23,V,R,
607,103,19,14,4,27,53,484,['n'],1,right,['1'],6,260,[-0.11758821],100,53,easy,plus,dotcolour,beta,,,4,23,V,R,
608,104,20,14,4,36,44,616,['n'],1,right,['1'],6,378,[-0.08770605],99,44,hard,plus,dotcolour,beta,,,4,23,V,R,
609,105,21,14,4,47,33,349,['n'],0,left,['1'],6,311,[-0.03775022],95,47,medium,plus,dotcolour,beta,,,4,23,V,R,
610,106,22,14,4,44,36,1217,['c'],1,left,['2'],5,322,[0.0134961],90,44,hard,plus,dotcolour,beta,,,4,23,V,R,
611,107,23,14,4,27,53,567,['n'],1,right,['1'],6,208,[-0.02055746],95,53,easy,plus,dotcolour,beta,,,4,23,V,R,
612,108,24,14,4,27,53,583,['n'],1,right,['1'],6,242,[-0.0787006],99,53,easy,plus,dotcolour,beta,,,4,23,V,R,
613,109,25,14,4,47,33,750,['c'],1,left,['3'],4,787,[0.02585727],84,47,medium,plus,dotcolour,beta,,,4,23,V,R,
614,110,26,14,4,47,33,466,['n'],0,left,['1'],6,298,[0.02467189],73,47,medium,plus,dotcolour,beta,,,4,23,V,R,
615,111,27,14,4,44,36,633,['n'],0,left,['3'],4,246,[-0.08510422],99,44,hard,plus,dotcolour,beta,,,4,23,V,R,
616,112,28,14,4,44,36,483,['n'],0,left,['3'],4,218,[-0.10352348],100,44,hard,plus,dotcolour,beta,,,4,23,V,R,
617,113,29,14,4,44,36,517,['n'],0,left,['3'],4,174,[-0.09984266],100,44,hard,plus,dotcolour,beta,,,4,23,V,R,
618,114,30,14,4,36,44,583,['n'],1,right,['2'],5,248,[-0.10492717],100,44,hard,plus,dotcolour,beta,,,4,23,V,R,
619,115,31,14,4,36,44,633,['n'],1,right,['2'],5,174,[-0.09737029],100,44,hard,plus,dotcolour,beta,,,4,23,V,R,
620,116,32,14,4,33,47,633,['n'],1,right,['1'],6,295,[-0.11859482],100,47,medium,plus,dotcolour,beta,,,4,23,V,R,
621,117,33,14,4,36,44,600,['n'],1,right,['1'],6,244,[-0.09382913],100,44,hard,plus,dotcolour,beta,,,4,23,V,R,
622,118,34,14,4,44,36,1617,['n'],0,left,['1'],6,339,[-0.05586562],97,44,hard,plus,dotcolour,beta,,,4,23,V,R,
623,119,35,14,4,53,27,1317,['c'],1,left,['1'],6,322,[0.1418539],100,53,easy,plus,dotcolour,beta,,,4,23,V,R,
624,120,36,14,4,33,47,584,['n'],1,right,['1'],6,192,[-0.07360647],100,47,medium,plus,dotcolour,beta,,,4,23,V,R,
625,121,37,14,4,36,44,499,['c'],0,right,['3'],4,1261,[-0.18492089],11,44,hard,plus,dotcolour,beta,,,4,23,V,R,
626,122,38,14,4,47,33,800,['n'],0,left,['0'],1,1092,[0.11655045],26,47,medium,plus,dotcolour,beta,,,4,23,V,R,
627,123,39,14,4,47,33,1049,['c'],1,left,['1'],6,207,[0.08841083],100,47,medium,plus,dotcolour,beta,,,4,23,V,R,
628,124,40,14,4,36,44,1483,['n'],1,right,['2'],5,381,[-0.08962761],99,44,hard,plus,dotcolour,beta,,,4,23,V,R,
629,125,41,14,4,53,27,650,['c'],1,left,['2'],5,229,[0.12697396],100,53,easy,plus,dotcolour,beta,,,4,23,V,R,
630,0,0,15,5,53,27,933,['n'],0,left,['2'],5,491,[0.03061061],10,53,easy,minus,dotcolour,beta,,,4,23,V,R,
631,1,1,15,5,36,44,1217,['c'],0,right,['2'],5,304,[-0.06634076],2,44,hard,minus,dotcolour,beta,,,4,23,V,R,
632,2,2,15,5,44,36,766,['c'],1,left,['1'],6,342,[0.01032974],20,44,hard,minus,dotcolour,beta,,,4,23,V,R,
633,3,3,15,5,33,47,750,['n'],1,right,['1'],6,236,[-0.10898604],88,47,medium,minus,dotcolour,beta,,,4,23,V,R,
634,4,4,15,5,44,36,950,['n'],0,left,['0'],1,1582,[0.13501132],6,44,hard,minus,dotcolour,beta,,,4,23,V,R,
635,5,5,15,5,47,33,817,['c'],1,left,['1'],6,342,[0.143525],94,47,medium,minus,dotcolour,beta,,,4,23,V,R,
636,6,6,15,5,33,47,534,['n'],1,right,['1'],6,180,[-0.13454724],97,47,medium,minus,dotcolour,beta,,,4,23,V,R,
637,7,7,15,5,36,44,565,['n'],1,right,['1'],6,248,[-0.17484151],99,44,hard,minus,dotcolour,beta,,,4,23,V,R,
638,8,8,15,5,36,44,500,['n'],1,right,['1'],6,163,[-0.07719161],72,44,hard,minus,dotcolour,beta,,,4,23,V,R,
639,9,9,15,5,47,33,500,['n'],0,left,['1'],6,145,[-0.06935931],66,47,medium,minus,dotcolour,beta,,,4,23,V,R,
640,10,10,15,5,36,44,350,['n'],1,right,['1'],6,151,[-0.07418726],70,44,hard,minus,dotcolour,beta,,,4,23,V,R,
641,11,11,15,5,36,44,1550,['n'],1,right,['2'],5,3157,[-0.25900735],89,44,hard,minus,dotcolour,beta,,,4,23,V,R,
642,12,12,15,5,47,33,983,['n'],0,left,['2'],5,287,[-0.00299888],15,47,medium,minus,dotcolour,beta,,,4,23,V,R,
643,13,13,15,5,27,53,1134,['n'],1,right,['2'],5,231,[-0.15182746],97,53,easy,minus,dotcolour,beta,,,4,23,V,R,
644,14,14,15,5,27,53,550,['n'],1,right,['2'],5,201,[-0.06035835],55,53,easy,minus,dotcolour,beta,,,4,23,V,R,
645,15,15,15,5,53,27,717,['c'],1,left,['2'],5,253,[0.15178621],97,53,easy,minus,dotcolour,beta,,,4,23,V,R,
646,16,16,15,5,53,27,683,['n'],0,left,['2'],5,193,[-0.0389858],34,53,easy,minus,dotcolour,beta,,,4,23,V,R,
647,17,17,15,5,33,47,433,['n'],1,right,['2'],5,201,[-0.15176654],98,47,medium,minus,dotcolour,beta,,,4,23,V,R,
648,18,18,15,5,44,36,316,['n'],0,left,['2'],5,181,[-0.08356202],77,44,hard,minus,dotcolour,beta,,,4,23,V,R,
649,19,19,15,5,53,27,300,['n'],0,left,['2'],5,148,[-0.03472792],27,53,easy,minus,dotcolour,beta,,,4,23,V,R,
650,20,20,15,5,47,33,1051,['n'],0,left,['2'],5,541,[-0.02997314],35,47,medium,minus,dotcolour,beta,,,4,23,V,R,
651,21,21,15,5,27,53,817,['n'],1,right,['2'],5,344,[-0.14983779],95,53,easy,minus,dotcolour,beta,,,4,23,V,R,
652,22,22,15,5,33,47,467,['n'],1,right,['1'],6,168,[-0.03950195],33,47,medium,minus,dotcolour,beta,,,4,23,V,R,
653,23,23,15,5,27,53,367,['n'],1,right,['2'],5,148,[-0.0257912],20,53,easy,minus,dotcolour,beta,,,4,23,V,R,
654,24,24,15,5,27,53,416,['n'],1,right,['2'],5,183,[-0.11702622],93,53,easy,minus,dotcolour,beta,,,4,23,V,R,
655,25,25,15,5,47,33,350,['n'],0,left,['1'],6,299,[-0.05212057],47,47,medium,minus,dotcolour,beta,,,4,23,V,R,
656,26,26,15,5,33,47,1900,['n'],1,right,['8'],3,540,[-0.18629382],96,47,medium,minus,dotcolour,beta,,,4,23,V,R,
657,27,27,15,5,36,44,784,['n'],1,right,['1'],6,136,[-0.12161545],96,44,hard,minus,dotcolour,beta,,,4,23,V,R,
658,28,28,15,5,44,36,367,['n'],0,left,['0'],1,86,[-0.05058698],42,44,hard,minus,dotcolour,beta,,,4,23,V,R,
659,29,29,15,5,47,33,516,['n'],0,left,['0'],1,743,[0.09388388],4,47,medium,minus,dotcolour,beta,,,4,23,V,R,
660,30,30,15,5,53,27,916,['c'],1,left,['1'],6,142,[0.05971613],55,53,easy,minus,dotcolour,beta,,,4,23,V,R,
661,31,31,15,5,53,27,1433,['c'],1,left,['3'],4,400,[0.07170191],61,53,easy,minus,dotcolour,beta,,,4,23,V,R,
662,32,32,15,5,33,47,467,['c'],0,right,['1'],6,166,[0.07781699],73,47,medium,minus,dotcolour,beta,,,4,23,V,R,
663,33,33,15,5,33,47,983,['n'],1,right,['1'],6,178,[-0.07006695],65,47,medium,minus,dotcolour,beta,,,4,23,V,R,
664,34,34,15,5,47,33,467,['n'],0,left,['1'],6,25,[-0.08129663],95,47,medium,minus,dotcolour,beta,,,4,23,V,R,
665,35,35,15,5,36,44,1350,['n'],1,right,['8'],3,636,[-0.10638367],76,44,hard,minus,dotcolour,beta,,,4,23,V,R,
666,36,36,15,5,44,36,1033,['c'],1,left,['1'],6,33,[0.08067992],92,44,hard,minus,dotcolour,beta,,,4,23,V,R,
667,37,37,15,5,27,53,833,['n'],1,right,['3'],4,288,[-0.12776948],92,53,easy,minus,dotcolour,beta,,,4,23,V,R,
668,38,38,15,5,53,27,750,['c'],1,left,['3'],4,248,[0.09307902],80,53,easy,minus,dotcolour,beta,,,4,23,V,R,
669,39,39,15,5,27,53,618,['n'],1,right,['1'],6,182,[-0.15329735],98,53,easy,minus,dotcolour,beta,,,4,23,V,R,
670,40,40,15,5,44,36,717,['c'],1,left,['3'],4,76,[0.09652823],94,44,hard,minus,dotcolour,beta,,,4,23,V,R,
671,41,41,15,5,44,36,433,['c'],1,left,['1'],6,144,[0.06280757],59,44,hard,minus,dotcolour,beta,,,4,23,V,R,
672,42,0,16,5,27,53,1233,['c'],0,right,['1'],6,221,[0.00420502],12,53,easy,minus,dotcolour,beta,,,4,23,V,R,
673,43,1,16,5,33,47,367,['n'],1,right,['1'],6,1727,[-0.1141177],69,47,medium,minus,dotcolour,beta,,,4,23,V,R,
674,44,2,16,5,53,27,350,['n'],0,left,['9'],2,573,[0.04310306],9,53,easy,minus,dotcolour,beta,,,4,23,V,R,
675,45,3,16,5,53,27,933,['c'],1,left,['9'],2,346,[0.13276534],91,53,easy,minus,dotcolour,beta,,,4,23,V,R,
676,46,4,16,5,44,36,700,['c'],1,left,['9'],2,337,[0.14608668],94,44,hard,minus,dotcolour,beta,,,4,23,V,R,
677,47,5,16,5,44,36,533,['c'],1,left,['9'],2,207,[0.15465373],98,44,hard,minus,dotcolour,beta,,,4,23,V,R,
678,48,6,16,5,33,47,366,['n'],1,right,['3'],4,641,[-0.04707365],45,47,medium,minus,dotcolour,beta,,,4,23,V,R,
679,49,7,16,5,36,44,367,['c'],0,right,['9'],2,345,[0.17607093],98,44,hard,minus,dotcolour,beta,,,4,23,V,R,
680,50,8,16,5,36,44,650,['n'],1,right,['0'],1,971,[0.08753541],7,44,hard,minus,dotcolour,beta,,,4,23,V,R,
681,51,9,16,5,33,47,716,['c'],0,right,['9'],2,168,[0.05249942],47,47,medium,minus,dotcolour,beta,,,4,23,V,R,
682,52,10,16,5,44,36,800,['c'],1,left,['0'],1,403,[0.07866646],66,44,hard,minus,dotcolour,beta,,,4,23,V,R,
683,53,11,16,5,47,33,516,['c'],1,left,['0'],1,415,[0.11429171],84,47,medium,minus,dotcolour,beta,,,4,23,V,R,
684,54,12,16,5,36,44,434,['c'],0,right,"['8', '9', '1', '3']",3,295,[-0.02232041],7,44,hard,minus,dotcolour,beta,,,4,23,V,R,
685,55,13,16,5,27,53,3049,['c'],0,right,['3'],4,706,[-0.04152172],11,53,easy,minus,dotcolour,beta,,,4,23,V,R,
686,56,14,16,5,47,33,1600,['n'],0,left,['3'],4,839,[-0.08971241],66,47,medium,minus,dotcolour,beta,,,4,23,V,R,
687,57,15,16,5,44,36,416,['c'],1,left,['3'],4,189,[0.10481822],88,44,hard,minus,dotcolour,beta,,,4,23,V,R,
688,58,16,16,5,33,47,750,['n'],1,right,['1'],6,154,[-0.05952241],55,47,medium,minus,dotcolour,beta,,,4,23,V,R,
689,59,17,16,5,44,36,933,['n'],0,left,['1'],6,263,[-0.04834717],44,44,hard,minus,dotcolour,beta,,,4,23,V,R,
690,60,18,16,5,27,53,467,['n'],1,right,['1'],6,131,[-0.13424105],98,53,easy,minus,dotcolour,beta,,,4,23,V,R,
691,61,19,16,5,33,47,517,['n'],1,right,['1'],6,171,[-0.10102066],88,47,medium,minus,dotcolour,beta,,,4,23,V,R,
692,62,20,16,5,44,36,449,['n'],0,left,['1'],6,163,[-0.0830691],77,44,hard,minus,dotcolour,beta,,,4,23,V,R,
693,63,21,16,5,33,47,1050,['n'],1,right,['3'],4,188,[-0.11784942],93,47,medium,minus,dotcolour,beta,,,4,23,V,R,
694,64,22,16,5,47,33,2316,['c'],1,left,['3'],4,674,[0.17062761],93,47,medium,minus,dotcolour,beta,,,4,23,V,R,
695,65,23,16,5,27,53,783,['n'],1,right,['1'],6,192,[-0.08024053],73,53,easy,minus,dotcolour,beta,,,4,23,V,R,
696,66,24,16,5,44,36,517,['n'],0,left,['1'],6,277,[-0.0181632],22,44,hard,minus,dotcolour,beta,,,4,23,V,R,
697,67,25,16,5,53,27,2283,['c'],1,left,['2'],5,480,[0.05290649],48,53,easy,minus,dotcolour,beta,,,4,23,V,R,
698,68,26,16,5,47,33,316,['n'],0,left,['2'],5,361,[0.01444953],11,47,medium,minus,dotcolour,beta,,,4,23,V,R,
699,69,27,16,5,47,33,367,['n'],0,left,['1'],6,285,[-0.0779412],68,47,medium,minus,dotcolour,beta,,,4,23,V,R,
700,70,28,16,5,27,53,600,['n'],1,right,['1'],6,155,[-0.15661192],99,53,easy,minus,dotcolour,beta,,,4,23,V,R,
701,71,29,16,5,53,27,683,['c'],1,left,['2'],5,250,[0.09223526],79,53,easy,minus,dotcolour,beta,,,4,23,V,R,
702,72,30,16,5,53,27,900,['c'],1,left,['3'],4,253,[0.03123737],30,53,easy,minus,dotcolour,beta,,,4,23,V,R,
703,73,31,16,5,27,53,366,['c'],0,right,['0'],1,950,[-0.18479488],1,53,easy,minus,dotcolour,beta,,,4,23,V,R,
704,74,32,16,5,47,33,649,['n'],0,left,['2'],5,295,[-0.08657389],74,47,medium,minus,dotcolour,beta,,,4,23,V,R,
705,75,33,16,5,36,44,633,['n'],1,right,['3'],4,291,[-0.07033643],62,44,hard,minus,dotcolour,beta,,,4,23,V,R,
706,76,34,16,5,47,33,1633,['c'],1,left,['3'],4,7,[0.07174549],97,47,medium,minus,dotcolour,beta,,,4,23,V,R,
707,77,35,16,5,36,44,1150,['n'],1,right,['8'],3,298,[-0.02037298],24,44,hard,minus,dotcolour,beta,,,4,23,V,R,
708,78,36,16,5,33,47,750,['n'],1,right,['2'],5,505,[-0.07152116],60,47,medium,minus,dotcolour,beta,,,4,23,V,R,
709,79,37,16,5,36,44,801,['n'],1,right,['1'],6,174,[-0.07264335],68,44,hard,minus,dotcolour,beta,,,4,23,V,R,
710,80,38,16,5,53,27,2833,['c'],1,left,['3'],4,279,[0.10956727],86,53,easy,minus,dotcolour,beta,,,4,23,V,R,
711,81,39,16,5,53,27,532,['c'],1,left,['2'],5,280,[0.08534622],73,53,easy,minus,dotcolour,beta,,,4,23,V,R,
712,82,40,16,5,27,53,434,['c'],0,right,['8'],3,508,[0.07554274],62,53,easy,minus,dotcolour,beta,,,4,23,V,R,
713,83,41,16,5,36,44,316,['c'],0,right,['2'],5,148,[0.09805999],88,44,hard,minus,dotcolour,beta,,,4,23,V,R,
714,84,0,17,5,36,44,1167,['n'],1,right,['8'],3,18,[-0.09671841],100,44,hard,minus,dotcolour,beta,,,4,23,V,R,
715,85,1,17,5,36,44,583,['c'],0,right,['1'],6,147,[0.00433606],8,44,hard,minus,dotcolour,beta,,,4,23,V,R,
716,86,2,17,5,44,36,350,['n'],0,left,['3'],4,337,[0.0556],3,44,hard,minus,dotcolour,beta,,,4,23,V,R,
717,87,3,17,5,44,36,283,['n'],0,left,['3'],4,297,[-0.08663793],74,44,hard,minus,dotcolour,beta,,,4,23,V,R,
718,88,4,17,5,53,27,1668,['c'],1,left,['2'],5,1020,[0.14994751],84,53,easy,minus,dotcolour,beta,,,4,23,V,R,
719,89,5,17,5,44,36,567,['c'],1,left,['1'],6,317,[-0.01701833],9,44,hard,minus,dotcolour,beta,,,4,23,V,R,
720,90,6,17,5,27,53,417,['n'],1,right,['1'],6,257,[-0.04981981],45,53,easy,minus,dotcolour,beta,,,4,23,V,R,
721,91,7,17,5,53,27,2116,['c'],1,left,['1'],6,348,[0.12507073],89,53,easy,minus,dotcolour,beta,,,4,23,V,R,
722,92,8,17,5,53,27,484,['n'],0,left,['3'],4,219,[-0.13781011],96,53,easy,minus,dotcolour,beta,,,4,23,V,R,
723,93,9,17,5,36,44,333,['n'],1,right,['1'],6,167,[-0.04146986],35,44,hard,minus,dotcolour,beta,,,4,23,V,R,
724,94,10,17,5,47,33,1067,['c'],1,left,['2'],5,599,[0.29961504],100,47,medium,minus,dotcolour,beta,,,4,23,V,R,
725,95,11,17,5,47,33,1050,['n'],0,left,['1'],6,206,[-0.08523075],76,47,medium,minus,dotcolour,beta,,,4,23,V,R,
726,96,12,17,5,53,27,983,['c'],1,left,['3'],4,232,[0.22825961],100,53,easy,minus,dotcolour,beta,,,4,23,V,R,
727,97,13,17,5,36,44,500,['n'],1,right,['1'],6,220,[-0.09604262],83,44,hard,minus,dotcolour,beta,,,4,23,V,R,
728,98,14,17,5,47,33,317,['n'],0,left,['1'],6,192,[-0.03566427],31,47,medium,minus,dotcolour,beta,,,4,23,V,R,
729,99,15,17,5,53,27,550,['n'],0,left,['1'],6,187,[-0.12443332],95,53,easy,minus,dotcolour,beta,,,4,23,V,R,
730,100,16,17,5,27,53,349,['n'],1,right,['1'],6,271,[-0.21993264],100,53,easy,minus,dotcolour,beta,,,4,23,V,R,
731,101,17,17,5,44,36,1283,['c'],1,left,['1'],6,202,[0.07233252],66,44,hard,minus,dotcolour,beta,,,4,23,V,R,
732,102,18,17,5,33,47,533,['n'],1,right,['1'],6,206,[-0.11181699],90,47,medium,minus,dotcolour,beta,,,4,23,V,R,
733,103,19,17,5,47,33,2417,['n'],0,left,['3'],4,303,[-0.02579818],27,47,medium,minus,dotcolour,beta,,,4,23,V,R,
734,104,20,17,5,33,47,883,['n'],1,right,['1'],6,169,[-0.07582523],71,47,medium,minus,dotcolour,beta,,,4,23,V,R,
735,105,21,17,5,33,47,483,['n'],1,right,['1'],6,144,[-0.05387184],48,47,medium,minus,dotcolour,beta,,,4,23,V,R,
736,106,22,17,5,47,33,601,['n'],0,left,['3'],4,907,[-0.12175641],78,47,medium,minus,dotcolour,beta,,,4,23,V,R,
737,107,23,17,5,33,47,784,['n'],1,right,['1'],6,297,[-0.02291941],25,47,medium,minus,dotcolour,beta,,,4,23,V,R,
738,108,24,17,5,27,53,467,['c'],0,right,['3'],4,291,[0.04357174],40,53,easy,minus,dotcolour,beta,,,4,23,V,R,
739,109,25,17,5,27,53,633,['c'],0,right,['3'],4,327,[-0.04590071],4,53,easy,minus,dotcolour,beta,,,4,23,V,R,
740,110,26,17,5,53,27,1567,['c'],1,left,['3'],4,2157,[0.47624825],99,53,easy,minus,dotcolour,beta,,,4,23,V,R,
741,111,27,17,5,44,36,783,['c'],1,left,['9'],2,47,[0.11093729],99,44,hard,minus,dotcolour,beta,,,4,23,V,R,
742,112,28,17,5,47,33,1483,['c'],1,left,['1'],6,27,[0.06781528],79,47,medium,minus,dotcolour,beta,,,4,23,V,R,
743,113,29,17,5,44,36,1200,['c'],1,left,['1'],6,83,[0.06546209],65,44,hard,minus,dotcolour,beta,,,4,23,V,R,
744,114,30,17,5,27,53,717,['n'],1,right,['0'],1,157,[-0.10366251],90,53,easy,minus,dotcolour,beta,,,4,23,V,R,
745,115,31,17,5,36,44,633,['c'],0,right,['9'],2,135,[0.08527502],81,44,hard,minus,dotcolour,beta,,,4,23,V,R,
746,116,32,17,5,36,44,700,['c'],0,right,['1'],6,7,[0.06624476],91,44,hard,minus,dotcolour,beta,,,4,23,V,R,
747,117,33,17,5,27,53,2516,['n'],1,right,['2'],5,939,[-0.28101258],99,53,easy,minus,dotcolour,beta,,,4,23,V,R,
748,118,34,17,5,33,47,1366,['n'],1,right,['3'],4,415,[-0.13431064],90,47,medium,minus,dotcolour,beta,,,4,23,V,R,
749,119,35,17,5,27,53,700,['c'],0,right,['8'],3,540,[-0.04260152],8,53,easy,minus,dotcolour,beta,,,4,23,V,R,
750,120,36,17,5,53,27,733,['c'],1,left,['2'],5,602,[0.14868427],90,53,easy,minus,dotcolour,beta,,,4,23,V,R,
751,121,37,17,5,33,47,549,['n'],1,right,['2'],5,173,[-0.09423603],84,47,medium,minus,dotcolour,beta,,,4,23,V,R,
752,122,38,17,5,36,44,384,['n'],1,right,['2'],5,208,[-0.04689455],42,44,hard,minus,dotcolour,beta,,,4,23,V,R,
753,123,39,17,5,44,36,300,['n'],0,left,['2'],5,197,[-0.03393961],29,44,hard,minus,dotcolour,beta,,,4,23,V,R,
754,124,40,17,5,47,33,983,['c'],1,left,['9'],2,519,[0.27165599],100,47,medium,minus,dotcolour,beta,,,4,23,V,R,
755,125,41,17,5,33,47,366,['n'],1,right,['2'],5,173,[-0.05527882],50,47,medium,minus,dotcolour,beta,,,4,23,V,R,
,,,,,,,,,,,,,,,,,,,,,1,,4,23,V,R,
,,,,,,,,,,,,,,,,,,,,,2,['h'],4,23,V,R,
,,,,,,,,,,,,,,,,,,,,,3,['h'],4,23,V,R,
,,,,,,,,,,,,,,,,,,,,,5,[],4,23,V,R,
