trial,withinphasetrial,withinblocktrial,block,phase,dotsLeft,dotsRight,rt,resp,cor,cresp,conf_press,cj,RTconf,ev,fb,diff,difflevel,condition,task,manip,questionID,questionResp,sub,age,gender,handedness,
0,0,0,0,0,27,53,5634,['c'],0,right,['3'],3,4729,[-0.7277394],0,53,easy,minus,dotcolour,beta,,,35,21,M,L,
1,1,1,0,0,53,27,4683,['c'],1,left,['9'],5,3608,[0.46756179],98,53,easy,minus,dotcolour,beta,,,35,21,M,L,
2,2,2,0,0,27,53,8017,['n'],1,right,['3'],3,2519,[-0.5129048],99,53,easy,minus,dotcolour,beta,,,35,21,M,L,
3,3,3,0,0,33,47,1551,['n'],1,right,['9'],5,1181,[-0.16051045],85,47,medium,minus,dotcolour,beta,,,35,21,M,L,
4,4,4,0,0,47,33,1866,['c'],1,left,['9'],5,1396,[0.20280118],90,47,medium,minus,dotcolour,beta,,,35,21,M,L,
5,5,5,0,0,36,44,3200,['n'],1,right,['9'],5,1405,[-0.11973689],73,44,hard,minus,dotcolour,beta,,,35,21,M,L,
6,6,6,0,0,44,36,1584,['c'],1,left,['9'],5,1206,[0.16923259],87,44,hard,minus,dotcolour,beta,,,35,21,M,L,
7,7,7,0,0,33,47,3417,['n'],1,right,['9'],5,1590,[-0.20065997],89,47,medium,minus,dotcolour,beta,,,35,21,M,L,
8,8,8,0,0,47,33,1150,['c'],1,left,['0'],6,1066,[0.23784863],96,47,medium,minus,dotcolour,beta,,,35,21,M,L,
9,9,9,0,0,53,27,1100,['c'],1,left,['0'],6,836,[0.15079738],87,53,easy,minus,dotcolour,beta,,,35,21,M,L,
10,10,10,0,0,47,33,999,['c'],1,left,['0'],6,404,[0.02015085],27,47,medium,minus,dotcolour,beta,,,35,21,M,L,
11,11,11,0,0,36,44,2634,['n'],1,right,['8'],4,4722,[-0.80126077],100,44,hard,minus,dotcolour,beta,,,35,21,M,L,
12,12,12,0,0,47,33,3016,['c'],1,left,['8'],4,3308,[0.38230268],96,47,medium,minus,dotcolour,beta,,,35,21,M,L,
13,13,13,0,0,33,47,2817,['c'],0,right,['8'],4,3408,[-0.35300723],2,47,medium,minus,dotcolour,beta,,,35,21,M,L,
14,14,14,0,0,47,33,1234,['c'],1,left,['9'],5,1735,[0.21636107],90,47,medium,minus,dotcolour,beta,,,35,21,M,L,
15,15,15,0,0,53,27,916,['c'],1,left,['9'],5,469,[0.29922028],100,53,easy,minus,dotcolour,beta,,,35,21,M,L,
16,16,16,0,0,27,53,1517,['n'],1,right,['9'],5,671,[-0.10281565],74,53,easy,minus,dotcolour,beta,,,35,21,M,L,
17,17,17,0,0,36,44,2734,['n'],1,right,['8'],4,497,[-0.02169756],30,44,hard,minus,dotcolour,beta,,,35,21,M,L,
18,18,18,0,0,53,27,999,['c'],1,left,['9'],5,350,[0.14079635],93,53,easy,minus,dotcolour,beta,,,35,21,M,L,
19,19,19,0,0,36,44,1584,['n'],1,right,['8'],4,257,[-0.14722703],96,44,hard,minus,dotcolour,beta,,,35,21,M,L,
20,20,20,0,0,27,53,1650,['n'],1,right,['8'],4,262,[-0.08443703],73,53,easy,minus,dotcolour,beta,,,35,21,M,L,
21,21,21,0,0,47,33,3867,['n'],0,left,['8'],4,362,[-0.0474874],44,47,medium,minus,dotcolour,beta,,,35,21,M,L,
22,22,22,0,0,33,47,1133,['n'],1,right,['9'],5,247,[-0.10049646],84,47,medium,minus,dotcolour,beta,,,35,21,M,L,
23,23,23,0,0,36,44,3050,['n'],1,right,['8'],4,373,[-0.11398418],85,44,hard,minus,dotcolour,beta,,,35,21,M,L,
24,24,24,0,0,53,27,950,['c'],1,left,['9'],5,393,[0.19672092],98,53,easy,minus,dotcolour,beta,,,35,21,M,L,
25,25,25,0,0,53,27,1401,['c'],1,left,['9'],5,914,[0.07893755],61,53,easy,minus,dotcolour,beta,,,35,21,M,L,
26,26,26,0,0,44,36,1401,['n'],0,left,['8'],4,480,[-0.13774868],89,44,hard,minus,dotcolour,beta,,,35,21,M,L,
27,27,27,0,0,44,36,7316,['n'],0,left,['8'],4,473,[-0.08654775],69,44,hard,minus,dotcolour,beta,,,35,21,M,L,
28,28,28,0,0,33,47,2201,['c'],0,right,['8'],4,606,[0.10277115],75,47,medium,minus,dotcolour,beta,,,35,21,M,L,
29,29,29,0,0,36,44,6150,['n'],1,right,['8'],4,1825,[0.07541727],15,44,hard,minus,dotcolour,beta,,,35,21,M,L,
30,30,30,0,0,47,33,1600,['c'],1,left,['9'],5,217,[0.14551334],97,47,medium,minus,dotcolour,beta,,,35,21,M,L,
31,31,31,0,0,53,27,900,['c'],1,left,['9'],5,190,[0.06053219],55,53,easy,minus,dotcolour,beta,,,35,21,M,L,
32,32,32,0,0,44,36,3234,['c'],1,left,['8'],4,550,[0.21875797],98,44,hard,minus,dotcolour,beta,,,35,21,M,L,
33,33,33,0,0,27,53,1200,['n'],1,right,['9'],5,273,[-0.15880819],97,53,easy,minus,dotcolour,beta,,,35,21,M,L,
34,34,34,0,0,36,44,3382,['c'],0,right,['8'],4,336,[0.09678034],78,44,hard,minus,dotcolour,beta,,,35,21,M,L,
35,35,35,0,0,44,36,1149,['c'],1,left,['9'],5,247,[0.14075418],96,44,hard,minus,dotcolour,beta,,,35,21,M,L,
36,36,36,0,0,44,36,2816,['n'],0,left,['8'],4,341,[-0.08049138],68,44,hard,minus,dotcolour,beta,,,35,21,M,L,
37,37,37,0,0,27,53,1234,['n'],1,right,['9'],5,223,[-0.06326347],57,53,easy,minus,dotcolour,beta,,,35,21,M,L,
38,38,38,0,0,44,36,1100,['c'],1,left,['9'],5,467,[0.12420088],86,44,hard,minus,dotcolour,beta,,,35,21,M,L,
39,39,39,0,0,27,53,3100,['c'],0,right,['3'],3,5373,[-0.93029167],0,53,easy,minus,dotcolour,beta,,,35,21,M,L,
40,40,40,0,0,33,47,3182,['c'],0,right,['8'],4,335,[0.04036729],38,47,medium,minus,dotcolour,beta,,,35,21,M,L,
41,41,41,0,0,33,47,2367,['c'],0,right,['8'],4,612,[-0.02861966],13,47,medium,minus,dotcolour,beta,,,35,21,M,L,
42,42,0,1,0,36,44,1068,['n'],1,right,['8'],4,738,[-0.23412476],98,44,hard,minus,dotcolour,beta,,,35,21,M,L,
43,43,1,1,0,33,47,1583,['n'],1,right,['9'],5,238,[-0.12317544],92,47,medium,minus,dotcolour,beta,,,35,21,M,L,
44,44,2,1,0,27,53,1068,['n'],1,right,['8'],4,220,[-0.14356067],97,53,easy,minus,dotcolour,beta,,,35,21,M,L,
45,45,3,1,0,44,36,1284,['c'],1,left,['9'],5,505,[0.03588047],38,44,hard,minus,dotcolour,beta,,,35,21,M,L,
46,46,4,1,0,53,27,1382,['c'],1,left,['0'],6,207,[0.05239756],47,53,easy,minus,dotcolour,beta,,,35,21,M,L,
47,47,5,1,0,47,33,1100,['c'],1,left,['0'],6,627,[0.06008782],53,47,medium,minus,dotcolour,beta,,,35,21,M,L,
48,48,6,1,0,27,53,1184,['n'],1,right,['0'],6,227,[-0.11011446],89,53,easy,minus,dotcolour,beta,,,35,21,M,L,
49,49,7,1,0,53,27,1000,['c'],1,left,['0'],6,156,[0.15487449],99,53,easy,minus,dotcolour,beta,,,35,21,M,L,
50,50,8,1,0,53,27,1483,['c'],1,left,['9'],5,220,[0.10747871],88,53,easy,minus,dotcolour,beta,,,35,21,M,L,
51,51,9,1,0,36,44,2249,['c'],0,right,['8'],4,139,[0.09118982],85,44,hard,minus,dotcolour,beta,,,35,21,M,L,
52,52,10,1,0,27,53,1583,['n'],1,right,['9'],5,167,[-0.14853639],98,53,easy,minus,dotcolour,beta,,,35,21,M,L,
53,53,11,1,0,47,33,1984,['c'],1,left,['8'],4,330,[0.04146222],39,47,medium,minus,dotcolour,beta,,,35,21,M,L,
54,54,12,1,0,53,27,1566,['c'],1,left,['9'],5,168,[0.13232213],97,53,easy,minus,dotcolour,beta,,,35,21,M,L,
55,55,13,1,0,36,44,1217,['n'],1,right,['9'],5,698,[-0.03029894],37,44,hard,minus,dotcolour,beta,,,35,21,M,L,
56,56,14,1,0,27,53,1183,['n'],1,right,['9'],5,224,[-0.06619483],60,53,easy,minus,dotcolour,beta,,,35,21,M,L,
57,57,15,1,0,47,33,916,['c'],1,left,['9'],5,203,[0.02983406],26,47,medium,minus,dotcolour,beta,,,35,21,M,L,
58,58,16,1,0,53,27,934,['c'],1,left,['9'],5,271,[0.04950514],45,53,easy,minus,dotcolour,beta,,,35,21,M,L,
59,59,17,1,0,44,36,2101,['c'],1,left,['8'],4,178,[0.12968343],96,44,hard,minus,dotcolour,beta,,,35,21,M,L,
60,60,18,1,0,47,33,967,['c'],1,left,['8'],4,157,[0.03101329],25,47,medium,minus,dotcolour,beta,,,35,21,M,L,
61,61,19,1,0,36,44,2216,['n'],1,right,['8'],4,144,[-0.02532335],19,44,hard,minus,dotcolour,beta,,,35,21,M,L,
62,62,20,1,0,44,36,1350,['c'],1,left,['8'],4,213,[0.14071275],97,44,hard,minus,dotcolour,beta,,,35,21,M,L,
63,63,21,1,0,33,47,1217,['n'],1,right,['9'],5,606,[-0.23472457],98,47,medium,minus,dotcolour,beta,,,35,21,M,L,
64,64,22,1,0,44,36,2384,['c'],1,left,['3'],3,231,[0.06724482],61,44,hard,minus,dotcolour,beta,,,35,21,M,L,
65,65,23,1,0,53,27,3350,['c'],1,left,['8'],4,145,[0.10865872],92,53,easy,minus,dotcolour,beta,,,35,21,M,L,
66,66,24,1,0,33,47,1951,['n'],1,right,['9'],5,302,[-0.21220803],99,47,medium,minus,dotcolour,beta,,,35,21,M,L,
67,67,25,1,0,36,44,1451,['n'],1,right,['8'],4,185,[-0.08020162],74,44,hard,minus,dotcolour,beta,,,35,21,M,L,
68,68,26,1,0,33,47,1617,['n'],1,right,['8'],4,202,[-0.07626202],70,47,medium,minus,dotcolour,beta,,,35,21,M,L,
69,69,27,1,0,47,33,1099,['c'],1,left,['0'],6,568,[0.19839069],97,47,medium,minus,dotcolour,beta,,,35,21,M,L,
70,70,28,1,0,27,53,1568,['n'],1,right,['0'],6,179,[-0.00138242],9,53,easy,minus,dotcolour,beta,,,35,21,M,L,
71,71,29,1,0,44,36,1884,['c'],1,left,['9'],5,307,[0.14837016],95,44,hard,minus,dotcolour,beta,,,35,21,M,L,
72,72,30,1,0,47,33,1233,['n'],0,left,['8'],4,182,[-0.10264064],88,47,medium,minus,dotcolour,beta,,,35,21,M,L,
73,73,31,1,0,36,44,1117,['c'],0,right,['8'],4,211,[0.04277188],38,44,hard,minus,dotcolour,beta,,,35,21,M,L,
74,74,32,1,0,27,53,1517,['n'],1,right,['9'],5,167,[-0.1507012],99,53,easy,minus,dotcolour,beta,,,35,21,M,L,
75,75,33,1,0,33,47,1634,['n'],1,right,['8'],4,424,[-0.12508789],87,47,medium,minus,dotcolour,beta,,,35,21,M,L,
76,76,34,1,0,33,47,1582,['n'],1,right,['9'],5,202,[-0.03366801],29,47,medium,minus,dotcolour,beta,,,35,21,M,L,
77,77,35,1,0,33,47,1983,['c'],0,right,['8'],4,147,[0.0685386],65,47,medium,minus,dotcolour,beta,,,35,21,M,L,
78,78,36,1,0,27,53,1166,['n'],1,right,['9'],5,240,[-0.11231702],89,53,easy,minus,dotcolour,beta,,,35,21,M,L,
79,79,37,1,0,53,27,1001,['c'],1,left,['0'],6,559,[0.06171665],54,53,easy,minus,dotcolour,beta,,,35,21,M,L,
80,80,38,1,0,44,36,1200,['c'],1,left,['9'],5,402,[0.17740829],97,44,hard,minus,dotcolour,beta,,,35,21,M,L,
81,81,39,1,0,44,36,2432,['c'],1,left,['9'],5,162,[0.11076269],92,44,hard,minus,dotcolour,beta,,,35,21,M,L,
82,82,40,1,0,36,44,1250,['n'],1,right,['8'],4,179,[-0.09727306],86,44,hard,minus,dotcolour,beta,,,35,21,M,L,
83,83,41,1,0,47,33,2700,['c'],1,left,['9'],5,193,[0.11635296],92,47,medium,minus,dotcolour,beta,,,35,21,M,L,
84,84,0,2,0,47,33,1134,['c'],1,left,['9'],5,233,[0.16759024],98,47,medium,minus,dotcolour,beta,,,35,21,M,L,
85,85,1,2,0,44,36,750,['c'],1,left,['9'],5,140,[0.07289136],70,44,hard,minus,dotcolour,beta,,,35,21,M,L,
86,86,2,2,0,33,47,1015,['n'],1,right,['0'],6,215,[-0.13525615],96,47,medium,minus,dotcolour,beta,,,35,21,M,L,
87,87,3,2,0,36,44,1100,['n'],1,right,['9'],5,1099,[-0.02060206],35,44,hard,minus,dotcolour,beta,,,35,21,M,L,
88,88,4,2,0,33,47,1100,['n'],1,right,['9'],5,188,[-0.09545153],84,47,medium,minus,dotcolour,beta,,,35,21,M,L,
89,89,5,2,0,47,33,1384,['c'],1,left,['8'],4,215,[0.09216902],81,47,medium,minus,dotcolour,beta,,,35,21,M,L,
90,90,6,2,0,27,53,967,['n'],1,right,['0'],6,177,[-0.16615121],99,53,easy,minus,dotcolour,beta,,,35,21,M,L,
91,91,7,2,0,44,36,984,['c'],1,left,['9'],5,220,[0.05760579],52,44,hard,minus,dotcolour,beta,,,35,21,M,L,
92,92,8,2,0,27,53,1650,['n'],1,right,['0'],6,202,[-0.07093709],65,53,easy,minus,dotcolour,beta,,,35,21,M,L,
93,93,9,2,0,47,33,1483,['c'],1,left,['9'],5,184,[0.05577971],50,47,medium,minus,dotcolour,beta,,,35,21,M,L,
94,94,10,2,0,47,33,1833,['n'],0,left,['8'],4,209,[0.00438545],9,47,medium,minus,dotcolour,beta,,,35,21,M,L,
95,95,11,2,0,36,44,1750,['n'],1,right,['8'],4,347,[-0.06086574],54,44,hard,minus,dotcolour,beta,,,35,21,M,L,
96,96,12,2,0,53,27,1834,['c'],1,left,['9'],5,270,[0.13993286],95,53,easy,minus,dotcolour,beta,,,35,21,M,L,
97,97,13,2,0,47,33,1350,['n'],0,left,['8'],4,382,[-0.04467067],42,47,medium,minus,dotcolour,beta,,,35,21,M,L,
98,98,14,2,0,53,27,1168,['c'],1,left,['0'],6,226,[0.11926606],92,53,easy,minus,dotcolour,beta,,,35,21,M,L,
99,99,15,2,0,27,53,966,['n'],1,right,['0'],6,163,[-0.03608838],30,53,easy,minus,dotcolour,beta,,,35,21,M,L,
100,100,16,2,0,53,27,1117,['c'],1,left,['9'],5,281,[0.1010551],82,53,easy,minus,dotcolour,beta,,,35,21,M,L,
101,101,17,2,0,27,53,966,['n'],1,right,['9'],5,209,[-0.02769408],25,53,easy,minus,dotcolour,beta,,,35,21,M,L,
102,102,18,2,0,36,44,1618,['n'],1,right,['9'],5,200,[-0.0960554],84,44,hard,minus,dotcolour,beta,,,35,21,M,L,
103,103,19,2,0,33,47,851,['n'],1,right,['9'],5,200,[-0.12730491],95,47,medium,minus,dotcolour,beta,,,35,21,M,L,
104,104,20,2,0,36,44,734,['n'],1,right,['9'],5,172,[-0.04837365],42,44,hard,minus,dotcolour,beta,,,35,21,M,L,
105,105,21,2,0,53,27,1167,['c'],1,left,['0'],6,168,[0.07635593],71,53,easy,minus,dotcolour,beta,,,35,21,M,L,
106,106,22,2,0,44,36,1399,['c'],1,left,['0'],6,155,[0.06302654],58,44,hard,minus,dotcolour,beta,,,35,21,M,L,
107,107,23,2,0,44,36,1500,['c'],1,left,['8'],4,202,[0.05331087],48,44,hard,minus,dotcolour,beta,,,35,21,M,L,
108,108,24,2,0,36,44,1500,['n'],1,right,['9'],5,223,[-0.06002006],54,44,hard,minus,dotcolour,beta,,,35,21,M,L,
109,109,25,2,0,47,33,916,['c'],1,left,['0'],6,203,[0.07742269],71,47,medium,minus,dotcolour,beta,,,35,21,M,L,
110,110,26,2,0,27,53,1118,['n'],1,right,['9'],5,504,[-0.30426303],100,53,easy,minus,dotcolour,beta,,,35,21,M,L,
111,111,27,2,0,36,44,1767,['n'],1,right,['9'],5,174,[-0.07923882],74,44,hard,minus,dotcolour,beta,,,35,21,M,L,
112,112,28,2,0,36,44,1651,['n'],1,right,['9'],5,198,[-0.07187927],66,44,hard,minus,dotcolour,beta,,,35,21,M,L,
113,113,29,2,0,27,53,934,['n'],1,right,['0'],6,162,[-0.04279125],36,53,easy,minus,dotcolour,beta,,,35,21,M,L,
114,114,30,2,0,27,53,1350,['n'],1,right,['9'],5,175,[-0.05019364],44,53,easy,minus,dotcolour,beta,,,35,21,M,L,
115,115,31,2,0,33,47,851,['n'],1,right,['9'],5,199,[-0.03021588],26,47,medium,minus,dotcolour,beta,,,35,21,M,L,
116,116,32,2,0,44,36,1716,['c'],1,left,['3'],3,435,[0.11155815],82,44,hard,minus,dotcolour,beta,,,35,21,M,L,
117,117,33,2,0,44,36,1550,['n'],0,left,['3'],3,189,[-0.09285585],82,44,hard,minus,dotcolour,beta,,,35,21,M,L,
118,118,34,2,0,47,33,3384,['n'],0,left,['8'],4,271,[-0.03426689],32,47,medium,minus,dotcolour,beta,,,35,21,M,L,
119,119,35,2,0,33,47,1082,['c'],0,right,['8'],4,667,[-0.06974445],6,47,medium,minus,dotcolour,beta,,,35,21,M,L,
120,120,36,2,0,33,47,2118,['c'],0,right,['3'],3,245,[0.02962648],28,47,medium,minus,dotcolour,beta,,,35,21,M,L,
121,121,37,2,0,44,36,1701,['c'],1,left,['9'],5,177,[0.0628591],58,44,hard,minus,dotcolour,beta,,,35,21,M,L,
122,122,38,2,0,33,47,1415,['c'],0,right,['8'],4,170,[0.02499382],21,47,medium,minus,dotcolour,beta,,,35,21,M,L,
123,123,39,2,0,53,27,801,['c'],1,left,['9'],5,173,[0.12061614],94,53,easy,minus,dotcolour,beta,,,35,21,M,L,
124,124,40,2,0,53,27,733,['c'],1,left,['9'],5,201,[0.10156258],86,53,easy,minus,dotcolour,beta,,,35,21,M,L,
125,125,41,2,0,53,27,634,['c'],1,left,['9'],5,153,[0.06860561],65,53,easy,minus,dotcolour,beta,,,35,21,M,L,
126,0,0,3,1,47,33,1368,['c'],1,left,['9'],5,156,[0.08140598],100,47,medium,plus,dotcolour,beta,,,35,21,M,L,
127,1,1,3,1,53,27,784,['c'],1,left,['0'],6,184,[0.07013246],99,53,easy,plus,dotcolour,beta,,,35,21,M,L,
128,2,2,3,1,47,33,916,['c'],1,left,['9'],5,157,[0.07820419],100,47,medium,plus,dotcolour,beta,,,35,21,M,L,
129,3,3,3,1,53,27,750,['c'],1,left,['0'],6,130,[0.05554274],100,53,easy,plus,dotcolour,beta,,,35,21,M,L,
130,4,4,3,1,36,44,851,['c'],0,right,['9'],5,203,[0.07746285],100,44,hard,plus,dotcolour,beta,,,35,21,M,L,
131,5,5,3,1,33,47,1316,['n'],1,right,['9'],5,248,[-0.14188461],100,47,medium,plus,dotcolour,beta,,,35,21,M,L,
132,6,6,3,1,27,53,1416,['n'],1,right,['9'],5,183,[-0.08361716],100,53,easy,plus,dotcolour,beta,,,35,21,M,L,
133,7,7,3,1,36,44,1182,['n'],1,right,['8'],4,234,[-0.11576358],100,44,hard,plus,dotcolour,beta,,,35,21,M,L,
134,8,8,3,1,53,27,1300,['c'],1,left,['0'],6,197,[0.12037169],100,53,easy,plus,dotcolour,beta,,,35,21,M,L,
135,9,9,3,1,27,53,1251,['n'],1,right,['9'],5,196,[-0.08166047],100,53,easy,plus,dotcolour,beta,,,35,21,M,L,
136,10,10,3,1,36,44,1116,['c'],0,right,['9'],5,762,[0.15236947],99,44,hard,plus,dotcolour,beta,,,35,21,M,L,
137,11,11,3,1,47,33,1116,['c'],1,left,['9'],5,160,[0.09746367],100,47,medium,plus,dotcolour,beta,,,35,21,M,L,
138,12,12,3,1,44,36,1183,['n'],0,left,['8'],4,147,[-0.06641043],100,44,hard,plus,dotcolour,beta,,,35,21,M,L,
139,13,13,3,1,36,44,1383,['c'],0,right,['9'],5,151,[0.10234964],100,44,hard,plus,dotcolour,beta,,,35,21,M,L,
140,14,14,3,1,33,47,1517,['c'],0,right,['8'],4,349,[0.0819116],99,47,medium,plus,dotcolour,beta,,,35,21,M,L,
141,15,15,3,1,47,33,901,['c'],1,left,['9'],5,269,[0.13365265],100,47,medium,plus,dotcolour,beta,,,35,21,M,L,
142,16,16,3,1,33,47,1300,['n'],1,right,['9'],5,271,[-0.11255363],100,47,medium,plus,dotcolour,beta,,,35,21,M,L,
143,17,17,3,1,33,47,1517,['c'],0,right,['9'],5,201,[0.14379768],100,47,medium,plus,dotcolour,beta,,,35,21,M,L,
144,18,18,3,1,27,53,917,['n'],1,right,['9'],5,246,[-0.15181949],100,53,easy,plus,dotcolour,beta,,,35,21,M,L,
145,19,19,3,1,33,47,1167,['n'],1,right,['9'],5,207,[-0.11239695],100,47,medium,plus,dotcolour,beta,,,35,21,M,L,
146,20,20,3,1,53,27,1550,['c'],1,left,['9'],5,250,[-0.03200622],70,53,easy,plus,dotcolour,beta,,,35,21,M,L,
147,21,21,3,1,36,44,1351,['n'],1,right,['8'],4,171,[-0.1382605],100,44,hard,plus,dotcolour,beta,,,35,21,M,L,
148,22,22,3,1,53,27,850,['n'],0,left,['9'],5,2707,[0.81625392],0,53,easy,plus,dotcolour,beta,,,35,21,M,L,
149,23,23,3,1,53,27,1149,['c'],1,left,['9'],5,202,[0.13644734],100,53,easy,plus,dotcolour,beta,,,35,21,M,L,
150,24,24,3,1,44,36,833,['c'],1,left,['9'],5,138,[0.08138601],100,44,hard,plus,dotcolour,beta,,,35,21,M,L,
151,25,25,3,1,44,36,1050,['c'],1,left,['8'],4,131,[0.12663733],100,44,hard,plus,dotcolour,beta,,,35,21,M,L,
152,26,26,3,1,27,53,1084,['n'],1,right,['0'],6,356,[-0.05624366],97,53,easy,plus,dotcolour,beta,,,35,21,M,L,
153,27,27,3,1,47,33,850,['c'],1,left,['9'],5,158,[0.08797846],100,47,medium,plus,dotcolour,beta,,,35,21,M,L,
154,28,28,3,1,44,36,967,['c'],1,left,['9'],5,169,[0.11215704],100,44,hard,plus,dotcolour,beta,,,35,21,M,L,
155,29,29,3,1,33,47,951,['n'],1,right,['9'],5,198,[-0.07252921],99,47,medium,plus,dotcolour,beta,,,35,21,M,L,
156,30,30,3,1,27,53,1150,['n'],1,right,['9'],5,161,[-0.14285628],100,53,easy,plus,dotcolour,beta,,,35,21,M,L,
157,31,31,3,1,36,44,801,['c'],0,right,['9'],5,180,[0.07196182],100,44,hard,plus,dotcolour,beta,,,35,21,M,L,
158,32,32,3,1,27,53,783,['n'],1,right,['0'],6,174,[-0.10383253],100,53,easy,plus,dotcolour,beta,,,35,21,M,L,
159,33,33,3,1,27,53,901,['n'],1,right,['8'],4,516,[-0.21341181],100,53,easy,plus,dotcolour,beta,,,35,21,M,L,
160,34,34,3,1,44,36,883,['c'],1,left,['9'],5,166,[0.0315024],98,44,hard,plus,dotcolour,beta,,,35,21,M,L,
161,35,35,3,1,44,36,766,['c'],1,left,['9'],5,178,[0.09646943],100,44,hard,plus,dotcolour,beta,,,35,21,M,L,
162,36,36,3,1,36,44,1267,['c'],0,right,['8'],4,153,[0.11333853],100,44,hard,plus,dotcolour,beta,,,35,21,M,L,
163,37,37,3,1,47,33,833,['c'],1,left,['9'],5,187,[0.14982797],100,47,medium,plus,dotcolour,beta,,,35,21,M,L,
164,38,38,3,1,44,36,750,['c'],1,left,['0'],6,319,[0.13717589],100,44,hard,plus,dotcolour,beta,,,35,21,M,L,
165,39,39,3,1,47,33,734,['c'],1,left,['0'],6,191,[-0.0159791],84,47,medium,plus,dotcolour,beta,,,35,21,M,L,
166,40,40,3,1,53,27,634,['c'],1,left,['0'],6,207,[0.15207828],100,53,easy,plus,dotcolour,beta,,,35,21,M,L,
167,41,41,3,1,33,47,1183,['c'],0,right,['8'],4,177,[0.07890421],100,47,medium,plus,dotcolour,beta,,,35,21,M,L,
168,42,0,4,1,36,44,1601,['c'],0,right,['9'],5,158,[0.07576356],100,44,hard,plus,dotcolour,beta,,,35,21,M,L,
169,43,1,4,1,27,53,833,['n'],1,right,['0'],6,1159,[-0.39523879],100,53,easy,plus,dotcolour,beta,,,35,21,M,L,
170,44,2,4,1,33,47,1051,['n'],1,right,['0'],6,239,[-0.20269184],100,47,medium,plus,dotcolour,beta,,,35,21,M,L,
171,45,3,4,1,36,44,1101,['n'],1,right,['9'],5,139,[-0.04613584],99,44,hard,plus,dotcolour,beta,,,35,21,M,L,
172,46,4,4,1,47,33,732,['c'],1,left,['9'],5,201,[0.12471377],100,47,medium,plus,dotcolour,beta,,,35,21,M,L,
173,47,5,4,1,27,53,1550,['c'],0,right,['8'],4,165,[0.04453486],99,53,easy,plus,dotcolour,beta,,,35,21,M,L,
174,48,6,4,1,47,33,884,['c'],1,left,['0'],6,124,[0.12404453],100,47,medium,plus,dotcolour,beta,,,35,21,M,L,
175,49,7,4,1,44,36,866,['c'],1,left,['9'],5,157,[0.05216771],99,44,hard,plus,dotcolour,beta,,,35,21,M,L,
176,50,8,4,1,33,47,1168,['n'],1,right,['9'],5,193,[-0.1044998],100,47,medium,plus,dotcolour,beta,,,35,21,M,L,
177,51,9,4,1,33,47,700,['n'],1,right,['9'],5,159,[-0.0856809],100,47,medium,plus,dotcolour,beta,,,35,21,M,L,
178,52,10,4,1,53,27,751,['c'],1,left,['0'],6,179,[0.16009213],100,53,easy,plus,dotcolour,beta,,,35,21,M,L,
179,53,11,4,1,47,33,734,['c'],1,left,['0'],6,128,[0.11639457],100,47,medium,plus,dotcolour,beta,,,35,21,M,L,
180,54,12,4,1,33,47,1134,['n'],1,right,['9'],5,191,[-0.14494966],100,47,medium,plus,dotcolour,beta,,,35,21,M,L,
181,55,13,4,1,53,27,734,['c'],1,left,['0'],6,147,[0.08809989],100,53,easy,plus,dotcolour,beta,,,35,21,M,L,
182,56,14,4,1,53,27,517,['c'],1,left,['0'],6,129,[0.16343159],100,53,easy,plus,dotcolour,beta,,,35,21,M,L,
183,57,15,4,1,27,53,900,['n'],1,right,['0'],6,202,[-0.21098641],100,53,easy,plus,dotcolour,beta,,,35,21,M,L,
184,58,16,4,1,44,36,650,['c'],1,left,['9'],5,185,[0.08322188],100,44,hard,plus,dotcolour,beta,,,35,21,M,L,
185,59,17,4,1,33,47,617,['n'],1,right,['0'],6,194,[-0.18311986],100,47,medium,plus,dotcolour,beta,,,35,21,M,L,
186,60,18,4,1,36,44,817,['n'],1,right,['9'],5,179,[-0.06351816],99,44,hard,plus,dotcolour,beta,,,35,21,M,L,
187,61,19,4,1,27,53,817,['n'],1,right,['0'],6,140,[-0.0599912],100,53,easy,plus,dotcolour,beta,,,35,21,M,L,
188,62,20,4,1,53,27,883,['c'],1,left,['0'],6,260,[0.01034175],91,53,easy,plus,dotcolour,beta,,,35,21,M,L,
189,63,21,4,1,47,33,650,['c'],1,left,['0'],6,145,[0.0373349],99,47,medium,plus,dotcolour,beta,,,35,21,M,L,
190,64,22,4,1,33,47,917,['n'],1,right,['0'],6,208,[-0.07585244],99,47,medium,plus,dotcolour,beta,,,35,21,M,L,
191,65,23,4,1,47,33,649,['c'],1,left,['0'],6,158,[0.1068685],100,47,medium,plus,dotcolour,beta,,,35,21,M,L,
192,66,24,4,1,36,44,1084,['n'],1,right,['8'],4,182,[-0.12760185],100,44,hard,plus,dotcolour,beta,,,35,21,M,L,
193,67,25,4,1,53,27,666,['c'],1,left,['0'],6,190,[0.137134],100,53,easy,plus,dotcolour,beta,,,35,21,M,L,
194,68,26,4,1,27,53,1199,['n'],1,right,['0'],6,126,[-0.06380797],100,53,easy,plus,dotcolour,beta,,,35,21,M,L,
195,69,27,4,1,36,44,784,['c'],0,right,['9'],5,171,[-0.01415853],86,44,hard,plus,dotcolour,beta,,,35,21,M,L,
196,70,28,4,1,36,44,1016,['c'],0,right,['9'],5,165,[0.06947953],100,44,hard,plus,dotcolour,beta,,,35,21,M,L,
197,71,29,4,1,53,27,650,['c'],1,left,['0'],6,158,[0.09240592],100,53,easy,plus,dotcolour,beta,,,35,21,M,L,
198,72,30,4,1,53,27,617,['c'],1,left,['0'],6,160,[0.02452986],97,53,easy,plus,dotcolour,beta,,,35,21,M,L,
199,73,31,4,1,36,44,833,['n'],1,right,['9'],5,169,[-0.0737086],100,44,hard,plus,dotcolour,beta,,,35,21,M,L,
200,74,32,4,1,44,36,783,['c'],1,left,['9'],5,149,[0.05766524],99,44,hard,plus,dotcolour,beta,,,35,21,M,L,
201,75,33,4,1,47,33,667,['c'],1,left,['0'],6,125,[0.09274769],100,47,medium,plus,dotcolour,beta,,,35,21,M,L,
202,76,34,4,1,33,47,1183,['n'],1,right,['0'],6,155,[-0.12713055],100,47,medium,plus,dotcolour,beta,,,35,21,M,L,
203,77,35,4,1,44,36,750,['c'],1,left,['0'],6,167,[0.18962186],100,44,hard,plus,dotcolour,beta,,,35,21,M,L,
204,78,36,4,1,44,36,683,['c'],1,left,['0'],6,159,[0.02611929],98,44,hard,plus,dotcolour,beta,,,35,21,M,L,
205,79,37,4,1,27,53,717,['n'],1,right,['0'],6,157,[-0.041484],99,53,easy,plus,dotcolour,beta,,,35,21,M,L,
206,80,38,4,1,44,36,550,['c'],1,left,['0'],6,145,[0.04195005],99,44,hard,plus,dotcolour,beta,,,35,21,M,L,
207,81,39,4,1,27,53,767,['n'],1,right,['0'],6,166,[-0.11719089],100,53,easy,plus,dotcolour,beta,,,35,21,M,L,
208,82,40,4,1,47,33,1050,['c'],1,left,['0'],6,143,[0.01131771],96,47,medium,plus,dotcolour,beta,,,35,21,M,L,
209,83,41,4,1,44,36,817,['c'],1,left,['9'],5,153,[0.0689596],100,44,hard,plus,dotcolour,beta,,,35,21,M,L,
210,84,0,5,1,53,27,917,['c'],1,left,['0'],6,120,[0.11635987],100,53,easy,plus,dotcolour,beta,,,35,21,M,L,
211,85,1,5,1,27,53,834,['n'],1,right,['0'],6,75,[-0.10501343],100,53,easy,plus,dotcolour,beta,,,35,21,M,L,
212,86,2,5,1,47,33,600,['c'],1,left,['0'],6,121,[0.12552898],100,47,medium,plus,dotcolour,beta,,,35,21,M,L,
213,87,3,5,1,27,53,600,['n'],1,right,['0'],6,102,[-0.19399206],100,53,easy,plus,dotcolour,beta,,,35,21,M,L,
214,88,4,5,1,27,53,733,['n'],1,right,['0'],6,118,[-0.0751614],100,53,easy,plus,dotcolour,beta,,,35,21,M,L,
215,89,5,5,1,47,33,567,['c'],1,left,['0'],6,157,[0.09428974],100,47,medium,plus,dotcolour,beta,,,35,21,M,L,
216,90,6,5,1,44,36,517,['c'],1,left,['0'],6,131,[0.04771778],99,44,hard,plus,dotcolour,beta,,,35,21,M,L,
217,91,7,5,1,44,36,498,['c'],1,left,['0'],6,147,[0.06422001],100,44,hard,plus,dotcolour,beta,,,35,21,M,L,
218,92,8,5,1,33,47,1033,['n'],1,right,['9'],5,164,[-0.09533814],100,47,medium,plus,dotcolour,beta,,,35,21,M,L,
219,93,9,5,1,53,27,934,['n'],0,left,['0'],6,90,[-0.08063634],100,53,easy,plus,dotcolour,beta,,,35,21,M,L,
220,94,10,5,1,33,47,883,['c'],0,right,['9'],5,173,[0.0407557],98,47,medium,plus,dotcolour,beta,,,35,21,M,L,
221,95,11,5,1,47,33,850,['c'],1,left,['9'],5,205,[0.05392817],99,47,medium,plus,dotcolour,beta,,,35,21,M,L,
222,96,12,5,1,27,53,1783,['n'],1,right,['9'],5,151,[-0.10881937],100,53,easy,plus,dotcolour,beta,,,35,21,M,L,
223,97,13,5,1,36,44,1266,['n'],1,right,['9'],5,152,[-0.05222223],99,44,hard,plus,dotcolour,beta,,,35,21,M,L,
224,98,14,5,1,53,27,567,['c'],1,left,['0'],6,141,[0.08583497],100,53,easy,plus,dotcolour,beta,,,35,21,M,L,
225,99,15,5,1,36,44,667,['n'],1,right,['9'],5,197,[-0.13985831],100,44,hard,plus,dotcolour,beta,,,35,21,M,L,
226,100,16,5,1,53,27,683,['c'],1,left,['0'],6,155,[0.07367301],100,53,easy,plus,dotcolour,beta,,,35,21,M,L,
227,101,17,5,1,33,47,850,['n'],1,right,['9'],5,340,[-0.08829021],99,47,medium,plus,dotcolour,beta,,,35,21,M,L,
228,102,18,5,1,27,53,567,['n'],1,right,['9'],5,193,[-0.13419356],100,53,easy,plus,dotcolour,beta,,,35,21,M,L,
229,103,19,5,1,27,53,1167,['n'],1,right,['9'],5,188,[-0.1472494],100,53,easy,plus,dotcolour,beta,,,35,21,M,L,
230,104,20,5,1,53,27,667,['c'],1,left,['0'],6,187,[0.12455222],100,53,easy,plus,dotcolour,beta,,,35,21,M,L,
231,105,21,5,1,47,33,866,['c'],1,left,['0'],6,171,[0.05396693],99,47,medium,plus,dotcolour,beta,,,35,21,M,L,
232,106,22,5,1,36,44,984,['n'],1,right,['9'],5,167,[-0.0106358],95,44,hard,plus,dotcolour,beta,,,35,21,M,L,
233,107,23,5,1,33,47,850,['n'],1,right,['9'],5,119,[-0.14754519],100,47,medium,plus,dotcolour,beta,,,35,21,M,L,
234,108,24,5,1,33,47,834,['n'],1,right,['9'],5,186,[-0.10387734],100,47,medium,plus,dotcolour,beta,,,35,21,M,L,
235,109,25,5,1,47,33,1150,['c'],1,left,['9'],5,175,[0.14438399],100,47,medium,plus,dotcolour,beta,,,35,21,M,L,
236,110,26,5,1,44,36,1401,['c'],1,left,['9'],5,169,[0.06305658],99,44,hard,plus,dotcolour,beta,,,35,21,M,L,
237,111,27,5,1,53,27,1233,['c'],1,left,['0'],6,305,[0.24957907],100,53,easy,plus,dotcolour,beta,,,35,21,M,L,
238,112,28,5,1,44,36,1783,['c'],1,left,['9'],5,103,[0.08978455],100,44,hard,plus,dotcolour,beta,,,35,21,M,L,
239,113,29,5,1,33,47,1034,['n'],1,right,['9'],5,131,[-0.12764588],100,47,medium,plus,dotcolour,beta,,,35,21,M,L,
240,114,30,5,1,36,44,850,['c'],0,right,['9'],5,213,[0.0325492],97,44,hard,plus,dotcolour,beta,,,35,21,M,L,
241,115,31,5,1,27,53,1649,['n'],1,right,['9'],5,155,[-0.13935378],100,53,easy,plus,dotcolour,beta,,,35,21,M,L,
242,116,32,5,1,53,27,1650,['c'],1,left,['0'],6,181,[0.10948224],100,53,easy,plus,dotcolour,beta,,,35,21,M,L,
243,117,33,5,1,44,36,817,['c'],1,left,['9'],5,182,[0.0843727],100,44,hard,plus,dotcolour,beta,,,35,21,M,L,
244,118,34,5,1,36,44,950,['n'],1,right,['9'],5,122,[-0.0882962],100,44,hard,plus,dotcolour,beta,,,35,21,M,L,
245,119,35,5,1,47,33,2817,['c'],1,left,['8'],4,166,[0.11037325],100,47,medium,plus,dotcolour,beta,,,35,21,M,L,
246,120,36,5,1,44,36,1650,['c'],1,left,['8'],4,455,[0.13893956],99,44,hard,plus,dotcolour,beta,,,35,21,M,L,
247,121,37,5,1,44,36,950,['c'],1,left,['9'],5,112,[0.09697088],100,44,hard,plus,dotcolour,beta,,,35,21,M,L,
248,122,38,5,1,36,44,1950,['n'],1,right,['8'],4,134,[-0.10466012],100,44,hard,plus,dotcolour,beta,,,35,21,M,L,
249,123,39,5,1,33,47,1584,['c'],0,right,['9'],5,131,[0.03925822],99,47,medium,plus,dotcolour,beta,,,35,21,M,L,
250,124,40,5,1,47,33,1667,['c'],1,left,['0'],6,124,[0.09049014],100,47,medium,plus,dotcolour,beta,,,35,21,M,L,
251,125,41,5,1,36,44,1317,['n'],1,right,['9'],5,140,[-0.03529457],99,44,hard,plus,dotcolour,beta,,,35,21,M,L,
252,0,0,6,2,47,33,1568,['c'],1,left,['9'],5,89,[0.09660779],92,47,medium,minus,dotcolour,beta,,,35,21,M,L,
253,1,1,6,2,36,44,834,['c'],0,right,['9'],5,126,[0.0793661],77,44,hard,minus,dotcolour,beta,,,35,21,M,L,
254,2,2,6,2,53,27,734,['c'],1,left,['0'],6,124,[0.0742604],72,53,easy,minus,dotcolour,beta,,,35,21,M,L,
255,3,3,6,2,27,53,1050,['n'],1,right,['9'],5,78,[-0.05600464],51,53,easy,minus,dotcolour,beta,,,35,21,M,L,
256,4,4,6,2,27,53,917,['n'],1,right,['0'],6,112,[-0.09509652],89,53,easy,minus,dotcolour,beta,,,35,21,M,L,
257,5,5,6,2,47,33,649,['c'],1,left,['0'],6,130,[0.04017278],32,47,medium,minus,dotcolour,beta,,,35,21,M,L,
258,6,6,6,2,33,47,1300,['n'],1,right,['9'],5,154,[-0.06600573],62,47,medium,minus,dotcolour,beta,,,35,21,M,L,
259,7,7,6,2,36,44,1301,['n'],1,right,['9'],5,259,[-0.16828839],98,44,hard,minus,dotcolour,beta,,,35,21,M,L,
260,8,8,6,2,36,44,1284,['n'],1,right,['9'],5,478,[-0.14318455],91,44,hard,minus,dotcolour,beta,,,35,21,M,L,
261,9,9,6,2,36,44,834,['n'],1,right,['0'],6,139,[-0.05913369],54,44,hard,minus,dotcolour,beta,,,35,21,M,L,
262,10,10,6,2,27,53,667,['n'],1,right,['0'],6,131,[-0.03243997],24,53,easy,minus,dotcolour,beta,,,35,21,M,L,
263,11,11,6,2,44,36,1734,['n'],0,left,['8'],4,98,[-0.06670455],65,44,hard,minus,dotcolour,beta,,,35,21,M,L,
264,12,12,6,2,33,47,1384,['n'],1,right,['9'],5,120,[-0.11552309],96,47,medium,minus,dotcolour,beta,,,35,21,M,L,
265,13,13,6,2,47,33,1367,['c'],1,left,['8'],4,78,[0.06602101],66,47,medium,minus,dotcolour,beta,,,35,21,M,L,
266,14,14,6,2,27,53,934,['n'],1,right,['9'],5,151,[-0.1386805],98,53,easy,minus,dotcolour,beta,,,35,21,M,L,
267,15,15,6,2,44,36,2467,['c'],1,left,['8'],4,103,[0.09266672],89,44,hard,minus,dotcolour,beta,,,35,21,M,L,
268,16,16,6,2,44,36,1484,['c'],1,left,['8'],4,89,[0.06757578],67,44,hard,minus,dotcolour,beta,,,35,21,M,L,
269,17,17,6,2,44,36,2284,['c'],1,left,['9'],5,124,[0.05178639],45,44,hard,minus,dotcolour,beta,,,35,21,M,L,
270,18,18,6,2,27,53,2100,['n'],1,right,['8'],4,316,[-0.11620043],87,53,easy,minus,dotcolour,beta,,,35,21,M,L,
271,19,19,6,2,44,36,1199,['c'],1,left,['8'],4,128,[0.07750819],75,44,hard,minus,dotcolour,beta,,,35,21,M,L,
272,20,20,6,2,53,27,818,['c'],1,left,['9'],5,155,[0.0683271],64,53,easy,minus,dotcolour,beta,,,35,21,M,L,
273,21,21,6,2,47,33,1884,['c'],1,left,['8'],4,108,[0.06902624],68,47,medium,minus,dotcolour,beta,,,35,21,M,L,
274,22,22,6,2,44,36,884,['c'],1,left,['8'],4,109,[0.08388352],82,44,hard,minus,dotcolour,beta,,,35,21,M,L,
275,23,23,6,2,53,27,733,['c'],1,left,['9'],5,140,[0.08446984],80,53,easy,minus,dotcolour,beta,,,35,21,M,L,
276,24,24,6,2,53,27,700,['c'],1,left,['0'],6,140,[0.13395035],98,53,easy,minus,dotcolour,beta,,,35,21,M,L,
277,25,25,6,2,33,47,1901,['c'],0,right,['8'],4,108,[0.03813309],28,47,medium,minus,dotcolour,beta,,,35,21,M,L,
278,26,26,6,2,33,47,1601,['c'],0,right,['8'],4,104,[0.07054207],70,47,medium,minus,dotcolour,beta,,,35,21,M,L,
279,27,27,6,2,33,47,1801,['n'],1,right,['8'],4,125,[-0.1049766],93,47,medium,minus,dotcolour,beta,,,35,21,M,L,
280,28,28,6,2,33,47,1616,['c'],0,right,['8'],4,128,[0.05339809],47,47,medium,minus,dotcolour,beta,,,35,21,M,L,
281,29,29,6,2,36,44,917,['c'],0,right,['8'],4,336,[-0.03170271],6,44,hard,minus,dotcolour,beta,,,35,21,M,L,
282,30,30,6,2,53,27,1184,['c'],1,left,['0'],6,140,[0.13921556],98,53,easy,minus,dotcolour,beta,,,35,21,M,L,
283,31,31,6,2,27,53,1233,['n'],1,right,['3'],3,1206,[-0.18269128],89,53,easy,minus,dotcolour,beta,,,35,21,M,L,
284,32,32,6,2,44,36,1383,['c'],1,left,['8'],4,1047,[-0.1378512],3,44,hard,minus,dotcolour,beta,,,35,21,M,L,
285,33,33,6,2,33,47,1050,['n'],1,right,['8'],4,1084,[-0.25959499],97,47,medium,minus,dotcolour,beta,,,35,21,M,L,
286,34,34,6,2,36,44,917,['n'],1,right,['8'],4,565,[-0.13692352],88,44,hard,minus,dotcolour,beta,,,35,21,M,L,
287,35,35,6,2,47,33,851,['c'],1,left,['9'],5,126,[0.04740018],40,47,medium,minus,dotcolour,beta,,,35,21,M,L,
288,36,36,6,2,47,33,683,['c'],1,left,['8'],4,191,[0.07741987],71,47,medium,minus,dotcolour,beta,,,35,21,M,L,
289,37,37,6,2,47,33,833,['c'],1,left,['8'],4,151,[0.05934588],54,47,medium,minus,dotcolour,beta,,,35,21,M,L,
290,38,38,6,2,53,27,784,['c'],1,left,['0'],6,194,[0.10003408],86,53,easy,minus,dotcolour,beta,,,35,21,M,L,
291,39,39,6,2,36,44,1450,['n'],1,right,['9'],5,186,[0.0499899],1,44,hard,minus,dotcolour,beta,,,35,21,M,L,
292,40,40,6,2,27,53,1867,['n'],1,right,['8'],4,450,[-0.18499025],97,53,easy,minus,dotcolour,beta,,,35,21,M,L,
293,41,41,6,2,53,27,817,['c'],1,left,['9'],5,768,[0.16506635],90,53,easy,minus,dotcolour,beta,,,35,21,M,L,
294,42,0,7,2,33,47,1335,['n'],1,right,['0'],6,259,[-0.15490588],97,47,medium,minus,dotcolour,beta,,,35,21,M,L,
295,43,1,7,2,44,36,668,['c'],1,left,['0'],6,143,[0.05828735],53,44,hard,minus,dotcolour,beta,,,35,21,M,L,
296,44,2,7,2,36,44,1233,['n'],1,right,['9'],5,233,[-0.02587337],25,44,hard,minus,dotcolour,beta,,,35,21,M,L,
297,45,3,7,2,53,27,833,['n'],0,left,['0'],6,135,[-0.04820279],41,53,easy,minus,dotcolour,beta,,,35,21,M,L,
298,46,4,7,2,27,53,784,['c'],0,right,['0'],6,332,[-0.02264768],8,53,easy,minus,dotcolour,beta,,,35,21,M,L,
299,47,5,7,2,44,36,3350,['c'],1,left,['9'],5,162,[0.09185196],84,44,hard,minus,dotcolour,beta,,,35,21,M,L,
300,48,6,7,2,44,36,667,['c'],1,left,['9'],5,130,[0.1174829],96,44,hard,minus,dotcolour,beta,,,35,21,M,L,
301,49,7,7,2,44,36,717,['c'],1,left,['0'],6,138,[0.03860311],31,44,hard,minus,dotcolour,beta,,,35,21,M,L,
302,50,8,7,2,27,53,716,['n'],1,right,['0'],6,129,[-0.04440294],36,53,easy,minus,dotcolour,beta,,,35,21,M,L,
303,51,9,7,2,33,47,600,['n'],1,right,['0'],6,69,[-0.02127393],9,47,medium,minus,dotcolour,beta,,,35,21,M,L,
304,52,10,7,2,44,36,1499,['c'],1,left,['9'],5,200,[0.15292237],98,44,hard,minus,dotcolour,beta,,,35,21,M,L,
305,53,11,7,2,47,33,817,['n'],0,left,['0'],6,136,[-0.00188874],7,47,medium,minus,dotcolour,beta,,,35,21,M,L,
306,54,12,7,2,53,27,667,['c'],1,left,['0'],6,114,[0.03857991],29,53,easy,minus,dotcolour,beta,,,35,21,M,L,
307,55,13,7,2,33,47,1850,['n'],1,right,['8'],4,149,[-0.06384685],60,47,medium,minus,dotcolour,beta,,,35,21,M,L,
308,56,14,7,2,47,33,767,['c'],1,left,['9'],5,233,[0.13189228],95,47,medium,minus,dotcolour,beta,,,35,21,M,L,
309,57,15,7,2,47,33,800,['c'],1,left,['9'],5,177,[0.13500133],97,47,medium,minus,dotcolour,beta,,,35,21,M,L,
310,58,16,7,2,44,36,751,['c'],1,left,['0'],6,165,[0.06871509],64,44,hard,minus,dotcolour,beta,,,35,21,M,L,
311,59,17,7,2,36,44,832,['n'],1,right,['9'],5,175,[-0.13461153],97,44,hard,minus,dotcolour,beta,,,35,21,M,L,
312,60,18,7,2,44,36,600,['c'],1,left,['9'],5,209,[0.060379],55,44,hard,minus,dotcolour,beta,,,35,21,M,L,
313,61,19,7,2,33,47,1834,['n'],1,right,['8'],4,200,[-0.11275915],91,47,medium,minus,dotcolour,beta,,,35,21,M,L,
314,62,20,7,2,27,53,1384,['n'],1,right,['9'],5,194,[-0.15529639],98,53,easy,minus,dotcolour,beta,,,35,21,M,L,
315,63,21,7,2,33,47,732,['n'],1,right,['9'],5,198,[-0.06946614],64,47,medium,minus,dotcolour,beta,,,35,21,M,L,
316,64,22,7,2,27,53,600,['n'],1,right,['0'],6,247,[-0.09484367],81,53,easy,minus,dotcolour,beta,,,35,21,M,L,
317,65,23,7,2,36,44,783,['n'],1,right,['9'],5,207,[-0.1391712],96,44,hard,minus,dotcolour,beta,,,35,21,M,L,
318,66,24,7,2,53,27,900,['c'],1,left,['9'],5,196,[0.1485396],98,53,easy,minus,dotcolour,beta,,,35,21,M,L,
319,67,25,7,2,47,33,983,['c'],1,left,['9'],5,206,[0.11792931],92,47,medium,minus,dotcolour,beta,,,35,21,M,L,
320,68,26,7,2,27,53,816,['n'],1,right,['0'],6,358,[-0.00571663],18,53,easy,minus,dotcolour,beta,,,35,21,M,L,
321,69,27,7,2,33,47,983,['c'],0,right,['9'],5,433,[-0.03704824],7,47,medium,minus,dotcolour,beta,,,35,21,M,L,
322,70,28,7,2,53,27,1567,['c'],1,left,['9'],5,179,[0.15078118],98,53,easy,minus,dotcolour,beta,,,35,21,M,L,
323,71,29,7,2,27,53,1866,['n'],1,right,['8'],4,179,[-0.09054139],82,53,easy,minus,dotcolour,beta,,,35,21,M,L,
324,72,30,7,2,53,27,784,['n'],0,left,['0'],6,141,[0.00583713],5,53,easy,minus,dotcolour,beta,,,35,21,M,L,
325,73,31,7,2,33,47,2901,['n'],1,right,['8'],4,132,[-0.08969693],84,47,medium,minus,dotcolour,beta,,,35,21,M,L,
326,74,32,7,2,36,44,1584,['n'],1,right,['8'],4,137,[-0.08658974],82,44,hard,minus,dotcolour,beta,,,35,21,M,L,
327,75,33,7,2,53,27,1084,['c'],1,left,['8'],4,145,[0.13429538],98,53,easy,minus,dotcolour,beta,,,35,21,M,L,
328,76,34,7,2,53,27,1234,['c'],1,left,['9'],5,180,[0.08480596],78,53,easy,minus,dotcolour,beta,,,35,21,M,L,
329,77,35,7,2,47,33,1084,['c'],1,left,['9'],5,370,[0.16204152],96,47,medium,minus,dotcolour,beta,,,35,21,M,L,
330,78,36,7,2,47,33,550,['c'],1,left,['9'],5,151,[0.0218775],17,47,medium,minus,dotcolour,beta,,,35,21,M,L,
331,79,37,7,2,36,44,1067,['n'],1,right,['9'],5,416,[-0.09740013],76,44,hard,minus,dotcolour,beta,,,35,21,M,L,
332,80,38,7,2,47,33,734,['c'],1,left,['9'],5,155,[0.11780199],95,47,medium,minus,dotcolour,beta,,,35,21,M,L,
333,81,39,7,2,27,53,735,['n'],1,right,['0'],6,129,[-0.10782365],93,53,easy,minus,dotcolour,beta,,,35,21,M,L,
334,82,40,7,2,36,44,1017,['n'],1,right,['8'],4,140,[-0.0910613],85,44,hard,minus,dotcolour,beta,,,35,21,M,L,
335,83,41,7,2,36,44,1550,['c'],0,right,['8'],4,146,[0.06930233],66,44,hard,minus,dotcolour,beta,,,35,21,M,L,
336,84,0,8,2,36,44,1000,['n'],1,right,['8'],4,304,[0.00441169],12,44,hard,minus,dotcolour,beta,,,35,21,M,L,
337,85,1,8,2,44,36,1051,['c'],1,left,['9'],5,99,[0.05237484],45,44,hard,minus,dotcolour,beta,,,35,21,M,L,
338,86,2,8,2,27,53,700,['n'],1,right,['0'],6,116,[-0.08610841],83,53,easy,minus,dotcolour,beta,,,35,21,M,L,
339,87,3,8,2,47,33,950,['c'],1,left,['0'],6,67,[0.12868372],99,47,medium,minus,dotcolour,beta,,,35,21,M,L,
340,88,4,8,2,44,36,884,['n'],0,left,['8'],4,110,[-0.03950133],29,44,hard,minus,dotcolour,beta,,,35,21,M,L,
341,89,5,8,2,47,33,750,['c'],1,left,['9'],5,133,[0.05777311],53,47,medium,minus,dotcolour,beta,,,35,21,M,L,
342,90,6,8,2,47,33,951,['n'],0,left,['8'],4,83,[-0.09039805],90,47,medium,minus,dotcolour,beta,,,35,21,M,L,
343,91,7,8,2,44,36,800,['c'],1,left,['9'],5,105,[0.11246939],96,44,hard,minus,dotcolour,beta,,,35,21,M,L,
344,92,8,8,2,33,47,1001,['n'],1,right,['9'],5,127,[-0.09825775],90,47,medium,minus,dotcolour,beta,,,35,21,M,L,
345,93,9,8,2,33,47,684,['n'],1,right,['9'],5,119,[-0.04761849],40,47,medium,minus,dotcolour,beta,,,35,21,M,L,
346,94,10,8,2,36,44,817,['c'],0,right,['9'],5,116,[0.05762797],53,44,hard,minus,dotcolour,beta,,,35,21,M,L,
347,95,11,8,2,33,47,700,['n'],1,right,['9'],5,140,[-0.12163654],96,47,medium,minus,dotcolour,beta,,,35,21,M,L,
348,96,12,8,2,53,27,1000,['c'],1,left,['0'],6,112,[0.08215876],81,53,easy,minus,dotcolour,beta,,,35,21,M,L,
349,97,13,8,2,53,27,684,['c'],1,left,['0'],6,121,[0.09719031],90,53,easy,minus,dotcolour,beta,,,35,21,M,L,
350,98,14,8,2,36,44,684,['n'],1,right,['0'],6,106,[-0.033492],23,44,hard,minus,dotcolour,beta,,,35,21,M,L,
351,99,15,8,2,44,36,750,['c'],1,left,['9'],5,169,[0.09851301],87,44,hard,minus,dotcolour,beta,,,35,21,M,L,
352,100,16,8,2,27,53,784,['n'],1,right,['0'],6,101,[-0.1193857],97,53,easy,minus,dotcolour,beta,,,35,21,M,L,
353,101,17,8,2,33,47,1267,['c'],0,right,['8'],4,135,[0.0907222],85,47,medium,minus,dotcolour,beta,,,35,21,M,L,
354,102,18,8,2,47,33,967,['c'],1,left,['0'],6,116,[0.07512841],74,47,medium,minus,dotcolour,beta,,,35,21,M,L,
355,103,19,8,2,53,27,884,['c'],1,left,['9'],5,166,[0.14605349],98,53,easy,minus,dotcolour,beta,,,35,21,M,L,
356,104,20,8,2,27,53,950,['n'],1,right,['9'],5,170,[-0.11949488],94,53,easy,minus,dotcolour,beta,,,35,21,M,L,
357,105,21,8,2,47,33,834,['c'],1,left,['0'],6,363,[0.04400492],41,47,medium,minus,dotcolour,beta,,,35,21,M,L,
358,106,22,8,2,33,47,750,['n'],1,right,['9'],5,200,[-0.06573988],60,47,medium,minus,dotcolour,beta,,,35,21,M,L,
359,107,23,8,2,27,53,1183,['n'],1,right,['9'],5,474,[-0.19051238],97,53,easy,minus,dotcolour,beta,,,35,21,M,L,
360,108,24,8,2,36,44,1267,['c'],0,right,['0'],6,198,[-0.01624227],5,44,hard,minus,dotcolour,beta,,,35,21,M,L,
361,109,25,8,2,53,27,1150,['c'],1,left,['0'],6,121,[0.10412004],93,53,easy,minus,dotcolour,beta,,,35,21,M,L,
362,110,26,8,2,47,33,767,['c'],1,left,['0'],6,119,[0.07841757],77,47,medium,minus,dotcolour,beta,,,35,21,M,L,
363,111,27,8,2,53,27,667,['c'],1,left,['0'],6,113,[0.08130455],80,53,easy,minus,dotcolour,beta,,,35,21,M,L,
364,112,28,8,2,36,44,2484,['c'],0,right,['9'],5,162,[0.0554314],50,44,hard,minus,dotcolour,beta,,,35,21,M,L,
365,113,29,8,2,44,36,1166,['c'],1,left,['8'],4,134,[0.0650367],61,44,hard,minus,dotcolour,beta,,,35,21,M,L,
366,114,30,8,2,27,53,1350,['c'],0,right,['8'],4,132,[0.0919634],86,53,easy,minus,dotcolour,beta,,,35,21,M,L,
367,115,31,8,2,36,44,917,['c'],0,right,['8'],4,124,[0.0295485],21,44,hard,minus,dotcolour,beta,,,35,21,M,L,
368,116,32,8,2,53,27,901,['c'],1,left,['9'],5,140,[0.07329396],70,53,easy,minus,dotcolour,beta,,,35,21,M,L,
369,117,33,8,2,27,53,850,['n'],1,right,['9'],5,149,[-0.07736429],73,53,easy,minus,dotcolour,beta,,,35,21,M,L,
370,118,34,8,2,36,44,1650,['c'],0,right,['9'],5,158,[0.05106996],45,44,hard,minus,dotcolour,beta,,,35,21,M,L,
371,119,35,8,2,44,36,1349,['c'],1,left,['8'],4,132,[0.10794246],93,44,hard,minus,dotcolour,beta,,,35,21,M,L,
372,120,36,8,2,44,36,1167,['c'],1,left,['8'],4,121,[0.12000507],97,44,hard,minus,dotcolour,beta,,,35,21,M,L,
373,121,37,8,2,33,47,1750,['n'],1,right,['8'],4,119,[-0.14690089],99,47,medium,minus,dotcolour,beta,,,35,21,M,L,
374,122,38,8,2,47,33,851,['c'],1,left,['9'],5,266,[0.05008962],45,47,medium,minus,dotcolour,beta,,,35,21,M,L,
375,123,39,8,2,53,27,667,['c'],1,left,['9'],5,190,[0.15718617],99,53,easy,minus,dotcolour,beta,,,35,21,M,L,
376,124,40,8,2,33,47,1051,['n'],1,right,['9'],5,237,[-0.12053183],92,47,medium,minus,dotcolour,beta,,,35,21,M,L,
377,125,41,8,2,27,53,1250,['c'],0,right,['9'],5,196,[0.09369964],83,53,easy,minus,dotcolour,beta,,,35,21,M,L,
378,0,0,9,3,47,33,1800,['c'],1,left,['9'],5,129,[0.11506671],100,47,medium,plus,dotcolour,beta,,,35,21,M,L,
379,1,1,9,3,33,47,1167,['c'],0,right,['9'],5,150,[0.05144746],99,47,medium,plus,dotcolour,beta,,,35,21,M,L,
380,2,2,9,3,44,36,1400,['c'],1,left,['9'],5,130,[0.09352531],100,44,hard,plus,dotcolour,beta,,,35,21,M,L,
381,3,3,9,3,33,47,634,['n'],1,right,['9'],5,124,[-0.09291288],100,47,medium,plus,dotcolour,beta,,,35,21,M,L,
382,4,4,9,3,53,27,834,['c'],1,left,['9'],5,390,[0.25142619],100,53,easy,plus,dotcolour,beta,,,35,21,M,L,
383,5,5,9,3,53,27,734,['c'],1,left,['0'],6,147,[0.11232956],100,53,easy,plus,dotcolour,beta,,,35,21,M,L,
384,6,6,9,3,33,47,684,['n'],1,right,['0'],6,138,[-0.09271322],100,47,medium,plus,dotcolour,beta,,,35,21,M,L,
385,7,7,9,3,27,53,600,['n'],1,right,['0'],6,127,[-0.15238186],100,53,easy,plus,dotcolour,beta,,,35,21,M,L,
386,8,8,9,3,47,33,733,['c'],1,left,['0'],6,134,[0.10288641],100,47,medium,plus,dotcolour,beta,,,35,21,M,L,
387,9,9,9,3,53,27,1467,['c'],1,left,['0'],6,87,[0.08145497],100,53,easy,plus,dotcolour,beta,,,35,21,M,L,
388,10,10,9,3,44,36,567,['c'],1,left,['0'],6,174,[0.07120029],100,44,hard,plus,dotcolour,beta,,,35,21,M,L,
389,11,11,9,3,36,44,717,['n'],1,right,['0'],6,220,[-0.18529981],100,44,hard,plus,dotcolour,beta,,,35,21,M,L,
390,12,12,9,3,44,36,600,['c'],1,left,['0'],6,156,[0.05164833],99,44,hard,plus,dotcolour,beta,,,35,21,M,L,
391,13,13,9,3,47,33,599,['c'],1,left,['0'],6,160,[0.07919814],100,47,medium,plus,dotcolour,beta,,,35,21,M,L,
392,14,14,9,3,36,44,817,['c'],0,right,['0'],6,409,[0.08158332],98,44,hard,plus,dotcolour,beta,,,35,21,M,L,
393,15,15,9,3,44,36,566,['c'],1,left,['0'],6,131,[0.12985753],100,44,hard,plus,dotcolour,beta,,,35,21,M,L,
394,16,16,9,3,36,44,666,['c'],0,right,['0'],6,173,[0.02337806],97,44,hard,plus,dotcolour,beta,,,35,21,M,L,
395,17,17,9,3,47,33,550,['c'],1,left,['0'],6,176,[0.05844137],99,47,medium,plus,dotcolour,beta,,,35,21,M,L,
396,18,18,9,3,27,53,783,['n'],1,right,['0'],6,555,[-0.17480049],100,53,easy,plus,dotcolour,beta,,,35,21,M,L,
397,19,19,9,3,33,47,533,['n'],1,right,['0'],6,192,[-0.020186],96,47,medium,plus,dotcolour,beta,,,35,21,M,L,
398,20,20,9,3,27,53,467,['n'],1,right,['0'],6,111,[-0.1178782],100,53,easy,plus,dotcolour,beta,,,35,21,M,L,
399,21,21,9,3,27,53,500,['n'],1,right,['0'],6,120,[-0.10195573],100,53,easy,plus,dotcolour,beta,,,35,21,M,L,
400,22,22,9,3,27,53,617,['n'],1,right,['0'],6,124,[-0.09655378],100,53,easy,plus,dotcolour,beta,,,35,21,M,L,
401,23,23,9,3,53,27,667,['c'],1,left,['0'],6,134,[0.03312733],99,53,easy,plus,dotcolour,beta,,,35,21,M,L,
402,24,24,9,3,27,53,651,['n'],1,right,['0'],6,111,[-0.10098922],100,53,easy,plus,dotcolour,beta,,,35,21,M,L,
403,25,25,9,3,33,47,1284,['n'],1,right,['9'],5,112,[-0.06861605],100,47,medium,plus,dotcolour,beta,,,35,21,M,L,
404,26,26,9,3,36,44,716,['n'],1,right,['0'],6,89,[-0.02869488],99,44,hard,plus,dotcolour,beta,,,35,21,M,L,
405,27,27,9,3,44,36,734,['c'],1,left,['9'],5,545,[0.08432618],97,44,hard,plus,dotcolour,beta,,,35,21,M,L,
406,28,28,9,3,33,47,617,['n'],1,right,['9'],5,588,[-0.19871792],100,47,medium,plus,dotcolour,beta,,,35,21,M,L,
407,29,29,9,3,27,53,700,['n'],1,right,['0'],6,105,[-0.05019987],100,53,easy,plus,dotcolour,beta,,,35,21,M,L,
408,30,30,9,3,53,27,617,['c'],1,left,['0'],6,94,[0.07517796],100,53,easy,plus,dotcolour,beta,,,35,21,M,L,
409,31,31,9,3,47,33,750,['c'],1,left,['0'],6,109,[0.02719131],99,47,medium,plus,dotcolour,beta,,,35,21,M,L,
410,32,32,9,3,47,33,1466,['n'],0,left,['9'],5,103,[-0.0980598],100,47,medium,plus,dotcolour,beta,,,35,21,M,L,
411,33,33,9,3,47,33,1250,['n'],0,left,['9'],5,155,[-0.07210894],100,47,medium,plus,dotcolour,beta,,,35,21,M,L,
412,34,34,9,3,44,36,1533,['n'],0,left,['9'],5,137,[-0.04814679],99,44,hard,plus,dotcolour,beta,,,35,21,M,L,
413,35,35,9,3,53,27,716,['n'],0,left,['0'],6,128,[-0.02685299],98,53,easy,plus,dotcolour,beta,,,35,21,M,L,
414,36,36,9,3,53,27,500,['n'],0,left,['0'],6,136,[-0.01197298],96,53,easy,plus,dotcolour,beta,,,35,21,M,L,
415,37,37,9,3,44,36,2067,['c'],1,left,['9'],5,98,[0.05739462],100,44,hard,plus,dotcolour,beta,,,35,21,M,L,
416,38,38,9,3,36,44,2316,['n'],1,right,['8'],4,194,[-0.04221747],98,44,hard,plus,dotcolour,beta,,,35,21,M,L,
417,39,39,9,3,33,47,967,['n'],1,right,['9'],5,133,[-0.11447972],100,47,medium,plus,dotcolour,beta,,,35,21,M,L,
418,40,40,9,3,36,44,850,['n'],1,right,['8'],4,831,[-0.24907514],100,44,hard,plus,dotcolour,beta,,,35,21,M,L,
419,41,41,9,3,36,44,1550,['n'],1,right,['8'],4,129,[-0.08665653],100,44,hard,plus,dotcolour,beta,,,35,21,M,L,
420,42,0,10,3,33,47,1484,['c'],0,right,['9'],5,160,[-0.01875405],84,47,medium,plus,dotcolour,beta,,,35,21,M,L,
421,43,1,10,3,27,53,733,['n'],1,right,['0'],6,317,[-0.11796494],100,53,easy,plus,dotcolour,beta,,,35,21,M,L,
422,44,2,10,3,27,53,567,['n'],1,right,['0'],6,147,[-0.13830698],100,53,easy,plus,dotcolour,beta,,,35,21,M,L,
423,45,3,10,3,27,53,1084,['n'],1,right,['9'],5,155,[-0.14426791],100,53,easy,plus,dotcolour,beta,,,35,21,M,L,
424,46,4,10,3,44,36,667,['c'],1,left,['0'],6,140,[0.08834199],100,44,hard,plus,dotcolour,beta,,,35,21,M,L,
425,47,5,10,3,47,33,1516,['c'],1,left,['9'],5,146,[0.1091454],100,47,medium,plus,dotcolour,beta,,,35,21,M,L,
426,48,6,10,3,36,44,1250,['c'],0,right,['9'],5,220,[0.06133995],99,44,hard,plus,dotcolour,beta,,,35,21,M,L,
427,49,7,10,3,44,36,767,['c'],1,left,['9'],5,134,[0.10759302],100,44,hard,plus,dotcolour,beta,,,35,21,M,L,
428,50,8,10,3,53,27,616,['c'],1,left,['0'],6,337,[0.17030039],100,53,easy,plus,dotcolour,beta,,,35,21,M,L,
429,51,9,10,3,53,27,583,['c'],1,left,['0'],6,94,[0.09199935],100,53,easy,plus,dotcolour,beta,,,35,21,M,L,
430,52,10,10,3,36,44,1634,['n'],1,right,['9'],5,114,[-0.09248628],100,44,hard,plus,dotcolour,beta,,,35,21,M,L,
431,53,11,10,3,44,36,816,['c'],1,left,['9'],5,158,[0.11645951],100,44,hard,plus,dotcolour,beta,,,35,21,M,L,
432,54,12,10,3,47,33,1134,['c'],1,left,['0'],6,123,[0.10029689],100,47,medium,plus,dotcolour,beta,,,35,21,M,L,
433,55,13,10,3,44,36,1217,['c'],1,left,['9'],5,175,[0.12452053],100,44,hard,plus,dotcolour,beta,,,35,21,M,L,
434,56,14,10,3,44,36,734,['c'],1,left,['9'],5,147,[0.06462744],100,44,hard,plus,dotcolour,beta,,,35,21,M,L,
435,57,15,10,3,47,33,749,['c'],1,left,['9'],5,120,[0.07383827],100,47,medium,plus,dotcolour,beta,,,35,21,M,L,
436,58,16,10,3,36,44,3017,['n'],1,right,['9'],5,277,[-0.06507815],98,44,hard,plus,dotcolour,beta,,,35,21,M,L,
437,59,17,10,3,27,53,2117,['n'],1,right,['9'],5,598,[-0.1870682],100,53,easy,plus,dotcolour,beta,,,35,21,M,L,
438,60,18,10,3,53,27,817,['c'],1,left,['9'],5,143,[0.13828082],100,53,easy,plus,dotcolour,beta,,,35,21,M,L,
439,61,19,10,3,33,47,767,['n'],1,right,['9'],5,227,[-0.17313328],100,47,medium,plus,dotcolour,beta,,,35,21,M,L,
440,62,20,10,3,33,47,1400,['c'],0,right,['8'],4,139,[0.06150593],100,47,medium,plus,dotcolour,beta,,,35,21,M,L,
441,63,21,10,3,53,27,767,['c'],1,left,['0'],6,105,[0.05633818],100,53,easy,plus,dotcolour,beta,,,35,21,M,L,
442,64,22,10,3,33,47,1016,['n'],1,right,['0'],6,141,[-0.1434345],100,47,medium,plus,dotcolour,beta,,,35,21,M,L,
443,65,23,10,3,27,53,733,['n'],1,right,['0'],6,83,[-0.07233888],100,53,easy,plus,dotcolour,beta,,,35,21,M,L,
444,66,24,10,3,53,27,2816,['n'],0,left,['8'],4,89,[-0.10619192],100,53,easy,plus,dotcolour,beta,,,35,21,M,L,
445,67,25,10,3,47,33,1167,['c'],1,left,['8'],4,112,[0.07609944],100,47,medium,plus,dotcolour,beta,,,35,21,M,L,
446,68,26,10,3,44,36,1234,['c'],1,left,['8'],4,107,[0.04642496],100,44,hard,plus,dotcolour,beta,,,35,21,M,L,
447,69,27,10,3,47,33,1516,['c'],1,left,['8'],4,124,[0.07366956],100,47,medium,plus,dotcolour,beta,,,35,21,M,L,
448,70,28,10,3,53,27,867,['c'],1,left,['0'],6,101,[0.08851576],100,53,easy,plus,dotcolour,beta,,,35,21,M,L,
449,71,29,10,3,33,47,967,['n'],1,right,['9'],5,131,[-0.08618944],100,47,medium,plus,dotcolour,beta,,,35,21,M,L,
450,72,30,10,3,27,53,800,['n'],1,right,['0'],6,144,[-0.10298329],100,53,easy,plus,dotcolour,beta,,,35,21,M,L,
451,73,31,10,3,36,44,1933,['n'],1,right,['8'],4,77,[-0.08059479],100,44,hard,plus,dotcolour,beta,,,35,21,M,L,
452,74,32,10,3,33,47,1117,['n'],1,right,['8'],4,55,[-0.09238512],100,47,medium,plus,dotcolour,beta,,,35,21,M,L,
453,75,33,10,3,47,33,1032,['c'],1,left,['9'],5,166,[0.10148513],100,47,medium,plus,dotcolour,beta,,,35,21,M,L,
454,76,34,10,3,36,44,1449,['n'],1,right,['8'],4,102,[-0.03518779],99,44,hard,plus,dotcolour,beta,,,35,21,M,L,
455,77,35,10,3,44,36,1267,['c'],1,left,['9'],5,160,[0.10878788],100,44,hard,plus,dotcolour,beta,,,35,21,M,L,
456,78,36,10,3,53,27,716,['c'],1,left,['0'],6,54,[0.08264953],100,53,easy,plus,dotcolour,beta,,,35,21,M,L,
457,79,37,10,3,33,47,717,['n'],1,right,['0'],6,113,[-0.132422],100,47,medium,plus,dotcolour,beta,,,35,21,M,L,
458,80,38,10,3,36,44,1283,['n'],1,right,['9'],5,82,[-0.00428718],98,44,hard,plus,dotcolour,beta,,,35,21,M,L,
459,81,39,10,3,47,33,916,['c'],1,left,['0'],6,197,[0.12950968],100,47,medium,plus,dotcolour,beta,,,35,21,M,L,
460,82,40,10,3,27,53,1017,['c'],0,right,['9'],5,108,[0.03367259],99,53,easy,plus,dotcolour,beta,,,35,21,M,L,
461,83,41,10,3,36,44,1767,['c'],0,right,['8'],4,339,[0.13946082],100,44,hard,plus,dotcolour,beta,,,35,21,M,L,
462,84,0,11,3,27,53,1034,['n'],1,right,['0'],6,108,[-0.12185247],100,53,easy,plus,dotcolour,beta,,,35,21,M,L,
463,85,1,11,3,27,53,1067,['n'],1,right,['0'],6,55,[-0.09042384],100,53,easy,plus,dotcolour,beta,,,35,21,M,L,
464,86,2,11,3,44,36,1033,['c'],1,left,['9'],5,101,[0.09060605],100,44,hard,plus,dotcolour,beta,,,35,21,M,L,
465,87,3,11,3,36,44,2301,['n'],1,right,['9'],5,46,[-0.09171593],100,44,hard,plus,dotcolour,beta,,,35,21,M,L,
466,88,4,11,3,44,36,1783,['n'],0,left,['9'],5,1582,[0.13500104],24,44,hard,plus,dotcolour,beta,,,35,21,M,L,
467,89,5,11,3,27,53,2433,['c'],0,right,['9'],5,102,[0.06296508],100,53,easy,plus,dotcolour,beta,,,35,21,M,L,
468,90,6,11,3,47,33,884,['n'],0,left,['0'],6,136,[0.02553199],81,47,medium,plus,dotcolour,beta,,,35,21,M,L,
469,91,7,11,3,27,53,1783,['n'],1,right,['9'],5,189,[-0.0843615],100,53,easy,plus,dotcolour,beta,,,35,21,M,L,
470,92,8,11,3,36,44,1366,['n'],1,right,['8'],4,137,[-0.03136485],99,44,hard,plus,dotcolour,beta,,,35,21,M,L,
471,93,9,11,3,27,53,2116,['c'],0,right,['8'],4,95,[0.05028141],100,53,easy,plus,dotcolour,beta,,,35,21,M,L,
472,94,10,11,3,33,47,1283,['n'],1,right,['9'],5,137,[-0.11868855],100,47,medium,plus,dotcolour,beta,,,35,21,M,L,
473,95,11,11,3,53,27,1100,['c'],1,left,['0'],6,617,[0.08151808],96,53,easy,plus,dotcolour,beta,,,35,21,M,L,
474,96,12,11,3,33,47,1217,['c'],0,right,['8'],4,130,[0.04530349],99,47,medium,plus,dotcolour,beta,,,35,21,M,L,
475,97,13,11,3,36,44,2634,['n'],1,right,['8'],4,84,[-0.05677597],100,44,hard,plus,dotcolour,beta,,,35,21,M,L,
476,98,14,11,3,44,36,867,['c'],1,left,['9'],5,120,[0.03041418],99,44,hard,plus,dotcolour,beta,,,35,21,M,L,
477,99,15,11,3,33,47,1100,['c'],0,right,['2'],2,561,[0.07184885],96,47,medium,plus,dotcolour,beta,,,35,21,M,L,
478,100,16,11,3,33,47,2767,['n'],1,right,['2'],2,156,[-0.11291896],100,47,medium,plus,dotcolour,beta,,,35,21,M,L,
479,101,17,11,3,33,47,2400,['n'],1,right,['9'],5,120,[-0.10126123],100,47,medium,plus,dotcolour,beta,,,35,21,M,L,
480,102,18,11,3,53,27,1834,['n'],0,left,['8'],4,90,[-0.08146199],100,53,easy,plus,dotcolour,beta,,,35,21,M,L,
481,103,19,11,3,44,36,934,['c'],1,left,['9'],5,90,[0.07807568],100,44,hard,plus,dotcolour,beta,,,35,21,M,L,
482,104,20,11,3,44,36,1667,['c'],1,left,['9'],5,125,[0.08193042],100,44,hard,plus,dotcolour,beta,,,35,21,M,L,
483,105,21,11,3,44,36,1083,['c'],1,left,['9'],5,142,[0.10221702],100,44,hard,plus,dotcolour,beta,,,35,21,M,L,
484,106,22,11,3,36,44,1016,['c'],0,right,['9'],5,113,[0.09305452],100,44,hard,plus,dotcolour,beta,,,35,21,M,L,
485,107,23,11,3,53,27,866,['c'],1,left,['0'],6,114,[0.05413188],100,53,easy,plus,dotcolour,beta,,,35,21,M,L,
486,108,24,11,3,47,33,600,['c'],1,left,['0'],6,152,[0.02363716],97,47,medium,plus,dotcolour,beta,,,35,21,M,L,
487,109,25,11,3,33,47,1066,['n'],1,right,['9'],5,152,[-0.10546491],100,47,medium,plus,dotcolour,beta,,,35,21,M,L,
488,110,26,11,3,53,27,617,['c'],1,left,['0'],6,130,[0.03560281],99,53,easy,plus,dotcolour,beta,,,35,21,M,L,
489,111,27,11,3,53,27,583,['c'],1,left,['9'],5,343,[-0.0275925],70,53,easy,plus,dotcolour,beta,,,35,21,M,L,
490,112,28,11,3,47,33,700,['c'],1,left,['0'],6,119,[0.04884453],100,47,medium,plus,dotcolour,beta,,,35,21,M,L,
491,113,29,11,3,36,44,1900,['n'],1,right,['8'],4,95,[-0.01050458],98,44,hard,plus,dotcolour,beta,,,35,21,M,L,
492,114,30,11,3,44,36,933,['c'],1,left,['8'],4,232,[0.07525976],99,44,hard,plus,dotcolour,beta,,,35,21,M,L,
493,115,31,11,3,47,33,750,['c'],1,left,['9'],5,113,[0.02019432],98,47,medium,plus,dotcolour,beta,,,35,21,M,L,
494,116,32,11,3,33,47,917,['n'],1,right,['9'],5,105,[-0.03079678],99,47,medium,plus,dotcolour,beta,,,35,21,M,L,
495,117,33,11,3,36,44,1799,['n'],1,right,['8'],4,47,[-0.07405043],100,44,hard,plus,dotcolour,beta,,,35,21,M,L,
496,118,34,11,3,27,53,1100,['n'],1,right,['0'],6,82,[-0.08548675],100,53,easy,plus,dotcolour,beta,,,35,21,M,L,
497,119,35,11,3,36,44,934,['n'],1,right,['0'],6,91,[-0.06238434],100,44,hard,plus,dotcolour,beta,,,35,21,M,L,
498,120,36,11,3,53,27,717,['c'],1,left,['0'],6,59,[0.1024605],100,53,easy,plus,dotcolour,beta,,,35,21,M,L,
499,121,37,11,3,53,27,750,['c'],1,left,['0'],6,76,[0.11742933],100,53,easy,plus,dotcolour,beta,,,35,21,M,L,
500,122,38,11,3,47,33,666,['c'],1,left,['0'],6,112,[0.08537735],100,47,medium,plus,dotcolour,beta,,,35,21,M,L,
501,123,39,11,3,47,33,635,['c'],1,left,['0'],6,107,[0.06568215],100,47,medium,plus,dotcolour,beta,,,35,21,M,L,
502,124,40,11,3,47,33,1267,['n'],0,left,['9'],5,53,[-0.06900921],100,47,medium,plus,dotcolour,beta,,,35,21,M,L,
503,125,41,11,3,27,53,734,['n'],1,right,['0'],6,87,[-0.1036801],100,53,easy,plus,dotcolour,beta,,,35,21,M,L,
504,0,0,12,4,36,44,1401,['n'],1,right,['9'],5,138,[-0.08663719],82,44,hard,minus,dotcolour,beta,,,35,21,M,L,
505,1,1,12,4,53,27,749,['c'],1,left,['9'],5,96,[0.07292253],73,53,easy,minus,dotcolour,beta,,,35,21,M,L,
506,2,2,12,4,36,44,800,['n'],1,right,['9'],5,117,[-0.11234882],95,44,hard,minus,dotcolour,beta,,,35,21,M,L,
507,3,3,12,4,47,33,734,['c'],1,left,['0'],6,93,[0.15716786],100,47,medium,minus,dotcolour,beta,,,35,21,M,L,
508,4,4,12,4,44,36,1166,['c'],1,left,['9'],5,139,[0.05101761],45,44,hard,minus,dotcolour,beta,,,35,21,M,L,
509,5,5,12,4,47,33,667,['c'],1,left,['0'],6,36,[0.05828452],56,47,medium,minus,dotcolour,beta,,,35,21,M,L,
510,6,6,12,4,53,27,667,['c'],1,left,['0'],6,122,[0.08292386],80,53,easy,minus,dotcolour,beta,,,35,21,M,L,
511,7,7,12,4,27,53,1700,['n'],1,right,['8'],4,834,[-0.1743093],91,53,easy,minus,dotcolour,beta,,,35,21,M,L,
512,8,8,12,4,53,27,933,['c'],1,left,['9'],5,116,[0.12485326],97,53,easy,minus,dotcolour,beta,,,35,21,M,L,
513,9,9,12,4,27,53,1150,['n'],1,right,['0'],6,67,[-0.07315537],77,53,easy,minus,dotcolour,beta,,,35,21,M,L,
514,10,10,12,4,36,44,817,['n'],1,right,['0'],6,73,[-0.07994215],84,44,hard,minus,dotcolour,beta,,,35,21,M,L,
515,11,11,12,4,47,33,800,['c'],1,left,['0'],6,408,[0.09010588],73,47,medium,minus,dotcolour,beta,,,35,21,M,L,
516,12,12,12,4,27,53,699,['n'],1,right,['0'],6,29,[-0.06319198],69,53,easy,minus,dotcolour,beta,,,35,21,M,L,
517,13,13,12,4,33,47,933,['n'],1,right,['9'],5,87,[-0.13242415],99,47,medium,minus,dotcolour,beta,,,35,21,M,L,
518,14,14,12,4,27,53,867,['n'],1,right,['0'],6,34,[-0.08051537],92,53,easy,minus,dotcolour,beta,,,35,21,M,L,
519,15,15,12,4,27,53,634,['n'],1,right,['0'],6,57,[-0.06383508],65,53,easy,minus,dotcolour,beta,,,35,21,M,L,
520,16,16,12,4,33,47,1416,['c'],0,right,['9'],5,79,[0.02639949],13,47,medium,minus,dotcolour,beta,,,35,21,M,L,
521,17,17,12,4,33,47,1384,['n'],1,right,['0'],6,262,[-0.19840346],99,47,medium,minus,dotcolour,beta,,,35,21,M,L,
522,18,18,12,4,44,36,901,['c'],1,left,['9'],5,113,[0.11029204],95,44,hard,minus,dotcolour,beta,,,35,21,M,L,
523,19,19,12,4,47,33,1017,['c'],1,left,['0'],6,100,[0.08806756],86,47,medium,minus,dotcolour,beta,,,35,21,M,L,
524,20,20,12,4,33,47,783,['n'],1,right,['0'],6,59,[-0.11418911],99,47,medium,minus,dotcolour,beta,,,35,21,M,L,
525,21,21,12,4,33,47,683,['n'],1,right,['0'],6,70,[-0.06981149],73,47,medium,minus,dotcolour,beta,,,35,21,M,L,
526,22,22,12,4,33,47,667,['n'],1,right,['0'],6,26,[-0.08560136],97,47,medium,minus,dotcolour,beta,,,35,21,M,L,
527,23,23,12,4,44,36,1383,['c'],1,left,['8'],4,91,[0.10183441],94,44,hard,minus,dotcolour,beta,,,35,21,M,L,
528,24,24,12,4,36,44,1116,['n'],1,right,['8'],4,83,[-0.09137999],90,44,hard,minus,dotcolour,beta,,,35,21,M,L,
529,25,25,12,4,27,53,900,['n'],1,right,['9'],5,85,[-0.0634341],62,53,easy,minus,dotcolour,beta,,,35,21,M,L,
530,26,26,12,4,36,44,1183,['n'],1,right,['8'],4,36,[-0.0603571],61,44,hard,minus,dotcolour,beta,,,35,21,M,L,
531,27,27,12,4,53,27,782,['c'],1,left,['0'],6,85,[0.06755741],68,53,easy,minus,dotcolour,beta,,,35,21,M,L,
532,28,28,12,4,47,33,717,['c'],1,left,['9'],5,86,[0.05027132],42,47,medium,minus,dotcolour,beta,,,35,21,M,L,
533,29,29,12,4,44,36,1300,['c'],1,left,['9'],5,96,[0.05880951],55,44,hard,minus,dotcolour,beta,,,35,21,M,L,
534,30,30,12,4,44,36,1283,['c'],1,left,['8'],4,138,[0.13292528],98,44,hard,minus,dotcolour,beta,,,35,21,M,L,
535,31,31,12,4,47,33,1133,['c'],1,left,['0'],6,81,[0.12328595],99,47,medium,minus,dotcolour,beta,,,35,21,M,L,
536,32,32,12,4,53,27,601,['c'],1,left,['0'],6,127,[0.1419677],99,53,easy,minus,dotcolour,beta,,,35,21,M,L,
537,33,33,12,4,53,27,633,['c'],1,left,['0'],6,97,[0.0255016],15,53,easy,minus,dotcolour,beta,,,35,21,M,L,
538,34,34,12,4,33,47,1600,['n'],1,right,['8'],4,351,[-0.1101421],84,47,medium,minus,dotcolour,beta,,,35,21,M,L,
539,35,35,12,4,47,33,1365,['n'],0,left,['9'],5,140,[-0.0460849],39,47,medium,minus,dotcolour,beta,,,35,21,M,L,
540,36,36,12,4,36,44,1716,['n'],1,right,['9'],5,123,[-0.07950671],77,44,hard,minus,dotcolour,beta,,,35,21,M,L,
541,37,37,12,4,44,36,967,['c'],1,left,['9'],5,160,[0.07986565],75,44,hard,minus,dotcolour,beta,,,35,21,M,L,
542,38,38,12,4,53,27,850,['c'],1,left,['9'],5,185,[0.04169039],36,53,easy,minus,dotcolour,beta,,,35,21,M,L,
543,39,39,12,4,27,53,2150,['c'],0,right,['8'],4,85,[0.08540203],86,53,easy,minus,dotcolour,beta,,,35,21,M,L,
544,40,40,12,4,44,36,884,['c'],1,left,['9'],5,88,[0.0910884],90,44,hard,minus,dotcolour,beta,,,35,21,M,L,
545,41,41,12,4,36,44,1334,['n'],1,right,['9'],5,56,[-0.07458041],81,44,hard,minus,dotcolour,beta,,,35,21,M,L,
546,42,0,13,4,36,44,1800,['n'],1,right,['8'],4,82,[-0.0929634],91,44,hard,minus,dotcolour,beta,,,35,21,M,L,
547,43,1,13,4,44,36,783,['c'],1,left,['9'],5,96,[0.05821293],54,44,hard,minus,dotcolour,beta,,,35,21,M,L,
548,44,2,13,4,36,44,1150,['n'],1,right,['9'],5,96,[-0.08719149],86,44,hard,minus,dotcolour,beta,,,35,21,M,L,
549,45,3,13,4,36,44,1251,['c'],0,right,['9'],5,99,[0.05383229],48,44,hard,minus,dotcolour,beta,,,35,21,M,L,
550,46,4,13,4,47,33,1267,['c'],1,left,['9'],5,174,[0.14036373],97,47,medium,minus,dotcolour,beta,,,35,21,M,L,
551,47,5,13,4,27,53,1067,['n'],1,right,['9'],5,93,[-0.09219921],90,53,easy,minus,dotcolour,beta,,,35,21,M,L,
552,48,6,13,4,53,27,750,['c'],1,left,['0'],6,109,[0.0679988],66,53,easy,minus,dotcolour,beta,,,35,21,M,L,
553,49,7,13,4,27,53,835,['n'],1,right,['0'],6,88,[-0.09156837],90,53,easy,minus,dotcolour,beta,,,35,21,M,L,
554,50,8,13,4,27,53,667,['n'],1,right,['0'],6,28,[-0.10616202],100,53,easy,minus,dotcolour,beta,,,35,21,M,L,
555,51,9,13,4,36,44,1750,['n'],1,right,['8'],4,37,[-0.08192483],92,44,hard,minus,dotcolour,beta,,,35,21,M,L,
556,52,10,13,4,53,27,800,['n'],0,left,['1'],1,1437,[0.12680936],6,53,easy,minus,dotcolour,beta,,,35,21,M,L,
557,53,11,13,4,47,33,1550,['c'],1,left,['0'],6,111,[0.07422094],73,47,medium,minus,dotcolour,beta,,,35,21,M,L,
558,54,12,13,4,47,33,2184,['c'],1,left,['0'],6,60,[0.08689731],91,47,medium,minus,dotcolour,beta,,,35,21,M,L,
559,55,13,13,4,44,36,633,['c'],1,left,['0'],6,97,[0.09575339],91,44,hard,minus,dotcolour,beta,,,35,21,M,L,
560,56,14,13,4,27,53,1484,['n'],1,right,['0'],6,83,[-0.12950126],99,53,easy,minus,dotcolour,beta,,,35,21,M,L,
561,57,15,13,4,53,27,667,['c'],1,left,['0'],6,55,[0.07628485],83,53,easy,minus,dotcolour,beta,,,35,21,M,L,
562,58,16,13,4,33,47,1433,['n'],1,right,['0'],6,46,[-0.07770042],87,47,medium,minus,dotcolour,beta,,,35,21,M,L,
563,59,17,13,4,27,53,868,['n'],1,right,['9'],5,97,[-0.10768659],95,53,easy,minus,dotcolour,beta,,,35,21,M,L,
564,60,18,13,4,27,53,733,['n'],1,right,['0'],6,33,[-0.09632028],98,53,easy,minus,dotcolour,beta,,,35,21,M,L,
565,61,19,13,4,44,36,1467,['n'],0,left,['8'],4,39,[-0.08057242],91,44,hard,minus,dotcolour,beta,,,35,21,M,L,
566,62,20,13,4,47,33,1218,['c'],1,left,['0'],6,94,[0.11904628],98,47,medium,minus,dotcolour,beta,,,35,21,M,L,
567,63,21,13,4,47,33,1400,['c'],1,left,['8'],4,83,[0.07536527],78,47,medium,minus,dotcolour,beta,,,35,21,M,L,
568,64,22,13,4,53,27,818,['c'],1,left,['0'],6,113,[0.05368137],47,53,easy,minus,dotcolour,beta,,,35,21,M,L,
569,65,23,13,4,33,47,2416,['n'],1,right,['8'],4,85,[-0.08046351],82,47,medium,minus,dotcolour,beta,,,35,21,M,L,
570,66,24,13,4,36,44,1001,['c'],0,right,['9'],5,83,[0.10782021],96,44,hard,minus,dotcolour,beta,,,35,21,M,L,
571,67,25,13,4,47,33,683,['c'],1,left,['0'],6,109,[0.09387663],89,47,medium,minus,dotcolour,beta,,,35,21,M,L,
572,68,26,13,4,36,44,1400,['n'],1,right,['8'],4,371,[-0.04874382],45,44,hard,minus,dotcolour,beta,,,35,21,M,L,
573,69,27,13,4,33,47,1233,['c'],0,right,['9'],5,124,[0.02515533],17,47,medium,minus,dotcolour,beta,,,35,21,M,L,
574,70,28,13,4,33,47,2483,['c'],0,right,['9'],5,76,[0.04189524],29,47,medium,minus,dotcolour,beta,,,35,21,M,L,
575,71,29,13,4,33,47,2200,['n'],1,right,['9'],5,514,[-0.13027279],87,47,medium,minus,dotcolour,beta,,,35,21,M,L,
576,72,30,13,4,44,36,2066,['c'],1,left,['9'],5,108,[0.04112542],31,44,hard,minus,dotcolour,beta,,,35,21,M,L,
577,73,31,13,4,47,33,2250,['c'],1,left,['9'],5,215,[0.02531786],24,47,medium,minus,dotcolour,beta,,,35,21,M,L,
578,74,32,13,4,44,36,1034,['c'],1,left,['9'],5,110,[0.0571652],52,44,hard,minus,dotcolour,beta,,,35,21,M,L,
579,75,33,13,4,53,27,901,['c'],1,left,['0'],6,103,[0.13648488],99,53,easy,minus,dotcolour,beta,,,35,21,M,L,
580,76,34,13,4,44,36,883,['c'],1,left,['9'],5,97,[0.10599943],95,44,hard,minus,dotcolour,beta,,,35,21,M,L,
581,77,35,13,4,36,44,1301,['c'],0,right,['9'],5,90,[0.04628479],36,44,hard,minus,dotcolour,beta,,,35,21,M,L,
582,78,36,13,4,27,53,1701,['n'],1,right,['9'],5,204,[-0.08317545],75,53,easy,minus,dotcolour,beta,,,35,21,M,L,
583,79,37,13,4,33,47,1551,['n'],1,right,['9'],5,183,[-0.04219524],36,47,medium,minus,dotcolour,beta,,,35,21,M,L,
584,80,38,13,4,53,27,1199,['c'],1,left,['8'],4,97,[0.15391488],100,53,easy,minus,dotcolour,beta,,,35,21,M,L,
585,81,39,13,4,53,27,767,['c'],1,left,['0'],6,112,[0.07983847],79,53,easy,minus,dotcolour,beta,,,35,21,M,L,
586,82,40,13,4,33,47,1000,['n'],1,right,['0'],6,69,[-0.13396072],100,47,medium,minus,dotcolour,beta,,,35,21,M,L,
587,83,41,13,4,44,36,800,['c'],1,left,['9'],5,75,[0.09839539],94,44,hard,minus,dotcolour,beta,,,35,21,M,L,
588,84,0,14,4,53,27,952,['c'],1,left,['0'],6,438,[0.27903066],100,53,easy,minus,dotcolour,beta,,,35,21,M,L,
589,85,1,14,4,53,27,733,['c'],1,left,['0'],6,120,[0.0940486],88,53,easy,minus,dotcolour,beta,,,35,21,M,L,
590,86,2,14,4,33,47,1867,['n'],1,right,['9'],5,138,[-0.12359441],96,47,medium,minus,dotcolour,beta,,,35,21,M,L,
591,87,3,14,4,36,44,817,['n'],1,right,['9'],5,85,[-0.04529973],35,44,hard,minus,dotcolour,beta,,,35,21,M,L,
592,88,4,14,4,44,36,801,['c'],1,left,['9'],5,180,[0.08710491],79,44,hard,minus,dotcolour,beta,,,35,21,M,L,
593,89,5,14,4,47,33,833,['c'],1,left,['0'],6,125,[0.06533889],62,47,medium,minus,dotcolour,beta,,,35,21,M,L,
594,90,6,14,4,44,36,1200,['c'],1,left,['0'],6,121,[0.0435133],35,44,hard,minus,dotcolour,beta,,,35,21,M,L,
595,91,7,14,4,44,36,717,['c'],1,left,['9'],5,552,[-0.00908642],17,44,hard,minus,dotcolour,beta,,,35,21,M,L,
596,92,8,14,4,44,36,1167,['c'],1,left,['8'],4,125,[0.06752797],65,44,hard,minus,dotcolour,beta,,,35,21,M,L,
597,93,9,14,4,27,53,1584,['n'],1,right,['8'],4,394,[-0.23084876],99,53,easy,minus,dotcolour,beta,,,35,21,M,L,
598,94,10,14,4,33,47,1283,['n'],1,right,['8'],4,136,[-0.12904613],97,47,medium,minus,dotcolour,beta,,,35,21,M,L,
599,95,11,14,4,27,53,868,['n'],1,right,['0'],6,177,[-0.08952465],81,53,easy,minus,dotcolour,beta,,,35,21,M,L,
600,96,12,14,4,53,27,899,['c'],1,left,['0'],6,527,[0.07463245],62,53,easy,minus,dotcolour,beta,,,35,21,M,L,
601,97,13,14,4,27,53,2201,['c'],0,right,['8'],4,451,[0.06165519],54,53,easy,minus,dotcolour,beta,,,35,21,M,L,
602,98,14,14,4,33,47,1417,['n'],1,right,['8'],4,106,[-0.11341482],96,47,medium,minus,dotcolour,beta,,,35,21,M,L,
603,99,15,14,4,53,27,750,['c'],1,left,['0'],6,97,[0.08628886],86,53,easy,minus,dotcolour,beta,,,35,21,M,L,
604,100,16,14,4,27,53,1266,['n'],1,right,['0'],6,52,[-0.08061219],88,53,easy,minus,dotcolour,beta,,,35,21,M,L,
605,101,17,14,4,44,36,1066,['c'],1,left,['9'],5,80,[0.08507208],87,44,hard,minus,dotcolour,beta,,,35,21,M,L,
606,102,18,14,4,47,33,1033,['c'],1,left,['8'],4,77,[0.08618662],88,47,medium,minus,dotcolour,beta,,,35,21,M,L,
607,103,19,14,4,33,47,933,['n'],1,right,['8'],4,62,[-0.09813479],96,47,medium,minus,dotcolour,beta,,,35,21,M,L,
608,104,20,14,4,36,44,901,['n'],1,right,['9'],5,89,[-0.0934357],91,44,hard,minus,dotcolour,beta,,,35,21,M,L,
609,105,21,14,4,53,27,800,['c'],1,left,['9'],5,167,[0.08578683],79,53,easy,minus,dotcolour,beta,,,35,21,M,L,
610,106,22,14,4,33,47,1251,['c'],0,right,['9'],5,87,[0.030195],18,47,medium,minus,dotcolour,beta,,,35,21,M,L,
611,107,23,14,4,44,36,2400,['c'],1,left,['8'],4,189,[0.08641714],78,44,hard,minus,dotcolour,beta,,,35,21,M,L,
612,108,24,14,4,33,47,784,['n'],1,right,['9'],5,103,[-0.12744979],98,47,medium,minus,dotcolour,beta,,,35,21,M,L,
613,109,25,14,4,27,53,751,['n'],1,right,['0'],6,110,[-0.0908635],87,53,easy,minus,dotcolour,beta,,,35,21,M,L,
614,110,26,14,4,47,33,717,['c'],1,left,['0'],6,71,[0.10365317],96,47,medium,minus,dotcolour,beta,,,35,21,M,L,
615,111,27,14,4,36,44,767,['n'],1,right,['9'],5,94,[-0.13741211],99,44,hard,minus,dotcolour,beta,,,35,21,M,L,
616,112,28,14,4,53,27,817,['c'],1,left,['9'],5,171,[0.08334594],77,53,easy,minus,dotcolour,beta,,,35,21,M,L,
617,113,29,14,4,47,33,717,['c'],1,left,['0'],6,129,[0.07126151],69,47,medium,minus,dotcolour,beta,,,35,21,M,L,
618,114,30,14,4,33,47,1034,['n'],1,right,['9'],5,117,[-0.11071301],95,47,medium,minus,dotcolour,beta,,,35,21,M,L,
619,115,31,14,4,47,33,784,['c'],1,left,['0'],6,121,[0.12238241],97,47,medium,minus,dotcolour,beta,,,35,21,M,L,
620,116,32,14,4,36,44,1133,['n'],1,right,['8'],4,113,[-0.09018501],86,44,hard,minus,dotcolour,beta,,,35,21,M,L,
621,117,33,14,4,44,36,1350,['c'],1,left,['9'],5,127,[0.06202849],58,44,hard,minus,dotcolour,beta,,,35,21,M,L,
622,118,34,14,4,53,27,666,['c'],1,left,['0'],6,97,[0.14939886],100,53,easy,minus,dotcolour,beta,,,35,21,M,L,
623,119,35,14,4,36,44,1050,['n'],1,right,['9'],5,100,[-0.09734772],92,44,hard,minus,dotcolour,beta,,,35,21,M,L,
624,120,36,14,4,47,33,1834,['c'],1,left,['9'],5,104,[0.11620926],97,47,medium,minus,dotcolour,beta,,,35,21,M,L,
625,121,37,14,4,27,53,1284,['c'],0,right,['8'],4,410,[-0.00366298],16,53,easy,minus,dotcolour,beta,,,35,21,M,L,
626,122,38,14,4,36,44,1734,['n'],1,right,['8'],4,22,[-0.07438014],91,44,hard,minus,dotcolour,beta,,,35,21,M,L,
627,123,39,14,4,27,53,950,['n'],1,right,['8'],4,32,[-0.09132198],97,53,easy,minus,dotcolour,beta,,,35,21,M,L,
628,124,40,14,4,36,44,817,['c'],0,right,['9'],5,112,[0.04964178],42,44,hard,minus,dotcolour,beta,,,35,21,M,L,
629,125,41,14,4,47,33,1199,['c'],1,left,['9'],5,93,[0.16869671],100,47,medium,minus,dotcolour,beta,,,35,21,M,L,
630,0,0,15,5,53,27,1284,['c'],1,left,['9'],5,81,[0.08960331],100,53,easy,plus,dotcolour,beta,,,35,21,M,L,
631,1,1,15,5,44,36,1200,['c'],1,left,['8'],4,63,[0.08410766],100,44,hard,plus,dotcolour,beta,,,35,21,M,L,
632,2,2,15,5,44,36,1566,['c'],1,left,['9'],5,118,[0.11299738],100,44,hard,plus,dotcolour,beta,,,35,21,M,L,
633,3,3,15,5,33,47,934,['n'],1,right,['9'],5,110,[-0.04892648],100,47,medium,plus,dotcolour,beta,,,35,21,M,L,
634,4,4,15,5,44,36,900,['c'],1,left,['9'],5,94,[0.10488386],100,44,hard,plus,dotcolour,beta,,,35,21,M,L,
635,5,5,15,5,47,33,1083,['c'],1,left,['9'],5,105,[0.03040818],99,47,medium,plus,dotcolour,beta,,,35,21,M,L,
636,6,6,15,5,36,44,1134,['n'],1,right,['9'],5,105,[-0.1028891],100,44,hard,plus,dotcolour,beta,,,35,21,M,L,
637,7,7,15,5,33,47,2733,['n'],1,right,['8'],4,57,[-0.04294013],100,47,medium,plus,dotcolour,beta,,,35,21,M,L,
638,8,8,15,5,33,47,784,['n'],1,right,['8'],4,57,[-0.08022277],100,47,medium,plus,dotcolour,beta,,,35,21,M,L,
639,9,9,15,5,36,44,967,['n'],1,right,['8'],4,25,[-0.08130489],100,44,hard,plus,dotcolour,beta,,,35,21,M,L,
640,10,10,15,5,53,27,767,['c'],1,left,['9'],5,82,[0.12392842],100,53,easy,plus,dotcolour,beta,,,35,21,M,L,
641,11,11,15,5,44,36,833,['n'],0,left,['9'],5,102,[-0.14473563],100,44,hard,plus,dotcolour,beta,,,35,21,M,L,
642,12,12,15,5,36,44,1116,['c'],0,right,['8'],4,55,[0.07397733],100,44,hard,plus,dotcolour,beta,,,35,21,M,L,
643,13,13,15,5,53,27,801,['c'],1,left,['0'],6,103,[0.0384147],99,53,easy,plus,dotcolour,beta,,,35,21,M,L,
644,14,14,15,5,27,53,885,['n'],1,right,['9'],5,57,[-0.05266858],100,53,easy,plus,dotcolour,beta,,,35,21,M,L,
645,15,15,15,5,53,27,684,['c'],1,left,['9'],5,92,[0.06568195],100,53,easy,plus,dotcolour,beta,,,35,21,M,L,
646,16,16,15,5,27,53,1000,['c'],0,right,['9'],5,49,[0.08516214],100,53,easy,plus,dotcolour,beta,,,35,21,M,L,
647,17,17,15,5,33,47,1032,['n'],1,right,['9'],5,87,[-0.15183667],100,47,medium,plus,dotcolour,beta,,,35,21,M,L,
648,18,18,15,5,27,53,1250,['n'],1,right,['8'],4,28,[-0.07011353],100,53,easy,plus,dotcolour,beta,,,35,21,M,L,
649,19,19,15,5,36,44,1532,['n'],1,right,['9'],5,103,[-0.01979069],99,44,hard,plus,dotcolour,beta,,,35,21,M,L,
650,20,20,15,5,36,44,2167,['c'],0,right,['8'],4,101,[0.04286725],100,44,hard,plus,dotcolour,beta,,,35,21,M,L,
651,21,21,15,5,47,33,1283,['c'],1,left,['9'],5,95,[0.07894621],100,47,medium,plus,dotcolour,beta,,,35,21,M,L,
652,22,22,15,5,27,53,4583,['n'],1,right,['2'],2,165,[-0.10186047],100,53,easy,plus,dotcolour,beta,,,35,21,M,L,
653,23,23,15,5,47,33,2784,['c'],1,left,['9'],5,152,[0.18314135],100,47,medium,plus,dotcolour,beta,,,35,21,M,L,
654,24,24,15,5,27,53,850,['n'],1,right,['9'],5,106,[-0.07123932],100,53,easy,plus,dotcolour,beta,,,35,21,M,L,
655,25,25,15,5,47,33,968,['n'],0,left,['0'],6,121,[-0.04814995],100,47,medium,plus,dotcolour,beta,,,35,21,M,L,
656,26,26,15,5,53,27,1033,['c'],1,left,['0'],6,115,[0.04820609],100,53,easy,plus,dotcolour,beta,,,35,21,M,L,
657,27,27,15,5,47,33,984,['c'],1,left,['9'],5,113,[0.11881388],100,47,medium,plus,dotcolour,beta,,,35,21,M,L,
658,28,28,15,5,33,47,1017,['n'],1,right,['9'],5,125,[-0.13342968],100,47,medium,plus,dotcolour,beta,,,35,21,M,L,
659,29,29,15,5,36,44,1550,['n'],1,right,['8'],4,67,[-0.05286722],100,44,hard,plus,dotcolour,beta,,,35,21,M,L,
660,30,30,15,5,44,36,900,['c'],1,left,['9'],5,126,[0.1040717],100,44,hard,plus,dotcolour,beta,,,35,21,M,L,
661,31,31,15,5,47,33,1201,['c'],1,left,['8'],4,66,[0.06393332],100,47,medium,plus,dotcolour,beta,,,35,21,M,L,
662,32,32,15,5,27,53,1399,['n'],1,right,['9'],5,89,[-0.12442827],100,53,easy,plus,dotcolour,beta,,,35,21,M,L,
663,33,33,15,5,27,53,867,['n'],1,right,['0'],6,84,[-0.0618879],100,53,easy,plus,dotcolour,beta,,,35,21,M,L,
664,34,34,15,5,44,36,984,['c'],1,left,['9'],5,91,[0.0970634],100,44,hard,plus,dotcolour,beta,,,35,21,M,L,
665,35,35,15,5,53,27,899,['c'],1,left,['0'],6,108,[0.06661339],100,53,easy,plus,dotcolour,beta,,,35,21,M,L,
666,36,36,15,5,33,47,1117,['c'],0,right,['9'],5,172,[0.09197579],100,47,medium,plus,dotcolour,beta,,,35,21,M,L,
667,37,37,15,5,36,44,1634,['n'],1,right,['8'],4,181,[-0.06217655],99,44,hard,plus,dotcolour,beta,,,35,21,M,L,
668,38,38,15,5,33,47,1417,['n'],1,right,['9'],5,110,[-0.07429437],100,47,medium,plus,dotcolour,beta,,,35,21,M,L,
669,39,39,15,5,47,33,1500,['c'],1,left,['0'],6,128,[0.09085281],100,47,medium,plus,dotcolour,beta,,,35,21,M,L,
670,40,40,15,5,44,36,1483,['n'],0,left,['9'],5,81,[-0.02302114],99,44,hard,plus,dotcolour,beta,,,35,21,M,L,
671,41,41,15,5,53,27,1234,['c'],1,left,['9'],5,109,[0.05789618],100,53,easy,plus,dotcolour,beta,,,35,21,M,L,
672,42,0,16,5,44,36,1451,['c'],1,left,['9'],5,114,[0.07018262],100,44,hard,plus,dotcolour,beta,,,35,21,M,L,
673,43,1,16,5,47,33,668,['c'],1,left,['9'],5,116,[0.06628452],100,47,medium,plus,dotcolour,beta,,,35,21,M,L,
674,44,2,16,5,53,27,834,['c'],1,left,['0'],6,119,[0.16856035],100,53,easy,plus,dotcolour,beta,,,35,21,M,L,
675,45,3,16,5,33,47,816,['n'],1,right,['0'],6,67,[-0.06412407],100,47,medium,plus,dotcolour,beta,,,35,21,M,L,
676,46,4,16,5,36,44,850,['n'],1,right,['9'],5,80,[-0.0837688],100,44,hard,plus,dotcolour,beta,,,35,21,M,L,
677,47,5,16,5,53,27,951,['c'],1,left,['0'],6,48,[0.11065511],100,53,easy,plus,dotcolour,beta,,,35,21,M,L,
678,48,6,16,5,27,53,717,['n'],1,right,['0'],6,107,[-0.03108586],99,53,easy,plus,dotcolour,beta,,,35,21,M,L,
679,49,7,16,5,44,36,817,['c'],1,left,['0'],6,95,[0.0547412],100,44,hard,plus,dotcolour,beta,,,35,21,M,L,
680,50,8,16,5,27,53,1017,['n'],1,right,['0'],6,52,[-0.09381942],100,53,easy,plus,dotcolour,beta,,,35,21,M,L,
681,51,9,16,5,47,33,667,['c'],1,left,['0'],6,97,[0.04894213],100,47,medium,plus,dotcolour,beta,,,35,21,M,L,
682,52,10,16,5,27,53,633,['n'],1,right,['0'],6,68,[-0.03491114],100,53,easy,plus,dotcolour,beta,,,35,21,M,L,
683,53,11,16,5,36,44,834,['n'],1,right,['9'],5,90,[-0.09589577],100,44,hard,plus,dotcolour,beta,,,35,21,M,L,
684,54,12,16,5,33,47,634,['n'],1,right,['0'],6,102,[0.00720725],94,47,medium,plus,dotcolour,beta,,,35,21,M,L,
685,55,13,16,5,47,33,900,['c'],1,left,['9'],5,111,[0.08041618],100,47,medium,plus,dotcolour,beta,,,35,21,M,L,
686,56,14,16,5,47,33,1317,['c'],1,left,['8'],4,87,[0.07453089],100,47,medium,plus,dotcolour,beta,,,35,21,M,L,
687,57,15,16,5,53,27,716,['c'],1,left,['0'],6,697,[0.22182377],100,53,easy,plus,dotcolour,beta,,,35,21,M,L,
688,58,16,16,5,33,47,1367,['n'],1,right,['9'],5,63,[-0.08421968],100,47,medium,plus,dotcolour,beta,,,35,21,M,L,
689,59,17,16,5,53,27,766,['c'],1,left,['0'],6,39,[0.04546241],100,53,easy,plus,dotcolour,beta,,,35,21,M,L,
690,60,18,16,5,36,44,733,['n'],1,right,['9'],5,74,[-0.09966795],100,44,hard,plus,dotcolour,beta,,,35,21,M,L,
691,61,19,16,5,47,33,1633,['n'],0,left,['9'],5,103,[-0.04191718],100,47,medium,plus,dotcolour,beta,,,35,21,M,L,
692,62,20,16,5,44,36,816,['c'],1,left,['8'],4,107,[0.10241001],100,44,hard,plus,dotcolour,beta,,,35,21,M,L,
693,63,21,16,5,33,47,2117,['c'],0,right,['9'],5,163,[0.07666868],100,47,medium,plus,dotcolour,beta,,,35,21,M,L,
694,64,22,16,5,33,47,917,['n'],1,right,['8'],4,313,[-0.05287493],97,47,medium,plus,dotcolour,beta,,,35,21,M,L,
695,65,23,16,5,27,53,1783,['n'],1,right,['9'],5,94,[-0.05624364],100,53,easy,plus,dotcolour,beta,,,35,21,M,L,
696,66,24,16,5,47,33,984,['c'],1,left,['9'],5,76,[0.11817574],100,47,medium,plus,dotcolour,beta,,,35,21,M,L,
697,67,25,16,5,36,44,1200,['n'],1,right,['9'],5,59,[-0.06392128],100,44,hard,plus,dotcolour,beta,,,35,21,M,L,
698,68,26,16,5,36,44,1001,['n'],1,right,['9'],5,33,[-0.05174527],100,44,hard,plus,dotcolour,beta,,,35,21,M,L,
699,69,27,16,5,53,27,1150,['c'],1,left,['0'],6,59,[0.12355995],100,53,easy,plus,dotcolour,beta,,,35,21,M,L,
700,70,28,16,5,36,44,1617,['n'],1,right,['9'],5,121,[-0.11302207],100,44,hard,plus,dotcolour,beta,,,35,21,M,L,
701,71,29,16,5,27,53,2784,['n'],1,right,['0'],6,47,[-0.09885473],100,53,easy,plus,dotcolour,beta,,,35,21,M,L,
702,72,30,16,5,47,33,817,['c'],1,left,['0'],6,69,[0.0827665],100,47,medium,plus,dotcolour,beta,,,35,21,M,L,
703,73,31,16,5,53,27,733,['c'],1,left,['0'],6,79,[0.10231785],100,53,easy,plus,dotcolour,beta,,,35,21,M,L,
704,74,32,16,5,27,53,933,['n'],1,right,['0'],6,63,[-0.09842191],100,53,easy,plus,dotcolour,beta,,,35,21,M,L,
705,75,33,16,5,44,36,1400,['n'],0,left,['9'],5,190,[-0.07069214],99,44,hard,plus,dotcolour,beta,,,35,21,M,L,
706,76,34,16,5,27,53,817,['n'],1,right,['9'],5,55,[-0.08624279],100,53,easy,plus,dotcolour,beta,,,35,21,M,L,
707,77,35,16,5,33,47,1117,['c'],0,right,['8'],4,633,[-0.05086071],53,47,medium,plus,dotcolour,beta,,,35,21,M,L,
708,78,36,16,5,44,36,817,['n'],0,left,['9'],5,281,[0.02726993],72,44,hard,plus,dotcolour,beta,,,35,21,M,L,
709,79,37,16,5,33,47,1934,['n'],1,right,['8'],4,737,[-0.23917482],100,47,medium,plus,dotcolour,beta,,,35,21,M,L,
710,80,38,16,5,53,27,1084,['c'],1,left,['9'],5,121,[0.05069328],100,53,easy,plus,dotcolour,beta,,,35,21,M,L,
711,81,39,16,5,44,36,784,['c'],1,left,['9'],5,127,[0.06146502],100,44,hard,plus,dotcolour,beta,,,35,21,M,L,
712,82,40,16,5,44,36,934,['c'],1,left,['9'],5,109,[0.09366734],100,44,hard,plus,dotcolour,beta,,,35,21,M,L,
713,83,41,16,5,36,44,2333,['n'],1,right,['3'],3,421,[-0.06371792],96,44,hard,plus,dotcolour,beta,,,35,21,M,L,
714,84,0,17,5,53,27,1300,['c'],1,left,['0'],6,83,[0.0629859],100,53,easy,plus,dotcolour,beta,,,35,21,M,L,
715,85,1,17,5,36,44,1317,['c'],0,right,['9'],5,85,[0.04013184],100,44,hard,plus,dotcolour,beta,,,35,21,M,L,
716,86,2,17,5,36,44,967,['n'],1,right,['9'],5,148,[-0.01719229],97,44,hard,plus,dotcolour,beta,,,35,21,M,L,
717,87,3,17,5,53,27,1050,['c'],1,left,['0'],6,69,[0.05853282],100,53,easy,plus,dotcolour,beta,,,35,21,M,L,
718,88,4,17,5,27,53,867,['n'],1,right,['0'],6,25,[-0.10448366],100,53,easy,plus,dotcolour,beta,,,35,21,M,L,
719,89,5,17,5,36,44,1050,['n'],1,right,['9'],5,55,[-0.07961553],100,44,hard,plus,dotcolour,beta,,,35,21,M,L,
720,90,6,17,5,27,53,800,['n'],1,right,['0'],6,46,[-0.07213104],100,53,easy,plus,dotcolour,beta,,,35,21,M,L,
721,91,7,17,5,33,47,716,['n'],1,right,['0'],6,561,[-0.13333694],99,47,medium,plus,dotcolour,beta,,,35,21,M,L,
722,92,8,17,5,33,47,817,['n'],1,right,['9'],5,51,[-0.06971321],100,47,medium,plus,dotcolour,beta,,,35,21,M,L,
723,93,9,17,5,47,33,850,['c'],1,left,['9'],5,113,[0.10722776],100,47,medium,plus,dotcolour,beta,,,35,21,M,L,
724,94,10,17,5,36,44,2100,['n'],1,right,['8'],4,81,[-0.07660536],100,44,hard,plus,dotcolour,beta,,,35,21,M,L,
725,95,11,17,5,44,36,850,['n'],0,left,['9'],5,53,[-0.02991365],100,44,hard,plus,dotcolour,beta,,,35,21,M,L,
726,96,12,17,5,27,53,784,['n'],1,right,['9'],5,101,[-0.0703947],100,53,easy,plus,dotcolour,beta,,,35,21,M,L,
727,97,13,17,5,44,36,800,['c'],1,left,['9'],5,107,[0.06863666],100,44,hard,plus,dotcolour,beta,,,35,21,M,L,
728,98,14,17,5,47,33,1268,['c'],1,left,['0'],6,141,[0.05870987],100,47,medium,plus,dotcolour,beta,,,35,21,M,L,
729,99,15,17,5,53,27,667,['c'],1,left,['9'],5,141,[0.08221131],100,53,easy,plus,dotcolour,beta,,,35,21,M,L,
730,100,16,17,5,36,44,766,['n'],1,right,['9'],5,90,[-0.09267627],100,44,hard,plus,dotcolour,beta,,,35,21,M,L,
731,101,17,17,5,33,47,733,['n'],1,right,['9'],5,58,[-0.07743941],100,47,medium,plus,dotcolour,beta,,,35,21,M,L,
732,102,18,17,5,44,36,883,['c'],1,left,['0'],6,109,[0.031467],99,44,hard,plus,dotcolour,beta,,,35,21,M,L,
733,103,19,17,5,27,53,1151,['n'],1,right,['9'],5,52,[-0.09097806],100,53,easy,plus,dotcolour,beta,,,35,21,M,L,
734,104,20,17,5,53,27,732,['c'],1,left,['0'],6,38,[0.07082894],100,53,easy,plus,dotcolour,beta,,,35,21,M,L,
735,105,21,17,5,53,27,750,['c'],1,left,['0'],6,49,[0.07434162],100,53,easy,plus,dotcolour,beta,,,35,21,M,L,
736,106,22,17,5,53,27,534,['c'],1,left,['0'],6,66,[0.05162319],100,53,easy,plus,dotcolour,beta,,,35,21,M,L,
737,107,23,17,5,47,33,600,['c'],1,left,['0'],6,57,[0.03652844],100,47,medium,plus,dotcolour,beta,,,35,21,M,L,
738,108,24,17,5,47,33,1033,['c'],1,left,['8'],4,38,[0.0643015],100,47,medium,plus,dotcolour,beta,,,35,21,M,L,
739,109,25,17,5,33,47,1017,['n'],1,right,['8'],4,62,[-0.07669835],100,47,medium,plus,dotcolour,beta,,,35,21,M,L,
740,110,26,17,5,36,44,916,['n'],1,right,['9'],5,87,[-0.06193608],100,44,hard,plus,dotcolour,beta,,,35,21,M,L,
741,111,27,17,5,53,27,800,['c'],1,left,['0'],6,78,[0.09968276],100,53,easy,plus,dotcolour,beta,,,35,21,M,L,
742,112,28,17,5,47,33,666,['c'],1,left,['9'],5,178,[0.09195791],100,47,medium,plus,dotcolour,beta,,,35,21,M,L,
743,113,29,17,5,33,47,750,['n'],1,right,['9'],5,77,[-0.07759611],100,47,medium,plus,dotcolour,beta,,,35,21,M,L,
744,114,30,17,5,27,53,1034,['n'],1,right,['9'],5,42,[-0.04035202],100,53,easy,plus,dotcolour,beta,,,35,21,M,L,
745,115,31,17,5,47,33,717,['c'],1,left,['0'],6,60,[0.06728092],100,47,medium,plus,dotcolour,beta,,,35,21,M,L,
746,116,32,17,5,44,36,833,['n'],0,left,['8'],4,450,[-0.18486306],100,44,hard,plus,dotcolour,beta,,,35,21,M,L,
747,117,33,17,5,33,47,1150,['c'],0,right,['9'],5,67,[0.0396269],100,47,medium,plus,dotcolour,beta,,,35,21,M,L,
748,118,34,17,5,27,53,1068,['n'],1,right,['9'],5,31,[-0.06768047],100,53,easy,plus,dotcolour,beta,,,35,21,M,L,
749,119,35,17,5,33,47,667,['n'],1,right,['9'],5,76,[-0.09428251],100,47,medium,plus,dotcolour,beta,,,35,21,M,L,
750,120,36,17,5,47,33,901,['c'],1,left,['9'],5,70,[0.13257615],100,47,medium,plus,dotcolour,beta,,,35,21,M,L,
751,121,37,17,5,44,36,1600,['c'],1,left,['9'],5,69,[0.07424878],100,44,hard,plus,dotcolour,beta,,,35,21,M,L,
752,122,38,17,5,44,36,1033,['n'],0,left,['9'],5,50,[-0.06791436],100,44,hard,plus,dotcolour,beta,,,35,21,M,L,
753,123,39,17,5,36,44,1183,['n'],1,right,['8'],4,35,[-0.06454136],100,44,hard,plus,dotcolour,beta,,,35,21,M,L,
754,124,40,17,5,44,36,701,['c'],1,left,['9'],5,39,[0.09054691],100,44,hard,plus,dotcolour,beta,,,35,21,M,L,
755,125,41,17,5,27,53,1200,['c'],0,right,['9'],5,55,[0.08323904],100,53,easy,plus,dotcolour,beta,,,35,21,M,L,
,,,,,,,,,,,,,,,,,,,,,1,"bij sommige antwoorden waar ik vrij zeker van was, zat ik vogends de feedback waarschijnlijk fout",35,21,M,L,
,,,,,,,,,,,,,,,,,,,,,2,['g'],35,21,M,L,
,,,,,,,,,,,,,,,,,,,,,3,['g'],35,21,M,L,
,,,,,,,,,,,,,,,,,,,,,5,"['3', '5']",35,21,M,L,
