trial,withinphasetrial,withinblocktrial,block,phase,dotsLeft,dotsRight,rt,resp,cor,cresp,conf_press,cj,RTconf,ev,fb,diff,difflevel,condition,task,manip,questionID,questionResp,sub,age,gender,handedness,
0,0,0,0,0,44,36,3967,['n'],0,left,['9'],5,5095,[0.40576679],17,44,hard,minus,dotcolour,alfa,,,123,20,M,R,
1,1,1,0,0,53,27,3400,['n'],0,left,['9'],5,2786,[0.36355012],12,53,easy,minus,dotcolour,alfa,,,123,20,M,R,
2,2,2,0,0,33,47,3651,['c'],0,right,['8'],4,4657,[-0.31573885],21,47,medium,minus,dotcolour,alfa,,,123,20,M,R,
3,3,3,0,0,53,27,2234,['c'],1,left,['0'],6,2037,[0.24517429],82,53,easy,minus,dotcolour,alfa,,,123,20,M,R,
4,4,4,0,0,53,27,3132,['c'],1,left,['9'],5,1080,[0.24930408],90,53,easy,minus,dotcolour,alfa,,,123,20,M,R,
5,5,5,0,0,53,27,1666,['c'],1,left,['0'],6,1994,[-0.10023374],35,53,easy,minus,dotcolour,alfa,,,123,20,M,R,
6,6,6,0,0,47,33,1783,['n'],0,left,['9'],5,1380,[-0.0677746],63,47,medium,minus,dotcolour,alfa,,,123,20,M,R,
7,7,7,0,0,33,47,2017,['n'],1,right,['8'],4,1349,[-0.25313247],88,47,medium,minus,dotcolour,alfa,,,123,20,M,R,
8,8,8,0,0,53,27,1184,['c'],1,left,['0'],6,1392,[0.06132587],61,53,easy,minus,dotcolour,alfa,,,123,20,M,R,
9,9,9,0,0,44,36,3401,['n'],0,left,['9'],5,785,[0.08793086],29,44,hard,minus,dotcolour,alfa,,,123,20,M,R,
10,10,10,0,0,36,44,4700,['c'],0,right,['8'],4,2726,[-0.38726516],11,44,hard,minus,dotcolour,alfa,,,123,20,M,R,
11,11,11,0,0,36,44,1700,['n'],1,right,['9'],5,694,[-0.06203353],66,44,hard,minus,dotcolour,alfa,,,123,20,M,R,
12,12,12,0,0,47,33,1300,['c'],1,left,['8'],4,575,[0.02568964],58,47,medium,minus,dotcolour,alfa,,,123,20,M,R,
13,13,13,0,0,44,36,1368,['c'],1,left,['9'],5,1106,[0.23270646],88,44,hard,minus,dotcolour,alfa,,,123,20,M,R,
14,14,14,0,0,27,53,1299,['n'],1,right,['9'],5,516,[-0.13087427],84,53,easy,minus,dotcolour,alfa,,,123,20,M,R,
15,15,15,0,0,36,44,3850,['n'],1,right,['8'],4,678,[-0.12788768],80,44,hard,minus,dotcolour,alfa,,,123,20,M,R,
16,16,16,0,0,47,33,1116,['c'],1,left,['9'],5,703,[0.21241119],91,47,medium,minus,dotcolour,alfa,,,123,20,M,R,
17,17,17,0,0,33,47,1151,['n'],1,right,['8'],4,1822,[-0.22644194],82,47,medium,minus,dotcolour,alfa,,,123,20,M,R,
18,18,18,0,0,27,53,1367,['n'],1,right,['0'],6,1064,[-0.21139108],86,53,easy,minus,dotcolour,alfa,,,123,20,M,R,
19,19,19,0,0,47,33,934,['c'],1,left,['0'],6,313,[0.1326454],89,47,medium,minus,dotcolour,alfa,,,123,20,M,R,
20,20,20,0,0,27,53,1166,['n'],1,right,['0'],6,447,[-0.16798139],91,53,easy,minus,dotcolour,alfa,,,123,20,M,R,
21,21,21,0,0,47,33,984,['c'],1,left,['0'],6,327,[0.09082473],81,47,medium,minus,dotcolour,alfa,,,123,20,M,R,
22,22,22,0,0,44,36,1866,['n'],0,left,['8'],4,1249,[-0.06252863],62,44,hard,minus,dotcolour,alfa,,,123,20,M,R,
23,23,23,0,0,27,53,3717,['c'],0,right,['2'],2,771,[0.00669246],52,53,easy,minus,dotcolour,alfa,,,123,20,M,R,
24,24,24,0,0,44,36,1033,['n'],0,left,['1'],1,1555,[-0.14121812],73,44,hard,minus,dotcolour,alfa,,,123,20,M,R,
25,25,25,0,0,33,47,1850,['n'],1,right,['0'],6,981,[-0.04112551],59,47,medium,minus,dotcolour,alfa,,,123,20,M,R,
26,26,26,0,0,47,33,1433,['c'],1,left,['8'],4,2101,[0.43182275],94,47,medium,minus,dotcolour,alfa,,,123,20,M,R,
27,27,27,0,0,53,27,3350,['c'],1,left,['0'],6,580,[0.13421596],83,53,easy,minus,dotcolour,alfa,,,123,20,M,R,
28,28,28,0,0,27,53,1433,['n'],1,right,['9'],5,749,[-0.17193431],86,53,easy,minus,dotcolour,alfa,,,123,20,M,R,
29,29,29,0,0,33,47,1501,['n'],1,right,['9'],5,564,[-0.16348082],88,47,medium,minus,dotcolour,alfa,,,123,20,M,R,
30,30,30,0,0,44,36,1302,['c'],1,left,['8'],4,626,[0.14024875],83,44,hard,minus,dotcolour,alfa,,,123,20,M,R,
31,31,31,0,0,33,47,4367,['n'],1,right,['8'],4,716,[-0.26813666],95,47,medium,minus,dotcolour,alfa,,,123,20,M,R,
32,32,32,0,0,47,33,1533,['c'],1,left,['0'],6,339,[0.11956206],86,47,medium,minus,dotcolour,alfa,,,123,20,M,R,
33,33,33,0,0,36,44,1266,['n'],1,right,['9'],5,972,[-0.11445679],74,44,hard,minus,dotcolour,alfa,,,123,20,M,R,
34,34,34,0,0,53,27,967,['c'],1,left,['0'],6,447,[0.2342404],96,53,easy,minus,dotcolour,alfa,,,123,20,M,R,
35,35,35,0,0,44,36,1317,['c'],1,left,['9'],5,514,[0.01677794],55,44,hard,minus,dotcolour,alfa,,,123,20,M,R,
36,36,36,0,0,27,53,801,['n'],1,right,['9'],5,431,[-0.04127323],64,53,easy,minus,dotcolour,alfa,,,123,20,M,R,
37,37,37,0,0,36,44,1600,['c'],0,right,['8'],4,1111,[-0.01412179],47,44,hard,minus,dotcolour,alfa,,,123,20,M,R,
38,38,38,0,0,33,47,1383,['n'],1,right,['9'],5,356,[-0.1317003],88,47,medium,minus,dotcolour,alfa,,,123,20,M,R,
39,39,39,0,0,36,44,1834,['n'],1,right,['9'],5,405,[0.00190505],49,44,hard,minus,dotcolour,alfa,,,123,20,M,R,
40,40,40,0,0,36,44,1416,['n'],1,right,['0'],6,790,[-0.0331648],58,44,hard,minus,dotcolour,alfa,,,123,20,M,R,
41,41,41,0,0,27,53,816,['n'],1,right,['9'],5,446,[-0.10496802],80,53,easy,minus,dotcolour,alfa,,,123,20,M,R,
42,42,0,1,0,47,33,1751,['n'],0,left,['8'],4,486,[-0.02106357],57,47,medium,minus,dotcolour,alfa,,,123,20,M,R,
43,43,1,1,0,33,47,1583,['c'],0,right,['8'],4,949,[0.08556975],69,47,medium,minus,dotcolour,alfa,,,123,20,M,R,
44,44,2,1,0,44,36,1034,['c'],1,left,['0'],6,878,[0.06048079],64,44,hard,minus,dotcolour,alfa,,,123,20,M,R,
45,45,3,1,0,53,27,667,['c'],1,left,['0'],6,481,[0.10855759],80,53,easy,minus,dotcolour,alfa,,,123,20,M,R,
46,46,4,1,0,33,47,1833,['c'],0,right,['9'],5,438,[0.04382865],64,47,medium,minus,dotcolour,alfa,,,123,20,M,R,
47,47,5,1,0,33,47,1016,['c'],0,right,['9'],5,310,[0.08384596],79,47,medium,minus,dotcolour,alfa,,,123,20,M,R,
48,48,6,1,0,27,53,916,['n'],1,right,['0'],6,461,[0.01912509],44,53,easy,minus,dotcolour,alfa,,,123,20,M,R,
49,49,7,1,0,36,44,2001,['n'],1,right,['9'],5,660,[-0.11830984],79,44,hard,minus,dotcolour,alfa,,,123,20,M,R,
50,50,8,1,0,36,44,1883,['n'],1,right,['8'],4,511,[-0.1203969],82,44,hard,minus,dotcolour,alfa,,,123,20,M,R,
51,51,9,1,0,36,44,1033,['n'],1,right,['9'],5,442,[-0.13219512],86,44,hard,minus,dotcolour,alfa,,,123,20,M,R,
52,52,10,1,0,33,47,1217,['c'],0,right,['9'],5,434,[0.01980578],57,47,medium,minus,dotcolour,alfa,,,123,20,M,R,
53,53,11,1,0,47,33,1017,['n'],0,left,['8'],4,1737,[0.23816527],16,47,medium,minus,dotcolour,alfa,,,123,20,M,R,
54,54,12,1,0,27,53,933,['n'],1,right,['9'],5,487,[-0.25000671],96,53,easy,minus,dotcolour,alfa,,,123,20,M,R,
55,55,13,1,0,36,44,934,['n'],1,right,['9'],5,439,[-0.08163189],75,44,hard,minus,dotcolour,alfa,,,123,20,M,R,
56,56,14,1,0,27,53,2166,['c'],0,right,['8'],4,1168,[0.01155917],52,53,easy,minus,dotcolour,alfa,,,123,20,M,R,
57,57,15,1,0,53,27,1133,['c'],1,left,['0'],6,285,[0.19782663],97,53,easy,minus,dotcolour,alfa,,,123,20,M,R,
58,58,16,1,0,47,33,733,['c'],1,left,['0'],6,253,[0.06804609],77,47,medium,minus,dotcolour,alfa,,,123,20,M,R,
59,59,17,1,0,27,53,651,['n'],1,right,['0'],6,939,[-0.35583726],96,53,easy,minus,dotcolour,alfa,,,123,20,M,R,
60,60,18,1,0,47,33,950,['c'],1,left,['0'],6,224,[0.16622655],96,47,medium,minus,dotcolour,alfa,,,123,20,M,R,
61,61,19,1,0,47,33,651,['c'],1,left,['0'],6,262,[0.14296356],93,47,medium,minus,dotcolour,alfa,,,123,20,M,R,
62,62,20,1,0,53,27,565,['c'],1,left,['9'],5,903,[0.15187975],81,53,easy,minus,dotcolour,alfa,,,123,20,M,R,
63,63,21,1,0,36,44,1467,['n'],1,right,['8'],4,784,[-0.06357751],66,44,hard,minus,dotcolour,alfa,,,123,20,M,R,
64,64,22,1,0,27,53,733,['n'],1,right,['9'],5,340,[-0.070479],75,53,easy,minus,dotcolour,alfa,,,123,20,M,R,
65,65,23,1,0,53,27,834,['c'],1,left,['9'],5,262,[0.05828446],74,53,easy,minus,dotcolour,alfa,,,123,20,M,R,
66,66,24,1,0,36,44,884,['n'],1,right,['0'],6,482,[-0.12723079],84,44,hard,minus,dotcolour,alfa,,,123,20,M,R,
67,67,25,1,0,44,36,1317,['n'],0,left,['0'],6,251,[-0.14396678],93,44,hard,minus,dotcolour,alfa,,,123,20,M,R,
68,68,26,1,0,27,53,1167,['n'],1,right,['9'],5,220,[0.02889836],36,53,easy,minus,dotcolour,alfa,,,123,20,M,R,
69,69,27,1,0,36,44,950,['n'],1,right,['9'],5,383,[-0.01722285],56,44,hard,minus,dotcolour,alfa,,,123,20,M,R,
70,70,28,1,0,47,33,667,['c'],1,left,['0'],6,1142,[0.3239473],94,47,medium,minus,dotcolour,alfa,,,123,20,M,R,
71,71,29,1,0,44,36,1167,['c'],1,left,['0'],6,131,[0.03672067],71,44,hard,minus,dotcolour,alfa,,,123,20,M,R,
72,72,30,1,0,53,27,1967,['c'],1,left,['9'],5,656,[0.03613159],60,53,easy,minus,dotcolour,alfa,,,123,20,M,R,
73,73,31,1,0,44,36,1150,['c'],1,left,['9'],5,281,[0.09593008],84,44,hard,minus,dotcolour,alfa,,,123,20,M,R,
74,74,32,1,0,33,47,1099,['c'],0,right,['9'],5,443,[0.10937754],81,47,medium,minus,dotcolour,alfa,,,123,20,M,R,
75,75,33,1,0,53,27,767,['c'],1,left,['0'],6,403,[0.11587772],84,53,easy,minus,dotcolour,alfa,,,123,20,M,R,
76,76,34,1,0,33,47,1734,['c'],0,right,['8'],4,967,[-0.04108849],41,47,medium,minus,dotcolour,alfa,,,123,20,M,R,
77,77,35,1,0,47,33,750,['c'],1,left,['8'],4,467,[0.30506677],98,47,medium,minus,dotcolour,alfa,,,123,20,M,R,
78,78,36,1,0,44,36,1800,['n'],0,left,['9'],5,537,[-0.04620183],64,44,hard,minus,dotcolour,alfa,,,123,20,M,R,
79,79,37,1,0,33,47,1133,['n'],1,right,['9'],5,311,[-0.1335426],90,47,medium,minus,dotcolour,alfa,,,123,20,M,R,
80,80,38,1,0,44,36,1084,['c'],1,left,['8'],4,353,[0.09225794],80,44,hard,minus,dotcolour,alfa,,,123,20,M,R,
81,81,39,1,0,27,53,816,['n'],1,right,['9'],5,268,[-0.12081312],89,53,easy,minus,dotcolour,alfa,,,123,20,M,R,
82,82,40,1,0,44,36,767,['c'],1,left,['9'],5,347,[0.08778173],79,44,hard,minus,dotcolour,alfa,,,123,20,M,R,
83,83,41,1,0,53,27,667,['c'],1,left,['0'],6,500,[0.06059489],68,53,easy,minus,dotcolour,alfa,,,123,20,M,R,
84,84,0,2,0,33,47,800,['n'],1,right,['9'],5,484,[-0.03285258],60,47,medium,minus,dotcolour,alfa,,,123,20,M,R,
85,85,1,2,0,36,44,2000,['c'],0,right,['8'],4,650,[-0.05848295],34,44,hard,minus,dotcolour,alfa,,,123,20,M,R,
86,86,2,2,0,33,47,1083,['c'],0,right,['8'],4,414,[-0.0215689],43,47,medium,minus,dotcolour,alfa,,,123,20,M,R,
87,87,3,2,0,44,36,916,['c'],1,left,['8'],4,410,[0.0200348],57,44,hard,minus,dotcolour,alfa,,,123,20,M,R,
88,88,4,2,0,53,27,1216,['c'],1,left,['0'],6,754,[0.25958341],94,53,easy,minus,dotcolour,alfa,,,123,20,M,R,
89,89,5,2,0,53,27,617,['c'],1,left,['9'],5,701,[0.23289754],92,53,easy,minus,dotcolour,alfa,,,123,20,M,R,
90,90,6,2,0,33,47,684,['n'],1,right,['0'],6,438,[-0.10302839],80,47,medium,minus,dotcolour,alfa,,,123,20,M,R,
91,91,7,2,0,47,33,733,['c'],1,left,['0'],6,400,[0.20617903],95,47,medium,minus,dotcolour,alfa,,,123,20,M,R,
92,92,8,2,0,36,44,1582,['n'],1,right,['0'],6,531,[-0.07904959],73,44,hard,minus,dotcolour,alfa,,,123,20,M,R,
93,93,9,2,0,36,44,1217,['c'],0,right,['9'],5,445,[0.05695725],68,44,hard,minus,dotcolour,alfa,,,123,20,M,R,
94,94,10,2,0,33,47,1252,['n'],1,right,['9'],5,1330,[-0.15610385],77,47,medium,minus,dotcolour,alfa,,,123,20,M,R,
95,95,11,2,0,53,27,1134,['c'],1,left,['9'],5,809,[-0.04770527],38,53,easy,minus,dotcolour,alfa,,,123,20,M,R,
96,96,12,2,0,44,36,1899,['c'],1,left,['2'],2,726,[0.0818128],70,44,hard,minus,dotcolour,alfa,,,123,20,M,R,
97,97,13,2,0,36,44,1702,['c'],0,right,['3'],3,2046,[0.09508129],65,44,hard,minus,dotcolour,alfa,,,123,20,M,R,
98,98,14,2,0,44,36,3134,['n'],0,left,['0'],6,2279,[0.01815293],47,44,hard,minus,dotcolour,alfa,,,123,20,M,R,
99,99,15,2,0,27,53,1216,['n'],1,right,['9'],5,708,[-0.31423412],97,53,easy,minus,dotcolour,alfa,,,123,20,M,R,
100,100,16,2,0,47,33,1199,['c'],1,left,['8'],4,504,[0.26122821],96,47,medium,minus,dotcolour,alfa,,,123,20,M,R,
101,101,17,2,0,53,27,2518,['n'],0,left,['9'],5,552,[0.10361226],22,53,easy,minus,dotcolour,alfa,,,123,20,M,R,
102,102,18,2,0,33,47,1316,['n'],1,right,['9'],5,295,[-0.23990918],98,47,medium,minus,dotcolour,alfa,,,123,20,M,R,
103,103,19,2,0,36,44,1916,['n'],1,right,['8'],4,273,[0.02753727],38,44,hard,minus,dotcolour,alfa,,,123,20,M,R,
104,104,20,2,0,27,53,950,['n'],1,right,['8'],4,432,[-0.10706242],81,53,easy,minus,dotcolour,alfa,,,123,20,M,R,
105,105,21,2,0,44,36,1350,['n'],0,left,['9'],5,770,[-0.01007483],53,44,hard,minus,dotcolour,alfa,,,123,20,M,R,
106,106,22,2,0,47,33,949,['c'],1,left,['8'],4,350,[0.06858355],74,47,medium,minus,dotcolour,alfa,,,123,20,M,R,
107,107,23,2,0,27,53,717,['n'],1,right,['9'],5,381,[-0.04721319],67,53,easy,minus,dotcolour,alfa,,,123,20,M,R,
108,108,24,2,0,27,53,900,['n'],1,right,['9'],5,235,[0.00767335],46,53,easy,minus,dotcolour,alfa,,,123,20,M,R,
109,109,25,2,0,44,36,1351,['c'],1,left,['8'],4,437,[0.13448572],86,44,hard,minus,dotcolour,alfa,,,123,20,M,R,
110,110,26,2,0,47,33,850,['c'],1,left,['9'],5,348,[0.0830138],78,47,medium,minus,dotcolour,alfa,,,123,20,M,R,
111,111,27,2,0,47,33,1382,['n'],0,left,['9'],5,328,[-0.07115119],75,47,medium,minus,dotcolour,alfa,,,123,20,M,R,
112,112,28,2,0,33,47,2200,['c'],0,right,['8'],4,139,[0.13153883],96,47,medium,minus,dotcolour,alfa,,,123,20,M,R,
113,113,29,2,0,53,27,666,['c'],1,left,['0'],6,412,[0.04725791],66,53,easy,minus,dotcolour,alfa,,,123,20,M,R,
114,114,30,2,0,53,27,566,['c'],1,left,['0'],6,159,[0.06254875],80,53,easy,minus,dotcolour,alfa,,,123,20,M,R,
115,115,31,2,0,27,53,750,['n'],1,right,['0'],6,235,[-0.05658449],74,53,easy,minus,dotcolour,alfa,,,123,20,M,R,
116,116,32,2,0,27,53,1116,['n'],1,right,['0'],6,334,[-0.20233927],96,53,easy,minus,dotcolour,alfa,,,123,20,M,R,
117,117,33,2,0,53,27,1567,['c'],1,left,['9'],5,668,[0.14699735],83,53,easy,minus,dotcolour,alfa,,,123,20,M,R,
118,118,34,2,0,47,33,633,['c'],1,left,['0'],6,217,[0.15547321],95,47,medium,minus,dotcolour,alfa,,,123,20,M,R,
119,119,35,2,0,44,36,1966,['n'],0,left,['8'],4,379,[-0.08859444],79,44,hard,minus,dotcolour,alfa,,,123,20,M,R,
120,120,36,2,0,44,36,1684,['c'],1,left,['8'],4,451,[0.04941802],66,44,hard,minus,dotcolour,alfa,,,123,20,M,R,
121,121,37,2,0,47,33,2651,['n'],0,left,['9'],5,3239,[0.28936812],19,47,medium,minus,dotcolour,alfa,,,123,20,M,R,
122,122,38,2,0,33,47,1134,['n'],1,right,['9'],5,689,[-0.05975615],66,47,medium,minus,dotcolour,alfa,,,123,20,M,R,
123,123,39,2,0,27,53,1284,['n'],1,right,['9'],5,387,[-0.12783352],86,53,easy,minus,dotcolour,alfa,,,123,20,M,R,
124,124,40,2,0,36,44,1200,['n'],1,right,['8'],4,172,[-0.0805176],85,44,hard,minus,dotcolour,alfa,,,123,20,M,R,
125,125,41,2,0,36,44,1083,['n'],1,right,['8'],4,291,[-0.17162655],95,44,hard,minus,dotcolour,alfa,,,123,20,M,R,
126,0,0,3,1,27,53,818,['n'],1,right,['0'],6,260,[-0.09924019],100,53,easy,plus,dotcolour,alfa,,,123,20,M,R,
127,1,1,3,1,36,44,1034,['n'],1,right,['9'],5,210,[-0.14806824],100,44,hard,plus,dotcolour,alfa,,,123,20,M,R,
128,2,2,3,1,27,53,1216,['n'],1,right,['0'],6,393,[-0.07453825],99,53,easy,plus,dotcolour,alfa,,,123,20,M,R,
129,3,3,3,1,44,36,816,['c'],1,left,['0'],6,282,[0.05564606],98,44,hard,plus,dotcolour,alfa,,,123,20,M,R,
130,4,4,3,1,44,36,1433,['n'],0,left,['0'],6,351,[0.02053528],22,44,hard,plus,dotcolour,alfa,,,123,20,M,R,
131,5,5,3,1,44,36,1234,['c'],1,left,['9'],5,473,[0.07270101],98,44,hard,plus,dotcolour,alfa,,,123,20,M,R,
132,6,6,3,1,47,33,1316,['c'],1,left,['0'],6,283,[0.08858362],100,47,medium,plus,dotcolour,alfa,,,123,20,M,R,
133,7,7,3,1,47,33,900,['c'],1,left,['0'],6,125,[-0.00589278],35,47,medium,plus,dotcolour,alfa,,,123,20,M,R,
134,8,8,3,1,53,27,767,['c'],1,left,['0'],6,330,[-0.00087132],49,53,easy,plus,dotcolour,alfa,,,123,20,M,R,
135,9,9,3,1,44,36,1217,['n'],0,left,['9'],5,357,[0.01522816],29,44,hard,plus,dotcolour,alfa,,,123,20,M,R,
136,10,10,3,1,53,27,666,['c'],1,left,['0'],6,310,[0.14249609],100,53,easy,plus,dotcolour,alfa,,,123,20,M,R,
137,11,11,3,1,33,47,800,['n'],1,right,['0'],6,154,[-0.12047765],100,47,medium,plus,dotcolour,alfa,,,123,20,M,R,
138,12,12,3,1,53,27,850,['c'],1,left,['0'],6,219,[0.18326808],100,53,easy,plus,dotcolour,alfa,,,123,20,M,R,
139,13,13,3,1,47,33,684,['c'],1,left,['0'],6,249,[0.14888138],100,47,medium,plus,dotcolour,alfa,,,123,20,M,R,
140,14,14,3,1,47,33,584,['c'],1,left,['0'],6,168,[0.09844177],100,47,medium,plus,dotcolour,alfa,,,123,20,M,R,
141,15,15,3,1,27,53,1032,['n'],1,right,['0'],6,171,[-0.10092457],100,53,easy,plus,dotcolour,alfa,,,123,20,M,R,
142,16,16,3,1,33,47,1549,['n'],1,right,['9'],5,655,[-0.22400454],100,47,medium,plus,dotcolour,alfa,,,123,20,M,R,
143,17,17,3,1,27,53,766,['n'],1,right,['9'],5,239,[-0.08985257],100,53,easy,plus,dotcolour,alfa,,,123,20,M,R,
144,18,18,3,1,44,36,683,['c'],1,left,['9'],5,403,[0.13472662],100,44,hard,plus,dotcolour,alfa,,,123,20,M,R,
145,19,19,3,1,36,44,1249,['n'],1,right,['9'],5,330,[-0.09098095],100,44,hard,plus,dotcolour,alfa,,,123,20,M,R,
146,20,20,3,1,36,44,1000,['n'],1,right,['9'],5,623,[-0.20348178],100,44,hard,plus,dotcolour,alfa,,,123,20,M,R,
147,21,21,3,1,53,27,917,['c'],1,left,['0'],6,226,[0.15338423],100,53,easy,plus,dotcolour,alfa,,,123,20,M,R,
148,22,22,3,1,36,44,1083,['n'],1,right,['9'],5,270,[-0.09839643],100,44,hard,plus,dotcolour,alfa,,,123,20,M,R,
149,23,23,3,1,53,27,967,['c'],1,left,['0'],6,247,[0.06047662],99,53,easy,plus,dotcolour,alfa,,,123,20,M,R,
150,24,24,3,1,33,47,733,['n'],1,right,['9'],5,249,[-0.04445089],96,47,medium,plus,dotcolour,alfa,,,123,20,M,R,
151,25,25,3,1,44,36,817,['c'],1,left,['0'],6,175,[0.03823985],96,44,hard,plus,dotcolour,alfa,,,123,20,M,R,
152,26,26,3,1,27,53,650,['n'],1,right,['0'],6,167,[-0.06123219],100,53,easy,plus,dotcolour,alfa,,,123,20,M,R,
153,27,27,3,1,33,47,868,['n'],1,right,['0'],6,175,[-0.05768436],99,47,medium,plus,dotcolour,alfa,,,123,20,M,R,
154,28,28,3,1,36,44,968,['n'],1,right,['0'],6,282,[-0.07517695],99,44,hard,plus,dotcolour,alfa,,,123,20,M,R,
155,29,29,3,1,33,47,784,['n'],1,right,['0'],6,281,[-0.14387287],100,47,medium,plus,dotcolour,alfa,,,123,20,M,R,
156,30,30,3,1,33,47,650,['n'],1,right,['0'],6,301,[-0.13647927],100,47,medium,plus,dotcolour,alfa,,,123,20,M,R,
157,31,31,3,1,53,27,717,['c'],1,left,['0'],6,262,[0.09971396],100,53,easy,plus,dotcolour,alfa,,,123,20,M,R,
158,32,32,3,1,27,53,751,['n'],1,right,['0'],6,262,[9.33737327e-05],50,53,easy,plus,dotcolour,alfa,,,123,20,M,R,
159,33,33,3,1,36,44,766,['n'],1,right,['0'],6,127,[-0.07308471],100,44,hard,plus,dotcolour,alfa,,,123,20,M,R,
160,34,34,3,1,44,36,1217,['c'],1,left,['0'],6,290,[0.09565771],100,44,hard,plus,dotcolour,alfa,,,123,20,M,R,
161,35,35,3,1,53,27,650,['c'],1,left,['0'],6,197,[0.06587473],100,53,easy,plus,dotcolour,alfa,,,123,20,M,R,
162,36,36,3,1,47,33,801,['c'],1,left,['0'],6,495,[0.19349102],100,47,medium,plus,dotcolour,alfa,,,123,20,M,R,
163,37,37,3,1,47,33,916,['c'],1,left,['0'],6,167,[0.13644013],100,47,medium,plus,dotcolour,alfa,,,123,20,M,R,
164,38,38,3,1,27,53,783,['n'],1,right,['0'],6,259,[-0.10618046],100,53,easy,plus,dotcolour,alfa,,,123,20,M,R,
165,39,39,3,1,47,33,600,['c'],1,left,['0'],6,154,[0.06407656],100,47,medium,plus,dotcolour,alfa,,,123,20,M,R,
166,40,40,3,1,36,44,800,['n'],1,right,['0'],6,149,[-0.03359556],96,44,hard,plus,dotcolour,alfa,,,123,20,M,R,
167,41,41,3,1,33,47,3516,['c'],0,right,['1'],1,651,[-0.06470622],5,47,medium,plus,dotcolour,alfa,,,123,20,M,R,
168,42,0,4,1,36,44,1185,['n'],1,right,['0'],6,129,[-0.05789905],100,44,hard,plus,dotcolour,alfa,,,123,20,M,R,
169,43,1,4,1,44,36,650,['c'],1,left,['0'],6,195,[0.09256177],100,44,hard,plus,dotcolour,alfa,,,123,20,M,R,
170,44,2,4,1,44,36,799,['c'],1,left,['0'],6,148,[0.0046516],61,44,hard,plus,dotcolour,alfa,,,123,20,M,R,
171,45,3,4,1,27,53,667,['n'],1,right,['0'],6,141,[-0.01085446],74,53,easy,plus,dotcolour,alfa,,,123,20,M,R,
172,46,4,4,1,33,47,633,['n'],1,right,['0'],6,127,[-0.16006637],100,47,medium,plus,dotcolour,alfa,,,123,20,M,R,
173,47,5,4,1,44,36,601,['c'],1,left,['0'],6,235,[0.08113898],100,44,hard,plus,dotcolour,alfa,,,123,20,M,R,
174,48,6,4,1,44,36,634,['c'],1,left,['0'],6,210,[0.02911819],91,44,hard,plus,dotcolour,alfa,,,123,20,M,R,
175,49,7,4,1,47,33,916,['c'],1,left,['0'],6,222,[0.09657633],100,47,medium,plus,dotcolour,alfa,,,123,20,M,R,
176,50,8,4,1,53,27,550,['c'],1,left,['0'],6,185,[0.03003209],93,53,easy,plus,dotcolour,alfa,,,123,20,M,R,
177,51,9,4,1,53,27,534,['c'],1,left,['0'],6,165,[0.07623791],100,53,easy,plus,dotcolour,alfa,,,123,20,M,R,
178,52,10,4,1,44,36,600,['c'],1,left,['0'],6,184,[0.06062157],99,44,hard,plus,dotcolour,alfa,,,123,20,M,R,
179,53,11,4,1,53,27,500,['c'],1,left,['0'],6,190,[0.04951703],98,53,easy,plus,dotcolour,alfa,,,123,20,M,R,
180,54,12,4,1,44,36,550,['c'],1,left,['0'],6,145,[0.14917702],100,44,hard,plus,dotcolour,alfa,,,123,20,M,R,
181,55,13,4,1,47,33,582,['c'],1,left,['0'],6,197,[0.14067666],100,47,medium,plus,dotcolour,alfa,,,123,20,M,R,
182,56,14,4,1,33,47,800,['n'],1,right,['0'],6,223,[-0.05209008],98,47,medium,plus,dotcolour,alfa,,,123,20,M,R,
183,57,15,4,1,36,44,1200,['n'],1,right,['0'],6,215,[-0.0158171],77,44,hard,plus,dotcolour,alfa,,,123,20,M,R,
184,58,16,4,1,47,33,550,['c'],1,left,['0'],6,369,[0.07664279],99,47,medium,plus,dotcolour,alfa,,,123,20,M,R,
185,59,17,4,1,33,47,1299,['c'],0,right,['0'],6,225,[0.11789692],100,47,medium,plus,dotcolour,alfa,,,123,20,M,R,
186,60,18,4,1,33,47,717,['n'],1,right,['0'],6,212,[-0.10811427],100,47,medium,plus,dotcolour,alfa,,,123,20,M,R,
187,61,19,4,1,36,44,934,['c'],0,right,['0'],6,159,[0.10084177],100,44,hard,plus,dotcolour,alfa,,,123,20,M,R,
188,62,20,4,1,36,44,716,['c'],0,right,['0'],6,181,[0.00897225],68,44,hard,plus,dotcolour,alfa,,,123,20,M,R,
189,63,21,4,1,33,47,899,['n'],1,right,['0'],6,212,[-0.04750866],98,47,medium,plus,dotcolour,alfa,,,123,20,M,R,
190,64,22,4,1,47,33,734,['c'],1,left,['0'],6,238,[0.05917844],99,47,medium,plus,dotcolour,alfa,,,123,20,M,R,
191,65,23,4,1,47,33,1334,['c'],1,left,['0'],6,185,[0.15258965],100,47,medium,plus,dotcolour,alfa,,,123,20,M,R,
192,66,24,4,1,53,27,534,['c'],1,left,['0'],6,150,[0.16266009],100,53,easy,plus,dotcolour,alfa,,,123,20,M,R,
193,67,25,4,1,33,47,851,['n'],1,right,['0'],6,192,[-0.0099472],69,47,medium,plus,dotcolour,alfa,,,123,20,M,R,
194,68,26,4,1,47,33,684,['c'],1,left,['0'],6,173,[0.00275872],56,47,medium,plus,dotcolour,alfa,,,123,20,M,R,
195,69,27,4,1,36,44,650,['n'],1,right,['0'],6,213,[-0.14245726],100,44,hard,plus,dotcolour,alfa,,,123,20,M,R,
196,70,28,4,1,27,53,684,['n'],1,right,['0'],6,178,[-0.05161989],99,53,easy,plus,dotcolour,alfa,,,123,20,M,R,
197,71,29,4,1,53,27,633,['c'],1,left,['0'],6,267,[0.0987144],100,53,easy,plus,dotcolour,alfa,,,123,20,M,R,
198,72,30,4,1,33,47,1117,['n'],1,right,['0'],6,373,[-0.12293439],100,47,medium,plus,dotcolour,alfa,,,123,20,M,R,
199,73,31,4,1,47,33,583,['c'],1,left,['0'],6,304,[0.15698211],100,47,medium,plus,dotcolour,alfa,,,123,20,M,R,
200,74,32,4,1,27,53,835,['n'],1,right,['0'],6,180,[-0.08775931],100,53,easy,plus,dotcolour,alfa,,,123,20,M,R,
201,75,33,4,1,44,36,616,['c'],1,left,['0'],6,325,[0.13800873],100,44,hard,plus,dotcolour,alfa,,,123,20,M,R,
202,76,34,4,1,53,27,649,['c'],1,left,['0'],6,208,[0.03827549],95,53,easy,plus,dotcolour,alfa,,,123,20,M,R,
203,77,35,4,1,36,44,1384,['n'],1,right,['0'],6,265,[-0.07385375],99,44,hard,plus,dotcolour,alfa,,,123,20,M,R,
204,78,36,4,1,27,53,1500,['n'],1,right,['9'],5,187,[-0.09215628],100,53,easy,plus,dotcolour,alfa,,,123,20,M,R,
205,79,37,4,1,27,53,750,['n'],1,right,['9'],5,136,[-0.08083658],100,53,easy,plus,dotcolour,alfa,,,123,20,M,R,
206,80,38,4,1,27,53,734,['n'],1,right,['9'],5,150,[-0.07370212],100,53,easy,plus,dotcolour,alfa,,,123,20,M,R,
207,81,39,4,1,53,27,3183,['c'],1,left,['1'],1,442,[0.17606125],100,53,easy,plus,dotcolour,alfa,,,123,20,M,R,
208,82,40,4,1,36,44,1318,['n'],1,right,['0'],6,341,[-0.12023291],100,44,hard,plus,dotcolour,alfa,,,123,20,M,R,
209,83,41,4,1,27,53,633,['n'],1,right,['9'],5,128,[-0.18094501],100,53,easy,plus,dotcolour,alfa,,,123,20,M,R,
210,84,0,5,1,36,44,1401,['n'],1,right,['9'],5,143,[-0.04219954],98,44,hard,plus,dotcolour,alfa,,,123,20,M,R,
211,85,1,5,1,47,33,683,['c'],1,left,['9'],5,423,[0.09820936],100,47,medium,plus,dotcolour,alfa,,,123,20,M,R,
212,86,2,5,1,27,53,717,['n'],1,right,['0'],6,138,[-0.03457587],97,53,easy,plus,dotcolour,alfa,,,123,20,M,R,
213,87,3,5,1,27,53,817,['n'],1,right,['0'],6,206,[-0.12597604],100,53,easy,plus,dotcolour,alfa,,,123,20,M,R,
214,88,4,5,1,27,53,833,['n'],1,right,['0'],6,173,[-0.0975007],100,53,easy,plus,dotcolour,alfa,,,123,20,M,R,
215,89,5,5,1,33,47,2734,['n'],1,right,['0'],6,170,[-0.08918138],100,47,medium,plus,dotcolour,alfa,,,123,20,M,R,
216,90,6,5,1,33,47,717,['n'],1,right,['9'],5,184,[-0.02876203],92,47,medium,plus,dotcolour,alfa,,,123,20,M,R,
217,91,7,5,1,53,27,650,['c'],1,left,['9'],5,481,[0.11394343],100,53,easy,plus,dotcolour,alfa,,,123,20,M,R,
218,92,8,5,1,53,27,550,['c'],1,left,['0'],6,240,[0.0762103],100,53,easy,plus,dotcolour,alfa,,,123,20,M,R,
219,93,9,5,1,33,47,684,['n'],1,right,['0'],6,172,[-0.07988504],100,47,medium,plus,dotcolour,alfa,,,123,20,M,R,
220,94,10,5,1,36,44,1817,['n'],1,right,['9'],5,503,[-0.24617071],100,44,hard,plus,dotcolour,alfa,,,123,20,M,R,
221,95,11,5,1,53,27,1750,['c'],1,left,['0'],6,190,[0.05303201],99,53,easy,plus,dotcolour,alfa,,,123,20,M,R,
222,96,12,5,1,53,27,717,['c'],1,left,['0'],6,138,[0.08336407],100,53,easy,plus,dotcolour,alfa,,,123,20,M,R,
223,97,13,5,1,44,36,517,['c'],1,left,['0'],6,122,[0.08325368],100,44,hard,plus,dotcolour,alfa,,,123,20,M,R,
224,98,14,5,1,33,47,784,['c'],0,right,['1'],1,1335,[-0.05516677],15,47,medium,plus,dotcolour,alfa,,,123,20,M,R,
225,99,15,5,1,44,36,3401,['n'],0,left,['0'],6,235,[-0.0165144],77,44,hard,plus,dotcolour,alfa,,,123,20,M,R,
226,100,16,5,1,27,53,650,['n'],1,right,['0'],6,497,[-0.11582919],100,53,easy,plus,dotcolour,alfa,,,123,20,M,R,
227,101,17,5,1,47,33,650,['c'],1,left,['0'],6,676,[-0.02577922],24,47,medium,plus,dotcolour,alfa,,,123,20,M,R,
228,102,18,5,1,44,36,1435,['c'],1,left,['0'],6,168,[0.02768973],92,44,hard,plus,dotcolour,alfa,,,123,20,M,R,
229,103,19,5,1,36,44,617,['n'],1,right,['9'],5,122,[-0.12479541],100,44,hard,plus,dotcolour,alfa,,,123,20,M,R,
230,104,20,5,1,27,53,1601,['n'],1,right,['0'],6,135,[-0.13198608],100,53,easy,plus,dotcolour,alfa,,,123,20,M,R,
231,105,21,5,1,44,36,1000,['c'],1,left,['0'],6,691,[0.20636133],100,44,hard,plus,dotcolour,alfa,,,123,20,M,R,
232,106,22,5,1,47,33,1233,['c'],1,left,['9'],5,119,[0.12461168],100,47,medium,plus,dotcolour,alfa,,,123,20,M,R,
233,107,23,5,1,53,27,700,['c'],1,left,['0'],6,248,[0.15526341],100,53,easy,plus,dotcolour,alfa,,,123,20,M,R,
234,108,24,5,1,47,33,517,['c'],1,left,['0'],6,130,[0.08405466],100,47,medium,plus,dotcolour,alfa,,,123,20,M,R,
235,109,25,5,1,53,27,866,['c'],1,left,['0'],6,140,[0.04338919],98,53,easy,plus,dotcolour,alfa,,,123,20,M,R,
236,110,26,5,1,44,36,617,['c'],1,left,['0'],6,134,[0.06020587],100,44,hard,plus,dotcolour,alfa,,,123,20,M,R,
237,111,27,5,1,47,33,667,['c'],1,left,['0'],6,264,[0.08925301],100,47,medium,plus,dotcolour,alfa,,,123,20,M,R,
238,112,28,5,1,27,53,1183,['n'],1,right,['0'],6,295,[-0.12254005],100,53,easy,plus,dotcolour,alfa,,,123,20,M,R,
239,113,29,5,1,36,44,1851,['n'],1,right,['0'],6,171,[-0.16570038],100,44,hard,plus,dotcolour,alfa,,,123,20,M,R,
240,114,30,5,1,53,27,784,['c'],1,left,['0'],6,4118,[0.56168948],100,53,easy,plus,dotcolour,alfa,,,123,20,M,R,
241,115,31,5,1,33,47,1534,['c'],0,right,['0'],6,116,[0.03856718],98,47,medium,plus,dotcolour,alfa,,,123,20,M,R,
242,116,32,5,1,47,33,1033,['c'],1,left,['9'],5,151,[0.13615484],100,47,medium,plus,dotcolour,alfa,,,123,20,M,R,
243,117,33,5,1,36,44,718,['c'],0,right,['0'],6,134,[0.06803549],100,44,hard,plus,dotcolour,alfa,,,123,20,M,R,
244,118,34,5,1,36,44,1316,['n'],1,right,['0'],6,93,[-0.10087748],100,44,hard,plus,dotcolour,alfa,,,123,20,M,R,
245,119,35,5,1,27,53,750,['n'],1,right,['0'],6,213,[-0.11151371],100,53,easy,plus,dotcolour,alfa,,,123,20,M,R,
246,120,36,5,1,33,47,684,['n'],1,right,['0'],6,138,[-0.14228572],100,47,medium,plus,dotcolour,alfa,,,123,20,M,R,
247,121,37,5,1,47,33,1117,['c'],1,left,['0'],6,937,[0.27617923],100,47,medium,plus,dotcolour,alfa,,,123,20,M,R,
248,122,38,5,1,44,36,1850,['n'],0,left,['0'],6,283,[-0.18242618],100,44,hard,plus,dotcolour,alfa,,,123,20,M,R,
249,123,39,5,1,33,47,1068,['n'],1,right,['0'],6,254,[-0.1709653],100,47,medium,plus,dotcolour,alfa,,,123,20,M,R,
250,124,40,5,1,36,44,1000,['c'],0,right,['9'],5,334,[0.0658486],98,44,hard,plus,dotcolour,alfa,,,123,20,M,R,
251,125,41,5,1,44,36,866,['c'],1,left,['9'],5,223,[0.11757918],100,44,hard,plus,dotcolour,alfa,,,123,20,M,R,
252,0,0,6,2,33,47,1718,['n'],1,right,['9'],5,358,[-0.0247794],59,47,medium,minus,dotcolour,alfa,,,123,20,M,R,
253,1,1,6,2,36,44,667,['n'],1,right,['0'],6,246,[-0.0692703],78,44,hard,minus,dotcolour,alfa,,,123,20,M,R,
254,2,2,6,2,36,44,583,['n'],1,right,['0'],6,118,[-0.07593385],88,44,hard,minus,dotcolour,alfa,,,123,20,M,R,
255,3,3,6,2,53,27,1017,['c'],1,left,['9'],5,459,[0.05261032],67,53,easy,minus,dotcolour,alfa,,,123,20,M,R,
256,4,4,6,2,27,53,934,['n'],1,right,['0'],6,164,[-0.16346938],97,53,easy,minus,dotcolour,alfa,,,123,20,M,R,
257,5,5,6,2,27,53,666,['n'],1,right,['0'],6,92,[-0.07514361],90,53,easy,minus,dotcolour,alfa,,,123,20,M,R,
258,6,6,6,2,33,47,533,['n'],1,right,['0'],6,92,[-0.10126435],95,47,medium,minus,dotcolour,alfa,,,123,20,M,R,
259,7,7,6,2,44,36,1483,['c'],1,left,['9'],5,399,[0.01080844],54,44,hard,minus,dotcolour,alfa,,,123,20,M,R,
260,8,8,6,2,44,36,733,['c'],1,left,['9'],5,99,[0.03187852],71,44,hard,minus,dotcolour,alfa,,,123,20,M,R,
261,9,9,6,2,53,27,668,['c'],1,left,['9'],5,93,[0.07004236],89,53,easy,minus,dotcolour,alfa,,,123,20,M,R,
262,10,10,6,2,47,33,533,['c'],1,left,['9'],5,149,[0.07684046],86,47,medium,minus,dotcolour,alfa,,,123,20,M,R,
263,11,11,6,2,27,53,650,['c'],0,right,['1'],1,1902,[-0.26445555],15,53,easy,minus,dotcolour,alfa,,,123,20,M,R,
264,12,12,6,2,44,36,583,['c'],1,left,['0'],6,500,[0.13222407],84,44,hard,minus,dotcolour,alfa,,,123,20,M,R,
265,13,13,6,2,27,53,1200,['n'],1,right,['9'],5,225,[-0.12193546],91,53,easy,minus,dotcolour,alfa,,,123,20,M,R,
266,14,14,6,2,47,33,466,['c'],1,left,['9'],5,326,[0.08353391],79,47,medium,minus,dotcolour,alfa,,,123,20,M,R,
267,15,15,6,2,27,53,1450,['n'],1,right,['9'],5,208,[-0.11857724],91,53,easy,minus,dotcolour,alfa,,,123,20,M,R,
268,16,16,6,2,53,27,850,['c'],1,left,['9'],5,135,[0.0961107],91,53,easy,minus,dotcolour,alfa,,,123,20,M,R,
269,17,17,6,2,27,53,850,['n'],1,right,['9'],5,201,[-0.18173773],97,53,easy,minus,dotcolour,alfa,,,123,20,M,R,
270,18,18,6,2,33,47,783,['c'],0,right,['9'],5,228,[0.02231403],60,47,medium,minus,dotcolour,alfa,,,123,20,M,R,
271,19,19,6,2,33,47,966,['n'],1,right,['9'],5,445,[-0.07829178],74,47,medium,minus,dotcolour,alfa,,,123,20,M,R,
272,20,20,6,2,36,44,833,['c'],0,right,['9'],5,170,[0.04384128],72,44,hard,minus,dotcolour,alfa,,,123,20,M,R,
273,21,21,6,2,47,33,717,['c'],1,left,['9'],5,128,[0.03704938],72,47,medium,minus,dotcolour,alfa,,,123,20,M,R,
274,22,22,6,2,33,47,734,['n'],1,right,['9'],5,135,[-0.11921173],95,47,medium,minus,dotcolour,alfa,,,123,20,M,R,
275,23,23,6,2,53,27,650,['c'],1,left,['9'],5,97,[0.07033858],88,53,easy,minus,dotcolour,alfa,,,123,20,M,R,
276,24,24,6,2,53,27,1049,['c'],1,left,['9'],5,117,[0.12317432],96,53,easy,minus,dotcolour,alfa,,,123,20,M,R,
277,25,25,6,2,36,44,884,['n'],1,right,['9'],5,198,[-0.08758842],85,44,hard,minus,dotcolour,alfa,,,123,20,M,R,
278,26,26,6,2,44,36,733,['c'],1,left,['9'],5,162,[0.1122656],92,44,hard,minus,dotcolour,alfa,,,123,20,M,R,
279,27,27,6,2,47,33,650,['c'],1,left,['9'],5,67,[0.06813043],91,47,medium,minus,dotcolour,alfa,,,123,20,M,R,
280,28,28,6,2,44,36,900,['c'],1,left,['9'],5,133,[0.06782298],84,44,hard,minus,dotcolour,alfa,,,123,20,M,R,
281,29,29,6,2,27,53,634,['n'],1,right,['9'],5,128,[-0.08898635],90,53,easy,minus,dotcolour,alfa,,,123,20,M,R,
282,30,30,6,2,33,47,766,['n'],1,right,['9'],5,101,[-0.03923393],75,47,medium,minus,dotcolour,alfa,,,123,20,M,R,
283,31,31,6,2,53,27,450,['c'],1,left,['9'],5,233,[0.17785753],96,53,easy,minus,dotcolour,alfa,,,123,20,M,R,
284,32,32,6,2,44,36,467,['c'],1,left,['9'],5,182,[0.05779619],77,44,hard,minus,dotcolour,alfa,,,123,20,M,R,
285,33,33,6,2,47,33,916,['c'],1,left,['9'],5,83,[0.05023486],83,47,medium,minus,dotcolour,alfa,,,123,20,M,R,
286,34,34,6,2,47,33,451,['c'],1,left,['9'],5,168,[0.13361828],95,47,medium,minus,dotcolour,alfa,,,123,20,M,R,
287,35,35,6,2,33,47,733,['n'],1,right,['9'],5,157,[-0.05105599],76,47,medium,minus,dotcolour,alfa,,,123,20,M,R,
288,36,36,6,2,53,27,550,['c'],1,left,['9'],5,138,[0.15974812],98,53,easy,minus,dotcolour,alfa,,,123,20,M,R,
289,37,37,6,2,36,44,666,['n'],1,right,['9'],5,123,[-0.11198856],95,44,hard,minus,dotcolour,alfa,,,123,20,M,R,
290,38,38,6,2,36,44,833,['n'],1,right,['9'],5,182,[-0.08648032],86,44,hard,minus,dotcolour,alfa,,,123,20,M,R,
291,39,39,6,2,44,36,533,['c'],1,left,['9'],5,131,[0.10037483],92,44,hard,minus,dotcolour,alfa,,,123,20,M,R,
292,40,40,6,2,47,33,483,['c'],1,left,['9'],5,172,[0.0612686],79,47,medium,minus,dotcolour,alfa,,,123,20,M,R,
293,41,41,6,2,36,44,632,['n'],1,right,['9'],5,141,[-0.00987413],56,44,hard,minus,dotcolour,alfa,,,123,20,M,R,
294,42,0,7,2,53,27,1167,['c'],1,left,['0'],6,493,[0.23308132],95,53,easy,minus,dotcolour,alfa,,,123,20,M,R,
295,43,1,7,2,36,44,650,['n'],1,right,['0'],6,137,[-0.06828217],84,44,hard,minus,dotcolour,alfa,,,123,20,M,R,
296,44,2,7,2,47,33,567,['c'],1,left,['0'],6,174,[0.07069748],82,47,medium,minus,dotcolour,alfa,,,123,20,M,R,
297,45,3,7,2,27,53,700,['n'],1,right,['0'],6,284,[-0.07438619],78,53,easy,minus,dotcolour,alfa,,,123,20,M,R,
298,46,4,7,2,33,47,1133,['n'],1,right,['9'],5,141,[-0.10091304],92,47,medium,minus,dotcolour,alfa,,,123,20,M,R,
299,47,5,7,2,53,27,666,['c'],1,left,['0'],6,261,[0.11739473],89,53,easy,minus,dotcolour,alfa,,,123,20,M,R,
300,48,6,7,2,33,47,1634,['n'],1,right,['9'],5,195,[-0.1138162],91,47,medium,minus,dotcolour,alfa,,,123,20,M,R,
301,49,7,7,2,53,27,850,['c'],1,left,['9'],5,154,[0.11876971],94,53,easy,minus,dotcolour,alfa,,,123,20,M,R,
302,50,8,7,2,47,33,568,['c'],1,left,['9'],5,127,[0.07377901],87,47,medium,minus,dotcolour,alfa,,,123,20,M,R,
303,51,9,7,2,36,44,750,['n'],1,right,['9'],5,189,[-0.04357529],71,44,hard,minus,dotcolour,alfa,,,123,20,M,R,
304,52,10,7,2,33,47,717,['c'],0,right,['9'],5,210,[0.04814826],72,47,medium,minus,dotcolour,alfa,,,123,20,M,R,
305,53,11,7,2,53,27,600,['c'],1,left,['9'],5,146,[0.0628864],81,53,easy,minus,dotcolour,alfa,,,123,20,M,R,
306,54,12,7,2,27,53,784,['n'],1,right,['9'],5,134,[-0.04803777],77,53,easy,minus,dotcolour,alfa,,,123,20,M,R,
307,55,13,7,2,53,27,566,['c'],1,left,['9'],5,124,[0.06300572],83,53,easy,minus,dotcolour,alfa,,,123,20,M,R,
308,56,14,7,2,47,33,533,['c'],1,left,['9'],5,138,[0.04742169],76,47,medium,minus,dotcolour,alfa,,,123,20,M,R,
309,57,15,7,2,53,27,616,['c'],1,left,['0'],6,470,[0.0583431],68,53,easy,minus,dotcolour,alfa,,,123,20,M,R,
310,58,16,7,2,27,53,632,['n'],1,right,['0'],6,299,[-0.14150627],91,53,easy,minus,dotcolour,alfa,,,123,20,M,R,
311,59,17,7,2,27,53,601,['n'],1,right,['0'],6,392,[-0.08735509],78,53,easy,minus,dotcolour,alfa,,,123,20,M,R,
312,60,18,7,2,33,47,867,['c'],0,right,['9'],5,391,[0.05122502],68,47,medium,minus,dotcolour,alfa,,,123,20,M,R,
313,61,19,7,2,36,44,1050,['n'],1,right,['9'],5,135,[-0.07623958],87,44,hard,minus,dotcolour,alfa,,,123,20,M,R,
314,62,20,7,2,36,44,650,['n'],1,right,['9'],5,120,[-0.08544303],90,44,hard,minus,dotcolour,alfa,,,123,20,M,R,
315,63,21,7,2,44,36,801,['c'],1,left,['9'],5,261,[0.10222865],86,44,hard,minus,dotcolour,alfa,,,123,20,M,R,
316,64,22,7,2,47,33,567,['c'],1,left,['9'],5,206,[0.08726123],85,47,medium,minus,dotcolour,alfa,,,123,20,M,R,
317,65,23,7,2,47,33,899,['c'],1,left,['0'],6,43,[0.07995139],97,47,medium,minus,dotcolour,alfa,,,123,20,M,R,
318,66,24,7,2,27,53,883,['n'],1,right,['9'],5,215,[-0.12474974],92,53,easy,minus,dotcolour,alfa,,,123,20,M,R,
319,67,25,7,2,36,44,683,['n'],1,right,['9'],5,324,[-0.13332257],89,44,hard,minus,dotcolour,alfa,,,123,20,M,R,
320,68,26,7,2,47,33,767,['c'],1,left,['0'],6,338,[0.0721528],75,47,medium,minus,dotcolour,alfa,,,123,20,M,R,
321,69,27,7,2,36,44,933,['c'],0,right,['9'],5,153,[0.05844789],79,44,hard,minus,dotcolour,alfa,,,123,20,M,R,
322,70,28,7,2,44,36,617,['c'],1,left,['9'],5,83,[0.08401432],93,44,hard,minus,dotcolour,alfa,,,123,20,M,R,
323,71,29,7,2,33,47,883,['n'],1,right,['0'],6,333,[-0.08486005],79,47,medium,minus,dotcolour,alfa,,,123,20,M,R,
324,72,30,7,2,44,36,617,['n'],0,left,['9'],5,329,[-0.03623785],64,44,hard,minus,dotcolour,alfa,,,123,20,M,R,
325,73,31,7,2,44,36,600,['n'],0,left,['9'],5,125,[-0.05692557],81,44,hard,minus,dotcolour,alfa,,,123,20,M,R,
326,74,32,7,2,33,47,1216,['n'],1,right,['8'],4,393,[-0.09652833],80,47,medium,minus,dotcolour,alfa,,,123,20,M,R,
327,75,33,7,2,47,33,950,['c'],1,left,['0'],6,132,[0.08134173],88,47,medium,minus,dotcolour,alfa,,,123,20,M,R,
328,76,34,7,2,27,53,600,['n'],1,right,['0'],6,336,[-0.05832836],71,53,easy,minus,dotcolour,alfa,,,123,20,M,R,
329,77,35,7,2,44,36,567,['c'],1,left,['0'],6,190,[0.0408369],70,44,hard,minus,dotcolour,alfa,,,123,20,M,R,
330,78,36,7,2,33,47,1033,['n'],1,right,['0'],6,125,[-0.12061507],96,47,medium,minus,dotcolour,alfa,,,123,20,M,R,
331,79,37,7,2,27,53,1034,['n'],1,right,['0'],6,88,[-0.05744593],85,53,easy,minus,dotcolour,alfa,,,123,20,M,R,
332,80,38,7,2,44,36,567,['c'],1,left,['0'],6,167,[0.1805141],98,44,hard,minus,dotcolour,alfa,,,123,20,M,R,
333,81,39,7,2,53,27,984,['c'],1,left,['0'],6,235,[0.03026005],64,53,easy,minus,dotcolour,alfa,,,123,20,M,R,
334,82,40,7,2,44,36,501,['c'],1,left,['0'],6,167,[0.09992873],90,44,hard,minus,dotcolour,alfa,,,123,20,M,R,
335,83,41,7,2,36,44,767,['c'],0,right,['0'],6,98,[0.03907029],75,44,hard,minus,dotcolour,alfa,,,123,20,M,R,
336,84,0,8,2,36,44,2201,['c'],0,right,['1'],1,226,[0.07347672],80,44,hard,minus,dotcolour,alfa,,,123,20,M,R,
337,85,1,8,2,33,47,634,['n'],1,right,['0'],6,169,[-0.06432833],80,47,medium,minus,dotcolour,alfa,,,123,20,M,R,
338,86,2,8,2,27,53,533,['n'],1,right,['0'],6,135,[-0.14004096],97,53,easy,minus,dotcolour,alfa,,,123,20,M,R,
339,87,3,8,2,33,47,450,['n'],1,right,['0'],6,176,[-0.02768892],64,47,medium,minus,dotcolour,alfa,,,123,20,M,R,
340,88,4,8,2,44,36,733,['c'],1,left,['9'],5,150,[0.16405364],98,44,hard,minus,dotcolour,alfa,,,123,20,M,R,
341,89,5,8,2,36,44,1100,['n'],1,right,['9'],5,404,[-0.15262037],90,44,hard,minus,dotcolour,alfa,,,123,20,M,R,
342,90,6,8,2,27,53,751,['n'],1,right,['0'],6,144,[-0.1783802],99,53,easy,minus,dotcolour,alfa,,,123,20,M,R,
343,91,7,8,2,27,53,550,['n'],1,right,['0'],6,93,[-0.11011918],96,53,easy,minus,dotcolour,alfa,,,123,20,M,R,
344,92,8,8,2,47,33,1366,['c'],1,left,['0'],6,132,[0.07828932],87,47,medium,minus,dotcolour,alfa,,,123,20,M,R,
345,93,9,8,2,47,33,767,['c'],1,left,['8'],4,177,[0.06652884],81,47,medium,minus,dotcolour,alfa,,,123,20,M,R,
346,94,10,8,2,36,44,1083,['c'],0,right,['1'],1,64,[0.08845037],96,44,hard,minus,dotcolour,alfa,,,123,20,M,R,
347,95,11,8,2,33,47,633,['n'],1,right,['0'],6,149,[-0.03855771],71,47,medium,minus,dotcolour,alfa,,,123,20,M,R,
348,96,12,8,2,44,36,850,['c'],1,left,['9'],5,366,[0.08503485],78,44,hard,minus,dotcolour,alfa,,,123,20,M,R,
349,97,13,8,2,53,27,1433,['c'],1,left,['0'],6,176,[0.14124514],95,53,easy,minus,dotcolour,alfa,,,123,20,M,R,
350,98,14,8,2,36,44,901,['n'],1,right,['8'],4,438,[-0.04757194],66,44,hard,minus,dotcolour,alfa,,,123,20,M,R,
351,99,15,8,2,53,27,900,['c'],1,left,['0'],6,106,[0.08124318],90,53,easy,minus,dotcolour,alfa,,,123,20,M,R,
352,100,16,8,2,47,33,434,['c'],1,left,['0'],6,101,[0.08136062],91,47,medium,minus,dotcolour,alfa,,,123,20,M,R,
353,101,17,8,2,27,53,3000,['n'],1,right,['0'],6,771,[-0.24459082],92,53,easy,minus,dotcolour,alfa,,,123,20,M,R,
354,102,18,8,2,47,33,1900,['c'],1,left,['1'],1,161,[0.06609644],81,47,medium,minus,dotcolour,alfa,,,123,20,M,R,
355,103,19,8,2,36,44,566,['n'],1,right,['0'],6,117,[-0.10712605],94,44,hard,minus,dotcolour,alfa,,,123,20,M,R,
356,104,20,8,2,53,27,684,['n'],0,left,['0'],6,286,[0.05469847],28,53,easy,minus,dotcolour,alfa,,,123,20,M,R,
357,105,21,8,2,44,36,1433,['c'],1,left,['8'],4,283,[0.17304057],95,44,hard,minus,dotcolour,alfa,,,123,20,M,R,
358,106,22,8,2,44,36,1067,['n'],0,left,['8'],4,686,[-0.05927952],66,44,hard,minus,dotcolour,alfa,,,123,20,M,R,
359,107,23,8,2,53,27,749,['c'],1,left,['0'],6,221,[0.0075377],54,53,easy,minus,dotcolour,alfa,,,123,20,M,R,
360,108,24,8,2,44,36,650,['c'],1,left,['0'],6,117,[0.12495781],96,44,hard,minus,dotcolour,alfa,,,123,20,M,R,
361,109,25,8,2,27,53,767,['n'],1,right,['0'],6,154,[-0.06148151],80,53,easy,minus,dotcolour,alfa,,,123,20,M,R,
362,110,26,8,2,47,33,617,['c'],1,left,['0'],6,125,[0.10834561],94,47,medium,minus,dotcolour,alfa,,,123,20,M,R,
363,111,27,8,2,33,47,633,['n'],1,right,['0'],6,104,[-0.08231323],91,47,medium,minus,dotcolour,alfa,,,123,20,M,R,
364,112,28,8,2,44,36,584,['c'],1,left,['0'],6,238,[0.21397942],98,44,hard,minus,dotcolour,alfa,,,123,20,M,R,
365,113,29,8,2,33,47,817,['n'],1,right,['0'],6,222,[-0.12661783],92,47,medium,minus,dotcolour,alfa,,,123,20,M,R,
366,114,30,8,2,33,47,884,['n'],1,right,['0'],6,138,[-0.10498277],93,47,medium,minus,dotcolour,alfa,,,123,20,M,R,
367,115,31,8,2,44,36,734,['c'],1,left,['0'],6,130,[-0.03762449],28,44,hard,minus,dotcolour,alfa,,,123,20,M,R,
368,116,32,8,2,53,27,499,['c'],1,left,['0'],6,138,[0.10476771],93,53,easy,minus,dotcolour,alfa,,,123,20,M,R,
369,117,33,8,2,27,53,584,['n'],1,right,['0'],6,126,[-0.1677495],99,53,easy,minus,dotcolour,alfa,,,123,20,M,R,
370,118,34,8,2,27,53,467,['n'],1,right,['0'],6,87,[-0.07612832],91,53,easy,minus,dotcolour,alfa,,,123,20,M,R,
371,119,35,8,2,47,33,616,['c'],1,left,['0'],6,93,[0.07457366],90,47,medium,minus,dotcolour,alfa,,,123,20,M,R,
372,120,36,8,2,36,44,1000,['n'],1,right,['0'],6,514,[-0.11974387],82,44,hard,minus,dotcolour,alfa,,,123,20,M,R,
373,121,37,8,2,53,27,717,['c'],1,left,['0'],6,122,[0.0696913],86,53,easy,minus,dotcolour,alfa,,,123,20,M,R,
374,122,38,8,2,53,27,983,['c'],1,left,['9'],5,80,[0.03949008],78,53,easy,minus,dotcolour,alfa,,,123,20,M,R,
375,123,39,8,2,47,33,600,['c'],1,left,['0'],6,117,[0.07364683],87,47,medium,minus,dotcolour,alfa,,,123,20,M,R,
376,124,40,8,2,36,44,1467,['n'],1,right,['8'],4,167,[-0.05911233],79,44,hard,minus,dotcolour,alfa,,,123,20,M,R,
377,125,41,8,2,33,47,666,['n'],1,right,['9'],5,351,[-0.01710946],56,47,medium,minus,dotcolour,alfa,,,123,20,M,R,
378,0,0,9,3,36,44,1234,['n'],1,right,['9'],5,195,[-0.05649409],99,44,hard,plus,dotcolour,alfa,,,123,20,M,R,
379,1,1,9,3,44,36,383,['c'],1,left,['8'],4,133,[0.13194091],100,44,hard,plus,dotcolour,alfa,,,123,20,M,R,
380,2,2,9,3,33,47,500,['n'],1,right,['9'],5,101,[-0.06396157],100,47,medium,plus,dotcolour,alfa,,,123,20,M,R,
381,3,3,9,3,27,53,234,['c'],0,right,['8'],4,161,[-0.01507094],21,53,easy,plus,dotcolour,alfa,,,123,20,M,R,
382,4,4,9,3,33,47,700,['n'],1,right,['0'],6,152,[-0.02800738],93,47,medium,plus,dotcolour,alfa,,,123,20,M,R,
383,5,5,9,3,47,33,650,['c'],1,left,['8'],4,113,[0.067614],100,47,medium,plus,dotcolour,alfa,,,123,20,M,R,
384,6,6,9,3,44,36,485,['c'],1,left,['0'],6,130,[0.09295032],100,44,hard,plus,dotcolour,alfa,,,123,20,M,R,
385,7,7,9,3,36,44,450,['c'],0,right,['0'],6,156,[0.06732703],100,44,hard,plus,dotcolour,alfa,,,123,20,M,R,
386,8,8,9,3,33,47,784,['n'],1,right,['0'],6,136,[-0.09780028],100,47,medium,plus,dotcolour,alfa,,,123,20,M,R,
387,9,9,9,3,47,33,833,['c'],1,left,['0'],6,74,[0.07540756],100,47,medium,plus,dotcolour,alfa,,,123,20,M,R,
388,10,10,9,3,33,47,617,['n'],1,right,['0'],6,136,[-0.10203269],100,47,medium,plus,dotcolour,alfa,,,123,20,M,R,
389,11,11,9,3,44,36,616,['c'],1,left,['0'],6,115,[0.07940949],100,44,hard,plus,dotcolour,alfa,,,123,20,M,R,
390,12,12,9,3,36,44,883,['n'],1,right,['9'],5,108,[-0.1499636],100,44,hard,plus,dotcolour,alfa,,,123,20,M,R,
391,13,13,9,3,53,27,700,['c'],1,left,['0'],6,93,[0.04351539],99,53,easy,plus,dotcolour,alfa,,,123,20,M,R,
392,14,14,9,3,44,36,367,['c'],1,left,['0'],6,124,[0.07763316],100,44,hard,plus,dotcolour,alfa,,,123,20,M,R,
393,15,15,9,3,27,53,450,['n'],1,right,['9'],5,158,[-0.11239562],100,53,easy,plus,dotcolour,alfa,,,123,20,M,R,
394,16,16,9,3,33,47,1382,['n'],1,right,['0'],6,129,[-0.03498094],97,47,medium,plus,dotcolour,alfa,,,123,20,M,R,
395,17,17,9,3,47,33,517,['c'],1,left,['0'],6,129,[0.09119103],100,47,medium,plus,dotcolour,alfa,,,123,20,M,R,
396,18,18,9,3,47,33,750,['c'],1,left,['9'],5,103,[0.06827366],100,47,medium,plus,dotcolour,alfa,,,123,20,M,R,
397,19,19,9,3,33,47,684,['n'],1,right,['9'],5,105,[-0.06947811],100,47,medium,plus,dotcolour,alfa,,,123,20,M,R,
398,20,20,9,3,44,36,700,['c'],1,left,['0'],6,146,[0.03717978],97,44,hard,plus,dotcolour,alfa,,,123,20,M,R,
399,21,21,9,3,53,27,432,['c'],1,left,['0'],6,165,[0.08161083],100,53,easy,plus,dotcolour,alfa,,,123,20,M,R,
400,22,22,9,3,47,33,367,['c'],1,left,['0'],6,168,[0.1023622],100,47,medium,plus,dotcolour,alfa,,,123,20,M,R,
401,23,23,9,3,36,44,767,['n'],1,right,['9'],5,1388,[-0.33913994],100,44,hard,plus,dotcolour,alfa,,,123,20,M,R,
402,24,24,9,3,47,33,800,['c'],1,left,['0'],6,150,[0.12766888],100,47,medium,plus,dotcolour,alfa,,,123,20,M,R,
403,25,25,9,3,27,53,600,['n'],1,right,['0'],6,153,[-0.1025002],100,53,easy,plus,dotcolour,alfa,,,123,20,M,R,
404,26,26,9,3,44,36,517,['c'],1,left,['0'],6,80,[0.0224886],95,44,hard,plus,dotcolour,alfa,,,123,20,M,R,
405,27,27,9,3,27,53,483,['n'],1,right,['9'],5,114,[-0.08619291],100,53,easy,plus,dotcolour,alfa,,,123,20,M,R,
406,28,28,9,3,36,44,434,['c'],0,right,['0'],6,166,[0.03797984],97,44,hard,plus,dotcolour,alfa,,,123,20,M,R,
407,29,29,9,3,33,47,800,['n'],1,right,['0'],6,104,[-0.08969695],100,47,medium,plus,dotcolour,alfa,,,123,20,M,R,
408,30,30,9,3,27,53,634,['n'],1,right,['8'],4,117,[-0.11204591],100,53,easy,plus,dotcolour,alfa,,,123,20,M,R,
409,31,31,9,3,47,33,550,['c'],1,left,['8'],4,171,[0.11103119],100,47,medium,plus,dotcolour,alfa,,,123,20,M,R,
410,32,32,9,3,27,53,566,['n'],1,right,['9'],5,119,[-0.06793453],100,53,easy,plus,dotcolour,alfa,,,123,20,M,R,
411,33,33,9,3,53,27,916,['c'],1,left,['0'],6,127,[0.12288856],100,53,easy,plus,dotcolour,alfa,,,123,20,M,R,
412,34,34,9,3,53,27,450,['c'],1,left,['0'],6,105,[0.09642789],100,53,easy,plus,dotcolour,alfa,,,123,20,M,R,
413,35,35,9,3,53,27,467,['c'],1,left,['0'],6,100,[0.11762306],100,53,easy,plus,dotcolour,alfa,,,123,20,M,R,
414,36,36,9,3,36,44,799,['n'],1,right,['9'],5,225,[-0.06476024],99,44,hard,plus,dotcolour,alfa,,,123,20,M,R,
415,37,37,9,3,44,36,1233,['c'],1,left,['0'],6,120,[0.09425155],100,44,hard,plus,dotcolour,alfa,,,123,20,M,R,
416,38,38,9,3,53,27,1967,['n'],0,left,['1'],1,630,[0.22865291],0,53,easy,plus,dotcolour,alfa,,,123,20,M,R,
417,39,39,9,3,27,53,533,['n'],1,right,['0'],6,217,[-0.0889407],100,53,easy,plus,dotcolour,alfa,,,123,20,M,R,
418,40,40,9,3,36,44,2984,['c'],0,right,['3'],3,1490,[0.0798349],91,44,hard,plus,dotcolour,alfa,,,123,20,M,R,
419,41,41,9,3,53,27,718,['c'],1,left,['0'],6,275,[0.14945019],100,53,easy,plus,dotcolour,alfa,,,123,20,M,R,
420,42,0,10,3,44,36,1984,['c'],1,left,['9'],5,85,[0.10054472],100,44,hard,plus,dotcolour,alfa,,,123,20,M,R,
421,43,1,10,3,44,36,551,['c'],1,left,['0'],6,357,[0.11941337],100,44,hard,plus,dotcolour,alfa,,,123,20,M,R,
422,44,2,10,3,33,47,600,['n'],1,right,['0'],6,208,[-0.12391058],100,47,medium,plus,dotcolour,alfa,,,123,20,M,R,
423,45,3,10,3,53,27,500,['c'],1,left,['0'],6,108,[0.16978761],100,53,easy,plus,dotcolour,alfa,,,123,20,M,R,
424,46,4,10,3,47,33,433,['c'],1,left,['0'],6,128,[0.10735406],100,47,medium,plus,dotcolour,alfa,,,123,20,M,R,
425,47,5,10,3,53,27,317,['c'],1,left,['0'],6,111,[0.08847511],100,53,easy,plus,dotcolour,alfa,,,123,20,M,R,
426,48,6,10,3,33,47,750,['n'],1,right,['0'],6,142,[-0.08770948],100,47,medium,plus,dotcolour,alfa,,,123,20,M,R,
427,49,7,10,3,53,27,450,['c'],1,left,['0'],6,144,[0.08158262],100,53,easy,plus,dotcolour,alfa,,,123,20,M,R,
428,50,8,10,3,27,53,583,['n'],1,right,['0'],6,131,[-0.08422565],100,53,easy,plus,dotcolour,alfa,,,123,20,M,R,
429,51,9,10,3,33,47,916,['c'],0,right,['0'],6,147,[0.03651423],97,47,medium,plus,dotcolour,alfa,,,123,20,M,R,
430,52,10,10,3,36,44,699,['n'],1,right,['0'],6,122,[-0.08487188],100,44,hard,plus,dotcolour,alfa,,,123,20,M,R,
431,53,11,10,3,44,36,833,['c'],1,left,['0'],6,77,[0.04730673],100,44,hard,plus,dotcolour,alfa,,,123,20,M,R,
432,54,12,10,3,44,36,900,['c'],1,left,['0'],6,48,[0.05823308],100,44,hard,plus,dotcolour,alfa,,,123,20,M,R,
433,55,13,10,3,36,44,684,['n'],1,right,['0'],6,108,[-0.06639802],100,44,hard,plus,dotcolour,alfa,,,123,20,M,R,
434,56,14,10,3,36,44,700,['n'],1,right,['0'],6,61,[-0.02137731],96,44,hard,plus,dotcolour,alfa,,,123,20,M,R,
435,57,15,10,3,44,36,416,['c'],1,left,['0'],6,170,[0.10687847],100,44,hard,plus,dotcolour,alfa,,,123,20,M,R,
436,58,16,10,3,27,53,333,['n'],1,right,['0'],6,112,[-0.1059579],100,53,easy,plus,dotcolour,alfa,,,123,20,M,R,
437,59,17,10,3,27,53,700,['n'],1,right,['0'],6,40,[-0.11347863],100,53,easy,plus,dotcolour,alfa,,,123,20,M,R,
438,60,18,10,3,36,44,417,['c'],0,right,['0'],6,128,[0.03333899],97,44,hard,plus,dotcolour,alfa,,,123,20,M,R,
439,61,19,10,3,53,27,484,['c'],1,left,['0'],6,112,[0.13153513],100,53,easy,plus,dotcolour,alfa,,,123,20,M,R,
440,62,20,10,3,47,33,550,['c'],1,left,['0'],6,175,[0.12241406],100,47,medium,plus,dotcolour,alfa,,,123,20,M,R,
441,63,21,10,3,47,33,466,['c'],1,left,['0'],6,126,[0.03835968],98,47,medium,plus,dotcolour,alfa,,,123,20,M,R,
442,64,22,10,3,27,53,600,['n'],1,right,['0'],6,106,[-0.06677686],100,53,easy,plus,dotcolour,alfa,,,123,20,M,R,
443,65,23,10,3,36,44,600,['n'],1,right,['0'],6,111,[-0.12216005],100,44,hard,plus,dotcolour,alfa,,,123,20,M,R,
444,66,24,10,3,53,27,450,['c'],1,left,['0'],6,114,[0.04869122],99,53,easy,plus,dotcolour,alfa,,,123,20,M,R,
445,67,25,10,3,33,47,600,['n'],1,right,['0'],6,54,[-0.10495756],100,47,medium,plus,dotcolour,alfa,,,123,20,M,R,
446,68,26,10,3,36,44,499,['c'],0,right,['0'],6,314,[0.0119719],68,44,hard,plus,dotcolour,alfa,,,123,20,M,R,
447,69,27,10,3,44,36,717,['c'],1,left,['9'],5,442,[0.04619952],92,44,hard,plus,dotcolour,alfa,,,123,20,M,R,
448,70,28,10,3,53,27,466,['c'],1,left,['0'],6,143,[0.10398182],100,53,easy,plus,dotcolour,alfa,,,123,20,M,R,
449,71,29,10,3,33,47,701,['n'],1,right,['0'],6,190,[-0.09090555],100,47,medium,plus,dotcolour,alfa,,,123,20,M,R,
450,72,30,10,3,47,33,567,['c'],1,left,['0'],6,488,[0.04786717],92,47,medium,plus,dotcolour,alfa,,,123,20,M,R,
451,73,31,10,3,27,53,634,['n'],1,right,['0'],6,132,[-0.15892989],100,53,easy,plus,dotcolour,alfa,,,123,20,M,R,
452,74,32,10,3,36,44,850,['n'],1,right,['0'],6,102,[-0.04483335],99,44,hard,plus,dotcolour,alfa,,,123,20,M,R,
453,75,33,10,3,47,33,399,['c'],1,left,['0'],6,180,[0.04486662],98,47,medium,plus,dotcolour,alfa,,,123,20,M,R,
454,76,34,10,3,47,33,467,['c'],1,left,['9'],5,331,[0.06777551],99,47,medium,plus,dotcolour,alfa,,,123,20,M,R,
455,77,35,10,3,53,27,500,['c'],1,left,['9'],5,68,[0.06099915],100,53,easy,plus,dotcolour,alfa,,,123,20,M,R,
456,78,36,10,3,27,53,667,['c'],0,right,['0'],6,87,[0.0587529],100,53,easy,plus,dotcolour,alfa,,,123,20,M,R,
457,79,37,10,3,44,36,566,['c'],1,left,['1'],1,174,[0.09542832],100,44,hard,plus,dotcolour,alfa,,,123,20,M,R,
458,80,38,10,3,47,33,1434,['c'],1,left,['0'],6,80,[0.09521105],100,47,medium,plus,dotcolour,alfa,,,123,20,M,R,
459,81,39,10,3,33,47,934,['n'],1,right,['0'],6,208,[-0.08789457],100,47,medium,plus,dotcolour,alfa,,,123,20,M,R,
460,82,40,10,3,33,47,1000,['n'],1,right,['9'],5,225,[-0.05265594],98,47,medium,plus,dotcolour,alfa,,,123,20,M,R,
461,83,41,10,3,27,53,850,['c'],0,right,['0'],6,831,[-0.2048499],0,53,easy,plus,dotcolour,alfa,,,123,20,M,R,
462,84,0,11,3,27,53,585,['n'],1,right,['0'],6,82,[-0.09343667],100,53,easy,plus,dotcolour,alfa,,,123,20,M,R,
463,85,1,11,3,27,53,567,['n'],1,right,['0'],6,66,[-0.07755496],100,53,easy,plus,dotcolour,alfa,,,123,20,M,R,
464,86,2,11,3,47,33,466,['c'],1,left,['0'],6,158,[0.05028951],99,47,medium,plus,dotcolour,alfa,,,123,20,M,R,
465,87,3,11,3,36,44,700,['n'],1,right,['0'],6,69,[-0.06804842],100,44,hard,plus,dotcolour,alfa,,,123,20,M,R,
466,88,4,11,3,33,47,650,['n'],1,right,['0'],6,129,[-0.06624366],100,47,medium,plus,dotcolour,alfa,,,123,20,M,R,
467,89,5,11,3,36,44,584,['n'],1,right,['0'],6,70,[-0.08142818],100,44,hard,plus,dotcolour,alfa,,,123,20,M,R,
468,90,6,11,3,47,33,400,['c'],1,left,['0'],6,172,[0.14668892],100,47,medium,plus,dotcolour,alfa,,,123,20,M,R,
469,91,7,11,3,27,53,416,['n'],1,right,['0'],6,70,[-0.11680827],100,53,easy,plus,dotcolour,alfa,,,123,20,M,R,
470,92,8,11,3,27,53,450,['n'],1,right,['0'],6,67,[-0.07859705],100,53,easy,plus,dotcolour,alfa,,,123,20,M,R,
471,93,9,11,3,27,53,400,['n'],1,right,['0'],6,90,[-0.0651119],100,53,easy,plus,dotcolour,alfa,,,123,20,M,R,
472,94,10,11,3,47,33,600,['c'],1,left,['0'],6,351,[0.1610149],100,47,medium,plus,dotcolour,alfa,,,123,20,M,R,
473,95,11,11,3,44,36,884,['c'],1,left,['0'],6,144,[0.07235783],100,44,hard,plus,dotcolour,alfa,,,123,20,M,R,
474,96,12,11,3,33,47,651,['n'],1,right,['0'],6,105,[-0.04537123],99,47,medium,plus,dotcolour,alfa,,,123,20,M,R,
475,97,13,11,3,44,36,600,['c'],1,left,['0'],6,318,[0.17179238],100,44,hard,plus,dotcolour,alfa,,,123,20,M,R,
476,98,14,11,3,47,33,433,['c'],1,left,['0'],6,153,[0.06476553],100,47,medium,plus,dotcolour,alfa,,,123,20,M,R,
477,99,15,11,3,53,27,2400,['n'],0,left,['1'],1,869,[-0.00953204],59,53,easy,plus,dotcolour,alfa,,,123,20,M,R,
478,100,16,11,3,36,44,650,['n'],1,right,['0'],6,89,[-0.1224974],100,44,hard,plus,dotcolour,alfa,,,123,20,M,R,
479,101,17,11,3,33,47,733,['n'],1,right,['0'],6,89,[-0.03329292],98,47,medium,plus,dotcolour,alfa,,,123,20,M,R,
480,102,18,11,3,47,33,783,['c'],1,left,['0'],6,713,[0.42247396],100,47,medium,plus,dotcolour,alfa,,,123,20,M,R,
481,103,19,11,3,36,44,1017,['n'],1,right,['8'],4,157,[-0.02140186],87,44,hard,plus,dotcolour,alfa,,,123,20,M,R,
482,104,20,11,3,47,33,866,['c'],1,left,['0'],6,101,[0.16706394],100,47,medium,plus,dotcolour,alfa,,,123,20,M,R,
483,105,21,11,3,33,47,1017,['n'],1,right,['0'],6,169,[-0.09937386],100,47,medium,plus,dotcolour,alfa,,,123,20,M,R,
484,106,22,11,3,53,27,650,['c'],1,left,['0'],6,106,[0.04097788],99,53,easy,plus,dotcolour,alfa,,,123,20,M,R,
485,107,23,11,3,44,36,784,['c'],1,left,['0'],6,48,[0.10032555],100,44,hard,plus,dotcolour,alfa,,,123,20,M,R,
486,108,24,11,3,36,44,651,['c'],0,right,['0'],6,333,[-0.06857671],1,44,hard,plus,dotcolour,alfa,,,123,20,M,R,
487,109,25,11,3,27,53,667,['n'],1,right,['0'],6,102,[-0.05257665],100,53,easy,plus,dotcolour,alfa,,,123,20,M,R,
488,110,26,11,3,47,33,601,['c'],1,left,['0'],6,92,[0.04078973],99,47,medium,plus,dotcolour,alfa,,,123,20,M,R,
489,111,27,11,3,33,47,668,['n'],1,right,['0'],6,110,[-0.09027656],100,47,medium,plus,dotcolour,alfa,,,123,20,M,R,
490,112,28,11,3,36,44,900,['n'],1,right,['0'],6,127,[-0.04372362],99,44,hard,plus,dotcolour,alfa,,,123,20,M,R,
491,113,29,11,3,33,47,667,['n'],1,right,['0'],6,113,[-0.04817189],99,47,medium,plus,dotcolour,alfa,,,123,20,M,R,
492,114,30,11,3,53,27,450,['c'],1,left,['0'],6,195,[0.06343125],99,53,easy,plus,dotcolour,alfa,,,123,20,M,R,
493,115,31,11,3,44,36,800,['c'],1,left,['0'],6,140,[0.11356995],100,44,hard,plus,dotcolour,alfa,,,123,20,M,R,
494,116,32,11,3,44,36,917,['c'],1,left,['0'],6,123,[0.12183058],100,44,hard,plus,dotcolour,alfa,,,123,20,M,R,
495,117,33,11,3,33,47,450,['n'],1,right,['0'],6,102,[-0.10789013],100,47,medium,plus,dotcolour,alfa,,,123,20,M,R,
496,118,34,11,3,53,27,434,['c'],1,left,['0'],6,170,[0.14320368],100,53,easy,plus,dotcolour,alfa,,,123,20,M,R,
497,119,35,11,3,53,27,417,['c'],1,left,['0'],6,108,[0.07275644],100,53,easy,plus,dotcolour,alfa,,,123,20,M,R,
498,120,36,11,3,53,27,400,['c'],1,left,['0'],6,97,[0.02920401],97,53,easy,plus,dotcolour,alfa,,,123,20,M,R,
499,121,37,11,3,27,53,451,['c'],0,right,['0'],6,1012,[-0.07082],7,53,easy,plus,dotcolour,alfa,,,123,20,M,R,
500,122,38,11,3,44,36,950,['c'],1,left,['0'],6,63,[0.0546878],100,44,hard,plus,dotcolour,alfa,,,123,20,M,R,
501,123,39,11,3,53,27,784,['c'],1,left,['0'],6,78,[0.07995297],100,53,easy,plus,dotcolour,alfa,,,123,20,M,R,
502,124,40,11,3,36,44,1533,['n'],1,right,['9'],5,63,[-0.06953101],100,44,hard,plus,dotcolour,alfa,,,123,20,M,R,
503,125,41,11,3,44,36,1218,['c'],1,left,['9'],5,133,[0.07899407],100,44,hard,plus,dotcolour,alfa,,,123,20,M,R,
504,0,0,12,4,53,27,867,['c'],1,left,['0'],6,66,[0.08055014],94,53,easy,minus,dotcolour,alfa,,,123,20,M,R,
505,1,1,12,4,47,33,1033,['c'],1,left,['9'],5,176,[0.13733523],95,47,medium,minus,dotcolour,alfa,,,123,20,M,R,
506,2,2,12,4,27,53,551,['n'],1,right,['9'],5,252,[-0.05780143],74,53,easy,minus,dotcolour,alfa,,,123,20,M,R,
507,3,3,12,4,36,44,1232,['n'],1,right,['0'],6,217,[-0.09509339],86,44,hard,minus,dotcolour,alfa,,,123,20,M,R,
508,4,4,12,4,36,44,1217,['n'],1,right,['8'],4,1257,[-0.14919086],77,44,hard,minus,dotcolour,alfa,,,123,20,M,R,
509,5,5,12,4,44,36,601,['c'],1,left,['8'],4,175,[0.11152598],92,44,hard,minus,dotcolour,alfa,,,123,20,M,R,
510,6,6,12,4,44,36,1067,['c'],1,left,['8'],4,103,[0.07158751],88,44,hard,minus,dotcolour,alfa,,,123,20,M,R,
511,7,7,12,4,36,44,1000,['c'],0,right,['8'],4,108,[-0.01682152],39,44,hard,minus,dotcolour,alfa,,,123,20,M,R,
512,8,8,12,4,47,33,883,['c'],1,left,['0'],6,126,[0.06397321],84,47,medium,minus,dotcolour,alfa,,,123,20,M,R,
513,9,9,12,4,27,53,551,['n'],1,right,['0'],6,123,[-0.10258065],93,53,easy,minus,dotcolour,alfa,,,123,20,M,R,
514,10,10,12,4,47,33,800,['c'],1,left,['9'],5,207,[0.07037049],80,47,medium,minus,dotcolour,alfa,,,123,20,M,R,
515,11,11,12,4,53,27,484,['c'],1,left,['9'],5,93,[0.07101587],89,53,easy,minus,dotcolour,alfa,,,123,20,M,R,
516,12,12,12,4,33,47,950,['n'],1,right,['0'],6,44,[-0.07954586],97,47,medium,minus,dotcolour,alfa,,,123,20,M,R,
517,13,13,12,4,53,27,617,['c'],1,left,['0'],6,122,[0.07861634],88,53,easy,minus,dotcolour,alfa,,,123,20,M,R,
518,14,14,12,4,53,27,417,['c'],1,left,['0'],6,135,[0.12418493],95,53,easy,minus,dotcolour,alfa,,,123,20,M,R,
519,15,15,12,4,53,27,617,['c'],1,left,['9'],5,450,[0.23091521],96,53,easy,minus,dotcolour,alfa,,,123,20,M,R,
520,16,16,12,4,47,33,467,['c'],1,left,['9'],5,95,[0.11099232],96,47,medium,minus,dotcolour,alfa,,,123,20,M,R,
521,17,17,12,4,33,47,417,['c'],0,right,['0'],6,163,[0.06804516],82,47,medium,minus,dotcolour,alfa,,,123,20,M,R,
522,18,18,12,4,44,36,933,['c'],1,left,['8'],4,145,[0.1111073],93,44,hard,minus,dotcolour,alfa,,,123,20,M,R,
523,19,19,12,4,27,53,1500,['n'],1,right,['9'],5,288,[-0.03386436],64,53,easy,minus,dotcolour,alfa,,,123,20,M,R,
524,20,20,12,4,27,53,717,['n'],1,right,['0'],6,209,[-0.0912936],86,53,easy,minus,dotcolour,alfa,,,123,20,M,R,
525,21,21,12,4,27,53,666,['n'],1,right,['0'],6,88,[-0.10683481],96,53,easy,minus,dotcolour,alfa,,,123,20,M,R,
526,22,22,12,4,33,47,750,['n'],1,right,['0'],6,79,[-0.08079795],93,47,medium,minus,dotcolour,alfa,,,123,20,M,R,
527,23,23,12,4,36,44,900,['c'],0,right,['0'],6,954,[-0.0534939],38,44,hard,minus,dotcolour,alfa,,,123,20,M,R,
528,24,24,12,4,44,36,667,['c'],1,left,['0'],6,129,[0.13469197],97,44,hard,minus,dotcolour,alfa,,,123,20,M,R,
529,25,25,12,4,44,36,783,['c'],1,left,['9'],5,262,[0.11170332],88,44,hard,minus,dotcolour,alfa,,,123,20,M,R,
530,26,26,12,4,53,27,450,['c'],1,left,['8'],4,155,[0.1009801],91,53,easy,minus,dotcolour,alfa,,,123,20,M,R,
531,27,27,12,4,44,36,584,['c'],1,left,['9'],5,439,[-0.01042777],46,44,hard,minus,dotcolour,alfa,,,123,20,M,R,
532,28,28,12,4,33,47,701,['n'],1,right,['9'],5,210,[-0.15270611],95,47,medium,minus,dotcolour,alfa,,,123,20,M,R,
533,29,29,12,4,47,33,700,['c'],1,left,['9'],5,463,[0.17684284],91,47,medium,minus,dotcolour,alfa,,,123,20,M,R,
534,30,30,12,4,33,47,950,['n'],1,right,['9'],5,120,[-0.08769528],91,47,medium,minus,dotcolour,alfa,,,123,20,M,R,
535,31,31,12,4,36,44,767,['n'],1,right,['9'],5,78,[-0.06032776],87,44,hard,minus,dotcolour,alfa,,,123,20,M,R,
536,32,32,12,4,47,33,600,['c'],1,left,['9'],5,92,[0.02249397],66,47,medium,minus,dotcolour,alfa,,,123,20,M,R,
537,33,33,12,4,53,27,600,['c'],1,left,['0'],6,345,[0.03467173],63,53,easy,minus,dotcolour,alfa,,,123,20,M,R,
538,34,34,12,4,36,44,750,['n'],1,right,['0'],6,198,[-0.07789529],83,44,hard,minus,dotcolour,alfa,,,123,20,M,R,
539,35,35,12,4,33,47,1634,['n'],1,right,['9'],5,134,[-0.12223466],95,47,medium,minus,dotcolour,alfa,,,123,20,M,R,
540,36,36,12,4,33,47,835,['n'],1,right,['9'],5,289,[-0.1239642],89,47,medium,minus,dotcolour,alfa,,,123,20,M,R,
541,37,37,12,4,27,53,1085,['n'],1,right,['9'],5,75,[-0.11411876],98,53,easy,minus,dotcolour,alfa,,,123,20,M,R,
542,38,38,12,4,44,36,600,['c'],1,left,['9'],5,105,[0.08098668],90,44,hard,minus,dotcolour,alfa,,,123,20,M,R,
543,39,39,12,4,36,44,616,['n'],1,right,['9'],5,94,[-0.12100124],97,44,hard,minus,dotcolour,alfa,,,123,20,M,R,
544,40,40,12,4,27,53,767,['n'],1,right,['9'],5,53,[-0.09348081],97,53,easy,minus,dotcolour,alfa,,,123,20,M,R,
545,41,41,12,4,47,33,834,['c'],1,left,['0'],6,219,[0.18935895],97,47,medium,minus,dotcolour,alfa,,,123,20,M,R,
546,42,0,13,4,44,36,751,['n'],0,left,['0'],6,166,[-0.12925408],95,44,hard,minus,dotcolour,alfa,,,123,20,M,R,
547,43,1,13,4,36,44,600,['n'],1,right,['9'],5,161,[-0.08508302],87,44,hard,minus,dotcolour,alfa,,,123,20,M,R,
548,44,2,13,4,47,33,616,['c'],1,left,['9'],5,139,[0.07388714],86,47,medium,minus,dotcolour,alfa,,,123,20,M,R,
549,45,3,13,4,53,27,417,['c'],1,left,['9'],5,110,[0.11115757],95,53,easy,minus,dotcolour,alfa,,,123,20,M,R,
550,46,4,13,4,36,44,900,['n'],1,right,['0'],6,135,[-0.04725243],76,44,hard,minus,dotcolour,alfa,,,123,20,M,R,
551,47,5,13,4,33,47,701,['n'],1,right,['0'],6,87,[-0.11106265],97,47,medium,minus,dotcolour,alfa,,,123,20,M,R,
552,48,6,13,4,47,33,583,['c'],1,left,['0'],6,110,[0.05523775],82,47,medium,minus,dotcolour,alfa,,,123,20,M,R,
553,49,7,13,4,27,53,433,['n'],1,right,['0'],6,89,[-0.04206617],78,53,easy,minus,dotcolour,alfa,,,123,20,M,R,
554,50,8,13,4,44,36,483,['c'],1,left,['0'],6,140,[0.04240742],73,44,hard,minus,dotcolour,alfa,,,123,20,M,R,
555,51,9,13,4,27,53,684,['n'],1,right,['0'],6,156,[-0.04308642],73,53,easy,minus,dotcolour,alfa,,,123,20,M,R,
556,52,10,13,4,53,27,533,['c'],1,left,['0'],6,114,[0.07148606],87,53,easy,minus,dotcolour,alfa,,,123,20,M,R,
557,53,11,13,4,33,47,667,['n'],1,right,['9'],5,108,[-0.06518931],86,47,medium,minus,dotcolour,alfa,,,123,20,M,R,
558,54,12,13,4,47,33,916,['c'],1,left,['0'],6,180,[0.09380178],88,47,medium,minus,dotcolour,alfa,,,123,20,M,R,
559,55,13,13,4,44,36,1536,['n'],0,left,['9'],5,224,[-0.03465575],66,44,hard,minus,dotcolour,alfa,,,123,20,M,R,
560,56,14,13,4,36,44,1184,['n'],1,right,['9'],5,601,[-0.0329582],59,44,hard,minus,dotcolour,alfa,,,123,20,M,R,
561,57,15,13,4,33,47,817,['n'],1,right,['9'],5,250,[0.02958669],37,47,medium,minus,dotcolour,alfa,,,123,20,M,R,
562,58,16,13,4,27,53,566,['n'],1,right,['9'],5,82,[-0.10721374],97,53,easy,minus,dotcolour,alfa,,,123,20,M,R,
563,59,17,13,4,33,47,1600,['n'],1,right,['0'],6,313,[-0.12007598],87,47,medium,minus,dotcolour,alfa,,,123,20,M,R,
564,60,18,13,4,47,33,717,['c'],1,left,['9'],5,337,[0.12383173],87,47,medium,minus,dotcolour,alfa,,,123,20,M,R,
565,61,19,13,4,44,36,1001,['c'],1,left,['9'],5,157,[0.09082667],89,44,hard,minus,dotcolour,alfa,,,123,20,M,R,
566,62,20,13,4,36,44,650,['n'],1,right,['9'],5,61,[-0.07850482],95,44,hard,minus,dotcolour,alfa,,,123,20,M,R,
567,63,21,13,4,53,27,733,['c'],1,left,['9'],5,143,[0.07999741],87,53,easy,minus,dotcolour,alfa,,,123,20,M,R,
568,64,22,13,4,36,44,634,['c'],0,right,['9'],5,89,[0.04171123],78,44,hard,minus,dotcolour,alfa,,,123,20,M,R,
569,65,23,13,4,44,36,716,['c'],1,left,['9'],5,195,[0.16406619],97,44,hard,minus,dotcolour,alfa,,,123,20,M,R,
570,66,24,13,4,27,53,716,['n'],1,right,['9'],5,159,[-0.07504222],84,53,easy,minus,dotcolour,alfa,,,123,20,M,R,
571,67,25,13,4,36,44,716,['c'],0,right,['9'],5,173,[0.05696289],77,44,hard,minus,dotcolour,alfa,,,123,20,M,R,
572,68,26,13,4,47,33,550,['c'],1,left,['9'],5,89,[0.07638277],91,47,medium,minus,dotcolour,alfa,,,123,20,M,R,
573,69,27,13,4,44,36,917,['c'],1,left,['9'],5,114,[0.10562828],94,44,hard,minus,dotcolour,alfa,,,123,20,M,R,
574,70,28,13,4,44,36,800,['c'],1,left,['9'],5,79,[0.07675996],92,44,hard,minus,dotcolour,alfa,,,123,20,M,R,
575,71,29,13,4,27,53,784,['n'],1,right,['8'],4,1982,[-0.34455746],90,53,easy,minus,dotcolour,alfa,,,123,20,M,R,
576,72,30,13,4,53,27,534,['c'],1,left,['0'],6,194,[0.13233263],94,53,easy,minus,dotcolour,alfa,,,123,20,M,R,
577,73,31,13,4,33,47,1283,['n'],1,right,['9'],5,160,[-0.10708041],92,47,medium,minus,dotcolour,alfa,,,123,20,M,R,
578,74,32,13,4,47,33,617,['c'],1,left,['9'],5,202,[0.11572568],91,47,medium,minus,dotcolour,alfa,,,123,20,M,R,
579,75,33,13,4,33,47,917,['n'],1,right,['9'],5,111,[-0.10162],94,47,medium,minus,dotcolour,alfa,,,123,20,M,R,
580,76,34,13,4,53,27,717,['c'],1,left,['0'],6,214,[0.02025589],60,53,easy,minus,dotcolour,alfa,,,123,20,M,R,
581,77,35,13,4,36,44,966,['n'],1,right,['0'],6,57,[-0.07830949],95,44,hard,minus,dotcolour,alfa,,,123,20,M,R,
582,78,36,13,4,53,27,466,['c'],1,left,['9'],5,381,[0.15564264],91,53,easy,minus,dotcolour,alfa,,,123,20,M,R,
583,79,37,13,4,47,33,650,['c'],1,left,['9'],5,77,[0.0877024],95,47,medium,minus,dotcolour,alfa,,,123,20,M,R,
584,80,38,13,4,33,47,951,['n'],1,right,['9'],5,20,[-0.05501463],97,47,medium,minus,dotcolour,alfa,,,123,20,M,R,
585,81,39,13,4,27,53,817,['n'],1,right,['9'],5,101,[-0.10847755],96,53,easy,minus,dotcolour,alfa,,,123,20,M,R,
586,82,40,13,4,27,53,400,['c'],0,right,['2'],2,938,[-0.1064181],27,53,easy,minus,dotcolour,alfa,,,123,20,M,R,
587,83,41,13,4,53,27,767,['c'],1,left,['9'],5,167,[0.05208633],76,53,easy,minus,dotcolour,alfa,,,123,20,M,R,
588,84,0,14,4,27,53,700,['n'],1,right,['9'],5,126,[-0.0271206],67,53,easy,minus,dotcolour,alfa,,,123,20,M,R,
589,85,1,14,4,27,53,500,['n'],1,right,['9'],5,102,[-0.11663385],96,53,easy,minus,dotcolour,alfa,,,123,20,M,R,
590,86,2,14,4,44,36,499,['c'],1,left,['9'],5,96,[0.07644275],90,44,hard,minus,dotcolour,alfa,,,123,20,M,R,
591,87,3,14,4,36,44,716,['n'],1,right,['9'],5,96,[-0.06442013],87,44,hard,minus,dotcolour,alfa,,,123,20,M,R,
592,88,4,14,4,47,33,651,['c'],1,left,['0'],6,395,[0.18178773],93,47,medium,minus,dotcolour,alfa,,,123,20,M,R,
593,89,5,14,4,36,44,699,['n'],1,right,['0'],6,105,[-0.06228091],85,44,hard,minus,dotcolour,alfa,,,123,20,M,R,
594,90,6,14,4,53,27,667,['c'],1,left,['9'],5,156,[0.12027585],94,53,easy,minus,dotcolour,alfa,,,123,20,M,R,
595,91,7,14,4,36,44,733,['n'],1,right,['9'],5,10,[-0.0550697],99,44,hard,minus,dotcolour,alfa,,,123,20,M,R,
596,92,8,14,4,44,36,766,['c'],1,left,['9'],5,109,[0.0504746],80,44,hard,minus,dotcolour,alfa,,,123,20,M,R,
597,93,9,14,4,36,44,933,['n'],1,right,['9'],5,115,[-0.05386022],81,44,hard,minus,dotcolour,alfa,,,123,20,M,R,
598,94,10,14,4,33,47,600,['n'],1,right,['9'],5,47,[-0.05014068],89,47,medium,minus,dotcolour,alfa,,,123,20,M,R,
599,95,11,14,4,33,47,632,['n'],1,right,['9'],5,54,[-0.0694423],94,47,medium,minus,dotcolour,alfa,,,123,20,M,R,
600,96,12,14,4,27,53,532,['n'],1,right,['9'],5,72,[-0.08301975],94,53,easy,minus,dotcolour,alfa,,,123,20,M,R,
601,97,13,14,4,53,27,1234,['n'],0,left,['9'],5,13,[-0.06623579],99,53,easy,minus,dotcolour,alfa,,,123,20,M,R,
602,98,14,14,4,47,33,600,['c'],1,left,['9'],5,222,[0.06609481],78,47,medium,minus,dotcolour,alfa,,,123,20,M,R,
603,99,15,14,4,33,47,717,['n'],1,right,['8'],4,249,[0.00761136],47,47,medium,minus,dotcolour,alfa,,,123,20,M,R,
604,100,16,14,4,27,53,700,['n'],1,right,['9'],5,164,[-0.12109873],94,53,easy,minus,dotcolour,alfa,,,123,20,M,R,
605,101,17,14,4,33,47,583,['n'],1,right,['9'],5,120,[-0.09007213],91,47,medium,minus,dotcolour,alfa,,,123,20,M,R,
606,102,18,14,4,47,33,484,['c'],1,left,['8'],4,145,[0.06774263],83,47,medium,minus,dotcolour,alfa,,,123,20,M,R,
607,103,19,14,4,47,33,816,['c'],1,left,['0'],6,100,[0.11189893],96,47,medium,minus,dotcolour,alfa,,,123,20,M,R,
608,104,20,14,4,53,27,516,['c'],1,left,['0'],6,181,[0.0961425],88,53,easy,minus,dotcolour,alfa,,,123,20,M,R,
609,105,21,14,4,27,53,600,['n'],1,right,['0'],6,279,[-0.08875219],82,53,easy,minus,dotcolour,alfa,,,123,20,M,R,
610,106,22,14,4,36,44,717,['n'],1,right,['0'],6,120,[-0.07824354],88,44,hard,minus,dotcolour,alfa,,,123,20,M,R,
611,107,23,14,4,53,27,1034,['c'],1,left,['9'],5,340,[0.17237049],93,53,easy,minus,dotcolour,alfa,,,123,20,M,R,
612,108,24,14,4,33,47,500,['n'],1,right,['9'],5,99,[-0.06565857],87,47,medium,minus,dotcolour,alfa,,,123,20,M,R,
613,109,25,14,4,33,47,950,['n'],1,right,['2'],2,1962,[-0.38049369],92,47,medium,minus,dotcolour,alfa,,,123,20,M,R,
614,110,26,14,4,33,47,600,['n'],1,right,['9'],5,36,[-0.05991495],94,47,medium,minus,dotcolour,alfa,,,123,20,M,R,
615,111,27,14,4,44,36,533,['c'],1,left,['9'],5,199,[0.09870414],88,44,hard,minus,dotcolour,alfa,,,123,20,M,R,
616,112,28,14,4,44,36,617,['c'],1,left,['9'],5,128,[0.14070214],97,44,hard,minus,dotcolour,alfa,,,123,20,M,R,
617,113,29,14,4,44,36,802,['n'],0,left,['9'],5,156,[-0.08628619],88,44,hard,minus,dotcolour,alfa,,,123,20,M,R,
618,114,30,14,4,27,53,483,['n'],1,right,['9'],5,84,[-0.09971482],96,53,easy,minus,dotcolour,alfa,,,123,20,M,R,
619,115,31,14,4,53,27,816,['c'],1,left,['9'],5,329,[0.10673944],84,53,easy,minus,dotcolour,alfa,,,123,20,M,R,
620,116,32,14,4,47,33,800,['n'],0,left,['9'],5,69,[-0.04734184],84,47,medium,minus,dotcolour,alfa,,,123,20,M,R,
621,117,33,14,4,36,44,932,['c'],0,right,['9'],5,119,[0.06531607],85,44,hard,minus,dotcolour,alfa,,,123,20,M,R,
622,118,34,14,4,47,33,500,['c'],1,left,['9'],5,119,[0.08915666],91,47,medium,minus,dotcolour,alfa,,,123,20,M,R,
623,119,35,14,4,44,36,485,['c'],1,left,['9'],5,129,[0.09753007],92,44,hard,minus,dotcolour,alfa,,,123,20,M,R,
624,120,36,14,4,47,33,400,['c'],1,left,['9'],5,164,[0.12950966],95,47,medium,minus,dotcolour,alfa,,,123,20,M,R,
625,121,37,14,4,53,27,433,['c'],1,left,['9'],5,70,[0.13263552],99,53,easy,minus,dotcolour,alfa,,,123,20,M,R,
626,122,38,14,4,27,53,350,['c'],0,right,['9'],5,54,[0.0968843],98,53,easy,minus,dotcolour,alfa,,,123,20,M,R,
627,123,39,14,4,53,27,582,['c'],1,left,['9'],5,30,[0.07823531],98,53,easy,minus,dotcolour,alfa,,,123,20,M,R,
628,124,40,14,4,36,44,1284,['n'],1,right,['9'],5,99,[-0.06326746],86,44,hard,minus,dotcolour,alfa,,,123,20,M,R,
629,125,41,14,4,44,36,450,['c'],1,left,['9'],5,63,[0.0439588],83,44,hard,minus,dotcolour,alfa,,,123,20,M,R,
630,0,0,15,5,47,33,718,['c'],1,left,['0'],6,129,[0.09926923],100,47,medium,plus,dotcolour,alfa,,,123,20,M,R,
631,1,1,15,5,36,44,467,['c'],0,right,['9'],5,163,[0.05369379],99,44,hard,plus,dotcolour,alfa,,,123,20,M,R,
632,2,2,15,5,33,47,650,['n'],1,right,['0'],6,251,[-0.15553754],100,47,medium,plus,dotcolour,alfa,,,123,20,M,R,
633,3,3,15,5,27,53,650,['n'],1,right,['0'],6,105,[-0.12042557],100,53,easy,plus,dotcolour,alfa,,,123,20,M,R,
634,4,4,15,5,44,36,966,['c'],1,left,['9'],5,55,[0.07107375],100,44,hard,plus,dotcolour,alfa,,,123,20,M,R,
635,5,5,15,5,44,36,400,['c'],1,left,['0'],6,47,[0.06697655],100,44,hard,plus,dotcolour,alfa,,,123,20,M,R,
636,6,6,15,5,47,33,466,['c'],1,left,['0'],6,83,[0.12169231],100,47,medium,plus,dotcolour,alfa,,,123,20,M,R,
637,7,7,15,5,36,44,567,['c'],0,right,['0'],6,75,[0.03283103],99,44,hard,plus,dotcolour,alfa,,,123,20,M,R,
638,8,8,15,5,47,33,601,['c'],1,left,['0'],6,113,[0.12216031],100,47,medium,plus,dotcolour,alfa,,,123,20,M,R,
639,9,9,15,5,33,47,817,['n'],1,right,['0'],6,333,[-0.07922355],99,47,medium,plus,dotcolour,alfa,,,123,20,M,R,
640,10,10,15,5,44,36,651,['c'],1,left,['0'],6,135,[0.08695294],100,44,hard,plus,dotcolour,alfa,,,123,20,M,R,
641,11,11,15,5,36,44,1333,['n'],1,right,['9'],5,54,[-0.09730256],100,44,hard,plus,dotcolour,alfa,,,123,20,M,R,
642,12,12,15,5,27,53,883,['n'],1,right,['0'],6,274,[-0.05250445],97,53,easy,plus,dotcolour,alfa,,,123,20,M,R,
643,13,13,15,5,44,36,684,['c'],1,left,['9'],5,476,[0.17159383],100,44,hard,plus,dotcolour,alfa,,,123,20,M,R,
644,14,14,15,5,47,33,550,['c'],1,left,['9'],5,61,[0.07533543],100,47,medium,plus,dotcolour,alfa,,,123,20,M,R,
645,15,15,15,5,33,47,884,['n'],1,right,['0'],6,200,[-0.10562228],100,47,medium,plus,dotcolour,alfa,,,123,20,M,R,
646,16,16,15,5,53,27,517,['c'],1,left,['0'],6,373,[0.07358127],99,53,easy,plus,dotcolour,alfa,,,123,20,M,R,
647,17,17,15,5,27,53,1434,['n'],1,right,['9'],5,173,[-0.02569472],90,53,easy,plus,dotcolour,alfa,,,123,20,M,R,
648,18,18,15,5,53,27,451,['c'],1,left,['0'],6,541,[0.03381246],84,53,easy,plus,dotcolour,alfa,,,123,20,M,R,
649,19,19,15,5,53,27,517,['c'],1,left,['0'],6,124,[0.06524171],100,53,easy,plus,dotcolour,alfa,,,123,20,M,R,
650,20,20,15,5,53,27,368,['c'],1,left,['0'],6,113,[0.07878355],100,53,easy,plus,dotcolour,alfa,,,123,20,M,R,
651,21,21,15,5,33,47,951,['n'],1,right,['0'],6,280,[-0.07054681],99,47,medium,plus,dotcolour,alfa,,,123,20,M,R,
652,22,22,15,5,27,53,667,['n'],1,right,['0'],6,43,[-0.12397442],100,53,easy,plus,dotcolour,alfa,,,123,20,M,R,
653,23,23,15,5,36,44,1249,['n'],1,right,['0'],6,144,[-0.14816639],100,44,hard,plus,dotcolour,alfa,,,123,20,M,R,
654,24,24,15,5,44,36,1083,['c'],1,left,['9'],5,1033,[0.14577574],99,44,hard,plus,dotcolour,alfa,,,123,20,M,R,
655,25,25,15,5,53,27,883,['c'],1,left,['9'],5,301,[0.2139943],100,53,easy,plus,dotcolour,alfa,,,123,20,M,R,
656,26,26,15,5,47,33,433,['c'],1,left,['9'],5,193,[0.07454099],100,47,medium,plus,dotcolour,alfa,,,123,20,M,R,
657,27,27,15,5,33,47,750,['c'],0,right,['0'],6,60,[0.0622463],100,47,medium,plus,dotcolour,alfa,,,123,20,M,R,
658,28,28,15,5,47,33,601,['c'],1,left,['9'],5,115,[0.07551371],100,47,medium,plus,dotcolour,alfa,,,123,20,M,R,
659,29,29,15,5,27,53,193,['c'],0,right,['0'],6,384,[0.07394032],99,53,easy,plus,dotcolour,alfa,,,123,20,M,R,
660,30,30,15,5,36,44,583,['c'],0,right,['8'],4,2786,[-0.22137447],1,44,hard,plus,dotcolour,alfa,,,123,20,M,R,
661,31,31,15,5,27,53,534,['n'],1,right,['9'],5,126,[-0.09011315],100,53,easy,plus,dotcolour,alfa,,,123,20,M,R,
662,32,32,15,5,33,47,850,['c'],0,right,['2'],2,121,[0.03027009],96,47,medium,plus,dotcolour,alfa,,,123,20,M,R,
663,33,33,15,5,27,53,633,['n'],1,right,['0'],6,84,[-0.10541603],100,53,easy,plus,dotcolour,alfa,,,123,20,M,R,
664,34,34,15,5,36,44,683,['n'],1,right,['0'],6,54,[-0.08423737],100,44,hard,plus,dotcolour,alfa,,,123,20,M,R,
665,35,35,15,5,44,36,1034,['c'],1,left,['9'],5,932,[0.04875218],86,44,hard,plus,dotcolour,alfa,,,123,20,M,R,
666,36,36,15,5,44,36,684,['c'],1,left,['0'],6,157,[0.02883027],93,44,hard,plus,dotcolour,alfa,,,123,20,M,R,
667,37,37,15,5,53,27,466,['c'],1,left,['0'],6,750,[0.27780573],100,53,easy,plus,dotcolour,alfa,,,123,20,M,R,
668,38,38,15,5,33,47,883,['n'],1,right,['0'],6,77,[-0.07469758],100,47,medium,plus,dotcolour,alfa,,,123,20,M,R,
669,39,39,15,5,36,44,517,['c'],0,right,['0'],6,86,[0.05066649],100,44,hard,plus,dotcolour,alfa,,,123,20,M,R,
670,40,40,15,5,53,27,917,['c'],1,left,['0'],6,64,[0.08250782],100,53,easy,plus,dotcolour,alfa,,,123,20,M,R,
671,41,41,15,5,47,33,434,['c'],1,left,['0'],6,61,[0.11368091],100,47,medium,plus,dotcolour,alfa,,,123,20,M,R,
672,42,0,16,5,33,47,684,['n'],1,right,['0'],6,14,[-0.08521485],100,47,medium,plus,dotcolour,alfa,,,123,20,M,R,
673,43,1,16,5,33,47,633,['c'],0,right,['0'],6,70,[0.06896092],100,47,medium,plus,dotcolour,alfa,,,123,20,M,R,
674,44,2,16,5,27,53,700,['n'],1,right,['0'],6,216,[-0.08340538],100,53,easy,plus,dotcolour,alfa,,,123,20,M,R,
675,45,3,16,5,47,33,634,['c'],1,left,['9'],5,144,[0.04843348],99,47,medium,plus,dotcolour,alfa,,,123,20,M,R,
676,46,4,16,5,36,44,2033,['c'],0,right,['8'],4,90,[0.08625734],100,44,hard,plus,dotcolour,alfa,,,123,20,M,R,
677,47,5,16,5,44,36,1633,['n'],0,left,['8'],4,254,[-0.02601657],87,44,hard,plus,dotcolour,alfa,,,123,20,M,R,
678,48,6,16,5,36,44,1000,['n'],1,right,['9'],5,1014,[-0.1963061],100,44,hard,plus,dotcolour,alfa,,,123,20,M,R,
679,49,7,16,5,53,27,1233,['c'],1,left,['9'],5,733,[0.16019307],100,53,easy,plus,dotcolour,alfa,,,123,20,M,R,
680,50,8,16,5,47,33,633,['c'],1,left,['9'],5,96,[0.07732105],100,47,medium,plus,dotcolour,alfa,,,123,20,M,R,
681,51,9,16,5,27,53,967,['n'],1,right,['9'],5,103,[-0.06137716],100,53,easy,plus,dotcolour,alfa,,,123,20,M,R,
682,52,10,16,5,27,53,934,['n'],1,right,['9'],5,79,[-0.07753399],100,53,easy,plus,dotcolour,alfa,,,123,20,M,R,
683,53,11,16,5,53,27,784,['c'],1,left,['0'],6,94,[0.07088917],100,53,easy,plus,dotcolour,alfa,,,123,20,M,R,
684,54,12,16,5,27,53,883,['n'],1,right,['0'],6,336,[-0.04034544],92,53,easy,plus,dotcolour,alfa,,,123,20,M,R,
685,55,13,16,5,33,47,650,['n'],1,right,['0'],6,66,[-0.09452435],100,47,medium,plus,dotcolour,alfa,,,123,20,M,R,
686,56,14,16,5,44,36,617,['c'],1,left,['9'],5,248,[0.17427173],100,44,hard,plus,dotcolour,alfa,,,123,20,M,R,
687,57,15,16,5,44,36,384,['c'],1,left,['9'],5,113,[0.07719734],100,44,hard,plus,dotcolour,alfa,,,123,20,M,R,
688,58,16,16,5,47,33,399,['c'],1,left,['9'],5,309,[-0.00408938],43,47,medium,plus,dotcolour,alfa,,,123,20,M,R,
689,59,17,16,5,47,33,433,['c'],1,left,['0'],6,175,[0.12410341],100,47,medium,plus,dotcolour,alfa,,,123,20,M,R,
690,60,18,16,5,53,27,384,['c'],1,left,['0'],6,58,[0.10705387],100,53,easy,plus,dotcolour,alfa,,,123,20,M,R,
691,61,19,16,5,53,27,401,['c'],1,left,['0'],6,25,[0.08875733],100,53,easy,plus,dotcolour,alfa,,,123,20,M,R,
692,62,20,16,5,44,36,216,['c'],1,left,['9'],5,105,[0.12655842],100,44,hard,plus,dotcolour,alfa,,,123,20,M,R,
693,63,21,16,5,36,44,1183,['c'],0,right,['9'],5,598,[0.12151573],100,44,hard,plus,dotcolour,alfa,,,123,20,M,R,
694,64,22,16,5,47,33,833,['c'],1,left,['9'],5,263,[0.15898028],100,47,medium,plus,dotcolour,alfa,,,123,20,M,R,
695,65,23,16,5,53,27,1000,['c'],1,left,['0'],6,317,[0.25824917],100,53,easy,plus,dotcolour,alfa,,,123,20,M,R,
696,66,24,16,5,36,44,1050,['n'],1,right,['0'],6,136,[-0.08499188],100,44,hard,plus,dotcolour,alfa,,,123,20,M,R,
697,67,25,16,5,33,47,767,['n'],1,right,['0'],6,117,[-0.1075586],100,47,medium,plus,dotcolour,alfa,,,123,20,M,R,
698,68,26,16,5,44,36,1184,['n'],0,left,['9'],5,66,[-0.03734429],99,44,hard,plus,dotcolour,alfa,,,123,20,M,R,
699,69,27,16,5,36,44,716,['n'],1,right,['9'],5,85,[-0.05360895],100,44,hard,plus,dotcolour,alfa,,,123,20,M,R,
700,70,28,16,5,33,47,1033,['n'],1,right,['9'],5,130,[-0.08262186],100,47,medium,plus,dotcolour,alfa,,,123,20,M,R,
701,71,29,16,5,33,47,551,['n'],1,right,['0'],6,88,[-0.11519145],100,47,medium,plus,dotcolour,alfa,,,123,20,M,R,
702,72,30,16,5,27,53,584,['n'],1,right,['0'],6,63,[-0.07530148],100,53,easy,plus,dotcolour,alfa,,,123,20,M,R,
703,73,31,16,5,44,36,1367,['c'],1,left,['9'],5,102,[0.06496591],100,44,hard,plus,dotcolour,alfa,,,123,20,M,R,
704,74,32,16,5,36,44,667,['n'],1,right,['9'],5,65,[-0.08631584],100,44,hard,plus,dotcolour,alfa,,,123,20,M,R,
705,75,33,16,5,27,53,617,['n'],1,right,['9'],5,159,[-0.09848453],100,53,easy,plus,dotcolour,alfa,,,123,20,M,R,
706,76,34,16,5,27,53,516,['n'],1,right,['9'],5,77,[-0.08666328],100,53,easy,plus,dotcolour,alfa,,,123,20,M,R,
707,77,35,16,5,47,33,1017,['c'],1,left,['9'],5,58,[0.07586797],100,47,medium,plus,dotcolour,alfa,,,123,20,M,R,
708,78,36,16,5,53,27,467,['c'],1,left,['9'],5,63,[0.11759716],100,53,easy,plus,dotcolour,alfa,,,123,20,M,R,
709,79,37,16,5,47,33,966,['c'],1,left,['9'],5,70,[0.07214375],100,47,medium,plus,dotcolour,alfa,,,123,20,M,R,
710,80,38,16,5,33,47,600,['n'],1,right,['9'],5,85,[-0.09711978],100,47,medium,plus,dotcolour,alfa,,,123,20,M,R,
711,81,39,16,5,53,27,616,['c'],1,left,['9'],5,114,[0.06855446],100,53,easy,plus,dotcolour,alfa,,,123,20,M,R,
712,82,40,16,5,44,36,567,['c'],1,left,['9'],5,80,[0.06133418],100,44,hard,plus,dotcolour,alfa,,,123,20,M,R,
713,83,41,16,5,36,44,1033,['n'],1,right,['9'],5,149,[-0.10184052],100,44,hard,plus,dotcolour,alfa,,,123,20,M,R,
714,84,0,17,5,36,44,850,['n'],1,right,['8'],4,157,[-0.03890656],97,44,hard,plus,dotcolour,alfa,,,123,20,M,R,
715,85,1,17,5,47,33,700,['c'],1,left,['9'],5,67,[0.10128988],100,47,medium,plus,dotcolour,alfa,,,123,20,M,R,
716,86,2,17,5,44,36,917,['n'],0,left,['9'],5,133,[-0.08703193],100,44,hard,plus,dotcolour,alfa,,,123,20,M,R,
717,87,3,17,5,36,44,1150,['n'],1,right,['8'],4,99,[-0.07699377],100,44,hard,plus,dotcolour,alfa,,,123,20,M,R,
718,88,4,17,5,33,47,568,['n'],1,right,['9'],5,266,[-0.15304671],100,47,medium,plus,dotcolour,alfa,,,123,20,M,R,
719,89,5,17,5,27,53,750,['n'],1,right,['0'],6,122,[-0.08425553],100,53,easy,plus,dotcolour,alfa,,,123,20,M,R,
720,90,6,17,5,44,36,800,['n'],0,left,['8'],4,88,[-0.07298394],100,44,hard,plus,dotcolour,alfa,,,123,20,M,R,
721,91,7,17,5,44,36,1100,['c'],1,left,['8'],4,73,[0.08084572],100,44,hard,plus,dotcolour,alfa,,,123,20,M,R,
722,92,8,17,5,33,47,718,['n'],1,right,['9'],5,83,[-0.0792279],100,47,medium,plus,dotcolour,alfa,,,123,20,M,R,
723,93,9,17,5,36,44,984,['n'],1,right,['8'],4,82,[-0.02618091],96,44,hard,plus,dotcolour,alfa,,,123,20,M,R,
724,94,10,17,5,47,33,666,['c'],1,left,['8'],4,205,[0.07791603],100,47,medium,plus,dotcolour,alfa,,,123,20,M,R,
725,95,11,17,5,33,47,534,['n'],1,right,['9'],5,209,[-0.10572551],100,47,medium,plus,dotcolour,alfa,,,123,20,M,R,
726,96,12,17,5,36,44,1033,['n'],1,right,['9'],5,521,[-0.13533929],100,44,hard,plus,dotcolour,alfa,,,123,20,M,R,
727,97,13,17,5,36,44,650,['n'],1,right,['9'],5,74,[-0.07277034],100,44,hard,plus,dotcolour,alfa,,,123,20,M,R,
728,98,14,17,5,44,36,666,['n'],0,left,['9'],5,102,[-0.07829138],100,44,hard,plus,dotcolour,alfa,,,123,20,M,R,
729,99,15,17,5,33,47,834,['n'],1,right,['9'],5,178,[-0.0892312],100,47,medium,plus,dotcolour,alfa,,,123,20,M,R,
730,100,16,17,5,47,33,1117,['c'],1,left,['0'],6,95,[0.07335339],100,47,medium,plus,dotcolour,alfa,,,123,20,M,R,
731,101,17,17,5,44,36,1084,['c'],1,left,['8'],4,105,[0.02047546],91,44,hard,plus,dotcolour,alfa,,,123,20,M,R,
732,102,18,17,5,33,47,667,['n'],1,right,['9'],5,91,[-0.03078963],98,47,medium,plus,dotcolour,alfa,,,123,20,M,R,
733,103,19,17,5,33,47,650,['n'],1,right,['9'],5,71,[-0.09437339],100,47,medium,plus,dotcolour,alfa,,,123,20,M,R,
734,104,20,17,5,36,44,900,['n'],1,right,['0'],6,394,[-0.15331306],100,44,hard,plus,dotcolour,alfa,,,123,20,M,R,
735,105,21,17,5,53,27,1200,['c'],1,left,['9'],5,99,[0.07446242],100,53,easy,plus,dotcolour,alfa,,,123,20,M,R,
736,106,22,17,5,36,44,734,['c'],0,right,['9'],5,83,[0.06239121],100,44,hard,plus,dotcolour,alfa,,,123,20,M,R,
737,107,23,17,5,47,33,634,['c'],1,left,['9'],5,88,[0.06297764],100,47,medium,plus,dotcolour,alfa,,,123,20,M,R,
738,108,24,17,5,53,27,683,['c'],1,left,['9'],5,66,[0.07318539],100,53,easy,plus,dotcolour,alfa,,,123,20,M,R,
739,109,25,17,5,44,36,984,['c'],1,left,['8'],4,98,[0.02870619],96,44,hard,plus,dotcolour,alfa,,,123,20,M,R,
740,110,26,17,5,27,53,384,['n'],1,right,['9'],5,120,[-0.10056319],100,53,easy,plus,dotcolour,alfa,,,123,20,M,R,
741,111,27,17,5,44,36,717,['c'],1,left,['9'],5,24,[0.08423883],100,44,hard,plus,dotcolour,alfa,,,123,20,M,R,
742,112,28,17,5,27,53,550,['n'],1,right,['9'],5,1107,[-0.36101892],100,53,easy,plus,dotcolour,alfa,,,123,20,M,R,
743,113,29,17,5,53,27,534,['c'],1,left,['9'],5,66,[0.04256059],100,53,easy,plus,dotcolour,alfa,,,123,20,M,R,
744,114,30,17,5,27,53,734,['n'],1,right,['9'],5,123,[-0.13323501],100,53,easy,plus,dotcolour,alfa,,,123,20,M,R,
745,115,31,17,5,47,33,616,['c'],1,left,['0'],6,151,[0.15709092],100,47,medium,plus,dotcolour,alfa,,,123,20,M,R,
746,116,32,17,5,53,27,485,['c'],1,left,['0'],6,86,[0.07372207],100,53,easy,plus,dotcolour,alfa,,,123,20,M,R,
747,117,33,17,5,47,33,467,['c'],1,left,['0'],6,74,[0.04526972],100,47,medium,plus,dotcolour,alfa,,,123,20,M,R,
748,118,34,17,5,27,53,568,['n'],1,right,['9'],5,42,[-0.08887672],100,53,easy,plus,dotcolour,alfa,,,123,20,M,R,
749,119,35,17,5,27,53,751,['n'],1,right,['9'],5,107,[-0.08862593],100,53,easy,plus,dotcolour,alfa,,,123,20,M,R,
750,120,36,17,5,47,33,484,['c'],1,left,['9'],5,100,[0.10376487],100,47,medium,plus,dotcolour,alfa,,,123,20,M,R,
751,121,37,17,5,33,47,1017,['n'],1,right,['9'],5,73,[-0.06352951],100,47,medium,plus,dotcolour,alfa,,,123,20,M,R,
752,122,38,17,5,53,27,683,['c'],1,left,['9'],5,68,[0.08621769],100,53,easy,plus,dotcolour,alfa,,,123,20,M,R,
753,123,39,17,5,27,53,583,['n'],1,right,['9'],5,60,[-0.11011003],100,53,easy,plus,dotcolour,alfa,,,123,20,M,R,
754,124,40,17,5,53,27,882,['c'],1,left,['3'],3,120,[0.03966551],98,53,easy,plus,dotcolour,alfa,,,123,20,M,R,
755,125,41,17,5,53,27,733,['c'],1,left,['0'],6,182,[0.10283684],100,53,easy,plus,dotcolour,alfa,,,123,20,M,R,
,,,,,,,,,,,,,,,,,,,,,1,ik heb het gevoel dat bij elke ronde dezelfde puntplaatjes werden getoond in een andere volgorde,123,20,M,R,
,,,,,,,,,,,,,,,,,,,,,2,['h'],123,20,M,R,
,,,,,,,,,,,,,,,,,,,,,3,['h'],123,20,M,R,
,,,,,,,,,,,,,,,,,,,,,5,"['4', '5']",123,20,M,R,
