trial,withinphasetrial,withinblocktrial,block,phase,dotsLeft,dotsRight,rt,resp,cor,cresp,conf_press,cj,RTconf,ev,fb,diff,difflevel,condition,task,manip,questionID,questionResp,sub,age,gender,handedness,
0,0,0,0,0,27,53,1733,['n'],1,right,['9'],5,3591,[-0.95025503],100,53,easy,minus,dotcolour,beta,,,39,19,V,R,
1,1,1,0,0,33,47,1367,['n'],1,right,['0'],6,888,[-0.10155632],71,47,medium,minus,dotcolour,beta,,,39,19,V,R,
2,2,2,0,0,33,47,1717,['n'],1,right,['8'],4,2169,[-0.36174851],98,47,medium,minus,dotcolour,beta,,,39,19,V,R,
3,3,3,0,0,33,47,1133,['n'],1,right,['9'],5,822,[-0.12006185],78,47,medium,minus,dotcolour,beta,,,39,19,V,R,
4,4,4,0,0,27,53,984,['n'],1,right,['0'],6,615,[-0.23271432],98,53,easy,minus,dotcolour,beta,,,39,19,V,R,
5,5,5,0,0,44,36,801,['c'],1,left,['0'],6,1015,[-0.0056204],25,44,hard,minus,dotcolour,beta,,,39,19,V,R,
6,6,6,0,0,27,53,1517,['n'],1,right,['0'],6,922,[-0.35273715],100,53,easy,minus,dotcolour,beta,,,39,19,V,R,
7,7,7,0,0,27,53,1000,['n'],1,right,['0'],6,774,[-0.15940353],89,53,easy,minus,dotcolour,beta,,,39,19,V,R,
8,8,8,0,0,36,44,1100,['n'],1,right,['9'],5,732,[0.04626184],11,44,hard,minus,dotcolour,beta,,,39,19,V,R,
9,9,9,0,0,53,27,832,['c'],1,left,['0'],6,871,[0.11940445],77,53,easy,minus,dotcolour,beta,,,39,19,V,R,
10,10,10,0,0,36,44,650,['n'],1,right,['0'],6,539,[-0.0783116],64,44,hard,minus,dotcolour,beta,,,39,19,V,R,
11,11,11,0,0,33,47,617,['n'],1,right,['0'],6,478,[-0.01085679],24,47,medium,minus,dotcolour,beta,,,39,19,V,R,
12,12,12,0,0,44,36,483,['c'],1,left,['0'],6,800,[-0.05420029],10,44,hard,minus,dotcolour,beta,,,39,19,V,R,
13,13,13,0,0,27,53,684,['n'],1,right,['0'],6,646,[-0.14568404],88,53,easy,minus,dotcolour,beta,,,39,19,V,R,
14,14,14,0,0,47,33,767,['c'],1,left,['0'],6,776,[0.21277089],96,47,medium,minus,dotcolour,beta,,,39,19,V,R,
15,15,15,0,0,53,27,667,['c'],1,left,['0'],6,390,[0.20815676],99,53,easy,minus,dotcolour,beta,,,39,19,V,R,
16,16,16,0,0,47,33,868,['c'],1,left,['0'],6,293,[0.01872777],23,47,medium,minus,dotcolour,beta,,,39,19,V,R,
17,17,17,0,0,44,36,1033,['n'],0,left,['9'],5,1297,[-0.00739297],32,44,hard,minus,dotcolour,beta,,,39,19,V,R,
18,18,18,0,0,33,47,683,['n'],1,right,['0'],6,259,[-0.08856041],76,47,medium,minus,dotcolour,beta,,,39,19,V,R,
19,19,19,0,0,47,33,783,['c'],1,left,['0'],6,250,[0.17588964],99,47,medium,minus,dotcolour,beta,,,39,19,V,R,
20,20,20,0,0,36,44,668,['n'],1,right,['0'],6,183,[-0.03870477],33,44,hard,minus,dotcolour,beta,,,39,19,V,R,
21,21,21,0,0,44,36,667,['c'],1,left,['0'],6,151,[0.12898978],97,44,hard,minus,dotcolour,beta,,,39,19,V,R,
22,22,22,0,0,53,27,667,['c'],1,left,['0'],6,151,[0.07011966],66,53,easy,minus,dotcolour,beta,,,39,19,V,R,
23,23,23,0,0,44,36,884,['n'],0,left,['0'],6,366,[-0.03415167],35,44,hard,minus,dotcolour,beta,,,39,19,V,R,
24,24,24,0,0,53,27,883,['c'],1,left,['0'],6,287,[0.09169856],77,53,easy,minus,dotcolour,beta,,,39,19,V,R,
25,25,25,0,0,27,53,617,['n'],1,right,['0'],6,252,[-0.04020957],37,53,easy,minus,dotcolour,beta,,,39,19,V,R,
26,26,26,0,0,27,53,650,['n'],1,right,['0'],6,185,[-0.04563333],40,53,easy,minus,dotcolour,beta,,,39,19,V,R,
27,27,27,0,0,47,33,700,['c'],1,left,['9'],5,367,[0.13771607],92,47,medium,minus,dotcolour,beta,,,39,19,V,R,
28,28,28,0,0,44,36,818,['c'],1,left,['9'],5,233,[0.08123546],72,44,hard,minus,dotcolour,beta,,,39,19,V,R,
29,29,29,0,0,53,27,633,['c'],1,left,['0'],6,200,[0.13456165],96,53,easy,minus,dotcolour,beta,,,39,19,V,R,
30,30,30,0,0,47,33,618,['c'],1,left,['8'],4,1048,[0.06714126],55,47,medium,minus,dotcolour,beta,,,39,19,V,R,
31,31,31,0,0,36,44,667,['n'],1,right,['0'],6,213,[-0.1023136],86,44,hard,minus,dotcolour,beta,,,39,19,V,R,
32,32,32,0,0,36,44,817,['n'],1,right,['0'],6,213,[0.01954974],5,44,hard,minus,dotcolour,beta,,,39,19,V,R,
33,33,33,0,0,53,27,767,['c'],1,left,['0'],6,143,[0.06030299],56,53,easy,minus,dotcolour,beta,,,39,19,V,R,
34,34,34,0,0,36,44,817,['n'],1,right,['0'],6,154,[-0.14812554],99,44,hard,minus,dotcolour,beta,,,39,19,V,R,
35,35,35,0,0,47,33,1117,['c'],1,left,['0'],6,136,[0.09732582],88,47,medium,minus,dotcolour,beta,,,39,19,V,R,
36,36,36,0,0,33,47,533,['n'],1,right,['0'],6,175,[-0.08517901],78,47,medium,minus,dotcolour,beta,,,39,19,V,R,
37,37,37,0,0,36,44,717,['c'],0,right,['0'],6,149,[0.05276531],47,44,hard,minus,dotcolour,beta,,,39,19,V,R,
38,38,38,0,0,44,36,1017,['c'],1,left,['8'],4,984,[0.13363458],80,44,hard,minus,dotcolour,beta,,,39,19,V,R,
39,39,39,0,0,53,27,734,['c'],1,left,['8'],4,171,[0.17608747],99,53,easy,minus,dotcolour,beta,,,39,19,V,R,
40,40,40,0,0,47,33,551,['c'],1,left,['0'],6,152,[0.11019449],93,47,medium,minus,dotcolour,beta,,,39,19,V,R,
41,41,41,0,0,33,47,650,['n'],1,right,['0'],6,249,[-0.09389149],80,47,medium,minus,dotcolour,beta,,,39,19,V,R,
42,42,0,1,0,53,27,2466,['c'],1,left,['9'],5,1047,[0.27869636],98,53,easy,minus,dotcolour,beta,,,39,19,V,R,
43,43,1,1,0,36,44,1017,['c'],0,right,['0'],6,294,[0.11956486],89,44,hard,minus,dotcolour,beta,,,39,19,V,R,
44,44,2,1,0,44,36,816,['n'],0,left,['9'],5,259,[-0.07004116],63,44,hard,minus,dotcolour,beta,,,39,19,V,R,
45,45,3,1,0,53,27,601,['c'],1,left,['0'],6,170,[0.08114047],75,53,easy,minus,dotcolour,beta,,,39,19,V,R,
46,46,4,1,0,47,33,567,['c'],1,left,['0'],6,141,[0.11864299],95,47,medium,minus,dotcolour,beta,,,39,19,V,R,
47,47,5,1,0,36,44,633,['n'],1,right,['0'],6,256,[0.01184922],8,44,hard,minus,dotcolour,beta,,,39,19,V,R,
48,48,6,1,0,36,44,650,['n'],1,right,['9'],5,284,[-0.14861811],96,44,hard,minus,dotcolour,beta,,,39,19,V,R,
49,49,7,1,0,47,33,634,['c'],1,left,['9'],5,153,[0.08415075],79,47,medium,minus,dotcolour,beta,,,39,19,V,R,
50,50,8,1,0,27,53,551,['n'],1,right,['0'],6,222,[-0.10828812],88,53,easy,minus,dotcolour,beta,,,39,19,V,R,
51,51,9,1,0,53,27,1200,['c'],1,left,['9'],5,375,[0.17551605],97,53,easy,minus,dotcolour,beta,,,39,19,V,R,
52,52,10,1,0,36,44,1784,['n'],1,right,['8'],4,985,[-0.06520046],54,44,hard,minus,dotcolour,beta,,,39,19,V,R,
53,53,11,1,0,33,47,667,['n'],1,right,['0'],6,168,[-0.06927808],65,47,medium,minus,dotcolour,beta,,,39,19,V,R,
54,54,12,1,0,27,53,583,['n'],1,right,['0'],6,171,[-0.05752918],52,53,easy,minus,dotcolour,beta,,,39,19,V,R,
55,55,13,1,0,33,47,616,['n'],1,right,['0'],6,189,[-0.12388008],94,47,medium,minus,dotcolour,beta,,,39,19,V,R,
56,56,14,1,0,33,47,834,['n'],1,right,['9'],5,341,[-0.06039168],54,47,medium,minus,dotcolour,beta,,,39,19,V,R,
57,57,15,1,0,44,36,551,['c'],1,left,['9'],5,299,[0.06366322],57,44,hard,minus,dotcolour,beta,,,39,19,V,R,
58,58,16,1,0,27,53,599,['n'],1,right,['0'],6,208,[-0.06723845],61,53,easy,minus,dotcolour,beta,,,39,19,V,R,
59,59,17,1,0,33,47,1217,['n'],1,right,['9'],5,568,[-0.11119677],79,47,medium,minus,dotcolour,beta,,,39,19,V,R,
60,60,18,1,0,44,36,1800,['c'],1,left,['3'],3,1524,[0.22032878],92,44,hard,minus,dotcolour,beta,,,39,19,V,R,
61,61,19,1,0,53,27,1683,['c'],1,left,['0'],6,651,[0.10838411],76,53,easy,minus,dotcolour,beta,,,39,19,V,R,
62,62,20,1,0,27,53,600,['n'],1,right,['0'],6,211,[-0.1171203],92,53,easy,minus,dotcolour,beta,,,39,19,V,R,
63,63,21,1,0,36,44,634,['n'],1,right,['0'],6,202,[-0.11471434],91,44,hard,minus,dotcolour,beta,,,39,19,V,R,
64,64,22,1,0,27,53,550,['n'],1,right,['0'],6,213,[-0.16829301],99,53,easy,minus,dotcolour,beta,,,39,19,V,R,
65,65,23,1,0,36,44,567,['n'],1,right,['0'],6,191,[-0.10114189],87,44,hard,minus,dotcolour,beta,,,39,19,V,R,
66,66,24,1,0,47,33,650,['c'],1,left,['0'],6,231,[0.12872043],94,47,medium,minus,dotcolour,beta,,,39,19,V,R,
67,67,25,1,0,47,33,534,['c'],1,left,['0'],6,122,[0.05379521],48,47,medium,minus,dotcolour,beta,,,39,19,V,R,
68,68,26,1,0,47,33,582,['c'],1,left,['9'],5,447,[0.2125225],99,47,medium,minus,dotcolour,beta,,,39,19,V,R,
69,69,27,1,0,44,36,1049,['n'],0,left,['8'],4,516,[-0.09001156],70,44,hard,minus,dotcolour,beta,,,39,19,V,R,
70,70,28,1,0,36,44,733,['n'],1,right,['8'],4,269,[-0.07823248],69,44,hard,minus,dotcolour,beta,,,39,19,V,R,
71,71,29,1,0,33,47,733,['n'],1,right,['9'],5,885,[-0.20745677],95,47,medium,minus,dotcolour,beta,,,39,19,V,R,
72,72,30,1,0,33,47,799,['n'],1,right,['3'],3,1450,[-0.03579444],43,47,medium,minus,dotcolour,beta,,,39,19,V,R,
73,73,31,1,0,44,36,966,['c'],1,left,['9'],5,619,[0.15651611],91,44,hard,minus,dotcolour,beta,,,39,19,V,R,
74,74,32,1,0,27,53,633,['n'],1,right,['0'],6,177,[-0.06053194],55,53,easy,minus,dotcolour,beta,,,39,19,V,R,
75,75,33,1,0,44,36,1301,['c'],1,left,['9'],5,1120,[0.10369127],69,44,hard,minus,dotcolour,beta,,,39,19,V,R,
76,76,34,1,0,44,36,667,['n'],0,left,['9'],5,273,[-0.15136173],96,44,hard,minus,dotcolour,beta,,,39,19,V,R,
77,77,35,1,0,47,33,934,['c'],1,left,['9'],5,330,[0.08478492],71,47,medium,minus,dotcolour,beta,,,39,19,V,R,
78,78,36,1,0,53,27,617,['c'],1,left,['0'],6,141,[0.067218],64,53,easy,minus,dotcolour,beta,,,39,19,V,R,
79,79,37,1,0,33,47,651,['n'],1,right,['0'],6,158,[-0.07203877],68,47,medium,minus,dotcolour,beta,,,39,19,V,R,
80,80,38,1,0,27,53,667,['n'],1,right,['0'],6,190,[-0.07819881],72,53,easy,minus,dotcolour,beta,,,39,19,V,R,
81,81,39,1,0,53,27,533,['c'],1,left,['0'],6,187,[0.14843927],98,53,easy,minus,dotcolour,beta,,,39,19,V,R,
82,82,40,1,0,47,33,549,['c'],1,left,['9'],5,174,[0.08959878],81,47,medium,minus,dotcolour,beta,,,39,19,V,R,
83,83,41,1,0,53,27,482,['c'],1,left,['0'],6,173,[0.09454546],84,53,easy,minus,dotcolour,beta,,,39,19,V,R,
84,84,0,2,0,27,53,918,['n'],1,right,['0'],6,103,[-0.06152704],58,53,easy,minus,dotcolour,beta,,,39,19,V,R,
85,85,1,2,0,53,27,716,['c'],1,left,['0'],6,120,[0.05249632],46,53,easy,minus,dotcolour,beta,,,39,19,V,R,
86,86,2,2,0,27,53,533,['n'],1,right,['0'],6,383,[-0.16268702],96,53,easy,minus,dotcolour,beta,,,39,19,V,R,
87,87,3,2,0,36,44,1018,['c'],0,right,['3'],3,624,[0.12306939],82,44,hard,minus,dotcolour,beta,,,39,19,V,R,
88,88,4,2,0,47,33,1316,['c'],1,left,['9'],5,827,[0.24869434],98,47,medium,minus,dotcolour,beta,,,39,19,V,R,
89,89,5,2,0,44,36,717,['c'],1,left,['9'],5,263,[0.04006205],37,44,hard,minus,dotcolour,beta,,,39,19,V,R,
90,90,6,2,0,53,27,567,['c'],1,left,['0'],6,159,[0.13487522],97,53,easy,minus,dotcolour,beta,,,39,19,V,R,
91,91,7,2,0,33,47,600,['n'],1,right,['0'],6,137,[-0.07481995],72,47,medium,minus,dotcolour,beta,,,39,19,V,R,
92,92,8,2,0,44,36,817,['c'],1,left,['9'],5,533,[0.13423436],87,44,hard,minus,dotcolour,beta,,,39,19,V,R,
93,93,9,2,0,36,44,584,['n'],1,right,['8'],4,610,[0.01232912],17,44,hard,minus,dotcolour,beta,,,39,19,V,R,
94,94,10,2,0,47,33,883,['c'],1,left,['3'],3,967,[0.05796983],51,47,medium,minus,dotcolour,beta,,,39,19,V,R,
95,95,11,2,0,33,47,1165,['n'],1,right,['8'],4,1050,[-0.1711482],88,47,medium,minus,dotcolour,beta,,,39,19,V,R,
96,96,12,2,0,33,47,633,['n'],1,right,['0'],6,384,[-0.12362518],88,47,medium,minus,dotcolour,beta,,,39,19,V,R,
97,97,13,2,0,27,53,435,['n'],1,right,['0'],6,401,[-0.11450578],84,53,easy,minus,dotcolour,beta,,,39,19,V,R,
98,98,14,2,0,53,27,734,['c'],1,left,['0'],6,165,[0.10630147],90,53,easy,minus,dotcolour,beta,,,39,19,V,R,
99,99,15,2,0,47,33,867,['c'],1,left,['9'],5,332,[0.09724524],79,47,medium,minus,dotcolour,beta,,,39,19,V,R,
100,100,16,2,0,33,47,499,['c'],0,right,['1'],1,1445,[-0.09379504],10,47,medium,minus,dotcolour,beta,,,39,19,V,R,
101,101,17,2,0,27,53,650,['n'],1,right,['0'],6,170,[-0.12246088],95,53,easy,minus,dotcolour,beta,,,39,19,V,R,
102,102,18,2,0,36,44,516,['n'],1,right,['0'],6,136,[-0.11821183],96,44,hard,minus,dotcolour,beta,,,39,19,V,R,
103,103,19,2,0,44,36,950,['c'],1,left,['9'],5,254,[0.11000944],87,44,hard,minus,dotcolour,beta,,,39,19,V,R,
104,104,20,2,0,36,44,1167,['c'],0,right,['8'],4,407,[-0.0036772],16,44,hard,minus,dotcolour,beta,,,39,19,V,R,
105,105,21,2,0,36,44,651,['n'],1,right,['9'],5,229,[-0.06880122],62,44,hard,minus,dotcolour,beta,,,39,19,V,R,
106,106,22,2,0,27,53,701,['n'],1,right,['9'],5,281,[-0.0396984],37,53,easy,minus,dotcolour,beta,,,39,19,V,R,
107,107,23,2,0,47,33,600,['c'],1,left,['0'],6,167,[0.0787578],74,47,medium,minus,dotcolour,beta,,,39,19,V,R,
108,108,24,2,0,53,27,500,['c'],1,left,['0'],6,158,[0.13861099],98,53,easy,minus,dotcolour,beta,,,39,19,V,R,
109,109,25,2,0,47,33,884,['c'],1,left,['9'],5,182,[0.08512167],78,47,medium,minus,dotcolour,beta,,,39,19,V,R,
110,110,26,2,0,44,36,567,['c'],1,left,['9'],5,153,[0.11408164],94,44,hard,minus,dotcolour,beta,,,39,19,V,R,
111,111,27,2,0,33,47,635,['n'],1,right,['9'],5,219,[-0.11780468],92,47,medium,minus,dotcolour,beta,,,39,19,V,R,
112,112,28,2,0,47,33,584,['c'],1,left,['9'],5,252,[0.06905991],62,47,medium,minus,dotcolour,beta,,,39,19,V,R,
113,113,29,2,0,27,53,599,['n'],1,right,['0'],6,212,[-0.17760136],99,53,easy,minus,dotcolour,beta,,,39,19,V,R,
114,114,30,2,0,44,36,1000,['c'],1,left,['9'],5,308,[-0.06589054],2,44,hard,minus,dotcolour,beta,,,39,19,V,R,
115,115,31,2,0,53,27,550,['c'],1,left,['0'],6,555,[0.1932702],97,53,easy,minus,dotcolour,beta,,,39,19,V,R,
116,116,32,2,0,33,47,567,['n'],1,right,['0'],6,135,[-0.00214411],7,47,medium,minus,dotcolour,beta,,,39,19,V,R,
117,117,33,2,0,44,36,750,['c'],1,left,['8'],4,437,[0.21750709],99,44,hard,minus,dotcolour,beta,,,39,19,V,R,
118,118,34,2,0,53,27,700,['n'],0,left,['0'],6,138,[-0.08240158],79,53,easy,minus,dotcolour,beta,,,39,19,V,R,
119,119,35,2,0,44,36,650,['n'],0,left,['9'],5,260,[-0.03967273],36,44,hard,minus,dotcolour,beta,,,39,19,V,R,
120,120,36,2,0,47,33,601,['n'],0,left,['0'],6,162,[-0.0369796],30,47,medium,minus,dotcolour,beta,,,39,19,V,R,
121,121,37,2,0,36,44,833,['n'],1,right,['9'],5,187,[-0.09247662],82,44,hard,minus,dotcolour,beta,,,39,19,V,R,
122,122,38,2,0,36,44,750,['n'],1,right,['8'],4,487,[-0.1594923],94,44,hard,minus,dotcolour,beta,,,39,19,V,R,
123,123,39,2,0,33,47,684,['c'],0,right,['1'],1,1153,[-0.01531203],23,47,medium,minus,dotcolour,beta,,,39,19,V,R,
124,124,40,2,0,27,53,533,['n'],1,right,['0'],6,119,[-0.06174311],58,53,easy,minus,dotcolour,beta,,,39,19,V,R,
125,125,41,2,0,53,27,550,['c'],1,left,['0'],6,125,[0.04836258],41,53,easy,minus,dotcolour,beta,,,39,19,V,R,
126,0,0,3,1,27,53,768,['n'],1,right,['0'],6,288,[-0.08606617],99,53,easy,plus,dotcolour,beta,,,39,19,V,R,
127,1,1,3,1,53,27,583,['c'],1,left,['0'],6,167,[0.10528279],100,53,easy,plus,dotcolour,beta,,,39,19,V,R,
128,2,2,3,1,36,44,666,['n'],1,right,['0'],6,126,[-0.13650097],100,44,hard,plus,dotcolour,beta,,,39,19,V,R,
129,3,3,3,1,36,44,517,['n'],1,right,['0'],6,206,[-0.00165101],91,44,hard,plus,dotcolour,beta,,,39,19,V,R,
130,4,4,3,1,53,27,683,['c'],1,left,['0'],6,139,[0.09704546],100,53,easy,plus,dotcolour,beta,,,39,19,V,R,
131,5,5,3,1,33,47,633,['n'],1,right,['0'],6,126,[-0.09991467],100,47,medium,plus,dotcolour,beta,,,39,19,V,R,
132,6,6,3,1,47,33,599,['c'],1,left,['0'],6,114,[0.0681074],100,47,medium,plus,dotcolour,beta,,,39,19,V,R,
133,7,7,3,1,44,36,683,['n'],0,left,['0'],6,163,[-0.02100139],97,44,hard,plus,dotcolour,beta,,,39,19,V,R,
134,8,8,3,1,53,27,467,['c'],1,left,['0'],6,220,[-0.02139908],79,53,easy,plus,dotcolour,beta,,,39,19,V,R,
135,9,9,3,1,47,33,550,['c'],1,left,['0'],6,166,[0.09391505],100,47,medium,plus,dotcolour,beta,,,39,19,V,R,
136,10,10,3,1,33,47,534,['c'],0,right,['0'],6,123,[0.04308626],99,47,medium,plus,dotcolour,beta,,,39,19,V,R,
137,11,11,3,1,44,36,983,['c'],1,left,['0'],6,320,[0.05088423],97,44,hard,plus,dotcolour,beta,,,39,19,V,R,
138,12,12,3,1,36,44,800,['n'],1,right,['9'],5,237,[-0.12654026],100,44,hard,plus,dotcolour,beta,,,39,19,V,R,
139,13,13,3,1,36,44,667,['n'],1,right,['9'],5,170,[-0.07374934],100,44,hard,plus,dotcolour,beta,,,39,19,V,R,
140,14,14,3,1,36,44,1000,['c'],0,right,['8'],4,229,[0.09660331],100,44,hard,plus,dotcolour,beta,,,39,19,V,R,
141,15,15,3,1,36,44,1833,['c'],0,right,['3'],3,491,[-0.0730072],39,44,hard,plus,dotcolour,beta,,,39,19,V,R,
142,16,16,3,1,44,36,850,['c'],1,left,['3'],3,1023,[0.01842372],79,44,hard,plus,dotcolour,beta,,,39,19,V,R,
143,17,17,3,1,27,53,699,['n'],1,right,['0'],6,132,[-0.0726877],100,53,easy,plus,dotcolour,beta,,,39,19,V,R,
144,18,18,3,1,27,53,499,['n'],1,right,['0'],6,180,[-0.17638717],100,53,easy,plus,dotcolour,beta,,,39,19,V,R,
145,19,19,3,1,53,27,584,['c'],1,left,['0'],6,158,[0.0999476],100,53,easy,plus,dotcolour,beta,,,39,19,V,R,
146,20,20,3,1,44,36,850,['c'],1,left,['9'],5,199,[0.11868066],100,44,hard,plus,dotcolour,beta,,,39,19,V,R,
147,21,21,3,1,27,53,583,['n'],1,right,['0'],6,144,[-0.08953298],100,53,easy,plus,dotcolour,beta,,,39,19,V,R,
148,22,22,3,1,27,53,516,['n'],1,right,['0'],6,143,[-0.04888025],99,53,easy,plus,dotcolour,beta,,,39,19,V,R,
149,23,23,3,1,47,33,584,['c'],1,left,['0'],6,195,[0.08253774],100,47,medium,plus,dotcolour,beta,,,39,19,V,R,
150,24,24,3,1,44,36,518,['c'],1,left,['0'],6,160,[0.10614464],100,44,hard,plus,dotcolour,beta,,,39,19,V,R,
151,25,25,3,1,53,27,533,['c'],1,left,['0'],6,157,[0.12080204],100,53,easy,plus,dotcolour,beta,,,39,19,V,R,
152,26,26,3,1,44,36,500,['c'],1,left,['9'],5,564,[0.0885774],97,44,hard,plus,dotcolour,beta,,,39,19,V,R,
153,27,27,3,1,33,47,550,['n'],1,right,['0'],6,177,[-0.08321546],100,47,medium,plus,dotcolour,beta,,,39,19,V,R,
154,28,28,3,1,33,47,668,['n'],1,right,['0'],6,168,[-0.09188426],100,47,medium,plus,dotcolour,beta,,,39,19,V,R,
155,29,29,3,1,53,27,584,['c'],1,left,['0'],6,227,[0.03736765],97,53,easy,plus,dotcolour,beta,,,39,19,V,R,
156,30,30,3,1,27,53,583,['n'],1,right,['0'],6,236,[-0.0253613],95,53,easy,plus,dotcolour,beta,,,39,19,V,R,
157,31,31,3,1,33,47,717,['n'],1,right,['0'],6,167,[-0.07334492],100,47,medium,plus,dotcolour,beta,,,39,19,V,R,
158,32,32,3,1,47,33,483,['c'],1,left,['9'],5,375,[0.14803178],100,47,medium,plus,dotcolour,beta,,,39,19,V,R,
159,33,33,3,1,33,47,934,['c'],0,right,['8'],4,427,[-0.01844494],74,47,medium,plus,dotcolour,beta,,,39,19,V,R,
160,34,34,3,1,27,53,650,['n'],1,right,['0'],6,346,[-0.18992476],100,53,easy,plus,dotcolour,beta,,,39,19,V,R,
161,35,35,3,1,47,33,700,['c'],1,left,['0'],6,113,[0.0783757],100,47,medium,plus,dotcolour,beta,,,39,19,V,R,
162,36,36,3,1,47,33,567,['c'],1,left,['0'],6,135,[0.0870445],100,47,medium,plus,dotcolour,beta,,,39,19,V,R,
163,37,37,3,1,53,27,467,['c'],1,left,['0'],6,288,[0.10317268],100,53,easy,plus,dotcolour,beta,,,39,19,V,R,
164,38,38,3,1,47,33,417,['c'],1,left,['8'],4,645,[0.1730428],99,47,medium,plus,dotcolour,beta,,,39,19,V,R,
165,39,39,3,1,33,47,616,['n'],1,right,['8'],4,619,[-0.08345049],96,47,medium,plus,dotcolour,beta,,,39,19,V,R,
166,40,40,3,1,36,44,717,['n'],1,right,['9'],5,263,[-0.05319538],98,44,hard,plus,dotcolour,beta,,,39,19,V,R,
167,41,41,3,1,44,36,1334,['c'],1,left,['0'],6,441,[0.10929949],99,44,hard,plus,dotcolour,beta,,,39,19,V,R,
168,42,0,4,1,44,36,685,['n'],0,left,['0'],6,166,[-0.16501501],100,44,hard,plus,dotcolour,beta,,,39,19,V,R,
169,43,1,4,1,33,47,683,['n'],1,right,['0'],6,645,[-0.08351595],96,47,medium,plus,dotcolour,beta,,,39,19,V,R,
170,44,2,4,1,27,53,700,['n'],1,right,['0'],6,193,[-0.1727381],100,53,easy,plus,dotcolour,beta,,,39,19,V,R,
171,45,3,4,1,47,33,500,['c'],1,left,['3'],3,894,[0.03886629],86,47,medium,plus,dotcolour,beta,,,39,19,V,R,
172,46,4,4,1,44,36,668,['c'],1,left,['0'],6,224,[0.11157461],100,44,hard,plus,dotcolour,beta,,,39,19,V,R,
173,47,5,4,1,27,53,616,['n'],1,right,['0'],6,176,[-0.15246092],100,53,easy,plus,dotcolour,beta,,,39,19,V,R,
174,48,6,4,1,53,27,616,['n'],0,left,['1'],1,1066,[0.19047742],9,53,easy,plus,dotcolour,beta,,,39,19,V,R,
175,49,7,4,1,44,36,717,['c'],1,left,['0'],6,187,[0.05172769],99,44,hard,plus,dotcolour,beta,,,39,19,V,R,
176,50,8,4,1,36,44,749,['n'],1,right,['0'],6,136,[-0.12007425],100,44,hard,plus,dotcolour,beta,,,39,19,V,R,
177,51,9,4,1,36,44,1250,['n'],1,right,['8'],4,889,[-0.05963709],90,44,hard,plus,dotcolour,beta,,,39,19,V,R,
178,52,10,4,1,47,33,767,['c'],1,left,['8'],4,281,[0.06738176],98,47,medium,plus,dotcolour,beta,,,39,19,V,R,
179,53,11,4,1,36,44,634,['n'],1,right,['0'],6,133,[-0.03778489],99,44,hard,plus,dotcolour,beta,,,39,19,V,R,
180,54,12,4,1,47,33,667,['c'],1,left,['0'],6,134,[0.07274692],100,47,medium,plus,dotcolour,beta,,,39,19,V,R,
181,55,13,4,1,36,44,617,['n'],1,right,['0'],6,418,[-0.07644634],98,44,hard,plus,dotcolour,beta,,,39,19,V,R,
182,56,14,4,1,33,47,683,['n'],1,right,['0'],6,134,[-0.12594235],100,47,medium,plus,dotcolour,beta,,,39,19,V,R,
183,57,15,4,1,44,36,617,['c'],1,left,['0'],6,138,[0.09455496],100,44,hard,plus,dotcolour,beta,,,39,19,V,R,
184,58,16,4,1,36,44,617,['n'],1,right,['0'],6,126,[-0.01275724],97,44,hard,plus,dotcolour,beta,,,39,19,V,R,
185,59,17,4,1,27,53,516,['n'],1,right,['0'],6,181,[-0.07338153],100,53,easy,plus,dotcolour,beta,,,39,19,V,R,
186,60,18,4,1,53,27,516,['c'],1,left,['0'],6,130,[0.07856977],100,53,easy,plus,dotcolour,beta,,,39,19,V,R,
187,61,19,4,1,47,33,567,['c'],1,left,['0'],6,135,[0.12564387],100,47,medium,plus,dotcolour,beta,,,39,19,V,R,
188,62,20,4,1,53,27,500,['c'],1,left,['9'],5,536,[0.13671627],99,53,easy,plus,dotcolour,beta,,,39,19,V,R,
189,63,21,4,1,27,53,434,['n'],1,right,['0'],6,210,[-0.12363096],100,53,easy,plus,dotcolour,beta,,,39,19,V,R,
190,64,22,4,1,36,44,867,['n'],1,right,['9'],5,208,[-0.09689097],100,44,hard,plus,dotcolour,beta,,,39,19,V,R,
191,65,23,4,1,53,27,517,['c'],1,left,['0'],6,132,[0.15646266],100,53,easy,plus,dotcolour,beta,,,39,19,V,R,
192,66,24,4,1,53,27,450,['c'],1,left,['0'],6,150,[0.10013637],100,53,easy,plus,dotcolour,beta,,,39,19,V,R,
193,67,25,4,1,33,47,450,['c'],0,right,['9'],5,607,[-0.09975458],26,47,medium,plus,dotcolour,beta,,,39,19,V,R,
194,68,26,4,1,44,36,1217,['n'],0,left,['0'],6,360,[-0.07025451],98,44,hard,plus,dotcolour,beta,,,39,19,V,R,
195,69,27,4,1,44,36,951,['c'],1,left,['8'],4,532,[0.12762209],99,44,hard,plus,dotcolour,beta,,,39,19,V,R,
196,70,28,4,1,36,44,650,['n'],1,right,['0'],6,150,[-0.01177999],96,44,hard,plus,dotcolour,beta,,,39,19,V,R,
197,71,29,4,1,33,47,467,['n'],1,right,['0'],6,143,[-0.06352197],100,47,medium,plus,dotcolour,beta,,,39,19,V,R,
198,72,30,4,1,33,47,467,['n'],1,right,['0'],6,152,[-0.09896664],100,47,medium,plus,dotcolour,beta,,,39,19,V,R,
199,73,31,4,1,47,33,601,['c'],1,left,['0'],6,123,[0.09892053],100,47,medium,plus,dotcolour,beta,,,39,19,V,R,
200,74,32,4,1,27,53,616,['n'],1,right,['0'],6,183,[-0.07373517],100,53,easy,plus,dotcolour,beta,,,39,19,V,R,
201,75,33,4,1,33,47,1051,['n'],1,right,['0'],6,126,[-0.05965405],100,47,medium,plus,dotcolour,beta,,,39,19,V,R,
202,76,34,4,1,53,27,533,['c'],1,left,['0'],6,149,[0.13889053],100,53,easy,plus,dotcolour,beta,,,39,19,V,R,
203,77,35,4,1,33,47,650,['n'],1,right,['0'],6,190,[-0.12922307],100,47,medium,plus,dotcolour,beta,,,39,19,V,R,
204,78,36,4,1,53,27,500,['c'],1,left,['0'],6,124,[0.10903326],100,53,easy,plus,dotcolour,beta,,,39,19,V,R,
205,79,37,4,1,47,33,951,['c'],1,left,['8'],4,442,[0.1868896],100,47,medium,plus,dotcolour,beta,,,39,19,V,R,
206,80,38,4,1,44,36,1016,['c'],1,left,['0'],6,145,[0.12838469],100,44,hard,plus,dotcolour,beta,,,39,19,V,R,
207,81,39,4,1,47,33,1068,['c'],1,left,['9'],5,329,[0.05368823],97,47,medium,plus,dotcolour,beta,,,39,19,V,R,
208,82,40,4,1,27,53,600,['n'],1,right,['0'],6,141,[-0.15322057],100,53,easy,plus,dotcolour,beta,,,39,19,V,R,
209,83,41,4,1,27,53,550,['n'],1,right,['0'],6,74,[-0.10090315],100,53,easy,plus,dotcolour,beta,,,39,19,V,R,
210,84,0,5,1,47,33,1117,['c'],1,left,['0'],6,167,[0.07794762],100,47,medium,plus,dotcolour,beta,,,39,19,V,R,
211,85,1,5,1,33,47,467,['n'],1,right,['0'],6,112,[-0.09126523],100,47,medium,plus,dotcolour,beta,,,39,19,V,R,
212,86,2,5,1,27,53,550,['n'],1,right,['0'],6,102,[-0.0540113],100,53,easy,plus,dotcolour,beta,,,39,19,V,R,
213,87,3,5,1,27,53,399,['n'],1,right,['0'],6,171,[-0.11225563],100,53,easy,plus,dotcolour,beta,,,39,19,V,R,
214,88,4,5,1,53,27,700,['c'],1,left,['0'],6,257,[0.03245739],96,53,easy,plus,dotcolour,beta,,,39,19,V,R,
215,89,5,5,1,33,47,467,['n'],1,right,['0'],6,206,[-0.0632131],99,47,medium,plus,dotcolour,beta,,,39,19,V,R,
216,90,6,5,1,44,36,1383,['c'],1,left,['8'],4,536,[0.15368692],99,44,hard,plus,dotcolour,beta,,,39,19,V,R,
217,91,7,5,1,36,44,1100,['n'],1,right,['8'],4,432,[-0.0442541],94,44,hard,plus,dotcolour,beta,,,39,19,V,R,
218,92,8,5,1,36,44,1117,['n'],1,right,['3'],3,611,[-0.03997397],90,44,hard,plus,dotcolour,beta,,,39,19,V,R,
219,93,9,5,1,33,47,634,['n'],1,right,['9'],5,306,[-0.0413739],96,47,medium,plus,dotcolour,beta,,,39,19,V,R,
220,94,10,5,1,47,33,783,['c'],1,left,['0'],6,120,[0.14370899],100,47,medium,plus,dotcolour,beta,,,39,19,V,R,
221,95,11,5,1,36,44,868,['n'],1,right,['9'],5,226,[-0.11098262],100,44,hard,plus,dotcolour,beta,,,39,19,V,R,
222,96,12,5,1,44,36,817,['c'],1,left,['9'],5,233,[0.03728481],97,44,hard,plus,dotcolour,beta,,,39,19,V,R,
223,97,13,5,1,53,27,667,['c'],1,left,['9'],5,214,[0.12733715],100,53,easy,plus,dotcolour,beta,,,39,19,V,R,
224,98,14,5,1,47,33,701,['c'],1,left,['0'],6,107,[0.05183721],100,47,medium,plus,dotcolour,beta,,,39,19,V,R,
225,99,15,5,1,33,47,433,['n'],1,right,['0'],6,174,[-0.02599587],97,47,medium,plus,dotcolour,beta,,,39,19,V,R,
226,100,16,5,1,44,36,717,['c'],1,left,['0'],6,124,[0.09497243],100,44,hard,plus,dotcolour,beta,,,39,19,V,R,
227,101,17,5,1,47,33,833,['c'],1,left,['3'],3,655,[0.14797253],99,47,medium,plus,dotcolour,beta,,,39,19,V,R,
228,102,18,5,1,33,47,1600,['n'],1,right,['8'],4,317,[-0.16777591],100,47,medium,plus,dotcolour,beta,,,39,19,V,R,
229,103,19,5,1,27,53,683,['n'],1,right,['0'],6,111,[-0.11268019],100,53,easy,plus,dotcolour,beta,,,39,19,V,R,
230,104,20,5,1,27,53,784,['n'],1,right,['0'],6,132,[-0.07011153],100,53,easy,plus,dotcolour,beta,,,39,19,V,R,
231,105,21,5,1,36,44,934,['c'],0,right,['0'],6,99,[0.07583637],100,44,hard,plus,dotcolour,beta,,,39,19,V,R,
232,106,22,5,1,53,27,700,['c'],1,left,['0'],6,148,[0.0454394],99,53,easy,plus,dotcolour,beta,,,39,19,V,R,
233,107,23,5,1,27,53,584,['n'],1,right,['0'],6,137,[-0.14031254],100,53,easy,plus,dotcolour,beta,,,39,19,V,R,
234,108,24,5,1,47,33,684,['c'],1,left,['0'],6,113,[0.0474023],100,47,medium,plus,dotcolour,beta,,,39,19,V,R,
235,109,25,5,1,53,27,517,['c'],1,left,['0'],6,113,[0.15257736],100,53,easy,plus,dotcolour,beta,,,39,19,V,R,
236,110,26,5,1,44,36,550,['c'],1,left,['0'],6,127,[0.08196113],100,44,hard,plus,dotcolour,beta,,,39,19,V,R,
237,111,27,5,1,44,36,967,['c'],1,left,['9'],5,189,[0.1007742],100,44,hard,plus,dotcolour,beta,,,39,19,V,R,
238,112,28,5,1,53,27,501,['c'],1,left,['0'],6,106,[0.0794331],100,53,easy,plus,dotcolour,beta,,,39,19,V,R,
239,113,29,5,1,33,47,651,['n'],1,right,['0'],6,166,[-0.10758233],100,47,medium,plus,dotcolour,beta,,,39,19,V,R,
240,114,30,5,1,33,47,700,['n'],1,right,['0'],6,156,[-0.13540144],100,47,medium,plus,dotcolour,beta,,,39,19,V,R,
241,115,31,5,1,53,27,617,['c'],1,left,['0'],6,118,[0.06759948],100,53,easy,plus,dotcolour,beta,,,39,19,V,R,
242,116,32,5,1,47,33,533,['c'],1,left,['0'],6,110,[0.06611968],100,47,medium,plus,dotcolour,beta,,,39,19,V,R,
243,117,33,5,1,36,44,800,['n'],1,right,['0'],6,106,[-0.10603968],100,44,hard,plus,dotcolour,beta,,,39,19,V,R,
244,118,34,5,1,36,44,617,['c'],0,right,['0'],6,118,[0.07232862],100,44,hard,plus,dotcolour,beta,,,39,19,V,R,
245,119,35,5,1,27,53,483,['n'],1,right,['0'],6,159,[-0.12480306],100,53,easy,plus,dotcolour,beta,,,39,19,V,R,
246,120,36,5,1,44,36,617,['c'],1,left,['0'],6,106,[0.0410169],100,44,hard,plus,dotcolour,beta,,,39,19,V,R,
247,121,37,5,1,53,27,534,['c'],1,left,['0'],6,106,[0.09342973],100,53,easy,plus,dotcolour,beta,,,39,19,V,R,
248,122,38,5,1,36,44,651,['n'],1,right,['0'],6,142,[-0.05756681],100,44,hard,plus,dotcolour,beta,,,39,19,V,R,
249,123,39,5,1,27,53,516,['n'],1,right,['0'],6,228,[-0.07352648],99,53,easy,plus,dotcolour,beta,,,39,19,V,R,
250,124,40,5,1,47,33,467,['c'],1,left,['0'],6,121,[0.04900781],100,47,medium,plus,dotcolour,beta,,,39,19,V,R,
251,125,41,5,1,44,36,1134,['n'],0,left,['9'],5,168,[-0.0292106],98,44,hard,plus,dotcolour,beta,,,39,19,V,R,
252,0,0,6,2,36,44,851,['n'],1,right,['9'],5,165,[-0.10012296],88,44,hard,minus,dotcolour,beta,,,39,19,V,R,
253,1,1,6,2,53,27,450,['c'],1,left,['8'],4,582,[0.18587795],96,53,easy,minus,dotcolour,beta,,,39,19,V,R,
254,2,2,6,2,44,36,967,['n'],0,left,['9'],5,586,[-0.06575423],56,44,hard,minus,dotcolour,beta,,,39,19,V,R,
255,3,3,6,2,44,36,518,['c'],1,left,['9'],5,271,[0.05971082],54,44,hard,minus,dotcolour,beta,,,39,19,V,R,
256,4,4,6,2,44,36,851,['c'],1,left,['8'],4,300,[0.02996462],30,44,hard,minus,dotcolour,beta,,,39,19,V,R,
257,5,5,6,2,27,53,550,['n'],1,right,['0'],6,195,[-0.10716268],89,53,easy,minus,dotcolour,beta,,,39,19,V,R,
258,6,6,6,2,27,53,449,['n'],1,right,['0'],6,170,[-0.09408971],84,53,easy,minus,dotcolour,beta,,,39,19,V,R,
259,7,7,6,2,47,33,717,['c'],1,left,['0'],6,104,[0.1130439],96,47,medium,minus,dotcolour,beta,,,39,19,V,R,
260,8,8,6,2,36,44,517,['n'],1,right,['0'],6,161,[-0.05863717],53,44,hard,minus,dotcolour,beta,,,39,19,V,R,
261,9,9,6,2,53,27,533,['c'],1,left,['0'],6,102,[0.07631415],76,53,easy,minus,dotcolour,beta,,,39,19,V,R,
262,10,10,6,2,53,27,517,['c'],1,left,['0'],6,96,[0.16894809],100,53,easy,minus,dotcolour,beta,,,39,19,V,R,
263,11,11,6,2,33,47,566,['n'],1,right,['0'],6,198,[-0.0081413],13,47,medium,minus,dotcolour,beta,,,39,19,V,R,
264,12,12,6,2,33,47,1317,['c'],0,right,['9'],5,98,[0.040233],29,47,medium,minus,dotcolour,beta,,,39,19,V,R,
265,13,13,6,2,27,53,600,['n'],1,right,['0'],6,144,[-0.17075819],100,53,easy,minus,dotcolour,beta,,,39,19,V,R,
266,14,14,6,2,47,33,734,['c'],1,left,['0'],6,174,[0.07812186],73,47,medium,minus,dotcolour,beta,,,39,19,V,R,
267,15,15,6,2,47,33,750,['c'],1,left,['0'],6,114,[0.12786579],98,47,medium,minus,dotcolour,beta,,,39,19,V,R,
268,16,16,6,2,53,27,600,['c'],1,left,['0'],6,119,[0.06879445],67,53,easy,minus,dotcolour,beta,,,39,19,V,R,
269,17,17,6,2,33,47,567,['n'],1,right,['0'],6,196,[0.0260202],4,47,medium,minus,dotcolour,beta,,,39,19,V,R,
270,18,18,6,2,44,36,684,['n'],0,left,['9'],5,418,[0.04339477],6,44,hard,minus,dotcolour,beta,,,39,19,V,R,
271,19,19,6,2,33,47,1100,['n'],1,right,['9'],5,191,[-0.10419282],88,47,medium,minus,dotcolour,beta,,,39,19,V,R,
272,20,20,6,2,36,44,867,['c'],0,right,['0'],6,102,[0.10198807],93,44,hard,minus,dotcolour,beta,,,39,19,V,R,
273,21,21,6,2,33,47,1000,['n'],1,right,['0'],6,91,[-0.06848335],68,47,medium,minus,dotcolour,beta,,,39,19,V,R,
274,22,22,6,2,27,53,533,['n'],1,right,['0'],6,155,[-0.1173328],94,53,easy,minus,dotcolour,beta,,,39,19,V,R,
275,23,23,6,2,53,27,500,['c'],1,left,['0'],6,115,[0.04905259],41,53,easy,minus,dotcolour,beta,,,39,19,V,R,
276,24,24,6,2,33,47,483,['c'],0,right,['0'],6,116,[0.06656833],64,47,medium,minus,dotcolour,beta,,,39,19,V,R,
277,25,25,6,2,27,53,450,['c'],0,right,['0'],6,126,[0.07484746],73,53,easy,minus,dotcolour,beta,,,39,19,V,R,
278,26,26,6,2,53,27,500,['c'],1,left,['0'],6,111,[0.09948471],91,53,easy,minus,dotcolour,beta,,,39,19,V,R,
279,27,27,6,2,44,36,717,['n'],0,left,['0'],6,103,[-0.06321265],61,44,hard,minus,dotcolour,beta,,,39,19,V,R,
280,28,28,6,2,33,47,550,['n'],1,right,['0'],6,198,[-0.13608287],96,47,medium,minus,dotcolour,beta,,,39,19,V,R,
281,29,29,6,2,27,53,600,['n'],1,right,['0'],6,231,[-0.01300486],17,53,easy,minus,dotcolour,beta,,,39,19,V,R,
282,30,30,6,2,44,36,932,['n'],0,left,['9'],5,178,[-0.13116641],96,44,hard,minus,dotcolour,beta,,,39,19,V,R,
283,31,31,6,2,47,33,650,['c'],1,left,['0'],6,306,[0.15449314],96,47,medium,minus,dotcolour,beta,,,39,19,V,R,
284,32,32,6,2,36,44,584,['n'],1,right,['0'],6,111,[-0.06737519],65,44,hard,minus,dotcolour,beta,,,39,19,V,R,
285,33,33,6,2,47,33,566,['c'],1,left,['0'],6,117,[0.05842436],54,47,medium,minus,dotcolour,beta,,,39,19,V,R,
286,34,34,6,2,27,53,483,['n'],1,right,['0'],6,111,[-0.09956792],92,53,easy,minus,dotcolour,beta,,,39,19,V,R,
287,35,35,6,2,36,44,584,['n'],1,right,['0'],6,132,[-0.04178024],34,44,hard,minus,dotcolour,beta,,,39,19,V,R,
288,36,36,6,2,36,44,533,['c'],0,right,['1'],1,1155,[-0.06437129],12,44,hard,minus,dotcolour,beta,,,39,19,V,R,
289,37,37,6,2,53,27,717,['c'],1,left,['0'],6,825,[0.21356302],96,53,easy,minus,dotcolour,beta,,,39,19,V,R,
290,38,38,6,2,47,33,1050,['c'],1,left,['9'],5,367,[0.08463116],70,47,medium,minus,dotcolour,beta,,,39,19,V,R,
291,39,39,6,2,44,36,667,['c'],1,left,['0'],6,87,[0.05189428],44,44,hard,minus,dotcolour,beta,,,39,19,V,R,
292,40,40,6,2,36,44,550,['n'],1,right,['0'],6,119,[-0.08541506],83,44,hard,minus,dotcolour,beta,,,39,19,V,R,
293,41,41,6,2,47,33,716,['c'],1,left,['0'],6,151,[0.10684371],91,47,medium,minus,dotcolour,beta,,,39,19,V,R,
294,42,0,7,2,33,47,767,['n'],1,right,['0'],6,455,[-0.16639587],95,47,medium,minus,dotcolour,beta,,,39,19,V,R,
295,43,1,7,2,47,33,800,['c'],1,left,['9'],5,174,[0.1808059],100,47,medium,minus,dotcolour,beta,,,39,19,V,R,
296,44,2,7,2,36,44,783,['c'],0,right,['1'],1,1016,[0.15310186],85,44,hard,minus,dotcolour,beta,,,39,19,V,R,
297,45,3,7,2,47,33,934,['c'],1,left,['0'],6,107,[0.14077481],99,47,medium,minus,dotcolour,beta,,,39,19,V,R,
298,46,4,7,2,36,44,851,['n'],1,right,['9'],5,678,[-0.05804461],51,44,hard,minus,dotcolour,beta,,,39,19,V,R,
299,47,5,7,2,33,47,716,['n'],1,right,['2'],2,847,[-0.16470099],89,47,medium,minus,dotcolour,beta,,,39,19,V,R,
300,48,6,7,2,53,27,817,['c'],1,left,['0'],6,142,[0.0179255],14,53,easy,minus,dotcolour,beta,,,39,19,V,R,
301,49,7,7,2,44,36,799,['c'],1,left,['9'],5,121,[0.04938012],42,44,hard,minus,dotcolour,beta,,,39,19,V,R,
302,50,8,7,2,27,53,766,['n'],1,right,['0'],6,135,[-0.14807297],99,53,easy,minus,dotcolour,beta,,,39,19,V,R,
303,51,9,7,2,44,36,600,['c'],1,left,['0'],6,107,[0.074326],74,44,hard,minus,dotcolour,beta,,,39,19,V,R,
304,52,10,7,2,36,44,784,['n'],1,right,['9'],5,344,[-0.07650367],66,44,hard,minus,dotcolour,beta,,,39,19,V,R,
305,53,11,7,2,44,36,716,['c'],1,left,['3'],3,1303,[-0.12367923],6,44,hard,minus,dotcolour,beta,,,39,19,V,R,
306,54,12,7,2,27,53,617,['n'],1,right,['0'],6,147,[-0.12366043],96,53,easy,minus,dotcolour,beta,,,39,19,V,R,
307,55,13,7,2,47,33,533,['c'],1,left,['0'],6,105,[0.02416381],15,47,medium,minus,dotcolour,beta,,,39,19,V,R,
308,56,14,7,2,53,27,533,['c'],1,left,['0'],6,105,[0.08193516],81,53,easy,minus,dotcolour,beta,,,39,19,V,R,
309,57,15,7,2,27,53,583,['c'],0,right,['0'],6,159,[0.07413486],70,53,easy,minus,dotcolour,beta,,,39,19,V,R,
310,58,16,7,2,36,44,916,['n'],1,right,['0'],6,150,[-0.17266493],100,44,hard,minus,dotcolour,beta,,,39,19,V,R,
311,59,17,7,2,33,47,483,['n'],1,right,['0'],6,125,[-0.09112194],86,47,medium,minus,dotcolour,beta,,,39,19,V,R,
312,60,18,7,2,47,33,651,['c'],1,left,['0'],6,87,[0.14629131],100,47,medium,minus,dotcolour,beta,,,39,19,V,R,
313,61,19,7,2,33,47,418,['n'],1,right,['0'],6,117,[-0.0623213],59,47,medium,minus,dotcolour,beta,,,39,19,V,R,
314,62,20,7,2,27,53,484,['n'],1,right,['0'],6,119,[-0.06269982],59,53,easy,minus,dotcolour,beta,,,39,19,V,R,
315,63,21,7,2,44,36,700,['c'],1,left,['0'],6,87,[0.12038514],98,44,hard,minus,dotcolour,beta,,,39,19,V,R,
316,64,22,7,2,44,36,584,['n'],0,left,['0'],6,110,[-0.06423942],62,44,hard,minus,dotcolour,beta,,,39,19,V,R,
317,65,23,7,2,53,27,584,['c'],1,left,['0'],6,171,[0.07353586],69,53,easy,minus,dotcolour,beta,,,39,19,V,R,
318,66,24,7,2,53,27,1001,['c'],1,left,['0'],6,133,[0.12468246],97,53,easy,minus,dotcolour,beta,,,39,19,V,R,
319,67,25,7,2,27,53,618,['n'],1,right,['0'],6,81,[-0.08894808],89,53,easy,minus,dotcolour,beta,,,39,19,V,R,
320,68,26,7,2,36,44,1003,['n'],1,right,['9'],5,216,[-0.00632933],13,44,hard,minus,dotcolour,beta,,,39,19,V,R,
321,69,27,7,2,27,53,733,['n'],1,right,['0'],6,138,[-0.08157635],78,53,easy,minus,dotcolour,beta,,,39,19,V,R,
322,70,28,7,2,47,33,566,['c'],1,left,['0'],6,136,[0.13223909],98,47,medium,minus,dotcolour,beta,,,39,19,V,R,
323,71,29,7,2,36,44,767,['n'],1,right,['8'],4,1077,[0.11353517],5,44,hard,minus,dotcolour,beta,,,39,19,V,R,
324,72,30,7,2,33,47,550,['n'],1,right,['0'],6,213,[-0.05725734],52,47,medium,minus,dotcolour,beta,,,39,19,V,R,
325,73,31,7,2,53,27,616,['c'],1,left,['0'],6,117,[0.13338071],98,53,easy,minus,dotcolour,beta,,,39,19,V,R,
326,74,32,7,2,53,27,566,['c'],1,left,['0'],6,99,[0.08205717],82,53,easy,minus,dotcolour,beta,,,39,19,V,R,
327,75,33,7,2,33,47,751,['n'],1,right,['0'],6,139,[-0.078779],75,47,medium,minus,dotcolour,beta,,,39,19,V,R,
328,76,34,7,2,44,36,551,['c'],1,left,['2'],2,1073,[0.10333642],70,44,hard,minus,dotcolour,beta,,,39,19,V,R,
329,77,35,7,2,47,33,767,['c'],1,left,['0'],6,80,[0.08669749],88,47,medium,minus,dotcolour,beta,,,39,19,V,R,
330,78,36,7,2,47,33,517,['c'],1,left,['0'],6,129,[0.11137334],94,47,medium,minus,dotcolour,beta,,,39,19,V,R,
331,79,37,7,2,36,44,900,['n'],1,right,['9'],5,265,[-0.03286728],31,44,hard,minus,dotcolour,beta,,,39,19,V,R,
332,80,38,7,2,44,36,1350,['c'],1,left,['8'],4,842,[0.21899391],96,44,hard,minus,dotcolour,beta,,,39,19,V,R,
333,81,39,7,2,27,53,649,['n'],1,right,['9'],5,167,[-0.17645585],100,53,easy,minus,dotcolour,beta,,,39,19,V,R,
334,82,40,7,2,33,47,600,['n'],1,right,['0'],6,98,[-0.10956496],96,47,medium,minus,dotcolour,beta,,,39,19,V,R,
335,83,41,7,2,53,27,516,['c'],1,left,['0'],6,139,[0.04055311],33,53,easy,minus,dotcolour,beta,,,39,19,V,R,
336,84,0,8,2,44,36,1017,['c'],1,left,['9'],5,173,[0.06704323],62,44,hard,minus,dotcolour,beta,,,39,19,V,R,
337,85,1,8,2,47,33,816,['c'],1,left,['0'],6,198,[0.0929699],82,47,medium,minus,dotcolour,beta,,,39,19,V,R,
338,86,2,8,2,44,36,1767,['c'],1,left,['0'],6,121,[0.08296514],81,44,hard,minus,dotcolour,beta,,,39,19,V,R,
339,87,3,8,2,53,27,550,['c'],1,left,['0'],6,88,[0.09322569],91,53,easy,minus,dotcolour,beta,,,39,19,V,R,
340,88,4,8,2,33,47,500,['n'],1,right,['0'],6,114,[-0.0560116],51,47,medium,minus,dotcolour,beta,,,39,19,V,R,
341,89,5,8,2,27,53,465,['n'],1,right,['0'],6,60,[-0.05516008],49,53,easy,minus,dotcolour,beta,,,39,19,V,R,
342,90,6,8,2,44,36,700,['c'],1,left,['0'],6,118,[0.03549368],26,44,hard,minus,dotcolour,beta,,,39,19,V,R,
343,91,7,8,2,44,36,567,['c'],1,left,['0'],6,140,[0.13260625],98,44,hard,minus,dotcolour,beta,,,39,19,V,R,
344,92,8,8,2,53,27,600,['c'],1,left,['0'],6,96,[0.0818377],82,53,easy,minus,dotcolour,beta,,,39,19,V,R,
345,93,9,8,2,27,53,450,['n'],1,right,['0'],6,68,[-0.07768308],82,53,easy,minus,dotcolour,beta,,,39,19,V,R,
346,94,10,8,2,47,33,817,['c'],1,left,['8'],4,393,[0.11156121],83,47,medium,minus,dotcolour,beta,,,39,19,V,R,
347,95,11,8,2,53,27,667,['c'],1,left,['0'],6,184,[0.05375227],48,53,easy,minus,dotcolour,beta,,,39,19,V,R,
348,96,12,8,2,47,33,1700,['c'],1,left,['9'],5,302,[0.07930179],69,47,medium,minus,dotcolour,beta,,,39,19,V,R,
349,97,13,8,2,36,44,1549,['n'],1,right,['8'],4,765,[-0.17952515],93,44,hard,minus,dotcolour,beta,,,39,19,V,R,
350,98,14,8,2,27,53,667,['n'],1,right,['0'],6,21,[-0.10525082],100,53,easy,minus,dotcolour,beta,,,39,19,V,R,
351,99,15,8,2,33,47,1583,['n'],1,right,['0'],6,79,[-0.06321621],62,47,medium,minus,dotcolour,beta,,,39,19,V,R,
352,100,16,8,2,53,27,633,['c'],1,left,['0'],6,123,[0.17536358],100,53,easy,minus,dotcolour,beta,,,39,19,V,R,
353,101,17,8,2,27,53,584,['n'],1,right,['0'],6,16,[-0.0640122],77,53,easy,minus,dotcolour,beta,,,39,19,V,R,
354,102,18,8,2,36,44,517,['n'],1,right,['0'],6,76,[-0.06722008],68,44,hard,minus,dotcolour,beta,,,39,19,V,R,
355,103,19,8,2,36,44,467,['n'],1,right,['0'],6,47,[-0.08044467],89,44,hard,minus,dotcolour,beta,,,39,19,V,R,
356,104,20,8,2,33,47,567,['c'],0,right,['1'],1,1008,[0.06193933],53,47,medium,minus,dotcolour,beta,,,39,19,V,R,
357,105,21,8,2,27,53,533,['n'],1,right,['0'],6,196,[-0.09108496],81,53,easy,minus,dotcolour,beta,,,39,19,V,R,
358,106,22,8,2,33,47,550,['n'],1,right,['0'],6,231,[-0.15699752],98,47,medium,minus,dotcolour,beta,,,39,19,V,R,
359,107,23,8,2,33,47,567,['n'],1,right,['0'],6,200,[-0.03528966],31,47,medium,minus,dotcolour,beta,,,39,19,V,R,
360,108,24,8,2,53,27,484,['c'],1,left,['0'],6,198,[0.19600783],100,53,easy,minus,dotcolour,beta,,,39,19,V,R,
361,109,25,8,2,44,36,900,['n'],0,left,['9'],5,252,[-0.03960104],36,44,hard,minus,dotcolour,beta,,,39,19,V,R,
362,110,26,8,2,47,33,767,['c'],1,left,['0'],6,156,[0.10331164],90,47,medium,minus,dotcolour,beta,,,39,19,V,R,
363,111,27,8,2,36,44,967,['n'],1,right,['8'],4,424,[-0.04839082],45,44,hard,minus,dotcolour,beta,,,39,19,V,R,
364,112,28,8,2,36,44,667,['n'],1,right,['9'],5,309,[-0.18245182],98,44,hard,minus,dotcolour,beta,,,39,19,V,R,
365,113,29,8,2,53,27,516,['c'],1,left,['0'],6,150,[0.04799043],41,53,easy,minus,dotcolour,beta,,,39,19,V,R,
366,114,30,8,2,33,47,550,['n'],1,right,['0'],6,123,[-0.15941524],100,47,medium,minus,dotcolour,beta,,,39,19,V,R,
367,115,31,8,2,33,47,600,['n'],1,right,['0'],6,119,[-0.11412205],96,47,medium,minus,dotcolour,beta,,,39,19,V,R,
368,116,32,8,2,36,44,1767,['c'],0,right,['3'],3,365,[0.05150547],47,44,hard,minus,dotcolour,beta,,,39,19,V,R,
369,117,33,8,2,47,33,817,['c'],1,left,['9'],5,344,[0.15284175],95,47,medium,minus,dotcolour,beta,,,39,19,V,R,
370,118,34,8,2,47,33,817,['c'],1,left,['9'],5,210,[0.07578647],69,47,medium,minus,dotcolour,beta,,,39,19,V,R,
371,119,35,8,2,27,53,567,['n'],1,right,['0'],6,236,[-0.08080021],72,53,easy,minus,dotcolour,beta,,,39,19,V,R,
372,120,36,8,2,44,36,1083,['c'],1,left,['9'],5,664,[0.10125785],73,44,hard,minus,dotcolour,beta,,,39,19,V,R,
373,121,37,8,2,27,53,600,['n'],1,right,['0'],6,112,[-0.1358194],99,53,easy,minus,dotcolour,beta,,,39,19,V,R,
374,122,38,8,2,53,27,667,['c'],1,left,['0'],6,129,[0.07936144],77,53,easy,minus,dotcolour,beta,,,39,19,V,R,
375,123,39,8,2,47,33,783,['n'],0,left,['8'],4,1222,[0.12054938],5,47,medium,minus,dotcolour,beta,,,39,19,V,R,
376,124,40,8,2,44,36,1583,['n'],0,left,['8'],4,623,[0.04363424],9,44,hard,minus,dotcolour,beta,,,39,19,V,R,
377,125,41,8,2,36,44,784,['n'],1,right,['9'],5,295,[0.00326191],12,44,hard,minus,dotcolour,beta,,,39,19,V,R,
378,0,0,9,3,27,53,1518,['n'],1,right,['0'],6,132,[-0.0716856],100,53,easy,plus,dotcolour,beta,,,39,19,V,R,
379,1,1,9,3,36,44,1183,['n'],1,right,['9'],5,145,[-0.08097062],100,44,hard,plus,dotcolour,beta,,,39,19,V,R,
380,2,2,9,3,44,36,734,['n'],0,left,['9'],5,126,[-0.04032397],99,44,hard,plus,dotcolour,beta,,,39,19,V,R,
381,3,3,9,3,33,47,683,['n'],1,right,['9'],5,111,[-0.0823678],100,47,medium,plus,dotcolour,beta,,,39,19,V,R,
382,4,4,9,3,44,36,784,['c'],1,left,['8'],4,205,[0.05859612],99,44,hard,plus,dotcolour,beta,,,39,19,V,R,
383,5,5,9,3,47,33,667,['c'],1,left,['9'],5,340,[0.05806662],97,47,medium,plus,dotcolour,beta,,,39,19,V,R,
384,6,6,9,3,47,33,649,['c'],1,left,['9'],5,117,[0.0411428],99,47,medium,plus,dotcolour,beta,,,39,19,V,R,
385,7,7,9,3,53,27,534,['c'],1,left,['9'],5,108,[0.03911746],99,53,easy,plus,dotcolour,beta,,,39,19,V,R,
386,8,8,9,3,27,53,550,['n'],1,right,['0'],6,107,[-0.14356692],100,53,easy,plus,dotcolour,beta,,,39,19,V,R,
387,9,9,9,3,53,27,832,['c'],1,left,['0'],6,974,[0.29741265],100,53,easy,plus,dotcolour,beta,,,39,19,V,R,
388,10,10,9,3,53,27,584,['c'],1,left,['0'],6,129,[0.07315887],100,53,easy,plus,dotcolour,beta,,,39,19,V,R,
389,11,11,9,3,44,36,784,['n'],0,left,['0'],6,118,[-0.03048803],99,44,hard,plus,dotcolour,beta,,,39,19,V,R,
390,12,12,9,3,44,36,500,['n'],0,left,['0'],6,63,[-0.06390497],100,44,hard,plus,dotcolour,beta,,,39,19,V,R,
391,13,13,9,3,33,47,484,['n'],1,right,['0'],6,10,[-0.07163007],100,47,medium,plus,dotcolour,beta,,,39,19,V,R,
392,14,14,9,3,36,44,700,['c'],0,right,['0'],6,87,[0.08091176],100,44,hard,plus,dotcolour,beta,,,39,19,V,R,
393,15,15,9,3,33,47,433,['n'],1,right,['0'],6,19,[-0.05851188],100,47,medium,plus,dotcolour,beta,,,39,19,V,R,
394,16,16,9,3,36,44,584,['n'],1,right,['0'],6,117,[-0.0846094],100,44,hard,plus,dotcolour,beta,,,39,19,V,R,
395,17,17,9,3,27,53,500,['n'],1,right,['0'],6,69,[-0.10159064],100,53,easy,plus,dotcolour,beta,,,39,19,V,R,
396,18,18,9,3,33,47,799,['c'],0,right,['0'],6,77,[0.07716855],100,47,medium,plus,dotcolour,beta,,,39,19,V,R,
397,19,19,9,3,27,53,450,['n'],1,right,['0'],6,16,[-0.0681029],100,53,easy,plus,dotcolour,beta,,,39,19,V,R,
398,20,20,9,3,53,27,517,['c'],1,left,['0'],6,68,[0.02692484],100,53,easy,plus,dotcolour,beta,,,39,19,V,R,
399,21,21,9,3,33,47,584,['n'],1,right,['0'],6,75,[-0.09038086],100,47,medium,plus,dotcolour,beta,,,39,19,V,R,
400,22,22,9,3,27,53,551,['n'],1,right,['0'],6,28,[-0.08100807],100,53,easy,plus,dotcolour,beta,,,39,19,V,R,
401,23,23,9,3,36,44,716,['n'],1,right,['0'],6,95,[-0.10449589],100,44,hard,plus,dotcolour,beta,,,39,19,V,R,
402,24,24,9,3,27,53,600,['n'],1,right,['0'],6,68,[-0.04159624],100,53,easy,plus,dotcolour,beta,,,39,19,V,R,
403,25,25,9,3,53,27,500,['c'],1,left,['0'],6,111,[0.08110297],100,53,easy,plus,dotcolour,beta,,,39,19,V,R,
404,26,26,9,3,53,27,683,['c'],1,left,['0'],6,552,[0.18544264],100,53,easy,plus,dotcolour,beta,,,39,19,V,R,
405,27,27,9,3,47,33,750,['c'],1,left,['0'],6,118,[0.08754332],100,47,medium,plus,dotcolour,beta,,,39,19,V,R,
406,28,28,9,3,47,33,483,['c'],1,left,['0'],6,87,[0.17545066],100,47,medium,plus,dotcolour,beta,,,39,19,V,R,
407,29,29,9,3,53,27,634,['c'],1,left,['0'],6,84,[0.04046263],100,53,easy,plus,dotcolour,beta,,,39,19,V,R,
408,30,30,9,3,47,33,717,['c'],1,left,['0'],6,93,[0.07909102],100,47,medium,plus,dotcolour,beta,,,39,19,V,R,
409,31,31,9,3,36,44,667,['n'],1,right,['0'],6,320,[-0.16555752],100,44,hard,plus,dotcolour,beta,,,39,19,V,R,
410,32,32,9,3,47,33,516,['c'],1,left,['0'],6,64,[0.06096467],100,47,medium,plus,dotcolour,beta,,,39,19,V,R,
411,33,33,9,3,33,47,834,['n'],1,right,['0'],6,85,[-0.10036342],100,47,medium,plus,dotcolour,beta,,,39,19,V,R,
412,34,34,9,3,44,36,483,['c'],1,left,['0'],6,128,[0.10778918],100,44,hard,plus,dotcolour,beta,,,39,19,V,R,
413,35,35,9,3,47,33,634,['c'],1,left,['0'],6,90,[0.07040307],100,47,medium,plus,dotcolour,beta,,,39,19,V,R,
414,36,36,9,3,36,44,633,['n'],1,right,['0'],6,126,[-0.04865017],99,44,hard,plus,dotcolour,beta,,,39,19,V,R,
415,37,37,9,3,33,47,583,['n'],1,right,['0'],6,67,[-0.06410547],100,47,medium,plus,dotcolour,beta,,,39,19,V,R,
416,38,38,9,3,44,36,550,['c'],1,left,['0'],6,124,[-0.0071497],92,44,hard,plus,dotcolour,beta,,,39,19,V,R,
417,39,39,9,3,36,44,684,['c'],0,right,['0'],6,52,[0.07008148],100,44,hard,plus,dotcolour,beta,,,39,19,V,R,
418,40,40,9,3,44,36,684,['c'],1,left,['0'],6,73,[0.11632187],100,44,hard,plus,dotcolour,beta,,,39,19,V,R,
419,41,41,9,3,27,53,583,['c'],0,right,['0'],6,72,[0.07985821],100,53,easy,plus,dotcolour,beta,,,39,19,V,R,
420,42,0,10,3,36,44,634,['n'],1,right,['0'],6,20,[-0.07906978],100,44,hard,plus,dotcolour,beta,,,39,19,V,R,
421,43,1,10,3,44,36,550,['c'],1,left,['0'],6,159,[0.10180644],100,44,hard,plus,dotcolour,beta,,,39,19,V,R,
422,44,2,10,3,44,36,1001,['c'],1,left,['0'],6,82,[0.06845007],100,44,hard,plus,dotcolour,beta,,,39,19,V,R,
423,45,3,10,3,27,53,567,['n'],1,right,['0'],6,65,[-0.10592179],100,53,easy,plus,dotcolour,beta,,,39,19,V,R,
424,46,4,10,3,33,47,667,['n'],1,right,['0'],6,53,[-0.07956175],100,47,medium,plus,dotcolour,beta,,,39,19,V,R,
425,47,5,10,3,36,44,1016,['c'],0,right,['9'],5,132,[0.07659907],100,44,hard,plus,dotcolour,beta,,,39,19,V,R,
426,48,6,10,3,36,44,1068,['n'],1,right,['9'],5,165,[-0.08805603],100,44,hard,plus,dotcolour,beta,,,39,19,V,R,
427,49,7,10,3,27,53,550,['n'],1,right,['9'],5,114,[-0.12828274],100,53,easy,plus,dotcolour,beta,,,39,19,V,R,
428,50,8,10,3,53,27,650,['c'],1,left,['0'],6,101,[0.05094442],100,53,easy,plus,dotcolour,beta,,,39,19,V,R,
429,51,9,10,3,53,27,651,['c'],1,left,['0'],6,96,[0.11567506],100,53,easy,plus,dotcolour,beta,,,39,19,V,R,
430,52,10,10,3,36,44,633,['n'],1,right,['0'],6,93,[-0.05272247],100,44,hard,plus,dotcolour,beta,,,39,19,V,R,
431,53,11,10,3,47,33,534,['c'],1,left,['0'],6,69,[0.03848325],100,47,medium,plus,dotcolour,beta,,,39,19,V,R,
432,54,12,10,3,36,44,619,['n'],1,right,['0'],6,67,[-0.08896233],100,44,hard,plus,dotcolour,beta,,,39,19,V,R,
433,55,13,10,3,44,36,450,['c'],1,left,['0'],6,111,[0.04899489],100,44,hard,plus,dotcolour,beta,,,39,19,V,R,
434,56,14,10,3,33,47,483,['n'],1,right,['0'],6,49,[-0.06120036],100,47,medium,plus,dotcolour,beta,,,39,19,V,R,
435,57,15,10,3,27,53,517,['n'],1,right,['0'],6,1883,[-0.35320491],100,53,easy,plus,dotcolour,beta,,,39,19,V,R,
436,58,16,10,3,47,33,601,['c'],1,left,['0'],6,113,[0.07037403],100,47,medium,plus,dotcolour,beta,,,39,19,V,R,
437,59,17,10,3,47,33,900,['c'],1,left,['0'],6,57,[0.06358598],100,47,medium,plus,dotcolour,beta,,,39,19,V,R,
438,60,18,10,3,27,53,517,['n'],1,right,['0'],6,43,[-0.09196858],100,53,easy,plus,dotcolour,beta,,,39,19,V,R,
439,61,19,10,3,27,53,567,['n'],1,right,['0'],6,36,[-0.05751097],100,53,easy,plus,dotcolour,beta,,,39,19,V,R,
440,62,20,10,3,27,53,617,['n'],1,right,['0'],6,51,[-0.09049825],100,53,easy,plus,dotcolour,beta,,,39,19,V,R,
441,63,21,10,3,36,44,666,['c'],0,right,['0'],6,96,[0.07589473],100,44,hard,plus,dotcolour,beta,,,39,19,V,R,
442,64,22,10,3,36,44,500,['n'],1,right,['0'],6,49,[-0.09994594],100,44,hard,plus,dotcolour,beta,,,39,19,V,R,
443,65,23,10,3,47,33,667,['c'],1,left,['0'],6,86,[0.07447067],100,47,medium,plus,dotcolour,beta,,,39,19,V,R,
444,66,24,10,3,47,33,484,['c'],1,left,['0'],6,73,[0.05423082],100,47,medium,plus,dotcolour,beta,,,39,19,V,R,
445,67,25,10,3,44,36,900,['c'],1,left,['9'],5,171,[0.06552512],99,44,hard,plus,dotcolour,beta,,,39,19,V,R,
446,68,26,10,3,33,47,650,['c'],0,right,['0'],6,116,[0.00705112],96,47,medium,plus,dotcolour,beta,,,39,19,V,R,
447,69,27,10,3,33,47,617,['n'],1,right,['0'],6,24,[-0.06213011],100,47,medium,plus,dotcolour,beta,,,39,19,V,R,
448,70,28,10,3,53,27,616,['c'],1,left,['0'],6,63,[0.03444519],100,53,easy,plus,dotcolour,beta,,,39,19,V,R,
449,71,29,10,3,53,27,600,['c'],1,left,['0'],6,22,[0.04354035],100,53,easy,plus,dotcolour,beta,,,39,19,V,R,
450,72,30,10,3,44,36,499,['c'],1,left,['0'],6,52,[0.09685653],100,44,hard,plus,dotcolour,beta,,,39,19,V,R,
451,73,31,10,3,47,33,517,['c'],1,left,['8'],4,893,[0.34513583],100,47,medium,plus,dotcolour,beta,,,39,19,V,R,
452,74,32,10,3,53,27,600,['c'],1,left,['0'],6,75,[0.10685049],100,53,easy,plus,dotcolour,beta,,,39,19,V,R,
453,75,33,10,3,53,27,467,['c'],1,left,['0'],6,119,[0.08784592],100,53,easy,plus,dotcolour,beta,,,39,19,V,R,
454,76,34,10,3,33,47,650,['n'],1,right,['0'],6,337,[-0.08276479],99,47,medium,plus,dotcolour,beta,,,39,19,V,R,
455,77,35,10,3,47,33,618,['c'],1,left,['0'],6,92,[0.07256092],100,47,medium,plus,dotcolour,beta,,,39,19,V,R,
456,78,36,10,3,33,47,516,['n'],1,right,['0'],6,46,[-0.08070857],100,47,medium,plus,dotcolour,beta,,,39,19,V,R,
457,79,37,10,3,44,36,967,['c'],1,left,['9'],5,117,[0.09993454],100,44,hard,plus,dotcolour,beta,,,39,19,V,R,
458,80,38,10,3,53,27,516,['c'],1,left,['0'],6,126,[0.1231872],100,53,easy,plus,dotcolour,beta,,,39,19,V,R,
459,81,39,10,3,27,53,600,['c'],0,right,['1'],1,714,[-0.02849991],64,53,easy,plus,dotcolour,beta,,,39,19,V,R,
460,82,40,10,3,33,47,483,['n'],1,right,['9'],5,435,[-0.16816186],100,47,medium,plus,dotcolour,beta,,,39,19,V,R,
461,83,41,10,3,44,36,733,['c'],1,left,['9'],5,182,[0.12412334],100,44,hard,plus,dotcolour,beta,,,39,19,V,R,
462,84,0,11,3,53,27,668,['c'],1,left,['0'],6,89,[0.06751331],100,53,easy,plus,dotcolour,beta,,,39,19,V,R,
463,85,1,11,3,53,27,450,['c'],1,left,['0'],6,93,[0.0734451],100,53,easy,plus,dotcolour,beta,,,39,19,V,R,
464,86,2,11,3,36,44,583,['n'],1,right,['0'],6,58,[-0.09266175],100,44,hard,plus,dotcolour,beta,,,39,19,V,R,
465,87,3,11,3,47,33,533,['c'],1,left,['0'],6,84,[0.09128463],100,47,medium,plus,dotcolour,beta,,,39,19,V,R,
466,88,4,11,3,36,44,434,['n'],1,right,['0'],6,1129,[-0.11587577],95,44,hard,plus,dotcolour,beta,,,39,19,V,R,
467,89,5,11,3,47,33,783,['c'],1,left,['9'],5,253,[0.0180988],93,47,medium,plus,dotcolour,beta,,,39,19,V,R,
468,90,6,11,3,47,33,950,['n'],0,left,['9'],5,222,[-0.06390922],99,47,medium,plus,dotcolour,beta,,,39,19,V,R,
469,91,7,11,3,33,47,634,['n'],1,right,['0'],6,173,[-0.09901111],100,47,medium,plus,dotcolour,beta,,,39,19,V,R,
470,92,8,11,3,53,27,567,['c'],1,left,['0'],6,97,[0.08544365],100,53,easy,plus,dotcolour,beta,,,39,19,V,R,
471,93,9,11,3,27,53,534,['n'],1,right,['0'],6,41,[-0.11634925],100,53,easy,plus,dotcolour,beta,,,39,19,V,R,
472,94,10,11,3,36,44,1416,['c'],0,right,['3'],3,424,[-0.02049632],72,44,hard,plus,dotcolour,beta,,,39,19,V,R,
473,95,11,11,3,44,36,1533,['c'],1,left,['8'],4,259,[0.10879806],100,44,hard,plus,dotcolour,beta,,,39,19,V,R,
474,96,12,11,3,47,33,1133,['c'],1,left,['9'],5,148,[0.07689238],100,47,medium,plus,dotcolour,beta,,,39,19,V,R,
475,97,13,11,3,36,44,566,['n'],1,right,['9'],5,168,[-0.12430133],100,44,hard,plus,dotcolour,beta,,,39,19,V,R,
476,98,14,11,3,33,47,769,['n'],1,right,['9'],5,172,[-0.10772794],100,47,medium,plus,dotcolour,beta,,,39,19,V,R,
477,99,15,11,3,44,36,984,['c'],1,left,['9'],5,168,[0.10770793],100,44,hard,plus,dotcolour,beta,,,39,19,V,R,
478,100,16,11,3,53,27,566,['c'],1,left,['0'],6,124,[0.13710399],100,53,easy,plus,dotcolour,beta,,,39,19,V,R,
479,101,17,11,3,27,53,517,['n'],1,right,['0'],6,19,[-0.0671085],100,53,easy,plus,dotcolour,beta,,,39,19,V,R,
480,102,18,11,3,36,44,852,['n'],1,right,['9'],5,121,[-0.03402868],99,44,hard,plus,dotcolour,beta,,,39,19,V,R,
481,103,19,11,3,44,36,800,['c'],1,left,['9'],5,319,[0.14806817],100,44,hard,plus,dotcolour,beta,,,39,19,V,R,
482,104,20,11,3,33,47,683,['n'],1,right,['0'],6,296,[-0.16152635],100,47,medium,plus,dotcolour,beta,,,39,19,V,R,
483,105,21,11,3,47,33,651,['c'],1,left,['0'],6,91,[0.05154693],100,47,medium,plus,dotcolour,beta,,,39,19,V,R,
484,106,22,11,3,53,27,534,['c'],1,left,['0'],6,83,[0.09547043],100,53,easy,plus,dotcolour,beta,,,39,19,V,R,
485,107,23,11,3,33,47,617,['n'],1,right,['0'],6,88,[-0.08684995],100,47,medium,plus,dotcolour,beta,,,39,19,V,R,
486,108,24,11,3,36,44,584,['n'],1,right,['0'],6,103,[-0.06883984],100,44,hard,plus,dotcolour,beta,,,39,19,V,R,
487,109,25,11,3,36,44,967,['c'],0,right,['9'],5,166,[0.13168444],100,44,hard,plus,dotcolour,beta,,,39,19,V,R,
488,110,26,11,3,33,47,683,['n'],1,right,['8'],4,742,[-0.23344542],100,47,medium,plus,dotcolour,beta,,,39,19,V,R,
489,111,27,11,3,53,27,566,['c'],1,left,['0'],6,130,[0.06541144],100,53,easy,plus,dotcolour,beta,,,39,19,V,R,
490,112,28,11,3,47,33,634,['c'],1,left,['0'],6,93,[0.1101961],100,47,medium,plus,dotcolour,beta,,,39,19,V,R,
491,113,29,11,3,27,53,601,['n'],1,right,['0'],6,98,[-0.0541331],100,53,easy,plus,dotcolour,beta,,,39,19,V,R,
492,114,30,11,3,33,47,850,['n'],1,right,['8'],4,821,[-0.2593466],100,47,medium,plus,dotcolour,beta,,,39,19,V,R,
493,115,31,11,3,44,36,800,['c'],1,left,['8'],4,253,[0.0529116],98,44,hard,plus,dotcolour,beta,,,39,19,V,R,
494,116,32,11,3,44,36,582,['c'],1,left,['2'],2,677,[0.09258494],96,44,hard,plus,dotcolour,beta,,,39,19,V,R,
495,117,33,11,3,47,33,633,['c'],1,left,['9'],5,122,[0.06654773],100,47,medium,plus,dotcolour,beta,,,39,19,V,R,
496,118,34,11,3,27,53,516,['n'],1,right,['0'],6,386,[-0.10810726],99,53,easy,plus,dotcolour,beta,,,39,19,V,R,
497,119,35,11,3,27,53,1300,['n'],1,right,['0'],6,224,[-0.172717],100,53,easy,plus,dotcolour,beta,,,39,19,V,R,
498,120,36,11,3,33,47,550,['n'],1,right,['0'],6,106,[-0.06755944],100,47,medium,plus,dotcolour,beta,,,39,19,V,R,
499,121,37,11,3,53,27,583,['c'],1,left,['0'],6,105,[0.04231717],100,53,easy,plus,dotcolour,beta,,,39,19,V,R,
500,122,38,11,3,44,36,784,['c'],1,left,['8'],4,670,[0.12693103],98,44,hard,plus,dotcolour,beta,,,39,19,V,R,
501,123,39,11,3,27,53,600,['n'],1,right,['9'],5,492,[-0.14260818],99,53,easy,plus,dotcolour,beta,,,39,19,V,R,
502,124,40,11,3,44,36,750,['c'],1,left,['9'],5,188,[0.02305353],96,44,hard,plus,dotcolour,beta,,,39,19,V,R,
503,125,41,11,3,27,53,583,['n'],1,right,['9'],5,198,[-0.05010376],99,53,easy,plus,dotcolour,beta,,,39,19,V,R,
504,0,0,12,4,53,27,984,['c'],1,left,['0'],6,133,[0.10008424],90,53,easy,minus,dotcolour,beta,,,39,19,V,R,
505,1,1,12,4,53,27,717,['c'],1,left,['0'],6,1956,[0.35964469],98,53,easy,minus,dotcolour,beta,,,39,19,V,R,
506,2,2,12,4,47,33,717,['c'],1,left,['0'],6,66,[0.07596794],81,47,medium,minus,dotcolour,beta,,,39,19,V,R,
507,3,3,12,4,36,44,634,['n'],1,right,['0'],6,119,[-0.04617053],38,44,hard,minus,dotcolour,beta,,,39,19,V,R,
508,4,4,12,4,33,47,651,['n'],1,right,['0'],6,58,[-0.11625823],99,47,medium,minus,dotcolour,beta,,,39,19,V,R,
509,5,5,12,4,27,53,450,['n'],1,right,['0'],6,62,[-0.07916296],85,53,easy,minus,dotcolour,beta,,,39,19,V,R,
510,6,6,12,4,33,47,466,['n'],1,right,['0'],6,11,[-0.08255327],99,47,medium,minus,dotcolour,beta,,,39,19,V,R,
511,7,7,12,4,53,27,567,['c'],1,left,['0'],6,100,[0.13686785],99,53,easy,minus,dotcolour,beta,,,39,19,V,R,
512,8,8,12,4,53,27,483,['c'],1,left,['0'],6,47,[0.06903166],75,53,easy,minus,dotcolour,beta,,,39,19,V,R,
513,9,9,12,4,44,36,1017,['n'],0,left,['3'],3,693,[-0.02482863],34,44,hard,minus,dotcolour,beta,,,39,19,V,R,
514,10,10,12,4,47,33,699,['c'],1,left,['0'],6,94,[0.08426714],84,47,medium,minus,dotcolour,beta,,,39,19,V,R,
515,11,11,12,4,33,47,517,['n'],1,right,['0'],6,103,[-0.00865368],7,47,medium,minus,dotcolour,beta,,,39,19,V,R,
516,12,12,12,4,44,36,733,['n'],0,left,['0'],6,7,[-0.0697958],96,44,hard,minus,dotcolour,beta,,,39,19,V,R,
517,13,13,12,4,44,36,600,['c'],1,left,['0'],6,88,[0.09762586],93,44,hard,minus,dotcolour,beta,,,39,19,V,R,
518,14,14,12,4,44,36,567,['c'],1,left,['0'],6,64,[0.05858053],55,44,hard,minus,dotcolour,beta,,,39,19,V,R,
519,15,15,12,4,44,36,817,['n'],0,left,['0'],6,261,[-0.01651579],20,44,hard,minus,dotcolour,beta,,,39,19,V,R,
520,16,16,12,4,44,36,967,['c'],1,left,['0'],6,133,[0.10226553],91,44,hard,minus,dotcolour,beta,,,39,19,V,R,
521,17,17,12,4,33,47,733,['n'],1,right,['0'],6,36,[-0.06827772],77,47,medium,minus,dotcolour,beta,,,39,19,V,R,
522,18,18,12,4,27,53,551,['n'],1,right,['0'],6,78,[-0.06344368],62,53,easy,minus,dotcolour,beta,,,39,19,V,R,
523,19,19,12,4,36,44,933,['c'],0,right,['9'],5,383,[0.04039968],39,44,hard,minus,dotcolour,beta,,,39,19,V,R,
524,20,20,12,4,27,53,600,['c'],0,right,['1'],1,1305,[-0.18464765],2,53,easy,minus,dotcolour,beta,,,39,19,V,R,
525,21,21,12,4,44,36,1249,['n'],0,left,['8'],4,308,[-0.04054474],38,44,hard,minus,dotcolour,beta,,,39,19,V,R,
526,22,22,12,4,47,33,700,['c'],1,left,['9'],5,268,[0.10071474],83,47,medium,minus,dotcolour,beta,,,39,19,V,R,
527,23,23,12,4,47,33,1400,['n'],0,left,['8'],4,643,[0.05877464],7,47,medium,minus,dotcolour,beta,,,39,19,V,R,
528,24,24,12,4,47,33,767,['c'],1,left,['9'],5,251,[0.18663789],99,47,medium,minus,dotcolour,beta,,,39,19,V,R,
529,25,25,12,4,53,27,534,['c'],1,left,['0'],6,165,[0.10072744],88,53,easy,minus,dotcolour,beta,,,39,19,V,R,
530,26,26,12,4,33,47,517,['n'],1,right,['0'],6,68,[-0.06536357],66,47,medium,minus,dotcolour,beta,,,39,19,V,R,
531,27,27,12,4,27,53,517,['n'],1,right,['0'],6,894,[-0.16817715],90,53,easy,minus,dotcolour,beta,,,39,19,V,R,
532,28,28,12,4,36,44,884,['c'],0,right,['9'],5,280,[0.03580001],34,44,hard,minus,dotcolour,beta,,,39,19,V,R,
533,29,29,12,4,36,44,733,['n'],1,right,['9'],5,225,[-0.06296103],57,44,hard,minus,dotcolour,beta,,,39,19,V,R,
534,30,30,12,4,33,47,617,['n'],1,right,['9'],5,151,[-0.11011541],93,47,medium,minus,dotcolour,beta,,,39,19,V,R,
535,31,31,12,4,27,53,633,['n'],1,right,['9'],5,186,[-0.12615862],95,53,easy,minus,dotcolour,beta,,,39,19,V,R,
536,32,32,12,4,47,33,734,['c'],1,left,['0'],6,150,[0.04924447],43,47,medium,minus,dotcolour,beta,,,39,19,V,R,
537,33,33,12,4,36,44,666,['n'],1,right,['0'],6,119,[-0.11249525],95,44,hard,minus,dotcolour,beta,,,39,19,V,R,
538,34,34,12,4,47,33,667,['c'],1,left,['0'],6,81,[0.04057324],28,47,medium,minus,dotcolour,beta,,,39,19,V,R,
539,35,35,12,4,53,27,634,['c'],1,left,['0'],6,62,[0.12086533],99,53,easy,minus,dotcolour,beta,,,39,19,V,R,
540,36,36,12,4,36,44,917,['c'],0,right,['9'],5,464,[0.09477409],74,44,hard,minus,dotcolour,beta,,,39,19,V,R,
541,37,37,12,4,53,27,833,['c'],1,left,['0'],6,141,[0.09520211],87,53,easy,minus,dotcolour,beta,,,39,19,V,R,
542,38,38,12,4,27,53,633,['n'],1,right,['0'],6,39,[-0.08158078],91,53,easy,minus,dotcolour,beta,,,39,19,V,R,
543,39,39,12,4,27,53,566,['n'],1,right,['0'],6,113,[-0.10561185],94,53,easy,minus,dotcolour,beta,,,39,19,V,R,
544,40,40,12,4,33,47,833,['c'],0,right,['9'],5,124,[0.0573403],52,47,medium,minus,dotcolour,beta,,,39,19,V,R,
545,41,41,12,4,36,44,800,['n'],1,right,['9'],5,208,[-0.05043438],45,44,hard,minus,dotcolour,beta,,,39,19,V,R,
546,42,0,13,4,36,44,2099,['n'],1,right,['9'],5,178,[-0.13587647],97,44,hard,minus,dotcolour,beta,,,39,19,V,R,
547,43,1,13,4,53,27,783,['c'],1,left,['0'],6,141,[0.1213955],96,53,easy,minus,dotcolour,beta,,,39,19,V,R,
548,44,2,13,4,33,47,617,['n'],1,right,['0'],6,128,[-0.0931655],87,47,medium,minus,dotcolour,beta,,,39,19,V,R,
549,45,3,13,4,33,47,467,['n'],1,right,['0'],6,41,[-0.06625701],72,47,medium,minus,dotcolour,beta,,,39,19,V,R,
550,46,4,13,4,53,27,634,['c'],1,left,['0'],6,344,[0.15596589],96,53,easy,minus,dotcolour,beta,,,39,19,V,R,
551,47,5,13,4,27,53,617,['n'],1,right,['0'],6,90,[-0.10804861],96,53,easy,minus,dotcolour,beta,,,39,19,V,R,
552,48,6,13,4,47,33,634,['c'],1,left,['0'],6,118,[0.01056552],9,47,medium,minus,dotcolour,beta,,,39,19,V,R,
553,49,7,13,4,36,44,866,['n'],1,right,['9'],5,152,[-0.08321228],78,44,hard,minus,dotcolour,beta,,,39,19,V,R,
554,50,8,13,4,33,47,533,['n'],1,right,['9'],5,38,[-0.05829687],56,47,medium,minus,dotcolour,beta,,,39,19,V,R,
555,51,9,13,4,47,33,718,['c'],1,left,['9'],5,137,[0.12593637],97,47,medium,minus,dotcolour,beta,,,39,19,V,R,
556,52,10,13,4,27,53,600,['n'],1,right,['9'],5,165,[-0.1757493],100,53,easy,minus,dotcolour,beta,,,39,19,V,R,
557,53,11,13,4,44,36,800,['c'],1,left,['8'],4,496,[0.02819848],33,44,hard,minus,dotcolour,beta,,,39,19,V,R,
558,54,12,13,4,53,27,850,['n'],0,left,['0'],6,131,[-0.01446812],11,53,easy,minus,dotcolour,beta,,,39,19,V,R,
559,55,13,13,4,47,33,1249,['n'],0,left,['9'],5,398,[0.07798043],2,47,medium,minus,dotcolour,beta,,,39,19,V,R,
560,56,14,13,4,44,36,567,['c'],1,left,['0'],6,120,[0.03651249],27,44,hard,minus,dotcolour,beta,,,39,19,V,R,
561,57,15,13,4,53,27,600,['c'],1,left,['0'],6,68,[0.11615294],98,53,easy,minus,dotcolour,beta,,,39,19,V,R,
562,58,16,13,4,53,27,616,['c'],1,left,['0'],6,83,[0.14296509],100,53,easy,minus,dotcolour,beta,,,39,19,V,R,
563,59,17,13,4,53,27,467,['c'],1,left,['0'],6,126,[0.10353888],92,53,easy,minus,dotcolour,beta,,,39,19,V,R,
564,60,18,13,4,33,47,566,['n'],1,right,['0'],6,91,[-0.15426247],100,47,medium,minus,dotcolour,beta,,,39,19,V,R,
565,61,19,13,4,33,47,783,['n'],1,right,['0'],6,57,[-0.09864805],96,47,medium,minus,dotcolour,beta,,,39,19,V,R,
566,62,20,13,4,27,53,483,['n'],1,right,['0'],6,37,[-0.09189687],97,53,easy,minus,dotcolour,beta,,,39,19,V,R,
567,63,21,13,4,33,47,533,['n'],1,right,['0'],6,47,[-0.09681292],97,47,medium,minus,dotcolour,beta,,,39,19,V,R,
568,64,22,13,4,36,44,617,['n'],1,right,['0'],6,126,[-0.11279446],95,44,hard,minus,dotcolour,beta,,,39,19,V,R,
569,65,23,13,4,44,36,765,['c'],1,left,['0'],6,651,[0.13729159],86,44,hard,minus,dotcolour,beta,,,39,19,V,R,
570,66,24,13,4,27,53,582,['n'],1,right,['0'],6,83,[-0.06918046],70,53,easy,minus,dotcolour,beta,,,39,19,V,R,
571,67,25,13,4,44,36,750,['c'],1,left,['9'],5,372,[0.0636043],56,44,hard,minus,dotcolour,beta,,,39,19,V,R,
572,68,26,13,4,36,44,551,['n'],1,right,['9'],5,327,[-0.08774987],73,44,hard,minus,dotcolour,beta,,,39,19,V,R,
573,69,27,13,4,44,36,800,['n'],0,left,['8'],4,156,[-0.08871206],82,44,hard,minus,dotcolour,beta,,,39,19,V,R,
574,70,28,13,4,27,53,617,['n'],1,right,['0'],6,102,[-0.06169513],59,53,easy,minus,dotcolour,beta,,,39,19,V,R,
575,71,29,13,4,36,44,550,['n'],1,right,['0'],6,69,[-0.10326415],96,44,hard,minus,dotcolour,beta,,,39,19,V,R,
576,72,30,13,4,44,36,682,['c'],1,left,['0'],6,121,[0.10861464],94,44,hard,minus,dotcolour,beta,,,39,19,V,R,
577,73,31,13,4,36,44,684,['n'],1,right,['0'],6,451,[-0.15985983],94,44,hard,minus,dotcolour,beta,,,39,19,V,R,
578,74,32,13,4,33,47,584,['n'],1,right,['0'],6,90,[-0.07826632],80,47,medium,minus,dotcolour,beta,,,39,19,V,R,
579,75,33,13,4,47,33,634,['c'],1,left,['0'],6,222,[0.13516454],95,47,medium,minus,dotcolour,beta,,,39,19,V,R,
580,76,34,13,4,47,33,600,['c'],1,left,['0'],6,110,[0.10283314],93,47,medium,minus,dotcolour,beta,,,39,19,V,R,
581,77,35,13,4,27,53,666,['n'],1,right,['0'],6,104,[-0.12235192],98,53,easy,minus,dotcolour,beta,,,39,19,V,R,
582,78,36,13,4,53,27,617,['c'],1,left,['0'],6,189,[0.13653876],97,53,easy,minus,dotcolour,beta,,,39,19,V,R,
583,79,37,13,4,44,36,835,['c'],1,left,['8'],4,630,[0.11771772],80,44,hard,minus,dotcolour,beta,,,39,19,V,R,
584,80,38,13,4,47,33,783,['c'],1,left,['8'],4,214,[0.06341003],58,47,medium,minus,dotcolour,beta,,,39,19,V,R,
585,81,39,13,4,27,53,783,['n'],1,right,['0'],6,96,[-0.07919521],80,53,easy,minus,dotcolour,beta,,,39,19,V,R,
586,82,40,13,4,47,33,549,['c'],1,left,['0'],6,103,[0.07716098],77,47,medium,minus,dotcolour,beta,,,39,19,V,R,
587,83,41,13,4,36,44,566,['n'],1,right,['0'],6,62,[-0.07981879],85,44,hard,minus,dotcolour,beta,,,39,19,V,R,
588,84,0,14,4,36,44,2618,['c'],0,right,['8'],4,496,[0.03114281],35,44,hard,minus,dotcolour,beta,,,39,19,V,R,
589,85,1,14,4,44,36,700,['n'],0,left,['9'],5,218,[-0.01582807],18,44,hard,minus,dotcolour,beta,,,39,19,V,R,
590,86,2,14,4,27,53,534,['n'],1,right,['0'],6,85,[-0.04531874],35,53,easy,minus,dotcolour,beta,,,39,19,V,R,
591,87,3,14,4,36,44,467,['n'],1,right,['0'],6,64,[-0.08632642],90,44,hard,minus,dotcolour,beta,,,39,19,V,R,
592,88,4,14,4,44,36,483,['n'],0,left,['0'],6,67,[-0.05810327],54,44,hard,minus,dotcolour,beta,,,39,19,V,R,
593,89,5,14,4,44,36,934,['c'],1,left,['0'],6,213,[0.08917075],79,44,hard,minus,dotcolour,beta,,,39,19,V,R,
594,90,6,14,4,47,33,734,['c'],1,left,['8'],4,289,[0.07409731],65,47,medium,minus,dotcolour,beta,,,39,19,V,R,
595,91,7,14,4,44,36,551,['c'],1,left,['0'],6,160,[0.13447594],97,44,hard,minus,dotcolour,beta,,,39,19,V,R,
596,92,8,14,4,33,47,716,['n'],1,right,['0'],6,102,[-0.06952439],69,47,medium,minus,dotcolour,beta,,,39,19,V,R,
597,93,9,14,4,36,44,583,['n'],1,right,['0'],6,68,[-0.06475432],65,44,hard,minus,dotcolour,beta,,,39,19,V,R,
598,94,10,14,4,36,44,567,['n'],1,right,['0'],6,52,[-0.02661861],9,44,hard,minus,dotcolour,beta,,,39,19,V,R,
599,95,11,14,4,53,27,615,['c'],1,left,['0'],6,124,[0.14341649],99,53,easy,minus,dotcolour,beta,,,39,19,V,R,
600,96,12,14,4,27,53,585,['n'],1,right,['0'],6,56,[-0.06637669],69,53,easy,minus,dotcolour,beta,,,39,19,V,R,
601,97,13,14,4,27,53,533,['n'],1,right,['0'],6,73,[-0.05778759],54,53,easy,minus,dotcolour,beta,,,39,19,V,R,
602,98,14,14,4,47,33,783,['c'],1,left,['0'],6,784,[0.03853492],41,47,medium,minus,dotcolour,beta,,,39,19,V,R,
603,99,15,14,4,53,27,484,['n'],0,left,['1'],1,815,[0.16688736],1,53,easy,minus,dotcolour,beta,,,39,19,V,R,
604,100,16,14,4,47,33,817,['c'],1,left,['0'],6,807,[0.13688285],84,47,medium,minus,dotcolour,beta,,,39,19,V,R,
605,101,17,14,4,53,27,483,['c'],1,left,['0'],6,133,[0.1172488],95,53,easy,minus,dotcolour,beta,,,39,19,V,R,
606,102,18,14,4,27,53,550,['n'],1,right,['0'],6,50,[-0.06444266],67,53,easy,minus,dotcolour,beta,,,39,19,V,R,
607,103,19,14,4,47,33,634,['c'],1,left,['0'],6,73,[0.10046579],95,47,medium,minus,dotcolour,beta,,,39,19,V,R,
608,104,20,14,4,27,53,584,['c'],0,right,['1'],1,752,[-0.05108693],10,53,easy,minus,dotcolour,beta,,,39,19,V,R,
609,105,21,14,4,47,33,1166,['n'],0,left,['9'],5,412,[-0.16072202],95,47,medium,minus,dotcolour,beta,,,39,19,V,R,
610,106,22,14,4,33,47,634,['n'],1,right,['0'],6,115,[-0.06888081],67,47,medium,minus,dotcolour,beta,,,39,19,V,R,
611,107,23,14,4,36,44,866,['n'],1,right,['0'],6,181,[-0.13363051],96,44,hard,minus,dotcolour,beta,,,39,19,V,R,
612,108,24,14,4,33,47,633,['n'],1,right,['0'],6,78,[-0.06172173],60,47,medium,minus,dotcolour,beta,,,39,19,V,R,
613,109,25,14,4,44,36,599,['c'],1,left,['0'],6,108,[0.10012433],92,44,hard,minus,dotcolour,beta,,,39,19,V,R,
614,110,26,14,4,44,36,667,['c'],1,left,['9'],5,438,[0.27025947],100,44,hard,minus,dotcolour,beta,,,39,19,V,R,
615,111,27,14,4,53,27,534,['c'],1,left,['0'],6,152,[0.0375097],30,53,easy,minus,dotcolour,beta,,,39,19,V,R,
616,112,28,14,4,47,33,583,['c'],1,left,['1'],1,692,[0.05105405],48,47,medium,minus,dotcolour,beta,,,39,19,V,R,
617,113,29,14,4,53,27,667,['c'],1,left,['9'],5,439,[0.18039658],97,53,easy,minus,dotcolour,beta,,,39,19,V,R,
618,114,30,14,4,27,53,584,['n'],1,right,['0'],6,111,[-0.08941133],86,53,easy,minus,dotcolour,beta,,,39,19,V,R,
619,115,31,14,4,36,44,583,['n'],1,right,['8'],4,692,[-0.11036476],77,44,hard,minus,dotcolour,beta,,,39,19,V,R,
620,116,32,14,4,33,47,650,['n'],1,right,['8'],4,239,[-0.06247398],56,47,medium,minus,dotcolour,beta,,,39,19,V,R,
621,117,33,14,4,53,27,700,['c'],1,left,['3'],3,243,[-0.04439874],3,53,easy,minus,dotcolour,beta,,,39,19,V,R,
622,118,34,14,4,33,47,684,['n'],1,right,['0'],6,87,[-0.10367264],95,47,medium,minus,dotcolour,beta,,,39,19,V,R,
623,119,35,14,4,53,27,567,['c'],1,left,['0'],6,110,[0.10645271],94,53,easy,minus,dotcolour,beta,,,39,19,V,R,
624,120,36,14,4,44,36,716,['c'],1,left,['0'],6,95,[0.06546281],64,44,hard,minus,dotcolour,beta,,,39,19,V,R,
625,121,37,14,4,33,47,800,['c'],0,right,['8'],4,916,[-0.01555535],21,47,medium,minus,dotcolour,beta,,,39,19,V,R,
626,122,38,14,4,33,47,1083,['c'],0,right,['8'],4,269,[0.08317719],72,47,medium,minus,dotcolour,beta,,,39,19,V,R,
627,123,39,14,4,36,44,700,['c'],0,right,['9'],5,144,[0.03188568],25,44,hard,minus,dotcolour,beta,,,39,19,V,R,
628,124,40,14,4,27,53,683,['n'],1,right,['9'],5,136,[-0.10712568],93,53,easy,minus,dotcolour,beta,,,39,19,V,R,
629,125,41,14,4,47,33,584,['c'],1,left,['9'],5,141,[0.04333069],36,47,medium,minus,dotcolour,beta,,,39,19,V,R,
630,0,0,15,5,44,36,835,['c'],1,left,['8'],4,336,[0.08206279],99,44,hard,plus,dotcolour,beta,,,39,19,V,R,
631,1,1,15,5,33,47,617,['n'],1,right,['0'],6,51,[-0.08257749],100,47,medium,plus,dotcolour,beta,,,39,19,V,R,
632,2,2,15,5,33,47,566,['n'],1,right,['0'],6,60,[-0.06974511],100,47,medium,plus,dotcolour,beta,,,39,19,V,R,
633,3,3,15,5,27,53,716,['n'],1,right,['0'],6,62,[-0.06266153],100,53,easy,plus,dotcolour,beta,,,39,19,V,R,
634,4,4,15,5,53,27,484,['c'],1,left,['0'],6,105,[0.09261245],100,53,easy,plus,dotcolour,beta,,,39,19,V,R,
635,5,5,15,5,44,36,783,['c'],1,left,['0'],6,152,[0.07126296],100,44,hard,plus,dotcolour,beta,,,39,19,V,R,
636,6,6,15,5,33,47,850,['n'],1,right,['0'],6,145,[-0.06270968],100,47,medium,plus,dotcolour,beta,,,39,19,V,R,
637,7,7,15,5,36,44,900,['c'],0,right,['8'],4,536,[0.07551608],96,44,hard,plus,dotcolour,beta,,,39,19,V,R,
638,8,8,15,5,53,27,566,['c'],1,left,['0'],6,221,[0.07003805],99,53,easy,plus,dotcolour,beta,,,39,19,V,R,
639,9,9,15,5,36,44,1434,['c'],0,right,['0'],6,109,[0.05087128],100,44,hard,plus,dotcolour,beta,,,39,19,V,R,
640,10,10,15,5,53,27,600,['c'],1,left,['0'],6,129,[0.03078874],99,53,easy,plus,dotcolour,beta,,,39,19,V,R,
641,11,11,15,5,36,44,717,['c'],0,right,['0'],6,137,[0.05646755],100,44,hard,plus,dotcolour,beta,,,39,19,V,R,
642,12,12,15,5,33,47,783,['c'],0,right,['8'],4,286,[0.10698322],100,47,medium,plus,dotcolour,beta,,,39,19,V,R,
643,13,13,15,5,47,33,667,['c'],1,left,['8'],4,153,[0.03775043],99,47,medium,plus,dotcolour,beta,,,39,19,V,R,
644,14,14,15,5,36,44,749,['n'],1,right,['9'],5,558,[-0.24799647],100,44,hard,plus,dotcolour,beta,,,39,19,V,R,
645,15,15,15,5,36,44,649,['n'],1,right,['9'],5,327,[-0.1531242],100,44,hard,plus,dotcolour,beta,,,39,19,V,R,
646,16,16,15,5,53,27,517,['c'],1,left,['0'],6,142,[0.11164404],100,53,easy,plus,dotcolour,beta,,,39,19,V,R,
647,17,17,15,5,47,33,617,['c'],1,left,['0'],6,137,[0.0826064],100,47,medium,plus,dotcolour,beta,,,39,19,V,R,
648,18,18,15,5,44,36,518,['c'],1,left,['0'],6,168,[0.08582287],100,44,hard,plus,dotcolour,beta,,,39,19,V,R,
649,19,19,15,5,33,47,818,['c'],0,right,['1'],1,786,[-0.01056811],71,47,medium,plus,dotcolour,beta,,,39,19,V,R,
650,20,20,15,5,33,47,533,['n'],1,right,['0'],6,382,[-0.07767369],98,47,medium,plus,dotcolour,beta,,,39,19,V,R,
651,21,21,15,5,53,27,667,['c'],1,left,['0'],6,110,[0.0504846],100,53,easy,plus,dotcolour,beta,,,39,19,V,R,
652,22,22,15,5,47,33,566,['c'],1,left,['0'],6,148,[0.08887399],100,47,medium,plus,dotcolour,beta,,,39,19,V,R,
653,23,23,15,5,27,53,699,['n'],1,right,['0'],6,60,[-0.09428096],100,53,easy,plus,dotcolour,beta,,,39,19,V,R,
654,24,24,15,5,27,53,517,['n'],1,right,['0'],6,53,[-0.04361543],100,53,easy,plus,dotcolour,beta,,,39,19,V,R,
655,25,25,15,5,47,33,516,['c'],1,left,['0'],6,104,[0.04305346],100,47,medium,plus,dotcolour,beta,,,39,19,V,R,
656,26,26,15,5,44,36,549,['c'],1,left,['0'],6,119,[0.0248772],99,44,hard,plus,dotcolour,beta,,,39,19,V,R,
657,27,27,15,5,44,36,533,['c'],1,left,['0'],6,134,[0.04339541],99,44,hard,plus,dotcolour,beta,,,39,19,V,R,
658,28,28,15,5,47,33,417,['c'],1,left,['0'],6,169,[0.09400415],100,47,medium,plus,dotcolour,beta,,,39,19,V,R,
659,29,29,15,5,27,53,433,['c'],0,right,['1'],1,531,[0.0720872],96,53,easy,plus,dotcolour,beta,,,39,19,V,R,
660,30,30,15,5,47,33,599,['c'],1,left,['0'],6,223,[0.05052749],98,47,medium,plus,dotcolour,beta,,,39,19,V,R,
661,31,31,15,5,44,36,584,['c'],1,left,['0'],6,376,[0.10627764],99,44,hard,plus,dotcolour,beta,,,39,19,V,R,
662,32,32,15,5,27,53,734,['n'],1,right,['0'],6,77,[-0.02441569],99,53,easy,plus,dotcolour,beta,,,39,19,V,R,
663,33,33,15,5,36,44,616,['n'],1,right,['0'],6,98,[-0.01521071],98,44,hard,plus,dotcolour,beta,,,39,19,V,R,
664,34,34,15,5,27,53,1350,['n'],1,right,['9'],5,305,[-0.10596811],99,53,easy,plus,dotcolour,beta,,,39,19,V,R,
665,35,35,15,5,36,44,700,['c'],0,right,['0'],6,258,[-0.00079911],87,44,hard,plus,dotcolour,beta,,,39,19,V,R,
666,36,36,15,5,44,36,851,['c'],1,left,['0'],6,183,[0.09728982],100,44,hard,plus,dotcolour,beta,,,39,19,V,R,
667,37,37,15,5,47,33,633,['c'],1,left,['0'],6,95,[0.09118335],100,47,medium,plus,dotcolour,beta,,,39,19,V,R,
668,38,38,15,5,53,27,500,['c'],1,left,['0'],6,145,[0.02563216],98,53,easy,plus,dotcolour,beta,,,39,19,V,R,
669,39,39,15,5,33,47,684,['n'],1,right,['0'],6,65,[-0.08520407],100,47,medium,plus,dotcolour,beta,,,39,19,V,R,
670,40,40,15,5,53,27,749,['c'],1,left,['0'],6,290,[0.08696231],99,53,easy,plus,dotcolour,beta,,,39,19,V,R,
671,41,41,15,5,27,53,651,['n'],1,right,['0'],6,2429,[-0.36627665],99,53,easy,plus,dotcolour,beta,,,39,19,V,R,
672,42,0,16,5,44,36,901,['c'],1,left,['0'],6,85,[0.08722935],100,44,hard,plus,dotcolour,beta,,,39,19,V,R,
673,43,1,16,5,53,27,667,['c'],1,left,['0'],6,89,[0.05715955],100,53,easy,plus,dotcolour,beta,,,39,19,V,R,
674,44,2,16,5,36,44,566,['n'],1,right,['0'],6,40,[-0.08359483],100,44,hard,plus,dotcolour,beta,,,39,19,V,R,
675,45,3,16,5,44,36,550,['c'],1,left,['0'],6,57,[0.07611884],100,44,hard,plus,dotcolour,beta,,,39,19,V,R,
676,46,4,16,5,36,44,468,['n'],1,right,['0'],6,1125,[-0.23646594],99,44,hard,plus,dotcolour,beta,,,39,19,V,R,
677,47,5,16,5,27,53,567,['n'],1,right,['0'],6,35,[-0.0675802],100,53,easy,plus,dotcolour,beta,,,39,19,V,R,
678,48,6,16,5,33,47,550,['n'],1,right,['0'],6,749,[-0.06553818],93,47,medium,plus,dotcolour,beta,,,39,19,V,R,
679,49,7,16,5,33,47,634,['n'],1,right,['0'],6,127,[-0.09408836],100,47,medium,plus,dotcolour,beta,,,39,19,V,R,
680,50,8,16,5,33,47,516,['n'],1,right,['0'],6,150,[-0.12819185],100,47,medium,plus,dotcolour,beta,,,39,19,V,R,
681,51,9,16,5,47,33,500,['c'],1,left,['0'],6,190,[0.12637126],100,47,medium,plus,dotcolour,beta,,,39,19,V,R,
682,52,10,16,5,47,33,601,['c'],1,left,['0'],6,135,[0.07409159],100,47,medium,plus,dotcolour,beta,,,39,19,V,R,
683,53,11,16,5,36,44,500,['c'],0,right,['1'],1,703,[0.1721232],99,44,hard,plus,dotcolour,beta,,,39,19,V,R,
684,54,12,16,5,44,36,899,['n'],0,left,['0'],6,216,[0.05729896],48,44,hard,plus,dotcolour,beta,,,39,19,V,R,
685,55,13,16,5,27,53,516,['n'],1,right,['0'],6,92,[-0.08700669],100,53,easy,plus,dotcolour,beta,,,39,19,V,R,
686,56,14,16,5,53,27,550,['c'],1,left,['0'],6,115,[0.14671715],100,53,easy,plus,dotcolour,beta,,,39,19,V,R,
687,57,15,16,5,33,47,717,['c'],0,right,['1'],1,691,[-0.26698372],1,47,medium,plus,dotcolour,beta,,,39,19,V,R,
688,58,16,16,5,53,27,750,['c'],1,left,['0'],6,131,[0.09356424],100,53,easy,plus,dotcolour,beta,,,39,19,V,R,
689,59,17,16,5,53,27,583,['c'],1,left,['0'],6,151,[0.05604442],99,53,easy,plus,dotcolour,beta,,,39,19,V,R,
690,60,18,16,5,36,44,582,['n'],1,right,['0'],6,99,[-0.07142419],100,44,hard,plus,dotcolour,beta,,,39,19,V,R,
691,61,19,16,5,47,33,600,['c'],1,left,['0'],6,137,[0.11585035],100,47,medium,plus,dotcolour,beta,,,39,19,V,R,
692,62,20,16,5,27,53,550,['n'],1,right,['0'],6,39,[-0.06307759],100,53,easy,plus,dotcolour,beta,,,39,19,V,R,
693,63,21,16,5,27,53,550,['n'],1,right,['0'],6,72,[-0.11334084],100,53,easy,plus,dotcolour,beta,,,39,19,V,R,
694,64,22,16,5,53,27,550,['c'],1,left,['0'],6,161,[0.10445718],100,53,easy,plus,dotcolour,beta,,,39,19,V,R,
695,65,23,16,5,27,53,700,['n'],1,right,['0'],6,32,[-0.08457835],100,53,easy,plus,dotcolour,beta,,,39,19,V,R,
696,66,24,16,5,53,27,484,['c'],1,left,['0'],6,172,[0.14446897],100,53,easy,plus,dotcolour,beta,,,39,19,V,R,
697,67,25,16,5,33,47,583,['n'],1,right,['0'],6,96,[-0.10862193],100,47,medium,plus,dotcolour,beta,,,39,19,V,R,
698,68,26,16,5,33,47,534,['n'],1,right,['0'],6,96,[-0.08774557],100,47,medium,plus,dotcolour,beta,,,39,19,V,R,
699,69,27,16,5,36,44,1617,['n'],1,right,['0'],6,157,[-0.05234273],99,44,hard,plus,dotcolour,beta,,,39,19,V,R,
700,70,28,16,5,47,33,485,['c'],1,left,['8'],4,572,[0.05730899],94,47,medium,plus,dotcolour,beta,,,39,19,V,R,
701,71,29,16,5,27,53,716,['n'],1,right,['0'],6,217,[-0.06701604],99,53,easy,plus,dotcolour,beta,,,39,19,V,R,
702,72,30,16,5,44,36,784,['c'],1,left,['0'],6,179,[0.14704572],100,44,hard,plus,dotcolour,beta,,,39,19,V,R,
703,73,31,16,5,36,44,550,['n'],1,right,['0'],6,167,[-0.08205062],100,44,hard,plus,dotcolour,beta,,,39,19,V,R,
704,74,32,16,5,47,33,683,['c'],1,left,['0'],6,174,[0.09680673],100,47,medium,plus,dotcolour,beta,,,39,19,V,R,
705,75,33,16,5,44,36,734,['c'],1,left,['0'],6,171,[0.02639377],97,44,hard,plus,dotcolour,beta,,,39,19,V,R,
706,76,34,16,5,47,33,534,['c'],1,left,['0'],6,152,[0.03547535],99,47,medium,plus,dotcolour,beta,,,39,19,V,R,
707,77,35,16,5,33,47,1000,['n'],1,right,['0'],6,171,[-0.11528769],100,47,medium,plus,dotcolour,beta,,,39,19,V,R,
708,78,36,16,5,44,36,566,['c'],1,left,['0'],6,199,[0.03294946],97,44,hard,plus,dotcolour,beta,,,39,19,V,R,
709,79,37,16,5,27,53,650,['n'],1,right,['0'],6,239,[-0.034726],97,53,easy,plus,dotcolour,beta,,,39,19,V,R,
710,80,38,16,5,47,33,501,['c'],1,left,['9'],5,418,[0.19165404],100,47,medium,plus,dotcolour,beta,,,39,19,V,R,
711,81,39,16,5,44,36,684,['n'],0,left,['9'],5,520,[-0.09998555],98,44,hard,plus,dotcolour,beta,,,39,19,V,R,
712,82,40,16,5,53,27,883,['c'],1,left,['0'],6,145,[0.01991936],97,53,easy,plus,dotcolour,beta,,,39,19,V,R,
713,83,41,16,5,36,44,599,['n'],1,right,['0'],6,84,[-0.1006786],100,44,hard,plus,dotcolour,beta,,,39,19,V,R,
714,84,0,17,5,27,53,651,['n'],1,right,['0'],6,87,[-0.12363821],100,53,easy,plus,dotcolour,beta,,,39,19,V,R,
715,85,1,17,5,36,44,550,['n'],1,right,['0'],6,71,[-0.0853473],100,44,hard,plus,dotcolour,beta,,,39,19,V,R,
716,86,2,17,5,47,33,568,['c'],1,left,['0'],6,119,[0.11148603],100,47,medium,plus,dotcolour,beta,,,39,19,V,R,
717,87,3,17,5,33,47,1300,['n'],1,right,['0'],6,72,[-0.07400591],100,47,medium,plus,dotcolour,beta,,,39,19,V,R,
718,88,4,17,5,47,33,500,['c'],1,left,['0'],6,90,[0.14405274],100,47,medium,plus,dotcolour,beta,,,39,19,V,R,
719,89,5,17,5,47,33,683,['n'],0,left,['8'],4,604,[-0.0341813],89,47,medium,plus,dotcolour,beta,,,39,19,V,R,
720,90,6,17,5,53,27,533,['c'],1,left,['0'],6,127,[0.1711735],100,53,easy,plus,dotcolour,beta,,,39,19,V,R,
721,91,7,17,5,44,36,584,['c'],1,left,['0'],6,92,[0.10260564],100,44,hard,plus,dotcolour,beta,,,39,19,V,R,
722,92,8,17,5,36,44,600,['c'],0,right,['0'],6,226,[0.13555945],100,44,hard,plus,dotcolour,beta,,,39,19,V,R,
723,93,9,17,5,36,44,633,['n'],1,right,['0'],6,121,[-0.1012097],100,44,hard,plus,dotcolour,beta,,,39,19,V,R,
724,94,10,17,5,47,33,784,['c'],1,left,['0'],6,190,[0.10168364],100,47,medium,plus,dotcolour,beta,,,39,19,V,R,
725,95,11,17,5,27,53,1516,['n'],1,right,['0'],6,323,[-0.07338591],98,53,easy,plus,dotcolour,beta,,,39,19,V,R,
726,96,12,17,5,53,27,433,['c'],1,left,['0'],6,134,[0.04764603],99,53,easy,plus,dotcolour,beta,,,39,19,V,R,
727,97,13,17,5,44,36,500,['c'],1,left,['0'],6,125,[0.10641115],100,44,hard,plus,dotcolour,beta,,,39,19,V,R,
728,98,14,17,5,53,27,483,['c'],1,left,['0'],6,118,[0.08943054],100,53,easy,plus,dotcolour,beta,,,39,19,V,R,
729,99,15,17,5,33,47,634,['n'],1,right,['0'],6,58,[-0.08859651],100,47,medium,plus,dotcolour,beta,,,39,19,V,R,
730,100,16,17,5,36,44,1216,['c'],0,right,['0'],6,128,[0.07993782],100,44,hard,plus,dotcolour,beta,,,39,19,V,R,
731,101,17,17,5,27,53,616,['n'],1,right,['0'],6,115,[-0.05780178],100,53,easy,plus,dotcolour,beta,,,39,19,V,R,
732,102,18,17,5,44,36,634,['c'],1,left,['0'],6,166,[0.10833853],100,44,hard,plus,dotcolour,beta,,,39,19,V,R,
733,103,19,17,5,47,33,784,['n'],0,left,['0'],6,177,[0.02870214],76,47,medium,plus,dotcolour,beta,,,39,19,V,R,
734,104,20,17,5,36,44,983,['n'],1,right,['8'],4,253,[-0.13864781],100,44,hard,plus,dotcolour,beta,,,39,19,V,R,
735,105,21,17,5,33,47,1333,['c'],0,right,['8'],4,270,[0.0681401],99,47,medium,plus,dotcolour,beta,,,39,19,V,R,
736,106,22,17,5,53,27,584,['c'],1,left,['0'],6,165,[0.11514493],100,53,easy,plus,dotcolour,beta,,,39,19,V,R,
737,107,23,17,5,33,47,600,['n'],1,right,['0'],6,136,[-0.11038393],100,47,medium,plus,dotcolour,beta,,,39,19,V,R,
738,108,24,17,5,33,47,851,['n'],1,right,['8'],4,298,[-0.10505098],100,47,medium,plus,dotcolour,beta,,,39,19,V,R,
739,109,25,17,5,36,44,1100,['n'],1,right,['0'],6,204,[-0.0560017],99,44,hard,plus,dotcolour,beta,,,39,19,V,R,
740,110,26,17,5,44,36,666,['c'],1,left,['0'],6,155,[0.10996975],100,44,hard,plus,dotcolour,beta,,,39,19,V,R,
741,111,27,17,5,27,53,533,['n'],1,right,['0'],6,88,[-0.10500772],100,53,easy,plus,dotcolour,beta,,,39,19,V,R,
742,112,28,17,5,44,36,500,['c'],1,left,['0'],6,82,[0.08914824],100,44,hard,plus,dotcolour,beta,,,39,19,V,R,
743,113,29,17,5,53,27,533,['c'],1,left,['0'],6,139,[0.09493936],100,53,easy,plus,dotcolour,beta,,,39,19,V,R,
744,114,30,17,5,53,27,534,['c'],1,left,['0'],6,106,[0.09020617],100,53,easy,plus,dotcolour,beta,,,39,19,V,R,
745,115,31,17,5,33,47,566,['n'],1,right,['0'],6,97,[-0.11193063],100,47,medium,plus,dotcolour,beta,,,39,19,V,R,
746,116,32,17,5,36,44,684,['n'],1,right,['0'],6,106,[-0.04486044],100,44,hard,plus,dotcolour,beta,,,39,19,V,R,
747,117,33,17,5,44,36,567,['c'],1,left,['0'],6,137,[0.05151465],99,44,hard,plus,dotcolour,beta,,,39,19,V,R,
748,118,34,17,5,44,36,533,['c'],1,left,['0'],6,176,[0.10266069],100,44,hard,plus,dotcolour,beta,,,39,19,V,R,
749,119,35,17,5,27,53,534,['n'],1,right,['0'],6,60,[-0.09021795],100,53,easy,plus,dotcolour,beta,,,39,19,V,R,
750,120,36,17,5,53,27,533,['c'],1,left,['0'],6,157,[0.05359707],99,53,easy,plus,dotcolour,beta,,,39,19,V,R,
751,121,37,17,5,27,53,483,['n'],1,right,['0'],6,77,[-0.06515373],100,53,easy,plus,dotcolour,beta,,,39,19,V,R,
752,122,38,17,5,47,33,516,['c'],1,left,['0'],6,182,[0.09205831],100,47,medium,plus,dotcolour,beta,,,39,19,V,R,
753,123,39,17,5,47,33,667,['c'],1,left,['0'],6,165,[0.04354675],99,47,medium,plus,dotcolour,beta,,,39,19,V,R,
754,124,40,17,5,27,53,434,['n'],1,right,['0'],6,55,[-0.05647994],100,53,easy,plus,dotcolour,beta,,,39,19,V,R,
755,125,41,17,5,33,47,517,['n'],1,right,['0'],6,129,[-0.03539218],99,47,medium,plus,dotcolour,beta,,,39,19,V,R,
,,,,,,,,,,,,,,,,,,,,,1,de percentages leken random,39,19,V,R,
,,,,,,,,,,,,,,,,,,,,,2,['d'],39,19,V,R,
,,,,,,,,,,,,,,,,,,,,,3,['d'],39,19,V,R,
,,,,,,,,,,,,,,,,,,,,,5,['5'],39,19,V,R,
