trial,withinphasetrial,withinblocktrial,block,phase,dotsLeft,dotsRight,rt,resp,cor,cresp,conf_press,cj,RTconf,ev,fb,diff,difflevel,condition,task,manip,questionID,questionResp,sub,age,gender,handedness,
0,0,0,0,0,44,36,10933,['n'],0,left,['2'],2,9746,[0.21235416],29,44,hard,plus,dotcolour,beta,,,74,18,V,R,
1,1,1,0,0,44,36,4149,['n'],0,left,['2'],2,2877,[-0.11108433],85,44,hard,plus,dotcolour,beta,,,74,18,V,R,
2,2,2,0,0,53,27,3633,['c'],1,left,['8'],4,18908,[2.62191273],100,53,easy,plus,dotcolour,beta,,,74,18,V,R,
3,3,3,0,0,33,47,4082,['n'],1,right,['9'],5,1601,[-0.09746972],90,47,medium,plus,dotcolour,beta,,,74,18,V,R,
4,4,4,0,0,47,33,2299,['n'],0,left,['3'],3,1366,[0.10585252],32,47,medium,plus,dotcolour,beta,,,74,18,V,R,
5,5,5,0,0,27,53,1064,['n'],1,right,['3'],3,486,[-0.09100558],98,53,easy,plus,dotcolour,beta,,,74,18,V,R,
6,6,6,0,0,47,33,1930,['c'],1,left,['8'],4,1895,[0.33867546],99,47,medium,plus,dotcolour,beta,,,74,18,V,R,
7,7,7,0,0,27,53,699,['n'],1,right,['0'],6,3840,[-0.83958045],100,53,easy,plus,dotcolour,beta,,,74,18,V,R,
8,8,8,0,0,27,53,1682,['n'],1,right,['0'],6,1091,[-0.11383561],95,53,easy,plus,dotcolour,beta,,,74,18,V,R,
9,9,9,0,0,47,33,2514,['c'],1,left,['3'],3,3797,[0.09469796],80,47,medium,plus,dotcolour,beta,,,74,18,V,R,
10,10,10,0,0,27,53,2166,['n'],1,right,['0'],6,1231,[-0.10566614],93,53,easy,plus,dotcolour,beta,,,74,18,V,R,
11,11,11,0,0,36,44,1332,['n'],1,right,['0'],6,449,[-0.15446681],100,44,hard,plus,dotcolour,beta,,,74,18,V,R,
12,12,12,0,0,36,44,1231,['n'],1,right,['3'],3,1895,[-0.13869119],93,44,hard,plus,dotcolour,beta,,,74,18,V,R,
13,13,13,0,0,36,44,964,['n'],1,right,['1'],1,3150,[-0.48782194],100,44,hard,plus,dotcolour,beta,,,74,18,V,R,
14,14,14,0,0,33,47,800,['n'],1,right,['8'],4,1409,[-0.11499182],93,47,medium,plus,dotcolour,beta,,,74,18,V,R,
15,15,15,0,0,27,53,764,['n'],1,right,['0'],6,715,[-0.16097991],99,53,easy,plus,dotcolour,beta,,,74,18,V,R,
16,16,16,0,0,53,27,2147,['n'],0,left,['3'],3,3058,[0.42541823],2,53,easy,plus,dotcolour,beta,,,74,18,V,R,
17,17,17,0,0,47,33,2047,['c'],1,left,['8'],4,1711,[0.33220437],100,47,medium,plus,dotcolour,beta,,,74,18,V,R,
18,18,18,0,0,53,27,1499,['c'],1,left,['9'],5,1016,[0.38016543],100,53,easy,plus,dotcolour,beta,,,74,18,V,R,
19,19,19,0,0,36,44,1300,['n'],1,right,['0'],6,788,[-0.14723963],98,44,hard,plus,dotcolour,beta,,,74,18,V,R,
20,20,20,0,0,33,47,849,['n'],1,right,['0'],6,445,[-0.20981266],100,47,medium,plus,dotcolour,beta,,,74,18,V,R,
21,21,21,0,0,44,36,3967,['c'],1,left,['8'],4,2286,[0.09685763],86,44,hard,plus,dotcolour,beta,,,74,18,V,R,
22,22,22,0,0,33,47,630,['n'],1,right,['0'],6,690,[-0.18123553],99,47,medium,plus,dotcolour,beta,,,74,18,V,R,
23,23,23,0,0,44,36,1316,['n'],0,left,['9'],5,667,[0.13199893],16,44,hard,plus,dotcolour,beta,,,74,18,V,R,
24,24,24,0,0,33,47,582,['n'],1,right,['0'],6,723,[-0.28011159],100,47,medium,plus,dotcolour,beta,,,74,18,V,R,
25,25,25,0,0,33,47,533,['n'],1,right,['0'],6,610,[-0.27384519],100,47,medium,plus,dotcolour,beta,,,74,18,V,R,
26,26,26,0,0,53,27,1181,['c'],1,left,['0'],6,596,[0.05981881],94,53,easy,plus,dotcolour,beta,,,74,18,V,R,
27,27,27,0,0,53,27,899,['c'],1,left,['0'],6,401,[0.14790049],100,53,easy,plus,dotcolour,beta,,,74,18,V,R,
28,28,28,0,0,27,53,1516,['n'],1,right,['0'],6,358,[-0.14583968],100,53,easy,plus,dotcolour,beta,,,74,18,V,R,
29,29,29,0,0,44,36,2598,['c'],1,left,['8'],4,2753,[0.09924148],84,44,hard,plus,dotcolour,beta,,,74,18,V,R,
30,30,30,0,0,44,36,983,['n'],0,left,['0'],6,493,[-0.1159678],99,44,hard,plus,dotcolour,beta,,,74,18,V,R,
31,31,31,0,0,33,47,1216,['c'],0,right,['9'],5,2458,[-0.54016614],0,47,medium,plus,dotcolour,beta,,,74,18,V,R,
32,32,32,0,0,36,44,931,['n'],1,right,['0'],6,667,[-0.01203758],82,44,hard,plus,dotcolour,beta,,,74,18,V,R,
33,33,33,0,0,47,33,833,['c'],1,left,['0'],6,409,[0.13119931],99,47,medium,plus,dotcolour,beta,,,74,18,V,R,
34,34,34,0,0,27,53,730,['n'],1,right,['0'],6,492,[-0.12461646],99,53,easy,plus,dotcolour,beta,,,74,18,V,R,
35,35,35,0,0,47,33,999,['n'],0,left,['8'],4,1226,[0.27922422],3,47,medium,plus,dotcolour,beta,,,74,18,V,R,
36,36,36,0,0,53,27,815,['n'],0,left,['0'],6,402,[0.0472416],56,53,easy,plus,dotcolour,beta,,,74,18,V,R,
37,37,37,0,0,44,36,1149,['n'],0,left,['9'],5,957,[0.1054302],29,44,hard,plus,dotcolour,beta,,,74,18,V,R,
38,38,38,0,0,53,27,950,['c'],1,left,['0'],6,1011,[0.08328543],92,53,easy,plus,dotcolour,beta,,,74,18,V,R,
39,39,39,0,0,36,44,965,['n'],1,right,['9'],5,774,[-0.0849928],95,44,hard,plus,dotcolour,beta,,,74,18,V,R,
40,40,40,0,0,36,44,517,['n'],1,right,['9'],5,1051,[-0.07923798],91,44,hard,plus,dotcolour,beta,,,74,18,V,R,
41,41,41,0,0,47,33,1217,['c'],1,left,['9'],5,657,[0.12006633],98,47,medium,plus,dotcolour,beta,,,74,18,V,R,
42,42,0,1,0,53,27,683,['n'],0,left,['1'],1,2829,[0.470059],1,53,easy,plus,dotcolour,beta,,,74,18,V,R,
43,43,1,1,0,27,53,532,['n'],1,right,['0'],6,1031,[-0.24019288],99,53,easy,plus,dotcolour,beta,,,74,18,V,R,
44,44,2,1,0,36,44,3031,['n'],1,right,['8'],4,1574,[-0.20602818],98,44,hard,plus,dotcolour,beta,,,74,18,V,R,
45,45,3,1,0,53,27,1649,['c'],1,left,['0'],6,695,[0.2960855],100,53,easy,plus,dotcolour,beta,,,74,18,V,R,
46,46,4,1,0,36,44,983,['n'],1,right,['9'],5,845,[-0.07896872],93,44,hard,plus,dotcolour,beta,,,74,18,V,R,
47,47,5,1,0,47,33,2082,['n'],0,left,['8'],4,586,[0.0024744],78,47,medium,plus,dotcolour,beta,,,74,18,V,R,
48,48,6,1,0,47,33,614,['n'],0,left,['8'],4,747,[0.07693399],39,47,medium,plus,dotcolour,beta,,,74,18,V,R,
49,49,7,1,0,27,53,534,['n'],1,right,['8'],4,489,[-0.29023564],100,53,easy,plus,dotcolour,beta,,,74,18,V,R,
50,50,8,1,0,33,47,632,['n'],1,right,['8'],4,733,[-0.12856474],98,47,medium,plus,dotcolour,beta,,,74,18,V,R,
51,51,9,1,0,47,33,749,['c'],1,left,['8'],4,1355,[0.09463065],91,47,medium,plus,dotcolour,beta,,,74,18,V,R,
52,52,10,1,0,47,33,748,['c'],1,left,['8'],4,248,[0.09791142],100,47,medium,plus,dotcolour,beta,,,74,18,V,R,
53,53,11,1,0,36,44,1133,['c'],0,right,['8'],4,170,[0.00914348],94,44,hard,plus,dotcolour,beta,,,74,18,V,R,
54,54,12,1,0,33,47,900,['n'],1,right,['9'],5,1258,[-0.1783294],98,47,medium,plus,dotcolour,beta,,,74,18,V,R,
55,55,13,1,0,53,27,1616,['c'],1,left,['0'],6,1000,[0.36732445],100,53,easy,plus,dotcolour,beta,,,74,18,V,R,
56,56,14,1,0,33,47,682,['n'],1,right,['0'],6,526,[-0.26111676],100,47,medium,plus,dotcolour,beta,,,74,18,V,R,
57,57,15,1,0,33,47,899,['n'],1,right,['0'],6,575,[-0.12108155],99,47,medium,plus,dotcolour,beta,,,74,18,V,R,
58,58,16,1,0,27,53,482,['n'],1,right,['0'],6,605,[-0.00577364],81,53,easy,plus,dotcolour,beta,,,74,18,V,R,
59,59,17,1,0,44,36,533,['n'],0,left,['0'],6,569,[0.02732578],66,44,hard,plus,dotcolour,beta,,,74,18,V,R,
60,60,18,1,0,44,36,650,['n'],0,left,['0'],6,585,[-0.12952465],99,44,hard,plus,dotcolour,beta,,,74,18,V,R,
61,61,19,1,0,36,44,481,['n'],1,right,['3'],3,4472,[-0.38220166],98,44,hard,plus,dotcolour,beta,,,74,18,V,R,
62,62,20,1,0,36,44,499,['n'],1,right,['0'],6,546,[-0.22625082],100,44,hard,plus,dotcolour,beta,,,74,18,V,R,
63,63,21,1,0,53,27,964,['c'],1,left,['0'],6,350,[0.05956904],97,53,easy,plus,dotcolour,beta,,,74,18,V,R,
64,64,22,1,0,53,27,500,['c'],1,left,['0'],6,254,[0.11278594],100,53,easy,plus,dotcolour,beta,,,74,18,V,R,
65,65,23,1,0,44,36,1317,['c'],1,left,['8'],4,1633,[0.13716351],94,44,hard,plus,dotcolour,beta,,,74,18,V,R,
66,66,24,1,0,47,33,815,['c'],1,left,['9'],5,1544,[0.39574682],100,47,medium,plus,dotcolour,beta,,,74,18,V,R,
67,67,25,1,0,27,53,1099,['n'],1,right,['0'],6,247,[-0.06826461],99,53,easy,plus,dotcolour,beta,,,74,18,V,R,
68,68,26,1,0,53,27,1132,['c'],1,left,['0'],6,203,[0.11159238],100,53,easy,plus,dotcolour,beta,,,74,18,V,R,
69,69,27,1,0,27,53,1001,['n'],1,right,['0'],6,163,[-0.14463799],100,53,easy,plus,dotcolour,beta,,,74,18,V,R,
70,70,28,1,0,44,36,1498,['c'],1,left,['8'],4,1123,[0.05127613],86,44,hard,plus,dotcolour,beta,,,74,18,V,R,
71,71,29,1,0,27,53,1131,['n'],1,right,['0'],6,305,[-0.14136835],100,53,easy,plus,dotcolour,beta,,,74,18,V,R,
72,72,30,1,0,53,27,1099,['c'],1,left,['0'],6,515,[0.13544599],99,53,easy,plus,dotcolour,beta,,,74,18,V,R,
73,73,31,1,0,47,33,1266,['c'],1,left,['8'],4,1549,[0.11628189],92,47,medium,plus,dotcolour,beta,,,74,18,V,R,
74,74,32,1,0,44,36,800,['c'],1,left,['0'],6,272,[0.04645217],97,44,hard,plus,dotcolour,beta,,,74,18,V,R,
75,75,33,1,0,33,47,916,['c'],0,right,['0'],6,371,[0.08283201],98,47,medium,plus,dotcolour,beta,,,74,18,V,R,
76,76,34,1,0,36,44,781,['c'],0,right,['0'],6,310,[0.016851],91,44,hard,plus,dotcolour,beta,,,74,18,V,R,
77,77,35,1,0,33,47,797,['c'],0,right,['9'],5,619,[-0.01110496],73,47,medium,plus,dotcolour,beta,,,74,18,V,R,
78,78,36,1,0,47,33,665,['c'],1,left,['0'],6,329,[0.24195974],100,47,medium,plus,dotcolour,beta,,,74,18,V,R,
79,79,37,1,0,33,47,1183,['n'],1,right,['9'],5,301,[-0.07258374],99,47,medium,plus,dotcolour,beta,,,74,18,V,R,
80,80,38,1,0,44,36,1197,['c'],1,left,['0'],6,348,[0.10637592],99,44,hard,plus,dotcolour,beta,,,74,18,V,R,
81,81,39,1,0,27,53,764,['n'],1,right,['0'],6,264,[-0.12298431],100,53,easy,plus,dotcolour,beta,,,74,18,V,R,
82,82,40,1,0,36,44,1282,['c'],0,right,['8'],4,588,[-0.00230948],78,44,hard,plus,dotcolour,beta,,,74,18,V,R,
83,83,41,1,0,44,36,747,['n'],0,left,['8'],4,832,[0.02393575],65,44,hard,plus,dotcolour,beta,,,74,18,V,R,
84,84,0,2,0,36,44,749,['n'],1,right,['0'],6,1216,[-0.35068494],100,44,hard,plus,dotcolour,beta,,,74,18,V,R,
85,85,1,2,0,53,27,666,['c'],1,left,['0'],6,342,[0.05351066],97,53,easy,plus,dotcolour,beta,,,74,18,V,R,
86,86,2,2,0,44,36,915,['c'],1,left,['0'],6,245,[0.14761341],100,44,hard,plus,dotcolour,beta,,,74,18,V,R,
87,87,3,2,0,53,27,430,['c'],1,left,['0'],6,259,[0.12430155],100,53,easy,plus,dotcolour,beta,,,74,18,V,R,
88,88,4,2,0,33,47,1465,['n'],1,right,['0'],6,184,[-0.05696938],99,47,medium,plus,dotcolour,beta,,,74,18,V,R,
89,89,5,2,0,33,47,1133,['n'],1,right,['0'],6,165,[-0.0705956],100,47,medium,plus,dotcolour,beta,,,74,18,V,R,
90,90,6,2,0,33,47,915,['n'],1,right,['0'],6,155,[-0.14346324],100,47,medium,plus,dotcolour,beta,,,74,18,V,R,
91,91,7,2,0,36,44,3998,['n'],1,right,['0'],6,262,[-0.14761611],100,44,hard,plus,dotcolour,beta,,,74,18,V,R,
92,92,8,2,0,47,33,1599,['c'],1,left,['8'],4,438,[0.05574509],95,47,medium,plus,dotcolour,beta,,,74,18,V,R,
93,93,9,2,0,44,36,915,['n'],0,left,['0'],6,208,[-0.050497],99,44,hard,plus,dotcolour,beta,,,74,18,V,R,
94,94,10,2,0,47,33,551,['n'],0,left,['1'],1,2324,[0.09578296],38,47,medium,plus,dotcolour,beta,,,74,18,V,R,
95,95,11,2,0,53,27,916,['c'],1,left,['9'],5,1003,[0.24519919],100,53,easy,plus,dotcolour,beta,,,74,18,V,R,
96,96,12,2,0,53,27,1017,['c'],1,left,['9'],5,315,[0.06024327],98,53,easy,plus,dotcolour,beta,,,74,18,V,R,
97,97,13,2,0,53,27,466,['c'],1,left,['0'],6,421,[0.14495861],100,53,easy,plus,dotcolour,beta,,,74,18,V,R,
98,98,14,2,0,27,53,1265,['n'],1,right,['0'],6,243,[-0.09847941],100,53,easy,plus,dotcolour,beta,,,74,18,V,R,
99,99,15,2,0,33,47,2600,['c'],0,right,['8'],4,1787,[-0.12442049],28,47,medium,plus,dotcolour,beta,,,74,18,V,R,
100,100,16,2,0,36,44,1916,['n'],1,right,['0'],6,320,[-0.1345444],100,44,hard,plus,dotcolour,beta,,,74,18,V,R,
101,101,17,2,0,44,36,950,['n'],0,left,['0'],6,263,[0.06932209],38,44,hard,plus,dotcolour,beta,,,74,18,V,R,
102,102,18,2,0,44,36,715,['n'],0,left,['0'],6,218,[-0.08758034],100,44,hard,plus,dotcolour,beta,,,74,18,V,R,
103,103,19,2,0,47,33,4166,['n'],0,left,['0'],6,356,[-0.06042893],97,47,medium,plus,dotcolour,beta,,,74,18,V,R,
104,104,20,2,0,47,33,2164,['c'],1,left,['8'],4,801,[0.08399001],94,47,medium,plus,dotcolour,beta,,,74,18,V,R,
105,105,21,2,0,33,47,716,['n'],1,right,['0'],6,246,[-0.0801674],99,47,medium,plus,dotcolour,beta,,,74,18,V,R,
106,106,22,2,0,27,53,583,['n'],1,right,['0'],6,286,[-0.15313048],100,53,easy,plus,dotcolour,beta,,,74,18,V,R,
107,107,23,2,0,44,36,783,['c'],1,left,['8'],4,437,[0.13733777],99,44,hard,plus,dotcolour,beta,,,74,18,V,R,
108,108,24,2,0,47,33,60,['c'],1,left,['8'],4,1829,[0.13620674],93,47,medium,plus,dotcolour,beta,,,74,18,V,R,
109,109,25,2,0,33,47,732,['n'],1,right,['0'],6,199,[-0.07338499],99,47,medium,plus,dotcolour,beta,,,74,18,V,R,
110,110,26,2,0,47,33,767,['c'],1,left,['0'],6,242,[0.08058518],99,47,medium,plus,dotcolour,beta,,,74,18,V,R,
111,111,27,2,0,47,33,884,['c'],1,left,['0'],6,327,[0.04312665],96,47,medium,plus,dotcolour,beta,,,74,18,V,R,
112,112,28,2,0,27,53,832,['n'],1,right,['0'],6,274,[-0.06248215],98,53,easy,plus,dotcolour,beta,,,74,18,V,R,
113,113,29,2,0,33,47,699,['n'],1,right,['0'],6,252,[-0.1240204],100,47,medium,plus,dotcolour,beta,,,74,18,V,R,
114,114,30,2,0,27,53,949,['n'],1,right,['0'],6,510,[-0.1498463],99,53,easy,plus,dotcolour,beta,,,74,18,V,R,
115,115,31,2,0,36,44,1416,['c'],0,right,['8'],4,2123,[-0.02637806],59,44,hard,plus,dotcolour,beta,,,74,18,V,R,
116,116,32,2,0,27,53,1264,['n'],1,right,['0'],6,228,[-0.11163335],100,53,easy,plus,dotcolour,beta,,,74,18,V,R,
117,117,33,2,0,44,36,648,['n'],0,left,['0'],6,282,[-0.03652697],96,44,hard,plus,dotcolour,beta,,,74,18,V,R,
118,118,34,2,0,44,36,882,['c'],1,left,['0'],6,437,[0.17118379],100,44,hard,plus,dotcolour,beta,,,74,18,V,R,
119,119,35,2,0,53,27,649,['n'],0,left,['2'],2,1218,[0.02934433],61,53,easy,plus,dotcolour,beta,,,74,18,V,R,
120,120,36,2,0,36,44,1264,['n'],1,right,['0'],6,368,[-0.15062601],100,44,hard,plus,dotcolour,beta,,,74,18,V,R,
121,121,37,2,0,36,44,1297,['c'],0,right,['8'],4,3431,[-0.02812449],57,44,hard,plus,dotcolour,beta,,,74,18,V,R,
122,122,38,2,0,53,27,1031,['c'],1,left,['9'],5,806,[0.130009],98,53,easy,plus,dotcolour,beta,,,74,18,V,R,
123,123,39,2,0,36,44,781,['n'],1,right,['0'],6,264,[-0.05005922],98,44,hard,plus,dotcolour,beta,,,74,18,V,R,
124,124,40,2,0,27,53,599,['n'],1,right,['0'],6,310,[-0.21979378],100,53,easy,plus,dotcolour,beta,,,74,18,V,R,
125,125,41,2,0,27,53,1201,['n'],1,right,['0'],6,299,[-0.07310386],99,53,easy,plus,dotcolour,beta,,,74,18,V,R,
126,0,0,3,1,27,53,683,['n'],1,right,['0'],6,309,[-0.16878421],98,53,easy,minus,dotcolour,beta,,,74,18,V,R,
127,1,1,3,1,33,47,632,['n'],1,right,['0'],6,552,[-0.03349408],37,47,medium,minus,dotcolour,beta,,,74,18,V,R,
128,2,2,3,1,53,27,798,['c'],1,left,['0'],6,315,[0.13226694],92,53,easy,minus,dotcolour,beta,,,74,18,V,R,
129,3,3,3,1,36,44,916,['c'],0,right,['8'],4,700,[0.05464197],50,44,hard,minus,dotcolour,beta,,,74,18,V,R,
130,4,4,3,1,53,27,765,['c'],1,left,['8'],4,330,[0.06993836],61,53,easy,minus,dotcolour,beta,,,74,18,V,R,
131,5,5,3,1,44,36,1148,['c'],1,left,['8'],4,248,[0.14240986],96,44,hard,minus,dotcolour,beta,,,74,18,V,R,
132,6,6,3,1,27,53,698,['n'],1,right,['0'],6,308,[-0.11630913],88,53,easy,minus,dotcolour,beta,,,74,18,V,R,
133,7,7,3,1,27,53,432,['n'],1,right,['0'],6,287,[-0.03554417],34,53,easy,minus,dotcolour,beta,,,74,18,V,R,
134,8,8,3,1,33,47,616,['n'],1,right,['0'],6,437,[0.03245655],8,47,medium,minus,dotcolour,beta,,,74,18,V,R,
135,9,9,3,1,53,27,1150,['c'],1,left,['0'],6,207,[0.1166477],92,53,easy,minus,dotcolour,beta,,,74,18,V,R,
136,10,10,3,1,36,44,800,['c'],0,right,['8'],4,312,[0.05291958],48,44,hard,minus,dotcolour,beta,,,74,18,V,R,
137,11,11,3,1,44,36,548,['c'],1,left,['8'],4,406,[0.0267379],31,44,hard,minus,dotcolour,beta,,,74,18,V,R,
138,12,12,3,1,53,27,582,['c'],1,left,['0'],6,424,[0.14346336],92,53,easy,minus,dotcolour,beta,,,74,18,V,R,
139,13,13,3,1,33,47,1365,['n'],1,right,['8'],4,586,[-0.15582953],91,47,medium,minus,dotcolour,beta,,,74,18,V,R,
140,14,14,3,1,44,36,1497,['c'],1,left,['8'],4,192,[0.10313761],88,44,hard,minus,dotcolour,beta,,,74,18,V,R,
141,15,15,3,1,33,47,998,['n'],1,right,['9'],5,858,[-0.05272471],49,47,medium,minus,dotcolour,beta,,,74,18,V,R,
142,16,16,3,1,47,33,798,['c'],1,left,['8'],4,225,[0.1347089],95,47,medium,minus,dotcolour,beta,,,74,18,V,R,
143,17,17,3,1,47,33,481,['c'],1,left,['0'],6,221,[0.09424504],81,47,medium,minus,dotcolour,beta,,,74,18,V,R,
144,18,18,3,1,33,47,1032,['n'],1,right,['8'],4,301,[-0.03440557],33,47,medium,minus,dotcolour,beta,,,74,18,V,R,
145,19,19,3,1,47,33,583,['c'],1,left,['8'],4,363,[0.0551189],50,47,medium,minus,dotcolour,beta,,,74,18,V,R,
146,20,20,3,1,36,44,800,['c'],0,right,['8'],4,215,[0.10124142],85,44,hard,minus,dotcolour,beta,,,74,18,V,R,
147,21,21,3,1,44,36,449,['c'],1,left,['8'],4,278,[0.13934927],95,44,hard,minus,dotcolour,beta,,,74,18,V,R,
148,22,22,3,1,53,27,433,['c'],1,left,['0'],6,426,[0.05401238],49,53,easy,minus,dotcolour,beta,,,74,18,V,R,
149,23,23,3,1,27,53,1131,['n'],1,right,['0'],6,309,[-0.22034491],100,53,easy,minus,dotcolour,beta,,,74,18,V,R,
150,24,24,3,1,53,27,582,['c'],1,left,['0'],6,387,[0.08941369],73,53,easy,minus,dotcolour,beta,,,74,18,V,R,
151,25,25,3,1,47,33,531,['c'],1,left,['0'],6,216,[0.02432721],23,47,medium,minus,dotcolour,beta,,,74,18,V,R,
152,26,26,3,1,47,33,832,['c'],1,left,['0'],6,207,[0.05240814],47,47,medium,minus,dotcolour,beta,,,74,18,V,R,
153,27,27,3,1,33,47,365,['c'],0,right,['0'],6,258,[0.05120232],46,47,medium,minus,dotcolour,beta,,,74,18,V,R,
154,28,28,3,1,44,36,582,['c'],1,left,['0'],6,273,[0.06849742],61,44,hard,minus,dotcolour,beta,,,74,18,V,R,
155,29,29,3,1,27,53,1032,['n'],1,right,['0'],6,294,[-0.11128815],86,53,easy,minus,dotcolour,beta,,,74,18,V,R,
156,30,30,3,1,47,33,682,['c'],1,left,['8'],4,225,[0.1662073],99,47,medium,minus,dotcolour,beta,,,74,18,V,R,
157,31,31,3,1,53,27,747,['c'],1,left,['0'],6,188,[0.1167359],93,53,easy,minus,dotcolour,beta,,,74,18,V,R,
158,32,32,3,1,44,36,416,['c'],1,left,['8'],4,460,[0.12865388],87,44,hard,minus,dotcolour,beta,,,74,18,V,R,
159,33,33,3,1,47,33,999,['n'],0,left,['3'],3,1916,[0.21427085],3,47,medium,minus,dotcolour,beta,,,74,18,V,R,
160,34,34,3,1,36,44,917,['c'],0,right,['3'],3,1051,[0.08896043],64,44,hard,minus,dotcolour,beta,,,74,18,V,R,
161,35,35,3,1,27,53,849,['n'],1,right,['0'],6,272,[-0.07904045],69,53,easy,minus,dotcolour,beta,,,74,18,V,R,
162,36,36,3,1,33,47,1199,['n'],1,right,['0'],6,223,[-0.03600082],32,47,medium,minus,dotcolour,beta,,,74,18,V,R,
163,37,37,3,1,44,36,2148,['n'],0,left,['3'],3,1682,[-0.16541547],82,44,hard,minus,dotcolour,beta,,,74,18,V,R,
164,38,38,3,1,27,53,616,['n'],1,right,['0'],6,583,[-0.07825218],63,53,easy,minus,dotcolour,beta,,,74,18,V,R,
165,39,39,3,1,36,44,967,['n'],1,right,['0'],6,235,[-0.06363377],57,44,hard,minus,dotcolour,beta,,,74,18,V,R,
166,40,40,3,1,36,44,896,['n'],1,right,['0'],6,199,[-0.07957462],72,44,hard,minus,dotcolour,beta,,,74,18,V,R,
167,41,41,3,1,36,44,8948,['n'],1,right,['3'],3,1476,[-0.19712668],89,44,hard,minus,dotcolour,beta,,,74,18,V,R,
168,42,0,4,1,36,44,849,['n'],1,right,['0'],6,107,[-0.08661047],85,44,hard,minus,dotcolour,beta,,,74,18,V,R,
169,43,1,4,1,44,36,399,['n'],0,left,['0'],6,264,[-0.05207619],47,44,hard,minus,dotcolour,beta,,,74,18,V,R,
170,44,2,4,1,53,27,1083,['c'],1,left,['0'],6,219,[0.20617787],100,53,easy,minus,dotcolour,beta,,,74,18,V,R,
171,45,3,4,1,27,53,716,['n'],1,right,['0'],6,287,[-0.03564517],34,53,easy,minus,dotcolour,beta,,,74,18,V,R,
172,46,4,4,1,36,44,933,['n'],1,right,['0'],6,264,[-0.11507722],89,44,hard,minus,dotcolour,beta,,,74,18,V,R,
173,47,5,4,1,36,44,1099,['n'],1,right,['9'],5,515,[-0.14142473],90,44,hard,minus,dotcolour,beta,,,74,18,V,R,
174,48,6,4,1,47,33,615,['c'],1,left,['9'],5,199,[0.14298113],97,47,medium,minus,dotcolour,beta,,,74,18,V,R,
175,49,7,4,1,44,36,915,['n'],0,left,['3'],3,1173,[-0.09614528],66,44,hard,minus,dotcolour,beta,,,74,18,V,R,
176,50,8,4,1,47,33,1733,['c'],1,left,['9'],5,410,[0.16550755],96,47,medium,minus,dotcolour,beta,,,74,18,V,R,
177,51,9,4,1,27,53,750,['n'],1,right,['9'],5,181,[-0.17936758],99,53,easy,minus,dotcolour,beta,,,74,18,V,R,
178,52,10,4,1,53,27,683,['c'],1,left,['9'],5,212,[0.02651045],24,53,easy,minus,dotcolour,beta,,,74,18,V,R,
179,53,11,4,1,27,53,616,['n'],1,right,['9'],5,276,[-0.12384293],91,53,easy,minus,dotcolour,beta,,,74,18,V,R,
180,54,12,4,1,47,33,1282,['c'],1,left,['9'],5,199,[0.07609949],70,47,medium,minus,dotcolour,beta,,,74,18,V,R,
181,55,13,4,1,33,47,1514,['n'],1,right,['9'],5,244,[-0.0789362],70,47,medium,minus,dotcolour,beta,,,74,18,V,R,
182,56,14,4,1,44,36,848,['c'],1,left,['9'],5,249,[0.09728974],82,44,hard,minus,dotcolour,beta,,,74,18,V,R,
183,57,15,4,1,47,33,914,['c'],1,left,['9'],5,261,[0.16461504],98,47,medium,minus,dotcolour,beta,,,74,18,V,R,
184,58,16,4,1,47,33,917,['c'],1,left,['9'],5,207,[0.17276677],99,47,medium,minus,dotcolour,beta,,,74,18,V,R,
185,59,17,4,1,36,44,750,['n'],1,right,['9'],5,194,[-0.11226886],91,44,hard,minus,dotcolour,beta,,,74,18,V,R,
186,60,18,4,1,53,27,1098,['c'],1,left,['9'],5,216,[0.11740184],92,53,easy,minus,dotcolour,beta,,,74,18,V,R,
187,61,19,4,1,44,36,932,['c'],1,left,['9'],5,179,[0.09915133],86,44,hard,minus,dotcolour,beta,,,74,18,V,R,
188,62,20,4,1,33,47,715,['n'],1,right,['9'],5,201,[-0.14774302],98,47,medium,minus,dotcolour,beta,,,74,18,V,R,
189,63,21,4,1,47,33,832,['c'],1,left,['0'],6,345,[0.15001728],95,47,medium,minus,dotcolour,beta,,,74,18,V,R,
190,64,22,4,1,27,53,783,['n'],1,right,['0'],6,214,[-0.15170947],98,53,easy,minus,dotcolour,beta,,,74,18,V,R,
191,65,23,4,1,27,53,716,['n'],1,right,['0'],6,202,[-0.14303776],97,53,easy,minus,dotcolour,beta,,,74,18,V,R,
192,66,24,4,1,33,47,1816,['c'],0,right,['9'],5,210,[0.13799759],96,47,medium,minus,dotcolour,beta,,,74,18,V,R,
193,67,25,4,1,36,44,716,['n'],1,right,['0'],6,191,[-0.11850356],93,44,hard,minus,dotcolour,beta,,,74,18,V,R,
194,68,26,4,1,44,36,1099,['c'],1,left,['0'],6,604,[0.02816162],35,44,hard,minus,dotcolour,beta,,,74,18,V,R,
195,69,27,4,1,36,44,1015,['n'],1,right,['9'],5,252,[-0.10862952],87,44,hard,minus,dotcolour,beta,,,74,18,V,R,
196,70,28,4,1,44,36,1166,['n'],0,left,['8'],4,525,[-0.03388248],37,44,hard,minus,dotcolour,beta,,,74,18,V,R,
197,71,29,4,1,33,47,715,['n'],1,right,['8'],4,237,[-0.07162197],64,47,medium,minus,dotcolour,beta,,,74,18,V,R,
198,72,30,4,1,36,44,516,['n'],1,right,['8'],4,448,[-0.04982612],46,44,hard,minus,dotcolour,beta,,,74,18,V,R,
199,73,31,4,1,33,47,648,['n'],1,right,['3'],3,1198,[-0.13598622],79,47,medium,minus,dotcolour,beta,,,74,18,V,R,
200,74,32,4,1,33,47,882,['c'],0,right,['3'],3,588,[0.0811017],65,47,medium,minus,dotcolour,beta,,,74,18,V,R,
201,75,33,4,1,27,53,933,['n'],1,right,['9'],5,320,[-0.04176747],39,53,easy,minus,dotcolour,beta,,,74,18,V,R,
202,76,34,4,1,53,27,650,['c'],1,left,['9'],5,211,[0.02567574],24,53,easy,minus,dotcolour,beta,,,74,18,V,R,
203,77,35,4,1,27,53,157,['c'],0,right,['0'],6,644,[-0.11450751],2,53,easy,minus,dotcolour,beta,,,74,18,V,R,
204,78,36,4,1,53,27,1182,['c'],1,left,['9'],5,236,[0.07678025],69,53,easy,minus,dotcolour,beta,,,74,18,V,R,
205,79,37,4,1,44,36,698,['c'],1,left,['8'],4,800,[0.11356256],76,44,hard,minus,dotcolour,beta,,,74,18,V,R,
206,80,38,4,1,53,27,750,['c'],1,left,['8'],4,779,[0.06929871],57,53,easy,minus,dotcolour,beta,,,74,18,V,R,
207,81,39,4,1,47,33,733,['c'],1,left,['8'],4,216,[0.07069631],64,47,medium,minus,dotcolour,beta,,,74,18,V,R,
208,82,40,4,1,33,47,1016,['n'],1,right,['9'],5,232,[-0.09784011],83,47,medium,minus,dotcolour,beta,,,74,18,V,R,
209,83,41,4,1,53,27,766,['c'],1,left,['8'],4,226,[0.09740184],83,53,easy,minus,dotcolour,beta,,,74,18,V,R,
210,84,0,5,1,33,47,1083,['n'],1,right,['9'],5,629,[-0.25403974],99,47,medium,minus,dotcolour,beta,,,74,18,V,R,
211,85,1,5,1,44,36,2284,['c'],1,left,['9'],5,186,[0.14533667],98,44,hard,minus,dotcolour,beta,,,74,18,V,R,
212,86,2,5,1,53,27,1617,['n'],0,left,['8'],4,996,[0.04989253],13,53,easy,minus,dotcolour,beta,,,74,18,V,R,
213,87,3,5,1,27,53,749,['n'],1,right,['9'],5,375,[-0.1490808],94,53,easy,minus,dotcolour,beta,,,74,18,V,R,
214,88,4,5,1,44,36,632,['c'],1,left,['8'],4,384,[0.15048375],94,44,hard,minus,dotcolour,beta,,,74,18,V,R,
215,89,5,5,1,47,33,1031,['c'],1,left,['8'],4,953,[0.30874871],99,47,medium,minus,dotcolour,beta,,,74,18,V,R,
216,90,6,5,1,36,44,1067,['n'],1,right,['8'],4,210,[-0.03428827],30,44,hard,minus,dotcolour,beta,,,74,18,V,R,
217,91,7,5,1,53,27,699,['c'],1,left,['8'],4,535,[0.11910067],83,53,easy,minus,dotcolour,beta,,,74,18,V,R,
218,92,8,5,1,27,53,1182,['n'],1,right,['8'],4,900,[-0.19018675],93,53,easy,minus,dotcolour,beta,,,74,18,V,R,
219,93,9,5,1,27,53,632,['n'],1,right,['8'],4,376,[-0.099171],78,53,easy,minus,dotcolour,beta,,,74,18,V,R,
220,94,10,5,1,36,44,848,['n'],1,right,['9'],5,272,[0.00290933],12,44,hard,minus,dotcolour,beta,,,74,18,V,R,
221,95,11,5,1,53,27,749,['c'],1,left,['9'],5,320,[0.16215344],97,53,easy,minus,dotcolour,beta,,,74,18,V,R,
222,96,12,5,1,47,33,665,['c'],1,left,['9'],5,243,[0.10398624],85,47,medium,minus,dotcolour,beta,,,74,18,V,R,
223,97,13,5,1,53,27,1082,['c'],1,left,['9'],5,231,[0.17509309],99,53,easy,minus,dotcolour,beta,,,74,18,V,R,
224,98,14,5,1,33,47,715,['n'],1,right,['9'],5,187,[-0.09755419],85,47,medium,minus,dotcolour,beta,,,74,18,V,R,
225,99,15,5,1,53,27,665,['n'],0,left,['1'],1,1059,[0.05957952],12,53,easy,minus,dotcolour,beta,,,74,18,V,R,
226,100,16,5,1,36,44,865,['n'],1,right,['9'],5,647,[-0.03026504],36,44,hard,minus,dotcolour,beta,,,74,18,V,R,
227,101,17,5,1,27,53,764,['n'],1,right,['0'],6,272,[-0.09543699],80,53,easy,minus,dotcolour,beta,,,74,18,V,R,
228,102,18,5,1,33,47,566,['n'],1,right,['0'],6,183,[-0.10499763],89,47,medium,minus,dotcolour,beta,,,74,18,V,R,
229,103,19,5,1,44,36,932,['n'],0,left,['8'],4,236,[-0.0346669],32,44,hard,minus,dotcolour,beta,,,74,18,V,R,
230,104,20,5,1,36,44,532,['n'],1,right,['9'],5,327,[-0.21907232],99,44,hard,minus,dotcolour,beta,,,74,18,V,R,
231,105,21,5,1,36,44,582,['n'],1,right,['8'],4,652,[-0.00553678],25,44,hard,minus,dotcolour,beta,,,74,18,V,R,
232,106,22,5,1,53,27,448,['c'],1,left,['0'],6,353,[0.09485925],77,53,easy,minus,dotcolour,beta,,,74,18,V,R,
233,107,23,5,1,47,33,448,['c'],1,left,['0'],6,170,[0.11919202],94,47,medium,minus,dotcolour,beta,,,74,18,V,R,
234,108,24,5,1,27,53,900,['n'],1,right,['0'],6,114,[-0.08204521],80,53,easy,minus,dotcolour,beta,,,74,18,V,R,
235,109,25,5,1,33,47,532,['n'],1,right,['0'],6,145,[-0.14635497],99,47,medium,minus,dotcolour,beta,,,74,18,V,R,
236,110,26,5,1,33,47,516,['n'],1,right,['9'],5,176,[-0.16421181],99,47,medium,minus,dotcolour,beta,,,74,18,V,R,
237,111,27,5,1,27,53,415,['n'],1,right,['9'],5,386,[-0.22515327],99,53,easy,minus,dotcolour,beta,,,74,18,V,R,
238,112,28,5,1,33,47,600,['n'],1,right,['9'],5,652,[-0.15511202],90,47,medium,minus,dotcolour,beta,,,74,18,V,R,
239,113,29,5,1,53,27,699,['c'],1,left,['9'],5,264,[0.18721596],99,53,easy,minus,dotcolour,beta,,,74,18,V,R,
240,114,30,5,1,27,53,633,['c'],0,right,['1'],1,1317,[-0.1968341],2,53,easy,minus,dotcolour,beta,,,74,18,V,R,
241,115,31,5,1,44,36,901,['c'],1,left,['9'],5,214,[0.00954219],14,44,hard,minus,dotcolour,beta,,,74,18,V,R,
242,116,32,5,1,33,47,750,['c'],0,right,['8'],4,392,[0.03554366],36,47,medium,minus,dotcolour,beta,,,74,18,V,R,
243,117,33,5,1,36,44,749,['c'],0,right,['8'],4,213,[0.01138869],15,44,hard,minus,dotcolour,beta,,,74,18,V,R,
244,118,34,5,1,44,36,632,['c'],1,left,['9'],5,244,[0.15839474],98,44,hard,minus,dotcolour,beta,,,74,18,V,R,
245,119,35,5,1,44,36,515,['c'],1,left,['9'],5,199,[0.09214833],81,44,hard,minus,dotcolour,beta,,,74,18,V,R,
246,120,36,5,1,47,33,500,['c'],1,left,['9'],5,173,[0.09081011],82,47,medium,minus,dotcolour,beta,,,74,18,V,R,
247,121,37,5,1,47,33,482,['c'],1,left,['9'],5,348,[0.05336169],48,47,medium,minus,dotcolour,beta,,,74,18,V,R,
248,122,38,5,1,47,33,383,['c'],1,left,['0'],6,280,[0.1545306],97,47,medium,minus,dotcolour,beta,,,74,18,V,R,
249,123,39,5,1,36,44,1198,['n'],1,right,['0'],6,190,[-0.155551],98,44,hard,minus,dotcolour,beta,,,74,18,V,R,
250,124,40,5,1,44,36,532,['c'],1,left,['9'],5,146,[0.10619686],92,44,hard,minus,dotcolour,beta,,,74,18,V,R,
251,125,41,5,1,47,33,732,['c'],1,left,['9'],5,145,[0.0832128],79,47,medium,minus,dotcolour,beta,,,74,18,V,R,
252,0,0,6,2,33,47,716,['n'],1,right,['0'],6,205,[-0.01641308],95,47,medium,plus,dotcolour,beta,,,74,18,V,R,
253,1,1,6,2,47,33,798,['c'],1,left,['0'],6,111,[0.04031744],99,47,medium,plus,dotcolour,beta,,,74,18,V,R,
254,2,2,6,2,47,33,564,['c'],1,left,['0'],6,157,[0.12131615],100,47,medium,plus,dotcolour,beta,,,74,18,V,R,
255,3,3,6,2,44,36,865,['n'],0,left,['8'],4,174,[-0.05582636],99,44,hard,plus,dotcolour,beta,,,74,18,V,R,
256,4,4,6,2,27,53,1083,['c'],0,right,['2'],2,717,[-0.06989897],42,53,easy,plus,dotcolour,beta,,,74,18,V,R,
257,5,5,6,2,27,53,847,['n'],1,right,['0'],6,159,[-0.09274638],100,53,easy,plus,dotcolour,beta,,,74,18,V,R,
258,6,6,6,2,53,27,617,['c'],1,left,['0'],6,247,[0.14640981],100,53,easy,plus,dotcolour,beta,,,74,18,V,R,
259,7,7,6,2,27,53,683,['n'],1,right,['0'],6,156,[-0.09501146],100,53,easy,plus,dotcolour,beta,,,74,18,V,R,
260,8,8,6,2,53,27,849,['c'],1,left,['0'],6,102,[0.05980754],100,53,easy,plus,dotcolour,beta,,,74,18,V,R,
261,9,9,6,2,33,47,600,['n'],1,right,['0'],6,138,[-0.10868591],100,47,medium,plus,dotcolour,beta,,,74,18,V,R,
262,10,10,6,2,47,33,531,['n'],0,left,['1'],1,970,[0.22027363],5,47,medium,plus,dotcolour,beta,,,74,18,V,R,
263,11,11,6,2,53,27,1000,['c'],1,left,['0'],6,181,[0.13236348],100,53,easy,plus,dotcolour,beta,,,74,18,V,R,
264,12,12,6,2,47,33,499,['c'],1,left,['0'],6,170,[0.08143292],100,47,medium,plus,dotcolour,beta,,,74,18,V,R,
265,13,13,6,2,47,33,399,['c'],1,left,['0'],6,213,[0.04421071],98,47,medium,plus,dotcolour,beta,,,74,18,V,R,
266,14,14,6,2,27,53,417,['c'],0,right,['1'],1,638,[0.14343001],99,53,easy,plus,dotcolour,beta,,,74,18,V,R,
267,15,15,6,2,44,36,666,['c'],1,left,['2'],2,442,[0.15880909],100,44,hard,plus,dotcolour,beta,,,74,18,V,R,
268,16,16,6,2,47,33,516,['c'],1,left,['8'],4,262,[0.07159699],99,47,medium,plus,dotcolour,beta,,,74,18,V,R,
269,17,17,6,2,36,44,530,['c'],0,right,['8'],4,207,[0.0096795],93,44,hard,plus,dotcolour,beta,,,74,18,V,R,
270,18,18,6,2,27,53,698,['n'],1,right,['0'],6,172,[-0.10525729],100,53,easy,plus,dotcolour,beta,,,74,18,V,R,
271,19,19,6,2,27,53,666,['n'],1,right,['0'],6,180,[-0.14018097],100,53,easy,plus,dotcolour,beta,,,74,18,V,R,
272,20,20,6,2,36,44,716,['c'],0,right,['0'],6,202,[0.09974297],100,44,hard,plus,dotcolour,beta,,,74,18,V,R,
273,21,21,6,2,53,27,616,['n'],0,left,['0'],6,186,[-0.07952238],100,53,easy,plus,dotcolour,beta,,,74,18,V,R,
274,22,22,6,2,36,44,1314,['n'],1,right,['8'],4,199,[-0.06725944],99,44,hard,plus,dotcolour,beta,,,74,18,V,R,
275,23,23,6,2,44,36,630,['c'],1,left,['0'],6,160,[0.14021146],100,44,hard,plus,dotcolour,beta,,,74,18,V,R,
276,24,24,6,2,36,44,632,['n'],1,right,['0'],6,169,[-0.11111683],100,44,hard,plus,dotcolour,beta,,,74,18,V,R,
277,25,25,6,2,33,47,1065,['n'],1,right,['0'],6,145,[-0.08460563],100,47,medium,plus,dotcolour,beta,,,74,18,V,R,
278,26,26,6,2,47,33,1131,['c'],1,left,['8'],4,104,[0.13614075],100,47,medium,plus,dotcolour,beta,,,74,18,V,R,
279,27,27,6,2,53,27,765,['c'],1,left,['8'],4,167,[0.00633616],94,53,easy,plus,dotcolour,beta,,,74,18,V,R,
280,28,28,6,2,27,53,715,['n'],1,right,['0'],6,132,[-0.08629747],100,53,easy,plus,dotcolour,beta,,,74,18,V,R,
281,29,29,6,2,53,27,515,['c'],1,left,['0'],6,212,[0.09714096],100,53,easy,plus,dotcolour,beta,,,74,18,V,R,
282,30,30,6,2,33,47,1214,['n'],1,right,['0'],6,253,[-0.11165642],100,47,medium,plus,dotcolour,beta,,,74,18,V,R,
283,31,31,6,2,53,27,600,['c'],1,left,['0'],6,84,[0.05858081],100,53,easy,plus,dotcolour,beta,,,74,18,V,R,
284,32,32,6,2,36,44,799,['c'],0,right,['0'],6,170,[0.10152984],100,44,hard,plus,dotcolour,beta,,,74,18,V,R,
285,33,33,6,2,36,44,549,['c'],0,right,['9'],5,151,[0.00339125],94,44,hard,plus,dotcolour,beta,,,74,18,V,R,
286,34,34,6,2,44,36,732,['c'],1,left,['9'],5,110,[0.06548752],100,44,hard,plus,dotcolour,beta,,,74,18,V,R,
287,35,35,6,2,33,47,596,['n'],1,right,['9'],5,98,[-0.02849847],99,47,medium,plus,dotcolour,beta,,,74,18,V,R,
288,36,36,6,2,33,47,748,['c'],0,right,['2'],2,922,[-0.02964731],62,47,medium,plus,dotcolour,beta,,,74,18,V,R,
289,37,37,6,2,44,36,948,['c'],1,left,['2'],2,609,[0.06938952],95,44,hard,plus,dotcolour,beta,,,74,18,V,R,
290,38,38,6,2,33,47,698,['n'],1,right,['9'],5,478,[-0.08861584],98,47,medium,plus,dotcolour,beta,,,74,18,V,R,
291,39,39,6,2,36,44,1131,['n'],1,right,['9'],5,119,[-0.03283747],99,44,hard,plus,dotcolour,beta,,,74,18,V,R,
292,40,40,6,2,44,36,766,['n'],0,left,['9'],5,181,[-0.1560298],100,44,hard,plus,dotcolour,beta,,,74,18,V,R,
293,41,41,6,2,44,36,683,['c'],1,left,['9'],5,236,[0.05025588],98,44,hard,plus,dotcolour,beta,,,74,18,V,R,
294,42,0,7,2,53,27,1016,['n'],0,left,['8'],4,613,[-0.11259143],98,53,easy,plus,dotcolour,beta,,,74,18,V,R,
295,43,1,7,2,27,53,1033,['n'],1,right,['0'],6,149,[-0.09934498],100,53,easy,plus,dotcolour,beta,,,74,18,V,R,
296,44,2,7,2,47,33,716,['c'],1,left,['0'],6,116,[0.08434932],100,47,medium,plus,dotcolour,beta,,,74,18,V,R,
297,45,3,7,2,44,36,798,['c'],1,left,['8'],4,888,[-0.10281058],29,44,hard,plus,dotcolour,beta,,,74,18,V,R,
298,46,4,7,2,27,53,581,['n'],1,right,['0'],6,311,[-0.14206415],100,53,easy,plus,dotcolour,beta,,,74,18,V,R,
299,47,5,7,2,27,53,598,['n'],1,right,['0'],6,268,[-0.11630866],100,53,easy,plus,dotcolour,beta,,,74,18,V,R,
300,48,6,7,2,33,47,699,['n'],1,right,['9'],5,207,[-0.12552643],100,47,medium,plus,dotcolour,beta,,,74,18,V,R,
301,49,7,7,2,36,44,449,['n'],1,right,['9'],5,190,[-0.12393069],100,44,hard,plus,dotcolour,beta,,,74,18,V,R,
302,50,8,7,2,36,44,815,['n'],1,right,['9'],5,223,[-0.10046011],100,44,hard,plus,dotcolour,beta,,,74,18,V,R,
303,51,9,7,2,33,47,466,['n'],1,right,['9'],5,205,[-0.12493312],100,47,medium,plus,dotcolour,beta,,,74,18,V,R,
304,52,10,7,2,53,27,647,['c'],1,left,['9'],5,189,[0.03313252],98,53,easy,plus,dotcolour,beta,,,74,18,V,R,
305,53,11,7,2,44,36,348,['c'],1,left,['0'],6,152,[0.11711836],100,44,hard,plus,dotcolour,beta,,,74,18,V,R,
306,54,12,7,2,44,36,816,['n'],0,left,['8'],4,219,[-0.15804971],100,44,hard,plus,dotcolour,beta,,,74,18,V,R,
307,55,13,7,2,33,47,1217,['n'],1,right,['8'],4,163,[-0.08885702],100,47,medium,plus,dotcolour,beta,,,74,18,V,R,
308,56,14,7,2,53,27,782,['c'],1,left,['9'],5,183,[0.02691022],97,53,easy,plus,dotcolour,beta,,,74,18,V,R,
309,57,15,7,2,36,44,866,['n'],1,right,['9'],5,199,[-0.07229935],99,44,hard,plus,dotcolour,beta,,,74,18,V,R,
310,58,16,7,2,44,36,832,['c'],1,left,['9'],5,191,[0.14512415],100,44,hard,plus,dotcolour,beta,,,74,18,V,R,
311,59,17,7,2,47,33,399,['c'],1,left,['9'],5,161,[0.07625705],100,47,medium,plus,dotcolour,beta,,,74,18,V,R,
312,60,18,7,2,47,33,317,['c'],1,left,['9'],5,127,[0.05345696],100,47,medium,plus,dotcolour,beta,,,74,18,V,R,
313,61,19,7,2,27,53,482,['c'],0,right,['3'],3,664,[-0.04086952],58,53,easy,plus,dotcolour,beta,,,74,18,V,R,
314,62,20,7,2,27,53,799,['n'],1,right,['9'],5,222,[-0.10583296],100,53,easy,plus,dotcolour,beta,,,74,18,V,R,
315,63,21,7,2,53,27,681,['c'],1,left,['9'],5,140,[0.11074602],100,53,easy,plus,dotcolour,beta,,,74,18,V,R,
316,64,22,7,2,33,47,847,['c'],0,right,['9'],5,109,[0.1498828],100,47,medium,plus,dotcolour,beta,,,74,18,V,R,
317,65,23,7,2,47,33,465,['c'],1,left,['9'],5,71,[0.06857687],100,47,medium,plus,dotcolour,beta,,,74,18,V,R,
318,66,24,7,2,53,27,482,['c'],1,left,['9'],5,147,[0.08899407],100,53,easy,plus,dotcolour,beta,,,74,18,V,R,
319,67,25,7,2,47,33,398,['c'],1,left,['9'],5,126,[0.10499173],100,47,medium,plus,dotcolour,beta,,,74,18,V,R,
320,68,26,7,2,44,36,666,['c'],1,left,['8'],4,160,[0.06988048],100,44,hard,plus,dotcolour,beta,,,74,18,V,R,
321,69,27,7,2,36,44,398,['c'],0,right,['8'],4,171,[-0.03396112],72,44,hard,plus,dotcolour,beta,,,74,18,V,R,
322,70,28,7,2,36,44,317,['c'],0,right,['9'],5,121,[0.01450159],97,44,hard,plus,dotcolour,beta,,,74,18,V,R,
323,71,29,7,2,33,47,515,['c'],0,right,['8'],4,257,[0.03593958],96,47,medium,plus,dotcolour,beta,,,74,18,V,R,
324,72,30,7,2,36,44,749,['c'],0,right,['2'],2,803,[0.18656999],99,44,hard,plus,dotcolour,beta,,,74,18,V,R,
325,73,31,7,2,36,44,948,['c'],0,right,['8'],4,221,[0.04319159],98,44,hard,plus,dotcolour,beta,,,74,18,V,R,
326,74,32,7,2,27,53,615,['n'],1,right,['9'],5,134,[-0.13012488],100,53,easy,plus,dotcolour,beta,,,74,18,V,R,
327,75,33,7,2,53,27,348,['n'],0,left,['0'],6,307,[-0.0521163],97,53,easy,plus,dotcolour,beta,,,74,18,V,R,
328,76,34,7,2,44,36,650,['n'],0,left,['0'],6,230,[-0.09764335],100,44,hard,plus,dotcolour,beta,,,74,18,V,R,
329,77,35,7,2,33,47,700,['n'],1,right,['0'],6,235,[-0.17250427],100,47,medium,plus,dotcolour,beta,,,74,18,V,R,
330,78,36,7,2,33,47,1064,['c'],0,right,['8'],4,248,[0.09384461],100,47,medium,plus,dotcolour,beta,,,74,18,V,R,
331,79,37,7,2,27,53,564,['c'],0,right,['0'],6,281,[0.00537883],89,53,easy,plus,dotcolour,beta,,,74,18,V,R,
332,80,38,7,2,44,36,1165,['c'],1,left,['0'],6,176,[0.08776611],100,44,hard,plus,dotcolour,beta,,,74,18,V,R,
333,81,39,7,2,53,27,648,['c'],1,left,['9'],5,449,[0.1437811],100,53,easy,plus,dotcolour,beta,,,74,18,V,R,
334,82,40,7,2,47,33,598,['c'],1,left,['0'],6,1360,[0.22666082],99,47,medium,plus,dotcolour,beta,,,74,18,V,R,
335,83,41,7,2,47,33,715,['c'],1,left,['9'],5,135,[0.08401072],100,47,medium,plus,dotcolour,beta,,,74,18,V,R,
336,84,0,8,2,33,47,850,['n'],1,right,['8'],4,78,[-0.10129803],100,47,medium,plus,dotcolour,beta,,,74,18,V,R,
337,85,1,8,2,36,44,398,['n'],1,right,['9'],5,165,[-0.0356003],98,44,hard,plus,dotcolour,beta,,,74,18,V,R,
338,86,2,8,2,36,44,516,['n'],1,right,['9'],5,107,[-0.06790982],100,44,hard,plus,dotcolour,beta,,,74,18,V,R,
339,87,3,8,2,47,33,366,['c'],1,left,['9'],5,225,[0.04438067],98,47,medium,plus,dotcolour,beta,,,74,18,V,R,
340,88,4,8,2,47,33,647,['c'],1,left,['9'],5,112,[0.09051402],100,47,medium,plus,dotcolour,beta,,,74,18,V,R,
341,89,5,8,2,27,53,550,['n'],1,right,['9'],5,134,[-0.11343617],100,53,easy,plus,dotcolour,beta,,,74,18,V,R,
342,90,6,8,2,53,27,649,['c'],1,left,['9'],5,105,[0.10042761],100,53,easy,plus,dotcolour,beta,,,74,18,V,R,
343,91,7,8,2,53,27,748,['c'],1,left,['8'],4,176,[0.1301316],100,53,easy,plus,dotcolour,beta,,,74,18,V,R,
344,92,8,8,2,53,27,566,['c'],1,left,['9'],5,100,[0.07098478],100,53,easy,plus,dotcolour,beta,,,74,18,V,R,
345,93,9,8,2,36,44,783,['n'],1,right,['9'],5,138,[-0.08346359],100,44,hard,plus,dotcolour,beta,,,74,18,V,R,
346,94,10,8,2,33,47,483,['n'],1,right,['9'],5,131,[0.00190028],94,47,medium,plus,dotcolour,beta,,,74,18,V,R,
347,95,11,8,2,36,44,615,['n'],1,right,['9'],5,126,[-0.10310154],100,44,hard,plus,dotcolour,beta,,,74,18,V,R,
348,96,12,8,2,44,36,732,['c'],1,left,['3'],3,190,[0.14380614],100,44,hard,plus,dotcolour,beta,,,74,18,V,R,
349,97,13,8,2,33,47,533,['n'],1,right,['9'],5,114,[-0.05891254],100,47,medium,plus,dotcolour,beta,,,74,18,V,R,
350,98,14,8,2,44,36,464,['n'],0,left,['9'],5,92,[-0.05395035],100,44,hard,plus,dotcolour,beta,,,74,18,V,R,
351,99,15,8,2,53,27,767,['c'],1,left,['9'],5,123,[0.11044192],100,53,easy,plus,dotcolour,beta,,,74,18,V,R,
352,100,16,8,2,27,53,434,['n'],1,right,['9'],5,271,[-0.12066122],100,53,easy,plus,dotcolour,beta,,,74,18,V,R,
353,101,17,8,2,27,53,466,['n'],1,right,['9'],5,83,[-0.10038684],100,53,easy,plus,dotcolour,beta,,,74,18,V,R,
354,102,18,8,2,47,33,1000,['n'],0,left,['8'],4,177,[-0.08421637],100,47,medium,plus,dotcolour,beta,,,74,18,V,R,
355,103,19,8,2,44,36,1214,['n'],0,left,['8'],4,291,[-0.12141013],100,44,hard,plus,dotcolour,beta,,,74,18,V,R,
356,104,20,8,2,53,27,783,['c'],1,left,['9'],5,185,[0.13675663],100,53,easy,plus,dotcolour,beta,,,74,18,V,R,
357,105,21,8,2,44,36,582,['c'],1,left,['9'],5,77,[0.09167736],100,44,hard,plus,dotcolour,beta,,,74,18,V,R,
358,106,22,8,2,27,53,532,['n'],1,right,['9'],5,149,[-0.13425642],100,53,easy,plus,dotcolour,beta,,,74,18,V,R,
359,107,23,8,2,47,33,898,['n'],0,left,['8'],4,269,[-0.02904566],95,47,medium,plus,dotcolour,beta,,,74,18,V,R,
360,108,24,8,2,53,27,799,['c'],1,left,['9'],5,116,[0.07120911],100,53,easy,plus,dotcolour,beta,,,74,18,V,R,
361,109,25,8,2,47,33,583,['c'],1,left,['9'],5,98,[0.08486599],100,47,medium,plus,dotcolour,beta,,,74,18,V,R,
362,110,26,8,2,27,53,332,['c'],0,right,['9'],5,106,[0.00614994],97,53,easy,plus,dotcolour,beta,,,74,18,V,R,
363,111,27,8,2,36,44,398,['n'],1,right,['9'],5,87,[-0.03084493],99,44,hard,plus,dotcolour,beta,,,74,18,V,R,
364,112,28,8,2,36,44,481,['n'],1,right,['9'],5,106,[-0.05295664],100,44,hard,plus,dotcolour,beta,,,74,18,V,R,
365,113,29,8,2,33,47,266,['n'],1,right,['9'],5,140,[-0.15207368],100,47,medium,plus,dotcolour,beta,,,74,18,V,R,
366,114,30,8,2,53,27,6881,['c'],1,left,['9'],5,111,[0.03862509],99,53,easy,plus,dotcolour,beta,,,74,18,V,R,
367,115,31,8,2,27,53,464,['n'],1,right,['9'],5,73,[-0.0614651],100,53,easy,plus,dotcolour,beta,,,74,18,V,R,
368,116,32,8,2,47,33,481,['n'],0,left,['9'],5,83,[-0.0972959],100,47,medium,plus,dotcolour,beta,,,74,18,V,R,
369,117,33,8,2,47,33,350,['n'],0,left,['9'],5,116,[-0.06882957],100,47,medium,plus,dotcolour,beta,,,74,18,V,R,
370,118,34,8,2,44,36,364,['n'],0,left,['9'],5,66,[-0.04977823],100,44,hard,plus,dotcolour,beta,,,74,18,V,R,
371,119,35,8,2,27,53,415,['n'],1,right,['9'],5,120,[-0.13156073],100,53,easy,plus,dotcolour,beta,,,74,18,V,R,
372,120,36,8,2,44,36,398,['n'],0,left,['8'],4,261,[0.02134409],77,44,hard,plus,dotcolour,beta,,,74,18,V,R,
373,121,37,8,2,33,47,399,['n'],1,right,['9'],5,100,[-0.14205231],100,47,medium,plus,dotcolour,beta,,,74,18,V,R,
374,122,38,8,2,36,44,399,['n'],1,right,['9'],5,147,[-0.02663274],98,44,hard,plus,dotcolour,beta,,,74,18,V,R,
375,123,39,8,2,33,47,464,['n'],1,right,['9'],5,91,[-0.0629377],100,47,medium,plus,dotcolour,beta,,,74,18,V,R,
376,124,40,8,2,33,47,483,['n'],1,right,['9'],5,125,[-0.1209269],100,47,medium,plus,dotcolour,beta,,,74,18,V,R,
377,125,41,8,2,44,36,514,['n'],0,left,['9'],5,61,[-0.02402895],100,44,hard,plus,dotcolour,beta,,,74,18,V,R,
378,0,0,9,3,33,47,1200,['n'],1,right,['9'],5,61,[-0.06365659],64,47,medium,minus,dotcolour,beta,,,74,18,V,R,
379,1,1,9,3,33,47,448,['n'],1,right,['9'],5,58,[-0.07883765],85,47,medium,minus,dotcolour,beta,,,74,18,V,R,
380,2,2,9,3,47,33,398,['n'],0,left,['9'],5,114,[-0.06616519],64,47,medium,minus,dotcolour,beta,,,74,18,V,R,
381,3,3,9,3,47,33,432,['c'],1,left,['9'],5,101,[0.11783076],97,47,medium,minus,dotcolour,beta,,,74,18,V,R,
382,4,4,9,3,47,33,599,['c'],1,left,['9'],5,99,[0.05934429],55,47,medium,minus,dotcolour,beta,,,74,18,V,R,
383,5,5,9,3,36,44,414,['c'],0,right,['9'],5,128,[0.08020033],78,44,hard,minus,dotcolour,beta,,,74,18,V,R,
384,6,6,9,3,53,27,665,['c'],1,left,['8'],4,233,[0.0702129],63,53,easy,minus,dotcolour,beta,,,74,18,V,R,
385,7,7,9,3,36,44,649,['n'],1,right,['9'],5,144,[-0.11171615],93,44,hard,minus,dotcolour,beta,,,74,18,V,R,
386,8,8,9,3,36,44,681,['n'],1,right,['9'],5,104,[-0.08138407],81,44,hard,minus,dotcolour,beta,,,74,18,V,R,
387,9,9,9,3,53,27,582,['c'],1,left,['8'],4,174,[0.09509168],85,53,easy,minus,dotcolour,beta,,,74,18,V,R,
388,10,10,9,3,44,36,497,['c'],1,left,['8'],4,196,[0.08847791],79,44,hard,minus,dotcolour,beta,,,74,18,V,R,
389,11,11,9,3,44,36,381,['c'],1,left,['8'],4,166,[-0.01010862],5,44,hard,minus,dotcolour,beta,,,74,18,V,R,
390,12,12,9,3,53,27,598,['n'],0,left,['1'],1,754,[0.134236],2,53,easy,minus,dotcolour,beta,,,74,18,V,R,
391,13,13,9,3,53,27,1015,['c'],1,left,['8'],4,196,[0.10208992],87,53,easy,minus,dotcolour,beta,,,74,18,V,R,
392,14,14,9,3,36,44,597,['n'],1,right,['9'],5,141,[-0.06248546],58,44,hard,minus,dotcolour,beta,,,74,18,V,R,
393,15,15,9,3,47,33,565,['c'],1,left,['9'],5,138,[0.09415213],87,47,medium,minus,dotcolour,beta,,,74,18,V,R,
394,16,16,9,3,33,47,432,['c'],0,right,['9'],5,133,[0.09709465],89,47,medium,minus,dotcolour,beta,,,74,18,V,R,
395,17,17,9,3,53,27,382,['c'],1,left,['9'],5,114,[0.07651365],75,53,easy,minus,dotcolour,beta,,,74,18,V,R,
396,18,18,9,3,33,47,2782,['c'],0,right,['9'],5,200,[0.10227001],87,47,medium,minus,dotcolour,beta,,,74,18,V,R,
397,19,19,9,3,44,36,798,['n'],0,left,['8'],4,193,[-0.0828366],75,44,hard,minus,dotcolour,beta,,,74,18,V,R,
398,20,20,9,3,27,53,748,['n'],1,right,['9'],5,117,[-0.08738914],84,53,easy,minus,dotcolour,beta,,,74,18,V,R,
399,21,21,9,3,44,36,584,['c'],1,left,['9'],5,139,[0.16579457],100,44,hard,minus,dotcolour,beta,,,74,18,V,R,
400,22,22,9,3,33,47,783,['n'],1,right,['9'],5,183,[-0.08735222],79,47,medium,minus,dotcolour,beta,,,74,18,V,R,
401,23,23,9,3,53,27,715,['c'],1,left,['9'],5,117,[0.10952592],94,53,easy,minus,dotcolour,beta,,,74,18,V,R,
402,24,24,9,3,27,53,798,['n'],1,right,['9'],5,122,[-0.11362322],95,53,easy,minus,dotcolour,beta,,,74,18,V,R,
403,25,25,9,3,27,53,581,['n'],1,right,['9'],5,167,[-0.04982807],44,53,easy,minus,dotcolour,beta,,,74,18,V,R,
404,26,26,9,3,47,33,683,['c'],1,left,['9'],5,135,[0.08768336],83,47,medium,minus,dotcolour,beta,,,74,18,V,R,
405,27,27,9,3,53,27,716,['c'],1,left,['9'],5,207,[0.11257531],91,53,easy,minus,dotcolour,beta,,,74,18,V,R,
406,28,28,9,3,27,53,667,['n'],1,right,['9'],5,157,[-0.13406947],97,53,easy,minus,dotcolour,beta,,,74,18,V,R,
407,29,29,9,3,44,36,1200,['c'],1,left,['8'],4,489,[0.09203819],72,44,hard,minus,dotcolour,beta,,,74,18,V,R,
408,30,30,9,3,36,44,714,['n'],1,right,['8'],4,569,[-0.13180807],86,44,hard,minus,dotcolour,beta,,,74,18,V,R,
409,31,31,9,3,33,47,500,['n'],1,right,['9'],5,232,[-0.10229464],85,47,medium,minus,dotcolour,beta,,,74,18,V,R,
410,32,32,9,3,27,53,416,['n'],1,right,['0'],6,152,[-0.13534611],98,53,easy,minus,dotcolour,beta,,,74,18,V,R,
411,33,33,9,3,44,36,715,['c'],1,left,['8'],4,143,[0.07354157],70,44,hard,minus,dotcolour,beta,,,74,18,V,R,
412,34,34,9,3,27,53,714,['n'],1,right,['9'],5,190,[-0.06967374],64,53,easy,minus,dotcolour,beta,,,74,18,V,R,
413,35,35,9,3,36,44,665,['n'],1,right,['0'],6,229,[-0.07394806],67,44,hard,minus,dotcolour,beta,,,74,18,V,R,
414,36,36,9,3,44,36,566,['n'],0,left,['0'],6,159,[-0.04195976],35,44,hard,minus,dotcolour,beta,,,74,18,V,R,
415,37,37,9,3,33,47,413,['n'],1,right,['0'],6,113,[-0.12881007],98,47,medium,minus,dotcolour,beta,,,74,18,V,R,
416,38,38,9,3,47,33,766,['c'],1,left,['9'],5,127,[0.02129004],15,47,medium,minus,dotcolour,beta,,,74,18,V,R,
417,39,39,9,3,27,53,715,['n'],1,right,['0'],6,95,[-0.11041678],96,53,easy,minus,dotcolour,beta,,,74,18,V,R,
418,40,40,9,3,36,44,767,['n'],1,right,['9'],5,206,[-0.07718051],70,44,hard,minus,dotcolour,beta,,,74,18,V,R,
419,41,41,9,3,47,33,598,['c'],1,left,['9'],5,63,[0.04527436],32,47,medium,minus,dotcolour,beta,,,74,18,V,R,
420,42,0,10,3,47,33,116,['n'],0,left,['9'],5,539,[0.0777377],4,47,medium,minus,dotcolour,beta,,,74,18,V,R,
421,43,1,10,3,33,47,517,['n'],1,right,['9'],5,49,[-0.09265001],95,47,medium,minus,dotcolour,beta,,,74,18,V,R,
422,44,2,10,3,36,44,515,['n'],1,right,['9'],5,68,[-0.05119314],43,44,hard,minus,dotcolour,beta,,,74,18,V,R,
423,45,3,10,3,47,33,665,['c'],1,left,['9'],5,72,[0.08795118],90,47,medium,minus,dotcolour,beta,,,74,18,V,R,
424,46,4,10,3,44,36,1033,['n'],0,left,['8'],4,566,[0.04966343],7,44,hard,minus,dotcolour,beta,,,74,18,V,R,
425,47,5,10,3,36,44,548,['n'],1,right,['9'],5,116,[-0.11002893],95,44,hard,minus,dotcolour,beta,,,74,18,V,R,
426,48,6,10,3,53,27,700,['c'],1,left,['9'],5,132,[0.13152186],98,53,easy,minus,dotcolour,beta,,,74,18,V,R,
427,49,7,10,3,27,53,566,['n'],1,right,['9'],5,122,[-0.11779049],96,53,easy,minus,dotcolour,beta,,,74,18,V,R,
428,50,8,10,3,53,27,517,['c'],1,left,['9'],5,106,[0.08810394],86,53,easy,minus,dotcolour,beta,,,74,18,V,R,
429,51,9,10,3,33,47,498,['n'],1,right,['9'],5,188,[-0.08447885],77,47,medium,minus,dotcolour,beta,,,74,18,V,R,
430,52,10,10,3,36,44,400,['n'],1,right,['9'],5,109,[-0.02755367],18,44,hard,minus,dotcolour,beta,,,74,18,V,R,
431,53,11,10,3,47,33,433,['n'],0,left,['8'],4,386,[-0.01135361],22,47,medium,minus,dotcolour,beta,,,74,18,V,R,
432,54,12,10,3,53,27,883,['c'],1,left,['9'],5,160,[0.02171281],18,53,easy,minus,dotcolour,beta,,,74,18,V,R,
433,55,13,10,3,36,44,933,['n'],1,right,['9'],5,134,[-0.07364741],71,44,hard,minus,dotcolour,beta,,,74,18,V,R,
434,56,14,10,3,36,44,565,['n'],1,right,['9'],5,75,[-0.03600602],22,44,hard,minus,dotcolour,beta,,,74,18,V,R,
435,57,15,10,3,44,36,615,['n'],0,left,['8'],4,497,[0.01949253],13,44,hard,minus,dotcolour,beta,,,74,18,V,R,
436,58,16,10,3,53,27,1566,['c'],1,left,['0'],6,360,[0.17665912],97,53,easy,minus,dotcolour,beta,,,74,18,V,R,
437,59,17,10,3,44,36,631,['n'],0,left,['0'],6,146,[-0.00372143],8,44,hard,minus,dotcolour,beta,,,74,18,V,R,
438,60,18,10,3,47,33,933,['n'],0,left,['8'],4,128,[-0.100064],90,47,medium,minus,dotcolour,beta,,,74,18,V,R,
439,61,19,10,3,27,53,415,['n'],1,right,['8'],4,156,[-0.05138009],45,53,easy,minus,dotcolour,beta,,,74,18,V,R,
440,62,20,10,3,47,33,649,['n'],0,left,['2'],2,965,[0.10464231],5,47,medium,minus,dotcolour,beta,,,74,18,V,R,
441,63,21,10,3,27,53,565,['n'],1,right,['9'],5,129,[-0.13455405],98,53,easy,minus,dotcolour,beta,,,74,18,V,R,
442,64,22,10,3,33,47,515,['n'],1,right,['0'],6,144,[-0.10345722],91,47,medium,minus,dotcolour,beta,,,74,18,V,R,
443,65,23,10,3,44,36,716,['c'],1,left,['0'],6,151,[0.08635169],81,44,hard,minus,dotcolour,beta,,,74,18,V,R,
444,66,24,10,3,27,53,767,['n'],1,right,['0'],6,125,[-0.11438155],95,53,easy,minus,dotcolour,beta,,,74,18,V,R,
445,67,25,10,3,47,33,632,['c'],1,left,['8'],4,304,[0.11102231],86,47,medium,minus,dotcolour,beta,,,74,18,V,R,
446,68,26,10,3,53,27,732,['c'],1,left,['8'],4,119,[0.04963658],42,53,easy,minus,dotcolour,beta,,,74,18,V,R,
447,69,27,10,3,53,27,930,['c'],1,left,['8'],4,223,[0.15717211],98,53,easy,minus,dotcolour,beta,,,74,18,V,R,
448,70,28,10,3,44,36,765,['n'],0,left,['9'],5,241,[-0.03919127],35,44,hard,minus,dotcolour,beta,,,74,18,V,R,
449,71,29,10,3,36,44,916,['n'],1,right,['0'],6,212,[-0.12662179],94,44,hard,minus,dotcolour,beta,,,74,18,V,R,
450,72,30,10,3,47,33,632,['c'],1,left,['9'],5,172,[0.07318049],68,47,medium,minus,dotcolour,beta,,,74,18,V,R,
451,73,31,10,3,27,53,547,['n'],1,right,['0'],6,121,[-0.07119354],69,53,easy,minus,dotcolour,beta,,,74,18,V,R,
452,74,32,10,3,27,53,581,['n'],1,right,['0'],6,94,[-0.06694135],66,53,easy,minus,dotcolour,beta,,,74,18,V,R,
453,75,33,10,3,27,53,533,['n'],1,right,['0'],6,183,[-0.1795979],99,53,easy,minus,dotcolour,beta,,,74,18,V,R,
454,76,34,10,3,36,44,697,['n'],1,right,['0'],6,165,[-0.14422531],98,44,hard,minus,dotcolour,beta,,,74,18,V,R,
455,77,35,10,3,33,47,766,['n'],1,right,['0'],6,393,[-0.01407731],23,47,medium,minus,dotcolour,beta,,,74,18,V,R,
456,78,36,10,3,33,47,449,['n'],1,right,['0'],6,112,[-0.06905838],67,47,medium,minus,dotcolour,beta,,,74,18,V,R,
457,79,37,10,3,44,36,349,['n'],0,left,['8'],4,664,[-0.04818206],46,44,hard,minus,dotcolour,beta,,,74,18,V,R,
458,80,38,10,3,53,27,467,['n'],0,left,['8'],4,228,[-0.05270519],47,53,easy,minus,dotcolour,beta,,,74,18,V,R,
459,81,39,10,3,33,47,582,['n'],1,right,['8'],4,181,[-0.09116079],82,47,medium,minus,dotcolour,beta,,,74,18,V,R,
460,82,40,10,3,33,47,683,['n'],1,right,['9'],5,116,[-0.08414247],82,47,medium,minus,dotcolour,beta,,,74,18,V,R,
461,83,41,10,3,44,36,1448,['n'],0,left,['2'],2,759,[-0.02584544],35,44,hard,minus,dotcolour,beta,,,74,18,V,R,
462,84,0,11,3,27,53,733,['n'],1,right,['0'],6,162,[-0.11483381],93,53,easy,minus,dotcolour,beta,,,74,18,V,R,
463,85,1,11,3,33,47,681,['n'],1,right,['9'],5,162,[-0.05742006],52,47,medium,minus,dotcolour,beta,,,74,18,V,R,
464,86,2,11,3,33,47,530,['n'],1,right,['8'],4,511,[-0.22588082],99,47,medium,minus,dotcolour,beta,,,74,18,V,R,
465,87,3,11,3,36,44,914,['c'],0,right,['3'],3,208,[0.0583023],53,44,hard,minus,dotcolour,beta,,,74,18,V,R,
466,88,4,11,3,33,47,367,['n'],1,right,['8'],4,178,[-0.11686108],93,47,medium,minus,dotcolour,beta,,,74,18,V,R,
467,89,5,11,3,53,27,1032,['c'],1,left,['9'],5,155,[0.07966339],75,53,easy,minus,dotcolour,beta,,,74,18,V,R,
468,90,6,11,3,53,27,881,['c'],1,left,['0'],6,108,[0.07459716],74,53,easy,minus,dotcolour,beta,,,74,18,V,R,
469,91,7,11,3,33,47,1632,['n'],1,right,['9'],5,199,[-0.06446975],59,47,medium,minus,dotcolour,beta,,,74,18,V,R,
470,92,8,11,3,47,33,1833,['c'],1,left,['9'],5,232,[0.15538228],98,47,medium,minus,dotcolour,beta,,,74,18,V,R,
471,93,9,11,3,47,33,1599,['n'],0,left,['3'],3,1168,[0.12496888],5,47,medium,minus,dotcolour,beta,,,74,18,V,R,
472,94,10,11,3,53,27,834,['c'],1,left,['9'],5,281,[0.10926825],86,53,easy,minus,dotcolour,beta,,,74,18,V,R,
473,95,11,11,3,27,53,634,['n'],1,right,['0'],6,198,[-0.02308304],21,53,easy,minus,dotcolour,beta,,,74,18,V,R,
474,96,12,11,3,27,53,550,['n'],1,right,['0'],6,130,[-0.16764838],100,53,easy,minus,dotcolour,beta,,,74,18,V,R,
475,97,13,11,3,33,47,784,['n'],1,right,['0'],6,247,[-0.11404012],89,47,medium,minus,dotcolour,beta,,,74,18,V,R,
476,98,14,11,3,44,36,917,['c'],1,left,['9'],5,170,[0.09378482],84,44,hard,minus,dotcolour,beta,,,74,18,V,R,
477,99,15,11,3,47,33,750,['c'],1,left,['9'],5,95,[0.05443633],48,47,medium,minus,dotcolour,beta,,,74,18,V,R,
478,100,16,11,3,53,27,701,['c'],1,left,['0'],6,464,[0.06166839],54,53,easy,minus,dotcolour,beta,,,74,18,V,R,
479,101,17,11,3,44,36,601,['n'],0,left,['9'],5,135,[-0.11753538],95,44,hard,minus,dotcolour,beta,,,74,18,V,R,
480,102,18,11,3,36,44,934,['n'],1,right,['9'],5,958,[-0.10195538],70,44,hard,minus,dotcolour,beta,,,74,18,V,R,
481,103,19,11,3,27,53,434,['n'],1,right,['0'],6,120,[-0.10032268],91,53,easy,minus,dotcolour,beta,,,74,18,V,R,
482,104,20,11,3,44,36,1917,['n'],0,left,['8'],4,168,[-0.05740626],52,44,hard,minus,dotcolour,beta,,,74,18,V,R,
483,105,21,11,3,36,44,450,['n'],1,right,['8'],4,193,[-0.16217632],99,44,hard,minus,dotcolour,beta,,,74,18,V,R,
484,106,22,11,3,36,44,600,['n'],1,right,['8'],4,115,[-0.07459164],73,44,hard,minus,dotcolour,beta,,,74,18,V,R,
485,107,23,11,3,47,33,650,['c'],1,left,['9'],5,110,[0.07593693],75,47,medium,minus,dotcolour,beta,,,74,18,V,R,
486,108,24,11,3,53,27,917,['c'],1,left,['9'],5,150,[0.08213292],77,53,easy,minus,dotcolour,beta,,,74,18,V,R,
487,109,25,11,3,27,53,400,['c'],0,right,['2'],2,874,[0.0191028],33,53,easy,minus,dotcolour,beta,,,74,18,V,R,
488,110,26,11,3,47,33,667,['c'],1,left,['2'],2,430,[0.0879812],71,47,medium,minus,dotcolour,beta,,,74,18,V,R,
489,111,27,11,3,27,53,817,['n'],1,right,['0'],6,189,[-0.05815662],53,53,easy,minus,dotcolour,beta,,,74,18,V,R,
490,112,28,11,3,33,47,850,['n'],1,right,['0'],6,166,[-0.14326898],98,47,medium,minus,dotcolour,beta,,,74,18,V,R,
491,113,29,11,3,53,27,767,['c'],1,left,['0'],6,138,[0.08973655],84,53,easy,minus,dotcolour,beta,,,74,18,V,R,
492,114,30,11,3,36,44,733,['n'],1,right,['0'],6,105,[-0.09164015],88,44,hard,minus,dotcolour,beta,,,74,18,V,R,
493,115,31,11,3,47,33,600,['c'],1,left,['0'],6,142,[0.0427072],35,47,medium,minus,dotcolour,beta,,,74,18,V,R,
494,116,32,11,3,53,27,850,['c'],1,left,['9'],5,112,[0.12505025],98,53,easy,minus,dotcolour,beta,,,74,18,V,R,
495,117,33,11,3,44,36,1201,['c'],1,left,['8'],4,301,[0.08088413],70,44,hard,minus,dotcolour,beta,,,74,18,V,R,
496,118,34,11,3,44,36,800,['c'],1,left,['3'],3,355,[0.01266454],21,44,hard,minus,dotcolour,beta,,,74,18,V,R,
497,119,35,11,3,36,44,565,['n'],1,right,['9'],5,159,[-0.04573523],39,44,hard,minus,dotcolour,beta,,,74,18,V,R,
498,120,36,11,3,27,53,849,['n'],1,right,['0'],6,728,[-0.09521004],70,53,easy,minus,dotcolour,beta,,,74,18,V,R,
499,121,37,11,3,33,47,3548,['n'],1,right,['0'],6,247,[-0.07988102],71,47,medium,minus,dotcolour,beta,,,74,18,V,R,
500,122,38,11,3,44,36,849,['n'],0,left,['8'],4,276,[-0.1270986],92,44,hard,minus,dotcolour,beta,,,74,18,V,R,
501,123,39,11,3,36,44,416,['n'],1,right,['9'],5,154,[-0.07757636],73,44,hard,minus,dotcolour,beta,,,74,18,V,R,
502,124,40,11,3,44,36,415,['n'],0,left,['9'],5,189,[-0.06030763],55,44,hard,minus,dotcolour,beta,,,74,18,V,R,
503,125,41,11,3,47,33,431,['n'],0,left,['9'],5,189,[-0.07430739],68,47,medium,minus,dotcolour,beta,,,74,18,V,R,
504,0,0,12,4,53,27,102,['n'],0,left,['2'],2,958,[0.06352021],46,53,easy,plus,dotcolour,beta,,,74,18,V,R,
505,1,1,12,4,33,47,749,['n'],1,right,['9'],5,114,[-0.03663346],99,47,medium,plus,dotcolour,beta,,,74,18,V,R,
506,2,2,12,4,27,53,650,['n'],1,right,['9'],5,101,[-0.12423047],100,53,easy,plus,dotcolour,beta,,,74,18,V,R,
507,3,3,12,4,44,36,816,['n'],0,left,['9'],5,138,[-0.05947533],100,44,hard,plus,dotcolour,beta,,,74,18,V,R,
508,4,4,12,4,36,44,1048,['n'],1,right,['9'],5,108,[-0.02682896],99,44,hard,plus,dotcolour,beta,,,74,18,V,R,
509,5,5,12,4,47,33,1081,['c'],1,left,['3'],3,709,[0.04712625],90,47,medium,plus,dotcolour,beta,,,74,18,V,R,
510,6,6,12,4,47,33,1279,['c'],1,left,['3'],3,303,[-0.01037839],81,47,medium,plus,dotcolour,beta,,,74,18,V,R,
511,7,7,12,4,47,33,865,['c'],1,left,['8'],4,169,[0.10640034],100,47,medium,plus,dotcolour,beta,,,74,18,V,R,
512,8,8,12,4,36,44,814,['n'],1,right,['9'],5,123,[-0.13830363],100,44,hard,plus,dotcolour,beta,,,74,18,V,R,
513,9,9,12,4,36,44,430,['n'],1,right,['9'],5,135,[-0.05127288],99,44,hard,plus,dotcolour,beta,,,74,18,V,R,
514,10,10,12,4,27,53,364,['n'],1,right,['0'],6,548,[-0.2307023],100,53,easy,plus,dotcolour,beta,,,74,18,V,R,
515,11,11,12,4,44,36,1015,['c'],1,left,['9'],5,207,[0.08497703],100,44,hard,plus,dotcolour,beta,,,74,18,V,R,
516,12,12,12,4,33,47,1148,['n'],1,right,['9'],5,146,[-0.1167784],100,47,medium,plus,dotcolour,beta,,,74,18,V,R,
517,13,13,12,4,33,47,582,['n'],1,right,['0'],6,279,[-0.12267676],100,47,medium,plus,dotcolour,beta,,,74,18,V,R,
518,14,14,12,4,53,27,4365,['c'],1,left,['9'],5,191,[0.12890923],100,53,easy,plus,dotcolour,beta,,,74,18,V,R,
519,15,15,12,4,47,33,430,['n'],0,left,['8'],4,839,[0.10667661],27,47,medium,plus,dotcolour,beta,,,74,18,V,R,
520,16,16,12,4,27,53,7765,['c'],0,right,['3'],3,513,[-0.1264459],14,53,easy,plus,dotcolour,beta,,,74,18,V,R,
521,17,17,12,4,47,33,498,['n'],0,left,['9'],5,554,[-0.12785459],99,47,medium,plus,dotcolour,beta,,,74,18,V,R,
522,18,18,12,4,53,27,915,['c'],1,left,['9'],5,144,[0.07775849],100,53,easy,plus,dotcolour,beta,,,74,18,V,R,
523,19,19,12,4,33,47,731,['c'],0,right,['2'],2,551,[0.02293243],87,47,medium,plus,dotcolour,beta,,,74,18,V,R,
524,20,20,12,4,47,33,1014,['n'],0,left,['9'],5,489,[-0.10793768],99,47,medium,plus,dotcolour,beta,,,74,18,V,R,
525,21,21,12,4,53,27,648,['c'],1,left,['8'],4,284,[0.12291871],100,53,easy,plus,dotcolour,beta,,,74,18,V,R,
526,22,22,12,4,36,44,566,['c'],0,right,['3'],3,284,[0.09492911],99,44,hard,plus,dotcolour,beta,,,74,18,V,R,
527,23,23,12,4,53,27,867,['c'],1,left,['9'],5,360,[0.11336392],99,53,easy,plus,dotcolour,beta,,,74,18,V,R,
528,24,24,12,4,53,27,700,['c'],1,left,['0'],6,327,[0.15112229],100,53,easy,plus,dotcolour,beta,,,74,18,V,R,
529,25,25,12,4,36,44,1217,['n'],1,right,['9'],5,211,[-0.10090285],100,44,hard,plus,dotcolour,beta,,,74,18,V,R,
530,26,26,12,4,33,47,682,['n'],1,right,['9'],5,144,[-0.07796861],100,47,medium,plus,dotcolour,beta,,,74,18,V,R,
531,27,27,12,4,36,44,966,['n'],1,right,['9'],5,197,[-0.08843667],100,44,hard,plus,dotcolour,beta,,,74,18,V,R,
532,28,28,12,4,27,53,666,['n'],1,right,['0'],6,196,[-0.07923524],100,53,easy,plus,dotcolour,beta,,,74,18,V,R,
533,29,29,12,4,44,36,566,['n'],0,left,['0'],6,135,[-0.1196289],100,44,hard,plus,dotcolour,beta,,,74,18,V,R,
534,30,30,12,4,44,36,498,['n'],0,left,['9'],5,191,[-0.0307165],97,44,hard,plus,dotcolour,beta,,,74,18,V,R,
535,31,31,12,4,47,33,1465,['n'],0,left,['9'],5,222,[-0.04817363],98,47,medium,plus,dotcolour,beta,,,74,18,V,R,
536,32,32,12,4,33,47,663,['n'],1,right,['9'],5,148,[-0.06178564],100,47,medium,plus,dotcolour,beta,,,74,18,V,R,
537,33,33,12,4,44,36,1181,['c'],1,left,['8'],4,257,[0.02219662],94,44,hard,plus,dotcolour,beta,,,74,18,V,R,
538,34,34,12,4,44,36,815,['c'],1,left,['9'],5,158,[0.09574698],100,44,hard,plus,dotcolour,beta,,,74,18,V,R,
539,35,35,12,4,53,27,532,['c'],1,left,['9'],5,116,[0.09197604],100,53,easy,plus,dotcolour,beta,,,74,18,V,R,
540,36,36,12,4,44,36,764,['n'],0,left,['9'],5,163,[-0.03844802],99,44,hard,plus,dotcolour,beta,,,74,18,V,R,
541,37,37,12,4,27,53,598,['n'],1,right,['0'],6,302,[-0.23203199],100,53,easy,plus,dotcolour,beta,,,74,18,V,R,
542,38,38,12,4,27,53,565,['n'],1,right,['0'],6,133,[-0.01905792],98,53,easy,plus,dotcolour,beta,,,74,18,V,R,
543,39,39,12,4,33,47,432,['n'],1,right,['0'],6,127,[-0.13099772],100,47,medium,plus,dotcolour,beta,,,74,18,V,R,
544,40,40,12,4,36,44,764,['n'],1,right,['0'],6,109,[-0.10976006],100,44,hard,plus,dotcolour,beta,,,74,18,V,R,
545,41,41,12,4,27,53,450,['n'],1,right,['0'],6,96,[-0.10103694],100,53,easy,plus,dotcolour,beta,,,74,18,V,R,
546,42,0,13,4,33,47,584,['n'],1,right,['0'],6,82,[-0.06288172],100,47,medium,plus,dotcolour,beta,,,74,18,V,R,
547,43,1,13,4,36,44,449,['n'],1,right,['0'],6,119,[-0.04842874],100,44,hard,plus,dotcolour,beta,,,74,18,V,R,
548,44,2,13,4,33,47,399,['n'],1,right,['0'],6,132,[-0.09640573],100,47,medium,plus,dotcolour,beta,,,74,18,V,R,
549,45,3,13,4,47,33,449,['n'],0,left,['2'],2,1062,[-0.08274271],92,47,medium,plus,dotcolour,beta,,,74,18,V,R,
550,46,4,13,4,36,44,632,['c'],0,right,['2'],2,764,[-0.02944966],63,44,hard,plus,dotcolour,beta,,,74,18,V,R,
551,47,5,13,4,53,27,682,['c'],1,left,['9'],5,451,[0.14018606],99,53,easy,plus,dotcolour,beta,,,74,18,V,R,
552,48,6,13,4,27,53,484,['n'],1,right,['0'],6,103,[-0.03578923],99,53,easy,plus,dotcolour,beta,,,74,18,V,R,
553,49,7,13,4,36,44,332,['n'],1,right,['0'],6,119,[-0.06623519],100,44,hard,plus,dotcolour,beta,,,74,18,V,R,
554,50,8,13,4,27,53,282,['n'],1,right,['0'],6,112,[-0.03687466],99,53,easy,plus,dotcolour,beta,,,74,18,V,R,
555,51,9,13,4,53,27,548,['c'],1,left,['0'],6,79,[0.11509439],100,53,easy,plus,dotcolour,beta,,,74,18,V,R,
556,52,10,13,4,44,36,516,['c'],1,left,['0'],6,73,[0.04341624],100,44,hard,plus,dotcolour,beta,,,74,18,V,R,
557,53,11,13,4,36,44,599,['n'],1,right,['0'],6,63,[-0.11428468],100,44,hard,plus,dotcolour,beta,,,74,18,V,R,
558,54,12,13,4,44,36,849,['n'],0,left,['9'],5,68,[-0.06940639],100,44,hard,plus,dotcolour,beta,,,74,18,V,R,
559,55,13,13,4,47,33,699,['n'],0,left,['8'],4,111,[-0.07457342],100,47,medium,plus,dotcolour,beta,,,74,18,V,R,
560,56,14,13,4,47,33,663,['c'],1,left,['8'],4,329,[0.18652399],100,47,medium,plus,dotcolour,beta,,,74,18,V,R,
561,57,15,13,4,53,27,548,['c'],1,left,['8'],4,112,[0.16429067],100,53,easy,plus,dotcolour,beta,,,74,18,V,R,
562,58,16,13,4,47,33,597,['c'],1,left,['8'],4,77,[0.04263482],100,47,medium,plus,dotcolour,beta,,,74,18,V,R,
563,59,17,13,4,27,53,649,['n'],1,right,['9'],5,177,[-0.12752005],100,53,easy,plus,dotcolour,beta,,,74,18,V,R,
564,60,18,13,4,53,27,583,['c'],1,left,['0'],6,179,[0.14604314],100,53,easy,plus,dotcolour,beta,,,74,18,V,R,
565,61,19,13,4,47,33,863,['c'],1,left,['0'],6,211,[0.11578741],100,47,medium,plus,dotcolour,beta,,,74,18,V,R,
566,62,20,13,4,33,47,632,['n'],1,right,['0'],6,139,[-0.09417425],100,47,medium,plus,dotcolour,beta,,,74,18,V,R,
567,63,21,13,4,53,27,16,['n'],0,left,['8'],4,767,[0.13865191],15,53,easy,plus,dotcolour,beta,,,74,18,V,R,
568,64,22,13,4,27,53,332,['n'],1,right,['0'],6,500,[-0.06699678],96,53,easy,plus,dotcolour,beta,,,74,18,V,R,
569,65,23,13,4,36,44,564,['c'],0,right,['0'],6,92,[0.0470734],100,44,hard,plus,dotcolour,beta,,,74,18,V,R,
570,66,24,13,4,27,53,716,['c'],0,right,['9'],5,252,[0.00790734],91,53,easy,plus,dotcolour,beta,,,74,18,V,R,
571,67,25,13,4,53,27,616,['c'],1,left,['0'],6,42,[0.08020751],100,53,easy,plus,dotcolour,beta,,,74,18,V,R,
572,68,26,13,4,44,36,348,['c'],1,left,['0'],6,692,[0.18268693],99,44,hard,plus,dotcolour,beta,,,74,18,V,R,
573,69,27,13,4,33,47,779,['c'],0,right,['9'],5,90,[0.10143707],100,47,medium,plus,dotcolour,beta,,,74,18,V,R,
574,70,28,13,4,27,53,816,['c'],0,right,['2'],2,184,[-0.00794317],88,53,easy,plus,dotcolour,beta,,,74,18,V,R,
575,71,29,13,4,36,44,899,['c'],0,right,['2'],2,87,[0.07975752],100,44,hard,plus,dotcolour,beta,,,74,18,V,R,
576,72,30,13,4,44,36,582,['c'],1,left,['8'],4,365,[-0.01719039],76,44,hard,plus,dotcolour,beta,,,74,18,V,R,
577,73,31,13,4,44,36,581,['c'],1,left,['9'],5,73,[0.09755049],100,44,hard,plus,dotcolour,beta,,,74,18,V,R,
578,74,32,13,4,36,44,516,['c'],0,right,['9'],5,90,[0.08555401],100,44,hard,plus,dotcolour,beta,,,74,18,V,R,
579,75,33,13,4,47,33,583,['c'],1,left,['8'],4,146,[0.09278655],100,47,medium,plus,dotcolour,beta,,,74,18,V,R,
580,76,34,13,4,44,36,599,['c'],1,left,['0'],6,181,[0.12662315],100,44,hard,plus,dotcolour,beta,,,74,18,V,R,
581,77,35,13,4,27,53,966,['n'],1,right,['0'],6,129,[-0.11487465],100,53,easy,plus,dotcolour,beta,,,74,18,V,R,
582,78,36,13,4,33,47,714,['c'],0,right,['8'],4,129,[0.05380694],100,47,medium,plus,dotcolour,beta,,,74,18,V,R,
583,79,37,13,4,53,27,649,['c'],1,left,['0'],6,99,[0.11458239],100,53,easy,plus,dotcolour,beta,,,74,18,V,R,
584,80,38,13,4,44,36,596,['c'],1,left,['0'],6,96,[0.06779122],100,44,hard,plus,dotcolour,beta,,,74,18,V,R,
585,81,39,13,4,33,47,765,['c'],0,right,['8'],4,103,[0.11879402],100,47,medium,plus,dotcolour,beta,,,74,18,V,R,
586,82,40,13,4,47,33,681,['c'],1,left,['8'],4,130,[0.16286834],100,47,medium,plus,dotcolour,beta,,,74,18,V,R,
587,83,41,13,4,33,47,913,['n'],1,right,['0'],6,129,[-0.0579396],100,47,medium,plus,dotcolour,beta,,,74,18,V,R,
588,84,0,14,4,53,27,933,['c'],1,left,['0'],6,105,[0.12077929],100,53,easy,plus,dotcolour,beta,,,74,18,V,R,
589,85,1,14,4,53,27,466,['c'],1,left,['0'],6,68,[0.06002754],100,53,easy,plus,dotcolour,beta,,,74,18,V,R,
590,86,2,14,4,44,36,915,['c'],1,left,['0'],6,102,[0.08260805],100,44,hard,plus,dotcolour,beta,,,74,18,V,R,
591,87,3,14,4,53,27,565,['c'],1,left,['0'],6,117,[0.10578827],100,53,easy,plus,dotcolour,beta,,,74,18,V,R,
592,88,4,14,4,36,44,813,['n'],1,right,['8'],4,322,[-0.04541756],96,44,hard,plus,dotcolour,beta,,,74,18,V,R,
593,89,5,14,4,33,47,1016,['n'],1,right,['0'],6,142,[-0.10829712],100,47,medium,plus,dotcolour,beta,,,74,18,V,R,
594,90,6,14,4,44,36,2849,['c'],1,left,['8'],4,104,[0.11892428],100,44,hard,plus,dotcolour,beta,,,74,18,V,R,
595,91,7,14,4,47,33,617,['n'],0,left,['2'],2,837,[-0.0188713],81,47,medium,plus,dotcolour,beta,,,74,18,V,R,
596,92,8,14,4,33,47,850,['c'],0,right,['8'],4,194,[0.06151385],99,47,medium,plus,dotcolour,beta,,,74,18,V,R,
597,93,9,14,4,27,53,815,['n'],1,right,['0'],6,164,[-0.11752007],100,53,easy,plus,dotcolour,beta,,,74,18,V,R,
598,94,10,14,4,53,27,831,['c'],1,left,['0'],6,93,[0.04293809],100,53,easy,plus,dotcolour,beta,,,74,18,V,R,
599,95,11,14,4,53,27,566,['c'],1,left,['0'],6,132,[0.08225525],100,53,easy,plus,dotcolour,beta,,,74,18,V,R,
600,96,12,14,4,27,53,716,['n'],1,right,['0'],6,116,[-0.07911002],100,53,easy,plus,dotcolour,beta,,,74,18,V,R,
601,97,13,14,4,47,33,898,['c'],1,left,['0'],6,109,[0.10369763],100,47,medium,plus,dotcolour,beta,,,74,18,V,R,
602,98,14,14,4,36,44,2666,['n'],1,right,['8'],4,95,[-0.07951375],100,44,hard,plus,dotcolour,beta,,,74,18,V,R,
603,99,15,14,4,33,47,1814,['n'],1,right,['9'],5,196,[-0.11721414],100,47,medium,plus,dotcolour,beta,,,74,18,V,R,
604,100,16,14,4,53,27,683,['c'],1,left,['0'],6,106,[0.09014921],100,53,easy,plus,dotcolour,beta,,,74,18,V,R,
605,101,17,14,4,27,53,1199,['c'],0,right,['0'],6,120,[0.01770207],98,53,easy,plus,dotcolour,beta,,,74,18,V,R,
606,102,18,14,4,53,27,532,['c'],1,left,['0'],6,103,[0.09864381],100,53,easy,plus,dotcolour,beta,,,74,18,V,R,
607,103,19,14,4,36,44,416,['c'],0,right,['0'],6,164,[0.0922892],100,44,hard,plus,dotcolour,beta,,,74,18,V,R,
608,104,20,14,4,33,47,898,['n'],1,right,['0'],6,155,[-0.13467382],100,47,medium,plus,dotcolour,beta,,,74,18,V,R,
609,105,21,14,4,44,36,949,['c'],1,left,['0'],6,129,[0.0709929],100,44,hard,plus,dotcolour,beta,,,74,18,V,R,
610,106,22,14,4,44,36,549,['c'],1,left,['0'],6,127,[0.06464203],100,44,hard,plus,dotcolour,beta,,,74,18,V,R,
611,107,23,14,4,44,36,400,['c'],1,left,['0'],6,147,[0.03528067],99,44,hard,plus,dotcolour,beta,,,74,18,V,R,
612,108,24,14,4,36,44,481,['c'],0,right,['0'],6,155,[0.0596029],99,44,hard,plus,dotcolour,beta,,,74,18,V,R,
613,109,25,14,4,33,47,615,['c'],0,right,['9'],5,230,[0.04556753],98,47,medium,plus,dotcolour,beta,,,74,18,V,R,
614,110,26,14,4,36,44,482,['c'],0,right,['8'],4,363,[0.1503934],100,44,hard,plus,dotcolour,beta,,,74,18,V,R,
615,111,27,14,4,36,44,613,['c'],0,right,['8'],4,118,[0.0479511],100,44,hard,plus,dotcolour,beta,,,74,18,V,R,
616,112,28,14,4,44,36,815,['c'],1,left,['9'],5,89,[0.03833688],100,44,hard,plus,dotcolour,beta,,,74,18,V,R,
617,113,29,14,4,47,33,496,['c'],1,left,['0'],6,100,[0.08319475],100,47,medium,plus,dotcolour,beta,,,74,18,V,R,
618,114,30,14,4,36,44,1231,['c'],0,right,['9'],5,423,[0.06306962],96,44,hard,plus,dotcolour,beta,,,74,18,V,R,
619,115,31,14,4,47,33,515,['c'],1,left,['0'],6,107,[0.02412261],99,47,medium,plus,dotcolour,beta,,,74,18,V,R,
620,116,32,14,4,27,53,816,['n'],1,right,['0'],6,128,[-0.10901372],100,53,easy,plus,dotcolour,beta,,,74,18,V,R,
621,117,33,14,4,47,33,598,['c'],1,left,['0'],6,173,[0.06069886],99,47,medium,plus,dotcolour,beta,,,74,18,V,R,
622,118,34,14,4,44,36,365,['c'],1,left,['0'],6,160,[0.09509606],100,44,hard,plus,dotcolour,beta,,,74,18,V,R,
623,119,35,14,4,33,47,2281,['c'],0,right,['8'],4,249,[0.03541749],96,47,medium,plus,dotcolour,beta,,,74,18,V,R,
624,120,36,14,4,27,53,816,['n'],1,right,['0'],6,87,[-0.0683721],100,53,easy,plus,dotcolour,beta,,,74,18,V,R,
625,121,37,14,4,27,53,781,['n'],1,right,['0'],6,110,[-0.04399892],100,53,easy,plus,dotcolour,beta,,,74,18,V,R,
626,122,38,14,4,33,47,998,['n'],1,right,['0'],6,172,[-0.11150582],100,47,medium,plus,dotcolour,beta,,,74,18,V,R,
627,123,39,14,4,47,33,1149,['n'],0,left,['8'],4,320,[-0.07833306],99,47,medium,plus,dotcolour,beta,,,74,18,V,R,
628,124,40,14,4,27,53,483,['n'],1,right,['0'],6,121,[-0.0764526],100,53,easy,plus,dotcolour,beta,,,74,18,V,R,
629,125,41,14,4,47,33,632,['c'],1,left,['0'],6,109,[0.18647118],100,47,medium,plus,dotcolour,beta,,,74,18,V,R,
630,0,0,15,5,36,44,933,['c'],0,right,['8'],4,166,[0.10683335],91,44,hard,minus,dotcolour,beta,,,74,18,V,R,
631,1,1,15,5,44,36,398,['c'],1,left,['8'],4,185,[0.04822224],42,44,hard,minus,dotcolour,beta,,,74,18,V,R,
632,2,2,15,5,44,36,449,['c'],1,left,['9'],5,129,[0.06545673],62,44,hard,minus,dotcolour,beta,,,74,18,V,R,
633,3,3,15,5,27,53,800,['n'],1,right,['0'],6,174,[-0.06560456],61,53,easy,minus,dotcolour,beta,,,74,18,V,R,
634,4,4,15,5,33,47,565,['c'],0,right,['2'],2,914,[0.04064389],43,47,medium,minus,dotcolour,beta,,,74,18,V,R,
635,5,5,15,5,27,53,1232,['n'],1,right,['0'],6,165,[-0.07833952],73,53,easy,minus,dotcolour,beta,,,74,18,V,R,
636,6,6,15,5,33,47,883,['c'],0,right,['2'],2,620,[0.10523584],76,47,medium,minus,dotcolour,beta,,,74,18,V,R,
637,7,7,15,5,27,53,515,['n'],1,right,['0'],6,96,[-0.06983428],70,53,easy,minus,dotcolour,beta,,,74,18,V,R,
638,8,8,15,5,33,47,666,['n'],1,right,['9'],5,147,[-0.06808372],64,47,medium,minus,dotcolour,beta,,,74,18,V,R,
639,9,9,15,5,27,53,533,['n'],1,right,['9'],5,137,[-0.03422616],26,53,easy,minus,dotcolour,beta,,,74,18,V,R,
640,10,10,15,5,47,33,665,['c'],1,left,['9'],5,226,[0.05986443],54,47,medium,minus,dotcolour,beta,,,74,18,V,R,
641,11,11,15,5,53,27,799,['c'],1,left,['9'],5,250,[0.0932191],80,53,easy,minus,dotcolour,beta,,,74,18,V,R,
642,12,12,15,5,47,33,581,['c'],1,left,['9'],5,122,[0.03520433],26,47,medium,minus,dotcolour,beta,,,74,18,V,R,
643,13,13,15,5,47,33,749,['c'],1,left,['8'],4,81,[0.06052844],58,47,medium,minus,dotcolour,beta,,,74,18,V,R,
644,14,14,15,5,44,36,615,['c'],1,left,['8'],4,95,[0.10445205],95,44,hard,minus,dotcolour,beta,,,74,18,V,R,
645,15,15,15,5,33,47,449,['c'],0,right,['8'],4,130,[0.04676815],39,47,medium,minus,dotcolour,beta,,,74,18,V,R,
646,16,16,15,5,53,27,765,['c'],1,left,['9'],5,352,[0.1455347],94,53,easy,minus,dotcolour,beta,,,74,18,V,R,
647,17,17,15,5,53,27,699,['c'],1,left,['9'],5,72,[0.07796956],82,53,easy,minus,dotcolour,beta,,,74,18,V,R,
648,18,18,15,5,36,44,365,['c'],0,right,['9'],5,112,[0.06400239],61,44,hard,minus,dotcolour,beta,,,74,18,V,R,
649,19,19,15,5,47,33,499,['c'],1,left,['9'],5,57,[0.08838739],92,47,medium,minus,dotcolour,beta,,,74,18,V,R,
650,20,20,15,5,33,47,433,['c'],0,right,['9'],5,111,[0.01068683],8,47,medium,minus,dotcolour,beta,,,74,18,V,R,
651,21,21,15,5,47,33,465,['c'],1,left,['9'],5,129,[0.06369302],60,47,medium,minus,dotcolour,beta,,,74,18,V,R,
652,22,22,15,5,53,27,465,['c'],1,left,['9'],5,99,[0.03720632],26,53,easy,minus,dotcolour,beta,,,74,18,V,R,
653,23,23,15,5,36,44,383,['c'],0,right,['9'],5,73,[0.06134436],60,44,hard,minus,dotcolour,beta,,,74,18,V,R,
654,24,24,15,5,36,44,496,['c'],0,right,['9'],5,100,[0.0592426],55,44,hard,minus,dotcolour,beta,,,74,18,V,R,
655,25,25,15,5,27,53,664,['c'],0,right,['8'],4,111,[0.05512619],49,53,easy,minus,dotcolour,beta,,,74,18,V,R,
656,26,26,15,5,27,53,2549,['c'],0,right,['8'],4,70,[0.06711121],69,53,easy,minus,dotcolour,beta,,,74,18,V,R,
657,27,27,15,5,36,44,750,['c'],0,right,['9'],5,175,[0.06122985],56,44,hard,minus,dotcolour,beta,,,74,18,V,R,
658,28,28,15,5,27,53,649,['n'],1,right,['0'],6,111,[-0.06705424],65,53,easy,minus,dotcolour,beta,,,74,18,V,R,
659,29,29,15,5,44,36,565,['c'],1,left,['8'],4,302,[0.0866256],73,44,hard,minus,dotcolour,beta,,,74,18,V,R,
660,30,30,15,5,36,44,666,['c'],0,right,['8'],4,145,[0.04958776],43,44,hard,minus,dotcolour,beta,,,74,18,V,R,
661,31,31,15,5,53,27,1181,['c'],1,left,['0'],6,261,[0.05582995],50,53,easy,minus,dotcolour,beta,,,74,18,V,R,
662,32,32,15,5,47,33,730,['c'],1,left,['0'],6,118,[0.06481042],62,47,medium,minus,dotcolour,beta,,,74,18,V,R,
663,33,33,15,5,44,36,530,['c'],1,left,['0'],6,229,[0.03098457],28,44,hard,minus,dotcolour,beta,,,74,18,V,R,
664,34,34,15,5,47,33,898,['n'],0,left,['0'],6,58,[-0.06330688],64,47,medium,minus,dotcolour,beta,,,74,18,V,R,
665,35,35,15,5,53,27,982,['n'],0,left,['9'],5,90,[-0.04398348],33,53,easy,minus,dotcolour,beta,,,74,18,V,R,
666,36,36,15,5,33,47,698,['n'],1,right,['0'],6,132,[-0.14545984],99,47,medium,minus,dotcolour,beta,,,74,18,V,R,
667,37,37,15,5,44,36,613,['n'],0,left,['0'],6,103,[-0.05321256],47,44,hard,minus,dotcolour,beta,,,74,18,V,R,
668,38,38,15,5,33,47,431,['n'],1,right,['0'],6,76,[-0.0550446],49,47,medium,minus,dotcolour,beta,,,74,18,V,R,
669,39,39,15,5,44,36,833,['c'],1,left,['9'],5,185,[0.1798492],99,44,hard,minus,dotcolour,beta,,,74,18,V,R,
670,40,40,15,5,53,27,799,['c'],1,left,['0'],6,91,[0.11823303],98,53,easy,minus,dotcolour,beta,,,74,18,V,R,
671,41,41,15,5,36,44,866,['n'],1,right,['0'],6,111,[-0.04856844],41,44,hard,minus,dotcolour,beta,,,74,18,V,R,
672,42,0,16,5,36,44,799,['n'],1,right,['9'],5,132,[-0.02198045],16,44,hard,minus,dotcolour,beta,,,74,18,V,R,
673,43,1,16,5,53,27,999,['c'],1,left,['0'],6,104,[0.05624066],51,53,easy,minus,dotcolour,beta,,,74,18,V,R,
674,44,2,16,5,27,53,681,['n'],1,right,['0'],6,115,[-0.08923355],86,53,easy,minus,dotcolour,beta,,,74,18,V,R,
675,45,3,16,5,53,27,432,['c'],1,left,['0'],6,110,[0.0843087],83,53,easy,minus,dotcolour,beta,,,74,18,V,R,
676,46,4,16,5,27,53,399,['c'],0,right,['8'],4,939,[-0.00969635],23,53,easy,minus,dotcolour,beta,,,74,18,V,R,
677,47,5,16,5,33,47,1017,['n'],1,right,['0'],6,134,[-0.07468422],72,47,medium,minus,dotcolour,beta,,,74,18,V,R,
678,48,6,16,5,44,36,548,['c'],1,left,['0'],6,92,[0.05179289],44,44,hard,minus,dotcolour,beta,,,74,18,V,R,
679,49,7,16,5,36,44,731,['c'],0,right,['8'],4,268,[0.08479869],73,44,hard,minus,dotcolour,beta,,,74,18,V,R,
680,50,8,16,5,36,44,532,['c'],0,right,['8'],4,85,[0.03497531],22,44,hard,minus,dotcolour,beta,,,74,18,V,R,
681,51,9,16,5,36,44,415,['c'],0,right,['8'],4,123,[0.03350403],24,44,hard,minus,dotcolour,beta,,,74,18,V,R,
682,52,10,16,5,47,33,631,['c'],1,left,['9'],5,255,[0.13429104],94,47,medium,minus,dotcolour,beta,,,74,18,V,R,
683,53,11,16,5,36,44,450,['c'],0,right,['8'],4,259,[-0.01237113],8,44,hard,minus,dotcolour,beta,,,74,18,V,R,
684,54,12,16,5,27,53,748,['n'],1,right,['9'],5,165,[-0.0707868],66,53,easy,minus,dotcolour,beta,,,74,18,V,R,
685,55,13,16,5,44,36,566,['c'],1,left,['9'],5,121,[0.08763766],84,44,hard,minus,dotcolour,beta,,,74,18,V,R,
686,56,14,16,5,27,53,565,['c'],0,right,['9'],5,167,[0.03294338],27,53,easy,minus,dotcolour,beta,,,74,18,V,R,
687,57,15,16,5,47,33,497,['n'],0,left,['2'],2,942,[0.01882279],20,47,medium,minus,dotcolour,beta,,,74,18,V,R,
688,58,16,16,5,44,36,982,['c'],1,left,['8'],4,250,[0.00123254],12,44,hard,minus,dotcolour,beta,,,74,18,V,R,
689,59,17,16,5,53,27,498,['c'],1,left,['8'],4,141,[0.09933196],89,53,easy,minus,dotcolour,beta,,,74,18,V,R,
690,60,18,16,5,27,53,716,['n'],1,right,['9'],5,116,[-0.09735188],90,53,easy,minus,dotcolour,beta,,,74,18,V,R,
691,61,19,16,5,36,44,784,['n'],1,right,['9'],5,90,[-0.06649914],66,44,hard,minus,dotcolour,beta,,,74,18,V,R,
692,62,20,16,5,44,36,448,['c'],1,left,['9'],5,78,[0.04050761],27,44,hard,minus,dotcolour,beta,,,74,18,V,R,
693,63,21,16,5,36,44,85,['n'],1,right,['9'],5,2877,[-0.2535592],89,44,hard,minus,dotcolour,beta,,,74,18,V,R,
694,64,22,16,5,47,33,266,['n'],0,left,['9'],5,96,[-0.01993687],11,47,medium,minus,dotcolour,beta,,,74,18,V,R,
695,65,23,16,5,33,47,282,['n'],1,right,['9'],5,90,[-0.0758109],77,47,medium,minus,dotcolour,beta,,,74,18,V,R,
696,66,24,16,5,47,33,298,['n'],0,left,['2'],2,564,[-0.02203325],31,47,medium,minus,dotcolour,beta,,,74,18,V,R,
697,67,25,16,5,47,33,232,['n'],0,left,['9'],5,110,[-0.07368926],73,47,medium,minus,dotcolour,beta,,,74,18,V,R,
698,68,26,16,5,33,47,316,['c'],0,right,['2'],2,326,[0.05781353],52,47,medium,minus,dotcolour,beta,,,74,18,V,R,
699,69,27,16,5,33,47,300,['c'],0,right,['9'],5,103,[0.08943572],87,47,medium,minus,dotcolour,beta,,,74,18,V,R,
700,70,28,16,5,27,53,349,['n'],1,right,['9'],5,118,[-0.05706995],52,53,easy,minus,dotcolour,beta,,,74,18,V,R,
701,71,29,16,5,44,36,232,['n'],0,left,['0'],6,1138,[-0.04132121],44,44,hard,minus,dotcolour,beta,,,74,18,V,R,
702,72,30,16,5,53,27,315,['c'],1,left,['2'],2,424,[0.17921856],97,53,easy,minus,dotcolour,beta,,,74,18,V,R,
703,73,31,16,5,53,27,16,['n'],0,left,['2'],2,833,[0.11368761],3,53,easy,minus,dotcolour,beta,,,74,18,V,R,
704,74,32,16,5,47,33,633,['c'],1,left,['9'],5,96,[0.12749141],98,47,medium,minus,dotcolour,beta,,,74,18,V,R,
705,75,33,16,5,53,27,367,['c'],1,left,['9'],5,79,[0.07292935],75,53,easy,minus,dotcolour,beta,,,74,18,V,R,
706,76,34,16,5,44,36,350,['c'],1,left,['9'],5,95,[0.08515807],85,44,hard,minus,dotcolour,beta,,,74,18,V,R,
707,77,35,16,5,33,47,348,['c'],0,right,['9'],5,111,[0.01981954],13,47,medium,minus,dotcolour,beta,,,74,18,V,R,
708,78,36,16,5,44,36,265,['c'],1,left,['9'],5,49,[0.08445951],91,44,hard,minus,dotcolour,beta,,,74,18,V,R,
709,79,37,16,5,27,53,265,['c'],0,right,['9'],5,94,[0.05638738],51,53,easy,minus,dotcolour,beta,,,74,18,V,R,
710,80,38,16,5,53,27,248,['c'],1,left,['9'],5,121,[0.09588179],89,53,easy,minus,dotcolour,beta,,,74,18,V,R,
711,81,39,16,5,33,47,282,['c'],0,right,['9'],5,114,[0.03906626],29,47,medium,minus,dotcolour,beta,,,74,18,V,R,
712,82,40,16,5,47,33,56,['c'],1,left,['9'],5,343,[0.10313358],81,47,medium,minus,dotcolour,beta,,,74,18,V,R,
713,83,41,16,5,33,47,301,['c'],0,right,['0'],6,111,[0.08174974],80,47,medium,minus,dotcolour,beta,,,74,18,V,R,
714,84,0,17,5,44,36,267,['n'],0,left,['2'],2,725,[0.01353673],19,44,hard,minus,dotcolour,beta,,,74,18,V,R,
715,85,1,17,5,36,44,399,['c'],0,right,['2'],2,305,[0.10034849],81,44,hard,minus,dotcolour,beta,,,74,18,V,R,
716,86,2,17,5,53,27,397,['c'],1,left,['8'],4,534,[0.003972],22,53,easy,minus,dotcolour,beta,,,74,18,V,R,
717,87,3,17,5,47,33,464,['c'],1,left,['8'],4,80,[0.07014606],72,47,medium,minus,dotcolour,beta,,,74,18,V,R,
718,88,4,17,5,27,53,381,['c'],0,right,['2'],2,519,[-0.00703771],17,53,easy,minus,dotcolour,beta,,,74,18,V,R,
719,89,5,17,5,27,53,315,['n'],1,right,['9'],5,63,[-0.05946463],57,53,easy,minus,dotcolour,beta,,,74,18,V,R,
720,90,6,17,5,53,27,415,['c'],1,left,['9'],5,277,[0.17203427],98,53,easy,minus,dotcolour,beta,,,74,18,V,R,
721,91,7,17,5,27,53,747,['n'],1,right,['9'],5,269,[0.02529362],6,53,easy,minus,dotcolour,beta,,,74,18,V,R,
722,92,8,17,5,53,27,498,['c'],1,left,['9'],5,167,[0.05873997],54,53,easy,minus,dotcolour,beta,,,74,18,V,R,
723,93,9,17,5,36,44,814,['c'],0,right,['2'],2,178,[0.1084884],91,44,hard,minus,dotcolour,beta,,,74,18,V,R,
724,94,10,17,5,33,47,931,['n'],1,right,['9'],5,135,[-0.11101691],94,47,medium,minus,dotcolour,beta,,,74,18,V,R,
725,95,11,17,5,33,47,732,['n'],1,right,['9'],5,126,[-0.00892979],9,47,medium,minus,dotcolour,beta,,,74,18,V,R,
726,96,12,17,5,44,36,715,['c'],1,left,['9'],5,101,[0.09856359],92,44,hard,minus,dotcolour,beta,,,74,18,V,R,
727,97,13,17,5,27,53,615,['c'],0,right,['2'],2,418,[0.00307452],19,53,easy,minus,dotcolour,beta,,,74,18,V,R,
728,98,14,17,5,44,36,417,['n'],0,left,['9'],5,82,[-0.06286654],61,44,hard,minus,dotcolour,beta,,,74,18,V,R,
729,99,15,17,5,47,33,783,['c'],1,left,['2'],2,9,[0.06870334],92,47,medium,minus,dotcolour,beta,,,74,18,V,R,
730,100,16,17,5,44,36,382,['c'],1,left,['9'],5,51,[0.08596978],92,44,hard,minus,dotcolour,beta,,,74,18,V,R,
731,101,17,17,5,53,27,315,['c'],1,left,['9'],5,38,[0.07209718],82,53,easy,minus,dotcolour,beta,,,74,18,V,R,
732,102,18,17,5,44,36,382,['c'],1,left,['9'],5,54,[0.06098345],60,44,hard,minus,dotcolour,beta,,,74,18,V,R,
733,103,19,17,5,36,44,298,['c'],0,right,['9'],5,58,[0.07426333],80,44,hard,minus,dotcolour,beta,,,74,18,V,R,
734,104,20,17,5,27,53,398,['c'],0,right,['2'],2,554,[-0.04445199],8,53,easy,minus,dotcolour,beta,,,74,18,V,R,
735,105,21,17,5,33,47,447,['n'],1,right,['9'],5,75,[-0.10423018],96,47,medium,minus,dotcolour,beta,,,74,18,V,R,
736,106,22,17,5,36,44,682,['c'],0,right,['9'],5,70,[0.03141835],16,44,hard,minus,dotcolour,beta,,,74,18,V,R,
737,107,23,17,5,44,36,599,['n'],0,left,['9'],5,269,[-0.10417873],84,44,hard,minus,dotcolour,beta,,,74,18,V,R,
738,108,24,17,5,44,36,915,['c'],1,left,['9'],5,127,[0.11301745],95,44,hard,minus,dotcolour,beta,,,74,18,V,R,
739,109,25,17,5,53,27,1083,['c'],1,left,['9'],5,128,[0.0191349],14,53,easy,minus,dotcolour,beta,,,74,18,V,R,
740,110,26,17,5,36,44,365,['c'],0,right,['9'],5,86,[0.07190821],73,44,hard,minus,dotcolour,beta,,,74,18,V,R,
741,111,27,17,5,36,44,965,['c'],0,right,['9'],5,53,[0.04472571],30,44,hard,minus,dotcolour,beta,,,74,18,V,R,
742,112,28,17,5,27,53,432,['c'],0,right,['9'],5,235,[0.09489289],81,53,easy,minus,dotcolour,beta,,,74,18,V,R,
743,113,29,17,5,47,33,433,['c'],1,left,['9'],5,202,[0.09233629],81,47,medium,minus,dotcolour,beta,,,74,18,V,R,
744,114,30,17,5,47,33,450,['c'],1,left,['9'],5,25,[0.06491441],74,47,medium,minus,dotcolour,beta,,,74,18,V,R,
745,115,31,17,5,47,33,481,['c'],1,left,['9'],5,54,[0.0823415],89,47,medium,minus,dotcolour,beta,,,74,18,V,R,
746,116,32,17,5,53,27,331,['c'],1,left,['9'],5,48,[0.06268343],64,53,easy,minus,dotcolour,beta,,,74,18,V,R,
747,117,33,17,5,47,33,415,['c'],1,left,['9'],5,55,[0.11901531],99,47,medium,minus,dotcolour,beta,,,74,18,V,R,
748,118,34,17,5,53,27,366,['c'],1,left,['9'],5,287,[0.0652045],58,53,easy,minus,dotcolour,beta,,,74,18,V,R,
749,119,35,17,5,47,33,414,['c'],1,left,['0'],6,76,[0.06078237],58,47,medium,minus,dotcolour,beta,,,74,18,V,R,
750,120,36,17,5,33,47,565,['c'],0,right,['0'],6,492,[-0.10247213],2,47,medium,minus,dotcolour,beta,,,74,18,V,R,
751,121,37,17,5,33,47,297,['c'],0,right,['0'],6,78,[0.06793449],69,47,medium,minus,dotcolour,beta,,,74,18,V,R,
752,122,38,17,5,36,44,330,['c'],0,right,['9'],5,111,[0.04706984],39,44,hard,minus,dotcolour,beta,,,74,18,V,R,
753,123,39,17,5,33,47,482,['c'],0,right,['9'],5,112,[0.04856475],41,47,medium,minus,dotcolour,beta,,,74,18,V,R,
754,124,40,17,5,33,47,398,['c'],0,right,['2'],2,221,[0.03083695],28,47,medium,minus,dotcolour,beta,,,74,18,V,R,
755,125,41,17,5,27,53,431,['n'],1,right,['9'],5,749,[-0.14493762],87,53,easy,minus,dotcolour,beta,,,74,18,V,R,
,,,,,,,,,,,,,,,,,,,,,1,neen,74,18,V,R,
,,,,,,,,,,,,,,,,,,,,,2,['d'],74,18,V,R,
,,,,,,,,,,,,,,,,,,,,,3,['g'],74,18,V,R,
,,,,,,,,,,,,,,,,,,,,,5,['3'],74,18,V,R,
