trial,withinphasetrial,withinblocktrial,block,phase,dotsLeft,dotsRight,rt,resp,cor,cresp,conf_press,cj,RTconf,ev,fb,diff,difflevel,condition,task,manip,questionID,questionResp,sub,age,gender,handedness,
0,0,0,0,0,27,53,867,['n'],1,right,['1'],6,526,[-0.13881162],89,53,easy,minus,dotcolour,beta,,,1,18,M,R,
1,1,1,0,0,44,36,615,['c'],1,left,['1'],6,105,[-0.00510277],3,44,hard,minus,dotcolour,beta,,,1,18,M,R,
2,2,2,0,0,44,36,815,['n'],0,left,['1'],6,110,[-0.03065222],21,44,hard,minus,dotcolour,beta,,,1,18,M,R,
3,3,3,0,0,36,44,649,['n'],1,right,['1'],6,48,[-0.08411569],91,44,hard,minus,dotcolour,beta,,,1,18,M,R,
4,4,4,0,0,33,47,831,['n'],1,right,['1'],6,38,[-0.08103292],91,47,medium,minus,dotcolour,beta,,,1,18,M,R,
5,5,5,0,0,47,33,565,['c'],1,left,['1'],6,8,[0.06806289],93,47,medium,minus,dotcolour,beta,,,1,18,M,R,
6,6,6,0,0,36,44,482,['c'],0,right,['1'],6,13,[0.08333556],99,44,hard,minus,dotcolour,beta,,,1,18,M,R,
7,7,7,0,0,27,53,433,['n'],1,right,['1'],6,53,[-0.0800607],87,53,easy,minus,dotcolour,beta,,,1,18,M,R,
8,8,8,0,0,53,27,500,['c'],1,left,['1'],6,496,[0.16845407],95,53,easy,minus,dotcolour,beta,,,1,18,M,R,
9,9,9,0,0,53,27,682,['c'],1,left,['1'],6,10,[0.06259925],78,53,easy,minus,dotcolour,beta,,,1,18,M,R,
10,10,10,0,0,27,53,381,['n'],1,right,['1'],6,44,[-0.0979939],97,53,easy,minus,dotcolour,beta,,,1,18,M,R,
11,11,11,0,0,44,36,867,['c'],1,left,['1'],6,32,[0.09385488],98,44,hard,minus,dotcolour,beta,,,1,18,M,R,
12,12,12,0,0,36,44,882,['c'],0,right,['1'],6,29,[0.06616863],75,44,hard,minus,dotcolour,beta,,,1,18,M,R,
13,13,13,0,0,53,27,865,['c'],1,left,['1'],6,10,[0.08037328],99,53,easy,minus,dotcolour,beta,,,1,18,M,R,
14,14,14,0,0,53,27,912,['c'],1,left,['1'],6,46,[0.08849601],94,53,easy,minus,dotcolour,beta,,,1,18,M,R,
15,15,15,0,0,27,53,566,['n'],1,right,['1'],6,79,[-0.05080867],42,53,easy,minus,dotcolour,beta,,,1,18,M,R,
16,16,16,0,0,33,47,564,['n'],1,right,['1'],6,62,[-0.07467431],80,47,medium,minus,dotcolour,beta,,,1,18,M,R,
17,17,17,0,0,47,33,1515,['n'],0,left,['2'],5,88,[-0.04402614],33,47,medium,minus,dotcolour,beta,,,1,18,M,R,
18,18,18,0,0,33,47,1098,['n'],1,right,['1'],6,58,[-0.09780941],96,47,medium,minus,dotcolour,beta,,,1,18,M,R,
19,19,19,0,0,47,33,665,['c'],1,left,['1'],6,46,[0.08782252],94,47,medium,minus,dotcolour,beta,,,1,18,M,R,
20,20,20,0,0,33,47,782,['n'],1,right,['1'],6,367,[-0.21608178],99,47,medium,minus,dotcolour,beta,,,1,18,M,R,
21,21,21,0,0,47,33,883,['c'],1,left,['1'],6,117,[0.06086227],57,47,medium,minus,dotcolour,beta,,,1,18,M,R,
22,22,22,0,0,27,53,781,['n'],1,right,['1'],6,219,[-0.01753881],19,53,easy,minus,dotcolour,beta,,,1,18,M,R,
23,23,23,0,0,44,36,1066,['c'],1,left,['1'],6,697,[0.01535456],30,44,hard,minus,dotcolour,beta,,,1,18,M,R,
24,24,24,0,0,44,36,601,['c'],1,left,['1'],6,37,[0.08712511],95,44,hard,minus,dotcolour,beta,,,1,18,M,R,
25,25,25,0,0,27,53,1730,['n'],1,right,['2'],5,544,[-0.01662432],28,53,easy,minus,dotcolour,beta,,,1,18,M,R,
26,26,26,0,0,53,27,566,['c'],1,left,['1'],6,45,[0.0447869],29,53,easy,minus,dotcolour,beta,,,1,18,M,R,
27,27,27,0,0,27,53,1131,['n'],1,right,['1'],6,135,[-0.06819148],65,53,easy,minus,dotcolour,beta,,,1,18,M,R,
28,28,28,0,0,47,33,1066,['n'],0,left,['1'],6,80,[-0.07793895],81,47,medium,minus,dotcolour,beta,,,1,18,M,R,
29,29,29,0,0,53,27,748,['c'],1,left,['1'],6,472,[0.09242127],72,53,easy,minus,dotcolour,beta,,,1,18,M,R,
30,30,30,0,0,53,27,615,['c'],1,left,['1'],6,53,[0.07255212],79,53,easy,minus,dotcolour,beta,,,1,18,M,R,
31,31,31,0,0,47,33,982,['n'],0,left,['2'],5,101,[-0.00079855],4,47,medium,minus,dotcolour,beta,,,1,18,M,R,
32,32,32,0,0,36,44,1266,['n'],1,right,['1'],6,72,[-0.0729553],76,44,hard,minus,dotcolour,beta,,,1,18,M,R,
33,33,33,0,0,36,44,700,['c'],0,right,['0'],1,994,[-0.06515278],10,44,hard,minus,dotcolour,beta,,,1,18,M,R,
34,34,34,0,0,44,36,2132,['n'],0,left,['2'],5,399,[-0.01410889],23,44,hard,minus,dotcolour,beta,,,1,18,M,R,
35,35,35,0,0,36,44,864,['n'],1,right,['1'],6,141,[-0.07754779],74,44,hard,minus,dotcolour,beta,,,1,18,M,R,
36,36,36,0,0,44,36,582,['c'],1,left,['1'],6,49,[0.1122034],99,44,hard,minus,dotcolour,beta,,,1,18,M,R,
37,37,37,0,0,47,33,698,['c'],1,left,['1'],6,20,[0.07241648],90,47,medium,minus,dotcolour,beta,,,1,18,M,R,
38,38,38,0,0,36,44,1131,['n'],1,right,['2'],5,304,[-0.10668311],84,44,hard,minus,dotcolour,beta,,,1,18,M,R,
39,39,39,0,0,33,47,1732,['n'],1,right,['3'],4,535,[-0.05489459],50,47,medium,minus,dotcolour,beta,,,1,18,M,R,
40,40,40,0,0,33,47,1431,['n'],1,right,['2'],5,218,[-0.07653869],69,47,medium,minus,dotcolour,beta,,,1,18,M,R,
41,41,41,0,0,33,47,965,['n'],1,right,['1'],6,131,[-0.10147332],91,47,medium,minus,dotcolour,beta,,,1,18,M,R,
42,42,0,1,0,44,36,1250,['n'],0,left,['1'],6,74,[-0.01889542],8,44,hard,minus,dotcolour,beta,,,1,18,M,R,
43,43,1,1,0,47,33,1416,['n'],0,left,['1'],6,63,[-0.07946512],85,47,medium,minus,dotcolour,beta,,,1,18,M,R,
44,44,2,1,0,47,33,565,['c'],1,left,['1'],6,32,[0.0555901],50,47,medium,minus,dotcolour,beta,,,1,18,M,R,
45,45,3,1,0,33,47,1331,['c'],0,right,['2'],5,282,[0.04822835],44,47,medium,minus,dotcolour,beta,,,1,18,M,R,
46,46,4,1,0,53,27,699,['c'],1,left,['1'],6,140,[0.06023195],56,53,easy,minus,dotcolour,beta,,,1,18,M,R,
47,47,5,1,0,53,27,766,['c'],1,left,['2'],5,305,[0.15161572],96,53,easy,minus,dotcolour,beta,,,1,18,M,R,
48,48,6,1,0,44,36,730,['c'],1,left,['1'],6,50,[0.08963862],94,44,hard,minus,dotcolour,beta,,,1,18,M,R,
49,49,7,1,0,27,53,599,['n'],1,right,['1'],6,17,[-0.07283952],92,53,easy,minus,dotcolour,beta,,,1,18,M,R,
50,50,8,1,0,53,27,614,['c'],1,left,['1'],6,33,[0.0621076],66,53,easy,minus,dotcolour,beta,,,1,18,M,R,
51,51,9,1,0,47,33,1415,['c'],1,left,['1'],6,24,[0.09031814],98,47,medium,minus,dotcolour,beta,,,1,18,M,R,
52,52,10,1,0,36,44,583,['n'],1,right,['1'],6,73,[-0.035583],21,44,hard,minus,dotcolour,beta,,,1,18,M,R,
53,53,11,1,0,36,44,1681,['n'],1,right,['3'],4,412,[0.07470358],3,44,hard,minus,dotcolour,beta,,,1,18,M,R,
54,54,12,1,0,44,36,1098,['c'],1,left,['2'],5,1184,[0.08663887],63,44,hard,minus,dotcolour,beta,,,1,18,M,R,
55,55,13,1,0,36,44,899,['n'],1,right,['1'],6,93,[-0.09477031],91,44,hard,minus,dotcolour,beta,,,1,18,M,R,
56,56,14,1,0,27,53,632,['n'],1,right,['1'],6,33,[-0.07188282],83,53,easy,minus,dotcolour,beta,,,1,18,M,R,
57,57,15,1,0,27,53,982,['n'],1,right,['1'],6,10,[-0.08049128],99,53,easy,minus,dotcolour,beta,,,1,18,M,R,
58,58,16,1,0,53,27,565,['c'],1,left,['1'],6,44,[0.09514331],97,53,easy,minus,dotcolour,beta,,,1,18,M,R,
59,59,17,1,0,47,33,1514,['n'],0,left,['3'],4,335,[-0.03001529],31,47,medium,minus,dotcolour,beta,,,1,18,M,R,
60,60,18,1,0,36,44,1133,['n'],1,right,['1'],6,46,[-0.07592023],85,44,hard,minus,dotcolour,beta,,,1,18,M,R,
61,61,19,1,0,33,47,715,['n'],1,right,['1'],6,48,[-0.09409663],96,47,medium,minus,dotcolour,beta,,,1,18,M,R,
62,62,20,1,0,53,27,532,['c'],1,left,['1'],6,18,[0.08884516],99,53,easy,minus,dotcolour,beta,,,1,18,M,R,
63,63,21,1,0,36,44,1047,['n'],1,right,['1'],6,57,[-0.08804936],92,44,hard,minus,dotcolour,beta,,,1,18,M,R,
64,64,22,1,0,33,47,582,['n'],1,right,['1'],6,33,[-0.07748969],90,47,medium,minus,dotcolour,beta,,,1,18,M,R,
65,65,23,1,0,33,47,514,['n'],1,right,['1'],6,20,[-0.09811431],100,47,medium,minus,dotcolour,beta,,,1,18,M,R,
66,66,24,1,0,33,47,715,['n'],1,right,['1'],6,48,[-0.09411859],96,47,medium,minus,dotcolour,beta,,,1,18,M,R,
67,67,25,1,0,27,53,532,['n'],1,right,['1'],6,82,[-0.06576399],66,53,easy,minus,dotcolour,beta,,,1,18,M,R,
68,68,26,1,0,33,47,783,['n'],1,right,['1'],6,25,[-0.09325777],99,47,medium,minus,dotcolour,beta,,,1,18,M,R,
69,69,27,1,0,47,33,1150,['c'],1,left,['2'],5,99,[0.06533714],64,47,medium,minus,dotcolour,beta,,,1,18,M,R,
70,70,28,1,0,47,33,534,['c'],1,left,['2'],5,147,[0.13744543],98,47,medium,minus,dotcolour,beta,,,1,18,M,R,
71,71,29,1,0,27,53,550,['n'],1,right,['1'],6,48,[-0.10721604],99,53,easy,minus,dotcolour,beta,,,1,18,M,R,
72,72,30,1,0,36,44,1066,['c'],0,right,['2'],5,268,[0.13019301],93,44,hard,minus,dotcolour,beta,,,1,18,M,R,
73,73,31,1,0,44,36,633,['n'],0,left,['1'],6,98,[-0.07055999],70,44,hard,minus,dotcolour,beta,,,1,18,M,R,
74,74,32,1,0,27,53,563,['n'],1,right,['1'],6,25,[-0.05875903],59,53,easy,minus,dotcolour,beta,,,1,18,M,R,
75,75,33,1,0,27,53,497,['n'],1,right,['1'],6,45,[-0.0936567],96,53,easy,minus,dotcolour,beta,,,1,18,M,R,
76,76,34,1,0,53,27,548,['n'],0,left,['0'],1,607,[0.0690423],5,53,easy,minus,dotcolour,beta,,,1,18,M,R,
77,77,35,1,0,53,27,1099,['c'],1,left,['1'],6,19,[0.09526849],99,53,easy,minus,dotcolour,beta,,,1,18,M,R,
78,78,36,1,0,36,44,1066,['c'],0,right,['2'],5,232,[0.0788213],70,44,hard,minus,dotcolour,beta,,,1,18,M,R,
79,79,37,1,0,44,36,1017,['c'],1,left,['1'],6,192,[0.11184403],91,44,hard,minus,dotcolour,beta,,,1,18,M,R,
80,80,38,1,0,44,36,534,['c'],1,left,['1'],6,28,[0.09615695],99,44,hard,minus,dotcolour,beta,,,1,18,M,R,
81,81,39,1,0,47,33,616,['c'],1,left,['1'],6,28,[0.08407192],96,47,medium,minus,dotcolour,beta,,,1,18,M,R,
82,82,40,1,0,44,36,631,['c'],1,left,['1'],6,50,[0.10461377],98,44,hard,minus,dotcolour,beta,,,1,18,M,R,
83,83,41,1,0,33,47,717,['n'],1,right,['1'],6,69,[-0.08651002],89,47,medium,minus,dotcolour,beta,,,1,18,M,R,
84,84,0,2,0,53,27,750,['c'],1,left,['1'],6,4,[0.07471396],100,53,easy,minus,dotcolour,beta,,,1,18,M,R,
85,85,1,2,0,44,36,1214,['n'],0,left,['2'],5,92,[0.02201334],1,44,hard,minus,dotcolour,beta,,,1,18,M,R,
86,86,2,2,0,53,27,498,['c'],1,left,['1'],6,29,[0.10103907],99,53,easy,minus,dotcolour,beta,,,1,18,M,R,
87,87,3,2,0,36,44,715,['n'],1,right,['1'],6,40,[-0.07233203],82,44,hard,minus,dotcolour,beta,,,1,18,M,R,
88,88,4,2,0,33,47,598,['n'],1,right,['1'],6,40,[-0.07635254],87,47,medium,minus,dotcolour,beta,,,1,18,M,R,
89,89,5,2,0,27,53,516,['n'],1,right,['1'],6,52,[-0.04011646],23,53,easy,minus,dotcolour,beta,,,1,18,M,R,
90,90,6,2,0,47,33,1049,['c'],1,left,['2'],5,41,[0.0499145],38,47,medium,minus,dotcolour,beta,,,1,18,M,R,
91,91,7,2,0,36,44,1015,['n'],1,right,['3'],4,80,[-0.07134405],73,44,hard,minus,dotcolour,beta,,,1,18,M,R,
92,92,8,2,0,27,53,815,['n'],1,right,['3'],4,62,[-0.09157634],93,53,easy,minus,dotcolour,beta,,,1,18,M,R,
93,93,9,2,0,33,47,530,['n'],1,right,['1'],6,71,[-0.07085089],74,47,medium,minus,dotcolour,beta,,,1,18,M,R,
94,94,10,2,0,47,33,681,['c'],1,left,['2'],5,105,[0.05628163],51,47,medium,minus,dotcolour,beta,,,1,18,M,R,
95,95,11,2,0,53,27,548,['c'],1,left,['1'],6,57,[0.08759921],92,53,easy,minus,dotcolour,beta,,,1,18,M,R,
96,96,12,2,0,33,47,798,['n'],1,right,['1'],6,56,[-0.13086118],100,47,medium,minus,dotcolour,beta,,,1,18,M,R,
97,97,13,2,0,33,47,549,['n'],1,right,['1'],6,41,[-0.07511318],85,47,medium,minus,dotcolour,beta,,,1,18,M,R,
98,98,14,2,0,44,36,898,['n'],0,left,['1'],6,28,[-0.0791009],93,44,hard,minus,dotcolour,beta,,,1,18,M,R,
99,99,15,2,0,36,44,599,['n'],1,right,['1'],6,60,[-0.07464257],80,44,hard,minus,dotcolour,beta,,,1,18,M,R,
100,100,16,2,0,47,33,732,['c'],1,left,['1'],6,38,[0.05696239],53,47,medium,minus,dotcolour,beta,,,1,18,M,R,
101,101,17,2,0,27,53,764,['n'],1,right,['1'],6,38,[-0.06902224],78,53,easy,minus,dotcolour,beta,,,1,18,M,R,
102,102,18,2,0,53,27,733,['c'],1,left,['2'],5,296,[0.0725742],64,53,easy,minus,dotcolour,beta,,,1,18,M,R,
103,103,19,2,0,27,53,648,['n'],1,right,['1'],6,156,[-0.04252051],36,53,easy,minus,dotcolour,beta,,,1,18,M,R,
104,104,20,2,0,36,44,1599,['c'],0,right,['3'],4,286,[0.10139505],82,44,hard,minus,dotcolour,beta,,,1,18,M,R,
105,105,21,2,0,44,36,964,['c'],1,left,['3'],4,238,[0.09048721],78,44,hard,minus,dotcolour,beta,,,1,18,M,R,
106,106,22,2,0,47,33,663,['c'],1,left,['2'],5,114,[0.11572729],96,47,medium,minus,dotcolour,beta,,,1,18,M,R,
107,107,23,2,0,44,36,1067,['n'],0,left,['1'],6,61,[-0.05782445],54,44,hard,minus,dotcolour,beta,,,1,18,M,R,
108,108,24,2,0,36,44,965,['n'],1,right,['1'],6,85,[-0.08714345],88,44,hard,minus,dotcolour,beta,,,1,18,M,R,
109,109,25,2,0,47,33,1916,['c'],1,left,['3'],4,174,[0.12425767],95,47,medium,minus,dotcolour,beta,,,1,18,M,R,
110,110,26,2,0,53,27,533,['c'],1,left,['2'],5,74,[0.05636774],51,53,easy,minus,dotcolour,beta,,,1,18,M,R,
111,111,27,2,0,36,44,897,['n'],1,right,['2'],5,149,[-0.07301528],69,44,hard,minus,dotcolour,beta,,,1,18,M,R,
112,112,28,2,0,47,33,749,['c'],1,left,['1'],6,50,[0.08400084],91,47,medium,minus,dotcolour,beta,,,1,18,M,R,
113,113,29,2,0,47,33,798,['n'],0,left,['2'],5,249,[-0.04007703],36,47,medium,minus,dotcolour,beta,,,1,18,M,R,
114,114,30,2,0,27,53,548,['c'],0,right,['1'],6,74,[0.10300419],96,53,easy,minus,dotcolour,beta,,,1,18,M,R,
115,115,31,2,0,44,36,1350,['c'],1,left,['3'],4,203,[0.11983464],93,44,hard,minus,dotcolour,beta,,,1,18,M,R,
116,116,32,2,0,33,47,648,['n'],1,right,['2'],5,106,[-0.0727049],72,47,medium,minus,dotcolour,beta,,,1,18,M,R,
117,117,33,2,0,27,53,516,['c'],0,right,['0'],1,658,[-0.04444903],10,53,easy,minus,dotcolour,beta,,,1,18,M,R,
118,118,34,2,0,33,47,783,['n'],1,right,['1'],6,33,[-0.08239504],93,47,medium,minus,dotcolour,beta,,,1,18,M,R,
119,119,35,2,0,44,36,1317,['c'],1,left,['2'],5,36,[0.04215261],22,44,hard,minus,dotcolour,beta,,,1,18,M,R,
120,120,36,2,0,33,47,1383,['c'],0,right,['3'],4,78,[0.07655507],79,47,medium,minus,dotcolour,beta,,,1,18,M,R,
121,121,37,2,0,36,44,717,['c'],0,right,['3'],4,54,[0.0726386],79,44,hard,minus,dotcolour,beta,,,1,18,M,R,
122,122,38,2,0,53,27,1532,['c'],1,left,['2'],5,480,[0.16714754],95,53,easy,minus,dotcolour,beta,,,1,18,M,R,
123,123,39,2,0,27,53,882,['n'],1,right,['2'],5,107,[-0.11858284],97,53,easy,minus,dotcolour,beta,,,1,18,M,R,
124,124,40,2,0,53,27,564,['c'],1,left,['2'],5,74,[0.0810361],84,53,easy,minus,dotcolour,beta,,,1,18,M,R,
125,125,41,2,0,44,36,616,['n'],0,left,['1'],6,80,[-0.05146133],44,44,hard,minus,dotcolour,beta,,,1,18,M,R,
126,0,0,3,1,27,53,683,['n'],1,right,['1'],6,44,[-0.06462365],100,53,easy,plus,dotcolour,beta,,,1,18,M,R,
127,1,1,3,1,53,27,599,['c'],1,left,['1'],6,51,[0.05651832],100,53,easy,plus,dotcolour,beta,,,1,18,M,R,
128,2,2,3,1,33,47,732,['n'],1,right,['1'],6,77,[-0.05120268],100,47,medium,plus,dotcolour,beta,,,1,18,M,R,
129,3,3,3,1,27,53,998,['n'],1,right,['1'],6,75,[-0.08018096],100,53,easy,plus,dotcolour,beta,,,1,18,M,R,
130,4,4,3,1,44,36,597,['c'],1,left,['1'],6,17,[0.07861933],100,44,hard,plus,dotcolour,beta,,,1,18,M,R,
131,5,5,3,1,47,33,566,['c'],1,left,['1'],6,27,[0.07082529],100,47,medium,plus,dotcolour,beta,,,1,18,M,R,
132,6,6,3,1,33,47,715,['n'],1,right,['1'],6,46,[-0.05224213],100,47,medium,plus,dotcolour,beta,,,1,18,M,R,
133,7,7,3,1,36,44,617,['n'],1,right,['1'],6,61,[-0.06578443],100,44,hard,plus,dotcolour,beta,,,1,18,M,R,
134,8,8,3,1,44,36,1233,['c'],1,left,['1'],6,34,[0.06226567],100,44,hard,plus,dotcolour,beta,,,1,18,M,R,
135,9,9,3,1,44,36,783,['n'],0,left,['1'],6,59,[-0.07759807],100,44,hard,plus,dotcolour,beta,,,1,18,M,R,
136,10,10,3,1,47,33,617,['c'],1,left,['1'],6,41,[0.10187009],100,47,medium,plus,dotcolour,beta,,,1,18,M,R,
137,11,11,3,1,47,33,717,['c'],1,left,['1'],6,27,[0.08812331],100,47,medium,plus,dotcolour,beta,,,1,18,M,R,
138,12,12,3,1,36,44,867,['c'],0,right,['1'],6,17,[0.07669556],100,44,hard,plus,dotcolour,beta,,,1,18,M,R,
139,13,13,3,1,53,27,516,['c'],1,left,['1'],6,53,[0.09219122],100,53,easy,plus,dotcolour,beta,,,1,18,M,R,
140,14,14,3,1,36,44,665,['n'],1,right,['1'],6,74,[-0.05829495],100,44,hard,plus,dotcolour,beta,,,1,18,M,R,
141,15,15,3,1,27,53,567,['n'],1,right,['1'],6,57,[-0.08945521],100,53,easy,plus,dotcolour,beta,,,1,18,M,R,
142,16,16,3,1,44,36,883,['n'],0,left,['1'],6,37,[-0.07776475],100,44,hard,plus,dotcolour,beta,,,1,18,M,R,
143,17,17,3,1,36,44,682,['c'],0,right,['1'],6,42,[0.0814562],100,44,hard,plus,dotcolour,beta,,,1,18,M,R,
144,18,18,3,1,27,53,483,['n'],1,right,['1'],6,62,[-0.07783772],100,53,easy,plus,dotcolour,beta,,,1,18,M,R,
145,19,19,3,1,44,36,532,['c'],1,left,['1'],6,63,[0.07030343],100,44,hard,plus,dotcolour,beta,,,1,18,M,R,
146,20,20,3,1,33,47,549,['c'],0,right,['1'],6,48,[0.06916508],100,47,medium,plus,dotcolour,beta,,,1,18,M,R,
147,21,21,3,1,53,27,467,['n'],0,left,['1'],6,36,[-0.06628949],100,53,easy,plus,dotcolour,beta,,,1,18,M,R,
148,22,22,3,1,36,44,766,['c'],0,right,['1'],6,101,[0.08107998],100,44,hard,plus,dotcolour,beta,,,1,18,M,R,
149,23,23,3,1,33,47,383,['c'],0,right,['1'],6,19,[0.08901909],100,47,medium,plus,dotcolour,beta,,,1,18,M,R,
150,24,24,3,1,47,33,417,['c'],1,left,['1'],6,3,[0.07470814],100,47,medium,plus,dotcolour,beta,,,1,18,M,R,
151,25,25,3,1,36,44,498,['n'],1,right,['1'],6,65,[-0.03611736],100,44,hard,plus,dotcolour,beta,,,1,18,M,R,
152,26,26,3,1,27,53,565,['n'],1,right,['1'],6,49,[-0.12551146],100,53,easy,plus,dotcolour,beta,,,1,18,M,R,
153,27,27,3,1,53,27,631,['c'],1,left,['1'],6,31,[0.11708166],100,53,easy,plus,dotcolour,beta,,,1,18,M,R,
154,28,28,3,1,47,33,484,['c'],1,left,['1'],6,35,[0.10545703],100,47,medium,plus,dotcolour,beta,,,1,18,M,R,
155,29,29,3,1,33,47,566,['n'],1,right,['1'],6,61,[-0.07486015],100,47,medium,plus,dotcolour,beta,,,1,18,M,R,
156,30,30,3,1,33,47,766,['n'],1,right,['1'],6,13,[-0.05995452],100,47,medium,plus,dotcolour,beta,,,1,18,M,R,
157,31,31,3,1,53,27,516,['c'],1,left,['1'],6,16,[0.07046344],100,53,easy,plus,dotcolour,beta,,,1,18,M,R,
158,32,32,3,1,53,27,432,['c'],1,left,['1'],6,24,[0.08137208],100,53,easy,plus,dotcolour,beta,,,1,18,M,R,
159,33,33,3,1,47,33,464,['c'],1,left,['1'],6,61,[0.05726558],100,47,medium,plus,dotcolour,beta,,,1,18,M,R,
160,34,34,3,1,33,47,1165,['n'],1,right,['1'],6,45,[-0.08406939],100,47,medium,plus,dotcolour,beta,,,1,18,M,R,
161,35,35,3,1,44,36,615,['c'],1,left,['1'],6,60,[0.05662631],100,44,hard,plus,dotcolour,beta,,,1,18,M,R,
162,36,36,3,1,36,44,515,['c'],0,right,['0'],1,670,[0.06256094],93,44,hard,plus,dotcolour,beta,,,1,18,M,R,
163,37,37,3,1,27,53,917,['n'],1,right,['1'],6,95,[-0.11234043],100,53,easy,plus,dotcolour,beta,,,1,18,M,R,
164,38,38,3,1,27,53,516,['n'],1,right,['1'],6,40,[-0.09899399],100,53,easy,plus,dotcolour,beta,,,1,18,M,R,
165,39,39,3,1,44,36,383,['n'],0,left,['1'],6,57,[-0.07409214],100,44,hard,plus,dotcolour,beta,,,1,18,M,R,
166,40,40,3,1,53,27,415,['c'],1,left,['1'],6,39,[0.08825068],100,53,easy,plus,dotcolour,beta,,,1,18,M,R,
167,41,41,3,1,47,33,531,['c'],1,left,['1'],6,41,[0.11605921],100,47,medium,plus,dotcolour,beta,,,1,18,M,R,
168,42,0,4,1,53,27,800,['c'],1,left,['1'],6,66,[0.07305727],100,53,easy,plus,dotcolour,beta,,,1,18,M,R,
169,43,1,4,1,27,53,466,['n'],1,right,['1'],6,86,[-0.06185724],100,53,easy,plus,dotcolour,beta,,,1,18,M,R,
170,44,2,4,1,44,36,365,['c'],1,left,['1'],6,30,[0.04383028],100,44,hard,plus,dotcolour,beta,,,1,18,M,R,
171,45,3,4,1,47,33,582,['c'],1,left,['1'],6,55,[0.09374707],100,47,medium,plus,dotcolour,beta,,,1,18,M,R,
172,46,4,4,1,44,36,566,['c'],1,left,['1'],6,47,[0.08525344],100,44,hard,plus,dotcolour,beta,,,1,18,M,R,
173,47,5,4,1,36,44,464,['c'],0,right,['1'],6,60,[0.08523494],100,44,hard,plus,dotcolour,beta,,,1,18,M,R,
174,48,6,4,1,36,44,1066,['n'],1,right,['1'],6,48,[-0.0806238],100,44,hard,plus,dotcolour,beta,,,1,18,M,R,
175,49,7,4,1,44,36,833,['n'],0,left,['1'],6,54,[-0.02520964],100,44,hard,plus,dotcolour,beta,,,1,18,M,R,
176,50,8,4,1,44,36,831,['c'],1,left,['1'],6,35,[0.09551267],100,44,hard,plus,dotcolour,beta,,,1,18,M,R,
177,51,9,4,1,33,47,633,['n'],1,right,['1'],6,98,[-0.06079294],100,47,medium,plus,dotcolour,beta,,,1,18,M,R,
178,52,10,4,1,33,47,665,['n'],1,right,['1'],6,101,[-0.10132142],100,47,medium,plus,dotcolour,beta,,,1,18,M,R,
179,53,11,4,1,47,33,647,['c'],1,left,['1'],6,32,[0.08639452],100,47,medium,plus,dotcolour,beta,,,1,18,M,R,
180,54,12,4,1,53,27,600,['c'],1,left,['1'],6,48,[0.1217896],100,53,easy,plus,dotcolour,beta,,,1,18,M,R,
181,55,13,4,1,36,44,830,['c'],0,right,['1'],6,6,[0.0625757],100,44,hard,plus,dotcolour,beta,,,1,18,M,R,
182,56,14,4,1,27,53,448,['n'],1,right,['1'],6,85,[-0.11009157],100,53,easy,plus,dotcolour,beta,,,1,18,M,R,
183,57,15,4,1,27,53,549,['n'],1,right,['1'],6,85,[-0.12873582],100,53,easy,plus,dotcolour,beta,,,1,18,M,R,
184,58,16,4,1,36,44,799,['c'],0,right,['1'],6,27,[0.05188306],100,44,hard,plus,dotcolour,beta,,,1,18,M,R,
185,59,17,4,1,27,53,499,['n'],1,right,['1'],6,111,[-0.11442549],100,53,easy,plus,dotcolour,beta,,,1,18,M,R,
186,60,18,4,1,47,33,1131,['c'],1,left,['1'],6,30,[0.07835005],100,47,medium,plus,dotcolour,beta,,,1,18,M,R,
187,61,19,4,1,53,27,581,['c'],1,left,['1'],6,15,[0.08360244],100,53,easy,plus,dotcolour,beta,,,1,18,M,R,
188,62,20,4,1,33,47,765,['n'],1,right,['1'],6,73,[-0.12587011],100,47,medium,plus,dotcolour,beta,,,1,18,M,R,
189,63,21,4,1,44,36,665,['n'],0,left,['1'],6,85,[-0.02965902],99,44,hard,plus,dotcolour,beta,,,1,18,M,R,
190,64,22,4,1,33,47,1116,['n'],1,right,['1'],6,94,[-0.07729892],100,47,medium,plus,dotcolour,beta,,,1,18,M,R,
191,65,23,4,1,33,47,514,['n'],1,right,['1'],6,79,[-0.09119158],100,47,medium,plus,dotcolour,beta,,,1,18,M,R,
192,66,24,4,1,36,44,883,['n'],1,right,['1'],6,65,[-0.03054633],100,44,hard,plus,dotcolour,beta,,,1,18,M,R,
193,67,25,4,1,27,53,599,['n'],1,right,['1'],6,64,[-0.13499295],100,53,easy,plus,dotcolour,beta,,,1,18,M,R,
194,68,26,4,1,44,36,715,['c'],1,left,['1'],6,34,[0.08262067],100,44,hard,plus,dotcolour,beta,,,1,18,M,R,
195,69,27,4,1,33,47,683,['c'],0,right,['1'],6,15,[0.07486887],100,47,medium,plus,dotcolour,beta,,,1,18,M,R,
196,70,28,4,1,36,44,965,['n'],1,right,['1'],6,73,[-0.03374881],100,44,hard,plus,dotcolour,beta,,,1,18,M,R,
197,71,29,4,1,47,33,865,['c'],1,left,['1'],6,61,[0.09582925],100,47,medium,plus,dotcolour,beta,,,1,18,M,R,
198,72,30,4,1,53,27,615,['c'],1,left,['1'],6,83,[0.08981962],100,53,easy,plus,dotcolour,beta,,,1,18,M,R,
199,73,31,4,1,53,27,515,['c'],1,left,['1'],6,61,[0.0529316],100,53,easy,plus,dotcolour,beta,,,1,18,M,R,
200,74,32,4,1,36,44,599,['c'],0,right,['1'],6,99,[0.1031395],100,44,hard,plus,dotcolour,beta,,,1,18,M,R,
201,75,33,4,1,27,53,514,['n'],1,right,['1'],6,76,[-0.07008967],100,53,easy,plus,dotcolour,beta,,,1,18,M,R,
202,76,34,4,1,47,33,633,['n'],0,left,['1'],6,56,[-0.02953008],100,47,medium,plus,dotcolour,beta,,,1,18,M,R,
203,77,35,4,1,33,47,515,['n'],1,right,['1'],6,75,[-0.08276263],100,47,medium,plus,dotcolour,beta,,,1,18,M,R,
204,78,36,4,1,53,27,600,['c'],1,left,['1'],6,17,[0.07028983],100,53,easy,plus,dotcolour,beta,,,1,18,M,R,
205,79,37,4,1,47,33,798,['c'],1,left,['1'],6,34,[0.05265032],100,47,medium,plus,dotcolour,beta,,,1,18,M,R,
206,80,38,4,1,44,36,499,['c'],1,left,['1'],6,61,[0.05577804],100,44,hard,plus,dotcolour,beta,,,1,18,M,R,
207,81,39,4,1,27,53,681,['n'],1,right,['1'],6,81,[-0.09541658],100,53,easy,plus,dotcolour,beta,,,1,18,M,R,
208,82,40,4,1,53,27,816,['c'],1,left,['1'],6,54,[0.09443727],100,53,easy,plus,dotcolour,beta,,,1,18,M,R,
209,83,41,4,1,47,33,532,['c'],1,left,['1'],6,56,[0.00480158],99,47,medium,plus,dotcolour,beta,,,1,18,M,R,
210,84,0,5,1,47,33,1166,['c'],1,left,['1'],6,59,[0.04790772],100,47,medium,plus,dotcolour,beta,,,1,18,M,R,
211,85,1,5,1,33,47,648,['n'],1,right,['1'],6,48,[-0.02503419],100,47,medium,plus,dotcolour,beta,,,1,18,M,R,
212,86,2,5,1,53,27,565,['c'],1,left,['1'],6,24,[0.08605049],100,53,easy,plus,dotcolour,beta,,,1,18,M,R,
213,87,3,5,1,36,44,1029,['c'],0,right,['1'],6,47,[0.08095767],100,44,hard,plus,dotcolour,beta,,,1,18,M,R,
214,88,4,5,1,36,44,699,['n'],1,right,['1'],6,91,[-0.0637645],100,44,hard,plus,dotcolour,beta,,,1,18,M,R,
215,89,5,5,1,53,27,632,['c'],1,left,['1'],6,31,[0.07904873],100,53,easy,plus,dotcolour,beta,,,1,18,M,R,
216,90,6,5,1,36,44,831,['n'],1,right,['1'],6,69,[-0.06668808],100,44,hard,plus,dotcolour,beta,,,1,18,M,R,
217,91,7,5,1,33,47,765,['c'],0,right,['1'],6,54,[0.05605218],100,47,medium,plus,dotcolour,beta,,,1,18,M,R,
218,92,8,5,1,44,36,650,['c'],1,left,['1'],6,59,[0.09873161],100,44,hard,plus,dotcolour,beta,,,1,18,M,R,
219,93,9,5,1,33,47,665,['c'],0,right,['0'],1,623,[-0.09377768],29,47,medium,plus,dotcolour,beta,,,1,18,M,R,
220,94,10,5,1,27,53,617,['n'],1,right,['1'],6,54,[-0.06179864],100,53,easy,plus,dotcolour,beta,,,1,18,M,R,
221,95,11,5,1,53,27,530,['c'],1,left,['1'],6,40,[0.11827954],100,53,easy,plus,dotcolour,beta,,,1,18,M,R,
222,96,12,5,1,33,47,563,['n'],1,right,['1'],6,57,[-0.07208103],100,47,medium,plus,dotcolour,beta,,,1,18,M,R,
223,97,13,5,1,47,33,498,['n'],0,left,['1'],6,148,[-0.08710145],100,47,medium,plus,dotcolour,beta,,,1,18,M,R,
224,98,14,5,1,47,33,416,['c'],1,left,['1'],6,38,[0.05738048],100,47,medium,plus,dotcolour,beta,,,1,18,M,R,
225,99,15,5,1,36,44,1132,['c'],0,right,['1'],6,41,[0.093025],100,44,hard,plus,dotcolour,beta,,,1,18,M,R,
226,100,16,5,1,44,36,1832,['c'],1,left,['1'],6,431,[0.17157125],100,44,hard,plus,dotcolour,beta,,,1,18,M,R,
227,101,17,5,1,27,53,566,['n'],1,right,['1'],6,65,[-0.06893821],100,53,easy,plus,dotcolour,beta,,,1,18,M,R,
228,102,18,5,1,44,36,598,['c'],1,left,['1'],6,55,[0.06362902],100,44,hard,plus,dotcolour,beta,,,1,18,M,R,
229,103,19,5,1,44,36,698,['c'],1,left,['1'],6,26,[0.07625558],100,44,hard,plus,dotcolour,beta,,,1,18,M,R,
230,104,20,5,1,53,27,665,['c'],1,left,['1'],6,55,[0.08043519],100,53,easy,plus,dotcolour,beta,,,1,18,M,R,
231,105,21,5,1,53,27,713,['c'],1,left,['1'],6,74,[0.06529733],100,53,easy,plus,dotcolour,beta,,,1,18,M,R,
232,106,22,5,1,27,53,665,['n'],1,right,['1'],6,94,[-0.16379919],100,53,easy,plus,dotcolour,beta,,,1,18,M,R,
233,107,23,5,1,33,47,665,['n'],1,right,['1'],6,128,[-0.04215311],99,47,medium,plus,dotcolour,beta,,,1,18,M,R,
234,108,24,5,1,27,53,748,['n'],1,right,['1'],6,110,[-0.06237732],100,53,easy,plus,dotcolour,beta,,,1,18,M,R,
235,109,25,5,1,53,27,749,['c'],1,left,['1'],6,37,[0.05824148],100,53,easy,plus,dotcolour,beta,,,1,18,M,R,
236,110,26,5,1,47,33,765,['c'],1,left,['1'],6,30,[0.01431033],100,47,medium,plus,dotcolour,beta,,,1,18,M,R,
237,111,27,5,1,44,36,748,['c'],1,left,['1'],6,56,[0.05490658],100,44,hard,plus,dotcolour,beta,,,1,18,M,R,
238,112,28,5,1,27,53,467,['n'],1,right,['1'],6,77,[-0.07579884],100,53,easy,plus,dotcolour,beta,,,1,18,M,R,
239,113,29,5,1,44,36,1132,['c'],1,left,['1'],6,6,[0.06675998],100,44,hard,plus,dotcolour,beta,,,1,18,M,R,
240,114,30,5,1,36,44,765,['n'],1,right,['1'],6,88,[-0.07558796],100,44,hard,plus,dotcolour,beta,,,1,18,M,R,
241,115,31,5,1,47,33,765,['c'],1,left,['1'],6,7,[0.09959681],100,47,medium,plus,dotcolour,beta,,,1,18,M,R,
242,116,32,5,1,36,44,1265,['n'],1,right,['1'],6,53,[-0.09409709],100,44,hard,plus,dotcolour,beta,,,1,18,M,R,
243,117,33,5,1,36,44,616,['n'],1,right,['1'],6,59,[-0.05953157],100,44,hard,plus,dotcolour,beta,,,1,18,M,R,
244,118,34,5,1,47,33,549,['c'],1,left,['1'],6,44,[0.06728033],100,47,medium,plus,dotcolour,beta,,,1,18,M,R,
245,119,35,5,1,27,53,532,['n'],1,right,['1'],6,38,[-0.07203565],100,53,easy,plus,dotcolour,beta,,,1,18,M,R,
246,120,36,5,1,27,53,613,['n'],1,right,['1'],6,38,[-0.07146228],100,53,easy,plus,dotcolour,beta,,,1,18,M,R,
247,121,37,5,1,47,33,649,['c'],1,left,['1'],6,19,[0.05991585],100,47,medium,plus,dotcolour,beta,,,1,18,M,R,
248,122,38,5,1,44,36,700,['c'],1,left,['1'],6,63,[0.06009412],100,44,hard,plus,dotcolour,beta,,,1,18,M,R,
249,123,39,5,1,33,47,782,['n'],1,right,['1'],6,79,[-0.10379514],100,47,medium,plus,dotcolour,beta,,,1,18,M,R,
250,124,40,5,1,53,27,516,['c'],1,left,['1'],6,16,[0.06194173],100,53,easy,plus,dotcolour,beta,,,1,18,M,R,
251,125,41,5,1,33,47,599,['c'],0,right,['1'],6,73,[0.07264724],100,47,medium,plus,dotcolour,beta,,,1,18,M,R,
252,0,0,6,2,27,53,767,['n'],1,right,['1'],6,47,[-0.05757292],54,53,easy,minus,dotcolour,beta,,,1,18,M,R,
253,1,1,6,2,47,33,765,['c'],1,left,['1'],6,22,[0.04964305],33,47,medium,minus,dotcolour,beta,,,1,18,M,R,
254,2,2,6,2,44,36,966,['n'],0,left,['1'],6,64,[-0.04429973],31,44,hard,minus,dotcolour,beta,,,1,18,M,R,
255,3,3,6,2,33,47,1165,['n'],1,right,['1'],6,57,[-0.06628904],69,47,medium,minus,dotcolour,beta,,,1,18,M,R,
256,4,4,6,2,53,27,581,['c'],1,left,['1'],6,16,[0.06092407],68,53,easy,minus,dotcolour,beta,,,1,18,M,R,
257,5,5,6,2,47,33,1265,['n'],0,left,['2'],5,159,[-0.0048564],9,47,medium,minus,dotcolour,beta,,,1,18,M,R,
258,6,6,6,2,36,44,632,['n'],1,right,['1'],6,48,[-0.09911109],97,44,hard,minus,dotcolour,beta,,,1,18,M,R,
259,7,7,6,2,47,33,615,['n'],0,left,['1'],6,63,[-0.01786406],6,47,medium,minus,dotcolour,beta,,,1,18,M,R,
260,8,8,6,2,44,36,983,['c'],1,left,['1'],6,38,[0.08848997],95,44,hard,minus,dotcolour,beta,,,1,18,M,R,
261,9,9,6,2,53,27,499,['n'],0,left,['1'],6,50,[-0.06926081],75,53,easy,minus,dotcolour,beta,,,1,18,M,R,
262,10,10,6,2,33,47,615,['c'],0,right,['1'],6,25,[0.06219353],68,47,medium,minus,dotcolour,beta,,,1,18,M,R,
263,11,11,6,2,36,44,765,['c'],0,right,['1'],6,466,[0.03288947],35,44,hard,minus,dotcolour,beta,,,1,18,M,R,
264,12,12,6,2,36,44,1167,['n'],1,right,['1'],6,50,[-0.07463868],82,44,hard,minus,dotcolour,beta,,,1,18,M,R,
265,13,13,6,2,33,47,514,['n'],1,right,['1'],6,45,[-0.05715267],53,47,medium,minus,dotcolour,beta,,,1,18,M,R,
266,14,14,6,2,44,36,680,['c'],1,left,['1'],6,48,[0.04653906],32,44,hard,minus,dotcolour,beta,,,1,18,M,R,
267,15,15,6,2,44,36,682,['n'],0,left,['1'],6,45,[-0.08869776],94,44,hard,minus,dotcolour,beta,,,1,18,M,R,
268,16,16,6,2,47,33,983,['n'],0,left,['1'],6,92,[-0.07005751],70,47,medium,minus,dotcolour,beta,,,1,18,M,R,
269,17,17,6,2,27,53,549,['n'],1,right,['1'],6,52,[-0.09057236],94,53,easy,minus,dotcolour,beta,,,1,18,M,R,
270,18,18,6,2,33,47,481,['n'],1,right,['1'],6,40,[-0.09124779],96,47,medium,minus,dotcolour,beta,,,1,18,M,R,
271,19,19,6,2,53,27,765,['c'],1,left,['1'],6,16,[0.05414507],45,53,easy,minus,dotcolour,beta,,,1,18,M,R,
272,20,20,6,2,27,53,466,['n'],1,right,['1'],6,55,[-0.07403346],81,53,easy,minus,dotcolour,beta,,,1,18,M,R,
273,21,21,6,2,27,53,398,['n'],1,right,['1'],6,45,[-0.07903035],88,53,easy,minus,dotcolour,beta,,,1,18,M,R,
274,22,22,6,2,27,53,417,['n'],1,right,['1'],6,36,[-0.0671786],75,53,easy,minus,dotcolour,beta,,,1,18,M,R,
275,23,23,6,2,44,36,416,['n'],0,left,['1'],6,75,[-0.09245621],92,44,hard,minus,dotcolour,beta,,,1,18,M,R,
276,24,24,6,2,47,33,1048,['n'],0,left,['1'],6,24,[-0.08817583],98,47,medium,minus,dotcolour,beta,,,1,18,M,R,
277,25,25,6,2,47,33,1216,['c'],1,left,['1'],6,56,[0.10835557],98,47,medium,minus,dotcolour,beta,,,1,18,M,R,
278,26,26,6,2,27,53,715,['n'],1,right,['1'],6,42,[-0.08447652],93,53,easy,minus,dotcolour,beta,,,1,18,M,R,
279,27,27,6,2,47,33,582,['n'],0,left,['0'],1,514,[-0.14634229],91,47,medium,minus,dotcolour,beta,,,1,18,M,R,
280,28,28,6,2,53,27,798,['c'],1,left,['1'],6,46,[0.08056084],89,53,easy,minus,dotcolour,beta,,,1,18,M,R,
281,29,29,6,2,36,44,1082,['c'],0,right,['1'],6,18,[0.08911285],99,44,hard,minus,dotcolour,beta,,,1,18,M,R,
282,30,30,6,2,44,36,782,['c'],1,left,['1'],6,28,[0.0290713],5,44,hard,minus,dotcolour,beta,,,1,18,M,R,
283,31,31,6,2,33,47,715,['n'],1,right,['1'],6,55,[-0.07222041],78,47,medium,minus,dotcolour,beta,,,1,18,M,R,
284,32,32,6,2,53,27,564,['c'],1,left,['1'],6,24,[0.08473116],97,53,easy,minus,dotcolour,beta,,,1,18,M,R,
285,33,33,6,2,33,47,615,['n'],1,right,['1'],6,55,[-0.0877698],92,47,medium,minus,dotcolour,beta,,,1,18,M,R,
286,34,34,6,2,53,27,682,['c'],1,left,['1'],6,450,[0.09117945],72,53,easy,minus,dotcolour,beta,,,1,18,M,R,
287,35,35,6,2,44,36,766,['n'],0,left,['1'],6,59,[-0.04372375],29,44,hard,minus,dotcolour,beta,,,1,18,M,R,
288,36,36,6,2,27,53,731,['n'],1,right,['1'],6,52,[-0.06642051],70,53,easy,minus,dotcolour,beta,,,1,18,M,R,
289,37,37,6,2,53,27,549,['c'],1,left,['1'],6,46,[0.06258499],64,53,easy,minus,dotcolour,beta,,,1,18,M,R,
290,38,38,6,2,36,44,766,['n'],1,right,['1'],6,87,[-0.0403677],28,44,hard,minus,dotcolour,beta,,,1,18,M,R,
291,39,39,6,2,33,47,1249,['c'],0,right,['1'],6,26,[0.07259336],87,47,medium,minus,dotcolour,beta,,,1,18,M,R,
292,40,40,6,2,36,44,697,['n'],1,right,['1'],6,22,[-0.05336166],43,44,hard,minus,dotcolour,beta,,,1,18,M,R,
293,41,41,6,2,36,44,665,['n'],1,right,['1'],6,76,[-0.1437221],100,44,hard,minus,dotcolour,beta,,,1,18,M,R,
294,42,0,7,2,36,44,733,['n'],1,right,['1'],6,30,[-0.07198317],85,44,hard,minus,dotcolour,beta,,,1,18,M,R,
295,43,1,7,2,36,44,700,['n'],1,right,['1'],6,82,[-0.14512248],100,44,hard,minus,dotcolour,beta,,,1,18,M,R,
296,44,2,7,2,33,47,498,['n'],1,right,['1'],6,60,[-0.11949632],99,47,medium,minus,dotcolour,beta,,,1,18,M,R,
297,45,3,7,2,44,36,499,['n'],0,left,['1'],6,46,[-0.07052858],78,44,hard,minus,dotcolour,beta,,,1,18,M,R,
298,46,4,7,2,44,36,516,['n'],0,left,['1'],6,33,[-0.08509377],95,44,hard,minus,dotcolour,beta,,,1,18,M,R,
299,47,5,7,2,47,33,482,['n'],0,left,['1'],6,30,[-0.0840966],95,47,medium,minus,dotcolour,beta,,,1,18,M,R,
300,48,6,7,2,27,53,380,['n'],1,right,['1'],6,22,[-0.0717588],88,53,easy,minus,dotcolour,beta,,,1,18,M,R,
301,49,7,7,2,53,27,334,['n'],0,left,['1'],6,18,[-0.05816271],59,53,easy,minus,dotcolour,beta,,,1,18,M,R,
302,50,8,7,2,36,44,650,['n'],1,right,['1'],6,57,[-0.05099998],41,44,hard,minus,dotcolour,beta,,,1,18,M,R,
303,51,9,7,2,53,27,383,['c'],1,left,['1'],6,432,[0.10772238],81,53,easy,minus,dotcolour,beta,,,1,18,M,R,
304,52,10,7,2,53,27,348,['c'],1,left,['1'],6,26,[0.10652487],100,53,easy,minus,dotcolour,beta,,,1,18,M,R,
305,53,11,7,2,53,27,365,['c'],1,left,['1'],6,11,[0.06210089],75,53,easy,minus,dotcolour,beta,,,1,18,M,R,
306,54,12,7,2,47,33,682,['n'],0,left,['0'],1,529,[0.0870761],3,47,medium,minus,dotcolour,beta,,,1,18,M,R,
307,55,13,7,2,53,27,664,['c'],1,left,['1'],6,34,[0.06518462],72,53,easy,minus,dotcolour,beta,,,1,18,M,R,
308,56,14,7,2,44,36,982,['c'],1,left,['1'],6,35,[0.08962658],96,44,hard,minus,dotcolour,beta,,,1,18,M,R,
309,57,15,7,2,33,47,782,['n'],1,right,['1'],6,19,[-0.06567904],79,47,medium,minus,dotcolour,beta,,,1,18,M,R,
310,58,16,7,2,33,47,548,['n'],1,right,['1'],6,54,[-0.08575781],91,47,medium,minus,dotcolour,beta,,,1,18,M,R,
311,59,17,7,2,33,47,799,['c'],0,right,['1'],6,53,[0.06306091],64,47,medium,minus,dotcolour,beta,,,1,18,M,R,
312,60,18,7,2,33,47,582,['n'],1,right,['1'],6,61,[-0.04505325],32,47,medium,minus,dotcolour,beta,,,1,18,M,R,
313,61,19,7,2,36,44,583,['n'],1,right,['1'],6,29,[-0.10367347],99,44,hard,minus,dotcolour,beta,,,1,18,M,R,
314,62,20,7,2,47,33,633,['c'],1,left,['1'],6,27,[0.09982014],99,47,medium,minus,dotcolour,beta,,,1,18,M,R,
315,63,21,7,2,36,44,716,['n'],1,right,['1'],6,46,[-0.09412869],96,44,hard,minus,dotcolour,beta,,,1,18,M,R,
316,64,22,7,2,53,27,833,['c'],1,left,['1'],6,28,[0.07579598],90,53,easy,minus,dotcolour,beta,,,1,18,M,R,
317,65,23,7,2,36,44,649,['n'],1,right,['1'],6,50,[-0.06871142],74,44,hard,minus,dotcolour,beta,,,1,18,M,R,
318,66,24,7,2,44,36,565,['n'],0,left,['1'],6,51,[-0.05262442],44,44,hard,minus,dotcolour,beta,,,1,18,M,R,
319,67,25,7,2,27,53,582,['n'],1,right,['1'],6,35,[-0.06422781],70,53,easy,minus,dotcolour,beta,,,1,18,M,R,
320,68,26,7,2,47,33,547,['c'],1,left,['1'],6,21,[0.09031408],99,47,medium,minus,dotcolour,beta,,,1,18,M,R,
321,69,27,7,2,44,36,482,['c'],1,left,['1'],6,43,[0.08182419],91,44,hard,minus,dotcolour,beta,,,1,18,M,R,
322,70,28,7,2,44,36,433,['c'],1,left,['1'],6,48,[0.07668448],85,44,hard,minus,dotcolour,beta,,,1,18,M,R,
323,71,29,7,2,27,53,446,['n'],1,right,['1'],6,54,[-0.09941816],97,53,easy,minus,dotcolour,beta,,,1,18,M,R,
324,72,30,7,2,36,44,533,['n'],1,right,['1'],6,55,[-0.0480769],36,44,hard,minus,dotcolour,beta,,,1,18,M,R,
325,73,31,7,2,33,47,616,['n'],1,right,['1'],6,54,[-0.07093836],77,47,medium,minus,dotcolour,beta,,,1,18,M,R,
326,74,32,7,2,27,53,515,['n'],1,right,['1'],6,32,[-0.05899911],59,53,easy,minus,dotcolour,beta,,,1,18,M,R,
327,75,33,7,2,47,33,732,['c'],1,left,['1'],6,19,[0.07681614],94,47,medium,minus,dotcolour,beta,,,1,18,M,R,
328,76,34,7,2,27,53,715,['n'],1,right,['1'],6,71,[-0.11787569],99,53,easy,minus,dotcolour,beta,,,1,18,M,R,
329,77,35,7,2,47,33,799,['c'],1,left,['1'],6,22,[0.09026158],99,47,medium,minus,dotcolour,beta,,,1,18,M,R,
330,78,36,7,2,27,53,865,['n'],1,right,['1'],6,52,[-0.10558375],98,53,easy,minus,dotcolour,beta,,,1,18,M,R,
331,79,37,7,2,53,27,800,['c'],1,left,['1'],6,27,[0.06913022],82,53,easy,minus,dotcolour,beta,,,1,18,M,R,
332,80,38,7,2,44,36,616,['n'],0,left,['1'],6,74,[-0.04193477],29,44,hard,minus,dotcolour,beta,,,1,18,M,R,
333,81,39,7,2,27,53,449,['n'],1,right,['1'],6,79,[-0.11000145],97,53,easy,minus,dotcolour,beta,,,1,18,M,R,
334,82,40,7,2,33,47,582,['n'],1,right,['1'],6,69,[-0.09516401],94,47,medium,minus,dotcolour,beta,,,1,18,M,R,
335,83,41,7,2,47,33,581,['c'],1,left,['1'],6,44,[0.08157339],90,47,medium,minus,dotcolour,beta,,,1,18,M,R,
336,84,0,8,2,47,33,915,['c'],1,left,['1'],6,24,[0.07629856],92,47,medium,minus,dotcolour,beta,,,1,18,M,R,
337,85,1,8,2,53,27,565,['c'],1,left,['1'],6,18,[0.06724065],83,53,easy,minus,dotcolour,beta,,,1,18,M,R,
338,86,2,8,2,47,33,1063,['c'],1,left,['1'],6,8,[0.07045849],95,47,medium,minus,dotcolour,beta,,,1,18,M,R,
339,87,3,8,2,36,44,581,['n'],1,right,['1'],6,33,[-0.08401463],94,44,hard,minus,dotcolour,beta,,,1,18,M,R,
340,88,4,8,2,44,36,682,['c'],1,left,['1'],6,21,[0.08016104],96,44,hard,minus,dotcolour,beta,,,1,18,M,R,
341,89,5,8,2,44,36,746,['c'],1,left,['1'],6,48,[0.08780477],93,44,hard,minus,dotcolour,beta,,,1,18,M,R,
342,90,6,8,2,33,47,731,['n'],1,right,['1'],6,114,[-0.12276084],97,47,medium,minus,dotcolour,beta,,,1,18,M,R,
343,91,7,8,2,44,36,898,['c'],1,left,['1'],6,19,[0.08144959],97,44,hard,minus,dotcolour,beta,,,1,18,M,R,
344,92,8,8,2,36,44,1066,['c'],0,right,['1'],6,8,[0.04260909],7,44,hard,minus,dotcolour,beta,,,1,18,M,R,
345,93,9,8,2,33,47,766,['n'],1,right,['1'],6,99,[-0.01806642],10,47,medium,minus,dotcolour,beta,,,1,18,M,R,
346,94,10,8,2,27,53,1065,['n'],1,right,['1'],6,118,[-0.09596207],89,53,easy,minus,dotcolour,beta,,,1,18,M,R,
347,95,11,8,2,47,33,648,['c'],1,left,['1'],6,25,[0.07675761],92,47,medium,minus,dotcolour,beta,,,1,18,M,R,
348,96,12,8,2,36,44,847,['n'],1,right,['1'],6,79,[-0.08166377],84,44,hard,minus,dotcolour,beta,,,1,18,M,R,
349,97,13,8,2,27,53,715,['n'],1,right,['1'],6,80,[-0.03711957],24,53,easy,minus,dotcolour,beta,,,1,18,M,R,
350,98,14,8,2,47,33,630,['c'],1,left,['1'],6,77,[0.09156315],91,47,medium,minus,dotcolour,beta,,,1,18,M,R,
351,99,15,8,2,27,53,815,['c'],0,right,['1'],6,42,[0.06121251],62,53,easy,minus,dotcolour,beta,,,1,18,M,R,
352,100,16,8,2,36,44,831,['n'],1,right,['1'],6,64,[-0.11677628],99,44,hard,minus,dotcolour,beta,,,1,18,M,R,
353,101,17,8,2,33,47,915,['n'],1,right,['1'],6,26,[-0.05219717],41,47,medium,minus,dotcolour,beta,,,1,18,M,R,
354,102,18,8,2,53,27,649,['c'],1,left,['1'],6,16,[0.0845398],98,53,easy,minus,dotcolour,beta,,,1,18,M,R,
355,103,19,8,2,53,27,715,['c'],1,left,['1'],6,44,[0.08113586],90,53,easy,minus,dotcolour,beta,,,1,18,M,R,
356,104,20,8,2,53,27,631,['c'],1,left,['1'],6,18,[0.08717734],99,53,easy,minus,dotcolour,beta,,,1,18,M,R,
357,105,21,8,2,36,44,1464,['n'],1,right,['1'],6,64,[-0.09927518],96,44,hard,minus,dotcolour,beta,,,1,18,M,R,
358,106,22,8,2,36,44,900,['c'],0,right,['1'],6,18,[0.08348158],98,44,hard,minus,dotcolour,beta,,,1,18,M,R,
359,107,23,8,2,47,33,700,['c'],1,left,['1'],6,504,[0.05219597],48,47,medium,minus,dotcolour,beta,,,1,18,M,R,
360,108,24,8,2,47,33,681,['c'],1,left,['1'],6,9,[0.06629056],88,47,medium,minus,dotcolour,beta,,,1,18,M,R,
361,109,25,8,2,33,47,599,['n'],1,right,['1'],6,66,[-0.06267091],62,47,medium,minus,dotcolour,beta,,,1,18,M,R,
362,110,26,8,2,33,47,697,['n'],1,right,['1'],6,12,[-0.07296717],95,47,medium,minus,dotcolour,beta,,,1,18,M,R,
363,111,27,8,2,33,47,599,['n'],1,right,['1'],6,37,[-0.07602749],87,47,medium,minus,dotcolour,beta,,,1,18,M,R,
364,112,28,8,2,33,47,498,['n'],1,right,['1'],6,466,[-0.07360163],62,47,medium,minus,dotcolour,beta,,,1,18,M,R,
365,113,29,8,2,53,27,533,['c'],1,left,['1'],6,10,[0.07212213],95,53,easy,minus,dotcolour,beta,,,1,18,M,R,
366,114,30,8,2,36,44,1765,['n'],1,right,['2'],5,100,[-0.08908724],87,44,hard,minus,dotcolour,beta,,,1,18,M,R,
367,115,31,8,2,44,36,699,['c'],1,left,['1'],6,13,[0.07725779],97,44,hard,minus,dotcolour,beta,,,1,18,M,R,
368,116,32,8,2,44,36,565,['c'],1,left,['1'],6,31,[0.09769911],99,44,hard,minus,dotcolour,beta,,,1,18,M,R,
369,117,33,8,2,27,53,514,['n'],1,right,['1'],6,66,[-0.07203068],76,53,easy,minus,dotcolour,beta,,,1,18,M,R,
370,118,34,8,2,27,53,550,['n'],1,right,['1'],6,43,[-0.08032],90,53,easy,minus,dotcolour,beta,,,1,18,M,R,
371,119,35,8,2,27,53,548,['n'],1,right,['1'],6,36,[-0.07547045],87,53,easy,minus,dotcolour,beta,,,1,18,M,R,
372,120,36,8,2,27,53,499,['n'],1,right,['1'],6,57,[-0.06191938],62,53,easy,minus,dotcolour,beta,,,1,18,M,R,
373,121,37,8,2,44,36,532,['n'],0,left,['1'],6,50,[-0.07253602],80,44,hard,minus,dotcolour,beta,,,1,18,M,R,
374,122,38,8,2,53,27,682,['c'],1,left,['1'],6,30,[0.06148517],65,53,easy,minus,dotcolour,beta,,,1,18,M,R,
375,123,39,8,2,53,27,615,['n'],0,left,['0'],1,1838,[0.24529034],2,53,easy,minus,dotcolour,beta,,,1,18,M,R,
376,124,40,8,2,44,36,650,['c'],1,left,['1'],6,43,[0.05029694],39,44,hard,minus,dotcolour,beta,,,1,18,M,R,
377,125,41,8,2,47,33,547,['c'],1,left,['1'],6,12,[0.08371628],99,47,medium,minus,dotcolour,beta,,,1,18,M,R,
378,0,0,9,3,27,53,699,['n'],1,right,['1'],6,64,[-0.06212523],100,53,easy,plus,dotcolour,beta,,,1,18,M,R,
379,1,1,9,3,27,53,499,['n'],1,right,['1'],6,51,[-0.10309372],100,53,easy,plus,dotcolour,beta,,,1,18,M,R,
380,2,2,9,3,44,36,748,['c'],1,left,['1'],6,36,[0.06021446],100,44,hard,plus,dotcolour,beta,,,1,18,M,R,
381,3,3,9,3,33,47,647,['n'],1,right,['1'],6,58,[-0.12264129],100,47,medium,plus,dotcolour,beta,,,1,18,M,R,
382,4,4,9,3,36,44,648,['c'],0,right,['1'],6,24,[0.0654397],100,44,hard,plus,dotcolour,beta,,,1,18,M,R,
383,5,5,9,3,44,36,817,['c'],1,left,['1'],6,15,[0.07992419],100,44,hard,plus,dotcolour,beta,,,1,18,M,R,
384,6,6,9,3,47,33,682,['c'],1,left,['1'],6,52,[0.07825839],100,47,medium,plus,dotcolour,beta,,,1,18,M,R,
385,7,7,9,3,33,47,482,['n'],1,right,['1'],6,48,[-0.1046747],100,47,medium,plus,dotcolour,beta,,,1,18,M,R,
386,8,8,9,3,36,44,582,['n'],1,right,['1'],6,48,[-0.06354457],100,44,hard,plus,dotcolour,beta,,,1,18,M,R,
387,9,9,9,3,53,27,565,['c'],1,left,['1'],6,9,[0.07717244],100,53,easy,plus,dotcolour,beta,,,1,18,M,R,
388,10,10,9,3,47,33,899,['n'],0,left,['1'],6,85,[-0.03103842],100,47,medium,plus,dotcolour,beta,,,1,18,M,R,
389,11,11,9,3,27,53,867,['n'],1,right,['1'],6,89,[-0.04382313],100,53,easy,plus,dotcolour,beta,,,1,18,M,R,
390,12,12,9,3,36,44,749,['c'],0,right,['1'],6,17,[0.05445323],100,44,hard,plus,dotcolour,beta,,,1,18,M,R,
391,13,13,9,3,36,44,664,['n'],1,right,['1'],6,79,[-0.08369929],100,44,hard,plus,dotcolour,beta,,,1,18,M,R,
392,14,14,9,3,36,44,647,['n'],1,right,['1'],6,59,[-0.02283185],100,44,hard,plus,dotcolour,beta,,,1,18,M,R,
393,15,15,9,3,53,27,565,['c'],1,left,['1'],6,35,[0.0726801],100,53,easy,plus,dotcolour,beta,,,1,18,M,R,
394,16,16,9,3,47,33,881,['c'],1,left,['1'],6,31,[0.06256194],100,47,medium,plus,dotcolour,beta,,,1,18,M,R,
395,17,17,9,3,47,33,565,['c'],1,left,['1'],6,33,[0.06696201],100,47,medium,plus,dotcolour,beta,,,1,18,M,R,
396,18,18,9,3,33,47,648,['n'],1,right,['1'],6,47,[-0.07928752],100,47,medium,plus,dotcolour,beta,,,1,18,M,R,
397,19,19,9,3,33,47,665,['n'],1,right,['1'],6,35,[-0.06505171],100,47,medium,plus,dotcolour,beta,,,1,18,M,R,
398,20,20,9,3,27,53,582,['n'],1,right,['1'],6,60,[-0.07323836],100,53,easy,plus,dotcolour,beta,,,1,18,M,R,
399,21,21,9,3,44,36,699,['c'],1,left,['1'],6,47,[0.07666746],100,44,hard,plus,dotcolour,beta,,,1,18,M,R,
400,22,22,9,3,44,36,648,['c'],1,left,['1'],6,20,[0.04853999],100,44,hard,plus,dotcolour,beta,,,1,18,M,R,
401,23,23,9,3,27,53,550,['c'],0,right,['0'],1,551,[0.02735053],88,53,easy,plus,dotcolour,beta,,,1,18,M,R,
402,24,24,9,3,53,27,566,['c'],1,left,['1'],6,27,[0.05443076],100,53,easy,plus,dotcolour,beta,,,1,18,M,R,
403,25,25,9,3,44,36,482,['c'],1,left,['1'],6,48,[0.08546189],100,44,hard,plus,dotcolour,beta,,,1,18,M,R,
404,26,26,9,3,33,47,433,['n'],1,right,['1'],6,38,[-0.10489454],100,47,medium,plus,dotcolour,beta,,,1,18,M,R,
405,27,27,9,3,53,27,665,['c'],1,left,['1'],6,27,[0.0892552],100,53,easy,plus,dotcolour,beta,,,1,18,M,R,
406,28,28,9,3,44,36,448,['n'],0,left,['1'],6,81,[-0.07747836],100,44,hard,plus,dotcolour,beta,,,1,18,M,R,
407,29,29,9,3,53,27,581,['c'],1,left,['1'],6,31,[0.08405922],100,53,easy,plus,dotcolour,beta,,,1,18,M,R,
408,30,30,9,3,44,36,766,['n'],0,left,['1'],6,80,[-0.09260963],100,44,hard,plus,dotcolour,beta,,,1,18,M,R,
409,31,31,9,3,53,27,630,['c'],1,left,['1'],6,45,[0.07994069],100,53,easy,plus,dotcolour,beta,,,1,18,M,R,
410,32,32,9,3,53,27,432,['c'],1,left,['1'],6,35,[0.07775328],100,53,easy,plus,dotcolour,beta,,,1,18,M,R,
411,33,33,9,3,33,47,915,['c'],0,right,['1'],6,46,[0.0993243],100,47,medium,plus,dotcolour,beta,,,1,18,M,R,
412,34,34,9,3,27,53,682,['n'],1,right,['1'],6,90,[-0.07391044],100,53,easy,plus,dotcolour,beta,,,1,18,M,R,
413,35,35,9,3,36,44,583,['n'],1,right,['1'],6,73,[-0.10535388],100,44,hard,plus,dotcolour,beta,,,1,18,M,R,
414,36,36,9,3,47,33,499,['c'],1,left,['1'],6,43,[0.08588513],100,47,medium,plus,dotcolour,beta,,,1,18,M,R,
415,37,37,9,3,27,53,516,['n'],1,right,['1'],6,70,[-0.14288435],100,53,easy,plus,dotcolour,beta,,,1,18,M,R,
416,38,38,9,3,36,44,433,['c'],0,right,['1'],6,66,[0.04019293],100,44,hard,plus,dotcolour,beta,,,1,18,M,R,
417,39,39,9,3,47,33,932,['c'],1,left,['1'],6,36,[0.04468282],100,47,medium,plus,dotcolour,beta,,,1,18,M,R,
418,40,40,9,3,33,47,1066,['n'],1,right,['1'],6,10,[-0.064961],100,47,medium,plus,dotcolour,beta,,,1,18,M,R,
419,41,41,9,3,47,33,582,['c'],1,left,['1'],6,43,[0.04825996],100,47,medium,plus,dotcolour,beta,,,1,18,M,R,
420,42,0,10,3,44,36,834,['n'],0,left,['1'],6,53,[-0.10550746],100,44,hard,plus,dotcolour,beta,,,1,18,M,R,
421,43,1,10,3,47,33,480,['c'],1,left,['1'],6,25,[0.04838003],100,47,medium,plus,dotcolour,beta,,,1,18,M,R,
422,44,2,10,3,36,44,783,['n'],1,right,['1'],6,66,[-0.05131344],100,44,hard,plus,dotcolour,beta,,,1,18,M,R,
423,45,3,10,3,33,47,466,['c'],0,right,['1'],6,46,[0.07977514],100,47,medium,plus,dotcolour,beta,,,1,18,M,R,
424,46,4,10,3,53,27,799,['c'],1,left,['1'],6,13,[0.10319142],100,53,easy,plus,dotcolour,beta,,,1,18,M,R,
425,47,5,10,3,33,47,547,['n'],1,right,['1'],6,23,[-0.07859599],100,47,medium,plus,dotcolour,beta,,,1,18,M,R,
426,48,6,10,3,47,33,699,['c'],1,left,['1'],6,12,[0.08651431],100,47,medium,plus,dotcolour,beta,,,1,18,M,R,
427,49,7,10,3,47,33,531,['n'],0,left,['1'],6,56,[-0.07791637],100,47,medium,plus,dotcolour,beta,,,1,18,M,R,
428,50,8,10,3,53,27,632,['c'],1,left,['1'],6,29,[0.10421609],100,53,easy,plus,dotcolour,beta,,,1,18,M,R,
429,51,9,10,3,36,44,566,['n'],1,right,['1'],6,63,[-0.02202991],100,44,hard,plus,dotcolour,beta,,,1,18,M,R,
430,52,10,10,3,27,53,433,['n'],1,right,['1'],6,116,[-0.08809554],100,53,easy,plus,dotcolour,beta,,,1,18,M,R,
431,53,11,10,3,47,33,631,['c'],1,left,['1'],6,487,[0.22731928],100,47,medium,plus,dotcolour,beta,,,1,18,M,R,
432,54,12,10,3,47,33,849,['c'],1,left,['1'],6,26,[0.09251193],100,47,medium,plus,dotcolour,beta,,,1,18,M,R,
433,55,13,10,3,27,53,565,['n'],1,right,['1'],6,43,[-0.12222136],100,53,easy,plus,dotcolour,beta,,,1,18,M,R,
434,56,14,10,3,47,33,448,['c'],1,left,['1'],6,65,[0.06467623],100,47,medium,plus,dotcolour,beta,,,1,18,M,R,
435,57,15,10,3,53,27,481,['c'],1,left,['1'],6,44,[0.08111819],100,53,easy,plus,dotcolour,beta,,,1,18,M,R,
436,58,16,10,3,44,36,731,['c'],1,left,['1'],6,30,[0.09856534],100,44,hard,plus,dotcolour,beta,,,1,18,M,R,
437,59,17,10,3,33,47,650,['n'],1,right,['1'],6,92,[-0.074335],100,47,medium,plus,dotcolour,beta,,,1,18,M,R,
438,60,18,10,3,33,47,782,['n'],1,right,['1'],6,66,[-0.03868554],100,47,medium,plus,dotcolour,beta,,,1,18,M,R,
439,61,19,10,3,33,47,516,['n'],1,right,['1'],6,44,[-0.08235466],100,47,medium,plus,dotcolour,beta,,,1,18,M,R,
440,62,20,10,3,47,33,499,['c'],1,left,['1'],6,15,[0.04965312],100,47,medium,plus,dotcolour,beta,,,1,18,M,R,
441,63,21,10,3,44,36,583,['c'],1,left,['1'],6,41,[0.10057483],100,44,hard,plus,dotcolour,beta,,,1,18,M,R,
442,64,22,10,3,36,44,817,['c'],0,right,['1'],6,8,[0.07733157],100,44,hard,plus,dotcolour,beta,,,1,18,M,R,
443,65,23,10,3,44,36,615,['c'],1,left,['1'],6,24,[0.05531613],100,44,hard,plus,dotcolour,beta,,,1,18,M,R,
444,66,24,10,3,33,47,599,['n'],1,right,['1'],6,56,[-0.07391317],100,47,medium,plus,dotcolour,beta,,,1,18,M,R,
445,67,25,10,3,44,36,482,['n'],0,left,['1'],6,68,[-0.06111524],100,44,hard,plus,dotcolour,beta,,,1,18,M,R,
446,68,26,10,3,27,53,600,['n'],1,right,['1'],6,27,[-0.06581882],100,53,easy,plus,dotcolour,beta,,,1,18,M,R,
447,69,27,10,3,53,27,600,['c'],1,left,['1'],6,43,[0.10885777],100,53,easy,plus,dotcolour,beta,,,1,18,M,R,
448,70,28,10,3,27,53,631,['n'],1,right,['1'],6,49,[-0.12151343],100,53,easy,plus,dotcolour,beta,,,1,18,M,R,
449,71,29,10,3,44,36,1813,['c'],1,left,['1'],6,47,[0.04173909],100,44,hard,plus,dotcolour,beta,,,1,18,M,R,
450,72,30,10,3,36,44,833,['c'],0,right,['1'],6,21,[0.06470683],100,44,hard,plus,dotcolour,beta,,,1,18,M,R,
451,73,31,10,3,53,27,563,['c'],1,left,['1'],6,39,[0.07233748],100,53,easy,plus,dotcolour,beta,,,1,18,M,R,
452,74,32,10,3,36,44,633,['c'],0,right,['1'],6,37,[0.07735015],100,44,hard,plus,dotcolour,beta,,,1,18,M,R,
453,75,33,10,3,53,27,748,['c'],1,left,['1'],6,71,[0.09477818],100,53,easy,plus,dotcolour,beta,,,1,18,M,R,
454,76,34,10,3,36,44,700,['c'],0,right,['1'],6,505,[0.09136187],98,44,hard,plus,dotcolour,beta,,,1,18,M,R,
455,77,35,10,3,27,53,582,['n'],1,right,['1'],6,54,[-0.05309164],100,53,easy,plus,dotcolour,beta,,,1,18,M,R,
456,78,36,10,3,33,47,898,['c'],0,right,['1'],6,17,[0.08062329],100,47,medium,plus,dotcolour,beta,,,1,18,M,R,
457,79,37,10,3,53,27,566,['c'],1,left,['1'],6,107,[0.1113846],100,53,easy,plus,dotcolour,beta,,,1,18,M,R,
458,80,38,10,3,44,36,631,['c'],1,left,['1'],6,46,[0.0751633],100,44,hard,plus,dotcolour,beta,,,1,18,M,R,
459,81,39,10,3,27,53,583,['n'],1,right,['1'],6,38,[-0.05307118],100,53,easy,plus,dotcolour,beta,,,1,18,M,R,
460,82,40,10,3,36,44,697,['n'],1,right,['1'],6,50,[-0.12153677],100,44,hard,plus,dotcolour,beta,,,1,18,M,R,
461,83,41,10,3,27,53,499,['n'],1,right,['1'],6,54,[-0.09205611],100,53,easy,plus,dotcolour,beta,,,1,18,M,R,
462,84,0,11,3,33,47,616,['n'],1,right,['1'],6,54,[-0.12138217],100,47,medium,plus,dotcolour,beta,,,1,18,M,R,
463,85,1,11,3,27,53,563,['n'],1,right,['1'],6,39,[-0.06929429],100,53,easy,plus,dotcolour,beta,,,1,18,M,R,
464,86,2,11,3,44,36,647,['c'],1,left,['1'],6,29,[0.06751223],100,44,hard,plus,dotcolour,beta,,,1,18,M,R,
465,87,3,11,3,33,47,665,['n'],1,right,['1'],6,74,[-0.08348246],100,47,medium,plus,dotcolour,beta,,,1,18,M,R,
466,88,4,11,3,33,47,630,['n'],1,right,['1'],6,54,[-0.07583769],100,47,medium,plus,dotcolour,beta,,,1,18,M,R,
467,89,5,11,3,47,33,481,['c'],1,left,['1'],6,66,[0.13210382],100,47,medium,plus,dotcolour,beta,,,1,18,M,R,
468,90,6,11,3,36,44,550,['n'],1,right,['1'],6,59,[-0.05037136],100,44,hard,plus,dotcolour,beta,,,1,18,M,R,
469,91,7,11,3,36,44,367,['c'],0,right,['1'],6,67,[0.04232499],100,44,hard,plus,dotcolour,beta,,,1,18,M,R,
470,92,8,11,3,33,47,432,['n'],1,right,['1'],6,8,[-0.08698342],100,47,medium,plus,dotcolour,beta,,,1,18,M,R,
471,93,9,11,3,53,27,615,['c'],1,left,['1'],6,57,[0.08919824],100,53,easy,plus,dotcolour,beta,,,1,18,M,R,
472,94,10,11,3,33,47,815,['n'],1,right,['1'],6,63,[-0.03053596],100,47,medium,plus,dotcolour,beta,,,1,18,M,R,
473,95,11,11,3,36,44,714,['c'],0,right,['1'],6,49,[0.05570173],100,44,hard,plus,dotcolour,beta,,,1,18,M,R,
474,96,12,11,3,53,27,598,['c'],1,left,['1'],6,48,[0.0721085],100,53,easy,plus,dotcolour,beta,,,1,18,M,R,
475,97,13,11,3,27,53,481,['n'],1,right,['1'],6,53,[-0.0540793],100,53,easy,plus,dotcolour,beta,,,1,18,M,R,
476,98,14,11,3,33,47,683,['c'],0,right,['1'],6,56,[0.09407158],100,47,medium,plus,dotcolour,beta,,,1,18,M,R,
477,99,15,11,3,44,36,714,['n'],0,left,['1'],6,91,[-0.08440204],100,44,hard,plus,dotcolour,beta,,,1,18,M,R,
478,100,16,11,3,36,44,532,['n'],1,right,['1'],6,52,[-0.07771301],100,44,hard,plus,dotcolour,beta,,,1,18,M,R,
479,101,17,11,3,53,27,499,['c'],1,left,['1'],6,55,[0.08413293],100,53,easy,plus,dotcolour,beta,,,1,18,M,R,
480,102,18,11,3,47,33,650,['n'],0,left,['1'],6,75,[-0.04551405],100,47,medium,plus,dotcolour,beta,,,1,18,M,R,
481,103,19,11,3,27,53,749,['n'],1,right,['1'],6,59,[-0.07886871],100,53,easy,plus,dotcolour,beta,,,1,18,M,R,
482,104,20,11,3,44,36,849,['c'],1,left,['1'],6,32,[0.07289417],100,44,hard,plus,dotcolour,beta,,,1,18,M,R,
483,105,21,11,3,53,27,498,['c'],1,left,['1'],6,28,[0.06773481],100,53,easy,plus,dotcolour,beta,,,1,18,M,R,
484,106,22,11,3,53,27,615,['c'],1,left,['1'],6,12,[0.07594076],100,53,easy,plus,dotcolour,beta,,,1,18,M,R,
485,107,23,11,3,36,44,531,['n'],1,right,['1'],6,55,[-0.07301298],100,44,hard,plus,dotcolour,beta,,,1,18,M,R,
486,108,24,11,3,44,36,531,['c'],1,left,['1'],6,81,[0.02616488],99,44,hard,plus,dotcolour,beta,,,1,18,M,R,
487,109,25,11,3,27,53,684,['n'],1,right,['1'],6,67,[-0.08388025],100,53,easy,plus,dotcolour,beta,,,1,18,M,R,
488,110,26,11,3,27,53,597,['n'],1,right,['1'],6,82,[-0.09006649],100,53,easy,plus,dotcolour,beta,,,1,18,M,R,
489,111,27,11,3,44,36,833,['n'],0,left,['1'],6,7,[-0.07558066],100,44,hard,plus,dotcolour,beta,,,1,18,M,R,
490,112,28,11,3,27,53,515,['n'],1,right,['1'],6,27,[-0.07254978],100,53,easy,plus,dotcolour,beta,,,1,18,M,R,
491,113,29,11,3,53,27,516,['c'],1,left,['1'],6,55,[0.06601934],100,53,easy,plus,dotcolour,beta,,,1,18,M,R,
492,114,30,11,3,44,36,848,['n'],0,left,['1'],6,60,[-0.03130029],100,44,hard,plus,dotcolour,beta,,,1,18,M,R,
493,115,31,11,3,47,33,582,['c'],1,left,['1'],6,27,[0.08850243],100,47,medium,plus,dotcolour,beta,,,1,18,M,R,
494,116,32,11,3,47,33,949,['c'],1,left,['1'],6,54,[0.08266803],100,47,medium,plus,dotcolour,beta,,,1,18,M,R,
495,117,33,11,3,36,44,749,['n'],1,right,['1'],6,79,[-0.04071077],100,44,hard,plus,dotcolour,beta,,,1,18,M,R,
496,118,34,11,3,44,36,482,['c'],1,left,['1'],6,41,[0.0835981],100,44,hard,plus,dotcolour,beta,,,1,18,M,R,
497,119,35,11,3,47,33,631,['n'],0,left,['0'],1,472,[-0.09215255],98,47,medium,plus,dotcolour,beta,,,1,18,M,R,
498,120,36,11,3,47,33,1001,['c'],1,left,['1'],6,53,[0.05708718],100,47,medium,plus,dotcolour,beta,,,1,18,M,R,
499,121,37,11,3,36,44,650,['n'],1,right,['1'],6,75,[-0.11568587],100,44,hard,plus,dotcolour,beta,,,1,18,M,R,
500,122,38,11,3,47,33,665,['c'],1,left,['1'],6,22,[0.07236094],100,47,medium,plus,dotcolour,beta,,,1,18,M,R,
501,123,39,11,3,27,53,980,['n'],1,right,['1'],6,102,[-0.04203162],100,53,easy,plus,dotcolour,beta,,,1,18,M,R,
502,124,40,11,3,53,27,783,['c'],1,left,['1'],6,68,[0.04792828],100,53,easy,plus,dotcolour,beta,,,1,18,M,R,
503,125,41,11,3,33,47,732,['n'],1,right,['1'],6,94,[-0.04775533],100,47,medium,plus,dotcolour,beta,,,1,18,M,R,
504,0,0,12,4,33,47,732,['n'],1,right,['1'],6,56,[-0.0749094],81,47,medium,minus,dotcolour,beta,,,1,18,M,R,
505,1,1,12,4,47,33,499,['c'],1,left,['1'],6,36,[0.04309778],23,47,medium,minus,dotcolour,beta,,,1,18,M,R,
506,2,2,12,4,47,33,915,['n'],0,left,['1'],6,55,[-0.07406162],81,47,medium,minus,dotcolour,beta,,,1,18,M,R,
507,3,3,12,4,47,33,649,['c'],1,left,['1'],6,45,[0.1237836],100,47,medium,minus,dotcolour,beta,,,1,18,M,R,
508,4,4,12,4,53,27,465,['c'],1,left,['1'],6,33,[0.10143441],99,53,easy,minus,dotcolour,beta,,,1,18,M,R,
509,5,5,12,4,47,33,414,['c'],1,left,['1'],6,33,[0.06153886],64,47,medium,minus,dotcolour,beta,,,1,18,M,R,
510,6,6,12,4,47,33,414,['c'],1,left,['1'],6,32,[0.05528226],49,47,medium,minus,dotcolour,beta,,,1,18,M,R,
511,7,7,12,4,27,53,432,['n'],1,right,['1'],6,54,[-0.10640702],98,53,easy,minus,dotcolour,beta,,,1,18,M,R,
512,8,8,12,4,36,44,516,['n'],1,right,['1'],6,33,[-0.07242265],84,44,hard,minus,dotcolour,beta,,,1,18,M,R,
513,9,9,12,4,33,47,664,['n'],1,right,['1'],6,38,[-0.07536329],86,47,medium,minus,dotcolour,beta,,,1,18,M,R,
514,10,10,12,4,47,33,765,['c'],1,left,['1'],6,16,[0.04882124],28,47,medium,minus,dotcolour,beta,,,1,18,M,R,
515,11,11,12,4,36,44,815,['n'],1,right,['1'],6,96,[-0.06218554],60,44,hard,minus,dotcolour,beta,,,1,18,M,R,
516,12,12,12,4,33,47,549,['n'],1,right,['1'],6,55,[-0.02208395],7,47,medium,minus,dotcolour,beta,,,1,18,M,R,
517,13,13,12,4,44,36,364,['c'],1,left,['1'],6,16,[0.08360327],98,44,hard,minus,dotcolour,beta,,,1,18,M,R,
518,14,14,12,4,44,36,415,['c'],1,left,['1'],6,23,[0.06459879],75,44,hard,minus,dotcolour,beta,,,1,18,M,R,
519,15,15,12,4,27,53,650,['n'],1,right,['1'],6,54,[-0.1036095],98,53,easy,minus,dotcolour,beta,,,1,18,M,R,
520,16,16,12,4,27,53,517,['n'],1,right,['1'],6,32,[-0.07290164],85,53,easy,minus,dotcolour,beta,,,1,18,M,R,
521,17,17,12,4,53,27,583,['c'],1,left,['1'],6,25,[0.07344185],88,53,easy,minus,dotcolour,beta,,,1,18,M,R,
522,18,18,12,4,53,27,798,['c'],1,left,['1'],6,25,[0.07399344],89,53,easy,minus,dotcolour,beta,,,1,18,M,R,
523,19,19,12,4,36,44,767,['n'],1,right,['1'],6,82,[-0.0989883],94,44,hard,minus,dotcolour,beta,,,1,18,M,R,
524,20,20,12,4,33,47,816,['n'],1,right,['1'],6,104,[-0.05069435],43,47,medium,minus,dotcolour,beta,,,1,18,M,R,
525,21,21,12,4,44,36,582,['c'],1,left,['1'],6,13,[0.06438916],80,44,hard,minus,dotcolour,beta,,,1,18,M,R,
526,22,22,12,4,27,53,533,['n'],1,right,['1'],6,97,[-0.09263024],89,53,easy,minus,dotcolour,beta,,,1,18,M,R,
527,23,23,12,4,27,53,599,['n'],1,right,['1'],6,103,[-0.10251438],93,53,easy,minus,dotcolour,beta,,,1,18,M,R,
528,24,24,12,4,27,53,482,['n'],1,right,['1'],6,56,[-0.06138409],61,53,easy,minus,dotcolour,beta,,,1,18,M,R,
529,25,25,12,4,36,44,830,['c'],0,right,['1'],6,46,[0.05438594],48,44,hard,minus,dotcolour,beta,,,1,18,M,R,
530,26,26,12,4,36,44,598,['n'],1,right,['1'],6,61,[-0.05839685],55,44,hard,minus,dotcolour,beta,,,1,18,M,R,
531,27,27,12,4,53,27,515,['c'],1,left,['1'],6,47,[0.11090497],99,53,easy,minus,dotcolour,beta,,,1,18,M,R,
532,28,28,12,4,44,36,747,['n'],0,left,['1'],6,80,[-0.07107457],73,44,hard,minus,dotcolour,beta,,,1,18,M,R,
533,29,29,12,4,36,44,1048,['c'],0,right,['1'],6,20,[0.10805241],100,44,hard,minus,dotcolour,beta,,,1,18,M,R,
534,30,30,12,4,33,47,1000,['n'],1,right,['1'],6,93,[-0.07403766],75,47,medium,minus,dotcolour,beta,,,1,18,M,R,
535,31,31,12,4,27,53,765,['n'],1,right,['1'],6,51,[-0.10404093],98,53,easy,minus,dotcolour,beta,,,1,18,M,R,
536,32,32,12,4,53,27,532,['c'],1,left,['1'],6,5,[0.07850387],100,53,easy,minus,dotcolour,beta,,,1,18,M,R,
537,33,33,12,4,36,44,731,['n'],1,right,['1'],6,57,[-0.09325124],94,44,hard,minus,dotcolour,beta,,,1,18,M,R,
538,34,34,12,4,33,47,848,['n'],1,right,['1'],6,86,[-0.0703575],71,47,medium,minus,dotcolour,beta,,,1,18,M,R,
539,35,35,12,4,44,36,766,['n'],0,left,['1'],6,77,[-0.0728229],75,44,hard,minus,dotcolour,beta,,,1,18,M,R,
540,36,36,12,4,53,27,548,['c'],1,left,['1'],6,445,[0.17562579],96,53,easy,minus,dotcolour,beta,,,1,18,M,R,
541,37,37,12,4,53,27,815,['c'],1,left,['1'],6,52,[0.08520862],91,53,easy,minus,dotcolour,beta,,,1,18,M,R,
542,38,38,12,4,47,33,632,['c'],1,left,['1'],6,81,[0.08417758],86,47,medium,minus,dotcolour,beta,,,1,18,M,R,
543,39,39,12,4,33,47,632,['n'],1,right,['1'],6,102,[-0.07119213],71,47,medium,minus,dotcolour,beta,,,1,18,M,R,
544,40,40,12,4,44,36,814,['c'],1,left,['1'],6,43,[0.09547167],97,44,hard,minus,dotcolour,beta,,,1,18,M,R,
545,41,41,12,4,44,36,698,['c'],1,left,['1'],6,14,[0.06227568],74,44,hard,minus,dotcolour,beta,,,1,18,M,R,
546,42,0,13,4,53,27,666,['c'],1,left,['1'],6,21,[0.06941318],85,53,easy,minus,dotcolour,beta,,,1,18,M,R,
547,43,1,13,4,53,27,682,['c'],1,left,['1'],6,19,[0.09291753],99,53,easy,minus,dotcolour,beta,,,1,18,M,R,
548,44,2,13,4,47,33,566,['c'],1,left,['1'],6,4,[0.0656717],95,47,medium,minus,dotcolour,beta,,,1,18,M,R,
549,45,3,13,4,33,47,616,['n'],1,right,['1'],6,61,[-0.06451679],66,47,medium,minus,dotcolour,beta,,,1,18,M,R,
550,46,4,13,4,33,47,564,['n'],1,right,['1'],6,45,[-0.03964191],21,47,medium,minus,dotcolour,beta,,,1,18,M,R,
551,47,5,13,4,44,36,349,['c'],1,left,['1'],6,526,[0.08549749],68,44,hard,minus,dotcolour,beta,,,1,18,M,R,
552,48,6,13,4,27,53,582,['n'],1,right,['1'],6,106,[-0.07942987],79,53,easy,minus,dotcolour,beta,,,1,18,M,R,
553,49,7,13,4,36,44,1198,['c'],0,right,['1'],6,23,[0.07677527],93,44,hard,minus,dotcolour,beta,,,1,18,M,R,
554,50,8,13,4,44,36,700,['c'],1,left,['1'],6,76,[0.13467209],99,44,hard,minus,dotcolour,beta,,,1,18,M,R,
555,51,9,13,4,44,36,816,['c'],1,left,['1'],6,49,[0.05415491],47,44,hard,minus,dotcolour,beta,,,1,18,M,R,
556,52,10,13,4,44,36,715,['n'],0,left,['1'],6,91,[-0.06378667],62,44,hard,minus,dotcolour,beta,,,1,18,M,R,
557,53,11,13,4,47,33,531,['c'],1,left,['1'],6,36,[0.06444038],70,47,medium,minus,dotcolour,beta,,,1,18,M,R,
558,54,12,13,4,27,53,665,['n'],1,right,['1'],6,96,[-0.10382479],94,53,easy,minus,dotcolour,beta,,,1,18,M,R,
559,55,13,13,4,53,27,533,['c'],1,left,['1'],6,40,[0.07846315],89,53,easy,minus,dotcolour,beta,,,1,18,M,R,
560,56,14,13,4,53,27,799,['n'],0,left,['2'],5,80,[-0.06385502],63,53,easy,minus,dotcolour,beta,,,1,18,M,R,
561,57,15,13,4,53,27,815,['c'],1,left,['1'],6,29,[0.08230159],94,53,easy,minus,dotcolour,beta,,,1,18,M,R,
562,58,16,13,4,27,53,564,['n'],1,right,['1'],6,30,[-0.07674306],90,53,easy,minus,dotcolour,beta,,,1,18,M,R,
563,59,17,13,4,44,36,649,['n'],0,left,['1'],6,60,[-0.08437987],89,44,hard,minus,dotcolour,beta,,,1,18,M,R,
564,60,18,13,4,33,47,582,['n'],1,right,['1'],6,76,[-0.12720606],99,47,medium,minus,dotcolour,beta,,,1,18,M,R,
565,61,19,13,4,36,44,750,['n'],1,right,['1'],6,35,[-0.06327416],68,44,hard,minus,dotcolour,beta,,,1,18,M,R,
566,62,20,13,4,33,47,532,['n'],1,right,['1'],6,71,[-0.05940348],56,47,medium,minus,dotcolour,beta,,,1,18,M,R,
567,63,21,13,4,53,27,565,['c'],1,left,['1'],6,38,[0.08386402],93,53,easy,minus,dotcolour,beta,,,1,18,M,R,
568,64,22,13,4,36,44,782,['n'],1,right,['1'],6,110,[-0.05426022],48,44,hard,minus,dotcolour,beta,,,1,18,M,R,
569,65,23,13,4,47,33,2498,['n'],0,left,['2'],5,607,[0.03576574],11,47,medium,minus,dotcolour,beta,,,1,18,M,R,
570,66,24,13,4,36,44,732,['n'],1,right,['1'],6,27,[-0.05522034],49,44,hard,minus,dotcolour,beta,,,1,18,M,R,
571,67,25,13,4,33,47,798,['n'],1,right,['1'],6,82,[-0.08381886],86,47,medium,minus,dotcolour,beta,,,1,18,M,R,
572,68,26,13,4,44,36,715,['n'],0,left,['1'],6,43,[-0.10411488],99,44,hard,minus,dotcolour,beta,,,1,18,M,R,
573,69,27,13,4,36,44,582,['n'],1,right,['1'],6,44,[-0.06729858],73,44,hard,minus,dotcolour,beta,,,1,18,M,R,
574,70,28,13,4,33,47,532,['n'],1,right,['1'],6,46,[-0.04197082],24,47,medium,minus,dotcolour,beta,,,1,18,M,R,
575,71,29,13,4,36,44,549,['n'],1,right,['1'],6,55,[-0.0441476],29,44,hard,minus,dotcolour,beta,,,1,18,M,R,
576,72,30,13,4,44,36,830,['c'],1,left,['2'],5,61,[0.04527551],32,44,hard,minus,dotcolour,beta,,,1,18,M,R,
577,73,31,13,4,27,53,465,['n'],1,right,['1'],6,65,[-0.08387763],88,53,easy,minus,dotcolour,beta,,,1,18,M,R,
578,74,32,13,4,47,33,631,['c'],1,left,['1'],6,14,[0.06801871],87,47,medium,minus,dotcolour,beta,,,1,18,M,R,
579,75,33,13,4,47,33,616,['c'],1,left,['1'],6,14,[0.05414541],45,47,medium,minus,dotcolour,beta,,,1,18,M,R,
580,76,34,13,4,47,33,632,['c'],1,left,['1'],6,46,[0.0619413],63,47,medium,minus,dotcolour,beta,,,1,18,M,R,
581,77,35,13,4,27,53,583,['n'],1,right,['1'],6,77,[-0.08148129],84,53,easy,minus,dotcolour,beta,,,1,18,M,R,
582,78,36,13,4,27,53,550,['n'],1,right,['1'],6,78,[-0.09201449],91,53,easy,minus,dotcolour,beta,,,1,18,M,R,
583,79,37,13,4,33,47,799,['n'],1,right,['1'],6,68,[-0.05232404],44,47,medium,minus,dotcolour,beta,,,1,18,M,R,
584,80,38,13,4,53,27,832,['c'],1,left,['1'],6,33,[0.07256769],84,53,easy,minus,dotcolour,beta,,,1,18,M,R,
585,81,39,13,4,47,33,598,['c'],1,left,['1'],6,33,[0.11105943],100,47,medium,minus,dotcolour,beta,,,1,18,M,R,
586,82,40,13,4,27,53,699,['n'],1,right,['1'],6,101,[-0.12096333],98,53,easy,minus,dotcolour,beta,,,1,18,M,R,
587,83,41,13,4,36,44,582,['n'],1,right,['1'],6,83,[-0.10805404],96,44,hard,minus,dotcolour,beta,,,1,18,M,R,
588,84,0,14,4,27,53,716,['n'],1,right,['1'],6,33,[-0.08790057],96,53,easy,minus,dotcolour,beta,,,1,18,M,R,
589,85,1,14,4,33,47,583,['n'],1,right,['1'],6,17,[-0.09258555],99,47,medium,minus,dotcolour,beta,,,1,18,M,R,
590,86,2,14,4,44,36,614,['c'],1,left,['1'],6,33,[0.06654919],75,44,hard,minus,dotcolour,beta,,,1,18,M,R,
591,87,3,14,4,47,33,531,['c'],1,left,['1'],6,28,[0.09843381],99,47,medium,minus,dotcolour,beta,,,1,18,M,R,
592,88,4,14,4,47,33,415,['c'],1,left,['1'],6,28,[0.09331266],98,47,medium,minus,dotcolour,beta,,,1,18,M,R,
593,89,5,14,4,36,44,565,['n'],1,right,['1'],6,69,[-0.06151305],60,44,hard,minus,dotcolour,beta,,,1,18,M,R,
594,90,6,14,4,33,47,448,['n'],1,right,['1'],6,49,[-0.07220619],79,47,medium,minus,dotcolour,beta,,,1,18,M,R,
595,91,7,14,4,44,36,633,['c'],1,left,['1'],6,15,[0.0616683],71,44,hard,minus,dotcolour,beta,,,1,18,M,R,
596,92,8,14,4,53,27,431,['c'],1,left,['1'],6,23,[0.09900662],99,53,easy,minus,dotcolour,beta,,,1,18,M,R,
597,93,9,14,4,33,47,682,['n'],1,right,['1'],6,51,[-0.05992817],59,47,medium,minus,dotcolour,beta,,,1,18,M,R,
598,94,10,14,4,44,36,632,['c'],1,left,['1'],6,25,[0.07669323],92,44,hard,minus,dotcolour,beta,,,1,18,M,R,
599,95,11,14,4,53,27,448,['c'],1,left,['1'],6,24,[0.05836965],58,53,easy,minus,dotcolour,beta,,,1,18,M,R,
600,96,12,14,4,27,53,481,['n'],1,right,['1'],6,44,[-0.05252309],44,53,easy,minus,dotcolour,beta,,,1,18,M,R,
601,97,13,14,4,36,44,681,['c'],0,right,['1'],6,40,[0.08426106],93,44,hard,minus,dotcolour,beta,,,1,18,M,R,
602,98,14,14,4,44,36,532,['c'],1,left,['1'],6,42,[0.04586175],30,44,hard,minus,dotcolour,beta,,,1,18,M,R,
603,99,15,14,4,33,47,498,['n'],1,right,['1'],6,69,[-0.07894392],83,47,medium,minus,dotcolour,beta,,,1,18,M,R,
604,100,16,14,4,53,27,548,['c'],1,left,['1'],6,30,[0.08915903],97,53,easy,minus,dotcolour,beta,,,1,18,M,R,
605,101,17,14,4,47,33,432,['n'],0,left,['0'],1,2212,[0.04092365],24,47,medium,minus,dotcolour,beta,,,1,18,M,R,
606,102,18,14,4,27,53,1263,['n'],1,right,['1'],6,90,[-0.01114139],7,53,easy,minus,dotcolour,beta,,,1,18,M,R,
607,103,19,14,4,53,27,1015,['n'],0,left,['1'],6,72,[-0.07071007],73,53,easy,minus,dotcolour,beta,,,1,18,M,R,
608,104,20,14,4,53,27,415,['c'],1,left,['1'],6,37,[0.08858758],96,53,easy,minus,dotcolour,beta,,,1,18,M,R,
609,105,21,14,4,36,44,732,['n'],1,right,['1'],6,39,[-0.01503938],2,44,hard,minus,dotcolour,beta,,,1,18,M,R,
610,106,22,14,4,27,53,616,['n'],1,right,['1'],6,22,[-0.07422151],91,53,easy,minus,dotcolour,beta,,,1,18,M,R,
611,107,23,14,4,36,44,733,['c'],0,right,['1'],6,42,[0.01099952],2,44,hard,minus,dotcolour,beta,,,1,18,M,R,
612,108,24,14,4,33,47,965,['n'],1,right,['1'],6,50,[-0.10340176],98,47,medium,minus,dotcolour,beta,,,1,18,M,R,
613,109,25,14,4,36,44,699,['c'],0,right,['1'],6,46,[0.11329138],99,44,hard,minus,dotcolour,beta,,,1,18,M,R,
614,110,26,14,4,44,36,599,['c'],1,left,['1'],6,13,[0.07897128],98,44,hard,minus,dotcolour,beta,,,1,18,M,R,
615,111,27,14,4,47,33,599,['c'],1,left,['1'],6,5,[0.07684259],100,47,medium,minus,dotcolour,beta,,,1,18,M,R,
616,112,28,14,4,27,53,497,['n'],1,right,['1'],6,67,[-0.10984215],98,53,easy,minus,dotcolour,beta,,,1,18,M,R,
617,113,29,14,4,44,36,565,['c'],1,left,['1'],6,35,[0.0739842],85,44,hard,minus,dotcolour,beta,,,1,18,M,R,
618,114,30,14,4,33,47,598,['n'],1,right,['1'],6,59,[-0.12011387],99,47,medium,minus,dotcolour,beta,,,1,18,M,R,
619,115,31,14,4,47,33,849,['c'],1,left,['1'],6,48,[0.06887951],75,47,medium,minus,dotcolour,beta,,,1,18,M,R,
620,116,32,14,4,27,53,581,['n'],1,right,['1'],6,63,[-0.07476681],80,53,easy,minus,dotcolour,beta,,,1,18,M,R,
621,117,33,14,4,53,27,499,['c'],1,left,['1'],6,42,[0.07781927],88,53,easy,minus,dotcolour,beta,,,1,18,M,R,
622,118,34,14,4,44,36,649,['n'],0,left,['1'],6,104,[-0.06310747],60,44,hard,minus,dotcolour,beta,,,1,18,M,R,
623,119,35,14,4,27,53,1398,['c'],0,right,['1'],6,20,[0.08299161],97,53,easy,minus,dotcolour,beta,,,1,18,M,R,
624,120,36,14,4,36,44,549,['n'],1,right,['1'],6,55,[-0.09370037],95,44,hard,minus,dotcolour,beta,,,1,18,M,R,
625,121,37,14,4,33,47,1349,['c'],0,right,['2'],5,56,[0.07401687],80,47,medium,minus,dotcolour,beta,,,1,18,M,R,
626,122,38,14,4,36,44,598,['n'],1,right,['1'],6,72,[-0.05781474],54,44,hard,minus,dotcolour,beta,,,1,18,M,R,
627,123,39,14,4,53,27,549,['n'],0,left,['0'],1,520,[0.0649415],5,53,easy,minus,dotcolour,beta,,,1,18,M,R,
628,124,40,14,4,47,33,665,['c'],1,left,['1'],6,42,[0.0999568],98,47,medium,minus,dotcolour,beta,,,1,18,M,R,
629,125,41,14,4,47,33,483,['c'],1,left,['1'],6,21,[0.05496462],48,47,medium,minus,dotcolour,beta,,,1,18,M,R,
630,0,0,15,5,53,27,616,['c'],1,left,['1'],6,60,[0.10236921],100,53,easy,plus,dotcolour,beta,,,1,18,M,R,
631,1,1,15,5,53,27,313,['c'],1,left,['1'],6,53,[0.09190716],100,53,easy,plus,dotcolour,beta,,,1,18,M,R,
632,2,2,15,5,53,27,348,['c'],1,left,['1'],6,55,[0.09202235],100,53,easy,plus,dotcolour,beta,,,1,18,M,R,
633,3,3,15,5,53,27,399,['c'],1,left,['1'],6,78,[0.10848588],100,53,easy,plus,dotcolour,beta,,,1,18,M,R,
634,4,4,15,5,44,36,613,['c'],1,left,['1'],6,35,[0.08773909],100,44,hard,plus,dotcolour,beta,,,1,18,M,R,
635,5,5,15,5,47,33,482,['c'],1,left,['1'],6,32,[0.05120647],100,47,medium,plus,dotcolour,beta,,,1,18,M,R,
636,6,6,15,5,36,44,734,['n'],1,right,['1'],6,35,[-0.09908889],100,44,hard,plus,dotcolour,beta,,,1,18,M,R,
637,7,7,15,5,44,36,851,['n'],0,left,['1'],6,49,[-0.06782964],100,44,hard,plus,dotcolour,beta,,,1,18,M,R,
638,8,8,15,5,44,36,467,['c'],1,left,['1'],6,46,[0.0628599],100,44,hard,plus,dotcolour,beta,,,1,18,M,R,
639,9,9,15,5,27,53,717,['n'],1,right,['1'],6,56,[-0.09640664],100,53,easy,plus,dotcolour,beta,,,1,18,M,R,
640,10,10,15,5,47,33,516,['c'],1,left,['1'],6,27,[0.08168611],100,47,medium,plus,dotcolour,beta,,,1,18,M,R,
641,11,11,15,5,53,27,515,['c'],1,left,['1'],6,46,[0.12252053],100,53,easy,plus,dotcolour,beta,,,1,18,M,R,
642,12,12,15,5,44,36,1999,['c'],1,left,['1'],6,13,[0.06800895],100,44,hard,plus,dotcolour,beta,,,1,18,M,R,
643,13,13,15,5,47,33,499,['c'],1,left,['1'],6,58,[0.10625687],100,47,medium,plus,dotcolour,beta,,,1,18,M,R,
644,14,14,15,5,44,36,599,['c'],1,left,['1'],6,17,[0.07618561],100,44,hard,plus,dotcolour,beta,,,1,18,M,R,
645,15,15,15,5,53,27,532,['c'],1,left,['1'],6,44,[0.0816691],100,53,easy,plus,dotcolour,beta,,,1,18,M,R,
646,16,16,15,5,33,47,715,['n'],1,right,['1'],6,119,[-0.05471744],100,47,medium,plus,dotcolour,beta,,,1,18,M,R,
647,17,17,15,5,27,53,749,['n'],1,right,['1'],6,69,[-0.03993988],100,53,easy,plus,dotcolour,beta,,,1,18,M,R,
648,18,18,15,5,36,44,600,['n'],1,right,['1'],6,36,[-0.06660016],100,44,hard,plus,dotcolour,beta,,,1,18,M,R,
649,19,19,15,5,33,47,533,['n'],1,right,['1'],6,71,[-0.02168266],99,47,medium,plus,dotcolour,beta,,,1,18,M,R,
650,20,20,15,5,36,44,533,['n'],1,right,['1'],6,24,[-0.07848061],100,44,hard,plus,dotcolour,beta,,,1,18,M,R,
651,21,21,15,5,47,33,499,['n'],0,left,['1'],6,37,[-0.06386485],100,47,medium,plus,dotcolour,beta,,,1,18,M,R,
652,22,22,15,5,47,33,566,['c'],1,left,['1'],6,22,[0.07623637],100,47,medium,plus,dotcolour,beta,,,1,18,M,R,
653,23,23,15,5,27,53,481,['c'],0,right,['1'],6,27,[0.07303346],100,53,easy,plus,dotcolour,beta,,,1,18,M,R,
654,24,24,15,5,44,36,681,['c'],1,left,['1'],6,24,[0.05478334],100,44,hard,plus,dotcolour,beta,,,1,18,M,R,
655,25,25,15,5,36,44,782,['n'],1,right,['1'],6,73,[-0.06209025],100,44,hard,plus,dotcolour,beta,,,1,18,M,R,
656,26,26,15,5,33,47,532,['n'],1,right,['1'],6,58,[-0.10718736],100,47,medium,plus,dotcolour,beta,,,1,18,M,R,
657,27,27,15,5,53,27,683,['c'],1,left,['1'],6,37,[0.09656022],100,53,easy,plus,dotcolour,beta,,,1,18,M,R,
658,28,28,15,5,36,44,865,['n'],1,right,['2'],5,66,[-0.10684821],100,44,hard,plus,dotcolour,beta,,,1,18,M,R,
659,29,29,15,5,27,53,647,['n'],1,right,['1'],6,79,[-0.00790144],98,53,easy,plus,dotcolour,beta,,,1,18,M,R,
660,30,30,15,5,33,47,697,['n'],1,right,['1'],6,17,[-0.07482186],100,47,medium,plus,dotcolour,beta,,,1,18,M,R,
661,31,31,15,5,36,44,432,['n'],1,right,['1'],6,80,[-0.08632172],100,44,hard,plus,dotcolour,beta,,,1,18,M,R,
662,32,32,15,5,27,53,500,['n'],1,right,['1'],6,67,[-0.04971973],100,53,easy,plus,dotcolour,beta,,,1,18,M,R,
663,33,33,15,5,33,47,616,['n'],1,right,['1'],6,8,[-0.06043288],100,47,medium,plus,dotcolour,beta,,,1,18,M,R,
664,34,34,15,5,33,47,448,['n'],1,right,['1'],6,47,[-0.08465452],100,47,medium,plus,dotcolour,beta,,,1,18,M,R,
665,35,35,15,5,27,53,782,['n'],1,right,['2'],5,119,[-0.09952021],100,53,easy,plus,dotcolour,beta,,,1,18,M,R,
666,36,36,15,5,47,33,664,['n'],0,left,['1'],6,89,[-0.00401873],97,47,medium,plus,dotcolour,beta,,,1,18,M,R,
667,37,37,15,5,36,44,566,['n'],1,right,['1'],6,87,[-0.07035636],100,44,hard,plus,dotcolour,beta,,,1,18,M,R,
668,38,38,15,5,27,53,517,['n'],1,right,['1'],6,89,[-0.1215019],100,53,easy,plus,dotcolour,beta,,,1,18,M,R,
669,39,39,15,5,47,33,1066,['c'],1,left,['3'],4,116,[0.15032275],100,47,medium,plus,dotcolour,beta,,,1,18,M,R,
670,40,40,15,5,33,47,630,['c'],0,right,['2'],5,103,[0.05409484],100,47,medium,plus,dotcolour,beta,,,1,18,M,R,
671,41,41,15,5,44,36,716,['n'],0,left,['1'],6,135,[-0.07601139],100,44,hard,plus,dotcolour,beta,,,1,18,M,R,
672,42,0,16,5,36,44,616,['n'],1,right,['1'],6,24,[-0.04816583],100,44,hard,plus,dotcolour,beta,,,1,18,M,R,
673,43,1,16,5,36,44,732,['n'],1,right,['1'],6,27,[-0.0547964],100,44,hard,plus,dotcolour,beta,,,1,18,M,R,
674,44,2,16,5,27,53,566,['n'],1,right,['1'],6,44,[-0.04536709],100,53,easy,plus,dotcolour,beta,,,1,18,M,R,
675,45,3,16,5,47,33,647,['c'],1,left,['1'],6,18,[0.06844181],100,47,medium,plus,dotcolour,beta,,,1,18,M,R,
676,46,4,16,5,53,27,565,['c'],1,left,['1'],6,11,[0.09216392],100,53,easy,plus,dotcolour,beta,,,1,18,M,R,
677,47,5,16,5,53,27,433,['c'],1,left,['1'],6,19,[0.08196131],100,53,easy,plus,dotcolour,beta,,,1,18,M,R,
678,48,6,16,5,47,33,363,['c'],1,left,['1'],6,20,[0.0542086],100,47,medium,plus,dotcolour,beta,,,1,18,M,R,
679,49,7,16,5,47,33,648,['n'],0,left,['1'],6,75,[-0.09926314],100,47,medium,plus,dotcolour,beta,,,1,18,M,R,
680,50,8,16,5,33,47,867,['c'],0,right,['1'],6,38,[0.06208492],100,47,medium,plus,dotcolour,beta,,,1,18,M,R,
681,51,9,16,5,47,33,583,['c'],1,left,['1'],6,30,[0.07509674],100,47,medium,plus,dotcolour,beta,,,1,18,M,R,
682,52,10,16,5,33,47,632,['n'],1,right,['1'],6,85,[-0.11045427],100,47,medium,plus,dotcolour,beta,,,1,18,M,R,
683,53,11,16,5,53,27,698,['c'],1,left,['1'],6,487,[0.17557081],100,53,easy,plus,dotcolour,beta,,,1,18,M,R,
684,54,12,16,5,47,33,463,['c'],1,left,['1'],6,33,[0.0724511],100,47,medium,plus,dotcolour,beta,,,1,18,M,R,
685,55,13,16,5,36,44,698,['c'],0,right,['1'],6,22,[0.04255675],100,44,hard,plus,dotcolour,beta,,,1,18,M,R,
686,56,14,16,5,44,36,598,['c'],1,left,['1'],6,39,[0.0555915],100,44,hard,plus,dotcolour,beta,,,1,18,M,R,
687,57,15,16,5,44,36,566,['c'],1,left,['1'],6,30,[0.07665595],100,44,hard,plus,dotcolour,beta,,,1,18,M,R,
688,58,16,16,5,36,44,482,['n'],1,right,['1'],6,44,[-0.08286185],100,44,hard,plus,dotcolour,beta,,,1,18,M,R,
689,59,17,16,5,47,33,649,['c'],1,left,['1'],6,41,[0.07682355],100,47,medium,plus,dotcolour,beta,,,1,18,M,R,
690,60,18,16,5,44,36,730,['n'],0,left,['1'],6,75,[-0.12475165],100,44,hard,plus,dotcolour,beta,,,1,18,M,R,
691,61,19,16,5,44,36,682,['n'],0,left,['1'],6,62,[-0.07680881],100,44,hard,plus,dotcolour,beta,,,1,18,M,R,
692,62,20,16,5,53,27,699,['c'],1,left,['1'],6,32,[0.0445819],100,53,easy,plus,dotcolour,beta,,,1,18,M,R,
693,63,21,16,5,33,47,831,['n'],1,right,['1'],6,111,[-0.09816],100,47,medium,plus,dotcolour,beta,,,1,18,M,R,
694,64,22,16,5,33,47,599,['n'],1,right,['1'],6,459,[0.01554734],74,47,medium,plus,dotcolour,beta,,,1,18,M,R,
695,65,23,16,5,27,53,531,['n'],1,right,['1'],6,29,[-0.05768278],100,53,easy,plus,dotcolour,beta,,,1,18,M,R,
696,66,24,16,5,27,53,549,['n'],1,right,['1'],6,71,[-0.06293961],100,53,easy,plus,dotcolour,beta,,,1,18,M,R,
697,67,25,16,5,53,27,466,['c'],1,left,['1'],6,19,[0.06619452],100,53,easy,plus,dotcolour,beta,,,1,18,M,R,
698,68,26,16,5,53,27,530,['c'],1,left,['1'],6,46,[0.12478352],100,53,easy,plus,dotcolour,beta,,,1,18,M,R,
699,69,27,16,5,47,33,1149,['c'],1,left,['1'],6,15,[0.05385404],100,47,medium,plus,dotcolour,beta,,,1,18,M,R,
700,70,28,16,5,36,44,632,['n'],1,right,['1'],6,79,[-0.07280454],100,44,hard,plus,dotcolour,beta,,,1,18,M,R,
701,71,29,16,5,27,53,798,['n'],1,right,['2'],5,140,[-0.01534551],97,53,easy,plus,dotcolour,beta,,,1,18,M,R,
702,72,30,16,5,53,27,849,['c'],1,left,['1'],6,463,[0.15663253],100,53,easy,plus,dotcolour,beta,,,1,18,M,R,
703,73,31,16,5,36,44,632,['n'],1,right,['1'],6,84,[-0.12175132],100,44,hard,plus,dotcolour,beta,,,1,18,M,R,
704,74,32,16,5,33,47,648,['n'],1,right,['1'],6,56,[-0.07009512],100,47,medium,plus,dotcolour,beta,,,1,18,M,R,
705,75,33,16,5,44,36,1215,['n'],0,left,['1'],6,62,[-0.11026592],100,44,hard,plus,dotcolour,beta,,,1,18,M,R,
706,76,34,16,5,36,44,514,['n'],1,right,['1'],6,40,[-0.0624654],100,44,hard,plus,dotcolour,beta,,,1,18,M,R,
707,77,35,16,5,44,36,715,['c'],1,left,['1'],6,35,[0.04158907],100,44,hard,plus,dotcolour,beta,,,1,18,M,R,
708,78,36,16,5,27,53,433,['n'],1,right,['1'],6,66,[-0.07088593],100,53,easy,plus,dotcolour,beta,,,1,18,M,R,
709,79,37,16,5,33,47,533,['n'],1,right,['1'],6,43,[-0.1020486],100,47,medium,plus,dotcolour,beta,,,1,18,M,R,
710,80,38,16,5,27,53,580,['n'],1,right,['1'],6,27,[-0.05865989],100,53,easy,plus,dotcolour,beta,,,1,18,M,R,
711,81,39,16,5,44,36,549,['c'],1,left,['1'],6,69,[0.13324887],100,44,hard,plus,dotcolour,beta,,,1,18,M,R,
712,82,40,16,5,33,47,466,['n'],1,right,['1'],6,89,[-0.06652642],100,47,medium,plus,dotcolour,beta,,,1,18,M,R,
713,83,41,16,5,27,53,749,['n'],1,right,['1'],6,121,[-0.05428424],100,53,easy,plus,dotcolour,beta,,,1,18,M,R,
714,84,0,17,5,27,53,683,['n'],1,right,['1'],6,36,[-0.11662718],100,53,easy,plus,dotcolour,beta,,,1,18,M,R,
715,85,1,17,5,53,27,549,['c'],1,left,['1'],6,14,[0.08417306],100,53,easy,plus,dotcolour,beta,,,1,18,M,R,
716,86,2,17,5,44,36,832,['n'],0,left,['1'],6,61,[-0.04871733],100,44,hard,plus,dotcolour,beta,,,1,18,M,R,
717,87,3,17,5,36,44,746,['c'],0,right,['1'],6,38,[0.0944853],100,44,hard,plus,dotcolour,beta,,,1,18,M,R,
718,88,4,17,5,44,36,864,['n'],0,left,['1'],6,35,[-0.04567769],100,44,hard,plus,dotcolour,beta,,,1,18,M,R,
719,89,5,17,5,36,44,649,['n'],1,right,['2'],5,89,[-0.05813746],100,44,hard,plus,dotcolour,beta,,,1,18,M,R,
720,90,6,17,5,33,47,1332,['c'],0,right,['1'],6,89,[0.07546895],100,47,medium,plus,dotcolour,beta,,,1,18,M,R,
721,91,7,17,5,27,53,497,['c'],0,right,['1'],6,83,[0.07231481],100,53,easy,plus,dotcolour,beta,,,1,18,M,R,
722,92,8,17,5,44,36,664,['c'],1,left,['1'],6,14,[0.07022729],100,44,hard,plus,dotcolour,beta,,,1,18,M,R,
723,93,9,17,5,53,27,700,['c'],1,left,['1'],6,3,[0.06827206],100,53,easy,plus,dotcolour,beta,,,1,18,M,R,
724,94,10,17,5,33,47,783,['n'],1,right,['1'],6,37,[-0.09318945],100,47,medium,plus,dotcolour,beta,,,1,18,M,R,
725,95,11,17,5,53,27,699,['c'],1,left,['1'],6,33,[0.10240203],100,53,easy,plus,dotcolour,beta,,,1,18,M,R,
726,96,12,17,5,27,53,632,['n'],1,right,['1'],6,71,[-0.11573591],100,53,easy,plus,dotcolour,beta,,,1,18,M,R,
727,97,13,17,5,33,47,615,['n'],1,right,['1'],6,46,[-0.08742179],100,47,medium,plus,dotcolour,beta,,,1,18,M,R,
728,98,14,17,5,47,33,548,['c'],1,left,['1'],6,79,[0.1115938],100,47,medium,plus,dotcolour,beta,,,1,18,M,R,
729,99,15,17,5,33,47,698,['n'],1,right,['1'],6,161,[-0.12326271],100,47,medium,plus,dotcolour,beta,,,1,18,M,R,
730,100,16,17,5,53,27,600,['c'],1,left,['1'],6,59,[0.05621755],100,53,easy,plus,dotcolour,beta,,,1,18,M,R,
731,101,17,17,5,47,33,948,['n'],0,left,['2'],5,316,[0.00525182],83,47,medium,plus,dotcolour,beta,,,1,18,M,R,
732,102,18,17,5,47,33,514,['c'],1,left,['1'],6,12,[0.04324806],100,47,medium,plus,dotcolour,beta,,,1,18,M,R,
733,103,19,17,5,47,33,581,['n'],0,left,['1'],6,77,[-0.06139227],100,47,medium,plus,dotcolour,beta,,,1,18,M,R,
734,104,20,17,5,47,33,597,['c'],1,left,['1'],6,59,[0.08023715],100,47,medium,plus,dotcolour,beta,,,1,18,M,R,
735,105,21,17,5,27,53,566,['n'],1,right,['1'],6,75,[-0.07538168],100,53,easy,plus,dotcolour,beta,,,1,18,M,R,
736,106,22,17,5,33,47,499,['n'],1,right,['1'],6,85,[-0.08887226],100,47,medium,plus,dotcolour,beta,,,1,18,M,R,
737,107,23,17,5,36,44,966,['n'],1,right,['1'],6,77,[-0.05093189],100,44,hard,plus,dotcolour,beta,,,1,18,M,R,
738,108,24,17,5,27,53,499,['n'],1,right,['1'],6,87,[-0.11409755],100,53,easy,plus,dotcolour,beta,,,1,18,M,R,
739,109,25,17,5,44,36,616,['c'],1,left,['1'],6,35,[0.0886619],100,44,hard,plus,dotcolour,beta,,,1,18,M,R,
740,110,26,17,5,36,44,580,['c'],0,right,['1'],6,43,[0.05558735],100,44,hard,plus,dotcolour,beta,,,1,18,M,R,
741,111,27,17,5,36,44,715,['n'],1,right,['1'],6,70,[-0.08361448],100,44,hard,plus,dotcolour,beta,,,1,18,M,R,
742,112,28,17,5,44,36,764,['n'],0,left,['1'],6,38,[-0.05832992],100,44,hard,plus,dotcolour,beta,,,1,18,M,R,
743,113,29,17,5,36,44,566,['c'],0,right,['1'],6,38,[0.05232211],100,44,hard,plus,dotcolour,beta,,,1,18,M,R,
744,114,30,17,5,33,47,597,['c'],0,right,['1'],6,814,[0.09867323],96,47,medium,plus,dotcolour,beta,,,1,18,M,R,
745,115,31,17,5,53,27,631,['n'],0,left,['1'],6,69,[-0.08716667],100,53,easy,plus,dotcolour,beta,,,1,18,M,R,
746,116,32,17,5,36,44,731,['c'],0,right,['1'],6,31,[0.01933072],100,44,hard,plus,dotcolour,beta,,,1,18,M,R,
747,117,33,17,5,53,27,648,['n'],0,left,['1'],6,61,[-0.10318887],100,53,easy,plus,dotcolour,beta,,,1,18,M,R,
748,118,34,17,5,33,47,599,['n'],1,right,['1'],6,43,[-0.07886483],100,47,medium,plus,dotcolour,beta,,,1,18,M,R,
749,119,35,17,5,27,53,515,['n'],1,right,['1'],6,54,[-0.11060813],100,53,easy,plus,dotcolour,beta,,,1,18,M,R,
750,120,36,17,5,47,33,715,['c'],1,left,['1'],6,8,[0.09076012],100,47,medium,plus,dotcolour,beta,,,1,18,M,R,
751,121,37,17,5,44,36,580,['c'],1,left,['1'],6,19,[0.07221563],100,44,hard,plus,dotcolour,beta,,,1,18,M,R,
752,122,38,17,5,53,27,617,['c'],1,left,['1'],6,27,[0.11716937],100,53,easy,plus,dotcolour,beta,,,1,18,M,R,
753,123,39,17,5,47,33,483,['c'],1,left,['1'],6,95,[0.09950803],100,47,medium,plus,dotcolour,beta,,,1,18,M,R,
754,124,40,17,5,27,53,599,['n'],1,right,['1'],6,61,[-0.03962701],100,53,easy,plus,dotcolour,beta,,,1,18,M,R,
755,125,41,17,5,44,36,531,['c'],1,left,['1'],6,30,[0.0700963],100,44,hard,plus,dotcolour,beta,,,1,18,M,R,
,,,,,,,,,,,,,,,,,,,,,1,"periodes waarin ik buitengewoon goede scores had, en periodes waarin ik eerder realistische scores had",1,18,M,R,
,,,,,,,,,,,,,,,,,,,,,2,['g'],1,18,M,R,
,,,,,,,,,,,,,,,,,,,,,3,['f'],1,18,M,R,
,,,,,,,,,,,,,,,,,,,,,5,['4'],1,18,M,R,
