trial,withinphasetrial,withinblocktrial,block,phase,dotsLeft,dotsRight,rt,resp,cor,cresp,conf_press,cj,RTconf,ev,fb,diff,difflevel,condition,task,manip,questionID,questionResp,sub,age,gender,handedness,
0,0,0,0,0,36,44,950,['n'],1,right,['0'],6,951,[-0.14343637],98,44,hard,plus,dotcolour,beta,,,70,18,V,R,
1,1,1,0,0,36,44,916,['c'],0,right,['9'],5,677,[-0.02487162],66,44,hard,plus,dotcolour,beta,,,70,18,V,R,
2,2,2,0,0,33,47,696,['n'],1,right,['0'],6,295,[-0.09673638],99,47,medium,plus,dotcolour,beta,,,70,18,V,R,
3,3,3,0,0,53,27,664,['c'],1,left,['0'],6,210,[0.17195732],100,53,easy,plus,dotcolour,beta,,,70,18,V,R,
4,4,4,0,0,44,36,915,['c'],1,left,['0'],6,262,[0.17893248],100,44,hard,plus,dotcolour,beta,,,70,18,V,R,
5,5,5,0,0,27,53,616,['n'],1,right,['0'],6,236,[-0.16073701],100,53,easy,plus,dotcolour,beta,,,70,18,V,R,
6,6,6,0,0,47,33,616,['c'],1,left,['0'],6,243,[0.12216628],100,47,medium,plus,dotcolour,beta,,,70,18,V,R,
7,7,7,0,0,44,36,698,['c'],1,left,['0'],6,230,[0.07591489],99,44,hard,plus,dotcolour,beta,,,70,18,V,R,
8,8,8,0,0,27,53,633,['n'],1,right,['0'],6,333,[-0.12635243],100,53,easy,plus,dotcolour,beta,,,70,18,V,R,
9,9,9,0,0,44,36,516,['c'],1,left,['9'],5,213,[0.11453765],100,44,hard,plus,dotcolour,beta,,,70,18,V,R,
10,10,10,0,0,36,44,1148,['n'],1,right,['9'],5,247,[-0.09457764],100,44,hard,plus,dotcolour,beta,,,70,18,V,R,
11,11,11,0,0,53,27,615,['c'],1,left,['9'],5,270,[0.05731092],98,53,easy,plus,dotcolour,beta,,,70,18,V,R,
12,12,12,0,0,33,47,1198,['n'],1,right,['0'],6,220,[-0.11810466],100,47,medium,plus,dotcolour,beta,,,70,18,V,R,
13,13,13,0,0,33,47,1381,['c'],0,right,['0'],6,269,[-0.00255682],86,47,medium,plus,dotcolour,beta,,,70,18,V,R,
14,14,14,0,0,53,27,583,['c'],1,left,['0'],6,165,[0.06954777],100,53,easy,plus,dotcolour,beta,,,70,18,V,R,
15,15,15,0,0,27,53,667,['n'],1,right,['0'],6,141,[-0.09750506],100,53,easy,plus,dotcolour,beta,,,70,18,V,R,
16,16,16,0,0,27,53,599,['n'],1,right,['0'],6,137,[-0.11575925],100,53,easy,plus,dotcolour,beta,,,70,18,V,R,
17,17,17,0,0,33,47,1034,['c'],0,right,['0'],6,139,[0.05489464],100,47,medium,plus,dotcolour,beta,,,70,18,V,R,
18,18,18,0,0,44,36,615,['c'],1,left,['0'],6,101,[0.0605467],100,44,hard,plus,dotcolour,beta,,,70,18,V,R,
19,19,19,0,0,44,36,699,['c'],1,left,['0'],6,167,[0.05306428],99,44,hard,plus,dotcolour,beta,,,70,18,V,R,
20,20,20,0,0,47,33,765,['c'],1,left,['0'],6,99,[0.11418535],100,47,medium,plus,dotcolour,beta,,,70,18,V,R,
21,21,21,0,0,47,33,515,['c'],1,left,['0'],6,100,[0.04589547],100,47,medium,plus,dotcolour,beta,,,70,18,V,R,
22,22,22,0,0,27,53,783,['n'],1,right,['0'],6,154,[-0.11779021],100,53,easy,plus,dotcolour,beta,,,70,18,V,R,
23,23,23,0,0,53,27,565,['c'],1,left,['0'],6,159,[0.12652294],100,53,easy,plus,dotcolour,beta,,,70,18,V,R,
24,24,24,0,0,47,33,667,['n'],0,left,['1'],1,814,[0.08785838],34,47,medium,plus,dotcolour,beta,,,70,18,V,R,
25,25,25,0,0,33,47,1298,['n'],1,right,['9'],5,187,[-0.09816845],100,47,medium,plus,dotcolour,beta,,,70,18,V,R,
26,26,26,0,0,36,44,1248,['n'],1,right,['8'],4,420,[-0.09896412],99,44,hard,plus,dotcolour,beta,,,70,18,V,R,
27,27,27,0,0,47,33,747,['c'],1,left,['0'],6,221,[0.08427325],100,47,medium,plus,dotcolour,beta,,,70,18,V,R,
28,28,28,0,0,36,44,598,['n'],1,right,['0'],6,157,[-0.11665731],100,44,hard,plus,dotcolour,beta,,,70,18,V,R,
29,29,29,0,0,33,47,598,['n'],1,right,['0'],6,137,[0.00940844],90,47,medium,plus,dotcolour,beta,,,70,18,V,R,
30,30,30,0,0,27,53,563,['n'],1,right,['0'],6,141,[-0.10654394],100,53,easy,plus,dotcolour,beta,,,70,18,V,R,
31,31,31,0,0,53,27,1699,['n'],0,left,['0'],6,197,[-0.09557359],100,53,easy,plus,dotcolour,beta,,,70,18,V,R,
32,32,32,0,0,47,33,1631,['n'],0,left,['9'],5,453,[-0.12688257],99,47,medium,plus,dotcolour,beta,,,70,18,V,R,
33,33,33,0,0,53,27,683,['c'],1,left,['0'],6,193,[0.05458845],99,53,easy,plus,dotcolour,beta,,,70,18,V,R,
34,34,34,0,0,36,44,1882,['n'],1,right,['0'],6,199,[-0.13016257],100,44,hard,plus,dotcolour,beta,,,70,18,V,R,
35,35,35,0,0,53,27,865,['c'],1,left,['0'],6,149,[0.06582792],100,53,easy,plus,dotcolour,beta,,,70,18,V,R,
36,36,36,0,0,27,53,514,['n'],1,right,['0'],6,156,[-0.03006302],98,53,easy,plus,dotcolour,beta,,,70,18,V,R,
37,37,37,0,0,44,36,665,['c'],1,left,['0'],6,181,[0.10695911],100,44,hard,plus,dotcolour,beta,,,70,18,V,R,
38,38,38,0,0,33,47,482,['n'],1,right,['0'],6,131,[-0.0851709],100,47,medium,plus,dotcolour,beta,,,70,18,V,R,
39,39,39,0,0,36,44,1016,['n'],1,right,['0'],6,4079,[-0.11583674],82,44,hard,plus,dotcolour,beta,,,70,18,V,R,
40,40,40,0,0,47,33,565,['c'],1,left,['0'],6,229,[0.15457298],100,47,medium,plus,dotcolour,beta,,,70,18,V,R,
41,41,41,0,0,44,36,816,['n'],0,left,['0'],6,172,[-0.13479006],100,44,hard,plus,dotcolour,beta,,,70,18,V,R,
42,42,0,1,0,27,53,783,['n'],1,right,['0'],6,158,[-0.11306716],100,53,easy,plus,dotcolour,beta,,,70,18,V,R,
43,43,1,1,0,33,47,565,['n'],1,right,['0'],6,146,[-0.04178595],99,47,medium,plus,dotcolour,beta,,,70,18,V,R,
44,44,2,1,0,33,47,481,['n'],1,right,['0'],6,154,[-0.09064169],100,47,medium,plus,dotcolour,beta,,,70,18,V,R,
45,45,3,1,0,53,27,499,['c'],1,left,['0'],6,129,[0.07196821],100,53,easy,plus,dotcolour,beta,,,70,18,V,R,
46,46,4,1,0,33,47,431,['n'],1,right,['0'],6,123,[-0.07361114],100,47,medium,plus,dotcolour,beta,,,70,18,V,R,
47,47,5,1,0,36,44,782,['c'],0,right,['0'],6,168,[0.08749323],100,44,hard,plus,dotcolour,beta,,,70,18,V,R,
48,48,6,1,0,47,33,666,['c'],1,left,['0'],6,152,[0.07612288],100,47,medium,plus,dotcolour,beta,,,70,18,V,R,
49,49,7,1,0,47,33,548,['c'],1,left,['0'],6,108,[0.10664533],100,47,medium,plus,dotcolour,beta,,,70,18,V,R,
50,50,8,1,0,44,36,1197,['c'],1,left,['9'],5,241,[0.05935541],99,44,hard,plus,dotcolour,beta,,,70,18,V,R,
51,51,9,1,0,33,47,948,['n'],1,right,['9'],5,203,[-0.0666177],99,47,medium,plus,dotcolour,beta,,,70,18,V,R,
52,52,10,1,0,33,47,863,['n'],1,right,['9'],5,169,[-0.05878864],99,47,medium,plus,dotcolour,beta,,,70,18,V,R,
53,53,11,1,0,36,44,1081,['c'],0,right,['9'],5,168,[0.05191446],99,44,hard,plus,dotcolour,beta,,,70,18,V,R,
54,54,12,1,0,53,27,682,['c'],1,left,['0'],6,176,[0.08133459],100,53,easy,plus,dotcolour,beta,,,70,18,V,R,
55,55,13,1,0,47,33,530,['c'],1,left,['0'],6,140,[0.11951599],100,47,medium,plus,dotcolour,beta,,,70,18,V,R,
56,56,14,1,0,44,36,632,['c'],1,left,['0'],6,175,[0.01902146],96,44,hard,plus,dotcolour,beta,,,70,18,V,R,
57,57,15,1,0,27,53,682,['n'],1,right,['0'],6,182,[-0.13418529],100,53,easy,plus,dotcolour,beta,,,70,18,V,R,
58,58,16,1,0,53,27,481,['c'],1,left,['0'],6,180,[0.14278378],100,53,easy,plus,dotcolour,beta,,,70,18,V,R,
59,59,17,1,0,33,47,1315,['n'],1,right,['0'],6,250,[-0.20132108],100,47,medium,plus,dotcolour,beta,,,70,18,V,R,
60,60,18,1,0,44,36,1516,['c'],1,left,['9'],5,229,[0.1861499],100,44,hard,plus,dotcolour,beta,,,70,18,V,R,
61,61,19,1,0,44,36,849,['c'],1,left,['0'],6,315,[0.09740454],99,44,hard,plus,dotcolour,beta,,,70,18,V,R,
62,62,20,1,0,53,27,549,['c'],1,left,['0'],6,185,[0.1103424],100,53,easy,plus,dotcolour,beta,,,70,18,V,R,
63,63,21,1,0,27,53,667,['n'],1,right,['0'],6,152,[-0.08561211],100,53,easy,plus,dotcolour,beta,,,70,18,V,R,
64,64,22,1,0,47,33,551,['c'],1,left,['0'],6,149,[0.0986962],100,47,medium,plus,dotcolour,beta,,,70,18,V,R,
65,65,23,1,0,36,44,550,['c'],0,right,['8'],4,794,[-0.09661181],30,44,hard,plus,dotcolour,beta,,,70,18,V,R,
66,66,24,1,0,44,36,549,['c'],1,left,['0'],6,197,[0.09048852],100,44,hard,plus,dotcolour,beta,,,70,18,V,R,
67,67,25,1,0,47,33,865,['c'],1,left,['0'],6,172,[0.1367161],100,47,medium,plus,dotcolour,beta,,,70,18,V,R,
68,68,26,1,0,27,53,600,['n'],1,right,['0'],6,222,[-0.14774492],100,53,easy,plus,dotcolour,beta,,,70,18,V,R,
69,69,27,1,0,27,53,516,['n'],1,right,['0'],6,153,[-0.06281307],100,53,easy,plus,dotcolour,beta,,,70,18,V,R,
70,70,28,1,0,33,47,615,['n'],1,right,['0'],6,180,[-0.08180052],100,47,medium,plus,dotcolour,beta,,,70,18,V,R,
71,71,29,1,0,53,27,448,['c'],1,left,['0'],6,156,[0.0840341],100,53,easy,plus,dotcolour,beta,,,70,18,V,R,
72,72,30,1,0,44,36,1114,['c'],1,left,['0'],6,138,[0.03825487],99,44,hard,plus,dotcolour,beta,,,70,18,V,R,
73,73,31,1,0,47,33,932,['c'],1,left,['0'],6,137,[0.1388163],100,47,medium,plus,dotcolour,beta,,,70,18,V,R,
74,74,32,1,0,47,33,565,['c'],1,left,['0'],6,127,[0.0448902],99,47,medium,plus,dotcolour,beta,,,70,18,V,R,
75,75,33,1,0,27,53,632,['n'],1,right,['0'],6,193,[-0.08474063],100,53,easy,plus,dotcolour,beta,,,70,18,V,R,
76,76,34,1,0,53,27,582,['c'],1,left,['0'],6,91,[0.09553345],100,53,easy,plus,dotcolour,beta,,,70,18,V,R,
77,77,35,1,0,36,44,883,['c'],0,right,['0'],6,102,[0.07816853],100,44,hard,plus,dotcolour,beta,,,70,18,V,R,
78,78,36,1,0,36,44,1116,['c'],0,right,['0'],6,158,[-0.01239021],88,44,hard,plus,dotcolour,beta,,,70,18,V,R,
79,79,37,1,0,27,53,665,['n'],1,right,['0'],6,190,[-0.09750203],100,53,easy,plus,dotcolour,beta,,,70,18,V,R,
80,80,38,1,0,44,36,1398,['n'],0,left,['9'],5,192,[-0.08796228],100,44,hard,plus,dotcolour,beta,,,70,18,V,R,
81,81,39,1,0,36,44,748,['n'],1,right,['0'],6,123,[-0.05318043],100,44,hard,plus,dotcolour,beta,,,70,18,V,R,
82,82,40,1,0,53,27,532,['c'],1,left,['0'],6,139,[0.0474415],99,53,easy,plus,dotcolour,beta,,,70,18,V,R,
83,83,41,1,0,36,44,1081,['c'],0,right,['8'],4,235,[0.025511],95,44,hard,plus,dotcolour,beta,,,70,18,V,R,
84,84,0,2,0,53,27,666,['c'],1,left,['0'],6,158,[0.09480226],100,53,easy,plus,dotcolour,beta,,,70,18,V,R,
85,85,1,2,0,33,47,565,['n'],1,right,['0'],6,146,[-0.0865295],100,47,medium,plus,dotcolour,beta,,,70,18,V,R,
86,86,2,2,0,27,53,699,['n'],1,right,['0'],6,170,[-0.11832276],100,53,easy,plus,dotcolour,beta,,,70,18,V,R,
87,87,3,2,0,27,53,498,['n'],1,right,['0'],6,184,[-0.1522497],100,53,easy,plus,dotcolour,beta,,,70,18,V,R,
88,88,4,2,0,36,44,882,['n'],1,right,['9'],5,254,[-0.08289002],99,44,hard,plus,dotcolour,beta,,,70,18,V,R,
89,89,5,2,0,33,47,499,['n'],1,right,['0'],6,234,[-0.02917355],96,47,medium,plus,dotcolour,beta,,,70,18,V,R,
90,90,6,2,0,33,47,533,['n'],1,right,['0'],6,181,[-0.16024939],100,47,medium,plus,dotcolour,beta,,,70,18,V,R,
91,91,7,2,0,36,44,600,['n'],1,right,['0'],6,158,[-0.08518038],100,44,hard,plus,dotcolour,beta,,,70,18,V,R,
92,92,8,2,0,36,44,600,['n'],1,right,['0'],6,153,[-0.06714202],100,44,hard,plus,dotcolour,beta,,,70,18,V,R,
93,93,9,2,0,47,33,531,['c'],1,left,['0'],6,167,[0.15970241],100,47,medium,plus,dotcolour,beta,,,70,18,V,R,
94,94,10,2,0,47,33,399,['c'],1,left,['0'],6,169,[0.10407914],100,47,medium,plus,dotcolour,beta,,,70,18,V,R,
95,95,11,2,0,36,44,664,['n'],1,right,['0'],6,193,[-0.03176861],97,44,hard,plus,dotcolour,beta,,,70,18,V,R,
96,96,12,2,0,33,47,749,['n'],1,right,['0'],6,157,[-0.12448336],100,47,medium,plus,dotcolour,beta,,,70,18,V,R,
97,97,13,2,0,27,53,582,['n'],1,right,['0'],6,169,[-0.08013121],100,53,easy,plus,dotcolour,beta,,,70,18,V,R,
98,98,14,2,0,53,27,680,['c'],1,left,['0'],6,200,[0.15280581],100,53,easy,plus,dotcolour,beta,,,70,18,V,R,
99,99,15,2,0,47,33,632,['c'],1,left,['0'],6,152,[0.12146489],100,47,medium,plus,dotcolour,beta,,,70,18,V,R,
100,100,16,2,0,53,27,549,['c'],1,left,['0'],6,133,[0.13977227],100,53,easy,plus,dotcolour,beta,,,70,18,V,R,
101,101,17,2,0,44,36,399,['c'],1,left,['0'],6,105,[0.08475537],100,44,hard,plus,dotcolour,beta,,,70,18,V,R,
102,102,18,2,0,47,33,582,['c'],1,left,['0'],6,71,[0.10704214],100,47,medium,plus,dotcolour,beta,,,70,18,V,R,
103,103,19,2,0,33,47,583,['n'],1,right,['0'],6,127,[-0.10827712],100,47,medium,plus,dotcolour,beta,,,70,18,V,R,
104,104,20,2,0,33,47,449,['n'],1,right,['8'],4,953,[-0.04815335],87,47,medium,plus,dotcolour,beta,,,70,18,V,R,
105,105,21,2,0,44,36,815,['n'],0,left,['0'],6,147,[-0.1100268],100,44,hard,plus,dotcolour,beta,,,70,18,V,R,
106,106,22,2,0,36,44,466,['n'],1,right,['0'],6,124,[-0.07869283],100,44,hard,plus,dotcolour,beta,,,70,18,V,R,
107,107,23,2,0,27,53,498,['n'],1,right,['0'],6,132,[-0.12238668],100,53,easy,plus,dotcolour,beta,,,70,18,V,R,
108,108,24,2,0,44,36,798,['c'],1,left,['0'],6,169,[0.06821311],100,44,hard,plus,dotcolour,beta,,,70,18,V,R,
109,109,25,2,0,27,53,482,['n'],1,right,['0'],6,159,[-0.17969021],100,53,easy,plus,dotcolour,beta,,,70,18,V,R,
110,110,26,2,0,53,27,448,['c'],1,left,['0'],6,80,[0.05796591],100,53,easy,plus,dotcolour,beta,,,70,18,V,R,
111,111,27,2,0,53,27,548,['c'],1,left,['0'],6,168,[0.1539937],100,53,easy,plus,dotcolour,beta,,,70,18,V,R,
112,112,28,2,0,53,27,448,['c'],1,left,['0'],6,95,[0.12086502],100,53,easy,plus,dotcolour,beta,,,70,18,V,R,
113,113,29,2,0,33,47,565,['n'],1,right,['0'],6,134,[-0.11575321],100,47,medium,plus,dotcolour,beta,,,70,18,V,R,
114,114,30,2,0,44,36,632,['c'],1,left,['0'],6,161,[0.07035169],100,44,hard,plus,dotcolour,beta,,,70,18,V,R,
115,115,31,2,0,47,33,1932,['c'],1,left,['0'],6,238,[0.10421197],100,47,medium,plus,dotcolour,beta,,,70,18,V,R,
116,116,32,2,0,47,33,965,['c'],1,left,['0'],6,151,[0.01434345],96,47,medium,plus,dotcolour,beta,,,70,18,V,R,
117,117,33,2,0,36,44,483,['n'],1,right,['0'],6,127,[-0.06084506],100,44,hard,plus,dotcolour,beta,,,70,18,V,R,
118,118,34,2,0,47,33,481,['c'],1,left,['0'],6,88,[0.02068612],99,47,medium,plus,dotcolour,beta,,,70,18,V,R,
119,119,35,2,0,36,44,665,['n'],1,right,['0'],6,106,[-0.08985729],100,44,hard,plus,dotcolour,beta,,,70,18,V,R,
120,120,36,2,0,44,36,766,['c'],1,left,['0'],6,153,[0.10457206],100,44,hard,plus,dotcolour,beta,,,70,18,V,R,
121,121,37,2,0,44,36,698,['n'],0,left,['0'],6,112,[-0.07474816],100,44,hard,plus,dotcolour,beta,,,70,18,V,R,
122,122,38,2,0,44,36,1098,['c'],1,left,['8'],4,217,[0.02371534],96,44,hard,plus,dotcolour,beta,,,70,18,V,R,
123,123,39,2,0,27,53,582,['n'],1,right,['9'],5,234,[-0.14629281],100,53,easy,plus,dotcolour,beta,,,70,18,V,R,
124,124,40,2,0,53,27,1315,['c'],1,left,['9'],5,214,[0.08983714],100,53,easy,plus,dotcolour,beta,,,70,18,V,R,
125,125,41,2,0,27,53,748,['n'],1,right,['0'],6,832,[-0.08495658],94,53,easy,plus,dotcolour,beta,,,70,18,V,R,
126,0,0,3,1,47,33,866,['c'],1,left,['9'],5,173,[0.0967229],86,47,medium,minus,dotcolour,beta,,,70,18,V,R,
127,1,1,3,1,27,53,615,['n'],1,right,['0'],6,135,[-0.02362001],17,53,easy,minus,dotcolour,beta,,,70,18,V,R,
128,2,2,3,1,27,53,866,['n'],1,right,['0'],6,256,[-0.08343782],73,53,easy,minus,dotcolour,beta,,,70,18,V,R,
129,3,3,3,1,27,53,548,['n'],1,right,['0'],6,153,[-0.09116618],84,53,easy,minus,dotcolour,beta,,,70,18,V,R,
130,4,4,3,1,53,27,531,['c'],1,left,['0'],6,166,[0.12680506],96,53,easy,minus,dotcolour,beta,,,70,18,V,R,
131,5,5,3,1,53,27,514,['c'],1,left,['0'],6,92,[0.10980115],96,53,easy,minus,dotcolour,beta,,,70,18,V,R,
132,6,6,3,1,44,36,581,['c'],1,left,['0'],6,74,[0.10500525],96,44,hard,minus,dotcolour,beta,,,70,18,V,R,
133,7,7,3,1,44,36,932,['c'],1,left,['0'],6,235,[0.11685382],91,44,hard,minus,dotcolour,beta,,,70,18,V,R,
134,8,8,3,1,53,27,498,['c'],1,left,['0'],6,112,[0.09642136],90,53,easy,minus,dotcolour,beta,,,70,18,V,R,
135,9,9,3,1,36,44,1416,['c'],0,right,['3'],3,947,[-0.0515463],12,44,hard,minus,dotcolour,beta,,,70,18,V,R,
136,10,10,3,1,47,33,1581,['c'],1,left,['8'],4,272,[0.08844426],76,47,medium,minus,dotcolour,beta,,,70,18,V,R,
137,11,11,3,1,53,27,899,['c'],1,left,['9'],5,154,[0.12907764],97,53,easy,minus,dotcolour,beta,,,70,18,V,R,
138,12,12,3,1,27,53,466,['n'],1,right,['0'],6,146,[-0.09402455],86,53,easy,minus,dotcolour,beta,,,70,18,V,R,
139,13,13,3,1,36,44,1365,['n'],1,right,['9'],5,359,[-0.09098512],74,44,hard,minus,dotcolour,beta,,,70,18,V,R,
140,14,14,3,1,36,44,882,['n'],1,right,['0'],6,238,[-0.11439285],90,44,hard,minus,dotcolour,beta,,,70,18,V,R,
141,15,15,3,1,33,47,682,['c'],0,right,['0'],6,106,[-0.01475041],2,47,medium,minus,dotcolour,beta,,,70,18,V,R,
142,16,16,3,1,47,33,1099,['c'],1,left,['0'],6,107,[0.13710026],99,47,medium,minus,dotcolour,beta,,,70,18,V,R,
143,17,17,3,1,36,44,599,['n'],1,right,['0'],6,127,[-0.11698904],96,44,hard,minus,dotcolour,beta,,,70,18,V,R,
144,18,18,3,1,53,27,566,['c'],1,left,['0'],6,141,[0.10358317],91,53,easy,minus,dotcolour,beta,,,70,18,V,R,
145,19,19,3,1,33,47,798,['n'],1,right,['9'],5,321,[-0.20608328],99,47,medium,minus,dotcolour,beta,,,70,18,V,R,
146,20,20,3,1,27,53,531,['n'],1,right,['9'],5,280,[-0.10393878],84,53,easy,minus,dotcolour,beta,,,70,18,V,R,
147,21,21,3,1,27,53,849,['n'],1,right,['0'],6,220,[-0.02472815],23,53,easy,minus,dotcolour,beta,,,70,18,V,R,
148,22,22,3,1,33,47,831,['n'],1,right,['9'],5,387,[-0.03647998],37,47,medium,minus,dotcolour,beta,,,70,18,V,R,
149,23,23,3,1,44,36,2300,['n'],0,left,['8'],4,561,[-0.15101322],91,44,hard,minus,dotcolour,beta,,,70,18,V,R,
150,24,24,3,1,44,36,1016,['c'],1,left,['8'],4,523,[-0.02359282],12,44,hard,minus,dotcolour,beta,,,70,18,V,R,
151,25,25,3,1,53,27,866,['c'],1,left,['0'],6,156,[0.12004581],95,53,easy,minus,dotcolour,beta,,,70,18,V,R,
152,26,26,3,1,36,44,565,['n'],1,right,['0'],6,177,[-0.1069131],90,44,hard,minus,dotcolour,beta,,,70,18,V,R,
153,27,27,3,1,36,44,700,['n'],1,right,['0'],6,135,[-0.08739926],83,44,hard,minus,dotcolour,beta,,,70,18,V,R,
154,28,28,3,1,27,53,633,['n'],1,right,['0'],6,161,[-0.12353659],95,53,easy,minus,dotcolour,beta,,,70,18,V,R,
155,29,29,3,1,53,27,616,['c'],1,left,['0'],6,147,[0.05495185],49,53,easy,minus,dotcolour,beta,,,70,18,V,R,
156,30,30,3,1,33,47,565,['n'],1,right,['0'],6,152,[-0.05635555],51,47,medium,minus,dotcolour,beta,,,70,18,V,R,
157,31,31,3,1,44,36,1280,['c'],1,left,['8'],4,336,[0.06265592],55,44,hard,minus,dotcolour,beta,,,70,18,V,R,
158,32,32,3,1,33,47,549,['n'],1,right,['9'],5,229,[-0.1647495],98,47,medium,minus,dotcolour,beta,,,70,18,V,R,
159,33,33,3,1,36,44,582,['n'],1,right,['9'],5,118,[-0.05371047],48,44,hard,minus,dotcolour,beta,,,70,18,V,R,
160,34,34,3,1,47,33,631,['c'],1,left,['9'],5,106,[0.13755779],99,47,medium,minus,dotcolour,beta,,,70,18,V,R,
161,35,35,3,1,44,36,1282,['c'],1,left,['9'],5,123,[0.09661932],89,44,hard,minus,dotcolour,beta,,,70,18,V,R,
162,36,36,3,1,47,33,482,['c'],1,left,['9'],5,68,[0.03636338],21,47,medium,minus,dotcolour,beta,,,70,18,V,R,
163,37,37,3,1,47,33,449,['c'],1,left,['9'],5,73,[0.10453652],96,47,medium,minus,dotcolour,beta,,,70,18,V,R,
164,38,38,3,1,47,33,848,['c'],1,left,['9'],5,69,[0.08245372],86,47,medium,minus,dotcolour,beta,,,70,18,V,R,
165,39,39,3,1,44,36,482,['c'],1,left,['9'],5,8,[0.0706575],95,44,hard,minus,dotcolour,beta,,,70,18,V,R,
166,40,40,3,1,33,47,632,['n'],1,right,['9'],5,127,[-0.00297843],7,47,medium,minus,dotcolour,beta,,,70,18,V,R,
167,41,41,3,1,33,47,850,['n'],1,right,['0'],6,74,[-0.09351938],92,47,medium,minus,dotcolour,beta,,,70,18,V,R,
168,42,0,4,1,44,36,1050,['c'],1,left,['8'],4,332,[0.19549679],99,44,hard,minus,dotcolour,beta,,,70,18,V,R,
169,43,1,4,1,53,27,1250,['c'],1,left,['8'],4,398,[0.05016931],46,53,easy,minus,dotcolour,beta,,,70,18,V,R,
170,44,2,4,1,47,33,900,['c'],1,left,['9'],5,179,[0.14821342],98,47,medium,minus,dotcolour,beta,,,70,18,V,R,
171,45,3,4,1,53,27,965,['c'],1,left,['9'],5,175,[0.08289254],76,53,easy,minus,dotcolour,beta,,,70,18,V,R,
172,46,4,4,1,53,27,715,['c'],1,left,['0'],6,164,[0.03866347],32,53,easy,minus,dotcolour,beta,,,70,18,V,R,
173,47,5,4,1,47,33,882,['c'],1,left,['0'],6,107,[0.03654256],26,47,medium,minus,dotcolour,beta,,,70,18,V,R,
174,48,6,4,1,27,53,565,['n'],1,right,['0'],6,97,[-0.07780698],78,53,easy,minus,dotcolour,beta,,,70,18,V,R,
175,49,7,4,1,36,44,1382,['c'],0,right,['9'],5,223,[0.04975204],44,44,hard,minus,dotcolour,beta,,,70,18,V,R,
176,50,8,4,1,27,53,682,['n'],1,right,['0'],6,156,[-0.0970524],87,53,easy,minus,dotcolour,beta,,,70,18,V,R,
177,51,9,4,1,36,44,597,['n'],1,right,['0'],6,134,[-0.10486047],92,44,hard,minus,dotcolour,beta,,,70,18,V,R,
178,52,10,4,1,27,53,431,['n'],1,right,['0'],6,162,[-0.12938912],96,53,easy,minus,dotcolour,beta,,,70,18,V,R,
179,53,11,4,1,44,36,1248,['c'],1,left,['9'],5,178,[0.13161147],96,44,hard,minus,dotcolour,beta,,,70,18,V,R,
180,54,12,4,1,44,36,649,['c'],1,left,['9'],5,146,[0.08853223],83,44,hard,minus,dotcolour,beta,,,70,18,V,R,
181,55,13,4,1,53,27,483,['c'],1,left,['9'],5,98,[0.08953535],88,53,easy,minus,dotcolour,beta,,,70,18,V,R,
182,56,14,4,1,33,47,482,['n'],1,right,['0'],6,164,[-0.17185477],99,47,medium,minus,dotcolour,beta,,,70,18,V,R,
183,57,15,4,1,27,53,566,['n'],1,right,['0'],6,183,[-0.096289],85,53,easy,minus,dotcolour,beta,,,70,18,V,R,
184,58,16,4,1,47,33,665,['c'],1,left,['0'],6,119,[0.05545129],50,47,medium,minus,dotcolour,beta,,,70,18,V,R,
185,59,17,4,1,33,47,533,['n'],1,right,['0'],6,151,[-0.08042156],76,47,medium,minus,dotcolour,beta,,,70,18,V,R,
186,60,18,4,1,27,53,532,['n'],1,right,['0'],6,125,[-0.07536861],73,53,easy,minus,dotcolour,beta,,,70,18,V,R,
187,61,19,4,1,47,33,732,['c'],1,left,['0'],6,115,[0.01328572],10,47,medium,minus,dotcolour,beta,,,70,18,V,R,
188,62,20,4,1,47,33,731,['c'],1,left,['0'],6,98,[0.1002679],93,47,medium,minus,dotcolour,beta,,,70,18,V,R,
189,63,21,4,1,36,44,614,['n'],1,right,['0'],6,128,[-0.11867973],96,44,hard,minus,dotcolour,beta,,,70,18,V,R,
190,64,22,4,1,33,47,1017,['n'],1,right,['0'],6,75,[-0.09877268],94,47,medium,minus,dotcolour,beta,,,70,18,V,R,
191,65,23,4,1,44,36,565,['c'],1,left,['0'],6,123,[0.05932216],55,44,hard,minus,dotcolour,beta,,,70,18,V,R,
192,66,24,4,1,44,36,1382,['c'],1,left,['8'],4,345,[0.07343218],63,44,hard,minus,dotcolour,beta,,,70,18,V,R,
193,67,25,4,1,33,47,915,['n'],1,right,['0'],6,135,[-0.09286517],86,47,medium,minus,dotcolour,beta,,,70,18,V,R,
194,68,26,4,1,27,53,481,['n'],1,right,['0'],6,128,[-0.09794769],89,53,easy,minus,dotcolour,beta,,,70,18,V,R,
195,69,27,4,1,33,47,1064,['n'],1,right,['0'],6,249,[0.0160856],7,47,medium,minus,dotcolour,beta,,,70,18,V,R,
196,70,28,4,1,36,44,913,['c'],0,right,['9'],5,155,[0.0398335],33,44,hard,minus,dotcolour,beta,,,70,18,V,R,
197,71,29,4,1,44,36,733,['c'],1,left,['3'],3,1514,[0.15290653],81,44,hard,minus,dotcolour,beta,,,70,18,V,R,
198,72,30,4,1,36,44,1031,['n'],1,right,['0'],6,237,[-0.01372328],18,44,hard,minus,dotcolour,beta,,,70,18,V,R,
199,73,31,4,1,47,33,1066,['c'],1,left,['0'],6,153,[0.06387937],59,47,medium,minus,dotcolour,beta,,,70,18,V,R,
200,74,32,4,1,27,53,582,['n'],1,right,['0'],6,198,[-0.10991888],90,53,easy,minus,dotcolour,beta,,,70,18,V,R,
201,75,33,4,1,36,44,533,['n'],1,right,['0'],6,130,[-0.05897322],54,44,hard,minus,dotcolour,beta,,,70,18,V,R,
202,76,34,4,1,53,27,650,['c'],1,left,['0'],6,132,[0.11347008],95,53,easy,minus,dotcolour,beta,,,70,18,V,R,
203,77,35,4,1,33,47,518,['n'],1,right,['0'],6,131,[-0.12732499],97,47,medium,minus,dotcolour,beta,,,70,18,V,R,
204,78,36,4,1,47,33,600,['c'],1,left,['0'],6,87,[0.06758582],68,47,medium,minus,dotcolour,beta,,,70,18,V,R,
205,79,37,4,1,33,47,833,['n'],1,right,['0'],6,107,[-0.05274835],46,47,medium,minus,dotcolour,beta,,,70,18,V,R,
206,80,38,4,1,53,27,800,['c'],1,left,['0'],6,97,[0.08082815],81,53,easy,minus,dotcolour,beta,,,70,18,V,R,
207,81,39,4,1,53,27,1015,['c'],1,left,['0'],6,101,[0.08272127],82,53,easy,minus,dotcolour,beta,,,70,18,V,R,
208,82,40,4,1,36,44,749,['n'],1,right,['0'],6,132,[-0.06691928],64,44,hard,minus,dotcolour,beta,,,70,18,V,R,
209,83,41,4,1,44,36,517,['c'],1,left,['0'],6,92,[0.02410912],13,44,hard,minus,dotcolour,beta,,,70,18,V,R,
210,84,0,5,1,33,47,783,['n'],1,right,['0'],6,147,[-0.08177228],77,47,medium,minus,dotcolour,beta,,,70,18,V,R,
211,85,1,5,1,47,33,450,['c'],1,left,['0'],6,148,[0.11709134],95,47,medium,minus,dotcolour,beta,,,70,18,V,R,
212,86,2,5,1,53,27,499,['c'],1,left,['0'],6,156,[0.0791528],75,53,easy,minus,dotcolour,beta,,,70,18,V,R,
213,87,3,5,1,33,47,717,['n'],1,right,['0'],6,154,[-0.08575325],80,47,medium,minus,dotcolour,beta,,,70,18,V,R,
214,88,4,5,1,47,33,1982,['c'],1,left,['8'],4,574,[0.04216923],42,47,medium,minus,dotcolour,beta,,,70,18,V,R,
215,89,5,5,1,36,44,1684,['n'],1,right,['9'],5,509,[-0.19038189],97,44,hard,minus,dotcolour,beta,,,70,18,V,R,
216,90,6,5,1,27,53,580,['n'],1,right,['0'],6,169,[-0.0563992],51,53,easy,minus,dotcolour,beta,,,70,18,V,R,
217,91,7,5,1,27,53,616,['n'],1,right,['0'],6,148,[-0.14407078],98,53,easy,minus,dotcolour,beta,,,70,18,V,R,
218,92,8,5,1,33,47,565,['n'],1,right,['0'],6,169,[-0.0318958],26,47,medium,minus,dotcolour,beta,,,70,18,V,R,
219,93,9,5,1,27,53,598,['n'],1,right,['0'],6,107,[-0.10910495],95,53,easy,minus,dotcolour,beta,,,70,18,V,R,
220,94,10,5,1,36,44,933,['c'],0,right,['0'],6,195,[0.06669115],61,44,hard,minus,dotcolour,beta,,,70,18,V,R,
221,95,11,5,1,44,36,582,['c'],1,left,['0'],6,117,[0.14795219],99,44,hard,minus,dotcolour,beta,,,70,18,V,R,
222,96,12,5,1,44,36,731,['c'],1,left,['0'],6,133,[0.08832802],83,44,hard,minus,dotcolour,beta,,,70,18,V,R,
223,97,13,5,1,53,27,516,['c'],1,left,['0'],6,107,[0.07212357],71,53,easy,minus,dotcolour,beta,,,70,18,V,R,
224,98,14,5,1,47,33,632,['c'],1,left,['0'],6,71,[0.07137717],74,47,medium,minus,dotcolour,beta,,,70,18,V,R,
225,99,15,5,1,53,27,597,['c'],1,left,['0'],6,173,[0.03288889],27,53,easy,minus,dotcolour,beta,,,70,18,V,R,
226,100,16,5,1,53,27,483,['c'],1,left,['0'],6,124,[0.05850053],54,53,easy,minus,dotcolour,beta,,,70,18,V,R,
227,101,17,5,1,47,33,699,['c'],1,left,['0'],6,133,[0.12076945],96,47,medium,minus,dotcolour,beta,,,70,18,V,R,
228,102,18,5,1,27,53,549,['n'],1,right,['0'],6,170,[-0.04907849],43,53,easy,minus,dotcolour,beta,,,70,18,V,R,
229,103,19,5,1,36,44,466,['n'],1,right,['0'],6,98,[-0.07447687],75,44,hard,minus,dotcolour,beta,,,70,18,V,R,
230,104,20,5,1,53,27,532,['c'],1,left,['0'],6,106,[0.1167984],97,53,easy,minus,dotcolour,beta,,,70,18,V,R,
231,105,21,5,1,36,44,616,['c'],0,right,['0'],6,79,[0.09715807],93,44,hard,minus,dotcolour,beta,,,70,18,V,R,
232,106,22,5,1,44,36,1681,['c'],1,left,['8'],4,154,[0.02832927],22,44,hard,minus,dotcolour,beta,,,70,18,V,R,
233,107,23,5,1,44,36,1349,['n'],0,left,['8'],4,239,[-0.10605522],87,44,hard,minus,dotcolour,beta,,,70,18,V,R,
234,108,24,5,1,44,36,1665,['n'],0,left,['0'],6,341,[-0.02936926],31,44,hard,minus,dotcolour,beta,,,70,18,V,R,
235,109,25,5,1,36,44,566,['n'],1,right,['0'],6,153,[-0.04753746],41,44,hard,minus,dotcolour,beta,,,70,18,V,R,
236,110,26,5,1,33,47,982,['n'],1,right,['9'],5,229,[-0.07518734],68,47,medium,minus,dotcolour,beta,,,70,18,V,R,
237,111,27,5,1,44,36,649,['c'],1,left,['9'],5,123,[0.13758952],99,44,hard,minus,dotcolour,beta,,,70,18,V,R,
238,112,28,5,1,53,27,799,['c'],1,left,['0'],6,471,[0.15925319],94,53,easy,minus,dotcolour,beta,,,70,18,V,R,
239,113,29,5,1,27,53,649,['n'],1,right,['0'],6,171,[-0.12651577],96,53,easy,minus,dotcolour,beta,,,70,18,V,R,
240,114,30,5,1,27,53,581,['n'],1,right,['0'],6,199,[-0.18175324],99,53,easy,minus,dotcolour,beta,,,70,18,V,R,
241,115,31,5,1,44,36,750,['c'],1,left,['0'],6,178,[0.10788641],90,44,hard,minus,dotcolour,beta,,,70,18,V,R,
242,116,32,5,1,33,47,633,['n'],1,right,['0'],6,98,[-0.11371344],97,47,medium,minus,dotcolour,beta,,,70,18,V,R,
243,117,33,5,1,27,53,632,['n'],1,right,['0'],6,119,[-0.02947134],20,53,easy,minus,dotcolour,beta,,,70,18,V,R,
244,118,34,5,1,36,44,482,['n'],1,right,['0'],6,152,[-0.13181974],97,44,hard,minus,dotcolour,beta,,,70,18,V,R,
245,119,35,5,1,47,33,632,['c'],1,left,['0'],6,106,[0.02594507],16,47,medium,minus,dotcolour,beta,,,70,18,V,R,
246,120,36,5,1,33,47,582,['n'],1,right,['0'],6,135,[-0.05979287],55,47,medium,minus,dotcolour,beta,,,70,18,V,R,
247,121,37,5,1,36,44,715,['n'],1,right,['0'],6,127,[-0.08530764],82,44,hard,minus,dotcolour,beta,,,70,18,V,R,
248,122,38,5,1,33,47,517,['n'],1,right,['0'],6,158,[-0.06879246],65,47,medium,minus,dotcolour,beta,,,70,18,V,R,
249,123,39,5,1,47,33,667,['c'],1,left,['0'],6,166,[0.0449569],39,47,medium,minus,dotcolour,beta,,,70,18,V,R,
250,124,40,5,1,47,33,1251,['c'],1,left,['8'],4,263,[0.02244369],24,47,medium,minus,dotcolour,beta,,,70,18,V,R,
251,125,41,5,1,53,27,633,['c'],1,left,['0'],6,108,[0.06377938],61,53,easy,minus,dotcolour,beta,,,70,18,V,R,
252,0,0,6,2,44,36,1682,['n'],0,left,['8'],4,243,[-0.06255967],99,44,hard,plus,dotcolour,beta,,,70,18,V,R,
253,1,1,6,2,36,44,1000,['n'],1,right,['9'],5,170,[-0.14000252],100,44,hard,plus,dotcolour,beta,,,70,18,V,R,
254,2,2,6,2,47,33,848,['c'],1,left,['8'],4,138,[0.13464842],100,47,medium,plus,dotcolour,beta,,,70,18,V,R,
255,3,3,6,2,33,47,601,['n'],1,right,['0'],6,134,[-0.06372571],100,47,medium,plus,dotcolour,beta,,,70,18,V,R,
256,4,4,6,2,53,27,532,['c'],1,left,['0'],6,125,[0.09711324],100,53,easy,plus,dotcolour,beta,,,70,18,V,R,
257,5,5,6,2,44,36,750,['c'],1,left,['0'],6,99,[0.04246291],100,44,hard,plus,dotcolour,beta,,,70,18,V,R,
258,6,6,6,2,47,33,7715,['c'],1,left,['0'],6,1052,[0.23269795],99,47,medium,plus,dotcolour,beta,,,70,18,V,R,
259,7,7,6,2,27,53,1482,['n'],1,right,['0'],6,168,[-0.06193828],99,53,easy,plus,dotcolour,beta,,,70,18,V,R,
260,8,8,6,2,44,36,681,['n'],0,left,['0'],6,175,[-0.04620709],99,44,hard,plus,dotcolour,beta,,,70,18,V,R,
261,9,9,6,2,47,33,732,['c'],1,left,['0'],6,67,[0.09661891],100,47,medium,plus,dotcolour,beta,,,70,18,V,R,
262,10,10,6,2,47,33,649,['c'],1,left,['0'],6,88,[0.07480339],100,47,medium,plus,dotcolour,beta,,,70,18,V,R,
263,11,11,6,2,47,33,4981,['c'],1,left,['0'],6,103,[0.15914572],100,47,medium,plus,dotcolour,beta,,,70,18,V,R,
264,12,12,6,2,36,44,901,['c'],0,right,['0'],6,80,[0.08102785],100,44,hard,plus,dotcolour,beta,,,70,18,V,R,
265,13,13,6,2,47,33,599,['c'],1,left,['0'],6,38,[0.08296911],100,47,medium,plus,dotcolour,beta,,,70,18,V,R,
266,14,14,6,2,36,44,700,['n'],1,right,['0'],6,90,[-0.10863366],100,44,hard,plus,dotcolour,beta,,,70,18,V,R,
267,15,15,6,2,27,53,581,['n'],1,right,['0'],6,25,[-0.01792934],100,53,easy,plus,dotcolour,beta,,,70,18,V,R,
268,16,16,6,2,33,47,615,['n'],1,right,['0'],6,112,[-0.1344603],100,47,medium,plus,dotcolour,beta,,,70,18,V,R,
269,17,17,6,2,53,27,566,['c'],1,left,['0'],6,63,[0.07257084],100,53,easy,plus,dotcolour,beta,,,70,18,V,R,
270,18,18,6,2,27,53,448,['n'],1,right,['0'],6,147,[-0.10686972],100,53,easy,plus,dotcolour,beta,,,70,18,V,R,
271,19,19,6,2,44,36,948,['n'],0,left,['0'],6,121,[-0.12052619],100,44,hard,plus,dotcolour,beta,,,70,18,V,R,
272,20,20,6,2,36,44,448,['n'],1,right,['0'],6,123,[-0.07057412],100,44,hard,plus,dotcolour,beta,,,70,18,V,R,
273,21,21,6,2,44,36,1149,['c'],1,left,['9'],5,145,[0.06441681],100,44,hard,plus,dotcolour,beta,,,70,18,V,R,
274,22,22,6,2,33,47,516,['n'],1,right,['0'],6,88,[-0.10796425],100,47,medium,plus,dotcolour,beta,,,70,18,V,R,
275,23,23,6,2,27,53,766,['n'],1,right,['0'],6,111,[-0.07657719],100,53,easy,plus,dotcolour,beta,,,70,18,V,R,
276,24,24,6,2,53,27,581,['c'],1,left,['0'],6,116,[0.11985994],100,53,easy,plus,dotcolour,beta,,,70,18,V,R,
277,25,25,6,2,33,47,648,['n'],1,right,['0'],6,95,[-0.10655522],100,47,medium,plus,dotcolour,beta,,,70,18,V,R,
278,26,26,6,2,53,27,633,['c'],1,left,['0'],6,131,[0.07671679],100,53,easy,plus,dotcolour,beta,,,70,18,V,R,
279,27,27,6,2,27,53,699,['n'],1,right,['0'],6,163,[-0.08545585],100,53,easy,plus,dotcolour,beta,,,70,18,V,R,
280,28,28,6,2,36,44,1031,['n'],1,right,['0'],6,180,[-0.09526565],100,44,hard,plus,dotcolour,beta,,,70,18,V,R,
281,29,29,6,2,33,47,499,['n'],1,right,['0'],6,162,[-0.05761731],99,47,medium,plus,dotcolour,beta,,,70,18,V,R,
282,30,30,6,2,53,27,598,['c'],1,left,['0'],6,133,[0.10348125],100,53,easy,plus,dotcolour,beta,,,70,18,V,R,
283,31,31,6,2,47,33,1115,['c'],1,left,['0'],6,165,[0.07970618],100,47,medium,plus,dotcolour,beta,,,70,18,V,R,
284,32,32,6,2,27,53,567,['n'],1,right,['0'],6,120,[-0.13615596],100,53,easy,plus,dotcolour,beta,,,70,18,V,R,
285,33,33,6,2,33,47,698,['n'],1,right,['0'],6,144,[-0.12957808],100,47,medium,plus,dotcolour,beta,,,70,18,V,R,
286,34,34,6,2,53,27,547,['c'],1,left,['0'],6,86,[0.10341594],100,53,easy,plus,dotcolour,beta,,,70,18,V,R,
287,35,35,6,2,44,36,764,['n'],0,left,['0'],6,125,[-0.07669819],100,44,hard,plus,dotcolour,beta,,,70,18,V,R,
288,36,36,6,2,44,36,548,['c'],1,left,['0'],6,100,[0.08031634],100,44,hard,plus,dotcolour,beta,,,70,18,V,R,
289,37,37,6,2,36,44,764,['c'],0,right,['0'],6,122,[0.03759487],99,44,hard,plus,dotcolour,beta,,,70,18,V,R,
290,38,38,6,2,33,47,717,['n'],1,right,['0'],6,81,[-0.09628477],100,47,medium,plus,dotcolour,beta,,,70,18,V,R,
291,39,39,6,2,27,53,583,['n'],1,right,['0'],6,120,[-0.08304906],100,53,easy,plus,dotcolour,beta,,,70,18,V,R,
292,40,40,6,2,53,27,550,['c'],1,left,['0'],6,63,[0.03971537],100,53,easy,plus,dotcolour,beta,,,70,18,V,R,
293,41,41,6,2,36,44,683,['c'],0,right,['0'],6,98,[0.06664426],100,44,hard,plus,dotcolour,beta,,,70,18,V,R,
294,42,0,7,2,36,44,583,['c'],0,right,['0'],6,169,[0.02534286],97,44,hard,plus,dotcolour,beta,,,70,18,V,R,
295,43,1,7,2,47,33,783,['c'],1,left,['0'],6,229,[0.04947507],98,47,medium,plus,dotcolour,beta,,,70,18,V,R,
296,44,2,7,2,53,27,547,['c'],1,left,['0'],6,95,[0.06512627],100,53,easy,plus,dotcolour,beta,,,70,18,V,R,
297,45,3,7,2,36,44,532,['n'],1,right,['0'],6,151,[-0.02759751],98,44,hard,plus,dotcolour,beta,,,70,18,V,R,
298,46,4,7,2,47,33,666,['c'],1,left,['0'],6,63,[0.06310834],100,47,medium,plus,dotcolour,beta,,,70,18,V,R,
299,47,5,7,2,44,36,1015,['c'],1,left,['9'],5,53,[0.08698583],100,44,hard,plus,dotcolour,beta,,,70,18,V,R,
300,48,6,7,2,33,47,748,['n'],1,right,['0'],6,143,[-0.0522434],99,47,medium,plus,dotcolour,beta,,,70,18,V,R,
301,49,7,7,2,53,27,684,['c'],1,left,['9'],5,103,[0.09760466],100,53,easy,plus,dotcolour,beta,,,70,18,V,R,
302,50,8,7,2,53,27,498,['c'],1,left,['9'],5,16,[0.09408137],100,53,easy,plus,dotcolour,beta,,,70,18,V,R,
303,51,9,7,2,44,36,1048,['c'],1,left,['8'],4,223,[0.12859033],100,44,hard,plus,dotcolour,beta,,,70,18,V,R,
304,52,10,7,2,47,33,1414,['c'],1,left,['8'],4,103,[0.07062952],100,47,medium,plus,dotcolour,beta,,,70,18,V,R,
305,53,11,7,2,33,47,732,['n'],1,right,['0'],6,151,[-0.10015678],100,47,medium,plus,dotcolour,beta,,,70,18,V,R,
306,54,12,7,2,44,36,681,['c'],1,left,['0'],6,62,[0.05372861],100,44,hard,plus,dotcolour,beta,,,70,18,V,R,
307,55,13,7,2,33,47,432,['n'],1,right,['0'],6,132,[-0.11063663],100,47,medium,plus,dotcolour,beta,,,70,18,V,R,
308,56,14,7,2,53,27,514,['c'],1,left,['0'],6,91,[0.02246173],99,53,easy,plus,dotcolour,beta,,,70,18,V,R,
309,57,15,7,2,33,47,415,['n'],1,right,['0'],6,104,[-0.0698569],100,47,medium,plus,dotcolour,beta,,,70,18,V,R,
310,58,16,7,2,27,53,565,['n'],1,right,['0'],6,119,[-0.1503256],100,53,easy,plus,dotcolour,beta,,,70,18,V,R,
311,59,17,7,2,44,36,898,['c'],1,left,['0'],6,96,[0.06049524],100,44,hard,plus,dotcolour,beta,,,70,18,V,R,
312,60,18,7,2,47,33,632,['c'],1,left,['0'],6,100,[0.07115295],100,47,medium,plus,dotcolour,beta,,,70,18,V,R,
313,61,19,7,2,27,53,465,['n'],1,right,['8'],4,582,[-0.15303548],99,53,easy,plus,dotcolour,beta,,,70,18,V,R,
314,62,20,7,2,36,44,715,['n'],1,right,['0'],6,156,[-0.12399538],100,44,hard,plus,dotcolour,beta,,,70,18,V,R,
315,63,21,7,2,33,47,501,['n'],1,right,['0'],6,195,[-0.11932526],100,47,medium,plus,dotcolour,beta,,,70,18,V,R,
316,64,22,7,2,33,47,401,['n'],1,right,['0'],6,92,[-0.11657091],100,47,medium,plus,dotcolour,beta,,,70,18,V,R,
317,65,23,7,2,53,27,517,['c'],1,left,['0'],6,60,[0.07467752],100,53,easy,plus,dotcolour,beta,,,70,18,V,R,
318,66,24,7,2,53,27,433,['c'],1,left,['0'],6,50,[0.05924218],100,53,easy,plus,dotcolour,beta,,,70,18,V,R,
319,67,25,7,2,27,53,499,['n'],1,right,['0'],6,101,[-0.03727104],99,53,easy,plus,dotcolour,beta,,,70,18,V,R,
320,68,26,7,2,47,33,666,['c'],1,left,['0'],6,112,[0.06990734],100,47,medium,plus,dotcolour,beta,,,70,18,V,R,
321,69,27,7,2,36,44,532,['n'],1,right,['0'],6,79,[-0.12043207],100,44,hard,plus,dotcolour,beta,,,70,18,V,R,
322,70,28,7,2,44,36,583,['n'],0,left,['0'],6,142,[-0.14641536],100,44,hard,plus,dotcolour,beta,,,70,18,V,R,
323,71,29,7,2,27,53,516,['c'],0,right,['0'],6,93,[0.03880941],100,53,easy,plus,dotcolour,beta,,,70,18,V,R,
324,72,30,7,2,36,44,882,['n'],1,right,['0'],6,135,[-0.07887745],100,44,hard,plus,dotcolour,beta,,,70,18,V,R,
325,73,31,7,2,33,47,581,['n'],1,right,['0'],6,140,[-0.07972629],100,47,medium,plus,dotcolour,beta,,,70,18,V,R,
326,74,32,7,2,44,36,983,['c'],1,left,['0'],6,95,[0.03324208],99,44,hard,plus,dotcolour,beta,,,70,18,V,R,
327,75,33,7,2,44,36,749,['c'],1,left,['0'],6,55,[0.03841314],100,44,hard,plus,dotcolour,beta,,,70,18,V,R,
328,76,34,7,2,47,33,966,['c'],1,left,['9'],5,79,[0.09041702],100,47,medium,plus,dotcolour,beta,,,70,18,V,R,
329,77,35,7,2,27,53,533,['n'],1,right,['0'],6,111,[-0.07355418],100,53,easy,plus,dotcolour,beta,,,70,18,V,R,
330,78,36,7,2,47,33,516,['c'],1,left,['0'],6,63,[0.03465268],100,47,medium,plus,dotcolour,beta,,,70,18,V,R,
331,79,37,7,2,27,53,533,['n'],1,right,['0'],6,113,[-0.13434289],100,53,easy,plus,dotcolour,beta,,,70,18,V,R,
332,80,38,7,2,53,27,432,['c'],1,left,['0'],6,60,[0.08725078],100,53,easy,plus,dotcolour,beta,,,70,18,V,R,
333,81,39,7,2,27,53,482,['n'],1,right,['0'],6,79,[-0.09617932],100,53,easy,plus,dotcolour,beta,,,70,18,V,R,
334,82,40,7,2,36,44,583,['c'],0,right,['0'],6,86,[0.06225775],100,44,hard,plus,dotcolour,beta,,,70,18,V,R,
335,83,41,7,2,36,44,1164,['n'],1,right,['0'],6,141,[-0.0644218],100,44,hard,plus,dotcolour,beta,,,70,18,V,R,
336,84,0,8,2,47,33,833,['n'],0,left,['0'],6,129,[-0.10264295],100,47,medium,plus,dotcolour,beta,,,70,18,V,R,
337,85,1,8,2,27,53,465,['n'],1,right,['0'],6,90,[-0.09105386],100,53,easy,plus,dotcolour,beta,,,70,18,V,R,
338,86,2,8,2,53,27,515,['c'],1,left,['0'],6,44,[0.04508018],100,53,easy,plus,dotcolour,beta,,,70,18,V,R,
339,87,3,8,2,44,36,1548,['n'],0,left,['9'],5,205,[-0.10823255],100,44,hard,plus,dotcolour,beta,,,70,18,V,R,
340,88,4,8,2,33,47,601,['n'],1,right,['0'],6,126,[-0.15429694],100,47,medium,plus,dotcolour,beta,,,70,18,V,R,
341,89,5,8,2,47,33,649,['c'],1,left,['0'],6,80,[0.12262066],100,47,medium,plus,dotcolour,beta,,,70,18,V,R,
342,90,6,8,2,53,27,549,['c'],1,left,['0'],6,656,[0.16679073],99,53,easy,plus,dotcolour,beta,,,70,18,V,R,
343,91,7,8,2,27,53,481,['n'],1,right,['0'],6,116,[0.00864761],92,53,easy,plus,dotcolour,beta,,,70,18,V,R,
344,92,8,8,2,44,36,665,['c'],1,left,['0'],6,78,[0.08825693],100,44,hard,plus,dotcolour,beta,,,70,18,V,R,
345,93,9,8,2,44,36,998,['c'],1,left,['0'],6,188,[0.13014073],100,44,hard,plus,dotcolour,beta,,,70,18,V,R,
346,94,10,8,2,44,36,767,['c'],1,left,['9'],5,126,[0.07215064],100,44,hard,plus,dotcolour,beta,,,70,18,V,R,
347,95,11,8,2,53,27,698,['c'],1,left,['9'],5,174,[0.10621874],100,53,easy,plus,dotcolour,beta,,,70,18,V,R,
348,96,12,8,2,33,47,616,['n'],1,right,['0'],6,160,[-0.10717772],100,47,medium,plus,dotcolour,beta,,,70,18,V,R,
349,97,13,8,2,33,47,566,['n'],1,right,['0'],6,116,[-0.00621975],96,47,medium,plus,dotcolour,beta,,,70,18,V,R,
350,98,14,8,2,33,47,450,['n'],1,right,['0'],6,78,[-0.09566583],100,47,medium,plus,dotcolour,beta,,,70,18,V,R,
351,99,15,8,2,36,44,947,['n'],1,right,['0'],6,639,[-0.18166759],100,44,hard,plus,dotcolour,beta,,,70,18,V,R,
352,100,16,8,2,53,27,682,['c'],1,left,['0'],6,130,[0.06604167],100,53,easy,plus,dotcolour,beta,,,70,18,V,R,
353,101,17,8,2,33,47,530,['n'],1,right,['0'],6,169,[-0.04895269],99,47,medium,plus,dotcolour,beta,,,70,18,V,R,
354,102,18,8,2,36,44,433,['n'],1,right,['9'],5,467,[-0.09457916],98,44,hard,plus,dotcolour,beta,,,70,18,V,R,
355,103,19,8,2,44,36,680,['n'],0,left,['0'],6,181,[-0.03263532],98,44,hard,plus,dotcolour,beta,,,70,18,V,R,
356,104,20,8,2,47,33,748,['c'],1,left,['9'],5,153,[0.03194493],98,47,medium,plus,dotcolour,beta,,,70,18,V,R,
357,105,21,8,2,53,27,799,['c'],1,left,['9'],5,85,[0.10738202],100,53,easy,plus,dotcolour,beta,,,70,18,V,R,
358,106,22,8,2,27,53,481,['n'],1,right,['0'],6,143,[-0.1068396],100,53,easy,plus,dotcolour,beta,,,70,18,V,R,
359,107,23,8,2,47,33,866,['c'],1,left,['0'],6,280,[0.04516872],97,47,medium,plus,dotcolour,beta,,,70,18,V,R,
360,108,24,8,2,36,44,614,['n'],1,right,['0'],6,165,[-0.04671335],99,44,hard,plus,dotcolour,beta,,,70,18,V,R,
361,109,25,8,2,27,53,732,['n'],1,right,['0'],6,155,[-0.05754203],99,53,easy,plus,dotcolour,beta,,,70,18,V,R,
362,110,26,8,2,36,44,715,['c'],0,right,['0'],6,193,[0.09179971],100,44,hard,plus,dotcolour,beta,,,70,18,V,R,
363,111,27,8,2,27,53,482,['n'],1,right,['0'],6,143,[-0.1408268],100,53,easy,plus,dotcolour,beta,,,70,18,V,R,
364,112,28,8,2,36,44,1048,['n'],1,right,['0'],6,200,[-0.12319259],100,44,hard,plus,dotcolour,beta,,,70,18,V,R,
365,113,29,8,2,47,33,864,['c'],1,left,['9'],5,142,[0.15231893],100,47,medium,plus,dotcolour,beta,,,70,18,V,R,
366,114,30,8,2,47,33,815,['c'],1,left,['8'],4,113,[0.1120085],100,47,medium,plus,dotcolour,beta,,,70,18,V,R,
367,115,31,8,2,27,53,632,['n'],1,right,['0'],6,100,[-0.08316541],100,53,easy,plus,dotcolour,beta,,,70,18,V,R,
368,116,32,8,2,53,27,833,['c'],1,left,['0'],6,96,[0.15840884],100,53,easy,plus,dotcolour,beta,,,70,18,V,R,
369,117,33,8,2,27,53,548,['n'],1,right,['0'],6,136,[-0.10830666],100,53,easy,plus,dotcolour,beta,,,70,18,V,R,
370,118,34,8,2,33,47,1182,['c'],0,right,['9'],5,268,[0.06384812],98,47,medium,plus,dotcolour,beta,,,70,18,V,R,
371,119,35,8,2,36,44,616,['n'],1,right,['0'],6,139,[-0.07333402],100,44,hard,plus,dotcolour,beta,,,70,18,V,R,
372,120,36,8,2,36,44,999,['n'],1,right,['0'],6,78,[-0.08323999],100,44,hard,plus,dotcolour,beta,,,70,18,V,R,
373,121,37,8,2,47,33,1114,['c'],1,left,['9'],5,104,[0.14579614],100,47,medium,plus,dotcolour,beta,,,70,18,V,R,
374,122,38,8,2,53,27,565,['c'],1,left,['0'],6,253,[0.06608263],99,53,easy,plus,dotcolour,beta,,,70,18,V,R,
375,123,39,8,2,44,36,1431,['n'],0,left,['9'],5,219,[0.00637254],87,44,hard,plus,dotcolour,beta,,,70,18,V,R,
376,124,40,8,2,44,36,614,['c'],1,left,['9'],5,339,[0.08760123],99,44,hard,plus,dotcolour,beta,,,70,18,V,R,
377,125,41,8,2,33,47,1149,['c'],0,right,['9'],5,153,[0.10865373],100,47,medium,plus,dotcolour,beta,,,70,18,V,R,
378,0,0,9,3,36,44,1066,['n'],1,right,['0'],6,177,[-0.08687355],79,44,hard,minus,dotcolour,beta,,,70,18,V,R,
379,1,1,9,3,27,53,715,['n'],1,right,['0'],6,111,[-0.06148022],58,53,easy,minus,dotcolour,beta,,,70,18,V,R,
380,2,2,9,3,47,33,832,['c'],1,left,['0'],6,98,[0.09224973],89,47,medium,minus,dotcolour,beta,,,70,18,V,R,
381,3,3,9,3,27,53,547,['n'],1,right,['0'],6,145,[-0.08679588],81,53,easy,minus,dotcolour,beta,,,70,18,V,R,
382,4,4,9,3,47,33,466,['c'],1,left,['0'],6,106,[0.1478481],99,47,medium,minus,dotcolour,beta,,,70,18,V,R,
383,5,5,9,3,44,36,650,['c'],1,left,['0'],6,165,[0.11868458],94,44,hard,minus,dotcolour,beta,,,70,18,V,R,
384,6,6,9,3,44,36,482,['n'],0,left,['0'],6,612,[0.02460287],14,44,hard,minus,dotcolour,beta,,,70,18,V,R,
385,7,7,9,3,36,44,497,['n'],1,right,['0'],6,98,[-0.14158867],99,44,hard,minus,dotcolour,beta,,,70,18,V,R,
386,8,8,9,3,47,33,799,['c'],1,left,['0'],6,87,[0.0589727],55,47,medium,minus,dotcolour,beta,,,70,18,V,R,
387,9,9,9,3,53,27,615,['c'],1,left,['0'],6,76,[0.04128928],28,53,easy,minus,dotcolour,beta,,,70,18,V,R,
388,10,10,9,3,36,44,548,['n'],1,right,['0'],6,100,[-0.15713312],100,44,hard,minus,dotcolour,beta,,,70,18,V,R,
389,11,11,9,3,44,36,464,['c'],1,left,['0'],6,86,[0.11048067],97,44,hard,minus,dotcolour,beta,,,70,18,V,R,
390,12,12,9,3,47,33,816,['c'],1,left,['0'],6,131,[0.06504523],62,47,medium,minus,dotcolour,beta,,,70,18,V,R,
391,13,13,9,3,53,27,866,['c'],1,left,['0'],6,213,[0.13595538],96,53,easy,minus,dotcolour,beta,,,70,18,V,R,
392,14,14,9,3,33,47,562,['n'],1,right,['0'],6,135,[-0.08050142],77,47,medium,minus,dotcolour,beta,,,70,18,V,R,
393,15,15,9,3,33,47,633,['n'],1,right,['0'],6,145,[-0.12778017],97,47,medium,minus,dotcolour,beta,,,70,18,V,R,
394,16,16,9,3,53,27,1148,['c'],1,left,['9'],5,655,[0.29366529],100,53,easy,minus,dotcolour,beta,,,70,18,V,R,
395,17,17,9,3,33,47,1515,['n'],1,right,['9'],5,649,[-0.1025515],74,47,medium,minus,dotcolour,beta,,,70,18,V,R,
396,18,18,9,3,44,36,1549,['c'],1,left,['8'],4,1466,[0.20580009],90,44,hard,minus,dotcolour,beta,,,70,18,V,R,
397,19,19,9,3,27,53,615,['n'],1,right,['0'],6,144,[-0.06432642],60,53,easy,minus,dotcolour,beta,,,70,18,V,R,
398,20,20,9,3,33,47,448,['n'],1,right,['0'],6,161,[-0.0360641],29,47,medium,minus,dotcolour,beta,,,70,18,V,R,
399,21,21,9,3,53,27,499,['c'],1,left,['0'],6,88,[0.15219354],100,53,easy,minus,dotcolour,beta,,,70,18,V,R,
400,22,22,9,3,53,27,464,['c'],1,left,['0'],6,90,[0.05461404],49,53,easy,minus,dotcolour,beta,,,70,18,V,R,
401,23,23,9,3,27,53,648,['n'],1,right,['0'],6,158,[-0.06960772],65,53,easy,minus,dotcolour,beta,,,70,18,V,R,
402,24,24,9,3,27,53,465,['n'],1,right,['0'],6,174,[-0.02079033],18,53,easy,minus,dotcolour,beta,,,70,18,V,R,
403,25,25,9,3,33,47,417,['n'],1,right,['0'],6,144,[-0.09899818],89,47,medium,minus,dotcolour,beta,,,70,18,V,R,
404,26,26,9,3,27,53,365,['n'],1,right,['0'],6,92,[-0.04912949],41,53,easy,minus,dotcolour,beta,,,70,18,V,R,
405,27,27,9,3,33,47,749,['n'],1,right,['0'],6,124,[-0.0917652],86,47,medium,minus,dotcolour,beta,,,70,18,V,R,
406,28,28,9,3,53,27,916,['c'],1,left,['0'],6,100,[0.07491192],75,53,easy,minus,dotcolour,beta,,,70,18,V,R,
407,29,29,9,3,53,27,881,['c'],1,left,['9'],5,1342,[0.2272883],94,53,easy,minus,dotcolour,beta,,,70,18,V,R,
408,30,30,9,3,44,36,548,['n'],0,left,['9'],5,235,[-0.05773095],52,44,hard,minus,dotcolour,beta,,,70,18,V,R,
409,31,31,9,3,47,33,1098,['c'],1,left,['0'],6,135,[0.07566364],73,47,medium,minus,dotcolour,beta,,,70,18,V,R,
410,32,32,9,3,36,44,615,['n'],1,right,['0'],6,131,[-0.02477859],18,44,hard,minus,dotcolour,beta,,,70,18,V,R,
411,33,33,9,3,47,33,981,['c'],1,left,['8'],4,1175,[0.24512425],96,47,medium,minus,dotcolour,beta,,,70,18,V,R,
412,34,34,9,3,47,33,1048,['c'],1,left,['0'],6,479,[0.13238805],88,47,medium,minus,dotcolour,beta,,,70,18,V,R,
413,35,35,9,3,36,44,1082,['n'],1,right,['9'],5,666,[-0.02993213],36,44,hard,minus,dotcolour,beta,,,70,18,V,R,
414,36,36,9,3,27,53,765,['n'],1,right,['9'],5,738,[-0.20200503],96,53,easy,minus,dotcolour,beta,,,70,18,V,R,
415,37,37,9,3,36,44,449,['n'],1,right,['0'],6,180,[-0.09948512],87,44,hard,minus,dotcolour,beta,,,70,18,V,R,
416,38,38,9,3,33,47,466,['n'],1,right,['0'],6,147,[-0.08599203],81,47,medium,minus,dotcolour,beta,,,70,18,V,R,
417,39,39,9,3,36,44,399,['n'],1,right,['0'],6,126,[-0.0771354],75,44,hard,minus,dotcolour,beta,,,70,18,V,R,
418,40,40,9,3,44,36,750,['c'],1,left,['0'],6,116,[0.04385891],35,44,hard,minus,dotcolour,beta,,,70,18,V,R,
419,41,41,9,3,44,36,849,['c'],1,left,['0'],6,119,[0.05851588],54,44,hard,minus,dotcolour,beta,,,70,18,V,R,
420,42,0,10,3,53,27,933,['c'],1,left,['0'],6,123,[0.04112412],32,53,easy,minus,dotcolour,beta,,,70,18,V,R,
421,43,1,10,3,47,33,765,['c'],1,left,['9'],5,273,[0.20462195],99,47,medium,minus,dotcolour,beta,,,70,18,V,R,
422,44,2,10,3,36,44,1382,['n'],1,right,['9'],5,255,[-0.15184864],97,44,hard,minus,dotcolour,beta,,,70,18,V,R,
423,45,3,10,3,33,47,597,['n'],1,right,['0'],6,151,[-0.02671712],21,47,medium,minus,dotcolour,beta,,,70,18,V,R,
424,46,4,10,3,27,53,481,['n'],1,right,['0'],6,111,[-0.06854838],67,53,easy,minus,dotcolour,beta,,,70,18,V,R,
425,47,5,10,3,33,47,399,['n'],1,right,['0'],6,115,[-0.02565129],17,47,medium,minus,dotcolour,beta,,,70,18,V,R,
426,48,6,10,3,36,44,466,['n'],1,right,['0'],6,53,[-0.08525278],91,44,hard,minus,dotcolour,beta,,,70,18,V,R,
427,49,7,10,3,44,36,665,['n'],0,left,['0'],6,114,[-0.08231325],81,44,hard,minus,dotcolour,beta,,,70,18,V,R,
428,50,8,10,3,27,53,431,['n'],1,right,['0'],6,126,[-0.06717248],64,53,easy,minus,dotcolour,beta,,,70,18,V,R,
429,51,9,10,3,44,36,599,['c'],1,left,['0'],6,138,[0.11213348],94,44,hard,minus,dotcolour,beta,,,70,18,V,R,
430,52,10,10,3,33,47,582,['n'],1,right,['0'],6,158,[-0.09208396],84,47,medium,minus,dotcolour,beta,,,70,18,V,R,
431,53,11,10,3,47,33,615,['c'],1,left,['0'],6,96,[0.08873773],87,47,medium,minus,dotcolour,beta,,,70,18,V,R,
432,54,12,10,3,47,33,932,['c'],1,left,['0'],6,120,[0.10725443],94,47,medium,minus,dotcolour,beta,,,70,18,V,R,
433,55,13,10,3,47,33,548,['c'],1,left,['0'],6,71,[0.11895492],99,47,medium,minus,dotcolour,beta,,,70,18,V,R,
434,56,14,10,3,36,44,500,['n'],1,right,['3'],3,1298,[0.11026901],7,44,hard,minus,dotcolour,beta,,,70,18,V,R,
435,57,15,10,3,33,47,531,['c'],0,right,['1'],1,834,[0.04107833],43,47,medium,minus,dotcolour,beta,,,70,18,V,R,
436,58,16,10,3,27,53,616,['n'],1,right,['0'],6,137,[-0.12158085],96,53,easy,minus,dotcolour,beta,,,70,18,V,R,
437,59,17,10,3,47,33,982,['n'],0,left,['0'],6,470,[-0.01405489],25,47,medium,minus,dotcolour,beta,,,70,18,V,R,
438,60,18,10,3,36,44,1032,['n'],1,right,['8'],4,707,[-0.13809184],85,44,hard,minus,dotcolour,beta,,,70,18,V,R,
439,61,19,10,3,44,36,781,['n'],0,left,['9'],5,248,[-0.08259439],73,44,hard,minus,dotcolour,beta,,,70,18,V,R,
440,62,20,10,3,36,44,998,['c'],0,right,['9'],5,159,[0.10531228],90,44,hard,minus,dotcolour,beta,,,70,18,V,R,
441,63,21,10,3,53,27,832,['c'],1,left,['0'],6,57,[0.09721271],96,53,easy,minus,dotcolour,beta,,,70,18,V,R,
442,64,22,10,3,53,27,483,['c'],1,left,['0'],6,20,[0.05991109],64,53,easy,minus,dotcolour,beta,,,70,18,V,R,
443,65,23,10,3,53,27,732,['c'],1,left,['0'],6,951,[0.11135963],74,53,easy,minus,dotcolour,beta,,,70,18,V,R,
444,66,24,10,3,33,47,566,['n'],1,right,['0'],6,163,[-0.09105254],83,47,medium,minus,dotcolour,beta,,,70,18,V,R,
445,67,25,10,3,44,36,683,['c'],1,left,['0'],6,122,[0.04496928],37,44,hard,minus,dotcolour,beta,,,70,18,V,R,
446,68,26,10,3,47,33,800,['c'],1,left,['0'],6,71,[0.09045588],91,47,medium,minus,dotcolour,beta,,,70,18,V,R,
447,69,27,10,3,44,36,498,['c'],1,left,['0'],6,73,[0.11265907],98,44,hard,minus,dotcolour,beta,,,70,18,V,R,
448,70,28,10,3,44,36,650,['c'],1,left,['0'],6,118,[0.095769],89,44,hard,minus,dotcolour,beta,,,70,18,V,R,
449,71,29,10,3,27,53,514,['n'],1,right,['0'],6,94,[-0.09961534],93,53,easy,minus,dotcolour,beta,,,70,18,V,R,
450,72,30,10,3,47,33,532,['c'],1,left,['0'],6,86,[0.0955413],92,47,medium,minus,dotcolour,beta,,,70,18,V,R,
451,73,31,10,3,53,27,697,['c'],1,left,['0'],6,95,[0.06242249],60,53,easy,minus,dotcolour,beta,,,70,18,V,R,
452,74,32,10,3,33,47,565,['n'],1,right,['0'],6,69,[-0.06916437],72,47,medium,minus,dotcolour,beta,,,70,18,V,R,
453,75,33,10,3,33,47,547,['n'],1,right,['0'],6,70,[-0.07904695],83,47,medium,minus,dotcolour,beta,,,70,18,V,R,
454,76,34,10,3,36,44,516,['n'],1,right,['0'],6,40,[-0.0600674],60,44,hard,minus,dotcolour,beta,,,70,18,V,R,
455,77,35,10,3,53,27,466,['c'],1,left,['0'],6,45,[0.08482582],92,53,easy,minus,dotcolour,beta,,,70,18,V,R,
456,78,36,10,3,44,36,583,['c'],1,left,['0'],6,93,[0.09254861],90,44,hard,minus,dotcolour,beta,,,70,18,V,R,
457,79,37,10,3,27,53,482,['n'],1,right,['0'],6,151,[-0.10940315],92,53,easy,minus,dotcolour,beta,,,70,18,V,R,
458,80,38,10,3,53,27,516,['c'],1,left,['0'],6,38,[0.07887376],90,53,easy,minus,dotcolour,beta,,,70,18,V,R,
459,81,39,10,3,27,53,449,['n'],1,right,['0'],6,267,[-0.05379601],48,53,easy,minus,dotcolour,beta,,,70,18,V,R,
460,82,40,10,3,27,53,448,['c'],0,right,['9'],5,816,[0.05901316],52,53,easy,minus,dotcolour,beta,,,70,18,V,R,
461,83,41,10,3,36,44,816,['n'],1,right,['0'],6,200,[-0.06978913],64,44,hard,minus,dotcolour,beta,,,70,18,V,R,
462,84,0,11,3,44,36,1099,['n'],0,left,['0'],6,100,[-0.05202675],45,44,hard,minus,dotcolour,beta,,,70,18,V,R,
463,85,1,11,3,53,27,698,['c'],1,left,['0'],6,94,[0.02997963],18,53,easy,minus,dotcolour,beta,,,70,18,V,R,
464,86,2,11,3,36,44,498,['n'],1,right,['0'],6,87,[-0.03734169],25,44,hard,minus,dotcolour,beta,,,70,18,V,R,
465,87,3,11,3,47,33,815,['c'],1,left,['0'],6,108,[0.09641945],90,47,medium,minus,dotcolour,beta,,,70,18,V,R,
466,88,4,11,3,47,33,732,['c'],1,left,['0'],6,68,[0.05764219],54,47,medium,minus,dotcolour,beta,,,70,18,V,R,
467,89,5,11,3,44,36,515,['n'],0,left,['0'],6,118,[-0.02139651],14,44,hard,minus,dotcolour,beta,,,70,18,V,R,
468,90,6,11,3,53,27,498,['c'],1,left,['0'],6,54,[0.07485269],82,53,easy,minus,dotcolour,beta,,,70,18,V,R,
469,91,7,11,3,27,53,581,['n'],1,right,['0'],6,134,[-0.00578806],8,53,easy,minus,dotcolour,beta,,,70,18,V,R,
470,92,8,11,3,36,44,799,['n'],1,right,['9'],5,1283,[-0.16753397],86,44,hard,minus,dotcolour,beta,,,70,18,V,R,
471,93,9,11,3,44,36,933,['c'],1,left,['9'],5,138,[0.07199493],69,44,hard,minus,dotcolour,beta,,,70,18,V,R,
472,94,10,11,3,36,44,450,['n'],1,right,['0'],6,165,[-0.11655378],94,44,hard,minus,dotcolour,beta,,,70,18,V,R,
473,95,11,11,3,36,44,1116,['n'],1,right,['0'],6,162,[-0.06098213],56,44,hard,minus,dotcolour,beta,,,70,18,V,R,
474,96,12,11,3,44,36,665,['c'],1,left,['0'],6,218,[0.0496436],44,44,hard,minus,dotcolour,beta,,,70,18,V,R,
475,97,13,11,3,47,33,699,['c'],1,left,['0'],6,87,[0.11151824],97,47,medium,minus,dotcolour,beta,,,70,18,V,R,
476,98,14,11,3,36,44,1416,['c'],0,right,['9'],5,93,[0.07576403],77,44,hard,minus,dotcolour,beta,,,70,18,V,R,
477,99,15,11,3,47,33,414,['n'],0,left,['0'],6,97,[-0.02035528],12,47,medium,minus,dotcolour,beta,,,70,18,V,R,
478,100,16,11,3,27,53,614,['n'],1,right,['0'],6,150,[-0.1106043],93,53,easy,minus,dotcolour,beta,,,70,18,V,R,
479,101,17,11,3,27,53,465,['n'],1,right,['0'],6,71,[-0.1083378],97,53,easy,minus,dotcolour,beta,,,70,18,V,R,
480,102,18,11,3,27,53,448,['n'],1,right,['0'],6,59,[-0.04682379],34,53,easy,minus,dotcolour,beta,,,70,18,V,R,
481,103,19,11,3,33,47,414,['n'],1,right,['0'],6,66,[-0.07462533],79,47,medium,minus,dotcolour,beta,,,70,18,V,R,
482,104,20,11,3,47,33,897,['c'],1,left,['9'],5,76,[0.09351571],92,47,medium,minus,dotcolour,beta,,,70,18,V,R,
483,105,21,11,3,27,53,616,['n'],1,right,['0'],6,106,[-0.0580084],53,53,easy,minus,dotcolour,beta,,,70,18,V,R,
484,106,22,11,3,27,53,433,['n'],1,right,['0'],6,62,[-0.0431644],29,53,easy,minus,dotcolour,beta,,,70,18,V,R,
485,107,23,11,3,33,47,484,['n'],1,right,['0'],6,121,[-0.0571882],52,47,medium,minus,dotcolour,beta,,,70,18,V,R,
486,108,24,11,3,47,33,998,['c'],1,left,['9'],5,93,[0.04778056],39,47,medium,minus,dotcolour,beta,,,70,18,V,R,
487,109,25,11,3,44,36,749,['c'],1,left,['9'],5,21,[0.06390215],74,44,hard,minus,dotcolour,beta,,,70,18,V,R,
488,110,26,11,3,53,27,2065,['c'],1,left,['3'],3,346,[0.16882342],97,53,easy,minus,dotcolour,beta,,,70,18,V,R,
489,111,27,11,3,44,36,1131,['c'],1,left,['9'],5,528,[0.08034487],65,44,hard,minus,dotcolour,beta,,,70,18,V,R,
490,112,28,11,3,53,27,598,['c'],1,left,['9'],5,61,[0.10599517],98,53,easy,minus,dotcolour,beta,,,70,18,V,R,
491,113,29,11,3,33,47,565,['n'],1,right,['0'],6,140,[-0.05517342],50,47,medium,minus,dotcolour,beta,,,70,18,V,R,
492,114,30,11,3,33,47,649,['n'],1,right,['0'],6,438,[-0.00700498],21,47,medium,minus,dotcolour,beta,,,70,18,V,R,
493,115,31,11,3,36,44,465,['n'],1,right,['0'],6,99,[-0.09259468],89,44,hard,minus,dotcolour,beta,,,70,18,V,R,
494,116,32,11,3,53,27,1014,['c'],1,left,['0'],6,40,[0.04744159],33,53,easy,minus,dotcolour,beta,,,70,18,V,R,
495,117,33,11,3,47,33,598,['n'],0,left,['0'],6,63,[-0.09980907],96,47,medium,minus,dotcolour,beta,,,70,18,V,R,
496,118,34,11,3,33,47,516,['n'],1,right,['0'],6,25,[-0.08497343],97,47,medium,minus,dotcolour,beta,,,70,18,V,R,
497,119,35,11,3,53,27,632,['c'],1,left,['0'],6,32,[0.06611775],74,53,easy,minus,dotcolour,beta,,,70,18,V,R,
498,120,36,11,3,36,44,1367,['c'],0,right,['8'],4,233,[-0.05786122],1,44,hard,minus,dotcolour,beta,,,70,18,V,R,
499,121,37,11,3,44,36,1283,['c'],1,left,['9'],5,110,[0.10864155],95,44,hard,minus,dotcolour,beta,,,70,18,V,R,
500,122,38,11,3,33,47,496,['n'],1,right,['0'],6,95,[-0.04476119],35,47,medium,minus,dotcolour,beta,,,70,18,V,R,
501,123,39,11,3,27,53,499,['n'],1,right,['0'],6,120,[-0.09990325],91,53,easy,minus,dotcolour,beta,,,70,18,V,R,
502,124,40,11,3,53,27,599,['c'],1,left,['0'],6,100,[0.1491431],100,53,easy,minus,dotcolour,beta,,,70,18,V,R,
503,125,41,11,3,33,47,965,['n'],1,right,['0'],6,147,[-0.07939912],75,47,medium,minus,dotcolour,beta,,,70,18,V,R,
504,0,0,12,4,27,53,799,['n'],1,right,['0'],6,140,[-0.07507644],100,53,easy,plus,dotcolour,beta,,,70,18,V,R,
505,1,1,12,4,27,53,1499,['n'],1,right,['0'],6,123,[-0.08678251],100,53,easy,plus,dotcolour,beta,,,70,18,V,R,
506,2,2,12,4,44,36,914,['c'],1,left,['9'],5,42,[0.0980628],100,44,hard,plus,dotcolour,beta,,,70,18,V,R,
507,3,3,12,4,44,36,1149,['n'],0,left,['0'],6,124,[-0.0794712],100,44,hard,plus,dotcolour,beta,,,70,18,V,R,
508,4,4,12,4,27,53,614,['n'],1,right,['0'],6,119,[-0.07099576],100,53,easy,plus,dotcolour,beta,,,70,18,V,R,
509,5,5,12,4,47,33,798,['c'],1,left,['0'],6,68,[0.07573568],100,47,medium,plus,dotcolour,beta,,,70,18,V,R,
510,6,6,12,4,47,33,1700,['c'],1,left,['9'],5,263,[0.0752985],99,47,medium,plus,dotcolour,beta,,,70,18,V,R,
511,7,7,12,4,36,44,897,['c'],0,right,['9'],5,114,[0.08622775],100,44,hard,plus,dotcolour,beta,,,70,18,V,R,
512,8,8,12,4,33,47,1015,['c'],0,right,['9'],5,125,[0.07961758],100,47,medium,plus,dotcolour,beta,,,70,18,V,R,
513,9,9,12,4,36,44,799,['n'],1,right,['9'],5,138,[-0.09853015],100,44,hard,plus,dotcolour,beta,,,70,18,V,R,
514,10,10,12,4,33,47,665,['n'],1,right,['9'],5,43,[-0.11673968],100,47,medium,plus,dotcolour,beta,,,70,18,V,R,
515,11,11,12,4,27,53,682,['n'],1,right,['0'],6,175,[-0.09701348],100,53,easy,plus,dotcolour,beta,,,70,18,V,R,
516,12,12,12,4,47,33,1250,['c'],1,left,['9'],5,911,[0.30945718],100,47,medium,plus,dotcolour,beta,,,70,18,V,R,
517,13,13,12,4,44,36,948,['c'],1,left,['0'],6,69,[0.10504655],100,44,hard,plus,dotcolour,beta,,,70,18,V,R,
518,14,14,12,4,36,44,565,['n'],1,right,['0'],6,102,[-0.09005464],100,44,hard,plus,dotcolour,beta,,,70,18,V,R,
519,15,15,12,4,53,27,815,['c'],1,left,['0'],6,106,[0.06074649],100,53,easy,plus,dotcolour,beta,,,70,18,V,R,
520,16,16,12,4,44,36,680,['c'],1,left,['0'],6,139,[0.07525752],100,44,hard,plus,dotcolour,beta,,,70,18,V,R,
521,17,17,12,4,33,47,517,['n'],1,right,['0'],6,122,[-0.08789487],100,47,medium,plus,dotcolour,beta,,,70,18,V,R,
522,18,18,12,4,27,53,683,['n'],1,right,['0'],6,36,[-0.10017564],100,53,easy,plus,dotcolour,beta,,,70,18,V,R,
523,19,19,12,4,44,36,798,['c'],1,left,['0'],6,52,[0.06162168],100,44,hard,plus,dotcolour,beta,,,70,18,V,R,
524,20,20,12,4,53,27,615,['c'],1,left,['0'],6,58,[0.11395415],100,53,easy,plus,dotcolour,beta,,,70,18,V,R,
525,21,21,12,4,36,44,630,['n'],1,right,['0'],6,8,[-0.0679395],100,44,hard,plus,dotcolour,beta,,,70,18,V,R,
526,22,22,12,4,33,47,631,['n'],1,right,['0'],6,55,[-0.04056519],100,47,medium,plus,dotcolour,beta,,,70,18,V,R,
527,23,23,12,4,53,27,448,['c'],1,left,['0'],6,69,[0.09034599],100,53,easy,plus,dotcolour,beta,,,70,18,V,R,
528,24,24,12,4,36,44,513,['c'],0,right,['0'],6,63,[0.03548233],100,44,hard,plus,dotcolour,beta,,,70,18,V,R,
529,25,25,12,4,44,36,500,['c'],1,left,['0'],6,65,[0.05068691],100,44,hard,plus,dotcolour,beta,,,70,18,V,R,
530,26,26,12,4,47,33,565,['c'],1,left,['0'],6,50,[0.06608949],100,47,medium,plus,dotcolour,beta,,,70,18,V,R,
531,27,27,12,4,33,47,480,['c'],0,right,['0'],6,85,[0.089763],100,47,medium,plus,dotcolour,beta,,,70,18,V,R,
532,28,28,12,4,53,27,516,['c'],1,left,['0'],6,79,[0.10349767],100,53,easy,plus,dotcolour,beta,,,70,18,V,R,
533,29,29,12,4,27,53,480,['n'],1,right,['0'],6,57,[-0.04441874],100,53,easy,plus,dotcolour,beta,,,70,18,V,R,
534,30,30,12,4,53,27,499,['c'],1,left,['0'],6,68,[0.11561312],100,53,easy,plus,dotcolour,beta,,,70,18,V,R,
535,31,31,12,4,47,33,464,['c'],1,left,['0'],6,40,[0.09117832],100,47,medium,plus,dotcolour,beta,,,70,18,V,R,
536,32,32,12,4,33,47,1066,['n'],1,right,['8'],4,429,[-0.06481266],96,47,medium,plus,dotcolour,beta,,,70,18,V,R,
537,33,33,12,4,36,44,599,['c'],0,right,['1'],1,1029,[0.18147009],99,44,hard,plus,dotcolour,beta,,,70,18,V,R,
538,34,34,12,4,27,53,815,['n'],1,right,['0'],6,109,[-0.13232026],100,53,easy,plus,dotcolour,beta,,,70,18,V,R,
539,35,35,12,4,44,36,598,['c'],1,left,['0'],6,442,[-0.00503871],80,44,hard,plus,dotcolour,beta,,,70,18,V,R,
540,36,36,12,4,53,27,832,['c'],1,left,['0'],6,143,[0.10964465],100,53,easy,plus,dotcolour,beta,,,70,18,V,R,
541,37,37,12,4,47,33,665,['c'],1,left,['0'],6,152,[0.11663971],100,47,medium,plus,dotcolour,beta,,,70,18,V,R,
542,38,38,12,4,36,44,1699,['n'],1,right,['0'],6,239,[-0.02788519],96,44,hard,plus,dotcolour,beta,,,70,18,V,R,
543,39,39,12,4,47,33,566,['c'],1,left,['0'],6,152,[0.10968543],100,47,medium,plus,dotcolour,beta,,,70,18,V,R,
544,40,40,12,4,53,27,549,['c'],1,left,['0'],6,182,[0.0796462],100,53,easy,plus,dotcolour,beta,,,70,18,V,R,
545,41,41,12,4,33,47,565,['n'],1,right,['0'],6,161,[-0.12924391],100,47,medium,plus,dotcolour,beta,,,70,18,V,R,
546,42,0,13,4,53,27,516,['c'],1,left,['0'],6,85,[0.06835671],100,53,easy,plus,dotcolour,beta,,,70,18,V,R,
547,43,1,13,4,27,53,547,['n'],1,right,['0'],6,109,[-0.04796818],100,53,easy,plus,dotcolour,beta,,,70,18,V,R,
548,44,2,13,4,53,27,400,['c'],1,left,['0'],6,74,[0.07100219],100,53,easy,plus,dotcolour,beta,,,70,18,V,R,
549,45,3,13,4,44,36,415,['c'],1,left,['0'],6,88,[0.09648262],100,44,hard,plus,dotcolour,beta,,,70,18,V,R,
550,46,4,13,4,47,33,882,['c'],1,left,['0'],6,90,[0.07680928],100,47,medium,plus,dotcolour,beta,,,70,18,V,R,
551,47,5,13,4,33,47,448,['n'],1,right,['0'],6,102,[-0.11770532],100,47,medium,plus,dotcolour,beta,,,70,18,V,R,
552,48,6,13,4,44,36,514,['c'],1,left,['0'],6,87,[0.11374146],100,44,hard,plus,dotcolour,beta,,,70,18,V,R,
553,49,7,13,4,53,27,532,['c'],1,left,['0'],6,39,[0.08693931],100,53,easy,plus,dotcolour,beta,,,70,18,V,R,
554,50,8,13,4,27,53,665,['n'],1,right,['0'],6,108,[-0.06781151],100,53,easy,plus,dotcolour,beta,,,70,18,V,R,
555,51,9,13,4,33,47,864,['n'],1,right,['0'],6,55,[-0.07083713],100,47,medium,plus,dotcolour,beta,,,70,18,V,R,
556,52,10,13,4,47,33,499,['c'],1,left,['0'],6,74,[0.09919007],100,47,medium,plus,dotcolour,beta,,,70,18,V,R,
557,53,11,13,4,47,33,981,['c'],1,left,['9'],5,24,[0.07391598],100,47,medium,plus,dotcolour,beta,,,70,18,V,R,
558,54,12,13,4,47,33,831,['c'],1,left,['0'],6,55,[0.08186819],100,47,medium,plus,dotcolour,beta,,,70,18,V,R,
559,55,13,13,4,33,47,782,['n'],1,right,['0'],6,31,[-0.09402853],100,47,medium,plus,dotcolour,beta,,,70,18,V,R,
560,56,14,13,4,27,53,414,['c'],0,right,['0'],6,142,[0.03517688],99,53,easy,plus,dotcolour,beta,,,70,18,V,R,
561,57,15,13,4,33,47,681,['n'],1,right,['0'],6,142,[-0.06984101],100,47,medium,plus,dotcolour,beta,,,70,18,V,R,
562,58,16,13,4,53,27,981,['c'],1,left,['9'],5,155,[0.07273439],100,53,easy,plus,dotcolour,beta,,,70,18,V,R,
563,59,17,13,4,47,33,933,['c'],1,left,['9'],5,96,[0.11911398],100,47,medium,plus,dotcolour,beta,,,70,18,V,R,
564,60,18,13,4,44,36,999,['c'],1,left,['0'],6,86,[0.1187774],100,44,hard,plus,dotcolour,beta,,,70,18,V,R,
565,61,19,13,4,27,53,515,['n'],1,right,['0'],6,103,[-0.07624827],100,53,easy,plus,dotcolour,beta,,,70,18,V,R,
566,62,20,13,4,47,33,447,['c'],1,left,['0'],6,98,[0.09186918],100,47,medium,plus,dotcolour,beta,,,70,18,V,R,
567,63,21,13,4,44,36,483,['c'],1,left,['0'],6,37,[0.07331222],100,44,hard,plus,dotcolour,beta,,,70,18,V,R,
568,64,22,13,4,36,44,549,['n'],1,right,['0'],6,86,[-0.0832614],100,44,hard,plus,dotcolour,beta,,,70,18,V,R,
569,65,23,13,4,44,36,398,['c'],1,left,['0'],6,68,[0.10198153],100,44,hard,plus,dotcolour,beta,,,70,18,V,R,
570,66,24,13,4,53,27,366,['c'],1,left,['0'],6,52,[0.07223674],100,53,easy,plus,dotcolour,beta,,,70,18,V,R,
571,67,25,13,4,27,53,482,['n'],1,right,['0'],6,120,[-0.12286387],100,53,easy,plus,dotcolour,beta,,,70,18,V,R,
572,68,26,13,4,53,27,466,['c'],1,left,['0'],6,98,[0.08709486],100,53,easy,plus,dotcolour,beta,,,70,18,V,R,
573,69,27,13,4,47,33,483,['c'],1,left,['0'],6,76,[0.08111219],100,47,medium,plus,dotcolour,beta,,,70,18,V,R,
574,70,28,13,4,36,44,532,['n'],1,right,['0'],6,69,[-0.09975119],100,44,hard,plus,dotcolour,beta,,,70,18,V,R,
575,71,29,13,4,33,47,433,['n'],1,right,['0'],6,58,[-0.070332],100,47,medium,plus,dotcolour,beta,,,70,18,V,R,
576,72,30,13,4,33,47,2348,['n'],1,right,['8'],4,300,[-0.08757286],99,47,medium,plus,dotcolour,beta,,,70,18,V,R,
577,73,31,13,4,33,47,1534,['n'],1,right,['0'],6,252,[-0.01504308],93,47,medium,plus,dotcolour,beta,,,70,18,V,R,
578,74,32,13,4,53,27,649,['c'],1,left,['0'],6,89,[0.0690532],100,53,easy,plus,dotcolour,beta,,,70,18,V,R,
579,75,33,13,4,27,53,781,['n'],1,right,['0'],6,79,[-0.04892807],100,53,easy,plus,dotcolour,beta,,,70,18,V,R,
580,76,34,13,4,27,53,682,['n'],1,right,['0'],6,98,[-0.0631799],100,53,easy,plus,dotcolour,beta,,,70,18,V,R,
581,77,35,13,4,36,44,1149,['n'],1,right,['9'],5,153,[-0.12977636],100,44,hard,plus,dotcolour,beta,,,70,18,V,R,
582,78,36,13,4,36,44,633,['n'],1,right,['9'],5,107,[-0.10052038],100,44,hard,plus,dotcolour,beta,,,70,18,V,R,
583,79,37,13,4,36,44,1249,['c'],0,right,['9'],5,150,[0.05607134],99,44,hard,plus,dotcolour,beta,,,70,18,V,R,
584,80,38,13,4,36,44,517,['n'],1,right,['9'],5,229,[-0.10694443],100,44,hard,plus,dotcolour,beta,,,70,18,V,R,
585,81,39,13,4,44,36,866,['c'],1,left,['0'],6,74,[0.07432873],100,44,hard,plus,dotcolour,beta,,,70,18,V,R,
586,82,40,13,4,36,44,581,['n'],1,right,['0'],6,82,[-0.06866927],100,44,hard,plus,dotcolour,beta,,,70,18,V,R,
587,83,41,13,4,44,36,2465,['c'],1,left,['3'],3,317,[0.13324353],100,44,hard,plus,dotcolour,beta,,,70,18,V,R,
588,84,0,14,4,27,53,883,['n'],1,right,['0'],6,88,[-0.077802],100,53,easy,plus,dotcolour,beta,,,70,18,V,R,
589,85,1,14,4,47,33,433,['c'],1,left,['0'],6,68,[0.06668234],100,47,medium,plus,dotcolour,beta,,,70,18,V,R,
590,86,2,14,4,53,27,666,['c'],1,left,['0'],6,64,[0.06325156],100,53,easy,plus,dotcolour,beta,,,70,18,V,R,
591,87,3,14,4,44,36,665,['c'],1,left,['0'],6,108,[0.06575337],100,44,hard,plus,dotcolour,beta,,,70,18,V,R,
592,88,4,14,4,53,27,432,['c'],1,left,['0'],6,55,[0.10777185],100,53,easy,plus,dotcolour,beta,,,70,18,V,R,
593,89,5,14,4,36,44,483,['n'],1,right,['0'],6,83,[-0.0619517],100,44,hard,plus,dotcolour,beta,,,70,18,V,R,
594,90,6,14,4,53,27,482,['c'],1,left,['0'],6,54,[0.08346648],100,53,easy,plus,dotcolour,beta,,,70,18,V,R,
595,91,7,14,4,47,33,665,['c'],1,left,['0'],6,66,[0.10037433],100,47,medium,plus,dotcolour,beta,,,70,18,V,R,
596,92,8,14,4,36,44,632,['c'],0,right,['0'],6,39,[0.03339532],100,44,hard,plus,dotcolour,beta,,,70,18,V,R,
597,93,9,14,4,36,44,1215,['c'],0,right,['9'],5,239,[0.04118351],97,44,hard,plus,dotcolour,beta,,,70,18,V,R,
598,94,10,14,4,47,33,580,['c'],1,left,['0'],6,167,[0.02511637],97,47,medium,plus,dotcolour,beta,,,70,18,V,R,
599,95,11,14,4,53,27,998,['c'],1,left,['0'],6,170,[0.11711963],100,53,easy,plus,dotcolour,beta,,,70,18,V,R,
600,96,12,14,4,33,47,665,['n'],1,right,['0'],6,202,[-0.10551042],100,47,medium,plus,dotcolour,beta,,,70,18,V,R,
601,97,13,14,4,33,47,3350,['n'],1,right,['8'],4,269,[-0.13299448],100,47,medium,plus,dotcolour,beta,,,70,18,V,R,
602,98,14,14,4,33,47,783,['n'],1,right,['0'],6,172,[-0.07697284],100,47,medium,plus,dotcolour,beta,,,70,18,V,R,
603,99,15,14,4,27,53,433,['n'],1,right,['0'],6,110,[-0.07709516],100,53,easy,plus,dotcolour,beta,,,70,18,V,R,
604,100,16,14,4,27,53,517,['n'],1,right,['0'],6,157,[-0.11314569],100,53,easy,plus,dotcolour,beta,,,70,18,V,R,
605,101,17,14,4,47,33,581,['c'],1,left,['0'],6,169,[0.09761705],100,47,medium,plus,dotcolour,beta,,,70,18,V,R,
606,102,18,14,4,36,44,648,['c'],0,right,['3'],3,1241,[-0.1080633],30,44,hard,plus,dotcolour,beta,,,70,18,V,R,
607,103,19,14,4,27,53,665,['n'],1,right,['0'],6,142,[-0.08168176],100,53,easy,plus,dotcolour,beta,,,70,18,V,R,
608,104,20,14,4,33,47,415,['n'],1,right,['0'],6,144,[-0.12953153],100,47,medium,plus,dotcolour,beta,,,70,18,V,R,
609,105,21,14,4,47,33,765,['c'],1,left,['0'],6,77,[0.08103861],100,47,medium,plus,dotcolour,beta,,,70,18,V,R,
610,106,22,14,4,44,36,1948,['c'],1,left,['8'],4,589,[0.03347719],89,44,hard,plus,dotcolour,beta,,,70,18,V,R,
611,107,23,14,4,44,36,1166,['n'],0,left,['9'],5,391,[-0.04059501],94,44,hard,plus,dotcolour,beta,,,70,18,V,R,
612,108,24,14,4,33,47,865,['c'],0,right,['0'],6,159,[0.10858601],100,47,medium,plus,dotcolour,beta,,,70,18,V,R,
613,109,25,14,4,44,36,798,['c'],1,left,['0'],6,81,[0.08137806],100,44,hard,plus,dotcolour,beta,,,70,18,V,R,
614,110,26,14,4,27,53,699,['n'],1,right,['0'],6,75,[-0.10201291],100,53,easy,plus,dotcolour,beta,,,70,18,V,R,
615,111,27,14,4,47,33,465,['c'],1,left,['0'],6,71,[0.12273382],100,47,medium,plus,dotcolour,beta,,,70,18,V,R,
616,112,28,14,4,27,53,566,['n'],1,right,['0'],6,158,[-0.14166265],100,53,easy,plus,dotcolour,beta,,,70,18,V,R,
617,113,29,14,4,47,33,664,['c'],1,left,['0'],6,94,[0.0991436],100,47,medium,plus,dotcolour,beta,,,70,18,V,R,
618,114,30,14,4,53,27,447,['c'],1,left,['0'],6,26,[0.09211409],100,53,easy,plus,dotcolour,beta,,,70,18,V,R,
619,115,31,14,4,36,44,948,['c'],0,right,['9'],5,84,[0.11115802],100,44,hard,plus,dotcolour,beta,,,70,18,V,R,
620,116,32,14,4,53,27,416,['c'],1,left,['9'],5,81,[0.0706166],100,53,easy,plus,dotcolour,beta,,,70,18,V,R,
621,117,33,14,4,44,36,532,['c'],1,left,['3'],3,1218,[0.17376107],98,44,hard,plus,dotcolour,beta,,,70,18,V,R,
622,118,34,14,4,36,44,731,['n'],1,right,['0'],6,180,[-0.17199346],100,44,hard,plus,dotcolour,beta,,,70,18,V,R,
623,119,35,14,4,44,36,798,['c'],1,left,['0'],6,54,[0.06413743],100,44,hard,plus,dotcolour,beta,,,70,18,V,R,
624,120,36,14,4,27,53,481,['n'],1,right,['0'],6,59,[-0.0663903],100,53,easy,plus,dotcolour,beta,,,70,18,V,R,
625,121,37,14,4,53,27,464,['c'],1,left,['0'],6,63,[0.08941306],100,53,easy,plus,dotcolour,beta,,,70,18,V,R,
626,122,38,14,4,33,47,548,['n'],1,right,['3'],3,1335,[-0.25365311],99,47,medium,plus,dotcolour,beta,,,70,18,V,R,
627,123,39,14,4,44,36,1033,['c'],1,left,['9'],5,441,[0.09446052],98,44,hard,plus,dotcolour,beta,,,70,18,V,R,
628,124,40,14,4,36,44,733,['n'],1,right,['9'],5,115,[-0.04898828],100,44,hard,plus,dotcolour,beta,,,70,18,V,R,
629,125,41,14,4,33,47,898,['n'],1,right,['0'],6,612,[-0.20864565],100,47,medium,plus,dotcolour,beta,,,70,18,V,R,
630,0,0,15,5,27,53,683,['n'],1,right,['0'],6,106,[-0.07855716],78,53,easy,minus,dotcolour,beta,,,70,18,V,R,
631,1,1,15,5,53,27,465,['c'],1,left,['0'],6,101,[0.08916396],87,53,easy,minus,dotcolour,beta,,,70,18,V,R,
632,2,2,15,5,44,36,913,['c'],1,left,['9'],5,214,[0.04660315],41,44,hard,minus,dotcolour,beta,,,70,18,V,R,
633,3,3,15,5,33,47,781,['n'],1,right,['0'],6,127,[-0.10571178],93,47,medium,minus,dotcolour,beta,,,70,18,V,R,
634,4,4,15,5,36,44,899,['n'],1,right,['0'],6,119,[-0.07515351],74,44,hard,minus,dotcolour,beta,,,70,18,V,R,
635,5,5,15,5,44,36,531,['c'],1,left,['0'],6,135,[0.1152414],95,44,hard,minus,dotcolour,beta,,,70,18,V,R,
636,6,6,15,5,36,44,732,['c'],0,right,['9'],5,196,[0.10692354],89,44,hard,minus,dotcolour,beta,,,70,18,V,R,
637,7,7,15,5,27,53,867,['n'],1,right,['0'],6,115,[-0.03197426],22,53,easy,minus,dotcolour,beta,,,70,18,V,R,
638,8,8,15,5,33,47,665,['n'],1,right,['0'],6,85,[-0.05922145],56,47,medium,minus,dotcolour,beta,,,70,18,V,R,
639,9,9,15,5,44,36,765,['c'],1,left,['0'],6,84,[0.06297523],61,44,hard,minus,dotcolour,beta,,,70,18,V,R,
640,10,10,15,5,53,27,464,['c'],1,left,['0'],6,63,[0.10661016],97,53,easy,minus,dotcolour,beta,,,70,18,V,R,
641,11,11,15,5,47,33,648,['c'],1,left,['9'],5,164,[0.13884632],98,47,medium,minus,dotcolour,beta,,,70,18,V,R,
642,12,12,15,5,33,47,498,['n'],1,right,['0'],6,123,[-0.10513917],93,47,medium,minus,dotcolour,beta,,,70,18,V,R,
643,13,13,15,5,27,53,449,['c'],0,right,['0'],6,118,[0.04092887],32,53,easy,minus,dotcolour,beta,,,70,18,V,R,
644,14,14,15,5,44,36,799,['c'],1,left,['0'],6,75,[0.08923121],90,44,hard,minus,dotcolour,beta,,,70,18,V,R,
645,15,15,15,5,27,53,497,['n'],1,right,['0'],6,149,[-0.09867007],88,53,easy,minus,dotcolour,beta,,,70,18,V,R,
646,16,16,15,5,47,33,1265,['c'],1,left,['9'],5,86,[0.12022533],98,47,medium,minus,dotcolour,beta,,,70,18,V,R,
647,17,17,15,5,53,27,515,['c'],1,left,['9'],5,159,[0.04689101],40,53,easy,minus,dotcolour,beta,,,70,18,V,R,
648,18,18,15,5,36,44,865,['c'],0,right,['0'],6,119,[0.08431563],82,44,hard,minus,dotcolour,beta,,,70,18,V,R,
649,19,19,15,5,27,53,1366,['c'],0,right,['8'],4,205,[0.0278747],25,53,easy,minus,dotcolour,beta,,,70,18,V,R,
650,20,20,15,5,36,44,931,['n'],1,right,['0'],6,105,[-0.06674984],65,44,hard,minus,dotcolour,beta,,,70,18,V,R,
651,21,21,15,5,27,53,532,['n'],1,right,['0'],6,184,[-0.12181566],94,53,easy,minus,dotcolour,beta,,,70,18,V,R,
652,22,22,15,5,27,53,465,['n'],1,right,['0'],6,88,[-0.01679094],9,53,easy,minus,dotcolour,beta,,,70,18,V,R,
653,23,23,15,5,33,47,467,['n'],1,right,['0'],6,107,[-0.11611348],97,47,medium,minus,dotcolour,beta,,,70,18,V,R,
654,24,24,15,5,47,33,467,['c'],1,left,['0'],6,110,[0.06450303],62,47,medium,minus,dotcolour,beta,,,70,18,V,R,
655,25,25,15,5,47,33,814,['c'],1,left,['0'],6,106,[0.08985747],87,47,medium,minus,dotcolour,beta,,,70,18,V,R,
656,26,26,15,5,33,47,533,['n'],1,right,['0'],6,178,[-0.05633751],51,47,medium,minus,dotcolour,beta,,,70,18,V,R,
657,27,27,15,5,36,44,498,['n'],1,right,['0'],6,176,[-0.04025043],34,44,hard,minus,dotcolour,beta,,,70,18,V,R,
658,28,28,15,5,53,27,632,['c'],1,left,['0'],6,129,[0.03625543],28,53,easy,minus,dotcolour,beta,,,70,18,V,R,
659,29,29,15,5,36,44,481,['n'],1,right,['3'],3,905,[-0.00069709],26,44,hard,minus,dotcolour,beta,,,70,18,V,R,
660,30,30,15,5,53,27,565,['c'],1,left,['0'],6,79,[0.0958752],93,53,easy,minus,dotcolour,beta,,,70,18,V,R,
661,31,31,15,5,44,36,699,['c'],1,left,['0'],6,65,[0.05930303],57,44,hard,minus,dotcolour,beta,,,70,18,V,R,
662,32,32,15,5,44,36,965,['n'],0,left,['0'],6,97,[-0.01927058],11,44,hard,minus,dotcolour,beta,,,70,18,V,R,
663,33,33,15,5,53,27,400,['c'],1,left,['0'],6,87,[0.09751463],93,53,easy,minus,dotcolour,beta,,,70,18,V,R,
664,34,34,15,5,33,47,499,['n'],1,right,['0'],6,161,[-0.05573449],50,47,medium,minus,dotcolour,beta,,,70,18,V,R,
665,35,35,15,5,47,33,1732,['c'],1,left,['8'],4,182,[0.07433976],69,47,medium,minus,dotcolour,beta,,,70,18,V,R,
666,36,36,15,5,47,33,530,['c'],1,left,['8'],4,123,[0.11760521],96,47,medium,minus,dotcolour,beta,,,70,18,V,R,
667,37,37,15,5,36,44,663,['n'],1,right,['0'],6,156,[-0.11285794],93,44,hard,minus,dotcolour,beta,,,70,18,V,R,
668,38,38,15,5,33,47,598,['n'],1,right,['0'],6,135,[-0.05450556],49,47,medium,minus,dotcolour,beta,,,70,18,V,R,
669,39,39,15,5,53,27,749,['c'],1,left,['0'],6,181,[0.07640555],71,53,easy,minus,dotcolour,beta,,,70,18,V,R,
670,40,40,15,5,44,36,867,['c'],1,left,['9'],5,85,[0.13021891],99,44,hard,minus,dotcolour,beta,,,70,18,V,R,
671,41,41,15,5,47,33,631,['c'],1,left,['9'],5,33,[0.06345651],69,47,medium,minus,dotcolour,beta,,,70,18,V,R,
672,42,0,16,5,36,44,967,['c'],0,right,['0'],6,29,[0.04741085],30,44,hard,minus,dotcolour,beta,,,70,18,V,R,
673,43,1,16,5,27,53,481,['c'],0,right,['0'],6,81,[0.02963797],16,53,easy,minus,dotcolour,beta,,,70,18,V,R,
674,44,2,16,5,33,47,416,['c'],0,right,['0'],6,62,[0.04107978],26,47,medium,minus,dotcolour,beta,,,70,18,V,R,
675,45,3,16,5,47,33,866,['c'],1,left,['0'],6,90,[0.06137464],59,47,medium,minus,dotcolour,beta,,,70,18,V,R,
676,46,4,16,5,36,44,432,['n'],1,right,['0'],6,78,[-0.09686033],93,44,hard,minus,dotcolour,beta,,,70,18,V,R,
677,47,5,16,5,44,36,1199,['c'],1,left,['9'],5,172,[0.11938852],94,44,hard,minus,dotcolour,beta,,,70,18,V,R,
678,48,6,16,5,44,36,480,['c'],1,left,['9'],5,115,[0.16826195],100,44,hard,minus,dotcolour,beta,,,70,18,V,R,
679,49,7,16,5,53,27,466,['c'],1,left,['0'],6,77,[0.09218721],91,53,easy,minus,dotcolour,beta,,,70,18,V,R,
680,50,8,16,5,53,27,400,['c'],1,left,['0'],6,59,[0.0539397],47,53,easy,minus,dotcolour,beta,,,70,18,V,R,
681,51,9,16,5,53,27,416,['c'],1,left,['0'],6,25,[0.08756098],97,53,easy,minus,dotcolour,beta,,,70,18,V,R,
682,52,10,16,5,53,27,400,['c'],1,left,['0'],6,33,[0.0852579],95,53,easy,minus,dotcolour,beta,,,70,18,V,R,
683,53,11,16,5,33,47,582,['n'],1,right,['0'],6,66,[-0.07178888],76,47,medium,minus,dotcolour,beta,,,70,18,V,R,
684,54,12,16,5,47,33,465,['c'],1,left,['0'],6,622,[0.16808298],93,47,medium,minus,dotcolour,beta,,,70,18,V,R,
685,55,13,16,5,33,47,666,['n'],1,right,['0'],6,115,[-0.04399803],35,47,medium,minus,dotcolour,beta,,,70,18,V,R,
686,56,14,16,5,53,27,414,['c'],1,left,['0'],6,63,[0.05011647],40,53,easy,minus,dotcolour,beta,,,70,18,V,R,
687,57,15,16,5,36,44,699,['n'],1,right,['0'],6,914,[-0.27218091],98,44,hard,minus,dotcolour,beta,,,70,18,V,R,
688,58,16,16,5,33,47,482,['n'],1,right,['0'],6,188,[-0.03987884],34,47,medium,minus,dotcolour,beta,,,70,18,V,R,
689,59,17,16,5,36,44,983,['n'],1,right,['9'],5,133,[-0.02252333],16,44,hard,minus,dotcolour,beta,,,70,18,V,R,
690,60,18,16,5,27,53,599,['n'],1,right,['0'],6,97,[-0.06729134],66,53,easy,minus,dotcolour,beta,,,70,18,V,R,
691,61,19,16,5,47,33,530,['c'],1,left,['0'],6,122,[0.05542729],50,47,medium,minus,dotcolour,beta,,,70,18,V,R,
692,62,20,16,5,47,33,765,['c'],1,left,['9'],5,183,[0.07846719],72,47,medium,minus,dotcolour,beta,,,70,18,V,R,
693,63,21,16,5,47,33,582,['c'],1,left,['9'],5,226,[0.0990758],84,47,medium,minus,dotcolour,beta,,,70,18,V,R,
694,64,22,16,5,27,53,615,['n'],1,right,['0'],6,114,[-0.12459478],98,53,easy,minus,dotcolour,beta,,,70,18,V,R,
695,65,23,16,5,33,47,997,['c'],0,right,['9'],5,190,[0.05590167],50,47,medium,minus,dotcolour,beta,,,70,18,V,R,
696,66,24,16,5,44,36,933,['c'],1,left,['0'],6,74,[0.10165308],95,44,hard,minus,dotcolour,beta,,,70,18,V,R,
697,67,25,16,5,33,47,499,['n'],1,right,['0'],6,453,[-0.14515941],92,47,medium,minus,dotcolour,beta,,,70,18,V,R,
698,68,26,16,5,27,53,532,['n'],1,right,['0'],6,175,[-0.02949804],25,53,easy,minus,dotcolour,beta,,,70,18,V,R,
699,69,27,16,5,27,53,448,['n'],1,right,['0'],6,127,[-0.08597388],82,53,easy,minus,dotcolour,beta,,,70,18,V,R,
700,70,28,16,5,27,53,383,['n'],1,right,['0'],6,92,[-0.06138329],59,53,easy,minus,dotcolour,beta,,,70,18,V,R,
701,71,29,16,5,44,36,648,['c'],1,left,['0'],6,103,[0.05696814],52,44,hard,minus,dotcolour,beta,,,70,18,V,R,
702,72,30,16,5,44,36,648,['n'],0,left,['0'],6,114,[-0.09457772],89,44,hard,minus,dotcolour,beta,,,70,18,V,R,
703,73,31,16,5,44,36,799,['c'],1,left,['0'],6,95,[0.05368791],47,44,hard,minus,dotcolour,beta,,,70,18,V,R,
704,74,32,16,5,47,33,399,['c'],1,left,['0'],6,76,[0.1045173],96,47,medium,minus,dotcolour,beta,,,70,18,V,R,
705,75,33,16,5,53,27,399,['c'],1,left,['0'],6,99,[0.09389548],90,53,easy,minus,dotcolour,beta,,,70,18,V,R,
706,76,34,16,5,36,44,548,['n'],1,right,['0'],6,106,[-0.0998279],92,44,hard,minus,dotcolour,beta,,,70,18,V,R,
707,77,35,16,5,36,44,583,['n'],1,right,['0'],6,111,[-0.11392013],96,44,hard,minus,dotcolour,beta,,,70,18,V,R,
708,78,36,16,5,33,47,632,['n'],1,right,['0'],6,115,[-0.04620507],38,47,medium,minus,dotcolour,beta,,,70,18,V,R,
709,79,37,16,5,53,27,533,['c'],1,left,['0'],6,66,[0.10052505],96,53,easy,minus,dotcolour,beta,,,70,18,V,R,
710,80,38,16,5,44,36,448,['c'],1,left,['9'],5,751,[0.07438817],60,44,hard,minus,dotcolour,beta,,,70,18,V,R,
711,81,39,16,5,36,44,1247,['n'],1,right,['8'],4,271,[-0.01386092],19,44,hard,minus,dotcolour,beta,,,70,18,V,R,
712,82,40,16,5,47,33,1014,['c'],1,left,['9'],5,132,[0.03727434],29,47,medium,minus,dotcolour,beta,,,70,18,V,R,
713,83,41,16,5,27,53,630,['n'],1,right,['0'],6,135,[-0.06388371],60,53,easy,minus,dotcolour,beta,,,70,18,V,R,
714,84,0,17,5,36,44,683,['n'],1,right,['0'],6,2433,[-0.10982511],65,44,hard,minus,dotcolour,beta,,,70,18,V,R,
715,85,1,17,5,44,36,615,['c'],1,left,['0'],6,144,[0.09554134],87,44,hard,minus,dotcolour,beta,,,70,18,V,R,
716,86,2,17,5,53,27,531,['c'],1,left,['0'],6,62,[0.06818083],71,53,easy,minus,dotcolour,beta,,,70,18,V,R,
717,87,3,17,5,36,44,1183,['n'],1,right,['9'],5,206,[-0.04852723],43,44,hard,minus,dotcolour,beta,,,70,18,V,R,
718,88,4,17,5,53,27,798,['c'],1,left,['0'],6,95,[0.09935352],93,53,easy,minus,dotcolour,beta,,,70,18,V,R,
719,89,5,17,5,47,33,399,['c'],1,left,['0'],6,75,[0.14869591],100,47,medium,minus,dotcolour,beta,,,70,18,V,R,
720,90,6,17,5,47,33,415,['c'],1,left,['0'],6,17,[0.06376143],76,47,medium,minus,dotcolour,beta,,,70,18,V,R,
721,91,7,17,5,27,53,815,['n'],1,right,['0'],6,49,[-0.04475553],29,53,easy,minus,dotcolour,beta,,,70,18,V,R,
722,92,8,17,5,47,33,482,['c'],1,left,['0'],6,93,[0.06073563],58,47,medium,minus,dotcolour,beta,,,70,18,V,R,
723,93,9,17,5,36,44,1132,['c'],0,right,['9'],5,118,[0.17113997],100,44,hard,minus,dotcolour,beta,,,70,18,V,R,
724,94,10,17,5,53,27,466,['c'],1,left,['0'],6,263,[0.1954433],99,53,easy,minus,dotcolour,beta,,,70,18,V,R,
725,95,11,17,5,33,47,666,['n'],1,right,['0'],6,99,[-0.08831793],87,47,medium,minus,dotcolour,beta,,,70,18,V,R,
726,96,12,17,5,33,47,682,['c'],0,right,['0'],6,93,[0.06874445],69,47,medium,minus,dotcolour,beta,,,70,18,V,R,
727,97,13,17,5,44,36,497,['c'],1,left,['0'],6,71,[0.06566081],66,44,hard,minus,dotcolour,beta,,,70,18,V,R,
728,98,14,17,5,47,33,480,['c'],1,left,['0'],6,58,[0.08607516],91,47,medium,minus,dotcolour,beta,,,70,18,V,R,
729,99,15,17,5,47,33,365,['c'],1,left,['0'],6,42,[0.10233773],98,47,medium,minus,dotcolour,beta,,,70,18,V,R,
730,100,16,17,5,36,44,516,['n'],1,right,['0'],6,77,[-0.0813647],84,44,hard,minus,dotcolour,beta,,,70,18,V,R,
731,101,17,17,5,27,53,449,['n'],1,right,['0'],6,113,[-0.0841617],82,53,easy,minus,dotcolour,beta,,,70,18,V,R,
732,102,18,17,5,27,53,399,['c'],0,right,['1'],1,638,[0.01052438],27,53,easy,minus,dotcolour,beta,,,70,18,V,R,
733,103,19,17,5,44,36,1667,['c'],1,left,['9'],5,50,[0.05655544],52,44,hard,minus,dotcolour,beta,,,70,18,V,R,
734,104,20,17,5,33,47,432,['n'],1,right,['0'],6,96,[-0.05788897],53,47,medium,minus,dotcolour,beta,,,70,18,V,R,
735,105,21,17,5,27,53,600,['n'],1,right,['0'],6,94,[-0.06380744],62,53,easy,minus,dotcolour,beta,,,70,18,V,R,
736,106,22,17,5,44,36,632,['n'],0,left,['0'],6,594,[-0.07743735],63,44,hard,minus,dotcolour,beta,,,70,18,V,R,
737,107,23,17,5,53,27,431,['c'],1,left,['0'],6,73,[0.08146601],85,53,easy,minus,dotcolour,beta,,,70,18,V,R,
738,108,24,17,5,33,47,599,['n'],1,right,['0'],6,112,[-0.0823354],81,47,medium,minus,dotcolour,beta,,,70,18,V,R,
739,109,25,17,5,53,27,516,['c'],1,left,['0'],6,136,[0.04293517],35,53,easy,minus,dotcolour,beta,,,70,18,V,R,
740,110,26,17,5,36,44,632,['n'],1,right,['0'],6,91,[-0.11693862],97,44,hard,minus,dotcolour,beta,,,70,18,V,R,
741,111,27,17,5,44,36,713,['c'],1,left,['0'],6,84,[0.11244091],97,44,hard,minus,dotcolour,beta,,,70,18,V,R,
742,112,28,17,5,47,33,598,['c'],1,left,['9'],5,779,[0.27796213],99,47,medium,minus,dotcolour,beta,,,70,18,V,R,
743,113,29,17,5,36,44,731,['c'],0,right,['0'],6,63,[0.12888226],99,44,hard,minus,dotcolour,beta,,,70,18,V,R,
744,114,30,17,5,33,47,683,['n'],1,right,['0'],6,115,[-0.10794334],94,47,medium,minus,dotcolour,beta,,,70,18,V,R,
745,115,31,17,5,44,36,497,['c'],1,left,['0'],6,91,[0.05531192],50,44,hard,minus,dotcolour,beta,,,70,18,V,R,
746,116,32,17,5,53,27,766,['c'],1,left,['0'],6,267,[0.10052681],83,53,easy,minus,dotcolour,beta,,,70,18,V,R,
747,117,33,17,5,53,27,482,['c'],1,left,['0'],6,62,[0.0498737],40,53,easy,minus,dotcolour,beta,,,70,18,V,R,
748,118,34,17,5,36,44,482,['n'],1,right,['0'],6,97,[-0.13327801],99,44,hard,minus,dotcolour,beta,,,70,18,V,R,
749,119,35,17,5,33,47,450,['n'],1,right,['0'],6,77,[-0.03826278],25,47,medium,minus,dotcolour,beta,,,70,18,V,R,
750,120,36,17,5,33,47,548,['n'],1,right,['0'],6,61,[-0.10517441],97,47,medium,minus,dotcolour,beta,,,70,18,V,R,
751,121,37,17,5,27,53,449,['n'],1,right,['0'],6,81,[-0.05829048],54,53,easy,minus,dotcolour,beta,,,70,18,V,R,
752,122,38,17,5,47,33,550,['c'],1,left,['0'],6,49,[0.0575897],54,47,medium,minus,dotcolour,beta,,,70,18,V,R,
753,123,39,17,5,44,36,581,['c'],1,left,['0'],6,49,[0.06585562],70,44,hard,minus,dotcolour,beta,,,70,18,V,R,
754,124,40,17,5,27,53,498,['n'],1,right,['0'],6,13,[-0.07141942],92,53,easy,minus,dotcolour,beta,,,70,18,V,R,
755,125,41,17,5,27,53,600,['n'],1,right,['0'],6,53,[-0.08280059],89,53,easy,minus,dotcolour,beta,,,70,18,V,R,
,,,,,,,,,,,,,,,,,,,,,1,,70,18,V,R,
,,,,,,,,,,,,,,,,,,,,,2,['f'],70,18,V,R,
,,,,,,,,,,,,,,,,,,,,,3,['f'],70,18,V,R,
,,,,,,,,,,,,,,,,,,,,,5,[],70,18,V,R,
