trial,withinphasetrial,withinblocktrial,block,phase,dotsLeft,dotsRight,rt,resp,cor,cresp,conf_press,cj,RTconf,ev,fb,diff,difflevel,condition,task,manip,questionID,questionResp,sub,age,gender,handedness,
0,0,0,0,0,53,27,967,['c'],1,left,['0'],6,2067,[0.4070418],99,53,easy,minus,dotcolour,beta,,,15,19,V,R,
1,1,1,0,0,47,33,1332,['c'],1,left,['9'],5,1148,[0.17254158],88,47,medium,minus,dotcolour,beta,,,15,19,V,R,
2,2,2,0,0,53,27,932,['c'],1,left,['0'],6,634,[0.16207067],92,53,easy,minus,dotcolour,beta,,,15,19,V,R,
3,3,3,0,0,33,47,1664,['n'],1,right,['9'],5,2399,[-0.18954699],83,47,medium,minus,dotcolour,beta,,,15,19,V,R,
4,4,4,0,0,44,36,1051,['c'],1,left,['0'],6,1182,[-0.0028343],28,44,hard,minus,dotcolour,beta,,,15,19,V,R,
5,5,5,0,0,33,47,1833,['n'],1,right,['9'],5,1471,[-0.30718973],98,47,medium,minus,dotcolour,beta,,,15,19,V,R,
6,6,6,0,0,27,53,882,['n'],1,right,['9'],5,738,[-0.32348808],100,53,easy,minus,dotcolour,beta,,,15,19,V,R,
7,7,7,0,0,33,47,898,['n'],1,right,['0'],6,690,[-0.25067169],99,47,medium,minus,dotcolour,beta,,,15,19,V,R,
8,8,8,0,0,44,36,1447,['c'],1,left,['8'],4,1037,[0.03973845],43,44,hard,minus,dotcolour,beta,,,15,19,V,R,
9,9,9,0,0,47,33,1049,['c'],1,left,['8'],4,1036,[0.1431587],82,47,medium,minus,dotcolour,beta,,,15,19,V,R,
10,10,10,0,0,36,44,1148,['n'],1,right,['8'],4,605,[-0.15822225],91,44,hard,minus,dotcolour,beta,,,15,19,V,R,
11,11,11,0,0,33,47,999,['n'],1,right,['9'],5,694,[-0.27554246],99,47,medium,minus,dotcolour,beta,,,15,19,V,R,
12,12,12,0,0,27,53,798,['n'],1,right,['0'],6,620,[-0.09632463],72,53,easy,minus,dotcolour,beta,,,15,19,V,R,
13,13,13,0,0,44,36,965,['c'],1,left,['8'],4,1670,[0.24671514],93,44,hard,minus,dotcolour,beta,,,15,19,V,R,
14,14,14,0,0,27,53,1081,['n'],1,right,['8'],4,793,[-0.25903366],98,53,easy,minus,dotcolour,beta,,,15,19,V,R,
15,15,15,0,0,27,53,663,['n'],1,right,['0'],6,424,[-0.07174086],61,53,easy,minus,dotcolour,beta,,,15,19,V,R,
16,16,16,0,0,47,33,800,['c'],1,left,['0'],6,1312,[0.26539673],96,47,medium,minus,dotcolour,beta,,,15,19,V,R,
17,17,17,0,0,53,27,648,['c'],1,left,['9'],5,579,[0.17716523],95,53,easy,minus,dotcolour,beta,,,15,19,V,R,
18,18,18,0,0,44,36,980,['c'],1,left,['9'],5,1646,[-0.0462421],19,44,hard,minus,dotcolour,beta,,,15,19,V,R,
19,19,19,0,0,33,47,833,['n'],1,right,['9'],5,1204,[-0.15869015],84,47,medium,minus,dotcolour,beta,,,15,19,V,R,
20,20,20,0,0,47,33,865,['c'],1,left,['9'],5,1050,[0.09323491],66,47,medium,minus,dotcolour,beta,,,15,19,V,R,
21,21,21,0,0,47,33,2182,['c'],1,left,['8'],4,1058,[0.04871474],47,47,medium,minus,dotcolour,beta,,,15,19,V,R,
22,22,22,0,0,36,44,782,['n'],1,right,['9'],5,594,[-0.12688236],84,44,hard,minus,dotcolour,beta,,,15,19,V,R,
23,23,23,0,0,44,36,932,['n'],0,left,['0'],6,638,[-0.05966507],52,44,hard,minus,dotcolour,beta,,,15,19,V,R,
24,24,24,0,0,53,27,649,['c'],1,left,['8'],4,836,[0.34016298],100,53,easy,minus,dotcolour,beta,,,15,19,V,R,
25,25,25,0,0,33,47,698,['n'],1,right,['8'],4,511,[-0.10219067],76,47,medium,minus,dotcolour,beta,,,15,19,V,R,
26,26,26,0,0,53,27,682,['n'],0,left,['9'],5,577,[0.01952249],14,53,easy,minus,dotcolour,beta,,,15,19,V,R,
27,27,27,0,0,47,33,897,['c'],1,left,['9'],5,784,[0.20767447],96,47,medium,minus,dotcolour,beta,,,15,19,V,R,
28,28,28,0,0,36,44,833,['n'],1,right,['8'],4,512,[-0.03119898],35,44,hard,minus,dotcolour,beta,,,15,19,V,R,
29,29,29,0,0,36,44,717,['n'],1,right,['8'],4,744,[-0.19925573],95,44,hard,minus,dotcolour,beta,,,15,19,V,R,
30,30,30,0,0,27,53,1949,['c'],0,right,['3'],3,774,[0.04801004],46,53,easy,minus,dotcolour,beta,,,15,19,V,R,
31,31,31,0,0,36,44,649,['n'],1,right,['9'],5,855,[-0.29480682],99,44,hard,minus,dotcolour,beta,,,15,19,V,R,
32,32,32,0,0,44,36,1581,['c'],1,left,['8'],4,574,[0.0620317],54,44,hard,minus,dotcolour,beta,,,15,19,V,R,
33,33,33,0,0,44,36,1115,['n'],0,left,['8'],4,604,[-0.06388211],55,44,hard,minus,dotcolour,beta,,,15,19,V,R,
34,34,34,0,0,36,44,1032,['n'],1,right,['3'],3,580,[-0.24369974],99,44,hard,minus,dotcolour,beta,,,15,19,V,R,
35,35,35,0,0,33,47,2331,['n'],1,right,['9'],5,1169,[-0.17659509],88,47,medium,minus,dotcolour,beta,,,15,19,V,R,
36,36,36,0,0,53,27,1315,['c'],1,left,['9'],5,687,[0.25626334],99,53,easy,minus,dotcolour,beta,,,15,19,V,R,
37,37,37,0,0,47,33,1432,['c'],1,left,['8'],4,667,[0.11778587],80,47,medium,minus,dotcolour,beta,,,15,19,V,R,
38,38,38,0,0,27,53,1032,['n'],1,right,['0'],6,673,[-0.03187941],37,53,easy,minus,dotcolour,beta,,,15,19,V,R,
39,39,39,0,0,53,27,800,['c'],1,left,['8'],4,648,[0.2063708],97,53,easy,minus,dotcolour,beta,,,15,19,V,R,
40,40,40,0,0,27,53,1099,['n'],1,right,['9'],5,491,[-0.22684051],99,53,easy,minus,dotcolour,beta,,,15,19,V,R,
41,41,41,0,0,36,44,1500,['n'],1,right,['3'],3,669,[-0.15401074],90,44,hard,minus,dotcolour,beta,,,15,19,V,R,
42,42,0,1,0,36,44,766,['n'],1,right,['9'],5,686,[-0.15031762],89,44,hard,minus,dotcolour,beta,,,15,19,V,R,
43,43,1,1,0,53,27,1199,['c'],1,left,['8'],4,644,[0.26644704],99,53,easy,minus,dotcolour,beta,,,15,19,V,R,
44,44,2,1,0,53,27,799,['c'],1,left,['8'],4,436,[0.20064191],98,53,easy,minus,dotcolour,beta,,,15,19,V,R,
45,45,3,1,0,27,53,797,['n'],1,right,['8'],4,588,[-0.21220642],98,53,easy,minus,dotcolour,beta,,,15,19,V,R,
46,46,4,1,0,36,44,1298,['c'],0,right,['8'],4,450,[0.05922165],52,44,hard,minus,dotcolour,beta,,,15,19,V,R,
47,47,5,1,0,33,47,664,['n'],1,right,['8'],4,423,[-0.17107085],96,47,medium,minus,dotcolour,beta,,,15,19,V,R,
48,48,6,1,0,44,36,849,['c'],1,left,['9'],5,549,[0.11953782],83,44,hard,minus,dotcolour,beta,,,15,19,V,R,
49,49,7,1,0,44,36,1132,['c'],1,left,['8'],4,419,[0.07633475],64,44,hard,minus,dotcolour,beta,,,15,19,V,R,
50,50,8,1,0,33,47,1215,['c'],0,right,['8'],4,404,[0.05606047],50,47,medium,minus,dotcolour,beta,,,15,19,V,R,
51,51,9,1,0,53,27,1099,['c'],1,left,['9'],5,874,[-0.0354141],15,53,easy,minus,dotcolour,beta,,,15,19,V,R,
52,52,10,1,0,47,33,1099,['c'],1,left,['8'],4,604,[0.12586613],84,47,medium,minus,dotcolour,beta,,,15,19,V,R,
53,53,11,1,0,47,33,1165,['c'],1,left,['9'],5,823,[0.17634543],92,47,medium,minus,dotcolour,beta,,,15,19,V,R,
54,54,12,1,0,53,27,1566,['c'],1,left,['9'],5,504,[0.09822574],75,53,easy,minus,dotcolour,beta,,,15,19,V,R,
55,55,13,1,0,27,53,749,['n'],1,right,['8'],4,576,[-0.05141575],48,53,easy,minus,dotcolour,beta,,,15,19,V,R,
56,56,14,1,0,44,36,1349,['c'],1,left,['8'],4,676,[0.27529563],99,44,hard,minus,dotcolour,beta,,,15,19,V,R,
57,57,15,1,0,47,33,816,['n'],0,left,['8'],4,754,[-0.06914906],57,47,medium,minus,dotcolour,beta,,,15,19,V,R,
58,58,16,1,0,47,33,1032,['c'],1,left,['9'],5,587,[0.04831842],46,47,medium,minus,dotcolour,beta,,,15,19,V,R,
59,59,17,1,0,27,53,832,['n'],1,right,['9'],5,908,[-0.13248594],81,53,easy,minus,dotcolour,beta,,,15,19,V,R,
60,60,18,1,0,47,33,800,['c'],1,left,['9'],5,713,[0.01724027],31,47,medium,minus,dotcolour,beta,,,15,19,V,R,
61,61,19,1,0,27,53,766,['n'],1,right,['0'],6,503,[-0.16891452],95,53,easy,minus,dotcolour,beta,,,15,19,V,R,
62,62,20,1,0,36,44,1582,['n'],1,right,['3'],3,757,[-0.00474565],26,44,hard,minus,dotcolour,beta,,,15,19,V,R,
63,63,21,1,0,27,53,2166,['n'],1,right,['8'],4,1122,[-0.15851154],85,53,easy,minus,dotcolour,beta,,,15,19,V,R,
64,64,22,1,0,36,44,749,['n'],1,right,['8'],4,616,[-0.12823221],84,44,hard,minus,dotcolour,beta,,,15,19,V,R,
65,65,23,1,0,36,44,950,['n'],1,right,['9'],5,515,[-0.17129808],95,44,hard,minus,dotcolour,beta,,,15,19,V,R,
66,66,24,1,0,44,36,916,['c'],1,left,['8'],4,763,[0.20744244],96,44,hard,minus,dotcolour,beta,,,15,19,V,R,
67,67,25,1,0,36,44,2782,['c'],0,right,['8'],4,551,[0.06879381],58,44,hard,minus,dotcolour,beta,,,15,19,V,R,
68,68,26,1,0,44,36,1265,['c'],1,left,['8'],4,592,[0.26561269],99,44,hard,minus,dotcolour,beta,,,15,19,V,R,
69,69,27,1,0,47,33,1417,['c'],1,left,['3'],3,1529,[0.18932076],88,47,medium,minus,dotcolour,beta,,,15,19,V,R,
70,70,28,1,0,44,36,800,['n'],0,left,['8'],4,581,[0.02309334],14,44,hard,minus,dotcolour,beta,,,15,19,V,R,
71,71,29,1,0,33,47,683,['n'],1,right,['9'],5,1228,[-0.20005784],91,47,medium,minus,dotcolour,beta,,,15,19,V,R,
72,72,30,1,0,33,47,1133,['n'],1,right,['9'],5,631,[-0.13357637],85,47,medium,minus,dotcolour,beta,,,15,19,V,R,
73,73,31,1,0,33,47,983,['n'],1,right,['9'],5,1088,[-0.19861253],92,47,medium,minus,dotcolour,beta,,,15,19,V,R,
74,74,32,1,0,36,44,632,['n'],1,right,['8'],4,709,[-0.10489633],74,44,hard,minus,dotcolour,beta,,,15,19,V,R,
75,75,33,1,0,27,53,1799,['n'],1,right,['9'],5,810,[-0.13467909],83,53,easy,minus,dotcolour,beta,,,15,19,V,R,
76,76,34,1,0,33,47,1082,['n'],1,right,['8'],4,583,[-0.16897296],94,47,medium,minus,dotcolour,beta,,,15,19,V,R,
77,77,35,1,0,47,33,2682,['c'],1,left,['8'],4,367,[0.13894795],92,47,medium,minus,dotcolour,beta,,,15,19,V,R,
78,78,36,1,0,53,27,1146,['c'],1,left,['9'],5,460,[0.04050799],40,53,easy,minus,dotcolour,beta,,,15,19,V,R,
79,79,37,1,0,44,36,867,['n'],0,left,['8'],4,448,[-0.12845926],88,44,hard,minus,dotcolour,beta,,,15,19,V,R,
80,80,38,1,0,53,27,850,['c'],1,left,['8'],4,478,[0.07444639],62,53,easy,minus,dotcolour,beta,,,15,19,V,R,
81,81,39,1,0,27,53,667,['n'],1,right,['9'],5,538,[-0.05033503],47,53,easy,minus,dotcolour,beta,,,15,19,V,R,
82,82,40,1,0,53,27,865,['c'],1,left,['8'],4,555,[0.17683476],95,53,easy,minus,dotcolour,beta,,,15,19,V,R,
83,83,41,1,0,33,47,830,['n'],1,right,['8'],4,500,[-0.11086171],80,47,medium,minus,dotcolour,beta,,,15,19,V,R,
84,84,0,2,0,47,33,3800,['n'],0,left,['2'],2,898,[0.01221536],22,47,medium,minus,dotcolour,beta,,,15,19,V,R,
85,85,1,2,0,27,53,866,['n'],1,right,['9'],5,565,[-0.09740407],73,53,easy,minus,dotcolour,beta,,,15,19,V,R,
86,86,2,2,0,36,44,550,['n'],1,right,['9'],5,474,[-0.04053622],40,44,hard,minus,dotcolour,beta,,,15,19,V,R,
87,87,3,2,0,36,44,782,['n'],1,right,['8'],4,449,[-0.11614387],84,44,hard,minus,dotcolour,beta,,,15,19,V,R,
88,88,4,2,0,53,27,997,['c'],1,left,['9'],5,560,[0.36818996],100,53,easy,minus,dotcolour,beta,,,15,19,V,R,
89,89,5,2,0,36,44,1182,['n'],1,right,['9'],5,484,[-0.16152708],94,44,hard,minus,dotcolour,beta,,,15,19,V,R,
90,90,6,2,0,47,33,817,['c'],1,left,['9'],5,417,[0.12336515],87,47,medium,minus,dotcolour,beta,,,15,19,V,R,
91,91,7,2,0,53,27,1400,['c'],1,left,['9'],5,491,[0.20034993],98,53,easy,minus,dotcolour,beta,,,15,19,V,R,
92,92,8,2,0,27,53,715,['n'],1,right,['0'],6,595,[-0.17188018],94,53,easy,minus,dotcolour,beta,,,15,19,V,R,
93,93,9,2,0,53,27,781,['c'],1,left,['9'],5,454,[0.14126945],91,53,easy,minus,dotcolour,beta,,,15,19,V,R,
94,94,10,2,0,44,36,1932,['n'],0,left,['8'],4,1424,[0.20473623],2,44,hard,minus,dotcolour,beta,,,15,19,V,R,
95,95,11,2,0,47,33,965,['n'],0,left,['8'],4,1450,[-0.048251],47,47,medium,minus,dotcolour,beta,,,15,19,V,R,
96,96,12,2,0,27,53,1765,['n'],1,right,['8'],4,418,[-0.17230488],96,53,easy,minus,dotcolour,beta,,,15,19,V,R,
97,97,13,2,0,47,33,849,['c'],1,left,['9'],5,393,[0.13051702],90,47,medium,minus,dotcolour,beta,,,15,19,V,R,
98,98,14,2,0,36,44,799,['n'],1,right,['9'],5,338,[-0.08877081],74,44,hard,minus,dotcolour,beta,,,15,19,V,R,
99,99,15,2,0,36,44,732,['n'],1,right,['9'],5,594,[-0.18699022],96,44,hard,minus,dotcolour,beta,,,15,19,V,R,
100,100,16,2,0,33,47,1065,['n'],1,right,['9'],5,433,[-0.11897991],85,47,medium,minus,dotcolour,beta,,,15,19,V,R,
101,101,17,2,0,44,36,1115,['c'],1,left,['9'],5,2060,[0.25691603],93,44,hard,minus,dotcolour,beta,,,15,19,V,R,
102,102,18,2,0,44,36,2366,['n'],0,left,['8'],4,468,[-0.01302681],25,44,hard,minus,dotcolour,beta,,,15,19,V,R,
103,103,19,2,0,33,47,582,['n'],1,right,['9'],5,963,[-0.25337938],97,47,medium,minus,dotcolour,beta,,,15,19,V,R,
104,104,20,2,0,27,53,699,['n'],1,right,['0'],6,409,[-0.02757973],31,53,easy,minus,dotcolour,beta,,,15,19,V,R,
105,105,21,2,0,44,36,1115,['c'],1,left,['3'],3,1078,[0.22394575],95,44,hard,minus,dotcolour,beta,,,15,19,V,R,
106,106,22,2,0,47,33,1282,['c'],1,left,['9'],5,400,[0.07336578],62,47,medium,minus,dotcolour,beta,,,15,19,V,R,
107,107,23,2,0,27,53,632,['n'],1,right,['9'],5,681,[-0.01892622],31,53,easy,minus,dotcolour,beta,,,15,19,V,R,
108,108,24,2,0,44,36,1033,['c'],1,left,['8'],4,654,[0.07635523],61,44,hard,minus,dotcolour,beta,,,15,19,V,R,
109,109,25,2,0,44,36,998,['n'],0,left,['8'],4,1181,[-0.0120633],33,44,hard,minus,dotcolour,beta,,,15,19,V,R,
110,110,26,2,0,36,44,782,['n'],1,right,['8'],4,735,[-0.16664854],91,44,hard,minus,dotcolour,beta,,,15,19,V,R,
111,111,27,2,0,33,47,715,['n'],1,right,['9'],5,686,[-0.21652078],97,47,medium,minus,dotcolour,beta,,,15,19,V,R,
112,112,28,2,0,33,47,934,['n'],1,right,['0'],6,399,[-0.10726987],81,47,medium,minus,dotcolour,beta,,,15,19,V,R,
113,113,29,2,0,53,27,583,['n'],0,left,['1'],1,1417,[0.15329599],4,53,easy,minus,dotcolour,beta,,,15,19,V,R,
114,114,30,2,0,33,47,1232,['n'],1,right,['8'],4,567,[-0.16147985],93,47,medium,minus,dotcolour,beta,,,15,19,V,R,
115,115,31,2,0,47,33,1099,['c'],1,left,['8'],4,406,[0.13541271],91,47,medium,minus,dotcolour,beta,,,15,19,V,R,
116,116,32,2,0,53,27,815,['c'],1,left,['0'],6,342,[0.1091473],84,53,easy,minus,dotcolour,beta,,,15,19,V,R,
117,117,33,2,0,44,36,1115,['n'],0,left,['0'],6,382,[-0.02205056],27,44,hard,minus,dotcolour,beta,,,15,19,V,R,
118,118,34,2,0,47,33,749,['c'],1,left,['9'],5,531,[0.08449655],67,47,medium,minus,dotcolour,beta,,,15,19,V,R,
119,119,35,2,0,53,27,998,['c'],1,left,['9'],5,374,[0.16170991],96,53,easy,minus,dotcolour,beta,,,15,19,V,R,
120,120,36,2,0,27,53,698,['n'],1,right,['9'],5,509,[-0.18817497],97,53,easy,minus,dotcolour,beta,,,15,19,V,R,
121,121,37,2,0,33,47,932,['n'],1,right,['0'],6,541,[-0.11078132],79,47,medium,minus,dotcolour,beta,,,15,19,V,R,
122,122,38,2,0,27,53,899,['n'],1,right,['8'],4,669,[-0.29840967],100,53,easy,minus,dotcolour,beta,,,15,19,V,R,
123,123,39,2,0,33,47,1615,['c'],0,right,['2'],2,931,[0.06605675],55,47,medium,minus,dotcolour,beta,,,15,19,V,R,
124,124,40,2,0,36,44,865,['c'],0,right,['3'],3,637,[0.02184602],32,44,hard,minus,dotcolour,beta,,,15,19,V,R,
125,125,41,2,0,53,27,1215,['c'],1,left,['0'],6,1132,[0.28128579],98,53,easy,minus,dotcolour,beta,,,15,19,V,R,
126,0,0,3,1,53,27,1016,['c'],1,left,['9'],5,483,[0.14285271],99,53,easy,plus,dotcolour,beta,,,15,19,V,R,
127,1,1,3,1,36,44,749,['n'],1,right,['9'],5,547,[-0.17672228],100,44,hard,plus,dotcolour,beta,,,15,19,V,R,
128,2,2,3,1,36,44,1615,['n'],1,right,['9'],5,478,[0.0676048],42,44,hard,plus,dotcolour,beta,,,15,19,V,R,
129,3,3,3,1,33,47,733,['n'],1,right,['0'],6,400,[1.73150964e-05],83,47,medium,plus,dotcolour,beta,,,15,19,V,R,
130,4,4,3,1,33,47,735,['n'],1,right,['0'],6,348,[-0.11800155],100,47,medium,plus,dotcolour,beta,,,15,19,V,R,
131,5,5,3,1,47,33,1033,['c'],1,left,['9'],5,975,[0.25809432],100,47,medium,plus,dotcolour,beta,,,15,19,V,R,
132,6,6,3,1,36,44,748,['n'],1,right,['0'],6,435,[-0.08793496],98,44,hard,plus,dotcolour,beta,,,15,19,V,R,
133,7,7,3,1,27,53,516,['n'],1,right,['0'],6,582,[-0.10841753],98,53,easy,plus,dotcolour,beta,,,15,19,V,R,
134,8,8,3,1,47,33,867,['c'],1,left,['0'],6,437,[0.1677966],100,47,medium,plus,dotcolour,beta,,,15,19,V,R,
135,9,9,3,1,44,36,965,['c'],1,left,['9'],5,519,[0.03838108],91,44,hard,plus,dotcolour,beta,,,15,19,V,R,
136,10,10,3,1,27,53,999,['n'],1,right,['0'],6,389,[-0.22778114],100,53,easy,plus,dotcolour,beta,,,15,19,V,R,
137,11,11,3,1,47,33,1332,['n'],0,left,['9'],5,626,[0.00790835],75,47,medium,plus,dotcolour,beta,,,15,19,V,R,
138,12,12,3,1,36,44,916,['n'],1,right,['0'],6,357,[-0.13596592],100,44,hard,plus,dotcolour,beta,,,15,19,V,R,
139,13,13,3,1,27,53,1282,['n'],1,right,['0'],6,317,[-0.08201621],99,53,easy,plus,dotcolour,beta,,,15,19,V,R,
140,14,14,3,1,33,47,865,['n'],1,right,['0'],6,359,[0.02652562],71,47,medium,plus,dotcolour,beta,,,15,19,V,R,
141,15,15,3,1,33,47,1248,['n'],1,right,['0'],6,320,[-0.10522712],99,47,medium,plus,dotcolour,beta,,,15,19,V,R,
142,16,16,3,1,27,53,799,['n'],1,right,['0'],6,397,[-0.14013077],100,53,easy,plus,dotcolour,beta,,,15,19,V,R,
143,17,17,3,1,33,47,1232,['n'],1,right,['0'],6,382,[-0.00431334],85,47,medium,plus,dotcolour,beta,,,15,19,V,R,
144,18,18,3,1,27,53,599,['n'],1,right,['0'],6,376,[-0.16769617],100,53,easy,plus,dotcolour,beta,,,15,19,V,R,
145,19,19,3,1,53,27,1047,['c'],1,left,['0'],6,872,[0.34192366],100,53,easy,plus,dotcolour,beta,,,15,19,V,R,
146,20,20,3,1,33,47,864,['n'],1,right,['0'],6,1044,[-0.10887323],95,47,medium,plus,dotcolour,beta,,,15,19,V,R,
147,21,21,3,1,27,53,783,['n'],1,right,['0'],6,621,[-0.24767296],100,53,easy,plus,dotcolour,beta,,,15,19,V,R,
148,22,22,3,1,47,33,832,['c'],1,left,['0'],6,371,[0.0423303],95,47,medium,plus,dotcolour,beta,,,15,19,V,R,
149,23,23,3,1,53,27,815,['c'],1,left,['0'],6,734,[0.18098585],99,53,easy,plus,dotcolour,beta,,,15,19,V,R,
150,24,24,3,1,44,36,1149,['n'],0,left,['9'],5,516,[-0.06999829],96,44,hard,plus,dotcolour,beta,,,15,19,V,R,
151,25,25,3,1,44,36,815,['n'],0,left,['0'],6,329,[-0.12992183],100,44,hard,plus,dotcolour,beta,,,15,19,V,R,
152,26,26,3,1,53,27,716,['c'],1,left,['0'],6,337,[0.15874403],100,53,easy,plus,dotcolour,beta,,,15,19,V,R,
153,27,27,3,1,53,27,1099,['n'],0,left,['2'],2,1465,[0.28891163],3,53,easy,plus,dotcolour,beta,,,15,19,V,R,
154,28,28,3,1,36,44,716,['n'],1,right,['0'],6,402,[-0.01447371],88,44,hard,plus,dotcolour,beta,,,15,19,V,R,
155,29,29,3,1,44,36,1330,['n'],0,left,['9'],5,359,[-0.01385086],89,44,hard,plus,dotcolour,beta,,,15,19,V,R,
156,30,30,3,1,47,33,865,['c'],1,left,['0'],6,399,[0.09832935],99,47,medium,plus,dotcolour,beta,,,15,19,V,R,
157,31,31,3,1,44,36,1066,['c'],1,left,['0'],6,262,[0.17349889],100,44,hard,plus,dotcolour,beta,,,15,19,V,R,
158,32,32,3,1,53,27,847,['c'],1,left,['0'],6,267,[0.09167124],99,53,easy,plus,dotcolour,beta,,,15,19,V,R,
159,33,33,3,1,36,44,850,['n'],1,right,['0'],6,287,[-0.07713579],99,44,hard,plus,dotcolour,beta,,,15,19,V,R,
160,34,34,3,1,44,36,815,['n'],0,left,['1'],1,1190,[0.06611065],46,44,hard,plus,dotcolour,beta,,,15,19,V,R,
161,35,35,3,1,44,36,1965,['c'],1,left,['3'],3,321,[0.06462177],98,44,hard,plus,dotcolour,beta,,,15,19,V,R,
162,36,36,3,1,53,27,1066,['c'],1,left,['0'],6,291,[0.1256339],100,53,easy,plus,dotcolour,beta,,,15,19,V,R,
163,37,37,3,1,47,33,732,['c'],1,left,['0'],6,275,[0.10601401],100,47,medium,plus,dotcolour,beta,,,15,19,V,R,
164,38,38,3,1,47,33,784,['c'],1,left,['0'],6,298,[0.08654794],99,47,medium,plus,dotcolour,beta,,,15,19,V,R,
165,39,39,3,1,27,53,950,['n'],1,right,['0'],6,394,[-0.09304918],99,53,easy,plus,dotcolour,beta,,,15,19,V,R,
166,40,40,3,1,36,44,1599,['c'],0,right,['1'],1,372,[-0.02030496],74,44,hard,plus,dotcolour,beta,,,15,19,V,R,
167,41,41,3,1,33,47,950,['n'],1,right,['0'],6,305,[-0.18507097],100,47,medium,plus,dotcolour,beta,,,15,19,V,R,
168,42,0,4,1,36,44,1150,['n'],1,right,['0'],6,323,[-0.17366466],100,44,hard,plus,dotcolour,beta,,,15,19,V,R,
169,43,1,4,1,53,27,997,['n'],0,left,['9'],5,688,[-0.00533112],79,53,easy,plus,dotcolour,beta,,,15,19,V,R,
170,44,2,4,1,44,36,730,['c'],1,left,['0'],6,305,[0.00280056],87,44,hard,plus,dotcolour,beta,,,15,19,V,R,
171,45,3,4,1,27,53,749,['n'],1,right,['0'],6,265,[-0.1519204],100,53,easy,plus,dotcolour,beta,,,15,19,V,R,
172,46,4,4,1,33,47,564,['n'],1,right,['0'],6,320,[-0.07425046],98,47,medium,plus,dotcolour,beta,,,15,19,V,R,
173,47,5,4,1,33,47,732,['n'],1,right,['0'],6,279,[-0.12928963],100,47,medium,plus,dotcolour,beta,,,15,19,V,R,
174,48,6,4,1,47,33,1299,['c'],1,left,['0'],6,386,[0.12865853],100,47,medium,plus,dotcolour,beta,,,15,19,V,R,
175,49,7,4,1,44,36,866,['n'],0,left,['0'],6,305,[-0.09903828],99,44,hard,plus,dotcolour,beta,,,15,19,V,R,
176,50,8,4,1,36,44,898,['n'],1,right,['0'],6,378,[-0.10782516],99,44,hard,plus,dotcolour,beta,,,15,19,V,R,
177,51,9,4,1,47,33,947,['c'],1,left,['0'],6,287,[0.08018501],99,47,medium,plus,dotcolour,beta,,,15,19,V,R,
178,52,10,4,1,47,33,1032,['c'],1,left,['0'],6,219,[0.10506547],100,47,medium,plus,dotcolour,beta,,,15,19,V,R,
179,53,11,4,1,27,53,533,['n'],1,right,['0'],6,311,[-0.08146617],99,53,easy,plus,dotcolour,beta,,,15,19,V,R,
180,54,12,4,1,47,33,881,['c'],1,left,['0'],6,256,[0.10362528],100,47,medium,plus,dotcolour,beta,,,15,19,V,R,
181,55,13,4,1,33,47,731,['n'],1,right,['0'],6,339,[-0.01100493],89,47,medium,plus,dotcolour,beta,,,15,19,V,R,
182,56,14,4,1,33,47,1098,['n'],1,right,['0'],6,283,[-0.08438352],99,47,medium,plus,dotcolour,beta,,,15,19,V,R,
183,57,15,4,1,44,36,899,['n'],0,left,['0'],6,309,[0.02087311],75,44,hard,plus,dotcolour,beta,,,15,19,V,R,
184,58,16,4,1,33,47,649,['n'],1,right,['0'],6,208,[-0.11550833],100,47,medium,plus,dotcolour,beta,,,15,19,V,R,
185,59,17,4,1,44,36,914,['n'],0,left,['0'],6,229,[-0.13274994],100,44,hard,plus,dotcolour,beta,,,15,19,V,R,
186,60,18,4,1,36,44,499,['n'],1,right,['0'],6,273,[-0.10450146],100,44,hard,plus,dotcolour,beta,,,15,19,V,R,
187,61,19,4,1,47,33,1082,['n'],0,left,['0'],6,212,[-0.02045901],95,47,medium,plus,dotcolour,beta,,,15,19,V,R,
188,62,20,4,1,33,47,748,['n'],1,right,['0'],6,215,[-0.12907011],100,47,medium,plus,dotcolour,beta,,,15,19,V,R,
189,63,21,4,1,36,44,683,['n'],1,right,['0'],6,245,[-0.16097014],100,44,hard,plus,dotcolour,beta,,,15,19,V,R,
190,64,22,4,1,44,36,898,['n'],0,left,['0'],6,256,[-0.03415699],96,44,hard,plus,dotcolour,beta,,,15,19,V,R,
191,65,23,4,1,44,36,1913,['c'],1,left,['0'],6,355,[0.17219783],100,44,hard,plus,dotcolour,beta,,,15,19,V,R,
192,66,24,4,1,27,53,766,['n'],1,right,['0'],6,239,[-0.1931835],100,53,easy,plus,dotcolour,beta,,,15,19,V,R,
193,67,25,4,1,53,27,782,['c'],1,left,['0'],6,192,[0.14547282],100,53,easy,plus,dotcolour,beta,,,15,19,V,R,
194,68,26,4,1,47,33,1650,['c'],1,left,['0'],6,280,[0.12733501],100,47,medium,plus,dotcolour,beta,,,15,19,V,R,
195,69,27,4,1,36,44,1948,['n'],1,right,['0'],6,312,[-0.07607413],99,44,hard,plus,dotcolour,beta,,,15,19,V,R,
196,70,28,4,1,53,27,747,['c'],1,left,['0'],6,207,[0.09664291],100,53,easy,plus,dotcolour,beta,,,15,19,V,R,
197,71,29,4,1,53,27,650,['c'],1,left,['0'],6,438,[0.08307423],98,53,easy,plus,dotcolour,beta,,,15,19,V,R,
198,72,30,4,1,27,53,782,['n'],1,right,['0'],6,351,[-0.09696261],99,53,easy,plus,dotcolour,beta,,,15,19,V,R,
199,73,31,4,1,27,53,2415,['n'],1,right,['0'],6,1497,[-0.23826714],99,53,easy,plus,dotcolour,beta,,,15,19,V,R,
200,74,32,4,1,27,53,633,['n'],1,right,['0'],6,325,[-0.19485871],100,53,easy,plus,dotcolour,beta,,,15,19,V,R,
201,75,33,4,1,53,27,731,['c'],1,left,['0'],6,236,[0.08799461],100,53,easy,plus,dotcolour,beta,,,15,19,V,R,
202,76,34,4,1,33,47,847,['n'],1,right,['0'],6,458,[-0.06618177],96,47,medium,plus,dotcolour,beta,,,15,19,V,R,
203,77,35,4,1,47,33,747,['c'],1,left,['0'],6,323,[0.14018213],100,47,medium,plus,dotcolour,beta,,,15,19,V,R,
204,78,36,4,1,27,53,616,['n'],1,right,['0'],6,247,[-0.1453467],100,53,easy,plus,dotcolour,beta,,,15,19,V,R,
205,79,37,4,1,53,27,749,['c'],1,left,['0'],6,264,[0.14353675],100,53,easy,plus,dotcolour,beta,,,15,19,V,R,
206,80,38,4,1,36,44,767,['n'],1,right,['0'],6,289,[-0.08630925],99,44,hard,plus,dotcolour,beta,,,15,19,V,R,
207,81,39,4,1,44,36,748,['n'],0,left,['8'],4,360,[-0.07356584],98,44,hard,plus,dotcolour,beta,,,15,19,V,R,
208,82,40,4,1,53,27,731,['c'],1,left,['0'],6,278,[0.0894939],99,53,easy,plus,dotcolour,beta,,,15,19,V,R,
209,83,41,4,1,36,44,866,['n'],1,right,['8'],4,674,[-0.10339213],97,44,hard,plus,dotcolour,beta,,,15,19,V,R,
210,84,0,5,1,44,36,934,['c'],1,left,['0'],6,193,[0.0969385],100,44,hard,plus,dotcolour,beta,,,15,19,V,R,
211,85,1,5,1,53,27,566,['n'],0,left,['2'],2,828,[-0.05444153],90,53,easy,plus,dotcolour,beta,,,15,19,V,R,
212,86,2,5,1,53,27,882,['c'],1,left,['0'],6,193,[0.04541207],98,53,easy,plus,dotcolour,beta,,,15,19,V,R,
213,87,3,5,1,44,36,783,['n'],0,left,['0'],6,307,[-0.10165163],99,44,hard,plus,dotcolour,beta,,,15,19,V,R,
214,88,4,5,1,36,44,998,['n'],1,right,['0'],6,216,[-0.13712667],100,44,hard,plus,dotcolour,beta,,,15,19,V,R,
215,89,5,5,1,27,53,817,['n'],1,right,['0'],6,281,[-0.0401702],96,53,easy,plus,dotcolour,beta,,,15,19,V,R,
216,90,6,5,1,36,44,1017,['c'],0,right,['0'],6,167,[-0.01324689],87,44,hard,plus,dotcolour,beta,,,15,19,V,R,
217,91,7,5,1,53,27,715,['c'],1,left,['0'],6,213,[0.05655494],99,53,easy,plus,dotcolour,beta,,,15,19,V,R,
218,92,8,5,1,47,33,1133,['c'],1,left,['0'],6,280,[0.11947019],100,47,medium,plus,dotcolour,beta,,,15,19,V,R,
219,93,9,5,1,27,53,1716,['c'],0,right,['9'],5,714,[-0.00706303],74,53,easy,plus,dotcolour,beta,,,15,19,V,R,
220,94,10,5,1,36,44,733,['n'],1,right,['0'],6,265,[-0.06146857],98,44,hard,plus,dotcolour,beta,,,15,19,V,R,
221,95,11,5,1,36,44,831,['n'],1,right,['0'],6,343,[-0.01892645],91,44,hard,plus,dotcolour,beta,,,15,19,V,R,
222,96,12,5,1,27,53,5549,['n'],1,right,['0'],6,277,[-0.02645278],94,53,easy,plus,dotcolour,beta,,,15,19,V,R,
223,97,13,5,1,33,47,914,['n'],1,right,['0'],6,271,[-0.02567594],94,47,medium,plus,dotcolour,beta,,,15,19,V,R,
224,98,14,5,1,53,27,765,['c'],1,left,['0'],6,262,[0.12338279],100,53,easy,plus,dotcolour,beta,,,15,19,V,R,
225,99,15,5,1,47,33,4581,['n'],0,left,['0'],6,262,[-0.0779766],99,47,medium,plus,dotcolour,beta,,,15,19,V,R,
226,100,16,5,1,33,47,765,['n'],1,right,['0'],6,215,[-0.10951669],100,47,medium,plus,dotcolour,beta,,,15,19,V,R,
227,101,17,5,1,36,44,1296,['n'],1,right,['0'],6,212,[-0.03616943],97,44,hard,plus,dotcolour,beta,,,15,19,V,R,
228,102,18,5,1,47,33,1515,['n'],0,left,['0'],6,712,[-0.06183764],92,47,medium,plus,dotcolour,beta,,,15,19,V,R,
229,103,19,5,1,47,33,664,['c'],1,left,['0'],6,203,[0.08381972],100,47,medium,plus,dotcolour,beta,,,15,19,V,R,
230,104,20,5,1,44,36,782,['n'],0,left,['0'],6,436,[-0.1460759],100,44,hard,plus,dotcolour,beta,,,15,19,V,R,
231,105,21,5,1,53,27,615,['c'],1,left,['0'],6,171,[0.06124615],99,53,easy,plus,dotcolour,beta,,,15,19,V,R,
232,106,22,5,1,53,27,1365,['c'],1,left,['0'],6,527,[0.0623482],95,53,easy,plus,dotcolour,beta,,,15,19,V,R,
233,107,23,5,1,33,47,716,['n'],1,right,['0'],6,343,[-0.06948592],98,47,medium,plus,dotcolour,beta,,,15,19,V,R,
234,108,24,5,1,36,44,1114,['n'],1,right,['0'],6,326,[-0.09162826],99,44,hard,plus,dotcolour,beta,,,15,19,V,R,
235,109,25,5,1,33,47,1883,['n'],1,right,['0'],6,271,[-0.11029251],100,47,medium,plus,dotcolour,beta,,,15,19,V,R,
236,110,26,5,1,27,53,1316,['c'],0,right,['0'],6,250,[0.0713804],99,53,easy,plus,dotcolour,beta,,,15,19,V,R,
237,111,27,5,1,44,36,983,['c'],1,left,['0'],6,138,[0.11436099],100,44,hard,plus,dotcolour,beta,,,15,19,V,R,
238,112,28,5,1,27,53,481,['n'],1,right,['0'],6,211,[-0.14930802],100,53,easy,plus,dotcolour,beta,,,15,19,V,R,
239,113,29,5,1,36,44,833,['n'],1,right,['0'],6,186,[-0.00789943],93,44,hard,plus,dotcolour,beta,,,15,19,V,R,
240,114,30,5,1,33,47,581,['n'],1,right,['0'],6,189,[-0.14907062],100,47,medium,plus,dotcolour,beta,,,15,19,V,R,
241,115,31,5,1,33,47,398,['n'],1,right,['0'],6,223,[-0.10640573],100,47,medium,plus,dotcolour,beta,,,15,19,V,R,
242,116,32,5,1,27,53,500,['n'],1,right,['0'],6,187,[-0.03094646],97,53,easy,plus,dotcolour,beta,,,15,19,V,R,
243,117,33,5,1,47,33,731,['c'],1,left,['0'],6,136,[0.09964184],100,47,medium,plus,dotcolour,beta,,,15,19,V,R,
244,118,34,5,1,33,47,682,['n'],1,right,['0'],6,177,[-0.04447101],99,47,medium,plus,dotcolour,beta,,,15,19,V,R,
245,119,35,5,1,47,33,416,['n'],0,left,['3'],3,1011,[-0.02467511],81,47,medium,plus,dotcolour,beta,,,15,19,V,R,
246,120,36,5,1,47,33,1348,['c'],1,left,['0'],6,270,[0.08578715],99,47,medium,plus,dotcolour,beta,,,15,19,V,R,
247,121,37,5,1,27,53,615,['n'],1,right,['0'],6,227,[-0.18949333],100,53,easy,plus,dotcolour,beta,,,15,19,V,R,
248,122,38,5,1,53,27,666,['c'],1,left,['0'],6,201,[0.11591891],100,53,easy,plus,dotcolour,beta,,,15,19,V,R,
249,123,39,5,1,44,36,1497,['n'],0,left,['3'],3,983,[-0.03485936],84,44,hard,plus,dotcolour,beta,,,15,19,V,R,
250,124,40,5,1,44,36,697,['c'],1,left,['0'],6,180,[0.10055868],100,44,hard,plus,dotcolour,beta,,,15,19,V,R,
251,125,41,5,1,44,36,1549,['n'],0,left,['0'],6,241,[-0.12678483],100,44,hard,plus,dotcolour,beta,,,15,19,V,R,
252,0,0,6,2,53,27,1416,['c'],1,left,['0'],6,583,[0.01955254],30,53,easy,minus,dotcolour,beta,,,15,19,V,R,
253,1,1,6,2,44,36,1050,['c'],1,left,['0'],6,215,[0.06078312],55,44,hard,minus,dotcolour,beta,,,15,19,V,R,
254,2,2,6,2,27,53,732,['n'],1,right,['0'],6,275,[-0.13538931],94,53,easy,minus,dotcolour,beta,,,15,19,V,R,
255,3,3,6,2,27,53,482,['n'],1,right,['0'],6,270,[-0.14212314],95,53,easy,minus,dotcolour,beta,,,15,19,V,R,
256,4,4,6,2,53,27,632,['c'],1,left,['0'],6,220,[0.06897457],63,53,easy,minus,dotcolour,beta,,,15,19,V,R,
257,5,5,6,2,33,47,966,['n'],1,right,['0'],6,342,[-0.13046878],91,47,medium,minus,dotcolour,beta,,,15,19,V,R,
258,6,6,6,2,47,33,1117,['n'],0,left,['0'],6,293,[-0.06964431],62,47,medium,minus,dotcolour,beta,,,15,19,V,R,
259,7,7,6,2,44,36,1733,['c'],1,left,['0'],6,230,[0.06767791],61,44,hard,minus,dotcolour,beta,,,15,19,V,R,
260,8,8,6,2,36,44,865,['n'],1,right,['9'],5,395,[-0.04209893],40,44,hard,minus,dotcolour,beta,,,15,19,V,R,
261,9,9,6,2,27,53,750,['n'],1,right,['9'],5,487,[-0.24890623],99,53,easy,minus,dotcolour,beta,,,15,19,V,R,
262,10,10,6,2,33,47,749,['n'],1,right,['9'],5,447,[-0.13297659],89,47,medium,minus,dotcolour,beta,,,15,19,V,R,
263,11,11,6,2,44,36,683,['n'],0,left,['9'],5,331,[-0.04386427],41,44,hard,minus,dotcolour,beta,,,15,19,V,R,
264,12,12,6,2,36,44,1331,['c'],0,right,['9'],5,282,[0.03656246],34,44,hard,minus,dotcolour,beta,,,15,19,V,R,
265,13,13,6,2,53,27,815,['c'],1,left,['0'],6,215,[0.2002777],100,53,easy,minus,dotcolour,beta,,,15,19,V,R,
266,14,14,6,2,36,44,547,['n'],1,right,['0'],6,355,[-0.20057131],99,44,hard,minus,dotcolour,beta,,,15,19,V,R,
267,15,15,6,2,33,47,899,['n'],1,right,['0'],6,234,[-0.09925071],84,47,medium,minus,dotcolour,beta,,,15,19,V,R,
268,16,16,6,2,36,44,649,['n'],1,right,['0'],6,216,[-0.09516442],82,44,hard,minus,dotcolour,beta,,,15,19,V,R,
269,17,17,6,2,27,53,583,['n'],1,right,['0'],6,306,[-0.05683494],51,53,easy,minus,dotcolour,beta,,,15,19,V,R,
270,18,18,6,2,36,44,765,['n'],1,right,['2'],2,1200,[0.10668777],7,44,hard,minus,dotcolour,beta,,,15,19,V,R,
271,19,19,6,2,53,27,784,['c'],1,left,['0'],6,202,[0.05256891],47,53,easy,minus,dotcolour,beta,,,15,19,V,R,
272,20,20,6,2,44,36,1081,['c'],1,left,['0'],6,127,[0.05409004],48,44,hard,minus,dotcolour,beta,,,15,19,V,R,
273,21,21,6,2,44,36,649,['c'],1,left,['9'],5,290,[0.09614418],80,44,hard,minus,dotcolour,beta,,,15,19,V,R,
274,22,22,6,2,44,36,948,['c'],1,left,['9'],5,297,[0.03154802],31,44,hard,minus,dotcolour,beta,,,15,19,V,R,
275,23,23,6,2,33,47,698,['n'],1,right,['0'],6,251,[-0.12596123],93,47,medium,minus,dotcolour,beta,,,15,19,V,R,
276,24,24,6,2,36,44,1498,['c'],0,right,['0'],6,255,[-0.01824828],7,44,hard,minus,dotcolour,beta,,,15,19,V,R,
277,25,25,6,2,47,33,1134,['c'],1,left,['0'],6,144,[0.10891906],93,47,medium,minus,dotcolour,beta,,,15,19,V,R,
278,26,26,6,2,47,33,714,['c'],1,left,['0'],6,191,[0.09373691],83,47,medium,minus,dotcolour,beta,,,15,19,V,R,
279,27,27,6,2,33,47,782,['n'],1,right,['0'],6,282,[-0.06529697],58,47,medium,minus,dotcolour,beta,,,15,19,V,R,
280,28,28,6,2,36,44,982,['n'],1,right,['0'],6,169,[-0.05300388],47,44,hard,minus,dotcolour,beta,,,15,19,V,R,
281,29,29,6,2,27,53,598,['n'],1,right,['0'],6,164,[-0.1522667],99,53,easy,minus,dotcolour,beta,,,15,19,V,R,
282,30,30,6,2,33,47,700,['n'],1,right,['0'],6,395,[-0.13667099],91,47,medium,minus,dotcolour,beta,,,15,19,V,R,
283,31,31,6,2,44,36,881,['c'],1,left,['0'],6,249,[0.14290982],96,44,hard,minus,dotcolour,beta,,,15,19,V,R,
284,32,32,6,2,53,27,598,['c'],1,left,['0'],6,217,[0.08534633],76,53,easy,minus,dotcolour,beta,,,15,19,V,R,
285,33,33,6,2,47,33,698,['c'],1,left,['0'],6,246,[0.10210649],84,47,medium,minus,dotcolour,beta,,,15,19,V,R,
286,34,34,6,2,33,47,1765,['n'],1,right,['0'],6,271,[-0.05932561],53,47,medium,minus,dotcolour,beta,,,15,19,V,R,
287,35,35,6,2,27,53,815,['n'],1,right,['0'],6,253,[-0.08830219],76,53,easy,minus,dotcolour,beta,,,15,19,V,R,
288,36,36,6,2,53,27,583,['c'],1,left,['0'],6,373,[0.17405725],97,53,easy,minus,dotcolour,beta,,,15,19,V,R,
289,37,37,6,2,47,33,1166,['c'],1,left,['0'],6,745,[0.14128188],86,47,medium,minus,dotcolour,beta,,,15,19,V,R,
290,38,38,6,2,47,33,550,['c'],1,left,['0'],6,262,[0.1480305],96,47,medium,minus,dotcolour,beta,,,15,19,V,R,
291,39,39,6,2,27,53,1182,['c'],0,right,['0'],6,4495,[-0.47424332],1,53,easy,minus,dotcolour,beta,,,15,19,V,R,
292,40,40,6,2,53,27,681,['c'],1,left,['9'],5,535,[0.23203581],99,53,easy,minus,dotcolour,beta,,,15,19,V,R,
293,41,41,6,2,47,33,866,['c'],1,left,['9'],5,256,[0.02078172],22,47,medium,minus,dotcolour,beta,,,15,19,V,R,
294,42,0,7,2,44,36,1083,['n'],0,left,['9'],5,422,[-0.08539584],70,44,hard,minus,dotcolour,beta,,,15,19,V,R,
295,43,1,7,2,53,27,815,['c'],1,left,['9'],5,366,[0.14767568],94,53,easy,minus,dotcolour,beta,,,15,19,V,R,
296,44,2,7,2,36,44,1065,['n'],1,right,['0'],6,326,[-0.15035715],95,44,hard,minus,dotcolour,beta,,,15,19,V,R,
297,45,3,7,2,44,36,882,['c'],1,left,['0'],6,279,[0.01631397],21,44,hard,minus,dotcolour,beta,,,15,19,V,R,
298,46,4,7,2,27,53,581,['n'],1,right,['0'],6,310,[-0.17985147],98,53,easy,minus,dotcolour,beta,,,15,19,V,R,
299,47,5,7,2,53,27,1600,['c'],1,left,['9'],5,436,[0.22383179],99,53,easy,minus,dotcolour,beta,,,15,19,V,R,
300,48,6,7,2,44,36,767,['n'],0,left,['0'],6,277,[-0.01691694],21,44,hard,minus,dotcolour,beta,,,15,19,V,R,
301,49,7,7,2,36,44,431,['n'],1,right,['0'],6,393,[0.00175636],16,44,hard,minus,dotcolour,beta,,,15,19,V,R,
302,50,8,7,2,27,53,665,['n'],1,right,['0'],6,369,[-0.14034604],93,53,easy,minus,dotcolour,beta,,,15,19,V,R,
303,51,9,7,2,33,47,532,['n'],1,right,['0'],6,407,[-0.10543469],80,47,medium,minus,dotcolour,beta,,,15,19,V,R,
304,52,10,7,2,27,53,599,['n'],1,right,['0'],6,327,[-0.04163121],39,53,easy,minus,dotcolour,beta,,,15,19,V,R,
305,53,11,7,2,27,53,633,['n'],1,right,['0'],6,339,[-0.13912036],93,53,easy,minus,dotcolour,beta,,,15,19,V,R,
306,54,12,7,2,44,36,1165,['c'],1,left,['0'],6,191,[0.13750357],97,44,hard,minus,dotcolour,beta,,,15,19,V,R,
307,55,13,7,2,36,44,682,['n'],1,right,['0'],6,198,[-0.05170925],46,44,hard,minus,dotcolour,beta,,,15,19,V,R,
308,56,14,7,2,36,44,532,['n'],1,right,['0'],6,186,[-0.11033366],91,44,hard,minus,dotcolour,beta,,,15,19,V,R,
309,57,15,7,2,36,44,1116,['n'],1,right,['0'],6,216,[-0.01762905],19,44,hard,minus,dotcolour,beta,,,15,19,V,R,
310,58,16,7,2,53,27,599,['c'],1,left,['0'],6,185,[0.10894644],90,53,easy,minus,dotcolour,beta,,,15,19,V,R,
311,59,17,7,2,47,33,631,['c'],1,left,['0'],6,210,[0.09370401],82,47,medium,minus,dotcolour,beta,,,15,19,V,R,
312,60,18,7,2,33,47,632,['n'],1,right,['0'],6,273,[-0.09623987],80,47,medium,minus,dotcolour,beta,,,15,19,V,R,
313,61,19,7,2,44,36,999,['c'],1,left,['0'],6,160,[0.11069359],92,44,hard,minus,dotcolour,beta,,,15,19,V,R,
314,62,20,7,2,33,47,549,['n'],1,right,['0'],6,229,[-0.0546193],49,47,medium,minus,dotcolour,beta,,,15,19,V,R,
315,63,21,7,2,33,47,549,['n'],1,right,['0'],6,247,[-0.15728617],98,47,medium,minus,dotcolour,beta,,,15,19,V,R,
316,64,22,7,2,53,27,649,['c'],1,left,['0'],6,300,[0.08630391],73,53,easy,minus,dotcolour,beta,,,15,19,V,R,
317,65,23,7,2,33,47,565,['n'],1,right,['0'],6,243,[-0.06345575],57,47,medium,minus,dotcolour,beta,,,15,19,V,R,
318,66,24,7,2,33,47,682,['n'],1,right,['0'],6,200,[-0.11635538],92,47,medium,minus,dotcolour,beta,,,15,19,V,R,
319,67,25,7,2,47,33,832,['c'],1,left,['0'],6,216,[0.14712911],97,47,medium,minus,dotcolour,beta,,,15,19,V,R,
320,68,26,7,2,47,33,466,['n'],0,left,['0'],6,247,[-0.02078267],22,47,medium,minus,dotcolour,beta,,,15,19,V,R,
321,69,27,7,2,47,33,415,['n'],0,left,['2'],2,1206,[0.0846247],9,47,medium,minus,dotcolour,beta,,,15,19,V,R,
322,70,28,7,2,53,27,914,['c'],1,left,['0'],6,250,[0.02617799],26,53,easy,minus,dotcolour,beta,,,15,19,V,R,
323,71,29,7,2,47,33,748,['c'],1,left,['0'],6,179,[0.14477601],98,47,medium,minus,dotcolour,beta,,,15,19,V,R,
324,72,30,7,2,27,53,613,['n'],1,right,['0'],6,189,[-0.17978502],99,53,easy,minus,dotcolour,beta,,,15,19,V,R,
325,73,31,7,2,47,33,1084,['c'],1,left,['0'],6,676,[0.20598538],96,47,medium,minus,dotcolour,beta,,,15,19,V,R,
326,74,32,7,2,44,36,700,['n'],0,left,['9'],5,502,[-0.02039845],29,44,hard,minus,dotcolour,beta,,,15,19,V,R,
327,75,33,7,2,53,27,781,['c'],1,left,['0'],6,332,[0.20183291],99,53,easy,minus,dotcolour,beta,,,15,19,V,R,
328,76,34,7,2,33,47,565,['n'],1,right,['0'],6,297,[-0.13298165],93,47,medium,minus,dotcolour,beta,,,15,19,V,R,
329,77,35,7,2,44,36,698,['c'],1,left,['0'],6,267,[0.11697367],89,44,hard,minus,dotcolour,beta,,,15,19,V,R,
330,78,36,7,2,53,27,515,['c'],1,left,['0'],6,629,[0.11895906],81,53,easy,minus,dotcolour,beta,,,15,19,V,R,
331,79,37,7,2,36,44,2766,['c'],0,right,['9'],5,935,[0.06088846],52,44,hard,minus,dotcolour,beta,,,15,19,V,R,
332,80,38,7,2,27,53,547,['n'],1,right,['0'],6,541,[-0.2462729],99,53,easy,minus,dotcolour,beta,,,15,19,V,R,
333,81,39,7,2,47,33,549,['c'],1,left,['0'],6,274,[0.09021146],77,47,medium,minus,dotcolour,beta,,,15,19,V,R,
334,82,40,7,2,36,44,815,['n'],1,right,['0'],6,296,[-0.11658751],88,44,hard,minus,dotcolour,beta,,,15,19,V,R,
335,83,41,7,2,27,53,514,['n'],1,right,['0'],6,289,[-0.08717734],74,53,easy,minus,dotcolour,beta,,,15,19,V,R,
336,84,0,8,2,47,33,849,['c'],1,left,['0'],6,575,[0.03217245],36,47,medium,minus,dotcolour,beta,,,15,19,V,R,
337,85,1,8,2,27,53,633,['n'],1,right,['0'],6,368,[-0.14696369],94,53,easy,minus,dotcolour,beta,,,15,19,V,R,
338,86,2,8,2,36,44,416,['n'],1,right,['0'],6,330,[-0.1129252],86,44,hard,minus,dotcolour,beta,,,15,19,V,R,
339,87,3,8,2,47,33,733,['c'],1,left,['0'],6,265,[0.10833314],86,47,medium,minus,dotcolour,beta,,,15,19,V,R,
340,88,4,8,2,44,36,633,['n'],0,left,['0'],6,383,[0.08344354],2,44,hard,minus,dotcolour,beta,,,15,19,V,R,
341,89,5,8,2,47,33,615,['c'],1,left,['0'],6,192,[0.06433253],59,47,medium,minus,dotcolour,beta,,,15,19,V,R,
342,90,6,8,2,44,36,815,['c'],1,left,['0'],6,297,[0.03082014],31,44,hard,minus,dotcolour,beta,,,15,19,V,R,
343,91,7,8,2,47,33,331,['n'],0,left,['1'],1,722,[0.03832834],12,47,medium,minus,dotcolour,beta,,,15,19,V,R,
344,92,8,8,2,53,27,831,['n'],0,left,['1'],1,581,[0.02487566],13,53,easy,minus,dotcolour,beta,,,15,19,V,R,
345,93,9,8,2,36,44,847,['n'],1,right,['0'],6,269,[-0.15879082],97,44,hard,minus,dotcolour,beta,,,15,19,V,R,
346,94,10,8,2,36,44,1331,['n'],1,right,['0'],6,375,[-0.1119597],84,44,hard,minus,dotcolour,beta,,,15,19,V,R,
347,95,11,8,2,44,36,899,['n'],0,left,['9'],5,429,[0.02324781],10,44,hard,minus,dotcolour,beta,,,15,19,V,R,
348,96,12,8,2,33,47,649,['n'],1,right,['0'],6,267,[-0.06720988],60,47,medium,minus,dotcolour,beta,,,15,19,V,R,
349,97,13,8,2,27,53,500,['n'],1,right,['9'],5,407,[-0.09747003],77,53,easy,minus,dotcolour,beta,,,15,19,V,R,
350,98,14,8,2,47,33,780,['c'],1,left,['0'],6,360,[-0.00216525],15,47,medium,minus,dotcolour,beta,,,15,19,V,R,
351,99,15,8,2,44,36,1066,['c'],1,left,['0'],6,321,[0.05865775],52,44,hard,minus,dotcolour,beta,,,15,19,V,R,
352,100,16,8,2,44,36,1015,['c'],1,left,['0'],6,564,[0.09831707],74,44,hard,minus,dotcolour,beta,,,15,19,V,R,
353,101,17,8,2,33,47,633,['n'],1,right,['0'],6,294,[-0.15467271],96,47,medium,minus,dotcolour,beta,,,15,19,V,R,
354,102,18,8,2,33,47,816,['n'],1,right,['0'],6,235,[-0.10072389],84,47,medium,minus,dotcolour,beta,,,15,19,V,R,
355,103,19,8,2,36,44,582,['n'],1,right,['0'],6,356,[-0.18312844],98,44,hard,minus,dotcolour,beta,,,15,19,V,R,
356,104,20,8,2,53,27,700,['c'],1,left,['0'],6,235,[0.1821331],99,53,easy,minus,dotcolour,beta,,,15,19,V,R,
357,105,21,8,2,44,36,833,['n'],0,left,['1'],1,954,[-0.02201078],35,44,hard,minus,dotcolour,beta,,,15,19,V,R,
358,106,22,8,2,27,53,1665,['n'],1,right,['0'],6,1003,[-0.18777101],92,53,easy,minus,dotcolour,beta,,,15,19,V,R,
359,107,23,8,2,27,53,514,['n'],1,right,['0'],6,279,[-0.10220019],83,53,easy,minus,dotcolour,beta,,,15,19,V,R,
360,108,24,8,2,33,47,965,['n'],1,right,['0'],6,247,[-0.10267345],85,47,medium,minus,dotcolour,beta,,,15,19,V,R,
361,109,25,8,2,36,44,582,['n'],1,right,['0'],6,183,[-0.07927126],73,44,hard,minus,dotcolour,beta,,,15,19,V,R,
362,110,26,8,2,33,47,467,['n'],1,right,['0'],6,254,[-0.15948203],98,47,medium,minus,dotcolour,beta,,,15,19,V,R,
363,111,27,8,2,27,53,650,['n'],1,right,['0'],6,227,[-0.08966405],78,53,easy,minus,dotcolour,beta,,,15,19,V,R,
364,112,28,8,2,36,44,1416,['c'],0,right,['0'],6,387,[0.02825712],31,44,hard,minus,dotcolour,beta,,,15,19,V,R,
365,113,29,8,2,53,27,915,['c'],1,left,['0'],6,216,[-0.00913179],8,53,easy,minus,dotcolour,beta,,,15,19,V,R,
366,114,30,8,2,36,44,699,['n'],1,right,['0'],6,205,[-0.0892136],79,44,hard,minus,dotcolour,beta,,,15,19,V,R,
367,115,31,8,2,47,33,1116,['c'],1,left,['0'],6,202,[0.10303411],87,47,medium,minus,dotcolour,beta,,,15,19,V,R,
368,116,32,8,2,27,53,530,['n'],1,right,['0'],6,239,[-0.12103834],92,53,easy,minus,dotcolour,beta,,,15,19,V,R,
369,117,33,8,2,33,47,832,['n'],1,right,['0'],6,310,[-0.02485228],27,47,medium,minus,dotcolour,beta,,,15,19,V,R,
370,118,34,8,2,44,36,1182,['c'],1,left,['0'],6,283,[0.10977837],86,44,hard,minus,dotcolour,beta,,,15,19,V,R,
371,119,35,8,2,53,27,1116,['c'],1,left,['0'],6,293,[0.14350677],95,53,easy,minus,dotcolour,beta,,,15,19,V,R,
372,120,36,8,2,53,27,716,['c'],1,left,['0'],6,270,[0.07465503],66,53,easy,minus,dotcolour,beta,,,15,19,V,R,
373,121,37,8,2,33,47,816,['n'],1,right,['0'],6,212,[-0.12871935],95,47,medium,minus,dotcolour,beta,,,15,19,V,R,
374,122,38,8,2,53,27,749,['c'],1,left,['0'],6,175,[0.1326399],97,53,easy,minus,dotcolour,beta,,,15,19,V,R,
375,123,39,8,2,47,33,966,['c'],1,left,['0'],6,195,[0.0908387],81,47,medium,minus,dotcolour,beta,,,15,19,V,R,
376,124,40,8,2,53,27,731,['c'],1,left,['0'],6,208,[0.05669181],51,53,easy,minus,dotcolour,beta,,,15,19,V,R,
377,125,41,8,2,27,53,749,['n'],1,right,['0'],6,611,[-0.22108185],98,53,easy,minus,dotcolour,beta,,,15,19,V,R,
378,0,0,9,3,33,47,733,['n'],1,right,['0'],6,390,[-0.09219763],99,47,medium,plus,dotcolour,beta,,,15,19,V,R,
379,1,1,9,3,47,33,1048,['c'],1,left,['0'],6,285,[0.11081424],100,47,medium,plus,dotcolour,beta,,,15,19,V,R,
380,2,2,9,3,36,44,650,['n'],1,right,['0'],6,289,[-0.15634599],100,44,hard,plus,dotcolour,beta,,,15,19,V,R,
381,3,3,9,3,53,27,600,['c'],1,left,['0'],6,190,[0.05577081],99,53,easy,plus,dotcolour,beta,,,15,19,V,R,
382,4,4,9,3,44,36,932,['c'],1,left,['0'],6,203,[0.0892646],100,44,hard,plus,dotcolour,beta,,,15,19,V,R,
383,5,5,9,3,36,44,699,['n'],1,right,['0'],6,272,[-0.06713967],99,44,hard,plus,dotcolour,beta,,,15,19,V,R,
384,6,6,9,3,27,53,515,['n'],1,right,['0'],6,218,[-0.14264831],100,53,easy,plus,dotcolour,beta,,,15,19,V,R,
385,7,7,9,3,36,44,799,['n'],1,right,['0'],6,242,[-0.10156342],100,44,hard,plus,dotcolour,beta,,,15,19,V,R,
386,8,8,9,3,33,47,715,['n'],1,right,['0'],6,261,[-0.07069484],99,47,medium,plus,dotcolour,beta,,,15,19,V,R,
387,9,9,9,3,53,27,563,['c'],1,left,['0'],6,166,[0.09277379],100,53,easy,plus,dotcolour,beta,,,15,19,V,R,
388,10,10,9,3,44,36,599,['n'],0,left,['0'],6,121,[-0.11159322],100,44,hard,plus,dotcolour,beta,,,15,19,V,R,
389,11,11,9,3,33,47,448,['n'],1,right,['0'],6,139,[-0.12035531],100,47,medium,plus,dotcolour,beta,,,15,19,V,R,
390,12,12,9,3,27,53,383,['n'],1,right,['0'],6,120,[-0.08443088],100,53,easy,plus,dotcolour,beta,,,15,19,V,R,
391,13,13,9,3,47,33,749,['c'],1,left,['0'],6,127,[0.14552745],100,47,medium,plus,dotcolour,beta,,,15,19,V,R,
392,14,14,9,3,44,36,667,['c'],1,left,['0'],6,80,[0.03297123],100,44,hard,plus,dotcolour,beta,,,15,19,V,R,
393,15,15,9,3,53,27,448,['c'],1,left,['0'],6,77,[0.05800434],100,53,easy,plus,dotcolour,beta,,,15,19,V,R,
394,16,16,9,3,33,47,766,['n'],1,right,['0'],6,85,[-0.09178449],100,47,medium,plus,dotcolour,beta,,,15,19,V,R,
395,17,17,9,3,36,44,715,['n'],1,right,['0'],6,110,[-0.02672013],99,44,hard,plus,dotcolour,beta,,,15,19,V,R,
396,18,18,9,3,47,33,698,['n'],0,left,['0'],6,95,[-0.05100161],100,47,medium,plus,dotcolour,beta,,,15,19,V,R,
397,19,19,9,3,33,47,631,['n'],1,right,['0'],6,179,[-0.10373782],100,47,medium,plus,dotcolour,beta,,,15,19,V,R,
398,20,20,9,3,27,53,783,['n'],1,right,['0'],6,159,[-0.05402565],99,53,easy,plus,dotcolour,beta,,,15,19,V,R,
399,21,21,9,3,47,33,632,['c'],1,left,['0'],6,304,[0.10575605],99,47,medium,plus,dotcolour,beta,,,15,19,V,R,
400,22,22,9,3,27,53,666,['n'],1,right,['0'],6,91,[-0.04673237],100,53,easy,plus,dotcolour,beta,,,15,19,V,R,
401,23,23,9,3,44,36,532,['c'],1,left,['0'],6,172,[0.12525914],100,44,hard,plus,dotcolour,beta,,,15,19,V,R,
402,24,24,9,3,36,44,548,['n'],1,right,['0'],6,88,[-0.1023585],100,44,hard,plus,dotcolour,beta,,,15,19,V,R,
403,25,25,9,3,53,27,549,['c'],1,left,['0'],6,95,[0.04907366],100,53,easy,plus,dotcolour,beta,,,15,19,V,R,
404,26,26,9,3,27,53,566,['n'],1,right,['0'],6,87,[-0.10570159],100,53,easy,plus,dotcolour,beta,,,15,19,V,R,
405,27,27,9,3,47,33,666,['c'],1,left,['0'],6,50,[0.09028031],100,47,medium,plus,dotcolour,beta,,,15,19,V,R,
406,28,28,9,3,36,44,682,['n'],1,right,['0'],6,78,[-0.12219838],100,44,hard,plus,dotcolour,beta,,,15,19,V,R,
407,29,29,9,3,47,33,615,['n'],0,left,['0'],6,36,[-0.07703961],100,47,medium,plus,dotcolour,beta,,,15,19,V,R,
408,30,30,9,3,33,47,450,['n'],1,right,['0'],6,1019,[-0.140339],97,47,medium,plus,dotcolour,beta,,,15,19,V,R,
409,31,31,9,3,36,44,716,['n'],1,right,['0'],6,46,[-0.06073288],100,44,hard,plus,dotcolour,beta,,,15,19,V,R,
410,32,32,9,3,27,53,732,['n'],1,right,['0'],6,48,[-0.09802455],100,53,easy,plus,dotcolour,beta,,,15,19,V,R,
411,33,33,9,3,53,27,816,['c'],1,left,['0'],6,63,[0.09040732],100,53,easy,plus,dotcolour,beta,,,15,19,V,R,
412,34,34,9,3,53,27,616,['c'],1,left,['0'],6,78,[0.0946958],100,53,easy,plus,dotcolour,beta,,,15,19,V,R,
413,35,35,9,3,53,27,532,['c'],1,left,['0'],6,79,[0.0647718],100,53,easy,plus,dotcolour,beta,,,15,19,V,R,
414,36,36,9,3,27,53,582,['n'],1,right,['0'],6,118,[-0.09693112],100,53,easy,plus,dotcolour,beta,,,15,19,V,R,
415,37,37,9,3,47,33,765,['c'],1,left,['0'],6,100,[0.07834994],100,47,medium,plus,dotcolour,beta,,,15,19,V,R,
416,38,38,9,3,44,36,647,['n'],0,left,['0'],6,39,[-0.11446654],100,44,hard,plus,dotcolour,beta,,,15,19,V,R,
417,39,39,9,3,44,36,900,['c'],1,left,['0'],6,68,[0.12947422],100,44,hard,plus,dotcolour,beta,,,15,19,V,R,
418,40,40,9,3,44,36,499,['n'],0,left,['0'],6,30,[-0.05792584],100,44,hard,plus,dotcolour,beta,,,15,19,V,R,
419,41,41,9,3,33,47,732,['n'],1,right,['0'],6,41,[-0.09473711],100,47,medium,plus,dotcolour,beta,,,15,19,V,R,
420,42,0,10,3,44,36,716,['c'],1,left,['0'],6,135,[0.03979029],99,44,hard,plus,dotcolour,beta,,,15,19,V,R,
421,43,1,10,3,44,36,682,['c'],1,left,['0'],6,48,[0.07466846],100,44,hard,plus,dotcolour,beta,,,15,19,V,R,
422,44,2,10,3,53,27,566,['c'],1,left,['0'],6,41,[0.08057762],100,53,easy,plus,dotcolour,beta,,,15,19,V,R,
423,45,3,10,3,53,27,548,['c'],1,left,['0'],6,35,[0.07121518],100,53,easy,plus,dotcolour,beta,,,15,19,V,R,
424,46,4,10,3,36,44,566,['n'],1,right,['0'],6,92,[-0.0691763],100,44,hard,plus,dotcolour,beta,,,15,19,V,R,
425,47,5,10,3,36,44,1083,['c'],0,right,['0'],6,1735,[0.04456458],80,44,hard,plus,dotcolour,beta,,,15,19,V,R,
426,48,6,10,3,44,36,798,['c'],1,left,['0'],6,82,[0.10664583],100,44,hard,plus,dotcolour,beta,,,15,19,V,R,
427,49,7,10,3,53,27,982,['c'],1,left,['0'],6,145,[0.06783562],100,53,easy,plus,dotcolour,beta,,,15,19,V,R,
428,50,8,10,3,53,27,532,['c'],1,left,['0'],6,112,[0.08913617],100,53,easy,plus,dotcolour,beta,,,15,19,V,R,
429,51,9,10,3,53,27,499,['c'],1,left,['0'],6,113,[0.09930209],100,53,easy,plus,dotcolour,beta,,,15,19,V,R,
430,52,10,10,3,33,47,515,['n'],1,right,['0'],6,113,[-0.13245451],100,47,medium,plus,dotcolour,beta,,,15,19,V,R,
431,53,11,10,3,27,53,650,['n'],1,right,['0'],6,220,[-0.05324524],98,53,easy,plus,dotcolour,beta,,,15,19,V,R,
432,54,12,10,3,27,53,732,['c'],0,right,['1'],1,680,[-0.11979251],20,53,easy,plus,dotcolour,beta,,,15,19,V,R,
433,55,13,10,3,47,33,898,['c'],1,left,['0'],6,113,[0.06168885],100,47,medium,plus,dotcolour,beta,,,15,19,V,R,
434,56,14,10,3,47,33,766,['c'],1,left,['0'],6,231,[0.02083004],95,47,medium,plus,dotcolour,beta,,,15,19,V,R,
435,57,15,10,3,36,44,565,['n'],1,right,['0'],6,57,[-0.10326546],100,44,hard,plus,dotcolour,beta,,,15,19,V,R,
436,58,16,10,3,27,53,513,['n'],1,right,['0'],6,51,[-0.13333463],100,53,easy,plus,dotcolour,beta,,,15,19,V,R,
437,59,17,10,3,47,33,848,['c'],1,left,['0'],6,137,[0.09290735],100,47,medium,plus,dotcolour,beta,,,15,19,V,R,
438,60,18,10,3,44,36,648,['n'],0,left,['0'],6,51,[-0.07819362],100,44,hard,plus,dotcolour,beta,,,15,19,V,R,
439,61,19,10,3,36,44,765,['n'],1,right,['0'],6,132,[-0.06876097],100,44,hard,plus,dotcolour,beta,,,15,19,V,R,
440,62,20,10,3,44,36,1248,['n'],0,left,['1'],1,711,[0.00554749],74,44,hard,plus,dotcolour,beta,,,15,19,V,R,
441,63,21,10,3,33,47,847,['n'],1,right,['0'],6,762,[-0.09501306],96,47,medium,plus,dotcolour,beta,,,15,19,V,R,
442,64,22,10,3,44,36,1316,['n'],0,left,['0'],6,120,[-0.09799973],100,44,hard,plus,dotcolour,beta,,,15,19,V,R,
443,65,23,10,3,33,47,598,['n'],1,right,['0'],6,853,[-0.06087546],91,47,medium,plus,dotcolour,beta,,,15,19,V,R,
444,66,24,10,3,33,47,632,['n'],1,right,['0'],6,11,[-0.08596801],100,47,medium,plus,dotcolour,beta,,,15,19,V,R,
445,67,25,10,3,33,47,615,['n'],1,right,['0'],6,587,[-0.04511302],91,47,medium,plus,dotcolour,beta,,,15,19,V,R,
446,68,26,10,3,47,33,765,['c'],1,left,['0'],6,63,[0.0976234],100,47,medium,plus,dotcolour,beta,,,15,19,V,R,
447,69,27,10,3,44,36,1183,['c'],1,left,['0'],6,70,[0.0559146],100,44,hard,plus,dotcolour,beta,,,15,19,V,R,
448,70,28,10,3,27,53,632,['n'],1,right,['0'],6,84,[-0.1091565],100,53,easy,plus,dotcolour,beta,,,15,19,V,R,
449,71,29,10,3,47,33,1817,['n'],0,left,['0'],6,82,[-0.08429849],100,47,medium,plus,dotcolour,beta,,,15,19,V,R,
450,72,30,10,3,53,27,701,['c'],1,left,['0'],6,140,[0.13767071],100,53,easy,plus,dotcolour,beta,,,15,19,V,R,
451,73,31,10,3,27,53,582,['n'],1,right,['0'],6,97,[-0.07861594],100,53,easy,plus,dotcolour,beta,,,15,19,V,R,
452,74,32,10,3,33,47,683,['n'],1,right,['0'],6,59,[-0.09779282],100,47,medium,plus,dotcolour,beta,,,15,19,V,R,
453,75,33,10,3,47,33,667,['c'],1,left,['0'],6,64,[0.08883238],100,47,medium,plus,dotcolour,beta,,,15,19,V,R,
454,76,34,10,3,36,44,449,['n'],1,right,['0'],6,181,[-0.1067621],100,44,hard,plus,dotcolour,beta,,,15,19,V,R,
455,77,35,10,3,27,53,716,['n'],1,right,['0'],6,58,[-0.07869055],100,53,easy,plus,dotcolour,beta,,,15,19,V,R,
456,78,36,10,3,36,44,683,['n'],1,right,['0'],6,623,[-0.12596457],98,44,hard,plus,dotcolour,beta,,,15,19,V,R,
457,79,37,10,3,53,27,600,['c'],1,left,['0'],6,71,[0.12305331],100,53,easy,plus,dotcolour,beta,,,15,19,V,R,
458,80,38,10,3,36,44,600,['n'],1,right,['0'],6,38,[-0.06483393],100,44,hard,plus,dotcolour,beta,,,15,19,V,R,
459,81,39,10,3,27,53,866,['c'],0,right,['0'],6,108,[-0.01909248],88,53,easy,plus,dotcolour,beta,,,15,19,V,R,
460,82,40,10,3,33,47,584,['n'],1,right,['0'],6,170,[-0.13390554],100,47,medium,plus,dotcolour,beta,,,15,19,V,R,
461,83,41,10,3,47,33,1267,['c'],1,left,['0'],6,106,[0.05663639],100,47,medium,plus,dotcolour,beta,,,15,19,V,R,
462,84,0,11,3,53,27,717,['c'],1,left,['0'],6,139,[0.08861285],100,53,easy,plus,dotcolour,beta,,,15,19,V,R,
463,85,1,11,3,53,27,833,['c'],1,left,['0'],6,78,[0.11796093],100,53,easy,plus,dotcolour,beta,,,15,19,V,R,
464,86,2,11,3,47,33,467,['c'],1,left,['0'],6,122,[0.09329491],100,47,medium,plus,dotcolour,beta,,,15,19,V,R,
465,87,3,11,3,44,36,399,['c'],1,left,['0'],6,87,[0.06304982],100,44,hard,plus,dotcolour,beta,,,15,19,V,R,
466,88,4,11,3,53,27,433,['c'],1,left,['0'],6,116,[0.11610561],100,53,easy,plus,dotcolour,beta,,,15,19,V,R,
467,89,5,11,3,53,27,301,['c'],1,left,['0'],6,141,[0.12302335],100,53,easy,plus,dotcolour,beta,,,15,19,V,R,
468,90,6,11,3,47,33,384,['c'],1,left,['0'],6,145,[0.04652138],99,47,medium,plus,dotcolour,beta,,,15,19,V,R,
469,91,7,11,3,44,36,467,['c'],1,left,['0'],6,114,[0.04422968],100,44,hard,plus,dotcolour,beta,,,15,19,V,R,
470,92,8,11,3,27,53,533,['n'],1,right,['0'],6,130,[-0.11163467],100,53,easy,plus,dotcolour,beta,,,15,19,V,R,
471,93,9,11,3,36,44,533,['n'],1,right,['0'],6,121,[-0.00636681],96,44,hard,plus,dotcolour,beta,,,15,19,V,R,
472,94,10,11,3,53,27,900,['n'],0,left,['0'],6,9,[-0.06996886],100,53,easy,plus,dotcolour,beta,,,15,19,V,R,
473,95,11,11,3,53,27,767,['c'],1,left,['0'],6,99,[0.03662366],99,53,easy,plus,dotcolour,beta,,,15,19,V,R,
474,96,12,11,3,27,53,450,['n'],1,right,['0'],6,103,[-0.03964365],100,53,easy,plus,dotcolour,beta,,,15,19,V,R,
475,97,13,11,3,44,36,768,['n'],0,left,['0'],6,86,[-0.07552821],100,44,hard,plus,dotcolour,beta,,,15,19,V,R,
476,98,14,11,3,36,44,649,['n'],1,right,['0'],6,138,[-0.03245486],99,44,hard,plus,dotcolour,beta,,,15,19,V,R,
477,99,15,11,3,47,33,666,['n'],0,left,['0'],6,60,[-0.08891223],100,47,medium,plus,dotcolour,beta,,,15,19,V,R,
478,100,16,11,3,44,36,950,['n'],0,left,['0'],6,45,[-0.0515605],100,44,hard,plus,dotcolour,beta,,,15,19,V,R,
479,101,17,11,3,33,47,466,['n'],1,right,['0'],6,42,[-0.07043646],100,47,medium,plus,dotcolour,beta,,,15,19,V,R,
480,102,18,11,3,36,44,516,['n'],1,right,['0'],6,21,[-0.06253389],100,44,hard,plus,dotcolour,beta,,,15,19,V,R,
481,103,19,11,3,33,47,532,['n'],1,right,['0'],6,72,[-0.04494916],100,47,medium,plus,dotcolour,beta,,,15,19,V,R,
482,104,20,11,3,36,44,500,['n'],1,right,['0'],6,43,[-0.04855521],100,44,hard,plus,dotcolour,beta,,,15,19,V,R,
483,105,21,11,3,33,47,333,['n'],1,right,['0'],6,61,[-0.04504377],100,47,medium,plus,dotcolour,beta,,,15,19,V,R,
484,106,22,11,3,27,53,400,['n'],1,right,['0'],6,148,[-0.13829761],100,53,easy,plus,dotcolour,beta,,,15,19,V,R,
485,107,23,11,3,27,53,433,['n'],1,right,['0'],6,54,[-0.0992301],100,53,easy,plus,dotcolour,beta,,,15,19,V,R,
486,108,24,11,3,47,33,700,['c'],1,left,['0'],6,122,[0.05317389],100,47,medium,plus,dotcolour,beta,,,15,19,V,R,
487,109,25,11,3,47,33,733,['n'],0,left,['0'],6,34,[-0.05313958],100,47,medium,plus,dotcolour,beta,,,15,19,V,R,
488,110,26,11,3,53,27,1084,['c'],1,left,['0'],6,103,[0.09663564],100,53,easy,plus,dotcolour,beta,,,15,19,V,R,
489,111,27,11,3,47,33,750,['n'],0,left,['1'],1,679,[-0.11722302],98,47,medium,plus,dotcolour,beta,,,15,19,V,R,
490,112,28,11,3,27,53,467,['n'],1,right,['0'],6,90,[-0.01425061],99,53,easy,plus,dotcolour,beta,,,15,19,V,R,
491,113,29,11,3,27,53,467,['n'],1,right,['0'],6,54,[-0.07552175],100,53,easy,plus,dotcolour,beta,,,15,19,V,R,
492,114,30,11,3,36,44,550,['n'],1,right,['0'],6,175,[-0.11156628],100,44,hard,plus,dotcolour,beta,,,15,19,V,R,
493,115,31,11,3,47,33,1067,['c'],1,left,['0'],6,103,[0.0722367],100,47,medium,plus,dotcolour,beta,,,15,19,V,R,
494,116,32,11,3,33,47,567,['n'],1,right,['0'],6,6,[-0.08019818],100,47,medium,plus,dotcolour,beta,,,15,19,V,R,
495,117,33,11,3,36,44,934,['n'],1,right,['0'],6,74,[-0.03446731],100,44,hard,plus,dotcolour,beta,,,15,19,V,R,
496,118,34,11,3,27,53,567,['n'],1,right,['0'],6,106,[-0.06730723],100,53,easy,plus,dotcolour,beta,,,15,19,V,R,
497,119,35,11,3,33,47,450,['n'],1,right,['0'],6,77,[-0.12625631],100,47,medium,plus,dotcolour,beta,,,15,19,V,R,
498,120,36,11,3,33,47,450,['n'],1,right,['0'],6,25,[-0.07541118],100,47,medium,plus,dotcolour,beta,,,15,19,V,R,
499,121,37,11,3,36,44,750,['c'],0,right,['0'],6,116,[0.05180409],100,44,hard,plus,dotcolour,beta,,,15,19,V,R,
500,122,38,11,3,33,47,617,['n'],1,right,['0'],6,72,[-0.09796028],100,47,medium,plus,dotcolour,beta,,,15,19,V,R,
501,123,39,11,3,44,36,1034,['n'],0,left,['0'],6,78,[-0.06367798],100,44,hard,plus,dotcolour,beta,,,15,19,V,R,
502,124,40,11,3,44,36,2400,['c'],1,left,['0'],6,124,[0.03980537],99,44,hard,plus,dotcolour,beta,,,15,19,V,R,
503,125,41,11,3,44,36,632,['n'],0,left,['0'],6,96,[-0.10634524],100,44,hard,plus,dotcolour,beta,,,15,19,V,R,
504,0,0,12,4,36,44,533,['n'],1,right,['0'],6,146,[-0.08897453],83,44,hard,minus,dotcolour,beta,,,15,19,V,R,
505,1,1,12,4,47,33,666,['c'],1,left,['0'],6,84,[0.09598345],92,47,medium,minus,dotcolour,beta,,,15,19,V,R,
506,2,2,12,4,44,36,883,['c'],1,left,['0'],6,103,[0.10376627],94,44,hard,minus,dotcolour,beta,,,15,19,V,R,
507,3,3,12,4,33,47,467,['n'],1,right,['0'],6,89,[-0.06526032],64,47,medium,minus,dotcolour,beta,,,15,19,V,R,
508,4,4,12,4,27,53,617,['n'],1,right,['0'],6,15,[-0.07408279],94,53,easy,minus,dotcolour,beta,,,15,19,V,R,
509,5,5,12,4,33,47,650,['n'],1,right,['0'],6,38,[-0.07703387],88,47,medium,minus,dotcolour,beta,,,15,19,V,R,
510,6,6,12,4,47,33,782,['c'],1,left,['0'],6,71,[0.09763988],94,47,medium,minus,dotcolour,beta,,,15,19,V,R,
511,7,7,12,4,47,33,783,['c'],1,left,['0'],6,87,[0.08380423],85,47,medium,minus,dotcolour,beta,,,15,19,V,R,
512,8,8,12,4,33,47,700,['n'],1,right,['0'],6,41,[-0.0549042],49,47,medium,minus,dotcolour,beta,,,15,19,V,R,
513,9,9,12,4,53,27,666,['c'],1,left,['0'],6,118,[0.1068528],94,53,easy,minus,dotcolour,beta,,,15,19,V,R,
514,10,10,12,4,44,36,766,['c'],1,left,['0'],6,84,[0.08109065],83,44,hard,minus,dotcolour,beta,,,15,19,V,R,
515,11,11,12,4,27,53,517,['n'],1,right,['0'],6,62,[-0.09938487],96,53,easy,minus,dotcolour,beta,,,15,19,V,R,
516,12,12,12,4,27,53,517,['n'],1,right,['0'],6,40,[-0.05571713],50,53,easy,minus,dotcolour,beta,,,15,19,V,R,
517,13,13,12,4,36,44,633,['n'],1,right,['0'],6,103,[-0.0734959],73,44,hard,minus,dotcolour,beta,,,15,19,V,R,
518,14,14,12,4,27,53,550,['n'],1,right,['0'],6,55,[-0.0578409],54,53,easy,minus,dotcolour,beta,,,15,19,V,R,
519,15,15,12,4,36,44,767,['n'],1,right,['0'],6,785,[-0.19104318],94,44,hard,minus,dotcolour,beta,,,15,19,V,R,
520,16,16,12,4,47,33,750,['c'],1,left,['0'],6,108,[0.10945023],95,47,medium,minus,dotcolour,beta,,,15,19,V,R,
521,17,17,12,4,44,36,916,['n'],0,left,['0'],6,669,[-0.12599708],82,44,hard,minus,dotcolour,beta,,,15,19,V,R,
522,18,18,12,4,33,47,700,['n'],1,right,['0'],6,31,[-0.06901447],80,47,medium,minus,dotcolour,beta,,,15,19,V,R,
523,19,19,12,4,53,27,783,['c'],1,left,['0'],6,136,[0.11474357],95,53,easy,minus,dotcolour,beta,,,15,19,V,R,
524,20,20,12,4,47,33,783,['n'],0,left,['0'],6,37,[-0.06659637],74,47,medium,minus,dotcolour,beta,,,15,19,V,R,
525,21,21,12,4,33,47,583,['n'],1,right,['0'],6,45,[-0.09868665],97,47,medium,minus,dotcolour,beta,,,15,19,V,R,
526,22,22,12,4,33,47,1600,['n'],1,right,['0'],6,357,[-0.11521078],86,47,medium,minus,dotcolour,beta,,,15,19,V,R,
527,23,23,12,4,47,33,784,['c'],1,left,['0'],6,73,[0.10291907],96,47,medium,minus,dotcolour,beta,,,15,19,V,R,
528,24,24,12,4,44,36,667,['n'],0,left,['0'],6,29,[-0.04273105],20,44,hard,minus,dotcolour,beta,,,15,19,V,R,
529,25,25,12,4,53,27,767,['c'],1,left,['0'],6,47,[0.07271301],81,53,easy,minus,dotcolour,beta,,,15,19,V,R,
530,26,26,12,4,27,53,483,['n'],1,right,['0'],6,35,[-0.11077887],100,53,easy,minus,dotcolour,beta,,,15,19,V,R,
531,27,27,12,4,27,53,384,['n'],1,right,['0'],6,12,[-0.07893675],98,53,easy,minus,dotcolour,beta,,,15,19,V,R,
532,28,28,12,4,36,44,584,['n'],1,right,['0'],6,78,[-0.10381243],96,44,hard,minus,dotcolour,beta,,,15,19,V,R,
533,29,29,12,4,36,44,715,['n'],1,right,['0'],6,855,[-0.26846317],98,44,hard,minus,dotcolour,beta,,,15,19,V,R,
534,30,30,12,4,44,36,650,['c'],1,left,['0'],6,68,[0.10201948],96,44,hard,minus,dotcolour,beta,,,15,19,V,R,
535,31,31,12,4,36,44,584,['n'],1,right,['0'],6,11,[-0.06977749],92,44,hard,minus,dotcolour,beta,,,15,19,V,R,
536,32,32,12,4,27,53,567,['n'],1,right,['0'],6,53,[-0.05451386],48,53,easy,minus,dotcolour,beta,,,15,19,V,R,
537,33,33,12,4,53,27,567,['n'],0,left,['0'],6,22,[-0.07176338],88,53,easy,minus,dotcolour,beta,,,15,19,V,R,
538,34,34,12,4,44,36,967,['c'],1,left,['0'],6,40,[0.10268085],99,44,hard,minus,dotcolour,beta,,,15,19,V,R,
539,35,35,12,4,44,36,767,['n'],0,left,['0'],6,82,[-0.05806014],54,44,hard,minus,dotcolour,beta,,,15,19,V,R,
540,36,36,12,4,53,27,767,['c'],1,left,['0'],6,89,[0.10628356],96,53,easy,minus,dotcolour,beta,,,15,19,V,R,
541,37,37,12,4,33,47,434,['n'],1,right,['0'],6,94,[-0.06147168],59,47,medium,minus,dotcolour,beta,,,15,19,V,R,
542,38,38,12,4,53,27,583,['c'],1,left,['0'],6,12,[0.06617446],85,53,easy,minus,dotcolour,beta,,,15,19,V,R,
543,39,39,12,4,36,44,767,['n'],1,right,['0'],6,46,[-0.07024369],77,44,hard,minus,dotcolour,beta,,,15,19,V,R,
544,40,40,12,4,47,33,700,['n'],0,left,['0'],6,10,[-0.06339608],80,47,medium,minus,dotcolour,beta,,,15,19,V,R,
545,41,41,12,4,53,27,599,['c'],1,left,['0'],6,75,[0.08871199],90,53,easy,minus,dotcolour,beta,,,15,19,V,R,
546,42,0,13,4,44,36,666,['c'],1,left,['0'],6,94,[0.07443836],75,44,hard,minus,dotcolour,beta,,,15,19,V,R,
547,43,1,13,4,33,47,701,['n'],1,right,['0'],6,1008,[-0.20157714],93,47,medium,minus,dotcolour,beta,,,15,19,V,R,
548,44,2,13,4,33,47,483,['n'],1,right,['0'],6,110,[-0.09582407],90,47,medium,minus,dotcolour,beta,,,15,19,V,R,
549,45,3,13,4,53,27,566,['c'],1,left,['0'],6,100,[0.12559255],98,53,easy,minus,dotcolour,beta,,,15,19,V,R,
550,46,4,13,4,53,27,600,['c'],1,left,['0'],6,210,[0.1082003],89,53,easy,minus,dotcolour,beta,,,15,19,V,R,
551,47,5,13,4,44,36,799,['c'],1,left,['0'],6,139,[0.05123824],45,44,hard,minus,dotcolour,beta,,,15,19,V,R,
552,48,6,13,4,53,27,700,['c'],1,left,['0'],6,139,[0.12406444],96,53,easy,minus,dotcolour,beta,,,15,19,V,R,
553,49,7,13,4,33,47,582,['c'],0,right,['8'],4,599,[0.01314875],27,47,medium,minus,dotcolour,beta,,,15,19,V,R,
554,50,8,13,4,36,44,399,['n'],1,right,['0'],6,113,[-0.08399227],82,44,hard,minus,dotcolour,beta,,,15,19,V,R,
555,51,9,13,4,27,53,483,['n'],1,right,['0'],6,50,[-0.12800391],100,53,easy,minus,dotcolour,beta,,,15,19,V,R,
556,52,10,13,4,33,47,449,['n'],1,right,['0'],6,136,[-0.08841473],83,47,medium,minus,dotcolour,beta,,,15,19,V,R,
557,53,11,13,4,53,27,733,['c'],1,left,['9'],5,375,[0.22859882],99,53,easy,minus,dotcolour,beta,,,15,19,V,R,
558,54,12,13,4,33,47,584,['n'],1,right,['0'],6,410,[-0.22215564],99,47,medium,minus,dotcolour,beta,,,15,19,V,R,
559,55,13,13,4,33,47,599,['n'],1,right,['0'],6,43,[-0.06008117],60,47,medium,minus,dotcolour,beta,,,15,19,V,R,
560,56,14,13,4,33,47,517,['n'],1,right,['0'],6,118,[-0.0237501],16,47,medium,minus,dotcolour,beta,,,15,19,V,R,
561,57,15,13,4,44,36,983,['c'],1,left,['0'],6,180,[0.0759774],70,44,hard,minus,dotcolour,beta,,,15,19,V,R,
562,58,16,13,4,47,33,817,['c'],1,left,['0'],6,149,[0.15704678],99,47,medium,minus,dotcolour,beta,,,15,19,V,R,
563,59,17,13,4,47,33,816,['n'],0,left,['0'],6,136,[-0.02943551],22,47,medium,minus,dotcolour,beta,,,15,19,V,R,
564,60,18,13,4,47,33,750,['c'],1,left,['0'],6,167,[0.02428665],20,47,medium,minus,dotcolour,beta,,,15,19,V,R,
565,61,19,13,4,44,36,883,['c'],1,left,['0'],6,110,[0.14615576],99,44,hard,minus,dotcolour,beta,,,15,19,V,R,
566,62,20,13,4,53,27,667,['c'],1,left,['0'],6,97,[0.11593367],97,53,easy,minus,dotcolour,beta,,,15,19,V,R,
567,63,21,13,4,53,27,600,['c'],1,left,['0'],6,110,[0.06345633],61,53,easy,minus,dotcolour,beta,,,15,19,V,R,
568,64,22,13,4,36,44,633,['n'],1,right,['0'],6,82,[-0.08329012],85,44,hard,minus,dotcolour,beta,,,15,19,V,R,
569,65,23,13,4,36,44,483,['n'],1,right,['0'],6,53,[-0.08838127],93,44,hard,minus,dotcolour,beta,,,15,19,V,R,
570,66,24,13,4,47,33,633,['n'],0,left,['0'],6,35,[-0.048376],33,47,medium,minus,dotcolour,beta,,,15,19,V,R,
571,67,25,13,4,27,53,449,['n'],1,right,['0'],6,17,[-0.05608101],52,53,easy,minus,dotcolour,beta,,,15,19,V,R,
572,68,26,13,4,27,53,717,['n'],1,right,['0'],6,1646,[-0.39841447],99,53,easy,minus,dotcolour,beta,,,15,19,V,R,
573,69,27,13,4,27,53,583,['n'],1,right,['0'],6,109,[-0.03696613],27,53,easy,minus,dotcolour,beta,,,15,19,V,R,
574,70,28,13,4,36,44,467,['n'],1,right,['0'],6,79,[-0.02956624],16,44,hard,minus,dotcolour,beta,,,15,19,V,R,
575,71,29,13,4,47,33,1166,['c'],1,left,['0'],6,135,[0.00557365],8,47,medium,minus,dotcolour,beta,,,15,19,V,R,
576,72,30,13,4,27,53,567,['n'],1,right,['0'],6,85,[-0.10787296],96,53,easy,minus,dotcolour,beta,,,15,19,V,R,
577,73,31,13,4,27,53,516,['n'],1,right,['0'],6,126,[-0.05332442],47,53,easy,minus,dotcolour,beta,,,15,19,V,R,
578,74,32,13,4,44,36,817,['c'],1,left,['9'],5,210,[0.01793954],19,44,hard,minus,dotcolour,beta,,,15,19,V,R,
579,75,33,13,4,36,44,1384,['n'],1,right,['9'],5,252,[-0.11027901],88,44,hard,minus,dotcolour,beta,,,15,19,V,R,
580,76,34,13,4,47,33,783,['c'],1,left,['9'],5,188,[0.12589444],95,47,medium,minus,dotcolour,beta,,,15,19,V,R,
581,77,35,13,4,36,44,651,['n'],1,right,['9'],5,389,[-0.16735086],96,44,hard,minus,dotcolour,beta,,,15,19,V,R,
582,78,36,13,4,36,44,900,['n'],1,right,['0'],6,339,[0.00461641],13,44,hard,minus,dotcolour,beta,,,15,19,V,R,
583,79,37,13,4,47,33,667,['c'],1,left,['9'],5,236,[0.07549164],68,47,medium,minus,dotcolour,beta,,,15,19,V,R,
584,80,38,13,4,44,36,1066,['c'],1,left,['0'],6,193,[0.10232924],87,44,hard,minus,dotcolour,beta,,,15,19,V,R,
585,81,39,13,4,44,36,950,['c'],1,left,['9'],5,349,[0.09019905],74,44,hard,minus,dotcolour,beta,,,15,19,V,R,
586,82,40,13,4,53,27,617,['c'],1,left,['0'],6,384,[0.12090887],87,53,easy,minus,dotcolour,beta,,,15,19,V,R,
587,83,41,13,4,27,53,516,['n'],1,right,['9'],5,333,[-0.04383806],41,53,easy,minus,dotcolour,beta,,,15,19,V,R,
588,84,0,14,4,33,47,517,['n'],1,right,['0'],6,192,[-0.08353443],76,47,medium,minus,dotcolour,beta,,,15,19,V,R,
589,85,1,14,4,36,44,432,['n'],1,right,['0'],6,352,[-0.08457955],71,44,hard,minus,dotcolour,beta,,,15,19,V,R,
590,86,2,14,4,36,44,534,['n'],1,right,['9'],5,455,[-0.06438571],56,44,hard,minus,dotcolour,beta,,,15,19,V,R,
591,87,3,14,4,36,44,768,['c'],0,right,['9'],5,311,[0.06259977],56,44,hard,minus,dotcolour,beta,,,15,19,V,R,
592,88,4,14,4,47,33,750,['c'],1,left,['0'],6,278,[0.12088078],90,47,medium,minus,dotcolour,beta,,,15,19,V,R,
593,89,5,14,4,47,33,516,['n'],0,left,['0'],6,231,[-0.01749383],19,47,medium,minus,dotcolour,beta,,,15,19,V,R,
594,90,6,14,4,47,33,767,['c'],1,left,['0'],6,201,[0.14114752],97,47,medium,minus,dotcolour,beta,,,15,19,V,R,
595,91,7,14,4,27,53,649,['n'],1,right,['0'],6,201,[-0.06092328],55,53,easy,minus,dotcolour,beta,,,15,19,V,R,
596,92,8,14,4,44,36,717,['c'],1,left,['9'],5,206,[0.10274338],87,44,hard,minus,dotcolour,beta,,,15,19,V,R,
597,93,9,14,4,36,44,584,['n'],1,right,['9'],5,304,[-0.13291196],93,44,hard,minus,dotcolour,beta,,,15,19,V,R,
598,94,10,14,4,53,27,666,['c'],1,left,['9'],5,227,[0.04621044],41,53,easy,minus,dotcolour,beta,,,15,19,V,R,
599,95,11,14,4,44,36,600,['n'],0,left,['9'],5,283,[-0.07186596],63,44,hard,minus,dotcolour,beta,,,15,19,V,R,
600,96,12,14,4,47,33,517,['n'],0,left,['0'],6,397,[-0.03860256],38,47,medium,minus,dotcolour,beta,,,15,19,V,R,
601,97,13,14,4,53,27,833,['c'],1,left,['9'],5,253,[0.1140905],89,53,easy,minus,dotcolour,beta,,,15,19,V,R,
602,98,14,14,4,27,53,849,['n'],1,right,['9'],5,531,[-0.14416191],90,53,easy,minus,dotcolour,beta,,,15,19,V,R,
603,99,15,14,4,47,33,533,['n'],0,left,['2'],2,730,[-0.04811633],46,47,medium,minus,dotcolour,beta,,,15,19,V,R,
604,100,16,14,4,44,36,750,['n'],0,left,['0'],6,232,[-0.17513235],99,44,hard,minus,dotcolour,beta,,,15,19,V,R,
605,101,17,14,4,33,47,467,['n'],1,right,['9'],5,310,[-0.06262872],56,47,medium,minus,dotcolour,beta,,,15,19,V,R,
606,102,18,14,4,27,53,433,['n'],1,right,['9'],5,266,[-0.10054796],83,53,easy,minus,dotcolour,beta,,,15,19,V,R,
607,103,19,14,4,36,44,568,['n'],1,right,['9'],5,194,[-0.05523339],50,44,hard,minus,dotcolour,beta,,,15,19,V,R,
608,104,20,14,4,33,47,1183,['n'],1,right,['9'],5,196,[-0.05147724],46,47,medium,minus,dotcolour,beta,,,15,19,V,R,
609,105,21,14,4,27,53,1383,['n'],1,right,['9'],5,311,[-0.14075601],94,53,easy,minus,dotcolour,beta,,,15,19,V,R,
610,106,22,14,4,44,36,1217,['c'],1,left,['9'],5,163,[0.12466009],96,44,hard,minus,dotcolour,beta,,,15,19,V,R,
611,107,23,14,4,33,47,650,['n'],1,right,['9'],5,36,[-0.08868906],96,47,medium,minus,dotcolour,beta,,,15,19,V,R,
612,108,24,14,4,53,27,733,['c'],1,left,['9'],5,119,[0.05914102],55,53,easy,minus,dotcolour,beta,,,15,19,V,R,
613,109,25,14,4,27,53,600,['n'],1,right,['9'],5,20,[-0.06650879],80,53,easy,minus,dotcolour,beta,,,15,19,V,R,
614,110,26,14,4,53,27,566,['n'],0,left,['1'],1,806,[0.03630045],14,53,easy,minus,dotcolour,beta,,,15,19,V,R,
615,111,27,14,4,33,47,900,['n'],1,right,['9'],5,99,[-0.04491324],35,47,medium,minus,dotcolour,beta,,,15,19,V,R,
616,112,28,14,4,53,27,583,['c'],1,left,['9'],5,129,[0.07854212],76,53,easy,minus,dotcolour,beta,,,15,19,V,R,
617,113,29,14,4,27,53,667,['n'],1,right,['9'],5,115,[-0.05281898],46,53,easy,minus,dotcolour,beta,,,15,19,V,R,
618,114,30,14,4,47,33,649,['c'],1,left,['9'],5,182,[0.00556814],11,47,medium,minus,dotcolour,beta,,,15,19,V,R,
619,115,31,14,4,33,47,683,['n'],1,right,['9'],5,45,[-0.06576761],70,47,medium,minus,dotcolour,beta,,,15,19,V,R,
620,116,32,14,4,44,36,2700,['c'],1,left,['9'],5,161,[0.10437716],90,44,hard,minus,dotcolour,beta,,,15,19,V,R,
621,117,33,14,4,44,36,650,['n'],0,left,['9'],5,74,[-0.03033468],16,44,hard,minus,dotcolour,beta,,,15,19,V,R,
622,118,34,14,4,33,47,1283,['n'],1,right,['8'],4,134,[-0.0714635],69,47,medium,minus,dotcolour,beta,,,15,19,V,R,
623,119,35,14,4,53,27,1233,['c'],1,left,['0'],6,81,[0.09404018],92,53,easy,minus,dotcolour,beta,,,15,19,V,R,
624,120,36,14,4,53,27,1117,['c'],1,left,['0'],6,114,[0.11830306],97,53,easy,minus,dotcolour,beta,,,15,19,V,R,
625,121,37,14,4,44,36,650,['n'],0,left,['0'],6,85,[-0.06304065],61,44,hard,minus,dotcolour,beta,,,15,19,V,R,
626,122,38,14,4,36,44,783,['n'],1,right,['0'],6,100,[-0.05738643],53,44,hard,minus,dotcolour,beta,,,15,19,V,R,
627,123,39,14,4,27,53,850,['n'],1,right,['9'],5,128,[-0.06394733],60,53,easy,minus,dotcolour,beta,,,15,19,V,R,
628,124,40,14,4,36,44,1150,['n'],1,right,['9'],5,254,[-0.10431827],85,44,hard,minus,dotcolour,beta,,,15,19,V,R,
629,125,41,14,4,47,33,701,['n'],0,left,['9'],5,538,[-0.06781374],57,47,medium,minus,dotcolour,beta,,,15,19,V,R,
630,0,0,15,5,53,27,650,['c'],1,left,['0'],6,185,[0.04668313],99,53,easy,plus,dotcolour,beta,,,15,19,V,R,
631,1,1,15,5,53,27,2266,['c'],1,left,['0'],6,288,[0.14956024],100,53,easy,plus,dotcolour,beta,,,15,19,V,R,
632,2,2,15,5,47,33,650,['n'],0,left,['0'],6,108,[-0.08480548],100,47,medium,plus,dotcolour,beta,,,15,19,V,R,
633,3,3,15,5,27,53,533,['n'],1,right,['0'],6,148,[-0.05857163],100,53,easy,plus,dotcolour,beta,,,15,19,V,R,
634,4,4,15,5,36,44,467,['n'],1,right,['0'],6,109,[-0.09939959],100,44,hard,plus,dotcolour,beta,,,15,19,V,R,
635,5,5,15,5,33,47,1250,['c'],0,right,['0'],6,128,[0.08223123],100,47,medium,plus,dotcolour,beta,,,15,19,V,R,
636,6,6,15,5,36,44,566,['n'],1,right,['0'],6,117,[-0.1140232],100,44,hard,plus,dotcolour,beta,,,15,19,V,R,
637,7,7,15,5,44,36,667,['c'],1,left,['0'],6,112,[0.1087339],100,44,hard,plus,dotcolour,beta,,,15,19,V,R,
638,8,8,15,5,44,36,1733,['c'],1,left,['0'],6,175,[0.15945423],100,44,hard,plus,dotcolour,beta,,,15,19,V,R,
639,9,9,15,5,44,36,650,['c'],1,left,['0'],6,24,[0.08219993],100,44,hard,plus,dotcolour,beta,,,15,19,V,R,
640,10,10,15,5,33,47,466,['n'],1,right,['0'],6,598,[-0.05027757],92,47,medium,plus,dotcolour,beta,,,15,19,V,R,
641,11,11,15,5,27,53,501,['n'],1,right,['0'],6,91,[-0.0644128],100,53,easy,plus,dotcolour,beta,,,15,19,V,R,
642,12,12,15,5,36,44,867,['n'],1,right,['0'],6,46,[-0.08958749],100,44,hard,plus,dotcolour,beta,,,15,19,V,R,
643,13,13,15,5,47,33,983,['c'],1,left,['0'],6,70,[0.07720192],100,47,medium,plus,dotcolour,beta,,,15,19,V,R,
644,14,14,15,5,36,44,532,['n'],1,right,['0'],6,16,[-0.08751155],100,44,hard,plus,dotcolour,beta,,,15,19,V,R,
645,15,15,15,5,47,33,1166,['c'],1,left,['0'],6,34,[0.04478649],100,47,medium,plus,dotcolour,beta,,,15,19,V,R,
646,16,16,15,5,53,27,633,['c'],1,left,['0'],6,97,[0.12506335],100,53,easy,plus,dotcolour,beta,,,15,19,V,R,
647,17,17,15,5,36,44,683,['n'],1,right,['0'],6,19,[-0.08688849],100,44,hard,plus,dotcolour,beta,,,15,19,V,R,
648,18,18,15,5,47,33,934,['c'],1,left,['0'],6,71,[0.09188011],100,47,medium,plus,dotcolour,beta,,,15,19,V,R,
649,19,19,15,5,53,27,617,['c'],1,left,['0'],6,37,[0.09961436],100,53,easy,plus,dotcolour,beta,,,15,19,V,R,
650,20,20,15,5,36,44,616,['n'],1,right,['0'],6,61,[-0.06188756],100,44,hard,plus,dotcolour,beta,,,15,19,V,R,
651,21,21,15,5,33,47,550,['n'],1,right,['0'],6,14,[-0.09427315],100,47,medium,plus,dotcolour,beta,,,15,19,V,R,
652,22,22,15,5,27,53,601,['n'],1,right,['0'],6,31,[-0.07632398],100,53,easy,plus,dotcolour,beta,,,15,19,V,R,
653,23,23,15,5,33,47,433,['n'],1,right,['0'],6,62,[-0.03711898],100,47,medium,plus,dotcolour,beta,,,15,19,V,R,
654,24,24,15,5,33,47,450,['n'],1,right,['0'],6,67,[-0.12009559],100,47,medium,plus,dotcolour,beta,,,15,19,V,R,
655,25,25,15,5,33,47,866,['n'],1,right,['0'],6,39,[-0.07559562],100,47,medium,plus,dotcolour,beta,,,15,19,V,R,
656,26,26,15,5,44,36,192,['n'],0,left,['0'],6,127,[-0.14652741],100,44,hard,plus,dotcolour,beta,,,15,19,V,R,
657,27,27,15,5,53,27,467,['c'],1,left,['0'],6,89,[-0.00458637],96,53,easy,plus,dotcolour,beta,,,15,19,V,R,
658,28,28,15,5,27,53,700,['n'],1,right,['0'],6,75,[-0.08558381],100,53,easy,plus,dotcolour,beta,,,15,19,V,R,
659,29,29,15,5,44,36,599,['n'],0,left,['0'],6,82,[-0.09228829],100,44,hard,plus,dotcolour,beta,,,15,19,V,R,
660,30,30,15,5,27,53,501,['n'],1,right,['0'],6,108,[-0.06684062],100,53,easy,plus,dotcolour,beta,,,15,19,V,R,
661,31,31,15,5,47,33,750,['c'],1,left,['0'],6,107,[0.12308693],100,47,medium,plus,dotcolour,beta,,,15,19,V,R,
662,32,32,15,5,47,33,667,['n'],0,left,['0'],6,70,[-0.05887744],100,47,medium,plus,dotcolour,beta,,,15,19,V,R,
663,33,33,15,5,33,47,817,['c'],0,right,['0'],6,364,[-0.02085261],74,47,medium,plus,dotcolour,beta,,,15,19,V,R,
664,34,34,15,5,53,27,833,['c'],1,left,['0'],6,142,[0.09764905],100,53,easy,plus,dotcolour,beta,,,15,19,V,R,
665,35,35,15,5,47,33,817,['c'],1,left,['0'],6,89,[0.06100522],100,47,medium,plus,dotcolour,beta,,,15,19,V,R,
666,36,36,15,5,44,36,583,['c'],1,left,['0'],6,112,[0.10117441],100,44,hard,plus,dotcolour,beta,,,15,19,V,R,
667,37,37,15,5,53,27,916,['c'],1,left,['0'],6,328,[0.11907619],100,53,easy,plus,dotcolour,beta,,,15,19,V,R,
668,38,38,15,5,27,53,484,['n'],1,right,['0'],6,153,[-0.13253563],100,53,easy,plus,dotcolour,beta,,,15,19,V,R,
669,39,39,15,5,36,44,916,['c'],0,right,['0'],6,96,[0.05538724],100,44,hard,plus,dotcolour,beta,,,15,19,V,R,
670,40,40,15,5,44,36,583,['n'],0,left,['0'],6,94,[-0.02482661],99,44,hard,plus,dotcolour,beta,,,15,19,V,R,
671,41,41,15,5,27,53,450,['n'],1,right,['0'],6,90,[-0.08911872],100,53,easy,plus,dotcolour,beta,,,15,19,V,R,
672,42,0,16,5,27,53,633,['n'],1,right,['0'],6,39,[-0.08808244],100,53,easy,plus,dotcolour,beta,,,15,19,V,R,
673,43,1,16,5,33,47,433,['n'],1,right,['0'],6,174,[-0.02598158],97,47,medium,plus,dotcolour,beta,,,15,19,V,R,
674,44,2,16,5,36,44,416,['n'],1,right,['0'],6,112,[-0.07425531],100,44,hard,plus,dotcolour,beta,,,15,19,V,R,
675,45,3,16,5,27,53,400,['n'],1,right,['0'],6,92,[-0.09232404],100,53,easy,plus,dotcolour,beta,,,15,19,V,R,
676,46,4,16,5,33,47,400,['n'],1,right,['0'],6,74,[-0.11892265],100,47,medium,plus,dotcolour,beta,,,15,19,V,R,
677,47,5,16,5,33,47,350,['n'],1,right,['0'],6,91,[-0.08332683],100,47,medium,plus,dotcolour,beta,,,15,19,V,R,
678,48,6,16,5,53,27,634,['c'],1,left,['0'],6,95,[0.06950552],100,53,easy,plus,dotcolour,beta,,,15,19,V,R,
679,49,7,16,5,27,53,667,['n'],1,right,['0'],6,1675,[-0.35109296],100,53,easy,plus,dotcolour,beta,,,15,19,V,R,
680,50,8,16,5,27,53,400,['n'],1,right,['0'],6,136,[-0.08038104],100,53,easy,plus,dotcolour,beta,,,15,19,V,R,
681,51,9,16,5,36,44,433,['n'],1,right,['0'],6,67,[-0.06422298],100,44,hard,plus,dotcolour,beta,,,15,19,V,R,
682,52,10,16,5,44,36,333,['n'],0,left,['0'],6,181,[-0.03971916],98,44,hard,plus,dotcolour,beta,,,15,19,V,R,
683,53,11,16,5,44,36,467,['c'],1,left,['0'],6,92,[0.07054144],100,44,hard,plus,dotcolour,beta,,,15,19,V,R,
684,54,12,16,5,36,44,583,['c'],0,right,['0'],6,130,[0.04855027],99,44,hard,plus,dotcolour,beta,,,15,19,V,R,
685,55,13,16,5,53,27,567,['c'],1,left,['0'],6,80,[0.06080493],100,53,easy,plus,dotcolour,beta,,,15,19,V,R,
686,56,14,16,5,44,36,800,['c'],1,left,['0'],6,70,[0.13352989],100,44,hard,plus,dotcolour,beta,,,15,19,V,R,
687,57,15,16,5,47,33,582,['c'],1,left,['0'],6,70,[0.08139249],100,47,medium,plus,dotcolour,beta,,,15,19,V,R,
688,58,16,16,5,53,27,684,['c'],1,left,['0'],6,57,[0.07351882],100,53,easy,plus,dotcolour,beta,,,15,19,V,R,
689,59,17,16,5,47,33,517,['c'],1,left,['0'],6,53,[0.07254748],100,47,medium,plus,dotcolour,beta,,,15,19,V,R,
690,60,18,16,5,33,47,600,['n'],1,right,['0'],6,108,[-0.14184534],100,47,medium,plus,dotcolour,beta,,,15,19,V,R,
691,61,19,16,5,36,44,934,['c'],0,right,['0'],6,68,[0.07364596],100,44,hard,plus,dotcolour,beta,,,15,19,V,R,
692,62,20,16,5,47,33,501,['c'],1,left,['0'],6,63,[0.09549879],100,47,medium,plus,dotcolour,beta,,,15,19,V,R,
693,63,21,16,5,47,33,433,['c'],1,left,['0'],6,652,[0.12833448],98,47,medium,plus,dotcolour,beta,,,15,19,V,R,
694,64,22,16,5,53,27,451,['c'],1,left,['0'],6,586,[0.18244075],100,53,easy,plus,dotcolour,beta,,,15,19,V,R,
695,65,23,16,5,53,27,450,['c'],1,left,['0'],6,26,[0.09528228],100,53,easy,plus,dotcolour,beta,,,15,19,V,R,
696,66,24,16,5,33,47,766,['n'],1,right,['0'],6,20,[-0.0967901],100,47,medium,plus,dotcolour,beta,,,15,19,V,R,
697,67,25,16,5,27,53,667,['n'],1,right,['0'],6,42,[-0.09603388],100,53,easy,plus,dotcolour,beta,,,15,19,V,R,
698,68,26,16,5,27,53,534,['n'],1,right,['0'],6,132,[-0.10711524],100,53,easy,plus,dotcolour,beta,,,15,19,V,R,
699,69,27,16,5,47,33,567,['c'],1,left,['0'],6,146,[0.07977832],100,47,medium,plus,dotcolour,beta,,,15,19,V,R,
700,70,28,16,5,44,36,983,['n'],0,left,['0'],6,38,[-0.05752472],100,44,hard,plus,dotcolour,beta,,,15,19,V,R,
701,71,29,16,5,53,27,716,['c'],1,left,['0'],6,89,[0.12252185],100,53,easy,plus,dotcolour,beta,,,15,19,V,R,
702,72,30,16,5,36,44,784,['n'],1,right,['0'],6,64,[-0.07166965],100,44,hard,plus,dotcolour,beta,,,15,19,V,R,
703,73,31,16,5,33,47,716,['n'],1,right,['0'],6,187,[-0.12700999],100,47,medium,plus,dotcolour,beta,,,15,19,V,R,
704,74,32,16,5,47,33,667,['c'],1,left,['0'],6,82,[0.07307136],100,47,medium,plus,dotcolour,beta,,,15,19,V,R,
705,75,33,16,5,53,27,516,['n'],0,left,['0'],6,164,[-0.01319887],96,53,easy,plus,dotcolour,beta,,,15,19,V,R,
706,76,34,16,5,36,44,583,['n'],1,right,['0'],6,48,[-0.09334649],100,44,hard,plus,dotcolour,beta,,,15,19,V,R,
707,77,35,16,5,44,36,433,['n'],0,left,['0'],6,134,[-0.08498304],100,44,hard,plus,dotcolour,beta,,,15,19,V,R,
708,78,36,16,5,47,33,716,['c'],1,left,['0'],6,93,[0.13866903],100,47,medium,plus,dotcolour,beta,,,15,19,V,R,
709,79,37,16,5,44,36,867,['c'],1,left,['0'],6,112,[0.07933315],100,44,hard,plus,dotcolour,beta,,,15,19,V,R,
710,80,38,16,5,36,44,750,['n'],1,right,['0'],6,143,[-0.06906964],100,44,hard,plus,dotcolour,beta,,,15,19,V,R,
711,81,39,16,5,27,53,516,['n'],1,right,['0'],6,118,[-0.08255829],100,53,easy,plus,dotcolour,beta,,,15,19,V,R,
712,82,40,16,5,44,36,600,['c'],1,left,['0'],6,83,[0.07290031],100,44,hard,plus,dotcolour,beta,,,15,19,V,R,
713,83,41,16,5,33,47,699,['n'],1,right,['0'],6,14,[-0.06833486],100,47,medium,plus,dotcolour,beta,,,15,19,V,R,
714,84,0,17,5,47,33,1151,['c'],1,left,['0'],6,156,[-0.00733905],90,47,medium,plus,dotcolour,beta,,,15,19,V,R,
715,85,1,17,5,44,36,767,['n'],0,left,['0'],6,89,[-0.02601185],99,44,hard,plus,dotcolour,beta,,,15,19,V,R,
716,86,2,17,5,33,47,517,['n'],1,right,['0'],6,34,[-0.07302734],100,47,medium,plus,dotcolour,beta,,,15,19,V,R,
717,87,3,17,5,33,47,784,['c'],0,right,['0'],6,291,[0.04303918],96,47,medium,plus,dotcolour,beta,,,15,19,V,R,
718,88,4,17,5,36,44,433,['n'],1,right,['0'],6,303,[-0.0882786],99,44,hard,plus,dotcolour,beta,,,15,19,V,R,
719,89,5,17,5,27,53,417,['n'],1,right,['0'],6,76,[-0.06623394],100,53,easy,plus,dotcolour,beta,,,15,19,V,R,
720,90,6,17,5,47,33,383,['n'],0,left,['0'],6,219,[-0.09973104],100,47,medium,plus,dotcolour,beta,,,15,19,V,R,
721,91,7,17,5,33,47,383,['c'],0,right,['0'],6,236,[0.02279332],95,47,medium,plus,dotcolour,beta,,,15,19,V,R,
722,92,8,17,5,47,33,617,['c'],1,left,['0'],6,124,[0.14772724],100,47,medium,plus,dotcolour,beta,,,15,19,V,R,
723,93,9,17,5,27,53,683,['n'],1,right,['0'],6,94,[-0.10729804],100,53,easy,plus,dotcolour,beta,,,15,19,V,R,
724,94,10,17,5,33,47,517,['n'],1,right,['0'],6,126,[-0.14025445],100,47,medium,plus,dotcolour,beta,,,15,19,V,R,
725,95,11,17,5,53,27,766,['c'],1,left,['0'],6,212,[0.08808031],100,53,easy,plus,dotcolour,beta,,,15,19,V,R,
726,96,12,17,5,47,33,466,['n'],0,left,['9'],5,226,[-0.10685118],100,47,medium,plus,dotcolour,beta,,,15,19,V,R,
727,97,13,17,5,36,44,416,['n'],1,right,['0'],6,130,[-0.10616013],100,44,hard,plus,dotcolour,beta,,,15,19,V,R,
728,98,14,17,5,27,53,600,['n'],1,right,['0'],6,126,[-0.12735791],100,53,easy,plus,dotcolour,beta,,,15,19,V,R,
729,99,15,17,5,53,27,367,['c'],1,left,['0'],6,156,[0.07712736],100,53,easy,plus,dotcolour,beta,,,15,19,V,R,
730,100,16,17,5,27,53,417,['n'],1,right,['0'],6,87,[-0.07994326],100,53,easy,plus,dotcolour,beta,,,15,19,V,R,
731,101,17,17,5,53,27,433,['c'],1,left,['0'],6,100,[0.04930458],100,53,easy,plus,dotcolour,beta,,,15,19,V,R,
732,102,18,17,5,33,47,633,['c'],0,right,['0'],6,280,[0.14506586],100,47,medium,plus,dotcolour,beta,,,15,19,V,R,
733,103,19,17,5,36,44,467,['n'],1,right,['0'],6,100,[-0.05509231],100,44,hard,plus,dotcolour,beta,,,15,19,V,R,
734,104,20,17,5,44,36,600,['c'],1,left,['0'],6,137,[0.0369452],99,44,hard,plus,dotcolour,beta,,,15,19,V,R,
735,105,21,17,5,44,36,567,['n'],0,left,['0'],6,87,[-0.04315985],100,44,hard,plus,dotcolour,beta,,,15,19,V,R,
736,106,22,17,5,36,44,867,['n'],1,right,['0'],6,539,[-0.00359883],81,44,hard,plus,dotcolour,beta,,,15,19,V,R,
737,107,23,17,5,44,36,1250,['c'],1,left,['0'],6,92,[0.05181068],100,44,hard,plus,dotcolour,beta,,,15,19,V,R,
738,108,24,17,5,27,53,483,['n'],1,right,['0'],6,62,[-0.08964637],100,53,easy,plus,dotcolour,beta,,,15,19,V,R,
739,109,25,17,5,47,33,500,['n'],0,left,['0'],6,113,[-0.09482194],100,47,medium,plus,dotcolour,beta,,,15,19,V,R,
740,110,26,17,5,53,27,417,['n'],0,left,['0'],6,86,[-0.04998226],100,53,easy,plus,dotcolour,beta,,,15,19,V,R,
741,111,27,17,5,36,44,516,['n'],1,right,['0'],6,55,[-0.08902189],100,44,hard,plus,dotcolour,beta,,,15,19,V,R,
742,112,28,17,5,53,27,866,['c'],1,left,['0'],6,108,[0.0610231],100,53,easy,plus,dotcolour,beta,,,15,19,V,R,
743,113,29,17,5,27,53,483,['n'],1,right,['0'],6,198,[-0.2506073],100,53,easy,plus,dotcolour,beta,,,15,19,V,R,
744,114,30,17,5,27,53,516,['n'],1,right,['0'],6,75,[-0.04728978],100,53,easy,plus,dotcolour,beta,,,15,19,V,R,
745,115,31,17,5,44,36,484,['n'],0,left,['0'],6,46,[-0.08521467],100,44,hard,plus,dotcolour,beta,,,15,19,V,R,
746,116,32,17,5,44,36,417,['n'],0,left,['0'],6,133,[-0.06617596],100,44,hard,plus,dotcolour,beta,,,15,19,V,R,
747,117,33,17,5,47,33,500,['c'],1,left,['0'],6,142,[0.07590698],100,47,medium,plus,dotcolour,beta,,,15,19,V,R,
748,118,34,17,5,53,27,817,['n'],0,left,['0'],6,473,[0.0034729],80,53,easy,plus,dotcolour,beta,,,15,19,V,R,
749,119,35,17,5,36,44,616,['n'],1,right,['0'],6,78,[-0.09982586],100,44,hard,plus,dotcolour,beta,,,15,19,V,R,
750,120,36,17,5,53,27,601,['c'],1,left,['0'],6,85,[0.0350865],100,53,easy,plus,dotcolour,beta,,,15,19,V,R,
751,121,37,17,5,47,33,350,['n'],0,left,['0'],6,21,[-0.0867134],100,47,medium,plus,dotcolour,beta,,,15,19,V,R,
752,122,38,17,5,33,47,433,['n'],1,right,['0'],6,60,[-0.04624771],100,47,medium,plus,dotcolour,beta,,,15,19,V,R,
753,123,39,17,5,44,36,384,['n'],0,left,['0'],6,12,[-0.06252932],100,44,hard,plus,dotcolour,beta,,,15,19,V,R,
754,124,40,17,5,33,47,449,['n'],1,right,['0'],6,51,[-0.04914126],100,47,medium,plus,dotcolour,beta,,,15,19,V,R,
755,125,41,17,5,36,44,516,['n'],1,right,['0'],6,454,[-0.07449247],97,44,hard,plus,dotcolour,beta,,,15,19,V,R,
,,,,,,,,,,,,,,,,,,,,,1,"soms was het makkelijk en kreeg je telkens alle punten, soms kreeg je slechte opunten terwijl het duidelijk juist was",15,19,V,R,
,,,,,,,,,,,,,,,,,,,,,2,['g'],15,19,V,R,
,,,,,,,,,,,,,,,,,,,,,3,['f'],15,19,V,R,
,,,,,,,,,,,,,,,,,,,,,5,[],15,19,V,R,
