trial,withinphasetrial,withinblocktrial,block,phase,dotsLeft,dotsRight,rt,resp,cor,cresp,conf_press,cj,RTconf,ev,fb,diff,difflevel,condition,task,manip,questionID,questionResp,sub,age,gender,handedness,
0,0,0,0,0,27,53,4689,['n'],1,right,['0'],6,2414,[-0.28830787],94,53,easy,minus,dotcolour,beta,,,63,18,V,R,
1,1,1,0,0,33,47,2119,['n'],1,right,['0'],6,1818,[-0.34340516],98,47,medium,minus,dotcolour,beta,,,63,18,V,R,
2,2,2,0,0,33,47,2952,['n'],1,right,['8'],4,2198,[-0.50834734],100,47,medium,minus,dotcolour,beta,,,63,18,V,R,
3,3,3,0,0,36,44,1717,['n'],1,right,['9'],5,1109,[-0.18482957],90,44,hard,minus,dotcolour,beta,,,63,18,V,R,
4,4,4,0,0,53,27,2168,['c'],1,left,['9'],5,3183,[0.20694374],82,53,easy,minus,dotcolour,beta,,,63,18,V,R,
5,5,5,0,0,47,33,1602,['c'],1,left,['9'],5,3249,[0.37967537],96,47,medium,minus,dotcolour,beta,,,63,18,V,R,
6,6,6,0,0,27,53,1451,['n'],1,right,['9'],5,1103,[-0.1117982],72,53,easy,minus,dotcolour,beta,,,63,18,V,R,
7,7,7,0,0,36,44,1219,['n'],1,right,['0'],6,951,[-0.13738518],82,44,hard,minus,dotcolour,beta,,,63,18,V,R,
8,8,8,0,0,44,36,1667,['c'],1,left,['8'],4,3411,[0.36249164],95,44,hard,minus,dotcolour,beta,,,63,18,V,R,
9,9,9,0,0,33,47,1418,['n'],1,right,['0'],6,2364,[-0.23522226],89,47,medium,minus,dotcolour,beta,,,63,18,V,R,
10,10,10,0,0,44,36,1250,['c'],1,left,['8'],4,2174,[0.10020735],63,44,hard,minus,dotcolour,beta,,,63,18,V,R,
11,11,11,0,0,47,33,1299,['c'],1,left,['9'],5,1576,[0.0771626],58,47,medium,minus,dotcolour,beta,,,63,18,V,R,
12,12,12,0,0,53,27,1100,['c'],1,left,['8'],4,1153,[0.38887127],100,53,easy,minus,dotcolour,beta,,,63,18,V,R,
13,13,13,0,0,53,27,3086,['c'],1,left,['9'],5,1115,[0.21868163],94,53,easy,minus,dotcolour,beta,,,63,18,V,R,
14,14,14,0,0,36,44,1035,['n'],1,right,['0'],6,1354,[-0.09928338],66,44,hard,minus,dotcolour,beta,,,63,18,V,R,
15,15,15,0,0,33,47,767,['n'],1,right,['0'],6,522,[-0.23538983],99,47,medium,minus,dotcolour,beta,,,63,18,V,R,
16,16,16,0,0,36,44,967,['n'],1,right,['0'],6,821,[-0.2052434],95,44,hard,minus,dotcolour,beta,,,63,18,V,R,
17,17,17,0,0,44,36,934,['c'],1,left,['8'],4,1412,[0.03666609],43,44,hard,minus,dotcolour,beta,,,63,18,V,R,
18,18,18,0,0,47,33,1050,['c'],1,left,['9'],5,583,[-0.04406162],9,47,medium,minus,dotcolour,beta,,,63,18,V,R,
19,19,19,0,0,27,53,1032,['n'],1,right,['0'],6,748,[-0.08137862],63,53,easy,minus,dotcolour,beta,,,63,18,V,R,
20,20,20,0,0,33,47,785,['n'],1,right,['0'],6,389,[-0.1160544],85,47,medium,minus,dotcolour,beta,,,63,18,V,R,
21,21,21,0,0,47,33,1300,['c'],1,left,['8'],4,1127,[0.1175658],74,47,medium,minus,dotcolour,beta,,,63,18,V,R,
22,22,22,0,0,47,33,2502,['n'],0,left,['8'],4,1954,[0.38744195],0,47,medium,minus,dotcolour,beta,,,63,18,V,R,
23,23,23,0,0,36,44,1903,['n'],1,right,['9'],5,756,[-0.04217031],43,44,hard,minus,dotcolour,beta,,,63,18,V,R,
24,24,24,0,0,53,27,1101,['c'],1,left,['9'],5,1423,[0.20437517],90,53,easy,minus,dotcolour,beta,,,63,18,V,R,
25,25,25,0,0,27,53,882,['n'],1,right,['0'],6,399,[-0.11536495],85,53,easy,minus,dotcolour,beta,,,63,18,V,R,
26,26,26,0,0,27,53,1018,['n'],1,right,['0'],6,413,[-0.11430075],84,53,easy,minus,dotcolour,beta,,,63,18,V,R,
27,27,27,0,0,33,47,769,['n'],1,right,['0'],6,388,[-0.11904577],86,47,medium,minus,dotcolour,beta,,,63,18,V,R,
28,28,28,0,0,44,36,1152,['c'],1,left,['9'],5,1222,[0.08065333],60,44,hard,minus,dotcolour,beta,,,63,18,V,R,
29,29,29,0,0,36,44,1017,['n'],1,right,['0'],6,513,[-0.07133046],60,44,hard,minus,dotcolour,beta,,,63,18,V,R,
30,30,30,0,0,53,27,2235,['n'],0,left,['3'],3,1016,[0.05149533],13,53,easy,minus,dotcolour,beta,,,63,18,V,R,
31,31,31,0,0,44,36,2017,['c'],1,left,['3'],3,1843,[0.2754927],95,44,hard,minus,dotcolour,beta,,,63,18,V,R,
32,32,32,0,0,27,53,851,['n'],1,right,['0'],6,452,[-0.03290255],35,53,easy,minus,dotcolour,beta,,,63,18,V,R,
33,33,33,0,0,53,27,2034,['c'],1,left,['8'],4,1174,[0.27969997],98,53,easy,minus,dotcolour,beta,,,63,18,V,R,
34,34,34,0,0,47,33,1568,['c'],1,left,['8'],4,668,[0.21276528],97,47,medium,minus,dotcolour,beta,,,63,18,V,R,
35,35,35,0,0,44,36,1383,['n'],0,left,['9'],5,809,[-0.01047204],29,44,hard,minus,dotcolour,beta,,,63,18,V,R,
36,36,36,0,0,33,47,1968,['n'],1,right,['0'],6,614,[-0.15402176],91,47,medium,minus,dotcolour,beta,,,63,18,V,R,
37,37,37,0,0,36,44,1283,['n'],1,right,['9'],5,360,[-0.13981367],93,44,hard,minus,dotcolour,beta,,,63,18,V,R,
38,38,38,0,0,27,53,1051,['n'],1,right,['0'],6,862,[-0.02767777],37,53,easy,minus,dotcolour,beta,,,63,18,V,R,
39,39,39,0,0,47,33,983,['c'],1,left,['3'],3,1569,[0.32116035],98,47,medium,minus,dotcolour,beta,,,63,18,V,R,
40,40,40,0,0,53,27,1499,['c'],1,left,['9'],5,891,[0.21255005],95,53,easy,minus,dotcolour,beta,,,63,18,V,R,
41,41,41,0,0,44,36,1267,['n'],0,left,['0'],6,337,[-0.06592376],58,44,hard,minus,dotcolour,beta,,,63,18,V,R,
42,42,0,1,0,33,47,868,['n'],1,right,['0'],6,783,[-0.07366633],59,47,medium,minus,dotcolour,beta,,,63,18,V,R,
43,43,1,1,0,27,53,967,['n'],1,right,['0'],6,447,[-0.06636532],57,53,easy,minus,dotcolour,beta,,,63,18,V,R,
44,44,2,1,0,53,27,1101,['c'],1,left,['0'],6,327,[0.11453629],86,53,easy,minus,dotcolour,beta,,,63,18,V,R,
45,45,3,1,0,33,47,967,['n'],1,right,['0'],6,289,[-0.13268227],93,47,medium,minus,dotcolour,beta,,,63,18,V,R,
46,46,4,1,0,44,36,917,['n'],0,left,['9'],5,568,[0.01576434],15,44,hard,minus,dotcolour,beta,,,63,18,V,R,
47,47,5,1,0,27,53,767,['n'],1,right,['0'],6,297,[-0.0307049],31,53,easy,minus,dotcolour,beta,,,63,18,V,R,
48,48,6,1,0,36,44,885,['n'],1,right,['9'],5,296,[-0.04832832],44,44,hard,minus,dotcolour,beta,,,63,18,V,R,
49,49,7,1,0,53,27,801,['c'],1,left,['9'],5,307,[0.1411856],94,53,easy,minus,dotcolour,beta,,,63,18,V,R,
50,50,8,1,0,33,47,749,['n'],1,right,['0'],6,279,[-0.05784778],52,47,medium,minus,dotcolour,beta,,,63,18,V,R,
51,51,9,1,0,33,47,867,['n'],1,right,['0'],6,272,[-0.06864413],61,47,medium,minus,dotcolour,beta,,,63,18,V,R,
52,52,10,1,0,53,27,834,['c'],1,left,['0'],6,314,[0.05054966],46,53,easy,minus,dotcolour,beta,,,63,18,V,R,
53,53,11,1,0,47,33,931,['n'],0,left,['8'],4,671,[0.0167678],17,47,medium,minus,dotcolour,beta,,,63,18,V,R,
54,54,12,1,0,27,53,735,['n'],1,right,['0'],6,261,[-0.14366305],96,53,easy,minus,dotcolour,beta,,,63,18,V,R,
55,55,13,1,0,27,53,902,['n'],1,right,['0'],6,269,[-0.12355557],91,53,easy,minus,dotcolour,beta,,,63,18,V,R,
56,56,14,1,0,44,36,734,['n'],0,left,['0'],6,259,[-0.03936254],36,44,hard,minus,dotcolour,beta,,,63,18,V,R,
57,57,15,1,0,53,27,834,['c'],1,left,['0'],6,302,[0.15034001],96,53,easy,minus,dotcolour,beta,,,63,18,V,R,
58,58,16,1,0,36,44,917,['n'],1,right,['0'],6,236,[-0.07507419],67,44,hard,minus,dotcolour,beta,,,63,18,V,R,
59,59,17,1,0,47,33,2668,['c'],1,left,['3'],3,1085,[0.14814097],83,47,medium,minus,dotcolour,beta,,,63,18,V,R,
60,60,18,1,0,53,27,1118,['c'],1,left,['9'],5,466,[0.13365672],89,53,easy,minus,dotcolour,beta,,,63,18,V,R,
61,61,19,1,0,44,36,1333,['c'],1,left,['9'],5,288,[0.11659005],89,44,hard,minus,dotcolour,beta,,,63,18,V,R,
62,62,20,1,0,47,33,1117,['c'],1,left,['9'],5,278,[0.12099177],90,47,medium,minus,dotcolour,beta,,,63,18,V,R,
63,63,21,1,0,36,44,934,['n'],1,right,['0'],6,731,[-0.2299072],98,44,hard,minus,dotcolour,beta,,,63,18,V,R,
64,64,22,1,0,36,44,834,['n'],1,right,['9'],5,882,[-0.02747268],37,44,hard,minus,dotcolour,beta,,,63,18,V,R,
65,65,23,1,0,27,53,801,['n'],1,right,['9'],5,420,[-0.19906199],98,53,easy,minus,dotcolour,beta,,,63,18,V,R,
66,66,24,1,0,47,33,800,['c'],1,left,['9'],5,281,[0.06545035],58,47,medium,minus,dotcolour,beta,,,63,18,V,R,
67,67,25,1,0,44,36,1217,['n'],0,left,['0'],6,300,[-0.13552123],93,44,hard,minus,dotcolour,beta,,,63,18,V,R,
68,68,26,1,0,53,27,1166,['c'],1,left,['9'],5,183,[0.11798091],93,53,easy,minus,dotcolour,beta,,,63,18,V,R,
69,69,27,1,0,27,53,751,['n'],1,right,['0'],6,272,[-0.17994821],99,53,easy,minus,dotcolour,beta,,,63,18,V,R,
70,70,28,1,0,36,44,765,['n'],1,right,['0'],6,214,[-0.09101128],80,44,hard,minus,dotcolour,beta,,,63,18,V,R,
71,71,29,1,0,47,33,1136,['c'],1,left,['3'],3,1470,[0.39945204],99,47,medium,minus,dotcolour,beta,,,63,18,V,R,
72,72,30,1,0,36,44,1816,['n'],1,right,['8'],4,527,[0.00141724],20,44,hard,minus,dotcolour,beta,,,63,18,V,R,
73,73,31,1,0,36,44,1067,['n'],1,right,['0'],6,590,[-0.0740003],61,44,hard,minus,dotcolour,beta,,,63,18,V,R,
74,74,32,1,0,53,27,1600,['c'],1,left,['8'],4,683,[0.14166611],87,53,easy,minus,dotcolour,beta,,,63,18,V,R,
75,75,33,1,0,44,36,985,['n'],0,left,['0'],6,366,[-0.06662484],58,44,hard,minus,dotcolour,beta,,,63,18,V,R,
76,76,34,1,0,33,47,867,['n'],1,right,['0'],6,227,[-0.13727446],96,47,medium,minus,dotcolour,beta,,,63,18,V,R,
77,77,35,1,0,47,33,1049,['n'],0,left,['3'],3,1390,[0.01894717],24,47,medium,minus,dotcolour,beta,,,63,18,V,R,
78,78,36,1,0,27,53,450,['n'],1,right,['0'],6,466,[-0.23301682],99,53,easy,minus,dotcolour,beta,,,63,18,V,R,
79,79,37,1,0,44,36,598,['n'],0,left,['9'],5,1262,[0.07769057],11,44,hard,minus,dotcolour,beta,,,63,18,V,R,
80,80,38,1,0,33,47,600,['n'],1,right,['0'],6,529,[-0.17140821],95,47,medium,minus,dotcolour,beta,,,63,18,V,R,
81,81,39,1,0,47,33,383,['n'],0,left,['3'],3,1363,[0.10165658],8,47,medium,minus,dotcolour,beta,,,63,18,V,R,
82,82,40,1,0,33,47,633,['n'],1,right,['0'],6,321,[-0.09758195],79,47,medium,minus,dotcolour,beta,,,63,18,V,R,
83,83,41,1,0,44,36,1165,['c'],1,left,['8'],4,652,[0.0671885],56,44,hard,minus,dotcolour,beta,,,63,18,V,R,
84,84,0,2,0,36,44,1001,['n'],1,right,['0'],6,322,[-0.02807183],29,44,hard,minus,dotcolour,beta,,,63,18,V,R,
85,85,1,2,0,44,36,1733,['c'],1,left,['8'],4,878,[-0.05035261],12,44,hard,minus,dotcolour,beta,,,63,18,V,R,
86,86,2,2,0,53,27,1217,['c'],1,left,['9'],5,1064,[0.1580176],86,53,easy,minus,dotcolour,beta,,,63,18,V,R,
87,87,3,2,0,33,47,733,['n'],1,right,['0'],6,286,[-0.01632918],21,47,medium,minus,dotcolour,beta,,,63,18,V,R,
88,88,4,2,0,27,53,734,['n'],1,right,['0'],6,284,[-0.14863274],96,53,easy,minus,dotcolour,beta,,,63,18,V,R,
89,89,5,2,0,33,47,884,['n'],1,right,['0'],6,308,[-0.05632247],51,47,medium,minus,dotcolour,beta,,,63,18,V,R,
90,90,6,2,0,53,27,1151,['c'],1,left,['8'],4,607,[0.28569849],100,53,easy,minus,dotcolour,beta,,,63,18,V,R,
91,91,7,2,0,33,47,967,['n'],1,right,['0'],6,238,[-0.17908767],99,47,medium,minus,dotcolour,beta,,,63,18,V,R,
92,92,8,2,0,47,33,1235,['c'],1,left,['9'],5,473,[0.0272087],32,47,medium,minus,dotcolour,beta,,,63,18,V,R,
93,93,9,2,0,36,44,633,['n'],1,right,['0'],6,283,[-0.0856715],73,44,hard,minus,dotcolour,beta,,,63,18,V,R,
94,94,10,2,0,27,53,732,['n'],1,right,['0'],6,305,[-0.17594655],98,53,easy,minus,dotcolour,beta,,,63,18,V,R,
95,95,11,2,0,47,33,952,['n'],0,left,['0'],6,301,[-0.00572367],16,47,medium,minus,dotcolour,beta,,,63,18,V,R,
96,96,12,2,0,47,33,835,['c'],1,left,['9'],5,327,[0.08829563],74,47,medium,minus,dotcolour,beta,,,63,18,V,R,
97,97,13,2,0,47,33,1417,['c'],1,left,['0'],6,927,[0.09722901],69,47,medium,minus,dotcolour,beta,,,63,18,V,R,
98,98,14,2,0,36,44,834,['n'],1,right,['0'],6,270,[-0.01841189],22,44,hard,minus,dotcolour,beta,,,63,18,V,R,
99,99,15,2,0,53,27,1200,['c'],1,left,['8'],4,594,[0.09246083],70,53,easy,minus,dotcolour,beta,,,63,18,V,R,
100,100,16,2,0,53,27,800,['c'],1,left,['8'],4,304,[0.11735822],88,53,easy,minus,dotcolour,beta,,,63,18,V,R,
101,101,17,2,0,53,27,718,['c'],1,left,['8'],4,334,[0.12063852],88,53,easy,minus,dotcolour,beta,,,63,18,V,R,
102,102,18,2,0,44,36,1751,['c'],1,left,['9'],5,912,[0.07424926],59,44,hard,minus,dotcolour,beta,,,63,18,V,R,
103,103,19,2,0,44,36,1301,['n'],0,left,['0'],6,309,[0.00105845],14,44,hard,minus,dotcolour,beta,,,63,18,V,R,
104,104,20,2,0,33,47,1083,['n'],1,right,['9'],5,588,[-0.29827574],100,47,medium,minus,dotcolour,beta,,,63,18,V,R,
105,105,21,2,0,27,53,866,['n'],1,right,['0'],6,399,[-0.16826793],96,53,easy,minus,dotcolour,beta,,,63,18,V,R,
106,106,22,2,0,36,44,1283,['n'],1,right,['8'],4,298,[-0.09392191],78,44,hard,minus,dotcolour,beta,,,63,18,V,R,
107,107,23,2,0,44,36,1034,['n'],0,left,['8'],4,315,[-0.06706535],59,44,hard,minus,dotcolour,beta,,,63,18,V,R,
108,108,24,2,0,47,33,1268,['c'],1,left,['8'],4,474,[0.15822565],94,47,medium,minus,dotcolour,beta,,,63,18,V,R,
109,109,25,2,0,27,53,734,['n'],1,right,['0'],6,289,[-0.20538456],99,53,easy,minus,dotcolour,beta,,,63,18,V,R,
110,110,26,2,0,44,36,649,['n'],0,left,['0'],6,273,[-0.07974517],70,44,hard,minus,dotcolour,beta,,,63,18,V,R,
111,111,27,2,0,36,44,1384,['n'],1,right,['0'],6,708,[-0.20833289],96,44,hard,minus,dotcolour,beta,,,63,18,V,R,
112,112,28,2,0,53,27,950,['c'],1,left,['0'],6,792,[0.14585346],86,53,easy,minus,dotcolour,beta,,,63,18,V,R,
113,113,29,2,0,47,33,2183,['c'],1,left,['8'],4,901,[0.16569788],89,47,medium,minus,dotcolour,beta,,,63,18,V,R,
114,114,30,2,0,44,36,1265,['n'],0,left,['8'],4,484,[-0.03592357],38,44,hard,minus,dotcolour,beta,,,63,18,V,R,
115,115,31,2,0,27,53,966,['n'],1,right,['0'],6,487,[-0.17172254],95,53,easy,minus,dotcolour,beta,,,63,18,V,R,
116,116,32,2,0,53,27,901,['c'],1,left,['0'],6,510,[-0.10563412],2,53,easy,minus,dotcolour,beta,,,63,18,V,R,
117,117,33,2,0,44,36,984,['n'],0,left,['0'],6,288,[0.0182637],8,44,hard,minus,dotcolour,beta,,,63,18,V,R,
118,118,34,2,0,36,44,1184,['n'],1,right,['0'],6,356,[-0.02724137],30,44,hard,minus,dotcolour,beta,,,63,18,V,R,
119,119,35,2,0,33,47,766,['n'],1,right,['0'],6,341,[-0.05985853],53,47,medium,minus,dotcolour,beta,,,63,18,V,R,
120,120,36,2,0,27,53,1034,['n'],1,right,['0'],6,284,[-0.05755868],52,53,easy,minus,dotcolour,beta,,,63,18,V,R,
121,121,37,2,0,47,33,1117,['n'],0,left,['0'],6,322,[-0.06034841],54,47,medium,minus,dotcolour,beta,,,63,18,V,R,
122,122,38,2,0,36,44,967,['n'],1,right,['0'],6,228,[-0.01242223],16,44,hard,minus,dotcolour,beta,,,63,18,V,R,
123,123,39,2,0,33,47,816,['n'],1,right,['0'],6,209,[-0.06399346],58,47,medium,minus,dotcolour,beta,,,63,18,V,R,
124,124,40,2,0,33,47,2268,['n'],1,right,['0'],6,235,[-0.03429802],31,47,medium,minus,dotcolour,beta,,,63,18,V,R,
125,125,41,2,0,27,53,632,['n'],1,right,['0'],6,159,[-0.08490266],79,53,easy,minus,dotcolour,beta,,,63,18,V,R,
126,0,0,3,1,47,33,2419,['c'],1,left,['9'],5,435,[0.05492431],95,47,medium,plus,dotcolour,beta,,,63,18,V,R,
127,1,1,3,1,44,36,1451,['n'],0,left,['9'],5,301,[-0.03959791],96,44,hard,plus,dotcolour,beta,,,63,18,V,R,
128,2,2,3,1,27,53,633,['n'],1,right,['9'],5,311,[-0.09020918],99,53,easy,plus,dotcolour,beta,,,63,18,V,R,
129,3,3,3,1,33,47,781,['n'],1,right,['0'],6,362,[-0.0798411],98,47,medium,plus,dotcolour,beta,,,63,18,V,R,
130,4,4,3,1,53,27,1217,['c'],1,left,['0'],6,504,[0.0678157],96,53,easy,plus,dotcolour,beta,,,63,18,V,R,
131,5,5,3,1,47,33,1752,['c'],1,left,['8'],4,715,[0.05252961],91,47,medium,plus,dotcolour,beta,,,63,18,V,R,
132,6,6,3,1,33,47,550,['n'],1,right,['0'],6,751,[-0.06295905],92,47,medium,plus,dotcolour,beta,,,63,18,V,R,
133,7,7,3,1,44,36,1200,['n'],0,left,['8'],4,919,[-0.06928734],91,44,hard,plus,dotcolour,beta,,,63,18,V,R,
134,8,8,3,1,36,44,769,['n'],1,right,['0'],6,865,[0.03899223],58,44,hard,plus,dotcolour,beta,,,63,18,V,R,
135,9,9,3,1,27,53,600,['n'],1,right,['0'],6,492,[-0.00366047],82,53,easy,plus,dotcolour,beta,,,63,18,V,R,
136,10,10,3,1,33,47,649,['n'],1,right,['0'],6,349,[-0.12540144],100,47,medium,plus,dotcolour,beta,,,63,18,V,R,
137,11,11,3,1,44,36,1082,['c'],1,left,['8'],4,554,[0.05972384],94,44,hard,plus,dotcolour,beta,,,63,18,V,R,
138,12,12,3,1,53,27,884,['c'],1,left,['9'],5,422,[0.2802809],100,53,easy,plus,dotcolour,beta,,,63,18,V,R,
139,13,13,3,1,53,27,985,['c'],1,left,['9'],5,708,[0.00453253],78,53,easy,plus,dotcolour,beta,,,63,18,V,R,
140,14,14,3,1,33,47,1285,['c'],0,right,['0'],6,234,[0.05522987],98,47,medium,plus,dotcolour,beta,,,63,18,V,R,
141,15,15,3,1,47,33,1685,['n'],0,left,['3'],3,1387,[0.06424167],47,47,medium,plus,dotcolour,beta,,,63,18,V,R,
142,16,16,3,1,36,44,1084,['n'],1,right,['0'],6,1053,[-0.19514816],99,44,hard,plus,dotcolour,beta,,,63,18,V,R,
143,17,17,3,1,53,27,1032,['c'],1,left,['0'],6,535,[0.31351911],100,53,easy,plus,dotcolour,beta,,,63,18,V,R,
144,18,18,3,1,44,36,1450,['n'],0,left,['8'],4,406,[-0.00224872],84,44,hard,plus,dotcolour,beta,,,63,18,V,R,
145,19,19,3,1,44,36,1066,['n'],0,left,['3'],3,673,[-0.07713687],95,44,hard,plus,dotcolour,beta,,,63,18,V,R,
146,20,20,3,1,27,53,917,['n'],1,right,['0'],6,351,[-0.23856375],100,53,easy,plus,dotcolour,beta,,,63,18,V,R,
147,21,21,3,1,36,44,1001,['n'],1,right,['0'],6,1128,[0.03157685],60,44,hard,plus,dotcolour,beta,,,63,18,V,R,
148,22,22,3,1,36,44,733,['n'],1,right,['0'],6,395,[-0.17078875],100,44,hard,plus,dotcolour,beta,,,63,18,V,R,
149,23,23,3,1,36,44,566,['n'],1,right,['0'],6,283,[-0.09699439],99,44,hard,plus,dotcolour,beta,,,63,18,V,R,
150,24,24,3,1,36,44,584,['n'],1,right,['0'],6,351,[-0.08717924],99,44,hard,plus,dotcolour,beta,,,63,18,V,R,
151,25,25,3,1,33,47,583,['n'],1,right,['0'],6,383,[-0.10352664],99,47,medium,plus,dotcolour,beta,,,63,18,V,R,
152,26,26,3,1,27,53,600,['n'],1,right,['0'],6,310,[-0.1663664],100,53,easy,plus,dotcolour,beta,,,63,18,V,R,
153,27,27,3,1,47,33,833,['n'],0,left,['9'],5,367,[-0.05199174],96,47,medium,plus,dotcolour,beta,,,63,18,V,R,
154,28,28,3,1,33,47,583,['n'],1,right,['0'],6,328,[-0.03729476],95,47,medium,plus,dotcolour,beta,,,63,18,V,R,
155,29,29,3,1,27,53,616,['n'],1,right,['0'],6,288,[-0.09459342],99,53,easy,plus,dotcolour,beta,,,63,18,V,R,
156,30,30,3,1,47,33,585,['n'],0,left,['0'],6,301,[0.03067224],69,47,medium,plus,dotcolour,beta,,,63,18,V,R,
157,31,31,3,1,47,33,1367,['c'],1,left,['9'],5,696,[0.17820641],99,47,medium,plus,dotcolour,beta,,,63,18,V,R,
158,32,32,3,1,53,27,883,['c'],1,left,['9'],5,327,[0.17147853],100,53,easy,plus,dotcolour,beta,,,63,18,V,R,
159,33,33,3,1,27,53,935,['n'],1,right,['0'],6,242,[-0.16824999],100,53,easy,plus,dotcolour,beta,,,63,18,V,R,
160,34,34,3,1,44,36,967,['c'],1,left,['0'],6,448,[0.0935473],98,44,hard,plus,dotcolour,beta,,,63,18,V,R,
161,35,35,3,1,33,47,700,['n'],1,right,['0'],6,257,[-0.06816816],99,47,medium,plus,dotcolour,beta,,,63,18,V,R,
162,36,36,3,1,47,33,1667,['c'],1,left,['9'],5,354,[0.18726352],100,47,medium,plus,dotcolour,beta,,,63,18,V,R,
163,37,37,3,1,53,27,1918,['n'],0,left,['0'],6,285,[-0.07337239],99,53,easy,plus,dotcolour,beta,,,63,18,V,R,
164,38,38,3,1,27,53,682,['n'],1,right,['0'],6,221,[-0.05116392],98,53,easy,plus,dotcolour,beta,,,63,18,V,R,
165,39,39,3,1,53,27,849,['c'],1,left,['9'],5,217,[0.08740924],100,53,easy,plus,dotcolour,beta,,,63,18,V,R,
166,40,40,3,1,44,36,800,['n'],0,left,['0'],6,231,[-0.08175381],99,44,hard,plus,dotcolour,beta,,,63,18,V,R,
167,41,41,3,1,36,44,732,['n'],1,right,['0'],6,335,[-0.09495778],99,44,hard,plus,dotcolour,beta,,,63,18,V,R,
168,42,0,4,1,36,44,1086,['n'],1,right,['0'],6,688,[-0.06949328],94,44,hard,plus,dotcolour,beta,,,63,18,V,R,
169,43,1,4,1,53,27,4753,['c'],1,left,['3'],3,944,[0.12801675],97,53,easy,plus,dotcolour,beta,,,63,18,V,R,
170,44,2,4,1,36,44,717,['n'],1,right,['0'],6,356,[-0.08619391],99,44,hard,plus,dotcolour,beta,,,63,18,V,R,
171,45,3,4,1,36,44,618,['n'],1,right,['0'],6,371,[-0.2316086],100,44,hard,plus,dotcolour,beta,,,63,18,V,R,
172,46,4,4,1,53,27,669,['n'],0,left,['0'],6,175,[0.02467182],79,53,easy,plus,dotcolour,beta,,,63,18,V,R,
173,47,5,4,1,27,53,650,['n'],1,right,['0'],6,133,[-0.07463716],100,53,easy,plus,dotcolour,beta,,,63,18,V,R,
174,48,6,4,1,44,36,600,['n'],0,left,['0'],6,167,[-0.0814415],100,44,hard,plus,dotcolour,beta,,,63,18,V,R,
175,49,7,4,1,27,53,466,['n'],1,right,['0'],6,141,[-0.12346953],100,53,easy,plus,dotcolour,beta,,,63,18,V,R,
176,50,8,4,1,36,44,564,['n'],1,right,['0'],6,127,[-0.08023828],100,44,hard,plus,dotcolour,beta,,,63,18,V,R,
177,51,9,4,1,47,33,900,['n'],0,left,['9'],5,621,[-0.03440666],89,47,medium,plus,dotcolour,beta,,,63,18,V,R,
178,52,10,4,1,53,27,1167,['n'],0,left,['8'],4,635,[-0.12473333],98,53,easy,plus,dotcolour,beta,,,63,18,V,R,
179,53,11,4,1,44,36,850,['n'],0,left,['8'],4,470,[0.15905333],6,44,hard,plus,dotcolour,beta,,,63,18,V,R,
180,54,12,4,1,33,47,1015,['n'],1,right,['9'],5,313,[-0.21680339],100,47,medium,plus,dotcolour,beta,,,63,18,V,R,
181,55,13,4,1,47,33,949,['n'],0,left,['8'],4,1156,[-0.11936965],95,47,medium,plus,dotcolour,beta,,,63,18,V,R,
182,56,14,4,1,27,53,768,['n'],1,right,['0'],6,181,[-0.12195756],100,53,easy,plus,dotcolour,beta,,,63,18,V,R,
183,57,15,4,1,33,47,665,['n'],1,right,['0'],6,394,[-0.10876544],99,47,medium,plus,dotcolour,beta,,,63,18,V,R,
184,58,16,4,1,53,27,1283,['c'],1,left,['0'],6,429,[0.14415157],100,53,easy,plus,dotcolour,beta,,,63,18,V,R,
185,59,17,4,1,33,47,1466,['n'],1,right,['0'],6,1727,[-0.20236967],97,47,medium,plus,dotcolour,beta,,,63,18,V,R,
186,60,18,4,1,44,36,1700,['c'],1,left,['8'],4,457,[0.07661777],97,44,hard,plus,dotcolour,beta,,,63,18,V,R,
187,61,19,4,1,36,44,615,['n'],1,right,['0'],6,229,[-0.04247331],98,44,hard,plus,dotcolour,beta,,,63,18,V,R,
188,62,20,4,1,47,33,882,['c'],1,left,['0'],6,247,[0.0808162],99,47,medium,plus,dotcolour,beta,,,63,18,V,R,
189,63,21,4,1,53,27,1583,['c'],1,left,['0'],6,292,[0.19960002],100,53,easy,plus,dotcolour,beta,,,63,18,V,R,
190,64,22,4,1,27,53,833,['n'],1,right,['0'],6,213,[-0.0666274],99,53,easy,plus,dotcolour,beta,,,63,18,V,R,
191,65,23,4,1,47,33,817,['n'],0,left,['0'],6,178,[-0.12671111],100,47,medium,plus,dotcolour,beta,,,63,18,V,R,
192,66,24,4,1,27,53,818,['n'],1,right,['0'],6,201,[-0.08999362],100,53,easy,plus,dotcolour,beta,,,63,18,V,R,
193,67,25,4,1,33,47,1068,['n'],1,right,['0'],6,141,[-0.11622828],100,47,medium,plus,dotcolour,beta,,,63,18,V,R,
194,68,26,4,1,47,33,1150,['n'],0,left,['9'],5,111,[-0.03019974],99,47,medium,plus,dotcolour,beta,,,63,18,V,R,
195,69,27,4,1,44,36,717,['n'],0,left,['0'],6,141,[-0.09434494],100,44,hard,plus,dotcolour,beta,,,63,18,V,R,
196,70,28,4,1,47,33,1636,['n'],0,left,['8'],4,172,[-0.04279867],99,47,medium,plus,dotcolour,beta,,,63,18,V,R,
197,71,29,4,1,33,47,1051,['n'],1,right,['9'],5,522,[-0.19864494],100,47,medium,plus,dotcolour,beta,,,63,18,V,R,
198,72,30,4,1,47,33,950,['n'],0,left,['8'],4,429,[-0.06540818],97,47,medium,plus,dotcolour,beta,,,63,18,V,R,
199,73,31,4,1,36,44,2068,['n'],1,right,['8'],4,182,[-0.1189068],100,44,hard,plus,dotcolour,beta,,,63,18,V,R,
200,74,32,4,1,44,36,2051,['n'],0,left,['8'],4,194,[-0.03274386],97,44,hard,plus,dotcolour,beta,,,63,18,V,R,
201,75,33,4,1,44,36,1133,['n'],0,left,['0'],6,148,[-0.06489542],100,44,hard,plus,dotcolour,beta,,,63,18,V,R,
202,76,34,4,1,33,47,1884,['n'],1,right,['8'],4,224,[0.00654719],87,47,medium,plus,dotcolour,beta,,,63,18,V,R,
203,77,35,4,1,53,27,1184,['c'],1,left,['9'],5,159,[0.15661621],100,53,easy,plus,dotcolour,beta,,,63,18,V,R,
204,78,36,4,1,36,44,2468,['c'],0,right,['9'],5,482,[-0.04997818],54,44,hard,plus,dotcolour,beta,,,63,18,V,R,
205,79,37,4,1,27,53,1067,['n'],1,right,['0'],6,178,[-0.10414146],100,53,easy,plus,dotcolour,beta,,,63,18,V,R,
206,80,38,4,1,33,47,1267,['n'],1,right,['0'],6,143,[0.01628659],87,47,medium,plus,dotcolour,beta,,,63,18,V,R,
207,81,39,4,1,44,36,1450,['n'],0,left,['9'],5,597,[0.02106179],69,44,hard,plus,dotcolour,beta,,,63,18,V,R,
208,82,40,4,1,27,53,967,['n'],1,right,['0'],6,157,[-0.04552993],99,53,easy,plus,dotcolour,beta,,,63,18,V,R,
209,83,41,4,1,53,27,1366,['c'],1,left,['9'],5,230,[0.02846883],96,53,easy,plus,dotcolour,beta,,,63,18,V,R,
210,84,0,5,1,47,33,1435,['c'],1,left,['0'],6,319,[0.16187066],100,47,medium,plus,dotcolour,beta,,,63,18,V,R,
211,85,1,5,1,44,36,1001,['n'],0,left,['0'],6,232,[-0.06009302],99,44,hard,plus,dotcolour,beta,,,63,18,V,R,
212,86,2,5,1,27,53,734,['n'],1,right,['0'],6,184,[-0.04295073],98,53,easy,plus,dotcolour,beta,,,63,18,V,R,
213,87,3,5,1,36,44,682,['n'],1,right,['0'],6,148,[-0.16922554],100,44,hard,plus,dotcolour,beta,,,63,18,V,R,
214,88,4,5,1,53,27,933,['c'],1,left,['0'],6,255,[0.1218412],100,53,easy,plus,dotcolour,beta,,,63,18,V,R,
215,89,5,5,1,53,27,784,['c'],1,left,['0'],6,212,[0.11970418],100,53,easy,plus,dotcolour,beta,,,63,18,V,R,
216,90,6,5,1,53,27,1100,['c'],1,left,['9'],5,199,[0.03829324],98,53,easy,plus,dotcolour,beta,,,63,18,V,R,
217,91,7,5,1,33,47,1217,['n'],1,right,['0'],6,212,[-0.03098614],97,47,medium,plus,dotcolour,beta,,,63,18,V,R,
218,92,8,5,1,47,33,1400,['n'],0,left,['0'],6,177,[-0.01953434],96,47,medium,plus,dotcolour,beta,,,63,18,V,R,
219,93,9,5,1,44,36,2953,['n'],0,left,['8'],4,728,[-0.03491378],87,44,hard,plus,dotcolour,beta,,,63,18,V,R,
220,94,10,5,1,27,53,867,['n'],1,right,['0'],6,182,[-0.16367276],100,53,easy,plus,dotcolour,beta,,,63,18,V,R,
221,95,11,5,1,53,27,917,['c'],1,left,['9'],5,673,[-0.01009921],73,53,easy,plus,dotcolour,beta,,,63,18,V,R,
222,96,12,5,1,27,53,934,['n'],1,right,['0'],6,423,[-0.09783049],99,53,easy,plus,dotcolour,beta,,,63,18,V,R,
223,97,13,5,1,33,47,750,['n'],1,right,['9'],5,390,[-0.12132684],99,47,medium,plus,dotcolour,beta,,,63,18,V,R,
224,98,14,5,1,44,36,1084,['n'],0,left,['8'],4,433,[-0.07892416],98,44,hard,plus,dotcolour,beta,,,63,18,V,R,
225,99,15,5,1,36,44,785,['n'],1,right,['0'],6,223,[-0.0734832],99,44,hard,plus,dotcolour,beta,,,63,18,V,R,
226,100,16,5,1,36,44,852,['n'],1,right,['0'],6,146,[-0.08966164],100,44,hard,plus,dotcolour,beta,,,63,18,V,R,
227,101,17,5,1,33,47,835,['n'],1,right,['9'],5,217,[-0.04460471],98,47,medium,plus,dotcolour,beta,,,63,18,V,R,
228,102,18,5,1,33,47,1185,['n'],1,right,['0'],6,232,[-0.10572028],100,47,medium,plus,dotcolour,beta,,,63,18,V,R,
229,103,19,5,1,27,53,701,['n'],1,right,['0'],6,233,[-0.0815799],99,53,easy,plus,dotcolour,beta,,,63,18,V,R,
230,104,20,5,1,53,27,1552,['c'],1,left,['9'],5,280,[0.05435239],98,53,easy,plus,dotcolour,beta,,,63,18,V,R,
231,105,21,5,1,44,36,1017,['n'],0,left,['0'],6,370,[-0.04011481],94,44,hard,plus,dotcolour,beta,,,63,18,V,R,
232,106,22,5,1,53,27,1233,['n'],0,left,['9'],5,152,[-0.0032323],94,53,easy,plus,dotcolour,beta,,,63,18,V,R,
233,107,23,5,1,27,53,816,['n'],1,right,['0'],6,128,[-0.13854422],100,53,easy,plus,dotcolour,beta,,,63,18,V,R,
234,108,24,5,1,27,53,767,['n'],1,right,['0'],6,115,[-0.07003291],100,53,easy,plus,dotcolour,beta,,,63,18,V,R,
235,109,25,5,1,33,47,766,['n'],1,right,['0'],6,54,[-0.09841143],100,47,medium,plus,dotcolour,beta,,,63,18,V,R,
236,110,26,5,1,47,33,1015,['c'],1,left,['0'],6,291,[0.15401335],100,47,medium,plus,dotcolour,beta,,,63,18,V,R,
237,111,27,5,1,27,53,682,['n'],1,right,['0'],6,98,[-0.1361179],100,53,easy,plus,dotcolour,beta,,,63,18,V,R,
238,112,28,5,1,47,33,1251,['c'],1,left,['8'],4,306,[0.11416057],100,47,medium,plus,dotcolour,beta,,,63,18,V,R,
239,113,29,5,1,33,47,766,['n'],1,right,['0'],6,183,[-0.10689762],100,47,medium,plus,dotcolour,beta,,,63,18,V,R,
240,114,30,5,1,47,33,1100,['c'],1,left,['9'],5,122,[0.08261861],100,47,medium,plus,dotcolour,beta,,,63,18,V,R,
241,115,31,5,1,47,33,1133,['n'],0,left,['9'],5,310,[0.00459554],84,47,medium,plus,dotcolour,beta,,,63,18,V,R,
242,116,32,5,1,33,47,867,['n'],1,right,['8'],4,221,[-0.05950575],99,47,medium,plus,dotcolour,beta,,,63,18,V,R,
243,117,33,5,1,53,27,2135,['n'],0,left,['9'],5,292,[-0.13110808],100,53,easy,plus,dotcolour,beta,,,63,18,V,R,
244,118,34,5,1,36,44,716,['n'],1,right,['9'],5,218,[-0.09045487],100,44,hard,plus,dotcolour,beta,,,63,18,V,R,
245,119,35,5,1,44,36,1016,['n'],0,left,['9'],5,135,[-0.10081814],100,44,hard,plus,dotcolour,beta,,,63,18,V,R,
246,120,36,5,1,47,33,1000,['n'],0,left,['8'],4,392,[0.02377603],71,47,medium,plus,dotcolour,beta,,,63,18,V,R,
247,121,37,5,1,44,36,800,['n'],0,left,['8'],4,215,[0.04853887],57,44,hard,plus,dotcolour,beta,,,63,18,V,R,
248,122,38,5,1,36,44,2501,['n'],1,right,['8'],4,407,[-0.04223342],94,44,hard,plus,dotcolour,beta,,,63,18,V,R,
249,123,39,5,1,36,44,1417,['n'],1,right,['8'],4,372,[-0.1955946],100,44,hard,plus,dotcolour,beta,,,63,18,V,R,
250,124,40,5,1,44,36,917,['n'],0,left,['8'],4,438,[-0.09669723],98,44,hard,plus,dotcolour,beta,,,63,18,V,R,
251,125,41,5,1,36,44,952,['n'],1,right,['9'],5,1086,[0.06618815],45,44,hard,plus,dotcolour,beta,,,63,18,V,R,
252,0,0,6,2,36,44,1301,['n'],1,right,['0'],6,501,[-0.0447433],43,44,hard,minus,dotcolour,beta,,,63,18,V,R,
253,1,1,6,2,44,36,1050,['n'],0,left,['9'],5,301,[-0.02001059],24,44,hard,minus,dotcolour,beta,,,63,18,V,R,
254,2,2,6,2,27,53,583,['n'],1,right,['0'],6,192,[-0.05462457],49,53,easy,minus,dotcolour,beta,,,63,18,V,R,
255,3,3,6,2,27,53,648,['n'],1,right,['0'],6,126,[-0.07091637],69,53,easy,minus,dotcolour,beta,,,63,18,V,R,
256,4,4,6,2,44,36,1034,['n'],0,left,['9'],5,190,[-0.08860407],80,44,hard,minus,dotcolour,beta,,,63,18,V,R,
257,5,5,6,2,36,44,800,['n'],1,right,['0'],6,125,[-0.05289269],47,44,hard,minus,dotcolour,beta,,,63,18,V,R,
258,6,6,6,2,53,27,2084,['c'],1,left,['9'],5,169,[0.11426697],93,53,easy,minus,dotcolour,beta,,,63,18,V,R,
259,7,7,6,2,33,47,866,['n'],1,right,['0'],6,119,[-0.07598267],74,47,medium,minus,dotcolour,beta,,,63,18,V,R,
260,8,8,6,2,44,36,1267,['n'],0,left,['8'],4,813,[-0.09179194],67,44,hard,minus,dotcolour,beta,,,63,18,V,R,
261,9,9,6,2,36,44,718,['n'],1,right,['8'],4,158,[-0.01555119],14,44,hard,minus,dotcolour,beta,,,63,18,V,R,
262,10,10,6,2,44,36,1149,['n'],0,left,['9'],5,488,[-0.03950198],40,44,hard,minus,dotcolour,beta,,,63,18,V,R,
263,11,11,6,2,53,27,948,['n'],0,left,['3'],3,933,[0.08254463],7,53,easy,minus,dotcolour,beta,,,63,18,V,R,
264,12,12,6,2,44,36,2084,['c'],1,left,['8'],4,624,[0.19352505],96,44,hard,minus,dotcolour,beta,,,63,18,V,R,
265,13,13,6,2,36,44,1335,['n'],1,right,['9'],5,183,[-0.08227967],75,44,hard,minus,dotcolour,beta,,,63,18,V,R,
266,14,14,6,2,33,47,800,['n'],1,right,['9'],5,870,[-0.09919223],70,47,medium,minus,dotcolour,beta,,,63,18,V,R,
267,15,15,6,2,33,47,616,['n'],1,right,['9'],5,601,[-0.17201068],94,47,medium,minus,dotcolour,beta,,,63,18,V,R,
268,16,16,6,2,33,47,715,['n'],1,right,['0'],6,195,[-0.11285264],91,47,medium,minus,dotcolour,beta,,,63,18,V,R,
269,17,17,6,2,53,27,867,['c'],1,left,['9'],5,711,[0.15510425],89,53,easy,minus,dotcolour,beta,,,63,18,V,R,
270,18,18,6,2,47,33,1018,['n'],0,left,['0'],6,279,[-0.00664409],16,47,medium,minus,dotcolour,beta,,,63,18,V,R,
271,19,19,6,2,36,44,1801,['n'],1,right,['0'],6,194,[-0.16357574],99,44,hard,minus,dotcolour,beta,,,63,18,V,R,
272,20,20,6,2,33,47,683,['n'],1,right,['0'],6,229,[-0.03623027],33,47,medium,minus,dotcolour,beta,,,63,18,V,R,
273,21,21,6,2,47,33,918,['c'],1,left,['0'],6,174,[0.07299738],68,47,medium,minus,dotcolour,beta,,,63,18,V,R,
274,22,22,6,2,53,27,1050,['c'],1,left,['9'],5,251,[0.05722074],51,53,easy,minus,dotcolour,beta,,,63,18,V,R,
275,23,23,6,2,27,53,850,['n'],1,right,['0'],6,166,[-0.18491391],100,53,easy,minus,dotcolour,beta,,,63,18,V,R,
276,24,24,6,2,47,33,915,['n'],0,left,['0'],6,329,[0.00487396],13,47,medium,minus,dotcolour,beta,,,63,18,V,R,
277,25,25,6,2,53,27,1235,['n'],0,left,['8'],4,1481,[0.1385399],5,53,easy,minus,dotcolour,beta,,,63,18,V,R,
278,26,26,6,2,33,47,1001,['n'],1,right,['9'],5,227,[-0.03566044],32,47,medium,minus,dotcolour,beta,,,63,18,V,R,
279,27,27,6,2,33,47,635,['n'],1,right,['9'],5,215,[-0.0980741],84,47,medium,minus,dotcolour,beta,,,63,18,V,R,
280,28,28,6,2,27,53,716,['n'],1,right,['9'],5,136,[-0.13341369],98,53,easy,minus,dotcolour,beta,,,63,18,V,R,
281,29,29,6,2,44,36,1083,['c'],1,left,['9'],5,166,[0.06149254],57,44,hard,minus,dotcolour,beta,,,63,18,V,R,
282,30,30,6,2,47,33,1117,['n'],0,left,['0'],6,618,[-0.07726842],62,47,medium,minus,dotcolour,beta,,,63,18,V,R,
283,31,31,6,2,44,36,950,['n'],0,left,['9'],5,329,[-0.05919911],53,44,hard,minus,dotcolour,beta,,,63,18,V,R,
284,32,32,6,2,47,33,967,['c'],1,left,['9'],5,179,[0.10890252],91,47,medium,minus,dotcolour,beta,,,63,18,V,R,
285,33,33,6,2,47,33,1165,['c'],1,left,['9'],5,132,[0.07444981],72,47,medium,minus,dotcolour,beta,,,63,18,V,R,
286,34,34,6,2,53,27,648,['c'],1,left,['9'],5,171,[0.08052343],75,53,easy,minus,dotcolour,beta,,,63,18,V,R,
287,35,35,6,2,36,44,716,['n'],1,right,['0'],6,175,[-0.088421],80,44,hard,minus,dotcolour,beta,,,63,18,V,R,
288,36,36,6,2,27,53,768,['n'],1,right,['0'],6,192,[-0.16204984],99,53,easy,minus,dotcolour,beta,,,63,18,V,R,
289,37,37,6,2,53,27,933,['c'],1,left,['9'],5,273,[0.078183],69,53,easy,minus,dotcolour,beta,,,63,18,V,R,
290,38,38,6,2,36,44,865,['n'],1,right,['0'],6,155,[-0.14857522],99,44,hard,minus,dotcolour,beta,,,63,18,V,R,
291,39,39,6,2,47,33,1233,['n'],0,left,['0'],6,225,[-0.022719],22,47,medium,minus,dotcolour,beta,,,63,18,V,R,
292,40,40,6,2,27,53,697,['n'],1,right,['0'],6,210,[-0.11719894],92,53,easy,minus,dotcolour,beta,,,63,18,V,R,
293,41,41,6,2,27,53,700,['n'],1,right,['0'],6,165,[-0.16477163],99,53,easy,minus,dotcolour,beta,,,63,18,V,R,
294,42,0,7,2,36,44,834,['n'],1,right,['0'],6,185,[0.00660911],7,44,hard,minus,dotcolour,beta,,,63,18,V,R,
295,43,1,7,2,44,36,949,['n'],0,left,['0'],6,386,[-0.09582928],76,44,hard,minus,dotcolour,beta,,,63,18,V,R,
296,44,2,7,2,27,53,866,['n'],1,right,['0'],6,191,[-0.07642736],70,53,easy,minus,dotcolour,beta,,,63,18,V,R,
297,45,3,7,2,53,27,817,['c'],1,left,['0'],6,557,[0.33299694],100,53,easy,minus,dotcolour,beta,,,63,18,V,R,
298,46,4,7,2,27,53,651,['n'],1,right,['0'],6,98,[-0.08361198],83,53,easy,minus,dotcolour,beta,,,63,18,V,R,
299,47,5,7,2,27,53,584,['n'],1,right,['0'],6,118,[-0.04712873],39,53,easy,minus,dotcolour,beta,,,63,18,V,R,
300,48,6,7,2,53,27,1316,['c'],1,left,['8'],4,531,[0.09744435],74,53,easy,minus,dotcolour,beta,,,63,18,V,R,
301,49,7,7,2,33,47,1083,['n'],1,right,['0'],6,201,[-0.13345266],96,47,medium,minus,dotcolour,beta,,,63,18,V,R,
302,50,8,7,2,33,47,817,['n'],1,right,['9'],5,334,[-0.16414019],97,47,medium,minus,dotcolour,beta,,,63,18,V,R,
303,51,9,7,2,47,33,983,['c'],1,left,['9'],5,304,[0.08803598],74,47,medium,minus,dotcolour,beta,,,63,18,V,R,
304,52,10,7,2,53,27,1081,['n'],0,left,['8'],4,638,[-0.04644298],45,53,easy,minus,dotcolour,beta,,,63,18,V,R,
305,53,11,7,2,47,33,749,['n'],0,left,['9'],5,477,[-0.12827075],87,47,medium,minus,dotcolour,beta,,,63,18,V,R,
306,54,12,7,2,44,36,617,['n'],0,left,['3'],3,1047,[0.03308735],17,44,hard,minus,dotcolour,beta,,,63,18,V,R,
307,55,13,7,2,44,36,834,['n'],0,left,['8'],4,650,[-0.09569681],71,44,hard,minus,dotcolour,beta,,,63,18,V,R,
308,56,14,7,2,47,33,1132,['n'],0,left,['8'],4,704,[-0.21137374],97,47,medium,minus,dotcolour,beta,,,63,18,V,R,
309,57,15,7,2,36,44,883,['n'],1,right,['9'],5,287,[-0.09443306],79,44,hard,minus,dotcolour,beta,,,63,18,V,R,
310,58,16,7,2,47,33,501,['n'],0,left,['8'],4,1039,[0.16893999],2,47,medium,minus,dotcolour,beta,,,63,18,V,R,
311,59,17,7,2,47,33,1116,['c'],1,left,['8'],4,558,[0.23281601],99,47,medium,minus,dotcolour,beta,,,63,18,V,R,
312,60,18,7,2,47,33,718,['n'],0,left,['3'],3,729,[0.10657738],3,47,medium,minus,dotcolour,beta,,,63,18,V,R,
313,61,19,7,2,33,47,750,['n'],1,right,['9'],5,428,[-0.14923164],93,47,medium,minus,dotcolour,beta,,,63,18,V,R,
314,62,20,7,2,53,27,1150,['c'],1,left,['9'],5,442,[0.14357741],92,53,easy,minus,dotcolour,beta,,,63,18,V,R,
315,63,21,7,2,53,27,933,['n'],0,left,['9'],5,386,[-0.08230888],68,53,easy,minus,dotcolour,beta,,,63,18,V,R,
316,64,22,7,2,36,44,833,['n'],1,right,['9'],5,463,[-0.18117935],97,44,hard,minus,dotcolour,beta,,,63,18,V,R,
317,65,23,7,2,36,44,818,['n'],1,right,['9'],5,338,[-0.17322776],97,44,hard,minus,dotcolour,beta,,,63,18,V,R,
318,66,24,7,2,44,36,700,['n'],0,left,['0'],6,311,[0.02245185],7,44,hard,minus,dotcolour,beta,,,63,18,V,R,
319,67,25,7,2,53,27,1067,['n'],0,left,['9'],5,310,[-0.03510524],34,53,easy,minus,dotcolour,beta,,,63,18,V,R,
320,68,26,7,2,44,36,601,['n'],0,left,['9'],5,360,[-0.06904075],60,44,hard,minus,dotcolour,beta,,,63,18,V,R,
321,69,27,7,2,44,36,1085,['n'],0,left,['8'],4,356,[-0.08821335],73,44,hard,minus,dotcolour,beta,,,63,18,V,R,
322,70,28,7,2,27,53,350,['n'],1,right,['8'],4,783,[-0.10986937],75,53,easy,minus,dotcolour,beta,,,63,18,V,R,
323,71,29,7,2,47,33,1201,['n'],0,left,['8'],4,317,[-0.03272996],33,47,medium,minus,dotcolour,beta,,,63,18,V,R,
324,72,30,7,2,33,47,667,['n'],1,right,['9'],5,333,[-0.16735563],97,47,medium,minus,dotcolour,beta,,,63,18,V,R,
325,73,31,7,2,33,47,616,['n'],1,right,['0'],6,358,[-0.17606973],97,47,medium,minus,dotcolour,beta,,,63,18,V,R,
326,74,32,7,2,44,36,615,['n'],0,left,['9'],5,333,[-0.12818125],91,44,hard,minus,dotcolour,beta,,,63,18,V,R,
327,75,33,7,2,27,53,731,['n'],1,right,['9'],5,321,[-0.07604689],66,53,easy,minus,dotcolour,beta,,,63,18,V,R,
328,76,34,7,2,27,53,682,['n'],1,right,['0'],6,216,[-0.05810255],52,53,easy,minus,dotcolour,beta,,,63,18,V,R,
329,77,35,7,2,36,44,715,['n'],1,right,['0'],6,241,[-0.07699519],69,44,hard,minus,dotcolour,beta,,,63,18,V,R,
330,78,36,7,2,36,44,549,['n'],1,right,['9'],5,312,[-0.10309101],82,44,hard,minus,dotcolour,beta,,,63,18,V,R,
331,79,37,7,2,33,47,684,['n'],1,right,['0'],6,231,[-0.06082107],55,47,medium,minus,dotcolour,beta,,,63,18,V,R,
332,80,38,7,2,53,27,933,['c'],1,left,['9'],5,287,[0.11637552],89,53,easy,minus,dotcolour,beta,,,63,18,V,R,
333,81,39,7,2,33,47,867,['n'],1,right,['0'],6,215,[-0.12352845],93,47,medium,minus,dotcolour,beta,,,63,18,V,R,
334,82,40,7,2,36,44,882,['n'],1,right,['0'],6,418,[-0.07860393],66,44,hard,minus,dotcolour,beta,,,63,18,V,R,
335,83,41,7,2,27,53,716,['n'],1,right,['0'],6,170,[-0.07972088],74,53,easy,minus,dotcolour,beta,,,63,18,V,R,
336,84,0,8,2,33,47,617,['n'],1,right,['9'],5,486,[-0.14288974],91,47,medium,minus,dotcolour,beta,,,63,18,V,R,
337,85,1,8,2,44,36,466,['n'],0,left,['8'],4,517,[-0.15682775],93,44,hard,minus,dotcolour,beta,,,63,18,V,R,
338,86,2,8,2,36,44,533,['n'],1,right,['8'],4,283,[-0.03657531],34,44,hard,minus,dotcolour,beta,,,63,18,V,R,
339,87,3,8,2,27,53,882,['n'],1,right,['0'],6,282,[-0.15831932],97,53,easy,minus,dotcolour,beta,,,63,18,V,R,
340,88,4,8,2,47,33,549,['n'],0,left,['9'],5,296,[-0.0345511],33,47,medium,minus,dotcolour,beta,,,63,18,V,R,
341,89,5,8,2,36,44,700,['n'],1,right,['9'],5,254,[-0.02980787],29,44,hard,minus,dotcolour,beta,,,63,18,V,R,
342,90,6,8,2,53,27,482,['n'],0,left,['3'],3,1272,[0.17206448],3,53,easy,minus,dotcolour,beta,,,63,18,V,R,
343,91,7,8,2,44,36,783,['n'],0,left,['9'],5,291,[-0.01059066],18,44,hard,minus,dotcolour,beta,,,63,18,V,R,
344,92,8,8,2,27,53,598,['n'],1,right,['0'],6,222,[-0.10848695],88,53,easy,minus,dotcolour,beta,,,63,18,V,R,
345,93,9,8,2,47,33,465,['n'],0,left,['3'],3,3106,[0.34156273],2,47,medium,minus,dotcolour,beta,,,63,18,V,R,
346,94,10,8,2,44,36,533,['n'],0,left,['8'],4,1516,[0.02451493],24,44,hard,minus,dotcolour,beta,,,63,18,V,R,
347,95,11,8,2,53,27,599,['n'],0,left,['3'],3,580,[0.08207471],4,53,easy,minus,dotcolour,beta,,,63,18,V,R,
348,96,12,8,2,36,44,566,['n'],1,right,['9'],5,365,[-0.15671183],95,44,hard,minus,dotcolour,beta,,,63,18,V,R,
349,97,13,8,2,33,47,400,['n'],1,right,['0'],6,349,[-0.1598291],96,47,medium,minus,dotcolour,beta,,,63,18,V,R,
350,98,14,8,2,33,47,432,['n'],1,right,['9'],5,525,[-0.03938086],40,47,medium,minus,dotcolour,beta,,,63,18,V,R,
351,99,15,8,2,47,33,765,['n'],0,left,['3'],3,512,[0.04793673],7,47,medium,minus,dotcolour,beta,,,63,18,V,R,
352,100,16,8,2,33,47,565,['n'],1,right,['9'],5,379,[-0.19165335],98,47,medium,minus,dotcolour,beta,,,63,18,V,R,
353,101,17,8,2,44,36,633,['n'],0,left,['0'],6,345,[-0.00748639],19,44,hard,minus,dotcolour,beta,,,63,18,V,R,
354,102,18,8,2,44,36,715,['n'],0,left,['9'],5,237,[-0.09992092],84,44,hard,minus,dotcolour,beta,,,63,18,V,R,
355,103,19,8,2,53,27,1018,['c'],1,left,['9'],5,290,[0.09985946],81,53,easy,minus,dotcolour,beta,,,63,18,V,R,
356,104,20,8,2,27,53,667,['n'],1,right,['0'],6,162,[-0.13493481],97,53,easy,minus,dotcolour,beta,,,63,18,V,R,
357,105,21,8,2,33,47,600,['n'],1,right,['0'],6,170,[-0.07811721],73,47,medium,minus,dotcolour,beta,,,63,18,V,R,
358,106,22,8,2,53,27,750,['c'],1,left,['0'],6,196,[0.01803023],18,53,easy,minus,dotcolour,beta,,,63,18,V,R,
359,107,23,8,2,47,33,1217,['n'],0,left,['8'],4,610,[0.04703134],9,47,medium,minus,dotcolour,beta,,,63,18,V,R,
360,108,24,8,2,47,33,865,['n'],0,left,['0'],6,293,[0.01684381],8,47,medium,minus,dotcolour,beta,,,63,18,V,R,
361,109,25,8,2,33,47,582,['n'],1,right,['0'],6,176,[-0.12945265],96,47,medium,minus,dotcolour,beta,,,63,18,V,R,
362,110,26,8,2,47,33,601,['n'],0,left,['0'],6,264,[-0.14158604],95,47,medium,minus,dotcolour,beta,,,63,18,V,R,
363,111,27,8,2,27,53,650,['n'],1,right,['9'],5,242,[-0.11744008],91,53,easy,minus,dotcolour,beta,,,63,18,V,R,
364,112,28,8,2,27,53,450,['n'],1,right,['0'],6,301,[-0.04638021],43,53,easy,minus,dotcolour,beta,,,63,18,V,R,
365,113,29,8,2,36,44,832,['n'],1,right,['0'],6,167,[-0.1003189],88,44,hard,minus,dotcolour,beta,,,63,18,V,R,
366,114,30,8,2,27,53,617,['n'],1,right,['0'],6,159,[-0.07250856],68,53,easy,minus,dotcolour,beta,,,63,18,V,R,
367,115,31,8,2,53,27,900,['c'],1,left,['0'],6,123,[0.0507061],44,53,easy,minus,dotcolour,beta,,,63,18,V,R,
368,116,32,8,2,53,27,783,['c'],1,left,['9'],5,261,[0.14628475],96,53,easy,minus,dotcolour,beta,,,63,18,V,R,
369,117,33,8,2,36,44,868,['n'],1,right,['0'],6,166,[-0.15324636],99,44,hard,minus,dotcolour,beta,,,63,18,V,R,
370,118,34,8,2,33,47,633,['n'],1,right,['0'],6,197,[-0.12528117],94,47,medium,minus,dotcolour,beta,,,63,18,V,R,
371,119,35,8,2,36,44,783,['n'],1,right,['9'],5,156,[-0.07977188],75,44,hard,minus,dotcolour,beta,,,63,18,V,R,
372,120,36,8,2,47,33,1085,['c'],1,left,['9'],5,257,[0.08527348],74,47,medium,minus,dotcolour,beta,,,63,18,V,R,
373,121,37,8,2,53,27,633,['c'],1,left,['9'],5,252,[0.08019003],71,53,easy,minus,dotcolour,beta,,,63,18,V,R,
374,122,38,8,2,44,36,899,['c'],1,left,['8'],4,164,[0.03522076],29,44,hard,minus,dotcolour,beta,,,63,18,V,R,
375,123,39,8,2,36,44,933,['n'],1,right,['0'],6,367,[-0.12304151],88,44,hard,minus,dotcolour,beta,,,63,18,V,R,
376,124,40,8,2,44,36,483,['n'],0,left,['9'],5,836,[-0.04664873],46,44,hard,minus,dotcolour,beta,,,63,18,V,R,
377,125,41,8,2,27,53,267,['n'],1,right,['0'],6,815,[-0.09713124],70,53,easy,minus,dotcolour,beta,,,63,18,V,R,
378,0,0,9,3,36,44,1251,['n'],1,right,['9'],5,214,[-0.15650703],100,44,hard,plus,dotcolour,beta,,,63,18,V,R,
379,1,1,9,3,36,44,882,['n'],1,right,['9'],5,192,[-0.05827063],99,44,hard,plus,dotcolour,beta,,,63,18,V,R,
380,2,2,9,3,33,47,783,['n'],1,right,['0'],6,976,[-0.04884825],87,47,medium,plus,dotcolour,beta,,,63,18,V,R,
381,3,3,9,3,36,44,983,['n'],1,right,['0'],6,775,[-0.20145319],99,44,hard,plus,dotcolour,beta,,,63,18,V,R,
382,4,4,9,3,53,27,733,['c'],1,left,['0'],6,232,[0.06846246],99,53,easy,plus,dotcolour,beta,,,63,18,V,R,
383,5,5,9,3,44,36,1150,['n'],0,left,['8'],4,607,[-0.18359712],100,44,hard,plus,dotcolour,beta,,,63,18,V,R,
384,6,6,9,3,47,33,1202,['c'],1,left,['9'],5,405,[0.10596277],99,47,medium,plus,dotcolour,beta,,,63,18,V,R,
385,7,7,9,3,44,36,651,['n'],0,left,['9'],5,401,[-0.04634286],95,44,hard,plus,dotcolour,beta,,,63,18,V,R,
386,8,8,9,3,27,53,501,['n'],1,right,['0'],6,444,[-0.1593204],100,53,easy,plus,dotcolour,beta,,,63,18,V,R,
387,9,9,9,3,33,47,418,['n'],1,right,['9'],5,880,[-0.26209147],100,47,medium,plus,dotcolour,beta,,,63,18,V,R,
388,10,10,9,3,27,53,381,['n'],1,right,['0'],6,556,[-0.06237753],95,53,easy,plus,dotcolour,beta,,,63,18,V,R,
389,11,11,9,3,44,36,365,['n'],0,left,['9'],5,614,[-0.03386617],89,44,hard,plus,dotcolour,beta,,,63,18,V,R,
390,12,12,9,3,47,33,533,['c'],1,left,['9'],5,366,[0.02576816],92,47,medium,plus,dotcolour,beta,,,63,18,V,R,
391,13,13,9,3,47,33,900,['n'],0,left,['0'],6,361,[-0.03088665],93,47,medium,plus,dotcolour,beta,,,63,18,V,R,
392,14,14,9,3,53,27,918,['n'],0,left,['9'],5,405,[-0.02176318],90,53,easy,plus,dotcolour,beta,,,63,18,V,R,
393,15,15,9,3,53,27,601,['c'],1,left,['9'],5,507,[0.11799024],99,53,easy,plus,dotcolour,beta,,,63,18,V,R,
394,16,16,9,3,27,53,649,['n'],1,right,['0'],6,1947,[-0.26876455],98,53,easy,plus,dotcolour,beta,,,63,18,V,R,
395,17,17,9,3,47,33,733,['c'],1,left,['8'],4,1541,[0.15428781],95,47,medium,plus,dotcolour,beta,,,63,18,V,R,
396,18,18,9,3,27,53,582,['n'],1,right,['0'],6,245,[-0.16443003],100,53,easy,plus,dotcolour,beta,,,63,18,V,R,
397,19,19,9,3,44,36,1267,['n'],0,left,['8'],4,710,[-0.18502502],99,44,hard,plus,dotcolour,beta,,,63,18,V,R,
398,20,20,9,3,33,47,649,['n'],1,right,['9'],5,390,[-0.27678933],100,47,medium,plus,dotcolour,beta,,,63,18,V,R,
399,21,21,9,3,36,44,567,['n'],1,right,['0'],6,374,[-0.11137844],99,44,hard,plus,dotcolour,beta,,,63,18,V,R,
400,22,22,9,3,33,47,517,['n'],1,right,['0'],6,201,[-0.17018889],100,47,medium,plus,dotcolour,beta,,,63,18,V,R,
401,23,23,9,3,44,36,850,['n'],0,left,['9'],5,254,[-0.06269285],99,44,hard,plus,dotcolour,beta,,,63,18,V,R,
402,24,24,9,3,47,33,817,['c'],1,left,['9'],5,490,[0.10716381],98,47,medium,plus,dotcolour,beta,,,63,18,V,R,
403,25,25,9,3,36,44,633,['n'],1,right,['9'],5,315,[-0.10633003],99,44,hard,plus,dotcolour,beta,,,63,18,V,R,
404,26,26,9,3,53,27,983,['n'],0,left,['9'],5,286,[-0.01062393],90,53,easy,plus,dotcolour,beta,,,63,18,V,R,
405,27,27,9,3,47,33,551,['n'],0,left,['3'],3,923,[0.01871332],67,47,medium,plus,dotcolour,beta,,,63,18,V,R,
406,28,28,9,3,53,27,832,['c'],1,left,['9'],5,242,[0.17484314],100,53,easy,plus,dotcolour,beta,,,63,18,V,R,
407,29,29,9,3,53,27,716,['c'],1,left,['0'],6,267,[0.11578043],100,53,easy,plus,dotcolour,beta,,,63,18,V,R,
408,30,30,9,3,33,47,550,['n'],1,right,['0'],6,329,[-0.17258357],100,47,medium,plus,dotcolour,beta,,,63,18,V,R,
409,31,31,9,3,53,27,750,['c'],1,left,['9'],5,332,[0.10117415],99,53,easy,plus,dotcolour,beta,,,63,18,V,R,
410,32,32,9,3,33,47,701,['n'],1,right,['0'],6,242,[-0.08160897],99,47,medium,plus,dotcolour,beta,,,63,18,V,R,
411,33,33,9,3,47,33,1052,['c'],1,left,['9'],5,260,[0.07097972],99,47,medium,plus,dotcolour,beta,,,63,18,V,R,
412,34,34,9,3,27,53,714,['n'],1,right,['0'],6,179,[-0.06673103],99,53,easy,plus,dotcolour,beta,,,63,18,V,R,
413,35,35,9,3,36,44,565,['n'],1,right,['0'],6,164,[-0.11524242],100,44,hard,plus,dotcolour,beta,,,63,18,V,R,
414,36,36,9,3,44,36,851,['c'],1,left,['3'],3,1066,[0.213272],99,44,hard,plus,dotcolour,beta,,,63,18,V,R,
415,37,37,9,3,36,44,583,['n'],1,right,['0'],6,206,[0.02732684],75,44,hard,plus,dotcolour,beta,,,63,18,V,R,
416,38,38,9,3,27,53,451,['n'],1,right,['0'],6,363,[-0.10463143],99,53,easy,plus,dotcolour,beta,,,63,18,V,R,
417,39,39,9,3,44,36,466,['n'],0,left,['8'],4,792,[-0.11204828],97,44,hard,plus,dotcolour,beta,,,63,18,V,R,
418,40,40,9,3,27,53,534,['n'],1,right,['0'],6,289,[-0.10782184],100,53,easy,plus,dotcolour,beta,,,63,18,V,R,
419,41,41,9,3,33,47,365,['n'],1,right,['0'],6,286,[-0.15906852],100,47,medium,plus,dotcolour,beta,,,63,18,V,R,
420,42,0,10,3,33,47,501,['n'],1,right,['0'],6,199,[-0.02441221],96,47,medium,plus,dotcolour,beta,,,63,18,V,R,
421,43,1,10,3,47,33,1016,['c'],1,left,['0'],6,740,[0.06642913],93,47,medium,plus,dotcolour,beta,,,63,18,V,R,
422,44,2,10,3,47,33,515,['n'],0,left,['9'],5,784,[-0.08540466],95,47,medium,plus,dotcolour,beta,,,63,18,V,R,
423,45,3,10,3,47,33,681,['n'],0,left,['8'],4,851,[-0.0153033],80,47,medium,plus,dotcolour,beta,,,63,18,V,R,
424,46,4,10,3,44,36,432,['n'],0,left,['3'],3,967,[0.06785651],44,44,hard,plus,dotcolour,beta,,,63,18,V,R,
425,47,5,10,3,27,53,665,['n'],1,right,['0'],6,244,[-0.16685594],100,53,easy,plus,dotcolour,beta,,,63,18,V,R,
426,48,6,10,3,53,27,900,['c'],1,left,['9'],5,284,[0.04171608],96,53,easy,plus,dotcolour,beta,,,63,18,V,R,
427,49,7,10,3,36,44,564,['n'],1,right,['0'],6,360,[-0.16681382],100,44,hard,plus,dotcolour,beta,,,63,18,V,R,
428,50,8,10,3,27,53,518,['n'],1,right,['0'],6,236,[-0.14226405],100,53,easy,plus,dotcolour,beta,,,63,18,V,R,
429,51,9,10,3,53,27,682,['c'],1,left,['0'],6,286,[0.19425728],100,53,easy,plus,dotcolour,beta,,,63,18,V,R,
430,52,10,10,3,36,44,617,['n'],1,right,['9'],5,617,[-0.18895279],100,44,hard,plus,dotcolour,beta,,,63,18,V,R,
431,53,11,10,3,27,53,514,['n'],1,right,['0'],6,235,[-0.15411002],100,53,easy,plus,dotcolour,beta,,,63,18,V,R,
432,54,12,10,3,47,33,585,['n'],0,left,['9'],5,288,[-0.01016171],90,47,medium,plus,dotcolour,beta,,,63,18,V,R,
433,55,13,10,3,27,53,549,['n'],1,right,['0'],6,206,[-0.11549215],100,53,easy,plus,dotcolour,beta,,,63,18,V,R,
434,56,14,10,3,36,44,584,['n'],1,right,['0'],6,182,[-0.09591927],100,44,hard,plus,dotcolour,beta,,,63,18,V,R,
435,57,15,10,3,33,47,700,['n'],1,right,['0'],6,138,[-0.06444298],100,47,medium,plus,dotcolour,beta,,,63,18,V,R,
436,58,16,10,3,36,44,516,['n'],1,right,['0'],6,206,[-0.01262557],94,44,hard,plus,dotcolour,beta,,,63,18,V,R,
437,59,17,10,3,47,33,615,['n'],0,left,['9'],5,196,[-0.01925289],95,47,medium,plus,dotcolour,beta,,,63,18,V,R,
438,60,18,10,3,44,36,651,['n'],0,left,['9'],5,193,[-0.05680783],99,44,hard,plus,dotcolour,beta,,,63,18,V,R,
439,61,19,10,3,36,44,1018,['c'],0,right,['9'],5,159,[0.14844897],100,44,hard,plus,dotcolour,beta,,,63,18,V,R,
440,62,20,10,3,47,33,484,['n'],0,left,['9'],5,380,[-0.0443213],95,47,medium,plus,dotcolour,beta,,,63,18,V,R,
441,63,21,10,3,44,36,599,['n'],0,left,['3'],3,739,[0.05275871],51,44,hard,plus,dotcolour,beta,,,63,18,V,R,
442,64,22,10,3,27,53,600,['n'],1,right,['0'],6,195,[-0.16020577],100,53,easy,plus,dotcolour,beta,,,63,18,V,R,
443,65,23,10,3,33,47,631,['n'],1,right,['9'],5,401,[-0.17857086],100,47,medium,plus,dotcolour,beta,,,63,18,V,R,
444,66,24,10,3,27,53,448,['n'],1,right,['0'],6,222,[-0.21778839],100,53,easy,plus,dotcolour,beta,,,63,18,V,R,
445,67,25,10,3,47,33,933,['c'],1,left,['9'],5,239,[0.07179783],99,47,medium,plus,dotcolour,beta,,,63,18,V,R,
446,68,26,10,3,33,47,633,['n'],1,right,['0'],6,339,[-0.19748966],100,47,medium,plus,dotcolour,beta,,,63,18,V,R,
447,69,27,10,3,44,36,465,['n'],0,left,['8'],4,1056,[-0.0968802],94,44,hard,plus,dotcolour,beta,,,63,18,V,R,
448,70,28,10,3,27,53,551,['n'],1,right,['0'],6,238,[-0.18181082],100,53,easy,plus,dotcolour,beta,,,63,18,V,R,
449,71,29,10,3,53,27,833,['c'],1,left,['9'],5,1066,[0.40786773],100,53,easy,plus,dotcolour,beta,,,63,18,V,R,
450,72,30,10,3,53,27,1233,['c'],1,left,['9'],5,395,[0.07377203],98,53,easy,plus,dotcolour,beta,,,63,18,V,R,
451,73,31,10,3,44,36,1101,['n'],0,left,['0'],6,181,[-0.10462076],100,44,hard,plus,dotcolour,beta,,,63,18,V,R,
452,74,32,10,3,53,27,665,['n'],0,left,['0'],6,162,[-0.03023603],98,53,easy,plus,dotcolour,beta,,,63,18,V,R,
453,75,33,10,3,36,44,1151,['n'],1,right,['9'],5,444,[-0.09192572],98,44,hard,plus,dotcolour,beta,,,63,18,V,R,
454,76,34,10,3,33,47,900,['n'],1,right,['0'],6,100,[-0.08019247],100,47,medium,plus,dotcolour,beta,,,63,18,V,R,
455,77,35,10,3,36,44,1052,['n'],1,right,['0'],6,85,[-0.07651018],100,44,hard,plus,dotcolour,beta,,,63,18,V,R,
456,78,36,10,3,44,36,968,['n'],0,left,['0'],6,122,[0.0313442],78,44,hard,plus,dotcolour,beta,,,63,18,V,R,
457,79,37,10,3,44,36,750,['n'],0,left,['9'],5,166,[-0.13484733],100,44,hard,plus,dotcolour,beta,,,63,18,V,R,
458,80,38,10,3,53,27,4037,['n'],0,left,['0'],6,497,[0.06692598],43,53,easy,plus,dotcolour,beta,,,63,18,V,R,
459,81,39,10,3,53,27,1051,['c'],1,left,['0'],6,121,[0.1270849],100,53,easy,plus,dotcolour,beta,,,63,18,V,R,
460,82,40,10,3,33,47,834,['n'],1,right,['0'],6,106,[-0.07136329],100,47,medium,plus,dotcolour,beta,,,63,18,V,R,
461,83,41,10,3,33,47,701,['n'],1,right,['0'],6,136,[-0.13124933],100,47,medium,plus,dotcolour,beta,,,63,18,V,R,
462,84,0,11,3,47,33,567,['n'],0,left,['0'],6,133,[-0.08787386],100,47,medium,plus,dotcolour,beta,,,63,18,V,R,
463,85,1,11,3,47,33,899,['n'],0,left,['9'],5,443,[-0.01496538],87,47,medium,plus,dotcolour,beta,,,63,18,V,R,
464,86,2,11,3,27,53,415,['n'],1,right,['0'],6,383,[-0.1902032],100,53,easy,plus,dotcolour,beta,,,63,18,V,R,
465,87,3,11,3,44,36,766,['c'],1,left,['0'],6,735,[0.07378912],94,44,hard,plus,dotcolour,beta,,,63,18,V,R,
466,88,4,11,3,27,53,666,['n'],1,right,['0'],6,285,[-0.07017959],99,53,easy,plus,dotcolour,beta,,,63,18,V,R,
467,89,5,11,3,33,47,682,['n'],1,right,['9'],5,372,[-0.16186961],100,47,medium,plus,dotcolour,beta,,,63,18,V,R,
468,90,6,11,3,47,33,933,['n'],0,left,['8'],4,407,[0.01907656],74,47,medium,plus,dotcolour,beta,,,63,18,V,R,
469,91,7,11,3,36,44,548,['n'],1,right,['9'],5,279,[-0.03706289],96,44,hard,plus,dotcolour,beta,,,63,18,V,R,
470,92,8,11,3,36,44,600,['n'],1,right,['9'],5,203,[-0.08019534],100,44,hard,plus,dotcolour,beta,,,63,18,V,R,
471,93,9,11,3,47,33,499,['n'],0,left,['9'],5,614,[0.05573702],50,47,medium,plus,dotcolour,beta,,,63,18,V,R,
472,94,10,11,3,27,53,699,['n'],1,right,['0'],6,152,[-0.13884705],100,53,easy,plus,dotcolour,beta,,,63,18,V,R,
473,95,11,11,3,27,53,549,['n'],1,right,['0'],6,130,[-0.09529753],100,53,easy,plus,dotcolour,beta,,,63,18,V,R,
474,96,12,11,3,44,36,798,['n'],0,left,['2'],2,1236,[0.08859459],37,44,hard,plus,dotcolour,beta,,,63,18,V,R,
475,97,13,11,3,47,33,1784,['c'],1,left,['9'],5,495,[0.16692507],100,47,medium,plus,dotcolour,beta,,,63,18,V,R,
476,98,14,11,3,27,53,582,['n'],1,right,['0'],6,290,[-0.12476769],100,53,easy,plus,dotcolour,beta,,,63,18,V,R,
477,99,15,11,3,44,36,700,['c'],1,left,['0'],6,321,[0.12588751],100,44,hard,plus,dotcolour,beta,,,63,18,V,R,
478,100,16,11,3,36,44,1117,['n'],1,right,['9'],5,598,[-0.11737],98,44,hard,plus,dotcolour,beta,,,63,18,V,R,
479,101,17,11,3,53,27,984,['c'],1,left,['0'],6,237,[0.14938163],100,53,easy,plus,dotcolour,beta,,,63,18,V,R,
480,102,18,11,3,47,33,1885,['n'],0,left,['0'],6,174,[-0.09369889],100,47,medium,plus,dotcolour,beta,,,63,18,V,R,
481,103,19,11,3,44,36,767,['c'],1,left,['0'],6,198,[0.12510145],100,44,hard,plus,dotcolour,beta,,,63,18,V,R,
482,104,20,11,3,53,27,750,['n'],0,left,['8'],4,1127,[0.15621884],15,53,easy,plus,dotcolour,beta,,,63,18,V,R,
483,105,21,11,3,27,53,532,['n'],1,right,['0'],6,114,[-0.10780288],100,53,easy,plus,dotcolour,beta,,,63,18,V,R,
484,106,22,11,3,27,53,634,['n'],1,right,['0'],6,107,[-0.09513684],100,53,easy,plus,dotcolour,beta,,,63,18,V,R,
485,107,23,11,3,33,47,766,['n'],1,right,['9'],5,320,[-0.16882743],100,47,medium,plus,dotcolour,beta,,,63,18,V,R,
486,108,24,11,3,33,47,599,['n'],1,right,['9'],5,201,[-0.11459074],100,47,medium,plus,dotcolour,beta,,,63,18,V,R,
487,109,25,11,3,53,27,632,['n'],0,left,['9'],5,295,[0.04697446],57,53,easy,plus,dotcolour,beta,,,63,18,V,R,
488,110,26,11,3,47,33,1735,['c'],1,left,['0'],6,195,[0.12488411],100,47,medium,plus,dotcolour,beta,,,63,18,V,R,
489,111,27,11,3,33,47,816,['n'],1,right,['8'],4,753,[-0.140762],98,47,medium,plus,dotcolour,beta,,,63,18,V,R,
490,112,28,11,3,33,47,650,['n'],1,right,['9'],5,288,[-0.11908844],100,47,medium,plus,dotcolour,beta,,,63,18,V,R,
491,113,29,11,3,53,27,732,['c'],1,left,['0'],6,318,[0.12277657],100,53,easy,plus,dotcolour,beta,,,63,18,V,R,
492,114,30,11,3,36,44,616,['n'],1,right,['0'],6,206,[0.00618099],88,44,hard,plus,dotcolour,beta,,,63,18,V,R,
493,115,31,11,3,44,36,1049,['n'],0,left,['0'],6,114,[-0.08909123],100,44,hard,plus,dotcolour,beta,,,63,18,V,R,
494,116,32,11,3,53,27,799,['c'],1,left,['0'],6,101,[0.07676032],100,53,easy,plus,dotcolour,beta,,,63,18,V,R,
495,117,33,11,3,36,44,716,['n'],1,right,['0'],6,171,[-0.03940007],98,44,hard,plus,dotcolour,beta,,,63,18,V,R,
496,118,34,11,3,44,36,650,['n'],0,left,['0'],6,185,[-0.07784857],100,44,hard,plus,dotcolour,beta,,,63,18,V,R,
497,119,35,11,3,36,44,751,['n'],1,right,['0'],6,155,[-0.0965846],100,44,hard,plus,dotcolour,beta,,,63,18,V,R,
498,120,36,11,3,44,36,567,['n'],0,left,['0'],6,124,[-0.10726089],100,44,hard,plus,dotcolour,beta,,,63,18,V,R,
499,121,37,11,3,53,27,733,['c'],1,left,['0'],6,153,[0.11913897],100,53,easy,plus,dotcolour,beta,,,63,18,V,R,
500,122,38,11,3,33,47,634,['n'],1,right,['0'],6,129,[-0.03935578],99,47,medium,plus,dotcolour,beta,,,63,18,V,R,
501,123,39,11,3,53,27,1034,['n'],0,left,['9'],5,385,[-0.06058535],97,53,easy,plus,dotcolour,beta,,,63,18,V,R,
502,124,40,11,3,36,44,400,['n'],1,right,['0'],6,280,[-0.23967203],100,44,hard,plus,dotcolour,beta,,,63,18,V,R,
503,125,41,11,3,33,47,350,['n'],1,right,['0'],6,478,[-0.28539928],100,47,medium,plus,dotcolour,beta,,,63,18,V,R,
504,0,0,12,4,47,33,1886,['c'],1,left,['9'],5,200,[0.22034387],100,47,medium,minus,dotcolour,beta,,,63,18,V,R,
505,1,1,12,4,47,33,1100,['n'],0,left,['8'],4,138,[-0.05473701],49,47,medium,minus,dotcolour,beta,,,63,18,V,R,
506,2,2,12,4,33,47,650,['n'],1,right,['0'],6,90,[-0.08063764],82,47,medium,minus,dotcolour,beta,,,63,18,V,R,
507,3,3,12,4,33,47,433,['n'],1,right,['0'],6,84,[-0.05032702],42,47,medium,minus,dotcolour,beta,,,63,18,V,R,
508,4,4,12,4,44,36,400,['n'],0,left,['0'],6,80,[-0.10162734],95,44,hard,minus,dotcolour,beta,,,63,18,V,R,
509,5,5,12,4,36,44,416,['n'],1,right,['0'],6,75,[-0.04997623],41,44,hard,minus,dotcolour,beta,,,63,18,V,R,
510,6,6,12,4,33,47,448,['n'],1,right,['0'],6,133,[-0.04109021],33,47,medium,minus,dotcolour,beta,,,63,18,V,R,
511,7,7,12,4,53,27,983,['n'],0,left,['2'],2,911,[0.09300118],6,53,easy,minus,dotcolour,beta,,,63,18,V,R,
512,8,8,12,4,33,47,601,['n'],1,right,['0'],6,121,[-0.08219117],80,47,medium,minus,dotcolour,beta,,,63,18,V,R,
513,9,9,12,4,44,36,1784,['n'],0,left,['0'],6,1410,[-0.06252723],53,44,hard,minus,dotcolour,beta,,,63,18,V,R,
514,10,10,12,4,44,36,966,['c'],1,left,['0'],6,96,[0.09043468],88,44,hard,minus,dotcolour,beta,,,63,18,V,R,
515,11,11,12,4,53,27,650,['c'],1,left,['0'],6,105,[0.07372518],73,53,easy,minus,dotcolour,beta,,,63,18,V,R,
516,12,12,12,4,44,36,834,['n'],0,left,['0'],6,154,[-0.07341023],69,44,hard,minus,dotcolour,beta,,,63,18,V,R,
517,13,13,12,4,53,27,669,['c'],1,left,['0'],6,343,[0.12007386],88,53,easy,minus,dotcolour,beta,,,63,18,V,R,
518,14,14,12,4,53,27,683,['c'],1,left,['0'],6,164,[0.08788419],81,53,easy,minus,dotcolour,beta,,,63,18,V,R,
519,15,15,12,4,53,27,1015,['n'],0,left,['0'],6,268,[-0.06699691],60,53,easy,minus,dotcolour,beta,,,63,18,V,R,
520,16,16,12,4,27,53,718,['n'],1,right,['0'],6,163,[-0.1010203],88,53,easy,minus,dotcolour,beta,,,63,18,V,R,
521,17,17,12,4,27,53,448,['n'],1,right,['0'],6,337,[-0.12970493],91,53,easy,minus,dotcolour,beta,,,63,18,V,R,
522,18,18,12,4,47,33,364,['n'],0,left,['2'],2,780,[-0.05529352],50,47,medium,minus,dotcolour,beta,,,63,18,V,R,
523,19,19,12,4,33,47,433,['n'],1,right,['0'],6,378,[-0.11970875],87,47,medium,minus,dotcolour,beta,,,63,18,V,R,
524,20,20,12,4,36,44,416,['n'],1,right,['0'],6,489,[-0.06211767],54,44,hard,minus,dotcolour,beta,,,63,18,V,R,
525,21,21,12,4,47,33,248,['n'],0,left,['2'],2,874,[-0.0032268],27,47,medium,minus,dotcolour,beta,,,63,18,V,R,
526,22,22,12,4,36,44,583,['n'],1,right,['0'],6,277,[-0.08385973],72,44,hard,minus,dotcolour,beta,,,63,18,V,R,
527,23,23,12,4,33,47,483,['n'],1,right,['0'],6,429,[-0.17973782],97,47,medium,minus,dotcolour,beta,,,63,18,V,R,
528,24,24,12,4,36,44,451,['n'],1,right,['9'],5,385,[-0.01673263],24,44,hard,minus,dotcolour,beta,,,63,18,V,R,
529,25,25,12,4,36,44,800,['n'],1,right,['0'],6,464,[-0.02191731],29,44,hard,minus,dotcolour,beta,,,63,18,V,R,
530,26,26,12,4,44,36,1333,['c'],1,left,['9'],5,431,[0.09899555],77,44,hard,minus,dotcolour,beta,,,63,18,V,R,
531,27,27,12,4,33,47,750,['n'],1,right,['0'],6,270,[-0.08580112],74,47,medium,minus,dotcolour,beta,,,63,18,V,R,
532,28,28,12,4,27,53,700,['n'],1,right,['0'],6,141,[-0.06565867],62,53,easy,minus,dotcolour,beta,,,63,18,V,R,
533,29,29,12,4,53,27,832,['c'],1,left,['9'],5,404,[0.18185778],97,53,easy,minus,dotcolour,beta,,,63,18,V,R,
534,30,30,12,4,36,44,698,['n'],1,right,['0'],6,175,[-0.06449273],59,44,hard,minus,dotcolour,beta,,,63,18,V,R,
535,31,31,12,4,44,36,767,['n'],0,left,['0'],6,136,[-0.07086821],68,44,hard,minus,dotcolour,beta,,,63,18,V,R,
536,32,32,12,4,44,36,1134,['c'],1,left,['9'],5,356,[0.08463281],71,44,hard,minus,dotcolour,beta,,,63,18,V,R,
537,33,33,12,4,27,53,634,['n'],1,right,['0'],6,131,[-0.10530005],92,53,easy,minus,dotcolour,beta,,,63,18,V,R,
538,34,34,12,4,36,44,549,['n'],1,right,['0'],6,87,[-0.06291648],61,44,hard,minus,dotcolour,beta,,,63,18,V,R,
539,35,35,12,4,27,53,583,['n'],1,right,['0'],6,107,[-0.07238825],72,53,easy,minus,dotcolour,beta,,,63,18,V,R,
540,36,36,12,4,27,53,666,['n'],1,right,['0'],6,76,[-0.12087227],99,53,easy,minus,dotcolour,beta,,,63,18,V,R,
541,37,37,12,4,53,27,900,['c'],1,left,['0'],6,107,[0.04920647],41,53,easy,minus,dotcolour,beta,,,63,18,V,R,
542,38,38,12,4,47,33,1034,['c'],1,left,['8'],4,636,[0.04197118],42,47,medium,minus,dotcolour,beta,,,63,18,V,R,
543,39,39,12,4,27,53,666,['n'],1,right,['0'],6,86,[-0.06638774],66,53,easy,minus,dotcolour,beta,,,63,18,V,R,
544,40,40,12,4,47,33,1117,['c'],1,left,['8'],4,1237,[0.33836428],99,47,medium,minus,dotcolour,beta,,,63,18,V,R,
545,41,41,12,4,47,33,783,['c'],1,left,['9'],5,304,[0.04416081],41,47,medium,minus,dotcolour,beta,,,63,18,V,R,
546,42,0,13,4,33,47,835,['n'],1,right,['0'],6,133,[0.01929789],2,47,medium,minus,dotcolour,beta,,,63,18,V,R,
547,43,1,13,4,27,53,583,['n'],1,right,['0'],6,112,[-0.01833007],12,53,easy,minus,dotcolour,beta,,,63,18,V,R,
548,44,2,13,4,33,47,850,['n'],1,right,['0'],6,120,[-0.12447758],97,47,medium,minus,dotcolour,beta,,,63,18,V,R,
549,45,3,13,4,27,53,499,['n'],1,right,['0'],6,94,[-0.08842007],87,53,easy,minus,dotcolour,beta,,,63,18,V,R,
550,46,4,13,4,33,47,618,['n'],1,right,['0'],6,89,[-0.08712738],87,47,medium,minus,dotcolour,beta,,,63,18,V,R,
551,47,5,13,4,27,53,800,['n'],1,right,['0'],6,108,[-0.04302182],33,53,easy,minus,dotcolour,beta,,,63,18,V,R,
552,48,6,13,4,47,33,416,['n'],0,left,['9'],5,678,[-0.09848549],72,47,medium,minus,dotcolour,beta,,,63,18,V,R,
553,49,7,13,4,36,44,517,['n'],1,right,['9'],5,213,[-0.02700807],25,44,hard,minus,dotcolour,beta,,,63,18,V,R,
554,50,8,13,4,36,44,565,['n'],1,right,['9'],5,84,[-0.10655322],96,44,hard,minus,dotcolour,beta,,,63,18,V,R,
555,51,9,13,4,36,44,567,['n'],1,right,['0'],6,106,[0.01870948],2,44,hard,minus,dotcolour,beta,,,63,18,V,R,
556,52,10,13,4,44,36,1435,['c'],1,left,['9'],5,226,[0.00490076],13,44,hard,minus,dotcolour,beta,,,63,18,V,R,
557,53,11,13,4,53,27,1000,['c'],1,left,['0'],6,167,[0.08859623],81,53,easy,minus,dotcolour,beta,,,63,18,V,R,
558,54,12,13,4,53,27,598,['c'],1,left,['0'],6,191,[0.05658725],51,53,easy,minus,dotcolour,beta,,,63,18,V,R,
559,55,13,13,4,47,33,968,['c'],1,left,['9'],5,143,[0.06129367],57,47,medium,minus,dotcolour,beta,,,63,18,V,R,
560,56,14,13,4,33,47,951,['n'],1,right,['0'],6,146,[-0.12528754],96,47,medium,minus,dotcolour,beta,,,63,18,V,R,
561,57,15,13,4,47,33,716,['c'],1,left,['0'],6,150,[0.06854306],65,47,medium,minus,dotcolour,beta,,,63,18,V,R,
562,58,16,13,4,44,36,1035,['c'],1,left,['9'],5,253,[0.11766963],90,44,hard,minus,dotcolour,beta,,,63,18,V,R,
563,59,17,13,4,53,27,1085,['c'],1,left,['0'],6,207,[0.09813319],84,53,easy,minus,dotcolour,beta,,,63,18,V,R,
564,60,18,13,4,44,36,766,['n'],0,left,['0'],6,118,[-0.08207341],80,44,hard,minus,dotcolour,beta,,,63,18,V,R,
565,61,19,13,4,27,53,634,['n'],1,right,['0'],6,112,[-0.11343153],96,53,easy,minus,dotcolour,beta,,,63,18,V,R,
566,62,20,13,4,33,47,966,['n'],1,right,['9'],5,116,[-0.10053457],92,47,medium,minus,dotcolour,beta,,,63,18,V,R,
567,63,21,13,4,53,27,899,['c'],1,left,['0'],6,161,[0.00452057],9,53,easy,minus,dotcolour,beta,,,63,18,V,R,
568,64,22,13,4,36,44,833,['n'],1,right,['0'],6,128,[-0.06803708],65,44,hard,minus,dotcolour,beta,,,63,18,V,R,
569,65,23,13,4,47,33,734,['n'],0,left,['0'],6,196,[-0.03657067],32,47,medium,minus,dotcolour,beta,,,63,18,V,R,
570,66,24,13,4,53,27,917,['c'],1,left,['9'],5,230,[0.05351679],48,53,easy,minus,dotcolour,beta,,,63,18,V,R,
571,67,25,13,4,53,27,615,['c'],1,left,['0'],6,179,[0.16404424],99,53,easy,minus,dotcolour,beta,,,63,18,V,R,
572,68,26,13,4,44,36,717,['n'],0,left,['9'],5,358,[0.00850768],13,44,hard,minus,dotcolour,beta,,,63,18,V,R,
573,69,27,13,4,53,27,1600,['c'],1,left,['8'],4,605,[0.2717724],99,53,easy,minus,dotcolour,beta,,,63,18,V,R,
574,70,28,13,4,36,44,800,['n'],1,right,['0'],6,203,[-0.08512852],77,44,hard,minus,dotcolour,beta,,,63,18,V,R,
575,71,29,13,4,36,44,833,['n'],1,right,['9'],5,231,[-0.04215674],38,44,hard,minus,dotcolour,beta,,,63,18,V,R,
576,72,30,13,4,33,47,632,['n'],1,right,['0'],6,228,[-0.20089873],100,47,medium,minus,dotcolour,beta,,,63,18,V,R,
577,73,31,13,4,47,33,818,['c'],1,left,['8'],4,793,[0.2569635],98,47,medium,minus,dotcolour,beta,,,63,18,V,R,
578,74,32,13,4,36,44,766,['n'],1,right,['0'],6,152,[-0.06623882],62,44,hard,minus,dotcolour,beta,,,63,18,V,R,
579,75,33,13,4,44,36,851,['n'],0,left,['8'],4,191,[-0.01005746],13,44,hard,minus,dotcolour,beta,,,63,18,V,R,
580,76,34,13,4,47,33,1517,['c'],1,left,['8'],4,401,[0.1070394],81,47,medium,minus,dotcolour,beta,,,63,18,V,R,
581,77,35,13,4,27,53,832,['n'],1,right,['0'],6,142,[-0.11334427],94,53,easy,minus,dotcolour,beta,,,63,18,V,R,
582,78,36,13,4,47,33,1117,['c'],1,left,['9'],5,546,[0.08925635],69,47,medium,minus,dotcolour,beta,,,63,18,V,R,
583,79,37,13,4,44,36,832,['n'],0,left,['8'],4,177,[-0.06605256],61,44,hard,minus,dotcolour,beta,,,63,18,V,R,
584,80,38,13,4,44,36,2417,['n'],0,left,['0'],6,334,[-0.05776298],52,44,hard,minus,dotcolour,beta,,,63,18,V,R,
585,81,39,13,4,27,53,448,['n'],1,right,['0'],6,110,[-0.07528627],74,53,easy,minus,dotcolour,beta,,,63,18,V,R,
586,82,40,13,4,33,47,616,['n'],1,right,['0'],6,63,[-0.06813573],71,47,medium,minus,dotcolour,beta,,,63,18,V,R,
587,83,41,13,4,27,53,500,['n'],1,right,['0'],6,80,[-0.10272769],95,53,easy,minus,dotcolour,beta,,,63,18,V,R,
588,84,0,14,4,44,36,868,['c'],1,left,['9'],5,99,[0.04070817],30,44,hard,minus,dotcolour,beta,,,63,18,V,R,
589,85,1,14,4,44,36,715,['c'],1,left,['9'],5,113,[0.08111791],80,44,hard,minus,dotcolour,beta,,,63,18,V,R,
590,86,2,14,4,53,27,883,['c'],1,left,['8'],4,128,[0.13469729],98,53,easy,minus,dotcolour,beta,,,63,18,V,R,
591,87,3,14,4,47,33,933,['c'],1,left,['8'],4,156,[0.0340399],27,47,medium,minus,dotcolour,beta,,,63,18,V,R,
592,88,4,14,4,27,53,566,['n'],1,right,['0'],6,118,[-0.05990768],56,53,easy,minus,dotcolour,beta,,,63,18,V,R,
593,89,5,14,4,36,44,466,['n'],1,right,['0'],6,126,[-0.05125888],45,44,hard,minus,dotcolour,beta,,,63,18,V,R,
594,90,6,14,4,33,47,434,['n'],1,right,['0'],6,151,[-0.07963048],75,47,medium,minus,dotcolour,beta,,,63,18,V,R,
595,91,7,14,4,33,47,534,['n'],1,right,['0'],6,146,[-0.10662247],92,47,medium,minus,dotcolour,beta,,,63,18,V,R,
596,92,8,14,4,47,33,750,['c'],1,left,['9'],5,150,[0.10156576],89,47,medium,minus,dotcolour,beta,,,63,18,V,R,
597,93,9,14,4,27,53,500,['n'],1,right,['0'],6,74,[-0.10616631],97,53,easy,minus,dotcolour,beta,,,63,18,V,R,
598,94,10,14,4,47,33,482,['n'],0,left,['0'],6,115,[-0.05099143],44,47,medium,minus,dotcolour,beta,,,63,18,V,R,
599,95,11,14,4,36,44,384,['n'],1,right,['9'],5,174,[-0.09198867],83,44,hard,minus,dotcolour,beta,,,63,18,V,R,
600,96,12,14,4,47,33,401,['n'],0,left,['9'],5,494,[0.07619521],3,47,medium,minus,dotcolour,beta,,,63,18,V,R,
601,97,13,14,4,47,33,751,['c'],1,left,['0'],6,187,[0.07869262],72,47,medium,minus,dotcolour,beta,,,63,18,V,R,
602,98,14,14,4,36,44,718,['n'],1,right,['0'],6,53,[-0.08568979],91,44,hard,minus,dotcolour,beta,,,63,18,V,R,
603,99,15,14,4,36,44,568,['n'],1,right,['0'],6,108,[-0.07203942],71,44,hard,minus,dotcolour,beta,,,63,18,V,R,
604,100,16,14,4,47,33,902,['c'],1,left,['0'],6,163,[0.19695571],100,47,medium,minus,dotcolour,beta,,,63,18,V,R,
605,101,17,14,4,33,47,916,['n'],1,right,['0'],6,86,[-0.09840008],93,47,medium,minus,dotcolour,beta,,,63,18,V,R,
606,102,18,14,4,53,27,683,['c'],1,left,['0'],6,254,[0.19913554],99,53,easy,minus,dotcolour,beta,,,63,18,V,R,
607,103,19,14,4,44,36,600,['n'],0,left,['0'],6,108,[-0.06845056],67,44,hard,minus,dotcolour,beta,,,63,18,V,R,
608,104,20,14,4,27,53,650,['n'],1,right,['0'],6,164,[-0.08447839],78,53,easy,minus,dotcolour,beta,,,63,18,V,R,
609,105,21,14,4,33,47,616,['n'],1,right,['0'],6,131,[-0.08277384],79,47,medium,minus,dotcolour,beta,,,63,18,V,R,
610,106,22,14,4,27,53,1351,['n'],1,right,['0'],6,743,[-0.28134487],99,53,easy,minus,dotcolour,beta,,,63,18,V,R,
611,107,23,14,4,27,53,549,['n'],1,right,['0'],6,105,[-0.07451211],74,53,easy,minus,dotcolour,beta,,,63,18,V,R,
612,108,24,14,4,33,47,484,['n'],1,right,['0'],6,128,[-0.06126632],57,47,medium,minus,dotcolour,beta,,,63,18,V,R,
613,109,25,14,4,36,44,900,['n'],1,right,['8'],4,293,[-0.00557559],16,44,hard,minus,dotcolour,beta,,,63,18,V,R,
614,110,26,14,4,53,27,583,['n'],0,left,['3'],3,809,[-0.03282941],39,53,easy,minus,dotcolour,beta,,,63,18,V,R,
615,111,27,14,4,36,44,617,['n'],1,right,['9'],5,670,[-0.0313492],37,44,hard,minus,dotcolour,beta,,,63,18,V,R,
616,112,28,14,4,44,36,1015,['n'],0,left,['8'],4,1001,[0.04900126],13,44,hard,minus,dotcolour,beta,,,63,18,V,R,
617,113,29,14,4,33,47,566,['n'],1,right,['9'],5,336,[-0.16651593],97,47,medium,minus,dotcolour,beta,,,63,18,V,R,
618,114,30,14,4,44,36,1366,['c'],1,left,['9'],5,330,[0.08721018],73,44,hard,minus,dotcolour,beta,,,63,18,V,R,
619,115,31,14,4,53,27,1150,['c'],1,left,['0'],6,197,[0.02886226],25,53,easy,minus,dotcolour,beta,,,63,18,V,R,
620,116,32,14,4,53,27,533,['c'],1,left,['0'],6,191,[0.12541238],95,53,easy,minus,dotcolour,beta,,,63,18,V,R,
621,117,33,14,4,44,36,816,['n'],0,left,['0'],6,109,[-0.11387822],96,44,hard,minus,dotcolour,beta,,,63,18,V,R,
622,118,34,14,4,27,53,533,['n'],1,right,['0'],6,90,[-0.09052956],89,53,easy,minus,dotcolour,beta,,,63,18,V,R,
623,119,35,14,4,36,44,482,['n'],1,right,['0'],6,99,[-0.06373548],61,44,hard,minus,dotcolour,beta,,,63,18,V,R,
624,120,36,14,4,27,53,801,['n'],1,right,['0'],6,46,[-0.09300542],96,53,easy,minus,dotcolour,beta,,,63,18,V,R,
625,121,37,14,4,47,33,917,['c'],1,left,['9'],5,118,[0.06564053],63,47,medium,minus,dotcolour,beta,,,63,18,V,R,
626,122,38,14,4,53,27,768,['c'],1,left,['0'],6,105,[0.07191595],71,53,easy,minus,dotcolour,beta,,,63,18,V,R,
627,123,39,14,4,33,47,850,['n'],1,right,['0'],6,2,[-0.07826781],100,47,medium,minus,dotcolour,beta,,,63,18,V,R,
628,124,40,14,4,53,27,1032,['c'],1,left,['0'],6,80,[0.06528793],65,53,easy,minus,dotcolour,beta,,,63,18,V,R,
629,125,41,14,4,44,36,1535,['c'],1,left,['8'],4,701,[0.05337942],49,44,hard,minus,dotcolour,beta,,,63,18,V,R,
630,0,0,15,5,44,36,1135,['n'],0,left,['0'],6,78,[-0.08406627],100,44,hard,plus,dotcolour,beta,,,63,18,V,R,
631,1,1,15,5,53,27,1234,['n'],0,left,['8'],4,160,[-0.04720176],99,53,easy,plus,dotcolour,beta,,,63,18,V,R,
632,2,2,15,5,33,47,667,['n'],1,right,['0'],6,109,[-0.071538],100,47,medium,plus,dotcolour,beta,,,63,18,V,R,
633,3,3,15,5,33,47,450,['n'],1,right,['9'],5,598,[-0.12690707],99,47,medium,plus,dotcolour,beta,,,63,18,V,R,
634,4,4,15,5,33,47,332,['n'],1,right,['0'],6,415,[-0.06720068],97,47,medium,plus,dotcolour,beta,,,63,18,V,R,
635,5,5,15,5,53,27,298,['n'],0,left,['0'],6,186,[-0.03891548],98,53,easy,plus,dotcolour,beta,,,63,18,V,R,
636,6,6,15,5,47,33,718,['c'],1,left,['0'],6,140,[0.1315772],100,47,medium,plus,dotcolour,beta,,,63,18,V,R,
637,7,7,15,5,53,27,751,['n'],0,left,['0'],6,128,[-0.00061333],94,53,easy,plus,dotcolour,beta,,,63,18,V,R,
638,8,8,15,5,44,36,567,['n'],0,left,['8'],4,483,[-0.06322316],96,44,hard,plus,dotcolour,beta,,,63,18,V,R,
639,9,9,15,5,53,27,616,['c'],1,left,['0'],6,365,[0.14185544],100,53,easy,plus,dotcolour,beta,,,63,18,V,R,
640,10,10,15,5,33,47,517,['n'],1,right,['0'],6,369,[-0.00584317],86,47,medium,plus,dotcolour,beta,,,63,18,V,R,
641,11,11,15,5,47,33,900,['c'],1,left,['9'],5,349,[0.10927175],99,47,medium,plus,dotcolour,beta,,,63,18,V,R,
642,12,12,15,5,36,44,517,['n'],1,right,['0'],6,193,[-0.00892754],93,44,hard,plus,dotcolour,beta,,,63,18,V,R,
643,13,13,15,5,47,33,1467,['c'],1,left,['3'],3,917,[0.24765897],100,47,medium,plus,dotcolour,beta,,,63,18,V,R,
644,14,14,15,5,47,33,1402,['c'],1,left,['9'],5,309,[0.12717045],100,47,medium,plus,dotcolour,beta,,,63,18,V,R,
645,15,15,15,5,27,53,783,['n'],1,right,['0'],6,104,[-0.12204942],100,53,easy,plus,dotcolour,beta,,,63,18,V,R,
646,16,16,15,5,33,47,583,['n'],1,right,['0'],6,83,[-0.09897936],100,47,medium,plus,dotcolour,beta,,,63,18,V,R,
647,17,17,15,5,44,36,567,['n'],0,left,['0'],6,112,[-0.09831539],100,44,hard,plus,dotcolour,beta,,,63,18,V,R,
648,18,18,15,5,44,36,969,['c'],1,left,['9'],5,148,[0.048805],99,44,hard,plus,dotcolour,beta,,,63,18,V,R,
649,19,19,15,5,27,53,702,['n'],1,right,['0'],6,113,[-0.04924047],100,53,easy,plus,dotcolour,beta,,,63,18,V,R,
650,20,20,15,5,36,44,1185,['n'],1,right,['9'],5,91,[-0.07455431],100,44,hard,plus,dotcolour,beta,,,63,18,V,R,
651,21,21,15,5,36,44,617,['n'],1,right,['0'],6,61,[-0.04512759],100,44,hard,plus,dotcolour,beta,,,63,18,V,R,
652,22,22,15,5,27,53,682,['n'],1,right,['0'],6,86,[-0.06468869],100,53,easy,plus,dotcolour,beta,,,63,18,V,R,
653,23,23,15,5,53,27,917,['c'],1,left,['9'],5,157,[0.06324295],100,53,easy,plus,dotcolour,beta,,,63,18,V,R,
654,24,24,15,5,53,27,667,['c'],1,left,['9'],5,84,[0.0933246],100,53,easy,plus,dotcolour,beta,,,63,18,V,R,
655,25,25,15,5,36,44,666,['n'],1,right,['0'],6,77,[-0.14237749],100,44,hard,plus,dotcolour,beta,,,63,18,V,R,
656,26,26,15,5,33,47,634,['n'],1,right,['0'],6,119,[-0.07351455],100,47,medium,plus,dotcolour,beta,,,63,18,V,R,
657,27,27,15,5,53,27,601,['c'],1,left,['0'],6,89,[0.09235414],100,53,easy,plus,dotcolour,beta,,,63,18,V,R,
658,28,28,15,5,27,53,633,['n'],1,right,['0'],6,108,[-0.08370526],100,53,easy,plus,dotcolour,beta,,,63,18,V,R,
659,29,29,15,5,44,36,549,['c'],1,left,['0'],6,81,[0.05117281],100,44,hard,plus,dotcolour,beta,,,63,18,V,R,
660,30,30,15,5,36,44,1266,['n'],1,right,['0'],6,305,[-0.06642818],98,44,hard,plus,dotcolour,beta,,,63,18,V,R,
661,31,31,15,5,44,36,565,['c'],1,left,['0'],6,110,[0.08467768],100,44,hard,plus,dotcolour,beta,,,63,18,V,R,
662,32,32,15,5,27,53,733,['n'],1,right,['0'],6,98,[-0.13701127],100,53,easy,plus,dotcolour,beta,,,63,18,V,R,
663,33,33,15,5,27,53,567,['n'],1,right,['0'],6,111,[-0.08073124],100,53,easy,plus,dotcolour,beta,,,63,18,V,R,
664,34,34,15,5,47,33,1050,['c'],1,left,['0'],6,103,[0.06281095],100,47,medium,plus,dotcolour,beta,,,63,18,V,R,
665,35,35,15,5,47,33,1032,['c'],1,left,['9'],5,128,[0.08430381],100,47,medium,plus,dotcolour,beta,,,63,18,V,R,
666,36,36,15,5,44,36,714,['c'],1,left,['8'],4,309,[0.13396094],100,44,hard,plus,dotcolour,beta,,,63,18,V,R,
667,37,37,15,5,36,44,617,['n'],1,right,['0'],6,127,[-0.13306359],100,44,hard,plus,dotcolour,beta,,,63,18,V,R,
668,38,38,15,5,27,53,599,['n'],1,right,['0'],6,105,[-0.10832865],100,53,easy,plus,dotcolour,beta,,,63,18,V,R,
669,39,39,15,5,47,33,716,['c'],1,left,['0'],6,182,[0.04334684],98,47,medium,plus,dotcolour,beta,,,63,18,V,R,
670,40,40,15,5,36,44,648,['n'],1,right,['0'],6,76,[-0.07036244],100,44,hard,plus,dotcolour,beta,,,63,18,V,R,
671,41,41,15,5,33,47,501,['n'],1,right,['0'],6,139,[-0.07143914],100,47,medium,plus,dotcolour,beta,,,63,18,V,R,
672,42,0,16,5,53,27,1035,['c'],1,left,['0'],6,92,[0.10168647],100,53,easy,plus,dotcolour,beta,,,63,18,V,R,
673,43,1,16,5,27,53,566,['n'],1,right,['0'],6,88,[-0.08732662],100,53,easy,plus,dotcolour,beta,,,63,18,V,R,
674,44,2,16,5,33,47,449,['n'],1,right,['0'],6,58,[-0.10685812],100,47,medium,plus,dotcolour,beta,,,63,18,V,R,
675,45,3,16,5,44,36,900,['c'],1,left,['9'],5,251,[-0.0129019],82,44,hard,plus,dotcolour,beta,,,63,18,V,R,
676,46,4,16,5,36,44,467,['n'],1,right,['0'],6,317,[-0.11183779],100,44,hard,plus,dotcolour,beta,,,63,18,V,R,
677,47,5,16,5,36,44,817,['n'],1,right,['8'],4,350,[-0.06588096],98,44,hard,plus,dotcolour,beta,,,63,18,V,R,
678,48,6,16,5,53,27,549,['n'],0,left,['2'],2,1153,[0.17035174],13,53,easy,plus,dotcolour,beta,,,63,18,V,R,
679,49,7,16,5,27,53,599,['n'],1,right,['0'],6,120,[-0.10053608],100,53,easy,plus,dotcolour,beta,,,63,18,V,R,
680,50,8,16,5,33,47,514,['n'],1,right,['0'],6,118,[-0.14367042],100,47,medium,plus,dotcolour,beta,,,63,18,V,R,
681,51,9,16,5,53,27,750,['c'],1,left,['9'],5,330,[0.17767327],100,53,easy,plus,dotcolour,beta,,,63,18,V,R,
682,52,10,16,5,36,44,448,['n'],1,right,['0'],6,122,[-0.05524156],100,44,hard,plus,dotcolour,beta,,,63,18,V,R,
683,53,11,16,5,44,36,749,['n'],0,left,['9'],5,310,[0.00417976],84,44,hard,plus,dotcolour,beta,,,63,18,V,R,
684,54,12,16,5,47,33,667,['c'],1,left,['9'],5,165,[0.06264417],99,47,medium,plus,dotcolour,beta,,,63,18,V,R,
685,55,13,16,5,44,36,600,['n'],0,left,['0'],6,134,[-0.12943097],100,44,hard,plus,dotcolour,beta,,,63,18,V,R,
686,56,14,16,5,27,53,599,['n'],1,right,['0'],6,95,[-0.03681521],100,53,easy,plus,dotcolour,beta,,,63,18,V,R,
687,57,15,16,5,27,53,467,['n'],1,right,['0'],6,104,[-0.09994849],100,53,easy,plus,dotcolour,beta,,,63,18,V,R,
688,58,16,16,5,47,33,733,['c'],1,left,['9'],5,117,[0.10571865],100,47,medium,plus,dotcolour,beta,,,63,18,V,R,
689,59,17,16,5,44,36,951,['c'],1,left,['0'],6,322,[0.01755744],91,44,hard,plus,dotcolour,beta,,,63,18,V,R,
690,60,18,16,5,36,44,600,['n'],1,right,['0'],6,67,[-0.05306715],100,44,hard,plus,dotcolour,beta,,,63,18,V,R,
691,61,19,16,5,33,47,434,['n'],1,right,['0'],6,78,[-0.09834884],100,47,medium,plus,dotcolour,beta,,,63,18,V,R,
692,62,20,16,5,27,53,416,['n'],1,right,['0'],6,114,[-0.05853788],100,53,easy,plus,dotcolour,beta,,,63,18,V,R,
693,63,21,16,5,53,27,549,['c'],1,left,['0'],6,102,[0.01881125],99,53,easy,plus,dotcolour,beta,,,63,18,V,R,
694,64,22,16,5,53,27,967,['c'],1,left,['8'],4,178,[0.13111998],100,53,easy,plus,dotcolour,beta,,,63,18,V,R,
695,65,23,16,5,44,36,1035,['c'],1,left,['8'],4,112,[0.08765109],100,44,hard,plus,dotcolour,beta,,,63,18,V,R,
696,66,24,16,5,36,44,1100,['n'],1,right,['9'],5,206,[-0.05017294],99,44,hard,plus,dotcolour,beta,,,63,18,V,R,
697,67,25,16,5,47,33,884,['c'],1,left,['8'],4,145,[0.07009766],100,47,medium,plus,dotcolour,beta,,,63,18,V,R,
698,68,26,16,5,27,53,851,['n'],1,right,['0'],6,24,[-0.05704216],100,53,easy,plus,dotcolour,beta,,,63,18,V,R,
699,69,27,16,5,47,33,1167,['c'],1,left,['9'],5,127,[0.12231474],100,47,medium,plus,dotcolour,beta,,,63,18,V,R,
700,70,28,16,5,33,47,832,['n'],1,right,['0'],6,103,[-0.07683475],100,47,medium,plus,dotcolour,beta,,,63,18,V,R,
701,71,29,16,5,33,47,517,['n'],1,right,['0'],6,109,[-0.01850651],98,47,medium,plus,dotcolour,beta,,,63,18,V,R,
702,72,30,16,5,44,36,1033,['n'],0,left,['8'],4,238,[-0.0275148],96,44,hard,plus,dotcolour,beta,,,63,18,V,R,
703,73,31,16,5,33,47,883,['n'],1,right,['9'],5,15,[-0.06880725],100,47,medium,plus,dotcolour,beta,,,63,18,V,R,
704,74,32,16,5,44,36,2335,['c'],1,left,['0'],6,191,[0.13630871],100,44,hard,plus,dotcolour,beta,,,63,18,V,R,
705,75,33,16,5,27,53,649,['n'],1,right,['0'],6,115,[-0.08543052],100,53,easy,plus,dotcolour,beta,,,63,18,V,R,
706,76,34,16,5,36,44,1951,['c'],0,right,['8'],4,303,[0.03825843],96,44,hard,plus,dotcolour,beta,,,63,18,V,R,
707,77,35,16,5,47,33,732,['n'],0,left,['0'],6,84,[-0.05343753],100,47,medium,plus,dotcolour,beta,,,63,18,V,R,
708,78,36,16,5,33,47,632,['n'],1,right,['0'],6,110,[-0.08868975],100,47,medium,plus,dotcolour,beta,,,63,18,V,R,
709,79,37,16,5,36,44,1035,['n'],1,right,['0'],6,159,[-0.05761193],99,44,hard,plus,dotcolour,beta,,,63,18,V,R,
710,80,38,16,5,47,33,902,['c'],1,left,['9'],5,115,[0.08711093],100,47,medium,plus,dotcolour,beta,,,63,18,V,R,
711,81,39,16,5,53,27,584,['c'],1,left,['9'],5,102,[0.07050791],100,53,easy,plus,dotcolour,beta,,,63,18,V,R,
712,82,40,16,5,53,27,884,['c'],1,left,['8'],4,62,[0.05809336],100,53,easy,plus,dotcolour,beta,,,63,18,V,R,
713,83,41,16,5,47,33,1114,['n'],0,left,['0'],6,125,[-0.08270163],100,47,medium,plus,dotcolour,beta,,,63,18,V,R,
714,84,0,17,5,44,36,817,['n'],0,left,['0'],6,71,[-0.04481838],100,44,hard,plus,dotcolour,beta,,,63,18,V,R,
715,85,1,17,5,27,53,384,['n'],1,right,['0'],6,117,[-0.08209566],100,53,easy,plus,dotcolour,beta,,,63,18,V,R,
716,86,2,17,5,44,36,216,['n'],0,left,['0'],6,70,[-0.10418668],100,44,hard,plus,dotcolour,beta,,,63,18,V,R,
717,87,3,17,5,47,33,651,['n'],0,left,['0'],6,113,[-0.0748323],100,47,medium,plus,dotcolour,beta,,,63,18,V,R,
718,88,4,17,5,27,53,616,['n'],1,right,['0'],6,99,[-0.13845792],100,53,easy,plus,dotcolour,beta,,,63,18,V,R,
719,89,5,17,5,36,44,449,['n'],1,right,['0'],6,124,[-0.10383586],100,44,hard,plus,dotcolour,beta,,,63,18,V,R,
720,90,6,17,5,47,33,515,['n'],0,left,['0'],6,49,[-0.03901648],100,47,medium,plus,dotcolour,beta,,,63,18,V,R,
721,91,7,17,5,44,36,599,['n'],0,left,['0'],6,182,[-0.13470686],100,44,hard,plus,dotcolour,beta,,,63,18,V,R,
722,92,8,17,5,36,44,583,['n'],1,right,['0'],6,62,[-0.08726026],100,44,hard,plus,dotcolour,beta,,,63,18,V,R,
723,93,9,17,5,47,33,782,['c'],1,left,['0'],6,84,[0.01812772],99,47,medium,plus,dotcolour,beta,,,63,18,V,R,
724,94,10,17,5,33,47,449,['n'],1,right,['0'],6,69,[-0.16473299],100,47,medium,plus,dotcolour,beta,,,63,18,V,R,
725,95,11,17,5,36,44,449,['n'],1,right,['0'],6,80,[-0.12915067],100,44,hard,plus,dotcolour,beta,,,63,18,V,R,
726,96,12,17,5,33,47,501,['n'],1,right,['0'],6,87,[-0.11914992],100,47,medium,plus,dotcolour,beta,,,63,18,V,R,
727,97,13,17,5,33,47,516,['n'],1,right,['0'],6,79,[-0.04587898],100,47,medium,plus,dotcolour,beta,,,63,18,V,R,
728,98,14,17,5,53,27,384,['n'],0,left,['1'],1,1043,[-0.00147414],73,53,easy,plus,dotcolour,beta,,,63,18,V,R,
729,99,15,17,5,33,47,667,['n'],1,right,['0'],6,69,[-0.10247957],100,47,medium,plus,dotcolour,beta,,,63,18,V,R,
730,100,16,17,5,44,36,1282,['c'],1,left,['0'],6,101,[0.03589612],99,44,hard,plus,dotcolour,beta,,,63,18,V,R,
731,101,17,17,5,44,36,983,['n'],0,left,['8'],4,112,[-0.05278788],100,44,hard,plus,dotcolour,beta,,,63,18,V,R,
732,102,18,17,5,53,27,866,['c'],1,left,['0'],6,103,[0.09360713],100,53,easy,plus,dotcolour,beta,,,63,18,V,R,
733,103,19,17,5,27,53,548,['n'],1,right,['0'],6,60,[-0.08926196],100,53,easy,plus,dotcolour,beta,,,63,18,V,R,
734,104,20,17,5,36,44,466,['n'],1,right,['0'],6,94,[-0.05954049],100,44,hard,plus,dotcolour,beta,,,63,18,V,R,
735,105,21,17,5,36,44,616,['n'],1,right,['0'],6,33,[-0.05837222],100,44,hard,plus,dotcolour,beta,,,63,18,V,R,
736,106,22,17,5,53,27,1000,['c'],1,left,['9'],5,134,[0.1534624],100,53,easy,plus,dotcolour,beta,,,63,18,V,R,
737,107,23,17,5,44,36,1100,['n'],0,left,['0'],6,52,[-0.0372811],100,44,hard,plus,dotcolour,beta,,,63,18,V,R,
738,108,24,17,5,27,53,484,['n'],1,right,['0'],6,61,[-0.05796954],100,53,easy,plus,dotcolour,beta,,,63,18,V,R,
739,109,25,17,5,36,44,499,['n'],1,right,['0'],6,78,[-0.08410977],100,44,hard,plus,dotcolour,beta,,,63,18,V,R,
740,110,26,17,5,27,53,450,['n'],1,right,['0'],6,72,[-0.0767164],100,53,easy,plus,dotcolour,beta,,,63,18,V,R,
741,111,27,17,5,53,27,848,['c'],1,left,['0'],6,82,[0.06734267],100,53,easy,plus,dotcolour,beta,,,63,18,V,R,
742,112,28,17,5,53,27,834,['c'],1,left,['9'],5,60,[0.0966453],100,53,easy,plus,dotcolour,beta,,,63,18,V,R,
743,113,29,17,5,47,33,566,['c'],1,left,['3'],3,802,[0.08332622],94,47,medium,plus,dotcolour,beta,,,63,18,V,R,
744,114,30,17,5,53,27,883,['c'],1,left,['0'],6,141,[0.15671545],100,53,easy,plus,dotcolour,beta,,,63,18,V,R,
745,115,31,17,5,33,47,667,['n'],1,right,['0'],6,100,[-0.0682792],100,47,medium,plus,dotcolour,beta,,,63,18,V,R,
746,116,32,17,5,44,36,935,['c'],1,left,['0'],6,121,[0.04677552],100,44,hard,plus,dotcolour,beta,,,63,18,V,R,
747,117,33,17,5,36,44,884,['n'],1,right,['0'],6,80,[-0.0731295],100,44,hard,plus,dotcolour,beta,,,63,18,V,R,
748,118,34,17,5,27,53,415,['n'],1,right,['0'],6,51,[-0.07538637],100,53,easy,plus,dotcolour,beta,,,63,18,V,R,
749,119,35,17,5,33,47,500,['n'],1,right,['0'],6,68,[-0.08633701],100,47,medium,plus,dotcolour,beta,,,63,18,V,R,
750,120,36,17,5,47,33,700,['c'],1,left,['9'],5,85,[0.08875335],100,47,medium,plus,dotcolour,beta,,,63,18,V,R,
751,121,37,17,5,47,33,899,['c'],1,left,['0'],6,108,[0.08162916],100,47,medium,plus,dotcolour,beta,,,63,18,V,R,
752,122,38,17,5,27,53,565,['n'],1,right,['0'],6,80,[-0.11635168],100,53,easy,plus,dotcolour,beta,,,63,18,V,R,
753,123,39,17,5,53,27,1016,['n'],0,left,['0'],6,107,[-0.09218529],100,53,easy,plus,dotcolour,beta,,,63,18,V,R,
754,124,40,17,5,47,33,650,['n'],0,left,['2'],2,764,[0.14597249],13,47,medium,plus,dotcolour,beta,,,63,18,V,R,
755,125,41,17,5,33,47,999,['n'],1,right,['0'],6,115,[-0.11757744],100,47,medium,plus,dotcolour,beta,,,63,18,V,R,
,,,,,,,,,,,,,,,,,,,,,1,ik vond de procenten soms wat raar,63,18,V,R,
,,,,,,,,,,,,,,,,,,,,,2,['f'],63,18,V,R,
,,,,,,,,,,,,,,,,,,,,,3,['d'],63,18,V,R,
,,,,,,,,,,,,,,,,,,,,,5,[],63,18,V,R,
