trial,withinphasetrial,withinblocktrial,block,phase,dotsLeft,dotsRight,rt,resp,cor,cresp,conf_press,cj,RTconf,ev,fb,diff,difflevel,condition,task,manip,questionID,questionResp,sub,age,gender,handedness,
0,0,0,0,0,44,36,2167,['c'],1,left,['8'],4,2573,[0.05890182],78,44,hard,plus,dotcolour,beta,,,2,18,V,R,
1,1,1,0,0,27,53,1232,['n'],1,right,['0'],6,1429,[-0.09709871],91,53,easy,plus,dotcolour,beta,,,2,18,V,R,
2,2,2,0,0,36,44,3282,['c'],0,right,['3'],3,577,[0.0581292],94,44,hard,plus,dotcolour,beta,,,2,18,V,R,
3,3,3,0,0,53,27,4049,['c'],1,left,['3'],3,1673,[0.43618261],100,53,easy,plus,dotcolour,beta,,,2,18,V,R,
4,4,4,0,0,47,33,1532,['n'],0,left,['8'],4,1354,[-0.0858254],90,47,medium,plus,dotcolour,beta,,,2,18,V,R,
5,5,5,0,0,44,36,1681,['c'],1,left,['8'],4,1313,[0.07581036],89,44,hard,plus,dotcolour,beta,,,2,18,V,R,
6,6,6,0,0,44,36,1566,['n'],0,left,['0'],6,1167,[0.04765192],53,44,hard,plus,dotcolour,beta,,,2,18,V,R,
7,7,7,0,0,36,44,1433,['n'],1,right,['9'],5,2031,[-0.04600237],78,44,hard,plus,dotcolour,beta,,,2,18,V,R,
8,8,8,0,0,27,53,897,['n'],1,right,['0'],6,731,[-0.07992346],95,53,easy,plus,dotcolour,beta,,,2,18,V,R,
9,9,9,0,0,53,27,2099,['c'],1,left,['8'],4,1283,[0.3324758],100,53,easy,plus,dotcolour,beta,,,2,18,V,R,
10,10,10,0,0,36,44,983,['n'],1,right,['9'],5,952,[-0.11151422],96,44,hard,plus,dotcolour,beta,,,2,18,V,R,
11,11,11,0,0,27,53,881,['n'],1,right,['0'],6,463,[-0.15562436],100,53,easy,plus,dotcolour,beta,,,2,18,V,R,
12,12,12,0,0,47,33,1015,['c'],1,left,['9'],5,1021,[0.24443713],100,47,medium,plus,dotcolour,beta,,,2,18,V,R,
13,13,13,0,0,36,44,1165,['n'],1,right,['0'],6,1479,[-0.11099519],92,44,hard,plus,dotcolour,beta,,,2,18,V,R,
14,14,14,0,0,36,44,1150,['n'],1,right,['8'],4,1199,[-0.11203307],94,44,hard,plus,dotcolour,beta,,,2,18,V,R,
15,15,15,0,0,36,44,1215,['n'],1,right,['0'],6,1159,[-0.1137985],94,44,hard,plus,dotcolour,beta,,,2,18,V,R,
16,16,16,0,0,44,36,1765,['c'],1,left,['8'],4,435,[0.15278459],100,44,hard,plus,dotcolour,beta,,,2,18,V,R,
17,17,17,0,0,27,53,932,['n'],1,right,['9'],5,1117,[-0.32450801],100,53,easy,plus,dotcolour,beta,,,2,18,V,R,
18,18,18,0,0,53,27,1299,['c'],1,left,['8'],4,717,[0.22762687],100,53,easy,plus,dotcolour,beta,,,2,18,V,R,
19,19,19,0,0,44,36,1415,['n'],0,left,['9'],5,1312,[-0.07858146],89,44,hard,plus,dotcolour,beta,,,2,18,V,R,
20,20,20,0,0,53,27,1150,['c'],1,left,['8'],4,559,[0.07715937],96,53,easy,plus,dotcolour,beta,,,2,18,V,R,
21,21,21,0,0,47,33,1332,['c'],1,left,['9'],5,820,[0.24882674],100,47,medium,plus,dotcolour,beta,,,2,18,V,R,
22,22,22,0,0,44,36,965,['n'],0,left,['8'],4,990,[-0.05705788],88,44,hard,plus,dotcolour,beta,,,2,18,V,R,
23,23,23,0,0,53,27,1150,['c'],1,left,['9'],5,1361,[0.3239577],100,53,easy,plus,dotcolour,beta,,,2,18,V,R,
24,24,24,0,0,36,44,1467,['n'],1,right,['9'],5,1137,[-0.32869113],100,44,hard,plus,dotcolour,beta,,,2,18,V,R,
25,25,25,0,0,33,47,1033,['n'],1,right,['9'],5,1267,[-0.33989742],100,47,medium,plus,dotcolour,beta,,,2,18,V,R,
26,26,26,0,0,53,27,1067,['c'],1,left,['9'],5,878,[0.15398727],98,53,easy,plus,dotcolour,beta,,,2,18,V,R,
27,27,27,0,0,47,33,2034,['c'],1,left,['8'],4,371,[0.10549464],99,47,medium,plus,dotcolour,beta,,,2,18,V,R,
28,28,28,0,0,33,47,1100,['n'],1,right,['8'],4,1385,[0.03621747],57,47,medium,plus,dotcolour,beta,,,2,18,V,R,
29,29,29,0,0,33,47,1017,['n'],1,right,['0'],6,1098,[-0.24062357],99,47,medium,plus,dotcolour,beta,,,2,18,V,R,
30,30,30,0,0,33,47,1134,['n'],1,right,['9'],5,521,[-0.07639221],96,47,medium,plus,dotcolour,beta,,,2,18,V,R,
31,31,31,0,0,33,47,1501,['n'],1,right,['8'],4,1329,[-0.24496034],99,47,medium,plus,dotcolour,beta,,,2,18,V,R,
32,32,32,0,0,47,33,1450,['c'],1,left,['8'],4,451,[0.17247569],100,47,medium,plus,dotcolour,beta,,,2,18,V,R,
33,33,33,0,0,27,53,865,['n'],1,right,['0'],6,1424,[-0.34150475],100,53,easy,plus,dotcolour,beta,,,2,18,V,R,
34,34,34,0,0,27,53,815,['n'],1,right,['0'],6,3087,[-0.48032992],100,53,easy,plus,dotcolour,beta,,,2,18,V,R,
35,35,35,0,0,47,33,1531,['c'],1,left,['8'],4,342,[0.06446463],98,47,medium,plus,dotcolour,beta,,,2,18,V,R,
36,36,36,0,0,33,47,967,['n'],1,right,['0'],6,739,[-0.19838618],100,47,medium,plus,dotcolour,beta,,,2,18,V,R,
37,37,37,0,0,27,53,767,['n'],1,right,['0'],6,680,[-0.19642441],100,53,easy,plus,dotcolour,beta,,,2,18,V,R,
38,38,38,0,0,44,36,1249,['c'],1,left,['8'],4,652,[0.0860583],96,44,hard,plus,dotcolour,beta,,,2,18,V,R,
39,39,39,0,0,33,47,983,['n'],1,right,['9'],5,828,[-0.20965289],99,47,medium,plus,dotcolour,beta,,,2,18,V,R,
40,40,40,0,0,53,27,1100,['c'],1,left,['8'],4,616,[0.08383729],96,53,easy,plus,dotcolour,beta,,,2,18,V,R,
41,41,41,0,0,47,33,1351,['c'],1,left,['8'],4,570,[0.14008748],99,47,medium,plus,dotcolour,beta,,,2,18,V,R,
42,42,0,1,0,47,33,1533,['n'],0,left,['8'],4,1392,[0.14000585],22,47,medium,plus,dotcolour,beta,,,2,18,V,R,
43,43,1,1,0,47,33,1730,['c'],1,left,['8'],4,876,[0.3133095],100,47,medium,plus,dotcolour,beta,,,2,18,V,R,
44,44,2,1,0,53,27,1148,['c'],1,left,['9'],5,1068,[0.16616558],98,53,easy,plus,dotcolour,beta,,,2,18,V,R,
45,45,3,1,0,44,36,2279,['n'],0,left,['8'],4,455,[0.00239512],81,44,hard,plus,dotcolour,beta,,,2,18,V,R,
46,46,4,1,0,33,47,916,['n'],1,right,['0'],6,424,[-0.00224149],83,47,medium,plus,dotcolour,beta,,,2,18,V,R,
47,47,5,1,0,44,36,2732,['c'],1,left,['8'],4,811,[0.17051502],99,44,hard,plus,dotcolour,beta,,,2,18,V,R,
48,48,6,1,0,27,53,932,['n'],1,right,['0'],6,518,[-0.11182492],99,53,easy,plus,dotcolour,beta,,,2,18,V,R,
49,49,7,1,0,53,27,1332,['c'],1,left,['9'],5,758,[0.20164657],100,53,easy,plus,dotcolour,beta,,,2,18,V,R,
50,50,8,1,0,44,36,2863,['c'],1,left,['8'],4,477,[0.25240762],100,44,hard,plus,dotcolour,beta,,,2,18,V,R,
51,51,9,1,0,33,47,849,['n'],1,right,['9'],5,401,[-0.05151172],95,47,medium,plus,dotcolour,beta,,,2,18,V,R,
52,52,10,1,0,47,33,1665,['c'],1,left,['8'],4,735,[0.17451217],99,47,medium,plus,dotcolour,beta,,,2,18,V,R,
53,53,11,1,0,47,33,1532,['c'],1,left,['8'],4,310,[0.06648407],98,47,medium,plus,dotcolour,beta,,,2,18,V,R,
54,54,12,1,0,53,27,2117,['c'],1,left,['8'],4,566,[0.32325331],100,53,easy,plus,dotcolour,beta,,,2,18,V,R,
55,55,13,1,0,36,44,965,['n'],1,right,['0'],6,442,[-0.11437346],99,44,hard,plus,dotcolour,beta,,,2,18,V,R,
56,56,14,1,0,27,53,784,['n'],1,right,['8'],4,5034,[-0.95934584],100,53,easy,plus,dotcolour,beta,,,2,18,V,R,
57,57,15,1,0,44,36,1398,['c'],1,left,['9'],5,585,[0.17236633],100,44,hard,plus,dotcolour,beta,,,2,18,V,R,
58,58,16,1,0,44,36,1648,['n'],0,left,['8'],4,1256,[-0.08568837],91,44,hard,plus,dotcolour,beta,,,2,18,V,R,
59,59,17,1,0,53,27,1049,['c'],1,left,['8'],4,500,[0.1532863],100,53,easy,plus,dotcolour,beta,,,2,18,V,R,
60,60,18,1,0,27,53,1033,['n'],1,right,['9'],5,465,[-0.08301282],97,53,easy,plus,dotcolour,beta,,,2,18,V,R,
61,61,19,1,0,36,44,1849,['n'],1,right,['8'],4,646,[-0.11712116],98,44,hard,plus,dotcolour,beta,,,2,18,V,R,
62,62,20,1,0,33,47,915,['n'],1,right,['9'],5,912,[-0.09344457],94,47,medium,plus,dotcolour,beta,,,2,18,V,R,
63,63,21,1,0,53,27,832,['c'],1,left,['9'],5,1995,[0.37076855],100,53,easy,plus,dotcolour,beta,,,2,18,V,R,
64,64,22,1,0,47,33,2848,['c'],1,left,['8'],4,330,[0.23960814],100,47,medium,plus,dotcolour,beta,,,2,18,V,R,
65,65,23,1,0,27,53,699,['n'],1,right,['8'],4,490,[-0.06933028],96,53,easy,plus,dotcolour,beta,,,2,18,V,R,
66,66,24,1,0,44,36,2164,['c'],1,left,['8'],4,464,[0.14245581],99,44,hard,plus,dotcolour,beta,,,2,18,V,R,
67,67,25,1,0,36,44,1232,['n'],1,right,['9'],5,790,[-0.23450393],100,44,hard,plus,dotcolour,beta,,,2,18,V,R,
68,68,26,1,0,36,44,3015,['n'],1,right,['8'],4,1583,[-0.27422313],99,44,hard,plus,dotcolour,beta,,,2,18,V,R,
69,69,27,1,0,53,27,1166,['c'],1,left,['9'],5,810,[0.28795582],100,53,easy,plus,dotcolour,beta,,,2,18,V,R,
70,70,28,1,0,47,33,1833,['c'],1,left,['8'],4,313,[0.11722637],100,47,medium,plus,dotcolour,beta,,,2,18,V,R,
71,71,29,1,0,36,44,2033,['n'],1,right,['8'],4,1036,[-0.07722481],91,44,hard,plus,dotcolour,beta,,,2,18,V,R,
72,72,30,1,0,36,44,999,['n'],1,right,['9'],5,1019,[-0.14085095],97,44,hard,plus,dotcolour,beta,,,2,18,V,R,
73,73,31,1,0,44,36,1316,['c'],1,left,['8'],4,478,[0.11717458],99,44,hard,plus,dotcolour,beta,,,2,18,V,R,
74,74,32,1,0,27,53,765,['n'],1,right,['9'],5,846,[-0.06753224],92,53,easy,plus,dotcolour,beta,,,2,18,V,R,
75,75,33,1,0,33,47,1314,['n'],1,right,['9'],5,641,[-0.14353694],99,47,medium,plus,dotcolour,beta,,,2,18,V,R,
76,76,34,1,0,27,53,715,['n'],1,right,['9'],5,723,[-0.30191854],100,53,easy,plus,dotcolour,beta,,,2,18,V,R,
77,77,35,1,0,36,44,1397,['n'],1,right,['9'],5,463,[0.02076095],72,44,hard,plus,dotcolour,beta,,,2,18,V,R,
78,78,36,1,0,27,53,699,['n'],1,right,['9'],5,1002,[-0.14272029],97,53,easy,plus,dotcolour,beta,,,2,18,V,R,
79,79,37,1,0,33,47,781,['n'],1,right,['0'],6,723,[-0.08727987],95,47,medium,plus,dotcolour,beta,,,2,18,V,R,
80,80,38,1,0,33,47,1666,['n'],1,right,['0'],6,756,[-0.00261699],77,47,medium,plus,dotcolour,beta,,,2,18,V,R,
81,81,39,1,0,33,47,1816,['n'],1,right,['8'],4,838,[-0.22660099],100,47,medium,plus,dotcolour,beta,,,2,18,V,R,
82,82,40,1,0,53,27,1299,['c'],1,left,['0'],6,890,[-0.0875792],35,53,easy,plus,dotcolour,beta,,,2,18,V,R,
83,83,41,1,0,47,33,3248,['c'],1,left,['8'],4,1733,[0.35956326],100,47,medium,plus,dotcolour,beta,,,2,18,V,R,
84,84,0,2,0,36,44,984,['n'],1,right,['9'],5,682,[0.00954866],73,44,hard,plus,dotcolour,beta,,,2,18,V,R,
85,85,1,2,0,33,47,2099,['n'],1,right,['8'],4,588,[-0.12332637],99,47,medium,plus,dotcolour,beta,,,2,18,V,R,
86,86,2,2,0,47,33,1667,['c'],1,left,['8'],4,442,[0.12671509],99,47,medium,plus,dotcolour,beta,,,2,18,V,R,
87,87,3,2,0,53,27,1383,['c'],1,left,['8'],4,426,[0.10522184],99,53,easy,plus,dotcolour,beta,,,2,18,V,R,
88,88,4,2,0,36,44,1098,['n'],1,right,['8'],4,255,[-0.09911488],100,44,hard,plus,dotcolour,beta,,,2,18,V,R,
89,89,5,2,0,53,27,1131,['c'],1,left,['9'],5,448,[0.20004475],100,53,easy,plus,dotcolour,beta,,,2,18,V,R,
90,90,6,2,0,47,33,1032,['c'],1,left,['9'],5,422,[0.06250696],96,47,medium,plus,dotcolour,beta,,,2,18,V,R,
91,91,7,2,0,44,36,1232,['n'],0,left,['9'],5,461,[-0.01555175],87,44,hard,plus,dotcolour,beta,,,2,18,V,R,
92,92,8,2,0,36,44,2232,['c'],0,right,['8'],4,619,[0.02552366],86,44,hard,plus,dotcolour,beta,,,2,18,V,R,
93,93,9,2,0,27,53,733,['n'],1,right,['9'],5,478,[-0.28427357],100,53,easy,plus,dotcolour,beta,,,2,18,V,R,
94,94,10,2,0,33,47,764,['n'],1,right,['9'],5,453,[-0.0700409],97,47,medium,plus,dotcolour,beta,,,2,18,V,R,
95,95,11,2,0,36,44,999,['n'],1,right,['9'],5,316,[-0.02245471],92,44,hard,plus,dotcolour,beta,,,2,18,V,R,
96,96,12,2,0,36,44,2898,['c'],0,right,['8'],4,277,[0.10302215],100,44,hard,plus,dotcolour,beta,,,2,18,V,R,
97,97,13,2,0,27,53,1116,['n'],1,right,['9'],5,998,[-0.19447718],99,53,easy,plus,dotcolour,beta,,,2,18,V,R,
98,98,14,2,0,47,33,2015,['c'],1,left,['8'],4,367,[0.03868341],94,47,medium,plus,dotcolour,beta,,,2,18,V,R,
99,99,15,2,0,53,27,1899,['c'],1,left,['9'],5,470,[0.20314757],100,53,easy,plus,dotcolour,beta,,,2,18,V,R,
100,100,16,2,0,44,36,1431,['c'],1,left,['9'],5,410,[0.03321455],92,44,hard,plus,dotcolour,beta,,,2,18,V,R,
101,101,17,2,0,33,47,1099,['n'],1,right,['9'],5,680,[-0.01219793],81,47,medium,plus,dotcolour,beta,,,2,18,V,R,
102,102,18,2,0,33,47,1315,['n'],1,right,['9'],5,457,[-0.1056742],99,47,medium,plus,dotcolour,beta,,,2,18,V,R,
103,103,19,2,0,53,27,1633,['c'],1,left,['8'],4,454,[0.19972654],100,53,easy,plus,dotcolour,beta,,,2,18,V,R,
104,104,20,2,0,27,53,983,['n'],1,right,['9'],5,621,[-0.1622557],99,53,easy,plus,dotcolour,beta,,,2,18,V,R,
105,105,21,2,0,44,36,949,['c'],1,left,['8'],4,335,[0.07444169],98,44,hard,plus,dotcolour,beta,,,2,18,V,R,
106,106,22,2,0,36,44,1248,['n'],1,right,['8'],4,289,[-0.15866387],100,44,hard,plus,dotcolour,beta,,,2,18,V,R,
107,107,23,2,0,27,53,1033,['n'],1,right,['9'],5,453,[-0.16748226],100,53,easy,plus,dotcolour,beta,,,2,18,V,R,
108,108,24,2,0,53,27,898,['c'],1,left,['9'],5,520,[0.20086205],100,53,easy,plus,dotcolour,beta,,,2,18,V,R,
109,109,25,2,0,47,33,1065,['c'],1,left,['9'],5,249,[0.09759494],100,47,medium,plus,dotcolour,beta,,,2,18,V,R,
110,110,26,2,0,33,47,848,['n'],1,right,['9'],5,343,[-0.16179012],100,47,medium,plus,dotcolour,beta,,,2,18,V,R,
111,111,27,2,0,44,36,1282,['n'],0,left,['8'],4,423,[-0.00127183],83,44,hard,plus,dotcolour,beta,,,2,18,V,R,
112,112,28,2,0,47,33,982,['c'],1,left,['0'],6,440,[0.16857686],100,47,medium,plus,dotcolour,beta,,,2,18,V,R,
113,113,29,2,0,44,36,1899,['c'],1,left,['0'],6,531,[0.13132989],99,44,hard,plus,dotcolour,beta,,,2,18,V,R,
114,114,30,2,0,33,47,932,['n'],1,right,['0'],6,330,[-0.12664143],100,47,medium,plus,dotcolour,beta,,,2,18,V,R,
115,115,31,2,0,53,27,867,['c'],1,left,['0'],6,331,[0.11649083],100,53,easy,plus,dotcolour,beta,,,2,18,V,R,
116,116,32,2,0,44,36,798,['c'],1,left,['0'],6,311,[0.05373082],97,44,hard,plus,dotcolour,beta,,,2,18,V,R,
117,117,33,2,0,47,33,1183,['c'],1,left,['9'],5,284,[-0.00106599],86,47,medium,plus,dotcolour,beta,,,2,18,V,R,
118,118,34,2,0,27,53,865,['n'],1,right,['0'],6,351,[-0.11867077],100,53,easy,plus,dotcolour,beta,,,2,18,V,R,
119,119,35,2,0,44,36,1697,['c'],1,left,['9'],5,301,[0.11695574],100,44,hard,plus,dotcolour,beta,,,2,18,V,R,
120,120,36,2,0,27,53,1016,['n'],1,right,['0'],6,291,[-0.16729511],100,53,easy,plus,dotcolour,beta,,,2,18,V,R,
121,121,37,2,0,33,47,849,['n'],1,right,['0'],6,262,[-0.0978395],100,47,medium,plus,dotcolour,beta,,,2,18,V,R,
122,122,38,2,0,47,33,800,['c'],1,left,['0'],6,324,[0.16558186],100,47,medium,plus,dotcolour,beta,,,2,18,V,R,
123,123,39,2,0,53,27,696,['c'],1,left,['0'],6,325,[0.06462682],98,53,easy,plus,dotcolour,beta,,,2,18,V,R,
124,124,40,2,0,36,44,864,['n'],1,right,['9'],5,422,[-0.04809878],95,44,hard,plus,dotcolour,beta,,,2,18,V,R,
125,125,41,2,0,27,53,698,['n'],1,right,['9'],5,322,[-0.11788044],100,53,easy,plus,dotcolour,beta,,,2,18,V,R,
126,0,0,3,1,53,27,1299,['c'],1,left,['9'],5,673,[0.15785221],90,53,easy,minus,dotcolour,beta,,,2,18,V,R,
127,1,1,3,1,47,33,1099,['c'],1,left,['8'],4,234,[0.20624329],100,47,medium,minus,dotcolour,beta,,,2,18,V,R,
128,2,2,3,1,47,33,832,['c'],1,left,['8'],4,225,[0.13023567],94,47,medium,minus,dotcolour,beta,,,2,18,V,R,
129,3,3,3,1,33,47,698,['n'],1,right,['9'],5,710,[-0.1702673],92,47,medium,minus,dotcolour,beta,,,2,18,V,R,
130,4,4,3,1,36,44,766,['n'],1,right,['9'],5,363,[-0.04697006],44,44,hard,minus,dotcolour,beta,,,2,18,V,R,
131,5,5,3,1,33,47,1265,['n'],1,right,['9'],5,331,[-0.13014167],91,47,medium,minus,dotcolour,beta,,,2,18,V,R,
132,6,6,3,1,33,47,780,['n'],1,right,['9'],5,905,[-0.28788263],99,47,medium,minus,dotcolour,beta,,,2,18,V,R,
133,7,7,3,1,36,44,1816,['n'],1,right,['8'],4,260,[-0.01829895],21,44,hard,minus,dotcolour,beta,,,2,18,V,R,
134,8,8,3,1,44,36,915,['c'],1,left,['9'],5,918,[0.14502173],84,44,hard,minus,dotcolour,beta,,,2,18,V,R,
135,9,9,3,1,44,36,1115,['c'],1,left,['8'],4,661,[0.0634332],54,44,hard,minus,dotcolour,beta,,,2,18,V,R,
136,10,10,3,1,27,53,1132,['n'],1,right,['9'],5,871,[-0.19888742],94,53,easy,minus,dotcolour,beta,,,2,18,V,R,
137,11,11,3,1,53,27,850,['c'],1,left,['9'],5,387,[0.13213312],90,53,easy,minus,dotcolour,beta,,,2,18,V,R,
138,12,12,3,1,27,53,916,['n'],1,right,['9'],5,799,[-0.17349286],91,53,easy,minus,dotcolour,beta,,,2,18,V,R,
139,13,13,3,1,27,53,766,['n'],1,right,['0'],6,258,[-0.0394637],36,53,easy,minus,dotcolour,beta,,,2,18,V,R,
140,14,14,3,1,36,44,1049,['n'],1,right,['9'],5,519,[-0.22903358],99,44,hard,minus,dotcolour,beta,,,2,18,V,R,
141,15,15,3,1,27,53,748,['n'],1,right,['9'],5,565,[-0.0534466],49,53,easy,minus,dotcolour,beta,,,2,18,V,R,
142,16,16,3,1,53,27,980,['c'],1,left,['9'],5,848,[0.33516146],100,53,easy,minus,dotcolour,beta,,,2,18,V,R,
143,17,17,3,1,33,47,1049,['n'],1,right,['8'],4,469,[-0.13950434],90,47,medium,minus,dotcolour,beta,,,2,18,V,R,
144,18,18,3,1,36,44,698,['n'],1,right,['8'],4,263,[-0.03153655],30,44,hard,minus,dotcolour,beta,,,2,18,V,R,
145,19,19,3,1,33,47,1167,['n'],1,right,['8'],4,511,[-0.17771065],96,47,medium,minus,dotcolour,beta,,,2,18,V,R,
146,20,20,3,1,44,36,1231,['c'],1,left,['8'],4,314,[0.08662213],73,44,hard,minus,dotcolour,beta,,,2,18,V,R,
147,21,21,3,1,44,36,1198,['c'],1,left,['8'],4,239,[0.20529502],100,44,hard,minus,dotcolour,beta,,,2,18,V,R,
148,22,22,3,1,36,44,1615,['n'],1,right,['8'],4,549,[0.00742402],18,44,hard,minus,dotcolour,beta,,,2,18,V,R,
149,23,23,3,1,33,47,1333,['n'],1,right,['8'],4,276,[-0.10519082],85,47,medium,minus,dotcolour,beta,,,2,18,V,R,
150,24,24,3,1,27,53,1066,['n'],1,right,['9'],5,2151,[-0.33126574],97,53,easy,minus,dotcolour,beta,,,2,18,V,R,
151,25,25,3,1,47,33,863,['c'],1,left,['9'],5,503,[0.07258157],61,47,medium,minus,dotcolour,beta,,,2,18,V,R,
152,26,26,3,1,47,33,864,['c'],1,left,['9'],5,369,[0.0008389],17,47,medium,minus,dotcolour,beta,,,2,18,V,R,
153,27,27,3,1,44,36,1733,['c'],1,left,['9'],5,710,[-0.00858392],20,44,hard,minus,dotcolour,beta,,,2,18,V,R,
154,28,28,3,1,33,47,1616,['n'],1,right,['8'],4,642,[-0.14635558],88,47,medium,minus,dotcolour,beta,,,2,18,V,R,
155,29,29,3,1,27,53,782,['n'],1,right,['9'],5,394,[-0.13170321],90,53,easy,minus,dotcolour,beta,,,2,18,V,R,
156,30,30,3,1,53,27,982,['c'],1,left,['9'],5,716,[0.01940971],32,53,easy,minus,dotcolour,beta,,,2,18,V,R,
157,31,31,3,1,47,33,1115,['c'],1,left,['9'],5,707,[0.16127017],91,47,medium,minus,dotcolour,beta,,,2,18,V,R,
158,32,32,3,1,44,36,1782,['n'],0,left,['8'],4,969,[-0.05586768],50,44,hard,minus,dotcolour,beta,,,2,18,V,R,
159,33,33,3,1,53,27,931,['c'],1,left,['9'],5,430,[0.14311168],92,53,easy,minus,dotcolour,beta,,,2,18,V,R,
160,34,34,3,1,27,53,1682,['n'],1,right,['9'],5,922,[-0.17111242],90,53,easy,minus,dotcolour,beta,,,2,18,V,R,
161,35,35,3,1,47,33,1363,['c'],1,left,['9'],5,1367,[0.28456168],97,47,medium,minus,dotcolour,beta,,,2,18,V,R,
162,36,36,3,1,47,33,1033,['c'],1,left,['8'],4,456,[0.07156837],61,47,medium,minus,dotcolour,beta,,,2,18,V,R,
163,37,37,3,1,36,44,1565,['n'],1,right,['9'],5,384,[-0.01333781],23,44,hard,minus,dotcolour,beta,,,2,18,V,R,
164,38,38,3,1,44,36,1200,['c'],1,left,['9'],5,890,[0.23448041],97,44,hard,minus,dotcolour,beta,,,2,18,V,R,
165,39,39,3,1,53,27,983,['c'],1,left,['9'],5,416,[0.14473086],92,53,easy,minus,dotcolour,beta,,,2,18,V,R,
166,40,40,3,1,53,27,1298,['c'],1,left,['8'],4,284,[0.1629378],97,53,easy,minus,dotcolour,beta,,,2,18,V,R,
167,41,41,3,1,36,44,1031,['n'],1,right,['8'],4,449,[-0.05686751],51,44,hard,minus,dotcolour,beta,,,2,18,V,R,
168,42,0,4,1,47,33,1667,['c'],1,left,['9'],5,441,[0.09291644],73,47,medium,minus,dotcolour,beta,,,2,18,V,R,
169,43,1,4,1,27,53,734,['n'],1,right,['9'],5,355,[-0.08884079],73,53,easy,minus,dotcolour,beta,,,2,18,V,R,
170,44,2,4,1,44,36,716,['c'],1,left,['9'],5,266,[0.0979873],81,44,hard,minus,dotcolour,beta,,,2,18,V,R,
171,45,3,4,1,53,27,1199,['c'],1,left,['9'],5,392,[0.09081699],73,53,easy,minus,dotcolour,beta,,,2,18,V,R,
172,46,4,4,1,47,33,1231,['c'],1,left,['8'],4,273,[0.1484753],96,47,medium,minus,dotcolour,beta,,,2,18,V,R,
173,47,5,4,1,53,27,698,['c'],1,left,['8'],4,299,[0.15824419],97,53,easy,minus,dotcolour,beta,,,2,18,V,R,
174,48,6,4,1,47,33,730,['c'],1,left,['8'],4,187,[0.07297872],67,47,medium,minus,dotcolour,beta,,,2,18,V,R,
175,49,7,4,1,27,53,782,['n'],1,right,['0'],6,286,[-0.1047551],84,53,easy,minus,dotcolour,beta,,,2,18,V,R,
176,50,8,4,1,27,53,983,['n'],1,right,['0'],6,380,[-0.19131474],98,53,easy,minus,dotcolour,beta,,,2,18,V,R,
177,51,9,4,1,27,53,715,['n'],1,right,['9'],5,418,[-0.07483553],63,53,easy,minus,dotcolour,beta,,,2,18,V,R,
178,52,10,4,1,44,36,1082,['c'],1,left,['8'],4,479,[0.10136895],77,44,hard,minus,dotcolour,beta,,,2,18,V,R,
179,53,11,4,1,27,53,899,['n'],1,right,['0'],6,273,[-0.14870146],96,53,easy,minus,dotcolour,beta,,,2,18,V,R,
180,54,12,4,1,44,36,1733,['n'],0,left,['8'],4,482,[-0.06288265],55,44,hard,minus,dotcolour,beta,,,2,18,V,R,
181,55,13,4,1,44,36,1032,['c'],1,left,['0'],6,342,[0.10624411],83,44,hard,minus,dotcolour,beta,,,2,18,V,R,
182,56,14,4,1,36,44,949,['n'],1,right,['9'],5,588,[-0.03978099],41,44,hard,minus,dotcolour,beta,,,2,18,V,R,
183,57,15,4,1,44,36,996,['c'],1,left,['9'],5,397,[0.17202479],97,44,hard,minus,dotcolour,beta,,,2,18,V,R,
184,58,16,4,1,53,27,1049,['c'],1,left,['9'],5,853,[0.17276283],91,53,easy,minus,dotcolour,beta,,,2,18,V,R,
185,59,17,4,1,53,27,916,['c'],1,left,['0'],6,414,[0.10549808],80,53,easy,minus,dotcolour,beta,,,2,18,V,R,
186,60,18,4,1,36,44,849,['c'],0,right,['9'],5,325,[0.04343542],41,44,hard,minus,dotcolour,beta,,,2,18,V,R,
187,61,19,4,1,53,27,748,['c'],1,left,['0'],6,435,[0.0979085],76,53,easy,minus,dotcolour,beta,,,2,18,V,R,
188,62,20,4,1,36,44,1780,['n'],1,right,['9'],5,788,[-0.12923795],82,44,hard,minus,dotcolour,beta,,,2,18,V,R,
189,63,21,4,1,36,44,1379,['n'],1,right,['8'],4,374,[-0.20987774],99,44,hard,minus,dotcolour,beta,,,2,18,V,R,
190,64,22,4,1,33,47,982,['n'],1,right,['8'],4,528,[-0.10462914],77,47,medium,minus,dotcolour,beta,,,2,18,V,R,
191,65,23,4,1,44,36,1332,['c'],1,left,['9'],5,1263,[0.02983765],40,44,hard,minus,dotcolour,beta,,,2,18,V,R,
192,66,24,4,1,27,53,832,['n'],1,right,['9'],5,429,[-0.24737264],99,53,easy,minus,dotcolour,beta,,,2,18,V,R,
193,67,25,4,1,36,44,732,['n'],1,right,['9'],5,319,[-0.07493194],65,44,hard,minus,dotcolour,beta,,,2,18,V,R,
194,68,26,4,1,47,33,2016,['c'],1,left,['9'],5,546,[0.1873265],96,47,medium,minus,dotcolour,beta,,,2,18,V,R,
195,69,27,4,1,47,33,1582,['n'],0,left,['9'],5,422,[-0.09836963],77,47,medium,minus,dotcolour,beta,,,2,18,V,R,
196,70,28,4,1,44,36,982,['c'],1,left,['9'],5,511,[0.03849211],39,44,hard,minus,dotcolour,beta,,,2,18,V,R,
197,71,29,4,1,36,44,1016,['n'],1,right,['9'],5,563,[-0.01897287],29,44,hard,minus,dotcolour,beta,,,2,18,V,R,
198,72,30,4,1,27,53,748,['n'],1,right,['9'],5,328,[-0.1320277],92,53,easy,minus,dotcolour,beta,,,2,18,V,R,
199,73,31,4,1,53,27,748,['c'],1,left,['9'],5,446,[0.06242208],55,53,easy,minus,dotcolour,beta,,,2,18,V,R,
200,74,32,4,1,33,47,1016,['n'],1,right,['9'],5,460,[-0.06250943],55,47,medium,minus,dotcolour,beta,,,2,18,V,R,
201,75,33,4,1,33,47,713,['n'],1,right,['9'],5,798,[-0.19277013],94,47,medium,minus,dotcolour,beta,,,2,18,V,R,
202,76,34,4,1,47,33,1281,['c'],1,left,['8'],4,244,[0.0977698],82,47,medium,minus,dotcolour,beta,,,2,18,V,R,
203,77,35,4,1,33,47,932,['n'],1,right,['9'],5,590,[-0.23969601],99,47,medium,minus,dotcolour,beta,,,2,18,V,R,
204,78,36,4,1,36,44,1098,['n'],1,right,['0'],6,579,[0.03509205],10,44,hard,minus,dotcolour,beta,,,2,18,V,R,
205,79,37,4,1,33,47,1749,['n'],1,right,['8'],4,768,[-0.11678388],78,47,medium,minus,dotcolour,beta,,,2,18,V,R,
206,80,38,4,1,53,27,982,['c'],1,left,['9'],5,450,[0.11292578],82,53,easy,minus,dotcolour,beta,,,2,18,V,R,
207,81,39,4,1,33,47,797,['n'],1,right,['9'],5,929,[-0.05880761],52,47,medium,minus,dotcolour,beta,,,2,18,V,R,
208,82,40,4,1,47,33,900,['c'],1,left,['9'],5,625,[0.24250446],99,47,medium,minus,dotcolour,beta,,,2,18,V,R,
209,83,41,4,1,33,47,1200,['n'],1,right,['9'],5,401,[-0.19419533],98,47,medium,minus,dotcolour,beta,,,2,18,V,R,
210,84,0,5,1,33,47,1182,['n'],1,right,['8'],4,316,[-0.09546796],78,47,medium,minus,dotcolour,beta,,,2,18,V,R,
211,85,1,5,1,44,36,1031,['n'],0,left,['8'],4,344,[-0.04506238],42,44,hard,minus,dotcolour,beta,,,2,18,V,R,
212,86,2,5,1,47,33,899,['c'],1,left,['8'],4,343,[0.0201219],25,47,medium,minus,dotcolour,beta,,,2,18,V,R,
213,87,3,5,1,27,53,715,['n'],1,right,['8'],4,654,[-0.13811018],86,53,easy,minus,dotcolour,beta,,,2,18,V,R,
214,88,4,5,1,33,47,882,['n'],1,right,['8'],4,297,[-0.14046408],94,47,medium,minus,dotcolour,beta,,,2,18,V,R,
215,89,5,5,1,44,36,1464,['c'],1,left,['9'],5,804,[0.23209789],97,44,hard,minus,dotcolour,beta,,,2,18,V,R,
216,90,6,5,1,47,33,948,['c'],1,left,['9'],5,366,[0.12491908],89,47,medium,minus,dotcolour,beta,,,2,18,V,R,
217,91,7,5,1,33,47,849,['n'],1,right,['9'],5,271,[-0.11707014],89,47,medium,minus,dotcolour,beta,,,2,18,V,R,
218,92,8,5,1,27,53,780,['n'],1,right,['9'],5,886,[-0.31968301],99,53,easy,minus,dotcolour,beta,,,2,18,V,R,
219,93,9,5,1,33,47,733,['n'],1,right,['8'],4,326,[-0.0700358],61,47,medium,minus,dotcolour,beta,,,2,18,V,R,
220,94,10,5,1,44,36,1132,['c'],1,left,['8'],4,245,[0.05829682],52,44,hard,minus,dotcolour,beta,,,2,18,V,R,
221,95,11,5,1,47,33,1965,['c'],1,left,['8'],4,277,[0.07844438],69,47,medium,minus,dotcolour,beta,,,2,18,V,R,
222,96,12,5,1,36,44,982,['n'],1,right,['8'],4,412,[-0.06462559],56,44,hard,minus,dotcolour,beta,,,2,18,V,R,
223,97,13,5,1,53,27,901,['n'],0,left,['8'],4,2033,[0.0088802],31,53,easy,minus,dotcolour,beta,,,2,18,V,R,
224,98,14,5,1,27,53,1867,['n'],1,right,['9'],5,511,[-0.14553301],91,53,easy,minus,dotcolour,beta,,,2,18,V,R,
225,99,15,5,1,47,33,2615,['c'],1,left,['9'],5,706,[0.04023408],42,47,medium,minus,dotcolour,beta,,,2,18,V,R,
226,100,16,5,1,53,27,798,['c'],1,left,['9'],5,294,[0.14900528],96,53,easy,minus,dotcolour,beta,,,2,18,V,R,
227,101,17,5,1,27,53,1067,['n'],1,right,['8'],4,505,[-0.20605806],98,53,easy,minus,dotcolour,beta,,,2,18,V,R,
228,102,18,5,1,53,27,999,['c'],1,left,['8'],4,334,[0.17517153],98,53,easy,minus,dotcolour,beta,,,2,18,V,R,
229,103,19,5,1,33,47,798,['n'],1,right,['8'],4,690,[-0.09404234],70,47,medium,minus,dotcolour,beta,,,2,18,V,R,
230,104,20,5,1,53,27,999,['c'],1,left,['9'],5,1407,[0.17884237],87,53,easy,minus,dotcolour,beta,,,2,18,V,R,
231,105,21,5,1,53,27,1833,['c'],1,left,['9'],5,582,[0.10344997],76,53,easy,minus,dotcolour,beta,,,2,18,V,R,
232,106,22,5,1,36,44,1865,['c'],0,right,['8'],4,318,[0.04446161],41,44,hard,minus,dotcolour,beta,,,2,18,V,R,
233,107,23,5,1,27,53,914,['n'],1,right,['9'],5,718,[-0.21494095],97,53,easy,minus,dotcolour,beta,,,2,18,V,R,
234,108,24,5,1,36,44,1733,['n'],1,right,['8'],4,333,[-0.06538088],58,44,hard,minus,dotcolour,beta,,,2,18,V,R,
235,109,25,5,1,53,27,1116,['c'],1,left,['9'],5,692,[-0.01815846],17,53,easy,minus,dotcolour,beta,,,2,18,V,R,
236,110,26,5,1,47,33,883,['c'],1,left,['8'],4,294,[0.08528583],73,47,medium,minus,dotcolour,beta,,,2,18,V,R,
237,111,27,5,1,44,36,1248,['c'],1,left,['8'],4,481,[0.09372911],73,44,hard,minus,dotcolour,beta,,,2,18,V,R,
238,112,28,5,1,33,47,4332,['c'],0,right,['8'],4,786,[-0.15412388],1,47,medium,minus,dotcolour,beta,,,2,18,V,R,
239,113,29,5,1,47,33,2032,['c'],1,left,['9'],5,443,[0.14909858],93,47,medium,minus,dotcolour,beta,,,2,18,V,R,
240,114,30,5,1,36,44,883,['n'],1,right,['8'],4,726,[-0.08690933],66,44,hard,minus,dotcolour,beta,,,2,18,V,R,
241,115,31,5,1,36,44,1416,['n'],1,right,['8'],4,369,[-0.0675482],59,44,hard,minus,dotcolour,beta,,,2,18,V,R,
242,116,32,5,1,36,44,1066,['n'],1,right,['8'],4,249,[-0.12052421],91,44,hard,minus,dotcolour,beta,,,2,18,V,R,
243,117,33,5,1,44,36,782,['n'],0,left,['8'],4,241,[-0.09041136],78,44,hard,minus,dotcolour,beta,,,2,18,V,R,
244,118,34,5,1,27,53,615,['n'],1,right,['8'],4,208,[-0.08162295],74,53,easy,minus,dotcolour,beta,,,2,18,V,R,
245,119,35,5,1,53,27,932,['c'],1,left,['8'],4,299,[0.17693051],98,53,easy,minus,dotcolour,beta,,,2,18,V,R,
246,120,36,5,1,27,53,665,['n'],1,right,['8'],4,237,[0.02688397],5,53,easy,minus,dotcolour,beta,,,2,18,V,R,
247,121,37,5,1,36,44,1565,['c'],0,right,['8'],4,207,[0.03062506],27,44,hard,minus,dotcolour,beta,,,2,18,V,R,
248,122,38,5,1,44,36,1066,['c'],1,left,['8'],4,261,[0.03451565],32,44,hard,minus,dotcolour,beta,,,2,18,V,R,
249,123,39,5,1,47,33,765,['c'],1,left,['8'],4,205,[0.0512234],46,47,medium,minus,dotcolour,beta,,,2,18,V,R,
250,124,40,5,1,44,36,1015,['c'],1,left,['8'],4,213,[0.16052362],98,44,hard,minus,dotcolour,beta,,,2,18,V,R,
251,125,41,5,1,33,47,1115,['c'],0,right,['8'],4,369,[-0.04289964],5,47,medium,minus,dotcolour,beta,,,2,18,V,R,
252,0,0,6,2,44,36,1400,['c'],1,left,['8'],4,721,[0.12361107],98,44,hard,plus,dotcolour,beta,,,2,18,V,R,
253,1,1,6,2,44,36,983,['n'],0,left,['8'],4,310,[-0.04724874],97,44,hard,plus,dotcolour,beta,,,2,18,V,R,
254,2,2,6,2,53,27,1231,['c'],1,left,['8'],4,281,[0.08106508],99,53,easy,plus,dotcolour,beta,,,2,18,V,R,
255,3,3,6,2,33,47,798,['n'],1,right,['8'],4,279,[-0.02871682],95,47,medium,plus,dotcolour,beta,,,2,18,V,R,
256,4,4,6,2,27,53,749,['n'],1,right,['9'],5,463,[-0.09198232],98,53,easy,plus,dotcolour,beta,,,2,18,V,R,
257,5,5,6,2,33,47,681,['n'],1,right,['9'],5,443,[-0.15396934],100,47,medium,plus,dotcolour,beta,,,2,18,V,R,
258,6,6,6,2,47,33,882,['c'],1,left,['9'],5,455,[0.16944408],100,47,medium,plus,dotcolour,beta,,,2,18,V,R,
259,7,7,6,2,53,27,1166,['c'],1,left,['8'],4,623,[0.14168722],99,53,easy,plus,dotcolour,beta,,,2,18,V,R,
260,8,8,6,2,47,33,1282,['c'],1,left,['9'],5,453,[0.03675122],92,47,medium,plus,dotcolour,beta,,,2,18,V,R,
261,9,9,6,2,47,33,1116,['c'],1,left,['8'],4,407,[0.07166492],97,47,medium,plus,dotcolour,beta,,,2,18,V,R,
262,10,10,6,2,36,44,2313,['c'],0,right,['9'],5,483,[-0.04246591],58,44,hard,plus,dotcolour,beta,,,2,18,V,R,
263,11,11,6,2,27,53,1865,['n'],1,right,['9'],5,822,[-0.17457443],99,53,easy,plus,dotcolour,beta,,,2,18,V,R,
264,12,12,6,2,44,36,1665,['c'],1,left,['8'],4,860,[0.05618742],90,44,hard,plus,dotcolour,beta,,,2,18,V,R,
265,13,13,6,2,44,36,966,['c'],1,left,['9'],5,523,[0.01722352],86,44,hard,plus,dotcolour,beta,,,2,18,V,R,
266,14,14,6,2,47,33,1331,['c'],1,left,['9'],5,402,[0.05870408],96,47,medium,plus,dotcolour,beta,,,2,18,V,R,
267,15,15,6,2,33,47,1532,['n'],1,right,['8'],4,277,[-0.00455947],89,47,medium,plus,dotcolour,beta,,,2,18,V,R,
268,16,16,6,2,36,44,1115,['n'],1,right,['9'],5,1767,[-0.02395109],75,44,hard,plus,dotcolour,beta,,,2,18,V,R,
269,17,17,6,2,27,53,1049,['n'],1,right,['8'],4,815,[-0.26161914],100,53,easy,plus,dotcolour,beta,,,2,18,V,R,
270,18,18,6,2,44,36,1247,['c'],1,left,['8'],4,261,[0.038684],97,44,hard,plus,dotcolour,beta,,,2,18,V,R,
271,19,19,6,2,47,33,1081,['n'],0,left,['9'],5,1625,[0.0144589],64,47,medium,plus,dotcolour,beta,,,2,18,V,R,
272,20,20,6,2,33,47,3198,['c'],0,right,['8'],4,488,[-0.08202912],34,47,medium,plus,dotcolour,beta,,,2,18,V,R,
273,21,21,6,2,27,53,1617,['n'],1,right,['8'],4,300,[-0.04710631],97,53,easy,plus,dotcolour,beta,,,2,18,V,R,
274,22,22,6,2,53,27,948,['n'],0,left,['2'],2,2372,[0.23032879],11,53,easy,plus,dotcolour,beta,,,2,18,V,R,
275,23,23,6,2,33,47,1765,['n'],1,right,['8'],4,502,[-0.26728408],100,47,medium,plus,dotcolour,beta,,,2,18,V,R,
276,24,24,6,2,27,53,884,['n'],1,right,['9'],5,369,[-0.17258699],100,53,easy,plus,dotcolour,beta,,,2,18,V,R,
277,25,25,6,2,53,27,999,['c'],1,left,['9'],5,642,[0.21996626],100,53,easy,plus,dotcolour,beta,,,2,18,V,R,
278,26,26,6,2,53,27,749,['c'],1,left,['9'],5,596,[0.12645917],99,53,easy,plus,dotcolour,beta,,,2,18,V,R,
279,27,27,6,2,47,33,1050,['c'],1,left,['8'],4,299,[0.10173035],99,47,medium,plus,dotcolour,beta,,,2,18,V,R,
280,28,28,6,2,44,36,1464,['c'],1,left,['8'],4,406,[0.09471871],99,44,hard,plus,dotcolour,beta,,,2,18,V,R,
281,29,29,6,2,53,27,748,['c'],1,left,['8'],4,745,[0.12499089],98,53,easy,plus,dotcolour,beta,,,2,18,V,R,
282,30,30,6,2,33,47,882,['n'],1,right,['8'],4,400,[-0.18152151],100,47,medium,plus,dotcolour,beta,,,2,18,V,R,
283,31,31,6,2,27,53,847,['n'],1,right,['8'],4,520,[-0.13751943],99,53,easy,plus,dotcolour,beta,,,2,18,V,R,
284,32,32,6,2,36,44,716,['n'],1,right,['9'],5,1008,[-0.22526248],99,44,hard,plus,dotcolour,beta,,,2,18,V,R,
285,33,33,6,2,27,53,882,['n'],1,right,['9'],5,453,[-0.03792468],92,53,easy,plus,dotcolour,beta,,,2,18,V,R,
286,34,34,6,2,47,33,1132,['c'],1,left,['9'],5,991,[-0.01584434],67,47,medium,plus,dotcolour,beta,,,2,18,V,R,
287,35,35,6,2,36,44,831,['n'],1,right,['8'],4,423,[-0.01469648],87,44,hard,plus,dotcolour,beta,,,2,18,V,R,
288,36,36,6,2,44,36,1515,['c'],1,left,['8'],4,186,[0.07662652],100,44,hard,plus,dotcolour,beta,,,2,18,V,R,
289,37,37,6,2,36,44,982,['n'],1,right,['8'],4,244,[-0.09621808],100,44,hard,plus,dotcolour,beta,,,2,18,V,R,
290,38,38,6,2,36,44,831,['n'],1,right,['9'],5,346,[-0.08625209],99,44,hard,plus,dotcolour,beta,,,2,18,V,R,
291,39,39,6,2,53,27,749,['c'],1,left,['9'],5,287,[0.09488094],99,53,easy,plus,dotcolour,beta,,,2,18,V,R,
292,40,40,6,2,36,44,916,['n'],1,right,['9'],5,249,[-0.13313291],100,44,hard,plus,dotcolour,beta,,,2,18,V,R,
293,41,41,6,2,33,47,698,['n'],1,right,['8'],4,436,[-0.25370617],100,47,medium,plus,dotcolour,beta,,,2,18,V,R,
294,42,0,7,2,47,33,1866,['c'],1,left,['8'],4,224,[0.09942957],100,47,medium,plus,dotcolour,beta,,,2,18,V,R,
295,43,1,7,2,36,44,1582,['n'],1,right,['8'],4,601,[-0.12326104],98,44,hard,plus,dotcolour,beta,,,2,18,V,R,
296,44,2,7,2,44,36,2415,['c'],1,left,['8'],4,233,[0.11654718],100,44,hard,plus,dotcolour,beta,,,2,18,V,R,
297,45,3,7,2,27,53,882,['n'],1,right,['9'],5,318,[-0.18147275],100,53,easy,plus,dotcolour,beta,,,2,18,V,R,
298,46,4,7,2,27,53,682,['n'],1,right,['9'],5,310,[-0.09814612],99,53,easy,plus,dotcolour,beta,,,2,18,V,R,
299,47,5,7,2,47,33,1532,['c'],1,left,['8'],4,390,[0.14913064],100,47,medium,plus,dotcolour,beta,,,2,18,V,R,
300,48,6,7,2,36,44,916,['n'],1,right,['8'],4,266,[-0.16054762],100,44,hard,plus,dotcolour,beta,,,2,18,V,R,
301,49,7,7,2,53,27,997,['c'],1,left,['9'],5,376,[0.13182639],100,53,easy,plus,dotcolour,beta,,,2,18,V,R,
302,50,8,7,2,44,36,849,['c'],1,left,['9'],5,433,[0.17871907],100,44,hard,plus,dotcolour,beta,,,2,18,V,R,
303,51,9,7,2,33,47,2150,['c'],0,right,['8'],4,298,[-0.00480604],84,47,medium,plus,dotcolour,beta,,,2,18,V,R,
304,52,10,7,2,27,53,849,['n'],1,right,['9'],5,310,[-0.20821809],100,53,easy,plus,dotcolour,beta,,,2,18,V,R,
305,53,11,7,2,53,27,750,['c'],1,left,['9'],5,325,[0.07566507],98,53,easy,plus,dotcolour,beta,,,2,18,V,R,
306,54,12,7,2,44,36,1297,['n'],0,left,['9'],5,269,[-0.11968081],100,44,hard,plus,dotcolour,beta,,,2,18,V,R,
307,55,13,7,2,36,44,699,['n'],1,right,['8'],4,399,[-0.13222518],100,44,hard,plus,dotcolour,beta,,,2,18,V,R,
308,56,14,7,2,27,53,798,['n'],1,right,['9'],5,272,[-0.23964666],100,53,easy,plus,dotcolour,beta,,,2,18,V,R,
309,57,15,7,2,53,27,899,['c'],1,left,['9'],5,259,[0.20936364],100,53,easy,plus,dotcolour,beta,,,2,18,V,R,
310,58,16,7,2,47,33,1349,['c'],1,left,['9'],5,300,[0.10822181],100,47,medium,plus,dotcolour,beta,,,2,18,V,R,
311,59,17,7,2,33,47,867,['n'],1,right,['9'],5,367,[-0.05803417],97,47,medium,plus,dotcolour,beta,,,2,18,V,R,
312,60,18,7,2,44,36,765,['c'],1,left,['9'],5,298,[0.08741369],99,44,hard,plus,dotcolour,beta,,,2,18,V,R,
313,61,19,7,2,36,44,699,['n'],1,right,['9'],5,267,[-0.04908062],97,44,hard,plus,dotcolour,beta,,,2,18,V,R,
314,62,20,7,2,27,53,682,['n'],1,right,['9'],5,878,[-0.12344453],97,53,easy,plus,dotcolour,beta,,,2,18,V,R,
315,63,21,7,2,44,36,1465,['c'],1,left,['8'],4,257,[0.0357889],96,44,hard,plus,dotcolour,beta,,,2,18,V,R,
316,64,22,7,2,33,47,815,['n'],1,right,['8'],4,255,[-0.09081119],99,47,medium,plus,dotcolour,beta,,,2,18,V,R,
317,65,23,7,2,47,33,1114,['c'],1,left,['8'],4,346,[0.06575202],98,47,medium,plus,dotcolour,beta,,,2,18,V,R,
318,66,24,7,2,27,53,1181,['n'],1,right,['9'],5,325,[-0.05121685],97,53,easy,plus,dotcolour,beta,,,2,18,V,R,
319,67,25,7,2,44,36,883,['c'],1,left,['9'],5,263,[0.02152835],94,44,hard,plus,dotcolour,beta,,,2,18,V,R,
320,68,26,7,2,47,33,1015,['c'],1,left,['9'],5,357,[0.11735611],99,47,medium,plus,dotcolour,beta,,,2,18,V,R,
321,69,27,7,2,53,27,682,['c'],1,left,['9'],5,395,[0.0275677],92,53,easy,plus,dotcolour,beta,,,2,18,V,R,
322,70,28,7,2,33,47,966,['n'],1,right,['9'],5,711,[-0.28030515],100,47,medium,plus,dotcolour,beta,,,2,18,V,R,
323,71,29,7,2,44,36,815,['c'],1,left,['8'],4,298,[0.08191776],99,44,hard,plus,dotcolour,beta,,,2,18,V,R,
324,72,30,7,2,53,27,964,['c'],1,left,['8'],4,185,[0.12699409],100,53,easy,plus,dotcolour,beta,,,2,18,V,R,
325,73,31,7,2,53,27,632,['c'],1,left,['9'],5,409,[0.20341148],100,53,easy,plus,dotcolour,beta,,,2,18,V,R,
326,74,32,7,2,36,44,949,['n'],1,right,['9'],5,1340,[-0.24927817],99,44,hard,plus,dotcolour,beta,,,2,18,V,R,
327,75,33,7,2,47,33,717,['c'],1,left,['9'],5,203,[0.04556354],98,47,medium,plus,dotcolour,beta,,,2,18,V,R,
328,76,34,7,2,47,33,932,['c'],1,left,['9'],5,286,[0.14452457],100,47,medium,plus,dotcolour,beta,,,2,18,V,R,
329,77,35,7,2,36,44,915,['c'],0,right,['9'],5,280,[0.06383531],98,44,hard,plus,dotcolour,beta,,,2,18,V,R,
330,78,36,7,2,33,47,1632,['n'],1,right,['8'],4,253,[-0.10373468],100,47,medium,plus,dotcolour,beta,,,2,18,V,R,
331,79,37,7,2,36,44,815,['n'],1,right,['8'],4,474,[-0.13182343],99,44,hard,plus,dotcolour,beta,,,2,18,V,R,
332,80,38,7,2,33,47,1232,['c'],0,right,['8'],4,175,[0.08985459],100,47,medium,plus,dotcolour,beta,,,2,18,V,R,
333,81,39,7,2,53,27,697,['c'],1,left,['9'],5,301,[0.05131541],97,53,easy,plus,dotcolour,beta,,,2,18,V,R,
334,82,40,7,2,27,53,832,['n'],1,right,['9'],5,224,[-0.03579065],97,53,easy,plus,dotcolour,beta,,,2,18,V,R,
335,83,41,7,2,33,47,1648,['n'],1,right,['8'],4,238,[-0.20465115],100,47,medium,plus,dotcolour,beta,,,2,18,V,R,
336,84,0,8,2,33,47,1383,['n'],1,right,['8'],4,261,[-0.199932],100,47,medium,plus,dotcolour,beta,,,2,18,V,R,
337,85,1,8,2,36,44,1065,['n'],1,right,['8'],4,250,[-0.01855835],94,44,hard,plus,dotcolour,beta,,,2,18,V,R,
338,86,2,8,2,44,36,1432,['c'],1,left,['8'],4,359,[0.0467473],96,44,hard,plus,dotcolour,beta,,,2,18,V,R,
339,87,3,8,2,47,33,1917,['c'],1,left,['8'],4,341,[0.20282103],100,47,medium,plus,dotcolour,beta,,,2,18,V,R,
340,88,4,8,2,47,33,2866,['c'],1,left,['9'],5,1118,[0.22574653],99,47,medium,plus,dotcolour,beta,,,2,18,V,R,
341,89,5,8,2,44,36,799,['c'],1,left,['9'],5,266,[0.05757381],98,44,hard,plus,dotcolour,beta,,,2,18,V,R,
342,90,6,8,2,53,27,782,['c'],1,left,['9'],5,898,[0.06333417],91,53,easy,plus,dotcolour,beta,,,2,18,V,R,
343,91,7,8,2,36,44,1964,['n'],1,right,['9'],5,848,[-0.16202815],99,44,hard,plus,dotcolour,beta,,,2,18,V,R,
344,92,8,8,2,36,44,1133,['n'],1,right,['9'],5,321,[-0.02287651],92,44,hard,plus,dotcolour,beta,,,2,18,V,R,
345,93,9,8,2,27,53,831,['n'],1,right,['9'],5,268,[-0.12537815],100,53,easy,plus,dotcolour,beta,,,2,18,V,R,
346,94,10,8,2,53,27,748,['c'],1,left,['9'],5,269,[0.17991909],100,53,easy,plus,dotcolour,beta,,,2,18,V,R,
347,95,11,8,2,33,47,1267,['n'],1,right,['9'],5,409,[-0.10618678],99,47,medium,plus,dotcolour,beta,,,2,18,V,R,
348,96,12,8,2,44,36,865,['c'],1,left,['8'],4,279,[0.00811947],90,44,hard,plus,dotcolour,beta,,,2,18,V,R,
349,97,13,8,2,27,53,1049,['n'],1,right,['9'],5,307,[-0.10528496],99,53,easy,plus,dotcolour,beta,,,2,18,V,R,
350,98,14,8,2,36,44,799,['n'],1,right,['8'],4,344,[-0.03022039],93,44,hard,plus,dotcolour,beta,,,2,18,V,R,
351,99,15,8,2,27,53,900,['n'],1,right,['9'],5,247,[-0.26959127],100,53,easy,plus,dotcolour,beta,,,2,18,V,R,
352,100,16,8,2,27,53,666,['n'],1,right,['9'],5,204,[-0.17689945],100,53,easy,plus,dotcolour,beta,,,2,18,V,R,
353,101,17,8,2,47,33,1066,['c'],1,left,['9'],5,218,[0.16101099],100,47,medium,plus,dotcolour,beta,,,2,18,V,R,
354,102,18,8,2,27,53,997,['n'],1,right,['9'],5,507,[-0.07273352],96,53,easy,plus,dotcolour,beta,,,2,18,V,R,
355,103,19,8,2,33,47,899,['n'],1,right,['9'],5,308,[-0.05072568],97,47,medium,plus,dotcolour,beta,,,2,18,V,R,
356,104,20,8,2,36,44,849,['c'],0,right,['8'],4,358,[-0.04085531],61,44,hard,plus,dotcolour,beta,,,2,18,V,R,
357,105,21,8,2,47,33,847,['c'],1,left,['8'],4,151,[0.1074151],100,47,medium,plus,dotcolour,beta,,,2,18,V,R,
358,106,22,8,2,44,36,848,['c'],1,left,['8'],4,176,[0.0609752],99,44,hard,plus,dotcolour,beta,,,2,18,V,R,
359,107,23,8,2,33,47,964,['n'],1,right,['9'],5,347,[-0.12376728],100,47,medium,plus,dotcolour,beta,,,2,18,V,R,
360,108,24,8,2,36,44,865,['n'],1,right,['9'],5,372,[-0.05370367],96,44,hard,plus,dotcolour,beta,,,2,18,V,R,
361,109,25,8,2,33,47,633,['n'],1,right,['9'],5,181,[-0.12091098],100,47,medium,plus,dotcolour,beta,,,2,18,V,R,
362,110,26,8,2,47,33,717,['c'],1,left,['8'],4,203,[0.12800982],100,47,medium,plus,dotcolour,beta,,,2,18,V,R,
363,111,27,8,2,33,47,681,['n'],1,right,['9'],5,160,[-0.08613395],100,47,medium,plus,dotcolour,beta,,,2,18,V,R,
364,112,28,8,2,47,33,1615,['c'],1,left,['9'],5,234,[0.08545896],99,47,medium,plus,dotcolour,beta,,,2,18,V,R,
365,113,29,8,2,44,36,1717,['c'],1,left,['8'],4,166,[0.08418786],100,44,hard,plus,dotcolour,beta,,,2,18,V,R,
366,114,30,8,2,53,27,648,['c'],1,left,['9'],5,350,[0.21943102],100,53,easy,plus,dotcolour,beta,,,2,18,V,R,
367,115,31,8,2,44,36,1649,['n'],0,left,['8'],4,479,[0.05696596],49,44,hard,plus,dotcolour,beta,,,2,18,V,R,
368,116,32,8,2,27,53,881,['n'],1,right,['9'],5,322,[-0.16850198],100,53,easy,plus,dotcolour,beta,,,2,18,V,R,
369,117,33,8,2,44,36,799,['c'],1,left,['9'],5,399,[0.1771161],100,44,hard,plus,dotcolour,beta,,,2,18,V,R,
370,118,34,8,2,53,27,613,['c'],1,left,['9'],5,447,[0.15872458],100,53,easy,plus,dotcolour,beta,,,2,18,V,R,
371,119,35,8,2,53,27,832,['c'],1,left,['9'],5,150,[0.08761521],100,53,easy,plus,dotcolour,beta,,,2,18,V,R,
372,120,36,8,2,27,53,865,['n'],1,right,['9'],5,350,[-0.09862714],99,53,easy,plus,dotcolour,beta,,,2,18,V,R,
373,121,37,8,2,47,33,764,['c'],1,left,['9'],5,195,[0.04133044],98,47,medium,plus,dotcolour,beta,,,2,18,V,R,
374,122,38,8,2,36,44,1532,['c'],0,right,['9'],5,270,[-0.01965141],78,44,hard,plus,dotcolour,beta,,,2,18,V,R,
375,123,39,8,2,53,27,632,['c'],1,left,['9'],5,276,[0.03594238],96,53,easy,plus,dotcolour,beta,,,2,18,V,R,
376,124,40,8,2,33,47,1147,['n'],1,right,['8'],4,252,[-0.02478269],95,47,medium,plus,dotcolour,beta,,,2,18,V,R,
377,125,41,8,2,53,27,965,['c'],1,left,['8'],4,277,[0.04909406],97,53,easy,plus,dotcolour,beta,,,2,18,V,R,
378,0,0,9,3,44,36,1567,['c'],1,left,['8'],4,617,[0.03882045],41,44,hard,minus,dotcolour,beta,,,2,18,V,R,
379,1,1,9,3,47,33,600,['c'],1,left,['9'],5,353,[0.0523115],48,47,medium,minus,dotcolour,beta,,,2,18,V,R,
380,2,2,9,3,47,33,615,['c'],1,left,['9'],5,228,[0.03258153],30,47,medium,minus,dotcolour,beta,,,2,18,V,R,
381,3,3,9,3,33,47,800,['n'],1,right,['9'],5,468,[-0.08062844],66,47,medium,minus,dotcolour,beta,,,2,18,V,R,
382,4,4,9,3,36,44,533,['n'],1,right,['9'],5,198,[-0.05137176],46,44,hard,minus,dotcolour,beta,,,2,18,V,R,
383,5,5,9,3,27,53,582,['n'],1,right,['9'],5,176,[-0.04271356],37,53,easy,minus,dotcolour,beta,,,2,18,V,R,
384,6,6,9,3,36,44,1098,['c'],0,right,['8'],4,149,[0.02995857],23,44,hard,minus,dotcolour,beta,,,2,18,V,R,
385,7,7,9,3,33,47,949,['n'],1,right,['8'],4,235,[-0.06506788],59,47,medium,minus,dotcolour,beta,,,2,18,V,R,
386,8,8,9,3,44,36,915,['c'],1,left,['9'],5,286,[0.11474501],88,44,hard,minus,dotcolour,beta,,,2,18,V,R,
387,9,9,9,3,33,47,632,['n'],1,right,['9'],5,226,[-0.04921448],44,47,medium,minus,dotcolour,beta,,,2,18,V,R,
388,10,10,9,3,27,53,680,['n'],1,right,['9'],5,167,[-0.06184361],57,53,easy,minus,dotcolour,beta,,,2,18,V,R,
389,11,11,9,3,44,36,881,['c'],1,left,['9'],5,334,[0.05049655],46,44,hard,minus,dotcolour,beta,,,2,18,V,R,
390,12,12,9,3,53,27,999,['c'],1,left,['8'],4,194,[0.17590943],99,53,easy,minus,dotcolour,beta,,,2,18,V,R,
391,13,13,9,3,47,33,698,['c'],1,left,['8'],4,143,[0.08131207],77,47,medium,minus,dotcolour,beta,,,2,18,V,R,
392,14,14,9,3,33,47,599,['n'],1,right,['8'],4,259,[-0.08419026],73,47,medium,minus,dotcolour,beta,,,2,18,V,R,
393,15,15,9,3,53,27,1048,['c'],1,left,['8'],4,231,[0.10575539],87,53,easy,minus,dotcolour,beta,,,2,18,V,R,
394,16,16,9,3,36,44,1214,['n'],1,right,['8'],4,286,[-0.08092436],70,44,hard,minus,dotcolour,beta,,,2,18,V,R,
395,17,17,9,3,33,47,817,['c'],0,right,['9'],5,259,[0.05787174],52,47,medium,minus,dotcolour,beta,,,2,18,V,R,
396,18,18,9,3,27,53,648,['n'],1,right,['9'],5,208,[-0.16156409],98,53,easy,minus,dotcolour,beta,,,2,18,V,R,
397,19,19,9,3,27,53,849,['n'],1,right,['9'],5,446,[-0.2082544],98,53,easy,minus,dotcolour,beta,,,2,18,V,R,
398,20,20,9,3,47,33,780,['c'],1,left,['9'],5,319,[0.08006916],69,47,medium,minus,dotcolour,beta,,,2,18,V,R,
399,21,21,9,3,53,27,914,['c'],1,left,['8'],4,159,[0.13568782],97,53,easy,minus,dotcolour,beta,,,2,18,V,R,
400,22,22,9,3,44,36,847,['c'],1,left,['8'],4,143,[0.10076128],90,44,hard,minus,dotcolour,beta,,,2,18,V,R,
401,23,23,9,3,36,44,548,['n'],1,right,['9'],5,189,[-0.05360358],48,44,hard,minus,dotcolour,beta,,,2,18,V,R,
402,24,24,9,3,27,53,1181,['n'],1,right,['9'],5,231,[-0.05393726],48,53,easy,minus,dotcolour,beta,,,2,18,V,R,
403,25,25,9,3,44,36,633,['n'],0,left,['1'],1,2366,[0.14662062],9,44,hard,minus,dotcolour,beta,,,2,18,V,R,
404,26,26,9,3,44,36,1447,['c'],1,left,['8'],4,342,[0.17518307],98,44,hard,minus,dotcolour,beta,,,2,18,V,R,
405,27,27,9,3,53,27,748,['c'],1,left,['9'],5,267,[0.12216382],91,53,easy,minus,dotcolour,beta,,,2,18,V,R,
406,28,28,9,3,36,44,764,['n'],1,right,['9'],5,219,[-0.10383342],86,44,hard,minus,dotcolour,beta,,,2,18,V,R,
407,29,29,9,3,36,44,1265,['n'],1,right,['9'],5,129,[-0.07047541],68,44,hard,minus,dotcolour,beta,,,2,18,V,R,
408,30,30,9,3,53,27,1083,['c'],1,left,['8'],4,194,[0.07672665],70,53,easy,minus,dotcolour,beta,,,2,18,V,R,
409,31,31,9,3,53,27,582,['c'],1,left,['9'],5,236,[0.13670206],95,53,easy,minus,dotcolour,beta,,,2,18,V,R,
410,32,32,9,3,44,36,1050,['c'],1,left,['8'],4,465,[0.14289212],91,44,hard,minus,dotcolour,beta,,,2,18,V,R,
411,33,33,9,3,27,53,751,['n'],1,right,['9'],5,250,[-0.16040996],98,53,easy,minus,dotcolour,beta,,,2,18,V,R,
412,34,34,9,3,27,53,849,['n'],1,right,['9'],5,287,[-0.19681885],99,53,easy,minus,dotcolour,beta,,,2,18,V,R,
413,35,35,9,3,47,33,765,['c'],1,left,['9'],5,278,[0.18882944],99,47,medium,minus,dotcolour,beta,,,2,18,V,R,
414,36,36,9,3,33,47,1014,['n'],1,right,['9'],5,459,[0.02416819],11,47,medium,minus,dotcolour,beta,,,2,18,V,R,
415,37,37,9,3,47,33,1032,['c'],1,left,['8'],4,280,[0.05932384],53,47,medium,minus,dotcolour,beta,,,2,18,V,R,
416,38,38,9,3,53,27,680,['c'],1,left,['8'],4,299,[0.21870074],100,53,easy,minus,dotcolour,beta,,,2,18,V,R,
417,39,39,9,3,33,47,1001,['n'],1,right,['9'],5,321,[-0.02125402],25,47,medium,minus,dotcolour,beta,,,2,18,V,R,
418,40,40,9,3,36,44,1200,['n'],1,right,['8'],4,317,[-0.12850979],91,44,hard,minus,dotcolour,beta,,,2,18,V,R,
419,41,41,9,3,47,33,800,['c'],1,left,['8'],4,194,[0.10532591],88,47,medium,minus,dotcolour,beta,,,2,18,V,R,
420,42,0,10,3,53,27,1367,['c'],1,left,['8'],4,1243,[0.27663949],97,53,easy,minus,dotcolour,beta,,,2,18,V,R,
421,43,1,10,3,47,33,866,['c'],1,left,['9'],5,255,[0.13112561],94,47,medium,minus,dotcolour,beta,,,2,18,V,R,
422,44,2,10,3,53,27,1434,['c'],1,left,['9'],5,372,[0.17678927],97,53,easy,minus,dotcolour,beta,,,2,18,V,R,
423,45,3,10,3,27,53,896,['n'],1,right,['9'],5,194,[-0.17647679],99,53,easy,minus,dotcolour,beta,,,2,18,V,R,
424,46,4,10,3,33,47,931,['n'],1,right,['8'],4,302,[-0.03461176],33,47,medium,minus,dotcolour,beta,,,2,18,V,R,
425,47,5,10,3,27,53,683,['n'],1,right,['8'],4,160,[-0.13368438],97,53,easy,minus,dotcolour,beta,,,2,18,V,R,
426,48,6,10,3,47,33,899,['c'],1,left,['8'],4,287,[0.0214294],24,47,medium,minus,dotcolour,beta,,,2,18,V,R,
427,49,7,10,3,53,27,699,['c'],1,left,['8'],4,312,[0.05001854],46,53,easy,minus,dotcolour,beta,,,2,18,V,R,
428,50,8,10,3,44,36,850,['n'],0,left,['8'],4,227,[-0.03928602],35,44,hard,minus,dotcolour,beta,,,2,18,V,R,
429,51,9,10,3,47,33,898,['c'],1,left,['9'],5,280,[0.15035769],96,47,medium,minus,dotcolour,beta,,,2,18,V,R,
430,52,10,10,3,36,44,749,['n'],1,right,['9'],5,351,[-0.2701843],100,44,hard,minus,dotcolour,beta,,,2,18,V,R,
431,53,11,10,3,27,53,1166,['n'],1,right,['9'],5,227,[-0.04714297],42,53,easy,minus,dotcolour,beta,,,2,18,V,R,
432,54,12,10,3,44,36,1065,['n'],0,left,['8'],4,289,[0.00520747],12,44,hard,minus,dotcolour,beta,,,2,18,V,R,
433,55,13,10,3,47,33,1648,['c'],1,left,['8'],4,252,[0.02779337],27,47,medium,minus,dotcolour,beta,,,2,18,V,R,
434,56,14,10,3,33,47,1032,['n'],1,right,['8'],4,282,[-0.08182281],71,47,medium,minus,dotcolour,beta,,,2,18,V,R,
435,57,15,10,3,33,47,732,['n'],1,right,['8'],4,411,[-0.19964649],98,47,medium,minus,dotcolour,beta,,,2,18,V,R,
436,58,16,10,3,47,33,1031,['c'],1,left,['9'],5,234,[0.09973003],84,47,medium,minus,dotcolour,beta,,,2,18,V,R,
437,59,17,10,3,44,36,899,['c'],1,left,['8'],4,277,[0.08378653],72,44,hard,minus,dotcolour,beta,,,2,18,V,R,
438,60,18,10,3,27,53,681,['n'],1,right,['9'],5,344,[-0.15717743],96,53,easy,minus,dotcolour,beta,,,2,18,V,R,
439,61,19,10,3,53,27,867,['c'],1,left,['9'],5,409,[0.10484532],80,53,easy,minus,dotcolour,beta,,,2,18,V,R,
440,62,20,10,3,44,36,1631,['n'],0,left,['8'],4,352,[-0.14566902],94,44,hard,minus,dotcolour,beta,,,2,18,V,R,
441,63,21,10,3,44,36,1181,['c'],1,left,['9'],5,324,[0.02277038],26,44,hard,minus,dotcolour,beta,,,2,18,V,R,
442,64,22,10,3,36,44,1966,['c'],0,right,['8'],4,234,[0.11745586],91,44,hard,minus,dotcolour,beta,,,2,18,V,R,
443,65,23,10,3,33,47,731,['n'],1,right,['9'],5,324,[-0.0685606],60,47,medium,minus,dotcolour,beta,,,2,18,V,R,
444,66,24,10,3,36,44,701,['n'],1,right,['9'],5,204,[-0.10982063],90,44,hard,minus,dotcolour,beta,,,2,18,V,R,
445,67,25,10,3,27,53,667,['n'],1,right,['9'],5,195,[-0.06703781],61,53,easy,minus,dotcolour,beta,,,2,18,V,R,
446,68,26,10,3,53,27,864,['c'],1,left,['8'],4,369,[0.13484058],91,53,easy,minus,dotcolour,beta,,,2,18,V,R,
447,69,27,10,3,27,53,1448,['n'],1,right,['9'],5,1025,[-0.18994615],92,53,easy,minus,dotcolour,beta,,,2,18,V,R,
448,70,28,10,3,44,36,916,['c'],1,left,['9'],5,236,[0.03499228],32,44,hard,minus,dotcolour,beta,,,2,18,V,R,
449,71,29,10,3,33,47,799,['n'],1,right,['9'],5,252,[-0.04689067],42,47,medium,minus,dotcolour,beta,,,2,18,V,R,
450,72,30,10,3,33,47,932,['n'],1,right,['9'],5,285,[-0.12098666],90,47,medium,minus,dotcolour,beta,,,2,18,V,R,
451,73,31,10,3,27,53,566,['n'],1,right,['9'],5,237,[-0.12559794],93,53,easy,minus,dotcolour,beta,,,2,18,V,R,
452,74,32,10,3,47,33,999,['c'],1,left,['9'],5,229,[0.04740482],42,47,medium,minus,dotcolour,beta,,,2,18,V,R,
453,75,33,10,3,33,47,964,['n'],1,right,['9'],5,214,[-0.10793096],88,47,medium,minus,dotcolour,beta,,,2,18,V,R,
454,76,34,10,3,53,27,797,['c'],1,left,['8'],4,223,[0.01132141],16,53,easy,minus,dotcolour,beta,,,2,18,V,R,
455,77,35,10,3,53,27,633,['c'],1,left,['8'],4,142,[0.05368043],48,53,easy,minus,dotcolour,beta,,,2,18,V,R,
456,78,36,10,3,44,36,798,['c'],1,left,['8'],4,145,[0.11936378],95,44,hard,minus,dotcolour,beta,,,2,18,V,R,
457,79,37,10,3,36,44,3066,['c'],0,right,['8'],4,185,[0.11415757],92,44,hard,minus,dotcolour,beta,,,2,18,V,R,
458,80,38,10,3,47,33,981,['c'],1,left,['8'],4,124,[0.06786087],65,47,medium,minus,dotcolour,beta,,,2,18,V,R,
459,81,39,10,3,36,44,799,['n'],1,right,['8'],4,248,[-0.0846835],74,44,hard,minus,dotcolour,beta,,,2,18,V,R,
460,82,40,10,3,36,44,848,['n'],1,right,['8'],4,238,[-0.12394069],93,44,hard,minus,dotcolour,beta,,,2,18,V,R,
461,83,41,10,3,36,44,2598,['n'],1,right,['8'],4,213,[-0.00472035],12,44,hard,minus,dotcolour,beta,,,2,18,V,R,
462,84,0,11,3,53,27,850,['c'],1,left,['9'],5,725,[0.22720118],97,53,easy,minus,dotcolour,beta,,,2,18,V,R,
463,85,1,11,3,44,36,832,['n'],0,left,['8'],4,200,[-0.02345199],22,44,hard,minus,dotcolour,beta,,,2,18,V,R,
464,86,2,11,3,33,47,700,['n'],1,right,['8'],4,325,[-0.13671348],93,47,medium,minus,dotcolour,beta,,,2,18,V,R,
465,87,3,11,3,36,44,733,['n'],1,right,['8'],4,187,[-0.02660591],23,44,hard,minus,dotcolour,beta,,,2,18,V,R,
466,88,4,11,3,36,44,597,['n'],1,right,['8'],4,134,[-0.08486756],81,44,hard,minus,dotcolour,beta,,,2,18,V,R,
467,89,5,11,3,47,33,1431,['n'],0,left,['2'],2,1641,[0.01696254],27,47,medium,minus,dotcolour,beta,,,2,18,V,R,
468,90,6,11,3,33,47,1232,['n'],1,right,['9'],5,630,[-0.1326638],85,47,medium,minus,dotcolour,beta,,,2,18,V,R,
469,91,7,11,3,44,36,781,['n'],0,left,['8'],4,246,[-0.00024914],12,44,hard,minus,dotcolour,beta,,,2,18,V,R,
470,92,8,11,3,36,44,780,['n'],1,right,['9'],5,166,[-0.13466696],97,44,hard,minus,dotcolour,beta,,,2,18,V,R,
471,93,9,11,3,47,33,1765,['c'],1,left,['8'],4,218,[0.06570347],60,47,medium,minus,dotcolour,beta,,,2,18,V,R,
472,94,10,11,3,47,33,1015,['c'],1,left,['8'],4,466,[0.06824245],58,47,medium,minus,dotcolour,beta,,,2,18,V,R,
473,95,11,11,3,36,44,1813,['n'],1,right,['8'],4,344,[-0.10636364],83,44,hard,minus,dotcolour,beta,,,2,18,V,R,
474,96,12,11,3,53,27,914,['c'],1,left,['9'],5,191,[0.11639082],92,53,easy,minus,dotcolour,beta,,,2,18,V,R,
475,97,13,11,3,27,53,833,['n'],1,right,['9'],5,287,[-0.08807667],75,53,easy,minus,dotcolour,beta,,,2,18,V,R,
476,98,14,11,3,27,53,747,['n'],1,right,['9'],5,295,[-0.21100854],99,53,easy,minus,dotcolour,beta,,,2,18,V,R,
477,99,15,11,3,44,36,1515,['c'],1,left,['9'],5,360,[-0.01888446],10,44,hard,minus,dotcolour,beta,,,2,18,V,R,
478,100,16,11,3,36,44,899,['n'],1,right,['9'],5,286,[-0.14174836],95,44,hard,minus,dotcolour,beta,,,2,18,V,R,
479,101,17,11,3,53,27,747,['c'],1,left,['9'],5,294,[0.10311434],83,53,easy,minus,dotcolour,beta,,,2,18,V,R,
480,102,18,11,3,44,36,881,['c'],1,left,['9'],5,352,[0.13684635],92,44,hard,minus,dotcolour,beta,,,2,18,V,R,
481,103,19,11,3,47,33,997,['c'],1,left,['9'],5,299,[0.10699288],84,47,medium,minus,dotcolour,beta,,,2,18,V,R,
482,104,20,11,3,44,36,699,['n'],0,left,['9'],5,229,[-0.12011327],92,44,hard,minus,dotcolour,beta,,,2,18,V,R,
483,105,21,11,3,27,53,733,['n'],1,right,['9'],5,400,[-0.09024935],73,53,easy,minus,dotcolour,beta,,,2,18,V,R,
484,106,22,11,3,44,36,1282,['n'],0,left,['9'],5,294,[0.05911287],2,44,hard,minus,dotcolour,beta,,,2,18,V,R,
485,107,23,11,3,33,47,765,['n'],1,right,['9'],5,204,[-0.1496081],98,47,medium,minus,dotcolour,beta,,,2,18,V,R,
486,108,24,11,3,33,47,750,['n'],1,right,['8'],4,215,[-0.04644212],41,47,medium,minus,dotcolour,beta,,,2,18,V,R,
487,109,25,11,3,33,47,698,['n'],1,right,['8'],4,251,[-0.08061338],71,47,medium,minus,dotcolour,beta,,,2,18,V,R,
488,110,26,11,3,36,44,932,['c'],0,right,['8'],4,157,[0.09287688],84,44,hard,minus,dotcolour,beta,,,2,18,V,R,
489,111,27,11,3,53,27,732,['c'],1,left,['8'],4,99,[0.09466613],90,53,easy,minus,dotcolour,beta,,,2,18,V,R,
490,112,28,11,3,44,36,1232,['n'],0,left,['9'],5,183,[-0.12193013],94,44,hard,minus,dotcolour,beta,,,2,18,V,R,
491,113,29,11,3,27,53,1083,['n'],1,right,['9'],5,197,[-0.12776006],95,53,easy,minus,dotcolour,beta,,,2,18,V,R,
492,114,30,11,3,53,27,1065,['c'],1,left,['9'],5,420,[0.09088666],73,53,easy,minus,dotcolour,beta,,,2,18,V,R,
493,115,31,11,3,47,33,1214,['c'],1,left,['8'],4,228,[0.03047425],28,47,medium,minus,dotcolour,beta,,,2,18,V,R,
494,116,32,11,3,53,27,931,['c'],1,left,['8'],4,271,[0.08145915],71,53,easy,minus,dotcolour,beta,,,2,18,V,R,
495,117,33,11,3,27,53,898,['n'],1,right,['9'],5,201,[-0.08818819],79,53,easy,minus,dotcolour,beta,,,2,18,V,R,
496,118,34,11,3,36,44,1549,['c'],0,right,['9'],5,197,[0.05117973],46,44,hard,minus,dotcolour,beta,,,2,18,V,R,
497,119,35,11,3,47,33,1498,['c'],1,left,['9'],5,314,[0.06421292],57,47,medium,minus,dotcolour,beta,,,2,18,V,R,
498,120,36,11,3,27,53,865,['n'],1,right,['9'],5,316,[-0.1418588],94,53,easy,minus,dotcolour,beta,,,2,18,V,R,
499,121,37,11,3,53,27,847,['c'],1,left,['9'],5,223,[0.11639612],91,53,easy,minus,dotcolour,beta,,,2,18,V,R,
500,122,38,11,3,47,33,982,['c'],1,left,['9'],5,304,[0.09361705],78,47,medium,minus,dotcolour,beta,,,2,18,V,R,
501,123,39,11,3,33,47,665,['n'],1,right,['9'],5,274,[-0.05465439],49,47,medium,minus,dotcolour,beta,,,2,18,V,R,
502,124,40,11,3,27,53,732,['n'],1,right,['9'],5,323,[-0.08036511],69,53,easy,minus,dotcolour,beta,,,2,18,V,R,
503,125,41,11,3,33,47,648,['n'],1,right,['9'],5,205,[-0.0728643],67,47,medium,minus,dotcolour,beta,,,2,18,V,R,
504,0,0,12,4,27,53,733,['n'],1,right,['9'],5,280,[-0.05965714],98,53,easy,plus,dotcolour,beta,,,2,18,V,R,
505,1,1,12,4,33,47,683,['n'],1,right,['8'],4,283,[-0.1244115],100,47,medium,plus,dotcolour,beta,,,2,18,V,R,
506,2,2,12,4,36,44,698,['n'],1,right,['9'],5,237,[-0.0891228],100,44,hard,plus,dotcolour,beta,,,2,18,V,R,
507,3,3,12,4,36,44,1399,['n'],1,right,['8'],4,908,[-0.12553876],97,44,hard,plus,dotcolour,beta,,,2,18,V,R,
508,4,4,12,4,36,44,1065,['n'],1,right,['8'],4,422,[-0.06147616],96,44,hard,plus,dotcolour,beta,,,2,18,V,R,
509,5,5,12,4,47,33,850,['c'],1,left,['8'],4,276,[0.04292946],97,47,medium,plus,dotcolour,beta,,,2,18,V,R,
510,6,6,12,4,36,44,1066,['c'],0,right,['8'],4,279,[0.06443678],98,44,hard,plus,dotcolour,beta,,,2,18,V,R,
511,7,7,12,4,44,36,2217,['n'],0,left,['8'],4,397,[-0.03453058],93,44,hard,plus,dotcolour,beta,,,2,18,V,R,
512,8,8,12,4,44,36,1580,['c'],1,left,['8'],4,159,[0.04702583],99,44,hard,plus,dotcolour,beta,,,2,18,V,R,
513,9,9,12,4,47,33,1515,['c'],1,left,['8'],4,212,[0.07174494],99,47,medium,plus,dotcolour,beta,,,2,18,V,R,
514,10,10,12,4,36,44,914,['n'],1,right,['8'],4,200,[-0.08282607],100,44,hard,plus,dotcolour,beta,,,2,18,V,R,
515,11,11,12,4,47,33,748,['c'],1,left,['8'],4,132,[0.0656129],100,47,medium,plus,dotcolour,beta,,,2,18,V,R,
516,12,12,12,4,44,36,716,['c'],1,left,['8'],4,171,[0.04849065],99,44,hard,plus,dotcolour,beta,,,2,18,V,R,
517,13,13,12,4,33,47,582,['n'],1,right,['8'],4,190,[-0.13861013],100,47,medium,plus,dotcolour,beta,,,2,18,V,R,
518,14,14,12,4,53,27,932,['c'],1,left,['9'],5,179,[0.13719505],100,53,easy,plus,dotcolour,beta,,,2,18,V,R,
519,15,15,12,4,47,33,948,['c'],1,left,['8'],4,175,[0.08959184],100,47,medium,plus,dotcolour,beta,,,2,18,V,R,
520,16,16,12,4,44,36,866,['c'],1,left,['8'],4,254,[0.1499739],100,44,hard,plus,dotcolour,beta,,,2,18,V,R,
521,17,17,12,4,36,44,1049,['n'],1,right,['8'],4,195,[-0.06423303],99,44,hard,plus,dotcolour,beta,,,2,18,V,R,
522,18,18,12,4,27,53,797,['n'],1,right,['9'],5,252,[-0.09481915],100,53,easy,plus,dotcolour,beta,,,2,18,V,R,
523,19,19,12,4,53,27,632,['c'],1,left,['9'],5,170,[0.05698954],99,53,easy,plus,dotcolour,beta,,,2,18,V,R,
524,20,20,12,4,44,36,698,['c'],1,left,['8'],4,393,[0.17113401],100,44,hard,plus,dotcolour,beta,,,2,18,V,R,
525,21,21,12,4,47,33,598,['c'],1,left,['8'],4,289,[0.13373875],100,47,medium,plus,dotcolour,beta,,,2,18,V,R,
526,22,22,12,4,53,27,665,['c'],1,left,['8'],4,188,[0.09167929],100,53,easy,plus,dotcolour,beta,,,2,18,V,R,
527,23,23,12,4,47,33,1698,['c'],1,left,['8'],4,194,[0.0496985],99,47,medium,plus,dotcolour,beta,,,2,18,V,R,
528,24,24,12,4,33,47,1232,['n'],1,right,['8'],4,321,[-0.16764763],100,47,medium,plus,dotcolour,beta,,,2,18,V,R,
529,25,25,12,4,53,27,634,['c'],1,left,['9'],5,157,[0.02982016],98,53,easy,plus,dotcolour,beta,,,2,18,V,R,
530,26,26,12,4,44,36,1431,['c'],1,left,['8'],4,198,[-0.00841298],87,44,hard,plus,dotcolour,beta,,,2,18,V,R,
531,27,27,12,4,27,53,1013,['n'],1,right,['9'],5,375,[-0.16057469],100,53,easy,plus,dotcolour,beta,,,2,18,V,R,
532,28,28,12,4,33,47,848,['n'],1,right,['8'],4,263,[-0.08498035],99,47,medium,plus,dotcolour,beta,,,2,18,V,R,
533,29,29,12,4,27,53,649,['n'],1,right,['9'],5,316,[-0.10933298],99,53,easy,plus,dotcolour,beta,,,2,18,V,R,
534,30,30,12,4,33,47,800,['n'],1,right,['9'],5,207,[-0.12076382],100,47,medium,plus,dotcolour,beta,,,2,18,V,R,
535,31,31,12,4,47,33,1533,['c'],1,left,['8'],4,1148,[0.20361118],99,47,medium,plus,dotcolour,beta,,,2,18,V,R,
536,32,32,12,4,53,27,2248,['c'],1,left,['9'],5,580,[0.17420205],100,53,easy,plus,dotcolour,beta,,,2,18,V,R,
537,33,33,12,4,44,36,948,['n'],0,left,['8'],4,200,[-0.09460519],100,44,hard,plus,dotcolour,beta,,,2,18,V,R,
538,34,34,12,4,53,27,964,['c'],1,left,['9'],5,707,[0.12532521],98,53,easy,plus,dotcolour,beta,,,2,18,V,R,
539,35,35,12,4,36,44,731,['c'],0,right,['8'],4,242,[0.09436919],100,44,hard,plus,dotcolour,beta,,,2,18,V,R,
540,36,36,12,4,53,27,764,['c'],1,left,['9'],5,523,[0.1972865],100,53,easy,plus,dotcolour,beta,,,2,18,V,R,
541,37,37,12,4,27,53,1232,['n'],1,right,['8'],4,477,[-0.07175945],97,53,easy,plus,dotcolour,beta,,,2,18,V,R,
542,38,38,12,4,27,53,981,['n'],1,right,['9'],5,196,[-0.1355501],100,53,easy,plus,dotcolour,beta,,,2,18,V,R,
543,39,39,12,4,33,47,782,['n'],1,right,['9'],5,262,[-0.09550904],100,47,medium,plus,dotcolour,beta,,,2,18,V,R,
544,40,40,12,4,27,53,716,['n'],1,right,['9'],5,121,[-0.11885676],100,53,easy,plus,dotcolour,beta,,,2,18,V,R,
545,41,41,12,4,33,47,648,['n'],1,right,['9'],5,386,[-0.10894406],99,47,medium,plus,dotcolour,beta,,,2,18,V,R,
546,42,0,13,4,33,47,767,['n'],1,right,['9'],5,282,[-0.15493],100,47,medium,plus,dotcolour,beta,,,2,18,V,R,
547,43,1,13,4,27,53,499,['n'],1,right,['9'],5,123,[-0.14397924],100,53,easy,plus,dotcolour,beta,,,2,18,V,R,
548,44,2,13,4,47,33,749,['c'],1,left,['8'],4,113,[0.1021089],100,47,medium,plus,dotcolour,beta,,,2,18,V,R,
549,45,3,13,4,33,47,616,['n'],1,right,['9'],5,149,[-0.06155589],100,47,medium,plus,dotcolour,beta,,,2,18,V,R,
550,46,4,13,4,53,27,583,['c'],1,left,['9'],5,249,[0.00992271],91,53,easy,plus,dotcolour,beta,,,2,18,V,R,
551,47,5,13,4,47,33,949,['n'],0,left,['8'],4,130,[-0.09500065],100,47,medium,plus,dotcolour,beta,,,2,18,V,R,
552,48,6,13,4,44,36,899,['c'],1,left,['9'],5,323,[0.09373791],99,44,hard,plus,dotcolour,beta,,,2,18,V,R,
553,49,7,13,4,36,44,1417,['n'],1,right,['9'],5,286,[-0.00219406],87,44,hard,plus,dotcolour,beta,,,2,18,V,R,
554,50,8,13,4,33,47,700,['n'],1,right,['9'],5,176,[-0.12925091],100,47,medium,plus,dotcolour,beta,,,2,18,V,R,
555,51,9,13,4,33,47,867,['n'],1,right,['8'],4,247,[-0.13526225],100,47,medium,plus,dotcolour,beta,,,2,18,V,R,
556,52,10,13,4,27,53,633,['n'],1,right,['9'],5,141,[-0.02796918],98,53,easy,plus,dotcolour,beta,,,2,18,V,R,
557,53,11,13,4,53,27,734,['c'],1,left,['9'],5,52,[0.07174784],100,53,easy,plus,dotcolour,beta,,,2,18,V,R,
558,54,12,13,4,36,44,1100,['n'],1,right,['9'],5,143,[-0.06521853],100,44,hard,plus,dotcolour,beta,,,2,18,V,R,
559,55,13,13,4,36,44,934,['n'],1,right,['8'],4,213,[-0.08840618],100,44,hard,plus,dotcolour,beta,,,2,18,V,R,
560,56,14,13,4,53,27,834,['c'],1,left,['8'],4,188,[0.09249275],100,53,easy,plus,dotcolour,beta,,,2,18,V,R,
561,57,15,13,4,44,36,1615,['n'],0,left,['8'],4,198,[-0.0072044],93,44,hard,plus,dotcolour,beta,,,2,18,V,R,
562,58,16,13,4,36,44,1332,['c'],0,right,['8'],4,130,[0.05744102],100,44,hard,plus,dotcolour,beta,,,2,18,V,R,
563,59,17,13,4,27,53,932,['c'],0,right,['9'],5,160,[-0.02966936],76,53,easy,plus,dotcolour,beta,,,2,18,V,R,
564,60,18,13,4,53,27,831,['c'],1,left,['9'],5,178,[0.09222544],100,53,easy,plus,dotcolour,beta,,,2,18,V,R,
565,61,19,13,4,44,36,1931,['n'],0,left,['9'],5,222,[-0.05085563],98,44,hard,plus,dotcolour,beta,,,2,18,V,R,
566,62,20,13,4,36,44,1249,['c'],0,right,['8'],4,156,[-0.01461242],87,44,hard,plus,dotcolour,beta,,,2,18,V,R,
567,63,21,13,4,47,33,813,['c'],1,left,['8'],4,198,[0.17028875],100,47,medium,plus,dotcolour,beta,,,2,18,V,R,
568,64,22,13,4,36,44,1016,['n'],1,right,['8'],4,183,[-0.06840823],99,44,hard,plus,dotcolour,beta,,,2,18,V,R,
569,65,23,13,4,27,53,680,['n'],1,right,['8'],4,238,[-0.14062289],100,53,easy,plus,dotcolour,beta,,,2,18,V,R,
570,66,24,13,4,53,27,1048,['c'],1,left,['8'],4,171,[0.02397005],97,53,easy,plus,dotcolour,beta,,,2,18,V,R,
571,67,25,13,4,47,33,1182,['c'],1,left,['8'],4,222,[0.14286915],100,47,medium,plus,dotcolour,beta,,,2,18,V,R,
572,68,26,13,4,47,33,1066,['c'],1,left,['8'],4,180,[0.10658201],100,47,medium,plus,dotcolour,beta,,,2,18,V,R,
573,69,27,13,4,36,44,749,['n'],1,right,['8'],4,143,[-0.06058984],100,44,hard,plus,dotcolour,beta,,,2,18,V,R,
574,70,28,13,4,44,36,1515,['n'],0,left,['8'],4,166,[-0.11606707],100,44,hard,plus,dotcolour,beta,,,2,18,V,R,
575,71,29,13,4,47,33,1132,['c'],1,left,['8'],4,164,[0.07062361],100,47,medium,plus,dotcolour,beta,,,2,18,V,R,
576,72,30,13,4,33,47,682,['n'],1,right,['8'],4,187,[-0.15332461],100,47,medium,plus,dotcolour,beta,,,2,18,V,R,
577,73,31,13,4,33,47,1200,['n'],1,right,['8'],4,228,[-0.0517865],98,47,medium,plus,dotcolour,beta,,,2,18,V,R,
578,74,32,13,4,53,27,699,['c'],1,left,['9'],5,320,[0.05903184],97,53,easy,plus,dotcolour,beta,,,2,18,V,R,
579,75,33,13,4,44,36,1014,['n'],0,left,['9'],5,236,[-0.04152147],97,44,hard,plus,dotcolour,beta,,,2,18,V,R,
580,76,34,13,4,27,53,1449,['n'],1,right,['8'],4,250,[-0.14136981],100,53,easy,plus,dotcolour,beta,,,2,18,V,R,
581,77,35,13,4,53,27,932,['c'],1,left,['9'],5,340,[0.16575143],100,53,easy,plus,dotcolour,beta,,,2,18,V,R,
582,78,36,13,4,44,36,1932,['c'],1,left,['9'],5,442,[0.13024411],99,44,hard,plus,dotcolour,beta,,,2,18,V,R,
583,79,37,13,4,33,47,765,['n'],1,right,['9'],5,226,[-0.11929237],100,47,medium,plus,dotcolour,beta,,,2,18,V,R,
584,80,38,13,4,47,33,847,['c'],1,left,['9'],5,304,[0.08091576],99,47,medium,plus,dotcolour,beta,,,2,18,V,R,
585,81,39,13,4,27,53,865,['n'],1,right,['9'],5,330,[-0.15160741],100,53,easy,plus,dotcolour,beta,,,2,18,V,R,
586,82,40,13,4,27,53,1047,['n'],1,right,['9'],5,300,[-0.13906958],100,53,easy,plus,dotcolour,beta,,,2,18,V,R,
587,83,41,13,4,44,36,1297,['c'],1,left,['8'],4,230,[0.08218133],99,44,hard,plus,dotcolour,beta,,,2,18,V,R,
588,84,0,14,4,27,53,883,['n'],1,right,['9'],5,230,[-0.09412029],100,53,easy,plus,dotcolour,beta,,,2,18,V,R,
589,85,1,14,4,44,36,847,['c'],1,left,['9'],5,189,[0.21112375],100,44,hard,plus,dotcolour,beta,,,2,18,V,R,
590,86,2,14,4,33,47,966,['n'],1,right,['9'],5,183,[-0.0911917],100,47,medium,plus,dotcolour,beta,,,2,18,V,R,
591,87,3,14,4,47,33,882,['c'],1,left,['9'],5,318,[0.05113365],97,47,medium,plus,dotcolour,beta,,,2,18,V,R,
592,88,4,14,4,47,33,1665,['n'],0,left,['8'],4,200,[-0.14854478],100,47,medium,plus,dotcolour,beta,,,2,18,V,R,
593,89,5,14,4,36,44,1331,['n'],1,right,['9'],5,212,[-0.105307],100,44,hard,plus,dotcolour,beta,,,2,18,V,R,
594,90,6,14,4,33,47,665,['n'],1,right,['8'],4,225,[-0.05397922],98,47,medium,plus,dotcolour,beta,,,2,18,V,R,
595,91,7,14,4,53,27,665,['c'],1,left,['8'],4,127,[0.04926103],100,53,easy,plus,dotcolour,beta,,,2,18,V,R,
596,92,8,14,4,36,44,848,['n'],1,right,['9'],5,169,[-0.08392988],100,44,hard,plus,dotcolour,beta,,,2,18,V,R,
597,93,9,14,4,53,27,882,['c'],1,left,['9'],5,336,[0.17641383],100,53,easy,plus,dotcolour,beta,,,2,18,V,R,
598,94,10,14,4,36,44,931,['n'],1,right,['8'],4,326,[-0.18539516],100,44,hard,plus,dotcolour,beta,,,2,18,V,R,
599,95,11,14,4,36,44,1132,['n'],1,right,['8'],4,237,[-0.11960754],100,44,hard,plus,dotcolour,beta,,,2,18,V,R,
600,96,12,14,4,47,33,765,['c'],1,left,['9'],5,214,[0.06389257],99,47,medium,plus,dotcolour,beta,,,2,18,V,R,
601,97,13,14,4,53,27,1066,['n'],0,left,['8'],4,188,[-0.06067693],99,53,easy,plus,dotcolour,beta,,,2,18,V,R,
602,98,14,14,4,53,27,1817,['c'],1,left,['9'],5,270,[0.1205545],100,53,easy,plus,dotcolour,beta,,,2,18,V,R,
603,99,15,14,4,53,27,783,['c'],1,left,['9'],5,341,[0.09193527],99,53,easy,plus,dotcolour,beta,,,2,18,V,R,
604,100,16,14,4,33,47,948,['n'],1,right,['9'],5,242,[0.03354344],69,47,medium,plus,dotcolour,beta,,,2,18,V,R,
605,101,17,14,4,27,53,699,['n'],1,right,['9'],5,334,[-0.12845438],100,53,easy,plus,dotcolour,beta,,,2,18,V,R,
606,102,18,14,4,27,53,699,['n'],1,right,['9'],5,510,[-0.15973235],100,53,easy,plus,dotcolour,beta,,,2,18,V,R,
607,103,19,14,4,44,36,1231,['c'],1,left,['8'],4,225,[0.11416073],100,44,hard,plus,dotcolour,beta,,,2,18,V,R,
608,104,20,14,4,53,27,700,['c'],1,left,['9'],5,213,[0.13386028],100,53,easy,plus,dotcolour,beta,,,2,18,V,R,
609,105,21,14,4,44,36,816,['c'],1,left,['8'],4,197,[0.18129038],100,44,hard,plus,dotcolour,beta,,,2,18,V,R,
610,106,22,14,4,44,36,1466,['n'],0,left,['8'],4,179,[-0.04220588],98,44,hard,plus,dotcolour,beta,,,2,18,V,R,
611,107,23,14,4,44,36,1583,['c'],1,left,['9'],5,254,[0.05411987],98,44,hard,plus,dotcolour,beta,,,2,18,V,R,
612,108,24,14,4,33,47,684,['c'],0,right,['9'],5,121,[0.04148152],99,47,medium,plus,dotcolour,beta,,,2,18,V,R,
613,109,25,14,4,36,44,866,['c'],0,right,['9'],5,172,[0.04994266],99,44,hard,plus,dotcolour,beta,,,2,18,V,R,
614,110,26,14,4,27,53,865,['n'],1,right,['9'],5,195,[-0.18648849],100,53,easy,plus,dotcolour,beta,,,2,18,V,R,
615,111,27,14,4,53,27,615,['c'],1,left,['9'],5,347,[0.08259783],99,53,easy,plus,dotcolour,beta,,,2,18,V,R,
616,112,28,14,4,33,47,813,['n'],1,right,['9'],5,254,[-0.10801565],100,47,medium,plus,dotcolour,beta,,,2,18,V,R,
617,113,29,14,4,36,44,1582,['c'],0,right,['8'],4,237,[0.05879284],99,44,hard,plus,dotcolour,beta,,,2,18,V,R,
618,114,30,14,4,44,36,782,['c'],1,left,['8'],4,166,[0.07481752],100,44,hard,plus,dotcolour,beta,,,2,18,V,R,
619,115,31,14,4,47,33,714,['c'],1,left,['8'],4,131,[0.06389455],100,47,medium,plus,dotcolour,beta,,,2,18,V,R,
620,116,32,14,4,44,36,1230,['c'],1,left,['8'],4,158,[0.08490519],100,44,hard,plus,dotcolour,beta,,,2,18,V,R,
621,117,33,14,4,27,53,848,['n'],1,right,['8'],4,335,[-0.14841854],100,53,easy,plus,dotcolour,beta,,,2,18,V,R,
622,118,34,14,4,27,53,831,['n'],1,right,['8'],4,241,[-0.03371636],96,53,easy,plus,dotcolour,beta,,,2,18,V,R,
623,119,35,14,4,47,33,1448,['c'],1,left,['8'],4,238,[0.17429782],100,47,medium,plus,dotcolour,beta,,,2,18,V,R,
624,120,36,14,4,33,47,798,['n'],1,right,['9'],5,302,[-0.17630391],100,47,medium,plus,dotcolour,beta,,,2,18,V,R,
625,121,37,14,4,47,33,783,['c'],1,left,['9'],5,340,[0.15316851],100,47,medium,plus,dotcolour,beta,,,2,18,V,R,
626,122,38,14,4,47,33,965,['c'],1,left,['8'],4,193,[0.06957681],99,47,medium,plus,dotcolour,beta,,,2,18,V,R,
627,123,39,14,4,27,53,817,['n'],1,right,['8'],4,194,[-0.08906595],100,53,easy,plus,dotcolour,beta,,,2,18,V,R,
628,124,40,14,4,36,44,867,['n'],1,right,['8'],4,160,[-0.0495058],99,44,hard,plus,dotcolour,beta,,,2,18,V,R,
629,125,41,14,4,33,47,849,['n'],1,right,['9'],5,225,[-0.15289144],100,47,medium,plus,dotcolour,beta,,,2,18,V,R,
630,0,0,15,5,33,47,900,['n'],1,right,['9'],5,205,[-0.06649159],61,47,medium,minus,dotcolour,beta,,,2,18,V,R,
631,1,1,15,5,47,33,997,['n'],0,left,['8'],4,214,[-0.01379356],16,47,medium,minus,dotcolour,beta,,,2,18,V,R,
632,2,2,15,5,27,53,965,['n'],1,right,['9'],5,232,[-0.12655268],93,53,easy,minus,dotcolour,beta,,,2,18,V,R,
633,3,3,15,5,47,33,599,['c'],1,left,['8'],4,136,[0.10743585],93,47,medium,minus,dotcolour,beta,,,2,18,V,R,
634,4,4,15,5,36,44,1215,['n'],1,right,['8'],4,276,[-0.03677517],34,44,hard,minus,dotcolour,beta,,,2,18,V,R,
635,5,5,15,5,27,53,916,['n'],1,right,['9'],5,244,[-0.05652894],51,53,easy,minus,dotcolour,beta,,,2,18,V,R,
636,6,6,15,5,53,27,647,['c'],1,left,['9'],5,282,[0.11554971],88,53,easy,minus,dotcolour,beta,,,2,18,V,R,
637,7,7,15,5,44,36,865,['c'],1,left,['8'],4,142,[0.05809416],53,44,hard,minus,dotcolour,beta,,,2,18,V,R,
638,8,8,15,5,47,33,1115,['c'],1,left,['8'],4,156,[0.06902434],65,47,medium,minus,dotcolour,beta,,,2,18,V,R,
639,9,9,15,5,44,36,765,['c'],1,left,['8'],4,136,[0.0776897],75,44,hard,minus,dotcolour,beta,,,2,18,V,R,
640,10,10,15,5,53,27,915,['c'],1,left,['8'],4,167,[0.08325181],77,53,easy,minus,dotcolour,beta,,,2,18,V,R,
641,11,11,15,5,44,36,698,['c'],1,left,['8'],4,110,[0.07414127],73,44,hard,minus,dotcolour,beta,,,2,18,V,R,
642,12,12,15,5,36,44,1798,['c'],0,right,['8'],4,163,[0.08855787],81,44,hard,minus,dotcolour,beta,,,2,18,V,R,
643,13,13,15,5,36,44,798,['n'],1,right,['8'],4,173,[-0.11834438],94,44,hard,minus,dotcolour,beta,,,2,18,V,R,
644,14,14,15,5,33,47,782,['n'],1,right,['9'],5,305,[-0.06503577],58,47,medium,minus,dotcolour,beta,,,2,18,V,R,
645,15,15,15,5,33,47,682,['n'],1,right,['9'],5,130,[-0.06523106],62,47,medium,minus,dotcolour,beta,,,2,18,V,R,
646,16,16,15,5,27,53,682,['n'],1,right,['9'],5,163,[-0.11502383],93,53,easy,minus,dotcolour,beta,,,2,18,V,R,
647,17,17,15,5,47,33,965,['c'],1,left,['8'],4,151,[0.03102878],24,47,medium,minus,dotcolour,beta,,,2,18,V,R,
648,18,18,15,5,44,36,915,['c'],1,left,['8'],4,165,[0.07664603],72,44,hard,minus,dotcolour,beta,,,2,18,V,R,
649,19,19,15,5,44,36,831,['c'],1,left,['8'],4,159,[0.10720317],91,44,hard,minus,dotcolour,beta,,,2,18,V,R,
650,20,20,15,5,27,53,616,['n'],1,right,['8'],4,249,[-0.12557098],93,53,easy,minus,dotcolour,beta,,,2,18,V,R,
651,21,21,15,5,44,36,850,['n'],0,left,['8'],4,359,[-0.06504004],57,44,hard,minus,dotcolour,beta,,,2,18,V,R,
652,22,22,15,5,53,27,964,['c'],1,left,['8'],4,122,[0.07479849],73,53,easy,minus,dotcolour,beta,,,2,18,V,R,
653,23,23,15,5,27,53,882,['n'],1,right,['9'],5,139,[-0.07454437],71,53,easy,minus,dotcolour,beta,,,2,18,V,R,
654,24,24,15,5,47,33,733,['c'],1,left,['8'],4,137,[0.04964631],43,47,medium,minus,dotcolour,beta,,,2,18,V,R,
655,25,25,15,5,33,47,564,['n'],1,right,['8'],4,215,[-0.1537557],98,47,medium,minus,dotcolour,beta,,,2,18,V,R,
656,26,26,15,5,47,33,1283,['c'],1,left,['8'],4,133,[0.10111996],90,47,medium,minus,dotcolour,beta,,,2,18,V,R,
657,27,27,15,5,36,44,800,['n'],1,right,['9'],5,255,[-0.0299985],29,44,hard,minus,dotcolour,beta,,,2,18,V,R,
658,28,28,15,5,53,27,717,['c'],1,left,['9'],5,362,[0.15522025],95,53,easy,minus,dotcolour,beta,,,2,18,V,R,
659,29,29,15,5,53,27,701,['c'],1,left,['9'],5,169,[0.03848934],32,53,easy,minus,dotcolour,beta,,,2,18,V,R,
660,30,30,15,5,27,53,851,['n'],1,right,['9'],5,394,[-0.17087937],96,53,easy,minus,dotcolour,beta,,,2,18,V,R,
661,31,31,15,5,53,27,834,['c'],1,left,['9'],5,313,[0.05465419],49,53,easy,minus,dotcolour,beta,,,2,18,V,R,
662,32,32,15,5,36,44,784,['c'],0,right,['1'],1,1103,[0.20051728],92,44,hard,minus,dotcolour,beta,,,2,18,V,R,
663,33,33,15,5,53,27,1015,['c'],1,left,['9'],5,1899,[0.22164391],90,53,easy,minus,dotcolour,beta,,,2,18,V,R,
664,34,34,15,5,36,44,1267,['n'],1,right,['9'],5,429,[-0.11993658],85,44,hard,minus,dotcolour,beta,,,2,18,V,R,
665,35,35,15,5,36,44,833,['n'],1,right,['8'],4,707,[0.04996882],9,44,hard,minus,dotcolour,beta,,,2,18,V,R,
666,36,36,15,5,27,53,934,['n'],1,right,['8'],4,298,[-0.17373994],98,53,easy,minus,dotcolour,beta,,,2,18,V,R,
667,37,37,15,5,33,47,850,['n'],1,right,['9'],5,374,[-0.14213551],93,47,medium,minus,dotcolour,beta,,,2,18,V,R,
668,38,38,15,5,33,47,634,['n'],1,right,['9'],5,198,[-0.1233448],94,47,medium,minus,dotcolour,beta,,,2,18,V,R,
669,39,39,15,5,44,36,984,['c'],1,left,['9'],5,233,[0.06345213],57,44,hard,minus,dotcolour,beta,,,2,18,V,R,
670,40,40,15,5,47,33,650,['c'],1,left,['8'],4,199,[0.04428814],39,47,medium,minus,dotcolour,beta,,,2,18,V,R,
671,41,41,15,5,33,47,651,['n'],1,right,['8'],4,214,[-0.08249027],74,47,medium,minus,dotcolour,beta,,,2,18,V,R,
672,42,0,16,5,33,47,950,['n'],1,right,['9'],5,242,[-0.14571654],96,47,medium,minus,dotcolour,beta,,,2,18,V,R,
673,43,1,16,5,44,36,784,['c'],1,left,['9'],5,218,[0.07493522],68,44,hard,minus,dotcolour,beta,,,2,18,V,R,
674,44,2,16,5,27,53,683,['n'],1,right,['9'],5,199,[-0.03200263],28,53,easy,minus,dotcolour,beta,,,2,18,V,R,
675,45,3,16,5,33,47,1116,['n'],1,right,['8'],4,204,[-0.12855767],95,47,medium,minus,dotcolour,beta,,,2,18,V,R,
676,46,4,16,5,36,44,966,['c'],0,right,['8'],4,390,[0.0753263],64,44,hard,minus,dotcolour,beta,,,2,18,V,R,
677,47,5,16,5,27,53,765,['n'],1,right,['8'],4,161,[-0.13255759],97,53,easy,minus,dotcolour,beta,,,2,18,V,R,
678,48,6,16,5,36,44,747,['n'],1,right,['9'],5,334,[-0.04103062],39,44,hard,minus,dotcolour,beta,,,2,18,V,R,
679,49,7,16,5,36,44,666,['n'],1,right,['8'],4,199,[-0.10908439],90,44,hard,minus,dotcolour,beta,,,2,18,V,R,
680,50,8,16,5,27,53,665,['c'],0,right,['8'],4,126,[0.031413],23,53,easy,minus,dotcolour,beta,,,2,18,V,R,
681,51,9,16,5,53,27,1017,['c'],1,left,['9'],5,442,[0.18510825],97,53,easy,minus,dotcolour,beta,,,2,18,V,R,
682,52,10,16,5,44,36,1330,['c'],1,left,['8'],4,131,[0.00127523],6,44,hard,minus,dotcolour,beta,,,2,18,V,R,
683,53,11,16,5,47,33,1250,['c'],1,left,['8'],4,149,[0.102287],90,47,medium,minus,dotcolour,beta,,,2,18,V,R,
684,54,12,16,5,47,33,933,['c'],1,left,['8'],4,163,[0.069728],65,47,medium,minus,dotcolour,beta,,,2,18,V,R,
685,55,13,16,5,53,27,782,['c'],1,left,['9'],5,198,[0.12155991],94,53,easy,minus,dotcolour,beta,,,2,18,V,R,
686,56,14,16,5,47,33,1516,['c'],1,left,['8'],4,139,[0.11829543],95,47,medium,minus,dotcolour,beta,,,2,18,V,R,
687,57,15,16,5,53,27,1049,['c'],1,left,['9'],5,333,[0.06648249],58,53,easy,minus,dotcolour,beta,,,2,18,V,R,
688,58,16,16,5,36,44,1133,['n'],1,right,['9'],5,172,[-0.00537189],10,44,hard,minus,dotcolour,beta,,,2,18,V,R,
689,59,17,16,5,53,27,1200,['c'],1,left,['9'],5,158,[0.04145581],35,53,easy,minus,dotcolour,beta,,,2,18,V,R,
690,60,18,16,5,47,33,1050,['c'],1,left,['8'],4,103,[0.03412377],23,47,medium,minus,dotcolour,beta,,,2,18,V,R,
691,61,19,16,5,27,53,734,['n'],1,right,['8'],4,151,[-0.09371794],85,53,easy,minus,dotcolour,beta,,,2,18,V,R,
692,62,20,16,5,36,44,1134,['n'],1,right,['8'],4,205,[-0.10002643],85,44,hard,minus,dotcolour,beta,,,2,18,V,R,
693,63,21,16,5,44,36,1085,['n'],0,left,['8'],4,219,[-0.02041772],21,44,hard,minus,dotcolour,beta,,,2,18,V,R,
694,64,22,16,5,27,53,1300,['n'],1,right,['8'],4,192,[-0.07968055],73,53,easy,minus,dotcolour,beta,,,2,18,V,R,
695,65,23,16,5,33,47,1283,['n'],1,right,['9'],5,1734,[-0.27078236],95,47,medium,minus,dotcolour,beta,,,2,18,V,R,
696,66,24,16,5,44,36,1366,['c'],1,left,['8'],4,331,[0.09077471],75,44,hard,minus,dotcolour,beta,,,2,18,V,R,
697,67,25,16,5,53,27,949,['c'],1,left,['9'],5,264,[0.20466507],99,53,easy,minus,dotcolour,beta,,,2,18,V,R,
698,68,26,16,5,36,44,1250,['n'],1,right,['9'],5,221,[-0.0921096],80,44,hard,minus,dotcolour,beta,,,2,18,V,R,
699,69,27,16,5,47,33,949,['c'],1,left,['8'],4,184,[0.1407901],97,47,medium,minus,dotcolour,beta,,,2,18,V,R,
700,70,28,16,5,47,33,1115,['c'],1,left,['9'],5,205,[0.07074715],65,47,medium,minus,dotcolour,beta,,,2,18,V,R,
701,71,29,16,5,53,27,684,['c'],1,left,['9'],5,346,[0.16959064],97,53,easy,minus,dotcolour,beta,,,2,18,V,R,
702,72,30,16,5,36,44,1280,['n'],1,right,['9'],5,242,[0.02443354],5,44,hard,minus,dotcolour,beta,,,2,18,V,R,
703,73,31,16,5,44,36,781,['n'],0,left,['8'],4,131,[-0.11393545],95,44,hard,minus,dotcolour,beta,,,2,18,V,R,
704,74,32,16,5,33,47,532,['n'],1,right,['8'],4,177,[-0.03197527],27,47,medium,minus,dotcolour,beta,,,2,18,V,R,
705,75,33,16,5,27,53,732,['n'],1,right,['8'],4,190,[-0.10384168],88,53,easy,minus,dotcolour,beta,,,2,18,V,R,
706,76,34,16,5,33,47,848,['n'],1,right,['8'],4,181,[-0.07908267],73,47,medium,minus,dotcolour,beta,,,2,18,V,R,
707,77,35,16,5,44,36,1550,['n'],0,left,['8'],4,329,[-0.08586614],72,44,hard,minus,dotcolour,beta,,,2,18,V,R,
708,78,36,16,5,33,47,1982,['n'],1,right,['8'],4,230,[-0.10347628],86,47,medium,minus,dotcolour,beta,,,2,18,V,R,
709,79,37,16,5,47,33,731,['c'],1,left,['8'],4,169,[0.1091478],91,47,medium,minus,dotcolour,beta,,,2,18,V,R,
710,80,38,16,5,44,36,848,['c'],1,left,['8'],4,137,[0.06591816],62,44,hard,minus,dotcolour,beta,,,2,18,V,R,
711,81,39,16,5,27,53,699,['n'],1,right,['8'],4,176,[-0.11060182],91,53,easy,minus,dotcolour,beta,,,2,18,V,R,
712,82,40,16,5,33,47,700,['n'],1,right,['9'],5,110,[-0.09538562],90,47,medium,minus,dotcolour,beta,,,2,18,V,R,
713,83,41,16,5,53,27,716,['c'],1,left,['9'],5,183,[0.13066567],96,53,easy,minus,dotcolour,beta,,,2,18,V,R,
714,84,0,17,5,33,47,700,['n'],1,right,['9'],5,485,[-0.14578113],91,47,medium,minus,dotcolour,beta,,,2,18,V,R,
715,85,1,17,5,36,44,516,['n'],1,right,['9'],5,166,[-0.07196372],67,44,hard,minus,dotcolour,beta,,,2,18,V,R,
716,86,2,17,5,27,53,482,['n'],1,right,['9'],5,118,[-0.06229829],59,53,easy,minus,dotcolour,beta,,,2,18,V,R,
717,87,3,17,5,47,33,698,['c'],1,left,['9'],5,150,[0.11922171],95,47,medium,minus,dotcolour,beta,,,2,18,V,R,
718,88,4,17,5,53,27,498,['c'],1,left,['9'],5,230,[0.09460218],81,53,easy,minus,dotcolour,beta,,,2,18,V,R,
719,89,5,17,5,36,44,649,['n'],1,right,['9'],5,148,[-0.00693965],9,44,hard,minus,dotcolour,beta,,,2,18,V,R,
720,90,6,17,5,47,33,883,['n'],0,left,['9'],5,220,[0.01507646],6,47,medium,minus,dotcolour,beta,,,2,18,V,R,
721,91,7,17,5,44,36,1097,['c'],1,left,['8'],4,137,[0.09502151],87,44,hard,minus,dotcolour,beta,,,2,18,V,R,
722,92,8,17,5,27,53,766,['c'],0,right,['8'],4,118,[0.05331025],47,53,easy,minus,dotcolour,beta,,,2,18,V,R,
723,93,9,17,5,44,36,1565,['c'],1,left,['8'],4,260,[0.07314342],65,44,hard,minus,dotcolour,beta,,,2,18,V,R,
724,94,10,17,5,44,36,981,['n'],0,left,['8'],4,171,[-0.04846801],42,44,hard,minus,dotcolour,beta,,,2,18,V,R,
725,95,11,17,5,33,47,600,['n'],1,right,['8'],4,430,[-0.06619547],57,47,medium,minus,dotcolour,beta,,,2,18,V,R,
726,96,12,17,5,44,36,815,['n'],0,left,['8'],4,261,[-0.09893394],82,44,hard,minus,dotcolour,beta,,,2,18,V,R,
727,97,13,17,5,47,33,798,['c'],1,left,['8'],4,164,[0.12508383],96,47,medium,minus,dotcolour,beta,,,2,18,V,R,
728,98,14,17,5,53,27,649,['c'],1,left,['9'],5,141,[0.09607976],87,53,easy,minus,dotcolour,beta,,,2,18,V,R,
729,99,15,17,5,53,27,766,['c'],1,left,['9'],5,178,[0.06579978],61,53,easy,minus,dotcolour,beta,,,2,18,V,R,
730,100,16,17,5,44,36,1732,['n'],0,left,['8'],4,246,[-0.05086675],46,44,hard,minus,dotcolour,beta,,,2,18,V,R,
731,101,17,17,5,47,33,1115,['n'],0,left,['8'],4,121,[-0.0565704],51,47,medium,minus,dotcolour,beta,,,2,18,V,R,
732,102,18,17,5,53,27,1632,['c'],1,left,['8'],4,348,[0.14917614],95,53,easy,minus,dotcolour,beta,,,2,18,V,R,
733,103,19,17,5,27,53,797,['n'],1,right,['8'],4,168,[-0.1024311],89,53,easy,minus,dotcolour,beta,,,2,18,V,R,
734,104,20,17,5,33,47,1665,['n'],1,right,['8'],4,240,[-0.13068494],94,47,medium,minus,dotcolour,beta,,,2,18,V,R,
735,105,21,17,5,47,33,716,['c'],1,left,['8'],4,130,[0.11095916],94,47,medium,minus,dotcolour,beta,,,2,18,V,R,
736,106,22,17,5,33,47,1182,['n'],1,right,['9'],5,183,[-0.08794874],80,47,medium,minus,dotcolour,beta,,,2,18,V,R,
737,107,23,17,5,36,44,1081,['n'],1,right,['9'],5,190,[-0.13461457],96,44,hard,minus,dotcolour,beta,,,2,18,V,R,
738,108,24,17,5,36,44,899,['n'],1,right,['9'],5,91,[-0.06887905],69,44,hard,minus,dotcolour,beta,,,2,18,V,R,
739,109,25,17,5,44,36,849,['c'],1,left,['9'],5,207,[0.08216582],74,44,hard,minus,dotcolour,beta,,,2,18,V,R,
740,110,26,17,5,33,47,1314,['n'],1,right,['9'],5,243,[-0.11187631],89,47,medium,minus,dotcolour,beta,,,2,18,V,R,
741,111,27,17,5,44,36,799,['c'],1,left,['9'],5,459,[0.13488102],89,44,hard,minus,dotcolour,beta,,,2,18,V,R,
742,112,28,17,5,47,33,933,['c'],1,left,['8'],4,92,[0.10452643],95,47,medium,minus,dotcolour,beta,,,2,18,V,R,
743,113,29,17,5,33,47,865,['n'],1,right,['8'],4,135,[-0.14809192],99,47,medium,minus,dotcolour,beta,,,2,18,V,R,
744,114,30,17,5,53,27,1248,['c'],1,left,['8'],4,88,[0.07765406],79,53,easy,minus,dotcolour,beta,,,2,18,V,R,
745,115,31,17,5,53,27,682,['c'],1,left,['8'],4,123,[0.05170723],45,53,easy,minus,dotcolour,beta,,,2,18,V,R,
746,116,32,17,5,27,53,932,['n'],1,right,['8'],4,218,[-0.12159358],93,53,easy,minus,dotcolour,beta,,,2,18,V,R,
747,117,33,17,5,33,47,799,['n'],1,right,['8'],4,211,[-0.00391787],12,47,medium,minus,dotcolour,beta,,,2,18,V,R,
748,118,34,17,5,36,44,1131,['n'],1,right,['9'],5,143,[0.00578787],5,44,hard,minus,dotcolour,beta,,,2,18,V,R,
749,119,35,17,5,27,53,582,['n'],1,right,['9'],5,258,[-0.12644219],92,53,easy,minus,dotcolour,beta,,,2,18,V,R,
750,120,36,17,5,47,33,865,['c'],1,left,['9'],5,166,[0.01411643],14,47,medium,minus,dotcolour,beta,,,2,18,V,R,
751,121,37,17,5,53,27,683,['c'],1,left,['8'],4,190,[0.09184763],82,53,easy,minus,dotcolour,beta,,,2,18,V,R,
752,122,38,17,5,36,44,848,['n'],1,right,['8'],4,261,[-0.13016691],93,44,hard,minus,dotcolour,beta,,,2,18,V,R,
753,123,39,17,5,36,44,916,['n'],1,right,['9'],5,527,[-0.221679],98,44,hard,minus,dotcolour,beta,,,2,18,V,R,
754,124,40,17,5,27,53,633,['n'],1,right,['9'],5,114,[-0.05036274],43,53,easy,minus,dotcolour,beta,,,2,18,V,R,
755,125,41,17,5,27,53,732,['n'],1,right,['9'],5,297,[-0.08005975],69,53,easy,minus,dotcolour,beta,,,2,18,V,R,
,,,,,,,,,,,,,,,,,,,,,1,"rare manier van score weergevn, ik snapte de schaal niet",2,18,V,R,
,,,,,,,,,,,,,,,,,,,,,2,['f'],2,18,V,R,
,,,,,,,,,,,,,,,,,,,,,3,['g'],2,18,V,R,
,,,,,,,,,,,,,,,,,,,,,5,['5'],2,18,V,R,
