trial,withinphasetrial,withinblocktrial,block,phase,dotsLeft,dotsRight,rt,resp,cor,cresp,conf_press,cj,RTconf,ev,fb,diff,difflevel,condition,task,manip,questionID,questionResp,sub,age,gender,handedness,
0,0,0,0,0,44,36,2884,['n'],0,left,['3'],4,6778,[0.40317723],0,44,hard,plus,dotcolour,alfa,,,92,19,V,R,
1,1,1,0,0,33,47,4217,['n'],1,right,['2'],5,1882,[-0.13270609],97,47,medium,plus,dotcolour,alfa,,,92,19,V,R,
2,2,2,0,0,27,53,1951,['n'],1,right,['1'],6,1217,[-0.23444075],100,53,easy,plus,dotcolour,alfa,,,92,19,V,R,
3,3,3,0,0,36,44,1600,['n'],1,right,['1'],6,569,[-0.08278117],98,44,hard,plus,dotcolour,alfa,,,92,19,V,R,
4,4,4,0,0,53,27,2367,['c'],1,left,['2'],5,1476,[0.42609606],100,53,easy,plus,dotcolour,alfa,,,92,19,V,R,
5,5,5,0,0,36,44,1734,['n'],1,right,['2'],5,1005,[-0.07636492],94,44,hard,plus,dotcolour,alfa,,,92,19,V,R,
6,6,6,0,0,27,53,884,['n'],1,right,['1'],6,426,[-0.25044189],100,53,easy,plus,dotcolour,alfa,,,92,19,V,R,
7,7,7,0,0,53,27,850,['c'],1,left,['1'],6,432,[0.16556334],100,53,easy,plus,dotcolour,alfa,,,92,19,V,R,
8,8,8,0,0,27,53,850,['n'],1,right,['1'],6,342,[-0.20338403],100,53,easy,plus,dotcolour,alfa,,,92,19,V,R,
9,9,9,0,0,33,47,1366,['n'],1,right,['2'],5,715,[-0.02172104],72,47,medium,plus,dotcolour,alfa,,,92,19,V,R,
10,10,10,0,0,47,33,1283,['c'],1,left,['2'],5,340,[0.08932712],100,47,medium,plus,dotcolour,alfa,,,92,19,V,R,
11,11,11,0,0,44,36,1749,['c'],1,left,['2'],5,434,[0.16317797],100,44,hard,plus,dotcolour,alfa,,,92,19,V,R,
12,12,12,0,0,27,53,950,['n'],1,right,['2'],5,1508,[-0.05105496],82,53,easy,plus,dotcolour,alfa,,,92,19,V,R,
13,13,13,0,0,44,36,1367,['c'],1,left,['2'],5,449,[-0.0130261],33,44,hard,plus,dotcolour,alfa,,,92,19,V,R,
14,14,14,0,0,47,33,1234,['c'],1,left,['3'],4,2063,[0.50443761],100,47,medium,plus,dotcolour,alfa,,,92,19,V,R,
15,15,15,0,0,27,53,932,['n'],1,right,['2'],5,560,[-0.11811168],100,53,easy,plus,dotcolour,alfa,,,92,19,V,R,
16,16,16,0,0,33,47,951,['c'],0,right,['8'],3,1597,[0.00698842],55,47,medium,plus,dotcolour,alfa,,,92,19,V,R,
17,17,17,0,0,47,33,1533,['c'],1,left,['2'],5,584,[0.07329981],97,47,medium,plus,dotcolour,alfa,,,92,19,V,R,
18,18,18,0,0,44,36,1084,['c'],1,left,['2'],5,1215,[0.01922696],65,44,hard,plus,dotcolour,alfa,,,92,19,V,R,
19,19,19,0,0,53,27,2283,['c'],1,left,['2'],5,443,[0.19480135],100,53,easy,plus,dotcolour,alfa,,,92,19,V,R,
20,20,20,0,0,36,44,1083,['n'],1,right,['2'],5,359,[-0.11186614],100,44,hard,plus,dotcolour,alfa,,,92,19,V,R,
21,21,21,0,0,53,27,917,['c'],1,left,['2'],5,365,[0.10067376],100,53,easy,plus,dotcolour,alfa,,,92,19,V,R,
22,22,22,0,0,44,36,1033,['n'],0,left,['3'],4,567,[-0.01518318],67,44,hard,plus,dotcolour,alfa,,,92,19,V,R,
23,23,23,0,0,33,47,1001,['n'],1,right,['2'],5,578,[-0.19764111],100,47,medium,plus,dotcolour,alfa,,,92,19,V,R,
24,24,24,0,0,27,53,850,['n'],1,right,['2'],5,345,[-0.1137124],100,53,easy,plus,dotcolour,alfa,,,92,19,V,R,
25,25,25,0,0,47,33,917,['c'],1,left,['2'],5,416,[0.11533505],100,47,medium,plus,dotcolour,alfa,,,92,19,V,R,
26,26,26,0,0,33,47,734,['n'],1,right,['2'],5,268,[-0.07662603],100,47,medium,plus,dotcolour,alfa,,,92,19,V,R,
27,27,27,0,0,53,27,717,['c'],1,left,['2'],5,254,[0.14034776],100,53,easy,plus,dotcolour,alfa,,,92,19,V,R,
28,28,28,0,0,36,44,984,['n'],1,right,['2'],5,814,[-0.02477754],73,44,hard,plus,dotcolour,alfa,,,92,19,V,R,
29,29,29,0,0,33,47,851,['n'],1,right,['1'],6,324,[-0.08014642],99,47,medium,plus,dotcolour,alfa,,,92,19,V,R,
30,30,30,0,0,27,53,1067,['n'],1,right,['1'],6,317,[-0.13412634],100,53,easy,plus,dotcolour,alfa,,,92,19,V,R,
31,31,31,0,0,53,27,969,['c'],1,left,['2'],5,347,[0.15228411],100,53,easy,plus,dotcolour,alfa,,,92,19,V,R,
32,32,32,0,0,53,27,833,['c'],1,left,['2'],5,254,[0.04239734],95,53,easy,plus,dotcolour,alfa,,,92,19,V,R,
33,33,33,0,0,33,47,967,['n'],1,right,['2'],5,430,[-0.04678654],93,47,medium,plus,dotcolour,alfa,,,92,19,V,R,
34,34,34,0,0,44,36,1266,['c'],1,left,['3'],4,499,[0.00098166],51,44,hard,plus,dotcolour,alfa,,,92,19,V,R,
35,35,35,0,0,47,33,1317,['c'],1,left,['2'],5,540,[0.18101504],100,47,medium,plus,dotcolour,alfa,,,92,19,V,R,
36,36,36,0,0,47,33,1368,['n'],0,left,['2'],5,480,[-0.08768644],99,47,medium,plus,dotcolour,alfa,,,92,19,V,R,
37,37,37,0,0,44,36,1451,['n'],0,left,['3'],4,1348,[-0.02215954],67,44,hard,plus,dotcolour,alfa,,,92,19,V,R,
38,38,38,0,0,47,33,1333,['c'],1,left,['3'],4,570,[0.16745933],100,47,medium,plus,dotcolour,alfa,,,92,19,V,R,
39,39,39,0,0,36,44,1251,['n'],1,right,['1'],6,282,[-0.01922032],79,44,hard,plus,dotcolour,alfa,,,92,19,V,R,
40,40,40,0,0,36,44,1350,['n'],1,right,['2'],5,482,[-0.0370533],87,44,hard,plus,dotcolour,alfa,,,92,19,V,R,
41,41,41,0,0,36,44,1067,['n'],1,right,['2'],5,181,[-0.04536242],98,44,hard,plus,dotcolour,alfa,,,92,19,V,R,
42,42,0,1,0,44,36,1301,['c'],1,left,['2'],5,400,[0.14439704],100,44,hard,plus,dotcolour,alfa,,,92,19,V,R,
43,43,1,1,0,47,33,783,['n'],0,left,['8'],3,1210,[0.04687636],18,47,medium,plus,dotcolour,alfa,,,92,19,V,R,
44,44,2,1,0,36,44,1167,['c'],0,right,['2'],5,379,[0.13298258],100,44,hard,plus,dotcolour,alfa,,,92,19,V,R,
45,45,3,1,0,44,36,1534,['n'],0,left,['3'],4,1608,[0.04491979],22,44,hard,plus,dotcolour,alfa,,,92,19,V,R,
46,46,4,1,0,27,53,900,['n'],1,right,['1'],6,350,[0.00215865],47,53,easy,plus,dotcolour,alfa,,,92,19,V,R,
47,47,5,1,0,33,47,2483,['c'],0,right,['8'],3,1205,[-0.12592464],2,47,medium,plus,dotcolour,alfa,,,92,19,V,R,
48,48,6,1,0,44,36,1384,['n'],0,left,['2'],5,5206,[0.54500626],0,44,hard,plus,dotcolour,alfa,,,92,19,V,R,
49,49,7,1,0,27,53,916,['n'],1,right,['2'],5,362,[-0.17130651],100,53,easy,plus,dotcolour,alfa,,,92,19,V,R,
50,50,8,1,0,53,27,950,['c'],1,left,['2'],5,222,[0.03569392],94,53,easy,plus,dotcolour,alfa,,,92,19,V,R,
51,51,9,1,0,33,47,1033,['n'],1,right,['2'],5,277,[-0.15354817],100,47,medium,plus,dotcolour,alfa,,,92,19,V,R,
52,52,10,1,0,33,47,1033,['n'],1,right,['2'],5,146,[-0.14141863],100,47,medium,plus,dotcolour,alfa,,,92,19,V,R,
53,53,11,1,0,53,27,851,['c'],1,left,['2'],5,227,[0.11694236],100,53,easy,plus,dotcolour,alfa,,,92,19,V,R,
54,54,12,1,0,33,47,850,['n'],1,right,['2'],5,193,[-0.02549973],89,47,medium,plus,dotcolour,alfa,,,92,19,V,R,
55,55,13,1,0,44,36,1300,['c'],1,left,['3'],4,446,[0.10242587],100,44,hard,plus,dotcolour,alfa,,,92,19,V,R,
56,56,14,1,0,53,27,1200,['c'],1,left,['1'],6,1934,[0.5644283],100,53,easy,plus,dotcolour,alfa,,,92,19,V,R,
57,57,15,1,0,47,33,1000,['c'],1,left,['1'],6,257,[0.05094409],97,47,medium,plus,dotcolour,alfa,,,92,19,V,R,
58,58,16,1,0,27,53,1084,['n'],1,right,['1'],6,293,[-0.03808421],93,53,easy,plus,dotcolour,alfa,,,92,19,V,R,
59,59,17,1,0,47,33,1083,['c'],1,left,['3'],4,534,[0.20212844],100,47,medium,plus,dotcolour,alfa,,,92,19,V,R,
60,60,18,1,0,44,36,900,['c'],1,left,['3'],4,310,[0.13467155],100,44,hard,plus,dotcolour,alfa,,,92,19,V,R,
61,61,19,1,0,36,44,984,['n'],1,right,['1'],6,172,[-0.02819148],92,44,hard,plus,dotcolour,alfa,,,92,19,V,R,
62,62,20,1,0,47,33,1466,['n'],0,left,['2'],5,284,[-0.08277151],100,47,medium,plus,dotcolour,alfa,,,92,19,V,R,
63,63,21,1,0,44,36,2300,['n'],0,left,['3'],4,174,[-0.05339494],99,44,hard,plus,dotcolour,alfa,,,92,19,V,R,
64,64,22,1,0,53,27,984,['c'],1,left,['2'],5,408,[0.2024338],100,53,easy,plus,dotcolour,alfa,,,92,19,V,R,
65,65,23,1,0,47,33,1384,['c'],1,left,['2'],5,306,[0.00019782],50,47,medium,plus,dotcolour,alfa,,,92,19,V,R,
66,66,24,1,0,33,47,966,['n'],1,right,['2'],5,272,[-0.02355451],84,47,medium,plus,dotcolour,alfa,,,92,19,V,R,
67,67,25,1,0,36,44,800,['n'],1,right,['1'],6,150,[-0.04989508],99,44,hard,plus,dotcolour,alfa,,,92,19,V,R,
68,68,26,1,0,33,47,1234,['n'],1,right,['2'],5,344,[-0.16544677],100,47,medium,plus,dotcolour,alfa,,,92,19,V,R,
69,69,27,1,0,36,44,833,['n'],1,right,['2'],5,426,[-0.0260333],81,44,hard,plus,dotcolour,alfa,,,92,19,V,R,
70,70,28,1,0,53,27,883,['c'],1,left,['1'],6,407,[0.16125395],100,53,easy,plus,dotcolour,alfa,,,92,19,V,R,
71,71,29,1,0,36,44,983,['n'],1,right,['2'],5,192,[-0.03695203],95,44,hard,plus,dotcolour,alfa,,,92,19,V,R,
72,72,30,1,0,44,36,1684,['c'],1,left,['2'],5,422,[0.20655388],100,44,hard,plus,dotcolour,alfa,,,92,19,V,R,
73,73,31,1,0,36,44,934,['n'],1,right,['2'],5,169,[-0.10703618],100,44,hard,plus,dotcolour,alfa,,,92,19,V,R,
74,74,32,1,0,27,53,917,['n'],1,right,['2'],5,119,[-0.03276836],97,53,easy,plus,dotcolour,alfa,,,92,19,V,R,
75,75,33,1,0,47,33,867,['c'],1,left,['2'],5,257,[0.00241512],54,47,medium,plus,dotcolour,alfa,,,92,19,V,R,
76,76,34,1,0,27,53,983,['n'],1,right,['2'],5,160,[-0.08611768],100,53,easy,plus,dotcolour,alfa,,,92,19,V,R,
77,77,35,1,0,27,53,700,['n'],1,right,['1'],6,239,[-0.1236266],100,53,easy,plus,dotcolour,alfa,,,92,19,V,R,
78,78,36,1,0,27,53,634,['n'],1,right,['1'],6,101,[-0.0936274],100,53,easy,plus,dotcolour,alfa,,,92,19,V,R,
79,79,37,1,0,53,27,1050,['c'],1,left,['1'],6,152,[0.11698844],100,53,easy,plus,dotcolour,alfa,,,92,19,V,R,
80,80,38,1,0,36,44,850,['n'],1,right,['1'],6,153,[-0.07811662],100,44,hard,plus,dotcolour,alfa,,,92,19,V,R,
81,81,39,1,0,47,33,2067,['c'],1,left,['3'],4,594,[0.28357019],100,47,medium,plus,dotcolour,alfa,,,92,19,V,R,
82,82,40,1,0,33,47,750,['n'],1,right,['1'],6,294,[-0.09367663],100,47,medium,plus,dotcolour,alfa,,,92,19,V,R,
83,83,41,1,0,53,27,1851,['c'],1,left,['3'],4,601,[0.09625084],99,53,easy,plus,dotcolour,alfa,,,92,19,V,R,
84,84,0,2,0,44,36,1201,['c'],1,left,['2'],5,305,[0.19068124],100,44,hard,plus,dotcolour,alfa,,,92,19,V,R,
85,85,1,2,0,53,27,750,['c'],1,left,['2'],5,208,[0.03205641],93,53,easy,plus,dotcolour,alfa,,,92,19,V,R,
86,86,2,2,0,27,53,800,['n'],1,right,['1'],6,137,[-0.04830163],99,53,easy,plus,dotcolour,alfa,,,92,19,V,R,
87,87,3,2,0,53,27,850,['c'],1,left,['2'],5,195,[0.14752076],100,53,easy,plus,dotcolour,alfa,,,92,19,V,R,
88,88,4,2,0,27,53,634,['n'],1,right,['1'],6,283,[-0.14092462],100,53,easy,plus,dotcolour,alfa,,,92,19,V,R,
89,89,5,2,0,47,33,783,['c'],1,left,['2'],5,177,[0.16611442],100,47,medium,plus,dotcolour,alfa,,,92,19,V,R,
90,90,6,2,0,36,44,817,['n'],1,right,['1'],6,139,[-0.06124127],100,44,hard,plus,dotcolour,alfa,,,92,19,V,R,
91,91,7,2,0,47,33,784,['c'],1,left,['2'],5,296,[0.01106309],68,47,medium,plus,dotcolour,alfa,,,92,19,V,R,
92,92,8,2,0,33,47,800,['n'],1,right,['1'],6,189,[-0.18725331],100,47,medium,plus,dotcolour,alfa,,,92,19,V,R,
93,93,9,2,0,27,53,801,['n'],1,right,['1'],6,167,[-0.22154828],100,53,easy,plus,dotcolour,alfa,,,92,19,V,R,
94,94,10,2,0,44,36,850,['c'],1,left,['2'],5,207,[0.08801634],100,44,hard,plus,dotcolour,alfa,,,92,19,V,R,
95,95,11,2,0,47,33,1600,['c'],1,left,['2'],5,183,[0.13977861],100,47,medium,plus,dotcolour,alfa,,,92,19,V,R,
96,96,12,2,0,36,44,866,['n'],1,right,['2'],5,160,[-0.012547],76,44,hard,plus,dotcolour,alfa,,,92,19,V,R,
97,97,13,2,0,47,33,1049,['c'],1,left,['1'],6,575,[0.23661328],100,47,medium,plus,dotcolour,alfa,,,92,19,V,R,
98,98,14,2,0,33,47,799,['n'],1,right,['1'],6,273,[-0.1098653],100,47,medium,plus,dotcolour,alfa,,,92,19,V,R,
99,99,15,2,0,47,33,3516,['n'],0,left,['2'],5,1555,[0.21210747],0,47,medium,plus,dotcolour,alfa,,,92,19,V,R,
100,100,16,2,0,36,44,1850,['n'],1,right,['2'],5,124,[-0.02704398],94,44,hard,plus,dotcolour,alfa,,,92,19,V,R,
101,101,17,2,0,44,36,1201,['n'],0,left,['2'],5,159,[-0.08225403],100,44,hard,plus,dotcolour,alfa,,,92,19,V,R,
102,102,18,2,0,53,27,1050,['c'],1,left,['2'],5,216,[0.08221064],100,53,easy,plus,dotcolour,alfa,,,92,19,V,R,
103,103,19,2,0,36,44,1249,['c'],0,right,['2'],5,239,[0.05107731],98,44,hard,plus,dotcolour,alfa,,,92,19,V,R,
104,104,20,2,0,36,44,1050,['n'],1,right,['1'],6,260,[-0.09000869],100,44,hard,plus,dotcolour,alfa,,,92,19,V,R,
105,105,21,2,0,53,27,967,['c'],1,left,['2'],5,204,[0.08822222],100,53,easy,plus,dotcolour,alfa,,,92,19,V,R,
106,106,22,2,0,33,47,1284,['n'],1,right,['1'],6,218,[-0.07890353],100,47,medium,plus,dotcolour,alfa,,,92,19,V,R,
107,107,23,2,0,44,36,801,['c'],1,left,['1'],6,235,[0.09722043],100,44,hard,plus,dotcolour,alfa,,,92,19,V,R,
108,108,24,2,0,36,44,1050,['c'],0,right,['2'],5,297,[-0.00517263],42,44,hard,plus,dotcolour,alfa,,,92,19,V,R,
109,109,25,2,0,53,27,1366,['c'],1,left,['1'],6,295,[0.04157913],94,53,easy,plus,dotcolour,alfa,,,92,19,V,R,
110,110,26,2,0,33,47,917,['n'],1,right,['1'],6,104,[-0.08902734],100,47,medium,plus,dotcolour,alfa,,,92,19,V,R,
111,111,27,2,0,44,36,1283,['c'],1,left,['1'],6,234,[0.06891312],99,44,hard,plus,dotcolour,alfa,,,92,19,V,R,
112,112,28,2,0,33,47,767,['n'],1,right,['1'],6,115,[-0.11920855],100,47,medium,plus,dotcolour,alfa,,,92,19,V,R,
113,113,29,2,0,27,53,833,['n'],1,right,['1'],6,151,[-0.13674402],100,53,easy,plus,dotcolour,alfa,,,92,19,V,R,
114,114,30,2,0,53,27,734,['c'],1,left,['1'],6,164,[0.07925611],100,53,easy,plus,dotcolour,alfa,,,92,19,V,R,
115,115,31,2,0,33,47,867,['n'],1,right,['1'],6,85,[-0.09503888],100,47,medium,plus,dotcolour,alfa,,,92,19,V,R,
116,116,32,2,0,27,53,583,['n'],1,right,['1'],6,123,[-0.10873398],100,53,easy,plus,dotcolour,alfa,,,92,19,V,R,
117,117,33,2,0,47,33,650,['c'],1,left,['1'],6,150,[0.1048801],100,47,medium,plus,dotcolour,alfa,,,92,19,V,R,
118,118,34,2,0,44,36,1467,['c'],1,left,['3'],4,438,[0.07232212],98,44,hard,plus,dotcolour,alfa,,,92,19,V,R,
119,119,35,2,0,33,47,800,['n'],1,right,['1'],6,150,[-0.04899422],99,47,medium,plus,dotcolour,alfa,,,92,19,V,R,
120,120,36,2,0,53,27,1035,['c'],1,left,['1'],6,207,[0.17225218],100,53,easy,plus,dotcolour,alfa,,,92,19,V,R,
121,121,37,2,0,44,36,1116,['n'],0,left,['1'],6,155,[-0.07369448],100,44,hard,plus,dotcolour,alfa,,,92,19,V,R,
122,122,38,2,0,27,53,700,['n'],1,right,['1'],6,139,[-0.11267276],100,53,easy,plus,dotcolour,alfa,,,92,19,V,R,
123,123,39,2,0,47,33,984,['c'],1,left,['1'],6,199,[0.09532161],100,47,medium,plus,dotcolour,alfa,,,92,19,V,R,
124,124,40,2,0,27,53,633,['n'],1,right,['1'],6,103,[-0.11982651],100,53,easy,plus,dotcolour,alfa,,,92,19,V,R,
125,125,41,2,0,36,44,933,['n'],1,right,['1'],6,128,[-0.09904653],100,44,hard,plus,dotcolour,alfa,,,92,19,V,R,
126,0,0,3,1,33,47,801,['n'],1,right,['1'],6,90,[-0.04772902],81,47,medium,minus,dotcolour,alfa,,,92,19,V,R,
127,1,1,3,1,47,33,1800,['c'],1,left,['3'],4,439,[0.11808119],83,47,medium,minus,dotcolour,alfa,,,92,19,V,R,
128,2,2,3,1,36,44,1017,['n'],1,right,['1'],6,118,[-0.09932783],93,44,hard,minus,dotcolour,alfa,,,92,19,V,R,
129,3,3,3,1,47,33,1300,['n'],0,left,['2'],5,711,[-0.06410258],66,47,medium,minus,dotcolour,alfa,,,92,19,V,R,
130,4,4,3,1,53,27,917,['c'],1,left,['1'],6,310,[0.1520174],92,53,easy,minus,dotcolour,alfa,,,92,19,V,R,
131,5,5,3,1,44,36,934,['n'],0,left,['1'],6,110,[-0.08488043],91,44,hard,minus,dotcolour,alfa,,,92,19,V,R,
132,6,6,3,1,47,33,1266,['c'],1,left,['3'],4,280,[0.15190755],93,47,medium,minus,dotcolour,alfa,,,92,19,V,R,
133,7,7,3,1,33,47,1600,['n'],1,right,['3'],4,198,[-0.12922236],93,47,medium,minus,dotcolour,alfa,,,92,19,V,R,
134,8,8,3,1,47,33,1184,['n'],0,left,['2'],5,232,[-0.1093816],89,47,medium,minus,dotcolour,alfa,,,92,19,V,R,
135,9,9,3,1,33,47,1051,['c'],0,right,['2'],5,270,[0.08361894],81,47,medium,minus,dotcolour,alfa,,,92,19,V,R,
136,10,10,3,1,27,53,900,['n'],1,right,['1'],6,120,[-0.07211417],87,53,easy,minus,dotcolour,alfa,,,92,19,V,R,
137,11,11,3,1,27,53,650,['n'],1,right,['1'],6,131,[-0.094857],91,53,easy,minus,dotcolour,alfa,,,92,19,V,R,
138,12,12,3,1,36,44,1316,['n'],1,right,['3'],4,251,[-0.02761821],62,44,hard,minus,dotcolour,alfa,,,92,19,V,R,
139,13,13,3,1,53,27,833,['c'],1,left,['2'],5,272,[0.11902345],89,53,easy,minus,dotcolour,alfa,,,92,19,V,R,
140,14,14,3,1,36,44,750,['n'],1,right,['2'],5,249,[-0.07428409],79,44,hard,minus,dotcolour,alfa,,,92,19,V,R,
141,15,15,3,1,33,47,717,['n'],1,right,['1'],6,99,[-0.07620001],90,47,medium,minus,dotcolour,alfa,,,92,19,V,R,
142,16,16,3,1,36,44,718,['n'],1,right,['1'],6,196,[-0.05715258],76,44,hard,minus,dotcolour,alfa,,,92,19,V,R,
143,17,17,3,1,44,36,1350,['c'],1,left,['3'],4,1423,[-0.25261839],13,44,hard,minus,dotcolour,alfa,,,92,19,V,R,
144,18,18,3,1,27,53,967,['n'],1,right,['1'],6,97,[-0.02526663],67,53,easy,minus,dotcolour,alfa,,,92,19,V,R,
145,19,19,3,1,53,27,1067,['c'],1,left,['2'],5,619,[0.20325702],91,53,easy,minus,dotcolour,alfa,,,92,19,V,R,
146,20,20,3,1,44,36,1000,['n'],0,left,['2'],5,188,[-0.0317862],66,44,hard,minus,dotcolour,alfa,,,92,19,V,R,
147,21,21,3,1,36,44,900,['n'],1,right,['2'],5,90,[-0.09194432],94,44,hard,minus,dotcolour,alfa,,,92,19,V,R,
148,22,22,3,1,27,53,634,['n'],1,right,['1'],6,359,[-0.10989615],84,53,easy,minus,dotcolour,alfa,,,92,19,V,R,
149,23,23,3,1,44,36,967,['c'],1,left,['8'],3,1251,[0.29019623],91,44,hard,minus,dotcolour,alfa,,,92,19,V,R,
150,24,24,3,1,53,27,1050,['c'],1,left,['1'],6,215,[0.07885643],82,53,easy,minus,dotcolour,alfa,,,92,19,V,R,
151,25,25,3,1,53,27,665,['c'],1,left,['1'],6,237,[0.11681226],90,53,easy,minus,dotcolour,alfa,,,92,19,V,R,
152,26,26,3,1,47,33,2033,['n'],0,left,['8'],3,780,[-0.04743789],62,47,medium,minus,dotcolour,alfa,,,92,19,V,R,
153,27,27,3,1,53,27,833,['c'],1,left,['3'],4,764,[0.17242109],86,53,easy,minus,dotcolour,alfa,,,92,19,V,R,
154,28,28,3,1,33,47,1151,['n'],1,right,['2'],5,273,[-0.10206658],85,47,medium,minus,dotcolour,alfa,,,92,19,V,R,
155,29,29,3,1,36,44,1883,['n'],1,right,['8'],3,1012,[-0.19439476],85,44,hard,minus,dotcolour,alfa,,,92,19,V,R,
156,30,30,3,1,33,47,966,['n'],1,right,['2'],5,3790,[-0.58733103],94,47,medium,minus,dotcolour,alfa,,,92,19,V,R,
157,31,31,3,1,27,53,801,['n'],1,right,['2'],5,318,[-0.09630436],82,53,easy,minus,dotcolour,alfa,,,92,19,V,R,
158,32,32,3,1,53,27,984,['c'],1,left,['1'],6,236,[0.10945575],88,53,easy,minus,dotcolour,alfa,,,92,19,V,R,
159,33,33,3,1,27,53,683,['n'],1,right,['1'],6,73,[-0.11072958],98,53,easy,minus,dotcolour,alfa,,,92,19,V,R,
160,34,34,3,1,44,36,1318,['n'],0,left,['8'],3,1123,[-0.00162962],50,44,hard,minus,dotcolour,alfa,,,92,19,V,R,
161,35,35,3,1,47,33,1683,['n'],0,left,['8'],3,899,[0.15141157],19,47,medium,minus,dotcolour,alfa,,,92,19,V,R,
162,36,36,3,1,47,33,1167,['c'],1,left,['9'],2,1554,[0.24886399],86,47,medium,minus,dotcolour,alfa,,,92,19,V,R,
163,37,37,3,1,33,47,1400,['n'],1,right,['3'],4,652,[-0.14733392],84,47,medium,minus,dotcolour,alfa,,,92,19,V,R,
164,38,38,3,1,27,53,901,['n'],1,right,['2'],5,383,[-0.14085412],89,53,easy,minus,dotcolour,alfa,,,92,19,V,R,
165,39,39,3,1,44,36,1967,['n'],0,left,['3'],4,1466,[-0.07988518],64,44,hard,minus,dotcolour,alfa,,,92,19,V,R,
166,40,40,3,1,36,44,1350,['n'],1,right,['8'],3,843,[-0.30115113],95,44,hard,minus,dotcolour,alfa,,,92,19,V,R,
167,41,41,3,1,44,36,1733,['n'],0,left,['8'],3,405,[-0.06548019],72,44,hard,minus,dotcolour,alfa,,,92,19,V,R,
168,42,0,4,1,53,27,1768,['c'],1,left,['2'],5,906,[0.29068358],94,53,easy,minus,dotcolour,alfa,,,92,19,V,R,
169,43,1,4,1,36,44,2017,['n'],1,right,['2'],5,926,[-0.06726732],65,44,hard,minus,dotcolour,alfa,,,92,19,V,R,
170,44,2,4,1,33,47,933,['n'],1,right,['2'],5,236,[-0.18563689],97,47,medium,minus,dotcolour,alfa,,,92,19,V,R,
171,45,3,4,1,27,53,833,['n'],1,right,['2'],5,123,[-0.11483603],95,53,easy,minus,dotcolour,alfa,,,92,19,V,R,
172,46,4,4,1,44,36,1635,['c'],1,left,['2'],5,358,[0.07981282],77,44,hard,minus,dotcolour,alfa,,,92,19,V,R,
173,47,5,4,1,47,33,934,['n'],0,left,['2'],5,195,[-0.10594565],90,47,medium,minus,dotcolour,alfa,,,92,19,V,R,
174,48,6,4,1,47,33,850,['c'],1,left,['2'],5,170,[0.09889584],90,47,medium,minus,dotcolour,alfa,,,92,19,V,R,
175,49,7,4,1,33,47,1650,['n'],1,right,['3'],4,563,[-0.03869989],61,47,medium,minus,dotcolour,alfa,,,92,19,V,R,
176,50,8,4,1,33,47,783,['n'],1,right,['2'],5,142,[-0.12794826],96,47,medium,minus,dotcolour,alfa,,,92,19,V,R,
177,51,9,4,1,44,36,1516,['n'],0,left,['3'],4,549,[0.02065926],44,44,hard,minus,dotcolour,alfa,,,92,19,V,R,
178,52,10,4,1,27,53,950,['n'],1,right,['2'],5,170,[-0.14625518],96,53,easy,minus,dotcolour,alfa,,,92,19,V,R,
179,53,11,4,1,44,36,1400,['c'],1,left,['3'],4,901,[0.23421371],90,44,hard,minus,dotcolour,alfa,,,92,19,V,R,
180,54,12,4,1,33,47,800,['n'],1,right,['1'],6,162,[-0.07285275],84,47,medium,minus,dotcolour,alfa,,,92,19,V,R,
181,55,13,4,1,44,36,1117,['c'],1,left,['2'],5,288,[0.07051476],77,44,hard,minus,dotcolour,alfa,,,92,19,V,R,
182,56,14,4,1,44,36,1784,['n'],0,left,['2'],5,174,[-0.00345098],52,44,hard,minus,dotcolour,alfa,,,92,19,V,R,
183,57,15,4,1,36,44,1250,['n'],1,right,['3'],4,303,[-0.15260702],92,44,hard,minus,dotcolour,alfa,,,92,19,V,R,
184,58,16,4,1,44,36,1084,['n'],0,left,['3'],4,265,[-0.02097937],59,44,hard,minus,dotcolour,alfa,,,92,19,V,R,
185,59,17,4,1,47,33,967,['c'],1,left,['3'],4,352,[0.17302376],93,47,medium,minus,dotcolour,alfa,,,92,19,V,R,
186,60,18,4,1,53,27,2218,['c'],1,left,['2'],5,1411,[0.25633151],87,53,easy,minus,dotcolour,alfa,,,92,19,V,R,
187,61,19,4,1,36,44,1000,['n'],1,right,['2'],5,723,[-0.14073787],82,44,hard,minus,dotcolour,alfa,,,92,19,V,R,
188,62,20,4,1,27,53,834,['n'],1,right,['1'],6,350,[-0.00446928],52,53,easy,minus,dotcolour,alfa,,,92,19,V,R,
189,63,21,4,1,27,53,1467,['n'],1,right,['2'],5,159,[-0.11418235],93,53,easy,minus,dotcolour,alfa,,,92,19,V,R,
190,64,22,4,1,47,33,1283,['n'],0,left,['9'],2,1086,[0.03779304],42,47,medium,minus,dotcolour,alfa,,,92,19,V,R,
191,65,23,4,1,47,33,1850,['c'],1,left,['2'],5,194,[0.11798821],92,47,medium,minus,dotcolour,alfa,,,92,19,V,R,
192,66,24,4,1,33,47,1200,['n'],1,right,['1'],6,211,[-0.12609316],92,47,medium,minus,dotcolour,alfa,,,92,19,V,R,
193,67,25,4,1,33,47,2000,['c'],0,right,['3'],4,907,[-0.03982517],41,47,medium,minus,dotcolour,alfa,,,92,19,V,R,
194,68,26,4,1,53,27,1616,['c'],1,left,['2'],5,231,[0.09803781],86,53,easy,minus,dotcolour,alfa,,,92,19,V,R,
195,69,27,4,1,53,27,1400,['c'],1,left,['9'],2,176,[0.1094792],91,53,easy,minus,dotcolour,alfa,,,92,19,V,R,
196,70,28,4,1,33,47,1584,['n'],1,right,['3'],4,1202,[-0.12810409],74,47,medium,minus,dotcolour,alfa,,,92,19,V,R,
197,71,29,4,1,27,53,901,['n'],1,right,['1'],6,127,[-0.06144494],83,53,easy,minus,dotcolour,alfa,,,92,19,V,R,
198,72,30,4,1,36,44,900,['n'],1,right,['2'],5,151,[-0.05233385],77,44,hard,minus,dotcolour,alfa,,,92,19,V,R,
199,73,31,4,1,36,44,1750,['c'],0,right,['3'],4,228,[0.04417142],70,44,hard,minus,dotcolour,alfa,,,92,19,V,R,
200,74,32,4,1,53,27,1150,['c'],1,left,['1'],6,334,[0.01550474],56,53,easy,minus,dotcolour,alfa,,,92,19,V,R,
201,75,33,4,1,27,53,1017,['n'],1,right,['2'],5,233,[-0.19150789],97,53,easy,minus,dotcolour,alfa,,,92,19,V,R,
202,76,34,4,1,36,44,1117,['n'],1,right,['1'],6,141,[-0.02395688],64,44,hard,minus,dotcolour,alfa,,,92,19,V,R,
203,77,35,4,1,44,36,1034,['c'],1,left,['9'],2,279,[0.12370641],89,44,hard,minus,dotcolour,alfa,,,92,19,V,R,
204,78,36,4,1,36,44,2434,['n'],1,right,['2'],5,115,[-0.11341914],95,44,hard,minus,dotcolour,alfa,,,92,19,V,R,
205,79,37,4,1,47,33,1217,['c'],1,left,['2'],5,183,[0.10838757],91,47,medium,minus,dotcolour,alfa,,,92,19,V,R,
206,80,38,4,1,47,33,1083,['n'],0,left,['1'],6,102,[-0.06032716],85,47,medium,minus,dotcolour,alfa,,,92,19,V,R,
207,81,39,4,1,53,27,1349,['c'],1,left,['3'],4,182,[0.04589638],72,53,easy,minus,dotcolour,alfa,,,92,19,V,R,
208,82,40,4,1,53,27,1216,['c'],1,left,['3'],4,191,[0.09662213],88,53,easy,minus,dotcolour,alfa,,,92,19,V,R,
209,83,41,4,1,27,53,1150,['n'],1,right,['1'],6,130,[-0.06001789],82,53,easy,minus,dotcolour,alfa,,,92,19,V,R,
210,84,0,5,1,36,44,1068,['n'],1,right,['2'],5,159,[-0.03861109],71,44,hard,minus,dotcolour,alfa,,,92,19,V,R,
211,85,1,5,1,53,27,1067,['n'],0,left,['3'],4,144,[-0.07847345],87,53,easy,minus,dotcolour,alfa,,,92,19,V,R,
212,86,2,5,1,47,33,1701,['c'],1,left,['2'],5,207,[0.08868078],85,47,medium,minus,dotcolour,alfa,,,92,19,V,R,
213,87,3,5,1,53,27,1050,['c'],1,left,['2'],5,173,[0.08750893],87,53,easy,minus,dotcolour,alfa,,,92,19,V,R,
214,88,4,5,1,47,33,1483,['c'],1,left,['3'],4,316,[0.07982029],78,47,medium,minus,dotcolour,alfa,,,92,19,V,R,
215,89,5,5,1,27,53,784,['n'],1,right,['1'],6,113,[-0.09134547],92,53,easy,minus,dotcolour,alfa,,,92,19,V,R,
216,90,6,5,1,53,27,917,['c'],1,left,['1'],6,161,[0.10311298],91,53,easy,minus,dotcolour,alfa,,,92,19,V,R,
217,91,7,5,1,47,33,1266,['c'],1,left,['2'],5,338,[0.150635],91,47,medium,minus,dotcolour,alfa,,,92,19,V,R,
218,92,8,5,1,53,27,1200,['n'],0,left,['2'],5,214,[-0.04614137],71,53,easy,minus,dotcolour,alfa,,,92,19,V,R,
219,93,9,5,1,33,47,717,['n'],1,right,['2'],5,89,[-0.06543907],88,47,medium,minus,dotcolour,alfa,,,92,19,V,R,
220,94,10,5,1,44,36,966,['c'],1,left,['1'],6,177,[0.05789635],78,44,hard,minus,dotcolour,alfa,,,92,19,V,R,
221,95,11,5,1,53,27,751,['n'],0,left,['0'],1,1853,[0.1063024],33,53,easy,minus,dotcolour,alfa,,,92,19,V,R,
222,96,12,5,1,27,53,967,['n'],1,right,['1'],6,93,[-0.11173168],96,53,easy,minus,dotcolour,alfa,,,92,19,V,R,
223,97,13,5,1,36,44,1518,['n'],1,right,['1'],6,53,[-0.06489507],93,44,hard,minus,dotcolour,alfa,,,92,19,V,R,
224,98,14,5,1,36,44,834,['n'],1,right,['1'],6,131,[-0.06354507],83,44,hard,minus,dotcolour,alfa,,,92,19,V,R,
225,99,15,5,1,44,36,1200,['c'],1,left,['2'],5,191,[0.06520056],79,44,hard,minus,dotcolour,alfa,,,92,19,V,R,
226,100,16,5,1,27,53,850,['n'],1,right,['1'],6,166,[-0.0750972],84,53,easy,minus,dotcolour,alfa,,,92,19,V,R,
227,101,17,5,1,36,44,1250,['n'],1,right,['1'],6,87,[-0.06018877],86,44,hard,minus,dotcolour,alfa,,,92,19,V,R,
228,102,18,5,1,27,53,1050,['n'],1,right,['1'],6,139,[0.01067092],44,53,easy,minus,dotcolour,alfa,,,92,19,V,R,
229,103,19,5,1,33,47,584,['n'],1,right,['1'],6,79,[-0.04454154],81,47,medium,minus,dotcolour,alfa,,,92,19,V,R,
230,104,20,5,1,47,33,666,['c'],1,left,['1'],6,163,[0.0963407],90,47,medium,minus,dotcolour,alfa,,,92,19,V,R,
231,105,21,5,1,47,33,884,['c'],1,left,['1'],6,138,[0.085049],89,47,medium,minus,dotcolour,alfa,,,92,19,V,R,
232,106,22,5,1,33,47,817,['n'],1,right,['1'],6,77,[-0.06550775],89,47,medium,minus,dotcolour,alfa,,,92,19,V,R,
233,107,23,5,1,44,36,616,['n'],0,left,['1'],6,59,[-0.04536849],84,44,hard,minus,dotcolour,alfa,,,92,19,V,R,
234,108,24,5,1,44,36,984,['n'],0,left,['1'],6,114,[-0.08360169],90,44,hard,minus,dotcolour,alfa,,,92,19,V,R,
235,109,25,5,1,33,47,799,['n'],1,right,['1'],6,318,[-0.08754269],80,47,medium,minus,dotcolour,alfa,,,92,19,V,R,
236,110,26,5,1,33,47,600,['n'],1,right,['1'],6,115,[-0.10627452],94,47,medium,minus,dotcolour,alfa,,,92,19,V,R,
237,111,27,5,1,53,27,668,['c'],1,left,['1'],6,133,[0.09179374],91,53,easy,minus,dotcolour,alfa,,,92,19,V,R,
238,112,28,5,1,36,44,1400,['c'],0,right,['3'],4,185,[0.05153019],75,44,hard,minus,dotcolour,alfa,,,92,19,V,R,
239,113,29,5,1,47,33,1450,['n'],0,left,['1'],6,193,[-0.13678833],94,47,medium,minus,dotcolour,alfa,,,92,19,V,R,
240,114,30,5,1,27,53,634,['n'],1,right,['1'],6,105,[-0.09410423],93,53,easy,minus,dotcolour,alfa,,,92,19,V,R,
241,115,31,5,1,44,36,1050,['c'],1,left,['3'],4,132,[0.10090596],92,44,hard,minus,dotcolour,alfa,,,92,19,V,R,
242,116,32,5,1,27,53,617,['n'],1,right,['1'],6,72,[-0.11889362],98,53,easy,minus,dotcolour,alfa,,,92,19,V,R,
243,117,33,5,1,44,36,867,['c'],1,left,['1'],6,116,[0.07509096],88,44,hard,minus,dotcolour,alfa,,,92,19,V,R,
244,118,34,5,1,33,47,1649,['n'],1,right,['3'],4,183,[-0.07274942],82,47,medium,minus,dotcolour,alfa,,,92,19,V,R,
245,119,35,5,1,44,36,1350,['c'],1,left,['3'],4,163,[0.13870846],96,44,hard,minus,dotcolour,alfa,,,92,19,V,R,
246,120,36,5,1,36,44,1534,['n'],1,right,['3'],4,152,[-0.14876],97,44,hard,minus,dotcolour,alfa,,,92,19,V,R,
247,121,37,5,1,27,53,967,['n'],1,right,['2'],5,100,[-0.11629349],96,53,easy,minus,dotcolour,alfa,,,92,19,V,R,
248,122,38,5,1,47,33,3666,['c'],1,left,['2'],5,1415,[0.19818875],82,47,medium,minus,dotcolour,alfa,,,92,19,V,R,
249,123,39,5,1,36,44,1384,['n'],1,right,['1'],6,120,[-0.04093964],74,44,hard,minus,dotcolour,alfa,,,92,19,V,R,
250,124,40,5,1,53,27,733,['n'],0,left,['1'],6,71,[-0.03901572],79,53,easy,minus,dotcolour,alfa,,,92,19,V,R,
251,125,41,5,1,33,47,1284,['n'],1,right,['1'],6,123,[-0.1115314],95,47,medium,minus,dotcolour,alfa,,,92,19,V,R,
252,0,0,6,2,53,27,1318,['c'],1,left,['2'],5,138,[0.12729581],100,53,easy,plus,dotcolour,alfa,,,92,19,V,R,
253,1,1,6,2,47,33,1067,['n'],0,left,['1'],6,123,[-0.09681255],100,47,medium,plus,dotcolour,alfa,,,92,19,V,R,
254,2,2,6,2,53,27,1450,['c'],1,left,['2'],5,437,[0.21191258],100,53,easy,plus,dotcolour,alfa,,,92,19,V,R,
255,3,3,6,2,47,33,916,['c'],1,left,['2'],5,144,[0.03674687],97,47,medium,plus,dotcolour,alfa,,,92,19,V,R,
256,4,4,6,2,33,47,983,['n'],1,right,['1'],6,100,[-0.07229447],100,47,medium,plus,dotcolour,alfa,,,92,19,V,R,
257,5,5,6,2,53,27,882,['c'],1,left,['1'],6,118,[0.11758056],100,53,easy,plus,dotcolour,alfa,,,92,19,V,R,
258,6,6,6,2,47,33,900,['c'],1,left,['2'],5,214,[0.09740859],100,47,medium,plus,dotcolour,alfa,,,92,19,V,R,
259,7,7,6,2,33,47,766,['n'],1,right,['1'],6,129,[-0.14768229],100,47,medium,plus,dotcolour,alfa,,,92,19,V,R,
260,8,8,6,2,27,53,850,['n'],1,right,['1'],6,162,[-0.10733463],100,53,easy,plus,dotcolour,alfa,,,92,19,V,R,
261,9,9,6,2,33,47,851,['n'],1,right,['1'],6,123,[-0.11136237],100,47,medium,plus,dotcolour,alfa,,,92,19,V,R,
262,10,10,6,2,27,53,817,['n'],1,right,['1'],6,118,[-0.10341492],100,53,easy,plus,dotcolour,alfa,,,92,19,V,R,
263,11,11,6,2,27,53,667,['n'],1,right,['1'],6,88,[-0.09179321],100,53,easy,plus,dotcolour,alfa,,,92,19,V,R,
264,12,12,6,2,47,33,1467,['c'],1,left,['2'],5,108,[0.03836911],99,47,medium,plus,dotcolour,alfa,,,92,19,V,R,
265,13,13,6,2,44,36,1116,['c'],1,left,['1'],6,188,[0.08535755],100,44,hard,plus,dotcolour,alfa,,,92,19,V,R,
266,14,14,6,2,33,47,767,['n'],1,right,['1'],6,95,[-0.15217285],100,47,medium,plus,dotcolour,alfa,,,92,19,V,R,
267,15,15,6,2,36,44,833,['n'],1,right,['1'],6,139,[-0.04622665],99,44,hard,plus,dotcolour,alfa,,,92,19,V,R,
268,16,16,6,2,47,33,850,['c'],1,left,['1'],6,157,[0.1330318],100,47,medium,plus,dotcolour,alfa,,,92,19,V,R,
269,17,17,6,2,44,36,1300,['n'],0,left,['2'],5,108,[-0.05432466],100,44,hard,plus,dotcolour,alfa,,,92,19,V,R,
270,18,18,6,2,53,27,934,['c'],1,left,['1'],6,163,[0.1303113],100,53,easy,plus,dotcolour,alfa,,,92,19,V,R,
271,19,19,6,2,44,36,1684,['n'],0,left,['2'],5,106,[-0.04453283],99,44,hard,plus,dotcolour,alfa,,,92,19,V,R,
272,20,20,6,2,27,53,750,['n'],1,right,['1'],6,81,[-0.03858969],99,53,easy,plus,dotcolour,alfa,,,92,19,V,R,
273,21,21,6,2,53,27,1017,['n'],0,left,['2'],5,119,[-0.00459755],62,53,easy,plus,dotcolour,alfa,,,92,19,V,R,
274,22,22,6,2,33,47,1416,['c'],0,right,['2'],5,380,[-0.06865212],2,47,medium,plus,dotcolour,alfa,,,92,19,V,R,
275,23,23,6,2,36,44,1167,['n'],1,right,['2'],5,135,[-0.02262928],90,44,hard,plus,dotcolour,alfa,,,92,19,V,R,
276,24,24,6,2,36,44,801,['n'],1,right,['1'],6,114,[-0.12184746],100,44,hard,plus,dotcolour,alfa,,,92,19,V,R,
277,25,25,6,2,44,36,1000,['c'],1,left,['2'],5,167,[0.07746718],100,44,hard,plus,dotcolour,alfa,,,92,19,V,R,
278,26,26,6,2,53,27,885,['c'],1,left,['2'],5,1870,[0.46228065],100,53,easy,plus,dotcolour,alfa,,,92,19,V,R,
279,27,27,6,2,36,44,800,['n'],1,right,['1'],6,669,[-0.16113003],100,44,hard,plus,dotcolour,alfa,,,92,19,V,R,
280,28,28,6,2,33,47,916,['n'],1,right,['2'],5,95,[-0.10649184],100,47,medium,plus,dotcolour,alfa,,,92,19,V,R,
281,29,29,6,2,53,27,766,['c'],1,left,['1'],6,165,[0.13684319],100,53,easy,plus,dotcolour,alfa,,,92,19,V,R,
282,30,30,6,2,44,36,1583,['n'],0,left,['2'],5,128,[-0.0724114],100,44,hard,plus,dotcolour,alfa,,,92,19,V,R,
283,31,31,6,2,27,53,800,['n'],1,right,['1'],6,164,[-0.0754851],100,53,easy,plus,dotcolour,alfa,,,92,19,V,R,
284,32,32,6,2,36,44,1100,['n'],1,right,['2'],5,91,[-0.10943652],100,44,hard,plus,dotcolour,alfa,,,92,19,V,R,
285,33,33,6,2,44,36,1016,['c'],1,left,['2'],5,104,[0.06616426],100,44,hard,plus,dotcolour,alfa,,,92,19,V,R,
286,34,34,6,2,47,33,1700,['c'],1,left,['2'],5,185,[0.08244217],100,47,medium,plus,dotcolour,alfa,,,92,19,V,R,
287,35,35,6,2,27,53,616,['n'],1,right,['1'],6,114,[-0.1345283],100,53,easy,plus,dotcolour,alfa,,,92,19,V,R,
288,36,36,6,2,44,36,1400,['c'],1,left,['2'],5,175,[0.06947797],100,44,hard,plus,dotcolour,alfa,,,92,19,V,R,
289,37,37,6,2,27,53,785,['n'],1,right,['1'],6,106,[-0.1024958],100,53,easy,plus,dotcolour,alfa,,,92,19,V,R,
290,38,38,6,2,47,33,933,['c'],1,left,['1'],6,146,[0.07172562],100,47,medium,plus,dotcolour,alfa,,,92,19,V,R,
291,39,39,6,2,36,44,650,['n'],1,right,['1'],6,75,[-0.11781696],100,44,hard,plus,dotcolour,alfa,,,92,19,V,R,
292,40,40,6,2,33,47,566,['n'],1,right,['1'],6,83,[-0.06217324],100,47,medium,plus,dotcolour,alfa,,,92,19,V,R,
293,41,41,6,2,36,44,884,['n'],1,right,['1'],6,45,[-0.06019915],100,44,hard,plus,dotcolour,alfa,,,92,19,V,R,
294,42,0,7,2,53,27,1068,['c'],1,left,['2'],5,176,[0.09676883],100,53,easy,plus,dotcolour,alfa,,,92,19,V,R,
295,43,1,7,2,36,44,1050,['n'],1,right,['2'],5,312,[-0.10127305],100,44,hard,plus,dotcolour,alfa,,,92,19,V,R,
296,44,2,7,2,33,47,900,['n'],1,right,['2'],5,120,[-0.05311581],100,47,medium,plus,dotcolour,alfa,,,92,19,V,R,
297,45,3,7,2,33,47,666,['n'],1,right,['2'],5,298,[-0.10089404],100,47,medium,plus,dotcolour,alfa,,,92,19,V,R,
298,46,4,7,2,47,33,984,['c'],1,left,['1'],6,1032,[0.18219155],100,47,medium,plus,dotcolour,alfa,,,92,19,V,R,
299,47,5,7,2,27,53,700,['n'],1,right,['1'],6,116,[-0.1107237],100,53,easy,plus,dotcolour,alfa,,,92,19,V,R,
300,48,6,7,2,36,44,850,['c'],0,right,['9'],2,1015,[0.19924848],100,44,hard,plus,dotcolour,alfa,,,92,19,V,R,
301,49,7,7,2,47,33,1167,['c'],1,left,['2'],5,201,[0.17831054],100,47,medium,plus,dotcolour,alfa,,,92,19,V,R,
302,50,8,7,2,53,27,950,['c'],1,left,['2'],5,189,[0.14537362],100,53,easy,plus,dotcolour,alfa,,,92,19,V,R,
303,51,9,7,2,47,33,1367,['c'],1,left,['2'],5,144,[0.04313597],98,47,medium,plus,dotcolour,alfa,,,92,19,V,R,
304,52,10,7,2,44,36,1350,['n'],0,left,['2'],5,157,[0.00836375],32,44,hard,plus,dotcolour,alfa,,,92,19,V,R,
305,53,11,7,2,44,36,1717,['c'],1,left,['3'],4,259,[-0.00727555],37,44,hard,plus,dotcolour,alfa,,,92,19,V,R,
306,54,12,7,2,36,44,800,['n'],1,right,['1'],6,154,[-0.09586123],100,44,hard,plus,dotcolour,alfa,,,92,19,V,R,
307,55,13,7,2,53,27,951,['c'],1,left,['2'],5,143,[0.1017914],100,53,easy,plus,dotcolour,alfa,,,92,19,V,R,
308,56,14,7,2,44,36,984,['n'],0,left,['2'],5,115,[-0.03323242],97,44,hard,plus,dotcolour,alfa,,,92,19,V,R,
309,57,15,7,2,33,47,634,['n'],1,right,['1'],6,126,[-0.08163303],100,47,medium,plus,dotcolour,alfa,,,92,19,V,R,
310,58,16,7,2,47,33,1899,['c'],1,left,['3'],4,2166,[0.33153829],100,47,medium,plus,dotcolour,alfa,,,92,19,V,R,
311,59,17,7,2,47,33,1450,['c'],1,left,['3'],4,230,[0.09878857],100,47,medium,plus,dotcolour,alfa,,,92,19,V,R,
312,60,18,7,2,36,44,800,['n'],1,right,['2'],5,110,[-0.08362945],100,44,hard,plus,dotcolour,alfa,,,92,19,V,R,
313,61,19,7,2,27,53,817,['n'],1,right,['2'],5,139,[-0.04500484],99,53,easy,plus,dotcolour,alfa,,,92,19,V,R,
314,62,20,7,2,27,53,617,['n'],1,right,['1'],6,142,[-0.05729651],100,53,easy,plus,dotcolour,alfa,,,92,19,V,R,
315,63,21,7,2,44,36,1250,['n'],0,left,['2'],5,247,[-0.04942233],97,44,hard,plus,dotcolour,alfa,,,92,19,V,R,
316,64,22,7,2,53,27,817,['c'],1,left,['1'],6,661,[0.23120611],100,53,easy,plus,dotcolour,alfa,,,92,19,V,R,
317,65,23,7,2,27,53,850,['n'],1,right,['1'],6,114,[-0.083545],100,53,easy,plus,dotcolour,alfa,,,92,19,V,R,
318,66,24,7,2,36,44,784,['n'],1,right,['2'],5,231,[-0.11040324],100,44,hard,plus,dotcolour,alfa,,,92,19,V,R,
319,67,25,7,2,44,36,983,['c'],1,left,['2'],5,152,[0.03980871],98,44,hard,plus,dotcolour,alfa,,,92,19,V,R,
320,68,26,7,2,36,44,835,['n'],1,right,['1'],6,98,[-0.12705419],100,44,hard,plus,dotcolour,alfa,,,92,19,V,R,
321,69,27,7,2,47,33,767,['n'],0,left,['1'],6,249,[-0.07723684],100,47,medium,plus,dotcolour,alfa,,,92,19,V,R,
322,70,28,7,2,44,36,1701,['c'],1,left,['2'],5,340,[0.15152621],100,44,hard,plus,dotcolour,alfa,,,92,19,V,R,
323,71,29,7,2,33,47,917,['n'],1,right,['1'],6,91,[-0.12614516],100,47,medium,plus,dotcolour,alfa,,,92,19,V,R,
324,72,30,7,2,36,44,883,['n'],1,right,['1'],6,341,[-0.15295859],100,44,hard,plus,dotcolour,alfa,,,92,19,V,R,
325,73,31,7,2,33,47,766,['n'],1,right,['1'],6,73,[-0.03015453],98,47,medium,plus,dotcolour,alfa,,,92,19,V,R,
326,74,32,7,2,27,53,600,['n'],1,right,['1'],6,65,[-0.09402615],100,53,easy,plus,dotcolour,alfa,,,92,19,V,R,
327,75,33,7,2,53,27,1151,['c'],1,left,['2'],5,689,[0.13575495],100,53,easy,plus,dotcolour,alfa,,,92,19,V,R,
328,76,34,7,2,27,53,1300,['n'],1,right,['1'],6,203,[-0.13982736],100,53,easy,plus,dotcolour,alfa,,,92,19,V,R,
329,77,35,7,2,53,27,966,['c'],1,left,['2'],5,164,[0.07093643],100,53,easy,plus,dotcolour,alfa,,,92,19,V,R,
330,78,36,7,2,33,47,833,['n'],1,right,['1'],6,14,[-0.08092158],100,47,medium,plus,dotcolour,alfa,,,92,19,V,R,
331,79,37,7,2,27,53,783,['n'],1,right,['1'],6,128,[-0.11141662],100,53,easy,plus,dotcolour,alfa,,,92,19,V,R,
332,80,38,7,2,33,47,1300,['c'],0,right,['3'],4,120,[0.13114044],100,47,medium,plus,dotcolour,alfa,,,92,19,V,R,
333,81,39,7,2,53,27,1050,['c'],1,left,['2'],5,138,[0.07031798],100,53,easy,plus,dotcolour,alfa,,,92,19,V,R,
334,82,40,7,2,47,33,1267,['c'],1,left,['3'],4,123,[0.10844289],100,47,medium,plus,dotcolour,alfa,,,92,19,V,R,
335,83,41,7,2,44,36,1900,['c'],1,left,['3'],4,163,[0.05354995],99,44,hard,plus,dotcolour,alfa,,,92,19,V,R,
336,84,0,8,2,27,53,1100,['n'],1,right,['9'],2,276,[-0.09973696],100,53,easy,plus,dotcolour,alfa,,,92,19,V,R,
337,85,1,8,2,36,44,1634,['n'],1,right,['3'],4,136,[-0.14795586],100,44,hard,plus,dotcolour,alfa,,,92,19,V,R,
338,86,2,8,2,36,44,1200,['n'],1,right,['2'],5,116,[-0.05294878],100,44,hard,plus,dotcolour,alfa,,,92,19,V,R,
339,87,3,8,2,44,36,1284,['c'],1,left,['2'],5,174,[0.11841042],100,44,hard,plus,dotcolour,alfa,,,92,19,V,R,
340,88,4,8,2,47,33,1250,['c'],1,left,['2'],5,222,[0.0927659],100,47,medium,plus,dotcolour,alfa,,,92,19,V,R,
341,89,5,8,2,27,53,1067,['n'],1,right,['1'],6,91,[-0.0970439],100,53,easy,plus,dotcolour,alfa,,,92,19,V,R,
342,90,6,8,2,33,47,867,['n'],1,right,['2'],5,94,[-0.10744396],100,47,medium,plus,dotcolour,alfa,,,92,19,V,R,
343,91,7,8,2,27,53,899,['n'],1,right,['2'],5,103,[-0.07391447],100,53,easy,plus,dotcolour,alfa,,,92,19,V,R,
344,92,8,8,2,27,53,733,['n'],1,right,['1'],6,103,[-0.04570803],99,53,easy,plus,dotcolour,alfa,,,92,19,V,R,
345,93,9,8,2,36,44,851,['n'],1,right,['2'],5,154,[-0.08556549],100,44,hard,plus,dotcolour,alfa,,,92,19,V,R,
346,94,10,8,2,53,27,900,['c'],1,left,['2'],5,106,[0.07742674],100,53,easy,plus,dotcolour,alfa,,,92,19,V,R,
347,95,11,8,2,53,27,917,['c'],1,left,['1'],6,131,[0.0643231],100,53,easy,plus,dotcolour,alfa,,,92,19,V,R,
348,96,12,8,2,33,47,817,['n'],1,right,['1'],6,342,[-0.15117036],100,47,medium,plus,dotcolour,alfa,,,92,19,V,R,
349,97,13,8,2,53,27,917,['c'],1,left,['2'],5,85,[0.07279938],100,53,easy,plus,dotcolour,alfa,,,92,19,V,R,
350,98,14,8,2,33,47,783,['n'],1,right,['2'],5,115,[-0.0784342],100,47,medium,plus,dotcolour,alfa,,,92,19,V,R,
351,99,15,8,2,36,44,717,['n'],1,right,['1'],6,171,[0.00435342],41,44,hard,plus,dotcolour,alfa,,,92,19,V,R,
352,100,16,8,2,47,33,834,['c'],1,left,['2'],5,116,[0.16361527],100,47,medium,plus,dotcolour,alfa,,,92,19,V,R,
353,101,17,8,2,47,33,767,['c'],1,left,['1'],6,187,[0.03645905],95,47,medium,plus,dotcolour,alfa,,,92,19,V,R,
354,102,18,8,2,44,36,1116,['c'],1,left,['2'],5,160,[0.08118277],100,44,hard,plus,dotcolour,alfa,,,92,19,V,R,
355,103,19,8,2,36,44,767,['n'],1,right,['1'],6,92,[-0.06873823],100,44,hard,plus,dotcolour,alfa,,,92,19,V,R,
356,104,20,8,2,27,53,851,['n'],1,right,['1'],6,95,[-0.08566693],100,53,easy,plus,dotcolour,alfa,,,92,19,V,R,
357,105,21,8,2,33,47,1134,['n'],1,right,['2'],5,111,[-0.0619467],100,47,medium,plus,dotcolour,alfa,,,92,19,V,R,
358,106,22,8,2,47,33,933,['c'],1,left,['1'],6,118,[0.02165152],91,47,medium,plus,dotcolour,alfa,,,92,19,V,R,
359,107,23,8,2,33,47,734,['n'],1,right,['1'],6,150,[-0.09768077],100,47,medium,plus,dotcolour,alfa,,,92,19,V,R,
360,108,24,8,2,44,36,600,['n'],0,left,['1'],6,105,[-0.07168106],100,44,hard,plus,dotcolour,alfa,,,92,19,V,R,
361,109,25,8,2,53,27,1500,['n'],0,left,['3'],4,186,[-0.02886502],92,53,easy,plus,dotcolour,alfa,,,92,19,V,R,
362,110,26,8,2,53,27,800,['c'],1,left,['1'],6,181,[0.09890924],100,53,easy,plus,dotcolour,alfa,,,92,19,V,R,
363,111,27,8,2,27,53,916,['n'],1,right,['3'],4,170,[-0.06237548],100,53,easy,plus,dotcolour,alfa,,,92,19,V,R,
364,112,28,8,2,44,36,683,['n'],0,left,['2'],5,177,[-0.09522439],100,44,hard,plus,dotcolour,alfa,,,92,19,V,R,
365,113,29,8,2,33,47,584,['n'],1,right,['1'],6,108,[-0.09326738],100,47,medium,plus,dotcolour,alfa,,,92,19,V,R,
366,114,30,8,2,47,33,883,['c'],1,left,['1'],6,149,[0.01676473],83,47,medium,plus,dotcolour,alfa,,,92,19,V,R,
367,115,31,8,2,53,27,1067,['c'],1,left,['2'],5,342,[0.27399984],100,53,easy,plus,dotcolour,alfa,,,92,19,V,R,
368,116,32,8,2,33,47,617,['n'],1,right,['1'],6,88,[-0.09680215],100,47,medium,plus,dotcolour,alfa,,,92,19,V,R,
369,117,33,8,2,44,36,1033,['c'],1,left,['3'],4,246,[0.03689447],94,44,hard,plus,dotcolour,alfa,,,92,19,V,R,
370,118,34,8,2,53,27,1417,['c'],1,left,['2'],5,236,[0.18005995],100,53,easy,plus,dotcolour,alfa,,,92,19,V,R,
371,119,35,8,2,36,44,750,['n'],1,right,['1'],6,110,[-0.1246366],100,44,hard,plus,dotcolour,alfa,,,92,19,V,R,
372,120,36,8,2,27,53,734,['n'],1,right,['1'],6,93,[-0.11711808],100,53,easy,plus,dotcolour,alfa,,,92,19,V,R,
373,121,37,8,2,47,33,1150,['c'],1,left,['2'],5,1389,[0.27457599],100,47,medium,plus,dotcolour,alfa,,,92,19,V,R,
374,122,38,8,2,36,44,982,['n'],1,right,['2'],5,94,[-0.05145462],100,44,hard,plus,dotcolour,alfa,,,92,19,V,R,
375,123,39,8,2,44,36,1151,['n'],0,left,['2'],5,118,[-0.0596191],100,44,hard,plus,dotcolour,alfa,,,92,19,V,R,
376,124,40,8,2,44,36,1234,['c'],1,left,['2'],5,153,[0.04459813],98,44,hard,plus,dotcolour,alfa,,,92,19,V,R,
377,125,41,8,2,47,33,1284,['n'],0,left,['2'],5,89,[-0.17859008],100,47,medium,plus,dotcolour,alfa,,,92,19,V,R,
378,0,0,9,3,36,44,1800,['n'],1,right,['1'],6,450,[0.00302814],49,44,hard,minus,dotcolour,alfa,,,92,19,V,R,
379,1,1,9,3,27,53,750,['n'],1,right,['1'],6,100,[-0.14428172],98,53,easy,minus,dotcolour,alfa,,,92,19,V,R,
380,2,2,9,3,44,36,867,['c'],1,left,['1'],6,191,[0.12188688],92,44,hard,minus,dotcolour,alfa,,,92,19,V,R,
381,3,3,9,3,44,36,734,['c'],1,left,['1'],6,154,[0.15139096],97,44,hard,minus,dotcolour,alfa,,,92,19,V,R,
382,4,4,9,3,44,36,1317,['n'],0,left,['2'],5,177,[-0.08096414],85,44,hard,minus,dotcolour,alfa,,,92,19,V,R,
383,5,5,9,3,47,33,1216,['n'],0,left,['1'],6,274,[-0.10936043],87,47,medium,minus,dotcolour,alfa,,,92,19,V,R,
384,6,6,9,3,36,44,899,['n'],1,right,['1'],6,116,[-0.10625828],94,44,hard,minus,dotcolour,alfa,,,92,19,V,R,
385,7,7,9,3,53,27,667,['c'],1,left,['1'],6,158,[0.12078305],94,53,easy,minus,dotcolour,alfa,,,92,19,V,R,
386,8,8,9,3,47,33,850,['c'],1,left,['1'],6,143,[0.11599388],94,47,medium,minus,dotcolour,alfa,,,92,19,V,R,
387,9,9,9,3,33,47,634,['c'],0,right,['1'],6,266,[0.07398904],78,47,medium,minus,dotcolour,alfa,,,92,19,V,R,
388,10,10,9,3,27,53,683,['n'],1,right,['1'],6,156,[-0.03306726],68,53,easy,minus,dotcolour,alfa,,,92,19,V,R,
389,11,11,9,3,36,44,1383,['n'],1,right,['2'],5,136,[-0.09857439],92,44,hard,minus,dotcolour,alfa,,,92,19,V,R,
390,12,12,9,3,44,36,1267,['n'],0,left,['2'],5,121,[-0.04390467],76,44,hard,minus,dotcolour,alfa,,,92,19,V,R,
391,13,13,9,3,44,36,1182,['c'],1,left,['2'],5,151,[0.04824162],75,44,hard,minus,dotcolour,alfa,,,92,19,V,R,
392,14,14,9,3,27,53,716,['n'],1,right,['2'],5,189,[-0.12823035],93,53,easy,minus,dotcolour,alfa,,,92,19,V,R,
393,15,15,9,3,33,47,950,['n'],1,right,['2'],5,112,[-0.08192592],90,47,medium,minus,dotcolour,alfa,,,92,19,V,R,
394,16,16,9,3,27,53,700,['n'],1,right,['1'],6,162,[-0.05938172],79,53,easy,minus,dotcolour,alfa,,,92,19,V,R,
395,17,17,9,3,33,47,916,['n'],1,right,['2'],5,95,[-0.11106102],96,47,medium,minus,dotcolour,alfa,,,92,19,V,R,
396,18,18,9,3,27,53,633,['n'],1,right,['1'],6,187,[-0.12694245],93,53,easy,minus,dotcolour,alfa,,,92,19,V,R,
397,19,19,9,3,44,36,918,['n'],0,left,['2'],5,80,[-0.04573091],81,44,hard,minus,dotcolour,alfa,,,92,19,V,R,
398,20,20,9,3,53,27,1299,['c'],1,left,['2'],5,210,[0.08738796],85,53,easy,minus,dotcolour,alfa,,,92,19,V,R,
399,21,21,9,3,53,27,1734,['c'],1,left,['1'],6,190,[0.08599719],86,53,easy,minus,dotcolour,alfa,,,92,19,V,R,
400,22,22,9,3,36,44,767,['n'],1,right,['1'],6,104,[-0.06924928],87,44,hard,minus,dotcolour,alfa,,,92,19,V,R,
401,23,23,9,3,47,33,1317,['c'],1,left,['1'],6,161,[0.05835357],79,47,medium,minus,dotcolour,alfa,,,92,19,V,R,
402,24,24,9,3,33,47,850,['n'],1,right,['1'],6,137,[-0.07170953],85,47,medium,minus,dotcolour,alfa,,,92,19,V,R,
403,25,25,9,3,47,33,1083,['c'],1,left,['2'],5,171,[0.12925277],94,47,medium,minus,dotcolour,alfa,,,92,19,V,R,
404,26,26,9,3,47,33,1101,['c'],1,left,['2'],5,153,[0.09372523],90,47,medium,minus,dotcolour,alfa,,,92,19,V,R,
405,27,27,9,3,53,27,766,['c'],1,left,['1'],6,158,[0.0689985],83,53,easy,minus,dotcolour,alfa,,,92,19,V,R,
406,28,28,9,3,47,33,767,['c'],1,left,['1'],6,146,[0.12235912],95,47,medium,minus,dotcolour,alfa,,,92,19,V,R,
407,29,29,9,3,33,47,1000,['n'],1,right,['2'],5,141,[-0.08304736],88,47,medium,minus,dotcolour,alfa,,,92,19,V,R,
408,30,30,9,3,47,33,834,['c'],1,left,['2'],5,135,[0.11001204],94,47,medium,minus,dotcolour,alfa,,,92,19,V,R,
409,31,31,9,3,27,53,783,['n'],1,right,['1'],6,155,[-0.15332355],97,53,easy,minus,dotcolour,alfa,,,92,19,V,R,
410,32,32,9,3,27,53,800,['n'],1,right,['1'],6,127,[-0.04682711],77,53,easy,minus,dotcolour,alfa,,,92,19,V,R,
411,33,33,9,3,53,27,817,['c'],1,left,['1'],6,138,[0.01558323],59,53,easy,minus,dotcolour,alfa,,,92,19,V,R,
412,34,34,9,3,36,44,617,['n'],1,right,['1'],6,141,[-0.05969797],81,44,hard,minus,dotcolour,alfa,,,92,19,V,R,
413,35,35,9,3,33,47,950,['n'],1,right,['1'],6,171,[-0.12699558],94,47,medium,minus,dotcolour,alfa,,,92,19,V,R,
414,36,36,9,3,53,27,899,['c'],1,left,['1'],6,113,[0.0609229],84,53,easy,minus,dotcolour,alfa,,,92,19,V,R,
415,37,37,9,3,36,44,784,['n'],1,right,['1'],6,55,[-0.082338],96,44,hard,minus,dotcolour,alfa,,,92,19,V,R,
416,38,38,9,3,36,44,1233,['c'],0,right,['2'],5,117,[0.02383991],65,44,hard,minus,dotcolour,alfa,,,92,19,V,R,
417,39,39,9,3,53,27,2667,['c'],1,left,['2'],5,183,[0.07305443],82,53,easy,minus,dotcolour,alfa,,,92,19,V,R,
418,40,40,9,3,33,47,983,['n'],1,right,['1'],6,97,[-0.08909863],93,47,medium,minus,dotcolour,alfa,,,92,19,V,R,
419,41,41,9,3,44,36,1167,['n'],0,left,['1'],6,120,[-0.09283676],92,44,hard,minus,dotcolour,alfa,,,92,19,V,R,
420,42,0,10,3,33,47,734,['n'],1,right,['2'],5,413,[-0.13699978],87,47,medium,minus,dotcolour,alfa,,,92,19,V,R,
421,43,1,10,3,47,33,684,['n'],0,left,['2'],5,131,[-0.05154438],78,47,medium,minus,dotcolour,alfa,,,92,19,V,R,
422,44,2,10,3,47,33,2383,['c'],1,left,['2'],5,135,[0.0053786],53,47,medium,minus,dotcolour,alfa,,,92,19,V,R,
423,45,3,10,3,36,44,750,['n'],1,right,['2'],5,149,[-0.14520196],97,44,hard,minus,dotcolour,alfa,,,92,19,V,R,
424,46,4,10,3,47,33,1183,['n'],0,left,['2'],5,225,[-0.03347491],65,47,medium,minus,dotcolour,alfa,,,92,19,V,R,
425,47,5,10,3,36,44,1684,['c'],0,right,['2'],5,542,[-0.07583285],28,44,hard,minus,dotcolour,alfa,,,92,19,V,R,
426,48,6,10,3,44,36,1300,['n'],0,left,['3'],4,270,[-0.17930098],96,44,hard,minus,dotcolour,alfa,,,92,19,V,R,
427,49,7,10,3,53,27,1783,['n'],0,left,['3'],4,277,[-0.03867987],66,53,easy,minus,dotcolour,alfa,,,92,19,V,R,
428,50,8,10,3,53,27,1418,['c'],1,left,['2'],5,170,[0.04045474],71,53,easy,minus,dotcolour,alfa,,,92,19,V,R,
429,51,9,10,3,33,47,733,['n'],1,right,['2'],5,79,[-0.05438538],85,47,medium,minus,dotcolour,alfa,,,92,19,V,R,
430,52,10,10,3,44,36,1017,['n'],0,left,['2'],5,45,[-0.08671961],98,44,hard,minus,dotcolour,alfa,,,92,19,V,R,
431,53,11,10,3,44,36,966,['c'],1,left,['2'],5,157,[0.06678722],82,44,hard,minus,dotcolour,alfa,,,92,19,V,R,
432,54,12,10,3,27,53,651,['n'],1,right,['1'],6,198,[-0.17249179],97,53,easy,minus,dotcolour,alfa,,,92,19,V,R,
433,55,13,10,3,53,27,1283,['c'],1,left,['2'],5,148,[0.10555697],92,53,easy,minus,dotcolour,alfa,,,92,19,V,R,
434,56,14,10,3,53,27,1249,['c'],1,left,['2'],5,165,[0.11056791],92,53,easy,minus,dotcolour,alfa,,,92,19,V,R,
435,57,15,10,3,33,47,850,['n'],1,right,['2'],5,222,[-0.10072404],87,47,medium,minus,dotcolour,alfa,,,92,19,V,R,
436,58,16,10,3,36,44,1200,['n'],1,right,['2'],5,207,[-0.03675154],67,44,hard,minus,dotcolour,alfa,,,92,19,V,R,
437,59,17,10,3,47,33,1035,['c'],1,left,['2'],5,198,[0.0199633],60,47,medium,minus,dotcolour,alfa,,,92,19,V,R,
438,60,18,10,3,27,53,850,['n'],1,right,['1'],6,125,[-0.10336807],93,53,easy,minus,dotcolour,alfa,,,92,19,V,R,
439,61,19,10,3,33,47,1600,['c'],0,right,['2'],5,169,[0.1130316],92,47,medium,minus,dotcolour,alfa,,,92,19,V,R,
440,62,20,10,3,33,47,1150,['c'],0,right,['2'],5,182,[0.00061201],50,47,medium,minus,dotcolour,alfa,,,92,19,V,R,
441,63,21,10,3,53,27,1200,['c'],1,left,['2'],5,136,[0.08967985],90,53,easy,minus,dotcolour,alfa,,,92,19,V,R,
442,64,22,10,3,27,53,634,['n'],1,right,['1'],6,131,[-0.12144514],95,53,easy,minus,dotcolour,alfa,,,92,19,V,R,
443,65,23,10,3,53,27,734,['c'],1,left,['1'],6,169,[0.11578236],93,53,easy,minus,dotcolour,alfa,,,92,19,V,R,
444,66,24,10,3,27,53,867,['n'],1,right,['1'],6,145,[-0.13204745],96,53,easy,minus,dotcolour,alfa,,,92,19,V,R,
445,67,25,10,3,44,36,1550,['c'],1,left,['1'],6,174,[0.08685904],87,44,hard,minus,dotcolour,alfa,,,92,19,V,R,
446,68,26,10,3,36,44,1133,['c'],0,right,['1'],6,155,[0.08771708],88,44,hard,minus,dotcolour,alfa,,,92,19,V,R,
447,69,27,10,3,47,33,1517,['n'],0,left,['1'],6,138,[-0.06209097],82,47,medium,minus,dotcolour,alfa,,,92,19,V,R,
448,70,28,10,3,53,27,1534,['c'],1,left,['2'],5,185,[0.14374803],95,53,easy,minus,dotcolour,alfa,,,92,19,V,R,
449,71,29,10,3,44,36,817,['n'],0,left,['1'],6,122,[-0.03491541],71,44,hard,minus,dotcolour,alfa,,,92,19,V,R,
450,72,30,10,3,47,33,2283,['c'],1,left,['2'],5,251,[0.14524347],93,47,medium,minus,dotcolour,alfa,,,92,19,V,R,
451,73,31,10,3,27,53,717,['n'],1,right,['1'],6,102,[-0.06826431],87,53,easy,minus,dotcolour,alfa,,,92,19,V,R,
452,74,32,10,3,36,44,767,['n'],1,right,['1'],6,133,[-0.10984436],94,44,hard,minus,dotcolour,alfa,,,92,19,V,R,
453,75,33,10,3,36,44,1016,['n'],1,right,['1'],6,96,[-0.08949395],93,44,hard,minus,dotcolour,alfa,,,92,19,V,R,
454,76,34,10,3,44,36,1216,['n'],0,left,['2'],5,125,[-0.07418275],87,44,hard,minus,dotcolour,alfa,,,92,19,V,R,
455,77,35,10,3,33,47,866,['n'],1,right,['2'],5,87,[-0.08383822],93,47,medium,minus,dotcolour,alfa,,,92,19,V,R,
456,78,36,10,3,27,53,667,['n'],1,right,['1'],6,74,[-0.12993689],99,53,easy,minus,dotcolour,alfa,,,92,19,V,R,
457,79,37,10,3,33,47,800,['n'],1,right,['1'],6,96,[-0.12262928],97,47,medium,minus,dotcolour,alfa,,,92,19,V,R,
458,80,38,10,3,27,53,733,['n'],1,right,['1'],6,104,[-0.10747083],95,53,easy,minus,dotcolour,alfa,,,92,19,V,R,
459,81,39,10,3,44,36,1283,['n'],0,left,['2'],5,673,[-0.03904859],61,44,hard,minus,dotcolour,alfa,,,92,19,V,R,
460,82,40,10,3,36,44,650,['n'],1,right,['1'],6,109,[-0.09908414],94,44,hard,minus,dotcolour,alfa,,,92,19,V,R,
461,83,41,10,3,47,33,800,['c'],1,left,['1'],6,179,[0.04867702],74,47,medium,minus,dotcolour,alfa,,,92,19,V,R,
462,84,0,11,3,27,53,718,['n'],1,right,['1'],6,101,[-0.09835335],94,53,easy,minus,dotcolour,alfa,,,92,19,V,R,
463,85,1,11,3,53,27,883,['c'],1,left,['2'],5,319,[0.21762023],97,53,easy,minus,dotcolour,alfa,,,92,19,V,R,
464,86,2,11,3,33,47,1067,['n'],1,right,['2'],5,152,[-0.15311705],97,47,medium,minus,dotcolour,alfa,,,92,19,V,R,
465,87,3,11,3,36,44,834,['n'],1,right,['1'],6,90,[-0.11400173],97,44,hard,minus,dotcolour,alfa,,,92,19,V,R,
466,88,4,11,3,27,53,567,['n'],1,right,['1'],6,113,[-0.12313752],96,53,easy,minus,dotcolour,alfa,,,92,19,V,R,
467,89,5,11,3,44,36,1100,['c'],1,left,['1'],6,330,[0.11202133],85,44,hard,minus,dotcolour,alfa,,,92,19,V,R,
468,90,6,11,3,44,36,1350,['c'],1,left,['2'],5,248,[0.10417537],87,44,hard,minus,dotcolour,alfa,,,92,19,V,R,
469,91,7,11,3,53,27,783,['n'],0,left,['9'],2,816,[0.027149],43,53,easy,minus,dotcolour,alfa,,,92,19,V,R,
470,92,8,11,3,44,36,884,['n'],0,left,['1'],6,125,[-0.06679388],85,44,hard,minus,dotcolour,alfa,,,92,19,V,R,
471,93,9,11,3,47,33,1700,['c'],1,left,['1'],6,669,[0.16246378],86,47,medium,minus,dotcolour,alfa,,,92,19,V,R,
472,94,10,11,3,36,44,835,['n'],1,right,['1'],6,194,[-0.04731077],72,44,hard,minus,dotcolour,alfa,,,92,19,V,R,
473,95,11,11,3,44,36,999,['n'],0,left,['1'],6,124,[-0.08718918],90,44,hard,minus,dotcolour,alfa,,,92,19,V,R,
474,96,12,11,3,36,44,1617,['n'],1,right,['1'],6,158,[-0.09968078],91,44,hard,minus,dotcolour,alfa,,,92,19,V,R,
475,97,13,11,3,36,44,1083,['n'],1,right,['2'],5,262,[0.0439377],32,44,hard,minus,dotcolour,alfa,,,92,19,V,R,
476,98,14,11,3,47,33,1333,['c'],1,left,['2'],5,143,[0.03893469],72,47,medium,minus,dotcolour,alfa,,,92,19,V,R,
477,99,15,11,3,27,53,683,['n'],1,right,['2'],5,95,[-0.07739584],91,53,easy,minus,dotcolour,alfa,,,92,19,V,R,
478,100,16,11,3,36,44,1133,['n'],1,right,['2'],5,135,[-0.09604548],91,44,hard,minus,dotcolour,alfa,,,92,19,V,R,
479,101,17,11,3,27,53,900,['n'],1,right,['1'],6,607,[-0.11973511],80,53,easy,minus,dotcolour,alfa,,,92,19,V,R,
480,102,18,11,3,33,47,734,['n'],1,right,['1'],6,107,[-0.09005721],92,47,medium,minus,dotcolour,alfa,,,92,19,V,R,
481,103,19,11,3,33,47,684,['n'],1,right,['1'],6,76,[-0.11097534],97,47,medium,minus,dotcolour,alfa,,,92,19,V,R,
482,104,20,11,3,27,53,550,['n'],1,right,['1'],6,92,[-0.06900175],89,53,easy,minus,dotcolour,alfa,,,92,19,V,R,
483,105,21,11,3,33,47,601,['n'],1,right,['1'],6,81,[-0.13542897],99,47,medium,minus,dotcolour,alfa,,,92,19,V,R,
484,106,22,11,3,44,36,867,['n'],0,left,['2'],5,93,[-0.02362893],67,44,hard,minus,dotcolour,alfa,,,92,19,V,R,
485,107,23,11,3,36,44,650,['n'],1,right,['1'],6,79,[-0.04464228],81,44,hard,minus,dotcolour,alfa,,,92,19,V,R,
486,108,24,11,3,44,36,833,['n'],0,left,['2'],5,365,[-0.10528132],83,44,hard,minus,dotcolour,alfa,,,92,19,V,R,
487,109,25,11,3,47,33,1017,['c'],1,left,['2'],5,199,[-0.00133246],49,47,medium,minus,dotcolour,alfa,,,92,19,V,R,
488,110,26,11,3,47,33,1668,['c'],1,left,['2'],5,165,[0.06199088],80,47,medium,minus,dotcolour,alfa,,,92,19,V,R,
489,111,27,11,3,53,27,833,['c'],1,left,['1'],6,358,[0.1136254],85,53,easy,minus,dotcolour,alfa,,,92,19,V,R,
490,112,28,11,3,33,47,751,['n'],1,right,['2'],5,147,[-0.07259073],85,47,medium,minus,dotcolour,alfa,,,92,19,V,R,
491,113,29,11,3,44,36,1266,['c'],1,left,['2'],5,180,[0.03502231],68,44,hard,minus,dotcolour,alfa,,,92,19,V,R,
492,114,30,11,3,53,27,816,['c'],1,left,['2'],5,173,[0.0163113],59,53,easy,minus,dotcolour,alfa,,,92,19,V,R,
493,115,31,11,3,53,27,800,['c'],1,left,['1'],6,295,[0.14635606],92,53,easy,minus,dotcolour,alfa,,,92,19,V,R,
494,116,32,11,3,53,27,916,['c'],1,left,['2'],5,144,[0.13974768],96,53,easy,minus,dotcolour,alfa,,,92,19,V,R,
495,117,33,11,3,53,27,950,['n'],0,left,['1'],6,141,[-0.0746038],86,53,easy,minus,dotcolour,alfa,,,92,19,V,R,
496,118,34,11,3,47,33,1133,['n'],0,left,['2'],5,83,[-0.03450152],75,47,medium,minus,dotcolour,alfa,,,92,19,V,R,
497,119,35,11,3,33,47,817,['n'],1,right,['1'],6,120,[-0.06126703],83,47,medium,minus,dotcolour,alfa,,,92,19,V,R,
498,120,36,11,3,36,44,1117,['n'],1,right,['2'],5,345,[-0.11604794],86,44,hard,minus,dotcolour,alfa,,,92,19,V,R,
499,121,37,11,3,47,33,817,['n'],0,left,['2'],5,131,[-0.05555856],80,47,medium,minus,dotcolour,alfa,,,92,19,V,R,
500,122,38,11,3,47,33,684,['n'],0,left,['1'],6,220,[-0.02643008],62,47,medium,minus,dotcolour,alfa,,,92,19,V,R,
501,123,39,11,3,33,47,833,['n'],1,right,['2'],5,155,[-0.06726526],82,47,medium,minus,dotcolour,alfa,,,92,19,V,R,
502,124,40,11,3,27,53,800,['n'],1,right,['1'],6,174,[-0.06196177],79,53,easy,minus,dotcolour,alfa,,,92,19,V,R,
503,125,41,11,3,27,53,934,['n'],1,right,['2'],5,67,[-0.04630326],83,53,easy,minus,dotcolour,alfa,,,92,19,V,R,
504,0,0,12,4,33,47,884,['n'],1,right,['1'],6,125,[-0.08327588],100,47,medium,plus,dotcolour,alfa,,,92,19,V,R,
505,1,1,12,4,27,53,717,['n'],1,right,['2'],5,60,[-0.06199035],100,53,easy,plus,dotcolour,alfa,,,92,19,V,R,
506,2,2,12,4,27,53,634,['n'],1,right,['1'],6,121,[-0.08022043],100,53,easy,plus,dotcolour,alfa,,,92,19,V,R,
507,3,3,12,4,47,33,1083,['c'],1,left,['2'],5,131,[0.11997888],100,47,medium,plus,dotcolour,alfa,,,92,19,V,R,
508,4,4,12,4,33,47,750,['n'],1,right,['2'],5,57,[-0.07568],100,47,medium,plus,dotcolour,alfa,,,92,19,V,R,
509,5,5,12,4,47,33,784,['c'],1,left,['1'],6,448,[0.11350752],100,47,medium,plus,dotcolour,alfa,,,92,19,V,R,
510,6,6,12,4,53,27,833,['c'],1,left,['1'],6,150,[0.04694119],99,53,easy,plus,dotcolour,alfa,,,92,19,V,R,
511,7,7,12,4,44,36,1200,['c'],1,left,['2'],5,121,[0.04498912],99,44,hard,plus,dotcolour,alfa,,,92,19,V,R,
512,8,8,12,4,33,47,1183,['c'],0,right,['2'],5,143,[0.06474556],100,47,medium,plus,dotcolour,alfa,,,92,19,V,R,
513,9,9,12,4,36,44,1317,['n'],1,right,['2'],5,125,[-0.06379278],100,44,hard,plus,dotcolour,alfa,,,92,19,V,R,
514,10,10,12,4,53,27,901,['c'],1,left,['1'],6,141,[0.05941391],100,53,easy,plus,dotcolour,alfa,,,92,19,V,R,
515,11,11,12,4,44,36,850,['c'],1,left,['2'],5,127,[0.0916571],100,44,hard,plus,dotcolour,alfa,,,92,19,V,R,
516,12,12,12,4,33,47,734,['n'],1,right,['1'],6,102,[-0.09395154],100,47,medium,plus,dotcolour,alfa,,,92,19,V,R,
517,13,13,12,4,44,36,867,['n'],0,left,['1'],6,241,[-0.08116108],100,44,hard,plus,dotcolour,alfa,,,92,19,V,R,
518,14,14,12,4,36,44,916,['n'],1,right,['2'],5,99,[-0.02630895],95,44,hard,plus,dotcolour,alfa,,,92,19,V,R,
519,15,15,12,4,47,33,884,['c'],1,left,['1'],6,133,[0.0354776],97,47,medium,plus,dotcolour,alfa,,,92,19,V,R,
520,16,16,12,4,47,33,817,['n'],0,left,['1'],6,200,[-0.13159502],100,47,medium,plus,dotcolour,alfa,,,92,19,V,R,
521,17,17,12,4,27,53,633,['n'],1,right,['1'],6,96,[-0.12605755],100,53,easy,plus,dotcolour,alfa,,,92,19,V,R,
522,18,18,12,4,47,33,667,['c'],1,left,['1'],6,123,[0.11594681],100,47,medium,plus,dotcolour,alfa,,,92,19,V,R,
523,19,19,12,4,36,44,683,['n'],1,right,['1'],6,228,[-0.04414539],97,44,hard,plus,dotcolour,alfa,,,92,19,V,R,
524,20,20,12,4,53,27,1066,['c'],1,left,['1'],6,129,[0.07011881],100,53,easy,plus,dotcolour,alfa,,,92,19,V,R,
525,21,21,12,4,36,44,567,['n'],1,right,['1'],6,86,[-0.07616072],100,44,hard,plus,dotcolour,alfa,,,92,19,V,R,
526,22,22,12,4,33,47,683,['n'],1,right,['1'],6,57,[-0.04540703],100,47,medium,plus,dotcolour,alfa,,,92,19,V,R,
527,23,23,12,4,27,53,551,['n'],1,right,['1'],6,66,[-0.09398576],100,53,easy,plus,dotcolour,alfa,,,92,19,V,R,
528,24,24,12,4,53,27,2049,['c'],1,left,['1'],6,135,[0.06887419],100,53,easy,plus,dotcolour,alfa,,,92,19,V,R,
529,25,25,12,4,53,27,1150,['c'],1,left,['1'],6,221,[0.06881635],99,53,easy,plus,dotcolour,alfa,,,92,19,V,R,
530,26,26,12,4,44,36,1500,['n'],0,left,['3'],4,281,[-0.03932453],94,44,hard,plus,dotcolour,alfa,,,92,19,V,R,
531,27,27,12,4,33,47,1300,['n'],1,right,['1'],6,652,[-0.21054207],100,47,medium,plus,dotcolour,alfa,,,92,19,V,R,
532,28,28,12,4,27,53,883,['n'],1,right,['1'],6,120,[-0.05539996],100,53,easy,plus,dotcolour,alfa,,,92,19,V,R,
533,29,29,12,4,53,27,768,['c'],1,left,['1'],6,245,[0.16988694],100,53,easy,plus,dotcolour,alfa,,,92,19,V,R,
534,30,30,12,4,33,47,1234,['c'],0,right,['2'],5,155,[0.05850067],100,47,medium,plus,dotcolour,alfa,,,92,19,V,R,
535,31,31,12,4,36,44,850,['n'],1,right,['1'],6,93,[-0.12498239],100,44,hard,plus,dotcolour,alfa,,,92,19,V,R,
536,32,32,12,4,36,44,733,['n'],1,right,['1'],6,149,[-0.05618819],99,44,hard,plus,dotcolour,alfa,,,92,19,V,R,
537,33,33,12,4,36,44,717,['n'],1,right,['1'],6,348,[-0.05453612],97,44,hard,plus,dotcolour,alfa,,,92,19,V,R,
538,34,34,12,4,53,27,1050,['c'],1,left,['1'],6,237,[0.09640987],100,53,easy,plus,dotcolour,alfa,,,92,19,V,R,
539,35,35,12,4,44,36,1350,['n'],0,left,['2'],5,199,[0.00492707],40,44,hard,plus,dotcolour,alfa,,,92,19,V,R,
540,36,36,12,4,47,33,850,['c'],1,left,['1'],6,158,[0.03493356],96,47,medium,plus,dotcolour,alfa,,,92,19,V,R,
541,37,37,12,4,44,36,733,['n'],0,left,['1'],6,100,[-0.07828561],100,44,hard,plus,dotcolour,alfa,,,92,19,V,R,
542,38,38,12,4,27,53,884,['n'],1,right,['1'],6,125,[-0.13239133],100,53,easy,plus,dotcolour,alfa,,,92,19,V,R,
543,39,39,12,4,44,36,1133,['c'],1,left,['2'],5,172,[0.06818437],100,44,hard,plus,dotcolour,alfa,,,92,19,V,R,
544,40,40,12,4,27,53,1017,['n'],1,right,['1'],6,182,[-0.07866679],100,53,easy,plus,dotcolour,alfa,,,92,19,V,R,
545,41,41,12,4,47,33,1400,['c'],1,left,['1'],6,176,[0.00541326],61,47,medium,plus,dotcolour,alfa,,,92,19,V,R,
546,42,0,13,4,36,44,2000,['n'],1,right,['1'],6,201,[-0.19012243],100,44,hard,plus,dotcolour,alfa,,,92,19,V,R,
547,43,1,13,4,44,36,2134,['n'],0,left,['2'],5,165,[-0.05393158],99,44,hard,plus,dotcolour,alfa,,,92,19,V,R,
548,44,2,13,4,44,36,2034,['c'],1,left,['2'],5,214,[0.13369417],100,44,hard,plus,dotcolour,alfa,,,92,19,V,R,
549,45,3,13,4,47,33,867,['n'],0,left,['1'],6,124,[-0.05814749],100,47,medium,plus,dotcolour,alfa,,,92,19,V,R,
550,46,4,13,4,47,33,1533,['c'],1,left,['2'],5,155,[0.136052],100,47,medium,plus,dotcolour,alfa,,,92,19,V,R,
551,47,5,13,4,36,44,1117,['c'],0,right,['2'],5,129,[0.06900159],100,44,hard,plus,dotcolour,alfa,,,92,19,V,R,
552,48,6,13,4,47,33,1484,['c'],1,left,['2'],5,275,[0.08715211],100,47,medium,plus,dotcolour,alfa,,,92,19,V,R,
553,49,7,13,4,47,33,1483,['n'],0,left,['2'],5,157,[-0.03034842],94,47,medium,plus,dotcolour,alfa,,,92,19,V,R,
554,50,8,13,4,27,53,1218,['n'],1,right,['1'],6,166,[-0.13323518],100,53,easy,plus,dotcolour,alfa,,,92,19,V,R,
555,51,9,13,4,27,53,733,['n'],1,right,['1'],6,77,[-0.07759069],100,53,easy,plus,dotcolour,alfa,,,92,19,V,R,
556,52,10,13,4,36,44,784,['n'],1,right,['1'],6,99,[-0.10563063],100,44,hard,plus,dotcolour,alfa,,,92,19,V,R,
557,53,11,13,4,53,27,1217,['c'],1,left,['1'],6,255,[0.27428464],100,53,easy,plus,dotcolour,alfa,,,92,19,V,R,
558,54,12,13,4,33,47,1167,['n'],1,right,['1'],6,135,[-0.04759084],99,47,medium,plus,dotcolour,alfa,,,92,19,V,R,
559,55,13,13,4,36,44,800,['n'],1,right,['1'],6,163,[-0.05964746],100,44,hard,plus,dotcolour,alfa,,,92,19,V,R,
560,56,14,13,4,33,47,1217,['n'],1,right,['2'],5,229,[-0.16594062],100,47,medium,plus,dotcolour,alfa,,,92,19,V,R,
561,57,15,13,4,27,53,717,['n'],1,right,['1'],6,97,[-0.1198449],100,53,easy,plus,dotcolour,alfa,,,92,19,V,R,
562,58,16,13,4,47,33,900,['c'],1,left,['1'],6,122,[0.12940547],100,47,medium,plus,dotcolour,alfa,,,92,19,V,R,
563,59,17,13,4,53,27,883,['c'],1,left,['1'],6,139,[0.01524988],81,53,easy,plus,dotcolour,alfa,,,92,19,V,R,
564,60,18,13,4,36,44,1100,['n'],1,right,['1'],6,147,[-0.11784096],100,44,hard,plus,dotcolour,alfa,,,92,19,V,R,
565,61,19,13,4,33,47,600,['n'],1,right,['1'],6,79,[-0.1001426],100,47,medium,plus,dotcolour,alfa,,,92,19,V,R,
566,62,20,13,4,53,27,917,['c'],1,left,['1'],6,176,[0.06747027],100,53,easy,plus,dotcolour,alfa,,,92,19,V,R,
567,63,21,13,4,47,33,917,['c'],1,left,['1'],6,165,[0.08363456],100,47,medium,plus,dotcolour,alfa,,,92,19,V,R,
568,64,22,13,4,27,53,717,['n'],1,right,['1'],6,83,[-0.08250257],100,53,easy,plus,dotcolour,alfa,,,92,19,V,R,
569,65,23,13,4,53,27,1116,['n'],0,left,['2'],5,605,[0.00615145],43,53,easy,plus,dotcolour,alfa,,,92,19,V,R,
570,66,24,13,4,44,36,867,['n'],0,left,['1'],6,83,[-0.07367007],100,44,hard,plus,dotcolour,alfa,,,92,19,V,R,
571,67,25,13,4,44,36,1017,['c'],1,left,['2'],5,152,[0.10396776],100,44,hard,plus,dotcolour,alfa,,,92,19,V,R,
572,68,26,13,4,44,36,833,['n'],0,left,['1'],6,346,[-0.02498527],82,44,hard,plus,dotcolour,alfa,,,92,19,V,R,
573,69,27,13,4,44,36,1100,['n'],0,left,['2'],5,169,[0.00254792],44,44,hard,plus,dotcolour,alfa,,,92,19,V,R,
574,70,28,13,4,33,47,1667,['c'],0,right,['2'],5,193,[0.13801971],100,47,medium,plus,dotcolour,alfa,,,92,19,V,R,
575,71,29,13,4,44,36,1050,['n'],0,left,['2'],5,144,[-0.05624139],100,44,hard,plus,dotcolour,alfa,,,92,19,V,R,
576,72,30,13,4,33,47,667,['n'],1,right,['1'],6,81,[-0.10441853],100,47,medium,plus,dotcolour,alfa,,,92,19,V,R,
577,73,31,13,4,33,47,884,['n'],1,right,['2'],5,140,[-0.05010105],99,47,medium,plus,dotcolour,alfa,,,92,19,V,R,
578,74,32,13,4,27,53,783,['n'],1,right,['1'],6,80,[-0.08525017],100,53,easy,plus,dotcolour,alfa,,,92,19,V,R,
579,75,33,13,4,36,44,700,['n'],1,right,['1'],6,66,[-0.08900066],100,44,hard,plus,dotcolour,alfa,,,92,19,V,R,
580,76,34,13,4,53,27,1900,['c'],1,left,['2'],5,228,[0.04935114],98,53,easy,plus,dotcolour,alfa,,,92,19,V,R,
581,77,35,13,4,53,27,1350,['c'],1,left,['2'],5,126,[0.09854693],100,53,easy,plus,dotcolour,alfa,,,92,19,V,R,
582,78,36,13,4,36,44,1167,['n'],1,right,['2'],5,84,[-0.05930959],100,44,hard,plus,dotcolour,alfa,,,92,19,V,R,
583,79,37,13,4,53,27,1083,['c'],1,left,['1'],6,143,[0.12726574],100,53,easy,plus,dotcolour,alfa,,,92,19,V,R,
584,80,38,13,4,27,53,733,['n'],1,right,['1'],6,204,[-0.15387219],100,53,easy,plus,dotcolour,alfa,,,92,19,V,R,
585,81,39,13,4,47,33,1201,['n'],0,left,['2'],5,134,[-0.04743208],99,47,medium,plus,dotcolour,alfa,,,92,19,V,R,
586,82,40,13,4,27,53,717,['n'],1,right,['1'],6,101,[-0.10464907],100,53,easy,plus,dotcolour,alfa,,,92,19,V,R,
587,83,41,13,4,33,47,1434,['n'],1,right,['1'],6,153,[-0.0801332],100,47,medium,plus,dotcolour,alfa,,,92,19,V,R,
588,84,0,14,4,36,44,850,['n'],1,right,['2'],5,74,[-0.07568902],100,44,hard,plus,dotcolour,alfa,,,92,19,V,R,
589,85,1,14,4,36,44,984,['n'],1,right,['1'],6,113,[-0.07725391],100,44,hard,plus,dotcolour,alfa,,,92,19,V,R,
590,86,2,14,4,44,36,1135,['n'],0,left,['2'],5,65,[-0.10362381],100,44,hard,plus,dotcolour,alfa,,,92,19,V,R,
591,87,3,14,4,33,47,868,['n'],1,right,['2'],5,60,[-0.0800552],100,47,medium,plus,dotcolour,alfa,,,92,19,V,R,
592,88,4,14,4,33,47,834,['n'],1,right,['2'],5,66,[-0.10180446],100,47,medium,plus,dotcolour,alfa,,,92,19,V,R,
593,89,5,14,4,53,27,4150,['c'],1,left,['1'],6,450,[0.15469048],100,53,easy,plus,dotcolour,alfa,,,92,19,V,R,
594,90,6,14,4,36,44,700,['n'],1,right,['1'],6,166,[-0.07612661],100,44,hard,plus,dotcolour,alfa,,,92,19,V,R,
595,91,7,14,4,53,27,867,['c'],1,left,['2'],5,206,[0.07365893],100,53,easy,plus,dotcolour,alfa,,,92,19,V,R,
596,92,8,14,4,53,27,1016,['c'],1,left,['2'],5,158,[0.11671996],100,53,easy,plus,dotcolour,alfa,,,92,19,V,R,
597,93,9,14,4,53,27,1567,['n'],0,left,['2'],5,434,[-0.12124829],100,53,easy,plus,dotcolour,alfa,,,92,19,V,R,
598,94,10,14,4,44,36,1633,['c'],1,left,['2'],5,376,[0.01746566],74,44,hard,plus,dotcolour,alfa,,,92,19,V,R,
599,95,11,14,4,47,33,1566,['c'],1,left,['2'],5,148,[0.12762203],100,47,medium,plus,dotcolour,alfa,,,92,19,V,R,
600,96,12,14,4,27,53,950,['n'],1,right,['1'],6,169,[-0.05576123],99,53,easy,plus,dotcolour,alfa,,,92,19,V,R,
601,97,13,14,4,36,44,1917,['c'],0,right,['3'],4,207,[0.0730476],100,44,hard,plus,dotcolour,alfa,,,92,19,V,R,
602,98,14,14,4,53,27,1433,['c'],1,left,['2'],5,359,[0.12119039],100,53,easy,plus,dotcolour,alfa,,,92,19,V,R,
603,99,15,14,4,44,36,1116,['n'],0,left,['1'],6,36,[-0.07380212],100,44,hard,plus,dotcolour,alfa,,,92,19,V,R,
604,100,16,14,4,47,33,1434,['c'],1,left,['2'],5,139,[0.11544558],100,47,medium,plus,dotcolour,alfa,,,92,19,V,R,
605,101,17,14,4,44,36,1167,['c'],1,left,['2'],5,144,[0.0632088],100,44,hard,plus,dotcolour,alfa,,,92,19,V,R,
606,102,18,14,4,47,33,966,['c'],1,left,['2'],5,164,[0.02266696],88,47,medium,plus,dotcolour,alfa,,,92,19,V,R,
607,103,19,14,4,27,53,800,['n'],1,right,['1'],6,95,[-0.06232147],100,53,easy,plus,dotcolour,alfa,,,92,19,V,R,
608,104,20,14,4,27,53,550,['n'],1,right,['1'],6,102,[-0.06223656],100,53,easy,plus,dotcolour,alfa,,,92,19,V,R,
609,105,21,14,4,47,33,750,['c'],1,left,['1'],6,142,[0.1168826],100,47,medium,plus,dotcolour,alfa,,,92,19,V,R,
610,106,22,14,4,27,53,666,['n'],1,right,['1'],6,62,[-0.08161424],100,53,easy,plus,dotcolour,alfa,,,92,19,V,R,
611,107,23,14,4,36,44,784,['n'],1,right,['1'],6,62,[-0.10121783],100,44,hard,plus,dotcolour,alfa,,,92,19,V,R,
612,108,24,14,4,53,27,634,['c'],1,left,['1'],6,139,[0.00222922],55,53,easy,plus,dotcolour,alfa,,,92,19,V,R,
613,109,25,14,4,44,36,1700,['c'],1,left,['2'],5,171,[0.13675677],100,44,hard,plus,dotcolour,alfa,,,92,19,V,R,
614,110,26,14,4,47,33,916,['c'],1,left,['2'],5,162,[0.05132291],99,47,medium,plus,dotcolour,alfa,,,92,19,V,R,
615,111,27,14,4,44,36,950,['c'],1,left,['1'],6,262,[0.05295743],98,44,hard,plus,dotcolour,alfa,,,92,19,V,R,
616,112,28,14,4,33,47,900,['n'],1,right,['1'],6,120,[-0.09514724],100,47,medium,plus,dotcolour,alfa,,,92,19,V,R,
617,113,29,14,4,33,47,916,['n'],1,right,['1'],6,104,[-0.06825532],100,47,medium,plus,dotcolour,alfa,,,92,19,V,R,
618,114,30,14,4,36,44,1333,['c'],0,right,['2'],5,168,[0.0985927],100,44,hard,plus,dotcolour,alfa,,,92,19,V,R,
619,115,31,14,4,33,47,767,['n'],1,right,['1'],6,100,[-0.11519379],100,47,medium,plus,dotcolour,alfa,,,92,19,V,R,
620,116,32,14,4,27,53,550,['n'],1,right,['1'],6,116,[0.00728428],32,53,easy,plus,dotcolour,alfa,,,92,19,V,R,
621,117,33,14,4,47,33,1184,['n'],0,left,['2'],5,345,[-0.07044759],99,47,medium,plus,dotcolour,alfa,,,92,19,V,R,
622,118,34,14,4,33,47,867,['n'],1,right,['1'],6,114,[-0.04788079],99,47,medium,plus,dotcolour,alfa,,,92,19,V,R,
623,119,35,14,4,36,44,684,['n'],1,right,['1'],6,107,[-0.02710545],95,44,hard,plus,dotcolour,alfa,,,92,19,V,R,
624,120,36,14,4,44,36,784,['n'],0,left,['1'],6,112,[-0.03931605],99,44,hard,plus,dotcolour,alfa,,,92,19,V,R,
625,121,37,14,4,27,53,500,['n'],1,right,['1'],6,97,[-0.09957049],100,53,easy,plus,dotcolour,alfa,,,92,19,V,R,
626,122,38,14,4,27,53,517,['n'],1,right,['1'],6,129,[-0.09593297],100,53,easy,plus,dotcolour,alfa,,,92,19,V,R,
627,123,39,14,4,53,27,766,['c'],1,left,['1'],6,127,[0.03687115],98,53,easy,plus,dotcolour,alfa,,,92,19,V,R,
628,124,40,14,4,47,33,1250,['c'],1,left,['2'],5,129,[0.07475501],100,47,medium,plus,dotcolour,alfa,,,92,19,V,R,
629,125,41,14,4,33,47,767,['n'],1,right,['1'],6,62,[-0.08029345],100,47,medium,plus,dotcolour,alfa,,,92,19,V,R,
630,0,0,15,5,27,53,684,['n'],1,right,['1'],6,75,[-0.07325841],92,53,easy,minus,dotcolour,alfa,,,92,19,V,R,
631,1,1,15,5,44,36,1150,['c'],1,left,['2'],5,139,[0.07222541],85,44,hard,minus,dotcolour,alfa,,,92,19,V,R,
632,2,2,15,5,36,44,883,['n'],1,right,['2'],5,116,[-0.06688707],85,44,hard,minus,dotcolour,alfa,,,92,19,V,R,
633,3,3,15,5,53,27,1000,['c'],1,left,['2'],5,176,[0.15482091],97,53,easy,minus,dotcolour,alfa,,,92,19,V,R,
634,4,4,15,5,53,27,1016,['c'],1,left,['2'],5,122,[0.08520393],90,53,easy,minus,dotcolour,alfa,,,92,19,V,R,
635,5,5,15,5,47,33,850,['c'],1,left,['2'],5,124,[0.09885793],93,47,medium,minus,dotcolour,alfa,,,92,19,V,R,
636,6,6,15,5,47,33,901,['c'],1,left,['2'],5,116,[0.05497897],81,47,medium,minus,dotcolour,alfa,,,92,19,V,R,
637,7,7,15,5,53,27,800,['c'],1,left,['1'],6,129,[0.08797729],90,53,easy,minus,dotcolour,alfa,,,92,19,V,R,
638,8,8,15,5,36,44,867,['n'],1,right,['2'],5,98,[-0.09430588],94,44,hard,minus,dotcolour,alfa,,,92,19,V,R,
639,9,9,15,5,44,36,901,['c'],1,left,['2'],5,99,[0.04482632],78,44,hard,minus,dotcolour,alfa,,,92,19,V,R,
640,10,10,15,5,44,36,849,['n'],0,left,['2'],5,95,[-0.12323514],97,44,hard,minus,dotcolour,alfa,,,92,19,V,R,
641,11,11,15,5,44,36,1100,['n'],0,left,['2'],5,113,[-0.03664893],73,44,hard,minus,dotcolour,alfa,,,92,19,V,R,
642,12,12,15,5,27,53,949,['n'],1,right,['1'],6,111,[-0.05647681],82,53,easy,minus,dotcolour,alfa,,,92,19,V,R,
643,13,13,15,5,53,27,1018,['c'],1,left,['2'],5,83,[0.13984189],99,53,easy,minus,dotcolour,alfa,,,92,19,V,R,
644,14,14,15,5,33,47,1317,['c'],0,right,['2'],5,140,[0.09101389],90,47,medium,minus,dotcolour,alfa,,,92,19,V,R,
645,15,15,15,5,47,33,1133,['n'],0,left,['1'],6,386,[0.05180641],32,47,medium,minus,dotcolour,alfa,,,92,19,V,R,
646,16,16,15,5,27,53,748,['n'],1,right,['1'],6,86,[-0.14052758],99,53,easy,minus,dotcolour,alfa,,,92,19,V,R,
647,17,17,15,5,27,53,684,['n'],1,right,['1'],6,57,[-0.07777813],95,53,easy,minus,dotcolour,alfa,,,92,19,V,R,
648,18,18,15,5,53,27,900,['c'],1,left,['1'],6,148,[0.04220034],73,53,easy,minus,dotcolour,alfa,,,92,19,V,R,
649,19,19,15,5,33,47,751,['n'],1,right,['1'],6,145,[-0.04006891],72,47,medium,minus,dotcolour,alfa,,,92,19,V,R,
650,20,20,15,5,36,44,701,['n'],1,right,['1'],6,65,[-0.07980488],94,44,hard,minus,dotcolour,alfa,,,92,19,V,R,
651,21,21,15,5,47,33,883,['c'],1,left,['2'],5,117,[0.06885853],86,47,medium,minus,dotcolour,alfa,,,92,19,V,R,
652,22,22,15,5,33,47,2867,['n'],1,right,['1'],6,1190,[-0.10922576],71,47,medium,minus,dotcolour,alfa,,,92,19,V,R,
653,23,23,15,5,53,27,1917,['c'],1,left,['2'],5,243,[0.16958971],96,53,easy,minus,dotcolour,alfa,,,92,19,V,R,
654,24,24,15,5,33,47,801,['n'],1,right,['2'],5,171,[-0.08519351],86,47,medium,minus,dotcolour,alfa,,,92,19,V,R,
655,25,25,15,5,36,44,634,['n'],1,right,['1'],6,91,[-0.03503514],74,44,hard,minus,dotcolour,alfa,,,92,19,V,R,
656,26,26,15,5,27,53,500,['n'],1,right,['1'],6,101,[-0.07083313],88,53,easy,minus,dotcolour,alfa,,,92,19,V,R,
657,27,27,15,5,36,44,450,['n'],1,right,['1'],6,104,[-0.10420754],95,44,hard,minus,dotcolour,alfa,,,92,19,V,R,
658,28,28,15,5,44,36,567,['n'],0,left,['1'],6,102,[-0.04220835],77,44,hard,minus,dotcolour,alfa,,,92,19,V,R,
659,29,29,15,5,44,36,667,['n'],0,left,['2'],5,113,[-0.03404884],71,44,hard,minus,dotcolour,alfa,,,92,19,V,R,
660,30,30,15,5,44,36,1167,['n'],0,left,['2'],5,120,[-0.06119265],83,44,hard,minus,dotcolour,alfa,,,92,19,V,R,
661,31,31,15,5,47,33,767,['n'],0,left,['2'],5,133,[-0.03348754],70,47,medium,minus,dotcolour,alfa,,,92,19,V,R,
662,32,32,15,5,33,47,666,['n'],1,right,['2'],5,327,[-0.18380463],95,47,medium,minus,dotcolour,alfa,,,92,19,V,R,
663,33,33,15,5,53,27,900,['c'],1,left,['1'],6,223,[0.06591948],78,53,easy,minus,dotcolour,alfa,,,92,19,V,R,
664,34,34,15,5,33,47,817,['n'],1,right,['1'],6,54,[-0.0819053],96,47,medium,minus,dotcolour,alfa,,,92,19,V,R,
665,35,35,15,5,27,53,717,['n'],1,right,['1'],6,97,[-0.07732015],90,53,easy,minus,dotcolour,alfa,,,92,19,V,R,
666,36,36,15,5,27,53,1483,['n'],1,right,['3'],4,107,[-0.10915985],95,53,easy,minus,dotcolour,alfa,,,92,19,V,R,
667,37,37,15,5,36,44,650,['n'],1,right,['1'],6,109,[-0.05959849],84,44,hard,minus,dotcolour,alfa,,,92,19,V,R,
668,38,38,15,5,47,33,1284,['c'],1,left,['2'],5,343,[0.10986072],84,47,medium,minus,dotcolour,alfa,,,92,19,V,R,
669,39,39,15,5,33,47,850,['n'],1,right,['2'],5,56,[-0.06528017],92,47,medium,minus,dotcolour,alfa,,,92,19,V,R,
670,40,40,15,5,36,44,1433,['n'],1,right,['2'],5,270,[0.00217168],49,44,hard,minus,dotcolour,alfa,,,92,19,V,R,
671,41,41,15,5,47,33,868,['c'],1,left,['1'],6,226,[0.13490965],93,47,medium,minus,dotcolour,alfa,,,92,19,V,R,
672,42,0,16,5,33,47,1968,['n'],1,right,['1'],6,172,[-0.13267437],95,47,medium,minus,dotcolour,alfa,,,92,19,V,R,
673,43,1,16,5,33,47,767,['n'],1,right,['1'],6,137,[-0.06336867],82,47,medium,minus,dotcolour,alfa,,,92,19,V,R,
674,44,2,16,5,36,44,850,['n'],1,right,['1'],6,131,[-0.0549447],80,44,hard,minus,dotcolour,alfa,,,92,19,V,R,
675,45,3,16,5,53,27,833,['c'],1,left,['1'],6,165,[0.17074266],98,53,easy,minus,dotcolour,alfa,,,92,19,V,R,
676,46,4,16,5,27,53,584,['n'],1,right,['1'],6,113,[-0.10890699],95,53,easy,minus,dotcolour,alfa,,,92,19,V,R,
677,47,5,16,5,27,53,567,['n'],1,right,['1'],6,95,[-0.04050929],77,53,easy,minus,dotcolour,alfa,,,92,19,V,R,
678,48,6,16,5,36,44,500,['n'],1,right,['1'],6,88,[-0.07907484],92,44,hard,minus,dotcolour,alfa,,,92,19,V,R,
679,49,7,16,5,36,44,568,['n'],1,right,['1'],6,159,[0.00550177],47,44,hard,minus,dotcolour,alfa,,,92,19,V,R,
680,50,8,16,5,53,27,700,['c'],1,left,['1'],6,222,[0.12734266],92,53,easy,minus,dotcolour,alfa,,,92,19,V,R,
681,51,9,16,5,27,53,684,['n'],1,right,['1'],6,107,[-0.06282187],85,53,easy,minus,dotcolour,alfa,,,92,19,V,R,
682,52,10,16,5,33,47,684,['n'],1,right,['1'],6,100,[-0.11234443],96,47,medium,minus,dotcolour,alfa,,,92,19,V,R,
683,53,11,16,5,47,33,1317,['n'],0,left,['1'],6,85,[-0.05121839],83,47,medium,minus,dotcolour,alfa,,,92,19,V,R,
684,54,12,16,5,33,47,617,['n'],1,right,['1'],6,66,[-0.05944965],89,47,medium,minus,dotcolour,alfa,,,92,19,V,R,
685,55,13,16,5,33,47,1050,['n'],1,right,['1'],6,24,[-0.10495511],100,47,medium,minus,dotcolour,alfa,,,92,19,V,R,
686,56,14,16,5,53,27,717,['c'],1,left,['1'],6,92,[0.08557367],93,53,easy,minus,dotcolour,alfa,,,92,19,V,R,
687,57,15,16,5,47,33,1134,['c'],1,left,['1'],6,171,[0.16849554],98,47,medium,minus,dotcolour,alfa,,,92,19,V,R,
688,58,16,16,5,44,36,1067,['c'],1,left,['2'],5,115,[0.04597926],77,44,hard,minus,dotcolour,alfa,,,92,19,V,R,
689,59,17,16,5,27,53,716,['n'],1,right,['1'],6,44,[-0.06278507],94,53,easy,minus,dotcolour,alfa,,,92,19,V,R,
690,60,18,16,5,33,47,867,['n'],1,right,['1'],6,88,[-0.14379848],99,47,medium,minus,dotcolour,alfa,,,92,19,V,R,
691,61,19,16,5,47,33,1017,['c'],1,left,['1'],6,117,[0.07191787],87,47,medium,minus,dotcolour,alfa,,,92,19,V,R,
692,62,20,16,5,36,44,750,['n'],1,right,['2'],5,108,[-0.1076151],95,44,hard,minus,dotcolour,alfa,,,92,19,V,R,
693,63,21,16,5,36,44,850,['n'],1,right,['2'],5,86,[-0.09677861],95,44,hard,minus,dotcolour,alfa,,,92,19,V,R,
694,64,22,16,5,47,33,833,['c'],1,left,['2'],5,99,[0.05044802],81,47,medium,minus,dotcolour,alfa,,,92,19,V,R,
695,65,23,16,5,47,33,967,['c'],1,left,['2'],5,106,[0.07129976],88,47,medium,minus,dotcolour,alfa,,,92,19,V,R,
696,66,24,16,5,53,27,999,['c'],1,left,['1'],6,104,[0.05055218],80,53,easy,minus,dotcolour,alfa,,,92,19,V,R,
697,67,25,16,5,27,53,2385,['n'],1,right,['1'],6,77,[-0.09365878],95,53,easy,minus,dotcolour,alfa,,,92,19,V,R,
698,68,26,16,5,53,27,1033,['c'],1,left,['2'],5,514,[0.1467604],86,53,easy,minus,dotcolour,alfa,,,92,19,V,R,
699,69,27,16,5,47,33,967,['c'],1,left,['2'],5,152,[-0.00673367],46,47,medium,minus,dotcolour,alfa,,,92,19,V,R,
700,70,28,16,5,47,33,767,['c'],1,left,['2'],5,132,[0.06802973],84,47,medium,minus,dotcolour,alfa,,,92,19,V,R,
701,71,29,16,5,36,44,600,['n'],1,right,['1'],6,120,[-0.07966789],89,44,hard,minus,dotcolour,alfa,,,92,19,V,R,
702,72,30,16,5,53,27,616,['c'],1,left,['1'],6,212,[0.01267821],56,53,easy,minus,dotcolour,alfa,,,92,19,V,R,
703,73,31,16,5,44,36,649,['c'],1,left,['1'],6,163,[0.08555306],87,44,hard,minus,dotcolour,alfa,,,92,19,V,R,
704,74,32,16,5,53,27,599,['c'],1,left,['1'],6,117,[0.06554113],85,53,easy,minus,dotcolour,alfa,,,92,19,V,R,
705,75,33,16,5,44,36,717,['n'],0,left,['1'],6,102,[-0.09168868],93,44,hard,minus,dotcolour,alfa,,,92,19,V,R,
706,76,34,16,5,44,36,833,['c'],1,left,['2'],5,146,[0.05581195],79,44,hard,minus,dotcolour,alfa,,,92,19,V,R,
707,77,35,16,5,44,36,951,['n'],0,left,['1'],6,207,[-0.11118332],90,44,hard,minus,dotcolour,alfa,,,92,19,V,R,
708,78,36,16,5,27,53,817,['n'],1,right,['1'],6,128,[-0.1099796],94,53,easy,minus,dotcolour,alfa,,,92,19,V,R,
709,79,37,16,5,36,44,617,['n'],1,right,['1'],6,82,[-0.06869459],90,44,hard,minus,dotcolour,alfa,,,92,19,V,R,
710,80,38,16,5,33,47,816,['n'],1,right,['1'],6,144,[-0.15332678],97,47,medium,minus,dotcolour,alfa,,,92,19,V,R,
711,81,39,16,5,44,36,1067,['c'],1,left,['1'],6,224,[-0.00417554],48,44,hard,minus,dotcolour,alfa,,,92,19,V,R,
712,82,40,16,5,44,36,1034,['n'],0,left,['2'],5,103,[-0.07659151],90,44,hard,minus,dotcolour,alfa,,,92,19,V,R,
713,83,41,16,5,27,53,784,['n'],1,right,['1'],6,93,[-0.09891143],95,53,easy,minus,dotcolour,alfa,,,92,19,V,R,
714,84,0,17,5,53,27,901,['c'],1,left,['1'],6,157,[0.09973098],91,53,easy,minus,dotcolour,alfa,,,92,19,V,R,
715,85,1,17,5,33,47,950,['n'],1,right,['1'],6,73,[-0.08500097],94,47,medium,minus,dotcolour,alfa,,,92,19,V,R,
716,86,2,17,5,33,47,833,['n'],1,right,['1'],6,118,[-0.13084328],97,47,medium,minus,dotcolour,alfa,,,92,19,V,R,
717,87,3,17,5,44,36,1434,['n'],0,left,['2'],5,153,[-0.0119989],57,44,hard,minus,dotcolour,alfa,,,92,19,V,R,
718,88,4,17,5,53,27,801,['c'],1,left,['1'],6,133,[0.09427119],91,53,easy,minus,dotcolour,alfa,,,92,19,V,R,
719,89,5,17,5,53,27,634,['c'],1,left,['1'],6,111,[0.07349436],88,53,easy,minus,dotcolour,alfa,,,92,19,V,R,
720,90,6,17,5,44,36,918,['n'],0,left,['2'],5,119,[-0.09266601],92,44,hard,minus,dotcolour,alfa,,,92,19,V,R,
721,91,7,17,5,33,47,534,['n'],1,right,['1'],6,102,[-0.09368733],93,47,medium,minus,dotcolour,alfa,,,92,19,V,R,
722,92,8,17,5,44,36,1117,['c'],1,left,['2'],5,103,[0.08568992],92,44,hard,minus,dotcolour,alfa,,,92,19,V,R,
723,93,9,17,5,47,33,1035,['c'],1,left,['2'],5,131,[0.03190463],69,47,medium,minus,dotcolour,alfa,,,92,19,V,R,
724,94,10,17,5,36,44,751,['n'],1,right,['1'],6,121,[-0.09451713],92,44,hard,minus,dotcolour,alfa,,,92,19,V,R,
725,95,11,17,5,44,36,700,['c'],1,left,['2'],5,114,[0.12330108],96,44,hard,minus,dotcolour,alfa,,,92,19,V,R,
726,96,12,17,5,33,47,600,['n'],1,right,['1'],6,103,[-0.05214257],81,47,medium,minus,dotcolour,alfa,,,92,19,V,R,
727,97,13,17,5,47,33,617,['n'],0,left,['1'],6,131,[-0.02825108],67,47,medium,minus,dotcolour,alfa,,,92,19,V,R,
728,98,14,17,5,33,47,617,['n'],1,right,['1'],6,102,[-0.08980044],93,47,medium,minus,dotcolour,alfa,,,92,19,V,R,
729,99,15,17,5,47,33,949,['c'],1,left,['2'],5,141,[0.11100418],93,47,medium,minus,dotcolour,alfa,,,92,19,V,R,
730,100,16,17,5,36,44,649,['n'],1,right,['1'],6,88,[-0.08421341],93,44,hard,minus,dotcolour,alfa,,,92,19,V,R,
731,101,17,17,5,44,36,833,['n'],0,left,['2'],5,260,[-0.1456317],93,44,hard,minus,dotcolour,alfa,,,92,19,V,R,
732,102,18,17,5,36,44,1100,['c'],0,right,['2'],5,118,[0.08428903],90,44,hard,minus,dotcolour,alfa,,,92,19,V,R,
733,103,19,17,5,27,53,800,['n'],1,right,['1'],6,91,[-0.1098166],96,53,easy,minus,dotcolour,alfa,,,92,19,V,R,
734,104,20,17,5,44,36,1366,['c'],1,left,['3'],4,178,[0.06488496],80,44,hard,minus,dotcolour,alfa,,,92,19,V,R,
735,105,21,17,5,47,33,900,['n'],0,left,['2'],5,144,[-0.1241411],95,47,medium,minus,dotcolour,alfa,,,92,19,V,R,
736,106,22,17,5,33,47,700,['n'],1,right,['1'],6,95,[-0.04016539],76,47,medium,minus,dotcolour,alfa,,,92,19,V,R,
737,107,23,17,5,47,33,950,['c'],1,left,['2'],5,159,[0.0637235],81,47,medium,minus,dotcolour,alfa,,,92,19,V,R,
738,108,24,17,5,27,53,616,['n'],1,right,['1'],6,120,[-0.01629409],60,53,easy,minus,dotcolour,alfa,,,92,19,V,R,
739,109,25,17,5,27,53,450,['n'],1,right,['1'],6,123,[-0.05813745],82,53,easy,minus,dotcolour,alfa,,,92,19,V,R,
740,110,26,17,5,27,53,700,['n'],1,right,['1'],6,164,[-0.03208268],67,53,easy,minus,dotcolour,alfa,,,92,19,V,R,
741,111,27,17,5,36,44,535,['n'],1,right,['1'],6,81,[-0.07525897],92,44,hard,minus,dotcolour,alfa,,,92,19,V,R,
742,112,28,17,5,36,44,551,['n'],1,right,['1'],6,185,[-0.02748384],64,44,hard,minus,dotcolour,alfa,,,92,19,V,R,
743,113,29,17,5,53,27,950,['c'],1,left,['2'],5,141,[0.09245245],90,53,easy,minus,dotcolour,alfa,,,92,19,V,R,
744,114,30,17,5,33,47,883,['n'],1,right,['2'],5,109,[-0.09685738],93,47,medium,minus,dotcolour,alfa,,,92,19,V,R,
745,115,31,17,5,27,53,617,['n'],1,right,['2'],5,185,[-0.08841889],86,53,easy,minus,dotcolour,alfa,,,92,19,V,R,
746,116,32,17,5,36,44,1400,['c'],0,right,['2'],5,139,[0.04505285],75,44,hard,minus,dotcolour,alfa,,,92,19,V,R,
747,117,33,17,5,44,36,883,['n'],0,left,['2'],5,164,[-0.11737467],93,44,hard,minus,dotcolour,alfa,,,92,19,V,R,
748,118,34,17,5,53,27,833,['c'],1,left,['1'],6,157,[0.0957802],90,53,easy,minus,dotcolour,alfa,,,92,19,V,R,
749,119,35,17,5,27,53,767,['n'],1,right,['2'],5,313,[-0.24027974],98,53,easy,minus,dotcolour,alfa,,,92,19,V,R,
750,120,36,17,5,53,27,884,['c'],1,left,['1'],6,162,[0.04755984],74,53,easy,minus,dotcolour,alfa,,,92,19,V,R,
751,121,37,17,5,27,53,716,['n'],1,right,['1'],6,89,[-0.07462155],90,53,easy,minus,dotcolour,alfa,,,92,19,V,R,
752,122,38,17,5,47,33,966,['c'],1,left,['1'],6,144,[0.16825681],98,47,medium,minus,dotcolour,alfa,,,92,19,V,R,
753,123,39,17,5,53,27,750,['n'],0,left,['9'],2,789,[0.02135683],45,53,easy,minus,dotcolour,alfa,,,92,19,V,R,
754,124,40,17,5,47,33,1050,['c'],1,left,['2'],5,332,[0.09303489],81,47,medium,minus,dotcolour,alfa,,,92,19,V,R,
755,125,41,17,5,36,44,734,['n'],1,right,['1'],6,83,[-0.04427738],80,44,hard,minus,dotcolour,alfa,,,92,19,V,R,
,,,,,,,,,,,,,,,,,,,,,1,ik kreeg een bepaalde tijd veel het antwoord dat ik het 100 procent juist had,92,19,V,R,
,,,,,,,,,,,,,,,,,,,,,2,['g'],92,19,V,R,
,,,,,,,,,,,,,,,,,,,,,3,['g'],92,19,V,R,
,,,,,,,,,,,,,,,,,,,,,5,['5'],92,19,V,R,
