trial,withinphasetrial,withinblocktrial,block,phase,dotsLeft,dotsRight,rt,resp,cor,cresp,conf_press,cj,RTconf,ev,fb,diff,difflevel,condition,task,manip,questionID,questionResp,sub,age,gender,handedness,
0,0,0,0,0,33,47,1800,['n'],1,right,['8'],4,2513,[-0.16139501],71,47,medium,minus,dotcolour,alfa,,,111,18,M,R,
1,1,1,0,0,36,44,1467,['c'],0,right,['8'],4,1994,[-0.13921272],29,44,hard,minus,dotcolour,alfa,,,111,18,M,R,
2,2,2,0,0,36,44,1317,['n'],1,right,['9'],5,1006,[-0.08117601],67,44,hard,minus,dotcolour,alfa,,,111,18,M,R,
3,3,3,0,0,47,33,1201,['c'],1,left,['0'],6,1263,[0.2707562],90,47,medium,minus,dotcolour,alfa,,,111,18,M,R,
4,4,4,0,0,27,53,1232,['n'],1,right,['0'],6,1084,[-0.07743512],66,53,easy,minus,dotcolour,alfa,,,111,18,M,R,
5,5,5,0,0,33,47,1284,['c'],0,right,['9'],5,1550,[-0.07277535],37,47,medium,minus,dotcolour,alfa,,,111,18,M,R,
6,6,6,0,0,53,27,1550,['c'],1,left,['9'],5,2467,[0.56430607],96,53,easy,minus,dotcolour,alfa,,,111,18,M,R,
7,7,7,0,0,47,33,884,['c'],1,left,['9'],5,1245,[0.10304],70,47,medium,minus,dotcolour,alfa,,,111,18,M,R,
8,8,8,0,0,44,36,1667,['c'],1,left,['3'],3,1562,[0.30695035],90,44,hard,minus,dotcolour,alfa,,,111,18,M,R,
9,9,9,0,0,53,27,1366,['c'],1,left,['9'],5,1318,[0.41940454],96,53,easy,minus,dotcolour,alfa,,,111,18,M,R,
10,10,10,0,0,44,36,2250,['n'],0,left,['8'],4,920,[-0.10770946],73,44,hard,minus,dotcolour,alfa,,,111,18,M,R,
11,11,11,0,0,27,53,967,['n'],1,right,['8'],4,1238,[-0.28295029],91,53,easy,minus,dotcolour,alfa,,,111,18,M,R,
12,12,12,0,0,33,47,1633,['c'],0,right,['9'],5,1332,[-0.11467699],29,47,medium,minus,dotcolour,alfa,,,111,18,M,R,
13,13,13,0,0,53,27,934,['c'],1,left,['9'],5,777,[0.09755015],73,53,easy,minus,dotcolour,alfa,,,111,18,M,R,
14,14,14,0,0,27,53,783,['n'],1,right,['0'],6,692,[-0.30152503],96,53,easy,minus,dotcolour,alfa,,,111,18,M,R,
15,15,15,0,0,47,33,817,['c'],1,left,['0'],6,689,[0.05535503],65,47,medium,minus,dotcolour,alfa,,,111,18,M,R,
16,16,16,0,0,33,47,900,['n'],1,right,['9'],5,1899,[-0.00313579],51,47,medium,minus,dotcolour,alfa,,,111,18,M,R,
17,17,17,0,0,27,53,716,['n'],1,right,['9'],5,410,[-0.08536586],77,53,easy,minus,dotcolour,alfa,,,111,18,M,R,
18,18,18,0,0,47,33,1333,['c'],1,left,['0'],6,550,[0.10353166],78,47,medium,minus,dotcolour,alfa,,,111,18,M,R,
19,19,19,0,0,27,53,667,['n'],1,right,['0'],6,838,[-0.16695175],84,53,easy,minus,dotcolour,alfa,,,111,18,M,R,
20,20,20,0,0,27,53,1066,['n'],1,right,['3'],3,1284,[-0.31987307],93,53,easy,minus,dotcolour,alfa,,,111,18,M,R,
21,21,21,0,0,44,36,967,['c'],1,left,['9'],5,642,[0.10905909],77,44,hard,minus,dotcolour,alfa,,,111,18,M,R,
22,22,22,0,0,44,36,1284,['c'],1,left,['8'],4,1150,[0.05989058],62,44,hard,minus,dotcolour,alfa,,,111,18,M,R,
23,23,23,0,0,53,27,833,['c'],1,left,['0'],6,871,[0.25830057],92,53,easy,minus,dotcolour,alfa,,,111,18,M,R,
24,24,24,0,0,44,36,1116,['c'],1,left,['8'],4,576,[0.04133647],62,44,hard,minus,dotcolour,alfa,,,111,18,M,R,
25,25,25,0,0,47,33,1084,['c'],1,left,['8'],4,1664,[0.48831133],97,47,medium,minus,dotcolour,alfa,,,111,18,M,R,
26,26,26,0,0,36,44,951,['n'],1,right,['9'],5,1255,[-0.35790621],95,44,hard,minus,dotcolour,alfa,,,111,18,M,R,
27,27,27,0,0,36,44,2083,['n'],1,right,['8'],4,987,[-0.23563142],89,44,hard,minus,dotcolour,alfa,,,111,18,M,R,
28,28,28,0,0,47,33,800,['c'],1,left,['0'],6,948,[0.1434751],79,47,medium,minus,dotcolour,alfa,,,111,18,M,R,
29,29,29,0,0,47,33,917,['c'],1,left,['9'],5,571,[0.05150919],65,47,medium,minus,dotcolour,alfa,,,111,18,M,R,
30,30,30,0,0,36,44,2233,['n'],1,right,['8'],4,867,[-0.13640999],79,44,hard,minus,dotcolour,alfa,,,111,18,M,R,
31,31,31,0,0,27,53,1000,['n'],1,right,['0'],6,338,[-0.06175529],72,53,easy,minus,dotcolour,alfa,,,111,18,M,R,
32,32,32,0,0,53,27,767,['c'],1,left,['9'],5,439,[0.16846428],91,53,easy,minus,dotcolour,alfa,,,111,18,M,R,
33,33,33,0,0,33,47,949,['n'],1,right,['9'],5,816,[-0.14523757],81,47,medium,minus,dotcolour,alfa,,,111,18,M,R,
34,34,34,0,0,53,27,2950,['c'],1,left,['1'],1,427,[0.09080009],78,53,easy,minus,dotcolour,alfa,,,111,18,M,R,
35,35,35,0,0,36,44,1183,['n'],1,right,['8'],4,892,[-0.394976],98,44,hard,minus,dotcolour,alfa,,,111,18,M,R,
36,36,36,0,0,36,44,3884,['n'],1,right,['9'],5,910,[-0.08997805],70,44,hard,minus,dotcolour,alfa,,,111,18,M,R,
37,37,37,0,0,44,36,666,['c'],1,left,['0'],6,376,[0.17922128],93,44,hard,minus,dotcolour,alfa,,,111,18,M,R,
38,38,38,0,0,53,27,1967,['c'],1,left,['3'],3,939,[0.02352061],55,53,easy,minus,dotcolour,alfa,,,111,18,M,R,
39,39,39,0,0,33,47,4150,['n'],1,right,['9'],5,704,[-0.14901715],83,47,medium,minus,dotcolour,alfa,,,111,18,M,R,
40,40,40,0,0,44,36,634,['c'],1,left,['0'],6,355,[0.08379666],78,44,hard,minus,dotcolour,alfa,,,111,18,M,R,
41,41,41,0,0,33,47,800,['n'],1,right,['8'],4,318,[-0.1342476],89,47,medium,minus,dotcolour,alfa,,,111,18,M,R,
42,42,0,1,0,53,27,950,['c'],1,left,['0'],6,394,[0.12881462],86,53,easy,minus,dotcolour,alfa,,,111,18,M,R,
43,43,1,1,0,36,44,1284,['c'],0,right,['9'],5,576,[-0.00248484],49,44,hard,minus,dotcolour,alfa,,,111,18,M,R,
44,44,2,1,0,53,27,666,['c'],1,left,['0'],6,295,[0.07622787],78,53,easy,minus,dotcolour,alfa,,,111,18,M,R,
45,45,3,1,0,33,47,650,['n'],1,right,['8'],4,586,[-0.11500775],79,47,medium,minus,dotcolour,alfa,,,111,18,M,R,
46,46,4,1,0,33,47,717,['n'],1,right,['0'],6,1135,[-0.21485145],86,47,medium,minus,dotcolour,alfa,,,111,18,M,R,
47,47,5,1,0,47,33,1000,['c'],1,left,['8'],4,1162,[0.34449469],95,47,medium,minus,dotcolour,alfa,,,111,18,M,R,
48,48,6,1,0,44,36,1067,['c'],1,left,['9'],5,418,[0.10281007],81,44,hard,minus,dotcolour,alfa,,,111,18,M,R,
49,49,7,1,0,47,33,1033,['c'],1,left,['0'],6,553,[0.09375677],76,47,medium,minus,dotcolour,alfa,,,111,18,M,R,
50,50,8,1,0,36,44,883,['n'],1,right,['9'],5,425,[-0.10728963],81,44,hard,minus,dotcolour,alfa,,,111,18,M,R,
51,51,9,1,0,53,27,951,['c'],1,left,['0'],6,283,[0.13639061],91,53,easy,minus,dotcolour,alfa,,,111,18,M,R,
52,52,10,1,0,33,47,1117,['n'],1,right,['8'],4,396,[-0.10425271],82,47,medium,minus,dotcolour,alfa,,,111,18,M,R,
53,53,11,1,0,53,27,866,['c'],1,left,['0'],6,227,[0.04196157],69,53,easy,minus,dotcolour,alfa,,,111,18,M,R,
54,54,12,1,0,44,36,1200,['c'],1,left,['9'],5,443,[0.01721772],56,44,hard,minus,dotcolour,alfa,,,111,18,M,R,
55,55,13,1,0,47,33,900,['c'],1,left,['8'],4,390,[-0.01526437],45,47,medium,minus,dotcolour,alfa,,,111,18,M,R,
56,56,14,1,0,33,47,1184,['n'],1,right,['9'],5,600,[-0.01884633],55,47,medium,minus,dotcolour,alfa,,,111,18,M,R,
57,57,15,1,0,44,36,1217,['c'],1,left,['0'],6,465,[0.05198291],67,44,hard,minus,dotcolour,alfa,,,111,18,M,R,
58,58,16,1,0,27,53,834,['n'],1,right,['9'],5,478,[-0.16523406],90,53,easy,minus,dotcolour,alfa,,,111,18,M,R,
59,59,17,1,0,44,36,1049,['c'],1,left,['9'],5,459,[0.01964771],56,44,hard,minus,dotcolour,alfa,,,111,18,M,R,
60,60,18,1,0,44,36,2217,['n'],0,left,['1'],1,673,[0.00955277],47,44,hard,minus,dotcolour,alfa,,,111,18,M,R,
61,61,19,1,0,36,44,2000,['n'],1,right,['8'],4,807,[-0.03508012],59,44,hard,minus,dotcolour,alfa,,,111,18,M,R,
62,62,20,1,0,36,44,1550,['n'],1,right,['2'],2,2417,[-0.39542186],91,44,hard,minus,dotcolour,alfa,,,111,18,M,R,
63,63,21,1,0,33,47,1183,['n'],1,right,['9'],5,746,[-0.19593948],89,47,medium,minus,dotcolour,alfa,,,111,18,M,R,
64,64,22,1,0,53,27,967,['c'],1,left,['0'],6,390,[0.17559044],93,53,easy,minus,dotcolour,alfa,,,111,18,M,R,
65,65,23,1,0,27,53,784,['n'],1,right,['0'],6,888,[-0.15213134],81,53,easy,minus,dotcolour,alfa,,,111,18,M,R,
66,66,24,1,0,27,53,1033,['n'],1,right,['9'],5,477,[-0.09513726],78,53,easy,minus,dotcolour,alfa,,,111,18,M,R,
67,67,25,1,0,36,44,2299,['c'],0,right,['8'],4,1087,[-0.05685434],38,44,hard,minus,dotcolour,alfa,,,111,18,M,R,
68,68,26,1,0,27,53,834,['n'],1,right,['0'],6,379,[-0.10194103],82,53,easy,minus,dotcolour,alfa,,,111,18,M,R,
69,69,27,1,0,27,53,649,['n'],1,right,['0'],6,499,[-0.11118661],80,53,easy,minus,dotcolour,alfa,,,111,18,M,R,
70,70,28,1,0,36,44,833,['c'],0,right,['1'],1,63,[0.04259206],82,44,hard,minus,dotcolour,alfa,,,111,18,M,R,
71,71,29,1,0,47,33,668,['c'],1,left,['9'],5,307,[0.15438275],92,47,medium,minus,dotcolour,alfa,,,111,18,M,R,
72,72,30,1,0,33,47,750,['n'],1,right,['0'],6,409,[-0.1718263],92,47,medium,minus,dotcolour,alfa,,,111,18,M,R,
73,73,31,1,0,33,47,1034,['n'],1,right,['8'],4,697,[-0.15450137],84,47,medium,minus,dotcolour,alfa,,,111,18,M,R,
74,74,32,1,0,36,44,1634,['c'],0,right,['9'],5,541,[0.1254892],82,44,hard,minus,dotcolour,alfa,,,111,18,M,R,
75,75,33,1,0,47,33,900,['c'],1,left,['9'],5,516,[0.07865652],73,47,medium,minus,dotcolour,alfa,,,111,18,M,R,
76,76,34,1,0,27,53,649,['n'],1,right,['0'],6,311,[-0.13928617],90,53,easy,minus,dotcolour,alfa,,,111,18,M,R,
77,77,35,1,0,53,27,717,['c'],1,left,['9'],5,343,[0.19852665],95,53,easy,minus,dotcolour,alfa,,,111,18,M,R,
78,78,36,1,0,47,33,1067,['c'],1,left,['9'],5,335,[0.10832602],84,47,medium,minus,dotcolour,alfa,,,111,18,M,R,
79,79,37,1,0,47,33,984,['c'],1,left,['0'],6,460,[0.12840409],85,47,medium,minus,dotcolour,alfa,,,111,18,M,R,
80,80,38,1,0,44,36,734,['c'],1,left,['9'],5,325,[0.01925741],58,44,hard,minus,dotcolour,alfa,,,111,18,M,R,
81,81,39,1,0,53,27,667,['c'],1,left,['0'],6,287,[0.14755162],92,53,easy,minus,dotcolour,alfa,,,111,18,M,R,
82,82,40,1,0,44,36,1368,['c'],1,left,['9'],5,846,[0.13675528],79,44,hard,minus,dotcolour,alfa,,,111,18,M,R,
83,83,41,1,0,27,53,883,['n'],1,right,['0'],6,354,[-0.26400783],98,53,easy,minus,dotcolour,alfa,,,111,18,M,R,
84,84,0,2,0,27,53,700,['n'],1,right,['0'],6,288,[-0.14693411],92,53,easy,minus,dotcolour,alfa,,,111,18,M,R,
85,85,1,2,0,47,33,683,['c'],1,left,['0'],6,178,[0.07757686],84,47,medium,minus,dotcolour,alfa,,,111,18,M,R,
86,86,2,2,0,47,33,783,['c'],1,left,['0'],6,149,[0.11188634],93,47,medium,minus,dotcolour,alfa,,,111,18,M,R,
87,87,3,2,0,53,27,617,['c'],1,left,['0'],6,223,[0.17593671],97,53,easy,minus,dotcolour,alfa,,,111,18,M,R,
88,88,4,2,0,27,53,567,['n'],1,right,['0'],6,241,[-0.07917076],81,53,easy,minus,dotcolour,alfa,,,111,18,M,R,
89,89,5,2,0,53,27,650,['c'],1,left,['0'],6,118,[0.12504277],96,53,easy,minus,dotcolour,alfa,,,111,18,M,R,
90,90,6,2,0,27,53,617,['n'],1,right,['0'],6,146,[-0.09542165],90,53,easy,minus,dotcolour,alfa,,,111,18,M,R,
91,91,7,2,0,53,27,584,['c'],1,left,['0'],6,142,[0.1415102],97,53,easy,minus,dotcolour,alfa,,,111,18,M,R,
92,92,8,2,0,44,36,734,['n'],0,left,['9'],5,293,[-0.02266278],59,44,hard,minus,dotcolour,alfa,,,111,18,M,R,
93,93,9,2,0,47,33,601,['c'],1,left,['9'],5,298,[0.10666736],85,47,medium,minus,dotcolour,alfa,,,111,18,M,R,
94,94,10,2,0,33,47,833,['n'],1,right,['0'],6,166,[-0.08491308],87,47,medium,minus,dotcolour,alfa,,,111,18,M,R,
95,95,11,2,0,44,36,1000,['c'],1,left,['8'],4,504,[0.0805581],74,44,hard,minus,dotcolour,alfa,,,111,18,M,R,
96,96,12,2,0,27,53,782,['n'],1,right,['0'],6,221,[-0.2201301],99,53,easy,minus,dotcolour,alfa,,,111,18,M,R,
97,97,13,2,0,53,27,683,['c'],1,left,['0'],6,91,[0.09346002],94,53,easy,minus,dotcolour,alfa,,,111,18,M,R,
98,98,14,2,0,33,47,650,['n'],1,right,['0'],6,206,[-0.11252507],90,47,medium,minus,dotcolour,alfa,,,111,18,M,R,
99,99,15,2,0,33,47,766,['n'],1,right,['9'],5,280,[-0.074623],78,47,medium,minus,dotcolour,alfa,,,111,18,M,R,
100,100,16,2,0,47,33,767,['c'],1,left,['9'],5,792,[0.08844951],71,47,medium,minus,dotcolour,alfa,,,111,18,M,R,
101,101,17,2,0,33,47,617,['n'],1,right,['9'],5,320,[-0.15475617],92,47,medium,minus,dotcolour,alfa,,,111,18,M,R,
102,102,18,2,0,36,44,700,['n'],1,right,['0'],6,241,[-0.06100709],75,44,hard,minus,dotcolour,alfa,,,111,18,M,R,
103,103,19,2,0,27,53,683,['n'],1,right,['0'],6,325,[-0.18324233],95,53,easy,minus,dotcolour,alfa,,,111,18,M,R,
104,104,20,2,0,33,47,633,['n'],1,right,['0'],6,288,[-0.09531888],83,47,medium,minus,dotcolour,alfa,,,111,18,M,R,
105,105,21,2,0,47,33,850,['c'],1,left,['9'],5,300,[-0.00139504],49,47,medium,minus,dotcolour,alfa,,,111,18,M,R,
106,106,22,2,0,44,36,849,['n'],0,left,['9'],5,271,[-0.07677148],79,44,hard,minus,dotcolour,alfa,,,111,18,M,R,
107,107,23,2,0,36,44,834,['n'],1,right,['9'],5,861,[-0.10907586],74,44,hard,minus,dotcolour,alfa,,,111,18,M,R,
108,108,24,2,0,36,44,799,['n'],1,right,['8'],4,387,[-0.09737498],80,44,hard,minus,dotcolour,alfa,,,111,18,M,R,
109,109,25,2,0,53,27,749,['c'],1,left,['0'],6,95,[0.03543052],74,53,easy,minus,dotcolour,alfa,,,111,18,M,R,
110,110,26,2,0,47,33,600,['c'],1,left,['0'],6,188,[0.13928334],95,47,medium,minus,dotcolour,alfa,,,111,18,M,R,
111,111,27,2,0,36,44,767,['n'],1,right,['9'],5,400,[-0.09271648],79,44,hard,minus,dotcolour,alfa,,,111,18,M,R,
112,112,28,2,0,33,47,650,['n'],1,right,['8'],4,839,[-0.33282408],96,47,medium,minus,dotcolour,alfa,,,111,18,M,R,
113,113,29,2,0,33,47,783,['n'],1,right,['8'],4,255,[-0.08430818],82,47,medium,minus,dotcolour,alfa,,,111,18,M,R,
114,114,30,2,0,36,44,717,['n'],1,right,['0'],6,354,[-0.08568247],79,44,hard,minus,dotcolour,alfa,,,111,18,M,R,
115,115,31,2,0,44,36,684,['c'],1,left,['0'],6,257,[0.1014087],86,44,hard,minus,dotcolour,alfa,,,111,18,M,R,
116,116,32,2,0,27,53,800,['n'],1,right,['9'],5,336,[-0.13481349],89,53,easy,minus,dotcolour,alfa,,,111,18,M,R,
117,117,33,2,0,36,44,816,['n'],1,right,['9'],5,267,[-0.16610015],95,44,hard,minus,dotcolour,alfa,,,111,18,M,R,
118,118,34,2,0,27,53,867,['n'],1,right,['8'],4,335,[-0.08633734],79,53,easy,minus,dotcolour,alfa,,,111,18,M,R,
119,119,35,2,0,44,36,550,['c'],1,left,['8'],4,269,[0.03234771],64,44,hard,minus,dotcolour,alfa,,,111,18,M,R,
120,120,36,2,0,44,36,667,['c'],1,left,['9'],5,226,[0.09815186],87,44,hard,minus,dotcolour,alfa,,,111,18,M,R,
121,121,37,2,0,53,27,617,['c'],1,left,['0'],6,288,[0.22118399],98,53,easy,minus,dotcolour,alfa,,,111,18,M,R,
122,122,38,2,0,47,33,933,['c'],1,left,['8'],4,297,[0.10405175],85,47,medium,minus,dotcolour,alfa,,,111,18,M,R,
123,123,39,2,0,53,27,716,['c'],1,left,['0'],6,154,[0.09888713],91,53,easy,minus,dotcolour,alfa,,,111,18,M,R,
124,124,40,2,0,44,36,617,['c'],1,left,['8'],4,628,[-0.00981899],47,44,hard,minus,dotcolour,alfa,,,111,18,M,R,
125,125,41,2,0,36,44,1133,['n'],1,right,['0'],6,175,[-0.08743388],87,44,hard,minus,dotcolour,alfa,,,111,18,M,R,
126,0,0,3,1,53,27,917,['c'],1,left,['0'],6,271,[0.1117383],100,53,easy,plus,dotcolour,alfa,,,111,18,M,R,
127,1,1,3,1,33,47,466,['n'],1,right,['0'],6,155,[-0.02969008],94,47,medium,plus,dotcolour,alfa,,,111,18,M,R,
128,2,2,3,1,36,44,866,['n'],1,right,['3'],3,1324,[-0.20823003],100,44,hard,plus,dotcolour,alfa,,,111,18,M,R,
129,3,3,3,1,27,53,984,['n'],1,right,['0'],6,224,[-0.10518948],100,53,easy,plus,dotcolour,alfa,,,111,18,M,R,
130,4,4,3,1,27,53,516,['n'],1,right,['0'],6,195,[-0.11570144],100,53,easy,plus,dotcolour,alfa,,,111,18,M,R,
131,5,5,3,1,36,44,533,['n'],1,right,['9'],5,503,[-0.00455877],56,44,hard,plus,dotcolour,alfa,,,111,18,M,R,
132,6,6,3,1,27,53,718,['n'],1,right,['0'],6,120,[-0.09740618],100,53,easy,plus,dotcolour,alfa,,,111,18,M,R,
133,7,7,3,1,53,27,734,['c'],1,left,['0'],6,351,[0.18321373],100,53,easy,plus,dotcolour,alfa,,,111,18,M,R,
134,8,8,3,1,53,27,667,['c'],1,left,['0'],6,135,[0.03263287],96,53,easy,plus,dotcolour,alfa,,,111,18,M,R,
135,9,9,3,1,44,36,983,['c'],1,left,['8'],4,660,[0.16206057],100,44,hard,plus,dotcolour,alfa,,,111,18,M,R,
136,10,10,3,1,47,33,751,['c'],1,left,['8'],4,653,[0.1936332],100,47,medium,plus,dotcolour,alfa,,,111,18,M,R,
137,11,11,3,1,36,44,867,['n'],1,right,['0'],6,241,[-0.01358194],73,44,hard,plus,dotcolour,alfa,,,111,18,M,R,
138,12,12,3,1,47,33,883,['c'],1,left,['9'],5,254,[0.07980791],100,47,medium,plus,dotcolour,alfa,,,111,18,M,R,
139,13,13,3,1,47,33,567,['c'],1,left,['9'],5,189,[0.10013463],100,47,medium,plus,dotcolour,alfa,,,111,18,M,R,
140,14,14,3,1,27,53,584,['n'],1,right,['9'],5,272,[-0.06957952],99,53,easy,plus,dotcolour,alfa,,,111,18,M,R,
141,15,15,3,1,27,53,1032,['n'],1,right,['8'],4,444,[-0.1976096],100,53,easy,plus,dotcolour,alfa,,,111,18,M,R,
142,16,16,3,1,44,36,984,['c'],1,left,['9'],5,292,[0.0151592],73,44,hard,plus,dotcolour,alfa,,,111,18,M,R,
143,17,17,3,1,53,27,900,['c'],1,left,['9'],5,190,[-0.02240779],14,53,easy,plus,dotcolour,alfa,,,111,18,M,R,
144,18,18,3,1,44,36,1215,['c'],1,left,['8'],4,1407,[0.07549918],91,44,hard,plus,dotcolour,alfa,,,111,18,M,R,
145,19,19,3,1,33,47,917,['c'],0,right,['2'],2,1506,[-0.03103392],29,47,medium,plus,dotcolour,alfa,,,111,18,M,R,
146,20,20,3,1,47,33,700,['c'],1,left,['9'],5,827,[0.32383306],100,47,medium,plus,dotcolour,alfa,,,111,18,M,R,
147,21,21,3,1,36,44,1034,['n'],1,right,['0'],6,274,[-0.04326584],95,44,hard,plus,dotcolour,alfa,,,111,18,M,R,
148,22,22,3,1,47,33,1067,['c'],1,left,['8'],4,397,[0.03684878],89,47,medium,plus,dotcolour,alfa,,,111,18,M,R,
149,23,23,3,1,44,36,766,['c'],1,left,['9'],5,464,[0.0977068],99,44,hard,plus,dotcolour,alfa,,,111,18,M,R,
150,24,24,3,1,44,36,1217,['c'],1,left,['9'],5,326,[-0.01843164],24,44,hard,plus,dotcolour,alfa,,,111,18,M,R,
151,25,25,3,1,36,44,1383,['c'],0,right,['8'],4,306,[-0.00574859],41,44,hard,plus,dotcolour,alfa,,,111,18,M,R,
152,26,26,3,1,27,53,817,['n'],1,right,['0'],6,190,[-0.12343322],100,53,easy,plus,dotcolour,alfa,,,111,18,M,R,
153,27,27,3,1,36,44,1849,['n'],1,right,['8'],4,622,[0.01713006],31,44,hard,plus,dotcolour,alfa,,,111,18,M,R,
154,28,28,3,1,33,47,916,['n'],1,right,['8'],4,1457,[-0.23241115],100,47,medium,plus,dotcolour,alfa,,,111,18,M,R,
155,29,29,3,1,44,36,699,['c'],1,left,['9'],5,452,[0.1253991],100,44,hard,plus,dotcolour,alfa,,,111,18,M,R,
156,30,30,3,1,53,27,850,['c'],1,left,['0'],6,729,[0.26587673],100,53,easy,plus,dotcolour,alfa,,,111,18,M,R,
157,31,31,3,1,44,36,1617,['c'],1,left,['8'],4,773,[0.15112322],100,44,hard,plus,dotcolour,alfa,,,111,18,M,R,
158,32,32,3,1,47,33,717,['c'],1,left,['9'],5,666,[0.23721679],100,47,medium,plus,dotcolour,alfa,,,111,18,M,R,
159,33,33,3,1,53,27,617,['c'],1,left,['0'],6,240,[0.06905573],99,53,easy,plus,dotcolour,alfa,,,111,18,M,R,
160,34,34,3,1,53,27,650,['c'],1,left,['9'],5,270,[0.10535764],100,53,easy,plus,dotcolour,alfa,,,111,18,M,R,
161,35,35,3,1,47,33,1083,['n'],0,left,['9'],5,425,[-0.09131799],99,47,medium,plus,dotcolour,alfa,,,111,18,M,R,
162,36,36,3,1,33,47,1084,['n'],1,right,['8'],4,1117,[-0.16679394],100,47,medium,plus,dotcolour,alfa,,,111,18,M,R,
163,37,37,3,1,36,44,1049,['n'],1,right,['9'],5,287,[-0.05851435],98,44,hard,plus,dotcolour,alfa,,,111,18,M,R,
164,38,38,3,1,33,47,750,['n'],1,right,['0'],6,351,[-0.0679037],98,47,medium,plus,dotcolour,alfa,,,111,18,M,R,
165,39,39,3,1,33,47,1099,['n'],1,right,['9'],5,279,[-0.07970428],100,47,medium,plus,dotcolour,alfa,,,111,18,M,R,
166,40,40,3,1,27,53,850,['n'],1,right,['9'],5,298,[-0.17883775],100,53,easy,plus,dotcolour,alfa,,,111,18,M,R,
167,41,41,3,1,33,47,2733,['c'],0,right,['8'],4,571,[-0.0631762],5,47,medium,plus,dotcolour,alfa,,,111,18,M,R,
168,42,0,4,1,47,33,618,['c'],1,left,['0'],6,315,[0.07365276],99,47,medium,plus,dotcolour,alfa,,,111,18,M,R,
169,43,1,4,1,33,47,601,['n'],1,right,['9'],5,240,[-0.03397027],92,47,medium,plus,dotcolour,alfa,,,111,18,M,R,
170,44,2,4,1,27,53,616,['n'],1,right,['0'],6,239,[-0.15583009],100,53,easy,plus,dotcolour,alfa,,,111,18,M,R,
171,45,3,4,1,36,44,600,['n'],1,right,['0'],6,198,[-0.14860409],100,44,hard,plus,dotcolour,alfa,,,111,18,M,R,
172,46,4,4,1,27,53,485,['n'],1,right,['0'],6,180,[-0.02103582],86,53,easy,plus,dotcolour,alfa,,,111,18,M,R,
173,47,5,4,1,27,53,483,['n'],1,right,['0'],6,187,[-0.14260612],100,53,easy,plus,dotcolour,alfa,,,111,18,M,R,
174,48,6,4,1,47,33,834,['c'],1,left,['0'],6,211,[0.05248598],98,47,medium,plus,dotcolour,alfa,,,111,18,M,R,
175,49,7,4,1,53,27,683,['c'],1,left,['9'],5,177,[0.06930062],100,53,easy,plus,dotcolour,alfa,,,111,18,M,R,
176,50,8,4,1,44,36,734,['n'],0,left,['8'],4,1270,[-0.12299906],98,44,hard,plus,dotcolour,alfa,,,111,18,M,R,
177,51,9,4,1,36,44,1034,['n'],1,right,['9'],5,482,[-0.18329983],100,44,hard,plus,dotcolour,alfa,,,111,18,M,R,
178,52,10,4,1,53,27,500,['c'],1,left,['0'],6,132,[0.0690342],100,53,easy,plus,dotcolour,alfa,,,111,18,M,R,
179,53,11,4,1,27,53,534,['n'],1,right,['0'],6,179,[-0.1161631],100,53,easy,plus,dotcolour,alfa,,,111,18,M,R,
180,54,12,4,1,33,47,600,['n'],1,right,['0'],6,357,[-0.15604742],100,47,medium,plus,dotcolour,alfa,,,111,18,M,R,
181,55,13,4,1,27,53,684,['n'],1,right,['0'],6,380,[-0.20519582],100,53,easy,plus,dotcolour,alfa,,,111,18,M,R,
182,56,14,4,1,33,47,533,['n'],1,right,['0'],6,257,[-0.08925021],100,47,medium,plus,dotcolour,alfa,,,111,18,M,R,
183,57,15,4,1,47,33,1200,['c'],1,left,['0'],6,456,[0.11930494],100,47,medium,plus,dotcolour,alfa,,,111,18,M,R,
184,58,16,4,1,44,36,1184,['c'],1,left,['0'],6,216,[0.04234789],96,44,hard,plus,dotcolour,alfa,,,111,18,M,R,
185,59,17,4,1,47,33,766,['c'],1,left,['0'],6,281,[0.17037858],100,47,medium,plus,dotcolour,alfa,,,111,18,M,R,
186,60,18,4,1,44,36,1051,['c'],1,left,['9'],5,228,[-0.00248609],45,44,hard,plus,dotcolour,alfa,,,111,18,M,R,
187,61,19,4,1,44,36,934,['c'],1,left,['9'],5,391,[0.07421789],99,44,hard,plus,dotcolour,alfa,,,111,18,M,R,
188,62,20,4,1,53,27,833,['c'],1,left,['0'],6,208,[0.07181226],100,53,easy,plus,dotcolour,alfa,,,111,18,M,R,
189,63,21,4,1,53,27,717,['c'],1,left,['0'],6,188,[0.05376672],99,53,easy,plus,dotcolour,alfa,,,111,18,M,R,
190,64,22,4,1,44,36,1017,['c'],1,left,['8'],4,237,[0.14459585],100,44,hard,plus,dotcolour,alfa,,,111,18,M,R,
191,65,23,4,1,33,47,1067,['n'],1,right,['8'],4,314,[-0.05281546],97,47,medium,plus,dotcolour,alfa,,,111,18,M,R,
192,66,24,4,1,27,53,784,['n'],1,right,['0'],6,416,[-0.07284874],98,53,easy,plus,dotcolour,alfa,,,111,18,M,R,
193,67,25,4,1,36,44,817,['c'],0,right,['8'],4,264,[0.20248248],100,44,hard,plus,dotcolour,alfa,,,111,18,M,R,
194,68,26,4,1,47,33,833,['c'],1,left,['9'],5,197,[0.1296257],100,47,medium,plus,dotcolour,alfa,,,111,18,M,R,
195,69,27,4,1,36,44,1284,['c'],0,right,['9'],5,323,[0.00072575],51,44,hard,plus,dotcolour,alfa,,,111,18,M,R,
196,70,28,4,1,53,27,767,['c'],1,left,['9'],5,296,[0.10147089],100,53,easy,plus,dotcolour,alfa,,,111,18,M,R,
197,71,29,4,1,53,27,599,['c'],1,left,['0'],6,254,[0.12809536],100,53,easy,plus,dotcolour,alfa,,,111,18,M,R,
198,72,30,4,1,47,33,883,['c'],1,left,['0'],6,194,[0.08130168],100,47,medium,plus,dotcolour,alfa,,,111,18,M,R,
199,73,31,4,1,44,36,1050,['c'],1,left,['9'],5,201,[0.09454067],100,44,hard,plus,dotcolour,alfa,,,111,18,M,R,
200,74,32,4,1,33,47,850,['n'],1,right,['0'],6,257,[-0.12024473],100,47,medium,plus,dotcolour,alfa,,,111,18,M,R,
201,75,33,4,1,36,44,783,['n'],1,right,['0'],6,208,[-0.1336491],100,44,hard,plus,dotcolour,alfa,,,111,18,M,R,
202,76,34,4,1,27,53,916,['n'],1,right,['0'],6,220,[-0.07137015],100,53,easy,plus,dotcolour,alfa,,,111,18,M,R,
203,77,35,4,1,44,36,767,['c'],1,left,['0'],6,230,[0.15416895],100,44,hard,plus,dotcolour,alfa,,,111,18,M,R,
204,78,36,4,1,33,47,666,['n'],1,right,['0'],6,163,[-0.15372947],100,47,medium,plus,dotcolour,alfa,,,111,18,M,R,
205,79,37,4,1,36,44,766,['n'],1,right,['0'],6,175,[-0.0270268],91,44,hard,plus,dotcolour,alfa,,,111,18,M,R,
206,80,38,4,1,36,44,850,['c'],0,right,['9'],5,215,[0.01560991],77,44,hard,plus,dotcolour,alfa,,,111,18,M,R,
207,81,39,4,1,47,33,1485,['c'],1,left,['8'],4,429,[0.05522527],95,47,medium,plus,dotcolour,alfa,,,111,18,M,R,
208,82,40,4,1,53,27,617,['c'],1,left,['9'],5,284,[0.15880454],100,53,easy,plus,dotcolour,alfa,,,111,18,M,R,
209,83,41,4,1,33,47,1250,['n'],1,right,['9'],5,272,[-0.10287247],100,47,medium,plus,dotcolour,alfa,,,111,18,M,R,
210,84,0,5,1,47,33,618,['c'],1,left,['8'],4,306,[0.11567087],100,47,medium,plus,dotcolour,alfa,,,111,18,M,R,
211,85,1,5,1,53,27,783,['c'],1,left,['9'],5,328,[0.0725576],99,53,easy,plus,dotcolour,alfa,,,111,18,M,R,
212,86,2,5,1,36,44,1483,['n'],1,right,['8'],4,241,[-0.09757799],100,44,hard,plus,dotcolour,alfa,,,111,18,M,R,
213,87,3,5,1,33,47,1417,['c'],0,right,['3'],3,975,[-0.04061009],19,47,medium,plus,dotcolour,alfa,,,111,18,M,R,
214,88,4,5,1,44,36,751,['c'],1,left,['9'],5,620,[0.05223349],92,44,hard,plus,dotcolour,alfa,,,111,18,M,R,
215,89,5,5,1,33,47,867,['c'],0,right,['9'],5,809,[0.08493314],97,47,medium,plus,dotcolour,alfa,,,111,18,M,R,
216,90,6,5,1,44,36,900,['c'],1,left,['9'],5,421,[0.013456],68,44,hard,plus,dotcolour,alfa,,,111,18,M,R,
217,91,7,5,1,47,33,1717,['n'],0,left,['9'],5,881,[-0.16961878],100,47,medium,plus,dotcolour,alfa,,,111,18,M,R,
218,92,8,5,1,27,53,733,['n'],1,right,['0'],6,185,[-0.1493879],100,53,easy,plus,dotcolour,alfa,,,111,18,M,R,
219,93,9,5,1,27,53,1017,['n'],1,right,['9'],5,371,[-0.00511655],58,53,easy,plus,dotcolour,alfa,,,111,18,M,R,
220,94,10,5,1,33,47,767,['n'],1,right,['9'],5,318,[-0.12692698],100,47,medium,plus,dotcolour,alfa,,,111,18,M,R,
221,95,11,5,1,44,36,1468,['c'],1,left,['9'],5,440,[-0.00384195],45,44,hard,plus,dotcolour,alfa,,,111,18,M,R,
222,96,12,5,1,44,36,1733,['n'],0,left,['9'],5,442,[-0.11395175],100,44,hard,plus,dotcolour,alfa,,,111,18,M,R,
223,97,13,5,1,53,27,650,['c'],1,left,['0'],6,400,[0.10763027],100,53,easy,plus,dotcolour,alfa,,,111,18,M,R,
224,98,14,5,1,53,27,601,['c'],1,left,['0'],6,337,[0.16643383],100,53,easy,plus,dotcolour,alfa,,,111,18,M,R,
225,99,15,5,1,47,33,933,['c'],1,left,['9'],5,495,[0.27321277],100,47,medium,plus,dotcolour,alfa,,,111,18,M,R,
226,100,16,5,1,47,33,450,['c'],1,left,['0'],6,443,[0.1051517],100,47,medium,plus,dotcolour,alfa,,,111,18,M,R,
227,101,17,5,1,36,44,917,['n'],1,right,['9'],5,301,[-0.11404619],100,44,hard,plus,dotcolour,alfa,,,111,18,M,R,
228,102,18,5,1,44,36,750,['c'],1,left,['9'],5,341,[0.06526941],98,44,hard,plus,dotcolour,alfa,,,111,18,M,R,
229,103,19,5,1,27,53,632,['n'],1,right,['0'],6,303,[-0.04837789],96,53,easy,plus,dotcolour,alfa,,,111,18,M,R,
230,104,20,5,1,27,53,716,['c'],0,right,['0'],6,223,[0.08081666],100,53,easy,plus,dotcolour,alfa,,,111,18,M,R,
231,105,21,5,1,44,36,817,['n'],0,left,['9'],5,383,[-0.06989821],98,44,hard,plus,dotcolour,alfa,,,111,18,M,R,
232,106,22,5,1,47,33,950,['c'],1,left,['0'],6,291,[0.07158277],99,47,medium,plus,dotcolour,alfa,,,111,18,M,R,
233,107,23,5,1,36,44,1200,['n'],1,right,['0'],6,408,[-0.02221584],78,44,hard,plus,dotcolour,alfa,,,111,18,M,R,
234,108,24,5,1,33,47,817,['n'],1,right,['9'],5,216,[-0.11805826],100,47,medium,plus,dotcolour,alfa,,,111,18,M,R,
235,109,25,5,1,53,27,652,['c'],1,left,['0'],6,247,[0.17001186],100,53,easy,plus,dotcolour,alfa,,,111,18,M,R,
236,110,26,5,1,36,44,1166,['n'],1,right,['0'],6,704,[-0.08875481],98,44,hard,plus,dotcolour,alfa,,,111,18,M,R,
237,111,27,5,1,36,44,967,['c'],0,right,['9'],5,182,[-0.02396753],12,44,hard,plus,dotcolour,alfa,,,111,18,M,R,
238,112,28,5,1,33,47,983,['n'],1,right,['9'],5,304,[-0.00020315],50,47,medium,plus,dotcolour,alfa,,,111,18,M,R,
239,113,29,5,1,47,33,734,['c'],1,left,['9'],5,192,[0.03322853],94,47,medium,plus,dotcolour,alfa,,,111,18,M,R,
240,114,30,5,1,53,27,584,['c'],1,left,['0'],6,354,[0.16710354],100,53,easy,plus,dotcolour,alfa,,,111,18,M,R,
241,115,31,5,1,47,33,884,['c'],1,left,['9'],5,267,[0.08990947],100,47,medium,plus,dotcolour,alfa,,,111,18,M,R,
242,116,32,5,1,44,36,1767,['n'],0,left,['8'],4,219,[-0.06947474],100,44,hard,plus,dotcolour,alfa,,,111,18,M,R,
243,117,33,5,1,33,47,767,['n'],1,right,['9'],5,308,[-0.03685608],92,47,medium,plus,dotcolour,alfa,,,111,18,M,R,
244,118,34,5,1,27,53,600,['n'],1,right,['0'],6,274,[-0.1894618],100,53,easy,plus,dotcolour,alfa,,,111,18,M,R,
245,119,35,5,1,27,53,867,['n'],1,right,['9'],5,292,[-0.09899508],100,53,easy,plus,dotcolour,alfa,,,111,18,M,R,
246,120,36,5,1,53,27,550,['c'],1,left,['0'],6,132,[0.053102],99,53,easy,plus,dotcolour,alfa,,,111,18,M,R,
247,121,37,5,1,27,53,450,['n'],1,right,['0'],6,86,[-0.09298501],100,53,easy,plus,dotcolour,alfa,,,111,18,M,R,
248,122,38,5,1,36,44,1050,['c'],0,right,['9'],5,378,[0.08190837],99,44,hard,plus,dotcolour,alfa,,,111,18,M,R,
249,123,39,5,1,53,27,534,['c'],1,left,['9'],5,174,[0.10053411],100,53,easy,plus,dotcolour,alfa,,,111,18,M,R,
250,124,40,5,1,36,44,633,['n'],1,right,['9'],5,183,[-0.08427642],100,44,hard,plus,dotcolour,alfa,,,111,18,M,R,
251,125,41,5,1,33,47,767,['n'],1,right,['0'],6,258,[-0.14285236],100,47,medium,plus,dotcolour,alfa,,,111,18,M,R,
252,0,0,6,2,36,44,1484,['c'],0,right,['9'],5,239,[0.10616287],88,44,hard,minus,dotcolour,alfa,,,111,18,M,R,
253,1,1,6,2,53,27,550,['c'],1,left,['0'],6,216,[0.09140921],85,53,easy,minus,dotcolour,alfa,,,111,18,M,R,
254,2,2,6,2,36,44,550,['n'],1,right,['0'],6,147,[-0.12475975],95,44,hard,minus,dotcolour,alfa,,,111,18,M,R,
255,3,3,6,2,53,27,517,['c'],1,left,['0'],6,121,[0.08797298],91,53,easy,minus,dotcolour,alfa,,,111,18,M,R,
256,4,4,6,2,33,47,567,['n'],1,right,['0'],6,143,[-0.07226263],85,47,medium,minus,dotcolour,alfa,,,111,18,M,R,
257,5,5,6,2,47,33,816,['c'],1,left,['0'],6,323,[0.21051672],97,47,medium,minus,dotcolour,alfa,,,111,18,M,R,
258,6,6,6,2,27,53,583,['n'],1,right,['0'],6,270,[-0.14105926],92,53,easy,minus,dotcolour,alfa,,,111,18,M,R,
259,7,7,6,2,33,47,785,['n'],1,right,['9'],5,238,[-0.09891403],86,47,medium,minus,dotcolour,alfa,,,111,18,M,R,
260,8,8,6,2,44,36,1150,['n'],0,left,['8'],4,216,[-0.14230068],94,44,hard,minus,dotcolour,alfa,,,111,18,M,R,
261,9,9,6,2,44,36,1317,['n'],0,left,['8'],4,228,[-0.05134529],72,44,hard,minus,dotcolour,alfa,,,111,18,M,R,
262,10,10,6,2,36,44,1168,['c'],0,right,['9'],5,374,[0.09269832],80,44,hard,minus,dotcolour,alfa,,,111,18,M,R,
263,11,11,6,2,27,53,817,['n'],1,right,['0'],6,191,[-0.10272513],89,53,easy,minus,dotcolour,alfa,,,111,18,M,R,
264,12,12,6,2,33,47,1384,['n'],1,right,['9'],5,217,[-0.07954036],82,47,medium,minus,dotcolour,alfa,,,111,18,M,R,
265,13,13,6,2,44,36,633,['c'],1,left,['3'],3,1328,[0.36596863],95,44,hard,minus,dotcolour,alfa,,,111,18,M,R,
266,14,14,6,2,33,47,1783,['c'],0,right,['9'],5,309,[-0.05794631],28,47,medium,minus,dotcolour,alfa,,,111,18,M,R,
267,15,15,6,2,47,33,967,['c'],1,left,['8'],4,443,[0.0322111],61,47,medium,minus,dotcolour,alfa,,,111,18,M,R,
268,16,16,6,2,33,47,617,['n'],1,right,['0'],6,305,[-0.14629534],92,47,medium,minus,dotcolour,alfa,,,111,18,M,R,
269,17,17,6,2,53,27,950,['c'],1,left,['9'],5,168,[0.0486365],74,53,easy,minus,dotcolour,alfa,,,111,18,M,R,
270,18,18,6,2,36,44,1584,['n'],1,right,['8'],4,379,[-0.06381018],72,44,hard,minus,dotcolour,alfa,,,111,18,M,R,
271,19,19,6,2,27,53,500,['n'],1,right,['0'],6,137,[-0.09553776],91,53,easy,minus,dotcolour,alfa,,,111,18,M,R,
272,20,20,6,2,33,47,701,['n'],1,right,['0'],6,178,[-0.14867402],96,47,medium,minus,dotcolour,alfa,,,111,18,M,R,
273,21,21,6,2,27,53,1267,['n'],1,right,['9'],5,225,[-0.16008187],95,53,easy,minus,dotcolour,alfa,,,111,18,M,R,
274,22,22,6,2,36,44,950,['n'],1,right,['9'],5,195,[-0.05078545],74,44,hard,minus,dotcolour,alfa,,,111,18,M,R,
275,23,23,6,2,33,47,1217,['n'],1,right,['8'],4,243,[-0.05689134],74,47,medium,minus,dotcolour,alfa,,,111,18,M,R,
276,24,24,6,2,27,53,750,['n'],1,right,['9'],5,205,[-0.00110621],51,53,easy,minus,dotcolour,alfa,,,111,18,M,R,
277,25,25,6,2,36,44,884,['n'],1,right,['0'],6,195,[-0.05737074],76,44,hard,minus,dotcolour,alfa,,,111,18,M,R,
278,26,26,6,2,47,33,767,['c'],1,left,['0'],6,261,[0.09732624],85,47,medium,minus,dotcolour,alfa,,,111,18,M,R,
279,27,27,6,2,27,53,784,['n'],1,right,['0'],6,365,[-0.03099246],61,53,easy,minus,dotcolour,alfa,,,111,18,M,R,
280,28,28,6,2,44,36,933,['c'],1,left,['9'],5,211,[-0.04954535],27,44,hard,minus,dotcolour,alfa,,,111,18,M,R,
281,29,29,6,2,53,27,1049,['c'],1,left,['0'],6,225,[0.20528816],98,53,easy,minus,dotcolour,alfa,,,111,18,M,R,
282,30,30,6,2,53,27,600,['c'],1,left,['0'],6,225,[0.04721058],71,53,easy,minus,dotcolour,alfa,,,111,18,M,R,
283,31,31,6,2,27,53,617,['n'],1,right,['0'],6,232,[-0.14747658],94,53,easy,minus,dotcolour,alfa,,,111,18,M,R,
284,32,32,6,2,53,27,817,['c'],1,left,['0'],6,240,[0.02351852],61,53,easy,minus,dotcolour,alfa,,,111,18,M,R,
285,33,33,6,2,44,36,1134,['c'],1,left,['9'],5,330,[0.08425069],79,44,hard,minus,dotcolour,alfa,,,111,18,M,R,
286,34,34,6,2,47,33,750,['c'],1,left,['0'],6,320,[0.14397415],91,47,medium,minus,dotcolour,alfa,,,111,18,M,R,
287,35,35,6,2,44,36,1567,['n'],0,left,['8'],4,294,[-0.03096258],63,44,hard,minus,dotcolour,alfa,,,111,18,M,R,
288,36,36,6,2,44,36,717,['c'],1,left,['9'],5,198,[0.03681923],68,44,hard,minus,dotcolour,alfa,,,111,18,M,R,
289,37,37,6,2,47,33,567,['c'],1,left,['0'],6,321,[0.13317156],89,47,medium,minus,dotcolour,alfa,,,111,18,M,R,
290,38,38,6,2,36,44,1283,['c'],0,right,['0'],6,203,[0.08473586],84,44,hard,minus,dotcolour,alfa,,,111,18,M,R,
291,39,39,6,2,47,33,867,['c'],1,left,['9'],5,569,[0.09697565],76,47,medium,minus,dotcolour,alfa,,,111,18,M,R,
292,40,40,6,2,47,33,683,['c'],1,left,['9'],5,248,[0.10963978],88,47,medium,minus,dotcolour,alfa,,,111,18,M,R,
293,41,41,6,2,53,27,817,['c'],1,left,['0'],6,199,[0.12084285],92,53,easy,minus,dotcolour,alfa,,,111,18,M,R,
294,42,0,7,2,36,44,684,['c'],0,right,['0'],6,120,[0.09000475],91,44,hard,minus,dotcolour,alfa,,,111,18,M,R,
295,43,1,7,2,33,47,500,['c'],0,right,['9'],5,417,[0.02966359],60,47,medium,minus,dotcolour,alfa,,,111,18,M,R,
296,44,2,7,2,53,27,934,['c'],1,left,['9'],5,269,[0.04785795],70,53,easy,minus,dotcolour,alfa,,,111,18,M,R,
297,45,3,7,2,53,27,517,['c'],1,left,['9'],5,366,[0.13103977],88,53,easy,minus,dotcolour,alfa,,,111,18,M,R,
298,46,4,7,2,33,47,850,['n'],1,right,['0'],6,351,[-0.17349829],93,47,medium,minus,dotcolour,alfa,,,111,18,M,R,
299,47,5,7,2,33,47,1100,['n'],1,right,['9'],5,223,[-0.07215815],80,47,medium,minus,dotcolour,alfa,,,111,18,M,R,
300,48,6,7,2,47,33,1317,['c'],1,left,['0'],6,266,[0.02677728],61,47,medium,minus,dotcolour,alfa,,,111,18,M,R,
301,49,7,7,2,33,47,967,['n'],1,right,['9'],5,258,[-0.08024463],81,47,medium,minus,dotcolour,alfa,,,111,18,M,R,
302,50,8,7,2,33,47,1400,['c'],0,right,['8'],4,112,[0.04602992],78,47,medium,minus,dotcolour,alfa,,,111,18,M,R,
303,51,9,7,2,53,27,750,['c'],1,left,['9'],5,143,[0.12568527],95,53,easy,minus,dotcolour,alfa,,,111,18,M,R,
304,52,10,7,2,47,33,4467,['n'],0,left,['8'],4,2096,[0.01467816],48,47,medium,minus,dotcolour,alfa,,,111,18,M,R,
305,53,11,7,2,53,27,650,['c'],1,left,['9'],5,307,[0.0002421],50,53,easy,minus,dotcolour,alfa,,,111,18,M,R,
306,54,12,7,2,47,33,916,['c'],1,left,['9'],5,1091,[0.11991122],74,47,medium,minus,dotcolour,alfa,,,111,18,M,R,
307,55,13,7,2,44,36,583,['c'],1,left,['0'],6,137,[0.05446232],79,44,hard,minus,dotcolour,alfa,,,111,18,M,R,
308,56,14,7,2,47,33,534,['c'],1,left,['9'],5,191,[0.08499282],85,47,medium,minus,dotcolour,alfa,,,111,18,M,R,
309,57,15,7,2,36,44,650,['c'],0,right,['8'],4,182,[0.03900847],69,44,hard,minus,dotcolour,alfa,,,111,18,M,R,
310,58,16,7,2,36,44,850,['n'],1,right,['8'],4,271,[-0.03563188],65,44,hard,minus,dotcolour,alfa,,,111,18,M,R,
311,59,17,7,2,33,47,1134,['n'],1,right,['8'],4,208,[-0.16815677],97,47,medium,minus,dotcolour,alfa,,,111,18,M,R,
312,60,18,7,2,53,27,767,['c'],1,left,['9'],5,187,[0.11459095],92,53,easy,minus,dotcolour,alfa,,,111,18,M,R,
313,61,19,7,2,27,53,1233,['n'],1,right,['9'],5,339,[-0.14092595],90,53,easy,minus,dotcolour,alfa,,,111,18,M,R,
314,62,20,7,2,47,33,933,['c'],1,left,['0'],6,433,[0.17850775],92,47,medium,minus,dotcolour,alfa,,,111,18,M,R,
315,63,21,7,2,44,36,867,['c'],1,left,['0'],6,230,[0.09932243],87,44,hard,minus,dotcolour,alfa,,,111,18,M,R,
316,64,22,7,2,47,33,850,['c'],1,left,['0'],6,188,[0.08202819],85,47,medium,minus,dotcolour,alfa,,,111,18,M,R,
317,65,23,7,2,44,36,1017,['c'],1,left,['0'],6,189,[0.03835212],69,44,hard,minus,dotcolour,alfa,,,111,18,M,R,
318,66,24,7,2,27,53,734,['n'],1,right,['9'],5,234,[-0.12779512],92,53,easy,minus,dotcolour,alfa,,,111,18,M,R,
319,67,25,7,2,44,36,817,['c'],1,left,['0'],6,129,[0.12181674],95,44,hard,minus,dotcolour,alfa,,,111,18,M,R,
320,68,26,7,2,27,53,600,['n'],1,right,['0'],6,141,[-0.05989255],81,53,easy,minus,dotcolour,alfa,,,111,18,M,R,
321,69,27,7,2,36,44,917,['n'],1,right,['1'],1,1468,[-0.27343293],88,44,hard,minus,dotcolour,alfa,,,111,18,M,R,
322,70,28,7,2,44,36,850,['c'],1,left,['0'],6,216,[0.05880039],76,44,hard,minus,dotcolour,alfa,,,111,18,M,R,
323,71,29,7,2,27,53,651,['n'],1,right,['9'],5,182,[-0.07714209],84,53,easy,minus,dotcolour,alfa,,,111,18,M,R,
324,72,30,7,2,53,27,683,['c'],1,left,['0'],6,133,[0.10530315],93,53,easy,minus,dotcolour,alfa,,,111,18,M,R,
325,73,31,7,2,27,53,501,['n'],1,right,['0'],6,118,[-0.06209075],84,53,easy,minus,dotcolour,alfa,,,111,18,M,R,
326,74,32,7,2,44,36,1200,['c'],1,left,['9'],5,250,[0.13826544],92,44,hard,minus,dotcolour,alfa,,,111,18,M,R,
327,75,33,7,2,47,33,1500,['c'],1,left,['1'],1,69,[0.08036623],94,47,medium,minus,dotcolour,alfa,,,111,18,M,R,
328,76,34,7,2,27,53,699,['n'],1,right,['0'],6,152,[-0.12946655],95,53,easy,minus,dotcolour,alfa,,,111,18,M,R,
329,77,35,7,2,36,44,983,['c'],0,right,['9'],5,203,[0.04837431],72,44,hard,minus,dotcolour,alfa,,,111,18,M,R,
330,78,36,7,2,36,44,1817,['c'],0,right,['8'],4,124,[0.11703574],95,44,hard,minus,dotcolour,alfa,,,111,18,M,R,
331,79,37,7,2,44,36,750,['c'],1,left,['9'],5,243,[0.03810554],67,44,hard,minus,dotcolour,alfa,,,111,18,M,R,
332,80,38,7,2,33,47,917,['n'],1,right,['0'],6,189,[-0.13823065],95,47,medium,minus,dotcolour,alfa,,,111,18,M,R,
333,81,39,7,2,53,27,683,['c'],1,left,['0'],6,171,[0.03409274],68,53,easy,minus,dotcolour,alfa,,,111,18,M,R,
334,82,40,7,2,36,44,949,['c'],0,right,['8'],4,184,[0.08847746],86,44,hard,minus,dotcolour,alfa,,,111,18,M,R,
335,83,41,7,2,27,53,950,['n'],1,right,['0'],6,148,[-0.07416207],85,53,easy,minus,dotcolour,alfa,,,111,18,M,R,
336,84,0,8,2,27,53,1216,['n'],1,right,['0'],6,232,[-0.10781702],88,53,easy,minus,dotcolour,alfa,,,111,18,M,R,
337,85,1,8,2,27,53,1316,['c'],0,right,['9'],5,171,[0.07426572],83,53,easy,minus,dotcolour,alfa,,,111,18,M,R,
338,86,2,8,2,44,36,716,['c'],1,left,['0'],6,313,[0.08678395],80,44,hard,minus,dotcolour,alfa,,,111,18,M,R,
339,87,3,8,2,33,47,749,['n'],1,right,['0'],6,135,[-0.12871104],96,47,medium,minus,dotcolour,alfa,,,111,18,M,R,
340,88,4,8,2,44,36,1051,['n'],0,left,['0'],6,193,[-0.12826027],93,44,hard,minus,dotcolour,alfa,,,111,18,M,R,
341,89,5,8,2,33,47,1167,['n'],1,right,['0'],6,252,[-0.1296717],91,47,medium,minus,dotcolour,alfa,,,111,18,M,R,
342,90,6,8,2,44,36,4568,['n'],0,left,['8'],4,453,[0.00895877],47,44,hard,minus,dotcolour,alfa,,,111,18,M,R,
343,91,7,8,2,47,33,850,['c'],1,left,['9'],5,410,[0.13847838],88,47,medium,minus,dotcolour,alfa,,,111,18,M,R,
344,92,8,8,2,36,44,850,['n'],1,right,['0'],6,264,[-0.14702677],93,44,hard,minus,dotcolour,alfa,,,111,18,M,R,
345,93,9,8,2,27,53,1083,['n'],1,right,['0'],6,188,[-0.13625581],94,53,easy,minus,dotcolour,alfa,,,111,18,M,R,
346,94,10,8,2,36,44,1168,['c'],0,right,['9'],5,143,[0.11463768],94,44,hard,minus,dotcolour,alfa,,,111,18,M,R,
347,95,11,8,2,44,36,1283,['c'],1,left,['9'],5,343,[0.13983649],90,44,hard,minus,dotcolour,alfa,,,111,18,M,R,
348,96,12,8,2,44,36,950,['c'],1,left,['0'],6,237,[0.16184739],95,44,hard,minus,dotcolour,alfa,,,111,18,M,R,
349,97,13,8,2,36,44,717,['c'],0,right,['0'],6,248,[-0.08251693],18,44,hard,minus,dotcolour,alfa,,,111,18,M,R,
350,98,14,8,2,27,53,583,['n'],1,right,['8'],4,240,[-0.05050481],72,53,easy,minus,dotcolour,alfa,,,111,18,M,R,
351,99,15,8,2,53,27,600,['c'],1,left,['0'],6,119,[0.04217081],75,53,easy,minus,dotcolour,alfa,,,111,18,M,R,
352,100,16,8,2,44,36,1067,['c'],1,left,['9'],5,281,[0.15475052],93,44,hard,minus,dotcolour,alfa,,,111,18,M,R,
353,101,17,8,2,36,44,817,['n'],1,right,['9'],5,167,[-0.06802582],82,44,hard,minus,dotcolour,alfa,,,111,18,M,R,
354,102,18,8,2,53,27,733,['c'],1,left,['0'],6,372,[0.09419685],80,53,easy,minus,dotcolour,alfa,,,111,18,M,R,
355,103,19,8,2,36,44,867,['n'],1,right,['9'],5,323,[-0.17069314],94,44,hard,minus,dotcolour,alfa,,,111,18,M,R,
356,104,20,8,2,53,27,866,['c'],1,left,['0'],6,181,[0.11463737],92,53,easy,minus,dotcolour,alfa,,,111,18,M,R,
357,105,21,8,2,44,36,801,['c'],1,left,['0'],6,167,[0.05499388],77,44,hard,minus,dotcolour,alfa,,,111,18,M,R,
358,106,22,8,2,27,53,700,['n'],1,right,['9'],5,205,[-0.12526344],92,53,easy,minus,dotcolour,alfa,,,111,18,M,R,
359,107,23,8,2,47,33,867,['c'],1,left,['0'],6,220,[0.06086888],76,47,medium,minus,dotcolour,alfa,,,111,18,M,R,
360,108,24,8,2,47,33,950,['c'],1,left,['0'],6,231,[-0.00260855],49,47,medium,minus,dotcolour,alfa,,,111,18,M,R,
361,109,25,8,2,33,47,1017,['n'],1,right,['9'],5,254,[-0.04805545],70,47,medium,minus,dotcolour,alfa,,,111,18,M,R,
362,110,26,8,2,33,47,2032,['n'],1,right,['8'],4,317,[-0.07884071],78,47,medium,minus,dotcolour,alfa,,,111,18,M,R,
363,111,27,8,2,47,33,733,['c'],1,left,['0'],6,244,[0.14934809],94,47,medium,minus,dotcolour,alfa,,,111,18,M,R,
364,112,28,8,2,53,27,783,['c'],1,left,['0'],6,155,[0.10091415],91,53,easy,minus,dotcolour,alfa,,,111,18,M,R,
365,113,29,8,2,53,27,1000,['c'],1,left,['0'],6,216,[0.13249372],93,53,easy,minus,dotcolour,alfa,,,111,18,M,R,
366,114,30,8,2,47,33,867,['c'],1,left,['0'],6,165,[0.09328687],89,47,medium,minus,dotcolour,alfa,,,111,18,M,R,
367,115,31,8,2,47,33,917,['c'],1,left,['0'],6,155,[0.11184006],93,47,medium,minus,dotcolour,alfa,,,111,18,M,R,
368,116,32,8,2,33,47,1017,['n'],1,right,['0'],6,182,[-0.05505699],76,47,medium,minus,dotcolour,alfa,,,111,18,M,R,
369,117,33,8,2,36,44,766,['c'],0,right,['0'],6,225,[-0.03982379],32,44,hard,minus,dotcolour,alfa,,,111,18,M,R,
370,118,34,8,2,33,47,700,['n'],1,right,['0'],6,165,[-0.11406361],93,47,medium,minus,dotcolour,alfa,,,111,18,M,R,
371,119,35,8,2,27,53,733,['n'],1,right,['0'],6,178,[-0.07818581],84,53,easy,minus,dotcolour,alfa,,,111,18,M,R,
372,120,36,8,2,53,27,666,['c'],1,left,['0'],6,121,[0.14887868],98,53,easy,minus,dotcolour,alfa,,,111,18,M,R,
373,121,37,8,2,33,47,950,['c'],0,right,['0'],6,168,[0.11450623],93,47,medium,minus,dotcolour,alfa,,,111,18,M,R,
374,122,38,8,2,36,44,1151,['n'],1,right,['0'],6,205,[-0.06177912],77,44,hard,minus,dotcolour,alfa,,,111,18,M,R,
375,123,39,8,2,53,27,801,['c'],1,left,['0'],6,206,[0.2092079],98,53,easy,minus,dotcolour,alfa,,,111,18,M,R,
376,124,40,8,2,27,53,750,['n'],1,right,['0'],6,145,[-0.08919485],89,53,easy,minus,dotcolour,alfa,,,111,18,M,R,
377,125,41,8,2,47,33,1250,['n'],0,left,['0'],6,234,[-0.05524161],74,47,medium,minus,dotcolour,alfa,,,111,18,M,R,
378,0,0,9,3,44,36,851,['c'],1,left,['9'],5,222,[0.04321668],96,44,hard,plus,dotcolour,alfa,,,111,18,M,R,
379,1,1,9,3,33,47,1350,['n'],1,right,['0'],6,312,[-0.08227107],100,47,medium,plus,dotcolour,alfa,,,111,18,M,R,
380,2,2,9,3,53,27,667,['c'],1,left,['0'],6,170,[0.12383389],100,53,easy,plus,dotcolour,alfa,,,111,18,M,R,
381,3,3,9,3,27,53,733,['n'],1,right,['9'],5,208,[-0.07854413],100,53,easy,plus,dotcolour,alfa,,,111,18,M,R,
382,4,4,9,3,53,27,1284,['c'],1,left,['8'],4,606,[0.04967987],91,53,easy,plus,dotcolour,alfa,,,111,18,M,R,
383,5,5,9,3,44,36,1017,['c'],1,left,['9'],5,477,[0.04940792],93,44,hard,plus,dotcolour,alfa,,,111,18,M,R,
384,6,6,9,3,44,36,1400,['c'],1,left,['9'],5,363,[0.10436395],100,44,hard,plus,dotcolour,alfa,,,111,18,M,R,
385,7,7,9,3,47,33,766,['c'],1,left,['0'],6,287,[0.0758623],99,47,medium,plus,dotcolour,alfa,,,111,18,M,R,
386,8,8,9,3,53,27,867,['c'],1,left,['0'],6,219,[0.05701498],99,53,easy,plus,dotcolour,alfa,,,111,18,M,R,
387,9,9,9,3,47,33,800,['c'],1,left,['0'],6,307,[0.11126858],100,47,medium,plus,dotcolour,alfa,,,111,18,M,R,
388,10,10,9,3,47,33,666,['c'],1,left,['9'],5,190,[0.05174058],99,47,medium,plus,dotcolour,alfa,,,111,18,M,R,
389,11,11,9,3,27,53,1151,['n'],1,right,['0'],6,216,[-0.12367319],100,53,easy,plus,dotcolour,alfa,,,111,18,M,R,
390,12,12,9,3,44,36,699,['c'],1,left,['9'],5,141,[0.10723652],100,44,hard,plus,dotcolour,alfa,,,111,18,M,R,
391,13,13,9,3,44,36,1084,['c'],1,left,['9'],5,197,[0.04177833],97,44,hard,plus,dotcolour,alfa,,,111,18,M,R,
392,14,14,9,3,33,47,1100,['n'],1,right,['8'],4,354,[-0.20107706],100,47,medium,plus,dotcolour,alfa,,,111,18,M,R,
393,15,15,9,3,36,44,800,['c'],0,right,['9'],5,262,[0.10374381],100,44,hard,plus,dotcolour,alfa,,,111,18,M,R,
394,16,16,9,3,53,27,652,['c'],1,left,['0'],6,467,[0.05410661],95,53,easy,plus,dotcolour,alfa,,,111,18,M,R,
395,17,17,9,3,33,47,833,['n'],1,right,['9'],5,304,[-0.15169783],100,47,medium,plus,dotcolour,alfa,,,111,18,M,R,
396,18,18,9,3,47,33,833,['c'],1,left,['0'],6,236,[0.1106187],100,47,medium,plus,dotcolour,alfa,,,111,18,M,R,
397,19,19,9,3,53,27,1016,['n'],0,left,['8'],4,403,[-0.03221909],86,53,easy,plus,dotcolour,alfa,,,111,18,M,R,
398,20,20,9,3,44,36,717,['c'],1,left,['9'],5,248,[0.06517757],99,44,hard,plus,dotcolour,alfa,,,111,18,M,R,
399,21,21,9,3,27,53,700,['n'],1,right,['0'],6,268,[-0.08438357],100,53,easy,plus,dotcolour,alfa,,,111,18,M,R,
400,22,22,9,3,53,27,884,['c'],1,left,['9'],5,279,[0.16168077],100,53,easy,plus,dotcolour,alfa,,,111,18,M,R,
401,23,23,9,3,36,44,984,['c'],0,right,['0'],6,270,[0.07152018],99,44,hard,plus,dotcolour,alfa,,,111,18,M,R,
402,24,24,9,3,36,44,800,['n'],1,right,['0'],6,236,[-0.11128218],100,44,hard,plus,dotcolour,alfa,,,111,18,M,R,
403,25,25,9,3,27,53,850,['n'],1,right,['9'],5,274,[-0.09502072],100,53,easy,plus,dotcolour,alfa,,,111,18,M,R,
404,26,26,9,3,47,33,816,['c'],1,left,['0'],6,199,[0.10167503],100,47,medium,plus,dotcolour,alfa,,,111,18,M,R,
405,27,27,9,3,27,53,567,['n'],1,right,['0'],6,210,[-0.03439693],94,53,easy,plus,dotcolour,alfa,,,111,18,M,R,
406,28,28,9,3,33,47,717,['n'],1,right,['0'],6,206,[-0.0919053],100,47,medium,plus,dotcolour,alfa,,,111,18,M,R,
407,29,29,9,3,44,36,716,['c'],1,left,['9'],5,202,[0.02506792],88,44,hard,plus,dotcolour,alfa,,,111,18,M,R,
408,30,30,9,3,33,47,983,['n'],1,right,['8'],4,252,[-0.00785094],64,47,medium,plus,dotcolour,alfa,,,111,18,M,R,
409,31,31,9,3,47,33,567,['c'],1,left,['0'],6,261,[0.09980213],100,47,medium,plus,dotcolour,alfa,,,111,18,M,R,
410,32,32,9,3,36,44,1033,['n'],1,right,['9'],5,234,[-0.00968107],67,44,hard,plus,dotcolour,alfa,,,111,18,M,R,
411,33,33,9,3,33,47,751,['n'],1,right,['9'],5,204,[-0.05425867],99,47,medium,plus,dotcolour,alfa,,,111,18,M,R,
412,34,34,9,3,53,27,617,['n'],0,left,['0'],6,173,[0.01114079],28,53,easy,plus,dotcolour,alfa,,,111,18,M,R,
413,35,35,9,3,36,44,999,['n'],1,right,['8'],4,175,[-0.02511288],90,44,hard,plus,dotcolour,alfa,,,111,18,M,R,
414,36,36,9,3,36,44,816,['c'],0,right,['9'],5,265,[0.08195193],100,44,hard,plus,dotcolour,alfa,,,111,18,M,R,
415,37,37,9,3,47,33,850,['c'],1,left,['9'],5,149,[0.06354672],100,47,medium,plus,dotcolour,alfa,,,111,18,M,R,
416,38,38,9,3,27,53,834,['n'],1,right,['0'],6,239,[-0.10383987],100,53,easy,plus,dotcolour,alfa,,,111,18,M,R,
417,39,39,9,3,27,53,517,['n'],1,right,['0'],6,169,[-0.08603511],100,53,easy,plus,dotcolour,alfa,,,111,18,M,R,
418,40,40,9,3,36,44,882,['c'],0,right,['9'],5,161,[0.05598005],99,44,hard,plus,dotcolour,alfa,,,111,18,M,R,
419,41,41,9,3,33,47,667,['n'],1,right,['9'],5,185,[-0.05716268],99,47,medium,plus,dotcolour,alfa,,,111,18,M,R,
420,42,0,10,3,27,53,533,['c'],0,right,['0'],6,118,[0.04761241],99,53,easy,plus,dotcolour,alfa,,,111,18,M,R,
421,43,1,10,3,33,47,850,['n'],1,right,['0'],6,81,[-0.10364368],100,47,medium,plus,dotcolour,alfa,,,111,18,M,R,
422,44,2,10,3,53,27,600,['c'],1,left,['0'],6,95,[0.06343644],100,53,easy,plus,dotcolour,alfa,,,111,18,M,R,
423,45,3,10,3,47,33,801,['c'],1,left,['9'],5,196,[0.10027827],100,47,medium,plus,dotcolour,alfa,,,111,18,M,R,
424,46,4,10,3,27,53,533,['n'],1,right,['0'],6,144,[-0.08242453],100,53,easy,plus,dotcolour,alfa,,,111,18,M,R,
425,47,5,10,3,47,33,833,['c'],1,left,['9'],5,130,[0.08521037],100,47,medium,plus,dotcolour,alfa,,,111,18,M,R,
426,48,6,10,3,36,44,550,['n'],1,right,['9'],5,216,[-0.05893388],99,44,hard,plus,dotcolour,alfa,,,111,18,M,R,
427,49,7,10,3,36,44,1167,['n'],1,right,['8'],4,178,[-0.09880038],100,44,hard,plus,dotcolour,alfa,,,111,18,M,R,
428,50,8,10,3,44,36,649,['c'],1,left,['8'],4,122,[0.04215394],99,44,hard,plus,dotcolour,alfa,,,111,18,M,R,
429,51,9,10,3,27,53,801,['c'],0,right,['1'],1,879,[-0.12157639],1,53,easy,plus,dotcolour,alfa,,,111,18,M,R,
430,52,10,10,3,44,36,950,['c'],1,left,['0'],6,199,[0.07974988],100,44,hard,plus,dotcolour,alfa,,,111,18,M,R,
431,53,11,10,3,44,36,784,['c'],1,left,['9'],5,153,[0.11003377],100,44,hard,plus,dotcolour,alfa,,,111,18,M,R,
432,54,12,10,3,33,47,600,['n'],1,right,['0'],6,156,[-0.07043485],100,47,medium,plus,dotcolour,alfa,,,111,18,M,R,
433,55,13,10,3,27,53,633,['n'],1,right,['0'],6,238,[-0.1841245],100,53,easy,plus,dotcolour,alfa,,,111,18,M,R,
434,56,14,10,3,53,27,967,['c'],1,left,['0'],6,175,[0.1280229],100,53,easy,plus,dotcolour,alfa,,,111,18,M,R,
435,57,15,10,3,44,36,983,['n'],0,left,['9'],5,170,[-0.06629016],100,44,hard,plus,dotcolour,alfa,,,111,18,M,R,
436,58,16,10,3,47,33,517,['c'],1,left,['0'],6,152,[0.07259116],100,47,medium,plus,dotcolour,alfa,,,111,18,M,R,
437,59,17,10,3,53,27,666,['n'],0,left,['1'],1,752,[-0.01372296],64,53,easy,plus,dotcolour,alfa,,,111,18,M,R,
438,60,18,10,3,27,53,634,['n'],1,right,['0'],6,218,[-0.09486871],100,53,easy,plus,dotcolour,alfa,,,111,18,M,R,
439,61,19,10,3,33,47,817,['n'],1,right,['0'],6,194,[-0.07655225],100,47,medium,plus,dotcolour,alfa,,,111,18,M,R,
440,62,20,10,3,33,47,883,['n'],1,right,['8'],4,184,[-0.09565709],100,47,medium,plus,dotcolour,alfa,,,111,18,M,R,
441,63,21,10,3,36,44,583,['n'],1,right,['0'],6,210,[-0.14777093],100,44,hard,plus,dotcolour,alfa,,,111,18,M,R,
442,64,22,10,3,36,44,1149,['c'],0,right,['8'],4,253,[0.13294492],100,44,hard,plus,dotcolour,alfa,,,111,18,M,R,
443,65,23,10,3,53,27,667,['c'],1,left,['0'],6,130,[0.07859283],100,53,easy,plus,dotcolour,alfa,,,111,18,M,R,
444,66,24,10,3,44,36,667,['n'],0,left,['9'],5,187,[-0.0267811],90,44,hard,plus,dotcolour,alfa,,,111,18,M,R,
445,67,25,10,3,53,27,483,['c'],1,left,['0'],6,218,[0.06162786],99,53,easy,plus,dotcolour,alfa,,,111,18,M,R,
446,68,26,10,3,53,27,767,['c'],1,left,['0'],6,132,[0.13034745],100,53,easy,plus,dotcolour,alfa,,,111,18,M,R,
447,69,27,10,3,33,47,766,['c'],0,right,['1'],1,697,[0.01882249],69,47,medium,plus,dotcolour,alfa,,,111,18,M,R,
448,70,28,10,3,27,53,1150,['n'],1,right,['0'],6,161,[-0.13393247],100,53,easy,plus,dotcolour,alfa,,,111,18,M,R,
449,71,29,10,3,33,47,650,['n'],1,right,['0'],6,105,[-0.04712891],99,47,medium,plus,dotcolour,alfa,,,111,18,M,R,
450,72,30,10,3,33,47,1051,['n'],1,right,['9'],5,141,[-0.05329009],99,47,medium,plus,dotcolour,alfa,,,111,18,M,R,
451,73,31,10,3,53,27,583,['c'],1,left,['0'],6,144,[0.02944225],94,53,easy,plus,dotcolour,alfa,,,111,18,M,R,
452,74,32,10,3,47,33,517,['c'],1,left,['0'],6,119,[0.05722279],100,47,medium,plus,dotcolour,alfa,,,111,18,M,R,
453,75,33,10,3,36,44,833,['n'],1,right,['0'],6,115,[-0.08893024],100,44,hard,plus,dotcolour,alfa,,,111,18,M,R,
454,76,34,10,3,47,33,616,['c'],1,left,['0'],6,127,[0.09513656],100,47,medium,plus,dotcolour,alfa,,,111,18,M,R,
455,77,35,10,3,44,36,1000,['c'],1,left,['0'],6,155,[0.1024402],100,44,hard,plus,dotcolour,alfa,,,111,18,M,R,
456,78,36,10,3,36,44,1150,['c'],0,right,['9'],5,680,[0.03488696],82,44,hard,plus,dotcolour,alfa,,,111,18,M,R,
457,79,37,10,3,47,33,1083,['c'],1,left,['0'],6,162,[0.1336666],100,47,medium,plus,dotcolour,alfa,,,111,18,M,R,
458,80,38,10,3,47,33,566,['c'],1,left,['0'],6,62,[0.09399839],100,47,medium,plus,dotcolour,alfa,,,111,18,M,R,
459,81,39,10,3,44,36,1101,['c'],1,left,['0'],6,305,[0.12039434],100,44,hard,plus,dotcolour,alfa,,,111,18,M,R,
460,82,40,10,3,36,44,500,['n'],1,right,['0'],6,186,[-0.07701835],100,44,hard,plus,dotcolour,alfa,,,111,18,M,R,
461,83,41,10,3,27,53,616,['n'],1,right,['0'],6,147,[-0.04935889],99,53,easy,plus,dotcolour,alfa,,,111,18,M,R,
462,84,0,11,3,33,47,700,['n'],1,right,['0'],6,190,[-0.07258206],100,47,medium,plus,dotcolour,alfa,,,111,18,M,R,
463,85,1,11,3,44,36,683,['c'],1,left,['0'],6,132,[0.01018522],73,44,hard,plus,dotcolour,alfa,,,111,18,M,R,
464,86,2,11,3,44,36,1418,['n'],0,left,['8'],4,272,[-0.19138427],100,44,hard,plus,dotcolour,alfa,,,111,18,M,R,
465,87,3,11,3,53,27,767,['c'],1,left,['0'],6,151,[0.0905974],100,53,easy,plus,dotcolour,alfa,,,111,18,M,R,
466,88,4,11,3,44,36,1283,['c'],1,left,['0'],6,191,[0.0728434],100,44,hard,plus,dotcolour,alfa,,,111,18,M,R,
467,89,5,11,3,36,44,1116,['c'],0,right,['9'],5,596,[0.02242737],74,44,hard,plus,dotcolour,alfa,,,111,18,M,R,
468,90,6,11,3,27,53,1000,['n'],1,right,['0'],6,125,[-0.07287774],100,53,easy,plus,dotcolour,alfa,,,111,18,M,R,
469,91,7,11,3,53,27,783,['c'],1,left,['9'],5,267,[0.14952092],100,53,easy,plus,dotcolour,alfa,,,111,18,M,R,
470,92,8,11,3,33,47,649,['n'],1,right,['9'],5,375,[-0.03666122],90,47,medium,plus,dotcolour,alfa,,,111,18,M,R,
471,93,9,11,3,27,53,1034,['n'],1,right,['8'],4,167,[-0.03487652],96,53,easy,plus,dotcolour,alfa,,,111,18,M,R,
472,94,10,11,3,44,36,649,['c'],1,left,['0'],6,193,[0.13059822],100,44,hard,plus,dotcolour,alfa,,,111,18,M,R,
473,95,11,11,3,36,44,2016,['n'],1,right,['8'],4,217,[-0.13277354],100,44,hard,plus,dotcolour,alfa,,,111,18,M,R,
474,96,12,11,3,47,33,3365,['n'],0,left,['8'],4,251,[-0.024763],86,47,medium,plus,dotcolour,alfa,,,111,18,M,R,
475,97,13,11,3,33,47,1016,['n'],1,right,['9'],5,218,[-0.07016565],100,47,medium,plus,dotcolour,alfa,,,111,18,M,R,
476,98,14,11,3,47,33,817,['c'],1,left,['9'],5,586,[0.23679829],100,47,medium,plus,dotcolour,alfa,,,111,18,M,R,
477,99,15,11,3,53,27,1367,['c'],1,left,['9'],5,404,[0.06149727],97,53,easy,plus,dotcolour,alfa,,,111,18,M,R,
478,100,16,11,3,33,47,533,['n'],1,right,['0'],6,136,[-0.15452203],100,47,medium,plus,dotcolour,alfa,,,111,18,M,R,
479,101,17,11,3,53,27,734,['c'],1,left,['0'],6,142,[0.15939198],100,53,easy,plus,dotcolour,alfa,,,111,18,M,R,
480,102,18,11,3,47,33,483,['c'],1,left,['0'],6,87,[0.08925877],100,47,medium,plus,dotcolour,alfa,,,111,18,M,R,
481,103,19,11,3,53,27,717,['c'],1,left,['9'],5,288,[0.13601155],100,53,easy,plus,dotcolour,alfa,,,111,18,M,R,
482,104,20,11,3,44,36,583,['c'],1,left,['9'],5,143,[0.08651956],100,44,hard,plus,dotcolour,alfa,,,111,18,M,R,
483,105,21,11,3,27,53,1100,['n'],1,right,['8'],4,262,[-0.13305446],100,53,easy,plus,dotcolour,alfa,,,111,18,M,R,
484,106,22,11,3,33,47,767,['n'],1,right,['9'],5,230,[-0.17983287],100,47,medium,plus,dotcolour,alfa,,,111,18,M,R,
485,107,23,11,3,27,53,583,['n'],1,right,['9'],5,159,[-0.13031242],100,53,easy,plus,dotcolour,alfa,,,111,18,M,R,
486,108,24,11,3,47,33,1700,['c'],1,left,['9'],5,213,[0.11228525],100,47,medium,plus,dotcolour,alfa,,,111,18,M,R,
487,109,25,11,3,27,53,617,['n'],1,right,['9'],5,261,[-0.10139637],100,53,easy,plus,dotcolour,alfa,,,111,18,M,R,
488,110,26,11,3,36,44,1168,['c'],0,right,['9'],5,893,[0.11261059],99,44,hard,plus,dotcolour,alfa,,,111,18,M,R,
489,111,27,11,3,47,33,684,['c'],1,left,['9'],5,191,[0.08859416],100,47,medium,plus,dotcolour,alfa,,,111,18,M,R,
490,112,28,11,3,36,44,1867,['n'],1,right,['9'],5,294,[-0.12123491],100,44,hard,plus,dotcolour,alfa,,,111,18,M,R,
491,113,29,11,3,53,27,850,['c'],1,left,['9'],5,169,[0.07444396],100,53,easy,plus,dotcolour,alfa,,,111,18,M,R,
492,114,30,11,3,36,44,1200,['n'],1,right,['9'],5,252,[0.03313408],9,44,hard,plus,dotcolour,alfa,,,111,18,M,R,
493,115,31,11,3,33,47,1483,['n'],1,right,['8'],4,288,[-0.17502787],100,47,medium,plus,dotcolour,alfa,,,111,18,M,R,
494,116,32,11,3,33,47,1134,['n'],1,right,['9'],5,401,[-0.07819396],99,47,medium,plus,dotcolour,alfa,,,111,18,M,R,
495,117,33,11,3,47,33,634,['c'],1,left,['9'],5,184,[0.10541183],100,47,medium,plus,dotcolour,alfa,,,111,18,M,R,
496,118,34,11,3,36,44,834,['n'],1,right,['9'],5,209,[-0.04346472],97,44,hard,plus,dotcolour,alfa,,,111,18,M,R,
497,119,35,11,3,53,27,750,['c'],1,left,['9'],5,228,[0.20323041],100,53,easy,plus,dotcolour,alfa,,,111,18,M,R,
498,120,36,11,3,27,53,650,['n'],1,right,['9'],5,218,[-0.11667495],100,53,easy,plus,dotcolour,alfa,,,111,18,M,R,
499,121,37,11,3,47,33,883,['c'],1,left,['9'],5,168,[0.12275377],100,47,medium,plus,dotcolour,alfa,,,111,18,M,R,
500,122,38,11,3,36,44,1083,['c'],0,right,['9'],5,174,[0.0538972],99,44,hard,plus,dotcolour,alfa,,,111,18,M,R,
501,123,39,11,3,27,53,767,['c'],0,right,['1'],1,986,[0.10299539],98,53,easy,plus,dotcolour,alfa,,,111,18,M,R,
502,124,40,11,3,44,36,733,['n'],0,left,['1'],1,1278,[0.06498167],11,44,hard,plus,dotcolour,alfa,,,111,18,M,R,
503,125,41,11,3,44,36,1883,['c'],1,left,['9'],5,113,[0.08687159],100,44,hard,plus,dotcolour,alfa,,,111,18,M,R,
504,0,0,12,4,47,33,584,['c'],1,left,['9'],5,235,[0.12187468],91,47,medium,minus,dotcolour,alfa,,,111,18,M,R,
505,1,1,12,4,36,44,815,['n'],1,right,['8'],4,218,[-0.08135997],83,44,hard,minus,dotcolour,alfa,,,111,18,M,R,
506,2,2,12,4,53,27,633,['c'],1,left,['9'],5,234,[0.16517786],96,53,easy,minus,dotcolour,alfa,,,111,18,M,R,
507,3,3,12,4,27,53,533,['n'],1,right,['0'],6,149,[-0.08437133],88,53,easy,minus,dotcolour,alfa,,,111,18,M,R,
508,4,4,12,4,44,36,684,['c'],1,left,['9'],5,237,[0.13529451],92,44,hard,minus,dotcolour,alfa,,,111,18,M,R,
509,5,5,12,4,47,33,885,['c'],1,left,['9'],5,122,[0.06754958],85,47,medium,minus,dotcolour,alfa,,,111,18,M,R,
510,6,6,12,4,33,47,1184,['n'],1,right,['8'],4,207,[-0.10505453],89,47,medium,minus,dotcolour,alfa,,,111,18,M,R,
511,7,7,12,4,53,27,816,['c'],1,left,['8'],4,175,[0.03915491],70,53,easy,minus,dotcolour,alfa,,,111,18,M,R,
512,8,8,12,4,36,44,850,['n'],1,right,['9'],5,319,[-0.22886667],97,44,hard,minus,dotcolour,alfa,,,111,18,M,R,
513,9,9,12,4,44,36,1367,['c'],1,left,['9'],5,245,[0.08467811],82,44,hard,minus,dotcolour,alfa,,,111,18,M,R,
514,10,10,12,4,36,44,1017,['n'],1,right,['8'],4,404,[-0.12149883],85,44,hard,minus,dotcolour,alfa,,,111,18,M,R,
515,11,11,12,4,33,47,1416,['n'],1,right,['9'],5,573,[-0.17767133],89,47,medium,minus,dotcolour,alfa,,,111,18,M,R,
516,12,12,12,4,27,53,1350,['n'],1,right,['0'],6,448,[-0.09497073],78,53,easy,minus,dotcolour,alfa,,,111,18,M,R,
517,13,13,12,4,33,47,750,['n'],1,right,['9'],5,738,[-0.10164271],74,47,medium,minus,dotcolour,alfa,,,111,18,M,R,
518,14,14,12,4,44,36,683,['c'],1,left,['9'],5,698,[0.15547747],84,44,hard,minus,dotcolour,alfa,,,111,18,M,R,
519,15,15,12,4,53,27,783,['c'],1,left,['9'],5,760,[0.24688107],93,53,easy,minus,dotcolour,alfa,,,111,18,M,R,
520,16,16,12,4,53,27,933,['c'],1,left,['0'],6,53,[0.08493658],97,53,easy,minus,dotcolour,alfa,,,111,18,M,R,
521,17,17,12,4,53,27,550,['c'],1,left,['0'],6,166,[0.03603001],69,53,easy,minus,dotcolour,alfa,,,111,18,M,R,
522,18,18,12,4,44,36,767,['n'],0,left,['3'],3,1706,[0.07786635],37,44,hard,minus,dotcolour,alfa,,,111,18,M,R,
523,19,19,12,4,36,44,817,['n'],1,right,['8'],4,495,[-0.20301562],93,44,hard,minus,dotcolour,alfa,,,111,18,M,R,
524,20,20,12,4,33,47,999,['n'],1,right,['9'],5,139,[-0.12736951],96,47,medium,minus,dotcolour,alfa,,,111,18,M,R,
525,21,21,12,4,44,36,617,['c'],1,left,['0'],6,70,[0.10965534],98,44,hard,minus,dotcolour,alfa,,,111,18,M,R,
526,22,22,12,4,47,33,1684,['n'],0,left,['9'],5,226,[-0.08176994],82,47,medium,minus,dotcolour,alfa,,,111,18,M,R,
527,23,23,12,4,53,27,568,['c'],1,left,['0'],6,107,[0.0653824],86,53,easy,minus,dotcolour,alfa,,,111,18,M,R,
528,24,24,12,4,53,27,450,['c'],1,left,['0'],6,69,[0.08039113],94,53,easy,minus,dotcolour,alfa,,,111,18,M,R,
529,25,25,12,4,47,33,550,['c'],1,left,['0'],6,230,[0.03003338],64,47,medium,minus,dotcolour,alfa,,,111,18,M,R,
530,26,26,12,4,33,47,801,['c'],0,right,['8'],4,399,[0.1058905],82,47,medium,minus,dotcolour,alfa,,,111,18,M,R,
531,27,27,12,4,47,33,949,['c'],1,left,['9'],5,187,[0.05341071],75,47,medium,minus,dotcolour,alfa,,,111,18,M,R,
532,28,28,12,4,47,33,783,['c'],1,left,['9'],5,181,[0.17617254],98,47,medium,minus,dotcolour,alfa,,,111,18,M,R,
533,29,29,12,4,27,53,552,['n'],1,right,['0'],6,128,[-0.10375985],93,53,easy,minus,dotcolour,alfa,,,111,18,M,R,
534,30,30,12,4,47,33,549,['c'],1,left,['0'],6,87,[0.09191785],94,47,medium,minus,dotcolour,alfa,,,111,18,M,R,
535,31,31,12,4,36,44,1034,['n'],1,right,['9'],5,251,[-0.07064041],78,44,hard,minus,dotcolour,alfa,,,111,18,M,R,
536,32,32,12,4,27,53,900,['n'],1,right,['0'],6,222,[-0.12467543],92,53,easy,minus,dotcolour,alfa,,,111,18,M,R,
537,33,33,12,4,27,53,700,['n'],1,right,['9'],5,298,[-0.06789665],75,53,easy,minus,dotcolour,alfa,,,111,18,M,R,
538,34,34,12,4,27,53,801,['n'],1,right,['0'],6,160,[-0.1351081],95,53,easy,minus,dotcolour,alfa,,,111,18,M,R,
539,35,35,12,4,44,36,817,['c'],1,left,['9'],5,258,[0.00697951],53,44,hard,minus,dotcolour,alfa,,,111,18,M,R,
540,36,36,12,4,44,36,867,['c'],1,left,['8'],4,270,[0.09452899],84,44,hard,minus,dotcolour,alfa,,,111,18,M,R,
541,37,37,12,4,36,44,933,['n'],1,right,['9'],5,239,[-0.10795069],88,44,hard,minus,dotcolour,alfa,,,111,18,M,R,
542,38,38,12,4,36,44,766,['c'],0,right,['9'],5,208,[0.02842798],64,44,hard,minus,dotcolour,alfa,,,111,18,M,R,
543,39,39,12,4,33,47,666,['c'],0,right,['8'],4,774,[-0.04345788],39,47,medium,minus,dotcolour,alfa,,,111,18,M,R,
544,40,40,12,4,27,53,1133,['n'],1,right,['0'],6,443,[-0.10819133],81,53,easy,minus,dotcolour,alfa,,,111,18,M,R,
545,41,41,12,4,33,47,784,['n'],1,right,['0'],6,219,[-0.14381184],94,47,medium,minus,dotcolour,alfa,,,111,18,M,R,
546,42,0,13,4,33,47,684,['c'],0,right,['2'],2,1208,[-0.08754191],33,47,medium,minus,dotcolour,alfa,,,111,18,M,R,
547,43,1,13,4,44,36,1367,['c'],1,left,['8'],4,3642,[0.33528996],83,44,hard,minus,dotcolour,alfa,,,111,18,M,R,
548,44,2,13,4,47,33,883,['c'],1,left,['8'],4,109,[0.12669529],97,47,medium,minus,dotcolour,alfa,,,111,18,M,R,
549,45,3,13,4,36,44,634,['n'],1,right,['8'],4,112,[-0.08166287],90,44,hard,minus,dotcolour,alfa,,,111,18,M,R,
550,46,4,13,4,36,44,1000,['n'],1,right,['8'],4,190,[-0.10014568],89,44,hard,minus,dotcolour,alfa,,,111,18,M,R,
551,47,5,13,4,33,47,1016,['n'],1,right,['3'],3,710,[-0.06909823],68,47,medium,minus,dotcolour,alfa,,,111,18,M,R,
552,48,6,13,4,33,47,884,['n'],1,right,['0'],6,135,[-0.01836498],61,47,medium,minus,dotcolour,alfa,,,111,18,M,R,
553,49,7,13,4,36,44,867,['c'],0,right,['9'],5,177,[0.02270049],62,44,hard,minus,dotcolour,alfa,,,111,18,M,R,
554,50,8,13,4,47,33,699,['c'],1,left,['0'],6,142,[0.06439817],82,47,medium,minus,dotcolour,alfa,,,111,18,M,R,
555,51,9,13,4,53,27,750,['n'],0,left,['9'],5,124,[-0.11716301],95,53,easy,minus,dotcolour,alfa,,,111,18,M,R,
556,52,10,13,4,47,33,701,['c'],1,left,['0'],6,108,[0.10722488],95,47,medium,minus,dotcolour,alfa,,,111,18,M,R,
557,53,11,13,4,27,53,1000,['n'],1,right,['0'],6,129,[-0.06346126],83,53,easy,minus,dotcolour,alfa,,,111,18,M,R,
558,54,12,13,4,53,27,683,['c'],1,left,['0'],6,121,[0.15792973],98,53,easy,minus,dotcolour,alfa,,,111,18,M,R,
559,55,13,13,4,36,44,1401,['n'],1,right,['0'],6,230,[-0.02202121],60,44,hard,minus,dotcolour,alfa,,,111,18,M,R,
560,56,14,13,4,36,44,1184,['n'],1,right,['0'],6,343,[-0.04146094],65,44,hard,minus,dotcolour,alfa,,,111,18,M,R,
561,57,15,13,4,27,53,634,['n'],1,right,['0'],6,185,[-0.05299543],75,53,easy,minus,dotcolour,alfa,,,111,18,M,R,
562,58,16,13,4,33,47,650,['n'],1,right,['9'],5,425,[-0.17531944],92,47,medium,minus,dotcolour,alfa,,,111,18,M,R,
563,59,17,13,4,27,53,2467,['n'],1,right,['8'],4,174,[-0.09215656],88,53,easy,minus,dotcolour,alfa,,,111,18,M,R,
564,60,18,13,4,27,53,617,['n'],1,right,['9'],5,232,[-0.0750271],80,53,easy,minus,dotcolour,alfa,,,111,18,M,R,
565,61,19,13,4,47,33,717,['c'],1,left,['0'],6,243,[0.13155539],92,47,medium,minus,dotcolour,alfa,,,111,18,M,R,
566,62,20,13,4,44,36,717,['c'],1,left,['9'],5,206,[0.1033966],89,44,hard,minus,dotcolour,alfa,,,111,18,M,R,
567,63,21,13,4,44,36,1750,['n'],0,left,['8'],4,297,[-0.02240461],59,44,hard,minus,dotcolour,alfa,,,111,18,M,R,
568,64,22,13,4,53,27,983,['c'],1,left,['0'],6,95,[0.10213776],95,53,easy,minus,dotcolour,alfa,,,111,18,M,R,
569,65,23,13,4,53,27,534,['c'],1,left,['9'],5,87,[0.11521937],97,53,easy,minus,dotcolour,alfa,,,111,18,M,R,
570,66,24,13,4,47,33,650,['c'],1,left,['9'],5,139,[0.03878218],72,47,medium,minus,dotcolour,alfa,,,111,18,M,R,
571,67,25,13,4,53,27,615,['c'],1,left,['9'],5,174,[0.13944978],95,53,easy,minus,dotcolour,alfa,,,111,18,M,R,
572,68,26,13,4,36,44,784,['n'],1,right,['0'],6,289,[-0.00019685],50,44,hard,minus,dotcolour,alfa,,,111,18,M,R,
573,69,27,13,4,27,53,1033,['n'],1,right,['0'],6,301,[-0.15938638],93,53,easy,minus,dotcolour,alfa,,,111,18,M,R,
574,70,28,13,4,53,27,650,['c'],1,left,['0'],6,241,[0.03800707],67,53,easy,minus,dotcolour,alfa,,,111,18,M,R,
575,71,29,13,4,33,47,1766,['n'],1,right,['9'],5,241,[-0.12111418],90,47,medium,minus,dotcolour,alfa,,,111,18,M,R,
576,72,30,13,4,47,33,1067,['c'],1,left,['0'],6,126,[0.02612094],66,47,medium,minus,dotcolour,alfa,,,111,18,M,R,
577,73,31,13,4,33,47,1917,['n'],1,right,['9'],5,261,[-0.0641197],76,47,medium,minus,dotcolour,alfa,,,111,18,M,R,
578,74,32,13,4,27,53,1184,['n'],1,right,['0'],6,244,[-0.07660063],80,53,easy,minus,dotcolour,alfa,,,111,18,M,R,
579,75,33,13,4,33,47,1250,['n'],1,right,['9'],5,242,[-0.0645068],76,47,medium,minus,dotcolour,alfa,,,111,18,M,R,
580,76,34,13,4,44,36,700,['c'],1,left,['0'],6,269,[0.05711102],73,44,hard,minus,dotcolour,alfa,,,111,18,M,R,
581,77,35,13,4,44,36,1183,['c'],1,left,['9'],5,172,[-0.00895112],45,44,hard,minus,dotcolour,alfa,,,111,18,M,R,
582,78,36,13,4,53,27,716,['c'],1,left,['0'],6,250,[0.10962948],88,53,easy,minus,dotcolour,alfa,,,111,18,M,R,
583,79,37,13,4,44,36,834,['c'],1,left,['0'],6,304,[0.12772583],89,44,hard,minus,dotcolour,alfa,,,111,18,M,R,
584,80,38,13,4,47,33,1050,['c'],1,left,['0'],6,195,[0.12470301],93,47,medium,minus,dotcolour,alfa,,,111,18,M,R,
585,81,39,13,4,27,53,1817,['n'],1,right,['0'],6,260,[-0.12577673],90,53,easy,minus,dotcolour,alfa,,,111,18,M,R,
586,82,40,13,4,44,36,1050,['c'],1,left,['9'],5,240,[0.05993424],75,44,hard,minus,dotcolour,alfa,,,111,18,M,R,
587,83,41,13,4,36,44,784,['c'],0,right,['0'],6,352,[-0.02075133],42,44,hard,minus,dotcolour,alfa,,,111,18,M,R,
588,84,0,14,4,27,53,635,['c'],0,right,['1'],1,823,[0.11494079],76,53,easy,minus,dotcolour,alfa,,,111,18,M,R,
589,85,1,14,4,47,33,1016,['c'],1,left,['0'],6,599,[0.08616231],73,47,medium,minus,dotcolour,alfa,,,111,18,M,R,
590,86,2,14,4,44,36,1166,['n'],0,left,['0'],6,329,[-0.03903229],65,44,hard,minus,dotcolour,alfa,,,111,18,M,R,
591,87,3,14,4,44,36,983,['c'],1,left,['9'],5,302,[0.15868494],93,44,hard,minus,dotcolour,alfa,,,111,18,M,R,
592,88,4,14,4,27,53,583,['n'],1,right,['0'],6,140,[-0.07481172],86,53,easy,minus,dotcolour,alfa,,,111,18,M,R,
593,89,5,14,4,36,44,816,['n'],1,right,['8'],4,190,[-0.14197252],95,44,hard,minus,dotcolour,alfa,,,111,18,M,R,
594,90,6,14,4,33,47,3617,['n'],1,right,['9'],5,527,[-0.08883606],75,47,medium,minus,dotcolour,alfa,,,111,18,M,R,
595,91,7,14,4,27,53,867,['n'],1,right,['9'],5,185,[-0.10248057],90,53,easy,minus,dotcolour,alfa,,,111,18,M,R,
596,92,8,14,4,33,47,716,['n'],1,right,['9'],5,199,[-0.04137343],70,47,medium,minus,dotcolour,alfa,,,111,18,M,R,
597,93,9,14,4,33,47,883,['n'],1,right,['9'],5,204,[-0.12011587],92,47,medium,minus,dotcolour,alfa,,,111,18,M,R,
598,94,10,14,4,27,53,867,['n'],1,right,['0'],6,219,[-0.13411114],93,53,easy,minus,dotcolour,alfa,,,111,18,M,R,
599,95,11,14,4,27,53,683,['n'],1,right,['0'],6,168,[-0.06384682],80,53,easy,minus,dotcolour,alfa,,,111,18,M,R,
600,96,12,14,4,53,27,650,['c'],1,left,['0'],6,120,[0.12787494],97,53,easy,minus,dotcolour,alfa,,,111,18,M,R,
601,97,13,14,4,47,33,617,['c'],1,left,['0'],6,157,[0.0010705],51,47,medium,minus,dotcolour,alfa,,,111,18,M,R,
602,98,14,14,4,36,44,617,['n'],1,right,['0'],6,279,[-0.1173053],88,44,hard,minus,dotcolour,alfa,,,111,18,M,R,
603,99,15,14,4,33,47,933,['n'],1,right,['9'],5,280,[-0.07405648],78,47,medium,minus,dotcolour,alfa,,,111,18,M,R,
604,100,16,14,4,33,47,600,['n'],1,right,['0'],6,221,[-0.09317123],86,47,medium,minus,dotcolour,alfa,,,111,18,M,R,
605,101,17,14,4,36,44,517,['n'],1,right,['9'],5,329,[-0.11206384],85,44,hard,minus,dotcolour,alfa,,,111,18,M,R,
606,102,18,14,4,47,33,467,['c'],1,left,['9'],5,195,[0.04260293],70,47,medium,minus,dotcolour,alfa,,,111,18,M,R,
607,103,19,14,4,47,33,650,['c'],1,left,['9'],5,219,[0.0965137],86,47,medium,minus,dotcolour,alfa,,,111,18,M,R,
608,104,20,14,4,36,44,1050,['n'],1,right,['0'],6,249,[-0.08825022],83,44,hard,minus,dotcolour,alfa,,,111,18,M,R,
609,105,21,14,4,53,27,1201,['c'],1,left,['0'],6,296,[0.11764871],88,53,easy,minus,dotcolour,alfa,,,111,18,M,R,
610,106,22,14,4,36,44,984,['n'],1,right,['0'],6,254,[0.01062104],45,44,hard,minus,dotcolour,alfa,,,111,18,M,R,
611,107,23,14,4,27,53,1784,['n'],1,right,['9'],5,302,[-0.1765802],95,53,easy,minus,dotcolour,alfa,,,111,18,M,R,
612,108,24,14,4,33,47,934,['n'],1,right,['9'],5,231,[-0.12291145],91,47,medium,minus,dotcolour,alfa,,,111,18,M,R,
613,109,25,14,4,53,27,783,['c'],1,left,['0'],6,191,[0.03538347],67,53,easy,minus,dotcolour,alfa,,,111,18,M,R,
614,110,26,14,4,47,33,916,['c'],1,left,['9'],5,323,[0.07526456],77,47,medium,minus,dotcolour,alfa,,,111,18,M,R,
615,111,27,14,4,44,36,767,['c'],1,left,['9'],5,153,[0.11608378],94,44,hard,minus,dotcolour,alfa,,,111,18,M,R,
616,112,28,14,4,27,53,767,['n'],1,right,['0'],6,245,[-0.11259748],89,53,easy,minus,dotcolour,alfa,,,111,18,M,R,
617,113,29,14,4,53,27,917,['c'],1,left,['9'],5,184,[0.07358785],82,53,easy,minus,dotcolour,alfa,,,111,18,M,R,
618,114,30,14,4,36,44,750,['n'],1,right,['9'],5,196,[-0.05912224],77,44,hard,minus,dotcolour,alfa,,,111,18,M,R,
619,115,31,14,4,36,44,984,['n'],1,right,['9'],5,334,[-0.01319008],55,44,hard,minus,dotcolour,alfa,,,111,18,M,R,
620,116,32,14,4,44,36,1017,['c'],1,left,['9'],5,130,[0.08856814],90,44,hard,minus,dotcolour,alfa,,,111,18,M,R,
621,117,33,14,4,44,36,733,['c'],1,left,['9'],5,176,[0.02665082],64,44,hard,minus,dotcolour,alfa,,,111,18,M,R,
622,118,34,14,4,53,27,917,['c'],1,left,['9'],5,150,[0.09474883],90,53,easy,minus,dotcolour,alfa,,,111,18,M,R,
623,119,35,14,4,33,47,749,['n'],1,right,['9'],5,195,[-0.07870138],83,47,medium,minus,dotcolour,alfa,,,111,18,M,R,
624,120,36,14,4,47,33,1700,['c'],1,left,['9'],5,241,[0.01088687],55,47,medium,minus,dotcolour,alfa,,,111,18,M,R,
625,121,37,14,4,47,33,1066,['n'],0,left,['8'],4,189,[-0.02824577],64,47,medium,minus,dotcolour,alfa,,,111,18,M,R,
626,122,38,14,4,53,27,700,['c'],1,left,['9'],5,91,[0.04997579],82,53,easy,minus,dotcolour,alfa,,,111,18,M,R,
627,123,39,14,4,53,27,684,['c'],1,left,['0'],6,117,[0.09874352],93,53,easy,minus,dotcolour,alfa,,,111,18,M,R,
628,124,40,14,4,44,36,901,['c'],1,left,['9'],5,174,[0.09023628],88,44,hard,minus,dotcolour,alfa,,,111,18,M,R,
629,125,41,14,4,44,36,751,['c'],1,left,['9'],5,218,[-0.02966666],36,44,hard,minus,dotcolour,alfa,,,111,18,M,R,
630,0,0,15,5,33,47,601,['n'],1,right,['0'],6,173,[-0.06328368],100,47,medium,plus,dotcolour,alfa,,,111,18,M,R,
631,1,1,15,5,27,53,484,['n'],1,right,['0'],6,116,[-0.06408458],100,53,easy,plus,dotcolour,alfa,,,111,18,M,R,
632,2,2,15,5,33,47,633,['n'],1,right,['9'],5,159,[-0.09033494],100,47,medium,plus,dotcolour,alfa,,,111,18,M,R,
633,3,3,15,5,44,36,817,['c'],1,left,['0'],6,202,[0.08675371],100,44,hard,plus,dotcolour,alfa,,,111,18,M,R,
634,4,4,15,5,27,53,483,['n'],1,right,['0'],6,103,[-0.07510952],100,53,easy,plus,dotcolour,alfa,,,111,18,M,R,
635,5,5,15,5,53,27,600,['c'],1,left,['0'],6,125,[0.09508163],100,53,easy,plus,dotcolour,alfa,,,111,18,M,R,
636,6,6,15,5,44,36,683,['c'],1,left,['9'],5,294,[0.170479],100,44,hard,plus,dotcolour,alfa,,,111,18,M,R,
637,7,7,15,5,44,36,666,['n'],0,left,['0'],6,136,[-0.08002657],100,44,hard,plus,dotcolour,alfa,,,111,18,M,R,
638,8,8,15,5,47,33,484,['c'],1,left,['9'],5,185,[0.03183012],93,47,medium,plus,dotcolour,alfa,,,111,18,M,R,
639,9,9,15,5,53,27,600,['c'],1,left,['0'],6,123,[0.08407286],100,53,easy,plus,dotcolour,alfa,,,111,18,M,R,
640,10,10,15,5,33,47,516,['n'],1,right,['0'],6,99,[-0.03910915],99,47,medium,plus,dotcolour,alfa,,,111,18,M,R,
641,11,11,15,5,36,44,950,['n'],1,right,['8'],4,178,[-0.12318562],100,44,hard,plus,dotcolour,alfa,,,111,18,M,R,
642,12,12,15,5,36,44,534,['c'],0,right,['0'],6,143,[0.09800261],100,44,hard,plus,dotcolour,alfa,,,111,18,M,R,
643,13,13,15,5,44,36,567,['c'],1,left,['0'],6,131,[0.14140743],100,44,hard,plus,dotcolour,alfa,,,111,18,M,R,
644,14,14,15,5,53,27,533,['c'],1,left,['0'],6,306,[0.11733574],100,53,easy,plus,dotcolour,alfa,,,111,18,M,R,
645,15,15,15,5,47,33,1000,['n'],0,left,['0'],6,287,[0.01316364],29,47,medium,plus,dotcolour,alfa,,,111,18,M,R,
646,16,16,15,5,36,44,901,['n'],1,right,['9'],5,321,[-0.10472454],100,44,hard,plus,dotcolour,alfa,,,111,18,M,R,
647,17,17,15,5,44,36,1167,['c'],1,left,['9'],5,159,[0.05748041],99,44,hard,plus,dotcolour,alfa,,,111,18,M,R,
648,18,18,15,5,47,33,884,['c'],1,left,['0'],6,318,[0.07971493],99,47,medium,plus,dotcolour,alfa,,,111,18,M,R,
649,19,19,15,5,36,44,933,['n'],1,right,['9'],5,189,[-0.06401401],100,44,hard,plus,dotcolour,alfa,,,111,18,M,R,
650,20,20,15,5,36,44,650,['n'],1,right,['9'],5,189,[-0.10493093],100,44,hard,plus,dotcolour,alfa,,,111,18,M,R,
651,21,21,15,5,27,53,784,['n'],1,right,['0'],6,343,[-0.0541627],97,53,easy,plus,dotcolour,alfa,,,111,18,M,R,
652,22,22,15,5,33,47,1500,['n'],1,right,['8'],4,287,[-0.16969451],100,47,medium,plus,dotcolour,alfa,,,111,18,M,R,
653,23,23,15,5,36,44,600,['n'],1,right,['0'],6,197,[-0.0488682],98,44,hard,plus,dotcolour,alfa,,,111,18,M,R,
654,24,24,15,5,44,36,651,['c'],1,left,['0'],6,116,[0.01131214],77,44,hard,plus,dotcolour,alfa,,,111,18,M,R,
655,25,25,15,5,53,27,767,['c'],1,left,['0'],6,130,[0.07462465],100,53,easy,plus,dotcolour,alfa,,,111,18,M,R,
656,26,26,15,5,27,53,483,['n'],1,right,['0'],6,123,[-0.09769538],100,53,easy,plus,dotcolour,alfa,,,111,18,M,R,
657,27,27,15,5,27,53,516,['n'],1,right,['0'],6,107,[-0.09340247],100,53,easy,plus,dotcolour,alfa,,,111,18,M,R,
658,28,28,15,5,36,44,550,['n'],1,right,['0'],6,193,[-0.10199381],100,44,hard,plus,dotcolour,alfa,,,111,18,M,R,
659,29,29,15,5,33,47,699,['n'],1,right,['0'],6,175,[-0.11989334],100,47,medium,plus,dotcolour,alfa,,,111,18,M,R,
660,30,30,15,5,27,53,533,['n'],1,right,['0'],6,155,[-0.15946213],100,53,easy,plus,dotcolour,alfa,,,111,18,M,R,
661,31,31,15,5,47,33,484,['n'],0,left,['0'],6,108,[-0.01755523],87,47,medium,plus,dotcolour,alfa,,,111,18,M,R,
662,32,32,15,5,33,47,600,['n'],1,right,['0'],6,144,[-0.02346788],90,47,medium,plus,dotcolour,alfa,,,111,18,M,R,
663,33,33,15,5,33,47,600,['n'],1,right,['9'],5,283,[-0.19990609],100,47,medium,plus,dotcolour,alfa,,,111,18,M,R,
664,34,34,15,5,53,27,783,['c'],1,left,['9'],5,146,[0.09199415],100,53,easy,plus,dotcolour,alfa,,,111,18,M,R,
665,35,35,15,5,47,33,800,['n'],0,left,['8'],4,197,[-0.07635037],100,47,medium,plus,dotcolour,alfa,,,111,18,M,R,
666,36,36,15,5,47,33,1100,['c'],1,left,['9'],5,227,[0.18697902],100,47,medium,plus,dotcolour,alfa,,,111,18,M,R,
667,37,37,15,5,53,27,867,['c'],1,left,['9'],5,168,[0.15239852],100,53,easy,plus,dotcolour,alfa,,,111,18,M,R,
668,38,38,15,5,47,33,650,['c'],1,left,['9'],5,73,[0.07956052],100,47,medium,plus,dotcolour,alfa,,,111,18,M,R,
669,39,39,15,5,44,36,567,['c'],1,left,['9'],5,81,[0.05380406],100,44,hard,plus,dotcolour,alfa,,,111,18,M,R,
670,40,40,15,5,27,53,600,['n'],1,right,['9'],5,199,[-0.00827665],66,53,easy,plus,dotcolour,alfa,,,111,18,M,R,
671,41,41,15,5,53,27,650,['c'],1,left,['9'],5,151,[0.06795946],100,53,easy,plus,dotcolour,alfa,,,111,18,M,R,
672,42,0,16,5,33,47,533,['n'],1,right,['0'],6,168,[-0.05137736],99,47,medium,plus,dotcolour,alfa,,,111,18,M,R,
673,43,1,16,5,53,27,584,['c'],1,left,['0'],6,252,[0.14063995],100,53,easy,plus,dotcolour,alfa,,,111,18,M,R,
674,44,2,16,5,53,27,633,['c'],1,left,['9'],5,362,[0.13984941],100,53,easy,plus,dotcolour,alfa,,,111,18,M,R,
675,45,3,16,5,27,53,484,['n'],1,right,['0'],6,169,[-0.08742698],100,53,easy,plus,dotcolour,alfa,,,111,18,M,R,
676,46,4,16,5,44,36,616,['c'],1,left,['9'],5,163,[0.13901497],100,44,hard,plus,dotcolour,alfa,,,111,18,M,R,
677,47,5,16,5,33,47,517,['n'],1,right,['0'],6,169,[-0.11084996],100,47,medium,plus,dotcolour,alfa,,,111,18,M,R,
678,48,6,16,5,27,53,634,['n'],1,right,['0'],6,234,[-0.04879387],97,53,easy,plus,dotcolour,alfa,,,111,18,M,R,
679,49,7,16,5,44,36,933,['c'],1,left,['9'],5,326,[0.0354837],90,44,hard,plus,dotcolour,alfa,,,111,18,M,R,
680,50,8,16,5,53,27,683,['c'],1,left,['0'],6,262,[0.10646299],100,53,easy,plus,dotcolour,alfa,,,111,18,M,R,
681,51,9,16,5,44,36,951,['c'],1,left,['0'],6,191,[0.05623494],99,44,hard,plus,dotcolour,alfa,,,111,18,M,R,
682,52,10,16,5,27,53,617,['n'],1,right,['0'],6,207,[-0.12522157],100,53,easy,plus,dotcolour,alfa,,,111,18,M,R,
683,53,11,16,5,53,27,750,['c'],1,left,['0'],6,178,[0.11336496],100,53,easy,plus,dotcolour,alfa,,,111,18,M,R,
684,54,12,16,5,53,27,566,['n'],0,left,['0'],6,365,[0.0469255],6,53,easy,plus,dotcolour,alfa,,,111,18,M,R,
685,55,13,16,5,47,33,617,['c'],1,left,['0'],6,167,[0.09064533],100,47,medium,plus,dotcolour,alfa,,,111,18,M,R,
686,56,14,16,5,36,44,483,['n'],1,right,['0'],6,231,[-0.04488501],97,44,hard,plus,dotcolour,alfa,,,111,18,M,R,
687,57,15,16,5,27,53,533,['n'],1,right,['0'],6,113,[-0.14124079],100,53,easy,plus,dotcolour,alfa,,,111,18,M,R,
688,58,16,16,5,36,44,450,['n'],1,right,['0'],6,220,[-0.13017062],100,44,hard,plus,dotcolour,alfa,,,111,18,M,R,
689,59,17,16,5,44,36,667,['c'],1,left,['9'],5,178,[0.10550364],100,44,hard,plus,dotcolour,alfa,,,111,18,M,R,
690,60,18,16,5,47,33,634,['c'],1,left,['9'],5,243,[0.12344941],100,47,medium,plus,dotcolour,alfa,,,111,18,M,R,
691,61,19,16,5,36,44,567,['n'],1,right,['0'],6,379,[-0.10182449],100,44,hard,plus,dotcolour,alfa,,,111,18,M,R,
692,62,20,16,5,47,33,733,['c'],1,left,['0'],6,201,[0.08945104],100,47,medium,plus,dotcolour,alfa,,,111,18,M,R,
693,63,21,16,5,36,44,501,['n'],1,right,['0'],6,253,[-0.12348799],100,44,hard,plus,dotcolour,alfa,,,111,18,M,R,
694,64,22,16,5,27,53,700,['n'],1,right,['0'],6,225,[-0.07766872],100,53,easy,plus,dotcolour,alfa,,,111,18,M,R,
695,65,23,16,5,33,47,483,['n'],1,right,['0'],6,205,[-0.00609082],62,47,medium,plus,dotcolour,alfa,,,111,18,M,R,
696,66,24,16,5,47,33,717,['c'],1,left,['0'],6,178,[0.08777898],100,47,medium,plus,dotcolour,alfa,,,111,18,M,R,
697,67,25,16,5,36,44,800,['c'],0,right,['9'],5,196,[0.02401006],88,44,hard,plus,dotcolour,alfa,,,111,18,M,R,
698,68,26,16,5,47,33,1200,['c'],1,left,['9'],5,197,[0.06493656],99,47,medium,plus,dotcolour,alfa,,,111,18,M,R,
699,69,27,16,5,53,27,1766,['n'],0,left,['0'],6,208,[-0.05949682],99,53,easy,plus,dotcolour,alfa,,,111,18,M,R,
700,70,28,16,5,27,53,632,['n'],1,right,['0'],6,215,[-0.05199169],98,53,easy,plus,dotcolour,alfa,,,111,18,M,R,
701,71,29,16,5,36,44,1133,['c'],0,right,['8'],4,98,[0.08568353],100,44,hard,plus,dotcolour,alfa,,,111,18,M,R,
702,72,30,16,5,44,36,734,['n'],0,left,['8'],4,179,[-0.06982413],100,44,hard,plus,dotcolour,alfa,,,111,18,M,R,
703,73,31,16,5,36,44,800,['n'],1,right,['8'],4,285,[-0.15518173],100,44,hard,plus,dotcolour,alfa,,,111,18,M,R,
704,74,32,16,5,33,47,917,['n'],1,right,['8'],4,158,[-0.06242015],100,47,medium,plus,dotcolour,alfa,,,111,18,M,R,
705,75,33,16,5,53,27,683,['c'],1,left,['9'],5,253,[0.22276813],100,53,easy,plus,dotcolour,alfa,,,111,18,M,R,
706,76,34,16,5,33,47,500,['c'],0,right,['0'],6,105,[0.13321912],100,47,medium,plus,dotcolour,alfa,,,111,18,M,R,
707,77,35,16,5,33,47,567,['n'],1,right,['9'],5,543,[-0.14857464],100,47,medium,plus,dotcolour,alfa,,,111,18,M,R,
708,78,36,16,5,47,33,900,['c'],1,left,['0'],6,239,[0.13780037],100,47,medium,plus,dotcolour,alfa,,,111,18,M,R,
709,79,37,16,5,33,47,935,['c'],0,right,['8'],4,177,[0.07967522],100,47,medium,plus,dotcolour,alfa,,,111,18,M,R,
710,80,38,16,5,44,36,916,['c'],1,left,['9'],5,230,[0.18918169],100,44,hard,plus,dotcolour,alfa,,,111,18,M,R,
711,81,39,16,5,44,36,667,['c'],1,left,['1'],1,115,[0.00774205],69,44,hard,plus,dotcolour,alfa,,,111,18,M,R,
712,82,40,16,5,27,53,833,['n'],1,right,['9'],5,407,[-0.26728598],100,53,easy,plus,dotcolour,alfa,,,111,18,M,R,
713,83,41,16,5,47,33,618,['c'],1,left,['9'],5,159,[0.0517299],99,47,medium,plus,dotcolour,alfa,,,111,18,M,R,
714,84,0,17,5,27,53,701,['n'],1,right,['0'],6,182,[-0.16413839],100,53,easy,plus,dotcolour,alfa,,,111,18,M,R,
715,85,1,17,5,47,33,699,['c'],1,left,['9'],5,164,[0.06159685],100,47,medium,plus,dotcolour,alfa,,,111,18,M,R,
716,86,2,17,5,53,27,433,['c'],1,left,['9'],5,133,[0.11305423],100,53,easy,plus,dotcolour,alfa,,,111,18,M,R,
717,87,3,17,5,27,53,716,['n'],1,right,['0'],6,205,[-0.14693341],100,53,easy,plus,dotcolour,alfa,,,111,18,M,R,
718,88,4,17,5,27,53,483,['n'],1,right,['0'],6,146,[-0.09717257],100,53,easy,plus,dotcolour,alfa,,,111,18,M,R,
719,89,5,17,5,47,33,433,['c'],1,left,['0'],6,116,[0.10089418],100,47,medium,plus,dotcolour,alfa,,,111,18,M,R,
720,90,6,17,5,47,33,701,['c'],1,left,['0'],6,141,[0.05012437],99,47,medium,plus,dotcolour,alfa,,,111,18,M,R,
721,91,7,17,5,44,36,450,['c'],1,left,['0'],6,238,[0.05910078],99,44,hard,plus,dotcolour,alfa,,,111,18,M,R,
722,92,8,17,5,36,44,783,['c'],0,right,['0'],6,143,[0.05388248],99,44,hard,plus,dotcolour,alfa,,,111,18,M,R,
723,93,9,17,5,53,27,766,['c'],1,left,['0'],6,155,[0.09057828],100,53,easy,plus,dotcolour,alfa,,,111,18,M,R,
724,94,10,17,5,44,36,1067,['c'],1,left,['0'],6,148,[0.16128206],100,44,hard,plus,dotcolour,alfa,,,111,18,M,R,
725,95,11,17,5,53,27,732,['c'],1,left,['0'],6,123,[0.10784601],100,53,easy,plus,dotcolour,alfa,,,111,18,M,R,
726,96,12,17,5,33,47,867,['c'],0,right,['8'],4,165,[0.06243475],100,47,medium,plus,dotcolour,alfa,,,111,18,M,R,
727,97,13,17,5,33,47,817,['c'],0,right,['8'],4,222,[0.00546807],60,47,medium,plus,dotcolour,alfa,,,111,18,M,R,
728,98,14,17,5,47,33,500,['c'],1,left,['9'],5,138,[0.03845673],98,47,medium,plus,dotcolour,alfa,,,111,18,M,R,
729,99,15,17,5,47,33,566,['c'],1,left,['9'],5,400,[0.11779619],100,47,medium,plus,dotcolour,alfa,,,111,18,M,R,
730,100,16,17,5,47,33,550,['c'],1,left,['9'],5,467,[0.16111218],100,47,medium,plus,dotcolour,alfa,,,111,18,M,R,
731,101,17,17,5,27,53,1034,['n'],1,right,['9'],5,200,[-0.08632193],100,53,easy,plus,dotcolour,alfa,,,111,18,M,R,
732,102,18,17,5,47,33,1033,['c'],1,left,['0'],6,193,[0.05288507],99,47,medium,plus,dotcolour,alfa,,,111,18,M,R,
733,103,19,17,5,36,44,1167,['c'],0,right,['9'],5,139,[0.00873263],70,44,hard,plus,dotcolour,alfa,,,111,18,M,R,
734,104,20,17,5,27,53,1451,['n'],1,right,['0'],6,141,[-0.13913842],100,53,easy,plus,dotcolour,alfa,,,111,18,M,R,
735,105,21,17,5,36,44,6600,['n'],1,right,['8'],4,400,[-0.05084072],95,44,hard,plus,dotcolour,alfa,,,111,18,M,R,
736,106,22,17,5,27,53,684,['n'],1,right,['8'],4,191,[-0.06928338],100,53,easy,plus,dotcolour,alfa,,,111,18,M,R,
737,107,23,17,5,53,27,650,['c'],1,left,['9'],5,191,[0.07989166],100,53,easy,plus,dotcolour,alfa,,,111,18,M,R,
738,108,24,17,5,36,44,1017,['n'],1,right,['9'],5,207,[-0.06486359],99,44,hard,plus,dotcolour,alfa,,,111,18,M,R,
739,109,25,17,5,33,47,1117,['n'],1,right,['8'],4,178,[-0.08858043],100,47,medium,plus,dotcolour,alfa,,,111,18,M,R,
740,110,26,17,5,36,44,817,['n'],1,right,['8'],4,1004,[-0.16960119],100,44,hard,plus,dotcolour,alfa,,,111,18,M,R,
741,111,27,17,5,53,27,666,['c'],1,left,['9'],5,203,[0.12025628],100,53,easy,plus,dotcolour,alfa,,,111,18,M,R,
742,112,28,17,5,27,53,568,['n'],1,right,['9'],5,317,[-0.15106228],100,53,easy,plus,dotcolour,alfa,,,111,18,M,R,
743,113,29,17,5,36,44,917,['c'],0,right,['9'],5,2629,[-0.46022931],0,44,hard,plus,dotcolour,alfa,,,111,18,M,R,
744,114,30,17,5,44,36,884,['c'],1,left,['9'],5,169,[-0.02167553],13,44,hard,plus,dotcolour,alfa,,,111,18,M,R,
745,115,31,17,5,44,36,901,['n'],0,left,['8'],4,303,[-0.05324646],97,44,hard,plus,dotcolour,alfa,,,111,18,M,R,
746,116,32,17,5,44,36,750,['c'],1,left,['9'],5,279,[0.074345],99,44,hard,plus,dotcolour,alfa,,,111,18,M,R,
747,117,33,17,5,33,47,550,['n'],1,right,['8'],4,271,[-0.04072068],94,47,medium,plus,dotcolour,alfa,,,111,18,M,R,
748,118,34,17,5,36,44,800,['n'],1,right,['9'],5,453,[-0.06110214],96,44,hard,plus,dotcolour,alfa,,,111,18,M,R,
749,119,35,17,5,33,47,867,['c'],0,right,['9'],5,434,[0.00974249],63,47,medium,plus,dotcolour,alfa,,,111,18,M,R,
750,120,36,17,5,44,36,817,['n'],0,left,['8'],4,250,[-0.09104166],100,44,hard,plus,dotcolour,alfa,,,111,18,M,R,
751,121,37,17,5,44,36,800,['n'],0,left,['1'],1,969,[0.11556441],1,44,hard,plus,dotcolour,alfa,,,111,18,M,R,
752,122,38,17,5,33,47,683,['c'],0,right,['2'],2,1231,[-0.06019506],12,47,medium,plus,dotcolour,alfa,,,111,18,M,R,
753,123,39,17,5,53,27,816,['c'],1,left,['0'],6,190,[0.07488116],100,53,easy,plus,dotcolour,alfa,,,111,18,M,R,
754,124,40,17,5,53,27,417,['c'],1,left,['9'],5,151,[0.08132734],100,53,easy,plus,dotcolour,alfa,,,111,18,M,R,
755,125,41,17,5,33,47,800,['n'],1,right,['8'],4,234,[-0.01614836],77,47,medium,plus,dotcolour,alfa,,,111,18,M,R,
,,,,,,,,,,,,,,,,,,,,,1,soms het gevoel dat ik fout ben maar dan toch juis,111,18,M,R,
,,,,,,,,,,,,,,,,,,,,,2,['h'],111,18,M,R,
,,,,,,,,,,,,,,,,,,,,,3,['f'],111,18,M,R,
,,,,,,,,,,,,,,,,,,,,,5,"['2', '1', '4', '3', '5', '6']",111,18,M,R,
