trial,withinphasetrial,withinblocktrial,block,phase,dotsLeft,dotsRight,rt,resp,cor,cresp,conf_press,cj,RTconf,ev,fb,diff,difflevel,condition,task,manip,questionID,questionResp,sub,age,gender,handedness,
0,0,0,0,0,53,27,883,['c'],1,left,['0'],1,990,[0.28587333],100,53,easy,plus,dotcolour,beta,,,12,18,V,R,
1,1,1,0,0,53,27,634,['c'],1,left,['9'],2,478,[0.21497671],100,53,easy,plus,dotcolour,beta,,,12,18,V,R,
2,2,2,0,0,27,53,683,['n'],1,right,['0'],1,329,[-0.10456413],99,53,easy,plus,dotcolour,beta,,,12,18,V,R,
3,3,3,0,0,53,27,733,['c'],1,left,['9'],2,352,[0.1047087],99,53,easy,plus,dotcolour,beta,,,12,18,V,R,
4,4,4,0,0,33,47,1950,['n'],1,right,['1'],6,2006,[-0.36696853],100,47,medium,plus,dotcolour,beta,,,12,18,V,R,
5,5,5,0,0,47,33,1200,['c'],1,left,['1'],6,431,[0.04511885],94,47,medium,plus,dotcolour,beta,,,12,18,V,R,
6,6,6,0,0,47,33,1217,['c'],1,left,['2'],5,479,[0.15239214],100,47,medium,plus,dotcolour,beta,,,12,18,V,R,
7,7,7,0,0,44,36,1366,['c'],1,left,['3'],4,1911,[0.35556655],100,44,hard,plus,dotcolour,beta,,,12,18,V,R,
8,8,8,0,0,36,44,817,['n'],1,right,['3'],4,906,[-0.03064404],84,44,hard,plus,dotcolour,beta,,,12,18,V,R,
9,9,9,0,0,27,53,800,['n'],1,right,['2'],5,840,[-0.09684312],95,53,easy,plus,dotcolour,beta,,,12,18,V,R,
10,10,10,0,0,36,44,951,['c'],0,right,['3'],4,449,[0.08641189],98,44,hard,plus,dotcolour,beta,,,12,18,V,R,
11,11,11,0,0,27,53,816,['n'],1,right,['3'],4,296,[-0.13205462],100,53,easy,plus,dotcolour,beta,,,12,18,V,R,
12,12,12,0,0,53,27,784,['c'],1,left,['1'],6,911,[0.1511124],98,53,easy,plus,dotcolour,beta,,,12,18,V,R,
13,13,13,0,0,36,44,1000,['n'],1,right,['3'],4,324,[-0.07634917],98,44,hard,plus,dotcolour,beta,,,12,18,V,R,
14,14,14,0,0,47,33,1200,['c'],1,left,['3'],4,768,[0.15012781],99,47,medium,plus,dotcolour,beta,,,12,18,V,R,
15,15,15,0,0,44,36,884,['n'],0,left,['3'],4,416,[0.04839239],55,44,hard,plus,dotcolour,beta,,,12,18,V,R,
16,16,16,0,0,33,47,950,['c'],0,right,['3'],4,531,[0.1520821],99,47,medium,plus,dotcolour,beta,,,12,18,V,R,
17,17,17,0,0,33,47,1466,['c'],0,right,['3'],4,396,[-0.04154443],60,47,medium,plus,dotcolour,beta,,,12,18,V,R,
18,18,18,0,0,27,53,600,['n'],1,right,['1'],6,1094,[-0.12125953],95,53,easy,plus,dotcolour,beta,,,12,18,V,R,
19,19,19,0,0,53,27,683,['c'],1,left,['1'],6,632,[0.20849083],100,53,easy,plus,dotcolour,beta,,,12,18,V,R,
20,20,20,0,0,36,44,751,['n'],1,right,['1'],6,354,[-0.09320563],99,44,hard,plus,dotcolour,beta,,,12,18,V,R,
21,21,21,0,0,47,33,1366,['n'],0,left,['3'],4,1016,[-0.02242763],80,47,medium,plus,dotcolour,beta,,,12,18,V,R,
22,22,22,0,0,47,33,766,['c'],1,left,['1'],6,713,[0.22466253],100,47,medium,plus,dotcolour,beta,,,12,18,V,R,
23,23,23,0,0,53,27,534,['c'],1,left,['1'],6,513,[0.19504379],100,53,easy,plus,dotcolour,beta,,,12,18,V,R,
24,24,24,0,0,47,33,750,['c'],1,left,['1'],6,456,[0.17595772],100,47,medium,plus,dotcolour,beta,,,12,18,V,R,
25,25,25,0,0,33,47,600,['n'],1,right,['3'],4,631,[-0.12684915],98,47,medium,plus,dotcolour,beta,,,12,18,V,R,
26,26,26,0,0,27,53,650,['n'],1,right,['2'],5,933,[-0.20903058],99,53,easy,plus,dotcolour,beta,,,12,18,V,R,
27,27,27,0,0,44,36,750,['c'],1,left,['2'],5,683,[0.07049541],94,44,hard,plus,dotcolour,beta,,,12,18,V,R,
28,28,28,0,0,36,44,1034,['c'],0,right,['2'],5,376,[0.1518512],100,44,hard,plus,dotcolour,beta,,,12,18,V,R,
29,29,29,0,0,36,44,1234,['n'],1,right,['3'],4,361,[-0.04958458],96,44,hard,plus,dotcolour,beta,,,12,18,V,R,
30,30,30,0,0,33,47,901,['c'],0,right,['3'],4,488,[-0.06701673],43,47,medium,plus,dotcolour,beta,,,12,18,V,R,
31,31,31,0,0,33,47,1267,['c'],0,right,['2'],5,620,[0.09718306],97,47,medium,plus,dotcolour,beta,,,12,18,V,R,
32,32,32,0,0,44,36,1151,['c'],1,left,['3'],4,366,[0.05419921],96,44,hard,plus,dotcolour,beta,,,12,18,V,R,
33,33,33,0,0,47,33,584,['c'],1,left,['1'],6,778,[0.20754216],100,47,medium,plus,dotcolour,beta,,,12,18,V,R,
34,34,34,0,0,27,53,667,['c'],0,right,['8'],3,1217,[-0.34164346],1,53,easy,plus,dotcolour,beta,,,12,18,V,R,
35,35,35,0,0,27,53,732,['n'],1,right,['1'],6,332,[-0.16644741],100,53,easy,plus,dotcolour,beta,,,12,18,V,R,
36,36,36,0,0,44,36,750,['c'],1,left,['2'],5,1227,[-0.0193659],64,44,hard,plus,dotcolour,beta,,,12,18,V,R,
37,37,37,0,0,36,44,584,['n'],1,right,['2'],5,860,[-0.14340243],98,44,hard,plus,dotcolour,beta,,,12,18,V,R,
38,38,38,0,0,53,27,750,['c'],1,left,['1'],6,581,[0.06472359],94,53,easy,plus,dotcolour,beta,,,12,18,V,R,
39,39,39,0,0,33,47,700,['n'],1,right,['1'],6,595,[-0.18729673],100,47,medium,plus,dotcolour,beta,,,12,18,V,R,
40,40,40,0,0,44,36,851,['c'],1,left,['3'],4,739,[0.15342648],99,44,hard,plus,dotcolour,beta,,,12,18,V,R,
41,41,41,0,0,44,36,717,['c'],1,left,['2'],5,1434,[0.28879738],99,44,hard,plus,dotcolour,beta,,,12,18,V,R,
42,42,0,1,0,27,53,767,['n'],1,right,['1'],6,548,[-0.21596823],100,53,easy,plus,dotcolour,beta,,,12,18,V,R,
43,43,1,1,0,53,27,3900,['c'],1,left,['1'],6,476,[0.12025026],99,53,easy,plus,dotcolour,beta,,,12,18,V,R,
44,44,2,1,0,53,27,767,['c'],1,left,['1'],6,676,[0.31680823],100,53,easy,plus,dotcolour,beta,,,12,18,V,R,
45,45,3,1,0,53,27,534,['c'],1,left,['1'],6,357,[0.15405169],100,53,easy,plus,dotcolour,beta,,,12,18,V,R,
46,46,4,1,0,27,53,800,['n'],1,right,['2'],5,312,[-0.09635132],99,53,easy,plus,dotcolour,beta,,,12,18,V,R,
47,47,5,1,0,33,47,749,['n'],1,right,['1'],6,319,[-0.02292088],92,47,medium,plus,dotcolour,beta,,,12,18,V,R,
48,48,6,1,0,47,33,733,['c'],1,left,['2'],5,422,[0.19253017],100,47,medium,plus,dotcolour,beta,,,12,18,V,R,
49,49,7,1,0,36,44,1750,['n'],1,right,['3'],4,785,[-0.0620466],92,44,hard,plus,dotcolour,beta,,,12,18,V,R,
50,50,8,1,0,44,36,917,['c'],1,left,['3'],4,486,[0.21270423],100,44,hard,plus,dotcolour,beta,,,12,18,V,R,
51,51,9,1,0,47,33,800,['c'],1,left,['1'],6,500,[0.11048812],99,47,medium,plus,dotcolour,beta,,,12,18,V,R,
52,52,10,1,0,36,44,666,['n'],1,right,['2'],5,799,[-0.18379505],99,44,hard,plus,dotcolour,beta,,,12,18,V,R,
53,53,11,1,0,47,33,733,['c'],1,left,['3'],4,851,[0.26962004],100,47,medium,plus,dotcolour,beta,,,12,18,V,R,
54,54,12,1,0,33,47,733,['n'],1,right,['2'],5,333,[-0.06319858],98,47,medium,plus,dotcolour,beta,,,12,18,V,R,
55,55,13,1,0,36,44,1284,['n'],1,right,['3'],4,407,[-0.23025923],100,44,hard,plus,dotcolour,beta,,,12,18,V,R,
56,56,14,1,0,36,44,784,['n'],1,right,['2'],5,600,[-0.02160081],86,44,hard,plus,dotcolour,beta,,,12,18,V,R,
57,57,15,1,0,44,36,734,['c'],1,left,['2'],5,308,[0.12462886],100,44,hard,plus,dotcolour,beta,,,12,18,V,R,
58,58,16,1,0,44,36,1133,['c'],1,left,['3'],4,444,[0.15760729],100,44,hard,plus,dotcolour,beta,,,12,18,V,R,
59,59,17,1,0,47,33,900,['c'],1,left,['3'],4,439,[0.23752095],100,47,medium,plus,dotcolour,beta,,,12,18,V,R,
60,60,18,1,0,33,47,699,['n'],1,right,['2'],5,739,[-0.23210937],100,47,medium,plus,dotcolour,beta,,,12,18,V,R,
61,61,19,1,0,53,27,867,['c'],1,left,['1'],6,660,[0.19593826],100,53,easy,plus,dotcolour,beta,,,12,18,V,R,
62,62,20,1,0,53,27,617,['c'],1,left,['1'],6,330,[0.14320283],100,53,easy,plus,dotcolour,beta,,,12,18,V,R,
63,63,21,1,0,47,33,1266,['c'],1,left,['3'],4,380,[0.05124062],96,47,medium,plus,dotcolour,beta,,,12,18,V,R,
64,64,22,1,0,53,27,666,['c'],1,left,['1'],6,388,[0.19112082],100,53,easy,plus,dotcolour,beta,,,12,18,V,R,
65,65,23,1,0,44,36,633,['c'],1,left,['1'],6,437,[0.0896568],98,44,hard,plus,dotcolour,beta,,,12,18,V,R,
66,66,24,1,0,27,53,583,['n'],1,right,['1'],6,477,[-0.14282133],99,53,easy,plus,dotcolour,beta,,,12,18,V,R,
67,67,25,1,0,27,53,1233,['n'],1,right,['3'],4,426,[-0.24568324],100,53,easy,plus,dotcolour,beta,,,12,18,V,R,
68,68,26,1,0,44,36,733,['c'],1,left,['1'],6,437,[-0.06037335],47,44,hard,plus,dotcolour,beta,,,12,18,V,R,
69,69,27,1,0,27,53,583,['n'],1,right,['1'],6,405,[-0.03004553],92,53,easy,plus,dotcolour,beta,,,12,18,V,R,
70,70,28,1,0,36,44,934,['n'],1,right,['1'],6,289,[-0.05059715],97,44,hard,plus,dotcolour,beta,,,12,18,V,R,
71,71,29,1,0,53,27,666,['c'],1,left,['1'],6,589,[0.10815585],98,53,easy,plus,dotcolour,beta,,,12,18,V,R,
72,72,30,1,0,36,44,633,['c'],0,right,['1'],6,669,[0.02180627],85,44,hard,plus,dotcolour,beta,,,12,18,V,R,
73,73,31,1,0,33,47,684,['n'],1,right,['3'],4,624,[-0.11490993],98,47,medium,plus,dotcolour,beta,,,12,18,V,R,
74,74,32,1,0,33,47,717,['n'],1,right,['3'],4,364,[-0.00694662],87,47,medium,plus,dotcolour,beta,,,12,18,V,R,
75,75,33,1,0,33,47,1349,['n'],1,right,['8'],3,1201,[-0.33437605],100,47,medium,plus,dotcolour,beta,,,12,18,V,R,
76,76,34,1,0,33,47,1317,['n'],1,right,['3'],4,614,[-0.21000198],100,47,medium,plus,dotcolour,beta,,,12,18,V,R,
77,77,35,1,0,27,53,1134,['n'],1,right,['1'],6,288,[-0.09530274],99,53,easy,plus,dotcolour,beta,,,12,18,V,R,
78,78,36,1,0,44,36,933,['c'],1,left,['3'],4,377,[0.08641273],98,44,hard,plus,dotcolour,beta,,,12,18,V,R,
79,79,37,1,0,36,44,867,['n'],1,right,['3'],4,569,[-0.16387383],99,44,hard,plus,dotcolour,beta,,,12,18,V,R,
80,80,38,1,0,47,33,983,['c'],1,left,['1'],6,749,[0.1682033],99,47,medium,plus,dotcolour,beta,,,12,18,V,R,
81,81,39,1,0,44,36,732,['c'],1,left,['2'],5,819,[0.17484101],99,44,hard,plus,dotcolour,beta,,,12,18,V,R,
82,82,40,1,0,27,53,650,['n'],1,right,['2'],5,329,[-0.02267659],92,53,easy,plus,dotcolour,beta,,,12,18,V,R,
83,83,41,1,0,47,33,650,['c'],1,left,['2'],5,435,[0.22611202],100,47,medium,plus,dotcolour,beta,,,12,18,V,R,
84,84,0,2,0,44,36,1883,['c'],1,left,['2'],5,492,[0.12849526],99,44,hard,plus,dotcolour,beta,,,12,18,V,R,
85,85,1,2,0,33,47,633,['n'],1,right,['1'],6,409,[-0.07090883],97,47,medium,plus,dotcolour,beta,,,12,18,V,R,
86,86,2,2,0,53,27,716,['c'],1,left,['1'],6,309,[0.12018092],100,53,easy,plus,dotcolour,beta,,,12,18,V,R,
87,87,3,2,0,47,33,950,['c'],1,left,['1'],6,332,[0.0499308],96,47,medium,plus,dotcolour,beta,,,12,18,V,R,
88,88,4,2,0,53,27,767,['c'],1,left,['1'],6,354,[0.17487656],100,53,easy,plus,dotcolour,beta,,,12,18,V,R,
89,89,5,2,0,44,36,1050,['c'],1,left,['1'],6,347,[0.06382488],97,44,hard,plus,dotcolour,beta,,,12,18,V,R,
90,90,6,2,0,53,27,716,['c'],1,left,['1'],6,378,[0.06679803],97,53,easy,plus,dotcolour,beta,,,12,18,V,R,
91,91,7,2,0,36,44,750,['n'],1,right,['2'],5,502,[-0.15307648],100,44,hard,plus,dotcolour,beta,,,12,18,V,R,
92,92,8,2,0,53,27,683,['c'],1,left,['1'],6,288,[0.12266322],100,53,easy,plus,dotcolour,beta,,,12,18,V,R,
93,93,9,2,0,33,47,600,['n'],1,right,['3'],4,719,[-0.04326042],89,47,medium,plus,dotcolour,beta,,,12,18,V,R,
94,94,10,2,0,33,47,1050,['c'],0,right,['3'],4,754,[-0.14989674],12,47,medium,plus,dotcolour,beta,,,12,18,V,R,
95,95,11,2,0,27,53,650,['n'],1,right,['1'],6,483,[-0.23351032],100,53,easy,plus,dotcolour,beta,,,12,18,V,R,
96,96,12,2,0,47,33,966,['c'],1,left,['2'],5,506,[-0.00059349],80,47,medium,plus,dotcolour,beta,,,12,18,V,R,
97,97,13,2,0,36,44,1500,['c'],0,right,['3'],4,988,[0.14147626],97,44,hard,plus,dotcolour,beta,,,12,18,V,R,
98,98,14,2,0,44,36,2250,['n'],0,left,['3'],4,347,[0.01088208],80,44,hard,plus,dotcolour,beta,,,12,18,V,R,
99,99,15,2,0,27,53,784,['n'],1,right,['1'],6,415,[-0.11713873],99,53,easy,plus,dotcolour,beta,,,12,18,V,R,
100,100,16,2,0,53,27,5050,['c'],1,left,['2'],5,4831,[0.45428509],98,53,easy,plus,dotcolour,beta,,,12,18,V,R,
101,101,17,2,0,47,33,933,['c'],1,left,['1'],6,2441,[0.07733404],82,47,medium,plus,dotcolour,beta,,,12,18,V,R,
102,102,18,2,0,36,44,916,['n'],1,right,['3'],4,7437,[-0.52778358],98,44,hard,plus,dotcolour,beta,,,12,18,V,R,
103,103,19,2,0,33,47,1632,['n'],1,right,['3'],4,40886,[-3.61679689],100,47,medium,plus,dotcolour,beta,,,12,18,V,R,
104,104,20,2,0,53,27,817,['c'],1,left,['1'],6,407,[0.16827736],100,53,easy,plus,dotcolour,beta,,,12,18,V,R,
105,105,21,2,0,36,44,1317,['n'],1,right,['3'],4,483,[-0.00564707],83,44,hard,plus,dotcolour,beta,,,12,18,V,R,
106,106,22,2,0,47,33,983,['n'],0,left,['3'],4,563,[-0.01263159],84,47,medium,plus,dotcolour,beta,,,12,18,V,R,
107,107,23,2,0,53,27,1034,['c'],1,left,['1'],6,364,[0.05404548],96,53,easy,plus,dotcolour,beta,,,12,18,V,R,
108,108,24,2,0,47,33,600,['c'],1,left,['1'],6,663,[0.03311626],88,47,medium,plus,dotcolour,beta,,,12,18,V,R,
109,109,25,2,0,33,47,883,['n'],1,right,['1'],6,803,[-0.09267489],95,47,medium,plus,dotcolour,beta,,,12,18,V,R,
110,110,26,2,0,44,36,783,['c'],1,left,['1'],6,1389,[-0.01574979],65,44,hard,plus,dotcolour,beta,,,12,18,V,R,
111,111,27,2,0,44,36,1217,['c'],1,left,['2'],5,3038,[0.06798328],78,44,hard,plus,dotcolour,beta,,,12,18,V,R,
112,112,28,2,0,27,53,633,['n'],1,right,['1'],6,268,[-0.0795398],99,53,easy,plus,dotcolour,beta,,,12,18,V,R,
113,113,29,2,0,27,53,583,['n'],1,right,['1'],6,419,[-0.12162471],99,53,easy,plus,dotcolour,beta,,,12,18,V,R,
114,114,30,2,0,27,53,933,['n'],1,right,['1'],6,622,[-0.1949047],100,53,easy,plus,dotcolour,beta,,,12,18,V,R,
115,115,31,2,0,47,33,834,['c'],1,left,['2'],5,1509,[0.3478189],100,47,medium,plus,dotcolour,beta,,,12,18,V,R,
116,116,32,2,0,44,36,933,['c'],1,left,['1'],6,541,[0.01906398],86,44,hard,plus,dotcolour,beta,,,12,18,V,R,
117,117,33,2,0,27,53,833,['n'],1,right,['1'],6,271,[-0.20820858],100,53,easy,plus,dotcolour,beta,,,12,18,V,R,
118,118,34,2,0,27,53,783,['n'],1,right,['1'],6,271,[-0.15431374],100,53,easy,plus,dotcolour,beta,,,12,18,V,R,
119,119,35,2,0,36,44,933,['c'],0,right,['2'],5,489,[0.03485359],91,44,hard,plus,dotcolour,beta,,,12,18,V,R,
120,120,36,2,0,33,47,783,['n'],1,right,['1'],6,343,[-0.08065729],99,47,medium,plus,dotcolour,beta,,,12,18,V,R,
121,121,37,2,0,47,33,700,['c'],1,left,['1'],6,327,[0.09155959],99,47,medium,plus,dotcolour,beta,,,12,18,V,R,
122,122,38,2,0,36,44,700,['n'],1,right,['1'],6,463,[-0.11963076],99,44,hard,plus,dotcolour,beta,,,12,18,V,R,
123,123,39,2,0,44,36,666,['c'],1,left,['1'],6,339,[0.12762169],100,44,hard,plus,dotcolour,beta,,,12,18,V,R,
124,124,40,2,0,36,44,666,['n'],1,right,['1'],6,316,[-0.01999098],92,44,hard,plus,dotcolour,beta,,,12,18,V,R,
125,125,41,2,0,33,47,867,['c'],0,right,['3'],4,439,[-0.01125164],77,47,medium,plus,dotcolour,beta,,,12,18,V,R,
126,0,0,3,1,44,36,1350,['c'],1,left,['3'],4,335,[0.18029838],98,44,hard,minus,dotcolour,beta,,,12,18,V,R,
127,1,1,3,1,27,53,567,['n'],1,right,['1'],6,508,[0.00248967],19,53,easy,minus,dotcolour,beta,,,12,18,V,R,
128,2,2,3,1,53,27,950,['c'],1,left,['1'],6,635,[0.10270463],74,53,easy,minus,dotcolour,beta,,,12,18,V,R,
129,3,3,3,1,36,44,1033,['n'],1,right,['1'],6,866,[-0.18089999],92,44,hard,minus,dotcolour,beta,,,12,18,V,R,
130,4,4,3,1,33,47,716,['n'],1,right,['2'],5,1277,[-0.31581765],98,47,medium,minus,dotcolour,beta,,,12,18,V,R,
131,5,5,3,1,53,27,1150,['c'],1,left,['1'],6,429,[0.14273263],92,53,easy,minus,dotcolour,beta,,,12,18,V,R,
132,6,6,3,1,33,47,817,['n'],1,right,['3'],4,373,[-0.03689987],37,47,medium,minus,dotcolour,beta,,,12,18,V,R,
133,7,7,3,1,27,53,1283,['n'],1,right,['3'],4,276,[-0.08227775],71,53,easy,minus,dotcolour,beta,,,12,18,V,R,
134,8,8,3,1,44,36,900,['c'],1,left,['3'],4,550,[0.12439894],84,44,hard,minus,dotcolour,beta,,,12,18,V,R,
135,9,9,3,1,53,27,1200,['c'],1,left,['1'],6,338,[-0.0183493],9,53,easy,minus,dotcolour,beta,,,12,18,V,R,
136,10,10,3,1,53,27,633,['c'],1,left,['1'],6,292,[0.13329847],93,53,easy,minus,dotcolour,beta,,,12,18,V,R,
137,11,11,3,1,47,33,700,['c'],1,left,['1'],6,334,[0.11816383],88,47,medium,minus,dotcolour,beta,,,12,18,V,R,
138,12,12,3,1,36,44,1051,['n'],1,right,['2'],5,785,[-0.08177615],63,44,hard,minus,dotcolour,beta,,,12,18,V,R,
139,13,13,3,1,27,53,667,['n'],1,right,['2'],5,279,[-0.17112753],98,53,easy,minus,dotcolour,beta,,,12,18,V,R,
140,14,14,3,1,36,44,766,['c'],0,right,['1'],6,487,[0.08330744],67,44,hard,minus,dotcolour,beta,,,12,18,V,R,
141,15,15,3,1,47,33,800,['c'],1,left,['1'],6,629,[0.18337875],95,47,medium,minus,dotcolour,beta,,,12,18,V,R,
142,16,16,3,1,47,33,616,['c'],1,left,['2'],5,349,[0.11798091],87,47,medium,minus,dotcolour,beta,,,12,18,V,R,
143,17,17,3,1,47,33,867,['c'],1,left,['3'],4,222,[0.11098925],89,47,medium,minus,dotcolour,beta,,,12,18,V,R,
144,18,18,3,1,33,47,734,['n'],1,right,['3'],4,457,[-0.1633846],95,47,medium,minus,dotcolour,beta,,,12,18,V,R,
145,19,19,3,1,27,53,801,['n'],1,right,['3'],4,312,[-0.15005758],95,53,easy,minus,dotcolour,beta,,,12,18,V,R,
146,20,20,3,1,33,47,633,['n'],1,right,['2'],5,332,[-0.06239144],55,47,medium,minus,dotcolour,beta,,,12,18,V,R,
147,21,21,3,1,53,27,883,['c'],1,left,['1'],6,461,[0.23024724],99,53,easy,minus,dotcolour,beta,,,12,18,V,R,
148,22,22,3,1,44,36,1150,['n'],0,left,['3'],4,454,[-0.06742561],58,44,hard,minus,dotcolour,beta,,,12,18,V,R,
149,23,23,3,1,27,53,633,['n'],1,right,['2'],5,596,[-0.25855327],99,53,easy,minus,dotcolour,beta,,,12,18,V,R,
150,24,24,3,1,44,36,1050,['c'],1,left,['2'],5,435,[0.08264535],68,44,hard,minus,dotcolour,beta,,,12,18,V,R,
151,25,25,3,1,36,44,633,['n'],1,right,['2'],5,298,[-0.08711316],74,44,hard,minus,dotcolour,beta,,,12,18,V,R,
152,26,26,3,1,33,47,833,['n'],1,right,['3'],4,447,[-0.19277843],98,47,medium,minus,dotcolour,beta,,,12,18,V,R,
153,27,27,3,1,47,33,933,['c'],1,left,['1'],6,377,[0.132906],91,47,medium,minus,dotcolour,beta,,,12,18,V,R,
154,28,28,3,1,33,47,750,['n'],1,right,['3'],4,597,[0.00485509],20,47,medium,minus,dotcolour,beta,,,12,18,V,R,
155,29,29,3,1,33,47,967,['n'],1,right,['3'],4,385,[-0.2051945],99,47,medium,minus,dotcolour,beta,,,12,18,V,R,
156,30,30,3,1,44,36,1167,['c'],1,left,['3'],4,252,[0.1031007],85,44,hard,minus,dotcolour,beta,,,12,18,V,R,
157,31,31,3,1,27,53,584,['n'],1,right,['1'],6,500,[-0.23034397],99,53,easy,minus,dotcolour,beta,,,12,18,V,R,
158,32,32,3,1,53,27,683,['c'],1,left,['1'],6,358,[0.12361679],89,53,easy,minus,dotcolour,beta,,,12,18,V,R,
159,33,33,3,1,27,53,549,['n'],1,right,['1'],6,299,[-0.03616239],35,53,easy,minus,dotcolour,beta,,,12,18,V,R,
160,34,34,3,1,36,44,1517,['n'],1,right,['3'],4,276,[-0.14418696],95,44,hard,minus,dotcolour,beta,,,12,18,V,R,
161,35,35,3,1,53,27,584,['c'],1,left,['1'],6,387,[0.18024762],97,53,easy,minus,dotcolour,beta,,,12,18,V,R,
162,36,36,3,1,44,36,783,['n'],0,left,['8'],3,870,[-0.07573556],60,44,hard,minus,dotcolour,beta,,,12,18,V,R,
163,37,37,3,1,47,33,650,['c'],1,left,['3'],4,843,[0.11407884],76,47,medium,minus,dotcolour,beta,,,12,18,V,R,
164,38,38,3,1,47,33,616,['c'],1,left,['2'],5,626,[0.00430356],24,47,medium,minus,dotcolour,beta,,,12,18,V,R,
165,39,39,3,1,36,44,1283,['c'],0,right,['3'],4,199,[0.13076078],95,44,hard,minus,dotcolour,beta,,,12,18,V,R,
166,40,40,3,1,36,44,1099,['n'],1,right,['3'],4,244,[-0.00258582],13,44,hard,minus,dotcolour,beta,,,12,18,V,R,
167,41,41,3,1,44,36,883,['c'],1,left,['3'],4,273,[0.14257499],95,44,hard,minus,dotcolour,beta,,,12,18,V,R,
168,42,0,4,1,44,36,1316,['n'],0,left,['3'],4,328,[-0.03454039],34,44,hard,minus,dotcolour,beta,,,12,18,V,R,
169,43,1,4,1,27,53,1283,['n'],1,right,['2'],5,441,[-0.1926726],98,53,easy,minus,dotcolour,beta,,,12,18,V,R,
170,44,2,4,1,47,33,1049,['c'],1,left,['2'],5,615,[0.08050472],64,47,medium,minus,dotcolour,beta,,,12,18,V,R,
171,45,3,4,1,33,47,1200,['n'],1,right,['3'],4,384,[-0.19608302],98,47,medium,minus,dotcolour,beta,,,12,18,V,R,
172,46,4,4,1,53,27,682,['c'],1,left,['1'],6,439,[0.1987958],98,53,easy,minus,dotcolour,beta,,,12,18,V,R,
173,47,5,4,1,36,44,1083,['n'],1,right,['1'],6,467,[-0.04556459],43,44,hard,minus,dotcolour,beta,,,12,18,V,R,
174,48,6,4,1,47,33,1099,['c'],1,left,['2'],5,454,[0.08060538],66,47,medium,minus,dotcolour,beta,,,12,18,V,R,
175,49,7,4,1,27,53,650,['n'],1,right,['1'],6,404,[-0.10968545],82,53,easy,minus,dotcolour,beta,,,12,18,V,R,
176,50,8,4,1,47,33,750,['c'],1,left,['1'],6,320,[0.06189731],55,47,medium,minus,dotcolour,beta,,,12,18,V,R,
177,51,9,4,1,27,53,666,['n'],1,right,['1'],6,249,[-0.04684101],42,53,easy,minus,dotcolour,beta,,,12,18,V,R,
178,52,10,4,1,33,47,1001,['n'],1,right,['3'],4,449,[-0.13950855],91,47,medium,minus,dotcolour,beta,,,12,18,V,R,
179,53,11,4,1,33,47,650,['n'],1,right,['3'],4,407,[-0.04190422],40,47,medium,minus,dotcolour,beta,,,12,18,V,R,
180,54,12,4,1,36,44,950,['n'],1,right,['2'],5,450,[-0.12681152],87,44,hard,minus,dotcolour,beta,,,12,18,V,R,
181,55,13,4,1,44,36,850,['c'],1,left,['3'],4,384,[0.04075746],39,44,hard,minus,dotcolour,beta,,,12,18,V,R,
182,56,14,4,1,53,27,1050,['c'],1,left,['1'],6,512,[0.05288133],48,53,easy,minus,dotcolour,beta,,,12,18,V,R,
183,57,15,4,1,33,47,717,['n'],1,right,['3'],4,568,[-0.07066347],59,47,medium,minus,dotcolour,beta,,,12,18,V,R,
184,58,16,4,1,44,36,984,['c'],1,left,['2'],5,740,[0.20476434],96,44,hard,minus,dotcolour,beta,,,12,18,V,R,
185,59,17,4,1,53,27,717,['c'],1,left,['1'],6,315,[0.02680554],28,53,easy,minus,dotcolour,beta,,,12,18,V,R,
186,60,18,4,1,53,27,999,['c'],1,left,['3'],4,328,[0.05851019],52,53,easy,minus,dotcolour,beta,,,12,18,V,R,
187,61,19,4,1,36,44,751,['n'],1,right,['3'],4,318,[-0.11650386],87,44,hard,minus,dotcolour,beta,,,12,18,V,R,
188,62,20,4,1,33,47,800,['n'],1,right,['3'],4,235,[-0.11266584],89,47,medium,minus,dotcolour,beta,,,12,18,V,R,
189,63,21,4,1,53,27,717,['c'],1,left,['1'],6,334,[0.00797811],19,53,easy,minus,dotcolour,beta,,,12,18,V,R,
190,64,22,4,1,36,44,933,['n'],1,right,['3'],4,453,[-0.02559983],31,44,hard,minus,dotcolour,beta,,,12,18,V,R,
191,65,23,4,1,47,33,783,['c'],1,left,['3'],4,518,[0.23385056],99,47,medium,minus,dotcolour,beta,,,12,18,V,R,
192,66,24,4,1,33,47,683,['n'],1,right,['3'],4,615,[-0.13760794],87,47,medium,minus,dotcolour,beta,,,12,18,V,R,
193,67,25,4,1,27,53,651,['n'],1,right,['2'],5,750,[0.05072078],10,53,easy,minus,dotcolour,beta,,,12,18,V,R,
194,68,26,4,1,47,33,1050,['c'],1,left,['2'],5,671,[0.2738725],99,47,medium,minus,dotcolour,beta,,,12,18,V,R,
195,69,27,4,1,33,47,849,['n'],1,right,['3'],4,307,[-0.10413702],83,47,medium,minus,dotcolour,beta,,,12,18,V,R,
196,70,28,4,1,27,53,567,['n'],1,right,['2'],5,778,[-0.15520606],88,53,easy,minus,dotcolour,beta,,,12,18,V,R,
197,71,29,4,1,27,53,667,['n'],1,right,['2'],5,209,[-0.09522193],83,53,easy,minus,dotcolour,beta,,,12,18,V,R,
198,72,30,4,1,44,36,767,['c'],1,left,['2'],5,355,[0.01603747],23,44,hard,minus,dotcolour,beta,,,12,18,V,R,
199,73,31,4,1,53,27,1067,['c'],1,left,['3'],4,340,[0.05388468],49,53,easy,minus,dotcolour,beta,,,12,18,V,R,
200,74,32,4,1,44,36,800,['c'],1,left,['3'],4,368,[0.08916946],73,44,hard,minus,dotcolour,beta,,,12,18,V,R,
201,75,33,4,1,47,33,866,['c'],1,left,['3'],4,400,[0.01241549],23,47,medium,minus,dotcolour,beta,,,12,18,V,R,
202,76,34,4,1,44,36,1133,['n'],0,left,['3'],4,412,[-0.18710234],98,44,hard,minus,dotcolour,beta,,,12,18,V,R,
203,77,35,4,1,27,53,483,['n'],1,right,['3'],4,434,[0.08882487],2,53,easy,minus,dotcolour,beta,,,12,18,V,R,
204,78,36,4,1,36,44,766,['n'],1,right,['3'],4,292,[-0.06064627],54,44,hard,minus,dotcolour,beta,,,12,18,V,R,
205,79,37,4,1,36,44,733,['n'],1,right,['3'],4,316,[-0.0776993],67,44,hard,minus,dotcolour,beta,,,12,18,V,R,
206,80,38,4,1,47,33,1049,['c'],1,left,['3'],4,823,[0.23137523],97,47,medium,minus,dotcolour,beta,,,12,18,V,R,
207,81,39,4,1,53,27,584,['c'],1,left,['3'],4,312,[0.11518897],87,53,easy,minus,dotcolour,beta,,,12,18,V,R,
208,82,40,4,1,44,36,950,['c'],1,left,['1'],6,655,[0.21822012],97,44,hard,minus,dotcolour,beta,,,12,18,V,R,
209,83,41,4,1,36,44,900,['c'],0,right,['2'],5,546,[0.12041736],83,44,hard,minus,dotcolour,beta,,,12,18,V,R,
210,84,0,5,1,27,53,749,['n'],1,right,['1'],6,665,[-0.24931011],99,53,easy,minus,dotcolour,beta,,,12,18,V,R,
211,85,1,5,1,27,53,517,['n'],1,right,['1'],6,403,[-0.19465446],98,53,easy,minus,dotcolour,beta,,,12,18,V,R,
212,86,2,5,1,53,27,717,['c'],1,left,['1'],6,320,[0.19403675],99,53,easy,minus,dotcolour,beta,,,12,18,V,R,
213,87,3,5,1,36,44,766,['n'],1,right,['1'],6,518,[-0.05413625],49,44,hard,minus,dotcolour,beta,,,12,18,V,R,
214,88,4,5,1,47,33,899,['c'],1,left,['1'],6,319,[0.07043058],62,47,medium,minus,dotcolour,beta,,,12,18,V,R,
215,89,5,5,1,53,27,567,['c'],1,left,['1'],6,325,[0.15734326],96,53,easy,minus,dotcolour,beta,,,12,18,V,R,
216,90,6,5,1,44,36,8683,['c'],1,left,['2'],5,376,[0.026497],30,44,hard,minus,dotcolour,beta,,,12,18,V,R,
217,91,7,5,1,33,47,883,['c'],0,right,['3'],4,262,[0.00715727],15,47,medium,minus,dotcolour,beta,,,12,18,V,R,
218,92,8,5,1,33,47,1483,['n'],1,right,['1'],6,266,[-0.09451446],80,47,medium,minus,dotcolour,beta,,,12,18,V,R,
219,93,9,5,1,27,53,566,['n'],1,right,['1'],6,258,[-0.13070467],93,53,easy,minus,dotcolour,beta,,,12,18,V,R,
220,94,10,5,1,47,33,933,['c'],1,left,['2'],5,716,[0.17886663],93,47,medium,minus,dotcolour,beta,,,12,18,V,R,
221,95,11,5,1,33,47,734,['n'],1,right,['2'],5,363,[-0.17215809],97,47,medium,minus,dotcolour,beta,,,12,18,V,R,
222,96,12,5,1,33,47,516,['n'],1,right,['3'],4,810,[-0.18423884],93,47,medium,minus,dotcolour,beta,,,12,18,V,R,
223,97,13,5,1,36,44,850,['c'],0,right,['2'],5,464,[-0.01311491],14,44,hard,minus,dotcolour,beta,,,12,18,V,R,
224,98,14,5,1,53,27,933,['c'],1,left,['2'],5,290,[-0.03067639],5,53,easy,minus,dotcolour,beta,,,12,18,V,R,
225,99,15,5,1,44,36,1017,['n'],0,left,['3'],4,271,[-0.0446218],41,44,hard,minus,dotcolour,beta,,,12,18,V,R,
226,100,16,5,1,33,47,618,['n'],1,right,['3'],4,294,[-0.10145655],82,47,medium,minus,dotcolour,beta,,,12,18,V,R,
227,101,17,5,1,53,27,834,['c'],1,left,['1'],6,514,[0.13379474],88,53,easy,minus,dotcolour,beta,,,12,18,V,R,
228,102,18,5,1,27,53,850,['n'],1,right,['1'],6,461,[-0.04757676],45,53,easy,minus,dotcolour,beta,,,12,18,V,R,
229,103,19,5,1,47,33,733,['c'],1,left,['2'],5,383,[0.18567536],98,47,medium,minus,dotcolour,beta,,,12,18,V,R,
230,104,20,5,1,27,53,667,['c'],0,right,['9'],2,2055,[-0.13137052],9,53,easy,minus,dotcolour,beta,,,12,18,V,R,
231,105,21,5,1,36,44,848,['n'],1,right,['8'],3,1067,[-0.11132978],73,44,hard,minus,dotcolour,beta,,,12,18,V,R,
232,106,22,5,1,36,44,1132,['c'],0,right,['3'],4,285,[0.01017673],18,44,hard,minus,dotcolour,beta,,,12,18,V,R,
233,107,23,5,1,47,33,815,['c'],1,left,['2'],5,1026,[0.0937886],66,47,medium,minus,dotcolour,beta,,,12,18,V,R,
234,108,24,5,1,33,47,634,['n'],1,right,['3'],4,577,[-0.04883008],46,47,medium,minus,dotcolour,beta,,,12,18,V,R,
235,109,25,5,1,44,36,882,['c'],1,left,['3'],4,440,[0.2082831],98,44,hard,minus,dotcolour,beta,,,12,18,V,R,
236,110,26,5,1,33,47,1417,['n'],1,right,['3'],4,360,[-0.04572994],43,47,medium,minus,dotcolour,beta,,,12,18,V,R,
237,111,27,5,1,36,44,1648,['c'],0,right,['3'],4,256,[0.04786748],43,44,hard,minus,dotcolour,beta,,,12,18,V,R,
238,112,28,5,1,47,33,1216,['c'],1,left,['3'],4,288,[0.10339267],83,47,medium,minus,dotcolour,beta,,,12,18,V,R,
239,113,29,5,1,53,27,564,['c'],1,left,['2'],5,479,[0.16817558],95,53,easy,minus,dotcolour,beta,,,12,18,V,R,
240,114,30,5,1,47,33,764,['c'],1,left,['3'],4,295,[0.07698725],67,47,medium,minus,dotcolour,beta,,,12,18,V,R,
241,115,31,5,1,27,53,648,['n'],1,right,['2'],5,643,[-0.24281497],99,53,easy,minus,dotcolour,beta,,,12,18,V,R,
242,116,32,5,1,44,36,1532,['n'],0,left,['3'],4,773,[0.00310915],23,44,hard,minus,dotcolour,beta,,,12,18,V,R,
243,117,33,5,1,53,27,882,['c'],1,left,['2'],5,836,[0.22682015],97,53,easy,minus,dotcolour,beta,,,12,18,V,R,
244,118,34,5,1,36,44,949,['c'],0,right,['2'],5,462,[0.1548356],93,44,hard,minus,dotcolour,beta,,,12,18,V,R,
245,119,35,5,1,44,36,666,['c'],1,left,['2'],5,490,[0.08403006],68,44,hard,minus,dotcolour,beta,,,12,18,V,R,
246,120,36,5,1,44,36,548,['c'],1,left,['2'],5,346,[0.12210517],88,44,hard,minus,dotcolour,beta,,,12,18,V,R,
247,121,37,5,1,47,33,565,['c'],1,left,['2'],5,359,[0.13785947],92,47,medium,minus,dotcolour,beta,,,12,18,V,R,
248,122,38,5,1,36,44,649,['n'],1,right,['2'],5,960,[-0.11090236],73,44,hard,minus,dotcolour,beta,,,12,18,V,R,
249,123,39,5,1,44,36,681,['n'],0,left,['8'],3,904,[-0.02361746],35,44,hard,minus,dotcolour,beta,,,12,18,V,R,
250,124,40,5,1,53,27,1464,['c'],1,left,['2'],5,354,[0.12883534],90,53,easy,minus,dotcolour,beta,,,12,18,V,R,
251,125,41,5,1,27,53,581,['n'],1,right,['2'],5,678,[-0.16326337],91,53,easy,minus,dotcolour,beta,,,12,18,V,R,
252,0,0,6,2,53,27,733,['c'],1,left,['1'],6,772,[0.24772884],100,53,easy,plus,dotcolour,beta,,,12,18,V,R,
253,1,1,6,2,36,44,799,['n'],1,right,['2'],5,255,[-0.04267493],97,44,hard,plus,dotcolour,beta,,,12,18,V,R,
254,2,2,6,2,53,27,766,['c'],1,left,['1'],6,408,[0.18437748],100,53,easy,plus,dotcolour,beta,,,12,18,V,R,
255,3,3,6,2,33,47,1067,['n'],1,right,['3'],4,470,[-0.01840856],87,47,medium,plus,dotcolour,beta,,,12,18,V,R,
256,4,4,6,2,36,44,983,['c'],0,right,['3'],4,366,[0.09060076],99,44,hard,plus,dotcolour,beta,,,12,18,V,R,
257,5,5,6,2,47,33,584,['c'],1,left,['2'],5,537,[0.0185657],86,47,medium,plus,dotcolour,beta,,,12,18,V,R,
258,6,6,6,2,36,44,1099,['c'],0,right,['3'],4,409,[0.02770366],91,44,hard,plus,dotcolour,beta,,,12,18,V,R,
259,7,7,6,2,27,53,517,['n'],1,right,['1'],6,469,[-0.22888295],100,53,easy,plus,dotcolour,beta,,,12,18,V,R,
260,8,8,6,2,27,53,714,['n'],1,right,['1'],6,528,[-0.17730597],100,53,easy,plus,dotcolour,beta,,,12,18,V,R,
261,9,9,6,2,33,47,751,['n'],1,right,['3'],4,414,[-0.08917684],98,47,medium,plus,dotcolour,beta,,,12,18,V,R,
262,10,10,6,2,47,33,767,['c'],1,left,['3'],4,288,[0.14357245],100,47,medium,plus,dotcolour,beta,,,12,18,V,R,
263,11,11,6,2,36,44,767,['c'],0,right,['3'],4,504,[0.08609424],97,44,hard,plus,dotcolour,beta,,,12,18,V,R,
264,12,12,6,2,53,27,583,['c'],1,left,['3'],4,326,[-0.04111981],61,53,easy,plus,dotcolour,beta,,,12,18,V,R,
265,13,13,6,2,33,47,533,['n'],1,right,['3'],4,261,[-0.0445519],97,47,medium,plus,dotcolour,beta,,,12,18,V,R,
266,14,14,6,2,44,36,716,['c'],1,left,['2'],5,432,[0.18705192],100,44,hard,plus,dotcolour,beta,,,12,18,V,R,
267,15,15,6,2,53,27,450,['c'],1,left,['2'],5,934,[0.34533115],100,53,easy,plus,dotcolour,beta,,,12,18,V,R,
268,16,16,6,2,47,33,834,['c'],1,left,['2'],5,545,[0.19643064],100,47,medium,plus,dotcolour,beta,,,12,18,V,R,
269,17,17,6,2,44,36,767,['n'],0,left,['2'],5,406,[0.00875702],79,44,hard,plus,dotcolour,beta,,,12,18,V,R,
270,18,18,6,2,27,53,1116,['n'],1,right,['3'],4,418,[-0.02174737],90,53,easy,plus,dotcolour,beta,,,12,18,V,R,
271,19,19,6,2,53,27,667,['c'],1,left,['1'],6,441,[0.14490161],100,53,easy,plus,dotcolour,beta,,,12,18,V,R,
272,20,20,6,2,44,36,616,['c'],1,left,['2'],5,616,[0.12022339],98,44,hard,plus,dotcolour,beta,,,12,18,V,R,
273,21,21,6,2,33,47,683,['n'],1,right,['3'],4,429,[-0.19787033],100,47,medium,plus,dotcolour,beta,,,12,18,V,R,
274,22,22,6,2,36,44,883,['c'],0,right,['8'],3,955,[0.03607057],84,44,hard,plus,dotcolour,beta,,,12,18,V,R,
275,23,23,6,2,44,36,2084,['c'],1,left,['3'],4,242,[0.09151956],100,44,hard,plus,dotcolour,beta,,,12,18,V,R,
276,24,24,6,2,44,36,833,['c'],1,left,['3'],4,313,[0.12481303],100,44,hard,plus,dotcolour,beta,,,12,18,V,R,
277,25,25,6,2,47,33,1217,['c'],1,left,['3'],4,1053,[0.3580269],100,47,medium,plus,dotcolour,beta,,,12,18,V,R,
278,26,26,6,2,47,33,717,['c'],1,left,['3'],4,1544,[0.21829902],98,47,medium,plus,dotcolour,beta,,,12,18,V,R,
279,27,27,6,2,44,36,817,['c'],1,left,['3'],4,426,[0.20885166],100,44,hard,plus,dotcolour,beta,,,12,18,V,R,
280,28,28,6,2,27,53,651,['n'],1,right,['1'],6,377,[-0.18178596],100,53,easy,plus,dotcolour,beta,,,12,18,V,R,
281,29,29,6,2,27,53,617,['n'],1,right,['1'],6,675,[-0.24901518],100,53,easy,plus,dotcolour,beta,,,12,18,V,R,
282,30,30,6,2,33,47,567,['n'],1,right,['2'],5,891,[0.06218448],47,47,medium,plus,dotcolour,beta,,,12,18,V,R,
283,31,31,6,2,47,33,834,['c'],1,left,['2'],5,423,[0.15337635],100,47,medium,plus,dotcolour,beta,,,12,18,V,R,
284,32,32,6,2,33,47,850,['c'],0,right,['3'],4,565,[-0.03577042],62,47,medium,plus,dotcolour,beta,,,12,18,V,R,
285,33,33,6,2,53,27,734,['c'],1,left,['1'],6,507,[0.28236642],100,53,easy,plus,dotcolour,beta,,,12,18,V,R,
286,34,34,6,2,33,47,984,['c'],0,right,['2'],5,569,[0.01416985],84,47,medium,plus,dotcolour,beta,,,12,18,V,R,
287,35,35,6,2,36,44,700,['c'],0,right,['2'],5,384,[0.01940499],90,44,hard,plus,dotcolour,beta,,,12,18,V,R,
288,36,36,6,2,53,27,634,['c'],1,left,['1'],6,513,[0.10370186],98,53,easy,plus,dotcolour,beta,,,12,18,V,R,
289,37,37,6,2,36,44,551,['c'],0,right,['3'],4,560,[0.14998831],99,44,hard,plus,dotcolour,beta,,,12,18,V,R,
290,38,38,6,2,27,53,1034,['n'],1,right,['1'],6,449,[-0.12422823],99,53,easy,plus,dotcolour,beta,,,12,18,V,R,
291,39,39,6,2,27,53,834,['n'],1,right,['1'],6,1304,[-0.07599087],89,53,easy,plus,dotcolour,beta,,,12,18,V,R,
292,40,40,6,2,44,36,750,['c'],1,left,['1'],6,759,[0.13679751],98,44,hard,plus,dotcolour,beta,,,12,18,V,R,
293,41,41,6,2,47,33,950,['c'],1,left,['2'],5,404,[0.17422578],100,47,medium,plus,dotcolour,beta,,,12,18,V,R,
294,42,0,7,2,36,44,683,['n'],1,right,['1'],6,891,[-0.08859864],94,44,hard,plus,dotcolour,beta,,,12,18,V,R,
295,43,1,7,2,27,53,634,['n'],1,right,['1'],6,279,[-0.21762876],100,53,easy,plus,dotcolour,beta,,,12,18,V,R,
296,44,2,7,2,44,36,933,['c'],1,left,['2'],5,424,[-0.10910434],19,44,hard,plus,dotcolour,beta,,,12,18,V,R,
297,45,3,7,2,53,27,3767,['c'],1,left,['3'],4,330,[0.13125684],100,53,easy,plus,dotcolour,beta,,,12,18,V,R,
298,46,4,7,2,27,53,634,['n'],1,right,['3'],4,541,[0.02092689],70,53,easy,plus,dotcolour,beta,,,12,18,V,R,
299,47,5,7,2,44,36,817,['c'],1,left,['3'],4,272,[0.07611156],99,44,hard,plus,dotcolour,beta,,,12,18,V,R,
300,48,6,7,2,47,33,684,['c'],1,left,['1'],6,804,[0.23598591],100,47,medium,plus,dotcolour,beta,,,12,18,V,R,
301,49,7,7,2,53,27,633,['c'],1,left,['1'],6,348,[0.16933394],100,53,easy,plus,dotcolour,beta,,,12,18,V,R,
302,50,8,7,2,44,36,965,['c'],1,left,['3'],4,336,[0.11086357],99,44,hard,plus,dotcolour,beta,,,12,18,V,R,
303,51,9,7,2,33,47,731,['c'],0,right,['3'],4,351,[0.15709026],100,47,medium,plus,dotcolour,beta,,,12,18,V,R,
304,52,10,7,2,33,47,831,['n'],1,right,['3'],4,329,[-0.17489995],100,47,medium,plus,dotcolour,beta,,,12,18,V,R,
305,53,11,7,2,33,47,665,['n'],1,right,['3'],4,947,[-0.30032745],100,47,medium,plus,dotcolour,beta,,,12,18,V,R,
306,54,12,7,2,36,44,798,['c'],0,right,['3'],4,318,[0.08550201],99,44,hard,plus,dotcolour,beta,,,12,18,V,R,
307,55,13,7,2,47,33,1050,['c'],1,left,['3'],4,321,[0.07693734],99,47,medium,plus,dotcolour,beta,,,12,18,V,R,
308,56,14,7,2,27,53,1080,['n'],1,right,['1'],6,210,[-0.18176694],100,53,easy,plus,dotcolour,beta,,,12,18,V,R,
309,57,15,7,2,47,33,714,['c'],1,left,['2'],5,599,[0.05641543],93,47,medium,plus,dotcolour,beta,,,12,18,V,R,
310,58,16,7,2,44,36,630,['c'],1,left,['1'],6,319,[0.07900483],99,44,hard,plus,dotcolour,beta,,,12,18,V,R,
311,59,17,7,2,33,47,1013,['n'],1,right,['3'],4,371,[-0.083551],98,47,medium,plus,dotcolour,beta,,,12,18,V,R,
312,60,18,7,2,47,33,632,['c'],1,left,['1'],6,429,[-0.02509772],70,47,medium,plus,dotcolour,beta,,,12,18,V,R,
313,61,19,7,2,33,47,748,['n'],1,right,['2'],5,687,[-0.12598202],98,47,medium,plus,dotcolour,beta,,,12,18,V,R,
314,62,20,7,2,27,53,598,['n'],1,right,['1'],6,253,[-0.08552022],99,53,easy,plus,dotcolour,beta,,,12,18,V,R,
315,63,21,7,2,44,36,800,['c'],1,left,['1'],6,301,[0.11246738],100,44,hard,plus,dotcolour,beta,,,12,18,V,R,
316,64,22,7,2,47,33,900,['c'],1,left,['2'],5,1022,[0.15338357],98,47,medium,plus,dotcolour,beta,,,12,18,V,R,
317,65,23,7,2,53,27,582,['c'],1,left,['1'],6,391,[0.15812055],100,53,easy,plus,dotcolour,beta,,,12,18,V,R,
318,66,24,7,2,27,53,833,['n'],1,right,['3'],4,311,[-0.10115681],99,53,easy,plus,dotcolour,beta,,,12,18,V,R,
319,67,25,7,2,36,44,899,['n'],1,right,['3'],4,368,[-0.09718174],99,44,hard,plus,dotcolour,beta,,,12,18,V,R,
320,68,26,7,2,47,33,716,['c'],1,left,['3'],4,174,[0.08329142],100,47,medium,plus,dotcolour,beta,,,12,18,V,R,
321,69,27,7,2,53,27,582,['c'],1,left,['1'],6,346,[0.10208224],99,53,easy,plus,dotcolour,beta,,,12,18,V,R,
322,70,28,7,2,44,36,600,['c'],1,left,['2'],5,333,[0.06106217],97,44,hard,plus,dotcolour,beta,,,12,18,V,R,
323,71,29,7,2,27,53,500,['n'],1,right,['1'],6,333,[-0.10174553],99,53,easy,plus,dotcolour,beta,,,12,18,V,R,
324,72,30,7,2,53,27,1332,['c'],1,left,['3'],4,317,[0.10085868],99,53,easy,plus,dotcolour,beta,,,12,18,V,R,
325,73,31,7,2,33,47,1432,['n'],1,right,['3'],4,264,[-0.16446559],100,47,medium,plus,dotcolour,beta,,,12,18,V,R,
326,74,32,7,2,27,53,498,['n'],1,right,['1'],6,419,[-0.11927638],99,53,easy,plus,dotcolour,beta,,,12,18,V,R,
327,75,33,7,2,33,47,715,['n'],1,right,['3'],4,375,[-0.08607613],98,47,medium,plus,dotcolour,beta,,,12,18,V,R,
328,76,34,7,2,53,27,515,['c'],1,left,['1'],6,373,[0.21434402],100,53,easy,plus,dotcolour,beta,,,12,18,V,R,
329,77,35,7,2,53,27,598,['c'],1,left,['1'],6,343,[0.04605337],96,53,easy,plus,dotcolour,beta,,,12,18,V,R,
330,78,36,7,2,36,44,748,['c'],0,right,['3'],4,341,[0.0696693],98,44,hard,plus,dotcolour,beta,,,12,18,V,R,
331,79,37,7,2,36,44,1050,['n'],1,right,['3'],4,295,[-0.02783953],94,44,hard,plus,dotcolour,beta,,,12,18,V,R,
332,80,38,7,2,36,44,697,['n'],1,right,['3'],4,248,[-0.12292247],100,44,hard,plus,dotcolour,beta,,,12,18,V,R,
333,81,39,7,2,44,36,1732,['c'],1,left,['3'],4,290,[0.0992233],99,44,hard,plus,dotcolour,beta,,,12,18,V,R,
334,82,40,7,2,36,44,1199,['n'],1,right,['3'],4,296,[-0.17341946],100,44,hard,plus,dotcolour,beta,,,12,18,V,R,
335,83,41,7,2,47,33,767,['c'],1,left,['1'],6,671,[0.09981606],97,47,medium,plus,dotcolour,beta,,,12,18,V,R,
336,84,0,8,2,44,36,817,['c'],1,left,['1'],6,484,[0.00955548],84,44,hard,plus,dotcolour,beta,,,12,18,V,R,
337,85,1,8,2,33,47,647,['n'],1,right,['2'],5,336,[-0.09423117],99,47,medium,plus,dotcolour,beta,,,12,18,V,R,
338,86,2,8,2,44,36,831,['n'],0,left,['2'],5,347,[-0.01359099],89,44,hard,plus,dotcolour,beta,,,12,18,V,R,
339,87,3,8,2,44,36,815,['c'],1,left,['1'],6,278,[0.08487877],99,44,hard,plus,dotcolour,beta,,,12,18,V,R,
340,88,4,8,2,27,53,548,['n'],1,right,['3'],4,534,[-0.21351268],100,53,easy,plus,dotcolour,beta,,,12,18,V,R,
341,89,5,8,2,33,47,1200,['c'],0,right,['3'],4,282,[0.03360794],95,47,medium,plus,dotcolour,beta,,,12,18,V,R,
342,90,6,8,2,33,47,582,['c'],0,right,['8'],3,801,[-0.07629074],40,47,medium,plus,dotcolour,beta,,,12,18,V,R,
343,91,7,8,2,47,33,832,['c'],1,left,['1'],6,489,[0.22544654],100,47,medium,plus,dotcolour,beta,,,12,18,V,R,
344,92,8,8,2,53,27,863,['c'],1,left,['1'],6,421,[0.09584155],99,53,easy,plus,dotcolour,beta,,,12,18,V,R,
345,93,9,8,2,47,33,582,['c'],1,left,['3'],4,214,[0.05130134],98,47,medium,plus,dotcolour,beta,,,12,18,V,R,
346,94,10,8,2,33,47,866,['n'],1,right,['3'],4,404,[-0.10200554],99,47,medium,plus,dotcolour,beta,,,12,18,V,R,
347,95,11,8,2,53,27,597,['c'],1,left,['1'],6,293,[0.14468214],100,53,easy,plus,dotcolour,beta,,,12,18,V,R,
348,96,12,8,2,36,44,697,['n'],1,right,['3'],4,463,[-0.12527027],99,44,hard,plus,dotcolour,beta,,,12,18,V,R,
349,97,13,8,2,36,44,582,['n'],1,right,['3'],4,319,[-0.17232061],100,44,hard,plus,dotcolour,beta,,,12,18,V,R,
350,98,14,8,2,33,47,532,['n'],1,right,['2'],5,478,[-0.11894193],99,47,medium,plus,dotcolour,beta,,,12,18,V,R,
351,99,15,8,2,44,36,2014,['c'],1,left,['3'],4,669,[-0.019686],69,44,hard,plus,dotcolour,beta,,,12,18,V,R,
352,100,16,8,2,36,44,615,['n'],1,right,['3'],4,834,[-0.10133177],96,44,hard,plus,dotcolour,beta,,,12,18,V,R,
353,101,17,8,2,53,27,1115,['c'],1,left,['1'],6,509,[0.13132066],99,53,easy,plus,dotcolour,beta,,,12,18,V,R,
354,102,18,8,2,44,36,1782,['c'],1,left,['3'],4,299,[0.07048144],98,44,hard,plus,dotcolour,beta,,,12,18,V,R,
355,103,19,8,2,36,44,1048,['n'],1,right,['3'],4,398,[-0.03917678],94,44,hard,plus,dotcolour,beta,,,12,18,V,R,
356,104,20,8,2,27,53,648,['n'],1,right,['1'],6,942,[-0.16037236],98,53,easy,plus,dotcolour,beta,,,12,18,V,R,
357,105,21,8,2,47,33,930,['c'],1,left,['2'],5,413,[0.06530193],97,47,medium,plus,dotcolour,beta,,,12,18,V,R,
358,106,22,8,2,36,44,949,['n'],1,right,['3'],4,471,[-0.05471306],95,44,hard,plus,dotcolour,beta,,,12,18,V,R,
359,107,23,8,2,47,33,666,['c'],1,left,['2'],5,467,[0.11803608],99,47,medium,plus,dotcolour,beta,,,12,18,V,R,
360,108,24,8,2,47,33,948,['c'],1,left,['2'],5,228,[0.13077692],100,47,medium,plus,dotcolour,beta,,,12,18,V,R,
361,109,25,8,2,47,33,615,['c'],1,left,['2'],5,308,[0.17078117],100,47,medium,plus,dotcolour,beta,,,12,18,V,R,
362,110,26,8,2,44,36,782,['c'],1,left,['3'],4,378,[0.04123035],94,44,hard,plus,dotcolour,beta,,,12,18,V,R,
363,111,27,8,2,33,47,750,['n'],1,right,['1'],6,398,[-0.06130673],97,47,medium,plus,dotcolour,beta,,,12,18,V,R,
364,112,28,8,2,27,53,633,['n'],1,right,['1'],6,254,[-0.16022445],100,53,easy,plus,dotcolour,beta,,,12,18,V,R,
365,113,29,8,2,33,47,515,['n'],1,right,['2'],5,544,[-0.18802243],100,47,medium,plus,dotcolour,beta,,,12,18,V,R,
366,114,30,8,2,27,53,465,['n'],1,right,['1'],6,657,[-0.16044557],99,53,easy,plus,dotcolour,beta,,,12,18,V,R,
367,115,31,8,2,27,53,499,['n'],1,right,['1'],6,341,[-0.00460806],86,53,easy,plus,dotcolour,beta,,,12,18,V,R,
368,116,32,8,2,53,27,765,['c'],1,left,['1'],6,402,[0.20362425],100,53,easy,plus,dotcolour,beta,,,12,18,V,R,
369,117,33,8,2,53,27,515,['c'],1,left,['1'],6,343,[0.03472719],94,53,easy,plus,dotcolour,beta,,,12,18,V,R,
370,118,34,8,2,47,33,930,['c'],1,left,['1'],6,285,[0.1151771],100,47,medium,plus,dotcolour,beta,,,12,18,V,R,
371,119,35,8,2,36,44,833,['n'],1,right,['3'],4,545,[0.12767815],15,44,hard,plus,dotcolour,beta,,,12,18,V,R,
372,120,36,8,2,27,53,665,['n'],1,right,['1'],6,218,[-0.12686161],100,53,easy,plus,dotcolour,beta,,,12,18,V,R,
373,121,37,8,2,27,53,999,['n'],1,right,['1'],6,667,[-0.11723076],98,53,easy,plus,dotcolour,beta,,,12,18,V,R,
374,122,38,8,2,44,36,715,['c'],1,left,['2'],5,542,[0.15175655],99,44,hard,plus,dotcolour,beta,,,12,18,V,R,
375,123,39,8,2,53,27,565,['c'],1,left,['1'],6,411,[0.12208975],99,53,easy,plus,dotcolour,beta,,,12,18,V,R,
376,124,40,8,2,53,27,715,['c'],1,left,['1'],6,311,[0.07784925],99,53,easy,plus,dotcolour,beta,,,12,18,V,R,
377,125,41,8,2,36,44,1249,['c'],0,right,['3'],4,306,[0.10653118],99,44,hard,plus,dotcolour,beta,,,12,18,V,R,
378,0,0,9,3,53,27,733,['c'],1,left,['1'],6,465,[-0.05948254],5,53,easy,minus,dotcolour,beta,,,12,18,V,R,
379,1,1,9,3,27,53,616,['n'],1,right,['1'],6,231,[-0.07528579],68,53,easy,minus,dotcolour,beta,,,12,18,V,R,
380,2,2,9,3,47,33,616,['c'],1,left,['2'],5,1223,[0.3022944],98,47,medium,minus,dotcolour,beta,,,12,18,V,R,
381,3,3,9,3,33,47,815,['c'],0,right,['2'],5,342,[0.00546658],18,47,medium,minus,dotcolour,beta,,,12,18,V,R,
382,4,4,9,3,33,47,682,['n'],1,right,['2'],5,327,[-0.04980346],45,47,medium,minus,dotcolour,beta,,,12,18,V,R,
383,5,5,9,3,53,27,565,['c'],1,left,['2'],5,420,[-0.00484187],16,53,easy,minus,dotcolour,beta,,,12,18,V,R,
384,6,6,9,3,33,47,1082,['c'],0,right,['1'],6,1730,[-0.14673086],6,47,medium,minus,dotcolour,beta,,,12,18,V,R,
385,7,7,9,3,53,27,564,['n'],0,left,['1'],6,431,[-0.10296285],79,53,easy,minus,dotcolour,beta,,,12,18,V,R,
386,8,8,9,3,36,44,1165,['n'],1,right,['2'],5,329,[-0.15796986],96,44,hard,minus,dotcolour,beta,,,12,18,V,R,
387,9,9,9,3,27,53,665,['n'],1,right,['1'],6,499,[-0.04088191],41,53,easy,minus,dotcolour,beta,,,12,18,V,R,
388,10,10,9,3,36,44,980,['n'],1,right,['3'],4,393,[-0.05137128],47,44,hard,minus,dotcolour,beta,,,12,18,V,R,
389,11,11,9,3,36,44,630,['n'],1,right,['2'],5,458,[-0.03050462],34,44,hard,minus,dotcolour,beta,,,12,18,V,R,
390,12,12,9,3,44,36,965,['c'],1,left,['1'],6,386,[0.01837511],25,44,hard,minus,dotcolour,beta,,,12,18,V,R,
391,13,13,9,3,33,47,698,['n'],1,right,['3'],4,647,[-0.1416751],87,47,medium,minus,dotcolour,beta,,,12,18,V,R,
392,14,14,9,3,47,33,731,['c'],1,left,['1'],6,386,[0.06378991],56,47,medium,minus,dotcolour,beta,,,12,18,V,R,
393,15,15,9,3,44,36,880,['n'],0,left,['1'],6,329,[-0.05727265],51,44,hard,minus,dotcolour,beta,,,12,18,V,R,
394,16,16,9,3,53,27,915,['c'],1,left,['1'],6,272,[0.08745881],75,53,easy,minus,dotcolour,beta,,,12,18,V,R,
395,17,17,9,3,53,27,497,['c'],1,left,['1'],6,355,[0.04869626],45,53,easy,minus,dotcolour,beta,,,12,18,V,R,
396,18,18,9,3,36,44,782,['n'],1,right,['3'],4,287,[-0.19484659],99,44,hard,minus,dotcolour,beta,,,12,18,V,R,
397,19,19,9,3,27,53,548,['n'],1,right,['3'],4,287,[-0.22231957],100,53,easy,minus,dotcolour,beta,,,12,18,V,R,
398,20,20,9,3,44,36,1182,['c'],1,left,['3'],4,222,[0.11447108],90,44,hard,minus,dotcolour,beta,,,12,18,V,R,
399,21,21,9,3,36,44,1315,['c'],0,right,['3'],4,306,[0.0761604],66,44,hard,minus,dotcolour,beta,,,12,18,V,R,
400,22,22,9,3,36,44,1532,['n'],1,right,['3'],4,434,[-0.1179494],85,44,hard,minus,dotcolour,beta,,,12,18,V,R,
401,23,23,9,3,44,36,750,['c'],1,left,['3'],4,340,[0.11884878],88,44,hard,minus,dotcolour,beta,,,12,18,V,R,
402,24,24,9,3,44,36,598,['c'],1,left,['2'],5,607,[0.09025159],69,44,hard,minus,dotcolour,beta,,,12,18,V,R,
403,25,25,9,3,33,47,632,['n'],1,right,['2'],5,439,[-0.09737339],76,47,medium,minus,dotcolour,beta,,,12,18,V,R,
404,26,26,9,3,47,33,1567,['c'],1,left,['3'],4,400,[0.12133679],87,47,medium,minus,dotcolour,beta,,,12,18,V,R,
405,27,27,9,3,33,47,1099,['n'],1,right,['3'],4,246,[-0.00508266],14,47,medium,minus,dotcolour,beta,,,12,18,V,R,
406,28,28,9,3,47,33,697,['c'],1,left,['1'],6,545,[0.26800194],99,47,medium,minus,dotcolour,beta,,,12,18,V,R,
407,29,29,9,3,36,44,581,['c'],0,right,['3'],4,758,[0.02540436],35,44,hard,minus,dotcolour,beta,,,12,18,V,R,
408,30,30,9,3,27,53,849,['n'],1,right,['2'],5,631,[-0.17559945],94,53,easy,minus,dotcolour,beta,,,12,18,V,R,
409,31,31,9,3,27,53,599,['n'],1,right,['1'],6,455,[-0.0927457],73,53,easy,minus,dotcolour,beta,,,12,18,V,R,
410,32,32,9,3,47,33,833,['c'],1,left,['1'],6,357,[0.06673812],58,47,medium,minus,dotcolour,beta,,,12,18,V,R,
411,33,33,9,3,33,47,531,['n'],1,right,['2'],5,547,[-0.09227091],71,47,medium,minus,dotcolour,beta,,,12,18,V,R,
412,34,34,9,3,47,33,814,['c'],1,left,['1'],6,494,[0.13467131],88,47,medium,minus,dotcolour,beta,,,12,18,V,R,
413,35,35,9,3,27,53,548,['n'],1,right,['1'],6,717,[-0.19986363],96,53,easy,minus,dotcolour,beta,,,12,18,V,R,
414,36,36,9,3,44,36,597,['c'],1,left,['2'],5,403,[0.07170493],61,44,hard,minus,dotcolour,beta,,,12,18,V,R,
415,37,37,9,3,53,27,863,['c'],1,left,['1'],6,337,[0.18957755],98,53,easy,minus,dotcolour,beta,,,12,18,V,R,
416,38,38,9,3,47,33,798,['c'],1,left,['1'],6,333,[0.11437282],86,47,medium,minus,dotcolour,beta,,,12,18,V,R,
417,39,39,9,3,44,36,647,['c'],1,left,['3'],4,487,[0.20517401],98,44,hard,minus,dotcolour,beta,,,12,18,V,R,
418,40,40,9,3,53,27,764,['c'],1,left,['1'],6,310,[0.10747396],84,53,easy,minus,dotcolour,beta,,,12,18,V,R,
419,41,41,9,3,27,53,599,['n'],1,right,['1'],6,307,[-0.11362982],87,53,easy,minus,dotcolour,beta,,,12,18,V,R,
420,42,0,10,3,36,44,1833,['c'],0,right,['3'],4,314,[0.07591774],66,44,hard,minus,dotcolour,beta,,,12,18,V,R,
421,43,1,10,3,47,33,1566,['n'],0,left,['3'],4,201,[-0.05744684],52,47,medium,minus,dotcolour,beta,,,12,18,V,R,
422,44,2,10,3,44,36,732,['c'],1,left,['1'],6,364,[0.07244816],62,44,hard,minus,dotcolour,beta,,,12,18,V,R,
423,45,3,10,3,33,47,1000,['n'],1,right,['3'],4,472,[-0.05666332],51,47,medium,minus,dotcolour,beta,,,12,18,V,R,
424,46,4,10,3,36,44,850,['c'],0,right,['2'],5,820,[0.22627259],97,44,hard,minus,dotcolour,beta,,,12,18,V,R,
425,47,5,10,3,36,44,665,['n'],1,right,['2'],5,490,[-0.06945757],59,44,hard,minus,dotcolour,beta,,,12,18,V,R,
426,48,6,10,3,36,44,1148,['n'],1,right,['3'],4,402,[-0.1301551],89,44,hard,minus,dotcolour,beta,,,12,18,V,R,
427,49,7,10,3,33,47,664,['n'],1,right,['1'],6,200,[-0.16478937],99,47,medium,minus,dotcolour,beta,,,12,18,V,R,
428,50,8,10,3,44,36,865,['c'],1,left,['3'],4,303,[0.04110719],38,44,hard,minus,dotcolour,beta,,,12,18,V,R,
429,51,9,10,3,53,27,783,['c'],1,left,['1'],6,342,[0.09258123],76,53,easy,minus,dotcolour,beta,,,12,18,V,R,
430,52,10,10,3,36,44,583,['n'],1,right,['2'],5,491,[-0.01081622],24,44,hard,minus,dotcolour,beta,,,12,18,V,R,
431,53,11,10,3,33,47,815,['n'],1,right,['3'],4,479,[-0.14522882],91,47,medium,minus,dotcolour,beta,,,12,18,V,R,
432,54,12,10,3,36,44,1132,['n'],1,right,['3'],4,224,[-0.17039859],99,44,hard,minus,dotcolour,beta,,,12,18,V,R,
433,55,13,10,3,47,33,699,['c'],1,left,['1'],6,325,[0.03776527],36,47,medium,minus,dotcolour,beta,,,12,18,V,R,
434,56,14,10,3,44,36,782,['c'],1,left,['2'],5,417,[0.14334269],92,44,hard,minus,dotcolour,beta,,,12,18,V,R,
435,57,15,10,3,47,33,599,['c'],1,left,['1'],6,339,[0.08262755],70,47,medium,minus,dotcolour,beta,,,12,18,V,R,
436,58,16,10,3,44,36,582,['c'],1,left,['2'],5,472,[0.10414113],78,44,hard,minus,dotcolour,beta,,,12,18,V,R,
437,59,17,10,3,27,53,616,['n'],1,right,['1'],6,285,[-0.15698853],97,53,easy,minus,dotcolour,beta,,,12,18,V,R,
438,60,18,10,3,36,44,465,['n'],1,right,['3'],4,497,[-0.0137527],26,44,hard,minus,dotcolour,beta,,,12,18,V,R,
439,61,19,10,3,27,53,948,['n'],1,right,['2'],5,456,[-0.15440639],93,53,easy,minus,dotcolour,beta,,,12,18,V,R,
440,62,20,10,3,53,27,748,['c'],1,left,['1'],6,265,[0.07564369],67,53,easy,minus,dotcolour,beta,,,12,18,V,R,
441,63,21,10,3,27,53,549,['n'],1,right,['1'],6,530,[-0.22907337],99,53,easy,minus,dotcolour,beta,,,12,18,V,R,
442,64,22,10,3,47,33,614,['c'],1,left,['1'],6,565,[0.05541367],50,47,medium,minus,dotcolour,beta,,,12,18,V,R,
443,65,23,10,3,33,47,699,['n'],1,right,['3'],4,884,[-0.15861346],88,47,medium,minus,dotcolour,beta,,,12,18,V,R,
444,66,24,10,3,53,27,699,['c'],1,left,['1'],6,319,[0.15617977],96,53,easy,minus,dotcolour,beta,,,12,18,V,R,
445,67,25,10,3,44,36,733,['n'],0,left,['3'],4,382,[-0.01817436],25,44,hard,minus,dotcolour,beta,,,12,18,V,R,
446,68,26,10,3,44,36,1083,['c'],1,left,['3'],4,309,[0.03764299],36,44,hard,minus,dotcolour,beta,,,12,18,V,R,
447,69,27,10,3,53,27,565,['c'],1,left,['1'],6,252,[0.12291194],92,53,easy,minus,dotcolour,beta,,,12,18,V,R,
448,70,28,10,3,33,47,764,['c'],0,right,['3'],4,565,[0.01853336],29,47,medium,minus,dotcolour,beta,,,12,18,V,R,
449,71,29,10,3,33,47,1014,['n'],1,right,['2'],5,639,[-0.13202001],85,47,medium,minus,dotcolour,beta,,,12,18,V,R,
450,72,30,10,3,53,27,630,['c'],1,left,['1'],6,398,[0.18904301],98,53,easy,minus,dotcolour,beta,,,12,18,V,R,
451,73,31,10,3,27,53,499,['n'],1,right,['1'],6,323,[-0.14164241],94,53,easy,minus,dotcolour,beta,,,12,18,V,R,
452,74,32,10,3,53,27,532,['c'],1,left,['1'],6,314,[0.12750245],91,53,easy,minus,dotcolour,beta,,,12,18,V,R,
453,75,33,10,3,47,33,915,['c'],1,left,['3'],4,402,[0.21021011],99,47,medium,minus,dotcolour,beta,,,12,18,V,R,
454,76,34,10,3,44,36,580,['c'],1,left,['2'],5,332,[-0.04406528],4,44,hard,minus,dotcolour,beta,,,12,18,V,R,
455,77,35,10,3,47,33,766,['n'],0,left,['3'],4,426,[-0.15156284],93,47,medium,minus,dotcolour,beta,,,12,18,V,R,
456,78,36,10,3,47,33,549,['n'],0,left,['3'],4,308,[-0.08952788],75,47,medium,minus,dotcolour,beta,,,12,18,V,R,
457,79,37,10,3,53,27,534,['n'],0,left,['3'],4,332,[0.05305099],3,53,easy,minus,dotcolour,beta,,,12,18,V,R,
458,80,38,10,3,27,53,933,['n'],1,right,['3'],4,307,[-0.15691649],96,53,easy,minus,dotcolour,beta,,,12,18,V,R,
459,81,39,10,3,33,47,817,['n'],1,right,['3'],4,423,[-0.06845447],59,47,medium,minus,dotcolour,beta,,,12,18,V,R,
460,82,40,10,3,27,53,617,['n'],1,right,['2'],5,631,[-0.06768726],57,53,easy,minus,dotcolour,beta,,,12,18,V,R,
461,83,41,10,3,27,53,733,['n'],1,right,['2'],5,450,[-0.04208221],41,53,easy,minus,dotcolour,beta,,,12,18,V,R,
462,84,0,11,3,33,47,783,['n'],1,right,['3'],4,763,[-0.21455031],96,47,medium,minus,dotcolour,beta,,,12,18,V,R,
463,85,1,11,3,44,36,682,['c'],1,left,['2'],5,571,[0.17942466],95,44,hard,minus,dotcolour,beta,,,12,18,V,R,
464,86,2,11,3,44,36,599,['c'],1,left,['2'],5,414,[0.09627581],76,44,hard,minus,dotcolour,beta,,,12,18,V,R,
465,87,3,11,3,53,27,665,['c'],1,left,['1'],6,436,[0.16667637],95,53,easy,minus,dotcolour,beta,,,12,18,V,R,
466,88,4,11,3,44,36,665,['c'],1,left,['3'],4,354,[0.17083443],97,44,hard,minus,dotcolour,beta,,,12,18,V,R,
467,89,5,11,3,44,36,549,['c'],1,left,['1'],6,687,[0.04071541],42,44,hard,minus,dotcolour,beta,,,12,18,V,R,
468,90,6,11,3,53,27,531,['c'],1,left,['1'],6,343,[0.12548689],90,53,easy,minus,dotcolour,beta,,,12,18,V,R,
469,91,7,11,3,33,47,667,['n'],1,right,['1'],6,336,[-0.15255532],95,47,medium,minus,dotcolour,beta,,,12,18,V,R,
470,92,8,11,3,27,53,499,['n'],1,right,['2'],5,456,[-0.18338823],97,53,easy,minus,dotcolour,beta,,,12,18,V,R,
471,93,9,11,3,33,47,582,['n'],1,right,['2'],5,472,[-0.07768024],64,47,medium,minus,dotcolour,beta,,,12,18,V,R,
472,94,10,11,3,36,44,1016,['n'],1,right,['3'],4,198,[-0.09599895],84,44,hard,minus,dotcolour,beta,,,12,18,V,R,
473,95,11,11,3,53,27,632,['c'],1,left,['1'],6,286,[0.12544239],91,53,easy,minus,dotcolour,beta,,,12,18,V,R,
474,96,12,11,3,53,27,681,['c'],1,left,['1'],6,585,[0.32999928],100,53,easy,minus,dotcolour,beta,,,12,18,V,R,
475,97,13,11,3,27,53,481,['n'],1,right,['2'],5,679,[-0.14012995],86,53,easy,minus,dotcolour,beta,,,12,18,V,R,
476,98,14,11,3,27,53,548,['n'],1,right,['1'],6,880,[-0.10171909],71,53,easy,minus,dotcolour,beta,,,12,18,V,R,
477,99,15,11,3,33,47,582,['n'],1,right,['3'],4,575,[-0.0657149],56,47,medium,minus,dotcolour,beta,,,12,18,V,R,
478,100,16,11,3,47,33,732,['c'],1,left,['1'],6,332,[0.14690153],95,47,medium,minus,dotcolour,beta,,,12,18,V,R,
479,101,17,11,3,36,44,616,['n'],1,right,['2'],5,504,[-0.12307089],85,44,hard,minus,dotcolour,beta,,,12,18,V,R,
480,102,18,11,3,44,36,767,['c'],1,left,['1'],6,310,[0.02285865],26,44,hard,minus,dotcolour,beta,,,12,18,V,R,
481,103,19,11,3,47,33,516,['c'],1,left,['2'],5,535,[0.19868129],97,47,medium,minus,dotcolour,beta,,,12,18,V,R,
482,104,20,11,3,47,33,484,['c'],1,left,['2'],5,440,[0.02612297],31,47,medium,minus,dotcolour,beta,,,12,18,V,R,
483,105,21,11,3,47,33,631,['n'],0,left,['8'],3,1079,[-0.18819541],91,47,medium,minus,dotcolour,beta,,,12,18,V,R,
484,106,22,11,3,47,33,1117,['c'],1,left,['3'],4,280,[0.05663921],51,47,medium,minus,dotcolour,beta,,,12,18,V,R,
485,107,23,11,3,33,47,1400,['n'],1,right,['2'],5,439,[-0.20008036],98,47,medium,minus,dotcolour,beta,,,12,18,V,R,
486,108,24,11,3,47,33,984,['c'],1,left,['2'],5,303,[0.06036476],54,47,medium,minus,dotcolour,beta,,,12,18,V,R,
487,109,25,11,3,47,33,565,['c'],1,left,['3'],4,349,[0.06484792],57,47,medium,minus,dotcolour,beta,,,12,18,V,R,
488,110,26,11,3,36,44,1132,['c'],0,right,['3'],4,756,[-0.08629647],5,44,hard,minus,dotcolour,beta,,,12,18,V,R,
489,111,27,11,3,53,27,600,['c'],1,left,['1'],6,303,[0.11506388],88,53,easy,minus,dotcolour,beta,,,12,18,V,R,
490,112,28,11,3,27,53,649,['n'],1,right,['2'],5,483,[-0.1871109],97,53,easy,minus,dotcolour,beta,,,12,18,V,R,
491,113,29,11,3,36,44,816,['c'],0,right,['8'],3,833,[0.18677334],93,44,hard,minus,dotcolour,beta,,,12,18,V,R,
492,114,30,11,3,36,44,548,['n'],1,right,['3'],4,394,[-0.02661626],30,44,hard,minus,dotcolour,beta,,,12,18,V,R,
493,115,31,11,3,27,53,498,['n'],1,right,['1'],6,672,[-0.15887721],91,53,easy,minus,dotcolour,beta,,,12,18,V,R,
494,116,32,11,3,44,36,615,['c'],1,left,['1'],6,317,[0.19880383],99,44,hard,minus,dotcolour,beta,,,12,18,V,R,
495,117,33,11,3,33,47,698,['n'],1,right,['2'],5,526,[-0.19524874],97,47,medium,minus,dotcolour,beta,,,12,18,V,R,
496,118,34,11,3,53,27,817,['c'],1,left,['1'],6,370,[0.21511373],99,53,easy,minus,dotcolour,beta,,,12,18,V,R,
497,119,35,11,3,36,44,1130,['n'],1,right,['2'],5,471,[-0.15690898],93,44,hard,minus,dotcolour,beta,,,12,18,V,R,
498,120,36,11,3,36,44,614,['n'],1,right,['3'],4,676,[-0.04783836],46,44,hard,minus,dotcolour,beta,,,12,18,V,R,
499,121,37,11,3,53,27,599,['c'],1,left,['1'],6,386,[0.09779339],77,53,easy,minus,dotcolour,beta,,,12,18,V,R,
500,122,38,11,3,44,36,398,['c'],1,left,['2'],5,525,[0.06556929],56,44,hard,minus,dotcolour,beta,,,12,18,V,R,
501,123,39,11,3,33,47,599,['n'],1,right,['1'],6,289,[-0.02157438],24,47,medium,minus,dotcolour,beta,,,12,18,V,R,
502,124,40,11,3,27,53,615,['n'],1,right,['1'],6,175,[-0.15451054],99,53,easy,minus,dotcolour,beta,,,12,18,V,R,
503,125,41,11,3,27,53,648,['n'],1,right,['1'],6,335,[-0.13576483],92,53,easy,minus,dotcolour,beta,,,12,18,V,R,
504,0,0,12,4,33,47,899,['n'],1,right,['2'],5,1119,[-0.21295363],99,47,medium,plus,dotcolour,beta,,,12,18,V,R,
505,1,1,12,4,33,47,498,['n'],1,right,['2'],5,360,[-0.17936697],100,47,medium,plus,dotcolour,beta,,,12,18,V,R,
506,2,2,12,4,53,27,782,['c'],1,left,['1'],6,403,[0.13988024],100,53,easy,plus,dotcolour,beta,,,12,18,V,R,
507,3,3,12,4,36,44,866,['c'],0,right,['2'],5,362,[-0.03020179],68,44,hard,plus,dotcolour,beta,,,12,18,V,R,
508,4,4,12,4,36,44,682,['c'],0,right,['2'],5,322,[0.03949938],95,44,hard,plus,dotcolour,beta,,,12,18,V,R,
509,5,5,12,4,27,53,548,['n'],1,right,['2'],5,247,[-0.02292121],94,53,easy,plus,dotcolour,beta,,,12,18,V,R,
510,6,6,12,4,53,27,532,['c'],1,left,['1'],6,330,[0.09948611],99,53,easy,plus,dotcolour,beta,,,12,18,V,R,
511,7,7,12,4,47,33,598,['c'],1,left,['1'],6,358,[0.114572],99,47,medium,plus,dotcolour,beta,,,12,18,V,R,
512,8,8,12,4,36,44,699,['n'],1,right,['3'],4,341,[-0.09220512],99,44,hard,plus,dotcolour,beta,,,12,18,V,R,
513,9,9,12,4,27,53,547,['n'],1,right,['1'],6,403,[-0.1163022],99,53,easy,plus,dotcolour,beta,,,12,18,V,R,
514,10,10,12,4,36,44,466,['n'],1,right,['1'],6,306,[-0.0598931],98,44,hard,plus,dotcolour,beta,,,12,18,V,R,
515,11,11,12,4,47,33,649,['c'],1,left,['1'],6,325,[0.16719172],100,47,medium,plus,dotcolour,beta,,,12,18,V,R,
516,12,12,12,4,44,36,699,['c'],1,left,['2'],5,357,[0.0788304],98,44,hard,plus,dotcolour,beta,,,12,18,V,R,
517,13,13,12,4,44,36,881,['c'],1,left,['3'],4,261,[0.09846212],100,44,hard,plus,dotcolour,beta,,,12,18,V,R,
518,14,14,12,4,33,47,698,['n'],1,right,['3'],4,304,[-0.26898405],100,47,medium,plus,dotcolour,beta,,,12,18,V,R,
519,15,15,12,4,44,36,615,['c'],1,left,['3'],4,236,[0.10888469],100,44,hard,plus,dotcolour,beta,,,12,18,V,R,
520,16,16,12,4,27,53,531,['n'],1,right,['1'],6,454,[-0.12636193],99,53,easy,plus,dotcolour,beta,,,12,18,V,R,
521,17,17,12,4,47,33,463,['c'],1,left,['1'],6,443,[0.15270627],100,47,medium,plus,dotcolour,beta,,,12,18,V,R,
522,18,18,12,4,47,33,582,['n'],0,left,['1'],6,244,[-0.04117736],97,47,medium,plus,dotcolour,beta,,,12,18,V,R,
523,19,19,12,4,44,36,897,['c'],1,left,['1'],6,495,[-0.00523724],78,44,hard,plus,dotcolour,beta,,,12,18,V,R,
524,20,20,12,4,27,53,664,['n'],1,right,['1'],6,458,[-0.19585974],100,53,easy,plus,dotcolour,beta,,,12,18,V,R,
525,21,21,12,4,47,33,699,['c'],1,left,['2'],5,589,[0.11270149],98,47,medium,plus,dotcolour,beta,,,12,18,V,R,
526,22,22,12,4,53,27,581,['c'],1,left,['1'],6,600,[0.14429423],99,53,easy,plus,dotcolour,beta,,,12,18,V,R,
527,23,23,12,4,27,53,615,['n'],1,right,['1'],6,425,[-0.21725258],100,53,easy,plus,dotcolour,beta,,,12,18,V,R,
528,24,24,12,4,33,47,582,['n'],1,right,['3'],4,906,[-0.17239747],99,47,medium,plus,dotcolour,beta,,,12,18,V,R,
529,25,25,12,4,44,36,1282,['n'],0,left,['3'],4,259,[0.0245892],75,44,hard,plus,dotcolour,beta,,,12,18,V,R,
530,26,26,12,4,44,36,698,['c'],1,left,['1'],6,326,[-0.02122161],75,44,hard,plus,dotcolour,beta,,,12,18,V,R,
531,27,27,12,4,33,47,732,['n'],1,right,['1'],6,221,[-0.1087061],100,47,medium,plus,dotcolour,beta,,,12,18,V,R,
532,28,28,12,4,53,27,1015,['c'],1,left,['1'],6,278,[0.11751607],100,53,easy,plus,dotcolour,beta,,,12,18,V,R,
533,29,29,12,4,53,27,450,['c'],1,left,['1'],6,354,[0.12579346],100,53,easy,plus,dotcolour,beta,,,12,18,V,R,
534,30,30,12,4,44,36,616,['c'],1,left,['2'],5,557,[0.19621602],100,44,hard,plus,dotcolour,beta,,,12,18,V,R,
535,31,31,12,4,27,53,565,['n'],1,right,['2'],5,585,[-0.28285604],100,53,easy,plus,dotcolour,beta,,,12,18,V,R,
536,32,32,12,4,47,33,750,['c'],1,left,['1'],6,301,[-0.0217252],75,47,medium,plus,dotcolour,beta,,,12,18,V,R,
537,33,33,12,4,27,53,633,['n'],1,right,['1'],6,369,[-0.10035836],99,53,easy,plus,dotcolour,beta,,,12,18,V,R,
538,34,34,12,4,36,44,781,['n'],1,right,['3'],4,477,[-0.12256558],99,44,hard,plus,dotcolour,beta,,,12,18,V,R,
539,35,35,12,4,36,44,666,['n'],1,right,['2'],5,737,[-0.08775951],95,44,hard,plus,dotcolour,beta,,,12,18,V,R,
540,36,36,12,4,36,44,1266,['c'],0,right,['3'],4,650,[-0.03631314],61,44,hard,plus,dotcolour,beta,,,12,18,V,R,
541,37,37,12,4,53,27,682,['c'],1,left,['2'],5,758,[0.30212026],100,53,easy,plus,dotcolour,beta,,,12,18,V,R,
542,38,38,12,4,53,27,515,['c'],1,left,['1'],6,316,[0.09587573],99,53,easy,plus,dotcolour,beta,,,12,18,V,R,
543,39,39,12,4,33,47,666,['n'],1,right,['1'],6,287,[-0.1080547],100,47,medium,plus,dotcolour,beta,,,12,18,V,R,
544,40,40,12,4,33,47,482,['n'],1,right,['3'],4,617,[-0.09913467],97,47,medium,plus,dotcolour,beta,,,12,18,V,R,
545,41,41,12,4,47,33,599,['c'],1,left,['2'],5,418,[0.07433436],97,47,medium,plus,dotcolour,beta,,,12,18,V,R,
546,42,0,13,4,33,47,850,['n'],1,right,['2'],5,642,[-0.04517305],91,47,medium,plus,dotcolour,beta,,,12,18,V,R,
547,43,1,13,4,44,36,665,['c'],1,left,['2'],5,599,[0.12482657],99,44,hard,plus,dotcolour,beta,,,12,18,V,R,
548,44,2,13,4,44,36,697,['c'],1,left,['1'],6,301,[0.0443917],96,44,hard,plus,dotcolour,beta,,,12,18,V,R,
549,45,3,13,4,36,44,799,['n'],1,right,['3'],4,427,[-0.22151113],100,44,hard,plus,dotcolour,beta,,,12,18,V,R,
550,46,4,13,4,27,53,515,['n'],1,right,['1'],6,271,[-0.12559425],100,53,easy,plus,dotcolour,beta,,,12,18,V,R,
551,47,5,13,4,36,44,1016,['c'],0,right,['3'],4,260,[0.06789505],99,44,hard,plus,dotcolour,beta,,,12,18,V,R,
552,48,6,13,4,36,44,716,['n'],1,right,['3'],4,239,[-0.05098676],98,44,hard,plus,dotcolour,beta,,,12,18,V,R,
553,49,7,13,4,36,44,632,['c'],0,right,['8'],3,1525,[-0.01761411],63,44,hard,plus,dotcolour,beta,,,12,18,V,R,
554,50,8,13,4,53,27,632,['c'],1,left,['1'],6,336,[0.09281329],99,53,easy,plus,dotcolour,beta,,,12,18,V,R,
555,51,9,13,4,27,53,716,['n'],1,right,['1'],6,447,[-0.01419936],87,53,easy,plus,dotcolour,beta,,,12,18,V,R,
556,52,10,13,4,53,27,615,['c'],1,left,['1'],6,958,[0.06458484],90,53,easy,plus,dotcolour,beta,,,12,18,V,R,
557,53,11,13,4,27,53,567,['n'],1,right,['1'],6,267,[-0.16105865],100,53,easy,plus,dotcolour,beta,,,12,18,V,R,
558,54,12,13,4,27,53,916,['n'],1,right,['2'],5,596,[-0.15675996],99,53,easy,plus,dotcolour,beta,,,12,18,V,R,
559,55,13,13,4,33,47,532,['n'],1,right,['1'],6,201,[-0.11519226],100,47,medium,plus,dotcolour,beta,,,12,18,V,R,
560,56,14,13,4,47,33,1064,['c'],1,left,['2'],5,520,[0.17687713],100,47,medium,plus,dotcolour,beta,,,12,18,V,R,
561,57,15,13,4,47,33,749,['c'],1,left,['1'],6,374,[0.09596131],99,47,medium,plus,dotcolour,beta,,,12,18,V,R,
562,58,16,13,4,27,53,567,['n'],1,right,['1'],6,282,[0.03183978],69,53,easy,plus,dotcolour,beta,,,12,18,V,R,
563,59,17,13,4,53,27,615,['c'],1,left,['1'],6,263,[0.12799858],100,53,easy,plus,dotcolour,beta,,,12,18,V,R,
564,60,18,13,4,44,36,765,['c'],1,left,['2'],5,416,[0.07510661],97,44,hard,plus,dotcolour,beta,,,12,18,V,R,
565,61,19,13,4,33,47,616,['n'],1,right,['3'],4,440,[-0.20126153],100,47,medium,plus,dotcolour,beta,,,12,18,V,R,
566,62,20,13,4,47,33,714,['c'],1,left,['1'],6,299,[0.04126284],96,47,medium,plus,dotcolour,beta,,,12,18,V,R,
567,63,21,13,4,44,36,982,['n'],0,left,['3'],4,377,[-0.04893653],96,44,hard,plus,dotcolour,beta,,,12,18,V,R,
568,64,22,13,4,33,47,649,['n'],1,right,['3'],4,362,[-0.17396479],100,47,medium,plus,dotcolour,beta,,,12,18,V,R,
569,65,23,13,4,44,36,631,['c'],1,left,['2'],5,467,[0.13203635],99,44,hard,plus,dotcolour,beta,,,12,18,V,R,
570,66,24,13,4,33,47,749,['n'],1,right,['2'],5,388,[-0.05765731],96,47,medium,plus,dotcolour,beta,,,12,18,V,R,
571,67,25,13,4,47,33,1382,['c'],1,left,['3'],4,223,[0.17721067],100,47,medium,plus,dotcolour,beta,,,12,18,V,R,
572,68,26,13,4,27,53,464,['n'],1,right,['2'],5,413,[-0.0611636],96,53,easy,plus,dotcolour,beta,,,12,18,V,R,
573,69,27,13,4,53,27,632,['n'],0,left,['9'],2,1565,[-0.09150465],89,53,easy,plus,dotcolour,beta,,,12,18,V,R,
574,70,28,13,4,53,27,1149,['c'],1,left,['1'],6,505,[0.26725284],100,53,easy,plus,dotcolour,beta,,,12,18,V,R,
575,71,29,13,4,33,47,782,['n'],1,right,['2'],5,1647,[-0.39567188],100,47,medium,plus,dotcolour,beta,,,12,18,V,R,
576,72,30,13,4,47,33,650,['c'],1,left,['1'],6,388,[0.19540677],100,47,medium,plus,dotcolour,beta,,,12,18,V,R,
577,73,31,13,4,53,27,1031,['c'],1,left,['2'],5,1525,[0.27307634],99,53,easy,plus,dotcolour,beta,,,12,18,V,R,
578,74,32,13,4,27,53,582,['n'],1,right,['1'],6,418,[-0.12661353],99,53,easy,plus,dotcolour,beta,,,12,18,V,R,
579,75,33,13,4,44,36,632,['n'],0,left,['8'],3,905,[-0.08654684],94,44,hard,plus,dotcolour,beta,,,12,18,V,R,
580,76,34,13,4,53,27,500,['c'],1,left,['1'],6,323,[0.04908395],96,53,easy,plus,dotcolour,beta,,,12,18,V,R,
581,77,35,13,4,47,33,582,['c'],1,left,['2'],5,504,[0.1634389],100,47,medium,plus,dotcolour,beta,,,12,18,V,R,
582,78,36,13,4,47,33,515,['c'],1,left,['1'],6,441,[0.11325906],99,47,medium,plus,dotcolour,beta,,,12,18,V,R,
583,79,37,13,4,33,47,547,['n'],1,right,['2'],5,635,[-0.342069],100,47,medium,plus,dotcolour,beta,,,12,18,V,R,
584,80,38,13,4,44,36,732,['c'],1,left,['2'],5,317,[0.04484178],96,44,hard,plus,dotcolour,beta,,,12,18,V,R,
585,81,39,13,4,36,44,747,['n'],1,right,['3'],4,396,[-0.10708531],99,44,hard,plus,dotcolour,beta,,,12,18,V,R,
586,82,40,13,4,36,44,780,['n'],1,right,['3'],4,319,[-0.14714965],100,44,hard,plus,dotcolour,beta,,,12,18,V,R,
587,83,41,13,4,36,44,781,['n'],1,right,['3'],4,404,[-0.13938296],100,44,hard,plus,dotcolour,beta,,,12,18,V,R,
588,84,0,14,4,27,53,1000,['n'],1,right,['1'],6,310,[-0.13695389],100,53,easy,plus,dotcolour,beta,,,12,18,V,R,
589,85,1,14,4,47,33,1065,['n'],0,left,['3'],4,249,[-0.11057757],100,47,medium,plus,dotcolour,beta,,,12,18,V,R,
590,86,2,14,4,44,36,899,['c'],1,left,['3'],4,212,[0.0459406],98,44,hard,plus,dotcolour,beta,,,12,18,V,R,
591,87,3,14,4,36,44,532,['n'],1,right,['2'],5,384,[-0.08374823],98,44,hard,plus,dotcolour,beta,,,12,18,V,R,
592,88,4,14,4,53,27,547,['c'],1,left,['1'],6,253,[0.06948433],99,53,easy,plus,dotcolour,beta,,,12,18,V,R,
593,89,5,14,4,27,53,615,['n'],1,right,['1'],6,188,[-0.07330803],100,53,easy,plus,dotcolour,beta,,,12,18,V,R,
594,90,6,14,4,53,27,533,['c'],1,left,['1'],6,303,[0.13832629],100,53,easy,plus,dotcolour,beta,,,12,18,V,R,
595,91,7,14,4,33,47,615,['n'],1,right,['2'],5,388,[-0.03280201],93,47,medium,plus,dotcolour,beta,,,12,18,V,R,
596,92,8,14,4,47,33,682,['c'],1,left,['1'],6,474,[0.10321823],98,47,medium,plus,dotcolour,beta,,,12,18,V,R,
597,93,9,14,4,44,36,648,['c'],1,left,['1'],6,311,[0.09769253],99,44,hard,plus,dotcolour,beta,,,12,18,V,R,
598,94,10,14,4,36,44,797,['c'],0,right,['3'],4,396,[0.00548699],85,44,hard,plus,dotcolour,beta,,,12,18,V,R,
599,95,11,14,4,44,36,649,['c'],1,left,['1'],6,387,[0.10238068],99,44,hard,plus,dotcolour,beta,,,12,18,V,R,
600,96,12,14,4,33,47,816,['n'],1,right,['3'],4,525,[-0.05107316],93,47,medium,plus,dotcolour,beta,,,12,18,V,R,
601,97,13,14,4,44,36,1333,['c'],1,left,['3'],4,404,[0.10126491],99,44,hard,plus,dotcolour,beta,,,12,18,V,R,
602,98,14,14,4,33,47,549,['n'],1,right,['2'],5,511,[-0.25539131],100,47,medium,plus,dotcolour,beta,,,12,18,V,R,
603,99,15,14,4,27,53,564,['n'],1,right,['1'],6,318,[-0.05166443],97,53,easy,plus,dotcolour,beta,,,12,18,V,R,
604,100,16,14,4,47,33,1148,['c'],1,left,['2'],5,333,[0.07405542],98,47,medium,plus,dotcolour,beta,,,12,18,V,R,
605,101,17,14,4,44,36,615,['c'],1,left,['2'],5,424,[0.03447387],92,44,hard,plus,dotcolour,beta,,,12,18,V,R,
606,102,18,14,4,44,36,598,['c'],1,left,['2'],5,288,[0.08044092],99,44,hard,plus,dotcolour,beta,,,12,18,V,R,
607,103,19,14,4,27,53,682,['n'],1,right,['2'],5,394,[-0.15086008],100,53,easy,plus,dotcolour,beta,,,12,18,V,R,
608,104,20,14,4,47,33,648,['c'],1,left,['2'],5,258,[0.13993627],100,47,medium,plus,dotcolour,beta,,,12,18,V,R,
609,105,21,14,4,36,44,782,['n'],1,right,['2'],5,410,[-0.18844328],100,44,hard,plus,dotcolour,beta,,,12,18,V,R,
610,106,22,14,4,27,53,598,['n'],1,right,['1'],6,250,[-0.0764561],99,53,easy,plus,dotcolour,beta,,,12,18,V,R,
611,107,23,14,4,53,27,782,['c'],1,left,['1'],6,491,[0.19116069],100,53,easy,plus,dotcolour,beta,,,12,18,V,R,
612,108,24,14,4,36,44,532,['n'],1,right,['2'],5,795,[-0.18757351],99,44,hard,plus,dotcolour,beta,,,12,18,V,R,
613,109,25,14,4,53,27,881,['c'],1,left,['1'],6,762,[0.18248069],99,53,easy,plus,dotcolour,beta,,,12,18,V,R,
614,110,26,14,4,33,47,582,['n'],1,right,['1'],6,341,[-0.22318407],100,47,medium,plus,dotcolour,beta,,,12,18,V,R,
615,111,27,14,4,47,33,832,['c'],1,left,['2'],5,336,[0.10550078],99,47,medium,plus,dotcolour,beta,,,12,18,V,R,
616,112,28,14,4,36,44,833,['c'],0,right,['1'],6,386,[0.08469246],98,44,hard,plus,dotcolour,beta,,,12,18,V,R,
617,113,29,14,4,36,44,665,['n'],1,right,['2'],5,842,[-0.05258036],89,44,hard,plus,dotcolour,beta,,,12,18,V,R,
618,114,30,14,4,33,47,765,['n'],1,right,['3'],4,747,[-0.13016652],98,47,medium,plus,dotcolour,beta,,,12,18,V,R,
619,115,31,14,4,33,47,1349,['n'],1,right,['3'],4,473,[-0.21858873],100,47,medium,plus,dotcolour,beta,,,12,18,V,R,
620,116,32,14,4,36,44,1632,['c'],0,right,['8'],3,1262,[-0.00093312],71,44,hard,plus,dotcolour,beta,,,12,18,V,R,
621,117,33,14,4,33,47,1065,['n'],1,right,['3'],4,130,[-0.05734698],100,47,medium,plus,dotcolour,beta,,,12,18,V,R,
622,118,34,14,4,47,33,632,['c'],1,left,['3'],4,461,[0.0984959],98,47,medium,plus,dotcolour,beta,,,12,18,V,R,
623,119,35,14,4,47,33,731,['c'],1,left,['1'],6,343,[0.13448626],100,47,medium,plus,dotcolour,beta,,,12,18,V,R,
624,120,36,14,4,53,27,667,['c'],1,left,['1'],6,264,[0.0637229],98,53,easy,plus,dotcolour,beta,,,12,18,V,R,
625,121,37,14,4,53,27,682,['c'],1,left,['1'],6,323,[0.19241496],100,53,easy,plus,dotcolour,beta,,,12,18,V,R,
626,122,38,14,4,27,53,815,['n'],1,right,['1'],6,207,[-0.12985011],100,53,easy,plus,dotcolour,beta,,,12,18,V,R,
627,123,39,14,4,27,53,548,['n'],1,right,['1'],6,362,[-0.09530856],99,53,easy,plus,dotcolour,beta,,,12,18,V,R,
628,124,40,14,4,44,36,1099,['n'],0,left,['3'],4,385,[-0.02641521],92,44,hard,plus,dotcolour,beta,,,12,18,V,R,
629,125,41,14,4,53,27,649,['n'],0,left,['8'],3,793,[-0.03748157],87,53,easy,plus,dotcolour,beta,,,12,18,V,R,
630,0,0,15,5,47,33,900,['c'],1,left,['3'],4,851,[0.18705649],93,47,medium,minus,dotcolour,beta,,,12,18,V,R,
631,1,1,15,5,47,33,1397,['c'],1,left,['3'],4,490,[0.18856081],97,47,medium,minus,dotcolour,beta,,,12,18,V,R,
632,2,2,15,5,47,33,616,['c'],1,left,['2'],5,600,[0.19698031],96,47,medium,minus,dotcolour,beta,,,12,18,V,R,
633,3,3,15,5,36,44,666,['n'],1,right,['2'],5,382,[-0.08195437],68,44,hard,minus,dotcolour,beta,,,12,18,V,R,
634,4,4,15,5,36,44,534,['n'],1,right,['2'],5,418,[-0.0516544],47,44,hard,minus,dotcolour,beta,,,12,18,V,R,
635,5,5,15,5,33,47,950,['c'],0,right,['3'],4,237,[0.09702229],82,47,medium,minus,dotcolour,beta,,,12,18,V,R,
636,6,6,15,5,47,33,564,['c'],1,left,['2'],5,495,[0.10387664],77,47,medium,minus,dotcolour,beta,,,12,18,V,R,
637,7,7,15,5,27,53,549,['n'],1,right,['1'],6,334,[-0.05921549],53,53,easy,minus,dotcolour,beta,,,12,18,V,R,
638,8,8,15,5,53,27,914,['c'],1,left,['1'],6,262,[0.10322985],84,53,easy,minus,dotcolour,beta,,,12,18,V,R,
639,9,9,15,5,53,27,566,['c'],1,left,['1'],6,303,[0.07220733],63,53,easy,minus,dotcolour,beta,,,12,18,V,R,
640,10,10,15,5,33,47,632,['n'],1,right,['2'],5,675,[-0.09343961],70,47,medium,minus,dotcolour,beta,,,12,18,V,R,
641,11,11,15,5,27,53,481,['c'],0,right,['9'],2,982,[-0.17124503],2,53,easy,minus,dotcolour,beta,,,12,18,V,R,
642,12,12,15,5,27,53,647,['n'],1,right,['3'],4,478,[-0.17296229],96,53,easy,minus,dotcolour,beta,,,12,18,V,R,
643,13,13,15,5,36,44,515,['n'],1,right,['3'],4,663,[-0.06455114],55,44,hard,minus,dotcolour,beta,,,12,18,V,R,
644,14,14,15,5,36,44,648,['n'],1,right,['3'],4,364,[-0.15997433],96,44,hard,minus,dotcolour,beta,,,12,18,V,R,
645,15,15,15,5,27,53,649,['n'],1,right,['1'],6,285,[-0.16089404],97,53,easy,minus,dotcolour,beta,,,12,18,V,R,
646,16,16,15,5,36,44,1115,['c'],0,right,['3'],4,271,[-0.0603155],2,44,hard,minus,dotcolour,beta,,,12,18,V,R,
647,17,17,15,5,36,44,515,['n'],1,right,['3'],4,584,[-0.21192458],98,44,hard,minus,dotcolour,beta,,,12,18,V,R,
648,18,18,15,5,44,36,1265,['n'],0,left,['3'],4,472,[-0.06394792],55,44,hard,minus,dotcolour,beta,,,12,18,V,R,
649,19,19,15,5,36,44,648,['n'],1,right,['3'],4,276,[-0.15040572],96,44,hard,minus,dotcolour,beta,,,12,18,V,R,
650,20,20,15,5,44,36,632,['c'],1,left,['2'],5,985,[0.07855663],60,44,hard,minus,dotcolour,beta,,,12,18,V,R,
651,21,21,15,5,33,47,548,['n'],1,right,['2'],5,341,[-0.04425404],41,47,medium,minus,dotcolour,beta,,,12,18,V,R,
652,22,22,15,5,53,27,765,['c'],1,left,['1'],6,298,[0.06101134],54,53,easy,minus,dotcolour,beta,,,12,18,V,R,
653,23,23,15,5,33,47,482,['n'],1,right,['2'],5,476,[-0.14531879],91,47,medium,minus,dotcolour,beta,,,12,18,V,R,
654,24,24,15,5,47,33,899,['c'],1,left,['1'],6,311,[0.04872052],45,47,medium,minus,dotcolour,beta,,,12,18,V,R,
655,25,25,15,5,47,33,865,['c'],1,left,['1'],6,353,[0.10723797],83,47,medium,minus,dotcolour,beta,,,12,18,V,R,
656,26,26,15,5,27,53,665,['n'],1,right,['3'],4,489,[-0.0445047],43,53,easy,minus,dotcolour,beta,,,12,18,V,R,
657,27,27,15,5,53,27,615,['c'],1,left,['1'],6,254,[0.05564181],50,53,easy,minus,dotcolour,beta,,,12,18,V,R,
658,28,28,15,5,44,36,699,['c'],1,left,['3'],4,866,[0.10207968],71,44,hard,minus,dotcolour,beta,,,12,18,V,R,
659,29,29,15,5,44,36,999,['n'],0,left,['3'],4,257,[-0.03478064],32,44,hard,minus,dotcolour,beta,,,12,18,V,R,
660,30,30,15,5,33,47,1015,['n'],1,right,['3'],4,999,[-0.29066687],99,47,medium,minus,dotcolour,beta,,,12,18,V,R,
661,31,31,15,5,53,27,615,['c'],1,left,['1'],6,320,[0.1043127],83,53,easy,minus,dotcolour,beta,,,12,18,V,R,
662,32,32,15,5,44,36,816,['c'],1,left,['3'],4,260,[0.10096582],83,44,hard,minus,dotcolour,beta,,,12,18,V,R,
663,33,33,15,5,33,47,716,['n'],1,right,['1'],6,279,[-0.07424601],65,47,medium,minus,dotcolour,beta,,,12,18,V,R,
664,34,34,15,5,33,47,532,['n'],1,right,['1'],6,352,[-0.12103475],88,47,medium,minus,dotcolour,beta,,,12,18,V,R,
665,35,35,15,5,44,36,616,['c'],1,left,['1'],6,259,[0.086599],75,44,hard,minus,dotcolour,beta,,,12,18,V,R,
666,36,36,15,5,53,27,532,['c'],1,left,['1'],6,221,[0.1275228],94,53,easy,minus,dotcolour,beta,,,12,18,V,R,
667,37,37,15,5,47,33,847,['c'],1,left,['2'],5,379,[0.15736676],95,47,medium,minus,dotcolour,beta,,,12,18,V,R,
668,38,38,15,5,53,27,501,['c'],1,left,['2'],5,433,[0.05888652],52,53,easy,minus,dotcolour,beta,,,12,18,V,R,
669,39,39,15,5,27,53,532,['n'],1,right,['1'],6,380,[-0.03795393],37,53,easy,minus,dotcolour,beta,,,12,18,V,R,
670,40,40,15,5,44,36,915,['c'],1,left,['1'],6,362,[0.12429203],89,44,hard,minus,dotcolour,beta,,,12,18,V,R,
671,41,41,15,5,27,53,549,['n'],1,right,['1'],6,223,[-0.18037509],99,53,easy,minus,dotcolour,beta,,,12,18,V,R,
672,42,0,16,5,27,53,2167,['c'],0,right,['3'],4,349,[0.05524005],50,53,easy,minus,dotcolour,beta,,,12,18,V,R,
673,43,1,16,5,47,33,498,['c'],1,left,['2'],5,380,[0.06234679],55,47,medium,minus,dotcolour,beta,,,12,18,V,R,
674,44,2,16,5,33,47,682,['n'],1,right,['2'],5,643,[-0.1832202],95,47,medium,minus,dotcolour,beta,,,12,18,V,R,
675,45,3,16,5,33,47,815,['n'],1,right,['3'],4,370,[-0.17644588],97,47,medium,minus,dotcolour,beta,,,12,18,V,R,
676,46,4,16,5,47,33,765,['c'],1,left,['1'],6,295,[0.06277537],56,47,medium,minus,dotcolour,beta,,,12,18,V,R,
677,47,5,16,5,36,44,548,['n'],1,right,['2'],5,350,[-0.00526603],18,44,hard,minus,dotcolour,beta,,,12,18,V,R,
678,48,6,16,5,36,44,1049,['n'],1,right,['3'],4,344,[-0.10566573],82,44,hard,minus,dotcolour,beta,,,12,18,V,R,
679,49,7,16,5,27,53,649,['n'],1,right,['1'],6,346,[-0.19943089],99,53,easy,minus,dotcolour,beta,,,12,18,V,R,
680,50,8,16,5,47,33,964,['n'],0,left,['3'],4,303,[-0.02517721],27,47,medium,minus,dotcolour,beta,,,12,18,V,R,
681,51,9,16,5,33,47,633,['n'],1,right,['3'],4,251,[-0.19030031],99,47,medium,minus,dotcolour,beta,,,12,18,V,R,
682,52,10,16,5,44,36,1133,['c'],1,left,['2'],5,365,[0.06428185],56,44,hard,minus,dotcolour,beta,,,12,18,V,R,
683,53,11,16,5,53,27,500,['c'],1,left,['1'],6,260,[0.12720313],93,53,easy,minus,dotcolour,beta,,,12,18,V,R,
684,54,12,16,5,33,47,882,['c'],0,right,['1'],6,624,[0.14806478],89,47,medium,minus,dotcolour,beta,,,12,18,V,R,
685,55,13,16,5,27,53,431,['n'],1,right,['1'],6,311,[-0.0455963],42,53,easy,minus,dotcolour,beta,,,12,18,V,R,
686,56,14,16,5,44,36,614,['c'],1,left,['1'],6,323,[0.11032736],85,44,hard,minus,dotcolour,beta,,,12,18,V,R,
687,57,15,16,5,33,47,548,['n'],1,right,['2'],5,426,[-0.1379269],91,47,medium,minus,dotcolour,beta,,,12,18,V,R,
688,58,16,16,5,53,27,733,['c'],1,left,['3'],4,316,[0.10469646],83,53,easy,minus,dotcolour,beta,,,12,18,V,R,
689,59,17,16,5,36,44,748,['n'],1,right,['3'],4,307,[-0.10893827],85,44,hard,minus,dotcolour,beta,,,12,18,V,R,
690,60,18,16,5,44,36,1716,['c'],1,left,['1'],6,635,[0.0017668],23,44,hard,minus,dotcolour,beta,,,12,18,V,R,
691,61,19,16,5,36,44,682,['n'],1,right,['3'],4,433,[-0.11577639],84,44,hard,minus,dotcolour,beta,,,12,18,V,R,
692,62,20,16,5,44,36,599,['n'],0,left,['8'],3,681,[-0.02453637],34,44,hard,minus,dotcolour,beta,,,12,18,V,R,
693,63,21,16,5,44,36,633,['c'],1,left,['2'],5,638,[0.09625303],71,44,hard,minus,dotcolour,beta,,,12,18,V,R,
694,64,22,16,5,27,53,481,['n'],1,right,['1'],6,330,[-0.25875354],100,53,easy,minus,dotcolour,beta,,,12,18,V,R,
695,65,23,16,5,44,36,850,['c'],1,left,['2'],5,533,[0.06910938],58,44,hard,minus,dotcolour,beta,,,12,18,V,R,
696,66,24,16,5,53,27,582,['c'],1,left,['1'],6,345,[0.1121141],85,53,easy,minus,dotcolour,beta,,,12,18,V,R,
697,67,25,16,5,27,53,466,['n'],1,right,['1'],6,330,[-0.22636572],100,53,easy,minus,dotcolour,beta,,,12,18,V,R,
698,68,26,16,5,47,33,632,['c'],1,left,['1'],6,381,[0.18521833],98,47,medium,minus,dotcolour,beta,,,12,18,V,R,
699,69,27,16,5,53,27,599,['c'],1,left,['1'],6,495,[0.13602739],89,53,easy,minus,dotcolour,beta,,,12,18,V,R,
700,70,28,16,5,47,33,449,['c'],1,left,['2'],5,346,[0.17434199],97,47,medium,minus,dotcolour,beta,,,12,18,V,R,
701,71,29,16,5,33,47,566,['n'],1,right,['2'],5,328,[-0.07355824],64,47,medium,minus,dotcolour,beta,,,12,18,V,R,
702,72,30,16,5,36,44,833,['n'],1,right,['3'],4,227,[-0.08996243],79,44,hard,minus,dotcolour,beta,,,12,18,V,R,
703,73,31,16,5,27,53,649,['n'],1,right,['1'],6,225,[-0.10102878],85,53,easy,minus,dotcolour,beta,,,12,18,V,R,
704,74,32,16,5,27,53,648,['n'],1,right,['1'],6,239,[-0.09188129],79,53,easy,minus,dotcolour,beta,,,12,18,V,R,
705,75,33,16,5,33,47,581,['n'],1,right,['2'],5,472,[-0.22000076],99,47,medium,minus,dotcolour,beta,,,12,18,V,R,
706,76,34,16,5,47,33,798,['c'],1,left,['2'],5,415,[0.13488457],90,47,medium,minus,dotcolour,beta,,,12,18,V,R,
707,77,35,16,5,36,44,680,['n'],1,right,['3'],4,524,[-0.1692012],94,44,hard,minus,dotcolour,beta,,,12,18,V,R,
708,78,36,16,5,44,36,779,['n'],0,left,['3'],4,481,[0.04458988],7,44,hard,minus,dotcolour,beta,,,12,18,V,R,
709,79,37,16,5,36,44,1049,['n'],1,right,['8'],3,854,[-0.17834874],92,44,hard,minus,dotcolour,beta,,,12,18,V,R,
710,80,38,16,5,53,27,649,['c'],1,left,['2'],5,531,[0.21282747],98,53,easy,minus,dotcolour,beta,,,12,18,V,R,
711,81,39,16,5,53,27,565,['c'],1,left,['1'],6,368,[0.01537691],23,53,easy,minus,dotcolour,beta,,,12,18,V,R,
712,82,40,16,5,53,27,465,['c'],1,left,['2'],5,704,[0.2166909],97,53,easy,minus,dotcolour,beta,,,12,18,V,R,
713,83,41,16,5,47,33,748,['c'],1,left,['2'],5,367,[0.00571621],19,47,medium,minus,dotcolour,beta,,,12,18,V,R,
714,84,0,17,5,33,47,783,['n'],1,right,['3'],4,908,[-0.10775304],73,47,medium,minus,dotcolour,beta,,,12,18,V,R,
715,85,1,17,5,27,53,598,['n'],1,right,['1'],6,370,[-0.11123854],84,53,easy,minus,dotcolour,beta,,,12,18,V,R,
716,86,2,17,5,53,27,715,['c'],1,left,['1'],6,296,[0.04127151],38,53,easy,minus,dotcolour,beta,,,12,18,V,R,
717,87,3,17,5,33,47,566,['n'],1,right,['2'],5,167,[-0.0892931],82,47,medium,minus,dotcolour,beta,,,12,18,V,R,
718,88,4,17,5,44,36,531,['c'],1,left,['1'],6,349,[0.0388081],38,44,hard,minus,dotcolour,beta,,,12,18,V,R,
719,89,5,17,5,36,44,599,['n'],1,right,['2'],5,360,[-0.08297326],69,44,hard,minus,dotcolour,beta,,,12,18,V,R,
720,90,6,17,5,36,44,516,['n'],1,right,['2'],5,318,[-0.07799409],67,44,hard,minus,dotcolour,beta,,,12,18,V,R,
721,91,7,17,5,33,47,514,['n'],1,right,['3'],4,350,[-0.14834379],94,47,medium,minus,dotcolour,beta,,,12,18,V,R,
722,92,8,17,5,27,53,549,['n'],1,right,['3'],4,292,[-0.11309864],87,53,easy,minus,dotcolour,beta,,,12,18,V,R,
723,93,9,17,5,33,47,449,['n'],1,right,['3'],4,271,[-0.11651602],89,47,medium,minus,dotcolour,beta,,,12,18,V,R,
724,94,10,17,5,27,53,498,['n'],1,right,['3'],4,202,[-0.12925217],95,53,easy,minus,dotcolour,beta,,,12,18,V,R,
725,95,11,17,5,44,36,1081,['c'],1,left,['2'],5,377,[0.0422307],40,44,hard,minus,dotcolour,beta,,,12,18,V,R,
726,96,12,17,5,36,44,498,['n'],1,right,['3'],4,391,[-0.06168761],54,44,hard,minus,dotcolour,beta,,,12,18,V,R,
727,97,13,17,5,47,33,631,['c'],1,left,['2'],5,351,[9.98869221e-05],16,47,medium,minus,dotcolour,beta,,,12,18,V,R,
728,98,14,17,5,47,33,1282,['c'],1,left,['2'],5,304,[0.09704672],79,47,medium,minus,dotcolour,beta,,,12,18,V,R,
729,99,15,17,5,36,44,681,['c'],0,right,['3'],4,513,[0.09763705],74,44,hard,minus,dotcolour,beta,,,12,18,V,R,
730,100,16,17,5,44,36,582,['c'],1,left,['2'],5,367,[-0.01559212],11,44,hard,minus,dotcolour,beta,,,12,18,V,R,
731,101,17,17,5,33,47,798,['c'],0,right,['3'],4,322,[0.03880172],37,47,medium,minus,dotcolour,beta,,,12,18,V,R,
732,102,18,17,5,44,36,800,['c'],1,left,['3'],4,263,[0.02240034],24,44,hard,minus,dotcolour,beta,,,12,18,V,R,
733,103,19,17,5,53,27,598,['c'],1,left,['2'],5,309,[0.10869861],85,53,easy,minus,dotcolour,beta,,,12,18,V,R,
734,104,20,17,5,53,27,648,['c'],1,left,['1'],6,353,[0.15856324],96,53,easy,minus,dotcolour,beta,,,12,18,V,R,
735,105,21,17,5,33,47,716,['c'],0,right,['3'],4,495,[0.04371057],42,47,medium,minus,dotcolour,beta,,,12,18,V,R,
736,106,22,17,5,33,47,1465,['n'],1,right,['3'],4,498,[-0.10036933],76,47,medium,minus,dotcolour,beta,,,12,18,V,R,
737,107,23,17,5,53,27,949,['c'],1,left,['1'],6,337,[0.11288758],86,53,easy,minus,dotcolour,beta,,,12,18,V,R,
738,108,24,17,5,53,27,716,['c'],1,left,['1'],6,280,[0.1484069],96,53,easy,minus,dotcolour,beta,,,12,18,V,R,
739,109,25,17,5,36,44,800,['c'],0,right,['8'],3,815,[-0.00364281],23,44,hard,minus,dotcolour,beta,,,12,18,V,R,
740,110,26,17,5,53,27,548,['c'],1,left,['1'],6,602,[0.27754763],99,53,easy,minus,dotcolour,beta,,,12,18,V,R,
741,111,27,17,5,47,33,716,['c'],1,left,['3'],4,447,[0.23009886],99,47,medium,minus,dotcolour,beta,,,12,18,V,R,
742,112,28,17,5,27,53,650,['n'],1,right,['2'],5,477,[-0.14293519],91,53,easy,minus,dotcolour,beta,,,12,18,V,R,
743,113,29,17,5,27,53,900,['n'],1,right,['2'],5,1023,[-0.29112803],99,53,easy,minus,dotcolour,beta,,,12,18,V,R,
744,114,30,17,5,53,27,665,['c'],1,left,['1'],6,309,[0.12164923],89,53,easy,minus,dotcolour,beta,,,12,18,V,R,
745,115,31,17,5,44,36,631,['c'],1,left,['2'],5,344,[0.23506524],100,44,hard,minus,dotcolour,beta,,,12,18,V,R,
746,116,32,17,5,47,33,550,['c'],1,left,['2'],5,358,[0.0762224],65,47,medium,minus,dotcolour,beta,,,12,18,V,R,
747,117,33,17,5,47,33,482,['c'],1,left,['2'],5,621,[0.26180043],99,47,medium,minus,dotcolour,beta,,,12,18,V,R,
748,118,34,17,5,36,44,664,['c'],0,right,['8'],3,1035,[0.09924366],68,44,hard,minus,dotcolour,beta,,,12,18,V,R,
749,119,35,17,5,44,36,882,['c'],1,left,['3'],4,320,[0.06205751],55,44,hard,minus,dotcolour,beta,,,12,18,V,R,
750,120,36,17,5,36,44,782,['n'],1,right,['3'],4,445,[-0.09258028],73,44,hard,minus,dotcolour,beta,,,12,18,V,R,
751,121,37,17,5,44,36,565,['c'],1,left,['2'],5,486,[0.18494601],97,44,hard,minus,dotcolour,beta,,,12,18,V,R,
752,122,38,17,5,27,53,582,['n'],1,right,['2'],5,516,[-0.20494898],98,53,easy,minus,dotcolour,beta,,,12,18,V,R,
753,123,39,17,5,47,33,633,['n'],0,left,['3'],4,359,[-0.10676653],82,47,medium,minus,dotcolour,beta,,,12,18,V,R,
754,124,40,17,5,27,53,515,['n'],1,right,['2'],5,357,[-0.01351894],22,53,easy,minus,dotcolour,beta,,,12,18,V,R,
755,125,41,17,5,47,33,682,['c'],1,left,['3'],4,469,[0.28626478],100,47,medium,minus,dotcolour,beta,,,12,18,V,R,
,,,,,,,,,,,,,,,,,,,,,1,bij de tabel met het percentage stond er als tweede iets met fout dus dat was hetzelfde als het voorlaatste,12,18,V,R,
,,,,,,,,,,,,,,,,,,,,,2,['g'],12,18,V,R,
,,,,,,,,,,,,,,,,,,,,,3,['g'],12,18,V,R,
,,,,,,,,,,,,,,,,,,,,,5,"['3', '5', '4']",12,18,V,R,
