trial,withinphasetrial,withinblocktrial,block,phase,dotsLeft,dotsRight,rt,resp,cor,cresp,conf_press,cj,RTconf,ev,fb,diff,difflevel,condition,task,manip,questionID,questionResp,sub,age,gender,handedness,
0,0,0,0,0,36,44,1970,['c'],0,right,['9'],5,1226,[-0.10121673],7,44,hard,minus,dotcolour,beta,,,19,18,V,R,
1,1,1,0,0,47,33,1450,['n'],0,left,['1'],1,1699,[0.13523454],7,47,medium,minus,dotcolour,beta,,,19,18,V,R,
2,2,2,0,0,53,27,1433,['c'],1,left,['9'],5,986,[0.33575406],99,53,easy,minus,dotcolour,beta,,,19,18,V,R,
3,3,3,0,0,53,27,1118,['c'],1,left,['9'],5,290,[0.09923229],81,53,easy,minus,dotcolour,beta,,,19,18,V,R,
4,4,4,0,0,47,33,633,['c'],1,left,['9'],5,332,[0.12334497],89,47,medium,minus,dotcolour,beta,,,19,18,V,R,
5,5,5,0,0,47,33,616,['c'],1,left,['0'],6,444,[-0.02037445],11,47,medium,minus,dotcolour,beta,,,19,18,V,R,
6,6,6,0,0,53,27,916,['n'],0,left,['9'],5,404,[0.07924522],2,53,easy,minus,dotcolour,beta,,,19,18,V,R,
7,7,7,0,0,33,47,934,['c'],0,right,['9'],5,389,[0.04246718],41,47,medium,minus,dotcolour,beta,,,19,18,V,R,
8,8,8,0,0,44,36,750,['c'],1,left,['9'],5,317,[0.08785223],74,44,hard,minus,dotcolour,beta,,,19,18,V,R,
9,9,9,0,0,27,53,700,['c'],0,right,['9'],5,259,[0.0179767],21,53,easy,minus,dotcolour,beta,,,19,18,V,R,
10,10,10,0,0,44,36,1183,['c'],1,left,['0'],6,519,[0.26981873],100,44,hard,minus,dotcolour,beta,,,19,18,V,R,
11,11,11,0,0,47,33,716,['c'],1,left,['0'],6,428,[0.1667062],96,47,medium,minus,dotcolour,beta,,,19,18,V,R,
12,12,12,0,0,36,44,666,['c'],0,right,['0'],6,367,[0.01114476],21,44,hard,minus,dotcolour,beta,,,19,18,V,R,
13,13,13,0,0,44,36,1934,['c'],1,left,['0'],6,577,[0.11926138],82,44,hard,minus,dotcolour,beta,,,19,18,V,R,
14,14,14,0,0,36,44,816,['n'],1,right,['0'],6,615,[-0.02427241],33,44,hard,minus,dotcolour,beta,,,19,18,V,R,
15,15,15,0,0,53,27,699,['c'],1,left,['0'],6,216,[0.12890657],94,53,easy,minus,dotcolour,beta,,,19,18,V,R,
16,16,16,0,0,44,36,1333,['c'],1,left,['0'],6,344,[0.04399227],41,44,hard,minus,dotcolour,beta,,,19,18,V,R,
17,17,17,0,0,27,53,632,['n'],1,right,['0'],6,336,[-0.07360193],64,53,easy,minus,dotcolour,beta,,,19,18,V,R,
18,18,18,0,0,53,27,599,['c'],1,left,['0'],6,249,[0.13430168],94,53,easy,minus,dotcolour,beta,,,19,18,V,R,
19,19,19,0,0,33,47,667,['c'],0,right,['0'],6,252,[0.07732776],69,47,medium,minus,dotcolour,beta,,,19,18,V,R,
20,20,20,0,0,36,44,451,['c'],0,right,['0'],6,478,[0.01211699],24,44,hard,minus,dotcolour,beta,,,19,18,V,R,
21,21,21,0,0,53,27,417,['c'],1,left,['0'],6,353,[0.03063472],32,53,easy,minus,dotcolour,beta,,,19,18,V,R,
22,22,22,0,0,33,47,700,['c'],0,right,['0'],6,310,[0.06144543],55,47,medium,minus,dotcolour,beta,,,19,18,V,R,
23,23,23,0,0,27,53,832,['n'],1,right,['0'],6,287,[-0.0736405],65,53,easy,minus,dotcolour,beta,,,19,18,V,R,
24,24,24,0,0,47,33,583,['c'],1,left,['0'],6,219,[0.08596633],76,47,medium,minus,dotcolour,beta,,,19,18,V,R,
25,25,25,0,0,33,47,733,['n'],1,right,['0'],6,300,[-0.0500081],45,47,medium,minus,dotcolour,beta,,,19,18,V,R,
26,26,26,0,0,27,53,867,['c'],0,right,['1'],1,1187,[0.02384266],37,53,easy,minus,dotcolour,beta,,,19,18,V,R,
27,27,27,0,0,27,53,649,['n'],1,right,['0'],6,376,[-0.18906691],98,53,easy,minus,dotcolour,beta,,,19,18,V,R,
28,28,28,0,0,27,53,1484,['n'],1,right,['0'],6,283,[-0.17697682],98,53,easy,minus,dotcolour,beta,,,19,18,V,R,
29,29,29,0,0,33,47,984,['n'],1,right,['0'],6,287,[-0.13395333],93,47,medium,minus,dotcolour,beta,,,19,18,V,R,
30,30,30,0,0,47,33,1084,['n'],0,left,['0'],6,502,[0.04653823],7,47,medium,minus,dotcolour,beta,,,19,18,V,R,
31,31,31,0,0,44,36,1401,['c'],1,left,['1'],1,417,[0.10869053],81,44,hard,minus,dotcolour,beta,,,19,18,V,R,
32,32,32,0,0,36,44,835,['n'],1,right,['0'],6,325,[-0.11363808],86,44,hard,minus,dotcolour,beta,,,19,18,V,R,
33,33,33,0,0,36,44,783,['n'],1,right,['0'],6,311,[-0.11446445],87,44,hard,minus,dotcolour,beta,,,19,18,V,R,
34,34,34,0,0,36,44,700,['n'],1,right,['0'],6,269,[-0.25065714],100,44,hard,minus,dotcolour,beta,,,19,18,V,R,
35,35,35,0,0,27,53,415,['n'],1,right,['0'],6,256,[-0.17928087],99,53,easy,minus,dotcolour,beta,,,19,18,V,R,
36,36,36,0,0,53,27,1034,['n'],0,left,['0'],6,331,[-0.05588198],50,53,easy,minus,dotcolour,beta,,,19,18,V,R,
37,37,37,0,0,44,36,1067,['c'],1,left,['1'],1,290,[0.14014123],94,44,hard,minus,dotcolour,beta,,,19,18,V,R,
38,38,38,0,0,47,33,766,['n'],0,left,['0'],6,318,[0.04607304],4,47,medium,minus,dotcolour,beta,,,19,18,V,R,
39,39,39,0,0,44,36,1567,['c'],1,left,['1'],1,328,[0.09058928],75,44,hard,minus,dotcolour,beta,,,19,18,V,R,
40,40,40,0,0,33,47,1250,['n'],1,right,['0'],6,1047,[-0.11697517],75,47,medium,minus,dotcolour,beta,,,19,18,V,R,
41,41,41,0,0,33,47,764,['n'],1,right,['0'],6,308,[-0.16911017],98,47,medium,minus,dotcolour,beta,,,19,18,V,R,
42,42,0,1,0,27,53,2436,['n'],1,right,['0'],6,634,[-0.10272158],74,53,easy,minus,dotcolour,beta,,,19,18,V,R,
43,43,1,1,0,44,36,699,['c'],1,left,['0'],6,299,[0.12468815],91,44,hard,minus,dotcolour,beta,,,19,18,V,R,
44,44,2,1,0,44,36,683,['c'],1,left,['0'],6,202,[0.09389344],82,44,hard,minus,dotcolour,beta,,,19,18,V,R,
45,45,3,1,0,27,53,1550,['n'],1,right,['0'],6,314,[-0.15250945],96,53,easy,minus,dotcolour,beta,,,19,18,V,R,
46,46,4,1,0,53,27,1168,['c'],1,left,['1'],1,517,[0.23641713],99,53,easy,minus,dotcolour,beta,,,19,18,V,R,
47,47,5,1,0,47,33,4536,['c'],1,left,['1'],1,638,[0.12392884],82,47,medium,minus,dotcolour,beta,,,19,18,V,R,
48,48,6,1,0,36,44,918,['n'],1,right,['0'],6,253,[-0.03639994],34,44,hard,minus,dotcolour,beta,,,19,18,V,R,
49,49,7,1,0,53,27,916,['c'],1,left,['9'],5,645,[0.26330754],99,53,easy,minus,dotcolour,beta,,,19,18,V,R,
50,50,8,1,0,53,27,1734,['n'],0,left,['0'],6,1052,[0.15428925],2,53,easy,minus,dotcolour,beta,,,19,18,V,R,
51,51,9,1,0,36,44,833,['n'],1,right,['0'],6,333,[0.02678572],7,44,hard,minus,dotcolour,beta,,,19,18,V,R,
52,52,10,1,0,27,53,883,['n'],1,right,['0'],6,291,[-0.14308022],95,53,easy,minus,dotcolour,beta,,,19,18,V,R,
53,53,11,1,0,27,53,1250,['c'],0,right,['0'],6,244,[0.07074501],63,53,easy,minus,dotcolour,beta,,,19,18,V,R,
54,54,12,1,0,36,44,834,['n'],1,right,['0'],6,239,[-0.14859606],97,44,hard,minus,dotcolour,beta,,,19,18,V,R,
55,55,13,1,0,36,44,733,['c'],0,right,['0'],6,214,[0.06047248],55,44,hard,minus,dotcolour,beta,,,19,18,V,R,
56,56,14,1,0,53,27,817,['n'],0,left,['0'],6,259,[-0.09875068],82,53,easy,minus,dotcolour,beta,,,19,18,V,R,
57,57,15,1,0,36,44,667,['c'],0,right,['0'],6,189,[0.09270591],82,44,hard,minus,dotcolour,beta,,,19,18,V,R,
58,58,16,1,0,44,36,585,['c'],1,left,['0'],6,220,[0.08248559],74,44,hard,minus,dotcolour,beta,,,19,18,V,R,
59,59,17,1,0,47,33,949,['n'],0,left,['0'],6,301,[-0.04068445],38,47,medium,minus,dotcolour,beta,,,19,18,V,R,
60,60,18,1,0,47,33,1152,['c'],1,left,['1'],1,353,[0.06473432],57,47,medium,minus,dotcolour,beta,,,19,18,V,R,
61,61,19,1,0,47,33,1052,['c'],1,left,['1'],1,375,[0.15523174],95,47,medium,minus,dotcolour,beta,,,19,18,V,R,
62,62,20,1,0,44,36,649,['c'],1,left,['1'],1,276,[0.08019569],70,44,hard,minus,dotcolour,beta,,,19,18,V,R,
63,63,21,1,0,33,47,1068,['n'],1,right,['0'],6,301,[-0.03969111],37,47,medium,minus,dotcolour,beta,,,19,18,V,R,
64,64,22,1,0,33,47,1001,['c'],0,right,['1'],1,343,[0.03972406],38,47,medium,minus,dotcolour,beta,,,19,18,V,R,
65,65,23,1,0,53,27,884,['c'],1,left,['1'],1,380,[0.16076777],96,53,easy,minus,dotcolour,beta,,,19,18,V,R,
66,66,24,1,0,47,33,682,['c'],1,left,['1'],1,312,[0.11207508],86,47,medium,minus,dotcolour,beta,,,19,18,V,R,
67,67,25,1,0,36,44,618,['c'],0,right,['1'],1,306,[0.07435951],65,44,hard,minus,dotcolour,beta,,,19,18,V,R,
68,68,26,1,0,33,47,383,['c'],0,right,['1'],1,989,[0.05960406],52,47,medium,minus,dotcolour,beta,,,19,18,V,R,
69,69,27,1,0,53,27,766,['c'],1,left,['0'],6,348,[0.06595067],58,53,easy,minus,dotcolour,beta,,,19,18,V,R,
70,70,28,1,0,27,53,1100,['c'],0,right,['1'],1,336,[-0.03144834],6,53,easy,minus,dotcolour,beta,,,19,18,V,R,
71,71,29,1,0,27,53,783,['c'],0,right,['1'],1,410,[0.06032399],53,53,easy,minus,dotcolour,beta,,,19,18,V,R,
72,72,30,1,0,36,44,434,['c'],0,right,['1'],1,287,[0.12471083],91,44,hard,minus,dotcolour,beta,,,19,18,V,R,
73,73,31,1,0,33,47,734,['n'],1,right,['0'],6,253,[-0.1073001],86,47,medium,minus,dotcolour,beta,,,19,18,V,R,
74,74,32,1,0,44,36,833,['c'],1,left,['1'],1,256,[0.0724632],65,44,hard,minus,dotcolour,beta,,,19,18,V,R,
75,75,33,1,0,27,53,1184,['n'],1,right,['0'],6,292,[-0.17140623],98,53,easy,minus,dotcolour,beta,,,19,18,V,R,
76,76,34,1,0,44,36,666,['c'],1,left,['0'],6,197,[0.04252111],37,44,hard,minus,dotcolour,beta,,,19,18,V,R,
77,77,35,1,0,53,27,598,['c'],1,left,['0'],6,179,[0.12809257],96,53,easy,minus,dotcolour,beta,,,19,18,V,R,
78,78,36,1,0,47,33,784,['n'],0,left,['0'],6,212,[-0.07408506],67,47,medium,minus,dotcolour,beta,,,19,18,V,R,
79,79,37,1,0,33,47,617,['n'],1,right,['0'],6,249,[-0.02967278],28,47,medium,minus,dotcolour,beta,,,19,18,V,R,
80,80,38,1,0,47,33,483,['c'],1,left,['0'],6,531,[0.13935502],89,47,medium,minus,dotcolour,beta,,,19,18,V,R,
81,81,39,1,0,33,47,466,['c'],0,right,['0'],6,226,[0.07557225],68,47,medium,minus,dotcolour,beta,,,19,18,V,R,
82,82,40,1,0,33,47,683,['n'],1,right,['0'],6,252,[-0.07668058],68,47,medium,minus,dotcolour,beta,,,19,18,V,R,
83,83,41,1,0,44,36,700,['n'],0,left,['0'],6,324,[0.07704809],1,44,hard,minus,dotcolour,beta,,,19,18,V,R,
84,84,0,2,0,47,33,867,['c'],1,left,['1'],1,264,[0.02578812],26,47,medium,minus,dotcolour,beta,,,19,18,V,R,
85,85,1,2,0,27,53,667,['n'],1,right,['0'],6,290,[-0.10396944],83,53,easy,minus,dotcolour,beta,,,19,18,V,R,
86,86,2,2,0,27,53,348,['c'],0,right,['1'],1,295,[-0.03168226],5,53,easy,minus,dotcolour,beta,,,19,18,V,R,
87,87,3,2,0,44,36,382,['n'],0,left,['0'],6,307,[-0.0262126],28,44,hard,minus,dotcolour,beta,,,19,18,V,R,
88,88,4,2,0,27,53,618,['n'],1,right,['0'],6,228,[-0.07401685],67,53,easy,minus,dotcolour,beta,,,19,18,V,R,
89,89,5,2,0,33,47,300,['c'],0,right,['0'],6,230,[0.02508007],24,47,medium,minus,dotcolour,beta,,,19,18,V,R,
90,90,6,2,0,33,47,867,['n'],1,right,['0'],6,273,[-0.09359263],79,47,medium,minus,dotcolour,beta,,,19,18,V,R,
91,91,7,2,0,44,36,716,['c'],1,left,['1'],1,335,[0.07173395],62,44,hard,minus,dotcolour,beta,,,19,18,V,R,
92,92,8,2,0,44,36,800,['c'],1,left,['1'],1,289,[0.13754321],94,44,hard,minus,dotcolour,beta,,,19,18,V,R,
93,93,9,2,0,33,47,983,['n'],1,right,['9'],5,757,[-0.01478023],30,47,medium,minus,dotcolour,beta,,,19,18,V,R,
94,94,10,2,0,27,53,716,['n'],1,right,['0'],6,368,[-0.14626083],94,53,easy,minus,dotcolour,beta,,,19,18,V,R,
95,95,11,2,0,44,36,431,['n'],0,left,['1'],1,959,[-0.23215214],96,44,hard,minus,dotcolour,beta,,,19,18,V,R,
96,96,12,2,0,33,47,833,['n'],1,right,['1'],1,749,[-0.1530118],88,47,medium,minus,dotcolour,beta,,,19,18,V,R,
97,97,13,2,0,36,44,667,['n'],1,right,['0'],6,258,[-0.0997571],83,44,hard,minus,dotcolour,beta,,,19,18,V,R,
98,98,14,2,0,53,27,582,['n'],0,left,['9'],5,247,[0.05722514],2,53,easy,minus,dotcolour,beta,,,19,18,V,R,
99,99,15,2,0,27,53,351,['c'],0,right,['1'],1,958,[-0.1484478],2,53,easy,minus,dotcolour,beta,,,19,18,V,R,
100,100,16,2,0,53,27,1734,['n'],0,left,['9'],5,215,[-0.01651805],18,53,easy,minus,dotcolour,beta,,,19,18,V,R,
101,101,17,2,0,53,27,852,['n'],0,left,['9'],5,228,[-0.0134136],17,53,easy,minus,dotcolour,beta,,,19,18,V,R,
102,102,18,2,0,33,47,600,['c'],0,right,['9'],5,337,[-0.00037627],15,47,medium,minus,dotcolour,beta,,,19,18,V,R,
103,103,19,2,0,44,36,599,['n'],0,left,['9'],5,274,[-0.0418268],38,44,hard,minus,dotcolour,beta,,,19,18,V,R,
104,104,20,2,0,44,36,716,['c'],1,left,['1'],1,273,[0.11642014],89,44,hard,minus,dotcolour,beta,,,19,18,V,R,
105,105,21,2,0,47,33,1167,['n'],0,left,['0'],6,590,[0.10332725],2,47,medium,minus,dotcolour,beta,,,19,18,V,R,
106,106,22,2,0,36,44,1468,['n'],1,right,['0'],6,328,[-0.07503512],65,44,hard,minus,dotcolour,beta,,,19,18,V,R,
107,107,23,2,0,33,47,566,['n'],1,right,['0'],6,251,[-0.13902588],95,47,medium,minus,dotcolour,beta,,,19,18,V,R,
108,108,24,2,0,53,27,298,['n'],0,left,['1'],1,805,[0.16907494],1,53,easy,minus,dotcolour,beta,,,19,18,V,R,
109,109,25,2,0,27,53,768,['n'],1,right,['0'],6,267,[-0.05249271],47,53,easy,minus,dotcolour,beta,,,19,18,V,R,
110,110,26,2,0,36,44,584,['n'],1,right,['0'],6,280,[-0.09882703],81,44,hard,minus,dotcolour,beta,,,19,18,V,R,
111,111,27,2,0,47,33,599,['n'],0,left,['0'],6,539,[-0.07874117],64,47,medium,minus,dotcolour,beta,,,19,18,V,R,
112,112,28,2,0,36,44,801,['n'],1,right,['0'],6,244,[-0.12263766],92,44,hard,minus,dotcolour,beta,,,19,18,V,R,
113,113,29,2,0,47,33,400,['n'],0,left,['0'],6,273,[0.05636062],2,47,medium,minus,dotcolour,beta,,,19,18,V,R,
114,114,30,2,0,36,44,167,['c'],0,right,['1'],1,237,[0.08060176],72,44,hard,minus,dotcolour,beta,,,19,18,V,R,
115,115,31,2,0,53,27,784,['c'],1,left,['2'],2,1003,[0.23083932],96,53,easy,minus,dotcolour,beta,,,19,18,V,R,
116,116,32,2,0,44,36,667,['c'],1,left,['2'],2,494,[0.03306546],36,44,hard,minus,dotcolour,beta,,,19,18,V,R,
117,117,33,2,0,47,33,814,['c'],1,left,['3'],3,791,[0.17554871],92,47,medium,minus,dotcolour,beta,,,19,18,V,R,
118,118,34,2,0,36,44,684,['c'],0,right,['3'],3,362,[0.08376514],70,44,hard,minus,dotcolour,beta,,,19,18,V,R,
119,119,35,2,0,47,33,315,['c'],1,left,['3'],3,334,[0.10239201],81,47,medium,minus,dotcolour,beta,,,19,18,V,R,
120,120,36,2,0,53,27,382,['c'],1,left,['1'],1,704,[0.04452733],44,53,easy,minus,dotcolour,beta,,,19,18,V,R,
121,121,37,2,0,47,33,299,['c'],1,left,['9'],5,327,[0.12008873],88,47,medium,minus,dotcolour,beta,,,19,18,V,R,
122,122,38,2,0,27,53,734,['c'],0,right,['0'],6,307,[-0.04809702],3,53,easy,minus,dotcolour,beta,,,19,18,V,R,
123,123,39,2,0,33,47,835,['c'],0,right,['1'],1,315,[0.15716734],96,47,medium,minus,dotcolour,beta,,,19,18,V,R,
124,124,40,2,0,53,27,600,['c'],1,left,['1'],1,301,[0.1151019],88,53,easy,minus,dotcolour,beta,,,19,18,V,R,
125,125,41,2,0,36,44,583,['c'],0,right,['1'],1,353,[0.01351546],22,44,hard,minus,dotcolour,beta,,,19,18,V,R,
126,0,0,3,1,36,44,718,['c'],0,right,['1'],1,284,[0.03281269],95,44,hard,plus,dotcolour,beta,,,19,18,V,R,
127,1,1,3,1,53,27,300,['c'],1,left,['1'],1,323,[0.22063991],100,53,easy,plus,dotcolour,beta,,,19,18,V,R,
128,2,2,3,1,47,33,399,['c'],1,left,['1'],1,326,[0.08611057],99,47,medium,plus,dotcolour,beta,,,19,18,V,R,
129,3,3,3,1,27,53,265,['c'],0,right,['1'],1,373,[0.06704976],97,53,easy,plus,dotcolour,beta,,,19,18,V,R,
130,4,4,3,1,47,33,433,['n'],0,left,['0'],6,292,[-0.02826918],94,47,medium,plus,dotcolour,beta,,,19,18,V,R,
131,5,5,3,1,53,27,301,['n'],0,left,['0'],6,227,[-0.044334],98,53,easy,plus,dotcolour,beta,,,19,18,V,R,
132,6,6,3,1,44,36,283,['n'],0,left,['0'],6,246,[-0.03544953],96,44,hard,plus,dotcolour,beta,,,19,18,V,R,
133,7,7,3,1,36,44,316,['n'],1,right,['0'],6,271,[-0.12598136],100,44,hard,plus,dotcolour,beta,,,19,18,V,R,
134,8,8,3,1,27,53,216,['n'],1,right,['0'],6,186,[-0.08711603],100,53,easy,plus,dotcolour,beta,,,19,18,V,R,
135,9,9,3,1,44,36,283,['n'],0,left,['0'],6,215,[-0.07519046],99,44,hard,plus,dotcolour,beta,,,19,18,V,R,
136,10,10,3,1,53,27,418,['c'],1,left,['0'],6,228,[0.20671321],100,53,easy,plus,dotcolour,beta,,,19,18,V,R,
137,11,11,3,1,27,53,484,['n'],1,right,['0'],6,231,[-0.12465231],100,53,easy,plus,dotcolour,beta,,,19,18,V,R,
138,12,12,3,1,53,27,800,['c'],1,left,['0'],6,140,[0.09651737],100,53,easy,plus,dotcolour,beta,,,19,18,V,R,
139,13,13,3,1,36,44,567,['c'],0,right,['0'],6,160,[0.05956025],99,44,hard,plus,dotcolour,beta,,,19,18,V,R,
140,14,14,3,1,47,33,400,['n'],0,left,['0'],6,264,[-0.03619973],96,47,medium,plus,dotcolour,beta,,,19,18,V,R,
141,15,15,3,1,47,33,434,['c'],1,left,['0'],6,267,[0.13185169],100,47,medium,plus,dotcolour,beta,,,19,18,V,R,
142,16,16,3,1,47,33,416,['c'],1,left,['0'],6,223,[0.19895875],100,47,medium,plus,dotcolour,beta,,,19,18,V,R,
143,17,17,3,1,36,44,600,['c'],0,right,['0'],6,180,[0.07336847],100,44,hard,plus,dotcolour,beta,,,19,18,V,R,
144,18,18,3,1,47,33,435,['c'],1,left,['0'],6,251,[0.03222611],96,47,medium,plus,dotcolour,beta,,,19,18,V,R,
145,19,19,3,1,33,47,432,['c'],0,right,['0'],6,215,[0.06692374],99,47,medium,plus,dotcolour,beta,,,19,18,V,R,
146,20,20,3,1,44,36,283,['c'],1,left,['0'],6,290,[0.00902603],90,44,hard,plus,dotcolour,beta,,,19,18,V,R,
147,21,21,3,1,27,53,448,['n'],1,right,['0'],6,283,[-0.06034377],98,53,easy,plus,dotcolour,beta,,,19,18,V,R,
148,22,22,3,1,33,47,600,['c'],0,right,['0'],6,166,[-0.00161341],92,47,medium,plus,dotcolour,beta,,,19,18,V,R,
149,23,23,3,1,44,36,401,['n'],0,left,['0'],6,311,[-0.06835728],98,44,hard,plus,dotcolour,beta,,,19,18,V,R,
150,24,24,3,1,33,47,300,['n'],1,right,['0'],6,310,[-0.16053893],100,47,medium,plus,dotcolour,beta,,,19,18,V,R,
151,25,25,3,1,27,53,349,['n'],1,right,['0'],6,226,[-0.09248579],100,53,easy,plus,dotcolour,beta,,,19,18,V,R,
152,26,26,3,1,33,47,433,['n'],1,right,['0'],6,366,[-0.09504392],99,47,medium,plus,dotcolour,beta,,,19,18,V,R,
153,27,27,3,1,36,44,283,['n'],1,right,['0'],6,260,[-0.13468359],100,44,hard,plus,dotcolour,beta,,,19,18,V,R,
154,28,28,3,1,53,27,282,['n'],0,left,['0'],6,205,[-0.03834167],98,53,easy,plus,dotcolour,beta,,,19,18,V,R,
155,29,29,3,1,44,36,349,['n'],0,left,['0'],6,238,[-0.03622589],97,44,hard,plus,dotcolour,beta,,,19,18,V,R,
156,30,30,3,1,36,44,194,['n'],1,right,['0'],6,259,[-0.06828386],99,44,hard,plus,dotcolour,beta,,,19,18,V,R,
157,31,31,3,1,36,44,315,['n'],1,right,['0'],6,267,[-0.14591679],100,44,hard,plus,dotcolour,beta,,,19,18,V,R,
158,32,32,3,1,27,53,283,['n'],1,right,['0'],6,300,[-0.13095625],100,53,easy,plus,dotcolour,beta,,,19,18,V,R,
159,33,33,3,1,47,33,448,['c'],1,left,['0'],6,181,[0.14494034],100,47,medium,plus,dotcolour,beta,,,19,18,V,R,
160,34,34,3,1,33,47,266,['n'],1,right,['0'],6,259,[-0.03313372],96,47,medium,plus,dotcolour,beta,,,19,18,V,R,
161,35,35,3,1,44,36,81,['c'],1,left,['0'],6,151,[0.11678215],100,44,hard,plus,dotcolour,beta,,,19,18,V,R,
162,36,36,3,1,53,27,332,['c'],1,left,['0'],6,171,[0.0978087],100,53,easy,plus,dotcolour,beta,,,19,18,V,R,
163,37,37,3,1,33,47,367,['c'],0,right,['1'],1,861,[-0.01784999],68,47,medium,plus,dotcolour,beta,,,19,18,V,R,
164,38,38,3,1,33,47,283,['c'],0,right,['0'],6,278,[0.17640173],100,47,medium,plus,dotcolour,beta,,,19,18,V,R,
165,39,39,3,1,27,53,350,['n'],1,right,['0'],6,340,[-0.10096085],99,53,easy,plus,dotcolour,beta,,,19,18,V,R,
166,40,40,3,1,44,36,333,['n'],0,left,['0'],6,311,[-0.03515948],95,44,hard,plus,dotcolour,beta,,,19,18,V,R,
167,41,41,3,1,53,27,283,['n'],0,left,['0'],6,255,[-0.06035325],98,53,easy,plus,dotcolour,beta,,,19,18,V,R,
168,42,0,4,1,53,27,802,['c'],1,left,['0'],6,228,[0.09115192],100,53,easy,plus,dotcolour,beta,,,19,18,V,R,
169,43,1,4,1,47,33,417,['c'],1,left,['0'],6,225,[0.07067238],99,47,medium,plus,dotcolour,beta,,,19,18,V,R,
170,44,2,4,1,44,36,282,['c'],1,left,['0'],6,307,[0.08056538],99,44,hard,plus,dotcolour,beta,,,19,18,V,R,
171,45,3,4,1,36,44,250,['c'],0,right,['0'],6,244,[0.04481956],97,44,hard,plus,dotcolour,beta,,,19,18,V,R,
172,46,4,4,1,47,33,284,['c'],1,left,['0'],6,246,[0.10018932],100,47,medium,plus,dotcolour,beta,,,19,18,V,R,
173,47,5,4,1,33,47,299,['c'],0,right,['0'],6,272,[-0.03353393],68,47,medium,plus,dotcolour,beta,,,19,18,V,R,
174,48,6,4,1,36,44,249,['n'],1,right,['0'],6,282,[-0.0293934],95,44,hard,plus,dotcolour,beta,,,19,18,V,R,
175,49,7,4,1,53,27,268,['n'],0,left,['1'],1,875,[0.01762636],67,53,easy,plus,dotcolour,beta,,,19,18,V,R,
176,50,8,4,1,27,53,251,['c'],0,right,['0'],6,244,[-0.02040989],78,53,easy,plus,dotcolour,beta,,,19,18,V,R,
177,51,9,4,1,27,53,1516,['n'],1,right,['0'],6,219,[-0.06194061],99,53,easy,plus,dotcolour,beta,,,19,18,V,R,
178,52,10,4,1,27,53,565,['n'],1,right,['0'],6,202,[-0.1275438],100,53,easy,plus,dotcolour,beta,,,19,18,V,R,
179,53,11,4,1,33,47,301,['n'],1,right,['0'],6,205,[-0.13498824],100,47,medium,plus,dotcolour,beta,,,19,18,V,R,
180,54,12,4,1,36,44,248,['n'],1,right,['0'],6,210,[-0.0819736],100,44,hard,plus,dotcolour,beta,,,19,18,V,R,
181,55,13,4,1,47,33,682,['c'],1,left,['0'],6,189,[0.10165659],100,47,medium,plus,dotcolour,beta,,,19,18,V,R,
182,56,14,4,1,53,27,382,['c'],1,left,['0'],6,230,[0.15349761],100,53,easy,plus,dotcolour,beta,,,19,18,V,R,
183,57,15,4,1,36,44,299,['c'],0,right,['0'],6,231,[0.1214235],100,44,hard,plus,dotcolour,beta,,,19,18,V,R,
184,58,16,4,1,36,44,284,['c'],0,right,['0'],6,322,[0.07322308],98,44,hard,plus,dotcolour,beta,,,19,18,V,R,
185,59,17,4,1,27,53,518,['c'],0,right,['1'],1,640,[-0.05912407],48,53,easy,plus,dotcolour,beta,,,19,18,V,R,
186,60,18,4,1,44,36,633,['c'],1,left,['0'],6,339,[0.06634684],98,44,hard,plus,dotcolour,beta,,,19,18,V,R,
187,61,19,4,1,27,53,618,['n'],1,right,['0'],6,252,[-0.16351438],100,53,easy,plus,dotcolour,beta,,,19,18,V,R,
188,62,20,4,1,44,36,350,['n'],0,left,['1'],1,611,[-0.00469878],80,44,hard,plus,dotcolour,beta,,,19,18,V,R,
189,63,21,4,1,33,47,766,['c'],0,right,['1'],1,306,[0.06968651],98,47,medium,plus,dotcolour,beta,,,19,18,V,R,
190,64,22,4,1,33,47,415,['n'],1,right,['0'],6,260,[-0.10019327],100,47,medium,plus,dotcolour,beta,,,19,18,V,R,
191,65,23,4,1,47,33,400,['n'],0,left,['1'],1,393,[-0.0408599],94,47,medium,plus,dotcolour,beta,,,19,18,V,R,
192,66,24,4,1,33,47,1000,['n'],1,right,['0'],6,159,[-0.12200378],100,47,medium,plus,dotcolour,beta,,,19,18,V,R,
193,67,25,4,1,44,36,382,['n'],0,left,['0'],6,240,[-0.03593737],97,44,hard,plus,dotcolour,beta,,,19,18,V,R,
194,68,26,4,1,33,47,280,['n'],1,right,['0'],6,290,[-0.22291464],100,47,medium,plus,dotcolour,beta,,,19,18,V,R,
195,69,27,4,1,33,47,316,['n'],1,right,['0'],6,201,[-0.10471691],100,47,medium,plus,dotcolour,beta,,,19,18,V,R,
196,70,28,4,1,27,53,433,['n'],1,right,['0'],6,319,[-0.19165707],100,53,easy,plus,dotcolour,beta,,,19,18,V,R,
197,71,29,4,1,36,44,350,['n'],1,right,['0'],6,275,[-0.11057777],100,44,hard,plus,dotcolour,beta,,,19,18,V,R,
198,72,30,4,1,53,27,135,['n'],0,left,['0'],6,183,[-0.1040466],100,53,easy,plus,dotcolour,beta,,,19,18,V,R,
199,73,31,4,1,44,36,400,['n'],0,left,['0'],6,263,[-0.00116678],88,44,hard,plus,dotcolour,beta,,,19,18,V,R,
200,74,32,4,1,53,27,733,['n'],0,left,['0'],6,222,[-0.027135],96,53,easy,plus,dotcolour,beta,,,19,18,V,R,
201,75,33,4,1,44,36,299,['n'],0,left,['9'],5,256,[0.03294304],69,44,hard,plus,dotcolour,beta,,,19,18,V,R,
202,76,34,4,1,27,53,701,['c'],0,right,['0'],6,161,[0.02228733],97,53,easy,plus,dotcolour,beta,,,19,18,V,R,
203,77,35,4,1,47,33,432,['c'],1,left,['0'],6,168,[0.15405155],100,47,medium,plus,dotcolour,beta,,,19,18,V,R,
204,78,36,4,1,36,44,384,['c'],0,right,['0'],6,170,[0.05104877],99,44,hard,plus,dotcolour,beta,,,19,18,V,R,
205,79,37,4,1,53,27,400,['c'],1,left,['0'],6,178,[0.10866977],100,53,easy,plus,dotcolour,beta,,,19,18,V,R,
206,80,38,4,1,47,33,316,['c'],1,left,['0'],6,350,[0.01463486],89,47,medium,plus,dotcolour,beta,,,19,18,V,R,
207,81,39,4,1,53,27,348,['c'],1,left,['0'],6,248,[0.08764118],99,53,easy,plus,dotcolour,beta,,,19,18,V,R,
208,82,40,4,1,47,33,382,['c'],1,left,['0'],6,190,[0.16214773],100,47,medium,plus,dotcolour,beta,,,19,18,V,R,
209,83,41,4,1,44,36,282,['c'],1,left,['0'],6,243,[0.01087096],92,44,hard,plus,dotcolour,beta,,,19,18,V,R,
210,84,0,5,1,33,47,1117,['n'],1,right,['0'],6,226,[0.07826343],30,47,medium,plus,dotcolour,beta,,,19,18,V,R,
211,85,1,5,1,47,33,382,['n'],0,left,['0'],6,248,[-0.05170236],98,47,medium,plus,dotcolour,beta,,,19,18,V,R,
212,86,2,5,1,47,33,400,['n'],0,left,['0'],6,261,[-0.0060127],90,47,medium,plus,dotcolour,beta,,,19,18,V,R,
213,87,3,5,1,27,53,733,['n'],1,right,['0'],6,363,[-0.14588163],100,53,easy,plus,dotcolour,beta,,,19,18,V,R,
214,88,4,5,1,36,44,333,['n'],1,right,['0'],6,143,[-0.06259079],100,44,hard,plus,dotcolour,beta,,,19,18,V,R,
215,89,5,5,1,36,44,64,['n'],1,right,['0'],6,144,[-0.07265903],100,44,hard,plus,dotcolour,beta,,,19,18,V,R,
216,90,6,5,1,53,27,299,['n'],0,left,['0'],6,166,[-0.07740088],100,53,easy,plus,dotcolour,beta,,,19,18,V,R,
217,91,7,5,1,44,36,214,['n'],0,left,['0'],6,214,[-0.12327466],100,44,hard,plus,dotcolour,beta,,,19,18,V,R,
218,92,8,5,1,27,53,282,['n'],1,right,['0'],6,225,[-0.08207438],99,53,easy,plus,dotcolour,beta,,,19,18,V,R,
219,93,9,5,1,27,53,283,['n'],1,right,['0'],6,260,[-0.12708009],100,53,easy,plus,dotcolour,beta,,,19,18,V,R,
220,94,10,5,1,53,27,283,['n'],0,left,['0'],6,245,[0.00566028],86,53,easy,plus,dotcolour,beta,,,19,18,V,R,
221,95,11,5,1,53,27,265,['n'],0,left,['0'],6,239,[-0.13012423],100,53,easy,plus,dotcolour,beta,,,19,18,V,R,
222,96,12,5,1,33,47,215,['n'],1,right,['0'],6,213,[-0.08078106],100,47,medium,plus,dotcolour,beta,,,19,18,V,R,
223,97,13,5,1,53,27,283,['n'],0,left,['0'],6,191,[-0.0069141],93,53,easy,plus,dotcolour,beta,,,19,18,V,R,
224,98,14,5,1,47,33,267,['n'],0,left,['0'],6,292,[-0.05185776],97,47,medium,plus,dotcolour,beta,,,19,18,V,R,
225,99,15,5,1,44,36,382,['n'],0,left,['0'],6,240,[-0.07897415],99,44,hard,plus,dotcolour,beta,,,19,18,V,R,
226,100,16,5,1,47,33,198,['n'],0,left,['0'],6,165,[-0.0512133],99,47,medium,plus,dotcolour,beta,,,19,18,V,R,
227,101,17,5,1,53,27,569,['n'],0,left,['0'],6,903,[-0.05952689],90,53,easy,plus,dotcolour,beta,,,19,18,V,R,
228,102,18,5,1,27,53,316,['n'],1,right,['0'],6,196,[-0.03741244],98,53,easy,plus,dotcolour,beta,,,19,18,V,R,
229,103,19,5,1,33,47,266,['n'],1,right,['0'],6,201,[0.00257287],89,47,medium,plus,dotcolour,beta,,,19,18,V,R,
230,104,20,5,1,44,36,334,['n'],0,left,['0'],6,219,[-0.05021533],98,44,hard,plus,dotcolour,beta,,,19,18,V,R,
231,105,21,5,1,36,44,300,['n'],1,right,['0'],6,349,[-0.12113362],100,44,hard,plus,dotcolour,beta,,,19,18,V,R,
232,106,22,5,1,36,44,381,['n'],1,right,['0'],6,255,[-0.03354716],96,44,hard,plus,dotcolour,beta,,,19,18,V,R,
233,107,23,5,1,36,44,335,['n'],1,right,['0'],6,158,[-0.04914623],99,44,hard,plus,dotcolour,beta,,,19,18,V,R,
234,108,24,5,1,27,53,366,['n'],1,right,['0'],6,192,[-0.1216117],100,53,easy,plus,dotcolour,beta,,,19,18,V,R,
235,109,25,5,1,27,53,331,['n'],1,right,['0'],6,226,[-0.10794988],100,53,easy,plus,dotcolour,beta,,,19,18,V,R,
236,110,26,5,1,53,27,433,['n'],0,left,['0'],6,198,[-0.128047],100,53,easy,plus,dotcolour,beta,,,19,18,V,R,
237,111,27,5,1,27,53,251,['n'],1,right,['0'],6,212,[-0.10850051],100,53,easy,plus,dotcolour,beta,,,19,18,V,R,
238,112,28,5,1,36,44,132,['n'],1,right,['0'],6,114,[-0.14963255],100,44,hard,plus,dotcolour,beta,,,19,18,V,R,
239,113,29,5,1,44,36,332,['n'],0,left,['0'],6,224,[-0.03796844],97,44,hard,plus,dotcolour,beta,,,19,18,V,R,
240,114,30,5,1,44,36,249,['n'],0,left,['0'],6,244,[-0.0742804],99,44,hard,plus,dotcolour,beta,,,19,18,V,R,
241,115,31,5,1,33,47,333,['n'],1,right,['0'],6,291,[-0.0906005],99,47,medium,plus,dotcolour,beta,,,19,18,V,R,
242,116,32,5,1,47,33,417,['n'],0,left,['0'],6,278,[0.05240049],53,47,medium,plus,dotcolour,beta,,,19,18,V,R,
243,117,33,5,1,47,33,365,['n'],0,left,['0'],6,243,[-0.00206041],89,47,medium,plus,dotcolour,beta,,,19,18,V,R,
244,118,34,5,1,47,33,633,['n'],0,left,['0'],6,223,[0.0225408],78,47,medium,plus,dotcolour,beta,,,19,18,V,R,
245,119,35,5,1,36,44,449,['n'],1,right,['1'],1,235,[-0.07717187],99,44,hard,plus,dotcolour,beta,,,19,18,V,R,
246,120,36,5,1,44,36,298,['n'],0,left,['0'],6,253,[-0.079842],99,44,hard,plus,dotcolour,beta,,,19,18,V,R,
247,121,37,5,1,33,47,332,['n'],1,right,['0'],6,323,[-0.089352],99,47,medium,plus,dotcolour,beta,,,19,18,V,R,
248,122,38,5,1,33,47,1065,['n'],1,right,['0'],6,250,[0.01880904],79,47,medium,plus,dotcolour,beta,,,19,18,V,R,
249,123,39,5,1,53,27,399,['n'],0,left,['0'],6,199,[0.04179178],64,53,easy,plus,dotcolour,beta,,,19,18,V,R,
250,124,40,5,1,44,36,299,['n'],0,left,['0'],6,242,[-0.12297514],100,44,hard,plus,dotcolour,beta,,,19,18,V,R,
251,125,41,5,1,33,47,185,['n'],1,right,['0'],6,352,[-0.17364724],100,47,medium,plus,dotcolour,beta,,,19,18,V,R,
252,0,0,6,2,44,36,1536,['n'],0,left,['0'],6,416,[-0.10251519],79,44,hard,minus,dotcolour,beta,,,19,18,V,R,
253,1,1,6,2,53,27,1283,['n'],0,left,['0'],6,146,[-0.10345533],91,53,easy,minus,dotcolour,beta,,,19,18,V,R,
254,2,2,6,2,53,27,300,['n'],0,left,['0'],6,143,[-0.10025194],89,53,easy,minus,dotcolour,beta,,,19,18,V,R,
255,3,3,6,2,44,36,215,['n'],0,left,['0'],6,135,[-0.06546248],62,44,hard,minus,dotcolour,beta,,,19,18,V,R,
256,4,4,6,2,36,44,56,['n'],1,right,['0'],6,17,[-0.07961809],97,44,hard,minus,dotcolour,beta,,,19,18,V,R,
257,5,5,6,2,33,47,41,['n'],1,right,['0'],6,17,[-0.06621423],81,47,medium,minus,dotcolour,beta,,,19,18,V,R,
258,6,6,6,2,53,27,48,['n'],0,left,['0'],6,31,[-0.06515762],73,53,easy,minus,dotcolour,beta,,,19,18,V,R,
259,7,7,6,2,47,33,283,['n'],0,left,['0'],6,138,[-0.02715514],20,47,medium,minus,dotcolour,beta,,,19,18,V,R,
260,8,8,6,2,47,33,195,['n'],0,left,['0'],6,163,[-0.10484575],90,47,medium,minus,dotcolour,beta,,,19,18,V,R,
261,9,9,6,2,47,33,1800,['n'],0,left,['0'],6,155,[0.00852233],5,47,medium,minus,dotcolour,beta,,,19,18,V,R,
262,10,10,6,2,33,47,432,['n'],1,right,['0'],6,242,[-0.02446392],24,47,medium,minus,dotcolour,beta,,,19,18,V,R,
263,11,11,6,2,27,53,300,['n'],1,right,['0'],6,220,[-0.13882563],96,53,easy,minus,dotcolour,beta,,,19,18,V,R,
264,12,12,6,2,36,44,481,['n'],1,right,['0'],6,215,[-0.04664687],41,44,hard,minus,dotcolour,beta,,,19,18,V,R,
265,13,13,6,2,27,53,767,['c'],0,right,['0'],6,510,[0.03372092],37,53,easy,minus,dotcolour,beta,,,19,18,V,R,
266,14,14,6,2,44,36,583,['n'],0,left,['0'],6,961,[0.04488614],14,44,hard,minus,dotcolour,beta,,,19,18,V,R,
267,15,15,6,2,33,47,332,['n'],1,right,['0'],6,203,[-0.09160448],81,47,medium,minus,dotcolour,beta,,,19,18,V,R,
268,16,16,6,2,33,47,299,['c'],0,right,['0'],6,230,[0.08897396],78,47,medium,minus,dotcolour,beta,,,19,18,V,R,
269,17,17,6,2,47,33,249,['n'],0,left,['0'],6,226,[-0.01659171],19,47,medium,minus,dotcolour,beta,,,19,18,V,R,
270,18,18,6,2,27,53,517,['n'],1,right,['0'],6,179,[-0.08205959],76,53,easy,minus,dotcolour,beta,,,19,18,V,R,
271,19,19,6,2,36,44,616,['n'],1,right,['0'],6,178,[-0.10435916],89,44,hard,minus,dotcolour,beta,,,19,18,V,R,
272,20,20,6,2,27,53,515,['n'],1,right,['0'],6,213,[-0.06997292],64,53,easy,minus,dotcolour,beta,,,19,18,V,R,
273,21,21,6,2,33,47,399,['n'],1,right,['0'],6,180,[-0.11356184],92,47,medium,minus,dotcolour,beta,,,19,18,V,R,
274,22,22,6,2,47,33,348,['n'],0,left,['0'],6,262,[-0.0111602],17,47,medium,minus,dotcolour,beta,,,19,18,V,R,
275,23,23,6,2,53,27,465,['n'],0,left,['0'],6,159,[0.00500674],6,53,easy,minus,dotcolour,beta,,,19,18,V,R,
276,24,24,6,2,27,53,600,['n'],1,right,['0'],6,136,[-0.1251059],97,53,easy,minus,dotcolour,beta,,,19,18,V,R,
277,25,25,6,2,36,44,216,['n'],1,right,['0'],6,177,[-0.1131916],92,44,hard,minus,dotcolour,beta,,,19,18,V,R,
278,26,26,6,2,44,36,567,['n'],0,left,['0'],6,225,[0.00413032],9,44,hard,minus,dotcolour,beta,,,19,18,V,R,
279,27,27,6,2,53,27,1200,['n'],0,left,['0'],6,2063,[0.21911546],3,53,easy,minus,dotcolour,beta,,,19,18,V,R,
280,28,28,6,2,33,47,367,['n'],1,right,['0'],6,162,[-0.08224669],77,47,medium,minus,dotcolour,beta,,,19,18,V,R,
281,29,29,6,2,36,44,382,['n'],1,right,['0'],6,139,[-0.15030398],99,44,hard,minus,dotcolour,beta,,,19,18,V,R,
282,30,30,6,2,44,36,417,['n'],0,left,['0'],6,133,[-0.06854652],66,44,hard,minus,dotcolour,beta,,,19,18,V,R,
283,31,31,6,2,47,33,248,['n'],0,left,['0'],6,180,[-0.12430595],95,47,medium,minus,dotcolour,beta,,,19,18,V,R,
284,32,32,6,2,53,27,68,['n'],0,left,['0'],6,84,[-0.0587095],55,53,easy,minus,dotcolour,beta,,,19,18,V,R,
285,33,33,6,2,53,27,282,['n'],0,left,['0'],6,205,[-0.07140911],65,53,easy,minus,dotcolour,beta,,,19,18,V,R,
286,34,34,6,2,36,44,266,['n'],1,right,['0'],6,201,[-0.12216837],94,44,hard,minus,dotcolour,beta,,,19,18,V,R,
287,35,35,6,2,44,36,1518,['n'],0,left,['0'],6,682,[-0.18392477],94,44,hard,minus,dotcolour,beta,,,19,18,V,R,
288,36,36,6,2,47,33,350,['n'],0,left,['0'],6,223,[-0.09452484],82,47,medium,minus,dotcolour,beta,,,19,18,V,R,
289,37,37,6,2,27,53,265,['n'],1,right,['0'],6,171,[-0.0778483],73,53,easy,minus,dotcolour,beta,,,19,18,V,R,
290,38,38,6,2,27,53,173,['n'],1,right,['0'],6,259,[-0.04251567],39,53,easy,minus,dotcolour,beta,,,19,18,V,R,
291,39,39,6,2,36,44,217,['n'],1,right,['0'],6,127,[-0.11004349],94,44,hard,minus,dotcolour,beta,,,19,18,V,R,
292,40,40,6,2,33,47,283,['n'],1,right,['0'],6,134,[-0.16233399],99,47,medium,minus,dotcolour,beta,,,19,18,V,R,
293,41,41,6,2,44,36,415,['n'],0,left,['0'],6,199,[0.01385059],6,44,hard,minus,dotcolour,beta,,,19,18,V,R,
294,42,0,7,2,44,36,1634,['n'],0,left,['0'],6,739,[-0.06622806],56,44,hard,minus,dotcolour,beta,,,19,18,V,R,
295,43,1,7,2,36,44,299,['n'],1,right,['0'],6,167,[-0.05879642],54,44,hard,minus,dotcolour,beta,,,19,18,V,R,
296,44,2,7,2,47,33,266,['n'],0,left,['0'],6,213,[0.03363705],3,47,medium,minus,dotcolour,beta,,,19,18,V,R,
297,45,3,7,2,47,33,349,['n'],0,left,['0'],6,325,[0.05424171],3,47,medium,minus,dotcolour,beta,,,19,18,V,R,
298,46,4,7,2,33,47,233,['n'],1,right,['0'],6,214,[-0.06867213],62,47,medium,minus,dotcolour,beta,,,19,18,V,R,
299,47,5,7,2,27,53,195,['n'],1,right,['0'],6,308,[-0.10707262],84,53,easy,minus,dotcolour,beta,,,19,18,V,R,
300,48,6,7,2,53,27,283,['n'],0,left,['0'],6,324,[-0.04541198],42,53,easy,minus,dotcolour,beta,,,19,18,V,R,
301,49,7,7,2,27,53,250,['n'],1,right,['0'],6,596,[0.03339148],11,53,easy,minus,dotcolour,beta,,,19,18,V,R,
302,50,8,7,2,53,27,732,['n'],0,left,['0'],6,813,[0.01794945],19,53,easy,minus,dotcolour,beta,,,19,18,V,R,
303,51,9,7,2,33,47,250,['n'],1,right,['0'],6,217,[-0.08625642],77,47,medium,minus,dotcolour,beta,,,19,18,V,R,
304,52,10,7,2,44,36,384,['n'],0,left,['0'],6,272,[0.01757141],7,44,hard,minus,dotcolour,beta,,,19,18,V,R,
305,53,11,7,2,44,36,350,['n'],0,left,['0'],6,87,[-0.10313227],95,44,hard,minus,dotcolour,beta,,,19,18,V,R,
306,54,12,7,2,53,27,1099,['n'],0,left,['0'],6,206,[-0.08724501],78,53,easy,minus,dotcolour,beta,,,19,18,V,R,
307,55,13,7,2,53,27,351,['n'],0,left,['0'],6,183,[-0.06681615],62,53,easy,minus,dotcolour,beta,,,19,18,V,R,
308,56,14,7,2,47,33,384,['n'],0,left,['0'],6,255,[-0.08618015],75,47,medium,minus,dotcolour,beta,,,19,18,V,R,
309,57,15,7,2,47,33,367,['n'],0,left,['0'],6,230,[-0.04409346],39,47,medium,minus,dotcolour,beta,,,19,18,V,R,
310,58,16,7,2,27,53,916,['c'],0,right,['0'],6,119,[-0.00457789],4,53,easy,minus,dotcolour,beta,,,19,18,V,R,
311,59,17,7,2,27,53,417,['n'],1,right,['0'],6,225,[-0.09121141],79,53,easy,minus,dotcolour,beta,,,19,18,V,R,
312,60,18,7,2,47,33,533,['n'],0,left,['0'],6,169,[-0.05171284],46,47,medium,minus,dotcolour,beta,,,19,18,V,R,
313,61,19,7,2,36,44,401,['n'],1,right,['0'],6,313,[-0.13216312],92,44,hard,minus,dotcolour,beta,,,19,18,V,R,
314,62,20,7,2,36,44,600,['n'],1,right,['0'],6,579,[-0.07486626],61,44,hard,minus,dotcolour,beta,,,19,18,V,R,
315,63,21,7,2,36,44,482,['n'],1,right,['0'],6,183,[-0.0969881],85,44,hard,minus,dotcolour,beta,,,19,18,V,R,
316,64,22,7,2,53,27,281,['n'],0,left,['0'],6,141,[-0.00487958],8,53,easy,minus,dotcolour,beta,,,19,18,V,R,
317,65,23,7,2,27,53,266,['n'],1,right,['0'],6,875,[-0.3027691],99,53,easy,minus,dotcolour,beta,,,19,18,V,R,
318,66,24,7,2,36,44,333,['n'],1,right,['0'],6,137,[-0.11584305],95,44,hard,minus,dotcolour,beta,,,19,18,V,R,
319,67,25,7,2,53,27,334,['n'],0,left,['0'],6,157,[-0.06212775],57,53,easy,minus,dotcolour,beta,,,19,18,V,R,
320,68,26,7,2,36,44,233,['n'],1,right,['0'],6,189,[-0.09576069],84,44,hard,minus,dotcolour,beta,,,19,18,V,R,
321,69,27,7,2,44,36,232,['n'],0,left,['0'],6,108,[-0.04198389],32,44,hard,minus,dotcolour,beta,,,19,18,V,R,
322,70,28,7,2,27,53,300,['n'],1,right,['0'],6,154,[-0.07680655],73,53,easy,minus,dotcolour,beta,,,19,18,V,R,
323,71,29,7,2,44,36,282,['n'],0,left,['0'],6,136,[-0.0722565],69,44,hard,minus,dotcolour,beta,,,19,18,V,R,
324,72,30,7,2,27,53,282,['n'],1,right,['0'],6,198,[-0.02984736],26,53,easy,minus,dotcolour,beta,,,19,18,V,R,
325,73,31,7,2,33,47,249,['n'],1,right,['0'],6,227,[-0.1144536],90,47,medium,minus,dotcolour,beta,,,19,18,V,R,
326,74,32,7,2,36,44,215,['n'],1,right,['0'],6,121,[-0.07700156],75,44,hard,minus,dotcolour,beta,,,19,18,V,R,
327,75,33,7,2,33,47,332,['n'],1,right,['0'],6,142,[0.01084347],4,47,medium,minus,dotcolour,beta,,,19,18,V,R,
328,76,34,7,2,47,33,266,['n'],0,left,['0'],6,197,[-0.02686882],24,47,medium,minus,dotcolour,beta,,,19,18,V,R,
329,77,35,7,2,53,27,235,['n'],0,left,['0'],6,123,[-0.06568231],63,53,easy,minus,dotcolour,beta,,,19,18,V,R,
330,78,36,7,2,33,47,133,['n'],1,right,['0'],6,93,[-0.11690834],97,47,medium,minus,dotcolour,beta,,,19,18,V,R,
331,79,37,7,2,47,33,167,['n'],0,left,['0'],6,137,[-0.05969352],55,47,medium,minus,dotcolour,beta,,,19,18,V,R,
332,80,38,7,2,33,47,315,['n'],1,right,['0'],6,182,[-0.12077124],94,47,medium,minus,dotcolour,beta,,,19,18,V,R,
333,81,39,7,2,44,36,102,['n'],0,left,['0'],6,94,[-0.06710871],66,44,hard,minus,dotcolour,beta,,,19,18,V,R,
334,82,40,7,2,33,47,249,['n'],1,right,['0'],6,199,[-0.03914514],34,47,medium,minus,dotcolour,beta,,,19,18,V,R,
335,83,41,7,2,44,36,217,['n'],0,left,['0'],6,150,[-0.05264697],47,44,hard,minus,dotcolour,beta,,,19,18,V,R,
336,84,0,8,2,27,53,301,['n'],1,right,['0'],6,103,[-0.06389319],61,53,easy,minus,dotcolour,beta,,,19,18,V,R,
337,85,1,8,2,44,36,217,['n'],0,left,['0'],6,233,[0.00012625],11,44,hard,minus,dotcolour,beta,,,19,18,V,R,
338,86,2,8,2,33,47,185,['n'],1,right,['0'],6,272,[-0.17406272],98,47,medium,minus,dotcolour,beta,,,19,18,V,R,
339,87,3,8,2,47,33,302,['n'],0,left,['0'],6,328,[-0.03663373],36,47,medium,minus,dotcolour,beta,,,19,18,V,R,
340,88,4,8,2,53,27,156,['n'],0,left,['0'],6,66,[-0.00324901],2,53,easy,minus,dotcolour,beta,,,19,18,V,R,
341,89,5,8,2,44,36,191,['n'],0,left,['8'],4,159,[-0.0049646],9,44,hard,minus,dotcolour,beta,,,19,18,V,R,
342,90,6,8,2,47,33,16,['n'],0,left,['8'],4,23,[-0.07999858],95,47,medium,minus,dotcolour,beta,,,19,18,V,R,
343,91,7,8,2,47,33,16,['n'],0,left,['8'],4,69,[-0.05204429],44,47,medium,minus,dotcolour,beta,,,19,18,V,R,
344,92,8,8,2,53,27,1350,['n'],0,left,['8'],4,211,[-0.02507278],23,53,easy,minus,dotcolour,beta,,,19,18,V,R,
345,93,9,8,2,44,36,283,['n'],0,left,['9'],5,302,[-0.07530326],66,44,hard,minus,dotcolour,beta,,,19,18,V,R,
346,94,10,8,2,53,27,398,['n'],0,left,['9'],5,185,[-0.04199622],36,53,easy,minus,dotcolour,beta,,,19,18,V,R,
347,95,11,8,2,36,44,233,['n'],1,right,['9'],5,232,[-0.14278968],96,44,hard,minus,dotcolour,beta,,,19,18,V,R,
348,96,12,8,2,53,27,284,['n'],0,left,['9'],5,162,[-0.04640141],40,53,easy,minus,dotcolour,beta,,,19,18,V,R,
349,97,13,8,2,36,44,300,['n'],1,right,['9'],5,143,[-0.10987299],93,44,hard,minus,dotcolour,beta,,,19,18,V,R,
350,98,14,8,2,36,44,585,['n'],1,right,['9'],5,544,[-0.06893906],58,44,hard,minus,dotcolour,beta,,,19,18,V,R,
351,99,15,8,2,47,33,136,['n'],0,left,['9'],5,170,[0.00221711],7,47,medium,minus,dotcolour,beta,,,19,18,V,R,
352,100,16,8,2,47,33,398,['n'],0,left,['9'],5,179,[0.00485187],7,47,medium,minus,dotcolour,beta,,,19,18,V,R,
353,101,17,8,2,36,44,171,['n'],1,right,['0'],6,186,[-0.04325615],37,44,hard,minus,dotcolour,beta,,,19,18,V,R,
354,102,18,8,2,44,36,249,['n'],0,left,['0'],6,185,[-0.07255729],67,44,hard,minus,dotcolour,beta,,,19,18,V,R,
355,103,19,8,2,27,53,247,['n'],1,right,['0'],6,262,[-0.01694642],20,53,easy,minus,dotcolour,beta,,,19,18,V,R,
356,104,20,8,2,33,47,247,['n'],1,right,['0'],6,257,[-0.10655644],86,47,medium,minus,dotcolour,beta,,,19,18,V,R,
357,105,21,8,2,36,44,350,['n'],1,right,['0'],6,207,[-0.08464715],76,44,hard,minus,dotcolour,beta,,,19,18,V,R,
358,106,22,8,2,53,27,251,['n'],0,left,['0'],6,172,[-0.07420061],69,53,easy,minus,dotcolour,beta,,,19,18,V,R,
359,107,23,8,2,27,53,384,['n'],1,right,['0'],6,221,[-0.05250858],47,53,easy,minus,dotcolour,beta,,,19,18,V,R,
360,108,24,8,2,36,44,566,['n'],1,right,['9'],5,252,[-0.07054976],63,44,hard,minus,dotcolour,beta,,,19,18,V,R,
361,109,25,8,2,44,36,432,['n'],0,left,['0'],6,184,[-0.02598321],22,44,hard,minus,dotcolour,beta,,,19,18,V,R,
362,110,26,8,2,47,33,283,['n'],0,left,['0'],6,1237,[-0.30239115],98,47,medium,minus,dotcolour,beta,,,19,18,V,R,
363,111,27,8,2,27,53,332,['n'],1,right,['0'],6,204,[-0.05175564],46,53,easy,minus,dotcolour,beta,,,19,18,V,R,
364,112,28,8,2,47,33,299,['n'],0,left,['0'],6,199,[-0.10777416],89,47,medium,minus,dotcolour,beta,,,19,18,V,R,
365,113,29,8,2,27,53,349,['n'],1,right,['0'],6,177,[-0.1315688],96,53,easy,minus,dotcolour,beta,,,19,18,V,R,
366,114,30,8,2,53,27,333,['n'],0,left,['0'],6,203,[-0.06181152],56,53,easy,minus,dotcolour,beta,,,19,18,V,R,
367,115,31,8,2,33,47,515,['n'],1,right,['0'],6,253,[-0.06110211],55,47,medium,minus,dotcolour,beta,,,19,18,V,R,
368,116,32,8,2,33,47,366,['n'],1,right,['0'],6,300,[-0.0913954],76,47,medium,minus,dotcolour,beta,,,19,18,V,R,
369,117,33,8,2,44,36,350,['n'],0,left,['0'],6,288,[-0.06164659],55,44,hard,minus,dotcolour,beta,,,19,18,V,R,
370,118,34,8,2,33,47,350,['n'],1,right,['0'],6,285,[-0.06911027],61,47,medium,minus,dotcolour,beta,,,19,18,V,R,
371,119,35,8,2,27,53,417,['n'],1,right,['0'],6,224,[-0.1568403],98,53,easy,minus,dotcolour,beta,,,19,18,V,R,
372,120,36,8,2,33,47,500,['n'],1,right,['0'],6,242,[-0.0880697],77,47,medium,minus,dotcolour,beta,,,19,18,V,R,
373,121,37,8,2,44,36,265,['n'],0,left,['0'],6,221,[-0.00356263],12,44,hard,minus,dotcolour,beta,,,19,18,V,R,
374,122,38,8,2,53,27,266,['n'],0,left,['0'],6,208,[-0.00863705],14,53,easy,minus,dotcolour,beta,,,19,18,V,R,
375,123,39,8,2,36,44,216,['n'],1,right,['0'],6,150,[-0.02837484],22,44,hard,minus,dotcolour,beta,,,19,18,V,R,
376,124,40,8,2,33,47,249,['n'],1,right,['9'],5,277,[-0.11315156],88,47,medium,minus,dotcolour,beta,,,19,18,V,R,
377,125,41,8,2,27,53,300,['n'],1,right,['0'],6,229,[-0.1662143],98,53,easy,minus,dotcolour,beta,,,19,18,V,R,
378,0,0,9,3,53,27,2019,['c'],1,left,['2'],2,223,[0.07720059],99,53,easy,plus,dotcolour,beta,,,19,18,V,R,
379,1,1,9,3,36,44,701,['n'],1,right,['0'],6,769,[-0.16157168],99,44,hard,plus,dotcolour,beta,,,19,18,V,R,
380,2,2,9,3,33,47,684,['c'],0,right,['2'],2,381,[-0.00182978],83,47,medium,plus,dotcolour,beta,,,19,18,V,R,
381,3,3,9,3,36,44,849,['c'],0,right,['0'],6,210,[0.11798959],100,44,hard,plus,dotcolour,beta,,,19,18,V,R,
382,4,4,9,3,27,53,481,['c'],0,right,['0'],6,357,[0.03056853],93,53,easy,plus,dotcolour,beta,,,19,18,V,R,
383,5,5,9,3,47,33,418,['c'],1,left,['0'],6,181,[0.16209665],100,47,medium,plus,dotcolour,beta,,,19,18,V,R,
384,6,6,9,3,44,36,449,['c'],1,left,['0'],6,139,[0.08535025],100,44,hard,plus,dotcolour,beta,,,19,18,V,R,
385,7,7,9,3,27,53,333,['c'],0,right,['0'],6,127,[0.02608045],98,53,easy,plus,dotcolour,beta,,,19,18,V,R,
386,8,8,9,3,47,33,366,['c'],1,left,['2'],2,210,[0.08077683],100,47,medium,plus,dotcolour,beta,,,19,18,V,R,
387,9,9,9,3,44,36,19,['c'],1,left,['2'],2,48,[0.02641552],100,44,hard,plus,dotcolour,beta,,,19,18,V,R,
388,10,10,9,3,36,44,1282,['c'],0,right,['2'],2,338,[0.14614617],100,44,hard,plus,dotcolour,beta,,,19,18,V,R,
389,11,11,9,3,44,36,466,['c'],1,left,['9'],5,960,[-0.05589225],50,44,hard,plus,dotcolour,beta,,,19,18,V,R,
390,12,12,9,3,53,27,249,['c'],1,left,['2'],2,278,[0.10711544],100,53,easy,plus,dotcolour,beta,,,19,18,V,R,
391,13,13,9,3,44,36,534,['c'],1,left,['2'],2,316,[0.14162011],100,44,hard,plus,dotcolour,beta,,,19,18,V,R,
392,14,14,9,3,44,36,333,['c'],1,left,['2'],2,393,[0.13095675],100,44,hard,plus,dotcolour,beta,,,19,18,V,R,
393,15,15,9,3,36,44,315,['c'],0,right,['2'],2,291,[0.11691387],100,44,hard,plus,dotcolour,beta,,,19,18,V,R,
394,16,16,9,3,27,53,191,['c'],0,right,['2'],2,351,[-0.02429676],72,53,easy,plus,dotcolour,beta,,,19,18,V,R,
395,17,17,9,3,33,47,268,['c'],0,right,['2'],2,269,[0.0253719],94,47,medium,plus,dotcolour,beta,,,19,18,V,R,
396,18,18,9,3,27,53,317,['c'],0,right,['2'],2,365,[0.00291809],85,53,easy,plus,dotcolour,beta,,,19,18,V,R,
397,19,19,9,3,36,44,300,['c'],0,right,['2'],2,250,[0.07665086],99,44,hard,plus,dotcolour,beta,,,19,18,V,R,
398,20,20,9,3,27,53,281,['c'],0,right,['2'],2,243,[-0.00882583],85,53,easy,plus,dotcolour,beta,,,19,18,V,R,
399,21,21,9,3,36,44,332,['c'],0,right,['2'],2,283,[0.01897312],93,44,hard,plus,dotcolour,beta,,,19,18,V,R,
400,22,22,9,3,47,33,533,['c'],1,left,['2'],2,282,[0.11614923],100,47,medium,plus,dotcolour,beta,,,19,18,V,R,
401,23,23,9,3,27,53,715,['c'],0,right,['2'],2,177,[0.02655224],97,53,easy,plus,dotcolour,beta,,,19,18,V,R,
402,24,24,9,3,47,33,716,['c'],1,left,['2'],2,235,[0.12946196],100,47,medium,plus,dotcolour,beta,,,19,18,V,R,
403,25,25,9,3,27,53,400,['c'],0,right,['2'],2,224,[-0.00322413],88,53,easy,plus,dotcolour,beta,,,19,18,V,R,
404,26,26,9,3,44,36,300,['c'],1,left,['2'],2,251,[0.15795188],100,44,hard,plus,dotcolour,beta,,,19,18,V,R,
405,27,27,9,3,47,33,250,['c'],1,left,['2'],2,229,[0.0820711],99,47,medium,plus,dotcolour,beta,,,19,18,V,R,
406,28,28,9,3,33,47,315,['c'],0,right,['2'],2,255,[0.01753694],93,47,medium,plus,dotcolour,beta,,,19,18,V,R,
407,29,29,9,3,53,27,649,['n'],0,left,['9'],5,186,[0.03156385],73,53,easy,plus,dotcolour,beta,,,19,18,V,R,
408,30,30,9,3,53,27,765,['c'],1,left,['1'],1,379,[0.18481747],100,53,easy,plus,dotcolour,beta,,,19,18,V,R,
409,31,31,9,3,53,27,382,['c'],1,left,['3'],3,235,[0.11820714],100,53,easy,plus,dotcolour,beta,,,19,18,V,R,
410,32,32,9,3,47,33,867,['c'],1,left,['1'],1,245,[0.12668036],100,47,medium,plus,dotcolour,beta,,,19,18,V,R,
411,33,33,9,3,53,27,1151,['c'],1,left,['3'],3,1756,[0.07890782],86,53,easy,plus,dotcolour,beta,,,19,18,V,R,
412,34,34,9,3,36,44,666,['n'],1,right,['9'],5,776,[-0.07383586],93,44,hard,plus,dotcolour,beta,,,19,18,V,R,
413,35,35,9,3,44,36,850,['n'],0,left,['8'],4,205,[-0.020656],95,44,hard,plus,dotcolour,beta,,,19,18,V,R,
414,36,36,9,3,33,47,249,['n'],1,right,['8'],4,130,[-0.12519907],100,47,medium,plus,dotcolour,beta,,,19,18,V,R,
415,37,37,9,3,53,27,300,['n'],0,left,['8'],4,136,[-0.0594938],100,53,easy,plus,dotcolour,beta,,,19,18,V,R,
416,38,38,9,3,33,47,284,['c'],0,right,['3'],3,191,[0.05955685],99,47,medium,plus,dotcolour,beta,,,19,18,V,R,
417,39,39,9,3,33,47,299,['n'],1,right,['8'],4,195,[-0.10060101],100,47,medium,plus,dotcolour,beta,,,19,18,V,R,
418,40,40,9,3,47,33,282,['c'],1,left,['3'],3,199,[0.08416865],100,47,medium,plus,dotcolour,beta,,,19,18,V,R,
419,41,41,9,3,33,47,400,['n'],1,right,['8'],4,206,[-0.08641363],100,47,medium,plus,dotcolour,beta,,,19,18,V,R,
420,42,0,10,3,47,33,751,['c'],1,left,['3'],3,230,[0.06443461],99,47,medium,plus,dotcolour,beta,,,19,18,V,R,
421,43,1,10,3,44,36,132,['n'],0,left,['8'],4,252,[-0.01961434],94,44,hard,plus,dotcolour,beta,,,19,18,V,R,
422,44,2,10,3,53,27,1433,['c'],1,left,['3'],3,256,[0.15110814],100,53,easy,plus,dotcolour,beta,,,19,18,V,R,
423,45,3,10,3,33,47,301,['n'],1,right,['8'],4,231,[-0.1048554],100,47,medium,plus,dotcolour,beta,,,19,18,V,R,
424,46,4,10,3,47,33,197,['c'],1,left,['3'],3,230,[0.0882168],100,47,medium,plus,dotcolour,beta,,,19,18,V,R,
425,47,5,10,3,36,44,268,['n'],1,right,['8'],4,233,[-0.05352877],98,44,hard,plus,dotcolour,beta,,,19,18,V,R,
426,48,6,10,3,27,53,175,['c'],0,right,['3'],3,231,[0.09323764],100,53,easy,plus,dotcolour,beta,,,19,18,V,R,
427,49,7,10,3,33,47,316,['n'],1,right,['8'],4,256,[-0.17194566],100,47,medium,plus,dotcolour,beta,,,19,18,V,R,
428,50,8,10,3,53,27,232,['c'],1,left,['3'],3,211,[0.14836879],100,53,easy,plus,dotcolour,beta,,,19,18,V,R,
429,51,9,10,3,33,47,333,['n'],1,right,['8'],4,212,[-0.11892906],100,47,medium,plus,dotcolour,beta,,,19,18,V,R,
430,52,10,10,3,36,44,734,['c'],0,right,['3'],3,693,[0.15711656],99,44,hard,plus,dotcolour,beta,,,19,18,V,R,
431,53,11,10,3,53,27,169,['n'],0,left,['8'],4,136,[-0.07111798],100,53,easy,plus,dotcolour,beta,,,19,18,V,R,
432,54,12,10,3,47,33,216,['c'],1,left,['3'],3,218,[0.01045963],93,47,medium,plus,dotcolour,beta,,,19,18,V,R,
433,55,13,10,3,27,53,366,['n'],1,right,['8'],4,290,[0.0679916],40,53,easy,plus,dotcolour,beta,,,19,18,V,R,
434,56,14,10,3,53,27,398,['n'],0,left,['0'],6,468,[0.06683784],43,53,easy,plus,dotcolour,beta,,,19,18,V,R,
435,57,15,10,3,27,53,171,['c'],0,right,['1'],1,265,[0.01405559],92,53,easy,plus,dotcolour,beta,,,19,18,V,R,
436,58,16,10,3,36,44,283,['n'],1,right,['0'],6,195,[-0.01909645],95,44,hard,plus,dotcolour,beta,,,19,18,V,R,
437,59,17,10,3,44,36,1784,['n'],0,left,['0'],6,281,[-0.05203188],97,44,hard,plus,dotcolour,beta,,,19,18,V,R,
438,60,18,10,3,53,27,534,['c'],1,left,['1'],1,263,[0.06347783],98,53,easy,plus,dotcolour,beta,,,19,18,V,R,
439,61,19,10,3,33,47,616,['n'],1,right,['0'],6,571,[-0.19769607],100,47,medium,plus,dotcolour,beta,,,19,18,V,R,
440,62,20,10,3,44,36,249,['n'],0,left,['0'],6,209,[-8.01725e-05],90,44,hard,plus,dotcolour,beta,,,19,18,V,R,
441,63,21,10,3,47,33,79,['c'],1,left,['1'],1,175,[0.17061233],100,47,medium,plus,dotcolour,beta,,,19,18,V,R,
442,64,22,10,3,47,33,266,['c'],1,left,['1'],1,405,[0.12248106],99,47,medium,plus,dotcolour,beta,,,19,18,V,R,
443,65,23,10,3,36,44,249,['c'],0,right,['2'],2,258,[0.07064055],99,44,hard,plus,dotcolour,beta,,,19,18,V,R,
444,66,24,10,3,33,47,1833,['n'],1,right,['0'],6,1803,[0.01477036],63,47,medium,plus,dotcolour,beta,,,19,18,V,R,
445,67,25,10,3,27,53,191,['c'],0,right,['1'],1,385,[-0.00258487],82,53,easy,plus,dotcolour,beta,,,19,18,V,R,
446,68,26,10,3,44,36,449,['n'],0,left,['0'],6,229,[-0.0986471],100,44,hard,plus,dotcolour,beta,,,19,18,V,R,
447,69,27,10,3,27,53,400,['c'],0,right,['2'],2,284,[-0.03001308],70,53,easy,plus,dotcolour,beta,,,19,18,V,R,
448,70,28,10,3,33,47,399,['n'],1,right,['9'],5,199,[-0.18151273],100,47,medium,plus,dotcolour,beta,,,19,18,V,R,
449,71,29,10,3,47,33,174,['c'],1,left,['1'],1,214,[0.08295416],100,47,medium,plus,dotcolour,beta,,,19,18,V,R,
450,72,30,10,3,44,36,2235,['c'],1,left,['9'],5,281,[0.11466272],100,44,hard,plus,dotcolour,beta,,,19,18,V,R,
451,73,31,10,3,53,27,2301,['n'],0,left,['9'],5,143,[-0.02068686],97,53,easy,plus,dotcolour,beta,,,19,18,V,R,
452,74,32,10,3,27,53,232,['c'],0,right,['2'],2,199,[0.02947244],97,53,easy,plus,dotcolour,beta,,,19,18,V,R,
453,75,33,10,3,44,36,47,['n'],0,left,['0'],6,7,[-0.07904109],100,44,hard,plus,dotcolour,beta,,,19,18,V,R,
454,76,34,10,3,47,33,144,['n'],0,left,['8'],4,118,[-0.02115104],98,47,medium,plus,dotcolour,beta,,,19,18,V,R,
455,77,35,10,3,53,27,89,['c'],1,left,['3'],3,57,[0.07920756],100,53,easy,plus,dotcolour,beta,,,19,18,V,R,
456,78,36,10,3,33,47,111,['c'],0,right,['2'],2,119,[0.0712358],100,47,medium,plus,dotcolour,beta,,,19,18,V,R,
457,79,37,10,3,36,44,122,['c'],0,right,['3'],3,129,[0.11062392],100,44,hard,plus,dotcolour,beta,,,19,18,V,R,
458,80,38,10,3,27,53,1901,['c'],0,right,['1'],1,398,[0.02567344],91,53,easy,plus,dotcolour,beta,,,19,18,V,R,
459,81,39,10,3,44,36,618,['n'],0,left,['9'],5,220,[-0.05970011],99,44,hard,plus,dotcolour,beta,,,19,18,V,R,
460,82,40,10,3,36,44,717,['n'],1,right,['9'],5,661,[-0.22735486],100,44,hard,plus,dotcolour,beta,,,19,18,V,R,
461,83,41,10,3,36,44,683,['c'],0,right,['1'],1,286,[0.03420893],95,44,hard,plus,dotcolour,beta,,,19,18,V,R,
462,84,0,11,3,36,44,1517,['c'],0,right,['2'],2,338,[0.04268678],95,44,hard,plus,dotcolour,beta,,,19,18,V,R,
463,85,1,11,3,53,27,317,['n'],0,left,['0'],6,278,[-0.06351296],98,53,easy,plus,dotcolour,beta,,,19,18,V,R,
464,86,2,11,3,53,27,700,['n'],0,left,['9'],5,398,[-0.04288105],94,53,easy,plus,dotcolour,beta,,,19,18,V,R,
465,87,3,11,3,36,44,216,['c'],0,right,['2'],2,252,[0.07141473],99,44,hard,plus,dotcolour,beta,,,19,18,V,R,
466,88,4,11,3,33,47,400,['c'],0,right,['9'],5,145,[0.08162195],100,47,medium,plus,dotcolour,beta,,,19,18,V,R,
467,89,5,11,3,47,33,667,['n'],0,left,['9'],5,79,[-0.0415767],100,47,medium,plus,dotcolour,beta,,,19,18,V,R,
468,90,6,11,3,53,27,1684,['n'],0,left,['9'],5,231,[-0.10520945],100,53,easy,plus,dotcolour,beta,,,19,18,V,R,
469,91,7,11,3,33,47,898,['c'],0,right,['2'],2,344,[-0.02418603],72,47,medium,plus,dotcolour,beta,,,19,18,V,R,
470,92,8,11,3,27,53,217,['n'],1,right,['9'],5,200,[-0.08107098],100,53,easy,plus,dotcolour,beta,,,19,18,V,R,
471,93,9,11,3,44,36,1766,['c'],1,left,['2'],2,183,[0.10861087],100,44,hard,plus,dotcolour,beta,,,19,18,V,R,
472,94,10,11,3,53,27,120,['n'],0,left,['9'],5,73,[-0.07914655],100,53,easy,plus,dotcolour,beta,,,19,18,V,R,
473,95,11,11,3,27,53,196,['n'],1,right,['9'],5,220,[-0.00886423],92,53,easy,plus,dotcolour,beta,,,19,18,V,R,
474,96,12,11,3,33,47,233,['n'],1,right,['9'],5,161,[-0.09718028],100,47,medium,plus,dotcolour,beta,,,19,18,V,R,
475,97,13,11,3,44,36,113,['n'],0,left,['9'],5,106,[-0.0805462],100,44,hard,plus,dotcolour,beta,,,19,18,V,R,
476,98,14,11,3,27,53,283,['n'],1,right,['9'],5,154,[-0.01976816],97,53,easy,plus,dotcolour,beta,,,19,18,V,R,
477,99,15,11,3,53,27,123,['c'],1,left,['3'],3,75,[0.08567102],100,53,easy,plus,dotcolour,beta,,,19,18,V,R,
478,100,16,11,3,47,33,267,['n'],0,left,['9'],5,173,[-0.00605977],94,47,medium,plus,dotcolour,beta,,,19,18,V,R,
479,101,17,11,3,36,44,151,['c'],0,right,['3'],3,173,[0.04891321],99,44,hard,plus,dotcolour,beta,,,19,18,V,R,
480,102,18,11,3,44,36,150,['n'],0,left,['9'],5,101,[-0.03806572],100,44,hard,plus,dotcolour,beta,,,19,18,V,R,
481,103,19,11,3,27,53,247,['n'],1,right,['9'],5,183,[-0.03934815],98,53,easy,plus,dotcolour,beta,,,19,18,V,R,
482,104,20,11,3,44,36,136,['c'],1,left,['2'],2,239,[0.09572279],100,44,hard,plus,dotcolour,beta,,,19,18,V,R,
483,105,21,11,3,47,33,816,['c'],1,left,['2'],2,435,[0.21166033],100,47,medium,plus,dotcolour,beta,,,19,18,V,R,
484,106,22,11,3,53,27,1018,['n'],0,left,['9'],5,175,[-0.03302045],98,53,easy,plus,dotcolour,beta,,,19,18,V,R,
485,107,23,11,3,47,33,733,['c'],1,left,['1'],1,378,[0.06413266],97,47,medium,plus,dotcolour,beta,,,19,18,V,R,
486,108,24,11,3,36,44,464,['n'],1,right,['9'],5,175,[-0.08819764],100,44,hard,plus,dotcolour,beta,,,19,18,V,R,
487,109,25,11,3,47,33,433,['c'],1,left,['2'],2,325,[0.17665689],100,47,medium,plus,dotcolour,beta,,,19,18,V,R,
488,110,26,11,3,36,44,283,['c'],0,right,['1'],1,299,[0.00714851],89,44,hard,plus,dotcolour,beta,,,19,18,V,R,
489,111,27,11,3,27,53,1918,['c'],0,right,['1'],1,792,[-0.00840768],72,53,easy,plus,dotcolour,beta,,,19,18,V,R,
490,112,28,11,3,33,47,900,['c'],0,right,['1'],1,202,[0.05247276],99,47,medium,plus,dotcolour,beta,,,19,18,V,R,
491,113,29,11,3,36,44,651,['n'],1,right,['8'],4,390,[-0.11119],99,44,hard,plus,dotcolour,beta,,,19,18,V,R,
492,114,30,11,3,33,47,749,['n'],1,right,['9'],5,375,[-0.13582918],100,47,medium,plus,dotcolour,beta,,,19,18,V,R,
493,115,31,11,3,33,47,448,['n'],1,right,['9'],5,133,[-0.07411269],100,47,medium,plus,dotcolour,beta,,,19,18,V,R,
494,116,32,11,3,33,47,417,['n'],1,right,['9'],5,166,[-0.10426865],100,47,medium,plus,dotcolour,beta,,,19,18,V,R,
495,117,33,11,3,44,36,433,['c'],1,left,['1'],1,213,[0.06262041],99,44,hard,plus,dotcolour,beta,,,19,18,V,R,
496,118,34,11,3,36,44,283,['n'],1,right,['9'],5,161,[-0.03289717],98,44,hard,plus,dotcolour,beta,,,19,18,V,R,
497,119,35,11,3,47,33,299,['n'],0,left,['9'],5,109,[-0.09472812],100,47,medium,plus,dotcolour,beta,,,19,18,V,R,
498,120,36,11,3,27,53,331,['n'],1,right,['9'],5,179,[-0.11623698],100,53,easy,plus,dotcolour,beta,,,19,18,V,R,
499,121,37,11,3,53,27,450,['n'],0,left,['9'],5,184,[-0.11022949],100,53,easy,plus,dotcolour,beta,,,19,18,V,R,
500,122,38,11,3,44,36,617,['n'],0,left,['9'],5,183,[-0.07007529],99,44,hard,plus,dotcolour,beta,,,19,18,V,R,
501,123,39,11,3,27,53,949,['c'],0,right,['1'],1,713,[0.05586974],91,53,easy,plus,dotcolour,beta,,,19,18,V,R,
502,124,40,11,3,47,33,76,['n'],0,left,['9'],5,51,[-0.07979111],100,47,medium,plus,dotcolour,beta,,,19,18,V,R,
503,125,41,11,3,44,36,266,['n'],0,left,['9'],5,14,[-0.05356911],100,44,hard,plus,dotcolour,beta,,,19,18,V,R,
504,0,0,12,4,27,53,651,['c'],0,right,['1'],1,328,[0.01794046],23,53,easy,minus,dotcolour,beta,,,19,18,V,R,
505,1,1,12,4,47,33,139,['c'],1,left,['1'],1,370,[0.06787099],59,47,medium,minus,dotcolour,beta,,,19,18,V,R,
506,2,2,12,4,33,47,318,['n'],1,right,['9'],5,142,[-0.05049622],44,47,medium,minus,dotcolour,beta,,,19,18,V,R,
507,3,3,12,4,33,47,348,['n'],1,right,['0'],6,218,[-0.0807886],73,47,medium,minus,dotcolour,beta,,,19,18,V,R,
508,4,4,12,4,53,27,1466,['n'],0,left,['0'],6,340,[-0.13050283],91,53,easy,minus,dotcolour,beta,,,19,18,V,R,
509,5,5,12,4,36,44,350,['n'],1,right,['0'],6,199,[-0.15931879],99,44,hard,minus,dotcolour,beta,,,19,18,V,R,
510,6,6,12,4,36,44,249,['c'],0,right,['1'],1,244,[0.10364065],85,44,hard,minus,dotcolour,beta,,,19,18,V,R,
511,7,7,12,4,53,27,282,['n'],0,left,['9'],5,238,[-0.06180178],56,53,easy,minus,dotcolour,beta,,,19,18,V,R,
512,8,8,12,4,53,27,299,['c'],1,left,['1'],1,287,[0.13688532],94,53,easy,minus,dotcolour,beta,,,19,18,V,R,
513,9,9,12,4,33,47,316,['n'],1,right,['9'],5,166,[-0.07282643],68,47,medium,minus,dotcolour,beta,,,19,18,V,R,
514,10,10,12,4,47,33,399,['c'],1,left,['1'],1,527,[0.00760931],23,47,medium,minus,dotcolour,beta,,,19,18,V,R,
515,11,11,12,4,33,47,1050,['c'],0,right,['3'],3,430,[0.06878459],59,47,medium,minus,dotcolour,beta,,,19,18,V,R,
516,12,12,12,4,53,27,1568,['c'],1,left,['1'],1,244,[0.12307673],92,53,easy,minus,dotcolour,beta,,,19,18,V,R,
517,13,13,12,4,53,27,366,['c'],1,left,['1'],1,290,[0.1834097],99,53,easy,minus,dotcolour,beta,,,19,18,V,R,
518,14,14,12,4,47,33,733,['c'],1,left,['1'],1,440,[0.13036898],88,47,medium,minus,dotcolour,beta,,,19,18,V,R,
519,15,15,12,4,36,44,1185,['c'],0,right,['1'],1,412,[0.0646511],56,44,hard,minus,dotcolour,beta,,,19,18,V,R,
520,16,16,12,4,27,53,6155,['n'],1,right,['9'],5,431,[-0.20686586],98,53,easy,minus,dotcolour,beta,,,19,18,V,R,
521,17,17,12,4,27,53,900,['n'],1,right,['9'],5,176,[-0.08527772],78,53,easy,minus,dotcolour,beta,,,19,18,V,R,
522,18,18,12,4,33,47,599,['c'],0,right,['9'],5,247,[0.01818453],21,47,medium,minus,dotcolour,beta,,,19,18,V,R,
523,19,19,12,4,47,33,383,['n'],0,left,['9'],5,149,[-0.05248154],46,47,medium,minus,dotcolour,beta,,,19,18,V,R,
524,20,20,12,4,44,36,366,['n'],0,left,['0'],6,336,[-0.06787575],59,44,hard,minus,dotcolour,beta,,,19,18,V,R,
525,21,21,12,4,33,47,833,['c'],0,right,['1'],1,183,[0.03086198],26,47,medium,minus,dotcolour,beta,,,19,18,V,R,
526,22,22,12,4,44,36,417,['c'],1,left,['9'],5,471,[0.09483666],74,44,hard,minus,dotcolour,beta,,,19,18,V,R,
527,23,23,12,4,47,33,282,['n'],0,left,['9'],5,183,[-0.03194624],27,47,medium,minus,dotcolour,beta,,,19,18,V,R,
528,24,24,12,4,44,36,333,['c'],1,left,['2'],2,306,[0.18570794],99,44,hard,minus,dotcolour,beta,,,19,18,V,R,
529,25,25,12,4,44,36,348,['c'],1,left,['2'],2,215,[0.03452226],31,44,hard,minus,dotcolour,beta,,,19,18,V,R,
530,26,26,12,4,53,27,350,['n'],0,left,['9'],5,159,[0.00792306],5,53,easy,minus,dotcolour,beta,,,19,18,V,R,
531,27,27,12,4,27,53,251,['n'],1,right,['8'],4,230,[-0.05207994],47,53,easy,minus,dotcolour,beta,,,19,18,V,R,
532,28,28,12,4,47,33,115,['n'],0,left,['8'],4,52,[-0.07974741],87,47,medium,minus,dotcolour,beta,,,19,18,V,R,
533,29,29,12,4,33,47,249,['c'],0,right,['1'],1,191,[0.00643772],12,47,medium,minus,dotcolour,beta,,,19,18,V,R,
534,30,30,12,4,27,53,283,['n'],1,right,['9'],5,203,[-0.00909475],14,53,easy,minus,dotcolour,beta,,,19,18,V,R,
535,31,31,12,4,27,53,217,['c'],0,right,['1'],1,178,[0.02367293],20,53,easy,minus,dotcolour,beta,,,19,18,V,R,
536,32,32,12,4,47,33,233,['n'],0,left,['0'],6,217,[0.06578299],1,47,medium,minus,dotcolour,beta,,,19,18,V,R,
537,33,33,12,4,36,44,199,['n'],1,right,['8'],4,183,[-0.1521247],98,44,hard,minus,dotcolour,beta,,,19,18,V,R,
538,34,34,12,4,27,53,366,['n'],1,right,['9'],5,504,[-0.13711846],89,53,easy,minus,dotcolour,beta,,,19,18,V,R,
539,35,35,12,4,44,36,500,['n'],0,left,['9'],5,183,[-0.05295897],47,44,hard,minus,dotcolour,beta,,,19,18,V,R,
540,36,36,12,4,36,44,534,['n'],1,right,['9'],5,210,[-0.06527541],59,44,hard,minus,dotcolour,beta,,,19,18,V,R,
541,37,37,12,4,36,44,533,['c'],0,right,['1'],1,154,[0.07240595],68,44,hard,minus,dotcolour,beta,,,19,18,V,R,
542,38,38,12,4,44,36,187,['c'],1,left,['3'],3,156,[0.05118722],45,44,hard,minus,dotcolour,beta,,,19,18,V,R,
543,39,39,12,4,36,44,248,['c'],0,right,['3'],3,212,[0.09423683],82,44,hard,minus,dotcolour,beta,,,19,18,V,R,
544,40,40,12,4,44,36,299,['n'],0,left,['9'],5,174,[-0.07204253],67,44,hard,minus,dotcolour,beta,,,19,18,V,R,
545,41,41,12,4,53,27,2016,['n'],0,left,['9'],5,236,[-0.07389797],66,53,easy,minus,dotcolour,beta,,,19,18,V,R,
546,42,0,13,4,36,44,1686,['n'],1,right,['0'],6,276,[-0.14123022],95,44,hard,minus,dotcolour,beta,,,19,18,V,R,
547,43,1,13,4,36,44,601,['c'],0,right,['1'],1,368,[0.07587816],65,44,hard,minus,dotcolour,beta,,,19,18,V,R,
548,44,2,13,4,44,36,334,['c'],1,left,['2'],2,195,[0.0875361],79,44,hard,minus,dotcolour,beta,,,19,18,V,R,
549,45,3,13,4,27,53,299,['c'],0,right,['2'],2,263,[0.02687616],27,53,easy,minus,dotcolour,beta,,,19,18,V,R,
550,46,4,13,4,44,36,382,['n'],0,left,['9'],5,195,[-0.04942252],44,44,hard,minus,dotcolour,beta,,,19,18,V,R,
551,47,5,13,4,33,47,266,['c'],0,right,['2'],2,176,[0.11854046],94,47,medium,minus,dotcolour,beta,,,19,18,V,R,
552,48,6,13,4,47,33,432,['c'],1,left,['2'],2,230,[-0.00182755],10,47,medium,minus,dotcolour,beta,,,19,18,V,R,
553,49,7,13,4,36,44,399,['n'],1,right,['9'],5,204,[-0.08069168],73,44,hard,minus,dotcolour,beta,,,19,18,V,R,
554,50,8,13,4,53,27,317,['c'],1,left,['2'],2,175,[0.14044768],97,53,easy,minus,dotcolour,beta,,,19,18,V,R,
555,51,9,13,4,36,44,317,['n'],1,right,['9'],5,130,[-0.07521919],73,44,hard,minus,dotcolour,beta,,,19,18,V,R,
556,52,10,13,4,27,53,433,['n'],1,right,['9'],5,147,[-0.08829067],82,53,easy,minus,dotcolour,beta,,,19,18,V,R,
557,53,11,13,4,47,33,934,['c'],1,left,['1'],1,286,[-0.00027481],13,47,medium,minus,dotcolour,beta,,,19,18,V,R,
558,54,12,13,4,53,27,232,['c'],1,left,['3'],3,208,[0.09412092],82,53,easy,minus,dotcolour,beta,,,19,18,V,R,
559,55,13,13,4,44,36,417,['n'],0,left,['9'],5,158,[-0.06754101],63,44,hard,minus,dotcolour,beta,,,19,18,V,R,
560,56,14,13,4,36,44,900,['c'],0,right,['1'],1,314,[0.05495968],50,44,hard,minus,dotcolour,beta,,,19,18,V,R,
561,57,15,13,4,36,44,650,['c'],0,right,['1'],1,474,[-0.06351465],4,44,hard,minus,dotcolour,beta,,,19,18,V,R,
562,58,16,13,4,33,47,1033,['n'],1,right,['9'],5,180,[-0.03667005],31,47,medium,minus,dotcolour,beta,,,19,18,V,R,
563,59,17,13,4,53,27,566,['n'],0,left,['9'],5,100,[-0.04162192],31,53,easy,minus,dotcolour,beta,,,19,18,V,R,
564,60,18,13,4,47,33,784,['c'],1,left,['2'],2,208,[0.08259427],74,47,medium,minus,dotcolour,beta,,,19,18,V,R,
565,61,19,13,4,47,33,400,['n'],0,left,['9'],5,143,[-0.03222568],25,47,medium,minus,dotcolour,beta,,,19,18,V,R,
566,62,20,13,4,44,36,1032,['c'],1,left,['1'],1,374,[0.1810945],98,44,hard,minus,dotcolour,beta,,,19,18,V,R,
567,63,21,13,4,27,53,384,['n'],1,right,['9'],5,158,[-0.08664332],80,53,easy,minus,dotcolour,beta,,,19,18,V,R,
568,64,22,13,4,36,44,216,['c'],0,right,['2'],2,223,[0.04566782],41,44,hard,minus,dotcolour,beta,,,19,18,V,R,
569,65,23,13,4,53,27,1566,['n'],0,left,['0'],6,197,[0.01026949],6,53,easy,minus,dotcolour,beta,,,19,18,V,R,
570,66,24,13,4,47,33,732,['n'],0,left,['9'],5,270,[-0.11155581],87,47,medium,minus,dotcolour,beta,,,19,18,V,R,
571,67,25,13,4,47,33,816,['c'],1,left,['8'],4,3065,[0.5863916],100,47,medium,minus,dotcolour,beta,,,19,18,V,R,
572,68,26,13,4,53,27,383,['c'],1,left,['9'],5,283,[0.00308931],14,53,easy,minus,dotcolour,beta,,,19,18,V,R,
573,69,27,13,4,27,53,351,['c'],0,right,['0'],6,240,[0.01087342],16,53,easy,minus,dotcolour,beta,,,19,18,V,R,
574,70,28,13,4,44,36,667,['n'],0,left,['0'],6,298,[-0.0661861],59,44,hard,minus,dotcolour,beta,,,19,18,V,R,
575,71,29,13,4,33,47,1485,['n'],1,right,['0'],6,233,[-0.12143808],92,47,medium,minus,dotcolour,beta,,,19,18,V,R,
576,72,30,13,4,33,47,1065,['c'],0,right,['1'],1,419,[0.07745209],65,47,medium,minus,dotcolour,beta,,,19,18,V,R,
577,73,31,13,4,27,53,1450,['n'],1,right,['0'],6,310,[-0.20045854],99,53,easy,minus,dotcolour,beta,,,19,18,V,R,
578,74,32,13,4,44,36,700,['n'],0,left,['9'],5,548,[-0.05331342],49,44,hard,minus,dotcolour,beta,,,19,18,V,R,
579,75,33,13,4,33,47,916,['c'],0,right,['1'],1,248,[0.10305963],85,47,medium,minus,dotcolour,beta,,,19,18,V,R,
580,76,34,13,4,53,27,332,['c'],1,left,['1'],1,440,[0.02856357],32,53,easy,minus,dotcolour,beta,,,19,18,V,R,
581,77,35,13,4,47,33,318,['n'],0,left,['9'],5,128,[-0.05758874],53,47,medium,minus,dotcolour,beta,,,19,18,V,R,
582,78,36,13,4,27,53,299,['c'],0,right,['1'],1,190,[0.04576745],40,53,easy,minus,dotcolour,beta,,,19,18,V,R,
583,79,37,13,4,33,47,284,['n'],1,right,['9'],5,115,[-0.09685337],90,47,medium,minus,dotcolour,beta,,,19,18,V,R,
584,80,38,13,4,27,53,735,['n'],1,right,['9'],5,136,[-0.05355488],48,53,easy,minus,dotcolour,beta,,,19,18,V,R,
585,81,39,13,4,53,27,284,['c'],1,left,['1'],1,294,[0.15963135],97,53,easy,minus,dotcolour,beta,,,19,18,V,R,
586,82,40,13,4,33,47,433,['c'],0,right,['1'],1,800,[0.00022441],25,47,medium,minus,dotcolour,beta,,,19,18,V,R,
587,83,41,13,4,44,36,717,['n'],0,left,['0'],6,153,[-0.08813244],82,44,hard,minus,dotcolour,beta,,,19,18,V,R,
588,84,0,14,4,44,36,2386,['c'],1,left,['0'],6,387,[0.15943268],95,44,hard,minus,dotcolour,beta,,,19,18,V,R,
589,85,1,14,4,27,53,734,['n'],1,right,['0'],6,261,[-0.18177875],99,53,easy,minus,dotcolour,beta,,,19,18,V,R,
590,86,2,14,4,33,47,565,['n'],1,right,['0'],6,154,[-0.07882255],74,47,medium,minus,dotcolour,beta,,,19,18,V,R,
591,87,3,14,4,36,44,400,['n'],1,right,"['9', '0']",5,260,[-0.05855706],53,44,hard,minus,dotcolour,beta,,,19,18,V,R,
592,88,4,14,4,33,47,316,['n'],1,right,['0'],6,164,[-0.14121382],98,47,medium,minus,dotcolour,beta,,,19,18,V,R,
593,89,5,14,4,44,36,348,['n'],0,left,['0'],6,190,[-0.07866203],72,44,hard,minus,dotcolour,beta,,,19,18,V,R,
594,90,6,14,4,44,36,249,['n'],0,left,['0'],6,220,[-0.10383847],86,44,hard,minus,dotcolour,beta,,,19,18,V,R,
595,91,7,14,4,44,36,750,['n'],0,left,['9'],5,476,[-0.02095722],29,44,hard,minus,dotcolour,beta,,,19,18,V,R,
596,92,8,14,4,36,44,466,['n'],1,right,['0'],6,253,[-0.09613514],81,44,hard,minus,dotcolour,beta,,,19,18,V,R,
597,93,9,14,4,33,47,171,['n'],1,right,['9'],5,626,[-0.19905847],96,47,medium,minus,dotcolour,beta,,,19,18,V,R,
598,94,10,14,4,36,44,568,['n'],1,right,['9'],5,152,[-0.11827964],95,44,hard,minus,dotcolour,beta,,,19,18,V,R,
599,95,11,14,4,53,27,468,['c'],1,left,['2'],2,287,[0.19354076],99,53,easy,minus,dotcolour,beta,,,19,18,V,R,
600,96,12,14,4,53,27,599,['c'],1,left,['1'],1,226,[0.04316958],38,53,easy,minus,dotcolour,beta,,,19,18,V,R,
601,97,13,14,4,47,33,583,['c'],1,left,['9'],5,409,[0.03235066],34,47,medium,minus,dotcolour,beta,,,19,18,V,R,
602,98,14,14,4,53,27,966,['c'],1,left,['0'],6,1152,[0.14407715],82,53,easy,minus,dotcolour,beta,,,19,18,V,R,
603,99,15,14,4,27,53,1100,['n'],1,right,['9'],5,179,[-0.17290126],99,53,easy,minus,dotcolour,beta,,,19,18,V,R,
604,100,16,14,4,44,36,568,['n'],0,left,['9'],5,195,[-0.12955816],95,44,hard,minus,dotcolour,beta,,,19,18,V,R,
605,101,17,14,4,36,44,800,['n'],1,right,['9'],5,146,[-0.07861503],75,44,hard,minus,dotcolour,beta,,,19,18,V,R,
606,102,18,14,4,47,33,617,['c'],1,left,['1'],1,242,[0.05749174],52,47,medium,minus,dotcolour,beta,,,19,18,V,R,
607,103,19,14,4,27,53,635,['n'],1,right,['9'],5,166,[-0.07109465],67,53,easy,minus,dotcolour,beta,,,19,18,V,R,
608,104,20,14,4,44,36,450,['n'],0,left,['9'],5,197,[0.01414189],6,44,hard,minus,dotcolour,beta,,,19,18,V,R,
609,105,21,14,4,36,44,683,['n'],1,right,['0'],6,121,[-0.10381098],92,44,hard,minus,dotcolour,beta,,,19,18,V,R,
610,106,22,14,4,47,33,367,['c'],1,left,['1'],1,276,[0.04572891],42,47,medium,minus,dotcolour,beta,,,19,18,V,R,
611,107,23,14,4,47,33,533,['n'],0,left,['9'],5,187,[-0.01768322],17,47,medium,minus,dotcolour,beta,,,19,18,V,R,
612,108,24,14,4,27,53,333,['n'],1,right,['9'],5,148,[-0.11213348],93,53,easy,minus,dotcolour,beta,,,19,18,V,R,
613,109,25,14,4,33,47,331,['n'],1,right,['9'],5,136,[-0.16573238],100,47,medium,minus,dotcolour,beta,,,19,18,V,R,
614,110,26,14,4,53,27,334,['c'],1,left,['1'],1,157,[0.07178006],68,53,easy,minus,dotcolour,beta,,,19,18,V,R,
615,111,27,14,4,47,33,233,['n'],0,left,['9'],5,156,[-0.09443408],85,47,medium,minus,dotcolour,beta,,,19,18,V,R,
616,112,28,14,4,44,36,717,['n'],0,left,['9'],5,137,[-0.06719711],64,44,hard,minus,dotcolour,beta,,,19,18,V,R,
617,113,29,14,4,47,33,250,['c'],1,left,['3'],3,193,[0.04032057],35,47,medium,minus,dotcolour,beta,,,19,18,V,R,
618,114,30,14,4,33,47,399,['c'],0,right,['3'],3,368,[0.11917354],87,47,medium,minus,dotcolour,beta,,,19,18,V,R,
619,115,31,14,4,53,27,284,['n'],0,left,['9'],5,124,[-0.03859608],30,53,easy,minus,dotcolour,beta,,,19,18,V,R,
620,116,32,14,4,27,53,517,['c'],0,right,['9'],5,282,[0.05063436],46,53,easy,minus,dotcolour,beta,,,19,18,V,R,
621,117,33,14,4,33,47,666,['n'],1,right,['9'],5,42,[-0.07631885],86,47,medium,minus,dotcolour,beta,,,19,18,V,R,
622,118,34,14,4,36,44,449,['c'],0,right,['1'],1,262,[-0.0316949],4,44,hard,minus,dotcolour,beta,,,19,18,V,R,
623,119,35,14,4,27,53,450,['n'],1,right,['9'],5,192,[-0.11443191],92,53,easy,minus,dotcolour,beta,,,19,18,V,R,
624,120,36,14,4,33,47,3169,['n'],1,right,['0'],6,254,[-0.05400271],49,47,medium,minus,dotcolour,beta,,,19,18,V,R,
625,121,37,14,4,36,44,583,['n'],1,right,['0'],6,99,[-0.0768918],77,44,hard,minus,dotcolour,beta,,,19,18,V,R,
626,122,38,14,4,47,33,334,['n'],0,left,['0'],6,129,[-0.09577925],88,47,medium,minus,dotcolour,beta,,,19,18,V,R,
627,123,39,14,4,53,27,867,['c'],1,left,['1'],1,280,[0.25626065],100,53,easy,minus,dotcolour,beta,,,19,18,V,R,
628,124,40,14,4,53,27,717,['n'],0,left,['0'],6,167,[-0.09920404],87,53,easy,minus,dotcolour,beta,,,19,18,V,R,
629,125,41,14,4,27,53,316,['c'],0,right,['1'],1,211,[-0.05696709],1,53,easy,minus,dotcolour,beta,,,19,18,V,R,
630,0,0,15,5,27,53,701,['n'],1,right,['0'],6,153,[-0.08879044],100,53,easy,plus,dotcolour,beta,,,19,18,V,R,
631,1,1,15,5,27,53,300,['n'],1,right,['0'],6,166,[-0.06925209],100,53,easy,plus,dotcolour,beta,,,19,18,V,R,
632,2,2,15,5,47,33,1667,['c'],1,left,['9'],5,939,[0.23321642],100,47,medium,plus,dotcolour,beta,,,19,18,V,R,
633,3,3,15,5,47,33,998,['n'],0,left,['9'],5,178,[-0.0687482],100,47,medium,plus,dotcolour,beta,,,19,18,V,R,
634,4,4,15,5,47,33,4570,['n'],0,left,['0'],6,240,[-0.09902381],100,47,medium,plus,dotcolour,beta,,,19,18,V,R,
635,5,5,15,5,27,53,299,['c'],0,right,['9'],5,273,[0.05943457],98,53,easy,plus,dotcolour,beta,,,19,18,V,R,
636,6,6,15,5,44,36,465,['n'],0,left,['0'],6,210,[-0.16153086],100,44,hard,plus,dotcolour,beta,,,19,18,V,R,
637,7,7,15,5,36,44,350,['n'],1,right,['0'],6,379,[-0.02425961],91,44,hard,plus,dotcolour,beta,,,19,18,V,R,
638,8,8,15,5,44,36,433,['n'],0,left,['9'],5,193,[-0.04750744],99,44,hard,plus,dotcolour,beta,,,19,18,V,R,
639,9,9,15,5,44,36,532,['n'],0,left,['0'],6,218,[-0.03270655],97,44,hard,plus,dotcolour,beta,,,19,18,V,R,
640,10,10,15,5,27,53,533,['n'],1,right,['2'],2,1435,[-0.24402889],99,53,easy,plus,dotcolour,beta,,,19,18,V,R,
641,11,11,15,5,36,44,949,['n'],1,right,['9'],5,105,[-0.10937954],100,44,hard,plus,dotcolour,beta,,,19,18,V,R,
642,12,12,15,5,44,36,399,['c'],1,left,['2'],2,268,[-0.01092077],83,44,hard,plus,dotcolour,beta,,,19,18,V,R,
643,13,13,15,5,53,27,334,['n'],0,left,['9'],5,131,[-0.03561574],99,53,easy,plus,dotcolour,beta,,,19,18,V,R,
644,14,14,15,5,36,44,398,['n'],1,right,['0'],6,213,[-0.05914082],99,44,hard,plus,dotcolour,beta,,,19,18,V,R,
645,15,15,15,5,33,47,632,['c'],0,right,['2'],2,290,[0.12174099],100,47,medium,plus,dotcolour,beta,,,19,18,V,R,
646,16,16,15,5,33,47,716,['n'],1,right,['9'],5,104,[-0.06579873],100,47,medium,plus,dotcolour,beta,,,19,18,V,R,
647,17,17,15,5,27,53,784,['n'],1,right,['9'],5,171,[-0.13946426],100,53,easy,plus,dotcolour,beta,,,19,18,V,R,
648,18,18,15,5,36,44,2535,['n'],1,right,['0'],6,261,[-0.04437989],97,44,hard,plus,dotcolour,beta,,,19,18,V,R,
649,19,19,15,5,44,36,783,['c'],1,left,['9'],5,362,[0.05358973],96,44,hard,plus,dotcolour,beta,,,19,18,V,R,
650,20,20,15,5,36,44,866,['c'],0,right,['9'],5,175,[0.05980889],99,44,hard,plus,dotcolour,beta,,,19,18,V,R,
651,21,21,15,5,33,47,1199,['c'],0,right,['9'],5,486,[-0.03434398],63,47,medium,plus,dotcolour,beta,,,19,18,V,R,
652,22,22,15,5,53,27,633,['c'],1,left,['0'],6,199,[0.15758255],100,53,easy,plus,dotcolour,beta,,,19,18,V,R,
653,23,23,15,5,27,53,883,['n'],1,right,['9'],5,186,[-0.14268903],100,53,easy,plus,dotcolour,beta,,,19,18,V,R,
654,24,24,15,5,33,47,967,['c'],0,right,['9'],5,203,[0.08050438],100,47,medium,plus,dotcolour,beta,,,19,18,V,R,
655,25,25,15,5,33,47,733,['c'],0,right,['9'],5,324,[0.01615334],91,47,medium,plus,dotcolour,beta,,,19,18,V,R,
656,26,26,15,5,27,53,5006,['n'],1,right,['9'],5,1362,[-0.10368171],92,53,easy,plus,dotcolour,beta,,,19,18,V,R,
657,27,27,15,5,36,44,699,['n'],1,right,['0'],6,204,[-0.09967215],100,44,hard,plus,dotcolour,beta,,,19,18,V,R,
658,28,28,15,5,47,33,349,['n'],0,left,['1'],1,469,[0.08259049],33,47,medium,plus,dotcolour,beta,,,19,18,V,R,
659,29,29,15,5,47,33,901,['n'],0,left,['0'],6,205,[-0.05203467],99,47,medium,plus,dotcolour,beta,,,19,18,V,R,
660,30,30,15,5,47,33,651,['c'],1,left,['2'],2,322,[0.20020838],100,47,medium,plus,dotcolour,beta,,,19,18,V,R,
661,31,31,15,5,44,36,899,['c'],1,left,['2'],2,239,[0.06416401],99,44,hard,plus,dotcolour,beta,,,19,18,V,R,
662,32,32,15,5,44,36,533,['c'],1,left,['2'],2,303,[0.07294445],99,44,hard,plus,dotcolour,beta,,,19,18,V,R,
663,33,33,15,5,33,47,883,['c'],0,right,['8'],4,2158,[-0.17134654],19,47,medium,plus,dotcolour,beta,,,19,18,V,R,
664,34,34,15,5,53,27,669,['n'],0,left,['8'],4,2418,[0.23719973],11,53,easy,plus,dotcolour,beta,,,19,18,V,R,
665,35,35,15,5,36,44,2151,['n'],1,right,['8'],4,174,[-0.11678584],100,44,hard,plus,dotcolour,beta,,,19,18,V,R,
666,36,36,15,5,53,27,1986,['n'],0,left,['8'],4,125,[-0.04853176],100,53,easy,plus,dotcolour,beta,,,19,18,V,R,
667,37,37,15,5,53,27,833,['c'],1,left,['9'],5,397,[0.10697675],99,53,easy,plus,dotcolour,beta,,,19,18,V,R,
668,38,38,15,5,53,27,565,['c'],1,left,['9'],5,165,[0.08238503],100,53,easy,plus,dotcolour,beta,,,19,18,V,R,
669,39,39,15,5,47,33,618,['c'],1,left,['9'],5,205,[0.12609953],100,47,medium,plus,dotcolour,beta,,,19,18,V,R,
670,40,40,15,5,33,47,532,['c'],0,right,['9'],5,175,[0.10374144],100,47,medium,plus,dotcolour,beta,,,19,18,V,R,
671,41,41,15,5,53,27,398,['c'],1,left,['9'],5,167,[0.0538448],99,53,easy,plus,dotcolour,beta,,,19,18,V,R,
672,42,0,16,5,44,36,2053,['c'],1,left,['1'],1,443,[0.09615645],98,44,hard,plus,dotcolour,beta,,,19,18,V,R,
673,43,1,16,5,27,53,784,['n'],1,right,['8'],4,152,[-0.09228803],100,53,easy,plus,dotcolour,beta,,,19,18,V,R,
674,44,2,16,5,27,53,482,['n'],1,right,['8'],4,198,[-0.08777318],100,53,easy,plus,dotcolour,beta,,,19,18,V,R,
675,45,3,16,5,44,36,283,['n'],0,left,['8'],4,170,[-0.07993126],100,44,hard,plus,dotcolour,beta,,,19,18,V,R,
676,46,4,16,5,44,36,366,['n'],0,left,['8'],4,236,[-0.08314127],99,44,hard,plus,dotcolour,beta,,,19,18,V,R,
677,47,5,16,5,33,47,567,['n'],1,right,['8'],4,146,[-0.10691804],100,47,medium,plus,dotcolour,beta,,,19,18,V,R,
678,48,6,16,5,27,53,216,['n'],1,right,['8'],4,171,[-0.01737963],96,53,easy,plus,dotcolour,beta,,,19,18,V,R,
679,49,7,16,5,47,33,351,['n'],0,left,['8'],4,125,[-0.07751898],100,47,medium,plus,dotcolour,beta,,,19,18,V,R,
680,50,8,16,5,36,44,365,['n'],1,right,['8'],4,192,[-0.11869846],100,44,hard,plus,dotcolour,beta,,,19,18,V,R,
681,51,9,16,5,47,33,251,['n'],0,left,['8'],4,1237,[-0.19014612],98,47,medium,plus,dotcolour,beta,,,19,18,V,R,
682,52,10,16,5,44,36,299,['n'],0,left,['8'],4,142,[-0.04721281],99,44,hard,plus,dotcolour,beta,,,19,18,V,R,
683,53,11,16,5,47,33,48,['n'],0,left,['8'],4,15,[-0.0823879],100,47,medium,plus,dotcolour,beta,,,19,18,V,R,
684,54,12,16,5,44,36,248,['c'],1,left,['2'],2,244,[0.02422479],95,44,hard,plus,dotcolour,beta,,,19,18,V,R,
685,55,13,16,5,44,36,1151,['n'],0,left,['8'],4,242,[-0.04095318],97,44,hard,plus,dotcolour,beta,,,19,18,V,R,
686,56,14,16,5,27,53,365,['n'],1,right,['8'],4,89,[-0.10959168],100,53,easy,plus,dotcolour,beta,,,19,18,V,R,
687,57,15,16,5,27,53,1151,['n'],1,right,['8'],4,117,[-0.15055806],100,53,easy,plus,dotcolour,beta,,,19,18,V,R,
688,58,16,16,5,33,47,3319,['n'],1,right,['8'],4,185,[-0.11880403],100,47,medium,plus,dotcolour,beta,,,19,18,V,R,
689,59,17,16,5,36,44,120,['n'],1,right,['9'],5,113,[-0.07725862],100,44,hard,plus,dotcolour,beta,,,19,18,V,R,
690,60,18,16,5,36,44,115,['n'],1,right,['9'],5,52,[-0.0904236],100,44,hard,plus,dotcolour,beta,,,19,18,V,R,
691,61,19,16,5,36,44,41,['n'],1,right,['9'],5,161,[-0.122686],100,44,hard,plus,dotcolour,beta,,,19,18,V,R,
692,62,20,16,5,33,47,266,['n'],1,right,['9'],5,223,[-0.12035837],100,47,medium,plus,dotcolour,beta,,,19,18,V,R,
693,63,21,16,5,33,47,551,['c'],0,right,['1'],1,439,[0.07515219],97,47,medium,plus,dotcolour,beta,,,19,18,V,R,
694,64,22,16,5,53,27,500,['c'],1,left,['2'],2,648,[0.15425311],99,53,easy,plus,dotcolour,beta,,,19,18,V,R,
695,65,23,16,5,27,53,300,['n'],1,right,['8'],4,224,[-0.04500018],98,53,easy,plus,dotcolour,beta,,,19,18,V,R,
696,66,24,16,5,53,27,265,['c'],1,left,['2'],2,147,[0.20724572],100,53,easy,plus,dotcolour,beta,,,19,18,V,R,
697,67,25,16,5,47,33,216,['n'],0,left,['8'],4,109,[-0.0992915],100,47,medium,plus,dotcolour,beta,,,19,18,V,R,
698,68,26,16,5,47,33,483,['c'],1,left,['2'],2,188,[0.15781007],100,47,medium,plus,dotcolour,beta,,,19,18,V,R,
699,69,27,16,5,53,27,1552,['n'],0,left,['8'],4,181,[-0.05192109],99,53,easy,plus,dotcolour,beta,,,19,18,V,R,
700,70,28,16,5,33,47,1334,['c'],0,right,['2'],2,502,[-0.06101183],47,47,medium,plus,dotcolour,beta,,,19,18,V,R,
701,71,29,16,5,36,44,4137,['c'],0,right,['2'],2,208,[0.14432812],100,44,hard,plus,dotcolour,beta,,,19,18,V,R,
702,72,30,16,5,33,47,299,['n'],1,right,['9'],5,139,[-0.09877509],100,47,medium,plus,dotcolour,beta,,,19,18,V,R,
703,73,31,16,5,27,53,833,['n'],1,right,['9'],5,290,[-0.15066692],100,53,easy,plus,dotcolour,beta,,,19,18,V,R,
704,74,32,16,5,36,44,767,['n'],1,right,['9'],5,135,[-0.09905896],100,44,hard,plus,dotcolour,beta,,,19,18,V,R,
705,75,33,16,5,53,27,448,['n'],0,left,['9'],5,127,[-0.04403025],99,53,easy,plus,dotcolour,beta,,,19,18,V,R,
706,76,34,16,5,44,36,266,['n'],0,left,['9'],5,167,[-0.10453065],100,44,hard,plus,dotcolour,beta,,,19,18,V,R,
707,77,35,16,5,33,47,216,['n'],1,right,['9'],5,199,[-0.01318395],94,47,medium,plus,dotcolour,beta,,,19,18,V,R,
708,78,36,16,5,53,27,333,['c'],1,left,['3'],3,224,[0.02868501],96,53,easy,plus,dotcolour,beta,,,19,18,V,R,
709,79,37,16,5,47,33,300,['c'],1,left,['3'],3,130,[0.06115015],100,47,medium,plus,dotcolour,beta,,,19,18,V,R,
710,80,38,16,5,53,27,600,['c'],1,left,['9'],5,2164,[0.27248733],98,53,easy,plus,dotcolour,beta,,,19,18,V,R,
711,81,39,16,5,36,44,466,['n'],1,right,['9'],5,71,[-0.0802317],100,44,hard,plus,dotcolour,beta,,,19,18,V,R,
712,82,40,16,5,53,27,716,['c'],1,left,['1'],1,295,[0.08638291],99,53,easy,plus,dotcolour,beta,,,19,18,V,R,
713,83,41,16,5,47,33,433,['c'],1,left,['1'],1,224,[0.13776229],100,47,medium,plus,dotcolour,beta,,,19,18,V,R,
714,84,0,17,5,53,27,1118,['c'],1,left,['1'],1,202,[0.08993228],100,53,easy,plus,dotcolour,beta,,,19,18,V,R,
715,85,1,17,5,53,27,350,['n'],0,left,['9'],5,203,[-0.00136052],91,53,easy,plus,dotcolour,beta,,,19,18,V,R,
716,86,2,17,5,36,44,299,['n'],1,right,['9'],5,118,[-0.05588651],100,44,hard,plus,dotcolour,beta,,,19,18,V,R,
717,87,3,17,5,27,53,80,['n'],1,right,['9'],5,57,[-0.0773099],100,53,easy,plus,dotcolour,beta,,,19,18,V,R,
718,88,4,17,5,27,53,267,['n'],1,right,['9'],5,115,[-0.09677123],100,53,easy,plus,dotcolour,beta,,,19,18,V,R,
719,89,5,17,5,47,33,351,['n'],0,left,['9'],5,1999,[0.05561765],50,47,medium,plus,dotcolour,beta,,,19,18,V,R,
720,90,6,17,5,36,44,1919,['n'],1,right,['9'],5,158,[-0.08542958],100,44,hard,plus,dotcolour,beta,,,19,18,V,R,
721,91,7,17,5,27,53,334,['c'],0,right,['2'],2,233,[-0.02069597],79,53,easy,plus,dotcolour,beta,,,19,18,V,R,
722,92,8,17,5,53,27,250,['n'],0,left,['9'],5,229,[0.00939543],85,53,easy,plus,dotcolour,beta,,,19,18,V,R,
723,93,9,17,5,44,36,334,['n'],0,left,['9'],5,158,[-0.01361536],96,44,hard,plus,dotcolour,beta,,,19,18,V,R,
724,94,10,17,5,44,36,349,['n'],0,left,['0'],6,345,[-0.09077985],99,44,hard,plus,dotcolour,beta,,,19,18,V,R,
725,95,11,17,5,27,53,178,['c'],0,right,['1'],1,202,[0.03138272],97,53,easy,plus,dotcolour,beta,,,19,18,V,R,
726,96,12,17,5,53,27,89,['n'],0,left,['9'],5,33,[-0.07325906],100,53,easy,plus,dotcolour,beta,,,19,18,V,R,
727,97,13,17,5,44,36,432,['c'],1,left,['2'],2,198,[0.08249966],100,44,hard,plus,dotcolour,beta,,,19,18,V,R,
728,98,14,17,5,44,36,335,['n'],0,left,['9'],5,136,[0.01745485],87,44,hard,plus,dotcolour,beta,,,19,18,V,R,
729,99,15,17,5,36,44,800,['c'],0,right,['2'],2,362,[0.10945854],99,44,hard,plus,dotcolour,beta,,,19,18,V,R,
730,100,16,17,5,47,33,533,['n'],0,left,['9'],5,116,[-0.09815193],100,47,medium,plus,dotcolour,beta,,,19,18,V,R,
731,101,17,17,5,36,44,332,['n'],1,right,['0'],6,706,[0.06764717],44,44,hard,plus,dotcolour,beta,,,19,18,V,R,
732,102,18,17,5,47,33,682,['c'],1,left,['9'],5,632,[0.16415919],99,47,medium,plus,dotcolour,beta,,,19,18,V,R,
733,103,19,17,5,36,44,751,['n'],1,right,['9'],5,127,[-0.02881467],99,44,hard,plus,dotcolour,beta,,,19,18,V,R,
734,104,20,17,5,44,36,2302,['n'],0,left,['9'],5,115,[-0.03435535],99,44,hard,plus,dotcolour,beta,,,19,18,V,R,
735,105,21,17,5,53,27,334,['n'],0,left,['9'],5,112,[-0.03997632],99,53,easy,plus,dotcolour,beta,,,19,18,V,R,
736,106,22,17,5,33,47,234,['n'],1,right,['9'],5,90,[-0.06504488],100,47,medium,plus,dotcolour,beta,,,19,18,V,R,
737,107,23,17,5,27,53,333,['n'],1,right,['3'],3,472,[-0.22950864],100,53,easy,plus,dotcolour,beta,,,19,18,V,R,
738,108,24,17,5,33,47,1449,['n'],1,right,['9'],5,161,[-0.09502014],100,47,medium,plus,dotcolour,beta,,,19,18,V,R,
739,109,25,17,5,47,33,2952,['n'],0,left,['9'],5,113,[-0.07179692],100,47,medium,plus,dotcolour,beta,,,19,18,V,R,
740,110,26,17,5,36,44,317,['n'],1,right,['9'],5,871,[-0.12608114],97,44,hard,plus,dotcolour,beta,,,19,18,V,R,
741,111,27,17,5,33,47,267,['n'],1,right,['9'],5,175,[-0.03925554],98,47,medium,plus,dotcolour,beta,,,19,18,V,R,
742,112,28,17,5,33,47,399,['n'],1,right,['9'],5,135,[-0.11144198],100,47,medium,plus,dotcolour,beta,,,19,18,V,R,
743,113,29,17,5,47,33,384,['n'],0,left,['9'],5,122,[-0.13139235],100,47,medium,plus,dotcolour,beta,,,19,18,V,R,
744,114,30,17,5,27,53,951,['n'],1,right,['9'],5,142,[-0.02407477],98,53,easy,plus,dotcolour,beta,,,19,18,V,R,
745,115,31,17,5,33,47,435,['n'],1,right,['9'],5,126,[-0.06458636],100,47,medium,plus,dotcolour,beta,,,19,18,V,R,
746,116,32,17,5,33,47,283,['n'],1,right,['9'],5,84,[0.00028649],97,47,medium,plus,dotcolour,beta,,,19,18,V,R,
747,117,33,17,5,27,53,265,['n'],1,right,['9'],5,182,[-0.07536631],100,53,easy,plus,dotcolour,beta,,,19,18,V,R,
748,118,34,17,5,36,44,333,['c'],0,right,['2'],2,193,[0.00527787],92,44,hard,plus,dotcolour,beta,,,19,18,V,R,
749,119,35,17,5,44,36,315,['n'],0,left,['9'],5,155,[-0.10714379],100,44,hard,plus,dotcolour,beta,,,19,18,V,R,
750,120,36,17,5,47,33,283,['n'],0,left,['9'],5,105,[0.00222873],95,47,medium,plus,dotcolour,beta,,,19,18,V,R,
751,121,37,17,5,33,47,583,['n'],1,right,['9'],5,116,[-0.0745389],100,47,medium,plus,dotcolour,beta,,,19,18,V,R,
752,122,38,17,5,44,36,284,['n'],0,left,['9'],5,148,[-0.0342831],99,44,hard,plus,dotcolour,beta,,,19,18,V,R,
753,123,39,17,5,53,27,198,['n'],0,left,['9'],5,117,[-0.01486001],98,53,easy,plus,dotcolour,beta,,,19,18,V,R,
754,124,40,17,5,47,33,218,['n'],0,left,['9'],5,151,[-0.10205707],100,47,medium,plus,dotcolour,beta,,,19,18,V,R,
755,125,41,17,5,53,27,232,['n'],0,left,['9'],5,95,[-0.05334268],100,53,easy,plus,dotcolour,beta,,,19,18,V,R,
,,,,,,,,,,,,,,,,,,,,,1,"ja, ik kreeg soms een 100 procent kans dat mijn antwoord correct was terwijl da
t ik dan per ongeluk een foute kleur had aangeduid en als ik daarna nog eens ex
press een foute kleur deed kreeg ik opnieuw 100 procent precies om aan te moedi
gen te blijven duwen op de knop die je fout had ingetikt   ",19,18,V,R,
,,,,,,,,,,,,,,,,,,,,,2,['f'],19,18,V,R,
,,,,,,,,,,,,,,,,,,,,,3,['f'],19,18,V,R,
,,,,,,,,,,,,,,,,,,,,,5,"['3', '5']",19,18,V,R,
