trial,withinphasetrial,withinblocktrial,block,phase,dotsLeft,dotsRight,rt,resp,cor,cresp,conf_press,cj,RTconf,ev,fb,diff,difflevel,condition,task,manip,questionID,questionResp,sub,age,gender,handedness,
0,0,0,0,0,47,33,1283,['n'],0,left,['2'],5,1743,[0.13049478],3,47,medium,plus,dotcolour,alfa,,,96,20,V,R,
1,1,1,0,0,44,36,1150,['c'],1,left,['2'],5,1685,[0.30964775],100,44,hard,plus,dotcolour,alfa,,,96,20,V,R,
2,2,2,0,0,44,36,1067,['c'],1,left,['2'],5,1015,[0.04038678],81,44,hard,plus,dotcolour,alfa,,,96,20,V,R,
3,3,3,0,0,47,33,850,['n'],0,left,['3'],4,1813,[0.22538564],0,47,medium,plus,dotcolour,alfa,,,96,20,V,R,
4,4,4,0,0,27,53,650,['n'],1,right,['2'],5,1075,[-0.10631566],98,53,easy,plus,dotcolour,alfa,,,96,20,V,R,
5,5,5,0,0,47,33,1000,['c'],1,left,['1'],6,1785,[0.19046941],99,47,medium,plus,dotcolour,alfa,,,96,20,V,R,
6,6,6,0,0,53,27,616,['c'],1,left,['2'],5,770,[0.32906382],100,53,easy,plus,dotcolour,alfa,,,96,20,V,R,
7,7,7,0,0,33,47,767,['n'],1,right,['2'],5,669,[-0.26555623],100,47,medium,plus,dotcolour,alfa,,,96,20,V,R,
8,8,8,0,0,53,27,1034,['c'],1,left,['2'],5,585,[0.18688874],100,53,easy,plus,dotcolour,alfa,,,96,20,V,R,
9,9,9,0,0,33,47,501,['n'],1,right,['3'],4,1072,[-0.27138073],100,47,medium,plus,dotcolour,alfa,,,96,20,V,R,
10,10,10,0,0,36,44,650,['n'],1,right,['3'],4,556,[0.01515842],32,44,hard,plus,dotcolour,alfa,,,96,20,V,R,
11,11,11,0,0,33,47,783,['n'],1,right,['8'],3,887,[-0.2139303],100,47,medium,plus,dotcolour,alfa,,,96,20,V,R,
12,12,12,0,0,33,47,533,['c'],0,right,['3'],4,815,[-0.12378724],1,47,medium,plus,dotcolour,alfa,,,96,20,V,R,
13,13,13,0,0,44,36,800,['c'],1,left,['2'],5,1088,[0.0066118],56,44,hard,plus,dotcolour,alfa,,,96,20,V,R,
14,14,14,0,0,36,44,1000,['n'],1,right,['2'],5,549,[-0.1408598],100,44,hard,plus,dotcolour,alfa,,,96,20,V,R,
15,15,15,0,0,44,36,800,['c'],1,left,['8'],3,1832,[0.01924881],63,44,hard,plus,dotcolour,alfa,,,96,20,V,R,
16,16,16,0,0,27,53,866,['n'],1,right,['2'],5,925,[-0.16777958],100,53,easy,plus,dotcolour,alfa,,,96,20,V,R,
17,17,17,0,0,44,36,583,['c'],1,left,['2'],5,642,[0.05653644],93,44,hard,plus,dotcolour,alfa,,,96,20,V,R,
18,18,18,0,0,27,53,583,['n'],1,right,['2'],5,714,[-0.09161402],98,53,easy,plus,dotcolour,alfa,,,96,20,V,R,
19,19,19,0,0,53,27,817,['c'],1,left,['8'],3,646,[0.21795078],100,53,easy,plus,dotcolour,alfa,,,96,20,V,R,
20,20,20,0,0,36,44,1167,['n'],1,right,['8'],3,798,[-0.09508522],98,44,hard,plus,dotcolour,alfa,,,96,20,V,R,
21,21,21,0,0,27,53,934,['n'],1,right,['2'],5,555,[-0.20840901],100,53,easy,plus,dotcolour,alfa,,,96,20,V,R,
22,22,22,0,0,44,36,650,['n'],0,left,['2'],5,603,[0.00392526],45,44,hard,plus,dotcolour,alfa,,,96,20,V,R,
23,23,23,0,0,33,47,617,['n'],1,right,['8'],3,851,[-0.18766111],100,47,medium,plus,dotcolour,alfa,,,96,20,V,R,
24,24,24,0,0,44,36,1267,['n'],0,left,['8'],3,783,[0.01664005],34,44,hard,plus,dotcolour,alfa,,,96,20,V,R,
25,25,25,0,0,47,33,684,['c'],1,left,['3'],4,702,[0.06363723],94,47,medium,plus,dotcolour,alfa,,,96,20,V,R,
26,26,26,0,0,36,44,634,['n'],1,right,['2'],5,754,[-0.0014962],52,44,hard,plus,dotcolour,alfa,,,96,20,V,R,
27,27,27,0,0,27,53,617,['n'],1,right,['2'],5,597,[-0.21868728],100,53,easy,plus,dotcolour,alfa,,,96,20,V,R,
28,28,28,0,0,36,44,500,['n'],1,right,['3'],4,594,[-0.18812944],100,44,hard,plus,dotcolour,alfa,,,96,20,V,R,
29,29,29,0,0,47,33,566,['n'],0,left,['3'],4,356,[-0.0700928],99,47,medium,plus,dotcolour,alfa,,,96,20,V,R,
30,30,30,0,0,27,53,832,['n'],1,right,['2'],5,901,[-0.20387817],100,53,easy,plus,dotcolour,alfa,,,96,20,V,R,
31,31,31,0,0,53,27,717,['c'],1,left,['8'],3,686,[0.18662639],100,53,easy,plus,dotcolour,alfa,,,96,20,V,R,
32,32,32,0,0,53,27,1267,['c'],1,left,['3'],4,729,[0.25897527],100,53,easy,plus,dotcolour,alfa,,,96,20,V,R,
33,33,33,0,0,53,27,600,['n'],0,left,['8'],3,701,[0.06934871],5,53,easy,plus,dotcolour,alfa,,,96,20,V,R,
34,34,34,0,0,47,33,617,['c'],1,left,['3'],4,673,[0.15282613],100,47,medium,plus,dotcolour,alfa,,,96,20,V,R,
35,35,35,0,0,36,44,1550,['c'],0,right,['2'],5,625,[-0.02474738],24,44,hard,plus,dotcolour,alfa,,,96,20,V,R,
36,36,36,0,0,36,44,733,['n'],1,right,['8'],3,580,[0.00702694],42,44,hard,plus,dotcolour,alfa,,,96,20,V,R,
37,37,37,0,0,47,33,883,['c'],1,left,['8'],3,563,[0.07607354],97,47,medium,plus,dotcolour,alfa,,,96,20,V,R,
38,38,38,0,0,27,53,534,['n'],1,right,['3'],4,616,[-0.24454885],100,53,easy,plus,dotcolour,alfa,,,96,20,V,R,
39,39,39,0,0,53,27,649,['c'],1,left,['2'],5,455,[0.23845759],100,53,easy,plus,dotcolour,alfa,,,96,20,V,R,
40,40,40,0,0,33,47,583,['n'],1,right,['8'],3,470,[-0.15845475],100,47,medium,plus,dotcolour,alfa,,,96,20,V,R,
41,41,41,0,0,33,47,550,['n'],1,right,['8'],3,647,[-0.14278628],100,47,medium,plus,dotcolour,alfa,,,96,20,V,R,
42,42,0,1,0,44,36,584,['n'],0,left,['8'],3,812,[0.06635674],7,44,hard,plus,dotcolour,alfa,,,96,20,V,R,
43,43,1,1,0,53,27,567,['c'],1,left,['2'],5,598,[0.21307166],100,53,easy,plus,dotcolour,alfa,,,96,20,V,R,
44,44,2,1,0,27,53,534,['n'],1,right,['2'],5,466,[-0.09555437],99,53,easy,plus,dotcolour,alfa,,,96,20,V,R,
45,45,3,1,0,33,47,799,['n'],1,right,['2'],5,465,[-0.05846399],96,47,medium,plus,dotcolour,alfa,,,96,20,V,R,
46,46,4,1,0,44,36,467,['c'],1,left,['3'],4,588,[0.06963223],96,44,hard,plus,dotcolour,alfa,,,96,20,V,R,
47,47,5,1,0,44,36,650,['n'],0,left,['2'],5,628,[-0.05057743],91,44,hard,plus,dotcolour,alfa,,,96,20,V,R,
48,48,6,1,0,27,53,584,['n'],1,right,['2'],5,637,[-0.11496953],99,53,easy,plus,dotcolour,alfa,,,96,20,V,R,
49,49,7,1,0,27,53,499,['c'],0,right,['8'],3,704,[-0.0014796],48,53,easy,plus,dotcolour,alfa,,,96,20,V,R,
50,50,8,1,0,36,44,783,['n'],1,right,['3'],4,1086,[-0.24431609],100,44,hard,plus,dotcolour,alfa,,,96,20,V,R,
51,51,9,1,0,53,27,784,['c'],1,left,['2'],5,483,[0.27842581],100,53,easy,plus,dotcolour,alfa,,,96,20,V,R,
52,52,10,1,0,27,53,616,['n'],1,right,['2'],5,554,[-0.23306054],100,53,easy,plus,dotcolour,alfa,,,96,20,V,R,
53,53,11,1,0,33,47,583,['n'],1,right,['2'],5,349,[-0.14583302],100,47,medium,plus,dotcolour,alfa,,,96,20,V,R,
54,54,12,1,0,47,33,750,['c'],1,left,['2'],5,690,[0.11918494],99,47,medium,plus,dotcolour,alfa,,,96,20,V,R,
55,55,13,1,0,36,44,634,['n'],1,right,['3'],4,966,[-0.1154662],99,44,hard,plus,dotcolour,alfa,,,96,20,V,R,
56,56,14,1,0,47,33,916,['c'],1,left,['3'],4,620,[0.29822199],100,47,medium,plus,dotcolour,alfa,,,96,20,V,R,
57,57,15,1,0,27,53,750,['n'],1,right,['2'],5,710,[-0.24061587],100,53,easy,plus,dotcolour,alfa,,,96,20,V,R,
58,58,16,1,0,36,44,717,['c'],0,right,['2'],5,478,[0.13966192],100,44,hard,plus,dotcolour,alfa,,,96,20,V,R,
59,59,17,1,0,36,44,733,['n'],1,right,['2'],5,655,[-0.05938788],93,44,hard,plus,dotcolour,alfa,,,96,20,V,R,
60,60,18,1,0,44,36,617,['n'],0,left,['2'],5,477,[0.11129665],0,44,hard,plus,dotcolour,alfa,,,96,20,V,R,
61,61,19,1,0,33,47,617,['n'],1,right,['2'],5,458,[-0.18457185],100,47,medium,plus,dotcolour,alfa,,,96,20,V,R,
62,62,20,1,0,47,33,783,['n'],0,left,['3'],4,410,[-0.01738467],73,47,medium,plus,dotcolour,alfa,,,96,20,V,R,
63,63,21,1,0,36,44,817,['c'],0,right,['2'],5,522,[-0.07068223],3,44,hard,plus,dotcolour,alfa,,,96,20,V,R,
64,64,22,1,0,47,33,534,['n'],0,left,['8'],3,896,[-0.10608951],98,47,medium,plus,dotcolour,alfa,,,96,20,V,R,
65,65,23,1,0,27,53,716,['n'],1,right,['3'],4,993,[-0.36093266],100,53,easy,plus,dotcolour,alfa,,,96,20,V,R,
66,66,24,1,0,47,33,1083,['n'],0,left,['3'],4,695,[0.05553661],8,47,medium,plus,dotcolour,alfa,,,96,20,V,R,
67,67,25,1,0,44,36,1132,['c'],1,left,['2'],5,567,[0.09390418],99,44,hard,plus,dotcolour,alfa,,,96,20,V,R,
68,68,26,1,0,36,44,966,['n'],1,right,['2'],5,707,[-0.14533139],100,44,hard,plus,dotcolour,alfa,,,96,20,V,R,
69,69,27,1,0,47,33,950,['c'],1,left,['3'],4,498,[0.18987316],100,47,medium,plus,dotcolour,alfa,,,96,20,V,R,
70,70,28,1,0,53,27,1034,['c'],1,left,['2'],5,1670,[0.46232732],100,53,easy,plus,dotcolour,alfa,,,96,20,V,R,
71,71,29,1,0,53,27,784,['c'],1,left,['2'],5,412,[0.10579681],100,53,easy,plus,dotcolour,alfa,,,96,20,V,R,
72,72,30,1,0,33,47,717,['n'],1,right,['3'],4,441,[-0.11737332],100,47,medium,plus,dotcolour,alfa,,,96,20,V,R,
73,73,31,1,0,33,47,1016,['n'],1,right,['1'],6,520,[-0.16977665],100,47,medium,plus,dotcolour,alfa,,,96,20,V,R,
74,74,32,1,0,53,27,1283,['c'],1,left,['1'],6,401,[0.12482697],100,53,easy,plus,dotcolour,alfa,,,96,20,V,R,
75,75,33,1,0,27,53,967,['n'],1,right,['2'],5,739,[-0.05916397],92,53,easy,plus,dotcolour,alfa,,,96,20,V,R,
76,76,34,1,0,36,44,684,['n'],1,right,['1'],6,651,[-0.07966599],97,44,hard,plus,dotcolour,alfa,,,96,20,V,R,
77,77,35,1,0,44,36,1317,['c'],1,left,['3'],4,838,[0.13148588],99,44,hard,plus,dotcolour,alfa,,,96,20,V,R,
78,78,36,1,0,47,33,1017,['n'],0,left,['3'],4,525,[-0.08259506],98,47,medium,plus,dotcolour,alfa,,,96,20,V,R,
79,79,37,1,0,53,27,767,['c'],1,left,['2'],5,570,[0.17576238],100,53,easy,plus,dotcolour,alfa,,,96,20,V,R,
80,80,38,1,0,44,36,900,['n'],0,left,['3'],4,520,[0.08230391],2,44,hard,plus,dotcolour,alfa,,,96,20,V,R,
81,81,39,1,0,53,27,1084,['c'],1,left,['2'],5,680,[0.11056317],99,53,easy,plus,dotcolour,alfa,,,96,20,V,R,
82,82,40,1,0,33,47,700,['n'],1,right,['2'],5,707,[-0.19547678],100,47,medium,plus,dotcolour,alfa,,,96,20,V,R,
83,83,41,1,0,33,47,618,['n'],1,right,['2'],5,631,[-0.09965318],99,47,medium,plus,dotcolour,alfa,,,96,20,V,R,
84,84,0,2,0,27,53,768,['n'],1,right,['2'],5,701,[-0.35600601],100,53,easy,plus,dotcolour,alfa,,,96,20,V,R,
85,85,1,2,0,27,53,584,['n'],1,right,['1'],6,603,[-0.21156756],100,53,easy,plus,dotcolour,alfa,,,96,20,V,R,
86,86,2,2,0,44,36,817,['c'],1,left,['2'],5,563,[0.2106969],100,44,hard,plus,dotcolour,alfa,,,96,20,V,R,
87,87,3,2,0,44,36,833,['c'],1,left,['2'],5,516,[0.1171647],100,44,hard,plus,dotcolour,alfa,,,96,20,V,R,
88,88,4,2,0,36,44,717,['n'],1,right,['3'],4,740,[-0.22183125],100,44,hard,plus,dotcolour,alfa,,,96,20,V,R,
89,89,5,2,0,53,27,1034,['c'],1,left,['2'],5,550,[0.10161698],99,53,easy,plus,dotcolour,alfa,,,96,20,V,R,
90,90,6,2,0,53,27,867,['c'],1,left,['2'],5,431,[0.14056842],100,53,easy,plus,dotcolour,alfa,,,96,20,V,R,
91,91,7,2,0,47,33,784,['c'],1,left,['2'],5,432,[0.11919623],100,47,medium,plus,dotcolour,alfa,,,96,20,V,R,
92,92,8,2,0,53,27,749,['c'],1,left,['2'],5,402,[0.12539052],100,53,easy,plus,dotcolour,alfa,,,96,20,V,R,
93,93,9,2,0,53,27,650,['c'],1,left,['2'],5,401,[0.1629424],100,53,easy,plus,dotcolour,alfa,,,96,20,V,R,
94,94,10,2,0,44,36,633,['c'],1,left,['2'],5,417,[0.19292392],100,44,hard,plus,dotcolour,alfa,,,96,20,V,R,
95,95,11,2,0,47,33,584,['c'],1,left,['2'],5,394,[0.04930795],94,47,medium,plus,dotcolour,alfa,,,96,20,V,R,
96,96,12,2,0,47,33,734,['c'],1,left,['2'],5,414,[0.10670445],100,47,medium,plus,dotcolour,alfa,,,96,20,V,R,
97,97,13,2,0,36,44,633,['c'],0,right,['8'],3,1269,[-0.05157107],16,44,hard,plus,dotcolour,alfa,,,96,20,V,R,
98,98,14,2,0,44,36,900,['n'],0,left,['2'],5,1464,[-0.0413156],77,44,hard,plus,dotcolour,alfa,,,96,20,V,R,
99,99,15,2,0,33,47,633,['n'],1,right,['1'],6,660,[-0.10643422],99,47,medium,plus,dotcolour,alfa,,,96,20,V,R,
100,100,16,2,0,33,47,834,['n'],1,right,['2'],5,258,[-0.12501575],100,47,medium,plus,dotcolour,alfa,,,96,20,V,R,
101,101,17,2,0,27,53,484,['n'],1,right,['1'],6,429,[-0.27787673],100,53,easy,plus,dotcolour,alfa,,,96,20,V,R,
102,102,18,2,0,36,44,733,['n'],1,right,['1'],6,487,[-0.12373072],100,44,hard,plus,dotcolour,alfa,,,96,20,V,R,
103,103,19,2,0,53,27,734,['c'],1,left,['2'],5,640,[0.10561119],99,53,easy,plus,dotcolour,alfa,,,96,20,V,R,
104,104,20,2,0,47,33,767,['c'],1,left,['2'],5,448,[0.0955107],99,47,medium,plus,dotcolour,alfa,,,96,20,V,R,
105,105,21,2,0,27,53,600,['n'],1,right,['2'],5,752,[-0.15390375],100,53,easy,plus,dotcolour,alfa,,,96,20,V,R,
106,106,22,2,0,36,44,850,['n'],1,right,['2'],5,272,[-0.16550839],100,44,hard,plus,dotcolour,alfa,,,96,20,V,R,
107,107,23,2,0,47,33,801,['c'],1,left,['2'],5,382,[0.10761477],100,47,medium,plus,dotcolour,alfa,,,96,20,V,R,
108,108,24,2,0,36,44,766,['c'],0,right,['2'],5,354,[0.06481807],98,44,hard,plus,dotcolour,alfa,,,96,20,V,R,
109,109,25,2,0,47,33,750,['c'],1,left,['2'],5,367,[0.13096426],100,47,medium,plus,dotcolour,alfa,,,96,20,V,R,
110,110,26,2,0,27,53,584,['n'],1,right,['2'],5,314,[0.04533352],5,53,easy,plus,dotcolour,alfa,,,96,20,V,R,
111,111,27,2,0,33,47,767,['n'],1,right,['2'],5,297,[-0.11480752],100,47,medium,plus,dotcolour,alfa,,,96,20,V,R,
112,112,28,2,0,36,44,767,['c'],0,right,['2'],5,471,[-0.01534791],31,44,hard,plus,dotcolour,alfa,,,96,20,V,R,
113,113,29,2,0,33,47,717,['n'],1,right,['2'],5,369,[-0.14799457],100,47,medium,plus,dotcolour,alfa,,,96,20,V,R,
114,114,30,2,0,53,27,883,['c'],1,left,['2'],5,392,[0.14947651],100,53,easy,plus,dotcolour,alfa,,,96,20,V,R,
115,115,31,2,0,47,33,733,['n'],0,left,['3'],4,684,[0.00651266],43,47,medium,plus,dotcolour,alfa,,,96,20,V,R,
116,116,32,2,0,36,44,733,['n'],1,right,['2'],5,492,[-0.07977104],98,44,hard,plus,dotcolour,alfa,,,96,20,V,R,
117,117,33,2,0,44,36,700,['n'],0,left,['3'],4,430,[-0.10260338],100,44,hard,plus,dotcolour,alfa,,,96,20,V,R,
118,118,34,2,0,27,53,483,['n'],1,right,['2'],5,650,[-0.31669305],100,53,easy,plus,dotcolour,alfa,,,96,20,V,R,
119,119,35,2,0,33,47,600,['n'],1,right,['2'],5,298,[-0.0728903],99,47,medium,plus,dotcolour,alfa,,,96,20,V,R,
120,120,36,2,0,44,36,783,['c'],1,left,['2'],5,384,[0.08882043],99,44,hard,plus,dotcolour,alfa,,,96,20,V,R,
121,121,37,2,0,53,27,768,['c'],1,left,['1'],6,452,[0.05514386],95,53,easy,plus,dotcolour,alfa,,,96,20,V,R,
122,122,38,2,0,27,53,600,['n'],1,right,['1'],6,427,[-0.11434629],100,53,easy,plus,dotcolour,alfa,,,96,20,V,R,
123,123,39,2,0,33,47,550,['n'],1,right,['1'],6,317,[-0.10444452],100,47,medium,plus,dotcolour,alfa,,,96,20,V,R,
124,124,40,2,0,44,36,750,['c'],1,left,['0'],1,1043,[0.21993005],100,44,hard,plus,dotcolour,alfa,,,96,20,V,R,
125,125,41,2,0,33,47,716,['n'],1,right,['1'],6,327,[-0.08674995],100,47,medium,plus,dotcolour,alfa,,,96,20,V,R,
126,0,0,3,1,27,53,618,['n'],1,right,['1'],6,439,[-0.17627837],92,53,easy,minus,dotcolour,alfa,,,96,20,V,R,
127,1,1,3,1,33,47,533,['n'],1,right,['1'],6,337,[-0.11795242],86,47,medium,minus,dotcolour,alfa,,,96,20,V,R,
128,2,2,3,1,33,47,634,['n'],1,right,['2'],5,308,[-0.17802252],95,47,medium,minus,dotcolour,alfa,,,96,20,V,R,
129,3,3,3,1,44,36,683,['n'],0,left,['3'],4,542,[0.11797725],19,44,hard,minus,dotcolour,alfa,,,96,20,V,R,
130,4,4,3,1,53,27,584,['c'],1,left,['1'],6,1017,[0.29340871],93,53,easy,minus,dotcolour,alfa,,,96,20,V,R,
131,5,5,3,1,53,27,784,['c'],1,left,['1'],6,442,[0.19619787],93,53,easy,minus,dotcolour,alfa,,,96,20,V,R,
132,6,6,3,1,47,33,584,['c'],1,left,['2'],5,402,[0.10855215],82,47,medium,minus,dotcolour,alfa,,,96,20,V,R,
133,7,7,3,1,36,44,1483,['n'],1,right,['9'],2,1705,[-0.13391039],72,44,hard,minus,dotcolour,alfa,,,96,20,V,R,
134,8,8,3,1,47,33,750,['c'],1,left,['3'],4,471,[0.17607239],91,47,medium,minus,dotcolour,alfa,,,96,20,V,R,
135,9,9,3,1,44,36,967,['n'],0,left,['3'],4,558,[-0.08010774],72,44,hard,minus,dotcolour,alfa,,,96,20,V,R,
136,10,10,3,1,27,53,667,['n'],1,right,['1'],6,326,[-0.0865639],80,53,easy,minus,dotcolour,alfa,,,96,20,V,R,
137,11,11,3,1,47,33,1033,['c'],1,left,['3'],4,433,[0.15804001],90,47,medium,minus,dotcolour,alfa,,,96,20,V,R,
138,12,12,3,1,47,33,817,['n'],0,left,['3'],4,416,[-0.08381323],76,47,medium,minus,dotcolour,alfa,,,96,20,V,R,
139,13,13,3,1,47,33,650,['n'],0,left,['3'],4,551,[-0.05552172],66,47,medium,minus,dotcolour,alfa,,,96,20,V,R,
140,14,14,3,1,53,27,999,['n'],0,left,['3'],4,563,[0.05466765],34,53,easy,minus,dotcolour,alfa,,,96,20,V,R,
141,15,15,3,1,36,44,801,['n'],1,right,['3'],4,701,[0.05600336],35,44,hard,minus,dotcolour,alfa,,,96,20,V,R,
142,16,16,3,1,27,53,667,['n'],1,right,['3'],4,400,[-0.15330411],90,53,easy,minus,dotcolour,alfa,,,96,20,V,R,
143,17,17,3,1,36,44,666,['n'],1,right,['3'],4,374,[-0.15571824],91,44,hard,minus,dotcolour,alfa,,,96,20,V,R,
144,18,18,3,1,27,53,634,['n'],1,right,['3'],4,391,[-0.10548541],82,53,easy,minus,dotcolour,alfa,,,96,20,V,R,
145,19,19,3,1,33,47,1100,['n'],1,right,['2'],5,556,[-0.09742952],76,47,medium,minus,dotcolour,alfa,,,96,20,V,R,
146,20,20,3,1,27,53,651,['n'],1,right,['3'],4,365,[-0.12020408],86,53,easy,minus,dotcolour,alfa,,,96,20,V,R,
147,21,21,3,1,44,36,1266,['c'],1,left,['2'],5,541,[0.0448415],63,44,hard,minus,dotcolour,alfa,,,96,20,V,R,
148,22,22,3,1,33,47,867,['n'],1,right,['3'],4,525,[-0.07941911],73,47,medium,minus,dotcolour,alfa,,,96,20,V,R,
149,23,23,3,1,47,33,883,['c'],1,left,['3'],4,430,[0.09808396],79,47,medium,minus,dotcolour,alfa,,,96,20,V,R,
150,24,24,3,1,53,27,599,['c'],1,left,['2'],5,511,[0.17112645],90,53,easy,minus,dotcolour,alfa,,,96,20,V,R,
151,25,25,3,1,36,44,667,['n'],1,right,['3'],4,304,[-0.03225998],63,44,hard,minus,dotcolour,alfa,,,96,20,V,R,
152,26,26,3,1,53,27,767,['c'],1,left,['2'],5,391,[0.10927926],83,53,easy,minus,dotcolour,alfa,,,96,20,V,R,
153,27,27,3,1,36,44,850,['c'],0,right,['2'],5,478,[0.03352548],61,44,hard,minus,dotcolour,alfa,,,96,20,V,R,
154,28,28,3,1,44,36,800,['c'],1,left,['2'],5,381,[0.06897857],73,44,hard,minus,dotcolour,alfa,,,96,20,V,R,
155,29,29,3,1,36,44,634,['n'],1,right,['2'],5,293,[-0.08813317],81,44,hard,minus,dotcolour,alfa,,,96,20,V,R,
156,30,30,3,1,33,47,734,['c'],0,right,['0'],1,845,[-0.16661341],16,47,medium,minus,dotcolour,alfa,,,96,20,V,R,
157,31,31,3,1,44,36,867,['n'],0,left,['0'],1,634,[0.03379843],41,44,hard,minus,dotcolour,alfa,,,96,20,V,R,
158,32,32,3,1,33,47,966,['n'],1,right,['2'],5,363,[-0.16413487],92,47,medium,minus,dotcolour,alfa,,,96,20,V,R,
159,33,33,3,1,36,44,1016,['n'],1,right,['2'],5,262,[0.04886963],30,44,hard,minus,dotcolour,alfa,,,96,20,V,R,
160,34,34,3,1,44,36,733,['c'],1,left,['2'],5,326,[0.02841929],61,44,hard,minus,dotcolour,alfa,,,96,20,V,R,
161,35,35,3,1,47,33,817,['c'],1,left,['2'],5,402,[0.20548645],95,47,medium,minus,dotcolour,alfa,,,96,20,V,R,
162,36,36,3,1,53,27,650,['c'],1,left,['2'],5,417,[0.15396897],90,53,easy,minus,dotcolour,alfa,,,96,20,V,R,
163,37,37,3,1,44,36,867,['c'],1,left,['2'],5,439,[0.06662229],71,44,hard,minus,dotcolour,alfa,,,96,20,V,R,
164,38,38,3,1,53,27,583,['c'],1,left,['2'],5,431,[0.04751861],66,53,easy,minus,dotcolour,alfa,,,96,20,V,R,
165,39,39,3,1,33,47,834,['n'],1,right,['2'],5,334,[-0.08084042],78,47,medium,minus,dotcolour,alfa,,,96,20,V,R,
166,40,40,3,1,27,53,650,['n'],1,right,['2'],5,272,[-0.09040602],83,53,easy,minus,dotcolour,alfa,,,96,20,V,R,
167,41,41,3,1,27,53,668,['n'],1,right,['2'],5,476,[-0.07018803],71,53,easy,minus,dotcolour,alfa,,,96,20,V,R,
168,42,0,4,1,53,27,800,['c'],1,left,['2'],5,624,[0.17326518],88,53,easy,minus,dotcolour,alfa,,,96,20,V,R,
169,43,1,4,1,44,36,667,['c'],1,left,['2'],5,389,[0.13353826],87,44,hard,minus,dotcolour,alfa,,,96,20,V,R,
170,44,2,4,1,47,33,633,['n'],0,left,['8'],3,733,[0.11474479],23,47,medium,minus,dotcolour,alfa,,,96,20,V,R,
171,45,3,4,1,53,27,534,['c'],1,left,['3'],4,396,[0.13678263],88,53,easy,minus,dotcolour,alfa,,,96,20,V,R,
172,46,4,4,1,53,27,600,['c'],1,left,['3'],4,341,[0.12698075],88,53,easy,minus,dotcolour,alfa,,,96,20,V,R,
173,47,5,4,1,27,53,700,['n'],1,right,['3'],4,437,[-0.23106889],96,53,easy,minus,dotcolour,alfa,,,96,20,V,R,
174,48,6,4,1,33,47,633,['n'],1,right,['3'],4,411,[-0.03353954],62,47,medium,minus,dotcolour,alfa,,,96,20,V,R,
175,49,7,4,1,53,27,533,['c'],1,left,['2'],5,447,[0.23283067],96,53,easy,minus,dotcolour,alfa,,,96,20,V,R,
176,50,8,4,1,33,47,1000,['n'],1,right,['2'],5,366,[-0.10370142],82,47,medium,minus,dotcolour,alfa,,,96,20,V,R,
177,51,9,4,1,36,44,700,['c'],0,right,['2'],5,364,[0.07981165],77,44,hard,minus,dotcolour,alfa,,,96,20,V,R,
178,52,10,4,1,44,36,650,['c'],1,left,['2'],5,309,[0.05010392],69,44,hard,minus,dotcolour,alfa,,,96,20,V,R,
179,53,11,4,1,47,33,867,['c'],1,left,['2'],5,359,[0.04052638],65,47,medium,minus,dotcolour,alfa,,,96,20,V,R,
180,54,12,4,1,36,44,750,['c'],0,right,['8'],3,1084,[0.10718444],72,44,hard,minus,dotcolour,alfa,,,96,20,V,R,
181,55,13,4,1,33,47,900,['n'],1,right,['2'],5,421,[-0.08208824],76,47,medium,minus,dotcolour,alfa,,,96,20,V,R,
182,56,14,4,1,27,53,650,['n'],1,right,['2'],5,379,[-0.21562263],96,53,easy,minus,dotcolour,alfa,,,96,20,V,R,
183,57,15,4,1,47,33,551,['c'],1,left,['3'],4,423,[0.14276694],88,47,medium,minus,dotcolour,alfa,,,96,20,V,R,
184,58,16,4,1,53,27,599,['c'],1,left,['3'],4,343,[0.19405769],95,53,easy,minus,dotcolour,alfa,,,96,20,V,R,
185,59,17,4,1,44,36,499,['c'],1,left,['3'],4,767,[0.07526748],68,44,hard,minus,dotcolour,alfa,,,96,20,V,R,
186,60,18,4,1,47,33,967,['n'],0,left,['2'],5,347,[-0.08847625],79,47,medium,minus,dotcolour,alfa,,,96,20,V,R,
187,61,19,4,1,27,53,650,['n'],1,right,['2'],5,292,[-0.05622738],72,53,easy,minus,dotcolour,alfa,,,96,20,V,R,
188,62,20,4,1,47,33,968,['n'],0,left,['2'],5,371,[-0.03451217],62,47,medium,minus,dotcolour,alfa,,,96,20,V,R,
189,63,21,4,1,53,27,850,['c'],1,left,['2'],5,499,[0.15489809],88,53,easy,minus,dotcolour,alfa,,,96,20,V,R,
190,64,22,4,1,44,36,733,['n'],0,left,['2'],5,404,[-0.11261835],83,44,hard,minus,dotcolour,alfa,,,96,20,V,R,
191,65,23,4,1,33,47,600,['n'],1,right,['2'],5,542,[-0.14304176],85,47,medium,minus,dotcolour,alfa,,,96,20,V,R,
192,66,24,4,1,44,36,750,['n'],0,left,['2'],5,298,[-0.05532215],71,44,hard,minus,dotcolour,alfa,,,96,20,V,R,
193,67,25,4,1,27,53,617,['n'],1,right,['2'],5,311,[-0.09289774],82,53,easy,minus,dotcolour,alfa,,,96,20,V,R,
194,68,26,4,1,47,33,800,['c'],1,left,['2'],5,315,[0.20139104],96,47,medium,minus,dotcolour,alfa,,,96,20,V,R,
195,69,27,4,1,36,44,584,['n'],1,right,['2'],5,297,[-0.10300001],85,44,hard,minus,dotcolour,alfa,,,96,20,V,R,
196,70,28,4,1,53,27,817,['c'],1,left,['2'],5,333,[0.18246483],95,53,easy,minus,dotcolour,alfa,,,96,20,V,R,
197,71,29,4,1,36,44,766,['n'],1,right,['2'],5,299,[-0.01647717],57,44,hard,minus,dotcolour,alfa,,,96,20,V,R,
198,72,30,4,1,44,36,951,['n'],0,left,['2'],5,282,[-0.10108711],85,44,hard,minus,dotcolour,alfa,,,96,20,V,R,
199,73,31,4,1,33,47,834,['n'],1,right,['2'],5,279,[-0.09998016],85,47,medium,minus,dotcolour,alfa,,,96,20,V,R,
200,74,32,4,1,27,53,650,['n'],1,right,['2'],5,291,[-0.23713949],98,53,easy,minus,dotcolour,alfa,,,96,20,V,R,
201,75,33,4,1,47,33,683,['c'],1,left,['2'],5,317,[0.13014429],89,47,medium,minus,dotcolour,alfa,,,96,20,V,R,
202,76,34,4,1,27,53,533,['n'],1,right,['2'],5,292,[-0.11271244],87,53,easy,minus,dotcolour,alfa,,,96,20,V,R,
203,77,35,4,1,27,53,617,['n'],1,right,['2'],5,265,[-0.16935779],95,53,easy,minus,dotcolour,alfa,,,96,20,V,R,
204,78,36,4,1,36,44,966,['c'],0,right,['2'],5,329,[0.08413467],79,44,hard,minus,dotcolour,alfa,,,96,20,V,R,
205,79,37,4,1,36,44,850,['n'],1,right,['3'],4,675,[-0.14874406],84,44,hard,minus,dotcolour,alfa,,,96,20,V,R,
206,80,38,4,1,36,44,1051,['n'],1,right,['2'],5,304,[-0.0148137],56,44,hard,minus,dotcolour,alfa,,,96,20,V,R,
207,81,39,4,1,33,47,650,['n'],1,right,['2'],5,298,[-0.2189296],97,47,medium,minus,dotcolour,alfa,,,96,20,V,R,
208,82,40,4,1,33,47,1033,['c'],0,right,['8'],3,782,[-0.04572257],39,47,medium,minus,dotcolour,alfa,,,96,20,V,R,
209,83,41,4,1,44,36,1633,['c'],1,left,['8'],3,663,[0.19042994],89,44,hard,minus,dotcolour,alfa,,,96,20,V,R,
210,84,0,5,1,47,33,801,['c'],1,left,['3'],4,987,[0.21843118],88,47,medium,minus,dotcolour,alfa,,,96,20,V,R,
211,85,1,5,1,33,47,734,['n'],1,right,['2'],5,336,[-0.15348005],92,47,medium,minus,dotcolour,alfa,,,96,20,V,R,
212,86,2,5,1,27,53,583,['n'],1,right,['2'],5,636,[-0.21834599],92,53,easy,minus,dotcolour,alfa,,,96,20,V,R,
213,87,3,5,1,44,36,734,['c'],1,left,['2'],5,366,[0.06685004],73,44,hard,minus,dotcolour,alfa,,,96,20,V,R,
214,88,4,5,1,36,44,851,['n'],1,right,['3'],4,534,[-0.09215747],76,44,hard,minus,dotcolour,alfa,,,96,20,V,R,
215,89,5,5,1,36,44,900,['n'],1,right,['2'],5,326,[-0.05033151],69,44,hard,minus,dotcolour,alfa,,,96,20,V,R,
216,90,6,5,1,53,27,699,['c'],1,left,['2'],5,510,[0.14956437],87,53,easy,minus,dotcolour,alfa,,,96,20,V,R,
217,91,7,5,1,36,44,733,['n'],1,right,['2'],5,543,[-0.17230861],89,44,hard,minus,dotcolour,alfa,,,96,20,V,R,
218,92,8,5,1,47,33,868,['c'],1,left,['2'],5,519,[0.21992177],94,47,medium,minus,dotcolour,alfa,,,96,20,V,R,
219,93,9,5,1,36,44,700,['n'],1,right,['2'],5,279,[-0.07053577],77,44,hard,minus,dotcolour,alfa,,,96,20,V,R,
220,94,10,5,1,36,44,701,['n'],1,right,['2'],5,378,[-0.0538597],69,44,hard,minus,dotcolour,alfa,,,96,20,V,R,
221,95,11,5,1,33,47,667,['n'],1,right,['2'],5,281,[-0.10642322],86,47,medium,minus,dotcolour,alfa,,,96,20,V,R,
222,96,12,5,1,44,36,801,['c'],1,left,['2'],5,399,[0.17047665],92,44,hard,minus,dotcolour,alfa,,,96,20,V,R,
223,97,13,5,1,27,53,867,['n'],1,right,['2'],5,341,[-0.17934753],94,53,easy,minus,dotcolour,alfa,,,96,20,V,R,
224,98,14,5,1,33,47,584,['n'],1,right,['2'],5,258,[-0.00683841],53,47,medium,minus,dotcolour,alfa,,,96,20,V,R,
225,99,15,5,1,27,53,583,['n'],1,right,['2'],5,225,[-0.16398721],96,53,easy,minus,dotcolour,alfa,,,96,20,V,R,
226,100,16,5,1,44,36,584,['c'],1,left,['2'],5,362,[0.1664091],92,44,hard,minus,dotcolour,alfa,,,96,20,V,R,
227,101,17,5,1,53,27,817,['c'],1,left,['2'],5,388,[0.13524248],88,53,easy,minus,dotcolour,alfa,,,96,20,V,R,
228,102,18,5,1,27,53,633,['n'],1,right,['2'],5,429,[-0.15229684],89,53,easy,minus,dotcolour,alfa,,,96,20,V,R,
229,103,19,5,1,53,27,800,['c'],1,left,['2'],5,340,[0.13669147],89,53,easy,minus,dotcolour,alfa,,,96,20,V,R,
230,104,20,5,1,44,36,601,['c'],1,left,['2'],5,368,[0.18818381],94,44,hard,minus,dotcolour,alfa,,,96,20,V,R,
231,105,21,5,1,44,36,651,['c'],1,left,['3'],4,376,[0.04736473],67,44,hard,minus,dotcolour,alfa,,,96,20,V,R,
232,106,22,5,1,33,47,650,['n'],1,right,['3'],4,497,[-0.11615553],82,47,medium,minus,dotcolour,alfa,,,96,20,V,R,
233,107,23,5,1,36,44,667,['n'],1,right,['2'],5,699,[-0.04700441],62,44,hard,minus,dotcolour,alfa,,,96,20,V,R,
234,108,24,5,1,27,53,667,['n'],1,right,['3'],4,438,[-0.1298368],85,53,easy,minus,dotcolour,alfa,,,96,20,V,R,
235,109,25,5,1,53,27,783,['c'],1,left,['2'],5,350,[0.06558827],73,53,easy,minus,dotcolour,alfa,,,96,20,V,R,
236,110,26,5,1,47,33,700,['c'],1,left,['2'],5,365,[0.12809484],87,47,medium,minus,dotcolour,alfa,,,96,20,V,R,
237,111,27,5,1,44,36,635,['n'],0,left,['2'],5,294,[-0.01458646],56,44,hard,minus,dotcolour,alfa,,,96,20,V,R,
238,112,28,5,1,27,53,584,['n'],1,right,['2'],5,268,[-0.1254227],90,53,easy,minus,dotcolour,alfa,,,96,20,V,R,
239,113,29,5,1,33,47,800,['c'],0,right,['2'],5,283,[0.08848654],82,47,medium,minus,dotcolour,alfa,,,96,20,V,R,
240,114,30,5,1,27,53,584,['n'],1,right,['2'],5,290,[-0.20689035],97,53,easy,minus,dotcolour,alfa,,,96,20,V,R,
241,115,31,5,1,47,33,668,['c'],1,left,['2'],5,316,[0.07014239],75,47,medium,minus,dotcolour,alfa,,,96,20,V,R,
242,116,32,5,1,53,27,783,['c'],1,left,['2'],5,314,[0.19087449],96,53,easy,minus,dotcolour,alfa,,,96,20,V,R,
243,117,33,5,1,47,33,850,['n'],0,left,['8'],3,436,[0.04153513],36,47,medium,minus,dotcolour,alfa,,,96,20,V,R,
244,118,34,5,1,36,44,766,['n'],1,right,['8'],3,310,[-0.03978481],66,44,hard,minus,dotcolour,alfa,,,96,20,V,R,
245,119,35,5,1,44,36,601,['c'],1,left,['2'],5,434,[0.10826325],81,44,hard,minus,dotcolour,alfa,,,96,20,V,R,
246,120,36,5,1,47,33,550,['c'],1,left,['3'],4,412,[0.26152204],98,47,medium,minus,dotcolour,alfa,,,96,20,V,R,
247,121,37,5,1,47,33,550,['c'],1,left,['3'],4,367,[0.12480223],86,47,medium,minus,dotcolour,alfa,,,96,20,V,R,
248,122,38,5,1,53,27,467,['c'],1,left,['3'],4,319,[0.24107433],98,53,easy,minus,dotcolour,alfa,,,96,20,V,R,
249,123,39,5,1,33,47,1084,['n'],1,right,['3'],4,848,[-0.09807611],72,47,medium,minus,dotcolour,alfa,,,96,20,V,R,
250,124,40,5,1,33,47,983,['n'],1,right,['0'],1,440,[-0.15500795],89,47,medium,minus,dotcolour,alfa,,,96,20,V,R,
251,125,41,5,1,53,27,734,['c'],1,left,['2'],5,498,[0.17727299],91,53,easy,minus,dotcolour,alfa,,,96,20,V,R,
252,0,0,6,2,44,36,1134,['c'],1,left,['2'],5,470,[0.12240143],100,44,hard,plus,dotcolour,alfa,,,96,20,V,R,
253,1,1,6,2,33,47,650,['n'],1,right,['1'],6,442,[0.00567229],42,47,medium,plus,dotcolour,alfa,,,96,20,V,R,
254,2,2,6,2,36,44,734,['n'],1,right,['2'],5,300,[-0.05008739],96,44,hard,plus,dotcolour,alfa,,,96,20,V,R,
255,3,3,6,2,33,47,567,['n'],1,right,['1'],6,403,[-0.07144676],98,47,medium,plus,dotcolour,alfa,,,96,20,V,R,
256,4,4,6,2,44,36,717,['c'],1,left,['1'],6,392,[0.11832664],100,44,hard,plus,dotcolour,alfa,,,96,20,V,R,
257,5,5,6,2,53,27,649,['c'],1,left,['2'],5,479,[0.11703826],100,53,easy,plus,dotcolour,alfa,,,96,20,V,R,
258,6,6,6,2,27,53,584,['n'],1,right,['2'],5,326,[-0.12427657],100,53,easy,plus,dotcolour,alfa,,,96,20,V,R,
259,7,7,6,2,36,44,700,['n'],1,right,['2'],5,302,[0.05164095],3,44,hard,plus,dotcolour,alfa,,,96,20,V,R,
260,8,8,6,2,53,27,784,['c'],1,left,['2'],5,588,[0.14861692],100,53,easy,plus,dotcolour,alfa,,,96,20,V,R,
261,9,9,6,2,36,44,767,['c'],0,right,['2'],5,358,[0.07019361],99,44,hard,plus,dotcolour,alfa,,,96,20,V,R,
262,10,10,6,2,47,33,801,['c'],1,left,['2'],5,329,[0.17838455],100,47,medium,plus,dotcolour,alfa,,,96,20,V,R,
263,11,11,6,2,44,36,1083,['c'],1,left,['2'],5,378,[0.15285087],100,44,hard,plus,dotcolour,alfa,,,96,20,V,R,
264,12,12,6,2,27,53,583,['n'],1,right,['3'],4,269,[-0.15417039],100,53,easy,plus,dotcolour,alfa,,,96,20,V,R,
265,13,13,6,2,47,33,633,['c'],1,left,['3'],4,330,[0.10158806],100,47,medium,plus,dotcolour,alfa,,,96,20,V,R,
266,14,14,6,2,33,47,600,['n'],1,right,['1'],6,366,[-0.16534894],100,47,medium,plus,dotcolour,alfa,,,96,20,V,R,
267,15,15,6,2,33,47,834,['c'],0,right,['0'],1,1359,[-0.10551816],4,47,medium,plus,dotcolour,alfa,,,96,20,V,R,
268,16,16,6,2,53,27,717,['c'],1,left,['2'],5,621,[0.11981463],100,53,easy,plus,dotcolour,alfa,,,96,20,V,R,
269,17,17,6,2,33,47,968,['c'],0,right,['0'],1,1231,[-0.00766509],44,47,medium,plus,dotcolour,alfa,,,96,20,V,R,
270,18,18,6,2,27,53,983,['n'],1,right,['1'],6,760,[-0.23291567],100,53,easy,plus,dotcolour,alfa,,,96,20,V,R,
271,19,19,6,2,27,53,717,['n'],1,right,['1'],6,365,[-0.10462719],100,53,easy,plus,dotcolour,alfa,,,96,20,V,R,
272,20,20,6,2,36,44,800,['c'],0,right,['8'],3,696,[0.00725998],58,44,hard,plus,dotcolour,alfa,,,96,20,V,R,
273,21,21,6,2,33,47,684,['n'],1,right,['1'],6,402,[-0.07764067],99,47,medium,plus,dotcolour,alfa,,,96,20,V,R,
274,22,22,6,2,53,27,684,['c'],1,left,['1'],6,368,[0.18102254],100,53,easy,plus,dotcolour,alfa,,,96,20,V,R,
275,23,23,6,2,47,33,733,['c'],1,left,['2'],5,381,[0.12532001],100,47,medium,plus,dotcolour,alfa,,,96,20,V,R,
276,24,24,6,2,36,44,616,['n'],1,right,['2'],5,366,[-0.09099377],100,44,hard,plus,dotcolour,alfa,,,96,20,V,R,
277,25,25,6,2,44,36,967,['c'],1,left,['1'],6,739,[0.0727557],95,44,hard,plus,dotcolour,alfa,,,96,20,V,R,
278,26,26,6,2,53,27,1067,['c'],1,left,['2'],5,363,[0.14620811],100,53,easy,plus,dotcolour,alfa,,,96,20,V,R,
279,27,27,6,2,53,27,600,['c'],1,left,['2'],5,375,[0.19376738],100,53,easy,plus,dotcolour,alfa,,,96,20,V,R,
280,28,28,6,2,47,33,933,['n'],0,left,['0'],1,667,[0.04627271],12,47,medium,plus,dotcolour,alfa,,,96,20,V,R,
281,29,29,6,2,33,47,817,['n'],1,right,['1'],6,329,[-0.11991307],100,47,medium,plus,dotcolour,alfa,,,96,20,V,R,
282,30,30,6,2,44,36,650,['c'],1,left,['2'],5,371,[0.11858637],100,44,hard,plus,dotcolour,alfa,,,96,20,V,R,
283,31,31,6,2,47,33,750,['c'],1,left,['3'],4,487,[0.06819606],97,47,medium,plus,dotcolour,alfa,,,96,20,V,R,
284,32,32,6,2,27,53,600,['n'],1,right,['3'],4,245,[-0.1023968],100,53,easy,plus,dotcolour,alfa,,,96,20,V,R,
285,33,33,6,2,44,36,818,['c'],1,left,['2'],5,515,[0.14998475],100,44,hard,plus,dotcolour,alfa,,,96,20,V,R,
286,34,34,6,2,53,27,667,['c'],1,left,['2'],5,326,[0.18641461],100,53,easy,plus,dotcolour,alfa,,,96,20,V,R,
287,35,35,6,2,27,53,551,['n'],1,right,['2'],5,355,[-0.10597457],100,53,easy,plus,dotcolour,alfa,,,96,20,V,R,
288,36,36,6,2,36,44,717,['n'],1,right,['2'],5,290,[-0.11713924],100,44,hard,plus,dotcolour,alfa,,,96,20,V,R,
289,37,37,6,2,44,36,666,['c'],1,left,['2'],5,252,[0.1321889],100,44,hard,plus,dotcolour,alfa,,,96,20,V,R,
290,38,38,6,2,47,33,867,['n'],0,left,['0'],1,1049,[0.0134445],38,47,medium,plus,dotcolour,alfa,,,96,20,V,R,
291,39,39,6,2,36,44,734,['c'],0,right,['0'],1,811,[0.10579141],99,44,hard,plus,dotcolour,alfa,,,96,20,V,R,
292,40,40,6,2,27,53,650,['n'],1,right,['3'],4,338,[-0.13648035],100,53,easy,plus,dotcolour,alfa,,,96,20,V,R,
293,41,41,6,2,47,33,883,['c'],1,left,['1'],6,323,[-0.01137604],33,47,medium,plus,dotcolour,alfa,,,96,20,V,R,
294,42,0,7,2,47,33,701,['n'],0,left,['2'],5,374,[-0.05868067],97,47,medium,plus,dotcolour,alfa,,,96,20,V,R,
295,43,1,7,2,44,36,1168,['n'],0,left,['2'],5,282,[0.02225858],18,44,hard,plus,dotcolour,alfa,,,96,20,V,R,
296,44,2,7,2,53,27,767,['c'],1,left,['2'],5,337,[0.1452908],100,53,easy,plus,dotcolour,alfa,,,96,20,V,R,
297,45,3,7,2,33,47,800,['n'],1,right,['2'],5,453,[-0.06079735],96,47,medium,plus,dotcolour,alfa,,,96,20,V,R,
298,46,4,7,2,27,53,567,['n'],1,right,['2'],5,302,[-0.1216872],100,53,easy,plus,dotcolour,alfa,,,96,20,V,R,
299,47,5,7,2,53,27,533,['c'],1,left,['2'],5,375,[0.15962828],100,53,easy,plus,dotcolour,alfa,,,96,20,V,R,
300,48,6,7,2,47,33,733,['n'],0,left,['2'],5,458,[0.01242156],34,47,medium,plus,dotcolour,alfa,,,96,20,V,R,
301,49,7,7,2,33,47,600,['n'],1,right,['2'],5,305,[-0.20070053],100,47,medium,plus,dotcolour,alfa,,,96,20,V,R,
302,50,8,7,2,27,53,601,['n'],1,right,['3'],4,302,[-0.21048053],100,53,easy,plus,dotcolour,alfa,,,96,20,V,R,
303,51,9,7,2,47,33,783,['c'],1,left,['2'],5,332,[0.16482443],100,47,medium,plus,dotcolour,alfa,,,96,20,V,R,
304,52,10,7,2,27,53,700,['n'],1,right,['2'],5,228,[-0.06123852],99,53,easy,plus,dotcolour,alfa,,,96,20,V,R,
305,53,11,7,2,33,47,817,['c'],0,right,['2'],5,339,[0.09609382],100,47,medium,plus,dotcolour,alfa,,,96,20,V,R,
306,54,12,7,2,27,53,567,['n'],1,right,['2'],5,272,[-0.0642152],99,53,easy,plus,dotcolour,alfa,,,96,20,V,R,
307,55,13,7,2,27,53,933,['c'],0,right,['2'],5,329,[0.07046189],99,53,easy,plus,dotcolour,alfa,,,96,20,V,R,
308,56,14,7,2,44,36,999,['c'],1,left,['2'],5,333,[0.14085351],100,44,hard,plus,dotcolour,alfa,,,96,20,V,R,
309,57,15,7,2,44,36,633,['n'],0,left,['2'],5,288,[-0.16478179],100,44,hard,plus,dotcolour,alfa,,,96,20,V,R,
310,58,16,7,2,44,36,1133,['n'],0,left,['2'],5,968,[0.02839247],26,44,hard,plus,dotcolour,alfa,,,96,20,V,R,
311,59,17,7,2,47,33,933,['c'],1,left,['3'],4,549,[0.21949034],100,47,medium,plus,dotcolour,alfa,,,96,20,V,R,
312,60,18,7,2,36,44,768,['n'],1,right,['3'],4,353,[-0.02520836],82,44,hard,plus,dotcolour,alfa,,,96,20,V,R,
313,61,19,7,2,53,27,750,['c'],1,left,['3'],4,375,[0.06970119],98,53,easy,plus,dotcolour,alfa,,,96,20,V,R,
314,62,20,7,2,33,47,1250,['n'],1,right,['3'],4,887,[-0.10321917],98,47,medium,plus,dotcolour,alfa,,,96,20,V,R,
315,63,21,7,2,53,27,683,['c'],1,left,['1'],6,393,[0.0847266],99,53,easy,plus,dotcolour,alfa,,,96,20,V,R,
316,64,22,7,2,53,27,817,['c'],1,left,['2'],5,402,[0.22063113],100,53,easy,plus,dotcolour,alfa,,,96,20,V,R,
317,65,23,7,2,44,36,684,['n'],0,left,['2'],5,463,[-0.16645815],100,44,hard,plus,dotcolour,alfa,,,96,20,V,R,
318,66,24,7,2,33,47,784,['n'],1,right,['2'],5,455,[-0.11276405],100,47,medium,plus,dotcolour,alfa,,,96,20,V,R,
319,67,25,7,2,53,27,617,['c'],1,left,['2'],5,341,[0.02829044],85,53,easy,plus,dotcolour,alfa,,,96,20,V,R,
320,68,26,7,2,53,27,483,['c'],1,left,['2'],5,413,[0.15763469],100,53,easy,plus,dotcolour,alfa,,,96,20,V,R,
321,69,27,7,2,36,44,516,['n'],1,right,['2'],5,345,[-0.05844362],97,44,hard,plus,dotcolour,alfa,,,96,20,V,R,
322,70,28,7,2,36,44,1017,['n'],1,right,['2'],5,324,[-0.14802481],100,44,hard,plus,dotcolour,alfa,,,96,20,V,R,
323,71,29,7,2,36,44,767,['n'],1,right,['3'],4,393,[-0.11048354],100,44,hard,plus,dotcolour,alfa,,,96,20,V,R,
324,72,30,7,2,36,44,668,['n'],1,right,['3'],4,224,[-0.07233622],100,44,hard,plus,dotcolour,alfa,,,96,20,V,R,
325,73,31,7,2,44,36,650,['c'],1,left,['3'],4,525,[0.08651669],99,44,hard,plus,dotcolour,alfa,,,96,20,V,R,
326,74,32,7,2,33,47,783,['c'],0,right,['3'],4,354,[0.00872823],63,47,medium,plus,dotcolour,alfa,,,96,20,V,R,
327,75,33,7,2,27,53,500,['n'],1,right,['3'],4,281,[-0.09014431],100,53,easy,plus,dotcolour,alfa,,,96,20,V,R,
328,76,34,7,2,27,53,466,['n'],1,right,['3'],4,292,[-0.08596777],100,53,easy,plus,dotcolour,alfa,,,96,20,V,R,
329,77,35,7,2,44,36,550,['c'],1,left,['3'],4,340,[0.04038211],92,44,hard,plus,dotcolour,alfa,,,96,20,V,R,
330,78,36,7,2,47,33,550,['n'],0,left,['3'],4,393,[0.00995758],36,47,medium,plus,dotcolour,alfa,,,96,20,V,R,
331,79,37,7,2,33,47,717,['n'],1,right,['3'],4,326,[-0.12810775],100,47,medium,plus,dotcolour,alfa,,,96,20,V,R,
332,80,38,7,2,47,33,518,['c'],1,left,['3'],4,373,[0.15420263],100,47,medium,plus,dotcolour,alfa,,,96,20,V,R,
333,81,39,7,2,36,44,465,['n'],1,right,['3'],4,381,[-0.05068021],95,44,hard,plus,dotcolour,alfa,,,96,20,V,R,
334,82,40,7,2,36,44,884,['n'],1,right,['2'],5,324,[-0.09575444],100,44,hard,plus,dotcolour,alfa,,,96,20,V,R,
335,83,41,7,2,47,33,567,['c'],1,left,['2'],5,321,[0.00902873],64,47,medium,plus,dotcolour,alfa,,,96,20,V,R,
336,84,0,8,2,36,44,652,['n'],1,right,['2'],5,280,[-0.01451173],73,44,hard,plus,dotcolour,alfa,,,96,20,V,R,
337,85,1,8,2,47,33,567,['c'],1,left,['2'],5,439,[0.22192815],100,47,medium,plus,dotcolour,alfa,,,96,20,V,R,
338,86,2,8,2,53,27,683,['c'],1,left,['3'],4,403,[0.20213339],100,53,easy,plus,dotcolour,alfa,,,96,20,V,R,
339,87,3,8,2,36,44,583,['c'],0,right,['3'],4,493,[0.02943639],82,44,hard,plus,dotcolour,alfa,,,96,20,V,R,
340,88,4,8,2,44,36,934,['c'],1,left,['3'],4,381,[0.02840485],84,44,hard,plus,dotcolour,alfa,,,96,20,V,R,
341,89,5,8,2,36,44,599,['n'],1,right,['3'],4,311,[-0.05189866],97,44,hard,plus,dotcolour,alfa,,,96,20,V,R,
342,90,6,8,2,33,47,917,['c'],0,right,['3'],4,407,[0.01175908],66,47,medium,plus,dotcolour,alfa,,,96,20,V,R,
343,91,7,8,2,36,44,1432,['c'],0,right,['9'],2,670,[-0.08439423],2,44,hard,plus,dotcolour,alfa,,,96,20,V,R,
344,92,8,8,2,53,27,933,['c'],1,left,['9'],2,423,[0.10510908],100,53,easy,plus,dotcolour,alfa,,,96,20,V,R,
345,93,9,8,2,36,44,1002,['c'],0,right,['3'],4,392,[0.02427051],80,44,hard,plus,dotcolour,alfa,,,96,20,V,R,
346,94,10,8,2,44,36,684,['n'],0,left,['3'],4,381,[-0.06641604],98,44,hard,plus,dotcolour,alfa,,,96,20,V,R,
347,95,11,8,2,44,36,583,['c'],1,left,['2'],5,472,[-0.01015699],37,44,hard,plus,dotcolour,alfa,,,96,20,V,R,
348,96,12,8,2,27,53,732,['n'],1,right,['2'],5,432,[-0.21392084],100,53,easy,plus,dotcolour,alfa,,,96,20,V,R,
349,97,13,8,2,27,53,516,['c'],0,right,['9'],2,700,[0.06949078],95,53,easy,plus,dotcolour,alfa,,,96,20,V,R,
350,98,14,8,2,27,53,650,['n'],1,right,['2'],5,351,[-0.12763643],100,53,easy,plus,dotcolour,alfa,,,96,20,V,R,
351,99,15,8,2,27,53,634,['n'],1,right,['1'],6,377,[-0.17419717],100,53,easy,plus,dotcolour,alfa,,,96,20,V,R,
352,100,16,8,2,33,47,550,['n'],1,right,['1'],6,477,[-0.06233486],96,47,medium,plus,dotcolour,alfa,,,96,20,V,R,
353,101,17,8,2,33,47,1267,['n'],1,right,['1'],6,296,[-0.10616261],100,47,medium,plus,dotcolour,alfa,,,96,20,V,R,
354,102,18,8,2,27,53,501,['n'],1,right,['1'],6,354,[-0.05664598],97,53,easy,plus,dotcolour,alfa,,,96,20,V,R,
355,103,19,8,2,53,27,684,['c'],1,left,['2'],5,490,[0.13561773],100,53,easy,plus,dotcolour,alfa,,,96,20,V,R,
356,104,20,8,2,36,44,1150,['n'],1,right,['1'],6,274,[-0.10491042],100,44,hard,plus,dotcolour,alfa,,,96,20,V,R,
357,105,21,8,2,47,33,567,['n'],0,left,['0'],1,721,[-0.01490833],65,47,medium,plus,dotcolour,alfa,,,96,20,V,R,
358,106,22,8,2,44,36,767,['c'],1,left,['9'],2,1094,[0.32830253],100,44,hard,plus,dotcolour,alfa,,,96,20,V,R,
359,107,23,8,2,47,33,1200,['c'],1,left,['9'],2,355,[0.12216491],100,47,medium,plus,dotcolour,alfa,,,96,20,V,R,
360,108,24,8,2,44,36,767,['c'],1,left,['3'],4,535,[0.11715055],100,44,hard,plus,dotcolour,alfa,,,96,20,V,R,
361,109,25,8,2,27,53,534,['n'],1,right,['1'],6,366,[-0.12039458],100,53,easy,plus,dotcolour,alfa,,,96,20,V,R,
362,110,26,8,2,27,53,651,['n'],1,right,['1'],6,287,[-0.05621136],98,53,easy,plus,dotcolour,alfa,,,96,20,V,R,
363,111,27,8,2,47,33,816,['c'],1,left,['2'],5,492,[0.09649372],99,47,medium,plus,dotcolour,alfa,,,96,20,V,R,
364,112,28,8,2,53,27,751,['c'],1,left,['2'],5,339,[0.12377166],100,53,easy,plus,dotcolour,alfa,,,96,20,V,R,
365,113,29,8,2,36,44,767,['n'],1,right,['2'],5,360,[-0.17015695],100,44,hard,plus,dotcolour,alfa,,,96,20,V,R,
366,114,30,8,2,53,27,600,['c'],1,left,['2'],5,402,[0.15258752],100,53,easy,plus,dotcolour,alfa,,,96,20,V,R,
367,115,31,8,2,33,47,717,['n'],1,right,['1'],6,391,[-0.02430537],80,47,medium,plus,dotcolour,alfa,,,96,20,V,R,
368,116,32,8,2,33,47,466,['c'],0,right,['1'],6,439,[0.02783357],82,47,medium,plus,dotcolour,alfa,,,96,20,V,R,
369,117,33,8,2,33,47,550,['n'],1,right,['9'],2,831,[-0.29640823],100,47,medium,plus,dotcolour,alfa,,,96,20,V,R,
370,118,34,8,2,53,27,550,['c'],1,left,['1'],6,369,[0.19799034],100,53,easy,plus,dotcolour,alfa,,,96,20,V,R,
371,119,35,8,2,53,27,801,['c'],1,left,['1'],6,372,[0.1682584],100,53,easy,plus,dotcolour,alfa,,,96,20,V,R,
372,120,36,8,2,44,36,1383,['c'],1,left,['1'],6,439,[0.12702166],100,44,hard,plus,dotcolour,alfa,,,96,20,V,R,
373,121,37,8,2,44,36,584,['c'],1,left,['1'],6,823,[0.19865832],100,44,hard,plus,dotcolour,alfa,,,96,20,V,R,
374,122,38,8,2,47,33,616,['c'],1,left,['2'],5,414,[0.15162106],100,47,medium,plus,dotcolour,alfa,,,96,20,V,R,
375,123,39,8,2,33,47,883,['c'],0,right,['2'],5,515,[-0.00406675],45,47,medium,plus,dotcolour,alfa,,,96,20,V,R,
376,124,40,8,2,47,33,750,['c'],1,left,['3'],4,770,[0.10800786],99,47,medium,plus,dotcolour,alfa,,,96,20,V,R,
377,125,41,8,2,47,33,602,['c'],1,left,['3'],4,604,[0.0657504],95,47,medium,plus,dotcolour,alfa,,,96,20,V,R,
378,0,0,9,3,44,36,717,['c'],1,left,['1'],6,439,[0.03934686],63,44,hard,minus,dotcolour,alfa,,,96,20,V,R,
379,1,1,9,3,47,33,498,['c'],1,left,['1'],6,443,[0.08773321],77,47,medium,minus,dotcolour,alfa,,,96,20,V,R,
380,2,2,9,3,36,44,700,['n'],1,right,['2'],5,381,[-0.10104565],81,44,hard,minus,dotcolour,alfa,,,96,20,V,R,
381,3,3,9,3,27,53,633,['n'],1,right,['1'],6,326,[-0.19498219],96,53,easy,minus,dotcolour,alfa,,,96,20,V,R,
382,4,4,9,3,27,53,550,['n'],1,right,['1'],6,340,[-0.1705158],93,53,easy,minus,dotcolour,alfa,,,96,20,V,R,
383,5,5,9,3,27,53,684,['c'],0,right,['1'],6,388,[0.16950602],92,53,easy,minus,dotcolour,alfa,,,96,20,V,R,
384,6,6,9,3,44,36,667,['n'],0,left,['1'],6,395,[0.01352954],45,44,hard,minus,dotcolour,alfa,,,96,20,V,R,
385,7,7,9,3,33,47,583,['c'],0,right,['0'],1,909,[-0.10742565],27,47,medium,minus,dotcolour,alfa,,,96,20,V,R,
386,8,8,9,3,36,44,817,['c'],0,right,['0'],1,881,[-0.05718693],37,44,hard,minus,dotcolour,alfa,,,96,20,V,R,
387,9,9,9,3,47,33,634,['c'],1,left,['3'],4,525,[0.20165425],92,47,medium,minus,dotcolour,alfa,,,96,20,V,R,
388,10,10,9,3,53,27,667,['c'],1,left,['3'],4,383,[0.20418915],95,53,easy,minus,dotcolour,alfa,,,96,20,V,R,
389,11,11,9,3,44,36,934,['c'],1,left,['3'],4,356,[0.00870385],53,44,hard,minus,dotcolour,alfa,,,96,20,V,R,
390,12,12,9,3,53,27,1050,['c'],1,left,['3'],4,316,[0.12377642],88,53,easy,minus,dotcolour,alfa,,,96,20,V,R,
391,13,13,9,3,33,47,984,['n'],1,right,['1'],6,353,[-0.15182721],91,47,medium,minus,dotcolour,alfa,,,96,20,V,R,
392,14,14,9,3,33,47,600,['n'],1,right,['1'],6,229,[-0.18613936],97,47,medium,minus,dotcolour,alfa,,,96,20,V,R,
393,15,15,9,3,53,27,500,['c'],1,left,['3'],4,345,[0.12570332],87,53,easy,minus,dotcolour,alfa,,,96,20,V,R,
394,16,16,9,3,47,33,550,['c'],1,left,['1'],6,454,[0.00100899],50,47,medium,minus,dotcolour,alfa,,,96,20,V,R,
395,17,17,9,3,47,33,633,['c'],1,left,['2'],5,476,[0.1431798],87,47,medium,minus,dotcolour,alfa,,,96,20,V,R,
396,18,18,9,3,44,36,450,['c'],1,left,['2'],5,384,[0.09799486],81,44,hard,minus,dotcolour,alfa,,,96,20,V,R,
397,19,19,9,3,44,36,516,['c'],1,left,['2'],5,373,[0.08405835],78,44,hard,minus,dotcolour,alfa,,,96,20,V,R,
398,20,20,9,3,33,47,417,['c'],0,right,['2'],5,406,[-0.06287351],29,47,medium,minus,dotcolour,alfa,,,96,20,V,R,
399,21,21,9,3,47,33,534,['c'],1,left,['3'],4,410,[0.08717862],77,47,medium,minus,dotcolour,alfa,,,96,20,V,R,
400,22,22,9,3,33,47,450,['c'],0,right,['0'],1,1193,[-0.01646344],47,47,medium,minus,dotcolour,alfa,,,96,20,V,R,
401,23,23,9,3,53,27,683,['c'],1,left,['1'],6,438,[0.17918244],92,53,easy,minus,dotcolour,alfa,,,96,20,V,R,
402,24,24,9,3,36,44,500,['n'],1,right,['1'],6,306,[-0.14084705],91,44,hard,minus,dotcolour,alfa,,,96,20,V,R,
403,25,25,9,3,27,53,483,['n'],1,right,['1'],6,323,[-0.15534775],92,53,easy,minus,dotcolour,alfa,,,96,20,V,R,
404,26,26,9,3,33,47,550,['n'],1,right,['1'],6,337,[-0.09552036],81,47,medium,minus,dotcolour,alfa,,,96,20,V,R,
405,27,27,9,3,36,44,600,['n'],1,right,['1'],6,333,[-0.11878482],86,44,hard,minus,dotcolour,alfa,,,96,20,V,R,
406,28,28,9,3,36,44,617,['n'],1,right,['2'],5,344,[-0.12694581],88,44,hard,minus,dotcolour,alfa,,,96,20,V,R,
407,29,29,9,3,36,44,600,['n'],1,right,['2'],5,476,[-0.02761668],59,44,hard,minus,dotcolour,alfa,,,96,20,V,R,
408,30,30,9,3,53,27,650,['c'],1,left,['2'],5,424,[0.1105184],82,53,easy,minus,dotcolour,alfa,,,96,20,V,R,
409,31,31,9,3,44,36,500,['c'],1,left,['3'],4,420,[-0.01545289],45,44,hard,minus,dotcolour,alfa,,,96,20,V,R,
410,32,32,9,3,44,36,1234,['c'],1,left,['8'],3,827,[0.1051989],74,44,hard,minus,dotcolour,alfa,,,96,20,V,R,
411,33,33,9,3,27,53,534,['c'],0,right,['3'],4,350,[0.06939913],74,53,easy,minus,dotcolour,alfa,,,96,20,V,R,
412,34,34,9,3,27,53,584,['n'],1,right,['2'],5,338,[-0.07534485],76,53,easy,minus,dotcolour,alfa,,,96,20,V,R,
413,35,35,9,3,47,33,465,['n'],0,left,['0'],1,612,[0.02772728],42,47,medium,minus,dotcolour,alfa,,,96,20,V,R,
414,36,36,9,3,53,27,633,['c'],1,left,['3'],4,491,[0.05062208],66,53,easy,minus,dotcolour,alfa,,,96,20,V,R,
415,37,37,9,3,36,44,700,['n'],1,right,['2'],5,516,[-0.14956964],87,44,hard,minus,dotcolour,alfa,,,96,20,V,R,
416,38,38,9,3,53,27,600,['c'],1,left,['3'],4,281,[0.09461113],83,53,easy,minus,dotcolour,alfa,,,96,20,V,R,
417,39,39,9,3,27,53,517,['n'],1,right,['2'],5,322,[-0.11149903],85,53,easy,minus,dotcolour,alfa,,,96,20,V,R,
418,40,40,9,3,47,33,683,['c'],1,left,['3'],4,1106,[0.2118059],86,47,medium,minus,dotcolour,alfa,,,96,20,V,R,
419,41,41,9,3,33,47,983,['n'],1,right,['1'],6,656,[-0.14787048],84,47,medium,minus,dotcolour,alfa,,,96,20,V,R,
420,42,0,10,3,53,27,701,['c'],1,left,['3'],4,299,[-0.00078395],50,53,easy,minus,dotcolour,alfa,,,96,20,V,R,
421,43,1,10,3,47,33,584,['c'],1,left,['1'],6,353,[0.12580324],87,47,medium,minus,dotcolour,alfa,,,96,20,V,R,
422,44,2,10,3,27,53,617,['n'],1,right,['2'],5,251,[-0.10440106],87,53,easy,minus,dotcolour,alfa,,,96,20,V,R,
423,45,3,10,3,53,27,583,['c'],1,left,['3'],4,315,[0.17993273],95,53,easy,minus,dotcolour,alfa,,,96,20,V,R,
424,46,4,10,3,33,47,683,['n'],1,right,['2'],5,197,[-0.12396434],93,47,medium,minus,dotcolour,alfa,,,96,20,V,R,
425,47,5,10,3,36,44,567,['n'],1,right,['2'],5,232,[0.03266901],35,44,hard,minus,dotcolour,alfa,,,96,20,V,R,
426,48,6,10,3,33,47,634,['n'],1,right,['3'],4,334,[-0.11642203],86,47,medium,minus,dotcolour,alfa,,,96,20,V,R,
427,49,7,10,3,27,53,484,['n'],1,right,['3'],4,359,[-0.06871769],74,53,easy,minus,dotcolour,alfa,,,96,20,V,R,
428,50,8,10,3,27,53,450,['n'],1,right,['3'],4,327,[-0.07820305],77,53,easy,minus,dotcolour,alfa,,,96,20,V,R,
429,51,9,10,3,47,33,667,['c'],1,left,['3'],4,249,[0.10430128],87,47,medium,minus,dotcolour,alfa,,,96,20,V,R,
430,52,10,10,3,53,27,700,['c'],1,left,['2'],5,324,[0.15042848],92,53,easy,minus,dotcolour,alfa,,,96,20,V,R,
431,53,11,10,3,44,36,650,['n'],0,left,['3'],4,326,[-0.01995514],58,44,hard,minus,dotcolour,alfa,,,96,20,V,R,
432,54,12,10,3,44,36,617,['n'],0,left,['2'],5,257,[0.01863027],42,44,hard,minus,dotcolour,alfa,,,96,20,V,R,
433,55,13,10,3,36,44,616,['n'],1,right,['9'],2,1167,[-0.27847844],91,44,hard,minus,dotcolour,alfa,,,96,20,V,R,
434,56,14,10,3,27,53,584,['n'],1,right,['2'],5,322,[-0.13348191],89,53,easy,minus,dotcolour,alfa,,,96,20,V,R,
435,57,15,10,3,47,33,500,['c'],1,left,['2'],5,306,[0.13360312],90,47,medium,minus,dotcolour,alfa,,,96,20,V,R,
436,58,16,10,3,53,27,617,['c'],1,left,['2'],5,342,[0.05822889],71,53,easy,minus,dotcolour,alfa,,,96,20,V,R,
437,59,17,10,3,47,33,2017,['c'],1,left,['2'],5,265,[0.02417721],60,47,medium,minus,dotcolour,alfa,,,96,20,V,R,
438,60,18,10,3,53,27,734,['c'],1,left,['2'],5,210,[0.15006154],95,53,easy,minus,dotcolour,alfa,,,96,20,V,R,
439,61,19,10,3,33,47,733,['n'],1,right,['2'],5,237,[-0.02938139],63,47,medium,minus,dotcolour,alfa,,,96,20,V,R,
440,62,20,10,3,44,36,799,['c'],1,left,['2'],5,254,[0.05883882],74,44,hard,minus,dotcolour,alfa,,,96,20,V,R,
441,63,21,10,3,27,53,800,['n'],1,right,['2'],5,261,[-0.02297736],60,53,easy,minus,dotcolour,alfa,,,96,20,V,R,
442,64,22,10,3,47,33,750,['c'],1,left,['3'],4,509,[0.27062263],97,47,medium,minus,dotcolour,alfa,,,96,20,V,R,
443,65,23,10,3,44,36,733,['c'],1,left,['3'],4,261,[0.07077931],78,44,hard,minus,dotcolour,alfa,,,96,20,V,R,
444,66,24,10,3,53,27,617,['n'],0,left,['0'],1,819,[0.21891532],10,53,easy,minus,dotcolour,alfa,,,96,20,V,R,
445,67,25,10,3,27,53,700,['n'],1,right,['2'],5,279,[-0.10562211],86,53,easy,minus,dotcolour,alfa,,,96,20,V,R,
446,68,26,10,3,36,44,651,['c'],0,right,['8'],3,1475,[-0.08539323],35,44,hard,minus,dotcolour,alfa,,,96,20,V,R,
447,69,27,10,3,33,47,683,['n'],1,right,['2'],5,302,[-0.08162896],79,47,medium,minus,dotcolour,alfa,,,96,20,V,R,
448,70,28,10,3,33,47,700,['c'],0,right,['0'],1,783,[0.04583177],61,47,medium,minus,dotcolour,alfa,,,96,20,V,R,
449,71,29,10,3,36,44,1167,['n'],1,right,['2'],5,210,[-0.03515531],67,44,hard,minus,dotcolour,alfa,,,96,20,V,R,
450,72,30,10,3,33,47,533,['n'],1,right,['2'],5,270,[-0.12044841],89,47,medium,minus,dotcolour,alfa,,,96,20,V,R,
451,73,31,10,3,44,36,667,['n'],0,left,['3'],4,305,[-0.04338169],67,44,hard,minus,dotcolour,alfa,,,96,20,V,R,
452,74,32,10,3,36,44,1250,['n'],1,right,['3'],4,236,[-0.04942435],71,44,hard,minus,dotcolour,alfa,,,96,20,V,R,
453,75,33,10,3,36,44,765,['n'],1,right,['3'],4,334,[-0.14919295],91,44,hard,minus,dotcolour,alfa,,,96,20,V,R,
454,76,34,10,3,47,33,567,['c'],1,left,['3'],4,467,[0.15273182],88,47,medium,minus,dotcolour,alfa,,,96,20,V,R,
455,77,35,10,3,53,27,717,['c'],1,left,['3'],4,269,[0.11406365],88,53,easy,minus,dotcolour,alfa,,,96,20,V,R,
456,78,36,10,3,47,33,534,['c'],1,left,['2'],5,326,[0.10928741],85,47,medium,minus,dotcolour,alfa,,,96,20,V,R,
457,79,37,10,3,44,36,466,['c'],1,left,['2'],5,336,[0.17529505],94,44,hard,minus,dotcolour,alfa,,,96,20,V,R,
458,80,38,10,3,33,47,784,['c'],0,right,['2'],5,308,[0.08569429],80,47,medium,minus,dotcolour,alfa,,,96,20,V,R,
459,81,39,10,3,27,53,501,['n'],1,right,['2'],5,365,[-0.12926385],87,53,easy,minus,dotcolour,alfa,,,96,20,V,R,
460,82,40,10,3,36,44,817,['c'],0,right,['3'],4,367,[0.07778255],76,44,hard,minus,dotcolour,alfa,,,96,20,V,R,
461,83,41,10,3,44,36,967,['c'],1,left,['3'],4,475,[0.14628571],87,44,hard,minus,dotcolour,alfa,,,96,20,V,R,
462,84,0,11,3,36,44,1083,['n'],1,right,['3'],4,467,[-0.08974517],77,44,hard,minus,dotcolour,alfa,,,96,20,V,R,
463,85,1,11,3,27,53,634,['n'],1,right,['3'],4,264,[-0.15496619],94,53,easy,minus,dotcolour,alfa,,,96,20,V,R,
464,86,2,11,3,36,44,534,['n'],1,right,['2'],5,225,[-0.11210654],89,44,hard,minus,dotcolour,alfa,,,96,20,V,R,
465,87,3,11,3,33,47,651,['n'],1,right,['2'],5,279,[-0.15220207],93,47,medium,minus,dotcolour,alfa,,,96,20,V,R,
466,88,4,11,3,44,36,783,['n'],0,left,['0'],1,527,[0.14712525],14,44,hard,minus,dotcolour,alfa,,,96,20,V,R,
467,89,5,11,3,53,27,567,['c'],1,left,['2'],5,387,[0.16316418],91,53,easy,minus,dotcolour,alfa,,,96,20,V,R,
468,90,6,11,3,47,33,633,['c'],1,left,['2'],5,355,[0.1246371],87,47,medium,minus,dotcolour,alfa,,,96,20,V,R,
469,91,7,11,3,33,47,1600,['n'],1,right,['2'],5,454,[0.00059808],50,47,medium,minus,dotcolour,alfa,,,96,20,V,R,
470,92,8,11,3,47,33,1183,['n'],0,left,['2'],5,606,[-0.01465255],54,47,medium,minus,dotcolour,alfa,,,96,20,V,R,
471,93,9,11,3,36,44,650,['n'],1,right,['1'],6,540,[-0.18682048],91,44,hard,minus,dotcolour,alfa,,,96,20,V,R,
472,94,10,11,3,47,33,717,['c'],1,left,['2'],5,330,[0.10083899],83,47,medium,minus,dotcolour,alfa,,,96,20,V,R,
473,95,11,11,3,47,33,600,['c'],1,left,['1'],6,382,[0.04981062],67,47,medium,minus,dotcolour,alfa,,,96,20,V,R,
474,96,12,11,3,53,27,466,['c'],1,left,['1'],6,406,[0.11770935],84,53,easy,minus,dotcolour,alfa,,,96,20,V,R,
475,97,13,11,3,33,47,1434,['c'],0,right,['3'],4,574,[0.11353945],79,47,medium,minus,dotcolour,alfa,,,96,20,V,R,
476,98,14,11,3,44,36,783,['c'],1,left,['2'],5,408,[0.18042168],93,44,hard,minus,dotcolour,alfa,,,96,20,V,R,
477,99,15,11,3,33,47,617,['n'],1,right,['2'],5,256,[-0.13709756],92,47,medium,minus,dotcolour,alfa,,,96,20,V,R,
478,100,16,11,3,47,33,666,['c'],1,left,['2'],5,332,[0.04475079],67,47,medium,minus,dotcolour,alfa,,,96,20,V,R,
479,101,17,11,3,47,33,700,['c'],1,left,['3'],4,452,[0.21685733],95,47,medium,minus,dotcolour,alfa,,,96,20,V,R,
480,102,18,11,3,36,44,618,['n'],1,right,['3'],4,291,[-0.11160681],87,44,hard,minus,dotcolour,alfa,,,96,20,V,R,
481,103,19,11,3,33,47,616,['n'],1,right,['9'],2,407,[0.02357088],42,47,medium,minus,dotcolour,alfa,,,96,20,V,R,
482,104,20,11,3,44,36,617,['c'],1,left,['2'],5,319,[0.14564129],91,44,hard,minus,dotcolour,alfa,,,96,20,V,R,
483,105,21,11,3,44,36,634,['c'],1,left,['2'],5,363,[0.05241939],69,44,hard,minus,dotcolour,alfa,,,96,20,V,R,
484,106,22,11,3,27,53,734,['n'],1,right,['2'],5,240,[-0.05026886],72,53,easy,minus,dotcolour,alfa,,,96,20,V,R,
485,107,23,11,3,44,36,500,['c'],1,left,['3'],4,435,[-0.02065518],43,44,hard,minus,dotcolour,alfa,,,96,20,V,R,
486,108,24,11,3,27,53,617,['n'],1,right,['2'],5,315,[-0.05055494],69,53,easy,minus,dotcolour,alfa,,,96,20,V,R,
487,109,25,11,3,53,27,700,['c'],1,left,['3'],4,347,[0.16939871],93,53,easy,minus,dotcolour,alfa,,,96,20,V,R,
488,110,26,11,3,47,33,433,['c'],1,left,['3'],4,302,[0.0507153],70,47,medium,minus,dotcolour,alfa,,,96,20,V,R,
489,111,27,11,3,33,47,666,['n'],1,right,['2'],5,200,[-0.11242547],91,47,medium,minus,dotcolour,alfa,,,96,20,V,R,
490,112,28,11,3,53,27,567,['n'],0,left,['0'],1,667,[0.00763642],48,53,easy,minus,dotcolour,alfa,,,96,20,V,R,
491,113,29,11,3,53,27,666,['c'],1,left,['2'],5,279,[0.09131263],83,53,easy,minus,dotcolour,alfa,,,96,20,V,R,
492,114,30,11,3,44,36,649,['c'],1,left,['2'],5,491,[0.14796106],87,44,hard,minus,dotcolour,alfa,,,96,20,V,R,
493,115,31,11,3,27,53,567,['n'],1,right,['2'],5,289,[-0.12846895],90,53,easy,minus,dotcolour,alfa,,,96,20,V,R,
494,116,32,11,3,36,44,850,['n'],1,right,['2'],5,325,[-0.07401753],76,44,hard,minus,dotcolour,alfa,,,96,20,V,R,
495,117,33,11,3,27,53,534,['n'],1,right,['2'],5,204,[-0.09663334],87,53,easy,minus,dotcolour,alfa,,,96,20,V,R,
496,118,34,11,3,27,53,516,['n'],1,right,['2'],5,249,[-0.12365225],90,53,easy,minus,dotcolour,alfa,,,96,20,V,R,
497,119,35,11,3,27,53,500,['n'],1,right,['2'],5,211,[-0.06468995],78,53,easy,minus,dotcolour,alfa,,,96,20,V,R,
498,120,36,11,3,44,36,534,['n'],0,left,['8'],3,447,[0.01774985],44,44,hard,minus,dotcolour,alfa,,,96,20,V,R,
499,121,37,11,3,36,44,583,['n'],1,right,['2'],5,271,[-0.06957103],77,44,hard,minus,dotcolour,alfa,,,96,20,V,R,
500,122,38,11,3,53,27,917,['c'],1,left,['2'],5,329,[0.11566638],86,53,easy,minus,dotcolour,alfa,,,96,20,V,R,
501,123,39,11,3,36,44,733,['n'],1,right,['2'],5,304,[-0.06597655],75,44,hard,minus,dotcolour,alfa,,,96,20,V,R,
502,124,40,11,3,53,27,701,['c'],1,left,['2'],5,257,[0.08943297],83,53,easy,minus,dotcolour,alfa,,,96,20,V,R,
503,125,41,11,3,33,47,517,['n'],1,right,['2'],5,363,[-0.05007338],68,47,medium,minus,dotcolour,alfa,,,96,20,V,R,
504,0,0,12,4,27,53,684,['n'],1,right,['2'],5,246,[-0.06870368],99,53,easy,plus,dotcolour,alfa,,,96,20,V,R,
505,1,1,12,4,33,47,616,['n'],1,right,['2'],5,220,[-0.01520255],76,47,medium,plus,dotcolour,alfa,,,96,20,V,R,
506,2,2,12,4,36,44,484,['n'],1,right,['3'],4,354,[-0.20334314],100,44,hard,plus,dotcolour,alfa,,,96,20,V,R,
507,3,3,12,4,53,27,616,['c'],1,left,['3'],4,356,[0.11766721],100,53,easy,plus,dotcolour,alfa,,,96,20,V,R,
508,4,4,12,4,44,36,1201,['n'],0,left,['8'],3,391,[-0.03784292],90,44,hard,plus,dotcolour,alfa,,,96,20,V,R,
509,5,5,12,4,33,47,683,['c'],0,right,['3'],4,509,[-0.10287406],1,47,medium,plus,dotcolour,alfa,,,96,20,V,R,
510,6,6,12,4,33,47,1317,['c'],0,right,['3'],4,261,[0.12854813],100,47,medium,plus,dotcolour,alfa,,,96,20,V,R,
511,7,7,12,4,53,27,717,['c'],1,left,['3'],4,239,[0.11113451],100,53,easy,plus,dotcolour,alfa,,,96,20,V,R,
512,8,8,12,4,44,36,666,['n'],0,left,['3'],4,548,[-0.01302412],65,44,hard,plus,dotcolour,alfa,,,96,20,V,R,
513,9,9,12,4,33,47,750,['n'],1,right,['8'],3,377,[-0.08478302],99,47,medium,plus,dotcolour,alfa,,,96,20,V,R,
514,10,10,12,4,27,53,600,['n'],1,right,['8'],3,387,[-0.07401749],99,53,easy,plus,dotcolour,alfa,,,96,20,V,R,
515,11,11,12,4,47,33,667,['c'],1,left,['3'],4,298,[0.12949],100,47,medium,plus,dotcolour,alfa,,,96,20,V,R,
516,12,12,12,4,47,33,1201,['c'],1,left,['3'],4,224,[0.08215987],100,47,medium,plus,dotcolour,alfa,,,96,20,V,R,
517,13,13,12,4,53,27,534,['c'],1,left,['3'],4,330,[0.04446096],94,53,easy,plus,dotcolour,alfa,,,96,20,V,R,
518,14,14,12,4,47,33,618,['n'],0,left,['3'],4,302,[-0.04639679],95,47,medium,plus,dotcolour,alfa,,,96,20,V,R,
519,15,15,12,4,44,36,651,['c'],1,left,['8'],3,409,[0.09029904],99,44,hard,plus,dotcolour,alfa,,,96,20,V,R,
520,16,16,12,4,44,36,634,['c'],1,left,['8'],3,369,[0.00182058],53,44,hard,plus,dotcolour,alfa,,,96,20,V,R,
521,17,17,12,4,36,44,785,['n'],1,right,['3'],4,180,[-0.11810397],100,44,hard,plus,dotcolour,alfa,,,96,20,V,R,
522,18,18,12,4,53,27,633,['c'],1,left,['3'],4,292,[0.15000309],100,53,easy,plus,dotcolour,alfa,,,96,20,V,R,
523,19,19,12,4,53,27,550,['c'],1,left,['2'],5,340,[0.12538131],100,53,easy,plus,dotcolour,alfa,,,96,20,V,R,
524,20,20,12,4,36,44,849,['n'],1,right,['2'],5,325,[-0.09021916],100,44,hard,plus,dotcolour,alfa,,,96,20,V,R,
525,21,21,12,4,27,53,783,['n'],1,right,['2'],5,306,[-0.10827046],100,53,easy,plus,dotcolour,alfa,,,96,20,V,R,
526,22,22,12,4,53,27,500,['c'],1,left,['2'],5,731,[0.14014268],100,53,easy,plus,dotcolour,alfa,,,96,20,V,R,
527,23,23,12,4,44,36,717,['c'],1,left,['2'],5,370,[-0.02391074],20,44,hard,plus,dotcolour,alfa,,,96,20,V,R,
528,24,24,12,4,36,44,600,['n'],1,right,['2'],5,261,[-0.09108165],100,44,hard,plus,dotcolour,alfa,,,96,20,V,R,
529,25,25,12,4,47,33,717,['c'],1,left,['2'],5,414,[0.18545161],100,47,medium,plus,dotcolour,alfa,,,96,20,V,R,
530,26,26,12,4,27,53,566,['n'],1,right,['2'],5,257,[-0.10411439],100,53,easy,plus,dotcolour,alfa,,,96,20,V,R,
531,27,27,12,4,27,53,550,['n'],1,right,['3'],4,361,[-0.15569652],100,53,easy,plus,dotcolour,alfa,,,96,20,V,R,
532,28,28,12,4,53,27,466,['n'],0,left,['0'],1,729,[-0.04561253],87,53,easy,plus,dotcolour,alfa,,,96,20,V,R,
533,29,29,12,4,47,33,650,['c'],1,left,['2'],5,291,[0.15836299],100,47,medium,plus,dotcolour,alfa,,,96,20,V,R,
534,30,30,12,4,33,47,1034,['n'],1,right,['3'],4,391,[0.021446],23,47,medium,plus,dotcolour,alfa,,,96,20,V,R,
535,31,31,12,4,33,47,667,['c'],0,right,['3'],4,478,[-0.08690684],1,47,medium,plus,dotcolour,alfa,,,96,20,V,R,
536,32,32,12,4,27,53,484,['n'],1,right,['2'],5,473,[-0.17630897],100,53,easy,plus,dotcolour,alfa,,,96,20,V,R,
537,33,33,12,4,33,47,734,['c'],0,right,['2'],5,305,[0.06573267],99,47,medium,plus,dotcolour,alfa,,,96,20,V,R,
538,34,34,12,4,27,53,633,['n'],1,right,['2'],5,252,[-0.11812324],100,53,easy,plus,dotcolour,alfa,,,96,20,V,R,
539,35,35,12,4,47,33,533,['c'],1,left,['2'],5,279,[0.10056763],100,47,medium,plus,dotcolour,alfa,,,96,20,V,R,
540,36,36,12,4,36,44,517,['n'],1,right,['2'],5,304,[-0.1032372],100,44,hard,plus,dotcolour,alfa,,,96,20,V,R,
541,37,37,12,4,47,33,634,['c'],1,left,['2'],5,276,[0.17803489],100,47,medium,plus,dotcolour,alfa,,,96,20,V,R,
542,38,38,12,4,44,36,534,['n'],0,left,['8'],3,629,[0.04750294],10,44,hard,plus,dotcolour,alfa,,,96,20,V,R,
543,39,39,12,4,44,36,617,['c'],1,left,['2'],5,172,[0.09868678],100,44,hard,plus,dotcolour,alfa,,,96,20,V,R,
544,40,40,12,4,36,44,567,['n'],1,right,['2'],5,296,[-0.19756674],100,44,hard,plus,dotcolour,alfa,,,96,20,V,R,
545,41,41,12,4,36,44,717,['c'],0,right,['2'],5,233,[0.04523065],97,44,hard,plus,dotcolour,alfa,,,96,20,V,R,
546,42,0,13,4,36,44,701,['n'],1,right,['3'],4,270,[-0.06207926],99,44,hard,plus,dotcolour,alfa,,,96,20,V,R,
547,43,1,13,4,36,44,550,['n'],1,right,['2'],5,255,[-0.08640278],100,44,hard,plus,dotcolour,alfa,,,96,20,V,R,
548,44,2,13,4,33,47,633,['n'],1,right,['2'],5,245,[-0.11277798],100,47,medium,plus,dotcolour,alfa,,,96,20,V,R,
549,45,3,13,4,44,36,500,['c'],1,left,['2'],5,352,[0.06410067],98,44,hard,plus,dotcolour,alfa,,,96,20,V,R,
550,46,4,13,4,27,53,666,['n'],1,right,['2'],5,425,[-0.10415373],100,53,easy,plus,dotcolour,alfa,,,96,20,V,R,
551,47,5,13,4,36,44,684,['n'],1,right,['2'],5,245,[-0.06975716],99,44,hard,plus,dotcolour,alfa,,,96,20,V,R,
552,48,6,13,4,27,53,517,['n'],1,right,['2'],5,272,[-0.17476222],100,53,easy,plus,dotcolour,alfa,,,96,20,V,R,
553,49,7,13,4,36,44,467,['n'],1,right,['2'],5,284,[-0.03694291],92,44,hard,plus,dotcolour,alfa,,,96,20,V,R,
554,50,8,13,4,47,33,650,['c'],1,left,['2'],5,263,[0.11486901],100,47,medium,plus,dotcolour,alfa,,,96,20,V,R,
555,51,9,13,4,53,27,584,['c'],1,left,['2'],5,271,[0.13844665],100,53,easy,plus,dotcolour,alfa,,,96,20,V,R,
556,52,10,13,4,53,27,550,['c'],1,left,['2'],5,311,[0.06161065],98,53,easy,plus,dotcolour,alfa,,,96,20,V,R,
557,53,11,13,4,47,33,383,['c'],1,left,['2'],5,301,[0.12326174],100,47,medium,plus,dotcolour,alfa,,,96,20,V,R,
558,54,12,13,4,47,33,350,['c'],1,left,['2'],5,548,[0.19492957],100,47,medium,plus,dotcolour,alfa,,,96,20,V,R,
559,55,13,13,4,47,33,500,['c'],1,left,['2'],5,252,[0.02351195],84,47,medium,plus,dotcolour,alfa,,,96,20,V,R,
560,56,14,13,4,27,53,516,['n'],1,right,['2'],5,214,[-0.15058352],100,53,easy,plus,dotcolour,alfa,,,96,20,V,R,
561,57,15,13,4,53,27,600,['c'],1,left,['2'],5,223,[0.08109014],100,53,easy,plus,dotcolour,alfa,,,96,20,V,R,
562,58,16,13,4,47,33,1318,['c'],1,left,['2'],5,290,[0.12333073],100,47,medium,plus,dotcolour,alfa,,,96,20,V,R,
563,59,17,13,4,36,44,450,['c'],0,right,['0'],1,973,[0.03963864],81,44,hard,plus,dotcolour,alfa,,,96,20,V,R,
564,60,18,13,4,44,36,833,['n'],0,left,['0'],1,518,[-0.0352166],85,44,hard,plus,dotcolour,alfa,,,96,20,V,R,
565,61,19,13,4,36,44,700,['n'],1,right,['2'],5,360,[-0.08047222],99,44,hard,plus,dotcolour,alfa,,,96,20,V,R,
566,62,20,13,4,33,47,600,['n'],1,right,['2'],5,314,[-0.1942476],100,47,medium,plus,dotcolour,alfa,,,96,20,V,R,
567,63,21,13,4,33,47,1233,['n'],1,right,['2'],5,301,[-0.13565727],100,47,medium,plus,dotcolour,alfa,,,96,20,V,R,
568,64,22,13,4,36,44,500,['n'],1,right,['3'],4,471,[-0.08943316],99,44,hard,plus,dotcolour,alfa,,,96,20,V,R,
569,65,23,13,4,33,47,616,['n'],1,right,['2'],5,260,[-0.1921642],100,47,medium,plus,dotcolour,alfa,,,96,20,V,R,
570,66,24,13,4,53,27,733,['c'],1,left,['2'],5,317,[0.04071778],93,53,easy,plus,dotcolour,alfa,,,96,20,V,R,
571,67,25,13,4,47,33,416,['c'],1,left,['2'],5,314,[0.06937004],99,47,medium,plus,dotcolour,alfa,,,96,20,V,R,
572,68,26,13,4,47,33,683,['c'],1,left,['2'],5,338,[0.09656926],100,47,medium,plus,dotcolour,alfa,,,96,20,V,R,
573,69,27,13,4,53,27,550,['c'],1,left,['2'],5,360,[0.13878166],100,53,easy,plus,dotcolour,alfa,,,96,20,V,R,
574,70,28,13,4,44,36,517,['c'],1,left,['2'],5,326,[0.10812772],100,44,hard,plus,dotcolour,alfa,,,96,20,V,R,
575,71,29,13,4,44,36,468,['c'],1,left,['2'],5,328,[0.01234309],68,44,hard,plus,dotcolour,alfa,,,96,20,V,R,
576,72,30,13,4,53,27,500,['c'],1,left,['2'],5,328,[0.1329879],100,53,easy,plus,dotcolour,alfa,,,96,20,V,R,
577,73,31,13,4,44,36,500,['c'],1,left,['8'],3,735,[0.05149345],90,44,hard,plus,dotcolour,alfa,,,96,20,V,R,
578,74,32,13,4,27,53,534,['c'],0,right,['0'],1,605,[0.0372103],85,53,easy,plus,dotcolour,alfa,,,96,20,V,R,
579,75,33,13,4,33,47,750,['n'],1,right,['3'],4,240,[-0.25527377],100,47,medium,plus,dotcolour,alfa,,,96,20,V,R,
580,76,34,13,4,27,53,817,['n'],1,right,['3'],4,239,[-0.12955029],100,53,easy,plus,dotcolour,alfa,,,96,20,V,R,
581,77,35,13,4,33,47,683,['c'],0,right,['2'],5,315,[-0.01025529],34,47,medium,plus,dotcolour,alfa,,,96,20,V,R,
582,78,36,13,4,27,53,717,['n'],1,right,['2'],5,315,[-0.17275572],100,53,easy,plus,dotcolour,alfa,,,96,20,V,R,
583,79,37,13,4,44,36,849,['c'],1,left,['2'],5,191,[0.04771355],98,44,hard,plus,dotcolour,alfa,,,96,20,V,R,
584,80,38,13,4,53,27,584,['c'],1,left,['2'],5,408,[0.12403949],100,53,easy,plus,dotcolour,alfa,,,96,20,V,R,
585,81,39,13,4,44,36,450,['c'],1,left,['2'],5,351,[0.07217986],99,44,hard,plus,dotcolour,alfa,,,96,20,V,R,
586,82,40,13,4,33,47,550,['c'],0,right,['2'],5,444,[-0.0107278],36,47,medium,plus,dotcolour,alfa,,,96,20,V,R,
587,83,41,13,4,27,53,651,['n'],1,right,['2'],5,298,[-0.11565644],100,53,easy,plus,dotcolour,alfa,,,96,20,V,R,
588,84,0,14,4,27,53,601,['n'],1,right,['2'],5,257,[-0.01238184],71,53,easy,plus,dotcolour,alfa,,,96,20,V,R,
589,85,1,14,4,44,36,549,['c'],1,left,['2'],5,297,[0.11056893],100,44,hard,plus,dotcolour,alfa,,,96,20,V,R,
590,86,2,14,4,44,36,567,['c'],1,left,['2'],5,481,[0.1942306],100,44,hard,plus,dotcolour,alfa,,,96,20,V,R,
591,87,3,14,4,33,47,500,['n'],1,right,['2'],5,378,[-0.07502552],99,47,medium,plus,dotcolour,alfa,,,96,20,V,R,
592,88,4,14,4,27,53,516,['n'],1,right,['2'],5,551,[-0.20239838],100,53,easy,plus,dotcolour,alfa,,,96,20,V,R,
593,89,5,14,4,53,27,551,['c'],1,left,['2'],5,389,[0.03637758],89,53,easy,plus,dotcolour,alfa,,,96,20,V,R,
594,90,6,14,4,53,27,700,['c'],1,left,['1'],6,282,[0.05116087],97,53,easy,plus,dotcolour,alfa,,,96,20,V,R,
595,91,7,14,4,33,47,634,['n'],1,right,['1'],6,303,[-0.1699498],100,47,medium,plus,dotcolour,alfa,,,96,20,V,R,
596,92,8,14,4,36,44,483,['n'],1,right,['0'],1,625,[-0.0424257],87,44,hard,plus,dotcolour,alfa,,,96,20,V,R,
597,93,9,14,4,27,53,567,['n'],1,right,['2'],5,234,[-0.15785218],100,53,easy,plus,dotcolour,alfa,,,96,20,V,R,
598,94,10,14,4,36,44,518,['n'],1,right,['1'],6,493,[-0.1011908],99,44,hard,plus,dotcolour,alfa,,,96,20,V,R,
599,95,11,14,4,33,47,750,['n'],1,right,['1'],6,397,[-0.13020577],100,47,medium,plus,dotcolour,alfa,,,96,20,V,R,
600,96,12,14,4,47,33,550,['c'],1,left,['1'],6,840,[0.09487781],98,47,medium,plus,dotcolour,alfa,,,96,20,V,R,
601,97,13,14,4,33,47,534,['n'],1,right,['1'],6,290,[-0.18538022],100,47,medium,plus,dotcolour,alfa,,,96,20,V,R,
602,98,14,14,4,44,36,600,['n'],0,left,['0'],1,639,[-0.08207553],98,44,hard,plus,dotcolour,alfa,,,96,20,V,R,
603,99,15,14,4,44,36,551,['c'],1,left,['2'],5,617,[0.17353649],100,44,hard,plus,dotcolour,alfa,,,96,20,V,R,
604,100,16,14,4,33,47,567,['n'],1,right,['2'],5,443,[-0.05273126],95,47,medium,plus,dotcolour,alfa,,,96,20,V,R,
605,101,17,14,4,47,33,600,['c'],1,left,['2'],5,370,[0.1975436],100,47,medium,plus,dotcolour,alfa,,,96,20,V,R,
606,102,18,14,4,47,33,833,['c'],1,left,['2'],5,235,[0.06600424],99,47,medium,plus,dotcolour,alfa,,,96,20,V,R,
607,103,19,14,4,36,44,767,['c'],0,right,['3'],4,429,[-0.01743347],28,44,hard,plus,dotcolour,alfa,,,96,20,V,R,
608,104,20,14,4,36,44,517,['c'],0,right,['2'],5,336,[0.11102727],100,44,hard,plus,dotcolour,alfa,,,96,20,V,R,
609,105,21,14,4,47,33,433,['c'],1,left,['3'],4,307,[0.12256086],100,47,medium,plus,dotcolour,alfa,,,96,20,V,R,
610,106,22,14,4,53,27,566,['c'],1,left,['2'],5,298,[0.15833968],100,53,easy,plus,dotcolour,alfa,,,96,20,V,R,
611,107,23,14,4,44,36,399,['c'],1,left,['2'],5,366,[0.07408617],99,44,hard,plus,dotcolour,alfa,,,96,20,V,R,
612,108,24,14,4,53,27,483,['c'],1,left,['2'],5,309,[0.06594197],99,53,easy,plus,dotcolour,alfa,,,96,20,V,R,
613,109,25,14,4,27,53,666,['n'],1,right,['2'],5,407,[-0.09564783],100,53,easy,plus,dotcolour,alfa,,,96,20,V,R,
614,110,26,14,4,53,27,517,['c'],1,left,['2'],5,259,[0.17696689],100,53,easy,plus,dotcolour,alfa,,,96,20,V,R,
615,111,27,14,4,27,53,666,['n'],1,right,['2'],5,295,[-0.16575144],100,53,easy,plus,dotcolour,alfa,,,96,20,V,R,
616,112,28,14,4,44,36,633,['c'],1,left,['2'],5,580,[0.04946934],91,44,hard,plus,dotcolour,alfa,,,96,20,V,R,
617,113,29,14,4,47,33,633,['c'],1,left,['2'],5,284,[0.07704773],99,47,medium,plus,dotcolour,alfa,,,96,20,V,R,
618,114,30,14,4,53,27,699,['c'],1,left,['2'],5,255,[0.10011604],100,53,easy,plus,dotcolour,alfa,,,96,20,V,R,
619,115,31,14,4,47,33,483,['c'],1,left,['2'],5,290,[0.03664877],92,47,medium,plus,dotcolour,alfa,,,96,20,V,R,
620,116,32,14,4,27,53,666,['n'],1,right,['2'],5,189,[-0.09688841],100,53,easy,plus,dotcolour,alfa,,,96,20,V,R,
621,117,33,14,4,36,44,618,['n'],1,right,['2'],5,206,[0.03868472],4,44,hard,plus,dotcolour,alfa,,,96,20,V,R,
622,118,34,14,4,27,53,501,['n'],1,right,['2'],5,179,[-0.10831072],100,53,easy,plus,dotcolour,alfa,,,96,20,V,R,
623,119,35,14,4,44,36,450,['c'],1,left,['2'],5,283,[0.12767204],100,44,hard,plus,dotcolour,alfa,,,96,20,V,R,
624,120,36,14,4,53,27,417,['c'],1,left,['2'],5,296,[0.16166823],100,53,easy,plus,dotcolour,alfa,,,96,20,V,R,
625,121,37,14,4,33,47,484,['c'],0,right,['0'],1,1090,[-0.01468501],38,47,medium,plus,dotcolour,alfa,,,96,20,V,R,
626,122,38,14,4,47,33,617,['c'],1,left,['0'],1,295,[0.14725583],100,47,medium,plus,dotcolour,alfa,,,96,20,V,R,
627,123,39,14,4,33,47,584,['n'],1,right,['2'],5,237,[-0.12116264],100,47,medium,plus,dotcolour,alfa,,,96,20,V,R,
628,124,40,14,4,36,44,734,['n'],1,right,['2'],5,264,[-0.08389733],100,44,hard,plus,dotcolour,alfa,,,96,20,V,R,
629,125,41,14,4,36,44,667,['n'],1,right,['2'],5,220,[-0.10888987],100,44,hard,plus,dotcolour,alfa,,,96,20,V,R,
630,0,0,15,5,47,33,784,['c'],1,left,['0'],1,353,[0.17032015],93,47,medium,minus,dotcolour,alfa,,,96,20,V,R,
631,1,1,15,5,33,47,500,['n'],1,right,['2'],5,216,[-0.04330164],70,47,medium,minus,dotcolour,alfa,,,96,20,V,R,
632,2,2,15,5,36,44,533,['n'],1,right,['2'],5,252,[-0.11013807],88,44,hard,minus,dotcolour,alfa,,,96,20,V,R,
633,3,3,15,5,27,53,467,['n'],1,right,['2'],5,176,[-0.1351074],95,53,easy,minus,dotcolour,alfa,,,96,20,V,R,
634,4,4,15,5,47,33,551,['c'],1,left,['9'],2,693,[0.24622056],93,47,medium,minus,dotcolour,alfa,,,96,20,V,R,
635,5,5,15,5,36,44,566,['c'],0,right,['9'],2,323,[0.11309712],86,44,hard,minus,dotcolour,alfa,,,96,20,V,R,
636,6,6,15,5,53,27,517,['n'],0,left,['0'],1,674,[0.03022985],42,53,easy,minus,dotcolour,alfa,,,96,20,V,R,
637,7,7,15,5,33,47,617,['n'],1,right,['2'],5,208,[-0.03108078],65,47,medium,minus,dotcolour,alfa,,,96,20,V,R,
638,8,8,15,5,36,44,800,['n'],1,right,['2'],5,345,[-0.08611386],79,44,hard,minus,dotcolour,alfa,,,96,20,V,R,
639,9,9,15,5,33,47,817,['n'],1,right,['2'],5,315,[-0.15232976],92,47,medium,minus,dotcolour,alfa,,,96,20,V,R,
640,10,10,15,5,53,27,600,['c'],1,left,['2'],5,360,[0.1719968],93,53,easy,minus,dotcolour,alfa,,,96,20,V,R,
641,11,11,15,5,27,53,717,['n'],1,right,['2'],5,382,[-0.14280343],89,53,easy,minus,dotcolour,alfa,,,96,20,V,R,
642,12,12,15,5,44,36,583,['c'],1,left,['0'],1,569,[0.03225669],60,44,hard,minus,dotcolour,alfa,,,96,20,V,R,
643,13,13,15,5,33,47,550,['n'],1,right,['1'],6,301,[-0.05935017],73,47,medium,minus,dotcolour,alfa,,,96,20,V,R,
644,14,14,15,5,27,53,618,['n'],1,right,['2'],5,298,[-0.09030636],82,53,easy,minus,dotcolour,alfa,,,96,20,V,R,
645,15,15,15,5,36,44,916,['c'],0,right,['3'],4,338,[0.0763452],77,44,hard,minus,dotcolour,alfa,,,96,20,V,R,
646,16,16,15,5,33,47,949,['n'],1,right,['3'],4,328,[-0.25270543],98,47,medium,minus,dotcolour,alfa,,,96,20,V,R,
647,17,17,15,5,33,47,718,['c'],0,right,['2'],5,327,[0.06260256],73,47,medium,minus,dotcolour,alfa,,,96,20,V,R,
648,18,18,15,5,44,36,1300,['c'],1,left,['3'],4,271,[0.19170527],96,44,hard,minus,dotcolour,alfa,,,96,20,V,R,
649,19,19,15,5,47,33,567,['c'],1,left,['3'],4,287,[0.1019092],85,47,medium,minus,dotcolour,alfa,,,96,20,V,R,
650,20,20,15,5,44,36,634,['n'],0,left,['2'],5,204,[-0.07709503],82,44,hard,minus,dotcolour,alfa,,,96,20,V,R,
651,21,21,15,5,47,33,785,['n'],0,left,['2'],5,262,[-0.08129214],81,47,medium,minus,dotcolour,alfa,,,96,20,V,R,
652,22,22,15,5,36,44,667,['c'],0,right,['0'],1,626,[0.00086076],50,44,hard,minus,dotcolour,alfa,,,96,20,V,R,
653,23,23,15,5,27,53,734,['c'],0,right,['3'],4,749,[0.09207743],72,53,easy,minus,dotcolour,alfa,,,96,20,V,R,
654,24,24,15,5,53,27,783,['n'],0,left,['0'],1,961,[0.11697835],25,53,easy,minus,dotcolour,alfa,,,96,20,V,R,
655,25,25,15,5,36,44,767,['n'],1,right,['3'],4,189,[-0.08455521],85,44,hard,minus,dotcolour,alfa,,,96,20,V,R,
656,26,26,15,5,33,47,634,['n'],1,right,['1'],6,221,[-0.13102755],92,47,medium,minus,dotcolour,alfa,,,96,20,V,R,
657,27,27,15,5,44,36,767,['c'],1,left,['3'],4,367,[0.07314836],75,44,hard,minus,dotcolour,alfa,,,96,20,V,R,
658,28,28,15,5,27,53,733,['n'],1,right,['2'],5,1069,[-0.2512673],90,53,easy,minus,dotcolour,alfa,,,96,20,V,R,
659,29,29,15,5,53,27,517,['n'],0,left,['0'],1,574,[-0.00551654],52,53,easy,minus,dotcolour,alfa,,,96,20,V,R,
660,30,30,15,5,47,33,934,['c'],1,left,['3'],4,379,[0.212176],96,47,medium,minus,dotcolour,alfa,,,96,20,V,R,
661,31,31,15,5,53,27,500,['c'],1,left,['3'],4,321,[0.15466769],92,53,easy,minus,dotcolour,alfa,,,96,20,V,R,
662,32,32,15,5,27,53,617,['n'],1,right,['2'],5,469,[-0.21950372],95,53,easy,minus,dotcolour,alfa,,,96,20,V,R,
663,33,33,15,5,53,27,667,['c'],1,left,['2'],5,393,[0.09456836],80,53,easy,minus,dotcolour,alfa,,,96,20,V,R,
664,34,34,15,5,44,36,467,['n'],0,left,['2'],5,239,[-0.05872802],75,44,hard,minus,dotcolour,alfa,,,96,20,V,R,
665,35,35,15,5,47,33,617,['c'],1,left,['3'],4,247,[0.09312228],84,47,medium,minus,dotcolour,alfa,,,96,20,V,R,
666,36,36,15,5,44,36,534,['c'],1,left,['3'],4,336,[0.1369874],89,44,hard,minus,dotcolour,alfa,,,96,20,V,R,
667,37,37,15,5,27,53,500,['n'],1,right,['3'],4,232,[-0.0312473],64,53,easy,minus,dotcolour,alfa,,,96,20,V,R,
668,38,38,15,5,47,33,550,['c'],1,left,['3'],4,234,[0.05813288],75,47,medium,minus,dotcolour,alfa,,,96,20,V,R,
669,39,39,15,5,53,27,516,['c'],1,left,['3'],4,246,[-0.00503665],48,53,easy,minus,dotcolour,alfa,,,96,20,V,R,
670,40,40,15,5,36,44,566,['n'],1,right,['3'],4,214,[0.02371666],39,44,hard,minus,dotcolour,alfa,,,96,20,V,R,
671,41,41,15,5,44,36,583,['c'],1,left,['3'],4,207,[0.09510631],87,44,hard,minus,dotcolour,alfa,,,96,20,V,R,
672,42,0,16,5,36,44,683,['n'],1,right,['3'],4,181,[-0.07631872],83,44,hard,minus,dotcolour,alfa,,,96,20,V,R,
673,43,1,16,5,53,27,483,['c'],1,left,['3'],4,243,[0.12258697],90,53,easy,minus,dotcolour,alfa,,,96,20,V,R,
674,44,2,16,5,44,36,601,['c'],1,left,['3'],4,251,[0.00894184],54,44,hard,minus,dotcolour,alfa,,,96,20,V,R,
675,45,3,16,5,47,33,667,['c'],1,left,['2'],5,487,[0.0720523],72,47,medium,minus,dotcolour,alfa,,,96,20,V,R,
676,46,4,16,5,27,53,533,['n'],1,right,['2'],5,175,[-0.14093188],95,53,easy,minus,dotcolour,alfa,,,96,20,V,R,
677,47,5,16,5,47,33,617,['c'],1,left,['3'],4,240,[0.15503793],95,47,medium,minus,dotcolour,alfa,,,96,20,V,R,
678,48,6,16,5,53,27,700,['c'],1,left,['1'],6,251,[0.03120139],64,53,easy,minus,dotcolour,alfa,,,96,20,V,R,
679,49,7,16,5,47,33,450,['n'],0,left,['0'],1,521,[0.01174537],46,47,medium,minus,dotcolour,alfa,,,96,20,V,R,
680,50,8,16,5,44,36,702,['c'],1,left,['3'],4,313,[0.02280556],59,44,hard,minus,dotcolour,alfa,,,96,20,V,R,
681,51,9,16,5,53,27,500,['c'],1,left,['3'],4,250,[0.15837713],95,53,easy,minus,dotcolour,alfa,,,96,20,V,R,
682,52,10,16,5,53,27,666,['c'],1,left,['1'],6,414,[0.17447149],92,53,easy,minus,dotcolour,alfa,,,96,20,V,R,
683,53,11,16,5,47,33,618,['c'],1,left,['2'],5,302,[0.10315923],84,47,medium,minus,dotcolour,alfa,,,96,20,V,R,
684,54,12,16,5,27,53,850,['n'],1,right,['2'],5,585,[-0.07945327],72,53,easy,minus,dotcolour,alfa,,,96,20,V,R,
685,55,13,16,5,36,44,650,['n'],1,right,['1'],6,290,[-0.16944155],94,44,hard,minus,dotcolour,alfa,,,96,20,V,R,
686,56,14,16,5,44,36,734,['c'],1,left,['3'],4,298,[0.08157374],79,44,hard,minus,dotcolour,alfa,,,96,20,V,R,
687,57,15,16,5,36,44,685,['n'],1,right,['1'],6,348,[0.05153255],31,44,hard,minus,dotcolour,alfa,,,96,20,V,R,
688,58,16,16,5,33,47,617,['n'],1,right,['2'],5,334,[-0.13378792],89,47,medium,minus,dotcolour,alfa,,,96,20,V,R,
689,59,17,16,5,53,27,533,['c'],1,left,['2'],5,269,[0.13173268],91,53,easy,minus,dotcolour,alfa,,,96,20,V,R,
690,60,18,16,5,27,53,616,['n'],1,right,['2'],5,307,[-0.0909044],81,53,easy,minus,dotcolour,alfa,,,96,20,V,R,
691,61,19,16,5,44,36,617,['c'],1,left,['3'],4,271,[0.11434956],88,44,hard,minus,dotcolour,alfa,,,96,20,V,R,
692,62,20,16,5,44,36,500,['n'],0,left,['3'],4,282,[-0.1042122],85,44,hard,minus,dotcolour,alfa,,,96,20,V,R,
693,63,21,16,5,27,53,433,['c'],0,right,['0'],1,934,[0.17371088],83,53,easy,minus,dotcolour,alfa,,,96,20,V,R,
694,64,22,16,5,44,36,866,['c'],1,left,['3'],4,279,[0.17392036],95,44,hard,minus,dotcolour,alfa,,,96,20,V,R,
695,65,23,16,5,33,47,749,['n'],1,right,['3'],4,247,[-0.16542876],95,47,medium,minus,dotcolour,alfa,,,96,20,V,R,
696,66,24,16,5,53,27,432,['c'],1,left,['2'],5,477,[0.25025435],96,53,easy,minus,dotcolour,alfa,,,96,20,V,R,
697,67,25,16,5,36,44,482,['c'],0,right,['3'],4,377,[-0.11447557],16,44,hard,minus,dotcolour,alfa,,,96,20,V,R,
698,68,26,16,5,33,47,634,['n'],1,right,['2'],5,240,[-0.04717591],70,47,medium,minus,dotcolour,alfa,,,96,20,V,R,
699,69,27,16,5,36,44,483,['c'],0,right,['3'],4,276,[0.06727034],76,44,hard,minus,dotcolour,alfa,,,96,20,V,R,
700,70,28,16,5,36,44,517,['n'],1,right,['2'],5,526,[-0.04111383],62,44,hard,minus,dotcolour,alfa,,,96,20,V,R,
701,71,29,16,5,36,44,484,['c'],0,right,['2'],5,558,[-0.04289213],37,44,hard,minus,dotcolour,alfa,,,96,20,V,R,
702,72,30,16,5,53,27,584,['c'],1,left,['2'],5,242,[0.11403199],89,53,easy,minus,dotcolour,alfa,,,96,20,V,R,
703,73,31,16,5,33,47,483,['n'],1,right,['2'],5,286,[-0.08511613],81,47,medium,minus,dotcolour,alfa,,,96,20,V,R,
704,74,32,16,5,33,47,601,['n'],1,right,['2'],5,180,[-0.06345673],79,47,medium,minus,dotcolour,alfa,,,96,20,V,R,
705,75,33,16,5,33,47,533,['n'],1,right,['0'],1,1041,[-0.20488324],86,47,medium,minus,dotcolour,alfa,,,96,20,V,R,
706,76,34,16,5,27,53,551,['n'],1,right,['8'],3,794,[-0.23451557],91,53,easy,minus,dotcolour,alfa,,,96,20,V,R,
707,77,35,16,5,27,53,1534,['n'],1,right,['8'],3,319,[-0.07397159],76,53,easy,minus,dotcolour,alfa,,,96,20,V,R,
708,78,36,16,5,47,33,650,['c'],1,left,['2'],5,272,[0.02029779],59,47,medium,minus,dotcolour,alfa,,,96,20,V,R,
709,79,37,16,5,27,53,601,['n'],1,right,['2'],5,303,[-0.1433923],91,53,easy,minus,dotcolour,alfa,,,96,20,V,R,
710,80,38,16,5,47,33,684,['n'],0,left,['0'],1,337,[0.03953896],35,47,medium,minus,dotcolour,alfa,,,96,20,V,R,
711,81,39,16,5,33,47,716,['n'],1,right,['2'],5,272,[-0.13368268],91,47,medium,minus,dotcolour,alfa,,,96,20,V,R,
712,82,40,16,5,44,36,583,['c'],1,left,['2'],5,151,[0.05460682],78,44,hard,minus,dotcolour,alfa,,,96,20,V,R,
713,83,41,16,5,47,33,484,['c'],1,left,['3'],4,343,[0.14188599],90,47,medium,minus,dotcolour,alfa,,,96,20,V,R,
714,84,0,17,5,53,27,651,['c'],1,left,['3'],4,314,[0.09875119],83,53,easy,minus,dotcolour,alfa,,,96,20,V,R,
715,85,1,17,5,44,36,582,['c'],1,left,['2'],5,183,[0.18118922],98,44,hard,minus,dotcolour,alfa,,,96,20,V,R,
716,86,2,17,5,44,36,483,['c'],1,left,['2'],5,246,[0.16799243],95,44,hard,minus,dotcolour,alfa,,,96,20,V,R,
717,87,3,17,5,36,44,466,['c'],0,right,['2'],5,275,[0.1475829],93,44,hard,minus,dotcolour,alfa,,,96,20,V,R,
718,88,4,17,5,53,27,516,['c'],1,left,['2'],5,396,[0.12152455],85,53,easy,minus,dotcolour,alfa,,,96,20,V,R,
719,89,5,17,5,27,53,400,['n'],1,right,['2'],5,261,[-0.02471274],61,53,easy,minus,dotcolour,alfa,,,96,20,V,R,
720,90,6,17,5,36,44,701,['n'],1,right,['2'],5,224,[-0.08344328],83,44,hard,minus,dotcolour,alfa,,,96,20,V,R,
721,91,7,17,5,27,53,734,['n'],1,right,['3'],4,235,[-0.17440904],96,53,easy,minus,dotcolour,alfa,,,96,20,V,R,
722,92,8,17,5,53,27,484,['c'],1,left,['2'],5,343,[0.04453735],66,53,easy,minus,dotcolour,alfa,,,96,20,V,R,
723,93,9,17,5,33,47,533,['n'],1,right,['2'],5,262,[-0.14202547],92,47,medium,minus,dotcolour,alfa,,,96,20,V,R,
724,94,10,17,5,27,53,634,['n'],1,right,['2'],5,203,[0.01957725],40,53,easy,minus,dotcolour,alfa,,,96,20,V,R,
725,95,11,17,5,27,53,500,['n'],1,right,['2'],5,200,[-0.0927655],87,53,easy,minus,dotcolour,alfa,,,96,20,V,R,
726,96,12,17,5,47,33,717,['c'],1,left,['3'],4,357,[0.02971604],61,47,medium,minus,dotcolour,alfa,,,96,20,V,R,
727,97,13,17,5,53,27,650,['c'],1,left,['3'],4,318,[0.16188182],93,53,easy,minus,dotcolour,alfa,,,96,20,V,R,
728,98,14,17,5,33,47,583,['n'],1,right,['9'],2,411,[-0.14392337],88,47,medium,minus,dotcolour,alfa,,,96,20,V,R,
729,99,15,17,5,44,36,534,['c'],1,left,['3'],4,230,[0.12406207],91,44,hard,minus,dotcolour,alfa,,,96,20,V,R,
730,100,16,17,5,53,27,600,['n'],0,left,['0'],1,566,[-0.02053127],56,53,easy,minus,dotcolour,alfa,,,96,20,V,R,
731,101,17,17,5,47,33,799,['c'],1,left,['3'],4,353,[0.05727763],70,47,medium,minus,dotcolour,alfa,,,96,20,V,R,
732,102,18,17,5,33,47,950,['n'],1,right,['2'],5,510,[-0.10705461],79,47,medium,minus,dotcolour,alfa,,,96,20,V,R,
733,103,19,17,5,53,27,683,['c'],1,left,['2'],5,279,[0.12924792],90,53,easy,minus,dotcolour,alfa,,,96,20,V,R,
734,104,20,17,5,44,36,534,['c'],1,left,['2'],5,280,[0.13184411],90,44,hard,minus,dotcolour,alfa,,,96,20,V,R,
735,105,21,17,5,47,33,350,['c'],1,left,['2'],5,504,[0.20460416],93,47,medium,minus,dotcolour,alfa,,,96,20,V,R,
736,106,22,17,5,44,36,366,['c'],1,left,['2'],5,358,[0.05969157],71,44,hard,minus,dotcolour,alfa,,,96,20,V,R,
737,107,23,17,5,33,47,651,['n'],1,right,['2'],5,295,[-0.11680878],87,47,medium,minus,dotcolour,alfa,,,96,20,V,R,
738,108,24,17,5,33,47,533,['n'],1,right,['2'],5,255,[-0.03516024],65,47,medium,minus,dotcolour,alfa,,,96,20,V,R,
739,109,25,17,5,33,47,616,['n'],1,right,['3'],4,294,[-0.07755873],78,47,medium,minus,dotcolour,alfa,,,96,20,V,R,
740,110,26,17,5,36,44,834,['c'],0,right,['3'],4,386,[0.07750975],75,44,hard,minus,dotcolour,alfa,,,96,20,V,R,
741,111,27,17,5,36,44,417,['c'],0,right,['2'],5,299,[-0.08095288],21,44,hard,minus,dotcolour,alfa,,,96,20,V,R,
742,112,28,17,5,36,44,616,['n'],1,right,['2'],5,240,[-0.02076675],59,44,hard,minus,dotcolour,alfa,,,96,20,V,R,
743,113,29,17,5,36,44,517,['c'],0,right,['2'],5,250,[0.04169357],68,44,hard,minus,dotcolour,alfa,,,96,20,V,R,
744,114,30,17,5,47,33,549,['c'],1,left,['2'],5,340,[0.1330736],89,47,medium,minus,dotcolour,alfa,,,96,20,V,R,
745,115,31,17,5,27,53,634,['c'],0,right,['2'],5,310,[-0.03351152],37,53,easy,minus,dotcolour,alfa,,,96,20,V,R,
746,116,32,17,5,47,33,434,['c'],1,left,['3'],4,361,[0.1225481],86,47,medium,minus,dotcolour,alfa,,,96,20,V,R,
747,117,33,17,5,44,36,500,['c'],1,left,['2'],5,288,[0.05123785],70,44,hard,minus,dotcolour,alfa,,,96,20,V,R,
748,118,34,17,5,53,27,468,['c'],1,left,['2'],5,323,[0.08958533],81,53,easy,minus,dotcolour,alfa,,,96,20,V,R,
749,119,35,17,5,27,53,716,['n'],1,right,['2'],5,242,[0.01295603],44,53,easy,minus,dotcolour,alfa,,,96,20,V,R,
750,120,36,17,5,27,53,534,['n'],1,right,['2'],5,252,[-0.11120129],88,53,easy,minus,dotcolour,alfa,,,96,20,V,R,
751,121,37,17,5,44,36,550,['n'],0,left,['0'],1,630,[-0.01498244],54,44,hard,minus,dotcolour,alfa,,,96,20,V,R,
752,122,38,17,5,33,47,566,['n'],1,right,['9'],2,399,[-0.06668211],72,47,medium,minus,dotcolour,alfa,,,96,20,V,R,
753,123,39,17,5,47,33,550,['c'],1,left,['2'],5,298,[0.021321],59,47,medium,minus,dotcolour,alfa,,,96,20,V,R,
754,124,40,17,5,47,33,517,['c'],1,left,['2'],5,259,[0.04899713],70,47,medium,minus,dotcolour,alfa,,,96,20,V,R,
755,125,41,17,5,36,44,1100,['n'],1,right,['3'],4,286,[-0.01512265],56,44,hard,minus,dotcolour,alfa,,,96,20,V,R,
,,,,,,,,,,,,,,,,,,,,,1,"dat de percentages helemaal niet overeen kwamen met hoe juist of hoe zeker mijn
 antwoord was ",96,20,V,R,
,,,,,,,,,,,,,,,,,,,,,2,['d'],96,20,V,R,
,,,,,,,,,,,,,,,,,,,,,3,['d'],96,20,V,R,
,,,,,,,,,,,,,,,,,,,,,5,['5'],96,20,V,R,
