trial,withinphasetrial,withinblocktrial,block,phase,dotsLeft,dotsRight,rt,resp,cor,cresp,conf_press,cj,RTconf,ev,fb,diff,difflevel,condition,task,manip,questionID,questionResp,sub,age,gender,handedness,
0,0,0,0,0,44,36,3116,['n'],0,left,['8'],4,4266,[-0.27954818],99,44,hard,plus,dotcolour,alfa,,,110,19,V,L,
1,1,1,0,0,33,47,1984,['n'],1,right,['9'],5,5879,[-0.77061993],100,47,medium,plus,dotcolour,alfa,,,110,19,V,L,
2,2,2,0,0,53,27,1534,['c'],1,left,['0'],6,2165,[0.67406833],100,53,easy,plus,dotcolour,alfa,,,110,19,V,L,
3,3,3,0,0,53,27,3166,['c'],1,left,['9'],5,3608,[0.60963689],100,53,easy,plus,dotcolour,alfa,,,110,19,V,L,
4,4,4,0,0,53,27,2184,['c'],1,left,['9'],5,3194,[0.58417287],100,53,easy,plus,dotcolour,alfa,,,110,19,V,L,
5,5,5,0,0,33,47,1483,['n'],1,right,['0'],6,679,[-0.17562439],100,47,medium,plus,dotcolour,alfa,,,110,19,V,L,
6,6,6,0,0,47,33,1434,['c'],1,left,['9'],5,4995,[0.83422688],100,47,medium,plus,dotcolour,alfa,,,110,19,V,L,
7,7,7,0,0,27,53,1534,['n'],1,right,['0'],6,662,[-0.27440872],100,53,easy,plus,dotcolour,alfa,,,110,19,V,L,
8,8,8,0,0,53,27,1384,['c'],1,left,['9'],5,1870,[0.35048616],100,53,easy,plus,dotcolour,alfa,,,110,19,V,L,
9,9,9,0,0,27,53,1250,['n'],1,right,['0'],6,978,[-0.21282807],100,53,easy,plus,dotcolour,alfa,,,110,19,V,L,
10,10,10,0,0,33,47,1866,['n'],1,right,['9'],5,1746,[-0.17817146],99,47,medium,plus,dotcolour,alfa,,,110,19,V,L,
11,11,11,0,0,36,44,2101,['n'],1,right,['8'],4,1616,[-0.00724066],55,44,hard,plus,dotcolour,alfa,,,110,19,V,L,
12,12,12,0,0,47,33,3799,['n'],0,left,['8'],4,2480,[0.01111821],44,47,medium,plus,dotcolour,alfa,,,110,19,V,L,
13,13,13,0,0,27,53,2135,['n'],1,right,['9'],5,1272,[-0.09108909],95,53,easy,plus,dotcolour,alfa,,,110,19,V,L,
14,14,14,0,0,53,27,983,['c'],1,left,['0'],6,1951,[0.5172875],100,53,easy,plus,dotcolour,alfa,,,110,19,V,L,
15,15,15,0,0,27,53,2284,['n'],1,right,['0'],6,1318,[-0.20303579],100,53,easy,plus,dotcolour,alfa,,,110,19,V,L,
16,16,16,0,0,33,47,1466,['n'],1,right,['9'],5,1343,[0.10042986],4,47,medium,plus,dotcolour,alfa,,,110,19,V,L,
17,17,17,0,0,44,36,4650,['c'],1,left,['8'],4,1753,[0.27292291],100,44,hard,plus,dotcolour,alfa,,,110,19,V,L,
18,18,18,0,0,47,33,1317,['c'],1,left,['0'],6,1495,[0.13496257],98,47,medium,plus,dotcolour,alfa,,,110,19,V,L,
19,19,19,0,0,33,47,1651,['n'],1,right,['9'],5,1466,[-0.11231199],97,47,medium,plus,dotcolour,alfa,,,110,19,V,L,
20,20,20,0,0,53,27,1250,['c'],1,left,['9'],5,1213,[0.07465652],92,53,easy,plus,dotcolour,alfa,,,110,19,V,L,
21,21,21,0,0,36,44,1584,['n'],1,right,['9'],5,1726,[-0.18136189],99,44,hard,plus,dotcolour,alfa,,,110,19,V,L,
22,22,22,0,0,47,33,1166,['c'],1,left,['0'],6,964,[0.27233644],100,47,medium,plus,dotcolour,alfa,,,110,19,V,L,
23,23,23,0,0,27,53,1117,['n'],1,right,['0'],6,1481,[-0.49477183],100,53,easy,plus,dotcolour,alfa,,,110,19,V,L,
24,24,24,0,0,44,36,1867,['n'],0,left,['8'],4,925,[0.07439619],6,44,hard,plus,dotcolour,alfa,,,110,19,V,L,
25,25,25,0,0,44,36,3300,['c'],1,left,['8'],4,3604,[0.24267124],99,44,hard,plus,dotcolour,alfa,,,110,19,V,L,
26,26,26,0,0,36,44,3050,['n'],1,right,['9'],5,3010,[-0.15606053],96,44,hard,plus,dotcolour,alfa,,,110,19,V,L,
27,27,27,0,0,47,33,1100,['c'],1,left,['0'],6,1022,[0.30264388],100,47,medium,plus,dotcolour,alfa,,,110,19,V,L,
28,28,28,0,0,27,53,1033,['n'],1,right,['0'],6,1029,[-0.11805987],99,53,easy,plus,dotcolour,alfa,,,110,19,V,L,
29,29,29,0,0,36,44,1950,['n'],1,right,['9'],5,839,[-0.18113222],100,44,hard,plus,dotcolour,alfa,,,110,19,V,L,
30,30,30,0,0,27,53,1067,['n'],1,right,['9'],5,492,[-0.10865048],100,53,easy,plus,dotcolour,alfa,,,110,19,V,L,
31,31,31,0,0,33,47,967,['n'],1,right,['0'],6,699,[-0.17693857],100,47,medium,plus,dotcolour,alfa,,,110,19,V,L,
32,32,32,0,0,44,36,1467,['c'],1,left,['9'],5,1237,[0.00017212],50,44,hard,plus,dotcolour,alfa,,,110,19,V,L,
33,33,33,0,0,44,36,1766,['n'],0,left,['8'],4,862,[-0.04038284],83,44,hard,plus,dotcolour,alfa,,,110,19,V,L,
34,34,34,0,0,53,27,1500,['c'],1,left,['0'],6,449,[0.10835318],100,53,easy,plus,dotcolour,alfa,,,110,19,V,L,
35,35,35,0,0,36,44,1250,['n'],1,right,['0'],6,390,[-0.17065123],100,44,hard,plus,dotcolour,alfa,,,110,19,V,L,
36,36,36,0,0,44,36,1166,['c'],1,left,['0'],6,417,[0.13285468],100,44,hard,plus,dotcolour,alfa,,,110,19,V,L,
37,37,37,0,0,47,33,3383,['n'],0,left,['9'],5,1026,[-0.08984695],96,47,medium,plus,dotcolour,alfa,,,110,19,V,L,
38,38,38,0,0,36,44,1400,['n'],1,right,['9'],5,1522,[-0.08994906],93,44,hard,plus,dotcolour,alfa,,,110,19,V,L,
39,39,39,0,0,36,44,2883,['n'],1,right,['8'],4,403,[-0.1835729],100,44,hard,plus,dotcolour,alfa,,,110,19,V,L,
40,40,40,0,0,33,47,1100,['n'],1,right,['8'],4,368,[-0.07961294],99,47,medium,plus,dotcolour,alfa,,,110,19,V,L,
41,41,41,0,0,47,33,1334,['c'],1,left,['0'],6,645,[0.07622152],97,47,medium,plus,dotcolour,alfa,,,110,19,V,L,
42,42,0,1,0,44,36,1117,['n'],0,left,['9'],5,2195,[-0.0284209],67,44,hard,plus,dotcolour,alfa,,,110,19,V,L,
43,43,1,1,0,47,33,1150,['c'],1,left,['0'],6,550,[0.10251728],99,47,medium,plus,dotcolour,alfa,,,110,19,V,L,
44,44,2,1,0,27,53,883,['n'],1,right,['0'],6,374,[-0.09293759],100,53,easy,plus,dotcolour,alfa,,,110,19,V,L,
45,45,3,1,0,53,27,718,['c'],1,left,['0'],6,315,[0.12432951],100,53,easy,plus,dotcolour,alfa,,,110,19,V,L,
46,46,4,1,0,47,33,2117,['c'],1,left,['9'],5,1347,[0.14555869],99,47,medium,plus,dotcolour,alfa,,,110,19,V,L,
47,47,5,1,0,47,33,1600,['c'],1,left,['0'],6,1830,[0.24279712],100,47,medium,plus,dotcolour,alfa,,,110,19,V,L,
48,48,6,1,0,33,47,1367,['n'],1,right,['9'],5,1271,[-0.16173087],99,47,medium,plus,dotcolour,alfa,,,110,19,V,L,
49,49,7,1,0,47,33,1783,['c'],1,left,['9'],5,637,[0.0687425],96,47,medium,plus,dotcolour,alfa,,,110,19,V,L,
50,50,8,1,0,33,47,1467,['n'],1,right,['9'],5,1474,[-0.00758959],56,47,medium,plus,dotcolour,alfa,,,110,19,V,L,
51,51,9,1,0,33,47,2083,['n'],1,right,['8'],4,661,[-0.02827712],78,47,medium,plus,dotcolour,alfa,,,110,19,V,L,
52,52,10,1,0,27,53,1100,['n'],1,right,['0'],6,1231,[-0.33855011],100,53,easy,plus,dotcolour,alfa,,,110,19,V,L,
53,53,11,1,0,36,44,1366,['n'],1,right,['0'],6,449,[-0.13343015],100,44,hard,plus,dotcolour,alfa,,,110,19,V,L,
54,54,12,1,0,36,44,1333,['c'],0,right,['8'],4,962,[-0.04047294],18,44,hard,plus,dotcolour,alfa,,,110,19,V,L,
55,55,13,1,0,33,47,2550,['n'],1,right,['8'],4,1519,[-0.13556417],98,47,medium,plus,dotcolour,alfa,,,110,19,V,L,
56,56,14,1,0,36,44,1617,['n'],1,right,['8'],4,402,[-0.11474218],100,44,hard,plus,dotcolour,alfa,,,110,19,V,L,
57,57,15,1,0,36,44,1783,['n'],1,right,['8'],4,708,[-0.14358655],100,44,hard,plus,dotcolour,alfa,,,110,19,V,L,
58,58,16,1,0,47,33,1100,['c'],1,left,['0'],6,525,[0.17223146],100,47,medium,plus,dotcolour,alfa,,,110,19,V,L,
59,59,17,1,0,53,27,1050,['c'],1,left,['0'],6,231,[0.08631008],100,53,easy,plus,dotcolour,alfa,,,110,19,V,L,
60,60,18,1,0,44,36,1700,['n'],0,left,['8'],4,795,[-0.08129204],96,44,hard,plus,dotcolour,alfa,,,110,19,V,L,
61,61,19,1,0,53,27,1600,['c'],1,left,['0'],6,605,[0.23080621],100,53,easy,plus,dotcolour,alfa,,,110,19,V,L,
62,62,20,1,0,53,27,1167,['c'],1,left,['0'],6,263,[0.05549737],98,53,easy,plus,dotcolour,alfa,,,110,19,V,L,
63,63,21,1,0,27,53,1150,['n'],1,right,['0'],6,223,[-0.12275272],100,53,easy,plus,dotcolour,alfa,,,110,19,V,L,
64,64,22,1,0,44,36,1599,['c'],1,left,['9'],5,1103,[0.30288082],100,44,hard,plus,dotcolour,alfa,,,110,19,V,L,
65,65,23,1,0,36,44,2850,['n'],1,right,['0'],6,1010,[-0.18260452],100,44,hard,plus,dotcolour,alfa,,,110,19,V,L,
66,66,24,1,0,53,27,1017,['c'],1,left,['0'],6,138,[0.19211324],100,53,easy,plus,dotcolour,alfa,,,110,19,V,L,
67,67,25,1,0,44,36,2267,['c'],1,left,['9'],5,515,[-0.00978977],38,44,hard,plus,dotcolour,alfa,,,110,19,V,L,
68,68,26,1,0,27,53,1167,['n'],1,right,['0'],6,217,[-0.08719219],100,53,easy,plus,dotcolour,alfa,,,110,19,V,L,
69,69,27,1,0,53,27,866,['c'],1,left,['0'],6,215,[0.11087093],100,53,easy,plus,dotcolour,alfa,,,110,19,V,L,
70,70,28,1,0,27,53,1067,['n'],1,right,['0'],6,181,[-0.10026718],100,53,easy,plus,dotcolour,alfa,,,110,19,V,L,
71,71,29,1,0,53,27,834,['c'],1,left,['0'],6,254,[0.20401728],100,53,easy,plus,dotcolour,alfa,,,110,19,V,L,
72,72,30,1,0,47,33,933,['c'],1,left,['0'],6,216,[0.1049459],100,47,medium,plus,dotcolour,alfa,,,110,19,V,L,
73,73,31,1,0,44,36,1316,['c'],1,left,['9'],5,405,[0.06239836],97,44,hard,plus,dotcolour,alfa,,,110,19,V,L,
74,74,32,1,0,47,33,1000,['c'],1,left,['0'],6,189,[0.09648852],100,47,medium,plus,dotcolour,alfa,,,110,19,V,L,
75,75,33,1,0,44,36,834,['c'],1,left,['0'],6,165,[0.15821498],100,44,hard,plus,dotcolour,alfa,,,110,19,V,L,
76,76,34,1,0,36,44,1216,['n'],1,right,['0'],6,239,[-0.10594955],100,44,hard,plus,dotcolour,alfa,,,110,19,V,L,
77,77,35,1,0,27,53,1483,['n'],1,right,['0'],6,252,[-0.054244],98,53,easy,plus,dotcolour,alfa,,,110,19,V,L,
78,78,36,1,0,27,53,968,['n'],1,right,['0'],6,213,[-0.09757305],100,53,easy,plus,dotcolour,alfa,,,110,19,V,L,
79,79,37,1,0,36,44,1199,['c'],0,right,['9'],5,302,[0.02402506],83,44,hard,plus,dotcolour,alfa,,,110,19,V,L,
80,80,38,1,0,33,47,1417,['n'],1,right,['0'],6,242,[-0.15912942],100,47,medium,plus,dotcolour,alfa,,,110,19,V,L,
81,81,39,1,0,44,36,1466,['n'],0,left,['8'],4,519,[-0.0207248],74,44,hard,plus,dotcolour,alfa,,,110,19,V,L,
82,82,40,1,0,33,47,1368,['n'],1,right,['0'],6,236,[-0.07041111],99,47,medium,plus,dotcolour,alfa,,,110,19,V,L,
83,83,41,1,0,33,47,967,['c'],0,right,['0'],6,246,[0.08646761],100,47,medium,plus,dotcolour,alfa,,,110,19,V,L,
84,84,0,2,0,47,33,1950,['c'],1,left,['0'],6,578,[0.10740082],99,47,medium,plus,dotcolour,alfa,,,110,19,V,L,
85,85,1,2,0,33,47,917,['n'],1,right,['0'],6,135,[-0.10168536],100,47,medium,plus,dotcolour,alfa,,,110,19,V,L,
86,86,2,2,0,44,36,917,['c'],1,left,['9'],5,238,[0.11999353],100,44,hard,plus,dotcolour,alfa,,,110,19,V,L,
87,87,3,2,0,47,33,1183,['c'],1,left,['0'],6,151,[0.13113563],100,47,medium,plus,dotcolour,alfa,,,110,19,V,L,
88,88,4,2,0,44,36,1184,['c'],1,left,['9'],5,555,[0.19681221],100,44,hard,plus,dotcolour,alfa,,,110,19,V,L,
89,89,5,2,0,44,36,1032,['c'],1,left,['0'],6,260,[0.03241788],91,44,hard,plus,dotcolour,alfa,,,110,19,V,L,
90,90,6,2,0,36,44,2284,['n'],1,right,['9'],5,1647,[-0.30162043],100,44,hard,plus,dotcolour,alfa,,,110,19,V,L,
91,91,7,2,0,53,27,983,['c'],1,left,['0'],6,127,[0.03484291],97,53,easy,plus,dotcolour,alfa,,,110,19,V,L,
92,92,8,2,0,33,47,1283,['n'],1,right,['0'],6,183,[-0.05033984],99,47,medium,plus,dotcolour,alfa,,,110,19,V,L,
93,93,9,2,0,36,44,1534,['n'],1,right,['0'],6,140,[-0.06119744],100,44,hard,plus,dotcolour,alfa,,,110,19,V,L,
94,94,10,2,0,27,53,900,['n'],1,right,['0'],6,132,[-0.06221494],100,53,easy,plus,dotcolour,alfa,,,110,19,V,L,
95,95,11,2,0,36,44,984,['n'],1,right,['0'],6,152,[-0.04762556],99,44,hard,plus,dotcolour,alfa,,,110,19,V,L,
96,96,12,2,0,44,36,1049,['c'],1,left,['0'],6,210,[0.09062641],100,44,hard,plus,dotcolour,alfa,,,110,19,V,L,
97,97,13,2,0,33,47,1001,['n'],1,right,['0'],6,170,[-0.08957029],100,47,medium,plus,dotcolour,alfa,,,110,19,V,L,
98,98,14,2,0,44,36,1483,['c'],1,left,['8'],4,1170,[0.07650299],93,44,hard,plus,dotcolour,alfa,,,110,19,V,L,
99,99,15,2,0,36,44,1967,['n'],1,right,['8'],4,677,[-0.08089252],97,44,hard,plus,dotcolour,alfa,,,110,19,V,L,
100,100,16,2,0,44,36,884,['c'],1,left,['0'],6,456,[0.03267766],85,44,hard,plus,dotcolour,alfa,,,110,19,V,L,
101,101,17,2,0,47,33,1517,['c'],1,left,['9'],5,1202,[0.25726194],100,47,medium,plus,dotcolour,alfa,,,110,19,V,L,
102,102,18,2,0,27,53,933,['n'],1,right,['0'],6,173,[-0.07257629],100,53,easy,plus,dotcolour,alfa,,,110,19,V,L,
103,103,19,2,0,53,27,867,['c'],1,left,['0'],6,188,[0.07339337],100,53,easy,plus,dotcolour,alfa,,,110,19,V,L,
104,104,20,2,0,36,44,1017,['n'],1,right,['0'],6,230,[-0.11089203],100,44,hard,plus,dotcolour,alfa,,,110,19,V,L,
105,105,21,2,0,53,27,1050,['c'],1,left,['0'],6,492,[0.23201042],100,53,easy,plus,dotcolour,alfa,,,110,19,V,L,
106,106,22,2,0,44,36,1650,['c'],1,left,['0'],6,495,[0.04541266],91,44,hard,plus,dotcolour,alfa,,,110,19,V,L,
107,107,23,2,0,36,44,1601,['n'],1,right,['9'],5,1300,[0.01283772],40,44,hard,plus,dotcolour,alfa,,,110,19,V,L,
108,108,24,2,0,33,47,1099,['n'],1,right,['0'],6,1158,[-0.19383967],100,47,medium,plus,dotcolour,alfa,,,110,19,V,L,
109,109,25,2,0,47,33,1833,['c'],1,left,['9'],5,614,[0.10185356],99,47,medium,plus,dotcolour,alfa,,,110,19,V,L,
110,110,26,2,0,47,33,1217,['c'],1,left,['8'],4,1486,[0.20383437],100,47,medium,plus,dotcolour,alfa,,,110,19,V,L,
111,111,27,2,0,53,27,1083,['c'],1,left,['0'],6,489,[0.10940188],100,53,easy,plus,dotcolour,alfa,,,110,19,V,L,
112,112,28,2,0,27,53,2383,['n'],1,right,['9'],5,559,[-0.16138676],100,53,easy,plus,dotcolour,alfa,,,110,19,V,L,
113,113,29,2,0,33,47,2450,['n'],1,right,['9'],5,407,[-0.09673139],100,47,medium,plus,dotcolour,alfa,,,110,19,V,L,
114,114,30,2,0,27,53,1433,['n'],1,right,['0'],6,183,[-0.07725864],100,53,easy,plus,dotcolour,alfa,,,110,19,V,L,
115,115,31,2,0,47,33,1550,['n'],0,left,['9'],5,499,[0.08362971],1,47,medium,plus,dotcolour,alfa,,,110,19,V,L,
116,116,32,2,0,27,53,967,['n'],1,right,['0'],6,105,[-0.09290862],100,53,easy,plus,dotcolour,alfa,,,110,19,V,L,
117,117,33,2,0,36,44,1684,['c'],0,right,['0'],6,740,[-0.01252402],37,44,hard,plus,dotcolour,alfa,,,110,19,V,L,
118,118,34,2,0,33,47,1233,['n'],1,right,['0'],6,430,[-0.12189794],100,47,medium,plus,dotcolour,alfa,,,110,19,V,L,
119,119,35,2,0,27,53,817,['n'],1,right,['0'],6,165,[-0.03908052],97,53,easy,plus,dotcolour,alfa,,,110,19,V,L,
120,120,36,2,0,53,27,1016,['c'],1,left,['0'],6,735,[0.07797769],96,53,easy,plus,dotcolour,alfa,,,110,19,V,L,
121,121,37,2,0,33,47,934,['n'],1,right,['0'],6,141,[-0.08193421],100,47,medium,plus,dotcolour,alfa,,,110,19,V,L,
122,122,38,2,0,47,33,1000,['c'],1,left,['0'],6,552,[0.14922799],100,47,medium,plus,dotcolour,alfa,,,110,19,V,L,
123,123,39,2,0,27,53,733,['c'],0,right,['0'],6,206,[0.02948049],91,53,easy,plus,dotcolour,alfa,,,110,19,V,L,
124,124,40,2,0,53,27,1034,['c'],1,left,['0'],6,142,[0.12109418],100,53,easy,plus,dotcolour,alfa,,,110,19,V,L,
125,125,41,2,0,53,27,983,['c'],1,left,['0'],6,122,[0.15527305],100,53,easy,plus,dotcolour,alfa,,,110,19,V,L,
126,0,0,3,1,27,53,8668,['n'],1,right,['9'],5,1753,[-0.53698951],97,53,easy,minus,dotcolour,alfa,,,110,19,V,L,
127,1,1,3,1,44,36,1517,['c'],1,left,['8'],4,552,[0.03368442],60,44,hard,minus,dotcolour,alfa,,,110,19,V,L,
128,2,2,3,1,44,36,1317,['c'],1,left,['0'],6,286,[0.05553286],72,44,hard,minus,dotcolour,alfa,,,110,19,V,L,
129,3,3,3,1,53,27,1168,['c'],1,left,['0'],6,133,[0.08416436],89,53,easy,minus,dotcolour,alfa,,,110,19,V,L,
130,4,4,3,1,47,33,1117,['c'],1,left,['0'],6,197,[0.11208069],91,47,medium,minus,dotcolour,alfa,,,110,19,V,L,
131,5,5,3,1,27,53,1817,['n'],1,right,['0'],6,709,[-0.1474925],83,53,easy,minus,dotcolour,alfa,,,110,19,V,L,
132,6,6,3,1,27,53,933,['n'],1,right,['0'],6,189,[-0.15664993],96,53,easy,minus,dotcolour,alfa,,,110,19,V,L,
133,7,7,3,1,33,47,1483,['n'],1,right,['0'],6,123,[-0.12207004],96,47,medium,minus,dotcolour,alfa,,,110,19,V,L,
134,8,8,3,1,53,27,950,['c'],1,left,['0'],6,169,[0.14007099],96,53,easy,minus,dotcolour,alfa,,,110,19,V,L,
135,9,9,3,1,36,44,733,['n'],1,right,['0'],6,127,[-0.13136782],97,44,hard,minus,dotcolour,alfa,,,110,19,V,L,
136,10,10,3,1,47,33,883,['c'],1,left,['0'],6,104,[0.08973545],92,47,medium,minus,dotcolour,alfa,,,110,19,V,L,
137,11,11,3,1,33,47,1117,['n'],1,right,['0'],6,112,[-0.10421331],94,47,medium,minus,dotcolour,alfa,,,110,19,V,L,
138,12,12,3,1,36,44,1067,['n'],1,right,['0'],6,146,[-0.11798567],94,44,hard,minus,dotcolour,alfa,,,110,19,V,L,
139,13,13,3,1,44,36,1950,['n'],0,left,['8'],4,447,[-0.01210853],54,44,hard,minus,dotcolour,alfa,,,110,19,V,L,
140,14,14,3,1,36,44,1116,['n'],1,right,['0'],6,146,[-0.13856375],96,44,hard,minus,dotcolour,alfa,,,110,19,V,L,
141,15,15,3,1,36,44,1651,['c'],0,right,['9'],5,1140,[0.09308313],69,44,hard,minus,dotcolour,alfa,,,110,19,V,L,
142,16,16,3,1,27,53,1067,['n'],1,right,['0'],6,284,[-0.08983735],82,53,easy,minus,dotcolour,alfa,,,110,19,V,L,
143,17,17,3,1,27,53,1551,['n'],1,right,['0'],6,189,[-0.07458987],82,53,easy,minus,dotcolour,alfa,,,110,19,V,L,
144,18,18,3,1,44,36,1450,['c'],1,left,['9'],5,684,[0.10839232],76,44,hard,minus,dotcolour,alfa,,,110,19,V,L,
145,19,19,3,1,47,33,1183,['c'],1,left,['0'],6,99,[0.04342568],78,47,medium,minus,dotcolour,alfa,,,110,19,V,L,
146,20,20,3,1,33,47,901,['n'],1,right,['0'],6,108,[-0.02735347],68,47,medium,minus,dotcolour,alfa,,,110,19,V,L,
147,21,21,3,1,33,47,3450,['n'],1,right,['8'],4,632,[-0.11343051],78,47,medium,minus,dotcolour,alfa,,,110,19,V,L,
148,22,22,3,1,33,47,1400,['n'],1,right,['0'],6,1471,[-0.29812398],90,47,medium,minus,dotcolour,alfa,,,110,19,V,L,
149,23,23,3,1,47,33,800,['c'],1,left,['9'],5,1261,[0.2097454],84,47,medium,minus,dotcolour,alfa,,,110,19,V,L,
150,24,24,3,1,44,36,2000,['c'],1,left,['8'],4,180,[0.03662688],69,44,hard,minus,dotcolour,alfa,,,110,19,V,L,
151,25,25,3,1,27,53,1034,['n'],1,right,['0'],6,189,[-0.13205911],94,53,easy,minus,dotcolour,alfa,,,110,19,V,L,
152,26,26,3,1,53,27,1050,['c'],1,left,['0'],6,149,[0.13410619],96,53,easy,minus,dotcolour,alfa,,,110,19,V,L,
153,27,27,3,1,36,44,2033,['n'],1,right,['9'],5,710,[0.06837795],33,44,hard,minus,dotcolour,alfa,,,110,19,V,L,
154,28,28,3,1,47,33,1300,['c'],1,left,['0'],6,1047,[0.1868315],84,47,medium,minus,dotcolour,alfa,,,110,19,V,L,
155,29,29,3,1,44,36,1551,['c'],1,left,['9'],5,585,[0.10516659],78,44,hard,minus,dotcolour,alfa,,,110,19,V,L,
156,30,30,3,1,36,44,1833,['n'],1,right,['0'],6,1145,[0.06079339],37,44,hard,minus,dotcolour,alfa,,,110,19,V,L,
157,31,31,3,1,47,33,1417,['c'],1,left,['0'],6,236,[0.15156207],94,47,medium,minus,dotcolour,alfa,,,110,19,V,L,
158,32,32,3,1,53,27,1050,['c'],1,left,['0'],6,314,[0.04641624],68,53,easy,minus,dotcolour,alfa,,,110,19,V,L,
159,33,33,3,1,33,47,1350,['n'],1,right,['9'],5,657,[-0.08298168],72,47,medium,minus,dotcolour,alfa,,,110,19,V,L,
160,34,34,3,1,27,53,1600,['n'],1,right,['0'],6,1447,[-0.5161537],98,53,easy,minus,dotcolour,alfa,,,110,19,V,L,
161,35,35,3,1,33,47,1033,['n'],1,right,['0'],6,109,[-0.08189915],90,47,medium,minus,dotcolour,alfa,,,110,19,V,L,
162,36,36,3,1,53,27,1000,['c'],1,left,['0'],6,73,[0.10730545],97,53,easy,minus,dotcolour,alfa,,,110,19,V,L,
163,37,37,3,1,53,27,1100,['c'],1,left,['0'],6,91,[0.10441212],96,53,easy,minus,dotcolour,alfa,,,110,19,V,L,
164,38,38,3,1,36,44,1550,['n'],1,right,['9'],5,499,[0.00905298],47,44,hard,minus,dotcolour,alfa,,,110,19,V,L,
165,39,39,3,1,47,33,2216,['c'],1,left,['9'],5,1016,[0.09695079],70,47,medium,minus,dotcolour,alfa,,,110,19,V,L,
166,40,40,3,1,44,36,1900,['c'],1,left,['0'],6,148,[0.00798798],55,44,hard,minus,dotcolour,alfa,,,110,19,V,L,
167,41,41,3,1,53,27,850,['c'],1,left,['0'],6,150,[0.10796702],92,53,easy,minus,dotcolour,alfa,,,110,19,V,L,
168,42,0,4,1,47,33,2200,['c'],1,left,['9'],5,679,[0.08035345],71,47,medium,minus,dotcolour,alfa,,,110,19,V,L,
169,43,1,4,1,47,33,717,['c'],1,left,['9'],5,328,[0.07784499],77,47,medium,minus,dotcolour,alfa,,,110,19,V,L,
170,44,2,4,1,33,47,1301,['n'],1,right,['0'],6,160,[-0.14173869],96,47,medium,minus,dotcolour,alfa,,,110,19,V,L,
171,45,3,4,1,47,33,917,['c'],1,left,['0'],6,94,[0.08583983],93,47,medium,minus,dotcolour,alfa,,,110,19,V,L,
172,46,4,4,1,27,53,834,['n'],1,right,['0'],6,66,[-0.11151392],98,53,easy,minus,dotcolour,alfa,,,110,19,V,L,
173,47,5,4,1,44,36,1650,['c'],1,left,['9'],5,304,[0.00302927],51,44,hard,minus,dotcolour,alfa,,,110,19,V,L,
174,48,6,4,1,33,47,1067,['n'],1,right,['0'],6,50,[-0.06302852],93,47,medium,minus,dotcolour,alfa,,,110,19,V,L,
175,49,7,4,1,53,27,867,['c'],1,left,['0'],6,87,[0.10440774],96,53,easy,minus,dotcolour,alfa,,,110,19,V,L,
176,50,8,4,1,44,36,1283,['n'],0,left,['0'],6,41,[-0.05598221],92,44,hard,minus,dotcolour,alfa,,,110,19,V,L,
177,51,9,4,1,53,27,1050,['c'],1,left,['0'],6,86,[0.04770102],81,53,easy,minus,dotcolour,alfa,,,110,19,V,L,
178,52,10,4,1,47,33,1818,['c'],1,left,['9'],5,172,[0.01234235],57,47,medium,minus,dotcolour,alfa,,,110,19,V,L,
179,53,11,4,1,53,27,968,['c'],1,left,['0'],6,96,[0.0797364],91,53,easy,minus,dotcolour,alfa,,,110,19,V,L,
180,54,12,4,1,33,47,1316,['n'],1,right,['0'],6,153,[-0.12818132],95,47,medium,minus,dotcolour,alfa,,,110,19,V,L,
181,55,13,4,1,27,53,1533,['n'],1,right,['0'],6,111,[-0.15140665],98,53,easy,minus,dotcolour,alfa,,,110,19,V,L,
182,56,14,4,1,53,27,866,['c'],1,left,['0'],6,113,[0.13522992],97,53,easy,minus,dotcolour,alfa,,,110,19,V,L,
183,57,15,4,1,53,27,950,['c'],1,left,['0'],6,87,[0.13610389],98,53,easy,minus,dotcolour,alfa,,,110,19,V,L,
184,58,16,4,1,44,36,2767,['c'],1,left,['9'],5,223,[0.10243036],88,44,hard,minus,dotcolour,alfa,,,110,19,V,L,
185,59,17,4,1,36,44,1300,['n'],1,right,['0'],6,267,[-0.09120418],83,44,hard,minus,dotcolour,alfa,,,110,19,V,L,
186,60,18,4,1,36,44,1000,['n'],1,right,['0'],6,107,[-0.06418915],85,44,hard,minus,dotcolour,alfa,,,110,19,V,L,
187,61,19,4,1,44,36,1817,['n'],0,left,['8'],4,1118,[-0.05035967],61,44,hard,minus,dotcolour,alfa,,,110,19,V,L,
188,62,20,4,1,33,47,917,['n'],1,right,['0'],6,77,[-0.15477143],99,47,medium,minus,dotcolour,alfa,,,110,19,V,L,
189,63,21,4,1,36,44,2084,['c'],0,right,['9'],5,305,[0.01746629],57,44,hard,minus,dotcolour,alfa,,,110,19,V,L,
190,64,22,4,1,36,44,1984,['n'],1,right,['9'],5,454,[-0.20011387],94,44,hard,minus,dotcolour,alfa,,,110,19,V,L,
191,65,23,4,1,33,47,1401,['n'],1,right,['0'],6,117,[-0.12653467],97,47,medium,minus,dotcolour,alfa,,,110,19,V,L,
192,66,24,4,1,36,44,1501,['c'],0,right,['8'],4,478,[0.00255504],51,44,hard,minus,dotcolour,alfa,,,110,19,V,L,
193,67,25,4,1,53,27,1350,['c'],1,left,['0'],6,118,[0.14497834],98,53,easy,minus,dotcolour,alfa,,,110,19,V,L,
194,68,26,4,1,27,53,1150,['n'],1,right,['0'],6,76,[-0.10845236],97,53,easy,minus,dotcolour,alfa,,,110,19,V,L,
195,69,27,4,1,44,36,2133,['c'],1,left,['9'],5,358,[0.14117934],89,44,hard,minus,dotcolour,alfa,,,110,19,V,L,
196,70,28,4,1,44,36,1450,['c'],1,left,['0'],6,70,[0.08064653],94,44,hard,minus,dotcolour,alfa,,,110,19,V,L,
197,71,29,4,1,44,36,1550,['c'],1,left,['0'],6,103,[0.09618072],94,44,hard,minus,dotcolour,alfa,,,110,19,V,L,
198,72,30,4,1,27,53,633,['n'],1,right,['0'],6,99,[-0.07218643],89,53,easy,minus,dotcolour,alfa,,,110,19,V,L,
199,73,31,4,1,27,53,850,['n'],1,right,['0'],6,110,[-0.13315182],97,53,easy,minus,dotcolour,alfa,,,110,19,V,L,
200,74,32,4,1,47,33,900,['c'],1,left,['0'],6,79,[0.11061006],97,47,medium,minus,dotcolour,alfa,,,110,19,V,L,
201,75,33,4,1,53,27,1367,['c'],1,left,['0'],6,134,[0.0964996],91,53,easy,minus,dotcolour,alfa,,,110,19,V,L,
202,76,34,4,1,36,44,1434,['n'],1,right,['9'],5,561,[-0.01540707],55,44,hard,minus,dotcolour,alfa,,,110,19,V,L,
203,77,35,4,1,47,33,1666,['c'],1,left,['9'],5,761,[0.14340227],81,47,medium,minus,dotcolour,alfa,,,110,19,V,L,
204,78,36,4,1,27,53,950,['n'],1,right,['0'],6,126,[-0.064344],84,53,easy,minus,dotcolour,alfa,,,110,19,V,L,
205,79,37,4,1,47,33,1050,['c'],1,left,['0'],6,71,[0.08582895],95,47,medium,minus,dotcolour,alfa,,,110,19,V,L,
206,80,38,4,1,27,53,816,['n'],1,right,['0'],6,86,[-0.14600078],99,53,easy,minus,dotcolour,alfa,,,110,19,V,L,
207,81,39,4,1,33,47,1282,['n'],1,right,['0'],6,112,[-0.00475275],53,47,medium,minus,dotcolour,alfa,,,110,19,V,L,
208,82,40,4,1,33,47,868,['n'],1,right,['0'],6,330,[-0.07365239],76,47,medium,minus,dotcolour,alfa,,,110,19,V,L,
209,83,41,4,1,36,44,717,['n'],1,right,['0'],6,106,[-0.09865997],94,44,hard,minus,dotcolour,alfa,,,110,19,V,L,
210,84,0,5,1,36,44,4318,['c'],0,right,['8'],4,1220,[-0.02896263],44,44,hard,minus,dotcolour,alfa,,,110,19,V,L,
211,85,1,5,1,27,53,1718,['n'],1,right,['0'],6,1040,[-0.10702341],72,53,easy,minus,dotcolour,alfa,,,110,19,V,L,
212,86,2,5,1,33,47,1018,['n'],1,right,['0'],6,117,[-0.06884386],86,47,medium,minus,dotcolour,alfa,,,110,19,V,L,
213,87,3,5,1,44,36,1550,['c'],1,left,['9'],5,156,[0.07235987],84,44,hard,minus,dotcolour,alfa,,,110,19,V,L,
214,88,4,5,1,27,53,750,['n'],1,right,['0'],6,137,[-0.16257245],98,53,easy,minus,dotcolour,alfa,,,110,19,V,L,
215,89,5,5,1,47,33,1200,['c'],1,left,['0'],6,125,[0.0771764],88,47,medium,minus,dotcolour,alfa,,,110,19,V,L,
216,90,6,5,1,27,53,1084,['n'],1,right,['0'],6,94,[-0.04267626],78,53,easy,minus,dotcolour,alfa,,,110,19,V,L,
217,91,7,5,1,53,27,1350,['c'],1,left,['0'],6,157,[0.08623685],88,53,easy,minus,dotcolour,alfa,,,110,19,V,L,
218,92,8,5,1,53,27,801,['c'],1,left,['0'],6,64,[0.05382468],87,53,easy,minus,dotcolour,alfa,,,110,19,V,L,
219,93,9,5,1,27,53,784,['n'],1,right,['0'],6,87,[-0.04007396],77,53,easy,minus,dotcolour,alfa,,,110,19,V,L,
220,94,10,5,1,53,27,934,['c'],1,left,['0'],6,56,[0.07577113],95,53,easy,minus,dotcolour,alfa,,,110,19,V,L,
221,95,11,5,1,47,33,1283,['c'],1,left,['0'],6,69,[0.07933069],94,47,medium,minus,dotcolour,alfa,,,110,19,V,L,
222,96,12,5,1,27,53,767,['c'],0,right,['0'],6,116,[0.09936127],93,53,easy,minus,dotcolour,alfa,,,110,19,V,L,
223,97,13,5,1,47,33,2534,['c'],1,left,['0'],6,139,[0.17366344],99,47,medium,minus,dotcolour,alfa,,,110,19,V,L,
224,98,14,5,1,36,44,1217,['n'],1,right,['0'],6,127,[-0.01838573],61,44,hard,minus,dotcolour,alfa,,,110,19,V,L,
225,99,15,5,1,47,33,1483,['c'],1,left,['9'],5,1000,[0.16331421],81,47,medium,minus,dotcolour,alfa,,,110,19,V,L,
226,100,16,5,1,36,44,1417,['n'],1,right,['9'],5,2087,[-0.15977118],73,44,hard,minus,dotcolour,alfa,,,110,19,V,L,
227,101,17,5,1,47,33,1384,['n'],0,left,['9'],5,446,[-0.06277732],70,47,medium,minus,dotcolour,alfa,,,110,19,V,L,
228,102,18,5,1,47,33,867,['c'],1,left,['0'],6,138,[0.07645671],86,47,medium,minus,dotcolour,alfa,,,110,19,V,L,
229,103,19,5,1,53,27,1017,['c'],1,left,['0'],6,86,[0.11024121],97,53,easy,minus,dotcolour,alfa,,,110,19,V,L,
230,104,20,5,1,36,44,950,['n'],1,right,['0'],6,93,[-0.11093697],96,44,hard,minus,dotcolour,alfa,,,110,19,V,L,
231,105,21,5,1,44,36,867,['c'],1,left,['0'],6,72,[0.04396746],81,44,hard,minus,dotcolour,alfa,,,110,19,V,L,
232,106,22,5,1,33,47,2667,['n'],1,right,['8'],4,757,[-0.1355912],80,47,medium,minus,dotcolour,alfa,,,110,19,V,L,
233,107,23,5,1,53,27,1384,['c'],1,left,['0'],6,88,[0.1133073],97,53,easy,minus,dotcolour,alfa,,,110,19,V,L,
234,108,24,5,1,44,36,4301,['c'],1,left,['9'],5,1034,[0.04028739],59,44,hard,minus,dotcolour,alfa,,,110,19,V,L,
235,109,25,5,1,27,53,1316,['n'],1,right,['0'],6,221,[-0.09970713],87,53,easy,minus,dotcolour,alfa,,,110,19,V,L,
236,110,26,5,1,36,44,2000,['n'],1,right,['9'],5,1053,[-0.15382988],79,44,hard,minus,dotcolour,alfa,,,110,19,V,L,
237,111,27,5,1,33,47,2100,['c'],0,right,['9'],5,128,[0.03465203],71,47,medium,minus,dotcolour,alfa,,,110,19,V,L,
238,112,28,5,1,33,47,1217,['n'],1,right,['0'],6,131,[-0.11912201],95,47,medium,minus,dotcolour,alfa,,,110,19,V,L,
239,113,29,5,1,44,36,1916,['c'],1,left,['9'],5,154,[0.07191372],84,44,hard,minus,dotcolour,alfa,,,110,19,V,L,
240,114,30,5,1,44,36,1500,['n'],0,left,['9'],5,426,[-0.01020195],54,44,hard,minus,dotcolour,alfa,,,110,19,V,L,
241,115,31,5,1,33,47,1484,['n'],1,right,['9'],5,367,[-0.17045948],93,47,medium,minus,dotcolour,alfa,,,110,19,V,L,
242,116,32,5,1,53,27,1400,['c'],1,left,['0'],6,113,[0.06510065],85,53,easy,minus,dotcolour,alfa,,,110,19,V,L,
243,117,33,5,1,44,36,1217,['c'],1,left,['0'],6,109,[0.0766049],89,44,hard,minus,dotcolour,alfa,,,110,19,V,L,
244,118,34,5,1,36,44,883,['n'],1,right,['0'],6,54,[-0.08962172],97,44,hard,minus,dotcolour,alfa,,,110,19,V,L,
245,119,35,5,1,53,27,717,['c'],1,left,['0'],6,73,[0.08872218],95,53,easy,minus,dotcolour,alfa,,,110,19,V,L,
246,120,36,5,1,33,47,700,['n'],1,right,['0'],6,108,[-0.08455781],91,47,medium,minus,dotcolour,alfa,,,110,19,V,L,
247,121,37,5,1,33,47,1184,['n'],1,right,['0'],6,113,[-0.04429095],77,47,medium,minus,dotcolour,alfa,,,110,19,V,L,
248,122,38,5,1,27,53,866,['n'],1,right,['0'],6,107,[-0.08551423],91,53,easy,minus,dotcolour,alfa,,,110,19,V,L,
249,123,39,5,1,47,33,1067,['c'],1,left,['0'],6,69,[0.03737809],78,47,medium,minus,dotcolour,alfa,,,110,19,V,L,
250,124,40,5,1,36,44,1567,['n'],1,right,['0'],6,149,[-0.05185217],77,44,hard,minus,dotcolour,alfa,,,110,19,V,L,
251,125,41,5,1,44,36,833,['c'],1,left,['0'],6,103,[0.04514996],78,44,hard,minus,dotcolour,alfa,,,110,19,V,L,
252,0,0,6,2,36,44,1134,['n'],1,right,['0'],6,137,[-0.05989795],100,44,hard,plus,dotcolour,alfa,,,110,19,V,L,
253,1,1,6,2,47,33,951,['c'],1,left,['0'],6,71,[0.08232735],100,47,medium,plus,dotcolour,alfa,,,110,19,V,L,
254,2,2,6,2,36,44,717,['n'],1,right,['0'],6,121,[-0.10497383],100,44,hard,plus,dotcolour,alfa,,,110,19,V,L,
255,3,3,6,2,44,36,1366,['c'],1,left,['0'],6,95,[0.08950879],100,44,hard,plus,dotcolour,alfa,,,110,19,V,L,
256,4,4,6,2,44,36,1017,['c'],1,left,['0'],6,124,[0.08106174],100,44,hard,plus,dotcolour,alfa,,,110,19,V,L,
257,5,5,6,2,44,36,832,['n'],0,left,['0'],6,79,[-0.04765406],100,44,hard,plus,dotcolour,alfa,,,110,19,V,L,
258,6,6,6,2,36,44,1568,['n'],1,right,['9'],5,679,[-0.09543865],98,44,hard,plus,dotcolour,alfa,,,110,19,V,L,
259,7,7,6,2,53,27,683,['c'],1,left,['0'],6,65,[0.08233494],100,53,easy,plus,dotcolour,alfa,,,110,19,V,L,
260,8,8,6,2,33,47,900,['n'],1,right,['0'],6,124,[-0.11203636],100,47,medium,plus,dotcolour,alfa,,,110,19,V,L,
261,9,9,6,2,27,53,850,['n'],1,right,['0'],6,110,[-0.05036844],100,53,easy,plus,dotcolour,alfa,,,110,19,V,L,
262,10,10,6,2,33,47,1183,['n'],1,right,['0'],6,371,[-0.19787858],100,47,medium,plus,dotcolour,alfa,,,110,19,V,L,
263,11,11,6,2,27,53,632,['n'],1,right,['0'],6,84,[-0.09828734],100,53,easy,plus,dotcolour,alfa,,,110,19,V,L,
264,12,12,6,2,47,33,1001,['c'],1,left,['0'],6,50,[0.05260496],100,47,medium,plus,dotcolour,alfa,,,110,19,V,L,
265,13,13,6,2,44,36,1467,['c'],1,left,['0'],6,206,[0.11516605],100,44,hard,plus,dotcolour,alfa,,,110,19,V,L,
266,14,14,6,2,33,47,1083,['n'],1,right,['0'],6,60,[-0.06887705],100,47,medium,plus,dotcolour,alfa,,,110,19,V,L,
267,15,15,6,2,47,33,1349,['c'],1,left,['0'],6,101,[0.09654165],100,47,medium,plus,dotcolour,alfa,,,110,19,V,L,
268,16,16,6,2,44,36,1934,['c'],1,left,['9'],5,421,[0.16976826],100,44,hard,plus,dotcolour,alfa,,,110,19,V,L,
269,17,17,6,2,33,47,1117,['n'],1,right,['0'],6,112,[-0.07030373],100,47,medium,plus,dotcolour,alfa,,,110,19,V,L,
270,18,18,6,2,33,47,916,['n'],1,right,['0'],6,112,[-0.06224796],100,47,medium,plus,dotcolour,alfa,,,110,19,V,L,
271,19,19,6,2,27,53,684,['n'],1,right,['0'],6,121,[-0.07186028],100,53,easy,plus,dotcolour,alfa,,,110,19,V,L,
272,20,20,6,2,53,27,667,['c'],1,left,['0'],6,100,[0.07846363],100,53,easy,plus,dotcolour,alfa,,,110,19,V,L,
273,21,21,6,2,27,53,933,['n'],1,right,['0'],6,116,[-0.04105249],99,53,easy,plus,dotcolour,alfa,,,110,19,V,L,
274,22,22,6,2,53,27,1167,['c'],1,left,['0'],6,81,[0.09058073],100,53,easy,plus,dotcolour,alfa,,,110,19,V,L,
275,23,23,6,2,36,44,1816,['n'],1,right,['0'],6,503,[-0.18188169],100,44,hard,plus,dotcolour,alfa,,,110,19,V,L,
276,24,24,6,2,44,36,1034,['c'],1,left,['0'],6,59,[0.10803056],100,44,hard,plus,dotcolour,alfa,,,110,19,V,L,
277,25,25,6,2,53,27,1333,['c'],1,left,['0'],6,108,[0.09152713],100,53,easy,plus,dotcolour,alfa,,,110,19,V,L,
278,26,26,6,2,27,53,3534,['n'],1,right,['0'],6,380,[-0.11251903],100,53,easy,plus,dotcolour,alfa,,,110,19,V,L,
279,27,27,6,2,27,53,917,['n'],1,right,['0'],6,18,[-0.05841069],100,53,easy,plus,dotcolour,alfa,,,110,19,V,L,
280,28,28,6,2,47,33,683,['c'],1,left,['0'],6,54,[0.06457634],100,47,medium,plus,dotcolour,alfa,,,110,19,V,L,
281,29,29,6,2,53,27,600,['c'],1,left,['0'],6,38,[0.05967617],100,53,easy,plus,dotcolour,alfa,,,110,19,V,L,
282,30,30,6,2,36,44,784,['n'],1,right,['0'],6,46,[-0.0755955],100,44,hard,plus,dotcolour,alfa,,,110,19,V,L,
283,31,31,6,2,47,33,917,['c'],1,left,['0'],6,33,[0.08043274],100,47,medium,plus,dotcolour,alfa,,,110,19,V,L,
284,32,32,6,2,44,36,1167,['c'],1,left,['0'],6,34,[0.05665476],100,44,hard,plus,dotcolour,alfa,,,110,19,V,L,
285,33,33,6,2,33,47,1400,['n'],1,right,['0'],6,90,[-0.08574123],100,47,medium,plus,dotcolour,alfa,,,110,19,V,L,
286,34,34,6,2,36,44,1299,['n'],1,right,['0'],6,68,[-0.08542618],100,44,hard,plus,dotcolour,alfa,,,110,19,V,L,
287,35,35,6,2,53,27,1000,['c'],1,left,['0'],6,11,[0.09746423],100,53,easy,plus,dotcolour,alfa,,,110,19,V,L,
288,36,36,6,2,47,33,2483,['n'],0,left,['8'],4,968,[0.19978345],0,47,medium,plus,dotcolour,alfa,,,110,19,V,L,
289,37,37,6,2,47,33,1233,['n'],0,left,['0'],6,72,[-0.05512136],100,47,medium,plus,dotcolour,alfa,,,110,19,V,L,
290,38,38,6,2,53,27,1066,['c'],1,left,['0'],6,156,[0.06538135],100,53,easy,plus,dotcolour,alfa,,,110,19,V,L,
291,39,39,6,2,27,53,1666,['n'],1,right,['0'],6,1068,[-0.36327354],100,53,easy,plus,dotcolour,alfa,,,110,19,V,L,
292,40,40,6,2,36,44,1298,['n'],1,right,['9'],5,399,[-0.17594681],100,44,hard,plus,dotcolour,alfa,,,110,19,V,L,
293,41,41,6,2,33,47,767,['n'],1,right,['0'],6,153,[-0.04457301],98,47,medium,plus,dotcolour,alfa,,,110,19,V,L,
294,42,0,7,2,47,33,1801,['c'],1,left,['0'],6,196,[0.14627043],100,47,medium,plus,dotcolour,alfa,,,110,19,V,L,
295,43,1,7,2,36,44,1050,['n'],1,right,['0'],6,116,[-0.11088033],100,44,hard,plus,dotcolour,alfa,,,110,19,V,L,
296,44,2,7,2,44,36,1383,['c'],1,left,['0'],6,65,[0.04873385],100,44,hard,plus,dotcolour,alfa,,,110,19,V,L,
297,45,3,7,2,33,47,817,['n'],1,right,['0'],6,111,[-0.13628171],100,47,medium,plus,dotcolour,alfa,,,110,19,V,L,
298,46,4,7,2,47,33,1183,['c'],1,left,['0'],6,100,[0.08343623],100,47,medium,plus,dotcolour,alfa,,,110,19,V,L,
299,47,5,7,2,27,53,817,['n'],1,right,['0'],6,73,[-0.13180306],100,53,easy,plus,dotcolour,alfa,,,110,19,V,L,
300,48,6,7,2,36,44,650,['c'],0,right,['0'],6,157,[-0.00699668],35,44,hard,plus,dotcolour,alfa,,,110,19,V,L,
301,49,7,7,2,53,27,634,['n'],0,left,['0'],6,71,[-0.01469217],88,53,easy,plus,dotcolour,alfa,,,110,19,V,L,
302,50,8,7,2,44,36,1450,['n'],0,left,['0'],6,243,[-0.04432162],96,44,hard,plus,dotcolour,alfa,,,110,19,V,L,
303,51,9,7,2,36,44,2333,['n'],1,right,['0'],6,109,[-0.05786815],100,44,hard,plus,dotcolour,alfa,,,110,19,V,L,
304,52,10,7,2,33,47,600,['n'],1,right,['0'],6,26,[-0.07302716],100,47,medium,plus,dotcolour,alfa,,,110,19,V,L,
305,53,11,7,2,44,36,1016,['c'],1,left,['0'],6,42,[0.05678328],100,44,hard,plus,dotcolour,alfa,,,110,19,V,L,
306,54,12,7,2,47,33,950,['c'],1,left,['0'],6,60,[0.0684356],100,47,medium,plus,dotcolour,alfa,,,110,19,V,L,
307,55,13,7,2,33,47,700,['n'],1,right,['0'],6,70,[-0.10558805],100,47,medium,plus,dotcolour,alfa,,,110,19,V,L,
308,56,14,7,2,33,47,1200,['n'],1,right,['0'],6,60,[-0.1089138],100,47,medium,plus,dotcolour,alfa,,,110,19,V,L,
309,57,15,7,2,36,44,2133,['c'],0,right,['9'],5,494,[-0.03560833],14,44,hard,plus,dotcolour,alfa,,,110,19,V,L,
310,58,16,7,2,27,53,717,['n'],1,right,['0'],6,46,[-0.05845722],100,53,easy,plus,dotcolour,alfa,,,110,19,V,L,
311,59,17,7,2,44,36,1217,['c'],1,left,['0'],6,653,[0.1519389],100,44,hard,plus,dotcolour,alfa,,,110,19,V,L,
312,60,18,7,2,27,53,950,['n'],1,right,['0'],6,101,[-0.07038342],100,53,easy,plus,dotcolour,alfa,,,110,19,V,L,
313,61,19,7,2,47,33,1167,['c'],1,left,['0'],6,109,[0.01755281],87,47,medium,plus,dotcolour,alfa,,,110,19,V,L,
314,62,20,7,2,44,36,1449,['c'],1,left,['9'],5,71,[0.05718508],100,44,hard,plus,dotcolour,alfa,,,110,19,V,L,
315,63,21,7,2,53,27,1084,['c'],1,left,['0'],6,83,[0.11074186],100,53,easy,plus,dotcolour,alfa,,,110,19,V,L,
316,64,22,7,2,47,33,2350,['c'],1,left,['0'],6,58,[0.05779847],100,47,medium,plus,dotcolour,alfa,,,110,19,V,L,
317,65,23,7,2,36,44,1233,['n'],1,right,['0'],6,88,[-0.0749217],100,44,hard,plus,dotcolour,alfa,,,110,19,V,L,
318,66,24,7,2,33,47,800,['n'],1,right,['0'],6,94,[-0.08713898],100,47,medium,plus,dotcolour,alfa,,,110,19,V,L,
319,67,25,7,2,53,27,951,['c'],1,left,['0'],6,85,[0.05947034],100,53,easy,plus,dotcolour,alfa,,,110,19,V,L,
320,68,26,7,2,27,53,3050,['n'],1,right,['0'],6,530,[0.01606087],31,53,easy,plus,dotcolour,alfa,,,110,19,V,L,
321,69,27,7,2,47,33,850,['c'],1,left,['0'],6,51,[0.09239335],100,47,medium,plus,dotcolour,alfa,,,110,19,V,L,
322,70,28,7,2,27,53,1016,['n'],1,right,['0'],6,1762,[-0.22418381],100,53,easy,plus,dotcolour,alfa,,,110,19,V,L,
323,71,29,7,2,36,44,1866,['n'],1,right,['8'],4,561,[-0.10870275],99,44,hard,plus,dotcolour,alfa,,,110,19,V,L,
324,72,30,7,2,53,27,1117,['c'],1,left,['0'],6,103,[0.12690122],100,53,easy,plus,dotcolour,alfa,,,110,19,V,L,
325,73,31,7,2,44,36,667,['n'],0,left,['0'],6,50,[-0.05851817],100,44,hard,plus,dotcolour,alfa,,,110,19,V,L,
326,74,32,7,2,27,53,734,['n'],1,right,['0'],6,100,[-0.10284263],100,53,easy,plus,dotcolour,alfa,,,110,19,V,L,
327,75,33,7,2,33,47,634,['n'],1,right,['0'],6,80,[-0.0792431],100,47,medium,plus,dotcolour,alfa,,,110,19,V,L,
328,76,34,7,2,33,47,684,['n'],1,right,['0'],6,51,[-0.0703602],100,47,medium,plus,dotcolour,alfa,,,110,19,V,L,
329,77,35,7,2,53,27,817,['c'],1,left,['0'],6,73,[0.07280248],100,53,easy,plus,dotcolour,alfa,,,110,19,V,L,
330,78,36,7,2,36,44,3117,['c'],0,right,['0'],6,75,[0.0180579],91,44,hard,plus,dotcolour,alfa,,,110,19,V,L,
331,79,37,7,2,53,27,783,['c'],1,left,['0'],6,82,[0.10855353],100,53,easy,plus,dotcolour,alfa,,,110,19,V,L,
332,80,38,7,2,44,36,1084,['c'],1,left,['0'],6,84,[0.06023313],100,44,hard,plus,dotcolour,alfa,,,110,19,V,L,
333,81,39,7,2,47,33,1917,['c'],1,left,['9'],5,102,[0.0518496],100,47,medium,plus,dotcolour,alfa,,,110,19,V,L,
334,82,40,7,2,27,53,835,['n'],1,right,['0'],6,690,[-0.19805267],100,53,easy,plus,dotcolour,alfa,,,110,19,V,L,
335,83,41,7,2,53,27,1067,['c'],1,left,['0'],6,117,[0.02463065],93,53,easy,plus,dotcolour,alfa,,,110,19,V,L,
336,84,0,8,2,36,44,1217,['n'],1,right,['0'],6,74,[-0.06001244],100,44,hard,plus,dotcolour,alfa,,,110,19,V,L,
337,85,1,8,2,53,27,1034,['c'],1,left,['0'],6,103,[0.09228473],100,53,easy,plus,dotcolour,alfa,,,110,19,V,L,
338,86,2,8,2,47,33,1383,['c'],1,left,['9'],5,93,[0.0814015],100,47,medium,plus,dotcolour,alfa,,,110,19,V,L,
339,87,3,8,2,47,33,1583,['n'],0,left,['0'],6,107,[-0.09140641],100,47,medium,plus,dotcolour,alfa,,,110,19,V,L,
340,88,4,8,2,44,36,1367,['n'],0,left,['0'],6,81,[-0.07280651],100,44,hard,plus,dotcolour,alfa,,,110,19,V,L,
341,89,5,8,2,44,36,1650,['c'],1,left,['9'],5,133,[0.11016102],100,44,hard,plus,dotcolour,alfa,,,110,19,V,L,
342,90,6,8,2,44,36,1951,['c'],1,left,['9'],5,123,[0.06350427],100,44,hard,plus,dotcolour,alfa,,,110,19,V,L,
343,91,7,8,2,53,27,817,['n'],0,left,['1'],1,1255,[0.07513809],8,53,easy,plus,dotcolour,alfa,,,110,19,V,L,
344,92,8,8,2,36,44,1050,['n'],1,right,['0'],6,124,[-0.07536671],100,44,hard,plus,dotcolour,alfa,,,110,19,V,L,
345,93,9,8,2,36,44,2517,['n'],1,right,['9'],5,531,[-0.07980728],98,44,hard,plus,dotcolour,alfa,,,110,19,V,L,
346,94,10,8,2,33,47,1049,['n'],1,right,['0'],6,173,[-0.05600697],99,47,medium,plus,dotcolour,alfa,,,110,19,V,L,
347,95,11,8,2,33,47,967,['n'],1,right,['0'],6,80,[-0.04884573],100,47,medium,plus,dotcolour,alfa,,,110,19,V,L,
348,96,12,8,2,36,44,784,['n'],1,right,['0'],6,31,[-0.10963118],100,44,hard,plus,dotcolour,alfa,,,110,19,V,L,
349,97,13,8,2,44,36,3634,['c'],1,left,['0'],6,966,[0.12285829],99,44,hard,plus,dotcolour,alfa,,,110,19,V,L,
350,98,14,8,2,44,36,1667,['n'],0,left,['9'],5,749,[0.04830907],12,44,hard,plus,dotcolour,alfa,,,110,19,V,L,
351,99,15,8,2,36,44,1050,['n'],1,right,['9'],5,903,[-0.1943867],100,44,hard,plus,dotcolour,alfa,,,110,19,V,L,
352,100,16,8,2,47,33,1684,['c'],1,left,['0'],6,65,[0.09261654],100,47,medium,plus,dotcolour,alfa,,,110,19,V,L,
353,101,17,8,2,36,44,2150,['n'],1,right,['0'],6,50,[-0.10002557],100,44,hard,plus,dotcolour,alfa,,,110,19,V,L,
354,102,18,8,2,53,27,733,['c'],1,left,['0'],6,35,[0.0624767],100,53,easy,plus,dotcolour,alfa,,,110,19,V,L,
355,103,19,8,2,27,53,1034,['n'],1,right,['0'],6,81,[-0.07312816],100,53,easy,plus,dotcolour,alfa,,,110,19,V,L,
356,104,20,8,2,44,36,1284,['c'],1,left,['9'],5,100,[0.00267661],58,44,hard,plus,dotcolour,alfa,,,110,19,V,L,
357,105,21,8,2,47,33,1050,['c'],1,left,['0'],6,112,[0.06648829],100,47,medium,plus,dotcolour,alfa,,,110,19,V,L,
358,106,22,8,2,27,53,1201,['n'],1,right,['0'],6,157,[-0.03831744],97,53,easy,plus,dotcolour,alfa,,,110,19,V,L,
359,107,23,8,2,33,47,1384,['n'],1,right,['9'],5,1104,[-0.34187065],100,47,medium,plus,dotcolour,alfa,,,110,19,V,L,
360,108,24,8,2,27,53,1284,['n'],1,right,['0'],6,81,[-0.08322508],100,53,easy,plus,dotcolour,alfa,,,110,19,V,L,
361,109,25,8,2,36,44,767,['n'],1,right,['9'],5,536,[-0.09191185],99,44,hard,plus,dotcolour,alfa,,,110,19,V,L,
362,110,26,8,2,47,33,950,['c'],1,left,['0'],6,70,[0.10674564],100,47,medium,plus,dotcolour,alfa,,,110,19,V,L,
363,111,27,8,2,53,27,883,['c'],1,left,['0'],6,41,[0.05897032],100,53,easy,plus,dotcolour,alfa,,,110,19,V,L,
364,112,28,8,2,27,53,1100,['n'],1,right,['0'],6,165,[-0.1706683],100,53,easy,plus,dotcolour,alfa,,,110,19,V,L,
365,113,29,8,2,47,33,983,['c'],1,left,['0'],6,40,[0.0725525],100,47,medium,plus,dotcolour,alfa,,,110,19,V,L,
366,114,30,8,2,27,53,883,['n'],1,right,['0'],6,101,[-0.10682479],100,53,easy,plus,dotcolour,alfa,,,110,19,V,L,
367,115,31,8,2,53,27,1218,['c'],1,left,['0'],6,41,[0.07334114],100,53,easy,plus,dotcolour,alfa,,,110,19,V,L,
368,116,32,8,2,53,27,900,['c'],1,left,['0'],6,53,[0.07853236],100,53,easy,plus,dotcolour,alfa,,,110,19,V,L,
369,117,33,8,2,33,47,1083,['n'],1,right,['0'],6,97,[-0.10468298],100,47,medium,plus,dotcolour,alfa,,,110,19,V,L,
370,118,34,8,2,33,47,1583,['n'],1,right,['9'],5,415,[-0.09269867],99,47,medium,plus,dotcolour,alfa,,,110,19,V,L,
371,119,35,8,2,44,36,1584,['c'],1,left,['9'],5,216,[0.0577961],99,44,hard,plus,dotcolour,alfa,,,110,19,V,L,
372,120,36,8,2,33,47,1367,['c'],0,right,['9'],5,570,[-0.01969498],28,47,medium,plus,dotcolour,alfa,,,110,19,V,L,
373,121,37,8,2,47,33,1550,['c'],1,left,['0'],6,182,[0.08321469],100,47,medium,plus,dotcolour,alfa,,,110,19,V,L,
374,122,38,8,2,33,47,2268,['c'],0,right,['9'],5,445,[6.28465842e-05],50,47,medium,plus,dotcolour,alfa,,,110,19,V,L,
375,123,39,8,2,27,53,766,['n'],1,right,['0'],6,126,[-0.09462795],100,53,easy,plus,dotcolour,alfa,,,110,19,V,L,
376,124,40,8,2,53,27,966,['c'],1,left,['0'],6,267,[0.06479092],99,53,easy,plus,dotcolour,alfa,,,110,19,V,L,
377,125,41,8,2,27,53,618,['n'],1,right,['0'],6,130,[-0.05207871],99,53,easy,plus,dotcolour,alfa,,,110,19,V,L,
378,0,0,9,3,27,53,2417,['n'],1,right,['9'],5,707,[-0.22081759],91,53,easy,minus,dotcolour,alfa,,,110,19,V,L,
379,1,1,9,3,33,47,2017,['c'],0,right,['9'],5,727,[-0.10086081],26,47,medium,minus,dotcolour,alfa,,,110,19,V,L,
380,2,2,9,3,27,53,1016,['n'],1,right,['0'],6,91,[-0.06714453],88,53,easy,minus,dotcolour,alfa,,,110,19,V,L,
381,3,3,9,3,44,36,1333,['c'],1,left,['9'],5,259,[0.10231266],86,44,hard,minus,dotcolour,alfa,,,110,19,V,L,
382,4,4,9,3,27,53,1217,['n'],1,right,['9'],5,304,[-0.05909015],72,53,easy,minus,dotcolour,alfa,,,110,19,V,L,
383,5,5,9,3,36,44,1100,['c'],0,right,['0'],6,98,[0.10588082],95,44,hard,minus,dotcolour,alfa,,,110,19,V,L,
384,6,6,9,3,47,33,933,['c'],1,left,['0'],6,147,[0.0352298],70,47,medium,minus,dotcolour,alfa,,,110,19,V,L,
385,7,7,9,3,33,47,1150,['c'],0,right,['0'],6,63,[0.00659654],56,47,medium,minus,dotcolour,alfa,,,110,19,V,L,
386,8,8,9,3,33,47,700,['n'],1,right,['0'],6,18,[-0.06676649],99,47,medium,minus,dotcolour,alfa,,,110,19,V,L,
387,9,9,9,3,27,53,1901,['n'],1,right,['0'],6,87,[-0.07998586],92,53,easy,minus,dotcolour,alfa,,,110,19,V,L,
388,10,10,9,3,53,27,767,['c'],1,left,['0'],6,22,[0.10130863],100,53,easy,minus,dotcolour,alfa,,,110,19,V,L,
389,11,11,9,3,27,53,584,['n'],1,right,['0'],6,47,[-0.1049143],99,53,easy,minus,dotcolour,alfa,,,110,19,V,L,
390,12,12,9,3,36,44,1433,['n'],1,right,['0'],6,101,[-0.11231011],96,44,hard,minus,dotcolour,alfa,,,110,19,V,L,
391,13,13,9,3,53,27,732,['c'],1,left,['0'],6,21,[0.06223268],98,53,easy,minus,dotcolour,alfa,,,110,19,V,L,
392,14,14,9,3,33,47,534,['n'],1,right,['0'],6,49,[-0.07279068],95,47,medium,minus,dotcolour,alfa,,,110,19,V,L,
393,15,15,9,3,44,36,1018,['c'],1,left,['0'],6,31,[0.07517496],98,44,hard,minus,dotcolour,alfa,,,110,19,V,L,
394,16,16,9,3,36,44,1217,['n'],1,right,['9'],5,207,[-0.05021737],73,44,hard,minus,dotcolour,alfa,,,110,19,V,L,
395,17,17,9,3,47,33,867,['c'],1,left,['0'],6,45,[0.04530341],87,47,medium,minus,dotcolour,alfa,,,110,19,V,L,
396,18,18,9,3,53,27,734,['c'],1,left,['0'],6,23,[0.05728328],97,53,easy,minus,dotcolour,alfa,,,110,19,V,L,
397,19,19,9,3,27,53,700,['n'],1,right,['0'],6,155,[-0.1104649],93,53,easy,minus,dotcolour,alfa,,,110,19,V,L,
398,20,20,9,3,44,36,1133,['c'],1,left,['0'],6,338,[0.12857212],88,44,hard,minus,dotcolour,alfa,,,110,19,V,L,
399,21,21,9,3,53,27,900,['c'],1,left,['0'],6,42,[0.10759299],99,53,easy,minus,dotcolour,alfa,,,110,19,V,L,
400,22,22,9,3,47,33,834,['c'],1,left,['0'],6,48,[0.0207761],70,47,medium,minus,dotcolour,alfa,,,110,19,V,L,
401,23,23,9,3,33,47,1000,['n'],1,right,['9'],5,807,[-0.22732683],91,47,medium,minus,dotcolour,alfa,,,110,19,V,L,
402,24,24,9,3,53,27,666,['c'],1,left,['0'],6,86,[0.11450446],97,53,easy,minus,dotcolour,alfa,,,110,19,V,L,
403,25,25,9,3,36,44,1166,['c'],0,right,['0'],6,28,[0.09153077],99,44,hard,minus,dotcolour,alfa,,,110,19,V,L,
404,26,26,9,3,33,47,1917,['n'],1,right,['9'],5,176,[-0.15970681],97,47,medium,minus,dotcolour,alfa,,,110,19,V,L,
405,27,27,9,3,47,33,917,['c'],1,left,['0'],6,638,[0.15309723],85,47,medium,minus,dotcolour,alfa,,,110,19,V,L,
406,28,28,9,3,44,36,2184,['c'],1,left,['9'],5,765,[0.09511162],73,44,hard,minus,dotcolour,alfa,,,110,19,V,L,
407,29,29,9,3,36,44,1017,['n'],1,right,['0'],6,95,[-0.0730611],89,44,hard,minus,dotcolour,alfa,,,110,19,V,L,
408,30,30,9,3,44,36,950,['c'],1,left,['9'],5,431,[0.13519655],86,44,hard,minus,dotcolour,alfa,,,110,19,V,L,
409,31,31,9,3,27,53,884,['n'],1,right,['9'],5,139,[-0.12166186],95,53,easy,minus,dotcolour,alfa,,,110,19,V,L,
410,32,32,9,3,47,33,1267,['c'],1,left,['9'],5,156,[0.17216696],98,47,medium,minus,dotcolour,alfa,,,110,19,V,L,
411,33,33,9,3,47,33,1034,['c'],1,left,['9'],5,109,[0.07076817],87,47,medium,minus,dotcolour,alfa,,,110,19,V,L,
412,34,34,9,3,44,36,1083,['c'],1,left,['9'],5,86,[0.04334168],79,44,hard,minus,dotcolour,alfa,,,110,19,V,L,
413,35,35,9,3,53,27,950,['c'],1,left,['9'],5,103,[0.12079153],97,53,easy,minus,dotcolour,alfa,,,110,19,V,L,
414,36,36,9,3,36,44,1116,['n'],1,right,['9'],5,208,[-0.14808241],95,44,hard,minus,dotcolour,alfa,,,110,19,V,L,
415,37,37,9,3,53,27,900,['c'],1,left,['0'],6,36,[0.11911042],100,53,easy,minus,dotcolour,alfa,,,110,19,V,L,
416,38,38,9,3,47,33,1100,['c'],1,left,['0'],6,32,[0.08437918],99,47,medium,minus,dotcolour,alfa,,,110,19,V,L,
417,39,39,9,3,33,47,950,['n'],1,right,['0'],6,154,[-0.00864863],55,47,medium,minus,dotcolour,alfa,,,110,19,V,L,
418,40,40,9,3,44,36,867,['c'],1,left,['0'],6,43,[0.09413336],98,44,hard,minus,dotcolour,alfa,,,110,19,V,L,
419,41,41,9,3,36,44,933,['n'],1,right,['0'],6,61,[-0.0572775],89,44,hard,minus,dotcolour,alfa,,,110,19,V,L,
420,42,0,10,3,44,36,1701,['c'],1,left,['0'],6,106,[0.101276],94,44,hard,minus,dotcolour,alfa,,,110,19,V,L,
421,43,1,10,3,27,53,933,['n'],1,right,['0'],6,114,[-0.10238552],94,53,easy,minus,dotcolour,alfa,,,110,19,V,L,
422,44,2,10,3,44,36,1216,['c'],1,left,['0'],6,62,[0.08134694],95,44,hard,minus,dotcolour,alfa,,,110,19,V,L,
423,45,3,10,3,47,33,733,['n'],0,left,['1'],1,1031,[0.0081699],48,47,medium,minus,dotcolour,alfa,,,110,19,V,L,
424,46,4,10,3,44,36,1599,['c'],1,left,['0'],6,55,[0.06952414],94,44,hard,minus,dotcolour,alfa,,,110,19,V,L,
425,47,5,10,3,47,33,1116,['c'],1,left,['0'],6,50,[0.07604022],96,47,medium,minus,dotcolour,alfa,,,110,19,V,L,
426,48,6,10,3,47,33,1633,['n'],0,left,['8'],4,296,[-0.14359648],91,47,medium,minus,dotcolour,alfa,,,110,19,V,L,
427,49,7,10,3,27,53,1033,['n'],1,right,['0'],6,84,[-0.08282368],93,53,easy,minus,dotcolour,alfa,,,110,19,V,L,
428,50,8,10,3,47,33,1350,['c'],1,left,['0'],6,60,[0.02912339],74,47,medium,minus,dotcolour,alfa,,,110,19,V,L,
429,51,9,10,3,36,44,1183,['n'],1,right,['9'],5,283,[-0.01815865],58,44,hard,minus,dotcolour,alfa,,,110,19,V,L,
430,52,10,10,3,53,27,700,['c'],1,left,['0'],6,38,[0.09135801],99,53,easy,minus,dotcolour,alfa,,,110,19,V,L,
431,53,11,10,3,36,44,1700,['n'],1,right,['0'],6,90,[-0.08403369],93,44,hard,minus,dotcolour,alfa,,,110,19,V,L,
432,54,12,10,3,33,47,1516,['n'],1,right,['0'],6,163,[-0.06362533],81,47,medium,minus,dotcolour,alfa,,,110,19,V,L,
433,55,13,10,3,36,44,1166,['n'],1,right,['0'],6,103,[-0.08093916],91,44,hard,minus,dotcolour,alfa,,,110,19,V,L,
434,56,14,10,3,36,44,900,['n'],1,right,['0'],6,88,[-0.04965386],82,44,hard,minus,dotcolour,alfa,,,110,19,V,L,
435,57,15,10,3,53,27,733,['c'],1,left,['0'],6,65,[0.05876461],89,53,easy,minus,dotcolour,alfa,,,110,19,V,L,
436,58,16,10,3,53,27,1016,['c'],1,left,['0'],6,71,[0.11680799],98,53,easy,minus,dotcolour,alfa,,,110,19,V,L,
437,59,17,10,3,44,36,1434,['c'],1,left,['0'],6,92,[0.0763033],91,44,hard,minus,dotcolour,alfa,,,110,19,V,L,
438,60,18,10,3,44,36,1367,['c'],1,left,['0'],6,563,[0.14651079],85,44,hard,minus,dotcolour,alfa,,,110,19,V,L,
439,61,19,10,3,53,27,1317,['c'],1,left,['0'],6,49,[0.04791539],88,53,easy,minus,dotcolour,alfa,,,110,19,V,L,
440,62,20,10,3,47,33,1901,['c'],1,left,['9'],5,133,[0.06235942],82,47,medium,minus,dotcolour,alfa,,,110,19,V,L,
441,63,21,10,3,36,44,1250,['n'],1,right,['0'],6,134,[-0.06286466],82,44,hard,minus,dotcolour,alfa,,,110,19,V,L,
442,64,22,10,3,44,36,1600,['c'],1,left,['9'],5,114,[0.12152967],96,44,hard,minus,dotcolour,alfa,,,110,19,V,L,
443,65,23,10,3,33,47,1048,['n'],1,right,['0'],6,78,[-0.10239315],96,47,medium,minus,dotcolour,alfa,,,110,19,V,L,
444,66,24,10,3,47,33,1099,['c'],1,left,['9'],5,128,[0.05045496],78,47,medium,minus,dotcolour,alfa,,,110,19,V,L,
445,67,25,10,3,53,27,1300,['c'],1,left,['9'],5,247,[0.11992574],90,53,easy,minus,dotcolour,alfa,,,110,19,V,L,
446,68,26,10,3,33,47,934,['n'],1,right,['0'],6,130,[-0.07132168],86,47,medium,minus,dotcolour,alfa,,,110,19,V,L,
447,69,27,10,3,27,53,1450,['n'],1,right,['0'],6,156,[-0.05978499],80,53,easy,minus,dotcolour,alfa,,,110,19,V,L,
448,70,28,10,3,44,36,734,['n'],0,left,['0'],6,129,[-0.04345169],75,44,hard,minus,dotcolour,alfa,,,110,19,V,L,
449,71,29,10,3,27,53,833,['n'],1,right,['0'],6,83,[-0.08471181],93,53,easy,minus,dotcolour,alfa,,,110,19,V,L,
450,72,30,10,3,36,44,666,['n'],1,right,['0'],6,103,[-0.09191943],93,44,hard,minus,dotcolour,alfa,,,110,19,V,L,
451,73,31,10,3,53,27,900,['c'],1,left,['0'],6,72,[0.08990287],95,53,easy,minus,dotcolour,alfa,,,110,19,V,L,
452,74,32,10,3,27,53,516,['n'],1,right,['0'],6,90,[-0.05388729],83,53,easy,minus,dotcolour,alfa,,,110,19,V,L,
453,75,33,10,3,27,53,650,['n'],1,right,['0'],6,61,[-0.07805464],95,53,easy,minus,dotcolour,alfa,,,110,19,V,L,
454,76,34,10,3,47,33,817,['c'],1,left,['0'],6,75,[0.05815011],87,47,medium,minus,dotcolour,alfa,,,110,19,V,L,
455,77,35,10,3,33,47,601,['n'],1,right,['0'],6,106,[-0.1275968],97,47,medium,minus,dotcolour,alfa,,,110,19,V,L,
456,78,36,10,3,33,47,851,['n'],1,right,['0'],6,13,[-0.0638035],99,47,medium,minus,dotcolour,alfa,,,110,19,V,L,
457,79,37,10,3,53,27,716,['c'],1,left,['0'],6,81,[0.03743566],77,53,easy,minus,dotcolour,alfa,,,110,19,V,L,
458,80,38,10,3,36,44,633,['n'],1,right,['0'],6,62,[-0.08906057],96,44,hard,minus,dotcolour,alfa,,,110,19,V,L,
459,81,39,10,3,33,47,751,['n'],1,right,['0'],6,31,[-0.07829454],98,47,medium,minus,dotcolour,alfa,,,110,19,V,L,
460,82,40,10,3,27,53,716,['n'],1,right,['0'],6,66,[-0.1467717],99,53,easy,minus,dotcolour,alfa,,,110,19,V,L,
461,83,41,10,3,33,47,1317,['n'],1,right,['9'],5,564,[-0.19936065],92,47,medium,minus,dotcolour,alfa,,,110,19,V,L,
462,84,0,11,3,44,36,1152,['n'],0,left,['0'],6,155,[-0.00517242],53,44,hard,minus,dotcolour,alfa,,,110,19,V,L,
463,85,1,11,3,27,53,684,['n'],1,right,['0'],6,35,[-0.01104697],63,53,easy,minus,dotcolour,alfa,,,110,19,V,L,
464,86,2,11,3,44,36,1500,['c'],1,left,['9'],5,111,[0.06237738],84,44,hard,minus,dotcolour,alfa,,,110,19,V,L,
465,87,3,11,3,53,27,1000,['c'],1,left,['0'],6,36,[0.08641062],98,53,easy,minus,dotcolour,alfa,,,110,19,V,L,
466,88,4,11,3,47,33,918,['c'],1,left,['0'],6,55,[0.10762117],98,47,medium,minus,dotcolour,alfa,,,110,19,V,L,
467,89,5,11,3,33,47,600,['n'],1,right,['0'],6,54,[-0.06025374],91,47,medium,minus,dotcolour,alfa,,,110,19,V,L,
468,90,6,11,3,33,47,683,['n'],1,right,['0'],6,90,[-0.10312072],96,47,medium,minus,dotcolour,alfa,,,110,19,V,L,
469,91,7,11,3,36,44,1650,['n'],1,right,['9'],5,558,[-0.14863661],86,44,hard,minus,dotcolour,alfa,,,110,19,V,L,
470,92,8,11,3,44,36,2266,['n'],0,left,['8'],4,726,[-0.09240847],73,44,hard,minus,dotcolour,alfa,,,110,19,V,L,
471,93,9,11,3,47,33,2217,['n'],0,left,['8'],4,1033,[-0.03863539],58,47,medium,minus,dotcolour,alfa,,,110,19,V,L,
472,94,10,11,3,27,53,917,['n'],1,right,['0'],6,133,[-0.10811152],94,53,easy,minus,dotcolour,alfa,,,110,19,V,L,
473,95,11,11,3,33,47,666,['n'],1,right,['0'],6,77,[-0.09730406],96,47,medium,minus,dotcolour,alfa,,,110,19,V,L,
474,96,12,11,3,33,47,1317,['n'],1,right,['9'],5,367,[-0.05845279],70,47,medium,minus,dotcolour,alfa,,,110,19,V,L,
475,97,13,11,3,47,33,1250,['c'],1,left,['0'],6,127,[0.0102344],56,47,medium,minus,dotcolour,alfa,,,110,19,V,L,
476,98,14,11,3,53,27,1168,['c'],1,left,['0'],6,21,[0.0613069],98,53,easy,minus,dotcolour,alfa,,,110,19,V,L,
477,99,15,11,3,36,44,549,['n'],1,right,['0'],6,95,[-0.09209693],94,44,hard,minus,dotcolour,alfa,,,110,19,V,L,
478,100,16,11,3,44,36,1500,['c'],1,left,['0'],6,73,[0.08261255],94,44,hard,minus,dotcolour,alfa,,,110,19,V,L,
479,101,17,11,3,53,27,1033,['c'],1,left,['0'],6,94,[0.13445856],98,53,easy,minus,dotcolour,alfa,,,110,19,V,L,
480,102,18,11,3,27,53,650,['n'],1,right,['0'],6,113,[-0.0862237],91,53,easy,minus,dotcolour,alfa,,,110,19,V,L,
481,103,19,11,3,27,53,1083,['n'],1,right,['0'],6,123,[-0.06310112],83,53,easy,minus,dotcolour,alfa,,,110,19,V,L,
482,104,20,11,3,36,44,1484,['n'],1,right,['0'],6,100,[-0.04916715],80,44,hard,minus,dotcolour,alfa,,,110,19,V,L,
483,105,21,11,3,44,36,1050,['c'],1,left,['0'],6,55,[0.04123832],83,44,hard,minus,dotcolour,alfa,,,110,19,V,L,
484,106,22,11,3,44,36,2017,['c'],1,left,['9'],5,109,[0.06654576],86,44,hard,minus,dotcolour,alfa,,,110,19,V,L,
485,107,23,11,3,27,53,583,['n'],1,right,['0'],6,91,[-0.10480137],96,53,easy,minus,dotcolour,alfa,,,110,19,V,L,
486,108,24,11,3,27,53,667,['n'],1,right,['0'],6,110,[-0.03576188],73,53,easy,minus,dotcolour,alfa,,,110,19,V,L,
487,109,25,11,3,53,27,718,['c'],1,left,['0'],6,102,[0.11305672],96,53,easy,minus,dotcolour,alfa,,,110,19,V,L,
488,110,26,11,3,47,33,733,['c'],1,left,['0'],6,45,[0.06689138],94,47,medium,minus,dotcolour,alfa,,,110,19,V,L,
489,111,27,11,3,36,44,1100,['n'],1,right,['0'],6,89,[-0.05887005],86,44,hard,minus,dotcolour,alfa,,,110,19,V,L,
490,112,28,11,3,27,53,718,['n'],1,right,['0'],6,106,[-0.11072786],96,53,easy,minus,dotcolour,alfa,,,110,19,V,L,
491,113,29,11,3,44,36,1184,['n'],0,left,['0'],6,88,[-0.02123707],66,44,hard,minus,dotcolour,alfa,,,110,19,V,L,
492,114,30,11,3,36,44,1000,['n'],1,right,['0'],6,134,[-0.0824089],88,44,hard,minus,dotcolour,alfa,,,110,19,V,L,
493,115,31,11,3,33,47,717,['n'],1,right,['0'],6,53,[-0.10340478],98,47,medium,minus,dotcolour,alfa,,,110,19,V,L,
494,116,32,11,3,47,33,900,['c'],1,left,['0'],6,32,[0.07615515],98,47,medium,minus,dotcolour,alfa,,,110,19,V,L,
495,117,33,11,3,33,47,1083,['n'],1,right,['0'],6,165,[-0.06708603],82,47,medium,minus,dotcolour,alfa,,,110,19,V,L,
496,118,34,11,3,53,27,900,['c'],1,left,['0'],6,20,[0.08795693],100,53,easy,minus,dotcolour,alfa,,,110,19,V,L,
497,119,35,11,3,47,33,1083,['c'],1,left,['0'],6,49,[0.10467064],99,47,medium,minus,dotcolour,alfa,,,110,19,V,L,
498,120,36,11,3,47,33,867,['c'],1,left,['0'],6,46,[0.06022131],93,47,medium,minus,dotcolour,alfa,,,110,19,V,L,
499,121,37,11,3,36,44,1250,['c'],0,right,['0'],6,28,[0.06204789],97,44,hard,minus,dotcolour,alfa,,,110,19,V,L,
500,122,38,11,3,53,27,735,['c'],1,left,['0'],6,62,[0.13184181],99,53,easy,minus,dotcolour,alfa,,,110,19,V,L,
501,123,39,11,3,36,44,900,['n'],1,right,['0'],6,72,[-0.08599327],95,44,hard,minus,dotcolour,alfa,,,110,19,V,L,
502,124,40,11,3,53,27,800,['c'],1,left,['0'],6,47,[0.08235153],97,53,easy,minus,dotcolour,alfa,,,110,19,V,L,
503,125,41,11,3,33,47,933,['n'],1,right,['0'],6,121,[-0.11792717],95,47,medium,minus,dotcolour,alfa,,,110,19,V,L,
504,0,0,12,4,47,33,884,['c'],1,left,['0'],6,32,[0.05137227],100,47,medium,plus,dotcolour,alfa,,,110,19,V,L,
505,1,1,12,4,27,53,501,['n'],1,right,['0'],6,197,[-0.11095221],100,53,easy,plus,dotcolour,alfa,,,110,19,V,L,
506,2,2,12,4,47,33,1217,['c'],1,left,['9'],5,117,[0.03800755],98,47,medium,plus,dotcolour,alfa,,,110,19,V,L,
507,3,3,12,4,36,44,1034,['n'],1,right,['0'],6,104,[-0.07736564],100,44,hard,plus,dotcolour,alfa,,,110,19,V,L,
508,4,4,12,4,53,27,817,['c'],1,left,['0'],6,28,[0.054658],100,53,easy,plus,dotcolour,alfa,,,110,19,V,L,
509,5,5,12,4,33,47,600,['n'],1,right,['0'],6,61,[-0.06619172],100,47,medium,plus,dotcolour,alfa,,,110,19,V,L,
510,6,6,12,4,44,36,1317,['c'],1,left,['9'],5,79,[0.05646113],100,44,hard,plus,dotcolour,alfa,,,110,19,V,L,
511,7,7,12,4,47,33,750,['c'],1,left,['0'],6,55,[0.09287303],100,47,medium,plus,dotcolour,alfa,,,110,19,V,L,
512,8,8,12,4,44,36,1284,['c'],1,left,['0'],6,67,[0.08707733],100,44,hard,plus,dotcolour,alfa,,,110,19,V,L,
513,9,9,12,4,44,36,1917,['c'],1,left,['9'],5,157,[0.09180936],100,44,hard,plus,dotcolour,alfa,,,110,19,V,L,
514,10,10,12,4,27,53,617,['n'],1,right,['0'],6,71,[-0.05689918],100,53,easy,plus,dotcolour,alfa,,,110,19,V,L,
515,11,11,12,4,44,36,2584,['n'],0,left,['8'],4,406,[-0.0809119],99,44,hard,plus,dotcolour,alfa,,,110,19,V,L,
516,12,12,12,4,44,36,2232,['n'],0,left,['0'],6,94,[-0.04974915],100,44,hard,plus,dotcolour,alfa,,,110,19,V,L,
517,13,13,12,4,53,27,749,['c'],1,left,['0'],6,53,[0.0810983],100,53,easy,plus,dotcolour,alfa,,,110,19,V,L,
518,14,14,12,4,27,53,1200,['n'],1,right,['0'],6,53,[-0.14096841],100,53,easy,plus,dotcolour,alfa,,,110,19,V,L,
519,15,15,12,4,53,27,883,['c'],1,left,['0'],6,64,[0.04321619],100,53,easy,plus,dotcolour,alfa,,,110,19,V,L,
520,16,16,12,4,53,27,884,['c'],1,left,['0'],6,28,[0.0763707],100,53,easy,plus,dotcolour,alfa,,,110,19,V,L,
521,17,17,12,4,33,47,1634,['n'],1,right,['0'],6,59,[-0.14924334],100,47,medium,plus,dotcolour,alfa,,,110,19,V,L,
522,18,18,12,4,36,44,900,['n'],1,right,['0'],6,45,[-0.11488404],100,44,hard,plus,dotcolour,alfa,,,110,19,V,L,
523,19,19,12,4,33,47,666,['n'],1,right,['0'],6,34,[-0.05795682],100,47,medium,plus,dotcolour,alfa,,,110,19,V,L,
524,20,20,12,4,47,33,884,['c'],1,left,['0'],6,22,[0.08341467],100,47,medium,plus,dotcolour,alfa,,,110,19,V,L,
525,21,21,12,4,47,33,2250,['n'],0,left,['9'],5,405,[-0.10908842],100,47,medium,plus,dotcolour,alfa,,,110,19,V,L,
526,22,22,12,4,36,44,817,['n'],1,right,['0'],6,6,[-0.08086066],100,44,hard,plus,dotcolour,alfa,,,110,19,V,L,
527,23,23,12,4,53,27,717,['c'],1,left,['0'],6,25,[0.05877073],100,53,easy,plus,dotcolour,alfa,,,110,19,V,L,
528,24,24,12,4,36,44,867,['n'],1,right,['0'],6,56,[-0.14212379],100,44,hard,plus,dotcolour,alfa,,,110,19,V,L,
529,25,25,12,4,47,33,934,['c'],1,left,['0'],6,57,[0.05789696],100,47,medium,plus,dotcolour,alfa,,,110,19,V,L,
530,26,26,12,4,44,36,1283,['c'],1,left,['9'],5,149,[0.07079086],100,44,hard,plus,dotcolour,alfa,,,110,19,V,L,
531,27,27,12,4,44,36,1317,['n'],0,left,['0'],6,916,[-0.10738366],98,44,hard,plus,dotcolour,alfa,,,110,19,V,L,
532,28,28,12,4,47,33,984,['c'],1,left,['0'],6,41,[0.06516424],100,47,medium,plus,dotcolour,alfa,,,110,19,V,L,
533,29,29,12,4,27,53,850,['n'],1,right,['0'],6,86,[-0.11073717],100,53,easy,plus,dotcolour,alfa,,,110,19,V,L,
534,30,30,12,4,33,47,1001,['n'],1,right,['0'],6,52,[-0.05716868],100,47,medium,plus,dotcolour,alfa,,,110,19,V,L,
535,31,31,12,4,27,53,983,['n'],1,right,['0'],6,188,[-0.1568133],100,53,easy,plus,dotcolour,alfa,,,110,19,V,L,
536,32,32,12,4,53,27,900,['c'],1,left,['0'],6,50,[0.09010043],100,53,easy,plus,dotcolour,alfa,,,110,19,V,L,
537,33,33,12,4,33,47,617,['n'],1,right,['0'],6,73,[-0.09589229],100,47,medium,plus,dotcolour,alfa,,,110,19,V,L,
538,34,34,12,4,33,47,567,['n'],1,right,['0'],6,41,[-0.08220636],100,47,medium,plus,dotcolour,alfa,,,110,19,V,L,
539,35,35,12,4,36,44,1184,['c'],0,right,['0'],6,57,[0.08394761],100,44,hard,plus,dotcolour,alfa,,,110,19,V,L,
540,36,36,12,4,27,53,566,['n'],1,right,['0'],6,74,[-0.08895542],100,53,easy,plus,dotcolour,alfa,,,110,19,V,L,
541,37,37,12,4,53,27,717,['c'],1,left,['0'],6,91,[0.06793471],100,53,easy,plus,dotcolour,alfa,,,110,19,V,L,
542,38,38,12,4,36,44,584,['n'],1,right,['0'],6,89,[-0.0750863],100,44,hard,plus,dotcolour,alfa,,,110,19,V,L,
543,39,39,12,4,27,53,684,['n'],1,right,['0'],6,52,[-0.08452347],100,53,easy,plus,dotcolour,alfa,,,110,19,V,L,
544,40,40,12,4,33,47,1216,['n'],1,right,['0'],6,58,[-0.07834375],100,47,medium,plus,dotcolour,alfa,,,110,19,V,L,
545,41,41,12,4,36,44,1701,['c'],0,right,['0'],6,13,[0.07244133],100,44,hard,plus,dotcolour,alfa,,,110,19,V,L,
546,42,0,13,4,44,36,885,['c'],1,left,['0'],6,26,[0.07865285],100,44,hard,plus,dotcolour,alfa,,,110,19,V,L,
547,43,1,13,4,53,27,851,['c'],1,left,['0'],6,48,[0.05216509],100,53,easy,plus,dotcolour,alfa,,,110,19,V,L,
548,44,2,13,4,33,47,566,['n'],1,right,['0'],6,25,[-0.07507323],100,47,medium,plus,dotcolour,alfa,,,110,19,V,L,
549,45,3,13,4,36,44,1017,['n'],1,right,['0'],6,1240,[-0.1244342],98,44,hard,plus,dotcolour,alfa,,,110,19,V,L,
550,46,4,13,4,27,53,566,['n'],1,right,['0'],6,80,[-0.10923512],100,53,easy,plus,dotcolour,alfa,,,110,19,V,L,
551,47,5,13,4,53,27,783,['c'],1,left,['0'],6,7,[0.06548871],100,53,easy,plus,dotcolour,alfa,,,110,19,V,L,
552,48,6,13,4,47,33,951,['c'],1,left,['0'],6,26,[0.07163632],100,47,medium,plus,dotcolour,alfa,,,110,19,V,L,
553,49,7,13,4,27,53,766,['c'],0,right,['0'],6,27,[0.07620507],100,53,easy,plus,dotcolour,alfa,,,110,19,V,L,
554,50,8,13,4,44,36,1300,['c'],1,left,['0'],6,55,[0.07433082],100,44,hard,plus,dotcolour,alfa,,,110,19,V,L,
555,51,9,13,4,36,44,834,['n'],1,right,['0'],6,62,[-0.07558644],100,44,hard,plus,dotcolour,alfa,,,110,19,V,L,
556,52,10,13,4,53,27,1449,['c'],1,left,['0'],6,51,[0.09866966],100,53,easy,plus,dotcolour,alfa,,,110,19,V,L,
557,53,11,13,4,27,53,849,['n'],1,right,['0'],6,23,[-0.05667451],100,53,easy,plus,dotcolour,alfa,,,110,19,V,L,
558,54,12,13,4,47,33,618,['c'],1,left,['0'],6,23,[0.06641791],100,47,medium,plus,dotcolour,alfa,,,110,19,V,L,
559,55,13,13,4,53,27,850,['c'],1,left,['0'],6,38,[0.09990041],100,53,easy,plus,dotcolour,alfa,,,110,19,V,L,
560,56,14,13,4,33,47,733,['n'],1,right,['0'],6,57,[-0.08469055],100,47,medium,plus,dotcolour,alfa,,,110,19,V,L,
561,57,15,13,4,27,53,533,['n'],1,right,['0'],6,67,[-0.05458824],100,53,easy,plus,dotcolour,alfa,,,110,19,V,L,
562,58,16,13,4,27,53,701,['n'],1,right,['0'],6,77,[-0.09923843],100,53,easy,plus,dotcolour,alfa,,,110,19,V,L,
563,59,17,13,4,33,47,499,['n'],1,right,['0'],6,72,[-0.05881859],100,47,medium,plus,dotcolour,alfa,,,110,19,V,L,
564,60,18,13,4,44,36,617,['n'],0,left,['1'],1,1070,[-0.09526848],96,44,hard,plus,dotcolour,alfa,,,110,19,V,L,
565,61,19,13,4,53,27,883,['c'],1,left,['0'],6,24,[0.06169852],100,53,easy,plus,dotcolour,alfa,,,110,19,V,L,
566,62,20,13,4,47,33,1467,['c'],1,left,['9'],5,62,[0.07969582],100,47,medium,plus,dotcolour,alfa,,,110,19,V,L,
567,63,21,13,4,53,27,717,['n'],0,left,['1'],1,863,[-0.00362325],54,53,easy,plus,dotcolour,alfa,,,110,19,V,L,
568,64,22,13,4,44,36,849,['c'],1,left,['0'],6,100,[0.11909897],100,44,hard,plus,dotcolour,alfa,,,110,19,V,L,
569,65,23,13,4,47,33,1050,['c'],1,left,['0'],6,48,[0.11211507],100,47,medium,plus,dotcolour,alfa,,,110,19,V,L,
570,66,24,13,4,44,36,800,['c'],1,left,['0'],6,39,[0.03797437],100,44,hard,plus,dotcolour,alfa,,,110,19,V,L,
571,67,25,13,4,44,36,800,['c'],1,left,['0'],6,39,[0.05515025],100,44,hard,plus,dotcolour,alfa,,,110,19,V,L,
572,68,26,13,4,36,44,2000,['n'],1,right,['8'],4,447,[-0.07006752],98,44,hard,plus,dotcolour,alfa,,,110,19,V,L,
573,69,27,13,4,44,36,1249,['n'],0,left,['9'],5,381,[-0.08756277],99,44,hard,plus,dotcolour,alfa,,,110,19,V,L,
574,70,28,13,4,36,44,1517,['n'],1,right,['0'],6,98,[-0.05918931],100,44,hard,plus,dotcolour,alfa,,,110,19,V,L,
575,71,29,13,4,33,47,1150,['n'],1,right,['0'],6,57,[-0.10110023],100,47,medium,plus,dotcolour,alfa,,,110,19,V,L,
576,72,30,13,4,27,53,634,['n'],1,right,['0'],6,54,[-0.07920813],100,53,easy,plus,dotcolour,alfa,,,110,19,V,L,
577,73,31,13,4,27,53,617,['n'],1,right,['0'],6,53,[-0.09403026],100,53,easy,plus,dotcolour,alfa,,,110,19,V,L,
578,74,32,13,4,47,33,1017,['c'],1,left,['0'],6,36,[0.10345139],100,47,medium,plus,dotcolour,alfa,,,110,19,V,L,
579,75,33,13,4,47,33,1433,['c'],1,left,['0'],6,26,[0.05898421],100,47,medium,plus,dotcolour,alfa,,,110,19,V,L,
580,76,34,13,4,47,33,834,['n'],0,left,['9'],5,801,[0.20898298],0,47,medium,plus,dotcolour,alfa,,,110,19,V,L,
581,77,35,13,4,33,47,1067,['n'],1,right,['0'],6,56,[-0.04337268],100,47,medium,plus,dotcolour,alfa,,,110,19,V,L,
582,78,36,13,4,33,47,667,['n'],1,right,['0'],6,44,[-0.0843584],100,47,medium,plus,dotcolour,alfa,,,110,19,V,L,
583,79,37,13,4,53,27,833,['c'],1,left,['0'],6,11,[0.07608081],100,53,easy,plus,dotcolour,alfa,,,110,19,V,L,
584,80,38,13,4,33,47,617,['n'],1,right,['0'],6,18,[-0.07766088],100,47,medium,plus,dotcolour,alfa,,,110,19,V,L,
585,81,39,13,4,36,44,883,['c'],0,right,['0'],6,40,[0.0924886],100,44,hard,plus,dotcolour,alfa,,,110,19,V,L,
586,82,40,13,4,36,44,817,['c'],0,right,['0'],6,63,[0.09173245],100,44,hard,plus,dotcolour,alfa,,,110,19,V,L,
587,83,41,13,4,36,44,1100,['n'],1,right,['0'],6,58,[-0.11139014],100,44,hard,plus,dotcolour,alfa,,,110,19,V,L,
588,84,0,14,4,47,33,1118,['c'],1,left,['0'],6,14,[0.08326493],100,47,medium,plus,dotcolour,alfa,,,110,19,V,L,
589,85,1,14,4,36,44,567,['n'],1,right,['0'],6,56,[-0.06549767],100,44,hard,plus,dotcolour,alfa,,,110,19,V,L,
590,86,2,14,4,47,33,1134,['c'],1,left,['0'],6,34,[0.1033069],100,47,medium,plus,dotcolour,alfa,,,110,19,V,L,
591,87,3,14,4,36,44,800,['n'],1,right,['0'],6,81,[-0.07335506],100,44,hard,plus,dotcolour,alfa,,,110,19,V,L,
592,88,4,14,4,53,27,1184,['c'],1,left,['0'],6,33,[0.08103958],100,53,easy,plus,dotcolour,alfa,,,110,19,V,L,
593,89,5,14,4,53,27,750,['c'],1,left,['0'],6,66,[0.09315066],100,53,easy,plus,dotcolour,alfa,,,110,19,V,L,
594,90,6,14,4,33,47,1066,['n'],1,right,['0'],6,62,[-0.08773548],100,47,medium,plus,dotcolour,alfa,,,110,19,V,L,
595,91,7,14,4,44,36,950,['c'],1,left,['0'],6,47,[0.06345521],100,44,hard,plus,dotcolour,alfa,,,110,19,V,L,
596,92,8,14,4,44,36,1567,['c'],1,left,['0'],6,39,[0.07865979],100,44,hard,plus,dotcolour,alfa,,,110,19,V,L,
597,93,9,14,4,27,53,799,['n'],1,right,['0'],6,71,[-0.10301426],100,53,easy,plus,dotcolour,alfa,,,110,19,V,L,
598,94,10,14,4,27,53,1783,['c'],0,right,['9'],5,423,[-0.03573435],12,53,easy,plus,dotcolour,alfa,,,110,19,V,L,
599,95,11,14,4,47,33,1033,['n'],0,left,['9'],5,349,[-0.05621932],97,47,medium,plus,dotcolour,alfa,,,110,19,V,L,
600,96,12,14,4,53,27,1001,['c'],1,left,['0'],6,905,[0.15472388],100,53,easy,plus,dotcolour,alfa,,,110,19,V,L,
601,97,13,14,4,36,44,1566,['n'],1,right,['0'],6,88,[-0.07103999],100,44,hard,plus,dotcolour,alfa,,,110,19,V,L,
602,98,14,14,4,36,44,1567,['c'],0,right,['9'],5,110,[0.05127039],100,44,hard,plus,dotcolour,alfa,,,110,19,V,L,
603,99,15,14,4,33,47,1350,['n'],1,right,['0'],6,125,[-0.14220156],100,47,medium,plus,dotcolour,alfa,,,110,19,V,L,
604,100,16,14,4,33,47,900,['n'],1,right,['0'],6,61,[-0.10138857],100,47,medium,plus,dotcolour,alfa,,,110,19,V,L,
605,101,17,14,4,44,36,767,['c'],1,left,['0'],6,45,[0.08372712],100,44,hard,plus,dotcolour,alfa,,,110,19,V,L,
606,102,18,14,4,44,36,1250,['c'],1,left,['0'],6,34,[0.04857193],100,44,hard,plus,dotcolour,alfa,,,110,19,V,L,
607,103,19,14,4,47,33,783,['c'],1,left,['0'],6,28,[0.06495076],100,47,medium,plus,dotcolour,alfa,,,110,19,V,L,
608,104,20,14,4,53,27,584,['c'],1,left,['0'],6,36,[0.04338989],100,53,easy,plus,dotcolour,alfa,,,110,19,V,L,
609,105,21,14,4,27,53,899,['n'],1,right,['0'],6,32,[-0.08265875],100,53,easy,plus,dotcolour,alfa,,,110,19,V,L,
610,106,22,14,4,33,47,867,['n'],1,right,['0'],6,69,[-0.10548441],100,47,medium,plus,dotcolour,alfa,,,110,19,V,L,
611,107,23,14,4,33,47,684,['n'],1,right,['0'],6,17,[-0.04358544],100,47,medium,plus,dotcolour,alfa,,,110,19,V,L,
612,108,24,14,4,27,53,566,['n'],1,right,['0'],6,51,[-0.0643376],100,53,easy,plus,dotcolour,alfa,,,110,19,V,L,
613,109,25,14,4,44,36,917,['c'],1,left,['0'],6,13,[0.05922712],100,44,hard,plus,dotcolour,alfa,,,110,19,V,L,
614,110,26,14,4,36,44,667,['n'],1,right,['0'],6,91,[-0.09421439],100,44,hard,plus,dotcolour,alfa,,,110,19,V,L,
615,111,27,14,4,27,53,867,['n'],1,right,['0'],6,70,[-0.04648498],100,53,easy,plus,dotcolour,alfa,,,110,19,V,L,
616,112,28,14,4,36,44,1100,['n'],1,right,['0'],6,82,[-0.07133464],100,44,hard,plus,dotcolour,alfa,,,110,19,V,L,
617,113,29,14,4,53,27,1016,['c'],1,left,['0'],6,46,[0.06179439],100,53,easy,plus,dotcolour,alfa,,,110,19,V,L,
618,114,30,14,4,33,47,933,['n'],1,right,['0'],6,64,[-0.06659746],100,47,medium,plus,dotcolour,alfa,,,110,19,V,L,
619,115,31,14,4,44,36,983,['n'],0,left,['0'],6,79,[-0.08184241],100,44,hard,plus,dotcolour,alfa,,,110,19,V,L,
620,116,32,14,4,27,53,767,['n'],1,right,['0'],6,119,[-0.11982703],100,53,easy,plus,dotcolour,alfa,,,110,19,V,L,
621,117,33,14,4,33,47,1600,['c'],0,right,['0'],6,52,[0.04777707],100,47,medium,plus,dotcolour,alfa,,,110,19,V,L,
622,118,34,14,4,47,33,1017,['c'],1,left,['0'],6,66,[0.08414562],100,47,medium,plus,dotcolour,alfa,,,110,19,V,L,
623,119,35,14,4,53,27,984,['c'],1,left,['0'],6,50,[0.05696526],100,53,easy,plus,dotcolour,alfa,,,110,19,V,L,
624,120,36,14,4,27,53,751,['n'],1,right,['0'],6,91,[-0.09984532],100,53,easy,plus,dotcolour,alfa,,,110,19,V,L,
625,121,37,14,4,47,33,834,['c'],1,left,['0'],6,55,[0.05639262],100,47,medium,plus,dotcolour,alfa,,,110,19,V,L,
626,122,38,14,4,36,44,884,['n'],1,right,['0'],6,83,[-0.06060503],100,44,hard,plus,dotcolour,alfa,,,110,19,V,L,
627,123,39,14,4,53,27,2467,['c'],1,left,['9'],5,1670,[0.35989143],100,53,easy,plus,dotcolour,alfa,,,110,19,V,L,
628,124,40,14,4,44,36,1350,['c'],1,left,['0'],6,14,[0.07093283],100,44,hard,plus,dotcolour,alfa,,,110,19,V,L,
629,125,41,14,4,47,33,1784,['c'],1,left,['0'],6,88,[0.06763543],100,47,medium,plus,dotcolour,alfa,,,110,19,V,L,
630,0,0,15,5,44,36,1717,['c'],1,left,['0'],6,65,[0.06893472],92,44,hard,minus,dotcolour,alfa,,,110,19,V,L,
631,1,1,15,5,53,27,816,['c'],1,left,['0'],6,23,[0.08309411],99,53,easy,minus,dotcolour,alfa,,,110,19,V,L,
632,2,2,15,5,44,36,1267,['c'],1,left,['0'],6,77,[0.07895008],93,44,hard,minus,dotcolour,alfa,,,110,19,V,L,
633,3,3,15,5,53,27,684,['c'],1,left,['0'],6,16,[0.08616808],100,53,easy,minus,dotcolour,alfa,,,110,19,V,L,
634,4,4,15,5,36,44,1000,['n'],1,right,['0'],6,25,[-0.0850879],99,44,hard,minus,dotcolour,alfa,,,110,19,V,L,
635,5,5,15,5,53,27,550,['c'],1,left,['0'],6,43,[0.08269886],97,53,easy,minus,dotcolour,alfa,,,110,19,V,L,
636,6,6,15,5,36,44,1534,['n'],1,right,['9'],5,580,[-0.0478722],64,44,hard,minus,dotcolour,alfa,,,110,19,V,L,
637,7,7,15,5,47,33,800,['c'],1,left,['0'],6,63,[0.08170894],95,47,medium,minus,dotcolour,alfa,,,110,19,V,L,
638,8,8,15,5,53,27,666,['c'],1,left,['0'],6,59,[0.11674326],99,53,easy,minus,dotcolour,alfa,,,110,19,V,L,
639,9,9,15,5,44,36,866,['c'],1,left,['0'],6,31,[0.0380817],88,44,hard,minus,dotcolour,alfa,,,110,19,V,L,
640,10,10,15,5,36,44,1316,['c'],0,right,['0'],6,26,[0.09210564],99,44,hard,minus,dotcolour,alfa,,,110,19,V,L,
641,11,11,15,5,27,53,1384,['n'],1,right,['9'],5,163,[-0.08921665],88,53,easy,minus,dotcolour,alfa,,,110,19,V,L,
642,12,12,15,5,33,47,1217,['n'],1,right,['0'],6,85,[-0.05597767],85,47,medium,minus,dotcolour,alfa,,,110,19,V,L,
643,13,13,15,5,33,47,983,['n'],1,right,['0'],6,43,[-0.1142758],99,47,medium,minus,dotcolour,alfa,,,110,19,V,L,
644,14,14,15,5,36,44,767,['n'],1,right,['9'],5,308,[-0.18394777],95,44,hard,minus,dotcolour,alfa,,,110,19,V,L,
645,15,15,15,5,44,36,1017,['n'],0,left,['9'],5,440,[-0.02430882],58,44,hard,minus,dotcolour,alfa,,,110,19,V,L,
646,16,16,15,5,53,27,950,['c'],1,left,['0'],6,33,[0.10844629],100,53,easy,minus,dotcolour,alfa,,,110,19,V,L,
647,17,17,15,5,53,27,933,['c'],1,left,['0'],6,36,[0.06866085],96,53,easy,minus,dotcolour,alfa,,,110,19,V,L,
648,18,18,15,5,27,53,684,['n'],1,right,['0'],6,33,[-0.09727421],99,53,easy,minus,dotcolour,alfa,,,110,19,V,L,
649,19,19,15,5,27,53,683,['n'],1,right,['0'],6,45,[-0.08834695],98,53,easy,minus,dotcolour,alfa,,,110,19,V,L,
650,20,20,15,5,36,44,950,['n'],1,right,['0'],6,55,[-0.04787423],86,44,hard,minus,dotcolour,alfa,,,110,19,V,L,
651,21,21,15,5,47,33,734,['c'],1,left,['0'],6,57,[0.11778028],99,47,medium,minus,dotcolour,alfa,,,110,19,V,L,
652,22,22,15,5,36,44,700,['n'],1,right,['0'],6,60,[-0.12218892],99,44,hard,minus,dotcolour,alfa,,,110,19,V,L,
653,23,23,15,5,27,53,584,['n'],1,right,['0'],6,68,[-0.09315366],96,53,easy,minus,dotcolour,alfa,,,110,19,V,L,
654,24,24,15,5,33,47,933,['n'],1,right,['0'],6,101,[-0.10553159],95,47,medium,minus,dotcolour,alfa,,,110,19,V,L,
655,25,25,15,5,44,36,1034,['c'],1,left,['0'],6,105,[0.07079801],88,44,hard,minus,dotcolour,alfa,,,110,19,V,L,
656,26,26,15,5,33,47,600,['n'],1,right,['0'],6,55,[-0.08687554],97,47,medium,minus,dotcolour,alfa,,,110,19,V,L,
657,27,27,15,5,47,33,800,['c'],1,left,['0'],6,30,[0.06442151],97,47,medium,minus,dotcolour,alfa,,,110,19,V,L,
658,28,28,15,5,33,47,851,['n'],1,right,['0'],6,20,[-0.07214574],99,47,medium,minus,dotcolour,alfa,,,110,19,V,L,
659,29,29,15,5,44,36,934,['c'],1,left,['0'],6,47,[0.05241817],90,44,hard,minus,dotcolour,alfa,,,110,19,V,L,
660,30,30,15,5,33,47,633,['n'],1,right,['0'],6,77,[-0.06948511],90,47,medium,minus,dotcolour,alfa,,,110,19,V,L,
661,31,31,15,5,47,33,1050,['c'],1,left,['0'],6,33,[0.08510339],99,47,medium,minus,dotcolour,alfa,,,110,19,V,L,
662,32,32,15,5,36,44,567,['n'],1,right,['0'],6,42,[-0.07158504],96,44,hard,minus,dotcolour,alfa,,,110,19,V,L,
663,33,33,15,5,27,53,567,['n'],1,right,['0'],6,75,[-0.08242496],94,53,easy,minus,dotcolour,alfa,,,110,19,V,L,
664,34,34,15,5,27,53,567,['n'],1,right,['0'],6,51,[-0.0742263],95,53,easy,minus,dotcolour,alfa,,,110,19,V,L,
665,35,35,15,5,27,53,600,['n'],1,right,['0'],6,58,[-0.06462066],92,53,easy,minus,dotcolour,alfa,,,110,19,V,L,
666,36,36,15,5,44,36,1083,['c'],1,left,['0'],6,93,[0.04795396],80,44,hard,minus,dotcolour,alfa,,,110,19,V,L,
667,37,37,15,5,53,27,1333,['c'],1,left,['0'],6,78,[0.08165077],93,53,easy,minus,dotcolour,alfa,,,110,19,V,L,
668,38,38,15,5,33,47,650,['n'],1,right,['0'],6,82,[-0.06422841],88,47,medium,minus,dotcolour,alfa,,,110,19,V,L,
669,39,39,15,5,47,33,949,['c'],1,left,['0'],6,50,[0.06352051],93,47,medium,minus,dotcolour,alfa,,,110,19,V,L,
670,40,40,15,5,47,33,1568,['c'],1,left,['0'],6,58,[0.0704283],93,47,medium,minus,dotcolour,alfa,,,110,19,V,L,
671,41,41,15,5,47,33,733,['c'],1,left,['0'],6,28,[0.08156197],99,47,medium,minus,dotcolour,alfa,,,110,19,V,L,
672,42,0,16,5,47,33,868,['c'],1,left,['0'],6,45,[0.07148973],95,47,medium,minus,dotcolour,alfa,,,110,19,V,L,
673,43,1,16,5,36,44,1433,['n'],1,right,['0'],6,115,[-0.10501183],94,44,hard,minus,dotcolour,alfa,,,110,19,V,L,
674,44,2,16,5,36,44,1117,['n'],1,right,['0'],6,75,[-0.0659475],90,44,hard,minus,dotcolour,alfa,,,110,19,V,L,
675,45,3,16,5,27,53,850,['n'],1,right,['0'],6,47,[-0.10769071],99,53,easy,minus,dotcolour,alfa,,,110,19,V,L,
676,46,4,16,5,33,47,1050,['n'],1,right,['0'],6,44,[-0.07637517],96,47,medium,minus,dotcolour,alfa,,,110,19,V,L,
677,47,5,16,5,36,44,1733,['n'],1,right,['0'],6,94,[-0.02681604],69,44,hard,minus,dotcolour,alfa,,,110,19,V,L,
678,48,6,16,5,36,44,1466,['c'],0,right,['0'],6,369,[-0.02515204],41,44,hard,minus,dotcolour,alfa,,,110,19,V,L,
679,49,7,16,5,47,33,1183,['c'],1,left,['0'],6,68,[0.07064886],92,47,medium,minus,dotcolour,alfa,,,110,19,V,L,
680,50,8,16,5,47,33,1700,['c'],1,left,['8'],4,559,[0.10046786],77,47,medium,minus,dotcolour,alfa,,,110,19,V,L,
681,51,9,16,5,36,44,1000,['n'],1,right,['0'],6,49,[-0.04534848],86,44,hard,minus,dotcolour,alfa,,,110,19,V,L,
682,52,10,16,5,27,53,700,['n'],1,right,['0'],6,29,[-0.03906989],89,53,easy,minus,dotcolour,alfa,,,110,19,V,L,
683,53,11,16,5,44,36,985,['c'],1,left,['0'],6,37,[0.09602478],99,44,hard,minus,dotcolour,alfa,,,110,19,V,L,
684,54,12,16,5,44,36,2466,['c'],1,left,['9'],5,115,[0.11659783],96,44,hard,minus,dotcolour,alfa,,,110,19,V,L,
685,55,13,16,5,33,47,1700,['n'],1,right,['0'],6,84,[-0.05969487],86,47,medium,minus,dotcolour,alfa,,,110,19,V,L,
686,56,14,16,5,53,27,701,['c'],1,left,['0'],6,46,[0.08429294],97,53,easy,minus,dotcolour,alfa,,,110,19,V,L,
687,57,15,16,5,44,36,632,['n'],0,left,['1'],1,988,[-0.11342426],74,44,hard,minus,dotcolour,alfa,,,110,19,V,L,
688,58,16,16,5,47,33,1334,['c'],1,left,['0'],6,40,[0.07655414],97,47,medium,minus,dotcolour,alfa,,,110,19,V,L,
689,59,17,16,5,27,53,583,['n'],1,right,['0'],6,24,[-0.06099929],97,53,easy,minus,dotcolour,alfa,,,110,19,V,L,
690,60,18,16,5,44,36,1200,['n'],0,left,['0'],6,32,[-0.09687666],99,44,hard,minus,dotcolour,alfa,,,110,19,V,L,
691,61,19,16,5,33,47,1032,['n'],1,right,['0'],6,38,[-0.06090879],94,47,medium,minus,dotcolour,alfa,,,110,19,V,L,
692,62,20,16,5,53,27,1234,['c'],1,left,['0'],6,62,[0.08350154],95,53,easy,minus,dotcolour,alfa,,,110,19,V,L,
693,63,21,16,5,53,27,800,['c'],1,left,['0'],6,60,[0.10598665],98,53,easy,minus,dotcolour,alfa,,,110,19,V,L,
694,64,22,16,5,27,53,866,['n'],1,right,['0'],6,41,[-0.07410439],96,53,easy,minus,dotcolour,alfa,,,110,19,V,L,
695,65,23,16,5,33,47,1249,['n'],1,right,['0'],6,110,[-0.06276267],85,47,medium,minus,dotcolour,alfa,,,110,19,V,L,
696,66,24,16,5,27,53,900,['n'],1,right,['0'],6,118,[-0.07725283],88,53,easy,minus,dotcolour,alfa,,,110,19,V,L,
697,67,25,16,5,44,36,950,['c'],1,left,['0'],6,61,[0.04903974],86,44,hard,minus,dotcolour,alfa,,,110,19,V,L,
698,68,26,16,5,47,33,867,['c'],1,left,['0'],6,41,[0.09802966],99,47,medium,minus,dotcolour,alfa,,,110,19,V,L,
699,69,27,16,5,47,33,1033,['c'],1,left,['0'],6,87,[0.06513762],88,47,medium,minus,dotcolour,alfa,,,110,19,V,L,
700,70,28,16,5,47,33,1017,['c'],1,left,['0'],6,77,[0.05371587],85,47,medium,minus,dotcolour,alfa,,,110,19,V,L,
701,71,29,16,5,27,53,801,['n'],1,right,['0'],6,75,[-0.07218995],91,53,easy,minus,dotcolour,alfa,,,110,19,V,L,
702,72,30,16,5,53,27,900,['c'],1,left,['0'],6,85,[0.05552704],85,53,easy,minus,dotcolour,alfa,,,110,19,V,L,
703,73,31,16,5,44,36,900,['c'],1,left,['0'],6,39,[0.06877925],96,44,hard,minus,dotcolour,alfa,,,110,19,V,L,
704,74,32,16,5,36,44,1217,['n'],1,right,['0'],6,78,[-0.04984731],83,44,hard,minus,dotcolour,alfa,,,110,19,V,L,
705,75,33,16,5,53,27,850,['c'],1,left,['0'],6,90,[0.09678184],95,53,easy,minus,dotcolour,alfa,,,110,19,V,L,
706,76,34,16,5,33,47,800,['n'],1,right,['0'],6,55,[-0.10357852],98,47,medium,minus,dotcolour,alfa,,,110,19,V,L,
707,77,35,16,5,27,53,850,['n'],1,right,['0'],6,85,[-0.11667636],97,53,easy,minus,dotcolour,alfa,,,110,19,V,L,
708,78,36,16,5,36,44,883,['c'],0,right,['0'],6,72,[0.11976413],98,44,hard,minus,dotcolour,alfa,,,110,19,V,L,
709,79,37,16,5,44,36,900,['c'],1,left,['0'],6,75,[0.09550298],96,44,hard,minus,dotcolour,alfa,,,110,19,V,L,
710,80,38,16,5,33,47,817,['n'],1,right,['0'],6,88,[-0.06217096],87,47,medium,minus,dotcolour,alfa,,,110,19,V,L,
711,81,39,16,5,53,27,866,['c'],1,left,['0'],6,67,[0.08943181],96,53,easy,minus,dotcolour,alfa,,,110,19,V,L,
712,82,40,16,5,53,27,1066,['c'],1,left,['0'],6,23,[0.08583607],99,53,easy,minus,dotcolour,alfa,,,110,19,V,L,
713,83,41,16,5,33,47,767,['n'],1,right,['0'],6,49,[-0.05951169],92,47,medium,minus,dotcolour,alfa,,,110,19,V,L,
714,84,0,17,5,33,47,835,['n'],1,right,['0'],6,51,[-0.07875295],96,47,medium,minus,dotcolour,alfa,,,110,19,V,L,
715,85,1,17,5,44,36,917,['c'],1,left,['0'],6,37,[0.07269783],97,44,hard,minus,dotcolour,alfa,,,110,19,V,L,
716,86,2,17,5,36,44,617,['n'],1,right,['0'],6,52,[-0.0909055],97,44,hard,minus,dotcolour,alfa,,,110,19,V,L,
717,87,3,17,5,44,36,1150,['c'],1,left,['0'],6,46,[0.06875037],95,44,hard,minus,dotcolour,alfa,,,110,19,V,L,
718,88,4,17,5,33,47,933,['n'],1,right,['0'],6,1672,[-0.23447767],84,47,medium,minus,dotcolour,alfa,,,110,19,V,L,
719,89,5,17,5,36,44,634,['n'],1,right,['0'],6,20,[-0.04619836],95,44,hard,minus,dotcolour,alfa,,,110,19,V,L,
720,90,6,17,5,47,33,783,['c'],1,left,['0'],6,47,[0.08095381],97,47,medium,minus,dotcolour,alfa,,,110,19,V,L,
721,91,7,17,5,33,47,617,['n'],1,right,['0'],6,53,[-0.05900162],91,47,medium,minus,dotcolour,alfa,,,110,19,V,L,
722,92,8,17,5,47,33,817,['c'],1,left,['0'],6,51,[0.0837807],97,47,medium,minus,dotcolour,alfa,,,110,19,V,L,
723,93,9,17,5,27,53,566,['n'],1,right,['0'],6,84,[-0.11933999],98,53,easy,minus,dotcolour,alfa,,,110,19,V,L,
724,94,10,17,5,36,44,617,['n'],1,right,['0'],6,65,[-0.07393816],93,44,hard,minus,dotcolour,alfa,,,110,19,V,L,
725,95,11,17,5,27,53,567,['n'],1,right,['0'],6,57,[-0.10695054],98,53,easy,minus,dotcolour,alfa,,,110,19,V,L,
726,96,12,17,5,27,53,667,['n'],1,right,['0'],6,45,[-0.06015068],93,53,easy,minus,dotcolour,alfa,,,110,19,V,L,
727,97,13,17,5,47,33,799,['c'],1,left,['0'],6,53,[0.10445135],98,47,medium,minus,dotcolour,alfa,,,110,19,V,L,
728,98,14,17,5,44,36,884,['c'],1,left,['0'],6,49,[0.09284785],98,44,hard,minus,dotcolour,alfa,,,110,19,V,L,
729,99,15,17,5,53,27,767,['c'],1,left,['0'],6,57,[0.08759515],96,53,easy,minus,dotcolour,alfa,,,110,19,V,L,
730,100,16,17,5,33,47,550,['n'],1,right,['0'],6,99,[-0.02746448],69,47,medium,minus,dotcolour,alfa,,,110,19,V,L,
731,101,17,17,5,53,27,618,['n'],0,left,['1'],1,807,[-0.09057802],71,53,easy,minus,dotcolour,alfa,,,110,19,V,L,
732,102,18,17,5,27,53,818,['n'],1,right,['0'],6,70,[-0.07815013],93,53,easy,minus,dotcolour,alfa,,,110,19,V,L,
733,103,19,17,5,44,36,800,['c'],1,left,['0'],6,61,[0.0761691],94,44,hard,minus,dotcolour,alfa,,,110,19,V,L,
734,104,20,17,5,53,27,934,['c'],1,left,['0'],6,31,[0.08975872],99,53,easy,minus,dotcolour,alfa,,,110,19,V,L,
735,105,21,17,5,36,44,717,['n'],1,right,['0'],6,74,[-0.04279171],80,44,hard,minus,dotcolour,alfa,,,110,19,V,L,
736,106,22,17,5,53,27,950,['c'],1,left,['0'],6,74,[0.11591289],98,53,easy,minus,dotcolour,alfa,,,110,19,V,L,
737,107,23,17,5,47,33,900,['c'],1,left,['0'],6,52,[0.06736624],93,47,medium,minus,dotcolour,alfa,,,110,19,V,L,
738,108,24,17,5,33,47,867,['n'],1,right,['0'],6,65,[-0.04907553],85,47,medium,minus,dotcolour,alfa,,,110,19,V,L,
739,109,25,17,5,33,47,617,['n'],1,right,['0'],6,87,[-0.03985703],77,47,medium,minus,dotcolour,alfa,,,110,19,V,L,
740,110,26,17,5,44,36,782,['c'],1,left,['0'],6,79,[0.15398788],99,44,hard,minus,dotcolour,alfa,,,110,19,V,L,
741,111,27,17,5,47,33,784,['c'],1,left,['0'],6,108,[0.09547705],93,47,medium,minus,dotcolour,alfa,,,110,19,V,L,
742,112,28,17,5,36,44,1148,['n'],1,right,['0'],6,91,[-0.08947878],94,44,hard,minus,dotcolour,alfa,,,110,19,V,L,
743,113,29,17,5,47,33,850,['c'],1,left,['0'],6,94,[0.07850207],91,47,medium,minus,dotcolour,alfa,,,110,19,V,L,
744,114,30,17,5,53,27,517,['n'],0,left,['1'],1,727,[0.01767039],45,53,easy,minus,dotcolour,alfa,,,110,19,V,L,
745,115,31,17,5,36,44,800,['n'],1,right,['0'],6,91,[-0.05822854],85,44,hard,minus,dotcolour,alfa,,,110,19,V,L,
746,116,32,17,5,44,36,1550,['c'],1,left,['0'],6,107,[0.0265068],67,44,hard,minus,dotcolour,alfa,,,110,19,V,L,
747,117,33,17,5,36,44,934,['n'],1,right,['8'],4,1122,[0.10432026],29,44,hard,minus,dotcolour,alfa,,,110,19,V,L,
748,118,34,17,5,33,47,967,['n'],1,right,['9'],5,495,[-0.18813165],92,47,medium,minus,dotcolour,alfa,,,110,19,V,L,
749,119,35,17,5,27,53,733,['n'],1,right,['0'],6,95,[-0.08616476],93,53,easy,minus,dotcolour,alfa,,,110,19,V,L,
750,120,36,17,5,27,53,600,['n'],1,right,['0'],6,92,[-0.02303647],66,53,easy,minus,dotcolour,alfa,,,110,19,V,L,
751,121,37,17,5,44,36,1333,['c'],1,left,['9'],5,141,[0.12112203],95,44,hard,minus,dotcolour,alfa,,,110,19,V,L,
752,122,38,17,5,53,27,1467,['n'],0,left,['9'],5,630,[-0.03932982],61,53,easy,minus,dotcolour,alfa,,,110,19,V,L,
753,123,39,17,5,47,33,2217,['c'],1,left,['9'],5,125,[0.05460041],80,47,medium,minus,dotcolour,alfa,,,110,19,V,L,
754,124,40,17,5,53,27,984,['c'],1,left,['9'],5,657,[0.28045266],96,53,easy,minus,dotcolour,alfa,,,110,19,V,L,
755,125,41,17,5,27,53,1017,['n'],1,right,['0'],6,63,[-0.04685566],84,53,easy,minus,dotcolour,alfa,,,110,19,V,L,
,,,,,,,,,,,,,,,,,,,,,1,"nee, niet specifiek",110,19,V,L,
,,,,,,,,,,,,,,,,,,,,,2,['h'],110,19,V,L,
,,,,,,,,,,,,,,,,,,,,,3,['g'],110,19,V,L,
,,,,,,,,,,,,,,,,,,,,,5,[],110,19,V,L,
