trial,withinphasetrial,withinblocktrial,block,phase,dotsLeft,dotsRight,rt,resp,cor,cresp,conf_press,cj,RTconf,ev,fb,diff,difflevel,condition,task,manip,questionID,questionResp,sub,age,gender,handedness,
0,0,0,0,0,47,33,2016,['c'],1,left,['3'],3,2025,[0.40289873],100,47,medium,plus,dotcolour,beta,,,62,18,V,R,
1,1,1,0,0,47,33,2034,['n'],0,left,['9'],5,1407,[-0.03614011],80,47,medium,plus,dotcolour,beta,,,62,18,V,R,
2,2,2,0,0,27,53,1649,['n'],1,right,['0'],6,758,[-0.21902059],100,53,easy,plus,dotcolour,beta,,,62,18,V,R,
3,3,3,0,0,44,36,2414,['c'],1,left,['0'],6,1376,[0.13250634],95,44,hard,plus,dotcolour,beta,,,62,18,V,R,
4,4,4,0,0,33,47,1699,['n'],1,right,['0'],6,885,[-0.12195876],97,47,medium,plus,dotcolour,beta,,,62,18,V,R,
5,5,5,0,0,33,47,2817,['c'],0,right,['3'],3,1266,[-0.05093765],52,47,medium,plus,dotcolour,beta,,,62,18,V,R,
6,6,6,0,0,36,44,949,['c'],0,right,['3'],3,330,[-0.00714904],82,44,hard,plus,dotcolour,beta,,,62,18,V,R,
7,7,7,0,0,44,36,682,['n'],0,left,['8'],4,338,[-0.10397279],99,44,hard,plus,dotcolour,beta,,,62,18,V,R,
8,8,8,0,0,27,53,1283,['c'],0,right,['3'],3,147,[0.04003167],99,53,easy,plus,dotcolour,beta,,,62,18,V,R,
9,9,9,0,0,33,47,933,['n'],1,right,['8'],4,193,[-0.1686485],100,47,medium,plus,dotcolour,beta,,,62,18,V,R,
10,10,10,0,0,47,33,1681,['c'],1,left,['3'],3,343,[0.23603677],100,47,medium,plus,dotcolour,beta,,,62,18,V,R,
11,11,11,0,0,27,53,1665,['n'],1,right,['0'],6,928,[-0.16645535],98,53,easy,plus,dotcolour,beta,,,62,18,V,R,
12,12,12,0,0,27,53,1264,['n'],1,right,['9'],5,904,[-0.25280885],100,53,easy,plus,dotcolour,beta,,,62,18,V,R,
13,13,13,0,0,33,47,1049,['c'],0,right,['2'],2,283,[0.06061016],98,47,medium,plus,dotcolour,beta,,,62,18,V,R,
14,14,14,0,0,53,27,1233,['c'],1,left,['0'],6,889,[0.23075649],100,53,easy,plus,dotcolour,beta,,,62,18,V,R,
15,15,15,0,0,36,44,966,['n'],1,right,['3'],3,431,[-0.16869476],100,44,hard,plus,dotcolour,beta,,,62,18,V,R,
16,16,16,0,0,44,36,1182,['c'],1,left,['0'],6,432,[0.12530628],99,44,hard,plus,dotcolour,beta,,,62,18,V,R,
17,17,17,0,0,44,36,1133,['c'],1,left,['0'],6,138,[0.09573694],100,44,hard,plus,dotcolour,beta,,,62,18,V,R,
18,18,18,0,0,36,44,934,['n'],1,right,['0'],6,441,[0.00310411],81,44,hard,plus,dotcolour,beta,,,62,18,V,R,
19,19,19,0,0,44,36,1117,['c'],1,left,['0'],6,228,[0.01569312],94,44,hard,plus,dotcolour,beta,,,62,18,V,R,
20,20,20,0,0,33,47,1433,['n'],1,right,['3'],3,1819,[-0.23810502],98,47,medium,plus,dotcolour,beta,,,62,18,V,R,
21,21,21,0,0,36,44,2547,['n'],1,right,['3'],3,1141,[-0.15212741],97,44,hard,plus,dotcolour,beta,,,62,18,V,R,
22,22,22,0,0,33,47,1966,['n'],1,right,['3'],3,865,[-0.18467269],99,47,medium,plus,dotcolour,beta,,,62,18,V,R,
23,23,23,0,0,27,53,1333,['n'],1,right,['8'],4,379,[-0.02567871],91,53,easy,plus,dotcolour,beta,,,62,18,V,R,
24,24,24,0,0,53,27,1047,['c'],1,left,['0'],6,314,[0.06858172],98,53,easy,plus,dotcolour,beta,,,62,18,V,R,
25,25,25,0,0,44,36,1315,['c'],1,left,['8'],4,314,[0.13364911],100,44,hard,plus,dotcolour,beta,,,62,18,V,R,
26,26,26,0,0,47,33,916,['c'],1,left,['3'],3,282,[0.07268058],99,47,medium,plus,dotcolour,beta,,,62,18,V,R,
27,27,27,0,0,27,53,1480,['n'],1,right,['0'],6,613,[-0.1802755],100,53,easy,plus,dotcolour,beta,,,62,18,V,R,
28,28,28,0,0,27,53,982,['n'],1,right,['3'],3,318,[-0.08693555],99,53,easy,plus,dotcolour,beta,,,62,18,V,R,
29,29,29,0,0,33,47,1034,['c'],0,right,['0'],6,337,[0.04155595],95,47,medium,plus,dotcolour,beta,,,62,18,V,R,
30,30,30,0,0,47,33,1097,['n'],0,left,['3'],3,304,[-0.13415661],100,47,medium,plus,dotcolour,beta,,,62,18,V,R,
31,31,31,0,0,53,27,533,['c'],1,left,['0'],6,344,[0.02995787],93,53,easy,plus,dotcolour,beta,,,62,18,V,R,
32,32,32,0,0,47,33,1115,['c'],1,left,['0'],6,286,[0.09955848],99,47,medium,plus,dotcolour,beta,,,62,18,V,R,
33,33,33,0,0,36,44,731,['c'],0,right,['0'],6,247,[0.19551434],100,44,hard,plus,dotcolour,beta,,,62,18,V,R,
34,34,34,0,0,53,27,767,['c'],1,left,['0'],6,191,[0.17384045],100,53,easy,plus,dotcolour,beta,,,62,18,V,R,
35,35,35,0,0,53,27,1000,['n'],0,left,['2'],2,1193,[0.0025279],71,53,easy,plus,dotcolour,beta,,,62,18,V,R,
36,36,36,0,0,47,33,982,['c'],1,left,['0'],6,186,[0.1460702],100,47,medium,plus,dotcolour,beta,,,62,18,V,R,
37,37,37,0,0,53,27,848,['c'],1,left,['0'],6,161,[0.07631849],100,53,easy,plus,dotcolour,beta,,,62,18,V,R,
38,38,38,0,0,36,44,782,['n'],1,right,['3'],3,757,[-0.15738262],99,44,hard,plus,dotcolour,beta,,,62,18,V,R,
39,39,39,0,0,53,27,950,['c'],1,left,['0'],6,961,[0.21629016],99,53,easy,plus,dotcolour,beta,,,62,18,V,R,
40,40,40,0,0,36,44,800,['c'],0,right,['0'],6,292,[0.1223664],100,44,hard,plus,dotcolour,beta,,,62,18,V,R,
41,41,41,0,0,44,36,548,['c'],1,left,['0'],6,324,[0.07661283],98,44,hard,plus,dotcolour,beta,,,62,18,V,R,
42,42,0,1,0,27,53,983,['n'],1,right,['0'],6,395,[-0.16911302],100,53,easy,plus,dotcolour,beta,,,62,18,V,R,
43,43,1,1,0,47,33,816,['c'],1,left,['0'],6,299,[0.03404452],95,47,medium,plus,dotcolour,beta,,,62,18,V,R,
44,44,2,1,0,33,47,983,['n'],1,right,['0'],6,562,[-0.18416275],100,47,medium,plus,dotcolour,beta,,,62,18,V,R,
45,45,3,1,0,47,33,1033,['c'],1,left,['0'],6,307,[0.13874084],100,47,medium,plus,dotcolour,beta,,,62,18,V,R,
46,46,4,1,0,44,36,698,['n'],0,left,['0'],6,283,[-0.02595446],94,44,hard,plus,dotcolour,beta,,,62,18,V,R,
47,47,5,1,0,33,47,916,['c'],0,right,['3'],3,237,[0.00804931],91,47,medium,plus,dotcolour,beta,,,62,18,V,R,
48,48,6,1,0,53,27,915,['c'],1,left,['0'],6,311,[0.09813044],99,53,easy,plus,dotcolour,beta,,,62,18,V,R,
49,49,7,1,0,47,33,731,['c'],1,left,['0'],6,271,[0.01310336],91,47,medium,plus,dotcolour,beta,,,62,18,V,R,
50,50,8,1,0,27,53,698,['n'],1,right,['3'],3,450,[-0.10357923],99,53,easy,plus,dotcolour,beta,,,62,18,V,R,
51,51,9,1,0,36,44,832,['c'],0,right,['0'],6,264,[0.12681072],100,44,hard,plus,dotcolour,beta,,,62,18,V,R,
52,52,10,1,0,27,53,1299,['n'],1,right,['8'],4,314,[-0.06510949],98,53,easy,plus,dotcolour,beta,,,62,18,V,R,
53,53,11,1,0,27,53,699,['c'],0,right,['3'],3,467,[0.05895257],95,53,easy,plus,dotcolour,beta,,,62,18,V,R,
54,54,12,1,0,53,27,665,['n'],0,left,['8'],4,270,[0.05273251],52,53,easy,plus,dotcolour,beta,,,62,18,V,R,
55,55,13,1,0,47,33,1133,['n'],0,left,['9'],5,503,[0.05241784],52,47,medium,plus,dotcolour,beta,,,62,18,V,R,
56,56,14,1,0,44,36,815,['c'],1,left,['0'],6,300,[0.1035461],99,44,hard,plus,dotcolour,beta,,,62,18,V,R,
57,57,15,1,0,33,47,1316,['n'],1,right,['0'],6,380,[0.0275488],69,47,medium,plus,dotcolour,beta,,,62,18,V,R,
58,58,16,1,0,36,44,748,['n'],1,right,['0'],6,184,[-0.05611531],99,44,hard,plus,dotcolour,beta,,,62,18,V,R,
59,59,17,1,0,47,33,1266,['n'],0,left,['0'],6,792,[-0.08338631],94,47,medium,plus,dotcolour,beta,,,62,18,V,R,
60,60,18,1,0,33,47,1300,['n'],1,right,['0'],6,261,[-0.05040598],98,47,medium,plus,dotcolour,beta,,,62,18,V,R,
61,61,19,1,0,27,53,1065,['n'],1,right,['0'],6,160,[-0.13852752],100,53,easy,plus,dotcolour,beta,,,62,18,V,R,
62,62,20,1,0,27,53,917,['n'],1,right,['0'],6,103,[-0.03383074],99,53,easy,plus,dotcolour,beta,,,62,18,V,R,
63,63,21,1,0,44,36,915,['c'],1,left,['3'],3,159,[0.07185973],100,44,hard,plus,dotcolour,beta,,,62,18,V,R,
64,64,22,1,0,36,44,699,['c'],0,right,['0'],6,270,[0.03985219],96,44,hard,plus,dotcolour,beta,,,62,18,V,R,
65,65,23,1,0,44,36,1048,['c'],1,left,['0'],6,426,[0.06796939],97,44,hard,plus,dotcolour,beta,,,62,18,V,R,
66,66,24,1,0,36,44,597,['n'],1,right,['0'],6,226,[-0.0792466],99,44,hard,plus,dotcolour,beta,,,62,18,V,R,
67,67,25,1,0,33,47,482,['c'],0,right,['0'],6,399,[-0.05616077],50,47,medium,plus,dotcolour,beta,,,62,18,V,R,
68,68,26,1,0,27,53,383,['c'],0,right,['0'],6,329,[0.0266404],93,53,easy,plus,dotcolour,beta,,,62,18,V,R,
69,69,27,1,0,33,47,666,['n'],1,right,['0'],6,522,[-0.13344754],99,47,medium,plus,dotcolour,beta,,,62,18,V,R,
70,70,28,1,0,47,33,867,['c'],1,left,['0'],6,307,[0.09921441],99,47,medium,plus,dotcolour,beta,,,62,18,V,R,
71,71,29,1,0,33,47,865,['n'],1,right,['0'],6,237,[-0.04081457],97,47,medium,plus,dotcolour,beta,,,62,18,V,R,
72,72,30,1,0,47,33,665,['c'],1,left,['0'],6,226,[0.1973015],100,47,medium,plus,dotcolour,beta,,,62,18,V,R,
73,73,31,1,0,53,27,532,['c'],1,left,['0'],6,469,[0.1699675],100,53,easy,plus,dotcolour,beta,,,62,18,V,R,
74,74,32,1,0,36,44,1765,['c'],0,right,['0'],6,725,[0.06481789],93,44,hard,plus,dotcolour,beta,,,62,18,V,R,
75,75,33,1,0,44,36,849,['n'],0,left,['0'],6,319,[-0.05883584],97,44,hard,plus,dotcolour,beta,,,62,18,V,R,
76,76,34,1,0,44,36,714,['c'],1,left,['0'],6,327,[0.06463317],98,44,hard,plus,dotcolour,beta,,,62,18,V,R,
77,77,35,1,0,44,36,732,['c'],1,left,['0'],6,317,[-0.0392668],63,44,hard,plus,dotcolour,beta,,,62,18,V,R,
78,78,36,1,0,53,27,884,['c'],1,left,['0'],6,183,[0.09781186],100,53,easy,plus,dotcolour,beta,,,62,18,V,R,
79,79,37,1,0,36,44,783,['c'],0,right,['0'],6,1370,[-0.14262154],21,44,hard,plus,dotcolour,beta,,,62,18,V,R,
80,80,38,1,0,53,27,2181,['c'],1,left,['9'],5,948,[0.34696843],100,53,easy,plus,dotcolour,beta,,,62,18,V,R,
81,81,39,1,0,53,27,1266,['c'],1,left,['0'],6,452,[0.13718323],99,53,easy,plus,dotcolour,beta,,,62,18,V,R,
82,82,40,1,0,53,27,800,['c'],1,left,['0'],6,195,[0.14948635],100,53,easy,plus,dotcolour,beta,,,62,18,V,R,
83,83,41,1,0,36,44,817,['c'],0,right,['0'],6,188,[0.07594917],100,44,hard,plus,dotcolour,beta,,,62,18,V,R,
84,84,0,2,0,33,47,733,['n'],1,right,['0'],6,307,[-0.15071386],100,47,medium,plus,dotcolour,beta,,,62,18,V,R,
85,85,1,2,0,36,44,532,['c'],0,right,['0'],6,235,[0.11145788],100,44,hard,plus,dotcolour,beta,,,62,18,V,R,
86,86,2,2,0,33,47,365,['n'],1,right,['0'],6,260,[-0.07636738],99,47,medium,plus,dotcolour,beta,,,62,18,V,R,
87,87,3,2,0,33,47,433,['n'],1,right,['0'],6,218,[-0.09866905],100,47,medium,plus,dotcolour,beta,,,62,18,V,R,
88,88,4,2,0,44,36,447,['n'],0,left,['0'],6,496,[-0.10554308],98,44,hard,plus,dotcolour,beta,,,62,18,V,R,
89,89,5,2,0,44,36,465,['n'],0,left,['0'],6,155,[-0.00550503],94,44,hard,plus,dotcolour,beta,,,62,18,V,R,
90,90,6,2,0,36,44,697,['n'],1,right,['0'],6,418,[-0.11141102],99,44,hard,plus,dotcolour,beta,,,62,18,V,R,
91,91,7,2,0,33,47,782,['n'],1,right,['0'],6,388,[-0.14680811],100,47,medium,plus,dotcolour,beta,,,62,18,V,R,
92,92,8,2,0,44,36,399,['n'],0,left,['9'],5,453,[0.00429637],80,44,hard,plus,dotcolour,beta,,,62,18,V,R,
93,93,9,2,0,33,47,447,['c'],0,right,['0'],6,425,[-0.04175007],59,47,medium,plus,dotcolour,beta,,,62,18,V,R,
94,94,10,2,0,47,33,665,['c'],1,left,['0'],6,318,[0.09202994],99,47,medium,plus,dotcolour,beta,,,62,18,V,R,
95,95,11,2,0,36,44,632,['c'],0,right,['0'],6,338,[0.11600908],100,44,hard,plus,dotcolour,beta,,,62,18,V,R,
96,96,12,2,0,27,53,997,['c'],0,right,['0'],6,175,[-0.03099565],74,53,easy,plus,dotcolour,beta,,,62,18,V,R,
97,97,13,2,0,36,44,682,['c'],0,right,['0'],6,341,[0.05130515],96,44,hard,plus,dotcolour,beta,,,62,18,V,R,
98,98,14,2,0,53,27,950,['c'],1,left,['2'],2,370,[0.07908519],98,53,easy,plus,dotcolour,beta,,,62,18,V,R,
99,99,15,2,0,27,53,982,['n'],1,right,['0'],6,365,[-0.11121902],99,53,easy,plus,dotcolour,beta,,,62,18,V,R,
100,100,16,2,0,53,27,1047,['c'],1,left,['0'],6,245,[0.10062566],100,53,easy,plus,dotcolour,beta,,,62,18,V,R,
101,101,17,2,0,44,36,850,['c'],1,left,['0'],6,363,[0.15445274],100,44,hard,plus,dotcolour,beta,,,62,18,V,R,
102,102,18,2,0,44,36,815,['c'],1,left,['0'],6,333,[-0.03804687],63,44,hard,plus,dotcolour,beta,,,62,18,V,R,
103,103,19,2,0,27,53,1701,['c'],0,right,['0'],6,389,[0.065737],97,53,easy,plus,dotcolour,beta,,,62,18,V,R,
104,104,20,2,0,47,33,698,['c'],1,left,['0'],6,323,[0.09368718],99,47,medium,plus,dotcolour,beta,,,62,18,V,R,
105,105,21,2,0,53,27,732,['n'],0,left,['0'],6,242,[0.10326506],15,53,easy,plus,dotcolour,beta,,,62,18,V,R,
106,106,22,2,0,33,47,1266,['n'],1,right,['0'],6,358,[-0.11571721],99,47,medium,plus,dotcolour,beta,,,62,18,V,R,
107,107,23,2,0,47,33,834,['c'],1,left,['0'],6,280,[0.12799788],100,47,medium,plus,dotcolour,beta,,,62,18,V,R,
108,108,24,2,0,27,53,814,['c'],0,right,['0'],6,285,[0.02737412],94,53,easy,plus,dotcolour,beta,,,62,18,V,R,
109,109,25,2,0,47,33,748,['c'],1,left,['3'],3,412,[0.01106349],87,47,medium,plus,dotcolour,beta,,,62,18,V,R,
110,110,26,2,0,53,27,699,['c'],1,left,['3'],3,257,[0.14074839],100,53,easy,plus,dotcolour,beta,,,62,18,V,R,
111,111,27,2,0,27,53,515,['c'],0,right,['3'],3,387,[-0.05657082],49,53,easy,plus,dotcolour,beta,,,62,18,V,R,
112,112,28,2,0,36,44,1100,['c'],0,right,['3'],3,153,[0.05397438],99,44,hard,plus,dotcolour,beta,,,62,18,V,R,
113,113,29,2,0,53,27,1465,['c'],1,left,['3'],3,217,[0.04694264],98,53,easy,plus,dotcolour,beta,,,62,18,V,R,
114,114,30,2,0,27,53,1315,['c'],0,right,['3'],3,358,[0.00278277],85,53,easy,plus,dotcolour,beta,,,62,18,V,R,
115,115,31,2,0,53,27,915,['c'],1,left,['3'],3,284,[0.09932937],99,53,easy,plus,dotcolour,beta,,,62,18,V,R,
116,116,32,2,0,44,36,1366,['c'],1,left,['0'],6,251,[0.07928131],99,44,hard,plus,dotcolour,beta,,,62,18,V,R,
117,117,33,2,0,47,33,581,['c'],1,left,['0'],6,355,[0.12669863],100,47,medium,plus,dotcolour,beta,,,62,18,V,R,
118,118,34,2,0,47,33,1115,['c'],1,left,['8'],4,394,[0.15555644],100,47,medium,plus,dotcolour,beta,,,62,18,V,R,
119,119,35,2,0,36,44,565,['c'],0,right,['0'],6,261,[0.06116098],98,44,hard,plus,dotcolour,beta,,,62,18,V,R,
120,120,36,2,0,44,36,682,['c'],1,left,['0'],6,208,[0.08138947],100,44,hard,plus,dotcolour,beta,,,62,18,V,R,
121,121,37,2,0,27,53,832,['n'],1,right,['0'],6,599,[-0.11006073],98,53,easy,plus,dotcolour,beta,,,62,18,V,R,
122,122,38,2,0,33,47,1148,['c'],0,right,['9'],5,682,[-0.08340517],35,47,medium,plus,dotcolour,beta,,,62,18,V,R,
123,123,39,2,0,53,27,732,['c'],1,left,['0'],6,355,[0.04377827],95,53,easy,plus,dotcolour,beta,,,62,18,V,R,
124,124,40,2,0,36,44,966,['c'],0,right,['0'],6,288,[0.0844078],99,44,hard,plus,dotcolour,beta,,,62,18,V,R,
125,125,41,2,0,47,33,915,['n'],0,left,['8'],4,304,[-0.04023538],96,47,medium,plus,dotcolour,beta,,,62,18,V,R,
126,0,0,3,1,53,27,701,['c'],1,left,['0'],6,220,[0.10851834],88,53,easy,minus,dotcolour,beta,,,62,18,V,R,
127,1,1,3,1,36,44,181,['c'],0,right,['0'],6,340,[0.064625],57,44,hard,minus,dotcolour,beta,,,62,18,V,R,
128,2,2,3,1,36,44,700,['n'],1,right,['0'],6,324,[-0.18481443],98,44,hard,minus,dotcolour,beta,,,62,18,V,R,
129,3,3,3,1,53,27,834,['n'],0,left,['0'],6,350,[-0.0834114],70,53,easy,minus,dotcolour,beta,,,62,18,V,R,
130,4,4,3,1,27,53,766,['n'],1,right,['0'],6,275,[-0.18818361],99,53,easy,minus,dotcolour,beta,,,62,18,V,R,
131,5,5,3,1,27,53,833,['n'],1,right,['0'],6,232,[-0.11786272],91,53,easy,minus,dotcolour,beta,,,62,18,V,R,
132,6,6,3,1,44,36,714,['c'],1,left,['0'],6,259,[0.11734205],90,44,hard,minus,dotcolour,beta,,,62,18,V,R,
133,7,7,3,1,33,47,864,['c'],0,right,['0'],6,231,[0.01012127],15,47,medium,minus,dotcolour,beta,,,62,18,V,R,
134,8,8,3,1,53,27,565,['c'],1,left,['8'],4,320,[0.13508611],93,53,easy,minus,dotcolour,beta,,,62,18,V,R,
135,9,9,3,1,33,47,799,['c'],0,right,['0'],6,292,[0.04878668],44,47,medium,minus,dotcolour,beta,,,62,18,V,R,
136,10,10,3,1,33,47,331,['c'],0,right,['0'],6,252,[0.00117532],12,47,medium,minus,dotcolour,beta,,,62,18,V,R,
137,11,11,3,1,47,33,333,['c'],1,left,['8'],4,302,[0.11681369],88,47,medium,minus,dotcolour,beta,,,62,18,V,R,
138,12,12,3,1,47,33,416,['c'],1,left,['0'],6,323,[0.04251353],40,47,medium,minus,dotcolour,beta,,,62,18,V,R,
139,13,13,3,1,53,27,214,['c'],1,left,['0'],6,303,[0.11072774],86,53,easy,minus,dotcolour,beta,,,62,18,V,R,
140,14,14,3,1,47,33,1149,['c'],1,left,['0'],6,255,[0.18416505],99,47,medium,minus,dotcolour,beta,,,62,18,V,R,
141,15,15,3,1,27,53,547,['c'],0,right,['9'],5,593,[-0.03262385],11,53,easy,minus,dotcolour,beta,,,62,18,V,R,
142,16,16,3,1,36,44,766,['c'],0,right,['9'],5,379,[-0.0077004],14,44,hard,minus,dotcolour,beta,,,62,18,V,R,
143,17,17,3,1,36,44,448,['c'],0,right,['9'],5,450,[0.03009805],34,44,hard,minus,dotcolour,beta,,,62,18,V,R,
144,18,18,3,1,33,47,2480,['c'],0,right,['2'],2,503,[-0.15643479],0,47,medium,minus,dotcolour,beta,,,62,18,V,R,
145,19,19,3,1,36,44,798,['c'],0,right,['2'],2,220,[0.08412514],75,44,hard,minus,dotcolour,beta,,,62,18,V,R,
146,20,20,3,1,44,36,565,['c'],1,left,['0'],6,350,[0.13322127],91,44,hard,minus,dotcolour,beta,,,62,18,V,R,
147,21,21,3,1,33,47,416,['c'],0,right,['2'],2,416,[0.09963142],77,47,medium,minus,dotcolour,beta,,,62,18,V,R,
148,22,22,3,1,33,47,1050,['c'],0,right,['9'],5,334,[-0.0126695],11,47,medium,minus,dotcolour,beta,,,62,18,V,R,
149,23,23,3,1,44,36,715,['c'],1,left,['9'],5,238,[0.09819064],83,44,hard,minus,dotcolour,beta,,,62,18,V,R,
150,24,24,3,1,53,27,499,['c'],1,left,['0'],6,209,[0.05981616],54,53,easy,minus,dotcolour,beta,,,62,18,V,R,
151,25,25,3,1,44,36,366,['c'],1,left,['0'],6,244,[0.09098941],78,44,hard,minus,dotcolour,beta,,,62,18,V,R,
152,26,26,3,1,27,53,416,['c'],0,right,['0'],6,274,[0.00075416],13,53,easy,minus,dotcolour,beta,,,62,18,V,R,
153,27,27,3,1,36,44,432,['c'],0,right,['0'],6,303,[0.07332304],64,44,hard,minus,dotcolour,beta,,,62,18,V,R,
154,28,28,3,1,27,53,880,['c'],0,right,['0'],6,569,[-0.08745315],3,53,easy,minus,dotcolour,beta,,,62,18,V,R,
155,29,29,3,1,33,47,1284,['c'],0,right,['0'],6,280,[0.01284754],19,47,medium,minus,dotcolour,beta,,,62,18,V,R,
156,30,30,3,1,27,53,982,['c'],0,right,['0'],6,286,[0.055538],50,53,easy,minus,dotcolour,beta,,,62,18,V,R,
157,31,31,3,1,47,33,582,['c'],1,left,['0'],6,317,[0.1563561],96,47,medium,minus,dotcolour,beta,,,62,18,V,R,
158,32,32,3,1,53,27,1030,['c'],1,left,['0'],6,224,[0.0928454],81,53,easy,minus,dotcolour,beta,,,62,18,V,R,
159,33,33,3,1,44,36,649,['c'],1,left,['2'],2,326,[0.16821317],97,44,hard,minus,dotcolour,beta,,,62,18,V,R,
160,34,34,3,1,53,27,1465,['c'],1,left,['2'],2,207,[0.05091485],45,53,easy,minus,dotcolour,beta,,,62,18,V,R,
161,35,35,3,1,47,33,633,['c'],1,left,['0'],6,231,[0.08488799],75,47,medium,minus,dotcolour,beta,,,62,18,V,R,
162,36,36,3,1,44,36,665,['c'],1,left,['0'],6,204,[0.00485306],12,44,hard,minus,dotcolour,beta,,,62,18,V,R,
163,37,37,3,1,36,44,282,['c'],0,right,['2'],2,138,[0.11621667],95,44,hard,minus,dotcolour,beta,,,62,18,V,R,
164,38,38,3,1,47,33,398,['c'],1,left,['0'],6,270,[0.08961535],76,47,medium,minus,dotcolour,beta,,,62,18,V,R,
165,39,39,3,1,44,36,547,['c'],1,left,['0'],6,351,[0.06356258],56,44,hard,minus,dotcolour,beta,,,62,18,V,R,
166,40,40,3,1,47,33,616,['c'],1,left,['0'],6,297,[0.14208665],95,47,medium,minus,dotcolour,beta,,,62,18,V,R,
167,41,41,3,1,27,53,382,['c'],0,right,['2'],2,927,[0.09636123],68,53,easy,minus,dotcolour,beta,,,62,18,V,R,
168,42,0,4,1,36,44,733,['c'],0,right,['9'],5,478,[0.04141232],41,44,hard,minus,dotcolour,beta,,,62,18,V,R,
169,43,1,4,1,53,27,1916,['c'],1,left,['0'],6,1240,[0.28923345],98,53,easy,minus,dotcolour,beta,,,62,18,V,R,
170,44,2,4,1,47,33,2165,['c'],1,left,['9'],5,896,[0.31858159],99,47,medium,minus,dotcolour,beta,,,62,18,V,R,
171,45,3,4,1,44,36,598,['c'],1,left,['0'],6,326,[-0.03660187],5,44,hard,minus,dotcolour,beta,,,62,18,V,R,
172,46,4,4,1,53,27,381,['c'],1,left,['9'],5,314,[0.09639128],79,53,easy,minus,dotcolour,beta,,,62,18,V,R,
173,47,5,4,1,47,33,189,['c'],1,left,['0'],6,367,[0.09156892],74,47,medium,minus,dotcolour,beta,,,62,18,V,R,
174,48,6,4,1,36,44,97,['c'],0,right,['0'],6,305,[0.08639411],73,44,hard,minus,dotcolour,beta,,,62,18,V,R,
175,49,7,4,1,27,53,2132,['c'],0,right,['2'],2,449,[0.04604339],44,53,easy,minus,dotcolour,beta,,,62,18,V,R,
176,50,8,4,1,33,47,447,['c'],0,right,['9'],5,479,[0.07502459],62,47,medium,minus,dotcolour,beta,,,62,18,V,R,
177,51,9,4,1,47,33,367,['c'],1,left,['9'],5,446,[0.17482551],96,47,medium,minus,dotcolour,beta,,,62,18,V,R,
178,52,10,4,1,33,47,533,['c'],0,right,['2'],2,153,[0.12642441],96,47,medium,minus,dotcolour,beta,,,62,18,V,R,
179,53,11,4,1,44,36,897,['c'],1,left,['9'],5,336,[0.13817088],93,44,hard,minus,dotcolour,beta,,,62,18,V,R,
180,54,12,4,1,53,27,931,['n'],0,left,['2'],2,781,[0.05178961],10,53,easy,minus,dotcolour,beta,,,62,18,V,R,
181,55,13,4,1,36,44,314,['c'],0,right,['9'],5,411,[-0.048771],5,44,hard,minus,dotcolour,beta,,,62,18,V,R,
182,56,14,4,1,44,36,681,['c'],1,left,['2'],2,296,[0.20507759],99,44,hard,minus,dotcolour,beta,,,62,18,V,R,
183,57,15,4,1,44,36,365,['n'],0,left,['9'],5,351,[-0.1085435],83,44,hard,minus,dotcolour,beta,,,62,18,V,R,
184,58,16,4,1,53,27,349,['c'],1,left,['2'],2,244,[0.12710621],93,53,easy,minus,dotcolour,beta,,,62,18,V,R,
185,59,17,4,1,27,53,314,['n'],1,right,['9'],5,295,[-0.13406065],93,53,easy,minus,dotcolour,beta,,,62,18,V,R,
186,60,18,4,1,33,47,300,['c'],0,right,['2'],2,168,[-0.03227264],2,47,medium,minus,dotcolour,beta,,,62,18,V,R,
187,61,19,4,1,47,33,315,['c'],1,left,['2'],2,190,[0.09421661],83,47,medium,minus,dotcolour,beta,,,62,18,V,R,
188,62,20,4,1,36,44,299,['n'],1,right,['9'],5,164,[-0.1171609],94,44,hard,minus,dotcolour,beta,,,62,18,V,R,
189,63,21,4,1,33,47,265,['c'],0,right,['2'],2,124,[0.01209117],10,47,medium,minus,dotcolour,beta,,,62,18,V,R,
190,64,22,4,1,33,47,315,['n'],1,right,['9'],5,189,[-0.06402273],59,47,medium,minus,dotcolour,beta,,,62,18,V,R,
191,65,23,4,1,53,27,382,['c'],1,left,['2'],2,150,[0.10829131],92,53,easy,minus,dotcolour,beta,,,62,18,V,R,
192,66,24,4,1,36,44,350,['n'],1,right,['9'],5,371,[-0.15797895],95,44,hard,minus,dotcolour,beta,,,62,18,V,R,
193,67,25,4,1,27,53,349,['c'],0,right,['2'],2,344,[-0.00729572],13,53,easy,minus,dotcolour,beta,,,62,18,V,R,
194,68,26,4,1,27,53,316,['n'],1,right,['9'],5,239,[-0.06287616],57,53,easy,minus,dotcolour,beta,,,62,18,V,R,
195,69,27,4,1,33,47,94,['c'],0,right,['2'],2,86,[0.02500621],13,47,medium,minus,dotcolour,beta,,,62,18,V,R,
196,70,28,4,1,44,36,231,['n'],0,left,['9'],5,235,[-0.02911613],27,44,hard,minus,dotcolour,beta,,,62,18,V,R,
197,71,29,4,1,44,36,1932,['n'],0,left,['9'],5,430,[0.01145598],14,44,hard,minus,dotcolour,beta,,,62,18,V,R,
198,72,30,4,1,47,33,351,['c'],1,left,['2'],2,551,[0.07582689],62,47,medium,minus,dotcolour,beta,,,62,18,V,R,
199,73,31,4,1,27,53,514,['n'],1,right,['9'],5,437,[0.10313902],1,53,easy,minus,dotcolour,beta,,,62,18,V,R,
200,74,32,4,1,47,33,516,['c'],1,left,['2'],2,464,[0.08639365],69,47,medium,minus,dotcolour,beta,,,62,18,V,R,
201,75,33,4,1,47,33,350,['n'],0,left,['9'],5,465,[0.01376611],14,47,medium,minus,dotcolour,beta,,,62,18,V,R,
202,76,34,4,1,27,53,749,['c'],0,right,['2'],2,273,[-0.00855567],10,53,easy,minus,dotcolour,beta,,,62,18,V,R,
203,77,35,4,1,27,53,430,['n'],1,right,['9'],5,406,[-0.1526038],94,53,easy,minus,dotcolour,beta,,,62,18,V,R,
204,78,36,4,1,36,44,532,['c'],0,right,['2'],2,297,[0.02392037],26,44,hard,minus,dotcolour,beta,,,62,18,V,R,
205,79,37,4,1,44,36,433,['n'],0,left,['9'],5,165,[-0.04210835],36,44,hard,minus,dotcolour,beta,,,62,18,V,R,
206,80,38,4,1,53,27,267,['c'],1,left,['2'],2,142,[0.14598925],99,53,easy,minus,dotcolour,beta,,,62,18,V,R,
207,81,39,4,1,36,44,315,['n'],1,right,['9'],5,196,[-0.06588601],60,44,hard,minus,dotcolour,beta,,,62,18,V,R,
208,82,40,4,1,53,27,381,['c'],1,left,['2'],2,182,[0.14074198],97,53,easy,minus,dotcolour,beta,,,62,18,V,R,
209,83,41,4,1,33,47,482,['c'],0,right,['9'],5,341,[-0.04989937],4,47,medium,minus,dotcolour,beta,,,62,18,V,R,
210,84,0,5,1,47,33,350,['c'],1,left,['9'],5,255,[0.08100949],71,47,medium,minus,dotcolour,beta,,,62,18,V,R,
211,85,1,5,1,53,27,215,['c'],1,left,['2'],2,278,[0.21099951],100,53,easy,minus,dotcolour,beta,,,62,18,V,R,
212,86,2,5,1,33,47,297,['c'],0,right,['9'],5,264,[0.06363449],57,47,medium,minus,dotcolour,beta,,,62,18,V,R,
213,87,3,5,1,33,47,349,['c'],0,right,['2'],2,185,[0.11647709],93,47,medium,minus,dotcolour,beta,,,62,18,V,R,
214,88,4,5,1,36,44,1580,['c'],0,right,['9'],5,1107,[0.05317399],49,44,hard,minus,dotcolour,beta,,,62,18,V,R,
215,89,5,5,1,36,44,433,['c'],0,right,['9'],5,502,[-0.00295839],18,44,hard,minus,dotcolour,beta,,,62,18,V,R,
216,90,6,5,1,53,27,299,['n'],0,left,['2'],2,247,[-0.02740179],27,53,easy,minus,dotcolour,beta,,,62,18,V,R,
217,91,7,5,1,53,27,331,['c'],1,left,['9'],5,306,[0.23248932],100,53,easy,minus,dotcolour,beta,,,62,18,V,R,
218,92,8,5,1,44,36,332,['c'],1,left,['9'],5,305,[0.22772988],100,44,hard,minus,dotcolour,beta,,,62,18,V,R,
219,93,9,5,1,44,36,383,['c'],1,left,['2'],2,190,[0.03032051],26,44,hard,minus,dotcolour,beta,,,62,18,V,R,
220,94,10,5,1,33,47,315,['n'],1,right,['9'],5,219,[-0.13288706],95,47,medium,minus,dotcolour,beta,,,62,18,V,R,
221,95,11,5,1,47,33,433,['c'],1,left,['2'],2,291,[0.09533421],79,47,medium,minus,dotcolour,beta,,,62,18,V,R,
222,96,12,5,1,33,47,499,['c'],0,right,['2'],2,364,[0.07746447],66,47,medium,minus,dotcolour,beta,,,62,18,V,R,
223,97,13,5,1,27,53,797,['n'],1,right,['9'],5,318,[-0.17969599],98,53,easy,minus,dotcolour,beta,,,62,18,V,R,
224,98,14,5,1,44,36,333,['c'],1,left,['2'],2,230,[0.08625693],76,44,hard,minus,dotcolour,beta,,,62,18,V,R,
225,99,15,5,1,47,33,1199,['c'],1,left,['9'],5,262,[0.0592068],53,47,medium,minus,dotcolour,beta,,,62,18,V,R,
226,100,16,5,1,53,27,347,['c'],1,left,['2'],2,223,[0.13153261],95,53,easy,minus,dotcolour,beta,,,62,18,V,R,
227,101,17,5,1,33,47,1732,['c'],0,right,['9'],5,417,[0.01331343],24,47,medium,minus,dotcolour,beta,,,62,18,V,R,
228,102,18,5,1,36,44,4083,['c'],0,right,['9'],5,255,[0.01525607],19,44,hard,minus,dotcolour,beta,,,62,18,V,R,
229,103,19,5,1,47,33,1016,['c'],1,left,['2'],2,349,[0.01435886],22,47,medium,minus,dotcolour,beta,,,62,18,V,R,
230,104,20,5,1,27,53,2149,['c'],0,right,['2'],2,131,[0.10106087],91,53,easy,minus,dotcolour,beta,,,62,18,V,R,
231,105,21,5,1,36,44,381,['c'],0,right,['9'],5,311,[0.08967127],75,44,hard,minus,dotcolour,beta,,,62,18,V,R,
232,106,22,5,1,27,53,432,['c'],0,right,['2'],2,219,[-0.01473623],6,53,easy,minus,dotcolour,beta,,,62,18,V,R,
233,107,23,5,1,44,36,447,['c'],1,left,['9'],5,369,[0.05402334],49,44,hard,minus,dotcolour,beta,,,62,18,V,R,
234,108,24,5,1,47,33,931,['c'],1,left,['2'],2,359,[0.07491723],64,47,medium,minus,dotcolour,beta,,,62,18,V,R,
235,109,25,5,1,33,47,400,['c'],0,right,['9'],5,329,[-0.11291776],1,47,medium,minus,dotcolour,beta,,,62,18,V,R,
236,110,26,5,1,47,33,300,['c'],1,left,['2'],2,137,[0.06143263],57,47,medium,minus,dotcolour,beta,,,62,18,V,R,
237,111,27,5,1,44,36,300,['c'],1,left,['2'],2,138,[0.08832197],83,44,hard,minus,dotcolour,beta,,,62,18,V,R,
238,112,28,5,1,53,27,448,['c'],1,left,['9'],5,323,[0.11883321],88,53,easy,minus,dotcolour,beta,,,62,18,V,R,
239,113,29,5,1,44,36,366,['c'],1,left,['2'],2,193,[0.08739897],79,44,hard,minus,dotcolour,beta,,,62,18,V,R,
240,114,30,5,1,27,53,349,['c'],0,right,['9'],5,396,[0.05040593],46,53,easy,minus,dotcolour,beta,,,62,18,V,R,
241,115,31,5,1,47,33,314,['c'],1,left,['2'],2,217,[0.07144583],65,47,medium,minus,dotcolour,beta,,,62,18,V,R,
242,116,32,5,1,27,53,450,['c'],0,right,['9'],5,415,[-0.0075447],15,53,easy,minus,dotcolour,beta,,,62,18,V,R,
243,117,33,5,1,33,47,382,['c'],0,right,['2'],2,441,[-0.08058381],2,47,medium,minus,dotcolour,beta,,,62,18,V,R,
244,118,34,5,1,27,53,264,['c'],0,right,['9'],5,325,[-0.06782829],2,53,easy,minus,dotcolour,beta,,,62,18,V,R,
245,119,35,5,1,27,53,315,['c'],0,right,['2'],2,284,[0.0128418],19,53,easy,minus,dotcolour,beta,,,62,18,V,R,
246,120,36,5,1,36,44,731,['n'],1,right,['9'],5,302,[-0.11622372],88,44,hard,minus,dotcolour,beta,,,62,18,V,R,
247,121,37,5,1,36,44,698,['c'],0,right,['9'],5,287,[0.01557471],21,44,hard,minus,dotcolour,beta,,,62,18,V,R,
248,122,38,5,1,53,27,997,['c'],1,left,['9'],5,373,[0.14940637],94,53,easy,minus,dotcolour,beta,,,62,18,V,R,
249,123,39,5,1,44,36,783,['c'],1,left,['9'],5,215,[0.11143611],90,44,hard,minus,dotcolour,beta,,,62,18,V,R,
250,124,40,5,1,36,44,350,['c'],0,right,['9'],5,298,[0.08793674],74,44,hard,minus,dotcolour,beta,,,62,18,V,R,
251,125,41,5,1,53,27,62,['n'],0,left,['2'],2,288,[-0.07880475],69,53,easy,minus,dotcolour,beta,,,62,18,V,R,
252,0,0,6,2,33,47,433,['n'],1,right,['9'],5,495,[-0.04975791],94,47,medium,plus,dotcolour,beta,,,62,18,V,R,
253,1,1,6,2,27,53,315,['c'],0,right,['9'],5,232,[0.02565525],95,53,easy,plus,dotcolour,beta,,,62,18,V,R,
254,2,2,6,2,53,27,416,['c'],1,left,['9'],5,183,[0.10125039],100,53,easy,plus,dotcolour,beta,,,62,18,V,R,
255,3,3,6,2,33,47,350,['c'],0,right,['9'],5,171,[0.01484032],96,47,medium,plus,dotcolour,beta,,,62,18,V,R,
256,4,4,6,2,53,27,516,['c'],1,left,['9'],5,185,[0.08383161],100,53,easy,plus,dotcolour,beta,,,62,18,V,R,
257,5,5,6,2,36,44,616,['c'],0,right,['9'],5,211,[0.06833715],99,44,hard,plus,dotcolour,beta,,,62,18,V,R,
258,6,6,6,2,47,33,533,['c'],1,left,['9'],5,230,[0.11056923],100,47,medium,plus,dotcolour,beta,,,62,18,V,R,
259,7,7,6,2,47,33,431,['c'],1,left,['9'],5,476,[0.13454003],99,47,medium,plus,dotcolour,beta,,,62,18,V,R,
260,8,8,6,2,44,36,316,['n'],0,left,['2'],2,398,[-0.14797297],100,44,hard,plus,dotcolour,beta,,,62,18,V,R,
261,9,9,6,2,36,44,434,['c'],0,right,['9'],5,342,[0.07157157],98,44,hard,plus,dotcolour,beta,,,62,18,V,R,
262,10,10,6,2,53,27,800,['c'],1,left,['9'],5,265,[0.14661855],100,53,easy,plus,dotcolour,beta,,,62,18,V,R,
263,11,11,6,2,33,47,315,['n'],1,right,['2'],2,195,[-0.10949046],100,47,medium,plus,dotcolour,beta,,,62,18,V,R,
264,12,12,6,2,27,53,299,['c'],0,right,['2'],2,240,[0.1586791],100,53,easy,plus,dotcolour,beta,,,62,18,V,R,
265,13,13,6,2,53,27,299,['c'],1,left,['9'],5,260,[0.08545373],99,53,easy,plus,dotcolour,beta,,,62,18,V,R,
266,14,14,6,2,44,36,299,['c'],1,left,['2'],2,142,[0.13678603],100,44,hard,plus,dotcolour,beta,,,62,18,V,R,
267,15,15,6,2,53,27,283,['c'],1,left,['9'],5,311,[0.13457314],100,53,easy,plus,dotcolour,beta,,,62,18,V,R,
268,16,16,6,2,44,36,331,['n'],0,left,['2'],2,230,[-0.11412697],100,44,hard,plus,dotcolour,beta,,,62,18,V,R,
269,17,17,6,2,33,47,282,['c'],0,right,['9'],5,250,[0.04361217],97,47,medium,plus,dotcolour,beta,,,62,18,V,R,
270,18,18,6,2,36,44,137,['n'],1,right,['2'],2,258,[-0.16521498],100,44,hard,plus,dotcolour,beta,,,62,18,V,R,
271,19,19,6,2,47,33,192,['c'],1,left,['9'],5,312,[0.08454845],99,47,medium,plus,dotcolour,beta,,,62,18,V,R,
272,20,20,6,2,27,53,280,['c'],0,right,['2'],2,178,[0.00932917],94,53,easy,plus,dotcolour,beta,,,62,18,V,R,
273,21,21,6,2,47,33,298,['c'],1,left,['9'],5,328,[0.07488019],98,47,medium,plus,dotcolour,beta,,,62,18,V,R,
274,22,22,6,2,47,33,249,['n'],0,left,['2'],2,242,[-0.12422205],100,47,medium,plus,dotcolour,beta,,,62,18,V,R,
275,23,23,6,2,27,53,72,['c'],0,right,['9'],5,345,[0.04202769],95,53,easy,plus,dotcolour,beta,,,62,18,V,R,
276,24,24,6,2,36,44,231,['c'],0,right,['2'],2,267,[0.00444701],89,44,hard,plus,dotcolour,beta,,,62,18,V,R,
277,25,25,6,2,44,36,317,['n'],0,left,['9'],5,205,[-0.07938386],100,44,hard,plus,dotcolour,beta,,,62,18,V,R,
278,26,26,6,2,33,47,365,['c'],0,right,['2'],2,207,[0.00720978],92,47,medium,plus,dotcolour,beta,,,62,18,V,R,
279,27,27,6,2,36,44,698,['c'],0,right,['9'],5,324,[-0.09836545],21,44,hard,plus,dotcolour,beta,,,62,18,V,R,
280,28,28,6,2,53,27,333,['c'],1,left,['2'],2,115,[0.08237739],100,53,easy,plus,dotcolour,beta,,,62,18,V,R,
281,29,29,6,2,36,44,332,['n'],1,right,['2'],2,219,[-0.00334933],91,44,hard,plus,dotcolour,beta,,,62,18,V,R,
282,30,30,6,2,47,33,316,['c'],1,left,['9'],5,198,[0.07600529],100,47,medium,plus,dotcolour,beta,,,62,18,V,R,
283,31,31,6,2,44,36,282,['n'],0,left,['2'],2,189,[-0.14025399],100,44,hard,plus,dotcolour,beta,,,62,18,V,R,
284,32,32,6,2,36,44,698,['c'],0,right,['9'],5,362,[0.05644169],97,44,hard,plus,dotcolour,beta,,,62,18,V,R,
285,33,33,6,2,33,47,347,['c'],0,right,['9'],5,279,[0.07103897],99,47,medium,plus,dotcolour,beta,,,62,18,V,R,
286,34,34,6,2,44,36,267,['n'],0,left,['2'],2,322,[-0.06282813],98,44,hard,plus,dotcolour,beta,,,62,18,V,R,
287,35,35,6,2,53,27,484,['c'],1,left,['2'],2,876,[0.02973288],84,53,easy,plus,dotcolour,beta,,,62,18,V,R,
288,36,36,6,2,47,33,122,['c'],1,left,['9'],5,4434,[0.6433898],100,47,medium,plus,dotcolour,beta,,,62,18,V,R,
289,37,37,6,2,27,53,248,['c'],0,right,['2'],2,167,[0.07260367],100,53,easy,plus,dotcolour,beta,,,62,18,V,R,
290,38,38,6,2,33,47,348,['n'],1,right,['9'],5,363,[-0.11339204],99,47,medium,plus,dotcolour,beta,,,62,18,V,R,
291,39,39,6,2,27,53,514,['c'],0,right,['2'],2,129,[0.10799437],100,53,easy,plus,dotcolour,beta,,,62,18,V,R,
292,40,40,6,2,44,36,349,['n'],0,left,['2'],2,175,[-0.06076637],99,44,hard,plus,dotcolour,beta,,,62,18,V,R,
293,41,41,6,2,27,53,348,['c'],0,right,['2'],2,267,[-0.02485326],74,53,easy,plus,dotcolour,beta,,,62,18,V,R,
294,42,0,7,2,33,47,1750,['c'],0,right,['8'],4,343,[0.042055],95,47,medium,plus,dotcolour,beta,,,62,18,V,R,
295,43,1,7,2,33,47,1015,['c'],0,right,['2'],2,418,[0.00227589],83,47,medium,plus,dotcolour,beta,,,62,18,V,R,
296,44,2,7,2,47,33,266,['c'],1,left,['2'],2,591,[0.09336839],97,47,medium,plus,dotcolour,beta,,,62,18,V,R,
297,45,3,7,2,53,27,383,['c'],1,left,['9'],5,353,[0.05937367],97,53,easy,plus,dotcolour,beta,,,62,18,V,R,
298,46,4,7,2,33,47,299,['c'],0,right,['0'],6,160,[0.06552428],100,47,medium,plus,dotcolour,beta,,,62,18,V,R,
299,47,5,7,2,33,47,400,['c'],0,right,['0'],6,243,[-0.00627951],86,47,medium,plus,dotcolour,beta,,,62,18,V,R,
300,48,6,7,2,27,53,154,['c'],0,right,['9'],5,242,[0.12411497],100,53,easy,plus,dotcolour,beta,,,62,18,V,R,
301,49,7,7,2,53,27,415,['c'],1,left,['0'],6,225,[0.07166003],99,53,easy,plus,dotcolour,beta,,,62,18,V,R,
302,50,8,7,2,53,27,315,['c'],1,left,['0'],6,484,[0.18579053],100,53,easy,plus,dotcolour,beta,,,62,18,V,R,
303,51,9,7,2,44,36,799,['n'],0,left,['3'],3,394,[0.03154634],67,44,hard,plus,dotcolour,beta,,,62,18,V,R,
304,52,10,7,2,44,36,365,['c'],1,left,['2'],2,173,[0.09426128],100,44,hard,plus,dotcolour,beta,,,62,18,V,R,
305,53,11,7,2,27,53,264,['c'],0,right,['0'],6,332,[0.01702574],91,53,easy,plus,dotcolour,beta,,,62,18,V,R,
306,54,12,7,2,27,53,299,['c'],0,right,['2'],2,292,[-0.06832659],40,53,easy,plus,dotcolour,beta,,,62,18,V,R,
307,55,13,7,2,53,27,298,['c'],1,left,['0'],6,173,[0.16573055],100,53,easy,plus,dotcolour,beta,,,62,18,V,R,
308,56,14,7,2,36,44,264,['c'],0,right,['8'],4,405,[-0.05728121],49,44,hard,plus,dotcolour,beta,,,62,18,V,R,
309,57,15,7,2,44,36,333,['c'],1,left,['2'],2,183,[0.13369278],100,44,hard,plus,dotcolour,beta,,,62,18,V,R,
310,58,16,7,2,47,33,400,['c'],1,left,['3'],3,250,[0.06852601],99,47,medium,plus,dotcolour,beta,,,62,18,V,R,
311,59,17,7,2,44,36,200,['c'],1,left,['9'],5,321,[-0.03146127],68,44,hard,plus,dotcolour,beta,,,62,18,V,R,
312,60,18,7,2,36,44,382,['c'],0,right,['2'],2,190,[0.08408341],100,44,hard,plus,dotcolour,beta,,,62,18,V,R,
313,61,19,7,2,36,44,417,['c'],0,right,['9'],5,263,[-0.03076886],70,44,hard,plus,dotcolour,beta,,,62,18,V,R,
314,62,20,7,2,36,44,684,['c'],0,right,['2'],2,171,[-0.0082144],89,44,hard,plus,dotcolour,beta,,,62,18,V,R,
315,63,21,7,2,44,36,333,['c'],1,left,['9'],5,247,[0.17477371],100,44,hard,plus,dotcolour,beta,,,62,18,V,R,
316,64,22,7,2,44,36,282,['c'],1,left,['2'],2,211,[0.09814424],100,44,hard,plus,dotcolour,beta,,,62,18,V,R,
317,65,23,7,2,27,53,283,['c'],0,right,['9'],5,328,[-0.05705887],49,53,easy,plus,dotcolour,beta,,,62,18,V,R,
318,66,24,7,2,33,47,400,['c'],0,right,['2'],2,148,[0.10970306],100,47,medium,plus,dotcolour,beta,,,62,18,V,R,
319,67,25,7,2,33,47,299,['c'],0,right,['2'],2,116,[0.04050278],99,47,medium,plus,dotcolour,beta,,,62,18,V,R,
320,68,26,7,2,47,33,265,['c'],1,left,['2'],2,190,[0.11931247],100,47,medium,plus,dotcolour,beta,,,62,18,V,R,
321,69,27,7,2,47,33,283,['c'],1,left,['2'],2,92,[0.07855168],100,47,medium,plus,dotcolour,beta,,,62,18,V,R,
322,70,28,7,2,53,27,282,['c'],1,left,['9'],5,198,[0.09583911],100,53,easy,plus,dotcolour,beta,,,62,18,V,R,
323,71,29,7,2,53,27,334,['n'],0,left,['1'],1,282,[0.00565171],84,53,easy,plus,dotcolour,beta,,,62,18,V,R,
324,72,30,7,2,53,27,317,['c'],1,left,['0'],6,284,[0.11535704],100,53,easy,plus,dotcolour,beta,,,62,18,V,R,
325,73,31,7,2,47,33,715,['n'],0,left,['0'],6,4581,[0.23165478],19,47,medium,plus,dotcolour,beta,,,62,18,V,R,
326,74,32,7,2,27,53,158,['c'],0,right,['0'],6,310,[-0.03993357],62,53,easy,plus,dotcolour,beta,,,62,18,V,R,
327,75,33,7,2,36,44,120,['c'],0,right,['0'],6,411,[-0.02446954],71,44,hard,plus,dotcolour,beta,,,62,18,V,R,
328,76,34,7,2,33,47,1548,['c'],0,right,['0'],6,3397,[-0.12912768],33,47,medium,plus,dotcolour,beta,,,62,18,V,R,
329,77,35,7,2,44,36,331,['c'],1,left,['0'],6,296,[0.0960071],99,44,hard,plus,dotcolour,beta,,,62,18,V,R,
330,78,36,7,2,47,33,348,['c'],1,left,['2'],2,119,[0.07212762],100,47,medium,plus,dotcolour,beta,,,62,18,V,R,
331,79,37,7,2,36,44,19,['n'],1,right,['0'],6,67,[-0.03590907],100,44,hard,plus,dotcolour,beta,,,62,18,V,R,
332,80,38,7,2,47,33,1632,['n'],0,left,['0'],6,568,[-0.08900336],97,47,medium,plus,dotcolour,beta,,,62,18,V,R,
333,81,39,7,2,27,53,1514,['n'],1,right,['9'],5,2086,[-0.10894807],89,53,easy,plus,dotcolour,beta,,,62,18,V,R,
334,82,40,7,2,36,44,398,['c'],0,right,['2'],2,139,[0.03084721],98,44,hard,plus,dotcolour,beta,,,62,18,V,R,
335,83,41,7,2,27,53,47,['n'],1,right,['0'],6,151,[-0.01676237],97,53,easy,plus,dotcolour,beta,,,62,18,V,R,
336,84,0,8,2,27,53,567,['n'],1,right,['0'],6,96,[-0.05258681],100,53,easy,plus,dotcolour,beta,,,62,18,V,R,
337,85,1,8,2,47,33,283,['c'],1,left,['3'],3,154,[0.07397819],100,47,medium,plus,dotcolour,beta,,,62,18,V,R,
338,86,2,8,2,53,27,365,['n'],0,left,['9'],5,271,[-0.03060069],95,53,easy,plus,dotcolour,beta,,,62,18,V,R,
339,87,3,8,2,47,33,316,['c'],1,left,['1'],1,376,[0.1487165],100,47,medium,plus,dotcolour,beta,,,62,18,V,R,
340,88,4,8,2,44,36,1098,['n'],0,left,['0'],6,382,[-0.01085979],87,44,hard,plus,dotcolour,beta,,,62,18,V,R,
341,89,5,8,2,36,44,316,['c'],0,right,['0'],6,428,[0.00221555],83,44,hard,plus,dotcolour,beta,,,62,18,V,R,
342,90,6,8,2,27,53,914,['c'],0,right,['2'],2,199,[0.05324241],99,53,easy,plus,dotcolour,beta,,,62,18,V,R,
343,91,7,8,2,47,33,499,['c'],1,left,['2'],2,452,[-0.0184346],73,47,medium,plus,dotcolour,beta,,,62,18,V,R,
344,92,8,8,2,33,47,1432,['n'],1,right,['0'],6,322,[-0.05240603],97,47,medium,plus,dotcolour,beta,,,62,18,V,R,
345,93,9,8,2,44,36,448,['c'],1,left,['2'],2,316,[0.06057409],98,44,hard,plus,dotcolour,beta,,,62,18,V,R,
346,94,10,8,2,44,36,381,['c'],1,left,['2'],2,90,[0.07996824],100,44,hard,plus,dotcolour,beta,,,62,18,V,R,
347,95,11,8,2,53,27,216,['n'],0,left,['0'],6,135,[-0.04180065],99,53,easy,plus,dotcolour,beta,,,62,18,V,R,
348,96,12,8,2,27,53,298,['c'],0,right,['2'],2,79,[0.03340028],100,53,easy,plus,dotcolour,beta,,,62,18,V,R,
349,97,13,8,2,53,27,266,['c'],1,left,['2'],2,130,[0.08233457],100,53,easy,plus,dotcolour,beta,,,62,18,V,R,
350,98,14,8,2,47,33,315,['c'],1,left,['0'],6,265,[0.05321055],98,47,medium,plus,dotcolour,beta,,,62,18,V,R,
351,99,15,8,2,33,47,298,['c'],0,right,['3'],3,236,[0.15946894],100,47,medium,plus,dotcolour,beta,,,62,18,V,R,
352,100,16,8,2,33,47,1932,['c'],0,right,['3'],3,623,[0.05606374],93,47,medium,plus,dotcolour,beta,,,62,18,V,R,
353,101,17,8,2,53,27,615,['c'],1,left,['3'],3,486,[0.12924393],99,53,easy,plus,dotcolour,beta,,,62,18,V,R,
354,102,18,8,2,36,44,299,['c'],0,right,['9'],5,216,[-0.02845531],74,44,hard,plus,dotcolour,beta,,,62,18,V,R,
355,103,19,8,2,36,44,2315,['c'],0,right,['3'],3,436,[0.03281806],92,44,hard,plus,dotcolour,beta,,,62,18,V,R,
356,104,20,8,2,47,33,315,['c'],1,left,['0'],6,223,[0.1346081],100,47,medium,plus,dotcolour,beta,,,62,18,V,R,
357,105,21,8,2,36,44,232,['c'],0,right,['3'],3,198,[0.04841418],99,44,hard,plus,dotcolour,beta,,,62,18,V,R,
358,106,22,8,2,53,27,449,['c'],1,left,['9'],5,277,[0.15246073],100,53,easy,plus,dotcolour,beta,,,62,18,V,R,
359,107,23,8,2,44,36,366,['c'],1,left,['9'],5,285,[0.05683884],98,44,hard,plus,dotcolour,beta,,,62,18,V,R,
360,108,24,8,2,27,53,483,['c'],0,right,['9'],5,255,[0.12482801],100,53,easy,plus,dotcolour,beta,,,62,18,V,R,
361,109,25,8,2,36,44,267,['c'],0,right,['0'],6,172,[0.07383215],100,44,hard,plus,dotcolour,beta,,,62,18,V,R,
362,110,26,8,2,44,36,266,['c'],1,left,['0'],6,187,[0.05039624],99,44,hard,plus,dotcolour,beta,,,62,18,V,R,
363,111,27,8,2,53,27,417,['c'],1,left,['0'],6,213,[0.12353709],100,53,easy,plus,dotcolour,beta,,,62,18,V,R,
364,112,28,8,2,47,33,214,['c'],1,left,['0'],6,141,[0.08884541],100,47,medium,plus,dotcolour,beta,,,62,18,V,R,
365,113,29,8,2,47,33,248,['c'],1,left,['0'],6,223,[0.14396643],100,47,medium,plus,dotcolour,beta,,,62,18,V,R,
366,114,30,8,2,27,53,316,['c'],0,right,['0'],6,219,[0.12899916],100,53,easy,plus,dotcolour,beta,,,62,18,V,R,
367,115,31,8,2,36,44,300,['c'],0,right,['3'],3,199,[0.082947],100,44,hard,plus,dotcolour,beta,,,62,18,V,R,
368,116,32,8,2,33,47,78,['c'],0,right,['9'],5,288,[-0.03359386],68,47,medium,plus,dotcolour,beta,,,62,18,V,R,
369,117,33,8,2,44,36,214,['c'],1,left,['3'],3,165,[0.03588571],98,44,hard,plus,dotcolour,beta,,,62,18,V,R,
370,118,34,8,2,36,44,17,['c'],0,right,['9'],5,247,[0.05349694],98,44,hard,plus,dotcolour,beta,,,62,18,V,R,
371,119,35,8,2,53,27,467,['c'],1,left,['9'],5,292,[0.09644598],99,53,easy,plus,dotcolour,beta,,,62,18,V,R,
372,120,36,8,2,27,53,316,['c'],0,right,['9'],5,157,[0.09134294],100,53,easy,plus,dotcolour,beta,,,62,18,V,R,
373,121,37,8,2,33,47,316,['c'],0,right,['9'],5,315,[0.00831398],89,47,medium,plus,dotcolour,beta,,,62,18,V,R,
374,122,38,8,2,27,53,118,['c'],0,right,['3'],3,295,[0.07540971],99,53,easy,plus,dotcolour,beta,,,62,18,V,R,
375,123,39,8,2,44,36,349,['n'],0,left,['9'],5,304,[-0.09254048],99,44,hard,plus,dotcolour,beta,,,62,18,V,R,
376,124,40,8,2,33,47,432,['c'],0,right,['2'],2,259,[0.01582351],93,47,medium,plus,dotcolour,beta,,,62,18,V,R,
377,125,41,8,2,33,47,1515,['c'],0,right,['3'],3,965,[-0.12473007],22,47,medium,plus,dotcolour,beta,,,62,18,V,R,
378,0,0,9,3,27,53,2667,['c'],0,right,['2'],2,263,[0.04046734],37,53,easy,minus,dotcolour,beta,,,62,18,V,R,
379,1,1,9,3,47,33,332,['c'],1,left,['2'],2,281,[0.16810502],98,47,medium,minus,dotcolour,beta,,,62,18,V,R,
380,2,2,9,3,44,36,232,['c'],1,left,['2'],2,469,[0.0803754],66,44,hard,minus,dotcolour,beta,,,62,18,V,R,
381,3,3,9,3,27,53,1548,['c'],0,right,['2'],2,438,[0.05087969],47,53,easy,minus,dotcolour,beta,,,62,18,V,R,
382,4,4,9,3,47,33,117,['n'],0,left,['9'],5,285,[-0.12855664],92,47,medium,minus,dotcolour,beta,,,62,18,V,R,
383,5,5,9,3,36,44,2632,['c'],0,right,['9'],5,665,[0.05539714],50,44,hard,minus,dotcolour,beta,,,62,18,V,R,
384,6,6,9,3,44,36,40,['c'],1,left,['9'],5,128,[0.08004071],77,44,hard,minus,dotcolour,beta,,,62,18,V,R,
385,7,7,9,3,53,27,2481,['c'],1,left,['0'],6,617,[0.22664931],98,53,easy,minus,dotcolour,beta,,,62,18,V,R,
386,8,8,9,3,53,27,2433,['c'],1,left,['0'],6,376,[0.15783308],95,53,easy,minus,dotcolour,beta,,,62,18,V,R,
387,9,9,9,3,53,27,483,['n'],0,left,['0'],6,391,[-0.10849892],82,53,easy,minus,dotcolour,beta,,,62,18,V,R,
388,10,10,9,3,33,47,281,['c'],0,right,['9'],5,308,[-0.00066278],14,47,medium,minus,dotcolour,beta,,,62,18,V,R,
389,11,11,9,3,44,36,333,['c'],1,left,['9'],5,372,[0.04430791],42,44,hard,minus,dotcolour,beta,,,62,18,V,R,
390,12,12,9,3,44,36,682,['c'],1,left,['0'],6,4163,[0.33867526],92,44,hard,minus,dotcolour,beta,,,62,18,V,R,
391,13,13,9,3,36,44,565,['c'],0,right,['0'],6,262,[0.04051509],37,44,hard,minus,dotcolour,beta,,,62,18,V,R,
392,14,14,9,3,44,36,164,['c'],1,left,['0'],6,268,[-0.02601711],6,44,hard,minus,dotcolour,beta,,,62,18,V,R,
393,15,15,9,3,36,44,1615,['c'],0,right,['0'],6,691,[0.1169441],79,44,hard,minus,dotcolour,beta,,,62,18,V,R,
394,16,16,9,3,47,33,299,['c'],1,left,['0'],6,140,[0.14334446],99,47,medium,minus,dotcolour,beta,,,62,18,V,R,
395,17,17,9,3,36,44,144,['c'],0,right,['9'],5,280,[0.01695662],21,44,hard,minus,dotcolour,beta,,,62,18,V,R,
396,18,18,9,3,27,53,2215,['c'],0,right,['0'],6,293,[0.0415224],39,53,easy,minus,dotcolour,beta,,,62,18,V,R,
397,19,19,9,3,33,47,464,['c'],0,right,['2'],2,168,[0.04069486],34,47,medium,minus,dotcolour,beta,,,62,18,V,R,
398,20,20,9,3,27,53,231,['c'],0,right,['0'],6,177,[0.0983845],86,53,easy,minus,dotcolour,beta,,,62,18,V,R,
399,21,21,9,3,27,53,266,['n'],1,right,['2'],2,280,[-0.06718662],60,53,easy,minus,dotcolour,beta,,,62,18,V,R,
400,22,22,9,3,47,33,2184,['n'],0,left,['2'],2,351,[-0.06951217],60,47,medium,minus,dotcolour,beta,,,62,18,V,R,
401,23,23,9,3,33,47,1481,['c'],0,right,['0'],6,295,[0.06564855],58,47,medium,minus,dotcolour,beta,,,62,18,V,R,
402,24,24,9,3,53,27,400,['c'],1,left,['2'],2,116,[0.10908832],94,53,easy,minus,dotcolour,beta,,,62,18,V,R,
403,25,25,9,3,36,44,18,['c'],0,right,['0'],6,153,[0.00681304],10,44,hard,minus,dotcolour,beta,,,62,18,V,R,
404,26,26,9,3,33,47,616,['c'],0,right,['0'],6,355,[0.03570404],35,47,medium,minus,dotcolour,beta,,,62,18,V,R,
405,27,27,9,3,53,27,249,['c'],1,left,['0'],6,220,[0.09927178],84,53,easy,minus,dotcolour,beta,,,62,18,V,R,
406,28,28,9,3,33,47,416,['n'],1,right,['2'],2,109,[-0.09333762],89,47,medium,minus,dotcolour,beta,,,62,18,V,R,
407,29,29,9,3,36,44,232,['c'],0,right,['0'],6,320,[0.01615629],22,44,hard,minus,dotcolour,beta,,,62,18,V,R,
408,30,30,9,3,36,44,750,['n'],1,right,['2'],2,694,[0.00343499],22,44,hard,minus,dotcolour,beta,,,62,18,V,R,
409,31,31,9,3,53,27,464,['c'],1,left,['2'],2,417,[0.15004639],93,53,easy,minus,dotcolour,beta,,,62,18,V,R,
410,32,32,9,3,44,36,332,['c'],1,left,['0'],6,284,[0.10094603],82,44,hard,minus,dotcolour,beta,,,62,18,V,R,
411,33,33,9,3,33,47,382,['c'],0,right,['2'],2,170,[0.04538022],39,47,medium,minus,dotcolour,beta,,,62,18,V,R,
412,34,34,9,3,53,27,331,['c'],1,left,['0'],6,327,[0.17616798],98,53,easy,minus,dotcolour,beta,,,62,18,V,R,
413,35,35,9,3,27,53,74,['c'],0,right,['2'],2,284,[-0.05495027],2,53,easy,minus,dotcolour,beta,,,62,18,V,R,
414,36,36,9,3,33,47,2283,['c'],0,right,['2'],2,478,[-0.00708946],16,47,medium,minus,dotcolour,beta,,,62,18,V,R,
415,37,37,9,3,47,33,249,['c'],1,left,['0'],6,290,[0.06123649],55,47,medium,minus,dotcolour,beta,,,62,18,V,R,
416,38,38,9,3,27,53,3683,['c'],0,right,['0'],6,452,[-0.06141622],4,53,easy,minus,dotcolour,beta,,,62,18,V,R,
417,39,39,9,3,44,36,1381,['c'],1,left,['2'],2,891,[0.29879444],99,44,hard,minus,dotcolour,beta,,,62,18,V,R,
418,40,40,9,3,47,33,363,['c'],1,left,['2'],2,258,[0.05443077],49,47,medium,minus,dotcolour,beta,,,62,18,V,R,
419,41,41,9,3,47,33,698,['c'],1,left,['2'],2,1028,[0.15417993],85,47,medium,minus,dotcolour,beta,,,62,18,V,R,
420,42,0,10,3,47,33,634,['n'],0,left,['0'],6,175,[-0.07047218],66,47,medium,minus,dotcolour,beta,,,62,18,V,R,
421,43,1,10,3,27,53,16,['c'],0,right,['2'],2,17,[0.06784978],85,53,easy,minus,dotcolour,beta,,,62,18,V,R,
422,44,2,10,3,36,44,350,['c'],0,right,['2'],2,204,[0.14922291],98,44,hard,minus,dotcolour,beta,,,62,18,V,R,
423,45,3,10,3,33,47,314,['c'],0,right,['2'],2,137,[0.03700535],29,47,medium,minus,dotcolour,beta,,,62,18,V,R,
424,46,4,10,3,53,27,283,['c'],1,left,['2'],2,105,[0.08845962],86,53,easy,minus,dotcolour,beta,,,62,18,V,R,
425,47,5,10,3,36,44,176,['c'],0,right,['2'],2,63,[0.09186823],93,44,hard,minus,dotcolour,beta,,,62,18,V,R,
426,48,6,10,3,27,53,1882,['c'],0,right,['0'],6,218,[0.0032367],12,53,easy,minus,dotcolour,beta,,,62,18,V,R,
427,49,7,10,3,44,36,298,['c'],1,left,['9'],5,215,[0.03495765],31,44,hard,minus,dotcolour,beta,,,62,18,V,R,
428,50,8,10,3,44,36,332,['c'],1,left,['8'],4,234,[0.02388189],24,44,hard,minus,dotcolour,beta,,,62,18,V,R,
429,51,9,10,3,27,53,431,['c'],0,right,['1'],1,296,[0.08971579],76,53,easy,minus,dotcolour,beta,,,62,18,V,R,
430,52,10,10,3,33,47,2497,['c'],0,right,['9'],5,650,[0.06336522],54,47,medium,minus,dotcolour,beta,,,62,18,V,R,
431,53,11,10,3,33,47,348,['c'],0,right,['9'],5,227,[0.01933632],20,47,medium,minus,dotcolour,beta,,,62,18,V,R,
432,54,12,10,3,44,36,515,['c'],1,left,['1'],1,950,[0.13211324],80,44,hard,minus,dotcolour,beta,,,62,18,V,R,
433,55,13,10,3,27,53,1613,['c'],0,right,['0'],6,400,[0.11238751],83,53,easy,minus,dotcolour,beta,,,62,18,V,R,
434,56,14,10,3,44,36,265,['c'],1,left,['2'],2,142,[0.04940528],43,44,hard,minus,dotcolour,beta,,,62,18,V,R,
435,57,15,10,3,53,27,138,['c'],1,left,['0'],6,226,[0.1379759],96,53,easy,minus,dotcolour,beta,,,62,18,V,R,
436,58,16,10,3,33,47,298,['c'],0,right,['2'],2,189,[-0.03131483],3,47,medium,minus,dotcolour,beta,,,62,18,V,R,
437,59,17,10,3,36,44,532,['c'],0,right,['9'],5,202,[0.03192504],28,44,hard,minus,dotcolour,beta,,,62,18,V,R,
438,60,18,10,3,53,27,267,['c'],1,left,['2'],2,152,[0.14309716],98,53,easy,minus,dotcolour,beta,,,62,18,V,R,
439,61,19,10,3,53,27,366,['c'],1,left,['0'],6,188,[0.19825475],100,53,easy,minus,dotcolour,beta,,,62,18,V,R,
440,62,20,10,3,47,33,415,['c'],1,left,['2'],2,166,[0.16385188],99,47,medium,minus,dotcolour,beta,,,62,18,V,R,
441,63,21,10,3,33,47,298,['c'],0,right,['0'],6,228,[0.0182426],20,47,medium,minus,dotcolour,beta,,,62,18,V,R,
442,64,22,10,3,47,33,1948,['c'],1,left,['0'],6,199,[0.17127437],99,47,medium,minus,dotcolour,beta,,,62,18,V,R,
443,65,23,10,3,47,33,232,['c'],1,left,['2'],2,126,[0.13817497],99,47,medium,minus,dotcolour,beta,,,62,18,V,R,
444,66,24,10,3,44,36,194,['c'],1,left,['0'],6,202,[0.07207167],66,44,hard,minus,dotcolour,beta,,,62,18,V,R,
445,67,25,10,3,36,44,799,['c'],0,right,['2'],2,180,[0.0377531],32,44,hard,minus,dotcolour,beta,,,62,18,V,R,
446,68,26,10,3,53,27,282,['c'],1,left,['0'],6,210,[0.09522123],83,53,easy,minus,dotcolour,beta,,,62,18,V,R,
447,69,27,10,3,27,53,2015,['c'],0,right,['2'],2,218,[0.08845137],78,53,easy,minus,dotcolour,beta,,,62,18,V,R,
448,70,28,10,3,44,36,1848,['c'],1,left,['0'],6,353,[0.00587678],18,44,hard,minus,dotcolour,beta,,,62,18,V,R,
449,71,29,10,3,53,27,448,['c'],1,left,['0'],6,386,[0.18457453],98,53,easy,minus,dotcolour,beta,,,62,18,V,R,
450,72,30,10,3,27,53,149,['c'],0,right,['0'],6,316,[0.01693921],23,53,easy,minus,dotcolour,beta,,,62,18,V,R,
451,73,31,10,3,33,47,447,['n'],1,right,['0'],6,86,[-0.12844816],99,47,medium,minus,dotcolour,beta,,,62,18,V,R,
452,74,32,10,3,47,33,265,['c'],1,left,['0'],6,233,[0.11111648],89,47,medium,minus,dotcolour,beta,,,62,18,V,R,
453,75,33,10,3,27,53,1448,['c'],0,right,['0'],6,344,[-0.02419196],8,53,easy,minus,dotcolour,beta,,,62,18,V,R,
454,76,34,10,3,36,44,299,['c'],0,right,['0'],6,191,[0.05261222],47,44,hard,minus,dotcolour,beta,,,62,18,V,R,
455,77,35,10,3,44,36,192,['n'],0,left,['2'],2,233,[-0.02078638],21,44,hard,minus,dotcolour,beta,,,62,18,V,R,
456,78,36,10,3,53,27,281,['c'],1,left,['0'],6,229,[0.15660916],98,53,easy,minus,dotcolour,beta,,,62,18,V,R,
457,79,37,10,3,36,44,399,['c'],0,right,['2'],2,141,[0.08782232],82,44,hard,minus,dotcolour,beta,,,62,18,V,R,
458,80,38,10,3,47,33,151,['n'],0,left,['0'],6,120,[-0.01135312],9,47,medium,minus,dotcolour,beta,,,62,18,V,R,
459,81,39,10,3,36,44,1965,['n'],1,right,['2'],2,686,[-0.08140461],64,44,hard,minus,dotcolour,beta,,,62,18,V,R,
460,82,40,10,3,33,47,1332,['c'],0,right,['2'],2,182,[-0.01241819],5,47,medium,minus,dotcolour,beta,,,62,18,V,R,
461,83,41,10,3,47,33,1016,['c'],1,left,['2'],2,151,[0.09111926],84,47,medium,minus,dotcolour,beta,,,62,18,V,R,
462,84,0,11,3,36,44,465,['n'],1,right,['0'],6,524,[-0.11818471],83,44,hard,minus,dotcolour,beta,,,62,18,V,R,
463,85,1,11,3,44,36,1365,['n'],0,left,['0'],6,641,[-0.14036393],87,44,hard,minus,dotcolour,beta,,,62,18,V,R,
464,86,2,11,3,53,27,283,['c'],1,left,['2'],2,301,[0.1265887],91,53,easy,minus,dotcolour,beta,,,62,18,V,R,
465,87,3,11,3,47,33,234,['c'],1,left,['2'],2,585,[0.16957395],94,47,medium,minus,dotcolour,beta,,,62,18,V,R,
466,88,4,11,3,27,53,317,['c'],0,right,['2'],2,590,[0.0859152],67,53,easy,minus,dotcolour,beta,,,62,18,V,R,
467,89,5,11,3,44,36,317,['c'],1,left,['0'],6,187,[0.08824933],80,44,hard,minus,dotcolour,beta,,,62,18,V,R,
468,90,6,11,3,33,47,484,['c'],0,right,['0'],6,306,[0.17645955],98,47,medium,minus,dotcolour,beta,,,62,18,V,R,
469,91,7,11,3,44,36,7634,['c'],1,left,['2'],2,478,[0.15989041],94,44,hard,minus,dotcolour,beta,,,62,18,V,R,
470,92,8,11,3,33,47,316,['c'],0,right,['0'],6,239,[-0.00734864],9,47,medium,minus,dotcolour,beta,,,62,18,V,R,
471,93,9,11,3,27,53,1750,['n'],1,right,['9'],5,1537,[-0.28543845],97,53,easy,minus,dotcolour,beta,,,62,18,V,R,
472,94,10,11,3,47,33,2667,['c'],1,left,['0'],6,538,[0.14932663],91,47,medium,minus,dotcolour,beta,,,62,18,V,R,
473,95,11,11,3,36,44,55,['c'],0,right,['2'],2,30,[0.08080255],93,44,hard,minus,dotcolour,beta,,,62,18,V,R,
474,96,12,11,3,53,27,1383,['c'],1,left,['2'],2,702,[-4.95620339e-05],23,53,easy,minus,dotcolour,beta,,,62,18,V,R,
475,97,13,11,3,33,47,834,['c'],0,right,['2'],2,370,[0.13640041],92,47,medium,minus,dotcolour,beta,,,62,18,V,R,
476,98,14,11,3,47,33,79,['c'],1,left,['9'],5,229,[0.09860319],83,47,medium,minus,dotcolour,beta,,,62,18,V,R,
477,99,15,11,3,33,47,983,['c'],0,right,['2'],2,414,[0.1152645],84,47,medium,minus,dotcolour,beta,,,62,18,V,R,
478,100,16,11,3,36,44,317,['n'],1,right,['9'],5,178,[-0.11355492],92,44,hard,minus,dotcolour,beta,,,62,18,V,R,
479,101,17,11,3,53,27,1083,['c'],1,left,['2'],2,440,[0.2632562],100,53,easy,minus,dotcolour,beta,,,62,18,V,R,
480,102,18,11,3,33,47,2700,['c'],0,right,['2'],2,220,[0.06385138],58,47,medium,minus,dotcolour,beta,,,62,18,V,R,
481,103,19,11,3,36,44,317,['c'],0,right,['2'],2,160,[0.07532961],71,44,hard,minus,dotcolour,beta,,,62,18,V,R,
482,104,20,11,3,44,36,334,['c'],1,left,['3'],3,133,[0.0802161],77,44,hard,minus,dotcolour,beta,,,62,18,V,R,
483,105,21,11,3,27,53,268,['c'],0,right,['3'],3,134,[0.02422685],18,53,easy,minus,dotcolour,beta,,,62,18,V,R,
484,106,22,11,3,53,27,284,['c'],1,left,['9'],5,222,[0.11103813],89,53,easy,minus,dotcolour,beta,,,62,18,V,R,
485,107,23,11,3,44,36,384,['c'],1,left,['3'],3,167,[0.05879421],54,44,hard,minus,dotcolour,beta,,,62,18,V,R,
486,108,24,11,3,27,53,384,['c'],0,right,['3'],3,179,[0.08726274],79,53,easy,minus,dotcolour,beta,,,62,18,V,R,
487,109,25,11,3,47,33,1067,['c'],1,left,['9'],5,242,[0.10318327],85,47,medium,minus,dotcolour,beta,,,62,18,V,R,
488,110,26,11,3,27,53,880,['c'],0,right,['9'],5,222,[0.05743691],52,53,easy,minus,dotcolour,beta,,,62,18,V,R,
489,111,27,11,3,44,36,102,['c'],1,left,['3'],3,86,[0.05752276],53,44,hard,minus,dotcolour,beta,,,62,18,V,R,
490,112,28,11,3,27,53,282,['c'],0,right,['9'],5,281,[0.07438896],65,53,easy,minus,dotcolour,beta,,,62,18,V,R,
491,113,29,11,3,53,27,331,['c'],1,left,['3'],3,130,[0.04218361],34,53,easy,minus,dotcolour,beta,,,62,18,V,R,
492,114,30,11,3,27,53,215,['c'],0,right,['9'],5,173,[-0.04769825],1,53,easy,minus,dotcolour,beta,,,62,18,V,R,
493,115,31,11,3,47,33,333,['c'],1,left,['3'],3,154,[0.09384619],85,47,medium,minus,dotcolour,beta,,,62,18,V,R,
494,116,32,11,3,44,36,249,['c'],1,left,['9'],5,220,[0.13026188],95,44,hard,minus,dotcolour,beta,,,62,18,V,R,
495,117,33,11,3,36,44,315,['c'],0,right,['3'],3,144,[0.10650171],92,44,hard,minus,dotcolour,beta,,,62,18,V,R,
496,118,34,11,3,53,27,2348,['n'],0,left,['9'],5,541,[0.0792848],4,53,easy,minus,dotcolour,beta,,,62,18,V,R,
497,119,35,11,3,36,44,314,['n'],1,right,['3'],3,139,[-0.09494416],87,44,hard,minus,dotcolour,beta,,,62,18,V,R,
498,120,36,11,3,36,44,332,['c'],0,right,['9'],5,202,[0.03534211],31,44,hard,minus,dotcolour,beta,,,62,18,V,R,
499,121,37,11,3,33,47,398,['n'],1,right,['3'],3,300,[-0.06182298],55,47,medium,minus,dotcolour,beta,,,62,18,V,R,
500,122,38,11,3,33,47,282,['c'],0,right,['3'],3,614,[0.05052992],47,47,medium,minus,dotcolour,beta,,,62,18,V,R,
501,123,39,11,3,47,33,22,['c'],1,left,['3'],3,678,[0.0890736],68,47,medium,minus,dotcolour,beta,,,62,18,V,R,
502,124,40,11,3,47,33,15,['c'],1,left,['3'],3,604,[0.07660845],62,47,medium,minus,dotcolour,beta,,,62,18,V,R,
503,125,41,11,3,53,27,248,['c'],1,left,['9'],5,211,[0.08807721],78,53,easy,minus,dotcolour,beta,,,62,18,V,R,
504,0,0,12,4,27,53,1983,['c'],0,right,['9'],5,384,[0.00862356],87,53,easy,plus,dotcolour,beta,,,62,18,V,R,
505,1,1,12,4,27,53,171,['n'],1,right,['3'],3,209,[-0.1110127],100,53,easy,plus,dotcolour,beta,,,62,18,V,R,
506,2,2,12,4,53,27,399,['n'],0,left,['3'],3,234,[-0.01065914],92,53,easy,plus,dotcolour,beta,,,62,18,V,R,
507,3,3,12,4,53,27,248,['n'],0,left,['3'],3,248,[-0.1162528],100,53,easy,plus,dotcolour,beta,,,62,18,V,R,
508,4,4,12,4,47,33,215,['n'],0,left,['3'],3,318,[-0.08696365],99,47,medium,plus,dotcolour,beta,,,62,18,V,R,
509,5,5,12,4,47,33,1765,['c'],1,left,['9'],5,1972,[0.29479017],99,47,medium,plus,dotcolour,beta,,,62,18,V,R,
510,6,6,12,4,44,36,263,['c'],1,left,['3'],3,731,[0.01583096],82,44,hard,plus,dotcolour,beta,,,62,18,V,R,
511,7,7,12,4,53,27,282,['c'],1,left,['3'],3,180,[0.15111848],100,53,easy,plus,dotcolour,beta,,,62,18,V,R,
512,8,8,12,4,27,53,3282,['c'],0,right,['9'],5,211,[0.09832185],100,53,easy,plus,dotcolour,beta,,,62,18,V,R,
513,9,9,12,4,36,44,431,['c'],0,right,['9'],5,250,[0.01864746],94,44,hard,plus,dotcolour,beta,,,62,18,V,R,
514,10,10,12,4,44,36,683,['n'],0,left,['9'],5,670,[-0.07606158],95,44,hard,plus,dotcolour,beta,,,62,18,V,R,
515,11,11,12,4,44,36,27,['c'],1,left,['9'],5,1724,[0.01800341],73,44,hard,plus,dotcolour,beta,,,62,18,V,R,
516,12,12,12,4,33,47,1015,['n'],1,right,['9'],5,159,[-0.05622262],99,47,medium,plus,dotcolour,beta,,,62,18,V,R,
517,13,13,12,4,44,36,965,['n'],0,left,['9'],5,138,[-0.0674204],100,44,hard,plus,dotcolour,beta,,,62,18,V,R,
518,14,14,12,4,47,33,1316,['n'],0,left,['9'],5,155,[-0.04312792],99,47,medium,plus,dotcolour,beta,,,62,18,V,R,
519,15,15,12,4,47,33,1814,['n'],0,left,['9'],5,125,[-0.0591873],100,47,medium,plus,dotcolour,beta,,,62,18,V,R,
520,16,16,12,4,27,53,1632,['n'],1,right,['9'],5,175,[-0.12324882],100,53,easy,plus,dotcolour,beta,,,62,18,V,R,
521,17,17,12,4,36,44,516,['c'],0,right,['3'],3,93,[0.0382512],100,44,hard,plus,dotcolour,beta,,,62,18,V,R,
522,18,18,12,4,33,47,698,['c'],0,right,['9'],5,326,[0.14159079],100,47,medium,plus,dotcolour,beta,,,62,18,V,R,
523,19,19,12,4,33,47,130,['n'],1,right,['3'],3,331,[-0.10875037],99,47,medium,plus,dotcolour,beta,,,62,18,V,R,
524,20,20,12,4,47,33,1682,['n'],0,left,['3'],3,371,[0.02319369],72,47,medium,plus,dotcolour,beta,,,62,18,V,R,
525,21,21,12,4,27,53,348,['n'],1,right,['3'],3,151,[-0.05319606],99,53,easy,plus,dotcolour,beta,,,62,18,V,R,
526,22,22,12,4,33,47,332,['n'],1,right,['3'],3,333,[-0.12616851],100,47,medium,plus,dotcolour,beta,,,62,18,V,R,
527,23,23,12,4,36,44,331,['c'],0,right,['3'],3,724,[0.07728514],94,44,hard,plus,dotcolour,beta,,,62,18,V,R,
528,24,24,12,4,36,44,364,['c'],0,right,['3'],3,601,[0.01299288],83,44,hard,plus,dotcolour,beta,,,62,18,V,R,
529,25,25,12,4,27,53,281,['c'],0,right,['3'],3,575,[-0.06615363],44,53,easy,plus,dotcolour,beta,,,62,18,V,R,
530,26,26,12,4,44,36,282,['c'],1,left,['3'],3,526,[0.0548711],94,44,hard,plus,dotcolour,beta,,,62,18,V,R,
531,27,27,12,4,33,47,266,['c'],0,right,['3'],3,623,[0.10244413],97,47,medium,plus,dotcolour,beta,,,62,18,V,R,
532,28,28,12,4,36,44,365,['n'],1,right,['3'],3,256,[-0.12565949],100,44,hard,plus,dotcolour,beta,,,62,18,V,R,
533,29,29,12,4,53,27,515,['n'],0,left,['3'],3,362,[-0.17224135],100,53,easy,plus,dotcolour,beta,,,62,18,V,R,
534,30,30,12,4,44,36,432,['n'],0,left,['3'],3,228,[0.01784068],81,44,hard,plus,dotcolour,beta,,,62,18,V,R,
535,31,31,12,4,33,47,248,['c'],0,right,['3'],3,626,[-0.01202832],73,47,medium,plus,dotcolour,beta,,,62,18,V,R,
536,32,32,12,4,47,33,232,['c'],1,left,['3'],3,625,[0.2085605],100,47,medium,plus,dotcolour,beta,,,62,18,V,R,
537,33,33,12,4,36,44,267,['c'],0,right,['3'],3,510,[0.05412632],94,44,hard,plus,dotcolour,beta,,,62,18,V,R,
538,34,34,12,4,53,27,267,['c'],1,left,['3'],3,440,[0.06347226],96,53,easy,plus,dotcolour,beta,,,62,18,V,R,
539,35,35,12,4,33,47,176,['c'],0,right,['3'],3,447,[0.02236746],89,47,medium,plus,dotcolour,beta,,,62,18,V,R,
540,36,36,12,4,36,44,121,['c'],0,right,['3'],3,399,[-0.03246447],66,44,hard,plus,dotcolour,beta,,,62,18,V,R,
541,37,37,12,4,53,27,216,['n'],0,left,['3'],3,239,[0.03277816],70,53,easy,plus,dotcolour,beta,,,62,18,V,R,
542,38,38,12,4,27,53,40,['n'],1,right,['9'],5,495,[-0.14658028],99,53,easy,plus,dotcolour,beta,,,62,18,V,R,
543,39,39,12,4,53,27,331,['n'],0,left,['3'],3,207,[-0.05900713],99,53,easy,plus,dotcolour,beta,,,62,18,V,R,
544,40,40,12,4,44,36,266,['c'],1,left,['9'],5,197,[0.06367488],99,44,hard,plus,dotcolour,beta,,,62,18,V,R,
545,41,41,12,4,47,33,250,['c'],1,left,['3'],3,716,[0.09568701],96,47,medium,plus,dotcolour,beta,,,62,18,V,R,
546,42,0,13,4,44,36,5266,['c'],1,left,['3'],3,379,[0.13975206],100,44,hard,plus,dotcolour,beta,,,62,18,V,R,
547,43,1,13,4,53,27,1448,['c'],1,left,['3'],3,178,[0.15196401],100,53,easy,plus,dotcolour,beta,,,62,18,V,R,
548,44,2,13,4,27,53,382,['c'],0,right,['3'],3,229,[0.00659185],91,53,easy,plus,dotcolour,beta,,,62,18,V,R,
549,45,3,13,4,53,27,233,['c'],1,left,['3'],3,171,[0.08281188],100,53,easy,plus,dotcolour,beta,,,62,18,V,R,
550,46,4,13,4,47,33,283,['n'],0,left,['3'],3,250,[0.00323769],87,47,medium,plus,dotcolour,beta,,,62,18,V,R,
551,47,5,13,4,33,47,332,['c'],0,right,['9'],5,180,[-0.00673981],89,47,medium,plus,dotcolour,beta,,,62,18,V,R,
552,48,6,13,4,53,27,265,['c'],1,left,['3'],3,219,[0.16872354],100,53,easy,plus,dotcolour,beta,,,62,18,V,R,
553,49,7,13,4,33,47,44,['c'],0,right,['9'],5,3772,[-0.28894993],10,47,medium,plus,dotcolour,beta,,,62,18,V,R,
554,50,8,13,4,36,44,2033,['c'],0,right,['9'],5,324,[-0.0542671],51,44,hard,plus,dotcolour,beta,,,62,18,V,R,
555,51,9,13,4,47,33,298,['n'],0,left,['3'],3,292,[-0.0528183],97,47,medium,plus,dotcolour,beta,,,62,18,V,R,
556,52,10,13,4,36,44,299,['c'],0,right,['9'],5,1125,[0.05526537],87,44,hard,plus,dotcolour,beta,,,62,18,V,R,
557,53,11,13,4,33,47,82,['c'],0,right,['3'],3,129,[0.03984686],99,47,medium,plus,dotcolour,beta,,,62,18,V,R,
558,54,12,13,4,33,47,166,['c'],0,right,['9'],5,213,[0.04558245],98,47,medium,plus,dotcolour,beta,,,62,18,V,R,
559,55,13,13,4,33,47,567,['n'],1,right,['9'],5,1735,[-0.11294053],91,47,medium,plus,dotcolour,beta,,,62,18,V,R,
560,56,14,13,4,47,33,366,['c'],1,left,['9'],5,180,[0.12158232],100,47,medium,plus,dotcolour,beta,,,62,18,V,R,
561,57,15,13,4,47,33,96,['c'],1,left,['9'],5,590,[0.08388385],96,47,medium,plus,dotcolour,beta,,,62,18,V,R,
562,58,16,13,4,27,53,249,['c'],0,right,['9'],5,3069,[-0.46710694],1,53,easy,plus,dotcolour,beta,,,62,18,V,R,
563,59,17,13,4,47,33,298,['c'],1,left,['9'],5,207,[0.06200724],99,47,medium,plus,dotcolour,beta,,,62,18,V,R,
564,60,18,13,4,53,27,264,['n'],0,left,['3'],3,164,[-0.07985693],100,53,easy,plus,dotcolour,beta,,,62,18,V,R,
565,61,19,13,4,53,27,79,['c'],1,left,['9'],5,399,[0.14422834],100,53,easy,plus,dotcolour,beta,,,62,18,V,R,
566,62,20,13,4,27,53,16,['c'],0,right,['9'],5,361,[-0.01184904],79,53,easy,plus,dotcolour,beta,,,62,18,V,R,
567,63,21,13,4,27,53,449,['c'],0,right,['9'],5,1969,[-0.3527055],2,53,easy,plus,dotcolour,beta,,,62,18,V,R,
568,64,22,13,4,36,44,315,['c'],0,right,['9'],5,279,[-0.00977276],83,44,hard,plus,dotcolour,beta,,,62,18,V,R,
569,65,23,13,4,53,27,798,['c'],1,left,['9'],5,333,[0.06894084],98,53,easy,plus,dotcolour,beta,,,62,18,V,R,
570,66,24,13,4,44,36,88,['c'],1,left,['9'],5,2409,[0.10539855],87,44,hard,plus,dotcolour,beta,,,62,18,V,R,
571,67,25,13,4,27,53,765,['c'],0,right,['3'],3,218,[-0.07212204],35,53,easy,plus,dotcolour,beta,,,62,18,V,R,
572,68,26,13,4,44,36,315,['c'],1,left,['9'],5,181,[-0.03258889],73,44,hard,plus,dotcolour,beta,,,62,18,V,R,
573,69,27,13,4,36,44,182,['c'],0,right,['3'],3,135,[0.04007378],99,44,hard,plus,dotcolour,beta,,,62,18,V,R,
574,70,28,13,4,47,33,332,['c'],1,left,['9'],5,278,[0.1031055],100,47,medium,plus,dotcolour,beta,,,62,18,V,R,
575,71,29,13,4,33,47,215,['c'],0,right,['3'],3,211,[-0.01647823],82,47,medium,plus,dotcolour,beta,,,62,18,V,R,
576,72,30,13,4,36,44,415,['c'],0,right,['9'],5,323,[0.02309036],92,44,hard,plus,dotcolour,beta,,,62,18,V,R,
577,73,31,13,4,36,44,215,['c'],0,right,['3'],3,102,[0.06200261],100,44,hard,plus,dotcolour,beta,,,62,18,V,R,
578,74,32,13,4,33,47,45,['c'],0,right,['9'],5,292,[0.04882875],97,47,medium,plus,dotcolour,beta,,,62,18,V,R,
579,75,33,13,4,44,36,782,['c'],1,left,['3'],3,170,[0.10445261],100,44,hard,plus,dotcolour,beta,,,62,18,V,R,
580,76,34,13,4,53,27,1965,['c'],1,left,['9'],5,294,[0.12367721],100,53,easy,plus,dotcolour,beta,,,62,18,V,R,
581,77,35,13,4,36,44,2315,['c'],0,right,['3'],3,542,[0.15044193],99,44,hard,plus,dotcolour,beta,,,62,18,V,R,
582,78,36,13,4,44,36,449,['c'],1,left,['3'],3,425,[0.03266997],92,44,hard,plus,dotcolour,beta,,,62,18,V,R,
583,79,37,13,4,44,36,315,['c'],1,left,['9'],5,251,[0.09967174],100,44,hard,plus,dotcolour,beta,,,62,18,V,R,
584,80,38,13,4,47,33,232,['c'],1,left,['3'],3,217,[0.07649539],99,47,medium,plus,dotcolour,beta,,,62,18,V,R,
585,81,39,13,4,44,36,1514,['c'],1,left,['9'],5,613,[0.06104667],94,44,hard,plus,dotcolour,beta,,,62,18,V,R,
586,82,40,13,4,27,53,616,['c'],0,right,['9'],5,469,[-0.0852],31,53,easy,plus,dotcolour,beta,,,62,18,V,R,
587,83,41,13,4,27,53,748,['c'],0,right,['9'],5,398,[0.0321472],92,53,easy,plus,dotcolour,beta,,,62,18,V,R,
588,84,0,14,4,47,33,98,['c'],1,left,['9'],5,193,[0.11193332],100,47,medium,plus,dotcolour,beta,,,62,18,V,R,
589,85,1,14,4,44,36,154,['c'],1,left,['9'],5,219,[0.05470779],99,44,hard,plus,dotcolour,beta,,,62,18,V,R,
590,86,2,14,4,33,47,262,['n'],1,right,['9'],5,2296,[-0.42423098],100,47,medium,plus,dotcolour,beta,,,62,18,V,R,
591,87,3,14,4,47,33,699,['c'],1,left,['3'],3,1913,[0.22553371],97,47,medium,plus,dotcolour,beta,,,62,18,V,R,
592,88,4,14,4,33,47,248,['n'],1,right,['3'],3,291,[-0.1060284],100,47,medium,plus,dotcolour,beta,,,62,18,V,R,
593,89,5,14,4,33,47,266,['n'],1,right,['3'],3,158,[-0.0213678],97,47,medium,plus,dotcolour,beta,,,62,18,V,R,
594,90,6,14,4,44,36,299,['c'],1,left,['0'],6,100,[0.05371842],100,44,hard,plus,dotcolour,beta,,,62,18,V,R,
595,91,7,14,4,44,36,1032,['n'],0,left,['0'],6,729,[0.08031468],37,44,hard,plus,dotcolour,beta,,,62,18,V,R,
596,92,8,14,4,53,27,298,['c'],1,left,['0'],6,400,[0.11007839],99,53,easy,plus,dotcolour,beta,,,62,18,V,R,
597,93,9,14,4,27,53,363,['c'],0,right,['3'],3,4939,[-0.50334735],3,53,easy,plus,dotcolour,beta,,,62,18,V,R,
598,94,10,14,4,36,44,365,['n'],1,right,['3'],3,166,[-0.05661806],99,44,hard,plus,dotcolour,beta,,,62,18,V,R,
599,95,11,14,4,53,27,748,['c'],1,left,['9'],5,1915,[0.23953076],98,53,easy,plus,dotcolour,beta,,,62,18,V,R,
600,96,12,14,4,44,36,87,['c'],1,left,['9'],5,95,[0.08201041],100,44,hard,plus,dotcolour,beta,,,62,18,V,R,
601,97,13,14,4,27,53,76,['n'],1,right,['9'],5,188,[-0.06374115],99,53,easy,plus,dotcolour,beta,,,62,18,V,R,
602,98,14,14,4,53,27,383,['n'],0,left,['9'],5,199,[-0.05289712],99,53,easy,plus,dotcolour,beta,,,62,18,V,R,
603,99,15,14,4,27,53,265,['n'],1,right,['3'],3,213,[-0.18087728],100,53,easy,plus,dotcolour,beta,,,62,18,V,R,
604,100,16,14,4,36,44,915,['n'],1,right,['2'],2,385,[-0.10654295],99,44,hard,plus,dotcolour,beta,,,62,18,V,R,
605,101,17,14,4,33,47,316,['c'],0,right,['9'],5,294,[0.03697411],96,47,medium,plus,dotcolour,beta,,,62,18,V,R,
606,102,18,14,4,53,27,282,['c'],1,left,['0'],6,177,[0.11073807],100,53,easy,plus,dotcolour,beta,,,62,18,V,R,
607,103,19,14,4,27,53,249,['c'],0,right,['9'],5,168,[0.09436214],100,53,easy,plus,dotcolour,beta,,,62,18,V,R,
608,104,20,14,4,36,44,1583,['c'],0,right,['8'],4,196,[0.00818996],93,44,hard,plus,dotcolour,beta,,,62,18,V,R,
609,105,21,14,4,36,44,1416,['c'],0,right,"['3', '2']",3,3253,[-0.31719467],7,44,hard,plus,dotcolour,beta,,,62,18,V,R,
610,106,22,14,4,44,36,565,['c'],1,left,['0'],6,235,[0.05469723],98,44,hard,plus,dotcolour,beta,,,62,18,V,R,
611,107,23,14,4,44,36,248,['c'],1,left,['0'],6,177,[0.03541831],98,44,hard,plus,dotcolour,beta,,,62,18,V,R,
612,108,24,14,4,47,33,1633,['c'],1,left,['0'],6,234,[0.08304266],99,47,medium,plus,dotcolour,beta,,,62,18,V,R,
613,109,25,14,4,33,47,160,['c'],0,right,['3'],3,129,[0.10366907],100,47,medium,plus,dotcolour,beta,,,62,18,V,R,
614,110,26,14,4,36,44,366,['c'],0,right,['0'],6,127,[0.09330788],100,44,hard,plus,dotcolour,beta,,,62,18,V,R,
615,111,27,14,4,27,53,1899,['c'],0,right,['3'],3,367,[-0.00540536],82,53,easy,plus,dotcolour,beta,,,62,18,V,R,
616,112,28,14,4,27,53,267,['c'],0,right,['0'],6,103,[0.08968489],100,53,easy,plus,dotcolour,beta,,,62,18,V,R,
617,113,29,14,4,47,33,1016,['c'],1,left,['0'],6,452,[0.15864297],100,47,medium,plus,dotcolour,beta,,,62,18,V,R,
618,114,30,14,4,53,27,300,['c'],1,left,['3'],3,311,[0.14956559],100,53,easy,plus,dotcolour,beta,,,62,18,V,R,
619,115,31,14,4,53,27,266,['c'],1,left,['0'],6,257,[0.16001212],100,53,easy,plus,dotcolour,beta,,,62,18,V,R,
620,116,32,14,4,47,33,299,['c'],1,left,['3'],3,236,[0.07791784],99,47,medium,plus,dotcolour,beta,,,62,18,V,R,
621,117,33,14,4,33,47,299,['c'],0,right,['0'],6,200,[0.07653645],100,47,medium,plus,dotcolour,beta,,,62,18,V,R,
622,118,34,14,4,47,33,249,['c'],1,left,['3'],3,87,[0.08732448],100,47,medium,plus,dotcolour,beta,,,62,18,V,R,
623,119,35,14,4,47,33,248,['c'],1,left,['0'],6,251,[0.03962875],97,47,medium,plus,dotcolour,beta,,,62,18,V,R,
624,120,36,14,4,36,44,2865,['c'],0,right,['0'],6,264,[0.15562732],100,44,hard,plus,dotcolour,beta,,,62,18,V,R,
625,121,37,14,4,27,53,1331,['c'],0,right,['0'],6,337,[0.02551078],93,53,easy,plus,dotcolour,beta,,,62,18,V,R,
626,122,38,14,4,33,47,815,['c'],0,right,['0'],6,212,[0.07664431],99,47,medium,plus,dotcolour,beta,,,62,18,V,R,
627,123,39,14,4,53,27,1065,['c'],1,left,['0'],6,266,[0.09402164],99,53,easy,plus,dotcolour,beta,,,62,18,V,R,
628,124,40,14,4,44,36,783,['c'],1,left,['0'],6,249,[0.12610036],100,44,hard,plus,dotcolour,beta,,,62,18,V,R,
629,125,41,14,4,36,44,332,['c'],0,right,['0'],6,196,[0.06029225],99,44,hard,plus,dotcolour,beta,,,62,18,V,R,
630,0,0,15,5,47,33,1349,['c'],1,left,['0'],6,155,[0.05616484],51,47,medium,minus,dotcolour,beta,,,62,18,V,R,
631,1,1,15,5,47,33,198,['c'],1,left,['2'],2,118,[0.11564107],96,47,medium,minus,dotcolour,beta,,,62,18,V,R,
632,2,2,15,5,27,53,265,['c'],0,right,['0'],6,200,[0.02640317],24,53,easy,minus,dotcolour,beta,,,62,18,V,R,
633,3,3,15,5,47,33,967,['c'],1,left,['9'],5,2123,[0.50895529],100,47,medium,minus,dotcolour,beta,,,62,18,V,R,
634,4,4,15,5,44,36,348,['c'],1,left,['9'],5,352,[0.06168606],55,44,hard,minus,dotcolour,beta,,,62,18,V,R,
635,5,5,15,5,27,53,20,['c'],0,right,['2'],2,124,[0.04325066],35,53,easy,minus,dotcolour,beta,,,62,18,V,R,
636,6,6,15,5,53,27,49,['c'],1,left,['0'],6,128,[0.06160106],58,53,easy,minus,dotcolour,beta,,,62,18,V,R,
637,7,7,15,5,33,47,648,['n'],1,right,['0'],6,1187,[-0.19541086],91,47,medium,minus,dotcolour,beta,,,62,18,V,R,
638,8,8,15,5,47,33,332,['n'],0,left,['2'],2,150,[-0.003719],8,47,medium,minus,dotcolour,beta,,,62,18,V,R,
639,9,9,15,5,33,47,349,['c'],0,right,['0'],6,307,[0.11473141],87,47,medium,minus,dotcolour,beta,,,62,18,V,R,
640,10,10,15,5,44,36,431,['n'],0,left,['2'],2,343,[-0.08429975],71,44,hard,minus,dotcolour,beta,,,62,18,V,R,
641,11,11,15,5,53,27,415,['c'],1,left,['9'],5,305,[0.14579316],95,53,easy,minus,dotcolour,beta,,,62,18,V,R,
642,12,12,15,5,44,36,650,['n'],0,left,['2'],2,316,[-0.07757773],67,44,hard,minus,dotcolour,beta,,,62,18,V,R,
643,13,13,15,5,36,44,248,['c'],0,right,['0'],6,151,[0.05241476],46,44,hard,minus,dotcolour,beta,,,62,18,V,R,
644,14,14,15,5,36,44,186,['n'],1,right,['2'],2,115,[-0.10245232],92,44,hard,minus,dotcolour,beta,,,62,18,V,R,
645,15,15,15,5,53,27,282,['c'],1,left,['0'],6,260,[0.05633071],51,53,easy,minus,dotcolour,beta,,,62,18,V,R,
646,16,16,15,5,44,36,313,['n'],0,left,['2'],2,238,[-0.07304598],66,44,hard,minus,dotcolour,beta,,,62,18,V,R,
647,17,17,15,5,36,44,299,['c'],0,right,['0'],6,153,[0.05354153],48,44,hard,minus,dotcolour,beta,,,62,18,V,R,
648,18,18,15,5,33,47,299,['n'],1,right,['2'],2,200,[-0.16356918],99,47,medium,minus,dotcolour,beta,,,62,18,V,R,
649,19,19,15,5,27,53,266,['c'],0,right,['0'],6,199,[-0.10083224],0,53,easy,minus,dotcolour,beta,,,62,18,V,R,
650,20,20,15,5,44,36,250,['c'],1,left,['2'],2,134,[0.03640408],28,44,hard,minus,dotcolour,beta,,,62,18,V,R,
651,21,21,15,5,44,36,316,['c'],1,left,['0'],6,150,[0.11525508],94,44,hard,minus,dotcolour,beta,,,62,18,V,R,
652,22,22,15,5,33,47,299,['n'],1,right,['3'],3,93,[-0.07016693],70,47,medium,minus,dotcolour,beta,,,62,18,V,R,
653,23,23,15,5,27,53,194,['n'],1,right,['3'],3,338,[-0.11203936],85,53,easy,minus,dotcolour,beta,,,62,18,V,R,
654,24,24,15,5,33,47,282,['c'],0,right,['3'],3,131,[0.08908509],84,47,medium,minus,dotcolour,beta,,,62,18,V,R,
655,25,25,15,5,47,33,249,['c'],1,left,['2'],2,165,[0.07042351],66,47,medium,minus,dotcolour,beta,,,62,18,V,R,
656,26,26,15,5,36,44,284,['n'],1,right,['1'],1,172,[-0.10951316],91,44,hard,minus,dotcolour,beta,,,62,18,V,R,
657,27,27,15,5,36,44,233,['c'],0,right,['9'],5,221,[0.15174713],98,44,hard,minus,dotcolour,beta,,,62,18,V,R,
658,28,28,15,5,47,33,348,['c'],1,left,['8'],4,263,[0.10620247],86,47,medium,minus,dotcolour,beta,,,62,18,V,R,
659,29,29,15,5,47,33,715,['c'],1,left,['2'],2,178,[0.055794],50,47,medium,minus,dotcolour,beta,,,62,18,V,R,
660,30,30,15,5,53,27,1349,['c'],1,left,['3'],3,174,[0.17835729],100,53,easy,minus,dotcolour,beta,,,62,18,V,R,
661,31,31,15,5,33,47,465,['c'],0,right,['3'],3,109,[0.06939533],68,47,medium,minus,dotcolour,beta,,,62,18,V,R,
662,32,32,15,5,44,36,300,['c'],1,left,['8'],4,214,[0.12524257],94,44,hard,minus,dotcolour,beta,,,62,18,V,R,
663,33,33,15,5,27,53,216,['c'],0,right,['3'],3,126,[0.0794186],77,53,easy,minus,dotcolour,beta,,,62,18,V,R,
664,34,34,15,5,36,44,233,['n'],1,right,['8'],4,145,[-0.07363549],70,44,hard,minus,dotcolour,beta,,,62,18,V,R,
665,35,35,15,5,27,53,213,['c'],0,right,['9'],5,307,[-0.02608723],7,53,easy,minus,dotcolour,beta,,,62,18,V,R,
666,36,36,15,5,53,27,315,['c'],1,left,['9'],5,219,[0.15111098],98,53,easy,minus,dotcolour,beta,,,62,18,V,R,
667,37,37,15,5,53,27,154,['c'],1,left,['3'],3,115,[0.02122322],14,53,easy,minus,dotcolour,beta,,,62,18,V,R,
668,38,38,15,5,27,53,348,['c'],0,right,['9'],5,290,[0.09671108],80,53,easy,minus,dotcolour,beta,,,62,18,V,R,
669,39,39,15,5,33,47,120,['c'],0,right,['2'],2,87,[0.03543316],23,47,medium,minus,dotcolour,beta,,,62,18,V,R,
670,40,40,15,5,53,27,282,['c'],1,left,['3'],3,98,[0.08362074],83,53,easy,minus,dotcolour,beta,,,62,18,V,R,
671,41,41,15,5,36,44,384,['c'],0,right,['3'],3,72,[0.0218827],9,44,hard,minus,dotcolour,beta,,,62,18,V,R,
672,42,0,16,5,27,53,366,['c'],0,right,['3'],3,141,[-0.00671868],5,53,easy,minus,dotcolour,beta,,,62,18,V,R,
673,43,1,16,5,36,44,232,['c'],0,right,['3'],3,95,[0.11917239],98,44,hard,minus,dotcolour,beta,,,62,18,V,R,
674,44,2,16,5,53,27,231,['c'],1,left,['3'],3,83,[0.08578392],87,53,easy,minus,dotcolour,beta,,,62,18,V,R,
675,45,3,16,5,36,44,298,['c'],0,right,['3'],3,94,[0.05559415],50,44,hard,minus,dotcolour,beta,,,62,18,V,R,
676,46,4,16,5,47,33,364,['c'],1,left,['3'],3,132,[0.04570639],38,47,medium,minus,dotcolour,beta,,,62,18,V,R,
677,47,5,16,5,47,33,397,['c'],1,left,['3'],3,144,[0.1201776],96,47,medium,minus,dotcolour,beta,,,62,18,V,R,
678,48,6,16,5,44,36,366,['c'],1,left,['3'],3,149,[0.0429644],36,44,hard,minus,dotcolour,beta,,,62,18,V,R,
679,49,7,16,5,36,44,999,['c'],0,right,['3'],3,104,[0.01916054],12,44,hard,minus,dotcolour,beta,,,62,18,V,R,
680,50,8,16,5,36,44,482,['c'],0,right,['2'],2,210,[0.06313022],57,44,hard,minus,dotcolour,beta,,,62,18,V,R,
681,51,9,16,5,47,33,383,['c'],1,left,['2'],2,220,[0.07448794],67,47,medium,minus,dotcolour,beta,,,62,18,V,R,
682,52,10,16,5,53,27,431,['c'],1,left,['3'],3,251,[-0.01005724],9,53,easy,minus,dotcolour,beta,,,62,18,V,R,
683,53,11,16,5,27,53,899,['c'],0,right,['3'],3,118,[0.0045174],6,53,easy,minus,dotcolour,beta,,,62,18,V,R,
684,54,12,16,5,27,53,766,['c'],0,right,['9'],5,227,[0.13418964],95,53,easy,minus,dotcolour,beta,,,62,18,V,R,
685,55,13,16,5,33,47,296,['c'],0,right,['3'],3,160,[0.03511082],28,47,medium,minus,dotcolour,beta,,,62,18,V,R,
686,56,14,16,5,44,36,1182,['c'],1,left,['9'],5,275,[0.184648],99,44,hard,minus,dotcolour,beta,,,62,18,V,R,
687,57,15,16,5,33,47,1582,['c'],0,right,['3'],3,105,[0.10336566],93,47,medium,minus,dotcolour,beta,,,62,18,V,R,
688,58,16,16,5,44,36,250,['c'],1,left,['3'],3,149,[0.08257583],78,44,hard,minus,dotcolour,beta,,,62,18,V,R,
689,59,17,16,5,44,36,233,['c'],1,left,['3'],3,103,[0.07378708],74,44,hard,minus,dotcolour,beta,,,62,18,V,R,
690,60,18,16,5,33,47,249,['c'],0,right,['9'],5,162,[0.04321378],37,47,medium,minus,dotcolour,beta,,,62,18,V,R,
691,61,19,16,5,44,36,1548,['c'],1,left,['0'],6,263,[0.03888883],36,44,hard,minus,dotcolour,beta,,,62,18,V,R,
692,62,20,16,5,53,27,317,['c'],1,left,['3'],3,177,[0.06060065],55,53,easy,minus,dotcolour,beta,,,62,18,V,R,
693,63,21,16,5,33,47,332,['c'],0,right,['3'],3,93,[0.03031557],18,47,medium,minus,dotcolour,beta,,,62,18,V,R,
694,64,22,16,5,53,27,649,['c'],1,left,['3'],3,89,[0.06438832],63,53,easy,minus,dotcolour,beta,,,62,18,V,R,
695,65,23,16,5,33,47,733,['c'],0,right,['2'],2,186,[0.05942415],54,47,medium,minus,dotcolour,beta,,,62,18,V,R,
696,66,24,16,5,27,53,298,['c'],0,right,['2'],2,975,[0.01692675],33,53,easy,minus,dotcolour,beta,,,62,18,V,R,
697,67,25,16,5,44,36,299,['c'],1,left,['9'],5,261,[0.07923081],70,44,hard,minus,dotcolour,beta,,,62,18,V,R,
698,68,26,16,5,36,44,931,['c'],0,right,['2'],2,311,[-0.00860409],11,44,hard,minus,dotcolour,beta,,,62,18,V,R,
699,69,27,16,5,47,33,348,['c'],1,left,['9'],5,302,[0.12058653],89,47,medium,minus,dotcolour,beta,,,62,18,V,R,
700,70,28,16,5,47,33,366,['c'],1,left,['2'],2,164,[0.15747142],99,47,medium,minus,dotcolour,beta,,,62,18,V,R,
701,71,29,16,5,53,27,548,['c'],1,left,['2'],2,113,[0.06825699],66,53,easy,minus,dotcolour,beta,,,62,18,V,R,
702,72,30,16,5,36,44,415,['c'],0,right,['2'],2,109,[0.06516519],63,44,hard,minus,dotcolour,beta,,,62,18,V,R,
703,73,31,16,5,27,53,616,['c'],0,right,['2'],2,161,[0.01606337],15,53,easy,minus,dotcolour,beta,,,62,18,V,R,
704,74,32,16,5,47,33,333,['c'],1,left,['2'],2,142,[0.12148287],96,47,medium,minus,dotcolour,beta,,,62,18,V,R,
705,75,33,16,5,44,36,467,['n'],0,left,['9'],5,95,[-0.06541445],64,44,hard,minus,dotcolour,beta,,,62,18,V,R,
706,76,34,16,5,27,53,115,['c'],0,right,['2'],2,36,[0.07042413],80,53,easy,minus,dotcolour,beta,,,62,18,V,R,
707,77,35,16,5,47,33,399,['n'],0,left,['9'],5,124,[-0.06544091],62,47,medium,minus,dotcolour,beta,,,62,18,V,R,
708,78,36,16,5,33,47,265,['c'],0,right,['2'],2,94,[0.0591331],55,47,medium,minus,dotcolour,beta,,,62,18,V,R,
709,79,37,16,5,33,47,949,['n'],1,right,['9'],5,885,[-0.08500422],64,47,medium,minus,dotcolour,beta,,,62,18,V,R,
710,80,38,16,5,36,44,831,['c'],0,right,['2'],2,193,[0.07876231],72,44,hard,minus,dotcolour,beta,,,62,18,V,R,
711,81,39,16,5,27,53,1915,['c'],0,right,['2'],2,198,[-0.03135313],3,53,easy,minus,dotcolour,beta,,,62,18,V,R,
712,82,40,16,5,53,27,1782,['c'],1,left,['2'],2,128,[0.0989805],90,53,easy,minus,dotcolour,beta,,,62,18,V,R,
713,83,41,16,5,53,27,1331,['c'],1,left,['1'],1,231,[0.14408005],96,53,easy,minus,dotcolour,beta,,,62,18,V,R,
714,84,0,17,5,27,53,849,['n'],1,right,['3'],3,3017,[-0.5191214],99,53,easy,minus,dotcolour,beta,,,62,18,V,R,
715,85,1,17,5,36,44,332,['c'],0,right,['3'],3,228,[0.11273567],90,44,hard,minus,dotcolour,beta,,,62,18,V,R,
716,86,2,17,5,33,47,298,['c'],0,right,['3'],3,312,[0.06656066],59,47,medium,minus,dotcolour,beta,,,62,18,V,R,
717,87,3,17,5,47,33,349,['c'],1,left,['3'],3,1143,[0.10131895],68,47,medium,minus,dotcolour,beta,,,62,18,V,R,
718,88,4,17,5,53,27,1300,['c'],1,left,['3'],3,230,[0.09705225],83,53,easy,minus,dotcolour,beta,,,62,18,V,R,
719,89,5,17,5,47,33,214,['c'],1,left,['3'],3,181,[0.05516698],50,47,medium,minus,dotcolour,beta,,,62,18,V,R,
720,90,6,17,5,53,27,249,['c'],1,left,['3'],3,142,[0.09568299],87,53,easy,minus,dotcolour,beta,,,62,18,V,R,
721,91,7,17,5,44,36,214,['c'],1,left,['3'],3,136,[0.07945118],76,44,hard,minus,dotcolour,beta,,,62,18,V,R,
722,92,8,17,5,36,44,281,['c'],0,right,['3'],3,105,[0.10946848],95,44,hard,minus,dotcolour,beta,,,62,18,V,R,
723,93,9,17,5,33,47,29,['c'],0,right,['3'],3,30,[0.04752458],30,47,medium,minus,dotcolour,beta,,,62,18,V,R,
724,94,10,17,5,27,53,134,['c'],0,right,['3'],3,134,[0.03050034],23,53,easy,minus,dotcolour,beta,,,62,18,V,R,
725,95,11,17,5,44,36,265,['n'],0,left,['2'],2,207,[-0.00347412],11,44,hard,minus,dotcolour,beta,,,62,18,V,R,
726,96,12,17,5,27,53,382,['c'],0,right,['2'],2,169,[0.08872275],81,53,easy,minus,dotcolour,beta,,,62,18,V,R,
727,97,13,17,5,53,27,20,['c'],1,left,['0'],6,331,[0.19662212],99,53,easy,minus,dotcolour,beta,,,62,18,V,R,
728,98,14,17,5,36,44,349,['c'],0,right,['2'],2,241,[0.03493752],32,44,hard,minus,dotcolour,beta,,,62,18,V,R,
729,99,15,17,5,27,53,349,['c'],0,right,['0'],6,243,[0.13250608],94,53,easy,minus,dotcolour,beta,,,62,18,V,R,
730,100,16,17,5,47,33,315,['c'],1,left,['0'],6,181,[0.09984354],87,47,medium,minus,dotcolour,beta,,,62,18,V,R,
731,101,17,17,5,36,44,282,['c'],0,right,['2'],2,92,[0.08461741],85,44,hard,minus,dotcolour,beta,,,62,18,V,R,
732,102,18,17,5,44,36,248,['c'],1,left,['2'],2,135,[0.07358102],71,44,hard,minus,dotcolour,beta,,,62,18,V,R,
733,103,19,17,5,33,47,233,['c'],0,right,['2'],2,186,[0.09839692],86,47,medium,minus,dotcolour,beta,,,62,18,V,R,
734,104,20,17,5,36,44,297,['c'],0,right,['2'],2,128,[0.04795176],41,44,hard,minus,dotcolour,beta,,,62,18,V,R,
735,105,21,17,5,47,33,51,['c'],1,left,['2'],2,44,[0.09158953],96,47,medium,minus,dotcolour,beta,,,62,18,V,R,
736,106,22,17,5,27,53,43,['c'],0,right,['2'],2,27,[0.07229247],86,53,easy,minus,dotcolour,beta,,,62,18,V,R,
737,107,23,17,5,53,27,267,['n'],0,left,['2'],2,177,[-0.03701319],31,53,easy,minus,dotcolour,beta,,,62,18,V,R,
738,108,24,17,5,36,44,382,['c'],0,right,['0'],6,187,[0.10630446],89,44,hard,minus,dotcolour,beta,,,62,18,V,R,
739,109,25,17,5,33,47,1164,['c'],0,right,['0'],6,295,[-0.03007407],6,47,medium,minus,dotcolour,beta,,,62,18,V,R,
740,110,26,17,5,47,33,315,['n'],0,left,['2'],2,207,[-0.0640717],58,47,medium,minus,dotcolour,beta,,,62,18,V,R,
741,111,27,17,5,47,33,1064,['c'],1,left,['3'],3,934,[0.07803399],60,47,medium,minus,dotcolour,beta,,,62,18,V,R,
742,112,28,17,5,53,27,282,['c'],1,left,['0'],6,214,[0.09521475],82,53,easy,minus,dotcolour,beta,,,62,18,V,R,
743,113,29,17,5,27,53,183,['c'],0,right,['0'],6,231,[0.04793677],43,53,easy,minus,dotcolour,beta,,,62,18,V,R,
744,114,30,17,5,53,27,298,['n'],0,left,['2'],2,235,[-0.13132665],94,53,easy,minus,dotcolour,beta,,,62,18,V,R,
745,115,31,17,5,33,47,299,['c'],0,right,['0'],6,183,[0.08997354],81,47,medium,minus,dotcolour,beta,,,62,18,V,R,
746,116,32,17,5,33,47,282,['n'],1,right,['2'],2,214,[-0.03676077],32,47,medium,minus,dotcolour,beta,,,62,18,V,R,
747,117,33,17,5,27,53,38,['c'],0,right,['9'],5,287,[0.11263185],87,53,easy,minus,dotcolour,beta,,,62,18,V,R,
748,118,34,17,5,36,44,433,['c'],0,right,['9'],5,363,[0.14763739],94,44,hard,minus,dotcolour,beta,,,62,18,V,R,
749,119,35,17,5,53,27,348,['c'],1,left,['9'],5,328,[0.13666589],93,53,easy,minus,dotcolour,beta,,,62,18,V,R,
750,120,36,17,5,44,36,75,['n'],0,left,['2'],2,196,[-0.09953424],86,44,hard,minus,dotcolour,beta,,,62,18,V,R,
751,121,37,17,5,47,33,382,['c'],1,left,['9'],5,294,[0.13324168],93,47,medium,minus,dotcolour,beta,,,62,18,V,R,
752,122,38,17,5,44,36,117,['c'],1,left,['9'],5,219,[0.12013559],92,44,hard,minus,dotcolour,beta,,,62,18,V,R,
753,123,39,17,5,33,47,416,['c'],0,right,['9'],5,587,[-0.13554562],1,47,medium,minus,dotcolour,beta,,,62,18,V,R,
754,124,40,17,5,44,36,282,['c'],1,left,['0'],6,234,[0.10324505],86,44,hard,minus,dotcolour,beta,,,62,18,V,R,
755,125,41,17,5,44,36,383,['c'],1,left,['9'],5,146,[0.06287519],59,44,hard,minus,dotcolour,beta,,,62,18,V,R,
,,,,,,,,,,,,,,,,,,,,,1,nee,62,18,V,R,
,,,,,,,,,,,,,,,,,,,,,2,['g'],62,18,V,R,
,,,,,,,,,,,,,,,,,,,,,3,['g'],62,18,V,R,
,,,,,,,,,,,,,,,,,,,,,5,"['3', '2', '1', '6', '4', '5']",62,18,V,R,
