trial,withinphasetrial,withinblocktrial,block,phase,dotsLeft,dotsRight,rt,resp,cor,cresp,conf_press,cj,RTconf,ev,fb,diff,difflevel,condition,task,manip,questionID,questionResp,sub,age,gender,handedness,
0,0,0,0,0,53,27,2201,['c'],1,left,['0'],6,3874,[0.57885964],100,53,easy,plus,dotcolour,alfa,,,122,18,V,L,
1,1,1,0,0,47,33,3916,['c'],1,left,['8'],4,2970,[0.23222041],99,47,medium,plus,dotcolour,alfa,,,122,18,V,L,
2,2,2,0,0,33,47,2683,['n'],1,right,['8'],4,3280,[-0.25075697],99,47,medium,plus,dotcolour,alfa,,,122,18,V,L,
3,3,3,0,0,36,44,4001,['c'],0,right,['3'],3,4357,[0.36361497],100,44,hard,plus,dotcolour,alfa,,,122,18,V,L,
4,4,4,0,0,47,33,1535,['n'],0,left,['9'],5,1977,[0.04404037],24,47,medium,plus,dotcolour,alfa,,,122,18,V,L,
5,5,5,0,0,36,44,1583,['n'],1,right,['9'],5,1428,[0.06931836],11,44,hard,plus,dotcolour,alfa,,,122,18,V,L,
6,6,6,0,0,53,27,3784,['n'],0,left,['8'],4,2613,[0.44730038],0,53,easy,plus,dotcolour,alfa,,,122,18,V,L,
7,7,7,0,0,33,47,5783,['c'],0,right,['2'],2,1758,[-0.15059706],2,47,medium,plus,dotcolour,alfa,,,122,18,V,L,
8,8,8,0,0,53,27,2334,['c'],1,left,['9'],5,588,[0.1703655],100,53,easy,plus,dotcolour,alfa,,,122,18,V,L,
9,9,9,0,0,36,44,1850,['c'],0,right,['9'],5,1387,[-0.25166194],0,44,hard,plus,dotcolour,alfa,,,122,18,V,L,
10,10,10,0,0,27,53,1183,['n'],1,right,['0'],6,661,[-0.08415245],98,53,easy,plus,dotcolour,alfa,,,122,18,V,L,
11,11,11,0,0,36,44,5468,['c'],0,right,['2'],2,1864,[-0.10416478],6,44,hard,plus,dotcolour,alfa,,,122,18,V,L,
12,12,12,0,0,47,33,1467,['c'],1,left,['9'],5,988,[0.0475238],85,47,medium,plus,dotcolour,alfa,,,122,18,V,L,
13,13,13,0,0,36,44,1533,['n'],1,right,['9'],5,465,[-0.14076666],100,44,hard,plus,dotcolour,alfa,,,122,18,V,L,
14,14,14,0,0,33,47,1200,['n'],1,right,['9'],5,719,[-0.13150377],100,47,medium,plus,dotcolour,alfa,,,122,18,V,L,
15,15,15,0,0,33,47,1967,['n'],1,right,['8'],4,1548,[-0.39797357],100,47,medium,plus,dotcolour,alfa,,,122,18,V,L,
16,16,16,0,0,27,53,1068,['n'],1,right,['0'],6,756,[-0.32838853],100,53,easy,plus,dotcolour,alfa,,,122,18,V,L,
17,17,17,0,0,33,47,3318,['n'],1,right,['8'],4,1330,[-0.18088288],100,47,medium,plus,dotcolour,alfa,,,122,18,V,L,
18,18,18,0,0,53,27,1100,['c'],1,left,['9'],5,2561,[0.60156724],100,53,easy,plus,dotcolour,alfa,,,122,18,V,L,
19,19,19,0,0,44,36,1400,['c'],1,left,['9'],5,363,[0.11321005],100,44,hard,plus,dotcolour,alfa,,,122,18,V,L,
20,20,20,0,0,53,27,1067,['c'],1,left,['9'],5,459,[0.25915202],100,53,easy,plus,dotcolour,alfa,,,122,18,V,L,
21,21,21,0,0,44,36,1167,['c'],1,left,['8'],4,1268,[0.14912163],99,44,hard,plus,dotcolour,alfa,,,122,18,V,L,
22,22,22,0,0,44,36,1033,['c'],1,left,['8'],4,881,[0.01351832],63,44,hard,plus,dotcolour,alfa,,,122,18,V,L,
23,23,23,0,0,33,47,3266,['c'],0,right,['3'],3,1852,[0.06931495],86,47,medium,plus,dotcolour,alfa,,,122,18,V,L,
24,24,24,0,0,27,53,1117,['n'],1,right,['0'],6,470,[-0.23086901],100,53,easy,plus,dotcolour,alfa,,,122,18,V,L,
25,25,25,0,0,36,44,1066,['n'],1,right,['9'],5,482,[-0.20173467],100,44,hard,plus,dotcolour,alfa,,,122,18,V,L,
26,26,26,0,0,27,53,1533,['n'],1,right,['8'],4,531,[-0.20663793],100,53,easy,plus,dotcolour,alfa,,,122,18,V,L,
27,27,27,0,0,36,44,2200,['n'],1,right,['8'],4,887,[-0.06555426],92,44,hard,plus,dotcolour,alfa,,,122,18,V,L,
28,28,28,0,0,47,33,2733,['c'],1,left,['3'],3,2023,[0.47363164],100,47,medium,plus,dotcolour,alfa,,,122,18,V,L,
29,29,29,0,0,44,36,2366,['c'],1,left,['8'],4,1297,[0.1431242],99,44,hard,plus,dotcolour,alfa,,,122,18,V,L,
30,30,30,0,0,53,27,2717,['c'],1,left,['9'],5,689,[0.22361941],100,53,easy,plus,dotcolour,alfa,,,122,18,V,L,
31,31,31,0,0,27,53,1816,['n'],1,right,['9'],5,701,[-0.22871201],100,53,easy,plus,dotcolour,alfa,,,122,18,V,L,
32,32,32,0,0,33,47,951,['n'],1,right,['0'],6,557,[-0.08506396],98,47,medium,plus,dotcolour,alfa,,,122,18,V,L,
33,33,33,0,0,44,36,2249,['c'],1,left,['9'],5,1357,[0.06662916],89,44,hard,plus,dotcolour,alfa,,,122,18,V,L,
34,34,34,0,0,47,33,2233,['c'],1,left,['3'],3,1591,[0.22258316],100,47,medium,plus,dotcolour,alfa,,,122,18,V,L,
35,35,35,0,0,53,27,1183,['c'],1,left,['9'],5,754,[-0.02223511],28,53,easy,plus,dotcolour,alfa,,,122,18,V,L,
36,36,36,0,0,27,53,1317,['n'],1,right,['0'],6,663,[-0.24015404],100,53,easy,plus,dotcolour,alfa,,,122,18,V,L,
37,37,37,0,0,44,36,1434,['c'],1,left,['8'],4,1493,[0.18958254],100,44,hard,plus,dotcolour,alfa,,,122,18,V,L,
38,38,38,0,0,47,33,1449,['c'],1,left,['8'],4,1320,[0.32053651],100,47,medium,plus,dotcolour,alfa,,,122,18,V,L,
39,39,39,0,0,44,36,1618,['c'],1,left,['9'],5,811,[0.17660458],100,44,hard,plus,dotcolour,alfa,,,122,18,V,L,
40,40,40,0,0,27,53,1117,['n'],1,right,['9'],5,447,[-0.08167391],99,53,easy,plus,dotcolour,alfa,,,122,18,V,L,
41,41,41,0,0,47,33,1633,['c'],1,left,['8'],4,1077,[0.33409477],100,47,medium,plus,dotcolour,alfa,,,122,18,V,L,
42,42,0,1,0,33,47,1118,['n'],1,right,['0'],6,1265,[-0.24218664],100,47,medium,plus,dotcolour,alfa,,,122,18,V,L,
43,43,1,1,0,53,27,7566,['c'],1,left,['3'],3,2056,[0.3330809],100,53,easy,plus,dotcolour,alfa,,,122,18,V,L,
44,44,2,1,0,44,36,2750,['c'],1,left,['3'],3,897,[0.20815918],100,44,hard,plus,dotcolour,alfa,,,122,18,V,L,
45,45,3,1,0,33,47,1384,['n'],1,right,['3'],3,1736,[-0.25238904],100,47,medium,plus,dotcolour,alfa,,,122,18,V,L,
46,46,4,1,0,33,47,1533,['n'],1,right,['0'],6,2429,[0.03604502],30,47,medium,plus,dotcolour,alfa,,,122,18,V,L,
47,47,5,1,0,47,33,2167,['c'],1,left,['9'],5,870,[0.05711377],90,47,medium,plus,dotcolour,alfa,,,122,18,V,L,
48,48,6,1,0,27,53,1250,['n'],1,right,['0'],6,562,[-0.13165928],100,53,easy,plus,dotcolour,alfa,,,122,18,V,L,
49,49,7,1,0,27,53,1734,['n'],1,right,['9'],5,560,[-0.06332972],95,53,easy,plus,dotcolour,alfa,,,122,18,V,L,
50,50,8,1,0,44,36,2033,['c'],1,left,['8'],4,1992,[0.19776341],99,44,hard,plus,dotcolour,alfa,,,122,18,V,L,
51,51,9,1,0,47,33,2067,['c'],1,left,['8'],4,911,[0.24882935],100,47,medium,plus,dotcolour,alfa,,,122,18,V,L,
52,52,10,1,0,47,33,1316,['c'],1,left,['9'],5,543,[0.11915212],100,47,medium,plus,dotcolour,alfa,,,122,18,V,L,
53,53,11,1,0,44,36,2350,['n'],0,left,['9'],5,788,[0.01118912],39,44,hard,plus,dotcolour,alfa,,,122,18,V,L,
54,54,12,1,0,44,36,1550,['c'],1,left,['9'],5,408,[0.08484718],99,44,hard,plus,dotcolour,alfa,,,122,18,V,L,
55,55,13,1,0,53,27,1417,['n'],0,left,['0'],6,1201,[0.19580312],0,53,easy,plus,dotcolour,alfa,,,122,18,V,L,
56,56,14,1,0,27,53,1233,['n'],1,right,['0'],6,344,[-0.20175381],100,53,easy,plus,dotcolour,alfa,,,122,18,V,L,
57,57,15,1,0,47,33,3034,['c'],1,left,['8'],4,953,[0.09939563],98,47,medium,plus,dotcolour,alfa,,,122,18,V,L,
58,58,16,1,0,53,27,1000,['c'],1,left,['0'],6,428,[0.06862484],98,53,easy,plus,dotcolour,alfa,,,122,18,V,L,
59,59,17,1,0,36,44,1117,['n'],1,right,['0'],6,471,[-0.12408978],100,44,hard,plus,dotcolour,alfa,,,122,18,V,L,
60,60,18,1,0,44,36,2032,['c'],1,left,['8'],4,1469,[0.33294822],100,44,hard,plus,dotcolour,alfa,,,122,18,V,L,
61,61,19,1,0,47,33,1566,['n'],0,left,['3'],3,2020,[-0.04505276],76,47,medium,plus,dotcolour,alfa,,,122,18,V,L,
62,62,20,1,0,36,44,1800,['n'],1,right,['8'],4,611,[-0.09667928],99,44,hard,plus,dotcolour,alfa,,,122,18,V,L,
63,63,21,1,0,36,44,1600,['c'],0,right,['8'],4,1556,[-0.09965844],5,44,hard,plus,dotcolour,alfa,,,122,18,V,L,
64,64,22,1,0,47,33,3668,['c'],1,left,['8'],4,1140,[0.34386926],100,47,medium,plus,dotcolour,alfa,,,122,18,V,L,
65,65,23,1,0,27,53,1201,['n'],1,right,['0'],6,312,[-0.12642987],100,53,easy,plus,dotcolour,alfa,,,122,18,V,L,
66,66,24,1,0,27,53,1050,['n'],1,right,['0'],6,435,[-0.21662984],100,53,easy,plus,dotcolour,alfa,,,122,18,V,L,
67,67,25,1,0,33,47,867,['n'],1,right,['0'],6,10416,[-0.67039349],100,47,medium,plus,dotcolour,alfa,,,122,18,V,L,
68,68,26,1,0,53,27,2750,['c'],1,left,['8'],4,679,[0.20056943],100,53,easy,plus,dotcolour,alfa,,,122,18,V,L,
69,69,27,1,0,44,36,1766,['n'],0,left,['8'],4,710,[-0.04338392],86,44,hard,plus,dotcolour,alfa,,,122,18,V,L,
70,70,28,1,0,27,53,1217,['n'],1,right,['0'],6,427,[-0.13436585],100,53,easy,plus,dotcolour,alfa,,,122,18,V,L,
71,71,29,1,0,33,47,1050,['n'],1,right,['9'],5,728,[-0.11006104],99,47,medium,plus,dotcolour,alfa,,,122,18,V,L,
72,72,30,1,0,36,44,1100,['c'],0,right,['8'],4,762,[-0.00370576],46,44,hard,plus,dotcolour,alfa,,,122,18,V,L,
73,73,31,1,0,27,53,3833,['n'],1,right,['9'],5,763,[-0.0674327],94,53,easy,plus,dotcolour,alfa,,,122,18,V,L,
74,74,32,1,0,53,27,1033,['c'],1,left,['0'],6,644,[0.168614],100,53,easy,plus,dotcolour,alfa,,,122,18,V,L,
75,75,33,1,0,47,33,2067,['n'],0,left,['9'],5,984,[0.06596443],8,47,medium,plus,dotcolour,alfa,,,122,18,V,L,
76,76,34,1,0,53,27,5250,['c'],1,left,['8'],4,1792,[0.42971027],100,53,easy,plus,dotcolour,alfa,,,122,18,V,L,
77,77,35,1,0,53,27,1067,['c'],1,left,['8'],4,918,[0.20545607],100,53,easy,plus,dotcolour,alfa,,,122,18,V,L,
78,78,36,1,0,33,47,3200,['n'],1,right,['3'],3,763,[-0.0617339],93,47,medium,plus,dotcolour,alfa,,,122,18,V,L,
79,79,37,1,0,36,44,1750,['n'],1,right,['8'],4,967,[-0.18186161],100,44,hard,plus,dotcolour,alfa,,,122,18,V,L,
80,80,38,1,0,36,44,950,['n'],1,right,['9'],5,459,[-0.0406137],90,44,hard,plus,dotcolour,alfa,,,122,18,V,L,
81,81,39,1,0,33,47,966,['n'],1,right,['8'],4,612,[-0.11563219],100,47,medium,plus,dotcolour,alfa,,,122,18,V,L,
82,82,40,1,0,44,36,1801,['n'],0,left,['8'],4,964,[0.05317076],12,44,hard,plus,dotcolour,alfa,,,122,18,V,L,
83,83,41,1,0,36,44,867,['n'],1,right,['8'],4,412,[-0.05990025],97,44,hard,plus,dotcolour,alfa,,,122,18,V,L,
84,84,0,2,0,44,36,4334,['c'],1,left,['8'],4,806,[0.06473578],93,44,hard,plus,dotcolour,alfa,,,122,18,V,L,
85,85,1,2,0,27,53,1350,['n'],1,right,['9'],5,617,[-0.08633632],98,53,easy,plus,dotcolour,alfa,,,122,18,V,L,
86,86,2,2,0,33,47,1316,['n'],1,right,['9'],5,1741,[-0.2107454],100,47,medium,plus,dotcolour,alfa,,,122,18,V,L,
87,87,3,2,0,47,33,1217,['c'],1,left,['9'],5,480,[0.04024365],89,47,medium,plus,dotcolour,alfa,,,122,18,V,L,
88,88,4,2,0,47,33,1933,['c'],1,left,['9'],5,577,[0.06722434],96,47,medium,plus,dotcolour,alfa,,,122,18,V,L,
89,89,5,2,0,53,27,1582,['c'],1,left,['0'],6,1051,[0.2129278],100,53,easy,plus,dotcolour,alfa,,,122,18,V,L,
90,90,6,2,0,27,53,1667,['n'],1,right,['8'],4,871,[-0.2269194],100,53,easy,plus,dotcolour,alfa,,,122,18,V,L,
91,91,7,2,0,36,44,1184,['n'],1,right,['8'],4,606,[-0.10664252],99,44,hard,plus,dotcolour,alfa,,,122,18,V,L,
92,92,8,2,0,33,47,1700,['c'],0,right,['8'],4,586,[0.04916521],91,47,medium,plus,dotcolour,alfa,,,122,18,V,L,
93,93,9,2,0,53,27,1083,['c'],1,left,['0'],6,1272,[0.40477389],100,53,easy,plus,dotcolour,alfa,,,122,18,V,L,
94,94,10,2,0,53,27,1184,['c'],1,left,['9'],5,1351,[0.16522007],99,53,easy,plus,dotcolour,alfa,,,122,18,V,L,
95,95,11,2,0,53,27,1465,['c'],1,left,['8'],4,735,[0.02996447],78,53,easy,plus,dotcolour,alfa,,,122,18,V,L,
96,96,12,2,0,53,27,1034,['c'],1,left,['9'],5,881,[0.09216653],97,53,easy,plus,dotcolour,alfa,,,122,18,V,L,
97,97,13,2,0,36,44,1415,['c'],0,right,['9'],5,831,[-0.07194823],6,44,hard,plus,dotcolour,alfa,,,122,18,V,L,
98,98,14,2,0,44,36,1150,['n'],0,left,['8'],4,1168,[-0.1456233],99,44,hard,plus,dotcolour,alfa,,,122,18,V,L,
99,99,15,2,0,44,36,3000,['c'],1,left,['9'],5,834,[0.04530522],86,44,hard,plus,dotcolour,alfa,,,122,18,V,L,
100,100,16,2,0,44,36,3100,['c'],1,left,['8'],4,958,[0.2302533],100,44,hard,plus,dotcolour,alfa,,,122,18,V,L,
101,101,17,2,0,47,33,3283,['c'],1,left,['8'],4,622,[0.10208371],99,47,medium,plus,dotcolour,alfa,,,122,18,V,L,
102,102,18,2,0,27,53,1367,['n'],1,right,['0'],6,447,[-0.18580391],100,53,easy,plus,dotcolour,alfa,,,122,18,V,L,
103,103,19,2,0,47,33,1633,['c'],1,left,['9'],5,501,[0.19665634],100,47,medium,plus,dotcolour,alfa,,,122,18,V,L,
104,104,20,2,0,44,36,1367,['c'],1,left,['9'],5,628,[0.08592077],98,44,hard,plus,dotcolour,alfa,,,122,18,V,L,
105,105,21,2,0,53,27,2451,['c'],1,left,['8'],4,1226,[0.29305429],100,53,easy,plus,dotcolour,alfa,,,122,18,V,L,
106,106,22,2,0,36,44,1450,['n'],1,right,['8'],4,927,[-0.31728986],100,44,hard,plus,dotcolour,alfa,,,122,18,V,L,
107,107,23,2,0,27,53,1118,['n'],1,right,['8'],4,687,[-0.01593477],67,53,easy,plus,dotcolour,alfa,,,122,18,V,L,
108,108,24,2,0,27,53,1783,['n'],1,right,['9'],5,453,[-0.12683208],100,53,easy,plus,dotcolour,alfa,,,122,18,V,L,
109,109,25,2,0,47,33,1283,['c'],1,left,['9'],5,1217,[0.06384859],89,47,medium,plus,dotcolour,alfa,,,122,18,V,L,
110,110,26,2,0,33,47,4416,['n'],1,right,['9'],5,1041,[-0.15768248],100,47,medium,plus,dotcolour,alfa,,,122,18,V,L,
111,111,27,2,0,47,33,1850,['c'],1,left,['8'],4,670,[0.13711358],100,47,medium,plus,dotcolour,alfa,,,122,18,V,L,
112,112,28,2,0,33,47,2248,['n'],1,right,['8'],4,499,[-0.12722993],100,47,medium,plus,dotcolour,alfa,,,122,18,V,L,
113,113,29,2,0,33,47,1184,['n'],1,right,['8'],4,680,[-0.02199075],72,47,medium,plus,dotcolour,alfa,,,122,18,V,L,
114,114,30,2,0,33,47,1166,['n'],1,right,['8'],4,479,[-0.0051661],57,47,medium,plus,dotcolour,alfa,,,122,18,V,L,
115,115,31,2,0,44,36,1533,['c'],1,left,['9'],5,992,[0.12672942],99,44,hard,plus,dotcolour,alfa,,,122,18,V,L,
116,116,32,2,0,36,44,1951,['c'],0,right,['8'],4,1179,[-0.06673892],10,44,hard,plus,dotcolour,alfa,,,122,18,V,L,
117,117,33,2,0,36,44,1150,['n'],1,right,['9'],5,719,[-0.02900993],77,44,hard,plus,dotcolour,alfa,,,122,18,V,L,
118,118,34,2,0,44,36,3084,['c'],1,left,['8'],4,824,[0.0714686],94,44,hard,plus,dotcolour,alfa,,,122,18,V,L,
119,119,35,2,0,47,33,4016,['n'],0,left,['8'],4,719,[-0.03357954],81,47,medium,plus,dotcolour,alfa,,,122,18,V,L,
120,120,36,2,0,27,53,2151,['n'],1,right,['8'],4,686,[-0.12721962],100,53,easy,plus,dotcolour,alfa,,,122,18,V,L,
121,121,37,2,0,33,47,2300,['c'],0,right,['8'],4,1007,[0.02611766],72,47,medium,plus,dotcolour,alfa,,,122,18,V,L,
122,122,38,2,0,27,53,834,['n'],1,right,['9'],5,495,[-0.23249316],100,53,easy,plus,dotcolour,alfa,,,122,18,V,L,
123,123,39,2,0,53,27,1133,['c'],1,left,['0'],6,375,[0.10719453],100,53,easy,plus,dotcolour,alfa,,,122,18,V,L,
124,124,40,2,0,36,44,1000,['n'],1,right,['9'],5,1776,[-0.36680405],100,44,hard,plus,dotcolour,alfa,,,122,18,V,L,
125,125,41,2,0,36,44,1683,['n'],1,right,['8'],4,687,[-0.1277307],100,44,hard,plus,dotcolour,alfa,,,122,18,V,L,
126,0,0,3,1,27,53,1383,['n'],1,right,['9'],5,935,[-0.32688],95,53,easy,minus,dotcolour,alfa,,,122,18,V,L,
127,1,1,3,1,47,33,1434,['c'],1,left,['8'],4,586,[0.12182312],81,47,medium,minus,dotcolour,alfa,,,122,18,V,L,
128,2,2,3,1,44,36,1900,['n'],0,left,['8'],4,456,[-0.16273081],90,44,hard,minus,dotcolour,alfa,,,122,18,V,L,
129,3,3,3,1,47,33,2101,['c'],1,left,['8'],4,1123,[0.16458545],80,47,medium,minus,dotcolour,alfa,,,122,18,V,L,
130,4,4,3,1,33,47,1001,['n'],1,right,['9'],5,551,[-0.1401186],85,47,medium,minus,dotcolour,alfa,,,122,18,V,L,
131,5,5,3,1,27,53,750,['n'],1,right,['9'],5,349,[-0.10522352],83,53,easy,minus,dotcolour,alfa,,,122,18,V,L,
132,6,6,3,1,36,44,2733,['n'],1,right,['8'],4,1067,[-0.23483506],89,44,hard,minus,dotcolour,alfa,,,122,18,V,L,
133,7,7,3,1,47,33,1317,['n'],0,left,['8'],4,796,[-0.10288034],74,47,medium,minus,dotcolour,alfa,,,122,18,V,L,
134,8,8,3,1,36,44,1200,['n'],1,right,['8'],4,669,[-0.14315082],83,44,hard,minus,dotcolour,alfa,,,122,18,V,L,
135,9,9,3,1,44,36,1500,['n'],0,left,['8'],4,711,[0.0026954],49,44,hard,minus,dotcolour,alfa,,,122,18,V,L,
136,10,10,3,1,33,47,1650,['n'],1,right,['3'],3,1074,[-0.20220945],85,47,medium,minus,dotcolour,alfa,,,122,18,V,L,
137,11,11,3,1,53,27,1834,['c'],1,left,['8'],4,1038,[0.23326666],89,53,easy,minus,dotcolour,alfa,,,122,18,V,L,
138,12,12,3,1,33,47,1899,['n'],1,right,['8'],4,498,[-0.14067969],86,47,medium,minus,dotcolour,alfa,,,122,18,V,L,
139,13,13,3,1,33,47,2350,['c'],0,right,['8'],4,497,[0.12661894],83,47,medium,minus,dotcolour,alfa,,,122,18,V,L,
140,14,14,3,1,33,47,1184,['n'],1,right,['8'],4,527,[-0.08568497],74,47,medium,minus,dotcolour,alfa,,,122,18,V,L,
141,15,15,3,1,36,44,1950,['c'],0,right,['8'],4,2309,[-0.05002811],43,44,hard,minus,dotcolour,alfa,,,122,18,V,L,
142,16,16,3,1,47,33,1583,['c'],1,left,['9'],5,395,[0.04933872],67,47,medium,minus,dotcolour,alfa,,,122,18,V,L,
143,17,17,3,1,36,44,3150,['c'],0,right,['8'],4,398,[0.02071153],57,44,hard,minus,dotcolour,alfa,,,122,18,V,L,
144,18,18,3,1,53,27,1800,['c'],1,left,['0'],6,1479,[0.27845086],89,53,easy,minus,dotcolour,alfa,,,122,18,V,L,
145,19,19,3,1,36,44,2167,['c'],0,right,['8'],4,350,[0.01179893],54,44,hard,minus,dotcolour,alfa,,,122,18,V,L,
146,20,20,3,1,44,36,1916,['n'],0,left,['8'],4,541,[-0.04296377],63,44,hard,minus,dotcolour,alfa,,,122,18,V,L,
147,21,21,3,1,27,53,1233,['n'],1,right,['9'],5,495,[-0.20399024],93,53,easy,minus,dotcolour,alfa,,,122,18,V,L,
148,22,22,3,1,36,44,3516,['n'],1,right,['8'],4,343,[-0.05598031],70,44,hard,minus,dotcolour,alfa,,,122,18,V,L,
149,23,23,3,1,47,33,1650,['c'],1,left,['8'],4,585,[0.08038154],72,47,medium,minus,dotcolour,alfa,,,122,18,V,L,
150,24,24,3,1,27,53,1100,['n'],1,right,['0'],6,543,[-0.31599041],98,53,easy,minus,dotcolour,alfa,,,122,18,V,L,
151,25,25,3,1,27,53,1333,['n'],1,right,['0'],6,421,[-0.14973428],89,53,easy,minus,dotcolour,alfa,,,122,18,V,L,
152,26,26,3,1,53,27,1517,['c'],1,left,['0'],6,473,[0.1352497],85,53,easy,minus,dotcolour,alfa,,,122,18,V,L,
153,27,27,3,1,33,47,1133,['n'],1,right,['9'],5,586,[-0.09557871],75,47,medium,minus,dotcolour,alfa,,,122,18,V,L,
154,28,28,3,1,47,33,1933,['c'],1,left,['8'],4,550,[0.14455339],85,47,medium,minus,dotcolour,alfa,,,122,18,V,L,
155,29,29,3,1,33,47,1067,['n'],1,right,['8'],4,622,[-0.04870196],64,47,medium,minus,dotcolour,alfa,,,122,18,V,L,
156,30,30,3,1,47,33,1383,['c'],1,left,['9'],5,800,[0.23132098],91,47,medium,minus,dotcolour,alfa,,,122,18,V,L,
157,31,31,3,1,27,53,1117,['n'],1,right,['9'],5,756,[-0.09638964],73,53,easy,minus,dotcolour,alfa,,,122,18,V,L,
158,32,32,3,1,27,53,1434,['n'],1,right,['8'],4,525,[-0.16033854],88,53,easy,minus,dotcolour,alfa,,,122,18,V,L,
159,33,33,3,1,53,27,999,['c'],1,left,['8'],4,769,[0.24983538],93,53,easy,minus,dotcolour,alfa,,,122,18,V,L,
160,34,34,3,1,44,36,1467,['c'],1,left,['9'],5,841,[0.15705555],82,44,hard,minus,dotcolour,alfa,,,122,18,V,L,
161,35,35,3,1,36,44,966,['n'],1,right,['9'],5,641,[-0.11063974],78,44,hard,minus,dotcolour,alfa,,,122,18,V,L,
162,36,36,3,1,53,27,1233,['c'],1,left,['0'],6,1279,[0.39400964],96,53,easy,minus,dotcolour,alfa,,,122,18,V,L,
163,37,37,3,1,44,36,1651,['c'],1,left,['8'],4,571,[0.11501708],80,44,hard,minus,dotcolour,alfa,,,122,18,V,L,
164,38,38,3,1,53,27,1017,['c'],1,left,['9'],5,557,[0.16260803],88,53,easy,minus,dotcolour,alfa,,,122,18,V,L,
165,39,39,3,1,44,36,1966,['n'],0,left,['8'],4,577,[0.00509738],48,44,hard,minus,dotcolour,alfa,,,122,18,V,L,
166,40,40,3,1,53,27,986,['c'],1,left,['8'],4,643,[0.22969898],93,53,easy,minus,dotcolour,alfa,,,122,18,V,L,
167,41,41,3,1,44,36,1967,['c'],1,left,['8'],4,388,[0.10235624],81,44,hard,minus,dotcolour,alfa,,,122,18,V,L,
168,42,0,4,1,36,44,951,['n'],1,right,['9'],5,1189,[0.04547541],41,44,hard,minus,dotcolour,alfa,,,122,18,V,L,
169,43,1,4,1,36,44,2834,['n'],1,right,['8'],4,533,[-0.26228495],96,44,hard,minus,dotcolour,alfa,,,122,18,V,L,
170,44,2,4,1,47,33,1833,['c'],1,left,['8'],4,768,[0.08513039],71,47,medium,minus,dotcolour,alfa,,,122,18,V,L,
171,45,3,4,1,36,44,1500,['c'],0,right,['8'],4,967,[0.00599672],51,44,hard,minus,dotcolour,alfa,,,122,18,V,L,
172,46,4,4,1,44,36,2301,['n'],0,left,['3'],3,1212,[-0.04281351],59,44,hard,minus,dotcolour,alfa,,,122,18,V,L,
173,47,5,4,1,53,27,1250,['c'],1,left,['8'],4,580,[0.18101378],89,53,easy,minus,dotcolour,alfa,,,122,18,V,L,
174,48,6,4,1,53,27,934,['c'],1,left,['8'],4,728,[0.20886756],90,53,easy,minus,dotcolour,alfa,,,122,18,V,L,
175,49,7,4,1,47,33,1234,['c'],1,left,['9'],5,755,[0.16992356],85,47,medium,minus,dotcolour,alfa,,,122,18,V,L,
176,50,8,4,1,33,47,1533,['n'],1,right,['8'],4,1016,[-0.27969649],92,47,medium,minus,dotcolour,alfa,,,122,18,V,L,
177,51,9,4,1,27,53,1033,['c'],0,right,['9'],5,591,[0.14441775],84,53,easy,minus,dotcolour,alfa,,,122,18,V,L,
178,52,10,4,1,47,33,1534,['c'],1,left,['8'],4,596,[0.25620354],95,47,medium,minus,dotcolour,alfa,,,122,18,V,L,
179,53,11,4,1,33,47,1434,['n'],1,right,['8'],4,1115,[-0.34854748],95,47,medium,minus,dotcolour,alfa,,,122,18,V,L,
180,54,12,4,1,33,47,1799,['n'],1,right,['8'],4,407,[-0.17143914],92,47,medium,minus,dotcolour,alfa,,,122,18,V,L,
181,55,13,4,1,44,36,1301,['c'],1,left,['8'],4,356,[0.15425345],91,44,hard,minus,dotcolour,alfa,,,122,18,V,L,
182,56,14,4,1,33,47,1016,['n'],1,right,['8'],4,390,[-0.23616286],97,47,medium,minus,dotcolour,alfa,,,122,18,V,L,
183,57,15,4,1,27,53,950,['n'],1,right,['9'],5,1650,[-0.27095984],87,53,easy,minus,dotcolour,alfa,,,122,18,V,L,
184,58,16,4,1,53,27,1267,['n'],0,left,['8'],4,654,[-0.00519332],51,53,easy,minus,dotcolour,alfa,,,122,18,V,L,
185,59,17,4,1,47,33,4535,['n'],0,left,['8'],4,1727,[0.10865911],32,47,medium,minus,dotcolour,alfa,,,122,18,V,L,
186,60,18,4,1,44,36,1266,['c'],1,left,['8'],4,544,[0.09695073],77,44,hard,minus,dotcolour,alfa,,,122,18,V,L,
187,61,19,4,1,33,47,1567,['n'],1,right,['9'],5,1581,[-0.48132782],97,47,medium,minus,dotcolour,alfa,,,122,18,V,L,
188,62,20,4,1,27,53,1067,['n'],1,right,['9'],5,444,[-0.11135445],82,53,easy,minus,dotcolour,alfa,,,122,18,V,L,
189,63,21,4,1,27,53,918,['n'],1,right,['9'],5,423,[-0.20142995],94,53,easy,minus,dotcolour,alfa,,,122,18,V,L,
190,64,22,4,1,53,27,1000,['c'],1,left,['8'],4,662,[0.21872774],92,53,easy,minus,dotcolour,alfa,,,122,18,V,L,
191,65,23,4,1,27,53,1501,['n'],1,right,['8'],4,409,[-0.27667073],98,53,easy,minus,dotcolour,alfa,,,122,18,V,L,
192,66,24,4,1,44,36,2116,['c'],1,left,['8'],4,429,[0.15281443],89,44,hard,minus,dotcolour,alfa,,,122,18,V,L,
193,67,25,4,1,36,44,1083,['n'],1,right,['8'],4,651,[-0.2373533],93,44,hard,minus,dotcolour,alfa,,,122,18,V,L,
194,68,26,4,1,27,53,1117,['n'],1,right,['9'],5,572,[-0.10439777],78,53,easy,minus,dotcolour,alfa,,,122,18,V,L,
195,69,27,4,1,47,33,1233,['c'],1,left,['8'],4,462,[0.14002678],86,47,medium,minus,dotcolour,alfa,,,122,18,V,L,
196,70,28,4,1,53,27,966,['c'],1,left,['9'],5,621,[0.28600476],96,53,easy,minus,dotcolour,alfa,,,122,18,V,L,
197,71,29,4,1,44,36,1750,['c'],1,left,['8'],4,455,[0.14011978],87,44,hard,minus,dotcolour,alfa,,,122,18,V,L,
198,72,30,4,1,33,47,1433,['c'],0,right,['8'],4,453,[0.06360031],70,47,medium,minus,dotcolour,alfa,,,122,18,V,L,
199,73,31,4,1,47,33,767,['c'],1,left,['9'],5,438,[0.08171818],75,47,medium,minus,dotcolour,alfa,,,122,18,V,L,
200,74,32,4,1,27,53,1368,['n'],1,right,['9'],5,359,[-0.11572696],85,53,easy,minus,dotcolour,alfa,,,122,18,V,L,
201,75,33,4,1,44,36,1867,['c'],1,left,['8'],4,326,[0.18174163],95,44,hard,minus,dotcolour,alfa,,,122,18,V,L,
202,76,34,4,1,44,36,1299,['c'],1,left,['9'],5,598,[-0.04180648],38,44,hard,minus,dotcolour,alfa,,,122,18,V,L,
203,77,35,4,1,36,44,2383,['c'],0,right,['8'],4,769,[0.02044396],55,44,hard,minus,dotcolour,alfa,,,122,18,V,L,
204,78,36,4,1,53,27,950,['c'],1,left,['9'],5,396,[0.01764717],56,53,easy,minus,dotcolour,alfa,,,122,18,V,L,
205,79,37,4,1,36,44,1384,['n'],1,right,['8'],4,510,[-0.05625073],67,44,hard,minus,dotcolour,alfa,,,122,18,V,L,
206,80,38,4,1,53,27,1867,['c'],1,left,['9'],5,529,[0.19225465],92,53,easy,minus,dotcolour,alfa,,,122,18,V,L,
207,81,39,4,1,47,33,2367,['c'],1,left,['8'],4,766,[0.10111121],74,47,medium,minus,dotcolour,alfa,,,122,18,V,L,
208,82,40,4,1,36,44,2117,['c'],0,right,['8'],4,420,[0.02923486],60,44,hard,minus,dotcolour,alfa,,,122,18,V,L,
209,83,41,4,1,33,47,1000,['n'],1,right,['9'],5,260,[-0.0985267],85,47,medium,minus,dotcolour,alfa,,,122,18,V,L,
210,84,0,5,1,44,36,1701,['c'],1,left,['9'],5,728,[0.28404835],95,44,hard,minus,dotcolour,alfa,,,122,18,V,L,
211,85,1,5,1,53,27,1117,['c'],1,left,['9'],5,791,[0.07070429],67,53,easy,minus,dotcolour,alfa,,,122,18,V,L,
212,86,2,5,1,36,44,1816,['n'],1,right,['8'],4,440,[-0.0877017],77,44,hard,minus,dotcolour,alfa,,,122,18,V,L,
213,87,3,5,1,44,36,2067,['c'],1,left,['9'],5,1053,[0.01271004],53,44,hard,minus,dotcolour,alfa,,,122,18,V,L,
214,88,4,5,1,27,53,918,['n'],1,right,['9'],5,591,[-0.17706619],89,53,easy,minus,dotcolour,alfa,,,122,18,V,L,
215,89,5,5,1,44,36,1567,['c'],1,left,['9'],5,1097,[-0.14586645],22,44,hard,minus,dotcolour,alfa,,,122,18,V,L,
216,90,6,5,1,53,27,917,['c'],1,left,['9'],5,394,[0.28037019],98,53,easy,minus,dotcolour,alfa,,,122,18,V,L,
217,91,7,5,1,44,36,1316,['c'],1,left,['9'],5,359,[0.11519659],85,44,hard,minus,dotcolour,alfa,,,122,18,V,L,
218,92,8,5,1,47,33,1234,['c'],1,left,['8'],4,1281,[0.08756695],67,47,medium,minus,dotcolour,alfa,,,122,18,V,L,
219,93,9,5,1,27,53,1133,['n'],1,right,['9'],5,273,[-0.01476699],56,53,easy,minus,dotcolour,alfa,,,122,18,V,L,
220,94,10,5,1,27,53,1217,['n'],1,right,['8'],4,558,[-0.09909566],77,53,easy,minus,dotcolour,alfa,,,122,18,V,L,
221,95,11,5,1,47,33,800,['c'],1,left,['9'],5,377,[0.06986456],74,47,medium,minus,dotcolour,alfa,,,122,18,V,L,
222,96,12,5,1,53,27,1517,['c'],1,left,['8'],4,406,[0.08664064],77,53,easy,minus,dotcolour,alfa,,,122,18,V,L,
223,97,13,5,1,53,27,684,['c'],1,left,['9'],5,428,[0.11799447],84,53,easy,minus,dotcolour,alfa,,,122,18,V,L,
224,98,14,5,1,27,53,1200,['n'],1,right,['9'],5,1484,[-0.30032213],90,53,easy,minus,dotcolour,alfa,,,122,18,V,L,
225,99,15,5,1,53,27,983,['c'],1,left,['0'],6,410,[0.21431216],95,53,easy,minus,dotcolour,alfa,,,122,18,V,L,
226,100,16,5,1,33,47,1083,['n'],1,right,['0'],6,287,[-0.22877793],98,47,medium,minus,dotcolour,alfa,,,122,18,V,L,
227,101,17,5,1,47,33,850,['c'],1,left,['9'],5,331,[0.19216656],95,47,medium,minus,dotcolour,alfa,,,122,18,V,L,
228,102,18,5,1,47,33,1017,['c'],1,left,['9'],5,383,[0.04678749],66,47,medium,minus,dotcolour,alfa,,,122,18,V,L,
229,103,19,5,1,44,36,1017,['c'],1,left,['8'],4,432,[0.03058385],60,44,hard,minus,dotcolour,alfa,,,122,18,V,L,
230,104,20,5,1,36,44,852,['n'],1,right,['9'],5,398,[-0.0748749],74,44,hard,minus,dotcolour,alfa,,,122,18,V,L,
231,105,21,5,1,36,44,967,['n'],1,right,['8'],4,625,[-0.038874],61,44,hard,minus,dotcolour,alfa,,,122,18,V,L,
232,106,22,5,1,27,53,2450,['n'],1,right,['9'],5,1671,[-0.42518666],95,53,easy,minus,dotcolour,alfa,,,122,18,V,L,
233,107,23,5,1,27,53,984,['n'],1,right,['9'],5,478,[-0.18732694],92,53,easy,minus,dotcolour,alfa,,,122,18,V,L,
234,108,24,5,1,33,47,3501,['n'],1,right,['8'],4,783,[-0.08991457],71,47,medium,minus,dotcolour,alfa,,,122,18,V,L,
235,109,25,5,1,44,36,1867,['n'],0,left,['8'],4,815,[-0.06010086],65,44,hard,minus,dotcolour,alfa,,,122,18,V,L,
236,110,26,5,1,33,47,816,['n'],1,right,['9'],5,288,[-0.10095405],84,47,medium,minus,dotcolour,alfa,,,122,18,V,L,
237,111,27,5,1,36,44,817,['n'],1,right,['9'],5,444,[-0.0865141],76,44,hard,minus,dotcolour,alfa,,,122,18,V,L,
238,112,28,5,1,33,47,966,['n'],1,right,['8'],4,733,[-0.27992542],95,47,medium,minus,dotcolour,alfa,,,122,18,V,L,
239,113,29,5,1,53,27,849,['c'],1,left,['9'],5,623,[0.15492637],85,53,easy,minus,dotcolour,alfa,,,122,18,V,L,
240,114,30,5,1,36,44,1666,['n'],1,right,['8'],4,396,[-0.01083788],54,44,hard,minus,dotcolour,alfa,,,122,18,V,L,
241,115,31,5,1,47,33,1617,['n'],0,left,['8'],4,445,[-0.08431744],76,47,medium,minus,dotcolour,alfa,,,122,18,V,L,
242,116,32,5,1,33,47,1067,['n'],1,right,['8'],4,490,[-0.19630332],93,47,medium,minus,dotcolour,alfa,,,122,18,V,L,
243,117,33,5,1,53,27,1183,['c'],1,left,['9'],5,544,[0.13675203],84,53,easy,minus,dotcolour,alfa,,,122,18,V,L,
244,118,34,5,1,36,44,1950,['n'],1,right,['8'],4,405,[-0.00551225],52,44,hard,minus,dotcolour,alfa,,,122,18,V,L,
245,119,35,5,1,36,44,2433,['n'],1,right,['8'],4,340,[-0.03066297],62,44,hard,minus,dotcolour,alfa,,,122,18,V,L,
246,120,36,5,1,27,53,1083,['n'],1,right,['0'],6,645,[-0.146531],84,53,easy,minus,dotcolour,alfa,,,122,18,V,L,
247,121,37,5,1,33,47,2368,['n'],1,right,['9'],5,373,[-0.19192995],94,47,medium,minus,dotcolour,alfa,,,122,18,V,L,
248,122,38,5,1,47,33,1133,['c'],1,left,['9'],5,658,[0.29887285],96,47,medium,minus,dotcolour,alfa,,,122,18,V,L,
249,123,39,5,1,33,47,982,['n'],1,right,['8'],4,401,[-0.13052492],86,47,medium,minus,dotcolour,alfa,,,122,18,V,L,
250,124,40,5,1,44,36,1466,['c'],1,left,['9'],5,449,[0.06164156],70,44,hard,minus,dotcolour,alfa,,,122,18,V,L,
251,125,41,5,1,47,33,1417,['c'],1,left,['9'],5,647,[0.13046981],81,47,medium,minus,dotcolour,alfa,,,122,18,V,L,
252,0,0,6,2,44,36,1133,['c'],1,left,['9'],5,828,[-0.01450652],36,44,hard,plus,dotcolour,alfa,,,122,18,V,L,
253,1,1,6,2,33,47,1567,['n'],1,right,['9'],5,598,[-0.05147543],92,47,medium,plus,dotcolour,alfa,,,122,18,V,L,
254,2,2,6,2,53,27,1134,['c'],1,left,['9'],5,505,[0.20678939],100,53,easy,plus,dotcolour,alfa,,,122,18,V,L,
255,3,3,6,2,53,27,967,['c'],1,left,['9'],5,744,[0.22406102],100,53,easy,plus,dotcolour,alfa,,,122,18,V,L,
256,4,4,6,2,47,33,2168,['c'],1,left,['9'],5,629,[0.16145525],100,47,medium,plus,dotcolour,alfa,,,122,18,V,L,
257,5,5,6,2,33,47,950,['n'],1,right,['9'],5,447,[-0.04765139],93,47,medium,plus,dotcolour,alfa,,,122,18,V,L,
258,6,6,6,2,47,33,1568,['c'],1,left,['8'],4,631,[0.19200116],100,47,medium,plus,dotcolour,alfa,,,122,18,V,L,
259,7,7,6,2,27,53,867,['n'],1,right,['9'],5,1172,[-0.25897516],100,53,easy,plus,dotcolour,alfa,,,122,18,V,L,
260,8,8,6,2,36,44,1099,['c'],0,right,['8'],4,427,[0.05353777],95,44,hard,plus,dotcolour,alfa,,,122,18,V,L,
261,9,9,6,2,47,33,750,['c'],1,left,['0'],6,372,[0.02182734],78,47,medium,plus,dotcolour,alfa,,,122,18,V,L,
262,10,10,6,2,44,36,1383,['c'],1,left,['9'],5,463,[0.10137207],100,44,hard,plus,dotcolour,alfa,,,122,18,V,L,
263,11,11,6,2,27,53,2084,['n'],1,right,['9'],5,458,[-0.22895207],100,53,easy,plus,dotcolour,alfa,,,122,18,V,L,
264,12,12,6,2,53,27,1750,['c'],1,left,['9'],5,1067,[0.47222278],100,53,easy,plus,dotcolour,alfa,,,122,18,V,L,
265,13,13,6,2,47,33,1034,['c'],1,left,['9'],5,376,[0.05699306],97,47,medium,plus,dotcolour,alfa,,,122,18,V,L,
266,14,14,6,2,33,47,1117,['n'],1,right,['9'],5,549,[-0.13139011],100,47,medium,plus,dotcolour,alfa,,,122,18,V,L,
267,15,15,6,2,53,27,783,['c'],1,left,['9'],5,409,[0.03527957],88,53,easy,plus,dotcolour,alfa,,,122,18,V,L,
268,16,16,6,2,47,33,1617,['c'],1,left,['8'],4,865,[0.26006394],100,47,medium,plus,dotcolour,alfa,,,122,18,V,L,
269,17,17,6,2,36,44,1267,['c'],0,right,['8'],4,733,[-0.00919424],40,44,hard,plus,dotcolour,alfa,,,122,18,V,L,
270,18,18,6,2,36,44,900,['n'],1,right,['8'],4,733,[-0.20407708],100,44,hard,plus,dotcolour,alfa,,,122,18,V,L,
271,19,19,6,2,44,36,867,['n'],0,left,['3'],3,3039,[0.38736022],0,44,hard,plus,dotcolour,alfa,,,122,18,V,L,
272,20,20,6,2,33,47,5616,['c'],0,right,['8'],4,1238,[0.01968045],65,47,medium,plus,dotcolour,alfa,,,122,18,V,L,
273,21,21,6,2,44,36,1934,['c'],1,left,['8'],4,575,[0.12115046],100,44,hard,plus,dotcolour,alfa,,,122,18,V,L,
274,22,22,6,2,53,27,851,['c'],1,left,['8'],4,487,[0.07376128],98,53,easy,plus,dotcolour,alfa,,,122,18,V,L,
275,23,23,6,2,47,33,916,['c'],1,left,['9'],5,464,[0.01480178],69,47,medium,plus,dotcolour,alfa,,,122,18,V,L,
276,24,24,6,2,33,47,1149,['n'],1,right,['9'],5,632,[-0.07979983],97,47,medium,plus,dotcolour,alfa,,,122,18,V,L,
277,25,25,6,2,27,53,1550,['n'],1,right,['8'],4,858,[-0.23323865],100,53,easy,plus,dotcolour,alfa,,,122,18,V,L,
278,26,26,6,2,44,36,2051,['n'],0,left,['8'],4,968,[0.09737918],3,44,hard,plus,dotcolour,alfa,,,122,18,V,L,
279,27,27,6,2,53,27,950,['c'],1,left,['9'],5,387,[0.14835898],100,53,easy,plus,dotcolour,alfa,,,122,18,V,L,
280,28,28,6,2,47,33,1816,['c'],1,left,['9'],5,388,[0.06276784],97,47,medium,plus,dotcolour,alfa,,,122,18,V,L,
281,29,29,6,2,27,53,1200,['n'],1,right,['9'],5,277,[-0.21621515],100,53,easy,plus,dotcolour,alfa,,,122,18,V,L,
282,30,30,6,2,36,44,1534,['c'],0,right,['9'],5,374,[-0.00555611],42,44,hard,plus,dotcolour,alfa,,,122,18,V,L,
283,31,31,6,2,27,53,1417,['n'],1,right,['0'],6,335,[-0.14211801],100,53,easy,plus,dotcolour,alfa,,,122,18,V,L,
284,32,32,6,2,44,36,1200,['c'],1,left,['9'],5,467,[0.10385644],100,44,hard,plus,dotcolour,alfa,,,122,18,V,L,
285,33,33,6,2,36,44,1216,['n'],1,right,['8'],4,577,[-0.15495951],100,44,hard,plus,dotcolour,alfa,,,122,18,V,L,
286,34,34,6,2,33,47,1068,['n'],1,right,['8'],4,929,[-0.14654377],100,47,medium,plus,dotcolour,alfa,,,122,18,V,L,
287,35,35,6,2,27,53,1317,['n'],1,right,['8'],4,432,[-0.08064862],99,53,easy,plus,dotcolour,alfa,,,122,18,V,L,
288,36,36,6,2,33,47,1050,['n'],1,right,['8'],4,518,[-0.12353006],100,47,medium,plus,dotcolour,alfa,,,122,18,V,L,
289,37,37,6,2,36,44,1383,['c'],0,right,['8'],4,899,[0.12563367],99,44,hard,plus,dotcolour,alfa,,,122,18,V,L,
290,38,38,6,2,44,36,1300,['c'],1,left,['8'],4,493,[0.17392279],100,44,hard,plus,dotcolour,alfa,,,122,18,V,L,
291,39,39,6,2,27,53,1267,['n'],1,right,['8'],4,544,[-0.12186344],100,53,easy,plus,dotcolour,alfa,,,122,18,V,L,
292,40,40,6,2,53,27,1317,['c'],1,left,['9'],5,518,[0.119657],100,53,easy,plus,dotcolour,alfa,,,122,18,V,L,
293,41,41,6,2,36,44,1334,['n'],1,right,['9'],5,318,[-0.11505496],100,44,hard,plus,dotcolour,alfa,,,122,18,V,L,
294,42,0,7,2,47,33,1818,['c'],1,left,['9'],5,1286,[0.15971189],99,47,medium,plus,dotcolour,alfa,,,122,18,V,L,
295,43,1,7,2,53,27,750,['c'],1,left,['9'],5,318,[0.18096199],100,53,easy,plus,dotcolour,alfa,,,122,18,V,L,
296,44,2,7,2,47,33,716,['c'],1,left,['9'],5,254,[0.13197218],100,47,medium,plus,dotcolour,alfa,,,122,18,V,L,
297,45,3,7,2,27,53,884,['n'],1,right,['9'],5,281,[-0.14947442],100,53,easy,plus,dotcolour,alfa,,,122,18,V,L,
298,46,4,7,2,47,33,1334,['c'],1,left,['9'],5,251,[0.15745562],100,47,medium,plus,dotcolour,alfa,,,122,18,V,L,
299,47,5,7,2,33,47,1834,['c'],0,right,['8'],4,313,[0.01070963],67,47,medium,plus,dotcolour,alfa,,,122,18,V,L,
300,48,6,7,2,27,53,1234,['n'],1,right,['8'],4,644,[-0.13332385],100,53,easy,plus,dotcolour,alfa,,,122,18,V,L,
301,49,7,7,2,44,36,1184,['c'],1,left,['8'],4,435,[0.06423368],97,44,hard,plus,dotcolour,alfa,,,122,18,V,L,
302,50,8,7,2,47,33,1267,['c'],1,left,['8'],4,273,[0.07134003],99,47,medium,plus,dotcolour,alfa,,,122,18,V,L,
303,51,9,7,2,27,53,1233,['n'],1,right,['9'],5,325,[-0.08730569],100,53,easy,plus,dotcolour,alfa,,,122,18,V,L,
304,52,10,7,2,36,44,1467,['c'],0,right,['9'],5,279,[-0.02520706],15,44,hard,plus,dotcolour,alfa,,,122,18,V,L,
305,53,11,7,2,44,36,2434,['c'],1,left,['3'],3,1044,[0.22844602],100,44,hard,plus,dotcolour,alfa,,,122,18,V,L,
306,54,12,7,2,47,33,3367,['c'],1,left,['8'],4,428,[0.12739923],100,47,medium,plus,dotcolour,alfa,,,122,18,V,L,
307,55,13,7,2,44,36,1351,['c'],1,left,['9'],5,854,[0.17635939],100,44,hard,plus,dotcolour,alfa,,,122,18,V,L,
308,56,14,7,2,36,44,1184,['c'],0,right,['9'],5,350,[0.07807358],99,44,hard,plus,dotcolour,alfa,,,122,18,V,L,
309,57,15,7,2,33,47,1801,['n'],1,right,['9'],5,346,[-0.14522577],100,47,medium,plus,dotcolour,alfa,,,122,18,V,L,
310,58,16,7,2,36,44,1000,['n'],1,right,['9'],5,324,[-0.07106435],99,44,hard,plus,dotcolour,alfa,,,122,18,V,L,
311,59,17,7,2,44,36,1433,['c'],1,left,['9'],5,375,[0.05353991],96,44,hard,plus,dotcolour,alfa,,,122,18,V,L,
312,60,18,7,2,36,44,784,['n'],1,right,['9'],5,290,[-0.08490718],100,44,hard,plus,dotcolour,alfa,,,122,18,V,L,
313,61,19,7,2,53,27,1067,['c'],1,left,['9'],5,133,[0.12116464],100,53,easy,plus,dotcolour,alfa,,,122,18,V,L,
314,62,20,7,2,27,53,1118,['n'],1,right,['0'],6,284,[-0.10070234],100,53,easy,plus,dotcolour,alfa,,,122,18,V,L,
315,63,21,7,2,33,47,1084,['n'],1,right,['0'],6,431,[-0.01991082],75,47,medium,plus,dotcolour,alfa,,,122,18,V,L,
316,64,22,7,2,27,53,1018,['n'],1,right,['0'],6,422,[-0.08556951],99,53,easy,plus,dotcolour,alfa,,,122,18,V,L,
317,65,23,7,2,36,44,2151,['n'],1,right,['9'],5,416,[-0.10402213],100,44,hard,plus,dotcolour,alfa,,,122,18,V,L,
318,66,24,7,2,47,33,850,['c'],1,left,['9'],5,359,[0.12463373],100,47,medium,plus,dotcolour,alfa,,,122,18,V,L,
319,67,25,7,2,44,36,1534,['c'],1,left,['9'],5,260,[0.02259237],83,44,hard,plus,dotcolour,alfa,,,122,18,V,L,
320,68,26,7,2,53,27,1034,['c'],1,left,['9'],5,313,[0.16727267],100,53,easy,plus,dotcolour,alfa,,,122,18,V,L,
321,69,27,7,2,47,33,1767,['c'],1,left,['0'],6,255,[0.07462543],100,47,medium,plus,dotcolour,alfa,,,122,18,V,L,
322,70,28,7,2,53,27,800,['c'],1,left,['0'],6,399,[0.19175613],100,53,easy,plus,dotcolour,alfa,,,122,18,V,L,
323,71,29,7,2,33,47,1317,['n'],1,right,['9'],5,291,[-0.14774864],100,47,medium,plus,dotcolour,alfa,,,122,18,V,L,
324,72,30,7,2,27,53,784,['n'],1,right,['9'],5,258,[-0.10272732],100,53,easy,plus,dotcolour,alfa,,,122,18,V,L,
325,73,31,7,2,36,44,1500,['c'],0,right,['8'],4,444,[0.10609303],100,44,hard,plus,dotcolour,alfa,,,122,18,V,L,
326,74,32,7,2,53,27,1217,['c'],1,left,['0'],6,610,[0.12952703],100,53,easy,plus,dotcolour,alfa,,,122,18,V,L,
327,75,33,7,2,53,27,1134,['c'],1,left,['0'],6,430,[0.22711855],100,53,easy,plus,dotcolour,alfa,,,122,18,V,L,
328,76,34,7,2,33,47,1167,['n'],1,right,['0'],6,343,[-0.04726358],95,47,medium,plus,dotcolour,alfa,,,122,18,V,L,
329,77,35,7,2,33,47,2934,['n'],1,right,['8'],4,381,[-0.09764835],100,47,medium,plus,dotcolour,alfa,,,122,18,V,L,
330,78,36,7,2,27,53,984,['n'],1,right,['9'],5,992,[-0.05008052],86,53,easy,plus,dotcolour,alfa,,,122,18,V,L,
331,79,37,7,2,53,27,1033,['c'],1,left,['9'],5,384,[0.1085479],100,53,easy,plus,dotcolour,alfa,,,122,18,V,L,
332,80,38,7,2,44,36,2401,['c'],1,left,['8'],4,386,[0.03114188],86,44,hard,plus,dotcolour,alfa,,,122,18,V,L,
333,81,39,7,2,33,47,1735,['n'],1,right,['8'],4,407,[-0.1489345],100,47,medium,plus,dotcolour,alfa,,,122,18,V,L,
334,82,40,7,2,36,44,917,['n'],1,right,['9'],5,267,[-0.08258871],100,44,hard,plus,dotcolour,alfa,,,122,18,V,L,
335,83,41,7,2,44,36,1884,['c'],1,left,['8'],4,390,[0.09077614],99,44,hard,plus,dotcolour,alfa,,,122,18,V,L,
336,84,0,8,2,44,36,1651,['c'],1,left,['9'],5,484,[0.00413689],55,44,hard,plus,dotcolour,alfa,,,122,18,V,L,
337,85,1,8,2,47,33,1417,['c'],1,left,['9'],5,250,[0.11357155],100,47,medium,plus,dotcolour,alfa,,,122,18,V,L,
338,86,2,8,2,33,47,1134,['n'],1,right,['8'],4,539,[-0.00755671],59,47,medium,plus,dotcolour,alfa,,,122,18,V,L,
339,87,3,8,2,53,27,1200,['c'],1,left,['9'],5,479,[0.20504578],100,53,easy,plus,dotcolour,alfa,,,122,18,V,L,
340,88,4,8,2,44,36,2400,['c'],1,left,['8'],4,997,[0.13471538],99,44,hard,plus,dotcolour,alfa,,,122,18,V,L,
341,89,5,8,2,36,44,3568,['c'],0,right,['8'],4,704,[-0.03120571],21,44,hard,plus,dotcolour,alfa,,,122,18,V,L,
342,90,6,8,2,36,44,917,['n'],1,right,['9'],5,208,[-0.10906422],100,44,hard,plus,dotcolour,alfa,,,122,18,V,L,
343,91,7,8,2,44,36,1450,['c'],1,left,['9'],5,654,[0.04583253],88,44,hard,plus,dotcolour,alfa,,,122,18,V,L,
344,92,8,8,2,44,36,2067,['c'],1,left,['9'],5,331,[0.19299055],100,44,hard,plus,dotcolour,alfa,,,122,18,V,L,
345,93,9,8,2,36,44,1449,['c'],0,right,['8'],4,373,[0.11737399],100,44,hard,plus,dotcolour,alfa,,,122,18,V,L,
346,94,10,8,2,33,47,1134,['n'],1,right,['9'],5,289,[-0.21111218],100,47,medium,plus,dotcolour,alfa,,,122,18,V,L,
347,95,11,8,2,36,44,1784,['c'],0,right,['9'],5,383,[0.00355701],55,44,hard,plus,dotcolour,alfa,,,122,18,V,L,
348,96,12,8,2,53,27,832,['c'],1,left,['0'],6,297,[0.14334171],100,53,easy,plus,dotcolour,alfa,,,122,18,V,L,
349,97,13,8,2,27,53,1466,['n'],1,right,['0'],6,355,[-0.17841317],100,53,easy,plus,dotcolour,alfa,,,122,18,V,L,
350,98,14,8,2,33,47,1650,['c'],0,right,['9'],5,412,[0.06467672],97,47,medium,plus,dotcolour,alfa,,,122,18,V,L,
351,99,15,8,2,47,33,1567,['c'],1,left,['9'],5,718,[-0.01673061],33,47,medium,plus,dotcolour,alfa,,,122,18,V,L,
352,100,16,8,2,27,53,1051,['n'],1,right,['0'],6,281,[-0.06750638],99,53,easy,plus,dotcolour,alfa,,,122,18,V,L,
353,101,17,8,2,36,44,1917,['n'],1,right,['9'],5,586,[-0.20706952],100,44,hard,plus,dotcolour,alfa,,,122,18,V,L,
354,102,18,8,2,33,47,1417,['c'],0,right,['9'],5,339,[-0.0370838],9,47,medium,plus,dotcolour,alfa,,,122,18,V,L,
355,103,19,8,2,44,36,1216,['c'],1,left,['0'],6,310,[0.05960686],98,44,hard,plus,dotcolour,alfa,,,122,18,V,L,
356,104,20,8,2,53,27,1200,['c'],1,left,['9'],5,331,[0.09929837],100,53,easy,plus,dotcolour,alfa,,,122,18,V,L,
357,105,21,8,2,47,33,967,['c'],1,left,['9'],5,240,[0.09804897],100,47,medium,plus,dotcolour,alfa,,,122,18,V,L,
358,106,22,8,2,47,33,1018,['c'],1,left,['9'],5,199,[0.05374765],99,47,medium,plus,dotcolour,alfa,,,122,18,V,L,
359,107,23,8,2,33,47,1368,['n'],1,right,['9'],5,394,[-0.1751565],100,47,medium,plus,dotcolour,alfa,,,122,18,V,L,
360,108,24,8,2,44,36,1584,['c'],1,left,['9'],5,188,[0.09954136],100,44,hard,plus,dotcolour,alfa,,,122,18,V,L,
361,109,25,8,2,47,33,1000,['c'],1,left,['9'],5,302,[0.14104253],100,47,medium,plus,dotcolour,alfa,,,122,18,V,L,
362,110,26,8,2,33,47,1201,['n'],1,right,['9'],5,323,[-0.06677463],99,47,medium,plus,dotcolour,alfa,,,122,18,V,L,
363,111,27,8,2,27,53,934,['n'],1,right,['0'],6,474,[-0.27710684],100,53,easy,plus,dotcolour,alfa,,,122,18,V,L,
364,112,28,8,2,27,53,1051,['n'],1,right,['9'],5,286,[-0.09829352],100,53,easy,plus,dotcolour,alfa,,,122,18,V,L,
365,113,29,8,2,44,36,850,['c'],1,left,['9'],5,530,[0.01796889],71,44,hard,plus,dotcolour,alfa,,,122,18,V,L,
366,114,30,8,2,53,27,784,['c'],1,left,['9'],5,351,[0.04784032],95,53,easy,plus,dotcolour,alfa,,,122,18,V,L,
367,115,31,8,2,53,27,900,['c'],1,left,['0'],6,318,[0.03646444],91,53,easy,plus,dotcolour,alfa,,,122,18,V,L,
368,116,32,8,2,27,53,901,['n'],1,right,['9'],5,351,[-0.1374663],100,53,easy,plus,dotcolour,alfa,,,122,18,V,L,
369,117,33,8,2,33,47,1067,['c'],0,right,['9'],5,391,[0.01741218],73,47,medium,plus,dotcolour,alfa,,,122,18,V,L,
370,118,34,8,2,27,53,1884,['n'],1,right,['9'],5,429,[-0.14003793],100,53,easy,plus,dotcolour,alfa,,,122,18,V,L,
371,119,35,8,2,47,33,934,['c'],1,left,['9'],5,224,[0.10111022],100,47,medium,plus,dotcolour,alfa,,,122,18,V,L,
372,120,36,8,2,47,33,634,['c'],1,left,['9'],5,231,[0.09502434],100,47,medium,plus,dotcolour,alfa,,,122,18,V,L,
373,121,37,8,2,27,53,1034,['n'],1,right,['9'],5,406,[-0.18957306],100,53,easy,plus,dotcolour,alfa,,,122,18,V,L,
374,122,38,8,2,53,27,934,['c'],1,left,['9'],5,345,[0.24164073],100,53,easy,plus,dotcolour,alfa,,,122,18,V,L,
375,123,39,8,2,36,44,1200,['n'],1,right,['8'],4,604,[-0.1207502],100,44,hard,plus,dotcolour,alfa,,,122,18,V,L,
376,124,40,8,2,53,27,833,['c'],1,left,['8'],4,467,[0.18369775],100,53,easy,plus,dotcolour,alfa,,,122,18,V,L,
377,125,41,8,2,36,44,1001,['n'],1,right,['8'],4,402,[-0.0329807],87,44,hard,plus,dotcolour,alfa,,,122,18,V,L,
378,0,0,9,3,47,33,1984,['c'],1,left,['9'],5,1707,[0.19708172],80,47,medium,minus,dotcolour,alfa,,,122,18,V,L,
379,1,1,9,3,53,27,1317,['c'],1,left,['9'],5,675,[0.25579843],94,53,easy,minus,dotcolour,alfa,,,122,18,V,L,
380,2,2,9,3,27,53,767,['n'],1,right,['9'],5,258,[-0.11033698],88,53,easy,minus,dotcolour,alfa,,,122,18,V,L,
381,3,3,9,3,44,36,683,['c'],1,left,['8'],4,646,[0.16786408],87,44,hard,minus,dotcolour,alfa,,,122,18,V,L,
382,4,4,9,3,36,44,1067,['n'],1,right,['9'],5,603,[-0.1115674],78,44,hard,minus,dotcolour,alfa,,,122,18,V,L,
383,5,5,9,3,36,44,1950,['c'],0,right,['8'],4,302,[0.07280891],77,44,hard,minus,dotcolour,alfa,,,122,18,V,L,
384,6,6,9,3,53,27,850,['c'],1,left,['9'],5,217,[0.12511181],92,53,easy,minus,dotcolour,alfa,,,122,18,V,L,
385,7,7,9,3,44,36,1151,['n'],0,left,['9'],5,332,[-0.06281426],73,44,hard,minus,dotcolour,alfa,,,122,18,V,L,
386,8,8,9,3,27,53,634,['n'],1,right,['9'],5,263,[-0.06396664],75,53,easy,minus,dotcolour,alfa,,,122,18,V,L,
387,9,9,9,3,33,47,818,['n'],1,right,['9'],5,213,[-0.11565777],91,47,medium,minus,dotcolour,alfa,,,122,18,V,L,
388,10,10,9,3,47,33,666,['c'],1,left,['9'],5,218,[0.11703589],91,47,medium,minus,dotcolour,alfa,,,122,18,V,L,
389,11,11,9,3,27,53,833,['n'],1,right,['0'],6,506,[-0.18074694],91,53,easy,minus,dotcolour,alfa,,,122,18,V,L,
390,12,12,9,3,27,53,1317,['n'],1,right,['0'],6,314,[-0.07571444],77,53,easy,minus,dotcolour,alfa,,,122,18,V,L,
391,13,13,9,3,53,27,901,['c'],1,left,['0'],6,267,[0.09179603],83,53,easy,minus,dotcolour,alfa,,,122,18,V,L,
392,14,14,9,3,47,33,1150,['c'],1,left,['9'],5,211,[0.11181172],90,47,medium,minus,dotcolour,alfa,,,122,18,V,L,
393,15,15,9,3,33,47,1133,['n'],1,right,['9'],5,783,[-0.14160719],81,47,medium,minus,dotcolour,alfa,,,122,18,V,L,
394,16,16,9,3,36,44,751,['n'],1,right,['9'],5,275,[-0.10098182],85,44,hard,minus,dotcolour,alfa,,,122,18,V,L,
395,17,17,9,3,44,36,1049,['c'],1,left,['9'],5,327,[0.12244016],87,44,hard,minus,dotcolour,alfa,,,122,18,V,L,
396,18,18,9,3,27,53,1384,['n'],1,right,['9'],5,260,[-0.07362407],79,53,easy,minus,dotcolour,alfa,,,122,18,V,L,
397,19,19,9,3,36,44,1000,['c'],0,right,['8'],4,266,[0.04730708],70,44,hard,minus,dotcolour,alfa,,,122,18,V,L,
398,20,20,9,3,53,27,899,['c'],1,left,['9'],5,373,[0.1376643],88,53,easy,minus,dotcolour,alfa,,,122,18,V,L,
399,21,21,9,3,44,36,1300,['c'],1,left,['9'],5,267,[-0.03463259],35,44,hard,minus,dotcolour,alfa,,,122,18,V,L,
400,22,22,9,3,47,33,1551,['c'],1,left,['9'],5,747,[0.09935347],74,47,medium,minus,dotcolour,alfa,,,122,18,V,L,
401,23,23,9,3,27,53,1050,['n'],1,right,['9'],5,356,[-0.09956267],82,53,easy,minus,dotcolour,alfa,,,122,18,V,L,
402,24,24,9,3,36,44,1817,['c'],0,right,['9'],5,270,[0.04639067],69,44,hard,minus,dotcolour,alfa,,,122,18,V,L,
403,25,25,9,3,33,47,1134,['n'],1,right,['9'],5,408,[-0.18683974],93,47,medium,minus,dotcolour,alfa,,,122,18,V,L,
404,26,26,9,3,36,44,1483,['n'],1,right,['9'],5,405,[-0.08627029],77,44,hard,minus,dotcolour,alfa,,,122,18,V,L,
405,27,27,9,3,33,47,1150,['n'],1,right,['9'],5,344,[-0.08288386],78,47,medium,minus,dotcolour,alfa,,,122,18,V,L,
406,28,28,9,3,47,33,916,['c'],1,left,['9'],5,254,[0.01822715],58,47,medium,minus,dotcolour,alfa,,,122,18,V,L,
407,29,29,9,3,53,27,833,['c'],1,left,['9'],5,429,[0.0903424],78,53,easy,minus,dotcolour,alfa,,,122,18,V,L,
408,30,30,9,3,53,27,967,['c'],1,left,['9'],5,254,[0.16022838],95,53,easy,minus,dotcolour,alfa,,,122,18,V,L,
409,31,31,9,3,44,36,633,['c'],1,left,['9'],5,348,[0.21418768],96,44,hard,minus,dotcolour,alfa,,,122,18,V,L,
410,32,32,9,3,33,47,1218,['n'],1,right,['9'],5,359,[-0.13358894],88,47,medium,minus,dotcolour,alfa,,,122,18,V,L,
411,33,33,9,3,33,47,1150,['n'],1,right,['9'],5,339,[-0.17622102],94,47,medium,minus,dotcolour,alfa,,,122,18,V,L,
412,34,34,9,3,47,33,1934,['c'],1,left,['9'],5,273,[0.03176693],63,47,medium,minus,dotcolour,alfa,,,122,18,V,L,
413,35,35,9,3,44,36,1017,['c'],1,left,['9'],5,247,[0.16908181],96,44,hard,minus,dotcolour,alfa,,,122,18,V,L,
414,36,36,9,3,27,53,683,['n'],1,right,['0'],6,563,[-0.10432098],78,53,easy,minus,dotcolour,alfa,,,122,18,V,L,
415,37,37,9,3,47,33,967,['c'],1,left,['9'],5,350,[0.14037632],89,47,medium,minus,dotcolour,alfa,,,122,18,V,L,
416,38,38,9,3,44,36,1100,['c'],1,left,['8'],4,302,[-0.02643355],39,44,hard,minus,dotcolour,alfa,,,122,18,V,L,
417,39,39,9,3,36,44,1266,['c'],0,right,['9'],5,393,[0.07850379],76,44,hard,minus,dotcolour,alfa,,,122,18,V,L,
418,40,40,9,3,33,47,1067,['n'],1,right,['9'],5,448,[-0.18852158],93,47,medium,minus,dotcolour,alfa,,,122,18,V,L,
419,41,41,9,3,53,27,867,['c'],1,left,['9'],5,220,[0.15099402],95,53,easy,minus,dotcolour,alfa,,,122,18,V,L,
420,42,0,10,3,27,53,901,['n'],1,right,['9'],5,622,[-0.02989392],58,53,easy,minus,dotcolour,alfa,,,122,18,V,L,
421,43,1,10,3,53,27,2166,['c'],1,left,['9'],5,280,[0.16469926],94,53,easy,minus,dotcolour,alfa,,,122,18,V,L,
422,44,2,10,3,27,53,1801,['n'],1,right,['9'],5,286,[-0.0935188],83,53,easy,minus,dotcolour,alfa,,,122,18,V,L,
423,45,3,10,3,53,27,1251,['c'],1,left,['9'],5,250,[0.08815517],83,53,easy,minus,dotcolour,alfa,,,122,18,V,L,
424,46,4,10,3,27,53,683,['n'],1,right,['9'],5,254,[-0.17236806],96,53,easy,minus,dotcolour,alfa,,,122,18,V,L,
425,47,5,10,3,27,53,1001,['n'],1,right,['9'],5,309,[-0.00204835],51,53,easy,minus,dotcolour,alfa,,,122,18,V,L,
426,48,6,10,3,47,33,734,['c'],1,left,['9'],5,317,[0.06168141],73,47,medium,minus,dotcolour,alfa,,,122,18,V,L,
427,49,7,10,3,47,33,817,['c'],1,left,['9'],5,248,[0.09396326],85,47,medium,minus,dotcolour,alfa,,,122,18,V,L,
428,50,8,10,3,53,27,733,['c'],1,left,['9'],5,307,[0.10358418],84,53,easy,minus,dotcolour,alfa,,,122,18,V,L,
429,51,9,10,3,36,44,1784,['n'],1,right,['8'],4,304,[-0.02188166],59,44,hard,minus,dotcolour,alfa,,,122,18,V,L,
430,52,10,10,3,44,36,700,['c'],1,left,['9'],5,329,[0.07857577],77,44,hard,minus,dotcolour,alfa,,,122,18,V,L,
431,53,11,10,3,47,33,584,['c'],1,left,['9'],5,254,[0.0997545],86,47,medium,minus,dotcolour,alfa,,,122,18,V,L,
432,54,12,10,3,53,27,617,['c'],1,left,['9'],5,261,[0.18536807],96,53,easy,minus,dotcolour,alfa,,,122,18,V,L,
433,55,13,10,3,47,33,800,['c'],1,left,['9'],5,339,[0.12636394],88,47,medium,minus,dotcolour,alfa,,,122,18,V,L,
434,56,14,10,3,53,27,517,['c'],1,left,['9'],5,266,[0.06228247],75,53,easy,minus,dotcolour,alfa,,,122,18,V,L,
435,57,15,10,3,44,36,516,['c'],1,left,['9'],5,276,[0.03201939],63,44,hard,minus,dotcolour,alfa,,,122,18,V,L,
436,58,16,10,3,36,44,834,['n'],1,right,['9'],5,289,[0.01827562],42,44,hard,minus,dotcolour,alfa,,,122,18,V,L,
437,59,17,10,3,47,33,584,['c'],1,left,['9'],5,271,[0.14351529],92,47,medium,minus,dotcolour,alfa,,,122,18,V,L,
438,60,18,10,3,47,33,1217,['c'],1,left,['9'],5,293,[0.13172567],90,47,medium,minus,dotcolour,alfa,,,122,18,V,L,
439,61,19,10,3,44,36,684,['c'],1,left,['9'],5,327,[0.07130737],75,44,hard,minus,dotcolour,alfa,,,122,18,V,L,
440,62,20,10,3,33,47,634,['n'],1,right,['9'],5,338,[-0.08579468],79,47,medium,minus,dotcolour,alfa,,,122,18,V,L,
441,63,21,10,3,33,47,850,['n'],1,right,['8'],4,476,[-0.08092554],74,47,medium,minus,dotcolour,alfa,,,122,18,V,L,
442,64,22,10,3,27,53,750,['n'],1,right,['9'],5,364,[-0.16813541],92,53,easy,minus,dotcolour,alfa,,,122,18,V,L,
443,65,23,10,3,33,47,1300,['c'],0,right,['8'],4,426,[-0.01386303],45,47,medium,minus,dotcolour,alfa,,,122,18,V,L,
444,66,24,10,3,47,33,867,['c'],1,left,['9'],5,352,[0.11007116],84,47,medium,minus,dotcolour,alfa,,,122,18,V,L,
445,67,25,10,3,36,44,1067,['n'],1,right,['9'],5,256,[-0.14501642],93,44,hard,minus,dotcolour,alfa,,,122,18,V,L,
446,68,26,10,3,36,44,1299,['c'],0,right,['9'],5,276,[0.09209295],83,44,hard,minus,dotcolour,alfa,,,122,18,V,L,
447,69,27,10,3,36,44,701,['c'],0,right,['9'],5,221,[0.04916495],72,44,hard,minus,dotcolour,alfa,,,122,18,V,L,
448,70,28,10,3,53,27,768,['n'],0,left,['9'],5,359,[-0.03917549],64,53,easy,minus,dotcolour,alfa,,,122,18,V,L,
449,71,29,10,3,53,27,1116,['n'],0,left,['9'],5,389,[0.00681924],48,53,easy,minus,dotcolour,alfa,,,122,18,V,L,
450,72,30,10,3,44,36,883,['c'],1,left,['9'],5,275,[0.09406024],83,44,hard,minus,dotcolour,alfa,,,122,18,V,L,
451,73,31,10,3,44,36,683,['c'],1,left,['9'],5,302,[0.14512381],92,44,hard,minus,dotcolour,alfa,,,122,18,V,L,
452,74,32,10,3,27,53,667,['n'],1,right,['0'],6,609,[-0.16721417],87,53,easy,minus,dotcolour,alfa,,,122,18,V,L,
453,75,33,10,3,33,47,884,['n'],1,right,['9'],5,310,[-0.14468896],91,47,medium,minus,dotcolour,alfa,,,122,18,V,L,
454,76,34,10,3,33,47,766,['n'],1,right,['9'],5,596,[-0.094179],75,47,medium,minus,dotcolour,alfa,,,122,18,V,L,
455,77,35,10,3,27,53,834,['n'],1,right,['0'],6,276,[-0.11275624],87,53,easy,minus,dotcolour,alfa,,,122,18,V,L,
456,78,36,10,3,36,44,1235,['n'],1,right,['9'],5,393,[-0.1097535],83,44,hard,minus,dotcolour,alfa,,,122,18,V,L,
457,79,37,10,3,44,36,1350,['c'],1,left,['8'],4,292,[0.11436031],87,44,hard,minus,dotcolour,alfa,,,122,18,V,L,
458,80,38,10,3,44,36,1967,['c'],1,left,['8'],4,563,[0.11628975],80,44,hard,minus,dotcolour,alfa,,,122,18,V,L,
459,81,39,10,3,36,44,933,['n'],1,right,['9'],5,361,[-0.13575404],88,44,hard,minus,dotcolour,alfa,,,122,18,V,L,
460,82,40,10,3,33,47,1784,['c'],0,right,['8'],4,308,[0.01962602],58,47,medium,minus,dotcolour,alfa,,,122,18,V,L,
461,83,41,10,3,33,47,967,['n'],1,right,['8'],4,426,[-0.18873275],93,47,medium,minus,dotcolour,alfa,,,122,18,V,L,
462,84,0,11,3,47,33,1417,['n'],0,left,['8'],4,604,[0.00913673],47,47,medium,minus,dotcolour,alfa,,,122,18,V,L,
463,85,1,11,3,36,44,1267,['c'],0,right,['9'],5,465,[0.07404785],73,44,hard,minus,dotcolour,alfa,,,122,18,V,L,
464,86,2,11,3,53,27,667,['n'],0,left,['9'],5,270,[0.00249172],49,53,easy,minus,dotcolour,alfa,,,122,18,V,L,
465,87,3,11,3,33,47,1617,['c'],0,right,['8'],4,444,[0.02616287],59,47,medium,minus,dotcolour,alfa,,,122,18,V,L,
466,88,4,11,3,53,27,866,['c'],1,left,['8'],4,320,[0.10068423],83,53,easy,minus,dotcolour,alfa,,,122,18,V,L,
467,89,5,11,3,47,33,1100,['c'],1,left,['9'],5,673,[0.05386444],64,47,medium,minus,dotcolour,alfa,,,122,18,V,L,
468,90,6,11,3,27,53,750,['n'],1,right,['9'],5,353,[-0.17713003],94,53,easy,minus,dotcolour,alfa,,,122,18,V,L,
469,91,7,11,3,44,36,800,['c'],1,left,['9'],5,381,[0.08511211],78,44,hard,minus,dotcolour,alfa,,,122,18,V,L,
470,92,8,11,3,36,44,1150,['n'],1,right,['9'],5,1201,[-0.10555112],70,44,hard,minus,dotcolour,alfa,,,122,18,V,L,
471,93,9,11,3,47,33,716,['c'],1,left,['9'],5,236,[0.10948442],88,47,medium,minus,dotcolour,alfa,,,122,18,V,L,
472,94,10,11,3,44,36,1300,['c'],1,left,['9'],5,392,[0.00369176],51,44,hard,minus,dotcolour,alfa,,,122,18,V,L,
473,95,11,11,3,36,44,983,['n'],1,right,['9'],5,227,[-0.05483542],74,44,hard,minus,dotcolour,alfa,,,122,18,V,L,
474,96,12,11,3,44,36,2617,['n'],0,left,['8'],4,746,[-0.08564741],71,44,hard,minus,dotcolour,alfa,,,122,18,V,L,
475,97,13,11,3,44,36,1117,['c'],1,left,['9'],5,208,[0.10808706],89,44,hard,minus,dotcolour,alfa,,,122,18,V,L,
476,98,14,11,3,47,33,700,['c'],1,left,['9'],5,709,[0.18623665],88,47,medium,minus,dotcolour,alfa,,,122,18,V,L,
477,99,15,11,3,36,44,1249,['c'],0,right,['8'],4,432,[0.04733328],66,44,hard,minus,dotcolour,alfa,,,122,18,V,L,
478,100,16,11,3,47,33,1683,['c'],1,left,['9'],5,589,[0.09477467],75,47,medium,minus,dotcolour,alfa,,,122,18,V,L,
479,101,17,11,3,53,27,784,['c'],1,left,['0'],6,367,[0.24024914],97,53,easy,minus,dotcolour,alfa,,,122,18,V,L,
480,102,18,11,3,47,33,766,['c'],1,left,['9'],5,235,[-0.01362569],44,47,medium,minus,dotcolour,alfa,,,122,18,V,L,
481,103,19,11,3,33,47,817,['c'],0,right,['9'],5,706,[0.10229397],75,47,medium,minus,dotcolour,alfa,,,122,18,V,L,
482,104,20,11,3,47,33,1299,['c'],1,left,['9'],5,451,[0.03440058],61,47,medium,minus,dotcolour,alfa,,,122,18,V,L,
483,105,21,11,3,27,53,750,['n'],1,right,['0'],6,948,[-0.26509213],92,53,easy,minus,dotcolour,alfa,,,122,18,V,L,
484,106,22,11,3,53,27,700,['c'],1,left,['9'],5,508,[-0.01788753],44,53,easy,minus,dotcolour,alfa,,,122,18,V,L,
485,107,23,11,3,53,27,866,['c'],1,left,['9'],5,646,[0.10043605],75,53,easy,minus,dotcolour,alfa,,,122,18,V,L,
486,108,24,11,3,27,53,1950,['n'],1,right,['0'],6,335,[-0.13339044],89,53,easy,minus,dotcolour,alfa,,,122,18,V,L,
487,109,25,11,3,36,44,1583,['n'],1,right,['8'],4,964,[-0.18790825],85,44,hard,minus,dotcolour,alfa,,,122,18,V,L,
488,110,26,11,3,27,53,767,['n'],1,right,['9'],5,368,[-0.18343269],94,53,easy,minus,dotcolour,alfa,,,122,18,V,L,
489,111,27,11,3,36,44,1833,['c'],0,right,['8'],4,873,[-0.06524077],35,44,hard,minus,dotcolour,alfa,,,122,18,V,L,
490,112,28,11,3,53,27,1267,['c'],1,left,['0'],6,517,[0.07539914],72,53,easy,minus,dotcolour,alfa,,,122,18,V,L,
491,113,29,11,3,53,27,950,['c'],1,left,['9'],5,435,[0.13854211],87,53,easy,minus,dotcolour,alfa,,,122,18,V,L,
492,114,30,11,3,33,47,717,['n'],1,right,['9'],5,318,[-0.16353459],93,47,medium,minus,dotcolour,alfa,,,122,18,V,L,
493,115,31,11,3,36,44,900,['c'],0,right,['8'],4,415,[0.09834024],80,44,hard,minus,dotcolour,alfa,,,122,18,V,L,
494,116,32,11,3,33,47,1267,['n'],1,right,['8'],4,381,[-0.13108727],87,47,medium,minus,dotcolour,alfa,,,122,18,V,L,
495,117,33,11,3,27,53,1383,['n'],1,right,['8'],4,400,[-0.12599771],86,53,easy,minus,dotcolour,alfa,,,122,18,V,L,
496,118,34,11,3,44,36,1067,['c'],1,left,['9'],5,294,[0.05919404],73,44,hard,minus,dotcolour,alfa,,,122,18,V,L,
497,119,35,11,3,27,53,766,['n'],1,right,['0'],6,301,[-0.15235822],92,53,easy,minus,dotcolour,alfa,,,122,18,V,L,
498,120,36,11,3,44,36,1283,['c'],1,left,['9'],5,967,[0.0603918],63,44,hard,minus,dotcolour,alfa,,,122,18,V,L,
499,121,37,11,3,33,47,917,['n'],1,right,['9'],5,525,[-0.14828712],86,47,medium,minus,dotcolour,alfa,,,122,18,V,L,
500,122,38,11,3,44,36,1183,['c'],1,left,['8'],4,345,[0.13121909],88,44,hard,minus,dotcolour,alfa,,,122,18,V,L,
501,123,39,11,3,27,53,767,['n'],1,right,['9'],5,206,[-0.12509449],92,53,easy,minus,dotcolour,alfa,,,122,18,V,L,
502,124,40,11,3,33,47,1383,['c'],0,right,['8'],4,472,[0.08859724],76,47,medium,minus,dotcolour,alfa,,,122,18,V,L,
503,125,41,11,3,33,47,918,['n'],1,right,['8'],4,369,[-0.01939719],57,47,medium,minus,dotcolour,alfa,,,122,18,V,L,
504,0,0,12,4,44,36,2435,['c'],1,left,['0'],6,330,[0.04758054],95,44,hard,plus,dotcolour,alfa,,,122,18,V,L,
505,1,1,12,4,53,27,1001,['c'],1,left,['9'],5,207,[0.16521556],100,53,easy,plus,dotcolour,alfa,,,122,18,V,L,
506,2,2,12,4,36,44,1499,['n'],1,right,['9'],5,323,[-0.17803413],100,44,hard,plus,dotcolour,alfa,,,122,18,V,L,
507,3,3,12,4,27,53,833,['n'],1,right,['9'],5,270,[-0.25504745],100,53,easy,plus,dotcolour,alfa,,,122,18,V,L,
508,4,4,12,4,33,47,767,['n'],1,right,['9'],5,302,[-0.19359185],100,47,medium,plus,dotcolour,alfa,,,122,18,V,L,
509,5,5,12,4,53,27,717,['c'],1,left,['9'],5,223,[0.04650818],97,53,easy,plus,dotcolour,alfa,,,122,18,V,L,
510,6,6,12,4,53,27,616,['c'],1,left,['9'],5,295,[0.11451617],100,53,easy,plus,dotcolour,alfa,,,122,18,V,L,
511,7,7,12,4,36,44,1317,['c'],0,right,['9'],5,239,[0.05672319],98,44,hard,plus,dotcolour,alfa,,,122,18,V,L,
512,8,8,12,4,47,33,617,['c'],1,left,['9'],5,181,[0.06544504],100,47,medium,plus,dotcolour,alfa,,,122,18,V,L,
513,9,9,12,4,27,53,1084,['n'],1,right,['9'],5,228,[-0.03753059],94,53,easy,plus,dotcolour,alfa,,,122,18,V,L,
514,10,10,12,4,27,53,717,['n'],1,right,['9'],5,312,[-0.14211085],100,53,easy,plus,dotcolour,alfa,,,122,18,V,L,
515,11,11,12,4,44,36,667,['c'],1,left,['9'],5,242,[0.08293331],100,44,hard,plus,dotcolour,alfa,,,122,18,V,L,
516,12,12,12,4,27,53,1217,['n'],1,right,['9'],5,416,[-0.1462162],100,53,easy,plus,dotcolour,alfa,,,122,18,V,L,
517,13,13,12,4,36,44,1049,['n'],1,right,['9'],5,422,[-0.07860783],99,44,hard,plus,dotcolour,alfa,,,122,18,V,L,
518,14,14,12,4,36,44,799,['c'],0,right,['9'],5,375,[0.09812515],100,44,hard,plus,dotcolour,alfa,,,122,18,V,L,
519,15,15,12,4,33,47,801,['n'],1,right,['9'],5,313,[-0.11430855],100,47,medium,plus,dotcolour,alfa,,,122,18,V,L,
520,16,16,12,4,36,44,1499,['n'],1,right,['9'],5,362,[-0.11553523],100,44,hard,plus,dotcolour,alfa,,,122,18,V,L,
521,17,17,12,4,47,33,1151,['c'],1,left,['8'],4,382,[0.09084871],99,47,medium,plus,dotcolour,alfa,,,122,18,V,L,
522,18,18,12,4,27,53,1300,['n'],1,right,['9'],5,300,[-0.09706357],100,53,easy,plus,dotcolour,alfa,,,122,18,V,L,
523,19,19,12,4,47,33,682,['n'],0,left,['2'],2,2054,[0.22860554],0,47,medium,plus,dotcolour,alfa,,,122,18,V,L,
524,20,20,12,4,44,36,1417,['n'],0,left,['8'],4,660,[-0.21501024],100,44,hard,plus,dotcolour,alfa,,,122,18,V,L,
525,21,21,12,4,44,36,1717,['c'],1,left,['8'],4,479,[0.09697439],99,44,hard,plus,dotcolour,alfa,,,122,18,V,L,
526,22,22,12,4,33,47,1267,['n'],1,right,['8'],4,338,[0.01658754],26,47,medium,plus,dotcolour,alfa,,,122,18,V,L,
527,23,23,12,4,27,53,733,['n'],1,right,['0'],6,224,[-0.08581217],100,53,easy,plus,dotcolour,alfa,,,122,18,V,L,
528,24,24,12,4,53,27,850,['c'],1,left,['9'],5,390,[0.17318189],100,53,easy,plus,dotcolour,alfa,,,122,18,V,L,
529,25,25,12,4,47,33,884,['c'],1,left,['9'],5,404,[0.17796531],100,47,medium,plus,dotcolour,alfa,,,122,18,V,L,
530,26,26,12,4,53,27,634,['c'],1,left,['8'],4,604,[0.2133523],100,53,easy,plus,dotcolour,alfa,,,122,18,V,L,
531,27,27,12,4,47,33,833,['c'],1,left,['8'],4,564,[0.22246279],100,47,medium,plus,dotcolour,alfa,,,122,18,V,L,
532,28,28,12,4,33,47,1900,['c'],0,right,['8'],4,314,[-0.02582369],16,47,medium,plus,dotcolour,alfa,,,122,18,V,L,
533,29,29,12,4,36,44,1450,['n'],1,right,['9'],5,333,[-0.16529867],100,44,hard,plus,dotcolour,alfa,,,122,18,V,L,
534,30,30,12,4,33,47,1050,['n'],1,right,['9'],5,383,[-0.08950198],99,47,medium,plus,dotcolour,alfa,,,122,18,V,L,
535,31,31,12,4,44,36,1017,['c'],1,left,['9'],5,176,[0.05932867],99,44,hard,plus,dotcolour,alfa,,,122,18,V,L,
536,32,32,12,4,53,27,3901,['c'],1,left,['9'],5,750,[0.10271518],99,53,easy,plus,dotcolour,alfa,,,122,18,V,L,
537,33,33,12,4,33,47,733,['n'],1,right,['9'],5,276,[-0.05648787],98,47,medium,plus,dotcolour,alfa,,,122,18,V,L,
538,34,34,12,4,47,33,866,['c'],1,left,['9'],5,263,[0.12235657],100,47,medium,plus,dotcolour,alfa,,,122,18,V,L,
539,35,35,12,4,27,53,734,['n'],1,right,['9'],5,225,[-0.06303432],99,53,easy,plus,dotcolour,alfa,,,122,18,V,L,
540,36,36,12,4,44,36,933,['c'],1,left,['9'],5,300,[0.12349406],100,44,hard,plus,dotcolour,alfa,,,122,18,V,L,
541,37,37,12,4,47,33,984,['n'],0,left,['9'],5,210,[-0.10666908],100,47,medium,plus,dotcolour,alfa,,,122,18,V,L,
542,38,38,12,4,33,47,901,['n'],1,right,['9'],5,239,[-0.03227238],92,47,medium,plus,dotcolour,alfa,,,122,18,V,L,
543,39,39,12,4,44,36,783,['c'],1,left,['9'],5,159,[0.06836488],100,44,hard,plus,dotcolour,alfa,,,122,18,V,L,
544,40,40,12,4,53,27,683,['c'],1,left,['9'],5,334,[0.06803271],99,53,easy,plus,dotcolour,alfa,,,122,18,V,L,
545,41,41,12,4,36,44,867,['n'],1,right,['9'],5,200,[-0.05760378],99,44,hard,plus,dotcolour,alfa,,,122,18,V,L,
546,42,0,13,4,44,36,817,['c'],1,left,['9'],5,200,[0.16219705],100,44,hard,plus,dotcolour,alfa,,,122,18,V,L,
547,43,1,13,4,27,53,733,['n'],1,right,['0'],6,301,[-0.16140456],100,53,easy,plus,dotcolour,alfa,,,122,18,V,L,
548,44,2,13,4,36,44,784,['c'],0,right,['9'],5,218,[-0.02505245],13,44,hard,plus,dotcolour,alfa,,,122,18,V,L,
549,45,3,13,4,53,27,1099,['c'],1,left,['9'],5,462,[0.1413461],100,53,easy,plus,dotcolour,alfa,,,122,18,V,L,
550,46,4,13,4,33,47,684,['n'],1,right,['9'],5,258,[-0.1157446],100,47,medium,plus,dotcolour,alfa,,,122,18,V,L,
551,47,5,13,4,36,44,800,['n'],1,right,['9'],5,265,[-0.06978223],99,44,hard,plus,dotcolour,alfa,,,122,18,V,L,
552,48,6,13,4,27,53,634,['n'],1,right,['9'],5,318,[-0.18792783],100,53,easy,plus,dotcolour,alfa,,,122,18,V,L,
553,49,7,13,4,33,47,1084,['n'],1,right,['8'],4,655,[-0.17044279],100,47,medium,plus,dotcolour,alfa,,,122,18,V,L,
554,50,8,13,4,44,36,900,['c'],1,left,['9'],5,274,[0.07450996],99,44,hard,plus,dotcolour,alfa,,,122,18,V,L,
555,51,9,13,4,53,27,1051,['c'],1,left,['9'],5,326,[0.09484986],100,53,easy,plus,dotcolour,alfa,,,122,18,V,L,
556,52,10,13,4,47,33,684,['c'],1,left,['9'],5,263,[0.07417274],99,47,medium,plus,dotcolour,alfa,,,122,18,V,L,
557,53,11,13,4,27,53,733,['n'],1,right,['9'],5,248,[-0.08819958],100,53,easy,plus,dotcolour,alfa,,,122,18,V,L,
558,54,12,13,4,27,53,1034,['n'],1,right,['9'],5,262,[-0.13990907],100,53,easy,plus,dotcolour,alfa,,,122,18,V,L,
559,55,13,13,4,53,27,600,['c'],1,left,['0'],6,701,[0.09197706],98,53,easy,plus,dotcolour,alfa,,,122,18,V,L,
560,56,14,13,4,33,47,1084,['n'],1,right,['9'],5,335,[-0.04310698],94,47,medium,plus,dotcolour,alfa,,,122,18,V,L,
561,57,15,13,4,36,44,883,['n'],1,right,['9'],5,272,[-0.13825324],100,44,hard,plus,dotcolour,alfa,,,122,18,V,L,
562,58,16,13,4,36,44,650,['n'],1,right,['9'],5,236,[-0.13414419],100,44,hard,plus,dotcolour,alfa,,,122,18,V,L,
563,59,17,13,4,47,33,866,['c'],1,left,['9'],5,235,[0.06934127],99,47,medium,plus,dotcolour,alfa,,,122,18,V,L,
564,60,18,13,4,36,44,917,['n'],1,right,['9'],5,285,[-0.02873574],87,44,hard,plus,dotcolour,alfa,,,122,18,V,L,
565,61,19,13,4,44,36,1033,['c'],1,left,['9'],5,298,[0.12811404],100,44,hard,plus,dotcolour,alfa,,,122,18,V,L,
566,62,20,13,4,53,27,767,['c'],1,left,['9'],5,241,[0.10139785],100,53,easy,plus,dotcolour,alfa,,,122,18,V,L,
567,63,21,13,4,44,36,1017,['c'],1,left,['9'],5,215,[0.1002069],100,44,hard,plus,dotcolour,alfa,,,122,18,V,L,
568,64,22,13,4,53,27,600,['c'],1,left,['0'],6,488,[0.14603094],100,53,easy,plus,dotcolour,alfa,,,122,18,V,L,
569,65,23,13,4,47,33,617,['c'],1,left,['0'],6,388,[0.06647029],98,47,medium,plus,dotcolour,alfa,,,122,18,V,L,
570,66,24,13,4,36,44,1284,['n'],1,right,['0'],6,498,[-0.12421488],100,44,hard,plus,dotcolour,alfa,,,122,18,V,L,
571,67,25,13,4,27,53,1067,['n'],1,right,['0'],6,293,[-0.17497531],100,53,easy,plus,dotcolour,alfa,,,122,18,V,L,
572,68,26,13,4,33,47,1017,['n'],1,right,['9'],5,258,[-0.12000812],100,47,medium,plus,dotcolour,alfa,,,122,18,V,L,
573,69,27,13,4,44,36,1183,['c'],1,left,['9'],5,257,[0.05825596],98,44,hard,plus,dotcolour,alfa,,,122,18,V,L,
574,70,28,13,4,44,36,834,['c'],1,left,['9'],5,255,[0.16167808],100,44,hard,plus,dotcolour,alfa,,,122,18,V,L,
575,71,29,13,4,47,33,734,['c'],1,left,['9'],5,200,[0.03276336],93,47,medium,plus,dotcolour,alfa,,,122,18,V,L,
576,72,30,13,4,33,47,1466,['n'],1,right,['9'],5,311,[-0.08683155],100,47,medium,plus,dotcolour,alfa,,,122,18,V,L,
577,73,31,13,4,53,27,682,['c'],1,left,['9'],5,288,[0.10330866],100,53,easy,plus,dotcolour,alfa,,,122,18,V,L,
578,74,32,13,4,33,47,1117,['n'],1,right,['9'],5,305,[-0.16248169],100,47,medium,plus,dotcolour,alfa,,,122,18,V,L,
579,75,33,13,4,27,53,784,['n'],1,right,['9'],5,279,[-0.15116073],100,53,easy,plus,dotcolour,alfa,,,122,18,V,L,
580,76,34,13,4,47,33,933,['c'],1,left,['9'],5,775,[0.17389192],100,47,medium,plus,dotcolour,alfa,,,122,18,V,L,
581,77,35,13,4,47,33,767,['c'],1,left,['9'],5,186,[0.05016138],99,47,medium,plus,dotcolour,alfa,,,122,18,V,L,
582,78,36,13,4,53,27,967,['c'],1,left,['9'],5,182,[0.05233485],99,53,easy,plus,dotcolour,alfa,,,122,18,V,L,
583,79,37,13,4,33,47,867,['n'],1,right,['0'],6,229,[-0.09633077],100,47,medium,plus,dotcolour,alfa,,,122,18,V,L,
584,80,38,13,4,27,53,1016,['n'],1,right,['9'],5,261,[-0.18847737],100,53,easy,plus,dotcolour,alfa,,,122,18,V,L,
585,81,39,13,4,44,36,767,['c'],1,left,['9'],5,237,[0.07329546],100,44,hard,plus,dotcolour,alfa,,,122,18,V,L,
586,82,40,13,4,36,44,1299,['n'],1,right,['9'],5,217,[-0.03899918],95,44,hard,plus,dotcolour,alfa,,,122,18,V,L,
587,83,41,13,4,47,33,785,['c'],1,left,['9'],5,234,[0.05958699],99,47,medium,plus,dotcolour,alfa,,,122,18,V,L,
588,84,0,14,4,44,36,1168,['n'],0,left,['3'],3,1686,[-0.12051214],97,44,hard,plus,dotcolour,alfa,,,122,18,V,L,
589,85,1,14,4,47,33,784,['c'],1,left,['9'],5,236,[0.09452619],100,47,medium,plus,dotcolour,alfa,,,122,18,V,L,
590,86,2,14,4,33,47,683,['n'],1,right,['9'],5,272,[-0.12109602],100,47,medium,plus,dotcolour,alfa,,,122,18,V,L,
591,87,3,14,4,47,33,650,['c'],1,left,['0'],6,428,[0.17817557],100,47,medium,plus,dotcolour,alfa,,,122,18,V,L,
592,88,4,14,4,33,47,834,['n'],1,right,['9'],5,235,[-0.14201958],100,47,medium,plus,dotcolour,alfa,,,122,18,V,L,
593,89,5,14,4,36,44,1567,['n'],1,right,['9'],5,220,[-0.07601102],100,44,hard,plus,dotcolour,alfa,,,122,18,V,L,
594,90,6,14,4,44,36,650,['c'],1,left,['9'],5,251,[0.04531788],96,44,hard,plus,dotcolour,alfa,,,122,18,V,L,
595,91,7,14,4,47,33,683,['c'],1,left,['9'],5,232,[0.09990388],100,47,medium,plus,dotcolour,alfa,,,122,18,V,L,
596,92,8,14,4,33,47,667,['n'],1,right,['9'],5,229,[-0.07695284],100,47,medium,plus,dotcolour,alfa,,,122,18,V,L,
597,93,9,14,4,27,53,1117,['n'],1,right,['9'],5,168,[-0.04426544],98,53,easy,plus,dotcolour,alfa,,,122,18,V,L,
598,94,10,14,4,36,44,667,['c'],0,right,['9'],5,264,[0.09266375],100,44,hard,plus,dotcolour,alfa,,,122,18,V,L,
599,95,11,14,4,33,47,834,['c'],0,right,['9'],5,221,[0.0653965],99,47,medium,plus,dotcolour,alfa,,,122,18,V,L,
600,96,12,14,4,47,33,717,['c'],1,left,['9'],5,186,[0.03999542],97,47,medium,plus,dotcolour,alfa,,,122,18,V,L,
601,97,13,14,4,47,33,750,['c'],1,left,['9'],5,261,[0.06004517],99,47,medium,plus,dotcolour,alfa,,,122,18,V,L,
602,98,14,14,4,27,53,584,['n'],1,right,['0'],6,429,[-0.05447445],95,53,easy,plus,dotcolour,alfa,,,122,18,V,L,
603,99,15,14,4,53,27,750,['c'],1,left,['9'],5,543,[0.25852947],100,53,easy,plus,dotcolour,alfa,,,122,18,V,L,
604,100,16,14,4,27,53,616,['n'],1,right,['9'],5,514,[-0.07263253],97,53,easy,plus,dotcolour,alfa,,,122,18,V,L,
605,101,17,14,4,44,36,1016,['n'],0,left,['8'],4,1101,[-0.07226396],92,44,hard,plus,dotcolour,alfa,,,122,18,V,L,
606,102,18,14,4,33,47,1000,['n'],1,right,['9'],5,274,[-0.04206136],95,47,medium,plus,dotcolour,alfa,,,122,18,V,L,
607,103,19,14,4,47,33,850,['c'],1,left,['9'],5,478,[0.19030127],100,47,medium,plus,dotcolour,alfa,,,122,18,V,L,
608,104,20,14,4,36,44,766,['n'],1,right,['9'],5,277,[-0.1596848],100,44,hard,plus,dotcolour,alfa,,,122,18,V,L,
609,105,21,14,4,27,53,601,['n'],1,right,['9'],5,300,[-0.06305384],98,53,easy,plus,dotcolour,alfa,,,122,18,V,L,
610,106,22,14,4,53,27,766,['c'],1,left,['0'],6,515,[0.16143973],100,53,easy,plus,dotcolour,alfa,,,122,18,V,L,
611,107,23,14,4,36,44,717,['c'],0,right,['0'],6,291,[-5.64073723e-05],50,44,hard,plus,dotcolour,alfa,,,122,18,V,L,
612,108,24,14,4,53,27,651,['c'],1,left,['0'],6,750,[0.12679117],99,53,easy,plus,dotcolour,alfa,,,122,18,V,L,
613,109,25,14,4,53,27,900,['c'],1,left,['0'],6,309,[0.0281011],86,53,easy,plus,dotcolour,alfa,,,122,18,V,L,
614,110,26,14,4,44,36,1483,['c'],1,left,['9'],5,279,[0.08993243],100,44,hard,plus,dotcolour,alfa,,,122,18,V,L,
615,111,27,14,4,44,36,934,['c'],1,left,['9'],5,183,[0.11264125],100,44,hard,plus,dotcolour,alfa,,,122,18,V,L,
616,112,28,14,4,53,27,717,['c'],1,left,['9'],5,229,[0.14730926],100,53,easy,plus,dotcolour,alfa,,,122,18,V,L,
617,113,29,14,4,33,47,1283,['n'],1,right,['9'],5,297,[-0.03280631],90,47,medium,plus,dotcolour,alfa,,,122,18,V,L,
618,114,30,14,4,27,53,1166,['n'],1,right,['9'],5,272,[-0.13838037],100,53,easy,plus,dotcolour,alfa,,,122,18,V,L,
619,115,31,14,4,53,27,583,['c'],1,left,['9'],5,223,[0.13338404],100,53,easy,plus,dotcolour,alfa,,,122,18,V,L,
620,116,32,14,4,33,47,1000,['c'],0,right,['9'],5,175,[0.08324405],100,47,medium,plus,dotcolour,alfa,,,122,18,V,L,
621,117,33,14,4,47,33,900,['c'],1,left,['9'],5,261,[0.15849572],100,47,medium,plus,dotcolour,alfa,,,122,18,V,L,
622,118,34,14,4,27,53,717,['n'],1,right,['9'],5,351,[-0.08998488],100,53,easy,plus,dotcolour,alfa,,,122,18,V,L,
623,119,35,14,4,36,44,1249,['c'],0,right,['9'],5,208,[0.01971605],83,44,hard,plus,dotcolour,alfa,,,122,18,V,L,
624,120,36,14,4,36,44,651,['c'],0,right,['9'],5,239,[0.04433357],96,44,hard,plus,dotcolour,alfa,,,122,18,V,L,
625,121,37,14,4,27,53,633,['n'],1,right,['9'],5,294,[-0.12586111],100,53,easy,plus,dotcolour,alfa,,,122,18,V,L,
626,122,38,14,4,36,44,1199,['n'],1,right,['9'],5,235,[-0.13187331],100,44,hard,plus,dotcolour,alfa,,,122,18,V,L,
627,123,39,14,4,44,36,1016,['c'],1,left,['9'],5,258,[0.09462685],100,44,hard,plus,dotcolour,alfa,,,122,18,V,L,
628,124,40,14,4,44,36,883,['c'],1,left,['9'],5,181,[0.02815875],92,44,hard,plus,dotcolour,alfa,,,122,18,V,L,
629,125,41,14,4,53,27,734,['c'],1,left,['9'],5,234,[0.04883368],97,53,easy,plus,dotcolour,alfa,,,122,18,V,L,
630,0,0,15,5,27,53,717,['n'],1,right,['9'],5,233,[-0.133233],92,53,easy,minus,dotcolour,alfa,,,122,18,V,L,
631,1,1,15,5,33,47,767,['n'],1,right,['9'],5,418,[-0.0611364],70,47,medium,minus,dotcolour,alfa,,,122,18,V,L,
632,2,2,15,5,36,44,833,['n'],1,right,['9'],5,210,[-0.08026482],83,44,hard,minus,dotcolour,alfa,,,122,18,V,L,
633,3,3,15,5,44,36,716,['c'],1,left,['9'],5,238,[0.08108432],82,44,hard,minus,dotcolour,alfa,,,122,18,V,L,
634,4,4,15,5,33,47,951,['c'],0,right,['9'],5,248,[0.12073863],90,47,medium,minus,dotcolour,alfa,,,122,18,V,L,
635,5,5,15,5,44,36,649,['c'],1,left,['9'],5,285,[0.04350128],68,44,hard,minus,dotcolour,alfa,,,122,18,V,L,
636,6,6,15,5,36,44,1233,['c'],0,right,['9'],5,314,[0.05408066],70,44,hard,minus,dotcolour,alfa,,,122,18,V,L,
637,7,7,15,5,36,44,550,['c'],0,right,['9'],5,184,[0.01650882],59,44,hard,minus,dotcolour,alfa,,,122,18,V,L,
638,8,8,15,5,53,27,566,['c'],1,left,['9'],5,181,[0.06213937],79,53,easy,minus,dotcolour,alfa,,,122,18,V,L,
639,9,9,15,5,47,33,766,['c'],1,left,['9'],5,231,[0.07998641],82,47,medium,minus,dotcolour,alfa,,,122,18,V,L,
640,10,10,15,5,47,33,567,['c'],1,left,['0'],6,440,[0.10134692],80,47,medium,minus,dotcolour,alfa,,,122,18,V,L,
641,11,11,15,5,27,53,634,['n'],1,right,['0'],6,342,[-0.01682619],56,53,easy,minus,dotcolour,alfa,,,122,18,V,L,
642,12,12,15,5,36,44,1067,['c'],0,right,['9'],5,295,[0.092662],82,44,hard,minus,dotcolour,alfa,,,122,18,V,L,
643,13,13,15,5,53,27,550,['c'],1,left,['9'],5,230,[0.07022061],79,53,easy,minus,dotcolour,alfa,,,122,18,V,L,
644,14,14,15,5,53,27,500,['c'],1,left,['9'],5,226,[0.12332224],91,53,easy,minus,dotcolour,alfa,,,122,18,V,L,
645,15,15,15,5,27,53,717,['n'],1,right,['9'],5,254,[-0.10112646],86,53,easy,minus,dotcolour,alfa,,,122,18,V,L,
646,16,16,15,5,33,47,549,['n'],1,right,['9'],5,239,[-0.0409274],68,47,medium,minus,dotcolour,alfa,,,122,18,V,L,
647,17,17,15,5,44,36,550,['c'],1,left,['9'],5,225,[0.12574082],92,44,hard,minus,dotcolour,alfa,,,122,18,V,L,
648,18,18,15,5,27,53,600,['n'],1,right,['9'],5,177,[-0.03743117],69,53,easy,minus,dotcolour,alfa,,,122,18,V,L,
649,19,19,15,5,47,33,884,['c'],1,left,['9'],5,207,[0.06353742],78,47,medium,minus,dotcolour,alfa,,,122,18,V,L,
650,20,20,15,5,53,27,617,['c'],1,left,['9'],5,263,[0.15047556],93,53,easy,minus,dotcolour,alfa,,,122,18,V,L,
651,21,21,15,5,53,27,534,['c'],1,left,['9'],5,225,[0.03909513],68,53,easy,minus,dotcolour,alfa,,,122,18,V,L,
652,22,22,15,5,27,53,650,['n'],1,right,['9'],5,207,[-0.13058852],93,53,easy,minus,dotcolour,alfa,,,122,18,V,L,
653,23,23,15,5,36,44,700,['c'],0,right,['9'],5,203,[0.02080608],60,44,hard,minus,dotcolour,alfa,,,122,18,V,L,
654,24,24,15,5,27,53,550,['n'],1,right,['0'],6,591,[-0.11427632],79,53,easy,minus,dotcolour,alfa,,,122,18,V,L,
655,25,25,15,5,33,47,833,['n'],1,right,['9'],5,255,[-0.11873342],89,47,medium,minus,dotcolour,alfa,,,122,18,V,L,
656,26,26,15,5,27,53,467,['n'],1,right,['9'],5,204,[-0.01315074],57,53,easy,minus,dotcolour,alfa,,,122,18,V,L,
657,27,27,15,5,44,36,1035,['c'],1,left,['9'],5,315,[0.19281488],96,44,hard,minus,dotcolour,alfa,,,122,18,V,L,
658,28,28,15,5,36,44,768,['n'],1,right,['9'],5,434,[-0.1421439],87,44,hard,minus,dotcolour,alfa,,,122,18,V,L,
659,29,29,15,5,53,27,600,['c'],1,left,['9'],5,201,[0.06941866],80,53,easy,minus,dotcolour,alfa,,,122,18,V,L,
660,30,30,15,5,44,36,550,['c'],1,left,['9'],5,174,[0.03473813],68,44,hard,minus,dotcolour,alfa,,,122,18,V,L,
661,31,31,15,5,44,36,483,['c'],1,left,['9'],5,220,[0.05984631],76,44,hard,minus,dotcolour,alfa,,,122,18,V,L,
662,32,32,15,5,47,33,517,['c'],1,left,['9'],5,168,[0.04087451],71,47,medium,minus,dotcolour,alfa,,,122,18,V,L,
663,33,33,15,5,44,36,583,['c'],1,left,['9'],5,243,[0.10060766],86,44,hard,minus,dotcolour,alfa,,,122,18,V,L,
664,34,34,15,5,47,33,850,['c'],1,left,['9'],5,192,[0.16388148],97,47,medium,minus,dotcolour,alfa,,,122,18,V,L,
665,35,35,15,5,36,44,1884,['c'],0,right,['9'],5,246,[0.06774784],77,44,hard,minus,dotcolour,alfa,,,122,18,V,L,
666,36,36,15,5,47,33,567,['c'],1,left,['9'],5,176,[0.08046605],85,47,medium,minus,dotcolour,alfa,,,122,18,V,L,
667,37,37,15,5,47,33,616,['c'],1,left,['9'],5,217,[0.10377074],88,47,medium,minus,dotcolour,alfa,,,122,18,V,L,
668,38,38,15,5,33,47,817,['n'],1,right,['9'],5,217,[-0.10815268],89,47,medium,minus,dotcolour,alfa,,,122,18,V,L,
669,39,39,15,5,33,47,650,['n'],1,right,['9'],5,239,[-0.07470926],80,47,medium,minus,dotcolour,alfa,,,122,18,V,L,
670,40,40,15,5,53,27,534,['c'],1,left,['9'],5,193,[0.13965604],95,53,easy,minus,dotcolour,alfa,,,122,18,V,L,
671,41,41,15,5,33,47,750,['n'],1,right,['9'],5,220,[0.0295112],36,47,medium,minus,dotcolour,alfa,,,122,18,V,L,
672,42,0,16,5,53,27,617,['c'],1,left,['9'],5,189,[0.12015969],92,53,easy,minus,dotcolour,alfa,,,122,18,V,L,
673,43,1,16,5,27,53,484,['c'],0,right,['1'],1,1675,[0.00652766],51,53,easy,minus,dotcolour,alfa,,,122,18,V,L,
674,44,2,16,5,27,53,983,['n'],1,right,['9'],5,498,[-0.18249565],91,53,easy,minus,dotcolour,alfa,,,122,18,V,L,
675,45,3,16,5,36,44,617,['n'],1,right,['9'],5,271,[-0.11581872],88,44,hard,minus,dotcolour,alfa,,,122,18,V,L,
676,46,4,16,5,27,53,600,['n'],1,right,['9'],5,301,[-0.17525597],95,53,easy,minus,dotcolour,alfa,,,122,18,V,L,
677,47,5,16,5,33,47,884,['n'],1,right,['9'],5,263,[-0.01631191],57,47,medium,minus,dotcolour,alfa,,,122,18,V,L,
678,48,6,16,5,53,27,866,['c'],1,left,['9'],5,220,[0.16029421],96,53,easy,minus,dotcolour,alfa,,,122,18,V,L,
679,49,7,16,5,44,36,867,['c'],1,left,['9'],5,210,[0.0989823],87,44,hard,minus,dotcolour,alfa,,,122,18,V,L,
680,50,8,16,5,33,47,650,['n'],1,right,['9'],5,209,[-0.09366925],86,47,medium,minus,dotcolour,alfa,,,122,18,V,L,
681,51,9,16,5,33,47,567,['n'],1,right,['9'],5,242,[-0.10219785],87,47,medium,minus,dotcolour,alfa,,,122,18,V,L,
682,52,10,16,5,27,53,617,['n'],1,right,['9'],5,210,[-0.10492172],89,53,easy,minus,dotcolour,alfa,,,122,18,V,L,
683,53,11,16,5,53,27,818,['c'],1,left,['9'],5,234,[0.20854318],98,53,easy,minus,dotcolour,alfa,,,122,18,V,L,
684,54,12,16,5,36,44,634,['n'],1,right,['9'],5,240,[-0.05960811],75,44,hard,minus,dotcolour,alfa,,,122,18,V,L,
685,55,13,16,5,47,33,684,['c'],1,left,['9'],5,228,[0.13506062],93,47,medium,minus,dotcolour,alfa,,,122,18,V,L,
686,56,14,16,5,27,53,633,['n'],1,right,['9'],5,234,[-0.2368596],99,53,easy,minus,dotcolour,alfa,,,122,18,V,L,
687,57,15,16,5,47,33,833,['c'],1,left,['9'],5,217,[0.08297008],83,47,medium,minus,dotcolour,alfa,,,122,18,V,L,
688,58,16,16,5,47,33,1067,['c'],1,left,['8'],4,359,[0.17217963],93,47,medium,minus,dotcolour,alfa,,,122,18,V,L,
689,59,17,16,5,53,27,833,['c'],1,left,['9'],5,177,[0.15324242],96,53,easy,minus,dotcolour,alfa,,,122,18,V,L,
690,60,18,16,5,44,36,784,['c'],1,left,['9'],5,211,[0.0583348],76,44,hard,minus,dotcolour,alfa,,,122,18,V,L,
691,61,19,16,5,27,53,766,['n'],1,right,['0'],6,317,[-0.12053977],87,53,easy,minus,dotcolour,alfa,,,122,18,V,L,
692,62,20,16,5,44,36,750,['c'],1,left,['9'],5,204,[0.12009881],92,44,hard,minus,dotcolour,alfa,,,122,18,V,L,
693,63,21,16,5,47,33,1234,['c'],1,left,['9'],5,148,[-0.00401063],48,47,medium,minus,dotcolour,alfa,,,122,18,V,L,
694,64,22,16,5,33,47,1317,['n'],1,right,['9'],5,258,[-0.07467866],79,47,medium,minus,dotcolour,alfa,,,122,18,V,L,
695,65,23,16,5,36,44,650,['n'],1,right,['9'],5,232,[-0.08553133],83,44,hard,minus,dotcolour,alfa,,,122,18,V,L,
696,66,24,16,5,36,44,567,['n'],1,right,['9'],5,289,[-0.05964317],73,44,hard,minus,dotcolour,alfa,,,122,18,V,L,
697,67,25,16,5,53,27,766,['c'],1,left,['9'],5,256,[0.10045599],86,53,easy,minus,dotcolour,alfa,,,122,18,V,L,
698,68,26,16,5,33,47,1417,['c'],0,right,['9'],5,445,[-0.05588339],32,47,medium,minus,dotcolour,alfa,,,122,18,V,L,
699,69,27,16,5,36,44,766,['n'],1,right,['9'],5,286,[-0.15944693],94,44,hard,minus,dotcolour,alfa,,,122,18,V,L,
700,70,28,16,5,36,44,767,['n'],1,right,['9'],5,293,[-0.119381],88,44,hard,minus,dotcolour,alfa,,,122,18,V,L,
701,71,29,16,5,44,36,882,['c'],1,left,['9'],5,232,[-0.00923694],46,44,hard,minus,dotcolour,alfa,,,122,18,V,L,
702,72,30,16,5,44,36,617,['n'],0,left,['9'],5,367,[-0.13739085],89,44,hard,minus,dotcolour,alfa,,,122,18,V,L,
703,73,31,16,5,53,27,884,['c'],1,left,['9'],5,182,[0.05284583],75,53,easy,minus,dotcolour,alfa,,,122,18,V,L,
704,74,32,16,5,44,36,1001,['c'],1,left,['9'],5,233,[0.00626039],53,44,hard,minus,dotcolour,alfa,,,122,18,V,L,
705,75,33,16,5,47,33,633,['n'],0,left,['2'],2,1279,[-0.01143324],52,47,medium,minus,dotcolour,alfa,,,122,18,V,L,
706,76,34,16,5,36,44,634,['n'],1,right,['9'],5,252,[-0.12162544],90,44,hard,minus,dotcolour,alfa,,,122,18,V,L,
707,77,35,16,5,33,47,567,['n'],1,right,['9'],5,172,[-0.05953717],78,47,medium,minus,dotcolour,alfa,,,122,18,V,L,
708,78,36,16,5,33,47,1116,['n'],1,right,['9'],5,297,[-0.13923908],91,47,medium,minus,dotcolour,alfa,,,122,18,V,L,
709,79,37,16,5,27,53,518,['n'],1,right,['0'],6,514,[-0.25109457],96,53,easy,minus,dotcolour,alfa,,,122,18,V,L,
710,80,38,16,5,47,33,800,['c'],1,left,['9'],5,247,[-0.01921567],41,47,medium,minus,dotcolour,alfa,,,122,18,V,L,
711,81,39,16,5,47,33,984,['c'],1,left,['9'],5,207,[0.004717],52,47,medium,minus,dotcolour,alfa,,,122,18,V,L,
712,82,40,16,5,53,27,834,['c'],1,left,['9'],5,158,[0.08148608],86,53,easy,minus,dotcolour,alfa,,,122,18,V,L,
713,83,41,16,5,44,36,750,['n'],0,left,['9'],5,179,[-0.07248354],82,44,hard,minus,dotcolour,alfa,,,122,18,V,L,
714,84,0,17,5,53,27,601,['c'],1,left,['9'],5,196,[0.06065424],77,53,easy,minus,dotcolour,alfa,,,122,18,V,L,
715,85,1,17,5,44,36,750,['c'],1,left,['9'],5,184,[0.08795786],86,44,hard,minus,dotcolour,alfa,,,122,18,V,L,
716,86,2,17,5,36,44,1033,['n'],1,right,['9'],5,216,[-0.07131276],80,44,hard,minus,dotcolour,alfa,,,122,18,V,L,
717,87,3,17,5,36,44,616,['n'],1,right,['9'],5,209,[-0.06307417],78,44,hard,minus,dotcolour,alfa,,,122,18,V,L,
718,88,4,17,5,44,36,567,['c'],1,left,['9'],5,178,[0.07280331],83,44,hard,minus,dotcolour,alfa,,,122,18,V,L,
719,89,5,17,5,36,44,649,['c'],0,right,['9'],5,178,[0.09372366],88,44,hard,minus,dotcolour,alfa,,,122,18,V,L,
720,90,6,17,5,44,36,567,['c'],1,left,['9'],5,230,[0.06574143],77,44,hard,minus,dotcolour,alfa,,,122,18,V,L,
721,91,7,17,5,53,27,767,['c'],1,left,['9'],5,311,[0.19004622],96,53,easy,minus,dotcolour,alfa,,,122,18,V,L,
722,92,8,17,5,27,53,766,['n'],1,right,['9'],5,301,[-0.02231232],59,53,easy,minus,dotcolour,alfa,,,122,18,V,L,
723,93,9,17,5,27,53,600,['n'],1,right,['9'],5,274,[-0.0999129],85,53,easy,minus,dotcolour,alfa,,,122,18,V,L,
724,94,10,17,5,27,53,584,['n'],1,right,['9'],5,266,[-0.18389062],96,53,easy,minus,dotcolour,alfa,,,122,18,V,L,
725,95,11,17,5,33,47,616,['n'],1,right,['9'],5,183,[-0.0988242],89,47,medium,minus,dotcolour,alfa,,,122,18,V,L,
726,96,12,17,5,47,33,617,['c'],1,left,['9'],5,233,[0.09270493],85,47,medium,minus,dotcolour,alfa,,,122,18,V,L,
727,97,13,17,5,27,53,534,['c'],0,right,['1'],1,1155,[-0.04987849],40,53,easy,minus,dotcolour,alfa,,,122,18,V,L,
728,98,14,17,5,47,33,666,['n'],0,left,['9'],5,291,[-0.01486703],56,47,medium,minus,dotcolour,alfa,,,122,18,V,L,
729,99,15,17,5,44,36,900,['n'],0,left,['9'],5,261,[-0.06298744],75,44,hard,minus,dotcolour,alfa,,,122,18,V,L,
730,100,16,17,5,44,36,1367,['c'],1,left,['9'],5,301,[0.07391296],77,44,hard,minus,dotcolour,alfa,,,122,18,V,L,
731,101,17,17,5,36,44,699,['n'],1,right,['9'],5,247,[-0.06140838],75,44,hard,minus,dotcolour,alfa,,,122,18,V,L,
732,102,18,17,5,53,27,633,['c'],1,left,['9'],5,236,[0.16876678],96,53,easy,minus,dotcolour,alfa,,,122,18,V,L,
733,103,19,17,5,33,47,650,['n'],1,right,['9'],5,226,[-0.06340351],77,47,medium,minus,dotcolour,alfa,,,122,18,V,L,
734,104,20,17,5,33,47,617,['n'],1,right,['9'],5,210,[-0.06486845],78,47,medium,minus,dotcolour,alfa,,,122,18,V,L,
735,105,21,17,5,53,27,683,['c'],1,left,['0'],6,311,[0.0616502],73,53,easy,minus,dotcolour,alfa,,,122,18,V,L,
736,106,22,17,5,27,53,550,['n'],1,right,['9'],5,230,[-0.03604649],66,53,easy,minus,dotcolour,alfa,,,122,18,V,L,
737,107,23,17,5,47,33,934,['c'],1,left,['9'],5,264,[0.09824387],85,47,medium,minus,dotcolour,alfa,,,122,18,V,L,
738,108,24,17,5,33,47,700,['n'],1,right,['8'],4,283,[-0.10478585],85,47,medium,minus,dotcolour,alfa,,,122,18,V,L,
739,109,25,17,5,36,44,1483,['n'],1,right,['9'],5,342,[0.03482088],37,44,hard,minus,dotcolour,alfa,,,122,18,V,L,
740,110,26,17,5,44,36,1116,['n'],0,left,['9'],5,276,[-0.07915953],80,44,hard,minus,dotcolour,alfa,,,122,18,V,L,
741,111,27,17,5,33,47,800,['n'],1,right,['0'],6,290,[-0.15434779],93,47,medium,minus,dotcolour,alfa,,,122,18,V,L,
742,112,28,17,5,47,33,867,['c'],1,left,['9'],5,269,[0.12225592],89,47,medium,minus,dotcolour,alfa,,,122,18,V,L,
743,113,29,17,5,36,44,634,['n'],1,right,['9'],5,290,[-0.11254208],87,44,hard,minus,dotcolour,alfa,,,122,18,V,L,
744,114,30,17,5,53,27,867,['c'],1,left,['9'],5,221,[0.2178469],98,53,easy,minus,dotcolour,alfa,,,122,18,V,L,
745,115,31,17,5,27,53,700,['n'],1,right,['9'],5,266,[-0.06747103],76,53,easy,minus,dotcolour,alfa,,,122,18,V,L,
746,116,32,17,5,47,33,567,['c'],1,left,['9'],5,186,[0.09548056],88,47,medium,minus,dotcolour,alfa,,,122,18,V,L,
747,117,33,17,5,36,44,750,['n'],1,right,['9'],5,302,[-0.19776612],96,44,hard,minus,dotcolour,alfa,,,122,18,V,L,
748,118,34,17,5,53,27,583,['c'],1,left,['9'],5,253,[0.13238098],91,53,easy,minus,dotcolour,alfa,,,122,18,V,L,
749,119,35,17,5,53,27,549,['c'],1,left,['9'],5,342,[0.17038539],93,53,easy,minus,dotcolour,alfa,,,122,18,V,L,
750,120,36,17,5,27,53,551,['n'],1,right,['9'],5,371,[-0.13849952],89,53,easy,minus,dotcolour,alfa,,,122,18,V,L,
751,121,37,17,5,33,47,800,['n'],1,right,['9'],5,333,[-0.14364316],90,47,medium,minus,dotcolour,alfa,,,122,18,V,L,
752,122,38,17,5,47,33,751,['c'],1,left,['9'],5,220,[0.08354654],83,47,medium,minus,dotcolour,alfa,,,122,18,V,L,
753,123,39,17,5,47,33,999,['c'],1,left,['9'],5,285,[0.09737568],84,47,medium,minus,dotcolour,alfa,,,122,18,V,L,
754,124,40,17,5,44,36,767,['n'],0,left,['9'],5,235,[-0.06632849],77,44,hard,minus,dotcolour,alfa,,,122,18,V,L,
755,125,41,17,5,33,47,517,['n'],1,right,['9'],5,263,[-0.088754],83,47,medium,minus,dotcolour,alfa,,,122,18,V,L,
,,,,,,,,,,,,,,,,,,,,,1,nee,122,18,V,L,
,,,,,,,,,,,,,,,,,,,,,2,['d'],122,18,V,L,
,,,,,,,,,,,,,,,,,,,,,3,['d'],122,18,V,L,
,,,,,,,,,,,,,,,,,,,,,5,['5'],122,18,V,L,
