trial,withinphasetrial,withinblocktrial,block,phase,dotsLeft,dotsRight,rt,resp,cor,cresp,conf_press,cj,RTconf,ev,fb,diff,difflevel,condition,task,manip,questionID,questionResp,sub,age,gender,handedness,
0,0,0,0,0,47,33,2600,['c'],1,left,['3'],4,2283,[0.26251891],100,47,medium,plus,dotcolour,alfa,,,132,20,V,R,
1,1,1,0,0,44,36,1834,['n'],0,left,['8'],3,1710,[-0.24399881],100,44,hard,plus,dotcolour,alfa,,,132,20,V,R,
2,2,2,0,0,27,53,833,['n'],1,right,['8'],3,1385,[-0.45699128],100,53,easy,plus,dotcolour,alfa,,,132,20,V,R,
3,3,3,0,0,27,53,1183,['n'],1,right,['1'],6,859,[-0.262615],100,53,easy,plus,dotcolour,alfa,,,132,20,V,R,
4,4,4,0,0,47,33,884,['c'],1,left,['8'],3,895,[0.1880091],100,47,medium,plus,dotcolour,alfa,,,132,20,V,R,
5,5,5,0,0,36,44,1216,['n'],1,right,['3'],4,803,[-0.09397787],98,44,hard,plus,dotcolour,alfa,,,132,20,V,R,
6,6,6,0,0,33,47,1100,['n'],1,right,['3'],4,704,[0.06124906],7,47,medium,plus,dotcolour,alfa,,,132,20,V,R,
7,7,7,0,0,53,27,916,['c'],1,left,['1'],6,616,[0.11961161],100,53,easy,plus,dotcolour,alfa,,,132,20,V,R,
8,8,8,0,0,27,53,883,['n'],1,right,['1'],6,438,[-0.0785302],99,53,easy,plus,dotcolour,alfa,,,132,20,V,R,
9,9,9,0,0,44,36,1067,['n'],0,left,['8'],3,579,[-0.00641876],58,44,hard,plus,dotcolour,alfa,,,132,20,V,R,
10,10,10,0,0,53,27,734,['c'],1,left,['1'],6,943,[0.11891811],99,53,easy,plus,dotcolour,alfa,,,132,20,V,R,
11,11,11,0,0,47,33,1016,['n'],0,left,['1'],6,538,[-0.03821253],87,47,medium,plus,dotcolour,alfa,,,132,20,V,R,
12,12,12,0,0,36,44,967,['n'],1,right,['3'],4,863,[-0.15935426],100,44,hard,plus,dotcolour,alfa,,,132,20,V,R,
13,13,13,0,0,27,53,1700,['n'],1,right,['1'],6,441,[-0.24004749],100,53,easy,plus,dotcolour,alfa,,,132,20,V,R,
14,14,14,0,0,33,47,1050,['n'],1,right,['1'],6,487,[-0.0405632],89,47,medium,plus,dotcolour,alfa,,,132,20,V,R,
15,15,15,0,0,44,36,834,['c'],1,left,['1'],6,315,[0.11347396],100,44,hard,plus,dotcolour,alfa,,,132,20,V,R,
16,16,16,0,0,44,36,2017,['c'],1,left,['8'],3,839,[0.12536256],99,44,hard,plus,dotcolour,alfa,,,132,20,V,R,
17,17,17,0,0,33,47,750,['n'],1,right,['1'],6,345,[-0.14121306],100,47,medium,plus,dotcolour,alfa,,,132,20,V,R,
18,18,18,0,0,47,33,934,['c'],1,left,['1'],6,223,[0.11815347],100,47,medium,plus,dotcolour,alfa,,,132,20,V,R,
19,19,19,0,0,36,44,1217,['n'],1,right,['1'],6,558,[-0.2019425],100,44,hard,plus,dotcolour,alfa,,,132,20,V,R,
20,20,20,0,0,47,33,818,['c'],1,left,['3'],4,2728,[0.40006501],100,47,medium,plus,dotcolour,alfa,,,132,20,V,R,
21,21,21,0,0,53,27,733,['c'],1,left,['3'],4,430,[0.153629],100,53,easy,plus,dotcolour,alfa,,,132,20,V,R,
22,22,22,0,0,53,27,800,['c'],1,left,['2'],5,1022,[0.15151952],100,53,easy,plus,dotcolour,alfa,,,132,20,V,R,
23,23,23,0,0,53,27,684,['c'],1,left,['3'],4,371,[0.21537977],100,53,easy,plus,dotcolour,alfa,,,132,20,V,R,
24,24,24,0,0,33,47,851,['n'],1,right,['3'],4,571,[-0.08451164],98,47,medium,plus,dotcolour,alfa,,,132,20,V,R,
25,25,25,0,0,53,27,717,['c'],1,left,['1'],6,504,[0.04476872],91,53,easy,plus,dotcolour,alfa,,,132,20,V,R,
26,26,26,0,0,47,33,800,['c'],1,left,['3'],4,605,[0.22796084],100,47,medium,plus,dotcolour,alfa,,,132,20,V,R,
27,27,27,0,0,27,53,867,['n'],1,right,['2'],5,1155,[-0.19317344],100,53,easy,plus,dotcolour,alfa,,,132,20,V,R,
28,28,28,0,0,27,53,833,['n'],1,right,['2'],5,492,[-0.12989886],100,53,easy,plus,dotcolour,alfa,,,132,20,V,R,
29,29,29,0,0,44,36,867,['n'],0,left,['2'],5,1271,[0.10094447],4,44,hard,plus,dotcolour,alfa,,,132,20,V,R,
30,30,30,0,0,27,53,733,['n'],1,right,['1'],6,760,[-0.03928061],84,53,easy,plus,dotcolour,alfa,,,132,20,V,R,
31,31,31,0,0,36,44,767,['n'],1,right,['1'],6,204,[-0.09989204],100,44,hard,plus,dotcolour,alfa,,,132,20,V,R,
32,32,32,0,0,36,44,1484,['n'],1,right,['1'],6,114,[-0.05005583],100,44,hard,plus,dotcolour,alfa,,,132,20,V,R,
33,33,33,0,0,53,27,967,['c'],1,left,['1'],6,7,[0.07215565],100,53,easy,plus,dotcolour,alfa,,,132,20,V,R,
34,34,34,0,0,47,33,1134,['c'],1,left,['1'],6,203,[0.03492944],94,47,medium,plus,dotcolour,alfa,,,132,20,V,R,
35,35,35,0,0,33,47,583,['n'],1,right,['1'],6,189,[-0.08670653],100,47,medium,plus,dotcolour,alfa,,,132,20,V,R,
36,36,36,0,0,36,44,716,['n'],1,right,['1'],6,146,[-0.07564186],100,44,hard,plus,dotcolour,alfa,,,132,20,V,R,
37,37,37,0,0,33,47,734,['n'],1,right,['1'],6,144,[-0.10239157],100,47,medium,plus,dotcolour,alfa,,,132,20,V,R,
38,38,38,0,0,44,36,1067,['n'],0,left,['0'],1,137,[-0.05748057],100,44,hard,plus,dotcolour,alfa,,,132,20,V,R,
39,39,39,0,0,33,47,1400,['n'],1,right,['1'],6,148,[-0.04802246],99,47,medium,plus,dotcolour,alfa,,,132,20,V,R,
40,40,40,0,0,36,44,4834,['n'],1,right,['3'],4,4799,[-0.44808652],100,44,hard,plus,dotcolour,alfa,,,132,20,V,R,
41,41,41,0,0,44,36,1235,['c'],1,left,['3'],4,701,[-0.02888857],22,44,hard,plus,dotcolour,alfa,,,132,20,V,R,
42,42,0,1,0,53,27,684,['c'],1,left,['3'],4,758,[0.42810294],100,53,easy,plus,dotcolour,alfa,,,132,20,V,R,
43,43,1,1,0,33,47,682,['n'],1,right,['1'],6,253,[-0.17211468],100,47,medium,plus,dotcolour,alfa,,,132,20,V,R,
44,44,2,1,0,44,36,1402,['n'],0,left,['3'],4,1052,[-0.00976033],58,44,hard,plus,dotcolour,alfa,,,132,20,V,R,
45,45,3,1,0,47,33,1200,['c'],1,left,['3'],4,595,[0.16206961],100,47,medium,plus,dotcolour,alfa,,,132,20,V,R,
46,46,4,1,0,33,47,617,['n'],1,right,['1'],6,251,[-0.17015383],100,47,medium,plus,dotcolour,alfa,,,132,20,V,R,
47,47,5,1,0,53,27,717,['c'],1,left,['1'],6,605,[0.14286975],100,53,easy,plus,dotcolour,alfa,,,132,20,V,R,
48,48,6,1,0,36,44,734,['n'],1,right,['1'],6,193,[-0.06593156],100,44,hard,plus,dotcolour,alfa,,,132,20,V,R,
49,49,7,1,0,27,53,916,['n'],1,right,['1'],6,181,[-0.11001179],100,53,easy,plus,dotcolour,alfa,,,132,20,V,R,
50,50,8,1,0,27,53,1099,['n'],1,right,['1'],6,212,[-0.15160172],100,53,easy,plus,dotcolour,alfa,,,132,20,V,R,
51,51,9,1,0,33,47,967,['n'],1,right,['1'],6,566,[-0.19412741],100,47,medium,plus,dotcolour,alfa,,,132,20,V,R,
52,52,10,1,0,44,36,1249,['n'],0,left,['1'],6,150,[-0.04728438],99,44,hard,plus,dotcolour,alfa,,,132,20,V,R,
53,53,11,1,0,53,27,1184,['c'],1,left,['1'],6,266,[0.14492913],100,53,easy,plus,dotcolour,alfa,,,132,20,V,R,
54,54,12,1,0,53,27,1366,['c'],1,left,['1'],6,1538,[0.05996714],85,53,easy,plus,dotcolour,alfa,,,132,20,V,R,
55,55,13,1,0,27,53,1134,['n'],1,right,['1'],6,168,[-0.06659817],100,53,easy,plus,dotcolour,alfa,,,132,20,V,R,
56,56,14,1,0,36,44,799,['n'],1,right,['1'],6,123,[-0.09526544],100,44,hard,plus,dotcolour,alfa,,,132,20,V,R,
57,57,15,1,0,47,33,950,['n'],0,left,['1'],6,145,[-0.09373121],100,47,medium,plus,dotcolour,alfa,,,132,20,V,R,
58,58,16,1,0,33,47,1100,['n'],1,right,['1'],6,488,[-0.06905428],97,47,medium,plus,dotcolour,alfa,,,132,20,V,R,
59,59,17,1,0,44,36,784,['c'],1,left,['1'],6,302,[0.00375087],56,44,hard,plus,dotcolour,alfa,,,132,20,V,R,
60,60,18,1,0,44,36,1933,['c'],1,left,['3'],4,918,[-0.01949899],32,44,hard,plus,dotcolour,alfa,,,132,20,V,R,
61,61,19,1,0,36,44,1050,['n'],1,right,['1'],6,384,[-0.06137873],97,44,hard,plus,dotcolour,alfa,,,132,20,V,R,
62,62,20,1,0,36,44,717,['n'],1,right,['1'],6,294,[-0.03556615],91,44,hard,plus,dotcolour,alfa,,,132,20,V,R,
63,63,21,1,0,53,27,984,['c'],1,left,['1'],6,292,[0.09164761],100,53,easy,plus,dotcolour,alfa,,,132,20,V,R,
64,64,22,1,0,27,53,1000,['n'],1,right,['1'],6,161,[-0.11227527],100,53,easy,plus,dotcolour,alfa,,,132,20,V,R,
65,65,23,1,0,33,47,1133,['n'],1,right,['1'],6,135,[-0.0741379],100,47,medium,plus,dotcolour,alfa,,,132,20,V,R,
66,66,24,1,0,53,27,900,['c'],1,left,['1'],6,479,[0.13894334],100,53,easy,plus,dotcolour,alfa,,,132,20,V,R,
67,67,25,1,0,33,47,950,['n'],1,right,['1'],6,127,[-0.1176223],100,47,medium,plus,dotcolour,alfa,,,132,20,V,R,
68,68,26,1,0,44,36,1083,['c'],1,left,['1'],6,207,[0.00434953],59,44,hard,plus,dotcolour,alfa,,,132,20,V,R,
69,69,27,1,0,47,33,1383,['c'],1,left,['3'],4,457,[0.09424544],99,47,medium,plus,dotcolour,alfa,,,132,20,V,R,
70,70,28,1,0,53,27,1050,['c'],1,left,['1'],6,198,[0.04042249],96,53,easy,plus,dotcolour,alfa,,,132,20,V,R,
71,71,29,1,0,44,36,1052,['n'],0,left,['1'],6,237,[-0.01461683],75,44,hard,plus,dotcolour,alfa,,,132,20,V,R,
72,72,30,1,0,36,44,1800,['n'],1,right,['1'],6,133,[-0.12041954],100,44,hard,plus,dotcolour,alfa,,,132,20,V,R,
73,73,31,1,0,47,33,1334,['n'],0,left,['8'],3,2420,[0.35341265],0,47,medium,plus,dotcolour,alfa,,,132,20,V,R,
74,74,32,1,0,27,53,1001,['n'],1,right,['1'],6,308,[-0.07783323],99,53,easy,plus,dotcolour,alfa,,,132,20,V,R,
75,75,33,1,0,27,53,616,['n'],1,right,['1'],6,151,[-0.05794286],100,53,easy,plus,dotcolour,alfa,,,132,20,V,R,
76,76,34,1,0,47,33,1116,['n'],0,left,['1'],6,158,[-0.08633177],100,47,medium,plus,dotcolour,alfa,,,132,20,V,R,
77,77,35,1,0,27,53,633,['n'],1,right,['1'],6,128,[-0.1430226],100,53,easy,plus,dotcolour,alfa,,,132,20,V,R,
78,78,36,1,0,44,36,866,['c'],1,left,['1'],6,161,[0.00806978],67,44,hard,plus,dotcolour,alfa,,,132,20,V,R,
79,79,37,1,0,36,44,717,['n'],1,right,['1'],6,135,[-0.04167782],98,44,hard,plus,dotcolour,alfa,,,132,20,V,R,
80,80,38,1,0,47,33,883,['n'],0,left,['1'],6,152,[-0.08353292],100,47,medium,plus,dotcolour,alfa,,,132,20,V,R,
81,81,39,1,0,47,33,866,['c'],1,left,['1'],6,192,[0.13215205],100,47,medium,plus,dotcolour,alfa,,,132,20,V,R,
82,82,40,1,0,33,47,732,['n'],1,right,['1'],6,133,[-0.06434379],100,47,medium,plus,dotcolour,alfa,,,132,20,V,R,
83,83,41,1,0,36,44,649,['n'],1,right,['1'],6,142,[-0.03124214],95,44,hard,plus,dotcolour,alfa,,,132,20,V,R,
84,84,0,2,0,53,27,767,['c'],1,left,['1'],6,124,[0.17497695],100,53,easy,plus,dotcolour,alfa,,,132,20,V,R,
85,85,1,2,0,47,33,684,['c'],1,left,['1'],6,61,[0.06456324],100,47,medium,plus,dotcolour,alfa,,,132,20,V,R,
86,86,2,2,0,53,27,550,['c'],1,left,['1'],6,157,[0.12291409],100,53,easy,plus,dotcolour,alfa,,,132,20,V,R,
87,87,3,2,0,47,33,917,['c'],1,left,['1'],6,204,[0.11119358],100,47,medium,plus,dotcolour,alfa,,,132,20,V,R,
88,88,4,2,0,53,27,583,['c'],1,left,['1'],6,237,[0.1108758],100,53,easy,plus,dotcolour,alfa,,,132,20,V,R,
89,89,5,2,0,27,53,484,['n'],1,right,['1'],6,498,[-0.1476455],100,53,easy,plus,dotcolour,alfa,,,132,20,V,R,
90,90,6,2,0,44,36,883,['c'],1,left,['1'],6,244,[0.08436243],100,44,hard,plus,dotcolour,alfa,,,132,20,V,R,
91,91,7,2,0,53,27,550,['c'],1,left,['1'],6,150,[0.12126067],100,53,easy,plus,dotcolour,alfa,,,132,20,V,R,
92,92,8,2,0,44,36,1684,['n'],0,left,['8'],3,278,[-0.11535515],100,44,hard,plus,dotcolour,alfa,,,132,20,V,R,
93,93,9,2,0,44,36,767,['n'],0,left,['1'],6,245,[-0.04384462],96,44,hard,plus,dotcolour,alfa,,,132,20,V,R,
94,94,10,2,0,27,53,634,['n'],1,right,['1'],6,251,[-0.04881588],97,53,easy,plus,dotcolour,alfa,,,132,20,V,R,
95,95,11,2,0,36,44,666,['n'],1,right,['3'],4,327,[-0.0225369],81,44,hard,plus,dotcolour,alfa,,,132,20,V,R,
96,96,12,2,0,44,36,784,['c'],1,left,['1'],6,164,[0.0500102],99,44,hard,plus,dotcolour,alfa,,,132,20,V,R,
97,97,13,2,0,33,47,633,['n'],1,right,['1'],6,149,[-0.06025057],100,47,medium,plus,dotcolour,alfa,,,132,20,V,R,
98,98,14,2,0,27,53,633,['n'],1,right,['1'],6,135,[-0.11387262],100,53,easy,plus,dotcolour,alfa,,,132,20,V,R,
99,99,15,2,0,44,36,733,['c'],1,left,['1'],6,134,[0.0761619],100,44,hard,plus,dotcolour,alfa,,,132,20,V,R,
100,100,16,2,0,44,36,783,['n'],0,left,['1'],6,147,[-0.09826409],100,44,hard,plus,dotcolour,alfa,,,132,20,V,R,
101,101,17,2,0,27,53,600,['n'],1,right,['1'],6,150,[-0.12092764],100,53,easy,plus,dotcolour,alfa,,,132,20,V,R,
102,102,18,2,0,33,47,400,['n'],1,right,['1'],6,74,[-0.0438981],100,47,medium,plus,dotcolour,alfa,,,132,20,V,R,
103,103,19,2,0,36,44,516,['n'],1,right,['1'],6,123,[-0.07521788],100,44,hard,plus,dotcolour,alfa,,,132,20,V,R,
104,104,20,2,0,33,47,467,['n'],1,right,['1'],6,180,[-0.09389946],100,47,medium,plus,dotcolour,alfa,,,132,20,V,R,
105,105,21,2,0,27,53,650,['n'],1,right,['1'],6,125,[-0.05798847],100,53,easy,plus,dotcolour,alfa,,,132,20,V,R,
106,106,22,2,0,47,33,683,['c'],1,left,['1'],6,189,[0.0884138],100,47,medium,plus,dotcolour,alfa,,,132,20,V,R,
107,107,23,2,0,53,27,583,['c'],1,left,['1'],6,239,[-0.00537042],40,53,easy,plus,dotcolour,alfa,,,132,20,V,R,
108,108,24,2,0,36,44,567,['n'],1,right,['1'],6,120,[-0.09833811],100,44,hard,plus,dotcolour,alfa,,,132,20,V,R,
109,109,25,2,0,36,44,617,['n'],1,right,['1'],6,131,[-0.11442806],100,44,hard,plus,dotcolour,alfa,,,132,20,V,R,
110,110,26,2,0,33,47,433,['n'],1,right,['1'],6,70,[-0.07028447],100,47,medium,plus,dotcolour,alfa,,,132,20,V,R,
111,111,27,2,0,53,27,667,['c'],1,left,['1'],6,130,[0.10439232],100,53,easy,plus,dotcolour,alfa,,,132,20,V,R,
112,112,28,2,0,47,33,1417,['n'],0,left,['8'],3,270,[-0.13166027],100,47,medium,plus,dotcolour,alfa,,,132,20,V,R,
113,113,29,2,0,44,36,950,['c'],1,left,['3'],4,263,[-0.00525284],41,44,hard,plus,dotcolour,alfa,,,132,20,V,R,
114,114,30,2,0,33,47,517,['n'],1,right,['3'],4,977,[-0.09130255],97,47,medium,plus,dotcolour,alfa,,,132,20,V,R,
115,115,31,2,0,47,33,682,['c'],1,left,['3'],4,256,[0.11946648],100,47,medium,plus,dotcolour,alfa,,,132,20,V,R,
116,116,32,2,0,27,53,985,['n'],1,right,['1'],6,126,[-0.13607373],100,53,easy,plus,dotcolour,alfa,,,132,20,V,R,
117,117,33,2,0,47,33,583,['c'],1,left,['1'],6,203,[0.11246459],100,47,medium,plus,dotcolour,alfa,,,132,20,V,R,
118,118,34,2,0,36,44,601,['n'],1,right,['1'],6,157,[-0.10416109],100,44,hard,plus,dotcolour,alfa,,,132,20,V,R,
119,119,35,2,0,27,53,583,['n'],1,right,['1'],6,96,[-0.04092189],99,53,easy,plus,dotcolour,alfa,,,132,20,V,R,
120,120,36,2,0,47,33,917,['c'],1,left,['1'],6,232,[0.02984694],90,47,medium,plus,dotcolour,alfa,,,132,20,V,R,
121,121,37,2,0,53,27,850,['c'],1,left,['3'],4,463,[0.18596945],100,53,easy,plus,dotcolour,alfa,,,132,20,V,R,
122,122,38,2,0,33,47,435,['n'],1,right,['1'],6,180,[-0.12704112],100,47,medium,plus,dotcolour,alfa,,,132,20,V,R,
123,123,39,2,0,36,44,450,['n'],1,right,['3'],4,564,[-0.06127996],95,44,hard,plus,dotcolour,alfa,,,132,20,V,R,
124,124,40,2,0,33,47,950,['n'],1,right,['2'],5,521,[-0.16660662],100,47,medium,plus,dotcolour,alfa,,,132,20,V,R,
125,125,41,2,0,36,44,1017,['n'],1,right,['3'],4,524,[0.00650694],42,44,hard,plus,dotcolour,alfa,,,132,20,V,R,
126,0,0,3,1,36,44,1017,['c'],0,right,['1'],6,352,[0.00993625],54,44,hard,minus,dotcolour,alfa,,,132,20,V,R,
127,1,1,3,1,44,36,801,['c'],1,left,['1'],6,123,[0.07188838],86,44,hard,minus,dotcolour,alfa,,,132,20,V,R,
128,2,2,3,1,47,33,817,['c'],1,left,['1'],6,135,[0.05950405],81,47,medium,minus,dotcolour,alfa,,,132,20,V,R,
129,3,3,3,1,36,44,651,['n'],1,right,['1'],6,89,[-0.03701119],75,44,hard,minus,dotcolour,alfa,,,132,20,V,R,
130,4,4,3,1,27,53,633,['n'],1,right,['1'],6,86,[-0.08665428],93,53,easy,minus,dotcolour,alfa,,,132,20,V,R,
131,5,5,3,1,44,36,1250,['c'],1,left,['3'],4,554,[0.15322728],86,44,hard,minus,dotcolour,alfa,,,132,20,V,R,
132,6,6,3,1,53,27,733,['c'],1,left,['1'],6,135,[0.07443737],86,53,easy,minus,dotcolour,alfa,,,132,20,V,R,
133,7,7,3,1,53,27,900,['c'],1,left,['1'],6,735,[0.19939102],89,53,easy,minus,dotcolour,alfa,,,132,20,V,R,
134,8,8,3,1,33,47,501,['n'],1,right,['1'],6,102,[-0.02520531],67,47,medium,minus,dotcolour,alfa,,,132,20,V,R,
135,9,9,3,1,33,47,717,['c'],0,right,['0'],1,1023,[-0.19485783],15,47,medium,minus,dotcolour,alfa,,,132,20,V,R,
136,10,10,3,1,33,47,1451,['n'],1,right,['1'],6,1317,[-0.22474746],85,47,medium,minus,dotcolour,alfa,,,132,20,V,R,
137,11,11,3,1,44,36,1684,['c'],1,left,['3'],4,318,[0.16461596],93,44,hard,minus,dotcolour,alfa,,,132,20,V,R,
138,12,12,3,1,36,44,1433,['n'],1,right,['8'],3,617,[-0.06554305],68,44,hard,minus,dotcolour,alfa,,,132,20,V,R,
139,13,13,3,1,53,27,617,['c'],1,left,['1'],6,161,[0.10550732],91,53,easy,minus,dotcolour,alfa,,,132,20,V,R,
140,14,14,3,1,27,53,517,['n'],1,right,['1'],6,223,[-0.04123235],69,53,easy,minus,dotcolour,alfa,,,132,20,V,R,
141,15,15,3,1,27,53,467,['n'],1,right,['1'],6,124,[-0.09917104],93,53,easy,minus,dotcolour,alfa,,,132,20,V,R,
142,16,16,3,1,44,36,1318,['c'],1,left,['3'],4,252,[-0.00177377],49,44,hard,minus,dotcolour,alfa,,,132,20,V,R,
143,17,17,3,1,53,27,666,['c'],1,left,['1'],6,144,[0.13978135],96,53,easy,minus,dotcolour,alfa,,,132,20,V,R,
144,18,18,3,1,33,47,633,['n'],1,right,['1'],6,131,[-0.11495603],95,47,medium,minus,dotcolour,alfa,,,132,20,V,R,
145,19,19,3,1,53,27,600,['c'],1,left,['1'],6,183,[0.14924096],96,53,easy,minus,dotcolour,alfa,,,132,20,V,R,
146,20,20,3,1,36,44,533,['n'],1,right,['1'],6,147,[-0.07486079],85,44,hard,minus,dotcolour,alfa,,,132,20,V,R,
147,21,21,3,1,44,36,833,['n'],0,left,['3'],4,198,[-0.03566496],67,44,hard,minus,dotcolour,alfa,,,132,20,V,R,
148,22,22,3,1,33,47,617,['n'],1,right,['1'],6,414,[0.01540675],45,47,medium,minus,dotcolour,alfa,,,132,20,V,R,
149,23,23,3,1,53,27,733,['c'],1,left,['1'],6,218,[0.10431528],88,53,easy,minus,dotcolour,alfa,,,132,20,V,R,
150,24,24,3,1,44,36,1099,['n'],0,left,['3'],4,190,[-0.06649433],80,44,hard,minus,dotcolour,alfa,,,132,20,V,R,
151,25,25,3,1,47,33,750,['c'],1,left,['1'],6,209,[0.15001149],95,47,medium,minus,dotcolour,alfa,,,132,20,V,R,
152,26,26,3,1,47,33,667,['c'],1,left,['2'],5,1184,[0.20175486],84,47,medium,minus,dotcolour,alfa,,,132,20,V,R,
153,27,27,3,1,36,44,1067,['n'],1,right,['8'],3,830,[-0.09616412],72,44,hard,minus,dotcolour,alfa,,,132,20,V,R,
154,28,28,3,1,44,36,584,['c'],1,left,['1'],6,215,[0.01994368],60,44,hard,minus,dotcolour,alfa,,,132,20,V,R,
155,29,29,3,1,36,44,767,['n'],1,right,['2'],5,641,[-0.17005839],87,44,hard,minus,dotcolour,alfa,,,132,20,V,R,
156,30,30,3,1,33,47,883,['n'],1,right,['3'],4,309,[0.01172274],45,47,medium,minus,dotcolour,alfa,,,132,20,V,R,
157,31,31,3,1,36,44,517,['n'],1,right,['2'],5,237,[-0.13919126],93,44,hard,minus,dotcolour,alfa,,,132,20,V,R,
158,32,32,3,1,47,33,950,['c'],1,left,['1'],6,247,[-0.00039906],50,47,medium,minus,dotcolour,alfa,,,132,20,V,R,
159,33,33,3,1,47,33,1133,['n'],0,left,['8'],3,1337,[-0.05513752],61,47,medium,minus,dotcolour,alfa,,,132,20,V,R,
160,34,34,3,1,33,47,1183,['c'],0,right,['3'],4,765,[-0.06118132],35,47,medium,minus,dotcolour,alfa,,,132,20,V,R,
161,35,35,3,1,27,53,951,['n'],1,right,['1'],6,938,[-0.26961663],92,53,easy,minus,dotcolour,alfa,,,132,20,V,R,
162,36,36,3,1,47,33,883,['c'],1,left,['1'],6,153,[0.05637834],79,47,medium,minus,dotcolour,alfa,,,132,20,V,R,
163,37,37,3,1,53,27,966,['c'],1,left,['1'],6,159,[0.16053351],97,53,easy,minus,dotcolour,alfa,,,132,20,V,R,
164,38,38,3,1,27,53,584,['n'],1,right,['1'],6,138,[-0.08023117],87,53,easy,minus,dotcolour,alfa,,,132,20,V,R,
165,39,39,3,1,27,53,701,['c'],0,right,['0'],1,834,[0.04769438],62,53,easy,minus,dotcolour,alfa,,,132,20,V,R,
166,40,40,3,1,27,53,1234,['n'],1,right,['1'],6,336,[-0.0814177],78,53,easy,minus,dotcolour,alfa,,,132,20,V,R,
167,41,41,3,1,47,33,850,['n'],0,left,['1'],6,154,[-0.05304618],77,47,medium,minus,dotcolour,alfa,,,132,20,V,R,
168,42,0,4,1,47,33,1951,['n'],0,left,['3'],4,124,[-0.01762279],61,47,medium,minus,dotcolour,alfa,,,132,20,V,R,
169,43,1,4,1,27,53,583,['n'],1,right,['1'],6,265,[-0.18803911],96,53,easy,minus,dotcolour,alfa,,,132,20,V,R,
170,44,2,4,1,44,36,750,['c'],1,left,['1'],6,33,[0.05642082],94,44,hard,minus,dotcolour,alfa,,,132,20,V,R,
171,45,3,4,1,36,44,568,['n'],1,right,['1'],6,130,[-0.09528196],92,44,hard,minus,dotcolour,alfa,,,132,20,V,R,
172,46,4,4,1,36,44,584,['n'],1,right,['1'],6,87,[-0.03854991],76,44,hard,minus,dotcolour,alfa,,,132,20,V,R,
173,47,5,4,1,36,44,883,['c'],0,right,['1'],6,146,[0.05922584],80,44,hard,minus,dotcolour,alfa,,,132,20,V,R,
174,48,6,4,1,53,27,567,['c'],1,left,['1'],6,95,[0.07124417],89,53,easy,minus,dotcolour,alfa,,,132,20,V,R,
175,49,7,4,1,44,36,600,['c'],1,left,['1'],6,68,[0.03403173],76,44,hard,minus,dotcolour,alfa,,,132,20,V,R,
176,50,8,4,1,53,27,650,['c'],1,left,['1'],6,49,[0.09710133],98,53,easy,minus,dotcolour,alfa,,,132,20,V,R,
177,51,9,4,1,44,36,834,['c'],1,left,['1'],6,119,[0.15319968],98,44,hard,minus,dotcolour,alfa,,,132,20,V,R,
178,52,10,4,1,53,27,533,['c'],1,left,['1'],6,102,[0.10996213],96,53,easy,minus,dotcolour,alfa,,,132,20,V,R,
179,53,11,4,1,33,47,650,['n'],1,right,['1'],6,129,[-0.11343291],94,47,medium,minus,dotcolour,alfa,,,132,20,V,R,
180,54,12,4,1,33,47,700,['n'],1,right,['1'],6,129,[-0.14866851],98,47,medium,minus,dotcolour,alfa,,,132,20,V,R,
181,55,13,4,1,53,27,717,['c'],1,left,['1'],6,129,[0.09143702],91,53,easy,minus,dotcolour,alfa,,,132,20,V,R,
182,56,14,4,1,27,53,917,['n'],1,right,['1'],6,32,[-0.07377559],98,53,easy,minus,dotcolour,alfa,,,132,20,V,R,
183,57,15,4,1,33,47,617,['n'],1,right,['1'],6,103,[-0.10107289],94,47,medium,minus,dotcolour,alfa,,,132,20,V,R,
184,58,16,4,1,27,53,468,['n'],1,right,['1'],6,146,[-0.04891832],76,53,easy,minus,dotcolour,alfa,,,132,20,V,R,
185,59,17,4,1,33,47,600,['n'],1,right,['1'],6,206,[-0.04067703],69,47,medium,minus,dotcolour,alfa,,,132,20,V,R,
186,60,18,4,1,44,36,1534,['n'],0,left,['3'],4,1041,[0.08427469],32,44,hard,minus,dotcolour,alfa,,,132,20,V,R,
187,61,19,4,1,44,36,1384,['c'],1,left,['1'],6,425,[0.09054995],78,44,hard,minus,dotcolour,alfa,,,132,20,V,R,
188,62,20,4,1,33,47,550,['n'],1,right,['1'],6,123,[-0.09149647],91,47,medium,minus,dotcolour,alfa,,,132,20,V,R,
189,63,21,4,1,27,53,550,['n'],1,right,['1'],6,129,[-0.06481162],84,53,easy,minus,dotcolour,alfa,,,132,20,V,R,
190,64,22,4,1,53,27,651,['c'],1,left,['1'],6,211,[0.09266082],86,53,easy,minus,dotcolour,alfa,,,132,20,V,R,
191,65,23,4,1,47,33,551,['c'],1,left,['1'],6,54,[0.10673686],98,47,medium,minus,dotcolour,alfa,,,132,20,V,R,
192,66,24,4,1,47,33,716,['c'],1,left,['1'],6,104,[0.06020605],84,47,medium,minus,dotcolour,alfa,,,132,20,V,R,
193,67,25,4,1,27,53,535,['n'],1,right,['1'],6,112,[-0.08028915],90,53,easy,minus,dotcolour,alfa,,,132,20,V,R,
194,68,26,4,1,47,33,717,['c'],1,left,['1'],6,120,[0.09246808],92,47,medium,minus,dotcolour,alfa,,,132,20,V,R,
195,69,27,4,1,36,44,784,['n'],1,right,['1'],6,86,[-0.11091073],97,44,hard,minus,dotcolour,alfa,,,132,20,V,R,
196,70,28,4,1,33,47,717,['n'],1,right,['1'],6,39,[-0.07692085],97,47,medium,minus,dotcolour,alfa,,,132,20,V,R,
197,71,29,4,1,44,36,1083,['c'],1,left,['1'],6,132,[0.05143341],78,44,hard,minus,dotcolour,alfa,,,132,20,V,R,
198,72,30,4,1,44,36,917,['n'],0,left,['1'],6,107,[-0.09253896],93,44,hard,minus,dotcolour,alfa,,,132,20,V,R,
199,73,31,4,1,36,44,700,['n'],1,right,['1'],6,92,[-0.11879767],97,44,hard,minus,dotcolour,alfa,,,132,20,V,R,
200,74,32,4,1,33,47,684,['n'],1,right,['1'],6,71,[-0.10727154],97,47,medium,minus,dotcolour,alfa,,,132,20,V,R,
201,75,33,4,1,53,27,883,['c'],1,left,['1'],6,113,[0.11731982],96,53,easy,minus,dotcolour,alfa,,,132,20,V,R,
202,76,34,4,1,36,44,1351,['c'],0,right,['1'],6,88,[0.03900967],77,44,hard,minus,dotcolour,alfa,,,132,20,V,R,
203,77,35,4,1,53,27,566,['c'],1,left,['1'],6,103,[0.09109075],93,53,easy,minus,dotcolour,alfa,,,132,20,V,R,
204,78,36,4,1,27,53,633,['n'],1,right,['1'],6,68,[-0.09373733],96,53,easy,minus,dotcolour,alfa,,,132,20,V,R,
205,79,37,4,1,27,53,500,['n'],1,right,['1'],6,79,[-0.00947507],58,53,easy,minus,dotcolour,alfa,,,132,20,V,R,
206,80,38,4,1,47,33,633,['c'],1,left,['1'],6,114,[0.09264856],92,47,medium,minus,dotcolour,alfa,,,132,20,V,R,
207,81,39,4,1,36,44,800,['n'],1,right,['1'],6,63,[-0.04837639],85,44,hard,minus,dotcolour,alfa,,,132,20,V,R,
208,82,40,4,1,47,33,1200,['c'],1,left,['1'],6,1046,[0.16066193],80,47,medium,minus,dotcolour,alfa,,,132,20,V,R,
209,83,41,4,1,47,33,633,['c'],1,left,['1'],6,132,[0.12913288],96,47,medium,minus,dotcolour,alfa,,,132,20,V,R,
210,84,0,5,1,44,36,651,['c'],1,left,['1'],6,15,[0.03708503],94,44,hard,minus,dotcolour,alfa,,,132,20,V,R,
211,85,1,5,1,36,44,566,['n'],1,right,['1'],6,65,[-0.08466019],95,44,hard,minus,dotcolour,alfa,,,132,20,V,R,
212,86,2,5,1,36,44,567,['n'],1,right,['1'],6,97,[-0.10106383],95,44,hard,minus,dotcolour,alfa,,,132,20,V,R,
213,87,3,5,1,44,36,716,['c'],1,left,['1'],6,98,[0.13960145],98,44,hard,minus,dotcolour,alfa,,,132,20,V,R,
214,88,4,5,1,53,27,583,['c'],1,left,['1'],6,56,[0.04213345],83,53,easy,minus,dotcolour,alfa,,,132,20,V,R,
215,89,5,5,1,47,33,417,['n'],0,left,['0'],1,710,[-0.0489681],63,47,medium,minus,dotcolour,alfa,,,132,20,V,R,
216,90,6,5,1,33,47,584,['c'],0,right,['0'],1,628,[0.01880175],55,47,medium,minus,dotcolour,alfa,,,132,20,V,R,
217,91,7,5,1,44,36,751,['c'],1,left,['1'],6,190,[0.05071937],74,44,hard,minus,dotcolour,alfa,,,132,20,V,R,
218,92,8,5,1,53,27,600,['c'],1,left,['1'],6,95,[0.08501008],92,53,easy,minus,dotcolour,alfa,,,132,20,V,R,
219,93,9,5,1,47,33,432,['c'],1,left,['1'],6,99,[0.08965498],93,47,medium,minus,dotcolour,alfa,,,132,20,V,R,
220,94,10,5,1,33,47,601,['n'],1,right,['1'],6,88,[-0.08773],93,47,medium,minus,dotcolour,alfa,,,132,20,V,R,
221,95,11,5,1,44,36,782,['c'],1,left,['1'],6,111,[0.10915676],95,44,hard,minus,dotcolour,alfa,,,132,20,V,R,
222,96,12,5,1,53,27,667,['c'],1,left,['2'],5,281,[0.05889754],73,53,easy,minus,dotcolour,alfa,,,132,20,V,R,
223,97,13,5,1,27,53,450,['n'],1,right,['1'],6,165,[-0.0659537],81,53,easy,minus,dotcolour,alfa,,,132,20,V,R,
224,98,14,5,1,53,27,650,['c'],1,left,['1'],6,118,[0.06185472],83,53,easy,minus,dotcolour,alfa,,,132,20,V,R,
225,99,15,5,1,44,36,649,['n'],0,left,['1'],6,104,[-0.03829594],74,44,hard,minus,dotcolour,alfa,,,132,20,V,R,
226,100,16,5,1,47,33,818,['n'],0,left,['1'],6,141,[-0.08612124],89,47,medium,minus,dotcolour,alfa,,,132,20,V,R,
227,101,17,5,1,47,33,866,['n'],0,left,['1'],6,86,[-0.10089095],96,47,medium,minus,dotcolour,alfa,,,132,20,V,R,
228,102,18,5,1,47,33,1283,['c'],1,left,['1'],6,113,[0.03995237],74,47,medium,minus,dotcolour,alfa,,,132,20,V,R,
229,103,19,5,1,36,44,634,['n'],1,right,['1'],6,85,[-0.06743882],89,44,hard,minus,dotcolour,alfa,,,132,20,V,R,
230,104,20,5,1,36,44,633,['n'],1,right,['1'],6,104,[-0.08021529],90,44,hard,minus,dotcolour,alfa,,,132,20,V,R,
231,105,21,5,1,33,47,450,['n'],1,right,['1'],6,108,[-0.0725792],88,47,medium,minus,dotcolour,alfa,,,132,20,V,R,
232,106,22,5,1,27,53,432,['n'],1,right,['1'],6,39,[-0.09558611],99,53,easy,minus,dotcolour,alfa,,,132,20,V,R,
233,107,23,5,1,27,53,452,['n'],1,right,['1'],6,45,[-0.08806058],98,53,easy,minus,dotcolour,alfa,,,132,20,V,R,
234,108,24,5,1,44,36,766,['c'],1,left,['1'],6,126,[0.095914],92,44,hard,minus,dotcolour,alfa,,,132,20,V,R,
235,109,25,5,1,33,47,434,['n'],1,right,['1'],6,73,[-0.05633714],87,47,medium,minus,dotcolour,alfa,,,132,20,V,R,
236,110,26,5,1,33,47,551,['n'],1,right,['1'],6,49,[-0.03637027],81,47,medium,minus,dotcolour,alfa,,,132,20,V,R,
237,111,27,5,1,33,47,617,['n'],1,right,['1'],6,88,[-0.08052344],92,47,medium,minus,dotcolour,alfa,,,132,20,V,R,
238,112,28,5,1,47,33,917,['c'],1,left,['1'],6,98,[0.06195154],86,47,medium,minus,dotcolour,alfa,,,132,20,V,R,
239,113,29,5,1,33,47,583,['n'],1,right,['1'],6,40,[-0.09992803],99,47,medium,minus,dotcolour,alfa,,,132,20,V,R,
240,114,30,5,1,44,36,634,['n'],0,left,['1'],6,86,[-0.04487507],80,44,hard,minus,dotcolour,alfa,,,132,20,V,R,
241,115,31,5,1,47,33,1450,['n'],0,left,['3'],4,234,[-0.1755744],96,47,medium,minus,dotcolour,alfa,,,132,20,V,R,
242,116,32,5,1,27,53,633,['n'],1,right,['1'],6,73,[-0.05408156],86,53,easy,minus,dotcolour,alfa,,,132,20,V,R,
243,117,33,5,1,27,53,449,['n'],1,right,['1'],6,166,[-0.09870195],90,53,easy,minus,dotcolour,alfa,,,132,20,V,R,
244,118,34,5,1,53,27,883,['c'],1,left,['1'],6,293,[0.08074614],79,53,easy,minus,dotcolour,alfa,,,132,20,V,R,
245,119,35,5,1,36,44,568,['n'],1,right,['1'],6,115,[-0.04675325],78,44,hard,minus,dotcolour,alfa,,,132,20,V,R,
246,120,36,5,1,27,53,500,['n'],1,right,['1'],6,68,[-0.06011585],89,53,easy,minus,dotcolour,alfa,,,132,20,V,R,
247,121,37,5,1,27,53,551,['n'],1,right,['1'],6,37,[-0.07700568],97,53,easy,minus,dotcolour,alfa,,,132,20,V,R,
248,122,38,5,1,53,27,949,['c'],1,left,['1'],6,103,[0.08986279],93,53,easy,minus,dotcolour,alfa,,,132,20,V,R,
249,123,39,5,1,36,44,766,['n'],1,right,['1'],6,22,[-0.0853322],99,44,hard,minus,dotcolour,alfa,,,132,20,V,R,
250,124,40,5,1,36,44,466,['n'],1,right,['2'],5,171,[-0.06857822],82,44,hard,minus,dotcolour,alfa,,,132,20,V,R,
251,125,41,5,1,53,27,800,['c'],1,left,['1'],6,119,[0.10031225],93,53,easy,minus,dotcolour,alfa,,,132,20,V,R,
252,0,0,6,2,33,47,617,['n'],1,right,['1'],6,48,[-0.08939691],100,47,medium,plus,dotcolour,alfa,,,132,20,V,R,
253,1,1,6,2,27,53,483,['n'],1,right,['1'],6,60,[-0.10874464],100,53,easy,plus,dotcolour,alfa,,,132,20,V,R,
254,2,2,6,2,53,27,666,['n'],0,left,['8'],3,3001,[0.53321531],0,53,easy,plus,dotcolour,alfa,,,132,20,V,R,
255,3,3,6,2,53,27,1001,['c'],1,left,['1'],6,217,[0.06008138],99,53,easy,plus,dotcolour,alfa,,,132,20,V,R,
256,4,4,6,2,44,36,617,['c'],1,left,['1'],6,10,[0.0581244],100,44,hard,plus,dotcolour,alfa,,,132,20,V,R,
257,5,5,6,2,44,36,984,['c'],1,left,['1'],6,82,[0.03891325],99,44,hard,plus,dotcolour,alfa,,,132,20,V,R,
258,6,6,6,2,33,47,484,['n'],1,right,['1'],6,53,[-0.06167761],100,47,medium,plus,dotcolour,alfa,,,132,20,V,R,
259,7,7,6,2,44,36,918,['c'],1,left,['1'],6,88,[0.0946701],100,44,hard,plus,dotcolour,alfa,,,132,20,V,R,
260,8,8,6,2,47,33,650,['c'],1,left,['1'],6,100,[0.13480455],100,47,medium,plus,dotcolour,alfa,,,132,20,V,R,
261,9,9,6,2,53,27,550,['c'],1,left,['1'],6,115,[0.11173805],100,53,easy,plus,dotcolour,alfa,,,132,20,V,R,
262,10,10,6,2,47,33,450,['n'],0,left,['1'],6,78,[-0.06983233],100,47,medium,plus,dotcolour,alfa,,,132,20,V,R,
263,11,11,6,2,47,33,750,['c'],1,left,['1'],6,70,[0.07148036],100,47,medium,plus,dotcolour,alfa,,,132,20,V,R,
264,12,12,6,2,36,44,1200,['c'],0,right,['1'],6,565,[-0.02316309],25,44,hard,plus,dotcolour,alfa,,,132,20,V,R,
265,13,13,6,2,36,44,1116,['n'],1,right,['1'],6,75,[-0.04347962],100,44,hard,plus,dotcolour,alfa,,,132,20,V,R,
266,14,14,6,2,36,44,600,['n'],1,right,['1'],6,121,[-0.04408878],99,44,hard,plus,dotcolour,alfa,,,132,20,V,R,
267,15,15,6,2,44,36,1134,['c'],1,left,['2'],5,720,[0.02772475],76,44,hard,plus,dotcolour,alfa,,,132,20,V,R,
268,16,16,6,2,27,53,2400,['n'],1,right,['1'],6,92,[-0.12047636],100,53,easy,plus,dotcolour,alfa,,,132,20,V,R,
269,17,17,6,2,36,44,466,['n'],1,right,['1'],6,70,[-0.08207857],100,44,hard,plus,dotcolour,alfa,,,132,20,V,R,
270,18,18,6,2,27,53,616,['n'],1,right,['1'],6,165,[-0.17195168],100,53,easy,plus,dotcolour,alfa,,,132,20,V,R,
271,19,19,6,2,53,27,568,['c'],1,left,['1'],6,113,[0.10999098],100,53,easy,plus,dotcolour,alfa,,,132,20,V,R,
272,20,20,6,2,47,33,600,['c'],1,left,['1'],6,86,[0.0925795],100,47,medium,plus,dotcolour,alfa,,,132,20,V,R,
273,21,21,6,2,44,36,700,['c'],1,left,['1'],6,72,[0.04061954],100,44,hard,plus,dotcolour,alfa,,,132,20,V,R,
274,22,22,6,2,44,36,617,['n'],0,left,['1'],6,94,[-0.06808001],100,44,hard,plus,dotcolour,alfa,,,132,20,V,R,
275,23,23,6,2,36,44,834,['n'],1,right,['1'],6,105,[-0.10492329],100,44,hard,plus,dotcolour,alfa,,,132,20,V,R,
276,24,24,6,2,33,47,733,['n'],1,right,['1'],6,50,[-0.08340837],100,47,medium,plus,dotcolour,alfa,,,132,20,V,R,
277,25,25,6,2,33,47,517,['n'],1,right,['1'],6,100,[-0.03228149],98,47,medium,plus,dotcolour,alfa,,,132,20,V,R,
278,26,26,6,2,27,53,551,['n'],1,right,['1'],6,36,[-0.06160484],100,53,easy,plus,dotcolour,alfa,,,132,20,V,R,
279,27,27,6,2,47,33,750,['c'],1,left,['1'],6,14,[0.1010055],100,47,medium,plus,dotcolour,alfa,,,132,20,V,R,
280,28,28,6,2,33,47,650,['n'],1,right,['1'],6,76,[-0.08879035],100,47,medium,plus,dotcolour,alfa,,,132,20,V,R,
281,29,29,6,2,33,47,517,['n'],1,right,['1'],6,54,[-0.0983029],100,47,medium,plus,dotcolour,alfa,,,132,20,V,R,
282,30,30,6,2,53,27,533,['c'],1,left,['1'],6,72,[0.07593654],100,53,easy,plus,dotcolour,alfa,,,132,20,V,R,
283,31,31,6,2,27,53,567,['n'],1,right,['1'],6,120,[-0.08243348],100,53,easy,plus,dotcolour,alfa,,,132,20,V,R,
284,32,32,6,2,36,44,366,['n'],1,right,['1'],6,94,[-0.01058134],78,44,hard,plus,dotcolour,alfa,,,132,20,V,R,
285,33,33,6,2,53,27,617,['c'],1,left,['1'],6,130,[0.07676453],100,53,easy,plus,dotcolour,alfa,,,132,20,V,R,
286,34,34,6,2,27,53,483,['n'],1,right,['1'],6,84,[-0.11855819],100,53,easy,plus,dotcolour,alfa,,,132,20,V,R,
287,35,35,6,2,36,44,1134,['c'],0,right,['1'],6,211,[0.01560033],77,44,hard,plus,dotcolour,alfa,,,132,20,V,R,
288,36,36,6,2,44,36,800,['c'],1,left,['2'],5,549,[0.27535327],100,44,hard,plus,dotcolour,alfa,,,132,20,V,R,
289,37,37,6,2,27,53,601,['n'],1,right,['2'],5,136,[-0.11975918],100,53,easy,plus,dotcolour,alfa,,,132,20,V,R,
290,38,38,6,2,53,27,1082,['c'],1,left,['2'],5,153,[0.06997509],100,53,easy,plus,dotcolour,alfa,,,132,20,V,R,
291,39,39,6,2,47,33,600,['c'],1,left,['2'],5,148,[0.13186694],100,47,medium,plus,dotcolour,alfa,,,132,20,V,R,
292,40,40,6,2,33,47,766,['n'],1,right,['3'],4,176,[-0.07250228],100,47,medium,plus,dotcolour,alfa,,,132,20,V,R,
293,41,41,6,2,47,33,1316,['n'],0,left,['3'],4,286,[-0.04373276],95,47,medium,plus,dotcolour,alfa,,,132,20,V,R,
294,42,0,7,2,36,44,683,['n'],1,right,['1'],6,77,[-0.04453652],100,44,hard,plus,dotcolour,alfa,,,132,20,V,R,
295,43,1,7,2,33,47,567,['n'],1,right,['2'],5,92,[-0.09929724],100,47,medium,plus,dotcolour,alfa,,,132,20,V,R,
296,44,2,7,2,33,47,484,['n'],1,right,['1'],6,110,[-0.0956266],100,47,medium,plus,dotcolour,alfa,,,132,20,V,R,
297,45,3,7,2,44,36,867,['c'],1,left,['1'],6,32,[0.08103884],100,44,hard,plus,dotcolour,alfa,,,132,20,V,R,
298,46,4,7,2,36,44,583,['n'],1,right,['1'],6,97,[-0.10984945],100,44,hard,plus,dotcolour,alfa,,,132,20,V,R,
299,47,5,7,2,27,53,449,['n'],1,right,['1'],6,76,[-0.07873932],100,53,easy,plus,dotcolour,alfa,,,132,20,V,R,
300,48,6,7,2,47,33,683,['c'],1,left,['1'],6,150,[0.09650322],100,47,medium,plus,dotcolour,alfa,,,132,20,V,R,
301,49,7,7,2,27,53,516,['n'],1,right,['1'],6,110,[-0.05857809],100,53,easy,plus,dotcolour,alfa,,,132,20,V,R,
302,50,8,7,2,33,47,600,['n'],1,right,['1'],6,67,[-0.04806717],100,47,medium,plus,dotcolour,alfa,,,132,20,V,R,
303,51,9,7,2,36,44,785,['n'],1,right,['1'],6,129,[-0.07866745],100,44,hard,plus,dotcolour,alfa,,,132,20,V,R,
304,52,10,7,2,53,27,700,['c'],1,left,['1'],6,106,[0.06082545],100,53,easy,plus,dotcolour,alfa,,,132,20,V,R,
305,53,11,7,2,47,33,984,['c'],1,left,['2'],5,151,[0.10916779],100,47,medium,plus,dotcolour,alfa,,,132,20,V,R,
306,54,12,7,2,44,36,567,['c'],1,left,['1'],6,588,[0.11329161],100,44,hard,plus,dotcolour,alfa,,,132,20,V,R,
307,55,13,7,2,47,33,784,['c'],1,left,['1'],6,95,[0.09067401],100,47,medium,plus,dotcolour,alfa,,,132,20,V,R,
308,56,14,7,2,27,53,601,['n'],1,right,['1'],6,107,[-0.12002703],100,53,easy,plus,dotcolour,alfa,,,132,20,V,R,
309,57,15,7,2,36,44,600,['c'],0,right,['1'],6,112,[-0.00402769],39,44,hard,plus,dotcolour,alfa,,,132,20,V,R,
310,58,16,7,2,27,53,383,['c'],0,right,['0'],1,814,[0.17224287],100,53,easy,plus,dotcolour,alfa,,,132,20,V,R,
311,59,17,7,2,44,36,1149,['c'],1,left,['3'],4,457,[0.04956692],93,44,hard,plus,dotcolour,alfa,,,132,20,V,R,
312,60,18,7,2,47,33,615,['c'],1,left,['1'],6,151,[0.14570342],100,47,medium,plus,dotcolour,alfa,,,132,20,V,R,
313,61,19,7,2,44,36,767,['c'],1,left,['3'],4,211,[0.03743614],95,44,hard,plus,dotcolour,alfa,,,132,20,V,R,
314,62,20,7,2,53,27,617,['n'],0,left,['9'],2,1059,[0.00631154],45,53,easy,plus,dotcolour,alfa,,,132,20,V,R,
315,63,21,7,2,27,53,666,['n'],1,right,['2'],5,151,[-0.07952725],100,53,easy,plus,dotcolour,alfa,,,132,20,V,R,
316,64,22,7,2,27,53,416,['n'],1,right,['2'],5,138,[-0.12290983],100,53,easy,plus,dotcolour,alfa,,,132,20,V,R,
317,65,23,7,2,47,33,933,['c'],1,left,['2'],5,200,[0.10053979],100,47,medium,plus,dotcolour,alfa,,,132,20,V,R,
318,66,24,7,2,36,44,667,['n'],1,right,['1'],6,143,[0.01452042],20,44,hard,plus,dotcolour,alfa,,,132,20,V,R,
319,67,25,7,2,44,36,799,['n'],0,left,['2'],5,234,[-0.08442535],100,44,hard,plus,dotcolour,alfa,,,132,20,V,R,
320,68,26,7,2,53,27,534,['n'],0,left,['0'],1,1077,[0.10324905],3,53,easy,plus,dotcolour,alfa,,,132,20,V,R,
321,69,27,7,2,33,47,866,['n'],1,right,['2'],5,241,[-0.17178621],100,47,medium,plus,dotcolour,alfa,,,132,20,V,R,
322,70,28,7,2,36,44,750,['n'],1,right,['2'],5,138,[-0.05362487],99,44,hard,plus,dotcolour,alfa,,,132,20,V,R,
323,71,29,7,2,53,27,1035,['c'],1,left,['2'],5,173,[0.1447093],100,53,easy,plus,dotcolour,alfa,,,132,20,V,R,
324,72,30,7,2,44,36,832,['n'],0,left,['2'],5,157,[-0.07066559],100,44,hard,plus,dotcolour,alfa,,,132,20,V,R,
325,73,31,7,2,27,53,850,['n'],1,right,['2'],5,230,[-0.13273477],100,53,easy,plus,dotcolour,alfa,,,132,20,V,R,
326,74,32,7,2,44,36,900,['c'],1,left,['3'],4,258,[0.0334122],91,44,hard,plus,dotcolour,alfa,,,132,20,V,R,
327,75,33,7,2,33,47,1833,['c'],0,right,['3'],4,215,[0.10504504],100,47,medium,plus,dotcolour,alfa,,,132,20,V,R,
328,76,34,7,2,36,44,534,['n'],1,right,['2'],5,147,[-0.07868111],100,44,hard,plus,dotcolour,alfa,,,132,20,V,R,
329,77,35,7,2,53,27,616,['n'],0,left,['2'],5,133,[-0.01627941],83,53,easy,plus,dotcolour,alfa,,,132,20,V,R,
330,78,36,7,2,33,47,667,['n'],1,right,['2'],5,143,[-0.02904539],94,47,medium,plus,dotcolour,alfa,,,132,20,V,R,
331,79,37,7,2,53,27,917,['c'],1,left,['3'],4,133,[0.08069568],100,53,easy,plus,dotcolour,alfa,,,132,20,V,R,
332,80,38,7,2,47,33,667,['n'],0,left,['3'],4,111,[-0.126113],100,47,medium,plus,dotcolour,alfa,,,132,20,V,R,
333,81,39,7,2,53,27,850,['c'],1,left,['3'],4,10,[0.06305103],100,53,easy,plus,dotcolour,alfa,,,132,20,V,R,
334,82,40,7,2,47,33,699,['c'],1,left,['3'],4,22,[0.08727],100,47,medium,plus,dotcolour,alfa,,,132,20,V,R,
335,83,41,7,2,33,47,650,['n'],1,right,['3'],4,181,[-0.12113325],100,47,medium,plus,dotcolour,alfa,,,132,20,V,R,
336,84,0,8,2,27,53,1234,['n'],1,right,['1'],6,490,[-0.07189952],98,53,easy,plus,dotcolour,alfa,,,132,20,V,R,
337,85,1,8,2,47,33,1416,['c'],1,left,['3'],4,102,[0.09987093],100,47,medium,plus,dotcolour,alfa,,,132,20,V,R,
338,86,2,8,2,44,36,550,['c'],1,left,['3'],4,190,[0.1102053],100,44,hard,plus,dotcolour,alfa,,,132,20,V,R,
339,87,3,8,2,44,36,650,['c'],1,left,['3'],4,109,[0.09059626],100,44,hard,plus,dotcolour,alfa,,,132,20,V,R,
340,88,4,8,2,53,27,684,['c'],1,left,['3'],4,70,[0.06285605],100,53,easy,plus,dotcolour,alfa,,,132,20,V,R,
341,89,5,8,2,33,47,734,['n'],1,right,['3'],4,456,[-0.01314061],67,47,medium,plus,dotcolour,alfa,,,132,20,V,R,
342,90,6,8,2,53,27,800,['c'],1,left,['3'],4,86,[0.04718569],100,53,easy,plus,dotcolour,alfa,,,132,20,V,R,
343,91,7,8,2,27,53,834,['n'],1,right,['3'],4,187,[-0.14795845],100,53,easy,plus,dotcolour,alfa,,,132,20,V,R,
344,92,8,8,2,33,47,518,['n'],1,right,['2'],5,137,[-0.04343584],99,47,medium,plus,dotcolour,alfa,,,132,20,V,R,
345,93,9,8,2,33,47,433,['n'],1,right,['1'],6,124,[-0.12820163],100,47,medium,plus,dotcolour,alfa,,,132,20,V,R,
346,94,10,8,2,33,47,383,['n'],1,right,['2'],5,128,[-0.08480047],100,47,medium,plus,dotcolour,alfa,,,132,20,V,R,
347,95,11,8,2,47,33,467,['n'],0,left,['2'],5,257,[-0.06727426],99,47,medium,plus,dotcolour,alfa,,,132,20,V,R,
348,96,12,8,2,44,36,434,['n'],0,left,['2'],5,143,[-0.04407975],99,44,hard,plus,dotcolour,alfa,,,132,20,V,R,
349,97,13,8,2,27,53,400,['n'],1,right,['2'],5,106,[-0.06312806],100,53,easy,plus,dotcolour,alfa,,,132,20,V,R,
350,98,14,8,2,27,53,432,['n'],1,right,['3'],4,102,[-0.07754308],100,53,easy,plus,dotcolour,alfa,,,132,20,V,R,
351,99,15,8,2,44,36,583,['n'],0,left,['2'],5,60,[-0.08537813],100,44,hard,plus,dotcolour,alfa,,,132,20,V,R,
352,100,16,8,2,36,44,601,['n'],1,right,['1'],6,83,[-0.10576967],100,44,hard,plus,dotcolour,alfa,,,132,20,V,R,
353,101,17,8,2,36,44,634,['n'],1,right,['1'],6,103,[-0.06875692],100,44,hard,plus,dotcolour,alfa,,,132,20,V,R,
354,102,18,8,2,47,33,1133,['c'],1,left,['2'],5,160,[0.12919508],100,47,medium,plus,dotcolour,alfa,,,132,20,V,R,
355,103,19,8,2,44,36,1183,['c'],1,left,['1'],6,211,[0.08010461],100,44,hard,plus,dotcolour,alfa,,,132,20,V,R,
356,104,20,8,2,44,36,617,['c'],1,left,['2'],5,90,[0.08066067],100,44,hard,plus,dotcolour,alfa,,,132,20,V,R,
357,105,21,8,2,36,44,1116,['c'],0,right,['2'],5,180,[0.06035433],99,44,hard,plus,dotcolour,alfa,,,132,20,V,R,
358,106,22,8,2,36,44,733,['n'],1,right,['2'],5,104,[0.01474132],16,44,hard,plus,dotcolour,alfa,,,132,20,V,R,
359,107,23,8,2,53,27,767,['c'],1,left,['2'],5,136,[0.03208096],96,53,easy,plus,dotcolour,alfa,,,132,20,V,R,
360,108,24,8,2,27,53,550,['n'],1,right,['2'],5,133,[-0.1047932],100,53,easy,plus,dotcolour,alfa,,,132,20,V,R,
361,109,25,8,2,33,47,517,['n'],1,right,['2'],5,85,[-0.13653078],100,47,medium,plus,dotcolour,alfa,,,132,20,V,R,
362,110,26,8,2,53,27,834,['c'],1,left,['1'],6,97,[0.0686064],100,53,easy,plus,dotcolour,alfa,,,132,20,V,R,
363,111,27,8,2,27,53,517,['n'],1,right,['1'],6,89,[-0.06967053],100,53,easy,plus,dotcolour,alfa,,,132,20,V,R,
364,112,28,8,2,53,27,584,['n'],0,left,['1'],6,136,[0.01335404],21,53,easy,plus,dotcolour,alfa,,,132,20,V,R,
365,113,29,8,2,33,47,484,['n'],1,right,['1'],6,137,[-0.08064972],100,47,medium,plus,dotcolour,alfa,,,132,20,V,R,
366,114,30,8,2,44,36,799,['c'],1,left,['1'],6,117,[0.14168318],100,44,hard,plus,dotcolour,alfa,,,132,20,V,R,
367,115,31,8,2,53,27,799,['c'],1,left,['1'],6,114,[0.09444806],100,53,easy,plus,dotcolour,alfa,,,132,20,V,R,
368,116,32,8,2,33,47,584,['n'],1,right,['1'],6,1391,[-0.29474443],100,47,medium,plus,dotcolour,alfa,,,132,20,V,R,
369,117,33,8,2,36,44,667,['n'],1,right,['1'],6,86,[-0.09842566],100,44,hard,plus,dotcolour,alfa,,,132,20,V,R,
370,118,34,8,2,47,33,667,['c'],1,left,['1'],6,129,[0.07965958],100,47,medium,plus,dotcolour,alfa,,,132,20,V,R,
371,119,35,8,2,47,33,600,['c'],1,left,['1'],6,109,[0.10116876],100,47,medium,plus,dotcolour,alfa,,,132,20,V,R,
372,120,36,8,2,47,33,649,['c'],1,left,['1'],6,105,[0.08834153],100,47,medium,plus,dotcolour,alfa,,,132,20,V,R,
373,121,37,8,2,47,33,666,['c'],1,left,['1'],6,170,[0.10376162],100,47,medium,plus,dotcolour,alfa,,,132,20,V,R,
374,122,38,8,2,36,44,633,['c'],0,right,['1'],6,132,[0.07062487],100,44,hard,plus,dotcolour,alfa,,,132,20,V,R,
375,123,39,8,2,36,44,633,['n'],1,right,['2'],5,190,[-0.17118666],100,44,hard,plus,dotcolour,alfa,,,132,20,V,R,
376,124,40,8,2,53,27,734,['c'],1,left,['1'],6,138,[0.09660798],100,53,easy,plus,dotcolour,alfa,,,132,20,V,R,
377,125,41,8,2,27,53,784,['n'],1,right,['1'],6,119,[-0.10916934],100,53,easy,plus,dotcolour,alfa,,,132,20,V,R,
378,0,0,9,3,27,53,1384,['n'],1,right,['1'],6,608,[-0.15628365],86,53,easy,minus,dotcolour,alfa,,,132,20,V,R,
379,1,1,9,3,27,53,700,['c'],0,right,['1'],6,84,[0.05466593],85,53,easy,minus,dotcolour,alfa,,,132,20,V,R,
380,2,2,9,3,36,44,567,['n'],1,right,['1'],6,108,[-0.04297895],76,44,hard,minus,dotcolour,alfa,,,132,20,V,R,
381,3,3,9,3,44,36,617,['n'],0,left,['2'],5,112,[-0.06356356],85,44,hard,minus,dotcolour,alfa,,,132,20,V,R,
382,4,4,9,3,53,27,432,['n'],0,left,['0'],1,683,[-0.01108063],53,53,easy,minus,dotcolour,alfa,,,132,20,V,R,
383,5,5,9,3,27,53,684,['n'],1,right,['1'],6,133,[-0.04979232],77,53,easy,minus,dotcolour,alfa,,,132,20,V,R,
384,6,6,9,3,27,53,450,['n'],1,right,['1'],6,55,[-0.0852144],96,53,easy,minus,dotcolour,alfa,,,132,20,V,R,
385,7,7,9,3,36,44,383,['n'],1,right,['1'],6,71,[-0.09396407],96,44,hard,minus,dotcolour,alfa,,,132,20,V,R,
386,8,8,9,3,53,27,584,['c'],1,left,['1'],6,135,[0.09180902],90,53,easy,minus,dotcolour,alfa,,,132,20,V,R,
387,9,9,9,3,27,53,467,['n'],1,right,['1'],6,104,[-0.10912801],95,53,easy,minus,dotcolour,alfa,,,132,20,V,R,
388,10,10,9,3,33,47,400,['n'],1,right,['1'],6,78,[-0.03521238],76,47,medium,minus,dotcolour,alfa,,,132,20,V,R,
389,11,11,9,3,47,33,666,['c'],1,left,['1'],6,41,[0.07379999],96,47,medium,minus,dotcolour,alfa,,,132,20,V,R,
390,12,12,9,3,47,33,549,['n'],0,left,['1'],6,107,[-0.01978208],63,47,medium,minus,dotcolour,alfa,,,132,20,V,R,
391,13,13,9,3,33,47,450,['n'],1,right,['1'],6,125,[-0.0847874],90,47,medium,minus,dotcolour,alfa,,,132,20,V,R,
392,14,14,9,3,33,47,467,['n'],1,right,['1'],6,78,[-0.05294734],85,47,medium,minus,dotcolour,alfa,,,132,20,V,R,
393,15,15,9,3,33,47,565,['n'],1,right,['1'],6,109,[-0.05637458],82,47,medium,minus,dotcolour,alfa,,,132,20,V,R,
394,16,16,9,3,47,33,751,['c'],1,left,['1'],6,108,[0.08114678],90,47,medium,minus,dotcolour,alfa,,,132,20,V,R,
395,17,17,9,3,44,36,567,['n'],0,left,['1'],6,82,[-0.07995172],93,44,hard,minus,dotcolour,alfa,,,132,20,V,R,
396,18,18,9,3,47,33,632,['c'],1,left,['1'],6,127,[0.08725963],90,47,medium,minus,dotcolour,alfa,,,132,20,V,R,
397,19,19,9,3,44,36,667,['c'],1,left,['1'],6,16,[0.07943919],100,44,hard,minus,dotcolour,alfa,,,132,20,V,R,
398,20,20,9,3,44,36,850,['c'],1,left,['1'],6,159,[0.02049179],61,44,hard,minus,dotcolour,alfa,,,132,20,V,R,
399,21,21,9,3,53,27,450,['c'],1,left,['1'],6,144,[0.00258271],52,53,easy,minus,dotcolour,alfa,,,132,20,V,R,
400,22,22,9,3,47,33,550,['c'],1,left,['1'],6,30,[0.11768151],100,47,medium,minus,dotcolour,alfa,,,132,20,V,R,
401,23,23,9,3,36,44,667,['n'],1,right,['1'],6,138,[-0.07825122],87,44,hard,minus,dotcolour,alfa,,,132,20,V,R,
402,24,24,9,3,33,47,516,['n'],1,right,['1'],6,114,[-0.06388854],85,47,medium,minus,dotcolour,alfa,,,132,20,V,R,
403,25,25,9,3,33,47,600,['n'],1,right,['2'],5,167,[-0.04313028],72,47,medium,minus,dotcolour,alfa,,,132,20,V,R,
404,26,26,9,3,53,27,784,['c'],1,left,['1'],6,50,[0.03523184],81,53,easy,minus,dotcolour,alfa,,,132,20,V,R,
405,27,27,9,3,44,36,601,['n'],0,left,['1'],6,73,[-0.11652996],98,44,hard,minus,dotcolour,alfa,,,132,20,V,R,
406,28,28,9,3,44,36,484,['n'],0,left,['2'],5,108,[-0.12869052],97,44,hard,minus,dotcolour,alfa,,,132,20,V,R,
407,29,29,9,3,36,44,683,['n'],1,right,['3'],4,151,[-0.06852425],83,44,hard,minus,dotcolour,alfa,,,132,20,V,R,
408,30,30,9,3,53,27,999,['c'],1,left,['1'],6,130,[0.07403744],86,53,easy,minus,dotcolour,alfa,,,132,20,V,R,
409,31,31,9,3,36,44,468,['n'],1,right,['1'],6,43,[-0.09677322],99,44,hard,minus,dotcolour,alfa,,,132,20,V,R,
410,32,32,9,3,53,27,617,['c'],1,left,['1'],6,25,[0.08396968],99,53,easy,minus,dotcolour,alfa,,,132,20,V,R,
411,33,33,9,3,36,44,467,['n'],1,right,['1'],6,87,[-0.09755482],95,44,hard,minus,dotcolour,alfa,,,132,20,V,R,
412,34,34,9,3,44,36,734,['c'],1,left,['1'],6,72,[0.04656349],83,44,hard,minus,dotcolour,alfa,,,132,20,V,R,
413,35,35,9,3,27,53,416,['n'],1,right,['1'],6,62,[-0.07717407],94,53,easy,minus,dotcolour,alfa,,,132,20,V,R,
414,36,36,9,3,53,27,717,['c'],1,left,['1'],6,111,[0.08535177],91,53,easy,minus,dotcolour,alfa,,,132,20,V,R,
415,37,37,9,3,33,47,633,['n'],1,right,['1'],6,3,[-0.06751126],100,47,medium,minus,dotcolour,alfa,,,132,20,V,R,
416,38,38,9,3,47,33,517,['c'],1,left,['1'],6,103,[0.06173889],85,47,medium,minus,dotcolour,alfa,,,132,20,V,R,
417,39,39,9,3,27,53,566,['n'],1,right,['1'],6,86,[-0.06791847],89,53,easy,minus,dotcolour,alfa,,,132,20,V,R,
418,40,40,9,3,36,44,500,['n'],1,right,['1'],6,88,[-0.08383818],93,44,hard,minus,dotcolour,alfa,,,132,20,V,R,
419,41,41,9,3,47,33,751,['c'],1,left,['1'],6,128,[0.0616772],83,47,medium,minus,dotcolour,alfa,,,132,20,V,R,
420,42,0,10,3,27,53,584,['n'],1,right,['1'],6,90,[-0.14649426],99,53,easy,minus,dotcolour,alfa,,,132,20,V,R,
421,43,1,10,3,47,33,834,['c'],1,left,['1'],6,110,[0.15484783],99,47,medium,minus,dotcolour,alfa,,,132,20,V,R,
422,44,2,10,3,33,47,617,['n'],1,right,['1'],6,42,[-0.10809358],99,47,medium,minus,dotcolour,alfa,,,132,20,V,R,
423,45,3,10,3,27,53,467,['n'],1,right,['1'],6,71,[-0.05100279],85,53,easy,minus,dotcolour,alfa,,,132,20,V,R,
424,46,4,10,3,33,47,434,['n'],1,right,['1'],6,124,[-0.07085899],86,47,medium,minus,dotcolour,alfa,,,132,20,V,R,
425,47,5,10,3,44,36,616,['c'],1,left,['1'],6,96,[0.09300737],94,44,hard,minus,dotcolour,alfa,,,132,20,V,R,
426,48,6,10,3,53,27,617,['n'],0,left,['1'],6,52,[-0.04530483],86,53,easy,minus,dotcolour,alfa,,,132,20,V,R,
427,49,7,10,3,27,53,450,['n'],1,right,['1'],6,10,[-0.08080067],100,53,easy,minus,dotcolour,alfa,,,132,20,V,R,
428,50,8,10,3,36,44,667,['c'],0,right,['1'],6,112,[0.0890983],92,44,hard,minus,dotcolour,alfa,,,132,20,V,R,
429,51,9,10,3,47,33,666,['c'],1,left,['1'],6,130,[0.11213405],94,47,medium,minus,dotcolour,alfa,,,132,20,V,R,
430,52,10,10,3,33,47,500,['n'],1,right,['1'],6,82,[-0.06119415],87,47,medium,minus,dotcolour,alfa,,,132,20,V,R,
431,53,11,10,3,36,44,567,['c'],0,right,['1'],6,81,[0.04162225],79,44,hard,minus,dotcolour,alfa,,,132,20,V,R,
432,54,12,10,3,33,47,467,['n'],1,right,['1'],6,76,[-0.06980754],91,47,medium,minus,dotcolour,alfa,,,132,20,V,R,
433,55,13,10,3,27,53,634,['n'],1,right,['1'],6,137,[-0.04613973],75,53,easy,minus,dotcolour,alfa,,,132,20,V,R,
434,56,14,10,3,36,44,633,['n'],1,right,['1'],6,20,[-0.07567955],99,44,hard,minus,dotcolour,alfa,,,132,20,V,R,
435,57,15,10,3,36,44,584,['n'],1,right,['1'],6,86,[-0.05644816],85,44,hard,minus,dotcolour,alfa,,,132,20,V,R,
436,58,16,10,3,44,36,733,['c'],1,left,['1'],6,126,[0.06694466],85,44,hard,minus,dotcolour,alfa,,,132,20,V,R,
437,59,17,10,3,33,47,551,['n'],1,right,['1'],6,124,[-0.04261957],75,47,medium,minus,dotcolour,alfa,,,132,20,V,R,
438,60,18,10,3,47,33,700,['c'],1,left,['1'],6,132,[0.05804354],81,47,medium,minus,dotcolour,alfa,,,132,20,V,R,
439,61,19,10,3,53,27,667,['c'],1,left,['1'],6,133,[0.09255747],91,53,easy,minus,dotcolour,alfa,,,132,20,V,R,
440,62,20,10,3,47,33,667,['c'],1,left,['1'],6,79,[0.0975958],96,47,medium,minus,dotcolour,alfa,,,132,20,V,R,
441,63,21,10,3,33,47,450,['n'],1,right,['1'],6,115,[-0.11776109],96,47,medium,minus,dotcolour,alfa,,,132,20,V,R,
442,64,22,10,3,53,27,766,['c'],1,left,['2'],5,257,[0.03040727],63,53,easy,minus,dotcolour,alfa,,,132,20,V,R,
443,65,23,10,3,33,47,484,['n'],1,right,['1'],6,76,[-0.08374],94,47,medium,minus,dotcolour,alfa,,,132,20,V,R,
444,66,24,10,3,36,44,918,['c'],0,right,['1'],6,374,[0.0821002],77,44,hard,minus,dotcolour,alfa,,,132,20,V,R,
445,67,25,10,3,44,36,715,['c'],1,left,['1'],6,259,[0.08034997],81,44,hard,minus,dotcolour,alfa,,,132,20,V,R,
446,68,26,10,3,53,27,783,['c'],1,left,['1'],6,170,[0.1132437],92,53,easy,minus,dotcolour,alfa,,,132,20,V,R,
447,69,27,10,3,27,53,550,['n'],1,right,['1'],6,135,[-0.07686943],87,53,easy,minus,dotcolour,alfa,,,132,20,V,R,
448,70,28,10,3,53,27,768,['c'],1,left,['1'],6,36,[0.05967936],94,53,easy,minus,dotcolour,alfa,,,132,20,V,R,
449,71,29,10,3,44,36,568,['c'],1,left,['1'],6,109,[0.02935299],69,44,hard,minus,dotcolour,alfa,,,132,20,V,R,
450,72,30,10,3,27,53,450,['n'],1,right,['1'],6,88,[-0.16522478],99,53,easy,minus,dotcolour,alfa,,,132,20,V,R,
451,73,31,10,3,47,33,667,['n'],0,left,['1'],6,83,[0.01432768],39,47,medium,minus,dotcolour,alfa,,,132,20,V,R,
452,74,32,10,3,36,44,482,['n'],1,right,['1'],6,118,[-0.06040785],83,44,hard,minus,dotcolour,alfa,,,132,20,V,R,
453,75,33,10,3,36,44,883,['n'],1,right,['1'],6,87,[-0.0700301],89,44,hard,minus,dotcolour,alfa,,,132,20,V,R,
454,76,34,10,3,47,33,766,['c'],1,left,['1'],6,143,[0.04245862],73,47,medium,minus,dotcolour,alfa,,,132,20,V,R,
455,77,35,10,3,53,27,768,['c'],1,left,['1'],6,100,[0.07588286],90,53,easy,minus,dotcolour,alfa,,,132,20,V,R,
456,78,36,10,3,44,36,783,['c'],1,left,['1'],6,81,[0.05103342],83,44,hard,minus,dotcolour,alfa,,,132,20,V,R,
457,79,37,10,3,44,36,882,['c'],1,left,['1'],6,733,[0.04371089],61,44,hard,minus,dotcolour,alfa,,,132,20,V,R,
458,80,38,10,3,53,27,583,['c'],1,left,['1'],6,137,[0.10447312],93,53,easy,minus,dotcolour,alfa,,,132,20,V,R,
459,81,39,10,3,47,33,984,['c'],1,left,['1'],6,142,[0.08630165],89,47,medium,minus,dotcolour,alfa,,,132,20,V,R,
460,82,40,10,3,27,53,601,['n'],1,right,['1'],6,145,[-0.0745303],85,53,easy,minus,dotcolour,alfa,,,132,20,V,R,
461,83,41,10,3,44,36,467,['n'],0,left,['1'],6,146,[-0.07208004],85,44,hard,minus,dotcolour,alfa,,,132,20,V,R,
462,84,0,11,3,33,47,1517,['n'],1,right,['1'],6,94,[-0.10595886],96,47,medium,minus,dotcolour,alfa,,,132,20,V,R,
463,85,1,11,3,53,27,1116,['c'],1,left,['1'],6,175,[0.05087619],75,53,easy,minus,dotcolour,alfa,,,132,20,V,R,
464,86,2,11,3,47,33,1518,['c'],1,left,['1'],6,172,[0.00723023],54,47,medium,minus,dotcolour,alfa,,,132,20,V,R,
465,87,3,11,3,47,33,617,['c'],1,left,['2'],5,478,[0.11026617],81,47,medium,minus,dotcolour,alfa,,,132,20,V,R,
466,88,4,11,3,27,53,1117,['n'],1,right,['2'],5,383,[-0.16170896],91,53,easy,minus,dotcolour,alfa,,,132,20,V,R,
467,89,5,11,3,44,36,750,['c'],1,left,['1'],6,83,[0.10186799],96,44,hard,minus,dotcolour,alfa,,,132,20,V,R,
468,90,6,11,3,33,47,716,['n'],1,right,['1'],6,85,[-0.0442324],80,47,medium,minus,dotcolour,alfa,,,132,20,V,R,
469,91,7,11,3,53,27,517,['c'],1,left,['1'],6,102,[0.04152952],76,53,easy,minus,dotcolour,alfa,,,132,20,V,R,
470,92,8,11,3,27,53,717,['n'],1,right,['3'],4,63,[-0.10397585],98,53,easy,minus,dotcolour,alfa,,,132,20,V,R,
471,93,9,11,3,36,44,1050,['n'],1,right,['2'],5,251,[-0.04629692],70,44,hard,minus,dotcolour,alfa,,,132,20,V,R,
472,94,10,11,3,27,53,634,['n'],1,right,['1'],6,73,[-0.09257881],96,53,easy,minus,dotcolour,alfa,,,132,20,V,R,
473,95,11,11,3,36,44,450,['n'],1,right,['1'],6,69,[-0.06883477],91,44,hard,minus,dotcolour,alfa,,,132,20,V,R,
474,96,12,11,3,36,44,584,['n'],1,right,['1'],6,85,[-0.13596166],99,44,hard,minus,dotcolour,alfa,,,132,20,V,R,
475,97,13,11,3,53,27,650,['c'],1,left,['1'],6,137,[0.04585581],75,53,easy,minus,dotcolour,alfa,,,132,20,V,R,
476,98,14,11,3,36,44,567,['n'],1,right,['2'],5,294,[-0.01940713],58,44,hard,minus,dotcolour,alfa,,,132,20,V,R,
477,99,15,11,3,33,47,617,['n'],1,right,['2'],5,75,[-0.06479792],89,47,medium,minus,dotcolour,alfa,,,132,20,V,R,
478,100,16,11,3,27,53,467,['n'],1,right,['1'],6,110,[-0.05082475],80,53,easy,minus,dotcolour,alfa,,,132,20,V,R,
479,101,17,11,3,47,33,484,['n'],0,left,['1'],6,64,[-0.05783241],89,47,medium,minus,dotcolour,alfa,,,132,20,V,R,
480,102,18,11,3,53,27,432,['n'],0,left,['0'],1,1365,[0.1442644],25,53,easy,minus,dotcolour,alfa,,,132,20,V,R,
481,103,19,11,3,53,27,800,['c'],1,left,['1'],6,103,[0.02091241],64,53,easy,minus,dotcolour,alfa,,,132,20,V,R,
482,104,20,11,3,44,36,966,['c'],1,left,['1'],6,102,[0.06702372],87,44,hard,minus,dotcolour,alfa,,,132,20,V,R,
483,105,21,11,3,53,27,517,['c'],1,left,['1'],6,54,[0.08956573],97,53,easy,minus,dotcolour,alfa,,,132,20,V,R,
484,106,22,11,3,47,33,500,['c'],1,left,['1'],6,58,[0.07883283],95,47,medium,minus,dotcolour,alfa,,,132,20,V,R,
485,107,23,11,3,47,33,634,['c'],1,left,['1'],6,71,[0.11511794],98,47,medium,minus,dotcolour,alfa,,,132,20,V,R,
486,108,24,11,3,33,47,483,['n'],1,right,['1'],6,58,[-0.06036359],91,47,medium,minus,dotcolour,alfa,,,132,20,V,R,
487,109,25,11,3,44,36,534,['n'],0,left,['1'],6,61,[0.00498057],45,44,hard,minus,dotcolour,alfa,,,132,20,V,R,
488,110,26,11,3,47,33,516,['c'],1,left,['1'],6,22,[0.08103161],99,47,medium,minus,dotcolour,alfa,,,132,20,V,R,
489,111,27,11,3,33,47,601,['n'],1,right,['1'],6,62,[-0.07263791],93,47,medium,minus,dotcolour,alfa,,,132,20,V,R,
490,112,28,11,3,33,47,533,['n'],1,right,['1'],6,32,[-0.07928092],98,47,medium,minus,dotcolour,alfa,,,132,20,V,R,
491,113,29,11,3,27,53,434,['n'],1,right,['1'],6,95,[-0.07606261],90,53,easy,minus,dotcolour,alfa,,,132,20,V,R,
492,114,30,11,3,36,44,434,['n'],1,right,['1'],6,59,[-0.02340496],70,44,hard,minus,dotcolour,alfa,,,132,20,V,R,
493,115,31,11,3,33,47,483,['n'],1,right,['1'],6,86,[-0.13513943],98,47,medium,minus,dotcolour,alfa,,,132,20,V,R,
494,116,32,11,3,44,36,1083,['c'],1,left,['1'],6,105,[0.09898117],94,44,hard,minus,dotcolour,alfa,,,132,20,V,R,
495,117,33,11,3,53,27,634,['c'],1,left,['1'],6,69,[0.15975301],100,53,easy,minus,dotcolour,alfa,,,132,20,V,R,
496,118,34,11,3,44,36,717,['n'],0,left,['1'],6,71,[-0.09215896],96,44,hard,minus,dotcolour,alfa,,,132,20,V,R,
497,119,35,11,3,27,53,568,['n'],1,right,['1'],6,119,[-0.07095208],86,53,easy,minus,dotcolour,alfa,,,132,20,V,R,
498,120,36,11,3,44,36,583,['c'],1,left,['1'],6,124,[0.06024116],82,44,hard,minus,dotcolour,alfa,,,132,20,V,R,
499,121,37,11,3,47,33,683,['c'],1,left,['1'],6,76,[0.05443845],86,47,medium,minus,dotcolour,alfa,,,132,20,V,R,
500,122,38,11,3,36,44,515,['n'],1,right,['1'],6,126,[-0.07300027],86,44,hard,minus,dotcolour,alfa,,,132,20,V,R,
501,123,39,11,3,36,44,600,['c'],0,right,['1'],6,26,[0.05295854],95,44,hard,minus,dotcolour,alfa,,,132,20,V,R,
502,124,40,11,3,27,53,466,['c'],0,right,['0'],1,615,[-0.15651355],14,53,easy,minus,dotcolour,alfa,,,132,20,V,R,
503,125,41,11,3,44,36,634,['c'],1,left,['1'],6,39,[0.08505695],98,44,hard,minus,dotcolour,alfa,,,132,20,V,R,
504,0,0,12,4,47,33,701,['c'],1,left,['1'],6,35,[0.06045828],100,47,medium,plus,dotcolour,alfa,,,132,20,V,R,
505,1,1,12,4,33,47,451,['n'],1,right,['1'],6,97,[-0.04151128],99,47,medium,plus,dotcolour,alfa,,,132,20,V,R,
506,2,2,12,4,44,36,333,['n'],0,left,['1'],6,361,[-0.03678166],90,44,hard,plus,dotcolour,alfa,,,132,20,V,R,
507,3,3,12,4,33,47,568,['n'],1,right,['1'],6,85,[-0.12572864],100,47,medium,plus,dotcolour,alfa,,,132,20,V,R,
508,4,4,12,4,27,53,483,['n'],1,right,['1'],6,88,[-0.08214326],100,53,easy,plus,dotcolour,alfa,,,132,20,V,R,
509,5,5,12,4,53,27,567,['c'],1,left,['1'],6,64,[0.09025427],100,53,easy,plus,dotcolour,alfa,,,132,20,V,R,
510,6,6,12,4,27,53,517,['n'],1,right,['1'],6,89,[-0.06484922],100,53,easy,plus,dotcolour,alfa,,,132,20,V,R,
511,7,7,12,4,53,27,518,['n'],0,left,['0'],1,402,[-0.0587575],97,53,easy,plus,dotcolour,alfa,,,132,20,V,R,
512,8,8,12,4,33,47,700,['n'],1,right,['1'],6,64,[-0.06325335],100,47,medium,plus,dotcolour,alfa,,,132,20,V,R,
513,9,9,12,4,36,44,550,['n'],1,right,['1'],6,96,[-0.0827142],100,44,hard,plus,dotcolour,alfa,,,132,20,V,R,
514,10,10,12,4,47,33,668,['c'],1,left,['1'],6,43,[0.07494352],100,47,medium,plus,dotcolour,alfa,,,132,20,V,R,
515,11,11,12,4,53,27,467,['c'],1,left,['1'],6,48,[0.06988688],100,53,easy,plus,dotcolour,alfa,,,132,20,V,R,
516,12,12,12,4,36,44,483,['n'],1,right,['1'],6,76,[-0.09967511],100,44,hard,plus,dotcolour,alfa,,,132,20,V,R,
517,13,13,12,4,33,47,584,['n'],1,right,['1'],6,98,[-0.05632614],100,47,medium,plus,dotcolour,alfa,,,132,20,V,R,
518,14,14,12,4,44,36,717,['c'],1,left,['1'],6,107,[0.08176157],100,44,hard,plus,dotcolour,alfa,,,132,20,V,R,
519,15,15,12,4,44,36,416,['n'],0,left,['1'],6,87,[-0.05051326],100,44,hard,plus,dotcolour,alfa,,,132,20,V,R,
520,16,16,12,4,53,27,600,['n'],0,left,['1'],6,61,[-0.04019701],100,53,easy,plus,dotcolour,alfa,,,132,20,V,R,
521,17,17,12,4,53,27,1100,['c'],1,left,['1'],6,112,[0.06821511],100,53,easy,plus,dotcolour,alfa,,,132,20,V,R,
522,18,18,12,4,47,33,567,['c'],1,left,['1'],6,22,[0.07775259],100,47,medium,plus,dotcolour,alfa,,,132,20,V,R,
523,19,19,12,4,27,53,550,['n'],1,right,['1'],6,80,[-0.07275673],100,53,easy,plus,dotcolour,alfa,,,132,20,V,R,
524,20,20,12,4,27,53,450,['n'],1,right,['1'],6,52,[-0.09073544],100,53,easy,plus,dotcolour,alfa,,,132,20,V,R,
525,21,21,12,4,47,33,717,['c'],1,left,['1'],6,119,[0.14587292],100,47,medium,plus,dotcolour,alfa,,,132,20,V,R,
526,22,22,12,4,27,53,550,['n'],1,right,['1'],6,22,[-0.07187005],100,53,easy,plus,dotcolour,alfa,,,132,20,V,R,
527,23,23,12,4,36,44,600,['n'],1,right,['1'],6,230,[-0.03183],92,44,hard,plus,dotcolour,alfa,,,132,20,V,R,
528,24,24,12,4,36,44,383,['n'],1,right,['1'],6,63,[-0.07305909],100,44,hard,plus,dotcolour,alfa,,,132,20,V,R,
529,25,25,12,4,53,27,583,['c'],1,left,['1'],6,86,[0.10865062],100,53,easy,plus,dotcolour,alfa,,,132,20,V,R,
530,26,26,12,4,44,36,350,['n'],0,left,['1'],6,102,[-0.07568546],100,44,hard,plus,dotcolour,alfa,,,132,20,V,R,
531,27,27,12,4,44,36,483,['n'],0,left,['1'],6,73,[-0.07488148],100,44,hard,plus,dotcolour,alfa,,,132,20,V,R,
532,28,28,12,4,27,53,467,['n'],1,right,['1'],6,61,[-0.07647527],100,53,easy,plus,dotcolour,alfa,,,132,20,V,R,
533,29,29,12,4,47,33,550,['n'],0,left,['1'],6,37,[-0.03234848],100,47,medium,plus,dotcolour,alfa,,,132,20,V,R,
534,30,30,12,4,44,36,418,['n'],0,left,['1'],6,69,[-0.09082105],100,44,hard,plus,dotcolour,alfa,,,132,20,V,R,
535,31,31,12,4,33,47,583,['n'],1,right,['1'],6,132,[-0.07192999],100,47,medium,plus,dotcolour,alfa,,,132,20,V,R,
536,32,32,12,4,47,33,683,['c'],1,left,['1'],6,61,[0.07074489],100,47,medium,plus,dotcolour,alfa,,,132,20,V,R,
537,33,33,12,4,36,44,450,['n'],1,right,['1'],6,122,[-0.11171716],100,44,hard,plus,dotcolour,alfa,,,132,20,V,R,
538,34,34,12,4,44,36,417,['n'],0,left,['1'],6,101,[-0.00748412],70,44,hard,plus,dotcolour,alfa,,,132,20,V,R,
539,35,35,12,4,33,47,567,['n'],1,right,['1'],6,100,[-0.08799938],100,47,medium,plus,dotcolour,alfa,,,132,20,V,R,
540,36,36,12,4,53,27,550,['c'],1,left,['1'],6,84,[0.1053335],100,53,easy,plus,dotcolour,alfa,,,132,20,V,R,
541,37,37,12,4,36,44,500,['n'],1,right,['1'],6,126,[-0.02619352],93,44,hard,plus,dotcolour,alfa,,,132,20,V,R,
542,38,38,12,4,36,44,399,['n'],1,right,['1'],6,66,[-0.06856795],100,44,hard,plus,dotcolour,alfa,,,132,20,V,R,
543,39,39,12,4,47,33,434,['c'],1,left,['1'],6,87,[0.14921235],100,47,medium,plus,dotcolour,alfa,,,132,20,V,R,
544,40,40,12,4,33,47,618,['n'],1,right,['1'],6,628,[-0.30683145],100,47,medium,plus,dotcolour,alfa,,,132,20,V,R,
545,41,41,12,4,27,53,468,['n'],1,right,['1'],6,90,[-0.05617769],100,53,easy,plus,dotcolour,alfa,,,132,20,V,R,
546,42,0,13,4,53,27,1551,['n'],0,left,['3'],4,184,[-0.0143448],77,53,easy,plus,dotcolour,alfa,,,132,20,V,R,
547,43,1,13,4,53,27,550,['c'],1,left,['1'],6,75,[0.09683509],100,53,easy,plus,dotcolour,alfa,,,132,20,V,R,
548,44,2,13,4,44,36,566,['c'],1,left,['1'],6,43,[0.04710875],100,44,hard,plus,dotcolour,alfa,,,132,20,V,R,
549,45,3,13,4,27,53,334,['n'],1,right,['1'],6,101,[-0.0861322],100,53,easy,plus,dotcolour,alfa,,,132,20,V,R,
550,46,4,13,4,44,36,550,['c'],1,left,['1'],6,20,[0.08484684],100,44,hard,plus,dotcolour,alfa,,,132,20,V,R,
551,47,5,13,4,44,36,549,['c'],1,left,['1'],6,71,[0.0643547],100,44,hard,plus,dotcolour,alfa,,,132,20,V,R,
552,48,6,13,4,47,33,333,['n'],0,left,['1'],6,105,[-0.10607316],100,47,medium,plus,dotcolour,alfa,,,132,20,V,R,
553,49,7,13,4,27,53,400,['n'],1,right,['1'],6,93,[-0.08292898],100,53,easy,plus,dotcolour,alfa,,,132,20,V,R,
554,50,8,13,4,53,27,500,['c'],1,left,['1'],6,71,[0.08465933],100,53,easy,plus,dotcolour,alfa,,,132,20,V,R,
555,51,9,13,4,27,53,400,['n'],1,right,['1'],6,70,[-0.09650373],100,53,easy,plus,dotcolour,alfa,,,132,20,V,R,
556,52,10,13,4,47,33,416,['n'],0,left,['8'],3,628,[-0.00561265],56,47,medium,plus,dotcolour,alfa,,,132,20,V,R,
557,53,11,13,4,53,27,700,['c'],1,left,['1'],6,40,[0.12350518],100,53,easy,plus,dotcolour,alfa,,,132,20,V,R,
558,54,12,13,4,33,47,551,['n'],1,right,"['2', '1']",5,130,[-0.10421411],100,47,medium,plus,dotcolour,alfa,,,132,20,V,R,
559,55,13,13,4,44,36,1667,['c'],1,left,['1'],6,163,[0.09319403],100,44,hard,plus,dotcolour,alfa,,,132,20,V,R,
560,56,14,13,4,47,33,385,['c'],1,left,['1'],6,14,[0.07991386],100,47,medium,plus,dotcolour,alfa,,,132,20,V,R,
561,57,15,13,4,53,27,416,['n'],0,left,['8'],3,598,[0.13963483],0,53,easy,plus,dotcolour,alfa,,,132,20,V,R,
562,58,16,13,4,36,44,1000,['c'],0,right,['1'],6,80,[0.04464049],100,44,hard,plus,dotcolour,alfa,,,132,20,V,R,
563,59,17,13,4,53,27,384,['n'],0,left,['0'],1,574,[0.0768437],3,53,easy,plus,dotcolour,alfa,,,132,20,V,R,
564,60,18,13,4,33,47,533,['n'],1,right,['2'],5,155,[-0.12737564],100,47,medium,plus,dotcolour,alfa,,,132,20,V,R,
565,61,19,13,4,47,33,900,['c'],1,left,['3'],4,115,[0.09344494],100,47,medium,plus,dotcolour,alfa,,,132,20,V,R,
566,62,20,13,4,27,53,617,['n'],1,right,['1'],6,159,[-0.13074087],100,53,easy,plus,dotcolour,alfa,,,132,20,V,R,
567,63,21,13,4,36,44,417,['n'],1,right,['1'],6,137,[-0.07475693],100,44,hard,plus,dotcolour,alfa,,,132,20,V,R,
568,64,22,13,4,44,36,634,['c'],1,left,['1'],6,116,[0.05943603],100,44,hard,plus,dotcolour,alfa,,,132,20,V,R,
569,65,23,13,4,53,27,467,['c'],1,left,['1'],6,69,[0.04704298],100,53,easy,plus,dotcolour,alfa,,,132,20,V,R,
570,66,24,13,4,47,33,583,['c'],1,left,['1'],6,93,[0.08766539],100,47,medium,plus,dotcolour,alfa,,,132,20,V,R,
571,67,25,13,4,36,44,551,['n'],1,right,['1'],6,93,[-0.1168066],100,44,hard,plus,dotcolour,alfa,,,132,20,V,R,
572,68,26,13,4,33,47,583,['n'],1,right,['1'],6,99,[-0.00019906],51,47,medium,plus,dotcolour,alfa,,,132,20,V,R,
573,69,27,13,4,33,47,500,['n'],1,right,['1'],6,83,[-0.02026436],93,47,medium,plus,dotcolour,alfa,,,132,20,V,R,
574,70,28,13,4,33,47,383,['n'],1,right,['1'],6,50,[-0.06688542],100,47,medium,plus,dotcolour,alfa,,,132,20,V,R,
575,71,29,13,4,36,44,267,['n'],1,right,['1'],6,103,[-0.13729413],100,44,hard,plus,dotcolour,alfa,,,132,20,V,R,
576,72,30,13,4,27,53,367,['n'],1,right,['1'],6,61,[-0.10729215],100,53,easy,plus,dotcolour,alfa,,,132,20,V,R,
577,73,31,13,4,36,44,334,['n'],1,right,['1'],6,95,[-0.10045869],100,44,hard,plus,dotcolour,alfa,,,132,20,V,R,
578,74,32,13,4,33,47,350,['n'],1,right,['1'],6,62,[-0.10377179],100,47,medium,plus,dotcolour,alfa,,,132,20,V,R,
579,75,33,13,4,27,53,416,['n'],1,right,['1'],6,117,[-0.11781023],100,53,easy,plus,dotcolour,alfa,,,132,20,V,R,
580,76,34,13,4,44,36,384,['n'],0,left,['1'],6,74,[-0.13759739],100,44,hard,plus,dotcolour,alfa,,,132,20,V,R,
581,77,35,13,4,47,33,483,['c'],1,left,['1'],6,20,[0.07763193],100,47,medium,plus,dotcolour,alfa,,,132,20,V,R,
582,78,36,13,4,47,33,417,['c'],1,left,['1'],6,12,[0.08018263],100,47,medium,plus,dotcolour,alfa,,,132,20,V,R,
583,79,37,13,4,36,44,433,['n'],1,right,['1'],6,140,[-0.13440146],100,44,hard,plus,dotcolour,alfa,,,132,20,V,R,
584,80,38,13,4,44,36,317,['n'],0,left,['1'],6,34,[-0.07930251],100,44,hard,plus,dotcolour,alfa,,,132,20,V,R,
585,81,39,13,4,36,44,350,['n'],1,right,['1'],6,76,[-0.08919667],100,44,hard,plus,dotcolour,alfa,,,132,20,V,R,
586,82,40,13,4,33,47,484,['n'],1,right,['1'],6,79,[-0.13836399],100,47,medium,plus,dotcolour,alfa,,,132,20,V,R,
587,83,41,13,4,27,53,267,['n'],1,right,['1'],6,74,[-0.07193388],100,53,easy,plus,dotcolour,alfa,,,132,20,V,R,
588,84,0,14,4,47,33,868,['c'],1,left,['1'],6,80,[0.064249],100,47,medium,plus,dotcolour,alfa,,,132,20,V,R,
589,85,1,14,4,27,53,366,['n'],1,right,['1'],6,79,[-0.13822737],100,53,easy,plus,dotcolour,alfa,,,132,20,V,R,
590,86,2,14,4,44,36,534,['n'],0,left,['1'],6,80,[-0.04837084],100,44,hard,plus,dotcolour,alfa,,,132,20,V,R,
591,87,3,14,4,36,44,949,['n'],1,right,['2'],5,176,[-0.00096269],52,44,hard,plus,dotcolour,alfa,,,132,20,V,R,
592,88,4,14,4,44,36,367,['n'],0,left,['1'],6,43,[-0.04140914],100,44,hard,plus,dotcolour,alfa,,,132,20,V,R,
593,89,5,14,4,47,33,266,['c'],1,left,['1'],6,16,[0.07632582],100,47,medium,plus,dotcolour,alfa,,,132,20,V,R,
594,90,6,14,4,36,44,384,['c'],0,right,['1'],6,25,[0.07274019],100,44,hard,plus,dotcolour,alfa,,,132,20,V,R,
595,91,7,14,4,44,36,1133,['c'],1,left,['1'],6,444,[0.17520169],100,44,hard,plus,dotcolour,alfa,,,132,20,V,R,
596,92,8,14,4,47,33,517,['c'],1,left,['1'],6,150,[0.07547807],100,47,medium,plus,dotcolour,alfa,,,132,20,V,R,
597,93,9,14,4,27,53,583,['n'],1,right,['1'],6,107,[-0.07630115],100,53,easy,plus,dotcolour,alfa,,,132,20,V,R,
598,94,10,14,4,47,33,634,['n'],0,left,['1'],6,118,[-0.13530946],100,47,medium,plus,dotcolour,alfa,,,132,20,V,R,
599,95,11,14,4,36,44,400,['n'],1,right,['1'],6,91,[-0.14441229],100,44,hard,plus,dotcolour,alfa,,,132,20,V,R,
600,96,12,14,4,27,53,366,['n'],1,right,['1'],6,89,[-0.09265731],100,53,easy,plus,dotcolour,alfa,,,132,20,V,R,
601,97,13,14,4,27,53,549,['n'],1,right,['1'],6,90,[-0.04100687],99,53,easy,plus,dotcolour,alfa,,,132,20,V,R,
602,98,14,14,4,27,53,366,['n'],1,right,['1'],6,49,[-0.0611717],100,53,easy,plus,dotcolour,alfa,,,132,20,V,R,
603,99,15,14,4,36,44,351,['n'],1,right,['1'],6,65,[-0.06230227],100,44,hard,plus,dotcolour,alfa,,,132,20,V,R,
604,100,16,14,4,53,27,366,['n'],0,left,['1'],6,41,[-0.04770692],100,53,easy,plus,dotcolour,alfa,,,132,20,V,R,
605,101,17,14,4,36,44,333,['n'],1,right,['1'],6,83,[-0.03818986],99,44,hard,plus,dotcolour,alfa,,,132,20,V,R,
606,102,18,14,4,53,27,667,['n'],0,left,['3'],4,1535,[0.29697181],0,53,easy,plus,dotcolour,alfa,,,132,20,V,R,
607,103,19,14,4,47,33,634,['c'],1,left,['1'],6,145,[0.18002072],100,47,medium,plus,dotcolour,alfa,,,132,20,V,R,
608,104,20,14,4,33,47,417,['n'],1,right,['1'],6,107,[-0.11445712],100,47,medium,plus,dotcolour,alfa,,,132,20,V,R,
609,105,21,14,4,47,33,700,['c'],1,left,['1'],6,132,[0.06575645],100,47,medium,plus,dotcolour,alfa,,,132,20,V,R,
610,106,22,14,4,36,44,417,['n'],1,right,['1'],6,63,[-0.07868723],100,44,hard,plus,dotcolour,alfa,,,132,20,V,R,
611,107,23,14,4,53,27,767,['c'],1,left,['1'],6,120,[0.10054923],100,53,easy,plus,dotcolour,alfa,,,132,20,V,R,
612,108,24,14,4,53,27,617,['c'],1,left,['1'],6,132,[0.20462721],100,53,easy,plus,dotcolour,alfa,,,132,20,V,R,
613,109,25,14,4,33,47,650,['n'],1,right,['1'],6,93,[-0.07513028],100,47,medium,plus,dotcolour,alfa,,,132,20,V,R,
614,110,26,14,4,33,47,500,['n'],1,right,['1'],6,103,[-0.08992204],100,47,medium,plus,dotcolour,alfa,,,132,20,V,R,
615,111,27,14,4,44,36,517,['c'],1,left,['1'],6,144,[0.06354523],100,44,hard,plus,dotcolour,alfa,,,132,20,V,R,
616,112,28,14,4,33,47,466,['n'],1,right,['1'],6,64,[-0.08866879],100,47,medium,plus,dotcolour,alfa,,,132,20,V,R,
617,113,29,14,4,33,47,333,['n'],1,right,['2'],5,129,[-0.08192505],100,47,medium,plus,dotcolour,alfa,,,132,20,V,R,
618,114,30,14,4,33,47,350,['n'],1,right,['1'],6,96,[-0.07399233],100,47,medium,plus,dotcolour,alfa,,,132,20,V,R,
619,115,31,14,4,44,36,683,['c'],1,left,['1'],6,26,[0.08417826],100,44,hard,plus,dotcolour,alfa,,,132,20,V,R,
620,116,32,14,4,27,53,467,['n'],1,right,['1'],6,63,[-0.10465033],100,53,easy,plus,dotcolour,alfa,,,132,20,V,R,
621,117,33,14,4,47,33,367,['n'],0,left,['1'],6,135,[-0.03922613],98,47,medium,plus,dotcolour,alfa,,,132,20,V,R,
622,118,34,14,4,36,44,500,['n'],1,right,['1'],6,167,[-0.06961765],100,44,hard,plus,dotcolour,alfa,,,132,20,V,R,
623,119,35,14,4,44,36,650,['c'],1,left,['1'],6,136,[0.10782588],100,44,hard,plus,dotcolour,alfa,,,132,20,V,R,
624,120,36,14,4,53,27,667,['c'],1,left,['1'],6,129,[0.09394043],100,53,easy,plus,dotcolour,alfa,,,132,20,V,R,
625,121,37,14,4,53,27,984,['c'],1,left,['1'],6,966,[0.14289117],99,53,easy,plus,dotcolour,alfa,,,132,20,V,R,
626,122,38,14,4,44,36,634,['n'],0,left,['1'],6,22,[-0.08127225],100,44,hard,plus,dotcolour,alfa,,,132,20,V,R,
627,123,39,14,4,27,53,383,['n'],1,right,['1'],6,104,[-0.09395634],100,53,easy,plus,dotcolour,alfa,,,132,20,V,R,
628,124,40,14,4,53,27,833,['c'],1,left,['1'],6,133,[0.09701774],100,53,easy,plus,dotcolour,alfa,,,132,20,V,R,
629,125,41,14,4,33,47,849,['n'],1,right,['1'],6,62,[-0.04888767],100,47,medium,plus,dotcolour,alfa,,,132,20,V,R,
630,0,0,15,5,53,27,717,['c'],1,left,['1'],6,373,[0.14594875],90,53,easy,minus,dotcolour,alfa,,,132,20,V,R,
631,1,1,15,5,44,36,467,['c'],1,left,['1'],6,675,[-0.08949745],27,44,hard,minus,dotcolour,alfa,,,132,20,V,R,
632,2,2,15,5,47,33,850,['c'],1,left,['1'],6,1287,[0.23192821],86,47,medium,minus,dotcolour,alfa,,,132,20,V,R,
633,3,3,15,5,33,47,450,['n'],1,right,['1'],6,115,[-0.1211932],96,47,medium,minus,dotcolour,alfa,,,132,20,V,R,
634,4,4,15,5,44,36,950,['c'],1,left,['1'],6,449,[0.0714353],72,44,hard,minus,dotcolour,alfa,,,132,20,V,R,
635,5,5,15,5,47,33,834,['c'],1,left,['1'],6,392,[0.06760275],73,47,medium,minus,dotcolour,alfa,,,132,20,V,R,
636,6,6,15,5,33,47,734,['n'],1,right,['1'],6,251,[-0.05469546],73,47,medium,minus,dotcolour,alfa,,,132,20,V,R,
637,7,7,15,5,33,47,466,['n'],1,right,['1'],6,80,[-0.11798379],98,47,medium,minus,dotcolour,alfa,,,132,20,V,R,
638,8,8,15,5,27,53,433,['n'],1,right,['1'],6,77,[-0.11579994],98,53,easy,minus,dotcolour,alfa,,,132,20,V,R,
639,9,9,15,5,44,36,500,['c'],1,left,['1'],6,95,[0.11468712],97,44,hard,minus,dotcolour,alfa,,,132,20,V,R,
640,10,10,15,5,53,27,683,['n'],0,left,['1'],6,113,[-0.07443337],88,53,easy,minus,dotcolour,alfa,,,132,20,V,R,
641,11,11,15,5,47,33,517,['c'],1,left,['1'],6,97,[0.08819306],93,47,medium,minus,dotcolour,alfa,,,132,20,V,R,
642,12,12,15,5,27,53,417,['c'],0,right,['0'],1,486,[0.04710983],65,53,easy,minus,dotcolour,alfa,,,132,20,V,R,
643,13,13,15,5,36,44,550,['c'],0,right,['2'],5,238,[0.04183603],68,44,hard,minus,dotcolour,alfa,,,132,20,V,R,
644,14,14,15,5,27,53,417,['n'],1,right,['1'],6,85,[-0.11755381],97,53,easy,minus,dotcolour,alfa,,,132,20,V,R,
645,15,15,15,5,44,36,550,['c'],1,left,['2'],5,157,[0.0804802],86,44,hard,minus,dotcolour,alfa,,,132,20,V,R,
646,16,16,15,5,36,44,534,['n'],1,right,['1'],6,106,[-0.04137425],76,44,hard,minus,dotcolour,alfa,,,132,20,V,R,
647,17,17,15,5,36,44,532,['n'],1,right,['1'],6,74,[-0.0640853],89,44,hard,minus,dotcolour,alfa,,,132,20,V,R,
648,18,18,15,5,27,53,417,['n'],1,right,['1'],6,143,[-0.09464242],90,53,easy,minus,dotcolour,alfa,,,132,20,V,R,
649,19,19,15,5,47,33,533,['c'],1,left,['1'],6,70,[0.07821717],93,47,medium,minus,dotcolour,alfa,,,132,20,V,R,
650,20,20,15,5,47,33,417,['n'],0,left,['1'],6,68,[-0.07558494],93,47,medium,minus,dotcolour,alfa,,,132,20,V,R,
651,21,21,15,5,53,27,400,['n'],0,left,['0'],1,1914,[-0.01576132],53,53,easy,minus,dotcolour,alfa,,,132,20,V,R,
652,22,22,15,5,53,27,500,['c'],1,left,['1'],6,67,[0.08991619],96,53,easy,minus,dotcolour,alfa,,,132,20,V,R,
653,23,23,15,5,53,27,466,['c'],1,left,['1'],6,6,[0.06913803],100,53,easy,minus,dotcolour,alfa,,,132,20,V,R,
654,24,24,15,5,27,53,1633,['n'],1,right,['1'],6,430,[-0.10180941],80,53,easy,minus,dotcolour,alfa,,,132,20,V,R,
655,25,25,15,5,33,47,633,['n'],1,right,['1'],6,53,[-0.07242481],94,47,medium,minus,dotcolour,alfa,,,132,20,V,R,
656,26,26,15,5,36,44,466,['n'],1,right,['1'],6,122,[-0.07839414],88,44,hard,minus,dotcolour,alfa,,,132,20,V,R,
657,27,27,15,5,33,47,367,['n'],1,right,['1'],6,112,[-0.18624235],99,47,medium,minus,dotcolour,alfa,,,132,20,V,R,
658,28,28,15,5,36,44,467,['n'],1,right,['1'],6,130,[-0.05893869],81,44,hard,minus,dotcolour,alfa,,,132,20,V,R,
659,29,29,15,5,53,27,467,['n'],0,left,['0'],1,747,[-0.01759203],55,53,easy,minus,dotcolour,alfa,,,132,20,V,R,
660,30,30,15,5,36,44,1067,['n'],1,right,['1'],6,172,[-0.1162154],93,44,hard,minus,dotcolour,alfa,,,132,20,V,R,
661,31,31,15,5,27,53,366,['n'],1,right,['1'],6,49,[-0.1019482],98,53,easy,minus,dotcolour,alfa,,,132,20,V,R,
662,32,32,15,5,53,27,800,['c'],1,left,['1'],6,95,[0.05140674],82,53,easy,minus,dotcolour,alfa,,,132,20,V,R,
663,33,33,15,5,44,36,751,['c'],1,left,['1'],6,190,[0.07118479],81,44,hard,minus,dotcolour,alfa,,,132,20,V,R,
664,34,34,15,5,33,47,417,['n'],1,right,['1'],6,80,[-0.08610621],94,47,medium,minus,dotcolour,alfa,,,132,20,V,R,
665,35,35,15,5,47,33,467,['n'],0,left,['1'],6,67,[-0.05695343],88,47,medium,minus,dotcolour,alfa,,,132,20,V,R,
666,36,36,15,5,33,47,433,['n'],1,right,['1'],6,32,[-0.07359574],98,47,medium,minus,dotcolour,alfa,,,132,20,V,R,
667,37,37,15,5,27,53,484,['n'],1,right,['1'],6,77,[-0.07432894],92,53,easy,minus,dotcolour,alfa,,,132,20,V,R,
668,38,38,15,5,44,36,684,['n'],0,left,['1'],6,1031,[-0.27455124],92,44,hard,minus,dotcolour,alfa,,,132,20,V,R,
669,39,39,15,5,47,33,634,['c'],1,left,['1'],6,94,[0.04580046],79,47,medium,minus,dotcolour,alfa,,,132,20,V,R,
670,40,40,15,5,36,44,584,['c'],0,right,['1'],6,76,[0.05442365],86,44,hard,minus,dotcolour,alfa,,,132,20,V,R,
671,41,41,15,5,44,36,666,['c'],1,left,['1'],6,87,[0.08465393],93,44,hard,minus,dotcolour,alfa,,,132,20,V,R,
672,42,0,16,5,33,47,451,['n'],1,right,['1'],6,105,[-0.0186464],63,47,medium,minus,dotcolour,alfa,,,132,20,V,R,
673,43,1,16,5,33,47,367,['n'],1,right,['1'],6,113,[-0.11764569],96,47,medium,minus,dotcolour,alfa,,,132,20,V,R,
674,44,2,16,5,47,33,584,['c'],1,left,['1'],6,46,[0.09830416],98,47,medium,minus,dotcolour,alfa,,,132,20,V,R,
675,45,3,16,5,27,53,484,['n'],1,right,['1'],6,106,[-0.10907301],95,53,easy,minus,dotcolour,alfa,,,132,20,V,R,
676,46,4,16,5,33,47,350,['n'],1,right,['1'],6,121,[-0.10155098],93,47,medium,minus,dotcolour,alfa,,,132,20,V,R,
677,47,5,16,5,47,33,416,['n'],0,left,['1'],6,93,[-0.04722714],80,47,medium,minus,dotcolour,alfa,,,132,20,V,R,
678,48,6,16,5,27,53,434,['n'],1,right,['1'],6,73,[-0.11594288],98,53,easy,minus,dotcolour,alfa,,,132,20,V,R,
679,49,7,16,5,44,36,467,['n'],0,left,['1'],6,116,[-0.04879882],78,44,hard,minus,dotcolour,alfa,,,132,20,V,R,
680,50,8,16,5,53,27,450,['c'],1,left,['1'],6,55,[0.07947519],95,53,easy,minus,dotcolour,alfa,,,132,20,V,R,
681,51,9,16,5,47,33,850,['c'],1,left,['1'],6,77,[0.0648802],89,47,medium,minus,dotcolour,alfa,,,132,20,V,R,
682,52,10,16,5,53,27,584,['c'],1,left,['1'],6,59,[0.06313868],91,53,easy,minus,dotcolour,alfa,,,132,20,V,R,
683,53,11,16,5,53,27,350,['n'],0,left,['1'],6,76,[-0.07733814],93,53,easy,minus,dotcolour,alfa,,,132,20,V,R,
684,54,12,16,5,33,47,434,['c'],0,right,['1'],6,64,[0.07809114],94,47,medium,minus,dotcolour,alfa,,,132,20,V,R,
685,55,13,16,5,36,44,401,['n'],1,right,['1'],6,70,[-0.08063579],94,44,hard,minus,dotcolour,alfa,,,132,20,V,R,
686,56,14,16,5,53,27,550,['n'],0,left,['0'],1,856,[-0.00463042],51,53,easy,minus,dotcolour,alfa,,,132,20,V,R,
687,57,15,16,5,47,33,733,['c'],1,left,['1'],6,9,[0.07452032],100,47,medium,minus,dotcolour,alfa,,,132,20,V,R,
688,58,16,16,5,33,47,450,['n'],1,right,['1'],6,112,[0.01165843],42,47,medium,minus,dotcolour,alfa,,,132,20,V,R,
689,59,17,16,5,47,33,733,['c'],1,left,['1'],6,143,[0.06641825],83,47,medium,minus,dotcolour,alfa,,,132,20,V,R,
690,60,18,16,5,27,53,250,['n'],1,right,['1'],6,553,[-0.26133684],96,53,easy,minus,dotcolour,alfa,,,132,20,V,R,
691,61,19,16,5,44,36,733,['c'],1,left,['1'],6,78,[0.04320962],80,44,hard,minus,dotcolour,alfa,,,132,20,V,R,
692,62,20,16,5,53,27,401,['c'],1,left,['1'],6,61,[0.10983187],98,53,easy,minus,dotcolour,alfa,,,132,20,V,R,
693,63,21,16,5,47,33,417,['c'],1,left,['1'],6,51,[0.03468429],80,47,medium,minus,dotcolour,alfa,,,132,20,V,R,
694,64,22,16,5,36,44,399,['n'],1,right,['1'],6,82,[-0.05188583],84,44,hard,minus,dotcolour,alfa,,,132,20,V,R,
695,65,23,16,5,44,36,517,['c'],1,left,['1'],6,84,[0.06469027],88,44,hard,minus,dotcolour,alfa,,,132,20,V,R,
696,66,24,16,5,44,36,350,['n'],0,left,['1'],6,124,[-0.0482049],77,44,hard,minus,dotcolour,alfa,,,132,20,V,R,
697,67,25,16,5,44,36,534,['c'],1,left,['1'],6,74,[0.07360214],92,44,hard,minus,dotcolour,alfa,,,132,20,V,R,
698,68,26,16,5,36,44,550,['c'],0,right,['1'],6,138,[0.01025672],56,44,hard,minus,dotcolour,alfa,,,132,20,V,R,
699,69,27,16,5,27,53,550,['n'],1,right,['1'],6,88,[-0.13495693],98,53,easy,minus,dotcolour,alfa,,,132,20,V,R,
700,70,28,16,5,27,53,466,['n'],1,right,['1'],6,60,[-0.10093037],98,53,easy,minus,dotcolour,alfa,,,132,20,V,R,
701,71,29,16,5,33,47,684,['n'],1,right,['1'],6,71,[-0.06330554],89,47,medium,minus,dotcolour,alfa,,,132,20,V,R,
702,72,30,16,5,44,36,518,['n'],0,left,['1'],6,81,[-0.01923789],65,44,hard,minus,dotcolour,alfa,,,132,20,V,R,
703,73,31,16,5,53,27,517,['n'],0,left,['1'],6,90,[-0.04610297],80,53,easy,minus,dotcolour,alfa,,,132,20,V,R,
704,74,32,16,5,33,47,567,['n'],1,right,['1'],6,561,[-0.01181839],54,47,medium,minus,dotcolour,alfa,,,132,20,V,R,
705,75,33,16,5,36,44,634,['n'],1,right,['1'],6,122,[-0.08639841],90,44,hard,minus,dotcolour,alfa,,,132,20,V,R,
706,76,34,16,5,36,44,618,['n'],1,right,['1'],6,22,[-0.09827117],100,44,hard,minus,dotcolour,alfa,,,132,20,V,R,
707,77,35,16,5,47,33,767,['c'],1,left,['1'],6,8,[0.05281308],100,47,medium,minus,dotcolour,alfa,,,132,20,V,R,
708,78,36,16,5,36,44,750,['c'],0,right,['1'],6,19,[0.09720381],100,44,hard,minus,dotcolour,alfa,,,132,20,V,R,
709,79,37,16,5,27,53,483,['n'],1,right,['1'],6,113,[-0.09952716],93,53,easy,minus,dotcolour,alfa,,,132,20,V,R,
710,80,38,16,5,27,53,567,['n'],1,right,['1'],6,70,[-0.09714459],96,53,easy,minus,dotcolour,alfa,,,132,20,V,R,
711,81,39,16,5,53,27,617,['c'],1,left,['1'],6,12,[0.07212503],100,53,easy,minus,dotcolour,alfa,,,132,20,V,R,
712,82,40,16,5,44,36,567,['c'],1,left,['1'],6,54,[0.05427206],89,44,hard,minus,dotcolour,alfa,,,132,20,V,R,
713,83,41,16,5,36,44,416,['n'],1,right,['1'],6,69,[-0.07690119],93,44,hard,minus,dotcolour,alfa,,,132,20,V,R,
714,84,0,17,5,36,44,1084,['n'],1,right,['1'],6,75,[-0.07508663],92,44,hard,minus,dotcolour,alfa,,,132,20,V,R,
715,85,1,17,5,53,27,384,['c'],1,left,['1'],6,58,[0.06169519],91,53,easy,minus,dotcolour,alfa,,,132,20,V,R,
716,86,2,17,5,33,47,616,['c'],0,right,['1'],6,104,[0.06023512],84,47,medium,minus,dotcolour,alfa,,,132,20,V,R,
717,87,3,17,5,44,36,351,['n'],0,left,['1'],6,151,[-0.11010576],93,44,hard,minus,dotcolour,alfa,,,132,20,V,R,
718,88,4,17,5,44,36,483,['n'],0,left,['1'],6,63,[-0.05069043],86,44,hard,minus,dotcolour,alfa,,,132,20,V,R,
719,89,5,17,5,27,53,417,['n'],1,right,['1'],6,53,[-0.08504603],97,53,easy,minus,dotcolour,alfa,,,132,20,V,R,
720,90,6,17,5,36,44,316,['n'],1,right,['1'],6,72,[-0.08301549],94,44,hard,minus,dotcolour,alfa,,,132,20,V,R,
721,91,7,17,5,36,44,400,['n'],1,right,['1'],6,86,[-0.09206224],94,44,hard,minus,dotcolour,alfa,,,132,20,V,R,
722,92,8,17,5,33,47,566,['n'],1,right,['1'],6,102,[-0.08873033],92,47,medium,minus,dotcolour,alfa,,,132,20,V,R,
723,93,9,17,5,33,47,283,['n'],1,right,['1'],6,56,[-0.09326859],97,47,medium,minus,dotcolour,alfa,,,132,20,V,R,
724,94,10,17,5,53,27,467,['n'],0,left,['1'],6,84,[-0.02850978],71,53,easy,minus,dotcolour,alfa,,,132,20,V,R,
725,95,11,17,5,47,33,649,['n'],0,left,['1'],6,65,[-0.07837047],94,47,medium,minus,dotcolour,alfa,,,132,20,V,R,
726,96,12,17,5,33,47,467,['n'],1,right,['1'],6,132,[-0.06339066],83,47,medium,minus,dotcolour,alfa,,,132,20,V,R,
727,97,13,17,5,33,47,284,['n'],1,right,['1'],6,101,[-0.06465285],86,47,medium,minus,dotcolour,alfa,,,132,20,V,R,
728,98,14,17,5,47,33,350,['n'],0,left,['1'],6,69,[-0.05558533],87,47,medium,minus,dotcolour,alfa,,,132,20,V,R,
729,99,15,17,5,44,36,367,['n'],0,left,['1'],6,45,[-0.06764812],95,44,hard,minus,dotcolour,alfa,,,132,20,V,R,
730,100,16,17,5,53,27,383,['n'],0,left,['1'],6,53,[-0.04092555],83,53,easy,minus,dotcolour,alfa,,,132,20,V,R,
731,101,17,17,5,33,47,266,['n'],1,right,['1'],6,113,[-0.09549294],93,47,medium,minus,dotcolour,alfa,,,132,20,V,R,
732,102,18,17,5,53,27,284,['n'],0,left,['1'],6,27,[-0.02596484],81,53,easy,minus,dotcolour,alfa,,,132,20,V,R,
733,103,19,17,5,27,53,334,['n'],1,right,['1'],6,118,[-0.0383681],73,53,easy,minus,dotcolour,alfa,,,132,20,V,R,
734,104,20,17,5,33,47,233,['n'],1,right,['1'],6,41,[-0.05526685],92,47,medium,minus,dotcolour,alfa,,,132,20,V,R,
735,105,21,17,5,44,36,161,['n'],0,left,['1'],6,9,[-0.0787674],100,44,hard,minus,dotcolour,alfa,,,132,20,V,R,
736,106,22,17,5,27,53,334,['n'],1,right,['1'],6,147,[-0.09547363],90,53,easy,minus,dotcolour,alfa,,,132,20,V,R,
737,107,23,17,5,47,33,153,['n'],0,left,['1'],6,888,[0.1356751],21,47,medium,minus,dotcolour,alfa,,,132,20,V,R,
738,108,24,17,5,47,33,684,['c'],1,left,['1'],6,33,[0.08706062],99,47,medium,minus,dotcolour,alfa,,,132,20,V,R,
739,109,25,17,5,47,33,350,['c'],1,left,['1'],6,35,[0.04828772],91,47,medium,minus,dotcolour,alfa,,,132,20,V,R,
740,110,26,17,5,44,36,366,['c'],1,left,['1'],6,77,[0.08553147],94,44,hard,minus,dotcolour,alfa,,,132,20,V,R,
741,111,27,17,5,47,33,366,['c'],1,left,['1'],6,52,[0.07308266],95,47,medium,minus,dotcolour,alfa,,,132,20,V,R,
742,112,28,17,5,27,53,600,['c'],0,right,['1'],6,547,[0.0435653],63,53,easy,minus,dotcolour,alfa,,,132,20,V,R,
743,113,29,17,5,36,44,416,['n'],1,right,['1'],6,118,[-0.04832737],78,44,hard,minus,dotcolour,alfa,,,132,20,V,R,
744,114,30,17,5,53,27,300,['n'],0,left,['1'],6,70,[-0.04368561],82,53,easy,minus,dotcolour,alfa,,,132,20,V,R,
745,115,31,17,5,53,27,500,['n'],0,left,['0'],1,1169,[0.20055109],16,53,easy,minus,dotcolour,alfa,,,132,20,V,R,
746,116,32,17,5,36,44,566,['c'],0,right,['2'],5,212,[0.06692694],79,44,hard,minus,dotcolour,alfa,,,132,20,V,R,
747,117,33,17,5,36,44,333,['c'],0,right,['1'],6,104,[0.05778418],83,44,hard,minus,dotcolour,alfa,,,132,20,V,R,
748,118,34,17,5,53,27,516,['c'],1,left,['1'],6,120,[0.08185786],89,53,easy,minus,dotcolour,alfa,,,132,20,V,R,
749,119,35,17,5,44,36,433,['c'],1,left,['1'],6,99,[0.10009433],95,44,hard,minus,dotcolour,alfa,,,132,20,V,R,
750,120,36,17,5,27,53,534,['n'],1,right,['1'],6,107,[-0.06879374],87,53,easy,minus,dotcolour,alfa,,,132,20,V,R,
751,121,37,17,5,27,53,267,['n'],1,right,['1'],6,78,[-0.06601847],89,53,easy,minus,dotcolour,alfa,,,132,20,V,R,
752,122,38,17,5,36,44,333,['n'],1,right,['1'],6,87,[-0.0702062],89,44,hard,minus,dotcolour,alfa,,,132,20,V,R,
753,123,39,17,5,47,33,334,['n'],0,left,['1'],6,39,[-0.06967498],96,47,medium,minus,dotcolour,alfa,,,132,20,V,R,
754,124,40,17,5,44,36,317,['n'],0,left,['1'],6,74,[-0.01937696],65,44,hard,minus,dotcolour,alfa,,,132,20,V,R,
755,125,41,17,5,27,53,383,['n'],1,right,['1'],6,49,[-0.06496311],93,53,easy,minus,dotcolour,alfa,,,132,20,V,R,
,,,,,,,,,,,,,,,,,,,,,1,ik heb meer blauw aangedrukt dan rood,132,20,V,R,
,,,,,,,,,,,,,,,,,,,,,2,['g'],132,20,V,R,
,,,,,,,,,,,,,,,,,,,,,3,['g'],132,20,V,R,
,,,,,,,,,,,,,,,,,,,,,5,[],132,20,V,R,
