trial,withinphasetrial,withinblocktrial,block,phase,dotsLeft,dotsRight,rt,resp,cor,cresp,conf_press,cj,RTconf,ev,fb,diff,difflevel,condition,task,manip,sub,age,gender,handedness,
0,0,0,0,0,36,44,2183,['n'],1,right,['3'],4,1879,[-0.11371663],90,44,hard,plus,dotcolour,beta,68,19,V,R,
1,1,1,0,0,33,47,1232,['n'],1,right,['2'],5,1386,[-0.20109625],98,47,medium,plus,dotcolour,beta,68,19,V,R,
2,2,2,0,0,36,44,897,['n'],1,right,['2'],5,871,[-0.05333536],89,44,hard,plus,dotcolour,beta,68,19,V,R,
3,3,3,0,0,44,36,2199,['c'],1,left,['3'],4,1037,[0.22022872],99,44,hard,plus,dotcolour,beta,68,19,V,R,
4,4,4,0,0,36,44,1083,['n'],1,right,['2'],5,1017,[-0.13779467],97,44,hard,plus,dotcolour,beta,68,19,V,R,
5,5,5,0,0,47,33,1566,['c'],1,left,['2'],5,634,[0.19778674],100,47,medium,plus,dotcolour,beta,68,19,V,R,
6,6,6,0,0,53,27,1315,['c'],1,left,['3'],4,876,[0.35754954],100,53,easy,plus,dotcolour,beta,68,19,V,R,
7,7,7,0,0,36,44,1748,['c'],0,right,['3'],4,1221,[0.08467343],91,44,hard,plus,dotcolour,beta,68,19,V,R,
8,8,8,0,0,33,47,930,['n'],1,right,['1'],6,616,[-0.1783481],100,47,medium,plus,dotcolour,beta,68,19,V,R,
9,9,9,0,0,27,53,999,['n'],1,right,['1'],6,456,[-0.2179396],100,53,easy,plus,dotcolour,beta,68,19,V,R,
10,10,10,0,0,47,33,1900,['c'],1,left,['3'],4,763,[0.15222553],99,47,medium,plus,dotcolour,beta,68,19,V,R,
11,11,11,0,0,53,27,848,['c'],1,left,['1'],6,683,[0.21399739],100,53,easy,plus,dotcolour,beta,68,19,V,R,
12,12,12,0,0,27,53,799,['n'],1,right,['1'],6,425,[-0.15357345],100,53,easy,plus,dotcolour,beta,68,19,V,R,
13,13,13,0,0,33,47,965,['n'],1,right,['1'],6,426,[-0.07953879],98,47,medium,plus,dotcolour,beta,68,19,V,R,
14,14,14,0,0,47,33,1081,['c'],1,left,['3'],4,743,[0.2185283],100,47,medium,plus,dotcolour,beta,68,19,V,R,
15,15,15,0,0,27,53,750,['n'],1,right,['1'],6,405,[-0.17834367],100,53,easy,plus,dotcolour,beta,68,19,V,R,
16,16,16,0,0,47,33,1166,['c'],1,left,['2'],5,775,[0.25360944],100,47,medium,plus,dotcolour,beta,68,19,V,R,
17,17,17,0,0,36,44,751,['n'],1,right,['2'],5,804,[-0.10888833],96,44,hard,plus,dotcolour,beta,68,19,V,R,
18,18,18,0,0,53,27,882,['c'],1,left,['2'],5,512,[0.15088371],99,53,easy,plus,dotcolour,beta,68,19,V,R,
19,19,19,0,0,33,47,1032,['n'],1,right,['1'],6,684,[-0.25941975],100,47,medium,plus,dotcolour,beta,68,19,V,R,
20,20,20,0,0,47,33,1365,['n'],0,left,['2'],5,707,[-0.15130325],99,47,medium,plus,dotcolour,beta,68,19,V,R,
21,21,21,0,0,44,36,964,['n'],0,left,['2'],5,497,[-0.21887788],100,44,hard,plus,dotcolour,beta,68,19,V,R,
22,22,22,0,0,33,47,1149,['n'],1,right,['1'],6,384,[-0.10442151],99,47,medium,plus,dotcolour,beta,68,19,V,R,
23,23,23,0,0,47,33,1397,['n'],0,left,['3'],4,362,[-0.05216458],96,47,medium,plus,dotcolour,beta,68,19,V,R,
24,24,24,0,0,47,33,1015,['c'],1,left,['2'],5,516,[0.10168791],98,47,medium,plus,dotcolour,beta,68,19,V,R,
25,25,25,0,0,53,27,1330,['c'],1,left,['2'],5,395,[0.09132513],99,53,easy,plus,dotcolour,beta,68,19,V,R,
26,26,26,0,0,53,27,1116,['c'],1,left,['2'],5,392,[0.0761876],98,53,easy,plus,dotcolour,beta,68,19,V,R,
27,27,27,0,0,36,44,732,['n'],1,right,['3'],4,660,[-0.20697207],100,44,hard,plus,dotcolour,beta,68,19,V,R,
28,28,28,0,0,44,36,665,['n'],0,left,['2'],5,392,[0.00562119],81,44,hard,plus,dotcolour,beta,68,19,V,R,
29,29,29,0,0,44,36,1200,['c'],1,left,['2'],5,545,[0.31310988],100,44,hard,plus,dotcolour,beta,68,19,V,R,
30,30,30,0,0,44,36,1431,['c'],1,left,['2'],5,419,[0.0757245],97,44,hard,plus,dotcolour,beta,68,19,V,R,
31,31,31,0,0,33,47,615,['n'],1,right,['2'],5,411,[-0.07771738],98,47,medium,plus,dotcolour,beta,68,19,V,R,
32,32,32,0,0,27,53,716,['n'],1,right,['1'],6,422,[-0.21569342],100,53,easy,plus,dotcolour,beta,68,19,V,R,
33,33,33,0,0,53,27,867,['c'],1,left,['1'],6,371,[0.20090488],100,53,easy,plus,dotcolour,beta,68,19,V,R,
34,34,34,0,0,53,27,998,['c'],1,left,['1'],6,374,[0.08980865],99,53,easy,plus,dotcolour,beta,68,19,V,R,
35,35,35,0,0,44,36,565,['n'],0,left,['1'],6,305,[-0.04866851],97,44,hard,plus,dotcolour,beta,68,19,V,R,
36,36,36,0,0,33,47,716,['n'],1,right,['2'],5,618,[-0.13365954],99,47,medium,plus,dotcolour,beta,68,19,V,R,
37,37,37,0,0,27,53,749,['n'],1,right,['1'],6,604,[-0.0150033],84,53,easy,plus,dotcolour,beta,68,19,V,R,
38,38,38,0,0,27,53,1097,['n'],1,right,['1'],6,425,[-0.20481693],100,53,easy,plus,dotcolour,beta,68,19,V,R,
39,39,39,0,0,44,36,1247,['n'],0,left,['2'],5,575,[-0.05464576],93,44,hard,plus,dotcolour,beta,68,19,V,R,
40,40,40,0,0,36,44,647,['n'],1,right,['2'],5,879,[-0.01276858],79,44,hard,plus,dotcolour,beta,68,19,V,R,
41,41,41,0,0,27,53,599,['n'],1,right,['1'],6,325,[-0.02247343],92,53,easy,plus,dotcolour,beta,68,19,V,R,
42,42,0,1,0,33,47,699,['n'],1,right,['2'],5,471,[-0.1622696],100,47,medium,plus,dotcolour,beta,68,19,V,R,
43,43,1,1,0,36,44,766,['n'],1,right,['1'],6,415,[-0.04679912],95,44,hard,plus,dotcolour,beta,68,19,V,R,
44,44,2,1,0,47,33,1180,['c'],1,left,['3'],4,616,[0.2606455],100,47,medium,plus,dotcolour,beta,68,19,V,R,
45,45,3,1,0,33,47,548,['n'],1,right,['1'],6,474,[-0.08935508],98,47,medium,plus,dotcolour,beta,68,19,V,R,
46,46,4,1,0,27,53,598,['n'],1,right,['1'],6,336,[-0.07989656],99,53,easy,plus,dotcolour,beta,68,19,V,R,
47,47,5,1,0,53,27,1249,['c'],1,left,['2'],5,585,[0.24524033],100,53,easy,plus,dotcolour,beta,68,19,V,R,
48,48,6,1,0,36,44,616,['n'],1,right,['1'],6,299,[-0.08477529],99,44,hard,plus,dotcolour,beta,68,19,V,R,
49,49,7,1,0,44,36,565,['n'],0,left,['1'],6,362,[-0.01738118],90,44,hard,plus,dotcolour,beta,68,19,V,R,
50,50,8,1,0,36,44,598,['n'],1,right,['1'],6,756,[-0.26511164],100,44,hard,plus,dotcolour,beta,68,19,V,R,
51,51,9,1,0,44,36,983,['n'],0,left,['2'],5,407,[-0.10108023],99,44,hard,plus,dotcolour,beta,68,19,V,R,
52,52,10,1,0,44,36,1148,['c'],1,left,['8'],3,1138,[0.17206103],98,44,hard,plus,dotcolour,beta,68,19,V,R,
53,53,11,1,0,36,44,666,['n'],1,right,['1'],6,371,[-0.02760351],92,44,hard,plus,dotcolour,beta,68,19,V,R,
54,54,12,1,0,47,33,1117,['c'],1,left,['2'],5,625,[0.04589113],91,47,medium,plus,dotcolour,beta,68,19,V,R,
55,55,13,1,0,47,33,1648,['c'],1,left,['2'],5,519,[0.0791067],97,47,medium,plus,dotcolour,beta,68,19,V,R,
56,56,14,1,0,27,53,516,['n'],1,right,['1'],6,351,[-0.03192962],93,53,easy,plus,dotcolour,beta,68,19,V,R,
57,57,15,1,0,27,53,598,['n'],1,right,['1'],6,330,[-0.06620962],98,53,easy,plus,dotcolour,beta,68,19,V,R,
58,58,16,1,0,33,47,582,['n'],1,right,['1'],6,358,[-0.04525845],95,47,medium,plus,dotcolour,beta,68,19,V,R,
59,59,17,1,0,47,33,982,['c'],1,left,['3'],4,738,[0.26281393],100,47,medium,plus,dotcolour,beta,68,19,V,R,
60,60,18,1,0,47,33,1248,['c'],1,left,['3'],4,827,[0.14406396],98,47,medium,plus,dotcolour,beta,68,19,V,R,
61,61,19,1,0,27,53,516,['n'],1,right,['1'],6,350,[-0.06165662],97,53,easy,plus,dotcolour,beta,68,19,V,R,
62,62,20,1,0,53,27,866,['c'],1,left,['1'],6,423,[0.04071948],93,53,easy,plus,dotcolour,beta,68,19,V,R,
63,63,21,1,0,33,47,732,['n'],1,right,['1'],6,546,[-0.00457027],81,47,medium,plus,dotcolour,beta,68,19,V,R,
64,64,22,1,0,53,27,1416,['c'],1,left,['8'],3,292,[0.03287696],95,53,easy,plus,dotcolour,beta,68,19,V,R,
65,65,23,1,0,27,53,748,['n'],1,right,['1'],6,476,[-0.12304324],99,53,easy,plus,dotcolour,beta,68,19,V,R,
66,66,24,1,0,53,27,1014,['c'],1,left,['1'],6,641,[0.02055939],85,53,easy,plus,dotcolour,beta,68,19,V,R,
67,67,25,1,0,47,33,1016,['n'],0,left,['3'],4,672,[-0.11405863],98,47,medium,plus,dotcolour,beta,68,19,V,R,
68,68,26,1,0,33,47,698,['n'],1,right,['1'],6,402,[-0.1306649],99,47,medium,plus,dotcolour,beta,68,19,V,R,
69,69,27,1,0,33,47,700,['n'],1,right,['1'],6,335,[-0.09148827],99,47,medium,plus,dotcolour,beta,68,19,V,R,
70,70,28,1,0,44,36,2282,['n'],0,left,['8'],3,1296,[-0.05423698],85,44,hard,plus,dotcolour,beta,68,19,V,R,
71,71,29,1,0,36,44,617,['n'],1,right,['1'],6,260,[-0.15451718],100,44,hard,plus,dotcolour,beta,68,19,V,R,
72,72,30,1,0,33,47,882,['n'],1,right,['1'],6,304,[-0.03064642],94,47,medium,plus,dotcolour,beta,68,19,V,R,
73,73,31,1,0,44,36,897,['n'],0,left,['1'],6,448,[-0.14450033],100,44,hard,plus,dotcolour,beta,68,19,V,R,
74,74,32,1,0,44,36,615,['n'],0,left,['1'],6,295,[-0.03777636],96,44,hard,plus,dotcolour,beta,68,19,V,R,
75,75,33,1,0,36,44,567,['n'],1,right,['1'],6,278,[-0.15567989],100,44,hard,plus,dotcolour,beta,68,19,V,R,
76,76,34,1,0,36,44,500,['n'],1,right,['1'],6,239,[-0.05116181],98,44,hard,plus,dotcolour,beta,68,19,V,R,
77,77,35,1,0,27,53,550,['n'],1,right,['1'],6,313,[-0.07871276],99,53,easy,plus,dotcolour,beta,68,19,V,R,
78,78,36,1,0,53,27,715,['c'],1,left,['1'],6,281,[0.04609722],97,53,easy,plus,dotcolour,beta,68,19,V,R,
79,79,37,1,0,27,53,549,['n'],1,right,['1'],6,273,[-0.10109024],100,53,easy,plus,dotcolour,beta,68,19,V,R,
80,80,38,1,0,44,36,933,['c'],1,left,['3'],4,561,[0.09853399],98,44,hard,plus,dotcolour,beta,68,19,V,R,
81,81,39,1,0,47,33,3481,['n'],0,left,['8'],3,1017,[0.07519175],41,47,medium,plus,dotcolour,beta,68,19,V,R,
82,82,40,1,0,53,27,865,['c'],1,left,['1'],6,374,[0.07489732],98,53,easy,plus,dotcolour,beta,68,19,V,R,
83,83,41,1,0,53,27,648,['c'],1,left,['1'],6,566,[0.22500464],100,53,easy,plus,dotcolour,beta,68,19,V,R,
84,84,0,2,0,27,53,833,['n'],1,right,['1'],6,233,[-0.13945753],100,53,easy,plus,dotcolour,beta,68,19,V,R,
85,85,1,2,0,36,44,847,['n'],1,right,['1'],6,415,[-0.0748634],97,44,hard,plus,dotcolour,beta,68,19,V,R,
86,86,2,2,0,53,27,949,['c'],1,left,['3'],4,674,[0.11372517],98,53,easy,plus,dotcolour,beta,68,19,V,R,
87,87,3,2,0,33,47,614,['n'],1,right,['1'],6,279,[-0.16821279],100,47,medium,plus,dotcolour,beta,68,19,V,R,
88,88,4,2,0,33,47,615,['n'],1,right,['1'],6,292,[-0.11474449],100,47,medium,plus,dotcolour,beta,68,19,V,R,
89,89,5,2,0,47,33,881,['c'],1,left,['1'],6,326,[0.09467347],99,47,medium,plus,dotcolour,beta,68,19,V,R,
90,90,6,2,0,44,36,950,['n'],0,left,['9'],2,1421,[-0.20513361],98,44,hard,plus,dotcolour,beta,68,19,V,R,
91,91,7,2,0,27,53,633,['n'],1,right,['1'],6,283,[-0.15624057],100,53,easy,plus,dotcolour,beta,68,19,V,R,
92,92,8,2,0,53,27,882,['c'],1,left,['3'],4,942,[0.19204639],99,53,easy,plus,dotcolour,beta,68,19,V,R,
93,93,9,2,0,44,36,1182,['n'],0,left,['8'],3,898,[-0.05144823],88,44,hard,plus,dotcolour,beta,68,19,V,R,
94,94,10,2,0,44,36,1434,['c'],1,left,['3'],4,1310,[0.27635436],99,44,hard,plus,dotcolour,beta,68,19,V,R,
95,95,11,2,0,36,44,533,['n'],1,right,['1'],6,277,[-0.07190871],99,44,hard,plus,dotcolour,beta,68,19,V,R,
96,96,12,2,0,53,27,1634,['c'],1,left,['3'],4,426,[0.12084521],99,53,easy,plus,dotcolour,beta,68,19,V,R,
97,97,13,2,0,44,36,798,['n'],0,left,['2'],5,618,[-0.08890296],96,44,hard,plus,dotcolour,beta,68,19,V,R,
98,98,14,2,0,27,53,1098,['c'],0,right,['0'],1,3446,[-0.1864629],22,53,easy,plus,dotcolour,beta,68,19,V,R,
99,99,15,2,0,33,47,681,['n'],1,right,['1'],6,241,[0.03272737],70,47,medium,plus,dotcolour,beta,68,19,V,R,
100,100,16,2,0,53,27,1017,['c'],1,left,['2'],5,536,[0.21599628],100,53,easy,plus,dotcolour,beta,68,19,V,R,
101,101,17,2,0,27,53,599,['n'],1,right,['1'],6,251,[-0.15709287],100,53,easy,plus,dotcolour,beta,68,19,V,R,
102,102,18,2,0,36,44,616,['n'],1,right,['1'],6,322,[-0.02955212],94,44,hard,plus,dotcolour,beta,68,19,V,R,
103,103,19,2,0,53,27,1449,['n'],0,left,['3'],4,812,[0.14898853],13,53,easy,plus,dotcolour,beta,68,19,V,R,
104,104,20,2,0,44,36,1315,['n'],0,left,['0'],1,1160,[-0.01157542],75,44,hard,plus,dotcolour,beta,68,19,V,R,
105,105,21,2,0,33,47,715,['n'],1,right,['1'],6,231,[-0.15187066],100,47,medium,plus,dotcolour,beta,68,19,V,R,
106,106,22,2,0,36,44,699,['n'],1,right,['1'],6,322,[-0.06366563],98,44,hard,plus,dotcolour,beta,68,19,V,R,
107,107,23,2,0,47,33,1215,['n'],0,left,['2'],5,462,[0.05441199],51,47,medium,plus,dotcolour,beta,68,19,V,R,
108,108,24,2,0,44,36,1417,['c'],1,left,['2'],5,677,[0.125934],98,44,hard,plus,dotcolour,beta,68,19,V,R,
109,109,25,2,0,47,33,1482,['c'],1,left,['2'],5,487,[0.13245014],99,47,medium,plus,dotcolour,beta,68,19,V,R,
110,110,26,2,0,53,27,948,['c'],1,left,['2'],5,750,[0.33263544],100,53,easy,plus,dotcolour,beta,68,19,V,R,
111,111,27,2,0,33,47,683,['n'],1,right,['1'],6,310,[-0.17533331],100,47,medium,plus,dotcolour,beta,68,19,V,R,
112,112,28,2,0,27,53,498,['n'],1,right,['1'],6,295,[-0.07873311],99,53,easy,plus,dotcolour,beta,68,19,V,R,
113,113,29,2,0,33,47,449,['n'],1,right,['1'],6,306,[0.00914538],82,47,medium,plus,dotcolour,beta,68,19,V,R,
114,114,30,2,0,47,33,733,['c'],1,left,['2'],5,530,[0.04427892],92,47,medium,plus,dotcolour,beta,68,19,V,R,
115,115,31,2,0,36,44,616,['n'],1,right,['1'],6,229,[-0.1434271],100,44,hard,plus,dotcolour,beta,68,19,V,R,
116,116,32,2,0,53,27,983,['c'],1,left,['2'],5,446,[0.17735243],100,53,easy,plus,dotcolour,beta,68,19,V,R,
117,117,33,2,0,47,33,415,['n'],0,left,['0'],1,1932,[0.141897],25,47,medium,plus,dotcolour,beta,68,19,V,R,
118,118,34,2,0,33,47,734,['n'],1,right,['1'],6,426,[-0.21517908],100,47,medium,plus,dotcolour,beta,68,19,V,R,
119,119,35,2,0,47,33,1066,['c'],1,left,['2'],5,792,[0.02049847],82,47,medium,plus,dotcolour,beta,68,19,V,R,
120,120,36,2,0,27,53,632,['n'],1,right,['1'],6,215,[-0.11672172],100,53,easy,plus,dotcolour,beta,68,19,V,R,
121,121,37,2,0,36,44,666,['n'],1,right,['1'],6,150,[-0.0889904],100,44,hard,plus,dotcolour,beta,68,19,V,R,
122,122,38,2,0,27,53,514,['n'],1,right,['1'],6,204,[-0.11690878],100,53,easy,plus,dotcolour,beta,68,19,V,R,
123,123,39,2,0,44,36,563,['n'],0,left,['1'],6,343,[-0.04007965],95,44,hard,plus,dotcolour,beta,68,19,V,R,
124,124,40,2,0,36,44,598,['n'],1,right,['1'],6,146,[0.03925958],68,44,hard,plus,dotcolour,beta,68,19,V,R,
125,125,41,2,0,47,33,866,['n'],0,left,['1'],6,178,[0.01849439],83,47,medium,plus,dotcolour,beta,68,19,V,R,
126,0,0,3,1,27,53,716,['n'],1,right,['1'],6,225,[-0.06193339],56,53,easy,minus,dotcolour,beta,68,19,V,R,
127,1,1,3,1,53,27,1017,['c'],1,left,['3'],4,817,[0.15331364],88,53,easy,minus,dotcolour,beta,68,19,V,R,
128,2,2,3,1,36,44,631,['n'],1,right,['2'],5,616,[-0.14804802],89,44,hard,minus,dotcolour,beta,68,19,V,R,
129,3,3,3,1,53,27,899,['c'],1,left,['1'],6,333,[0.14632005],94,53,easy,minus,dotcolour,beta,68,19,V,R,
130,4,4,3,1,36,44,566,['n'],1,right,['1'],6,234,[-0.02684675],26,44,hard,minus,dotcolour,beta,68,19,V,R,
131,5,5,3,1,33,47,981,['n'],1,right,['1'],6,1642,[-0.08530137],60,47,medium,minus,dotcolour,beta,68,19,V,R,
132,6,6,3,1,53,27,1297,['c'],1,left,['2'],5,349,[0.04807423],44,53,easy,minus,dotcolour,beta,68,19,V,R,
133,7,7,3,1,47,33,1532,['c'],1,left,['2'],5,532,[0.20041712],97,47,medium,minus,dotcolour,beta,68,19,V,R,
134,8,8,3,1,47,33,1381,['n'],0,left,['3'],4,576,[0.01505463],16,47,medium,minus,dotcolour,beta,68,19,V,R,
135,9,9,3,1,27,53,716,['n'],1,right,['1'],6,205,[-0.10983424],90,53,easy,minus,dotcolour,beta,68,19,V,R,
136,10,10,3,1,33,47,599,['n'],1,right,['1'],6,311,[-0.11365691],87,47,medium,minus,dotcolour,beta,68,19,V,R,
137,11,11,3,1,33,47,582,['n'],1,right,['1'],6,324,[-0.01293365],21,47,medium,minus,dotcolour,beta,68,19,V,R,
138,12,12,3,1,53,27,1166,['c'],1,left,['2'],5,729,[0.20135295],96,53,easy,minus,dotcolour,beta,68,19,V,R,
139,13,13,3,1,27,53,632,['n'],1,right,['1'],6,268,[-0.0465338],42,53,easy,minus,dotcolour,beta,68,19,V,R,
140,14,14,3,1,47,33,2616,['n'],0,left,['3'],4,842,[0.04861193],11,47,medium,minus,dotcolour,beta,68,19,V,R,
141,15,15,3,1,27,53,598,['n'],1,right,['1'],6,257,[-0.16412993],98,53,easy,minus,dotcolour,beta,68,19,V,R,
142,16,16,3,1,33,47,483,['n'],1,right,['1'],6,277,[-0.04598025],42,47,medium,minus,dotcolour,beta,68,19,V,R,
143,17,17,3,1,27,53,816,['n'],1,right,['1'],6,370,[-0.19573449],98,53,easy,minus,dotcolour,beta,68,19,V,R,
144,18,18,3,1,36,44,915,['n'],1,right,['2'],5,511,[0.04499337],7,44,hard,minus,dotcolour,beta,68,19,V,R,
145,19,19,3,1,47,33,2099,['c'],1,left,['3'],4,520,[0.19929106],97,47,medium,minus,dotcolour,beta,68,19,V,R,
146,20,20,3,1,44,36,1264,['n'],0,left,['3'],4,490,[-0.14079873],90,44,hard,minus,dotcolour,beta,68,19,V,R,
147,21,21,3,1,53,27,932,['c'],1,left,['3'],4,386,[0.09474407],76,53,easy,minus,dotcolour,beta,68,19,V,R,
148,22,22,3,1,36,44,816,['n'],1,right,['2'],5,955,[-0.18004185],91,44,hard,minus,dotcolour,beta,68,19,V,R,
149,23,23,3,1,33,47,932,['n'],1,right,['1'],6,408,[-0.16649645],96,47,medium,minus,dotcolour,beta,68,19,V,R,
150,24,24,3,1,33,47,549,['n'],1,right,['1'],6,363,[-0.11334535],85,47,medium,minus,dotcolour,beta,68,19,V,R,
151,25,25,3,1,33,47,599,['n'],1,right,['1'],6,350,[-0.08269793],70,47,medium,minus,dotcolour,beta,68,19,V,R,
152,26,26,3,1,47,33,1415,['c'],1,left,['3'],4,744,[0.19218619],95,47,medium,minus,dotcolour,beta,68,19,V,R,
153,27,27,3,1,27,53,666,['n'],1,right,['1'],6,521,[-0.11190875],80,53,easy,minus,dotcolour,beta,68,19,V,R,
154,28,28,3,1,44,36,1066,['c'],1,left,['3'],4,666,[0.07205379],59,44,hard,minus,dotcolour,beta,68,19,V,R,
155,29,29,3,1,44,36,2415,['n'],0,left,['3'],4,440,[-0.12762136],88,44,hard,minus,dotcolour,beta,68,19,V,R,
156,30,30,3,1,47,33,998,['c'],1,left,['3'],4,408,[0.13792152],91,47,medium,minus,dotcolour,beta,68,19,V,R,
157,31,31,3,1,27,53,1116,['n'],1,right,['3'],4,796,[-0.28086572],99,53,easy,minus,dotcolour,beta,68,19,V,R,
158,32,32,3,1,44,36,714,['n'],0,left,['3'],4,345,[-0.09415844],77,44,hard,minus,dotcolour,beta,68,19,V,R,
159,33,33,3,1,36,44,848,['n'],1,right,['2'],5,690,[-0.08614642],66,44,hard,minus,dotcolour,beta,68,19,V,R,
160,34,34,3,1,53,27,1030,['c'],1,left,['3'],4,430,[0.15582956],94,53,easy,minus,dotcolour,beta,68,19,V,R,
161,35,35,3,1,36,44,1049,['n'],1,right,['3'],4,484,[0.0063033],17,44,hard,minus,dotcolour,beta,68,19,V,R,
162,36,36,3,1,44,36,1382,['c'],1,left,['3'],4,449,[0.06511031],56,44,hard,minus,dotcolour,beta,68,19,V,R,
163,37,37,3,1,36,44,682,['n'],1,right,['1'],6,245,[-0.01524295],19,44,hard,minus,dotcolour,beta,68,19,V,R,
164,38,38,3,1,44,36,2082,['c'],1,left,['3'],4,602,[-0.00451284],20,44,hard,minus,dotcolour,beta,68,19,V,R,
165,39,39,3,1,53,27,1267,['c'],1,left,['1'],6,407,[0.04195136],41,53,easy,minus,dotcolour,beta,68,19,V,R,
166,40,40,3,1,47,33,1032,['n'],0,left,['3'],4,1543,[0.09656491],10,47,medium,minus,dotcolour,beta,68,19,V,R,
167,41,41,3,1,44,36,2249,['n'],0,left,['3'],4,864,[-0.13647068],83,44,hard,minus,dotcolour,beta,68,19,V,R,
168,42,0,4,1,47,33,1983,['c'],1,left,['3'],4,751,[0.06304766],54,47,medium,minus,dotcolour,beta,68,19,V,R,
169,43,1,4,1,53,27,1065,['c'],1,left,['2'],5,590,[0.10626968],77,53,easy,minus,dotcolour,beta,68,19,V,R,
170,44,2,4,1,44,36,1082,['n'],0,left,['2'],5,597,[-0.07779124],63,44,hard,minus,dotcolour,beta,68,19,V,R,
171,45,3,4,1,27,53,815,['n'],1,right,['1'],6,237,[-0.15792281],98,53,easy,minus,dotcolour,beta,68,19,V,R,
172,46,4,4,1,53,27,1282,['c'],1,left,['2'],5,842,[0.08075249],62,53,easy,minus,dotcolour,beta,68,19,V,R,
173,47,5,4,1,47,33,1282,['n'],0,left,['8'],3,958,[-0.03591683],41,47,medium,minus,dotcolour,beta,68,19,V,R,
174,48,6,4,1,33,47,667,['n'],1,right,['3'],4,662,[-0.06539871],55,47,medium,minus,dotcolour,beta,68,19,V,R,
175,49,7,4,1,53,27,982,['c'],1,left,['1'],6,957,[0.07677491],60,53,easy,minus,dotcolour,beta,68,19,V,R,
176,50,8,4,1,36,44,633,['n'],1,right,['1'],6,246,[-0.14722192],97,44,hard,minus,dotcolour,beta,68,19,V,R,
177,51,9,4,1,33,47,749,['n'],1,right,['1'],6,240,[-0.02079546],22,47,medium,minus,dotcolour,beta,68,19,V,R,
178,52,10,4,1,36,44,1932,['n'],1,right,['3'],4,546,[0.00571578],18,44,hard,minus,dotcolour,beta,68,19,V,R,
179,53,11,4,1,53,27,997,['c'],1,left,['2'],5,1037,[0.21632133],94,53,easy,minus,dotcolour,beta,68,19,V,R,
180,54,12,4,1,27,53,767,['n'],1,right,['1'],6,494,[-0.19692695],97,53,easy,minus,dotcolour,beta,68,19,V,R,
181,55,13,4,1,44,36,2132,['c'],1,left,['3'],4,606,[0.09107074],69,44,hard,minus,dotcolour,beta,68,19,V,R,
182,56,14,4,1,33,47,482,['n'],1,right,['1'],6,291,[-0.0920766],77,47,medium,minus,dotcolour,beta,68,19,V,R,
183,57,15,4,1,33,47,566,['n'],1,right,['1'],6,266,[-0.15836897],97,47,medium,minus,dotcolour,beta,68,19,V,R,
184,58,16,4,1,27,53,450,['n'],1,right,['1'],6,334,[-0.10726868],83,53,easy,minus,dotcolour,beta,68,19,V,R,
185,59,17,4,1,33,47,433,['n'],1,right,['1'],6,361,[-0.13560161],92,47,medium,minus,dotcolour,beta,68,19,V,R,
186,60,18,4,1,44,36,1066,['c'],1,left,['3'],4,569,[0.08971454],69,44,hard,minus,dotcolour,beta,68,19,V,R,
187,61,19,4,1,27,53,582,['n'],1,right,['1'],6,252,[-0.10347055],85,53,easy,minus,dotcolour,beta,68,19,V,R,
188,62,20,4,1,36,44,515,['n'],1,right,['1'],6,335,[-0.03438992],34,44,hard,minus,dotcolour,beta,68,19,V,R,
189,63,21,4,1,53,27,882,['c'],1,left,['2'],5,888,[0.13990807],83,53,easy,minus,dotcolour,beta,68,19,V,R,
190,64,22,4,1,44,36,1415,['c'],1,left,['2'],5,452,[0.01612028],26,44,hard,minus,dotcolour,beta,68,19,V,R,
191,65,23,4,1,44,36,598,['n'],0,left,['8'],3,995,[-0.04287411],44,44,hard,minus,dotcolour,beta,68,19,V,R,
192,66,24,4,1,47,33,1015,['c'],1,left,['3'],4,587,[0.16918656],94,47,medium,minus,dotcolour,beta,68,19,V,R,
193,67,25,4,1,27,53,915,['n'],1,right,['1'],6,192,[-0.09762864],85,53,easy,minus,dotcolour,beta,68,19,V,R,
194,68,26,4,1,27,53,482,['n'],1,right,['1'],6,270,[-0.03928203],36,53,easy,minus,dotcolour,beta,68,19,V,R,
195,69,27,4,1,27,53,431,['n'],1,right,['1'],6,323,[-0.15856901],96,53,easy,minus,dotcolour,beta,68,19,V,R,
196,70,28,4,1,36,44,565,['n'],1,right,['1'],6,480,[-0.10734913],79,44,hard,minus,dotcolour,beta,68,19,V,R,
197,71,29,4,1,36,44,465,['n'],1,right,['1'],6,491,[-0.11277472],81,44,hard,minus,dotcolour,beta,68,19,V,R,
198,72,30,4,1,47,33,1532,['c'],1,left,['3'],4,812,[0.03646123],41,47,medium,minus,dotcolour,beta,68,19,V,R,
199,73,31,4,1,44,36,1933,['c'],1,left,['3'],4,719,[0.25320458],99,44,hard,minus,dotcolour,beta,68,19,V,R,
200,74,32,4,1,44,36,1883,['c'],1,left,['3'],4,503,[0.11490564],82,44,hard,minus,dotcolour,beta,68,19,V,R,
201,75,33,4,1,53,27,1932,['c'],1,left,['3'],4,607,[0.25486812],99,53,easy,minus,dotcolour,beta,68,19,V,R,
202,76,34,4,1,47,33,1250,['c'],1,left,['3'],4,686,[0.1997225],96,47,medium,minus,dotcolour,beta,68,19,V,R,
203,77,35,4,1,36,44,749,['n'],1,right,['3'],4,421,[-0.10913839],82,44,hard,minus,dotcolour,beta,68,19,V,R,
204,78,36,4,1,36,44,932,['n'],1,right,['1'],6,288,[-0.09075928],77,44,hard,minus,dotcolour,beta,68,19,V,R,
205,79,37,4,1,33,47,649,['n'],1,right,['1'],6,332,[-0.04628409],43,47,medium,minus,dotcolour,beta,68,19,V,R,
206,80,38,4,1,47,33,1866,['c'],1,left,['2'],5,853,[0.0651679],55,47,medium,minus,dotcolour,beta,68,19,V,R,
207,81,39,4,1,53,27,1784,['c'],1,left,['2'],5,597,[0.23781134],99,53,easy,minus,dotcolour,beta,68,19,V,R,
208,82,40,4,1,47,33,1282,['c'],1,left,['3'],4,731,[0.14724574],87,47,medium,minus,dotcolour,beta,68,19,V,R,
209,83,41,4,1,33,47,1200,['c'],0,right,['3'],4,431,[0.09138633],73,47,medium,minus,dotcolour,beta,68,19,V,R,
210,84,0,5,1,47,33,999,['c'],1,left,['2'],5,553,[0.15781993],92,47,medium,minus,dotcolour,beta,68,19,V,R,
211,85,1,5,1,47,33,1683,['n'],0,left,['8'],3,1081,[0.12216547],4,47,medium,minus,dotcolour,beta,68,19,V,R,
212,86,2,5,1,36,44,1149,['n'],1,right,['3'],4,1034,[-0.01281029],32,44,hard,minus,dotcolour,beta,68,19,V,R,
213,87,3,5,1,44,36,1382,['c'],1,left,['3'],4,937,[0.15852176],87,44,hard,minus,dotcolour,beta,68,19,V,R,
214,88,4,5,1,33,47,732,['n'],1,right,['2'],5,415,[-0.1893226],98,47,medium,minus,dotcolour,beta,68,19,V,R,
215,89,5,5,1,47,33,1232,['n'],0,left,['2'],5,311,[-0.00331419],16,47,medium,minus,dotcolour,beta,68,19,V,R,
216,90,6,5,1,27,53,1217,['n'],1,right,['2'],5,403,[-0.08520083],70,53,easy,minus,dotcolour,beta,68,19,V,R,
217,91,7,5,1,33,47,666,['n'],1,right,['2'],5,337,[-0.15012082],95,47,medium,minus,dotcolour,beta,68,19,V,R,
218,92,8,5,1,33,47,549,['n'],1,right,['2'],5,487,[-0.23569011],99,47,medium,minus,dotcolour,beta,68,19,V,R,
219,93,9,5,1,27,53,667,['n'],1,right,['1'],6,418,[-0.1315593],89,53,easy,minus,dotcolour,beta,68,19,V,R,
220,94,10,5,1,36,44,317,['n'],1,right,['1'],6,318,[-0.05502692],50,44,hard,minus,dotcolour,beta,68,19,V,R,
221,95,11,5,1,36,44,1217,['n'],1,right,['2'],5,803,[-0.0737567],59,44,hard,minus,dotcolour,beta,68,19,V,R,
222,96,12,5,1,47,33,2099,['c'],1,left,['3'],4,983,[0.06882188],56,47,medium,minus,dotcolour,beta,68,19,V,R,
223,97,13,5,1,33,47,566,['n'],1,right,['2'],5,738,[-0.10534736],74,47,medium,minus,dotcolour,beta,68,19,V,R,
224,98,14,5,1,53,27,1015,['c'],1,left,['3'],4,877,[0.41937079],100,53,easy,minus,dotcolour,beta,68,19,V,R,
225,99,15,5,1,36,44,1000,['n'],1,right,['3'],4,403,[-0.20842372],99,44,hard,minus,dotcolour,beta,68,19,V,R,
226,100,16,5,1,44,36,1133,['c'],1,left,['3'],4,783,[0.09313994],68,44,hard,minus,dotcolour,beta,68,19,V,R,
227,101,17,5,1,53,27,800,['c'],1,left,['3'],4,408,[0.15554567],94,53,easy,minus,dotcolour,beta,68,19,V,R,
228,102,18,5,1,27,53,517,['n'],1,right,['1'],6,428,[-0.16959714],96,53,easy,minus,dotcolour,beta,68,19,V,R,
229,103,19,5,1,27,53,532,['n'],1,right,['1'],6,263,[-0.10227262],84,53,easy,minus,dotcolour,beta,68,19,V,R,
230,104,20,5,1,33,47,482,['n'],1,right,['1'],6,355,[-0.06633093],58,47,medium,minus,dotcolour,beta,68,19,V,R,
231,105,21,5,1,44,36,780,['n'],0,left,['2'],5,590,[-0.07144393],59,44,hard,minus,dotcolour,beta,68,19,V,R,
232,106,22,5,1,27,53,748,['n'],1,right,['1'],6,353,[-0.12164908],88,53,easy,minus,dotcolour,beta,68,19,V,R,
233,107,23,5,1,27,53,498,['n'],1,right,['1'],6,504,[-0.1186871],83,53,easy,minus,dotcolour,beta,68,19,V,R,
234,108,24,5,1,44,36,1148,['c'],1,left,['2'],5,950,[0.05953868],52,44,hard,minus,dotcolour,beta,68,19,V,R,
235,109,25,5,1,36,44,666,['n'],1,right,['1'],6,390,[-0.18439274],98,44,hard,minus,dotcolour,beta,68,19,V,R,
236,110,26,5,1,33,47,416,['n'],1,right,['1'],6,271,[-0.11826466],90,47,medium,minus,dotcolour,beta,68,19,V,R,
237,111,27,5,1,27,53,432,['n'],1,right,['1'],6,331,[-0.05748617],52,53,easy,minus,dotcolour,beta,68,19,V,R,
238,112,28,5,1,53,27,1232,['c'],1,left,['2'],5,662,[0.18653279],95,53,easy,minus,dotcolour,beta,68,19,V,R,
239,113,29,5,1,47,33,932,['n'],0,left,['3'],4,1128,[0.08156003],9,47,medium,minus,dotcolour,beta,68,19,V,R,
240,114,30,5,1,36,44,566,['n'],1,right,['2'],5,429,[-0.05562122],50,44,hard,minus,dotcolour,beta,68,19,V,R,
241,115,31,5,1,44,36,1066,['c'],1,left,['3'],4,651,[-0.14028255],1,44,hard,minus,dotcolour,beta,68,19,V,R,
242,116,32,5,1,47,33,1849,['n'],0,left,['3'],4,608,[0.01213136],17,47,medium,minus,dotcolour,beta,68,19,V,R,
243,117,33,5,1,53,27,1300,['c'],1,left,['3'],4,532,[0.06740292],57,53,easy,minus,dotcolour,beta,68,19,V,R,
244,118,34,5,1,53,27,966,['c'],1,left,['2'],5,570,[0.17721505],95,53,easy,minus,dotcolour,beta,68,19,V,R,
245,119,35,5,1,33,47,633,['n'],1,right,['1'],6,242,[-0.12494987],93,47,medium,minus,dotcolour,beta,68,19,V,R,
246,120,36,5,1,36,44,482,['n'],1,right,['1'],6,318,[-0.08094409],69,44,hard,minus,dotcolour,beta,68,19,V,R,
247,121,37,5,1,53,27,1082,['c'],1,left,['3'],4,671,[0.13886809],86,53,easy,minus,dotcolour,beta,68,19,V,R,
248,122,38,5,1,53,27,814,['n'],0,left,['2'],5,557,[0.07064926],5,53,easy,minus,dotcolour,beta,68,19,V,R,
249,123,39,5,1,44,36,1530,['n'],0,left,['8'],3,1242,[-0.09985575],67,44,hard,minus,dotcolour,beta,68,19,V,R,
250,124,40,5,1,47,33,965,['c'],1,left,['3'],4,610,[-0.06496649],6,47,medium,minus,dotcolour,beta,68,19,V,R,
251,125,41,5,1,44,36,767,['c'],1,left,['3'],4,292,[0.06324056],56,44,hard,minus,dotcolour,beta,68,19,V,R,
252,0,0,6,2,47,33,1234,['n'],0,left,['3'],4,641,[0.08226081],35,47,medium,plus,dotcolour,beta,68,19,V,R,
253,1,1,6,2,53,27,1048,['c'],1,left,['3'],4,399,[0.08690377],98,53,easy,plus,dotcolour,beta,68,19,V,R,
254,2,2,6,2,27,53,630,['n'],1,right,['1'],6,359,[-0.18587021],100,53,easy,plus,dotcolour,beta,68,19,V,R,
255,3,3,6,2,53,27,881,['c'],1,left,['3'],4,934,[0.27632533],100,53,easy,plus,dotcolour,beta,68,19,V,R,
256,4,4,6,2,47,33,1414,['c'],1,left,['3'],4,633,[0.25499551],100,47,medium,plus,dotcolour,beta,68,19,V,R,
257,5,5,6,2,36,44,763,['n'],1,right,['3'],4,450,[0.02697508],68,44,hard,plus,dotcolour,beta,68,19,V,R,
258,6,6,6,2,47,33,799,['c'],1,left,['2'],5,937,[0.19248501],99,47,medium,plus,dotcolour,beta,68,19,V,R,
259,7,7,6,2,27,53,748,['n'],1,right,['1'],6,350,[-0.16538278],100,53,easy,plus,dotcolour,beta,68,19,V,R,
260,8,8,6,2,47,33,1515,['c'],1,left,['3'],4,572,[0.07504762],96,47,medium,plus,dotcolour,beta,68,19,V,R,
261,9,9,6,2,53,27,998,['c'],1,left,['3'],4,430,[0.11184761],99,53,easy,plus,dotcolour,beta,68,19,V,R,
262,10,10,6,2,44,36,682,['c'],1,left,['3'],4,355,[0.01209414],89,44,hard,plus,dotcolour,beta,68,19,V,R,
263,11,11,6,2,27,53,598,['n'],1,right,['1'],6,286,[-0.05593722],98,53,easy,plus,dotcolour,beta,68,19,V,R,
264,12,12,6,2,36,44,817,['n'],1,right,['1'],6,274,[-0.08896311],99,44,hard,plus,dotcolour,beta,68,19,V,R,
265,13,13,6,2,47,33,1299,['n'],0,left,['3'],4,429,[-0.08528442],98,47,medium,plus,dotcolour,beta,68,19,V,R,
266,14,14,6,2,27,53,666,['n'],1,right,['1'],6,242,[-0.07302544],99,53,easy,plus,dotcolour,beta,68,19,V,R,
267,15,15,6,2,33,47,466,['n'],1,right,['1'],6,350,[-0.15075104],100,47,medium,plus,dotcolour,beta,68,19,V,R,
268,16,16,6,2,53,27,898,['c'],1,left,['1'],6,438,[0.16697399],100,53,easy,plus,dotcolour,beta,68,19,V,R,
269,17,17,6,2,47,33,915,['n'],0,left,['1'],6,385,[-0.08623613],98,47,medium,plus,dotcolour,beta,68,19,V,R,
270,18,18,6,2,36,44,547,['n'],1,right,['1'],6,429,[-0.10325416],99,44,hard,plus,dotcolour,beta,68,19,V,R,
271,19,19,6,2,27,53,414,['n'],1,right,['1'],6,324,[-0.15369305],100,53,easy,plus,dotcolour,beta,68,19,V,R,
272,20,20,6,2,36,44,449,['n'],1,right,['1'],6,318,[-0.09458383],99,44,hard,plus,dotcolour,beta,68,19,V,R,
273,21,21,6,2,53,27,716,['c'],1,left,['2'],5,638,[0.09652174],97,53,easy,plus,dotcolour,beta,68,19,V,R,
274,22,22,6,2,33,47,680,['n'],1,right,['1'],6,338,[-0.21552512],100,47,medium,plus,dotcolour,beta,68,19,V,R,
275,23,23,6,2,44,36,364,['n'],0,left,['1'],6,359,[-0.01612811],90,44,hard,plus,dotcolour,beta,68,19,V,R,
276,24,24,6,2,33,47,516,['n'],1,right,['1'],6,533,[-0.20442782],100,47,medium,plus,dotcolour,beta,68,19,V,R,
277,25,25,6,2,44,36,450,['n'],0,left,['2'],5,679,[0.02136229],68,44,hard,plus,dotcolour,beta,68,19,V,R,
278,26,26,6,2,33,47,565,['n'],1,right,['1'],6,318,[-0.14994676],100,47,medium,plus,dotcolour,beta,68,19,V,R,
279,27,27,6,2,44,36,382,['n'],0,left,['2'],5,619,[-0.06704094],94,44,hard,plus,dotcolour,beta,68,19,V,R,
280,28,28,6,2,44,36,365,['n'],0,left,['2'],5,981,[0.03354624],60,44,hard,plus,dotcolour,beta,68,19,V,R,
281,29,29,6,2,27,53,516,['n'],1,right,['1'],6,242,[-0.09958292],100,53,easy,plus,dotcolour,beta,68,19,V,R,
282,30,30,6,2,33,47,448,['n'],1,right,['1'],6,271,[-0.11074218],100,47,medium,plus,dotcolour,beta,68,19,V,R,
283,31,31,6,2,53,27,932,['c'],1,left,['1'],6,264,[0.0848743],99,53,easy,plus,dotcolour,beta,68,19,V,R,
284,32,32,6,2,33,47,482,['n'],1,right,['1'],6,284,[-0.11867748],100,47,medium,plus,dotcolour,beta,68,19,V,R,
285,33,33,6,2,44,36,681,['n'],0,left,['2'],5,750,[0.06506692],45,44,hard,plus,dotcolour,beta,68,19,V,R,
286,34,34,6,2,33,47,548,['n'],1,right,['1'],6,171,[-0.11246867],100,47,medium,plus,dotcolour,beta,68,19,V,R,
287,35,35,6,2,53,27,781,['c'],1,left,['1'],6,286,[0.16849236],100,53,easy,plus,dotcolour,beta,68,19,V,R,
288,36,36,6,2,36,44,548,['n'],1,right,['1'],6,205,[-0.06219339],99,44,hard,plus,dotcolour,beta,68,19,V,R,
289,37,37,6,2,27,53,498,['n'],1,right,['1'],6,235,[-0.06703016],99,53,easy,plus,dotcolour,beta,68,19,V,R,
290,38,38,6,2,44,36,1249,['n'],0,left,['2'],5,233,[0.05593699],50,44,hard,plus,dotcolour,beta,68,19,V,R,
291,39,39,6,2,47,33,1330,['n'],0,left,['3'],4,2379,[0.04707114],52,47,medium,plus,dotcolour,beta,68,19,V,R,
292,40,40,6,2,36,44,532,['n'],1,right,['3'],4,832,[-0.17791127],99,44,hard,plus,dotcolour,beta,68,19,V,R,
293,41,41,6,2,36,44,532,['n'],1,right,['2'],5,594,[-0.03815192],90,44,hard,plus,dotcolour,beta,68,19,V,R,
294,42,0,7,2,33,47,566,['n'],1,right,['2'],5,439,[-0.10243424],99,47,medium,plus,dotcolour,beta,68,19,V,R,
295,43,1,7,2,33,47,415,['n'],1,right,['2'],5,302,[-0.14537233],100,47,medium,plus,dotcolour,beta,68,19,V,R,
296,44,2,7,2,27,53,331,['n'],1,right,['2'],5,270,[-0.23953649],100,53,easy,plus,dotcolour,beta,68,19,V,R,
297,45,3,7,2,36,44,282,['n'],1,right,['2'],5,264,[-0.13335071],100,44,hard,plus,dotcolour,beta,68,19,V,R,
298,46,4,7,2,53,27,265,['n'],0,left,['0'],1,1317,[0.15909764],16,53,easy,plus,dotcolour,beta,68,19,V,R,
299,47,5,7,2,33,47,565,['n'],1,right,['2'],5,458,[-0.16137474],100,47,medium,plus,dotcolour,beta,68,19,V,R,
300,48,6,7,2,44,36,764,['n'],0,left,['2'],5,282,[-0.03082367],95,44,hard,plus,dotcolour,beta,68,19,V,R,
301,49,7,7,2,47,33,1215,['c'],1,left,['3'],4,647,[0.10241234],97,47,medium,plus,dotcolour,beta,68,19,V,R,
302,50,8,7,2,53,27,1130,['c'],1,left,['3'],4,665,[0.10052447],97,53,easy,plus,dotcolour,beta,68,19,V,R,
303,51,9,7,2,33,47,649,['n'],1,right,['3'],4,1501,[-0.20236182],98,47,medium,plus,dotcolour,beta,68,19,V,R,
304,52,10,7,2,53,27,1016,['c'],1,left,['3'],4,841,[0.34136705],100,53,easy,plus,dotcolour,beta,68,19,V,R,
305,53,11,7,2,27,53,598,['n'],1,right,['1'],6,264,[-0.1106357],100,53,easy,plus,dotcolour,beta,68,19,V,R,
306,54,12,7,2,36,44,449,['n'],1,right,['1'],6,261,[-0.12822465],100,44,hard,plus,dotcolour,beta,68,19,V,R,
307,55,13,7,2,47,33,880,['n'],0,left,['3'],4,816,[-0.03790864],87,47,medium,plus,dotcolour,beta,68,19,V,R,
308,56,14,7,2,44,36,465,['n'],0,left,['2'],5,470,[-0.06237516],96,44,hard,plus,dotcolour,beta,68,19,V,R,
309,57,15,7,2,47,33,599,['n'],0,left,['3'],4,516,[-0.07414067],96,47,medium,plus,dotcolour,beta,68,19,V,R,
310,58,16,7,2,53,27,898,['c'],1,left,['3'],4,381,[0.08445137],98,53,easy,plus,dotcolour,beta,68,19,V,R,
311,59,17,7,2,36,44,1015,['n'],1,right,['3'],4,382,[-0.05987647],97,44,hard,plus,dotcolour,beta,68,19,V,R,
312,60,18,7,2,27,53,632,['n'],1,right,['1'],6,215,[-0.09939057],100,53,easy,plus,dotcolour,beta,68,19,V,R,
313,61,19,7,2,36,44,449,['n'],1,right,['1'],6,190,[-0.10068934],100,44,hard,plus,dotcolour,beta,68,19,V,R,
314,62,20,7,2,44,36,750,['n'],0,left,['2'],5,474,[0.03630204],62,44,hard,plus,dotcolour,beta,68,19,V,R,
315,63,21,7,2,44,36,949,['n'],0,left,['2'],5,466,[-0.06359126],96,44,hard,plus,dotcolour,beta,68,19,V,R,
316,64,22,7,2,27,53,633,['n'],1,right,['1'],6,230,[-0.07254176],99,53,easy,plus,dotcolour,beta,68,19,V,R,
317,65,23,7,2,33,47,482,['n'],1,right,['1'],6,243,[-0.04258885],97,47,medium,plus,dotcolour,beta,68,19,V,R,
318,66,24,7,2,27,53,432,['n'],1,right,['1'],6,225,[-0.1474183],100,53,easy,plus,dotcolour,beta,68,19,V,R,
319,67,25,7,2,47,33,399,['n'],0,left,['2'],5,929,[0.12450508],22,47,medium,plus,dotcolour,beta,68,19,V,R,
320,68,26,7,2,53,27,415,['n'],0,left,['8'],3,1236,[0.04053586],56,53,easy,plus,dotcolour,beta,68,19,V,R,
321,69,27,7,2,44,36,530,['n'],0,left,['8'],3,870,[0.00112951],74,44,hard,plus,dotcolour,beta,68,19,V,R,
322,70,28,7,2,33,47,650,['n'],1,right,['1'],6,202,[-0.00593279],92,47,medium,plus,dotcolour,beta,68,19,V,R,
323,71,29,7,2,53,27,913,['n'],0,left,['2'],5,495,[0.17848586],4,53,easy,plus,dotcolour,beta,68,19,V,R,
324,72,30,7,2,44,36,966,['n'],0,left,['3'],4,1117,[0.06032408],48,44,hard,plus,dotcolour,beta,68,19,V,R,
325,73,31,7,2,47,33,599,['n'],0,left,['2'],5,761,[0.12056772],21,47,medium,plus,dotcolour,beta,68,19,V,R,
326,74,32,7,2,36,44,566,['n'],1,right,['1'],6,349,[-0.11314122],99,44,hard,plus,dotcolour,beta,68,19,V,R,
327,75,33,7,2,27,53,598,['n'],1,right,['1'],6,233,[-0.13020877],100,53,easy,plus,dotcolour,beta,68,19,V,R,
328,76,34,7,2,33,47,398,['n'],1,right,['1'],6,385,[-0.04782554],95,47,medium,plus,dotcolour,beta,68,19,V,R,
329,77,35,7,2,36,44,497,['n'],1,right,['1'],6,175,[-0.03939805],98,44,hard,plus,dotcolour,beta,68,19,V,R,
330,78,36,7,2,44,36,815,['n'],0,left,['2'],5,336,[0.00214808],84,44,hard,plus,dotcolour,beta,68,19,V,R,
331,79,37,7,2,53,27,1397,['c'],1,left,['2'],5,1155,[0.21350132],99,53,easy,plus,dotcolour,beta,68,19,V,R,
332,80,38,7,2,47,33,983,['c'],1,left,['3'],4,431,[0.10601615],99,47,medium,plus,dotcolour,beta,68,19,V,R,
333,81,39,7,2,27,53,682,['n'],1,right,['1'],6,187,[-0.1157485],100,53,easy,plus,dotcolour,beta,68,19,V,R,
334,82,40,7,2,36,44,699,['n'],1,right,['3'],4,753,[-0.08124344],94,44,hard,plus,dotcolour,beta,68,19,V,R,
335,83,41,7,2,47,33,450,['n'],0,left,['9'],2,1130,[0.03931857],57,47,medium,plus,dotcolour,beta,68,19,V,R,
336,84,0,8,2,47,33,1200,['n'],0,left,['3'],4,590,[0.0387942],60,47,medium,plus,dotcolour,beta,68,19,V,R,
337,85,1,8,2,33,47,466,['n'],1,right,['2'],5,500,[-0.11328249],99,47,medium,plus,dotcolour,beta,68,19,V,R,
338,86,2,8,2,33,47,399,['n'],1,right,['2'],5,346,[-0.09051062],99,47,medium,plus,dotcolour,beta,68,19,V,R,
339,87,3,8,2,53,27,1064,['c'],1,left,['2'],5,491,[0.13475601],99,53,easy,plus,dotcolour,beta,68,19,V,R,
340,88,4,8,2,47,33,865,['n'],0,left,['0'],1,1869,[-0.0204837],73,47,medium,plus,dotcolour,beta,68,19,V,R,
341,89,5,8,2,27,53,998,['n'],1,right,['1'],6,819,[-0.28386048],100,53,easy,plus,dotcolour,beta,68,19,V,R,
342,90,6,8,2,53,27,847,['c'],1,left,['3'],4,697,[0.05819721],92,53,easy,plus,dotcolour,beta,68,19,V,R,
343,91,7,8,2,33,47,615,['n'],1,right,['2'],5,414,[-0.17124999],100,47,medium,plus,dotcolour,beta,68,19,V,R,
344,92,8,8,2,53,27,1065,['c'],1,left,['2'],5,484,[0.24592991],100,53,easy,plus,dotcolour,beta,68,19,V,R,
345,93,9,8,2,36,44,833,['n'],1,right,['2'],5,273,[-0.06032187],98,44,hard,plus,dotcolour,beta,68,19,V,R,
346,94,10,8,2,36,44,632,['n'],1,right,['2'],5,349,[-0.19490775],100,44,hard,plus,dotcolour,beta,68,19,V,R,
347,95,11,8,2,33,47,448,['n'],1,right,['2'],5,239,[-0.08203505],99,47,medium,plus,dotcolour,beta,68,19,V,R,
348,96,12,8,2,33,47,515,['n'],1,right,['2'],5,305,[-0.19372514],100,47,medium,plus,dotcolour,beta,68,19,V,R,
349,97,13,8,2,27,53,450,['n'],1,right,['2'],5,324,[-0.12145726],100,53,easy,plus,dotcolour,beta,68,19,V,R,
350,98,14,8,2,33,47,298,['n'],1,right,['2'],5,324,[-0.05830351],97,47,medium,plus,dotcolour,beta,68,19,V,R,
351,99,15,8,2,44,36,431,['n'],0,left,['3'],4,830,[-0.14369916],98,44,hard,plus,dotcolour,beta,68,19,V,R,
352,100,16,8,2,27,53,332,['n'],1,right,['3'],4,552,[-0.09480991],97,53,easy,plus,dotcolour,beta,68,19,V,R,
353,101,17,8,2,27,53,599,['n'],1,right,['2'],5,539,[-0.11809234],99,53,easy,plus,dotcolour,beta,68,19,V,R,
354,102,18,8,2,47,33,381,['n'],0,left,['2'],5,359,[-0.08385362],99,47,medium,plus,dotcolour,beta,68,19,V,R,
355,103,19,8,2,36,44,331,['n'],1,right,['2'],5,325,[-0.11317985],100,44,hard,plus,dotcolour,beta,68,19,V,R,
356,104,20,8,2,36,44,297,['n'],1,right,['2'],5,308,[-0.13458204],100,44,hard,plus,dotcolour,beta,68,19,V,R,
357,105,21,8,2,27,53,364,['n'],1,right,['2'],5,618,[-0.12481779],98,53,easy,plus,dotcolour,beta,68,19,V,R,
358,106,22,8,2,44,36,1233,['c'],1,left,['3'],4,450,[0.0493571],94,44,hard,plus,dotcolour,beta,68,19,V,R,
359,107,23,8,2,53,27,830,['c'],1,left,['3'],4,304,[0.01588618],91,53,easy,plus,dotcolour,beta,68,19,V,R,
360,108,24,8,2,44,36,1398,['c'],1,left,['3'],4,413,[0.04265434],94,44,hard,plus,dotcolour,beta,68,19,V,R,
361,109,25,8,2,44,36,749,['c'],1,left,['3'],4,264,[0.07503317],99,44,hard,plus,dotcolour,beta,68,19,V,R,
362,110,26,8,2,44,36,799,['n'],0,left,['3'],4,342,[-0.01080398],89,44,hard,plus,dotcolour,beta,68,19,V,R,
363,111,27,8,2,44,36,481,['n'],0,left,['8'],3,910,[-0.14593424],98,44,hard,plus,dotcolour,beta,68,19,V,R,
364,112,28,8,2,27,53,881,['c'],0,right,['0'],1,880,[0.12043277],97,53,easy,plus,dotcolour,beta,68,19,V,R,
365,113,29,8,2,47,33,949,['c'],1,left,['3'],4,599,[0.00659469],81,47,medium,plus,dotcolour,beta,68,19,V,R,
366,114,30,8,2,53,27,1482,['c'],1,left,['3'],4,573,[0.12926996],99,53,easy,plus,dotcolour,beta,68,19,V,R,
367,115,31,8,2,53,27,565,['c'],1,left,['2'],5,520,[0.0900352],97,53,easy,plus,dotcolour,beta,68,19,V,R,
368,116,32,8,2,27,53,567,['n'],1,right,['1'],6,182,[-0.07848191],100,53,easy,plus,dotcolour,beta,68,19,V,R,
369,117,33,8,2,47,33,1082,['c'],1,left,['3'],4,373,[0.07082452],98,47,medium,plus,dotcolour,beta,68,19,V,R,
370,118,34,8,2,47,33,1250,['c'],1,left,['3'],4,269,[0.07534974],99,47,medium,plus,dotcolour,beta,68,19,V,R,
371,119,35,8,2,36,44,1165,['c'],0,right,['3'],4,301,[0.0254437],93,44,hard,plus,dotcolour,beta,68,19,V,R,
372,120,36,8,2,47,33,1431,['c'],1,left,['3'],4,305,[0.22651025],100,47,medium,plus,dotcolour,beta,68,19,V,R,
373,121,37,8,2,33,47,632,['n'],1,right,['1'],6,213,[-0.1523171],100,47,medium,plus,dotcolour,beta,68,19,V,R,
374,122,38,8,2,36,44,1633,['n'],1,right,['3'],4,556,[-0.17317338],100,44,hard,plus,dotcolour,beta,68,19,V,R,
375,123,39,8,2,44,36,1348,['c'],1,left,['3'],4,673,[0.06361404],93,44,hard,plus,dotcolour,beta,68,19,V,R,
376,124,40,8,2,53,27,882,['c'],1,left,['2'],5,531,[0.14586981],99,53,easy,plus,dotcolour,beta,68,19,V,R,
377,125,41,8,2,36,44,714,['n'],1,right,['2'],5,371,[-0.09362319],99,44,hard,plus,dotcolour,beta,68,19,V,R,
378,0,0,9,3,47,33,1099,['n'],0,left,['2'],5,400,[-0.0065074],20,47,medium,minus,dotcolour,beta,68,19,V,R,
379,1,1,9,3,53,27,930,['c'],1,left,['2'],5,460,[-0.01746325],13,53,easy,minus,dotcolour,beta,68,19,V,R,
380,2,2,9,3,36,44,733,['n'],1,right,['1'],6,310,[-0.09712906],79,44,hard,minus,dotcolour,beta,68,19,V,R,
381,3,3,9,3,47,33,1032,['c'],1,left,['1'],6,689,[0.04621424],45,47,medium,minus,dotcolour,beta,68,19,V,R,
382,4,4,9,3,44,36,983,['c'],1,left,['2'],5,575,[0.08678528],68,44,hard,minus,dotcolour,beta,68,19,V,R,
383,5,5,9,3,47,33,846,['c'],1,left,['2'],5,319,[-0.06951618],2,47,medium,minus,dotcolour,beta,68,19,V,R,
384,6,6,9,3,33,47,665,['n'],1,right,['1'],6,216,[-0.14701218],97,47,medium,minus,dotcolour,beta,68,19,V,R,
385,7,7,9,3,36,44,515,['n'],1,right,['1'],6,197,[-0.08183221],74,44,hard,minus,dotcolour,beta,68,19,V,R,
386,8,8,9,3,44,36,1048,['n'],0,left,['1'],6,268,[-0.11333891],88,44,hard,minus,dotcolour,beta,68,19,V,R,
387,9,9,9,3,53,27,1214,['c'],1,left,['3'],4,658,[0.16970991],93,53,easy,minus,dotcolour,beta,68,19,V,R,
388,10,10,9,3,36,44,698,['n'],1,right,['1'],6,196,[-0.03604063],31,44,hard,minus,dotcolour,beta,68,19,V,R,
389,11,11,9,3,47,33,781,['n'],0,left,['1'],6,503,[-0.05609587],50,47,medium,minus,dotcolour,beta,68,19,V,R,
390,12,12,9,3,27,53,1199,['n'],1,right,['1'],6,291,[-0.03337623],32,53,easy,minus,dotcolour,beta,68,19,V,R,
391,13,13,9,3,44,36,799,['c'],1,left,['3'],4,720,[0.01842005],31,44,hard,minus,dotcolour,beta,68,19,V,R,
392,14,14,9,3,44,36,714,['n'],0,left,['1'],6,192,[-0.11428374],92,44,hard,minus,dotcolour,beta,68,19,V,R,
393,15,15,9,3,27,53,698,['n'],1,right,['1'],6,149,[-0.06755737],64,53,easy,minus,dotcolour,beta,68,19,V,R,
394,16,16,9,3,53,27,815,['c'],1,left,['2'],5,488,[0.07931936],65,53,easy,minus,dotcolour,beta,68,19,V,R,
395,17,17,9,3,33,47,532,['n'],1,right,['1'],6,208,[-0.11900996],92,47,medium,minus,dotcolour,beta,68,19,V,R,
396,18,18,9,3,33,47,731,['n'],1,right,['1'],6,212,[-0.11413058],91,47,medium,minus,dotcolour,beta,68,19,V,R,
397,19,19,9,3,47,33,882,['c'],1,left,['3'],4,521,[0.03839853],39,47,medium,minus,dotcolour,beta,68,19,V,R,
398,20,20,9,3,53,27,1249,['c'],1,left,['3'],4,259,[0.04847076],44,53,easy,minus,dotcolour,beta,68,19,V,R,
399,21,21,9,3,36,44,681,['n'],1,right,['3'],4,238,[-0.10696329],87,44,hard,minus,dotcolour,beta,68,19,V,R,
400,22,22,9,3,27,53,498,['n'],1,right,['1'],6,330,[-0.06443988],57,53,easy,minus,dotcolour,beta,68,19,V,R,
401,23,23,9,3,36,44,633,['n'],1,right,['1'],6,197,[-0.04274435],37,44,hard,minus,dotcolour,beta,68,19,V,R,
402,24,24,9,3,33,47,482,['n'],1,right,['2'],5,443,[0.04463771],6,47,medium,minus,dotcolour,beta,68,19,V,R,
403,25,25,9,3,27,53,548,['n'],1,right,['2'],5,268,[-0.14460849],96,53,easy,minus,dotcolour,beta,68,19,V,R,
404,26,26,9,3,27,53,482,['n'],1,right,['2'],5,256,[-0.03958184],36,53,easy,minus,dotcolour,beta,68,19,V,R,
405,27,27,9,3,53,27,883,['c'],1,left,['3'],4,419,[0.12162695],86,53,easy,minus,dotcolour,beta,68,19,V,R,
406,28,28,9,3,47,33,1164,['c'],1,left,['3'],4,268,[0.16411021],98,47,medium,minus,dotcolour,beta,68,19,V,R,
407,29,29,9,3,36,44,599,['n'],1,right,['3'],4,731,[-0.05018505],47,44,hard,minus,dotcolour,beta,68,19,V,R,
408,30,30,9,3,44,36,1182,['n'],0,left,['2'],5,575,[-0.05680087],51,44,hard,minus,dotcolour,beta,68,19,V,R,
409,31,31,9,3,36,44,580,['n'],1,right,['2'],5,194,[-0.11702712],92,44,hard,minus,dotcolour,beta,68,19,V,R,
410,32,32,9,3,33,47,499,['n'],1,right,['2'],5,191,[-0.11324997],91,47,medium,minus,dotcolour,beta,68,19,V,R,
411,33,33,9,3,47,33,1048,['n'],0,left,['2'],5,287,[-0.12907767],92,47,medium,minus,dotcolour,beta,68,19,V,R,
412,34,34,9,3,27,53,766,['n'],1,right,['1'],6,222,[-0.03921219],35,53,easy,minus,dotcolour,beta,68,19,V,R,
413,35,35,9,3,27,53,548,['n'],1,right,['1'],6,128,[-0.05655495],51,53,easy,minus,dotcolour,beta,68,19,V,R,
414,36,36,9,3,53,27,914,['c'],1,left,['3'],4,640,[0.1032972],75,53,easy,minus,dotcolour,beta,68,19,V,R,
415,37,37,9,3,53,27,715,['c'],1,left,['3'],4,538,[0.03120828],35,53,easy,minus,dotcolour,beta,68,19,V,R,
416,38,38,9,3,44,36,599,['n'],0,left,['9'],2,1086,[-0.25479375],97,44,hard,minus,dotcolour,beta,68,19,V,R,
417,39,39,9,3,33,47,699,['n'],1,right,['3'],4,551,[-0.04488377],44,47,medium,minus,dotcolour,beta,68,19,V,R,
418,40,40,9,3,44,36,1232,['c'],1,left,['3'],4,512,[0.11345395],81,44,hard,minus,dotcolour,beta,68,19,V,R,
419,41,41,9,3,33,47,799,['n'],1,right,['1'],6,309,[-0.14948726],95,47,medium,minus,dotcolour,beta,68,19,V,R,
420,42,0,10,3,47,33,850,['c'],1,left,['1'],6,314,[0.10569596],83,47,medium,minus,dotcolour,beta,68,19,V,R,
421,43,1,10,3,53,27,516,['n'],0,left,['1'],6,306,[-0.0553313],50,53,easy,minus,dotcolour,beta,68,19,V,R,
422,44,2,10,3,44,36,698,['n'],0,left,['2'],5,419,[0.0025918],17,44,hard,minus,dotcolour,beta,68,19,V,R,
423,45,3,10,3,36,44,732,['n'],1,right,['1'],6,230,[-0.08771842],77,44,hard,minus,dotcolour,beta,68,19,V,R,
424,46,4,10,3,44,36,2015,['c'],1,left,['3'],4,1189,[0.04106107],44,44,hard,minus,dotcolour,beta,68,19,V,R,
425,47,5,10,3,27,53,714,['n'],1,right,['1'],6,98,[-0.04710404],38,53,easy,minus,dotcolour,beta,68,19,V,R,
426,48,6,10,3,47,33,799,['c'],1,left,['2'],5,471,[0.16214019],94,47,medium,minus,dotcolour,beta,68,19,V,R,
427,49,7,10,3,33,47,584,['n'],1,right,['1'],6,214,[-0.06765499],62,47,medium,minus,dotcolour,beta,68,19,V,R,
428,50,8,10,3,44,36,699,['n'],0,left,['1'],6,291,[0.03051464],5,44,hard,minus,dotcolour,beta,68,19,V,R,
429,51,9,10,3,53,27,764,['n'],0,left,['1'],6,401,[-0.09608481],76,53,easy,minus,dotcolour,beta,68,19,V,R,
430,52,10,10,3,27,53,714,['n'],1,right,['1'],6,206,[-0.15659803],98,53,easy,minus,dotcolour,beta,68,19,V,R,
431,53,11,10,3,53,27,816,['c'],1,left,['1'],6,542,[0.18392029],96,53,easy,minus,dotcolour,beta,68,19,V,R,
432,54,12,10,3,53,27,1232,['c'],1,left,['1'],6,537,[0.03334832],37,53,easy,minus,dotcolour,beta,68,19,V,R,
433,55,13,10,3,36,44,666,['n'],1,right,['1'],6,226,[-0.10935515],88,44,hard,minus,dotcolour,beta,68,19,V,R,
434,56,14,10,3,33,47,632,['n'],1,right,['1'],6,208,[-0.10127462],86,47,medium,minus,dotcolour,beta,68,19,V,R,
435,57,15,10,3,36,44,780,['c'],0,right,['1'],6,506,[-0.00386107],18,44,hard,minus,dotcolour,beta,68,19,V,R,
436,58,16,10,3,44,36,915,['c'],1,left,['3'],4,682,[0.09736836],71,44,hard,minus,dotcolour,beta,68,19,V,R,
437,59,17,10,3,36,44,681,['c'],0,right,['3'],4,412,[-0.05606259],4,44,hard,minus,dotcolour,beta,68,19,V,R,
438,60,18,10,3,47,33,648,['c'],1,left,['3'],4,451,[0.08318291],68,47,medium,minus,dotcolour,beta,68,19,V,R,
439,61,19,10,3,27,53,1399,['n'],1,right,['1'],6,418,[-0.15863292],95,53,easy,minus,dotcolour,beta,68,19,V,R,
440,62,20,10,3,33,47,547,['n'],1,right,['1'],6,244,[-0.02429572],24,47,medium,minus,dotcolour,beta,68,19,V,R,
441,63,21,10,3,47,33,915,['c'],1,left,['3'],4,631,[0.10190849],74,47,medium,minus,dotcolour,beta,68,19,V,R,
442,64,22,10,3,36,44,1266,['n'],1,right,['3'],4,852,[-0.15839837],88,44,hard,minus,dotcolour,beta,68,19,V,R,
443,65,23,10,3,53,27,1682,['c'],1,left,['3'],4,256,[0.17030905],98,53,easy,minus,dotcolour,beta,68,19,V,R,
444,66,24,10,3,27,53,598,['n'],1,right,['1'],6,174,[-0.05997539],55,53,easy,minus,dotcolour,beta,68,19,V,R,
445,67,25,10,3,44,36,1248,['c'],1,left,['3'],4,350,[0.16544985],97,44,hard,minus,dotcolour,beta,68,19,V,R,
446,68,26,10,3,36,44,1117,['n'],1,right,['1'],6,773,[-0.2278392],97,44,hard,minus,dotcolour,beta,68,19,V,R,
447,69,27,10,3,27,53,682,['n'],1,right,['1'],6,236,[-0.10307433],85,53,easy,minus,dotcolour,beta,68,19,V,R,
448,70,28,10,3,47,33,1047,['c'],1,left,['2'],5,457,[0.23347496],99,47,medium,minus,dotcolour,beta,68,19,V,R,
449,71,29,10,3,27,53,716,['n'],1,right,['1'],6,163,[-0.07637673],72,53,easy,minus,dotcolour,beta,68,19,V,R,
450,72,30,10,3,44,36,1183,['n'],0,left,['2'],5,814,[-0.01176967],29,44,hard,minus,dotcolour,beta,68,19,V,R,
451,73,31,10,3,33,47,549,['n'],1,right,['1'],6,185,[-0.07211246],67,47,medium,minus,dotcolour,beta,68,19,V,R,
452,74,32,10,3,33,47,515,['n'],1,right,['1'],6,254,[-0.13793333],95,47,medium,minus,dotcolour,beta,68,19,V,R,
453,75,33,10,3,27,53,364,['n'],1,right,['1'],6,286,[-0.19152145],99,53,easy,minus,dotcolour,beta,68,19,V,R,
454,76,34,10,3,47,33,1115,['c'],1,left,['2'],5,767,[0.13611563],84,47,medium,minus,dotcolour,beta,68,19,V,R,
455,77,35,10,3,44,36,882,['c'],1,left,['2'],5,271,[0.06259378],56,44,hard,minus,dotcolour,beta,68,19,V,R,
456,78,36,10,3,53,27,649,['n'],0,left,['0'],1,1179,[-0.0737965],57,53,easy,minus,dotcolour,beta,68,19,V,R,
457,79,37,10,3,33,47,816,['n'],1,right,['1'],6,340,[-0.17865064],98,47,medium,minus,dotcolour,beta,68,19,V,R,
458,80,38,10,3,53,27,899,['c'],1,left,['2'],5,451,[0.15190439],93,53,easy,minus,dotcolour,beta,68,19,V,R,
459,81,39,10,3,36,44,682,['n'],1,right,['1'],6,199,[-0.02174777],20,44,hard,minus,dotcolour,beta,68,19,V,R,
460,82,40,10,3,33,47,666,['n'],1,right,['1'],6,213,[-0.09647033],83,47,medium,minus,dotcolour,beta,68,19,V,R,
461,83,41,10,3,47,33,848,['n'],0,left,['1'],6,212,[-0.07661649],69,47,medium,minus,dotcolour,beta,68,19,V,R,
462,84,0,11,3,36,44,900,['n'],1,right,['1'],6,176,[-0.08362754],77,44,hard,minus,dotcolour,beta,68,19,V,R,
463,85,1,11,3,36,44,465,['n'],1,right,['1'],6,287,[-0.11054516],86,44,hard,minus,dotcolour,beta,68,19,V,R,
464,86,2,11,3,44,36,567,['n'],0,left,['1'],6,262,[-0.069556],62,44,hard,minus,dotcolour,beta,68,19,V,R,
465,87,3,11,3,33,47,581,['n'],1,right,['1'],6,445,[-0.19387434],98,47,medium,minus,dotcolour,beta,68,19,V,R,
466,88,4,11,3,33,47,465,['n'],1,right,['1'],6,346,[-0.03312668],33,47,medium,minus,dotcolour,beta,68,19,V,R,
467,89,5,11,3,53,27,699,['c'],1,left,['2'],5,617,[0.10014242],74,53,easy,minus,dotcolour,beta,68,19,V,R,
468,90,6,11,3,33,47,665,['n'],1,right,['2'],5,231,[-0.07976077],71,47,medium,minus,dotcolour,beta,68,19,V,R,
469,91,7,11,3,33,47,681,['n'],1,right,['2'],5,315,[-0.15762482],96,47,medium,minus,dotcolour,beta,68,19,V,R,
470,92,8,11,3,27,53,348,['n'],1,right,['1'],6,474,[-0.07818295],64,53,easy,minus,dotcolour,beta,68,19,V,R,
471,93,9,11,3,36,44,449,['n'],1,right,['1'],6,174,[-0.08278105],76,44,hard,minus,dotcolour,beta,68,19,V,R,
472,94,10,11,3,44,36,900,['c'],1,left,['3'],4,580,[-0.01819059],15,44,hard,minus,dotcolour,beta,68,19,V,R,
473,95,11,11,3,47,33,1032,['c'],1,left,['3'],4,261,[0.08677076],75,47,medium,minus,dotcolour,beta,68,19,V,R,
474,96,12,11,3,47,33,1049,['c'],1,left,['8'],3,1177,[0.13603544],79,47,medium,minus,dotcolour,beta,68,19,V,R,
475,97,13,11,3,27,53,517,['n'],1,right,['1'],6,190,[-0.11148977],91,53,easy,minus,dotcolour,beta,68,19,V,R,
476,98,14,11,3,47,33,516,['n'],0,left,['3'],4,923,[-0.12703905],79,47,medium,minus,dotcolour,beta,68,19,V,R,
477,99,15,11,3,53,27,599,['n'],0,left,['3'],4,390,[0.05613112],4,53,easy,minus,dotcolour,beta,68,19,V,R,
478,100,16,11,3,36,44,766,['c'],0,right,['1'],6,313,[0.18487322],98,44,hard,minus,dotcolour,beta,68,19,V,R,
479,101,17,11,3,47,33,548,['c'],1,left,['1'],6,264,[0.0535614],48,47,medium,minus,dotcolour,beta,68,19,V,R,
480,102,18,11,3,33,47,549,['c'],0,right,['0'],1,1288,[-0.05975454],14,47,medium,minus,dotcolour,beta,68,19,V,R,
481,103,19,11,3,44,36,1148,['n'],0,left,['3'],4,608,[-0.08029282],64,44,hard,minus,dotcolour,beta,68,19,V,R,
482,104,20,11,3,44,36,613,['n'],0,left,['3'],4,944,[0.06740309],9,44,hard,minus,dotcolour,beta,68,19,V,R,
483,105,21,11,3,44,36,780,['n'],0,left,['3'],4,123,[-0.02183132],15,44,hard,minus,dotcolour,beta,68,19,V,R,
484,106,22,11,3,53,27,1066,['c'],1,left,['3'],4,389,[0.13469382],91,53,easy,minus,dotcolour,beta,68,19,V,R,
485,107,23,11,3,47,33,1066,['c'],1,left,['3'],4,340,[0.11890838],88,47,medium,minus,dotcolour,beta,68,19,V,R,
486,108,24,11,3,36,44,715,['n'],1,right,['3'],4,234,[-0.08750448],77,44,hard,minus,dotcolour,beta,68,19,V,R,
487,109,25,11,3,47,33,565,['n'],0,left,['3'],4,259,[0.00752942],10,47,medium,minus,dotcolour,beta,68,19,V,R,
488,110,26,11,3,53,27,1082,['c'],1,left,['3'],4,279,[0.18712404],99,53,easy,minus,dotcolour,beta,68,19,V,R,
489,111,27,11,3,27,53,582,['n'],1,right,['3'],4,246,[-0.08919776],77,53,easy,minus,dotcolour,beta,68,19,V,R,
490,112,28,11,3,53,27,1450,['c'],1,left,['3'],4,499,[0.28409562],100,53,easy,minus,dotcolour,beta,68,19,V,R,
491,113,29,11,3,36,44,566,['n'],1,right,['3'],4,674,[-0.16199637],91,44,hard,minus,dotcolour,beta,68,19,V,R,
492,114,30,11,3,27,53,649,['n'],1,right,['1'],6,246,[-0.09041854],78,53,easy,minus,dotcolour,beta,68,19,V,R,
493,115,31,11,3,53,27,784,['c'],1,left,['3'],4,414,[0.06660049],58,53,easy,minus,dotcolour,beta,68,19,V,R,
494,116,32,11,3,33,47,633,['n'],1,right,['1'],6,237,[-0.06089837],55,47,medium,minus,dotcolour,beta,68,19,V,R,
495,117,33,11,3,44,36,514,['n'],0,left,['3'],4,616,[0.0148964],17,44,hard,minus,dotcolour,beta,68,19,V,R,
496,118,34,11,3,36,44,566,['n'],1,right,['3'],4,578,[-0.14443079],89,44,hard,minus,dotcolour,beta,68,19,V,R,
497,119,35,11,3,53,27,3617,['n'],0,left,['8'],3,940,[0.10184745],5,53,easy,minus,dotcolour,beta,68,19,V,R,
498,120,36,11,3,47,33,599,['n'],0,left,['3'],4,470,[-0.11039375],81,47,medium,minus,dotcolour,beta,68,19,V,R,
499,121,37,11,3,27,53,766,['n'],1,right,['1'],6,79,[-0.09899935],94,53,easy,minus,dotcolour,beta,68,19,V,R,
500,122,38,11,3,33,47,497,['n'],1,right,['1'],6,161,[-0.11957709],95,47,medium,minus,dotcolour,beta,68,19,V,R,
501,123,39,11,3,44,36,432,['n'],0,left,['2'],5,730,[-0.15309748],89,44,hard,minus,dotcolour,beta,68,19,V,R,
502,124,40,11,3,27,53,566,['n'],1,right,['1'],6,223,[-0.09213265],80,53,easy,minus,dotcolour,beta,68,19,V,R,
503,125,41,11,3,27,53,514,['n'],1,right,['1'],6,243,[-0.14852431],97,53,easy,minus,dotcolour,beta,68,19,V,R,
504,0,0,12,4,44,36,917,['n'],0,left,['1'],6,182,[0.00030312],91,44,hard,plus,dotcolour,beta,68,19,V,R,
505,1,1,12,4,27,53,582,['n'],1,right,['1'],6,184,[-0.1290797],100,53,easy,plus,dotcolour,beta,68,19,V,R,
506,2,2,12,4,47,33,499,['n'],0,left,['1'],6,406,[-0.00684679],85,47,medium,plus,dotcolour,beta,68,19,V,R,
507,3,3,12,4,53,27,765,['n'],0,left,['1'],6,144,[-0.1021083],100,53,easy,plus,dotcolour,beta,68,19,V,R,
508,4,4,12,4,36,44,432,['n'],1,right,['1'],6,146,[-0.09009402],100,44,hard,plus,dotcolour,beta,68,19,V,R,
509,5,5,12,4,47,33,415,['n'],0,left,['1'],6,157,[-0.05313623],99,47,medium,plus,dotcolour,beta,68,19,V,R,
510,6,6,12,4,27,53,415,['n'],1,right,['1'],6,95,[-0.10931096],100,53,easy,plus,dotcolour,beta,68,19,V,R,
511,7,7,12,4,53,27,331,['n'],0,left,['1'],6,112,[-0.03799032],99,53,easy,plus,dotcolour,beta,68,19,V,R,
512,8,8,12,4,44,36,282,['n'],0,left,['1'],6,128,[-0.10352278],100,44,hard,plus,dotcolour,beta,68,19,V,R,
513,9,9,12,4,44,36,125,['n'],0,left,['1'],6,68,[-0.02711449],100,44,hard,plus,dotcolour,beta,68,19,V,R,
514,10,10,12,4,33,47,732,['n'],1,right,['1'],6,142,[-0.1103881],100,47,medium,plus,dotcolour,beta,68,19,V,R,
515,11,11,12,4,44,36,432,['n'],0,left,['1'],6,80,[-0.07371179],100,44,hard,plus,dotcolour,beta,68,19,V,R,
516,12,12,12,4,33,47,299,['n'],1,right,['1'],6,114,[-0.10199368],100,47,medium,plus,dotcolour,beta,68,19,V,R,
517,13,13,12,4,47,33,265,['n'],0,left,['1'],6,220,[-0.09106597],100,47,medium,plus,dotcolour,beta,68,19,V,R,
518,14,14,12,4,36,44,149,['n'],1,right,['1'],6,93,[-0.09926141],100,44,hard,plus,dotcolour,beta,68,19,V,R,
519,15,15,12,4,27,53,316,['n'],1,right,['1'],6,141,[-0.09139637],100,53,easy,plus,dotcolour,beta,68,19,V,R,
520,16,16,12,4,53,27,193,['n'],0,left,['1'],6,200,[-0.10852545],100,53,easy,plus,dotcolour,beta,68,19,V,R,
521,17,17,12,4,33,47,433,['n'],1,right,['1'],6,152,[-0.08282079],100,47,medium,plus,dotcolour,beta,68,19,V,R,
522,18,18,12,4,44,36,299,['n'],0,left,['1'],6,624,[-0.03352199],88,44,hard,plus,dotcolour,beta,68,19,V,R,
523,19,19,12,4,33,47,432,['n'],1,right,['1'],6,150,[-0.04920505],99,47,medium,plus,dotcolour,beta,68,19,V,R,
524,20,20,12,4,53,27,448,['n'],0,left,['3'],4,1064,[0.03532895],59,53,easy,plus,dotcolour,beta,68,19,V,R,
525,21,21,12,4,36,44,567,['n'],1,right,['1'],6,359,[-0.03589547],94,44,hard,plus,dotcolour,beta,68,19,V,R,
526,22,22,12,4,53,27,333,['n'],0,left,['1'],6,141,[-0.03353191],99,53,easy,plus,dotcolour,beta,68,19,V,R,
527,23,23,12,4,47,33,717,['n'],0,left,['3'],4,980,[0.091281],34,47,medium,plus,dotcolour,beta,68,19,V,R,
528,24,24,12,4,36,44,716,['n'],1,right,['3'],4,153,[-0.10475151],100,44,hard,plus,dotcolour,beta,68,19,V,R,
529,25,25,12,4,27,53,663,['n'],1,right,['3'],4,202,[-0.08180512],100,53,easy,plus,dotcolour,beta,68,19,V,R,
530,26,26,12,4,27,53,484,['n'],1,right,['3'],4,136,[-0.10526273],100,53,easy,plus,dotcolour,beta,68,19,V,R,
531,27,27,12,4,36,44,399,['n'],1,right,['3'],4,132,[-0.11590559],100,44,hard,plus,dotcolour,beta,68,19,V,R,
532,28,28,12,4,33,47,333,['n'],1,right,['3'],4,162,[-0.09367924],100,47,medium,plus,dotcolour,beta,68,19,V,R,
533,29,29,12,4,33,47,298,['n'],1,right,['3'],4,161,[-0.08565143],100,47,medium,plus,dotcolour,beta,68,19,V,R,
534,30,30,12,4,44,36,482,['n'],0,left,['3'],4,384,[0.0436666],59,44,hard,plus,dotcolour,beta,68,19,V,R,
535,31,31,12,4,53,27,899,['c'],1,left,['3'],4,229,[0.0849876],99,53,easy,plus,dotcolour,beta,68,19,V,R,
536,32,32,12,4,33,47,480,['n'],1,right,['3'],4,106,[-0.06866133],100,47,medium,plus,dotcolour,beta,68,19,V,R,
537,33,33,12,4,47,33,1068,['c'],1,left,['2'],5,452,[0.06751538],96,47,medium,plus,dotcolour,beta,68,19,V,R,
538,34,34,12,4,47,33,515,['n'],0,left,['2'],5,207,[-0.06164196],99,47,medium,plus,dotcolour,beta,68,19,V,R,
539,35,35,12,4,36,44,316,['n'],1,right,['2'],5,124,[-0.10605796],100,44,hard,plus,dotcolour,beta,68,19,V,R,
540,36,36,12,4,53,27,416,['n'],0,left,['9'],2,1128,[0.20906198],7,53,easy,plus,dotcolour,beta,68,19,V,R,
541,37,37,12,4,27,53,480,['n'],1,right,['2'],5,160,[-0.02422485],97,53,easy,plus,dotcolour,beta,68,19,V,R,
542,38,38,12,4,44,36,364,['n'],0,left,['2'],5,172,[-0.07564877],100,44,hard,plus,dotcolour,beta,68,19,V,R,
543,39,39,12,4,36,44,498,['n'],1,right,['2'],5,171,[-0.11806933],100,44,hard,plus,dotcolour,beta,68,19,V,R,
544,40,40,12,4,47,33,366,['n'],0,left,['2'],5,503,[-0.07911714],97,47,medium,plus,dotcolour,beta,68,19,V,R,
545,41,41,12,4,27,53,397,['n'],1,right,['2'],5,452,[-0.18907419],100,53,easy,plus,dotcolour,beta,68,19,V,R,
546,42,0,13,4,47,33,550,['n'],0,left,['2'],5,137,[-0.03254461],99,47,medium,plus,dotcolour,beta,68,19,V,R,
547,43,1,13,4,47,33,316,['n'],0,left,['3'],4,808,[0.02551673],65,47,medium,plus,dotcolour,beta,68,19,V,R,
548,44,2,13,4,36,44,398,['n'],1,right,['2'],5,225,[-0.10636326],100,44,hard,plus,dotcolour,beta,68,19,V,R,
549,45,3,13,4,33,47,282,['n'],1,right,['2'],5,94,[-0.07636159],100,47,medium,plus,dotcolour,beta,68,19,V,R,
550,46,4,13,4,47,33,365,['n'],0,left,['2'],5,92,[-0.00558601],97,47,medium,plus,dotcolour,beta,68,19,V,R,
551,47,5,13,4,36,44,682,['n'],1,right,['2'],5,118,[-0.07988688],100,44,hard,plus,dotcolour,beta,68,19,V,R,
552,48,6,13,4,44,36,484,['n'],0,left,['3'],4,1183,[-0.16081771],97,44,hard,plus,dotcolour,beta,68,19,V,R,
553,49,7,13,4,27,53,399,['n'],1,right,['2'],5,168,[-0.14363367],100,53,easy,plus,dotcolour,beta,68,19,V,R,
554,50,8,13,4,53,27,716,['c'],1,left,['2'],5,253,[0.10116956],100,53,easy,plus,dotcolour,beta,68,19,V,R,
555,51,9,13,4,36,44,500,['n'],1,right,['2'],5,105,[0.01942335],88,44,hard,plus,dotcolour,beta,68,19,V,R,
556,52,10,13,4,27,53,530,['n'],1,right,['2'],5,72,[-0.08774999],100,53,easy,plus,dotcolour,beta,68,19,V,R,
557,53,11,13,4,44,36,416,['n'],0,left,['2'],5,126,[-0.03538879],99,44,hard,plus,dotcolour,beta,68,19,V,R,
558,54,12,13,4,53,27,1065,['c'],1,left,['2'],5,151,[0.02995091],98,53,easy,plus,dotcolour,beta,68,19,V,R,
559,55,13,13,4,53,27,748,['c'],1,left,['2'],5,181,[0.10276073],100,53,easy,plus,dotcolour,beta,68,19,V,R,
560,56,14,13,4,53,27,750,['n'],0,left,['2'],5,121,[-0.10024006],100,53,easy,plus,dotcolour,beta,68,19,V,R,
561,57,15,13,4,33,47,766,['n'],1,right,['2'],5,103,[-0.08795076],100,47,medium,plus,dotcolour,beta,68,19,V,R,
562,58,16,13,4,36,44,532,['n'],1,right,['2'],5,78,[-0.05891516],100,44,hard,plus,dotcolour,beta,68,19,V,R,
563,59,17,13,4,44,36,1997,['c'],1,left,['8'],3,421,[0.18036401],100,44,hard,plus,dotcolour,beta,68,19,V,R,
564,60,18,13,4,27,53,548,['n'],1,right,['2'],5,167,[-0.06998624],100,53,easy,plus,dotcolour,beta,68,19,V,R,
565,61,19,13,4,36,44,431,['n'],1,right,['2'],5,472,[-0.12193079],99,44,hard,plus,dotcolour,beta,68,19,V,R,
566,62,20,13,4,47,33,332,['n'],0,left,['2'],5,800,[-0.09862241],96,47,medium,plus,dotcolour,beta,68,19,V,R,
567,63,21,13,4,47,33,381,['n'],0,left,['2'],5,146,[-0.04217041],99,47,medium,plus,dotcolour,beta,68,19,V,R,
568,64,22,13,4,36,44,398,['n'],1,right,['2'],5,270,[-0.063307],98,44,hard,plus,dotcolour,beta,68,19,V,R,
569,65,23,13,4,44,36,781,['c'],1,left,['2'],5,181,[0.00867464],94,44,hard,plus,dotcolour,beta,68,19,V,R,
570,66,24,13,4,44,36,832,['c'],1,left,['2'],5,166,[0.10952849],100,44,hard,plus,dotcolour,beta,68,19,V,R,
571,67,25,13,4,53,27,683,['c'],1,left,['2'],5,149,[0.14786662],100,53,easy,plus,dotcolour,beta,68,19,V,R,
572,68,26,13,4,33,47,615,['n'],1,right,['2'],5,96,[-0.09202778],100,47,medium,plus,dotcolour,beta,68,19,V,R,
573,69,27,13,4,27,53,565,['n'],1,right,['2'],5,62,[-0.10484355],100,53,easy,plus,dotcolour,beta,68,19,V,R,
574,70,28,13,4,53,27,648,['c'],1,left,['1'],6,195,[0.07635422],100,53,easy,plus,dotcolour,beta,68,19,V,R,
575,71,29,13,4,33,47,517,['n'],1,right,['1'],6,104,[-0.0695662],100,47,medium,plus,dotcolour,beta,68,19,V,R,
576,72,30,13,4,33,47,565,['c'],0,right,['0'],1,1215,[-0.07014825],44,47,medium,plus,dotcolour,beta,68,19,V,R,
577,73,31,13,4,27,53,580,['n'],1,right,['1'],6,95,[-0.08345715],100,53,easy,plus,dotcolour,beta,68,19,V,R,
578,74,32,13,4,53,27,417,['n'],0,left,['1'],6,228,[0.05464494],51,53,easy,plus,dotcolour,beta,68,19,V,R,
579,75,33,13,4,47,33,750,['n'],0,left,['3'],4,670,[0.09359775],30,47,medium,plus,dotcolour,beta,68,19,V,R,
580,76,34,13,4,33,47,467,['n'],1,right,['1'],6,98,[-0.05489656],100,47,medium,plus,dotcolour,beta,68,19,V,R,
581,77,35,13,4,47,33,666,['n'],0,left,['1'],6,92,[-0.07904164],100,47,medium,plus,dotcolour,beta,68,19,V,R,
582,78,36,13,4,44,36,548,['n'],0,left,['1'],6,500,[-0.08580037],97,44,hard,plus,dotcolour,beta,68,19,V,R,
583,79,37,13,4,33,47,800,['n'],1,right,['1'],6,513,[-0.15437003],99,47,medium,plus,dotcolour,beta,68,19,V,R,
584,80,38,13,4,36,44,450,['n'],1,right,['1'],6,107,[-0.04758506],100,44,hard,plus,dotcolour,beta,68,19,V,R,
585,81,39,13,4,27,53,415,['n'],1,right,['1'],6,136,[-0.08144881],100,53,easy,plus,dotcolour,beta,68,19,V,R,
586,82,40,13,4,27,53,367,['n'],1,right,['1'],6,198,[-0.07360316],99,53,easy,plus,dotcolour,beta,68,19,V,R,
587,83,41,13,4,44,36,332,['n'],0,left,['1'],6,217,[-0.05838641],99,44,hard,plus,dotcolour,beta,68,19,V,R,
588,84,0,14,4,36,44,550,['n'],1,right,['1'],6,159,[-0.14850559],100,44,hard,plus,dotcolour,beta,68,19,V,R,
589,85,1,14,4,36,44,282,['n'],1,right,['1'],6,198,[-0.031145],97,44,hard,plus,dotcolour,beta,68,19,V,R,
590,86,2,14,4,47,33,299,['n'],0,left,['1'],6,211,[-0.01455005],94,47,medium,plus,dotcolour,beta,68,19,V,R,
591,87,3,14,4,53,27,233,['n'],0,left,['1'],6,115,[-0.07943043],100,53,easy,plus,dotcolour,beta,68,19,V,R,
592,88,4,14,4,44,36,449,['n'],0,left,['1'],6,141,[-0.08561341],100,44,hard,plus,dotcolour,beta,68,19,V,R,
593,89,5,14,4,27,53,482,['n'],1,right,['1'],6,134,[-0.08269907],100,53,easy,plus,dotcolour,beta,68,19,V,R,
594,90,6,14,4,27,53,447,['n'],1,right,['1'],6,119,[-0.07526056],100,53,easy,plus,dotcolour,beta,68,19,V,R,
595,91,7,14,4,33,47,348,['n'],1,right,['1'],6,174,[-0.04669364],99,47,medium,plus,dotcolour,beta,68,19,V,R,
596,92,8,14,4,47,33,231,['n'],0,left,['1'],6,183,[-0.06762737],99,47,medium,plus,dotcolour,beta,68,19,V,R,
597,93,9,14,4,53,27,314,['n'],0,left,['3'],4,932,[0.1325237],19,53,easy,plus,dotcolour,beta,68,19,V,R,
598,94,10,14,4,47,33,565,['n'],0,left,['3'],4,690,[-0.00719007],80,47,medium,plus,dotcolour,beta,68,19,V,R,
599,95,11,14,4,47,33,782,['n'],0,left,['2'],5,280,[-0.07808642],99,47,medium,plus,dotcolour,beta,68,19,V,R,
600,96,12,14,4,36,44,680,['n'],1,right,['2'],5,1218,[-0.06196621],87,44,hard,plus,dotcolour,beta,68,19,V,R,
601,97,13,14,4,44,36,515,['n'],0,left,['2'],5,181,[0.06632207],39,44,hard,plus,dotcolour,beta,68,19,V,R,
602,98,14,14,4,44,36,566,['n'],0,left,['3'],4,889,[-0.26195458],100,44,hard,plus,dotcolour,beta,68,19,V,R,
603,99,15,14,4,53,27,732,['c'],1,left,['3'],4,224,[0.06503357],99,53,easy,plus,dotcolour,beta,68,19,V,R,
604,100,16,14,4,33,47,599,['n'],1,right,['2'],5,225,[-0.089334],100,47,medium,plus,dotcolour,beta,68,19,V,R,
605,101,17,14,4,33,47,416,['n'],1,right,['2'],5,168,[-0.03089341],98,47,medium,plus,dotcolour,beta,68,19,V,R,
606,102,18,14,4,33,47,634,['n'],1,right,['2'],5,169,[-0.05516947],99,47,medium,plus,dotcolour,beta,68,19,V,R,
607,103,19,14,4,27,53,416,['n'],1,right,['2'],5,195,[-0.08037651],100,53,easy,plus,dotcolour,beta,68,19,V,R,
608,104,20,14,4,27,53,317,['n'],1,right,['2'],5,176,[-0.15962407],100,53,easy,plus,dotcolour,beta,68,19,V,R,
609,105,21,14,4,47,33,698,['n'],0,left,['2'],5,182,[-0.03490545],98,47,medium,plus,dotcolour,beta,68,19,V,R,
610,106,22,14,4,44,36,415,['n'],0,left,['2'],5,223,[-0.00420542],91,44,hard,plus,dotcolour,beta,68,19,V,R,
611,107,23,14,4,36,44,1049,['n'],1,right,['2'],5,205,[-0.12762453],100,44,hard,plus,dotcolour,beta,68,19,V,R,
612,108,24,14,4,44,36,365,['n'],0,left,['2'],5,663,[-0.14558748],99,44,hard,plus,dotcolour,beta,68,19,V,R,
613,109,25,14,4,27,53,365,['n'],1,right,['2'],5,159,[-0.08640319],100,53,easy,plus,dotcolour,beta,68,19,V,R,
614,110,26,14,4,47,33,282,['n'],0,left,['3'],4,638,[0.13066368],16,47,medium,plus,dotcolour,beta,68,19,V,R,
615,111,27,14,4,33,47,649,['n'],1,right,['2'],5,156,[-0.08092569],100,47,medium,plus,dotcolour,beta,68,19,V,R,
616,112,28,14,4,36,44,434,['n'],1,right,['2'],5,150,[-0.0623491],100,44,hard,plus,dotcolour,beta,68,19,V,R,
617,113,29,14,4,33,47,317,['n'],1,right,['2'],5,189,[-0.09252461],100,47,medium,plus,dotcolour,beta,68,19,V,R,
618,114,30,14,4,44,36,815,['c'],1,left,['2'],5,237,[0.07902424],99,44,hard,plus,dotcolour,beta,68,19,V,R,
619,115,31,14,4,27,53,416,['n'],1,right,['2'],5,181,[-0.05045077],99,53,easy,plus,dotcolour,beta,68,19,V,R,
620,116,32,14,4,27,53,316,['n'],1,right,['2'],5,130,[-0.03786176],99,53,easy,plus,dotcolour,beta,68,19,V,R,
621,117,33,14,4,53,27,330,['n'],0,left,['8'],3,944,[-0.00468722],75,53,easy,plus,dotcolour,beta,68,19,V,R,
622,118,34,14,4,33,47,599,['n'],1,right,['2'],5,155,[-0.05291983],99,47,medium,plus,dotcolour,beta,68,19,V,R,
623,119,35,14,4,53,27,899,['c'],1,left,['3'],4,162,[0.05027502],99,53,easy,plus,dotcolour,beta,68,19,V,R,
