trial,withinphasetrial,withinblocktrial,block,phase,dotsLeft,dotsRight,rt,resp,cor,cresp,conf_press,cj,RTconf,ev,fb,diff,difflevel,condition,task,manip,questionID,questionResp,sub,age,gender,handedness,
0,0,0,0,0,33,47,3617,['n'],1,right,['9'],5,3114,[-0.58138353],95,47,medium,minus,dotcolour,alfa,,,79,18,M,R,
1,1,1,0,0,53,27,1999,['c'],1,left,['9'],5,3510,[0.58841834],94,53,easy,minus,dotcolour,alfa,,,79,18,M,R,
2,2,2,0,0,36,44,2215,['n'],1,right,['9'],5,1105,[-0.01905127],54,44,hard,minus,dotcolour,alfa,,,79,18,M,R,
3,3,3,0,0,44,36,1815,['c'],1,left,['0'],6,1174,[0.18611681],82,44,hard,minus,dotcolour,alfa,,,79,18,M,R,
4,4,4,0,0,36,44,2430,['c'],0,right,['2'],2,1255,[-0.17926061],19,44,hard,minus,dotcolour,alfa,,,79,18,M,R,
5,5,5,0,0,27,53,1799,['n'],1,right,['0'],6,1198,[-0.09588746],69,53,easy,minus,dotcolour,alfa,,,79,18,M,R,
6,6,6,0,0,44,36,1182,['c'],1,left,['0'],6,961,[0.15979991],81,44,hard,minus,dotcolour,alfa,,,79,18,M,R,
7,7,7,0,0,27,53,2430,['n'],1,right,['9'],5,1075,[-0.11572182],73,53,easy,minus,dotcolour,alfa,,,79,18,M,R,
8,8,8,0,0,36,44,2264,['n'],1,right,['8'],4,1718,[0.03514997],44,44,hard,minus,dotcolour,alfa,,,79,18,M,R,
9,9,9,0,0,53,27,1183,['c'],1,left,['0'],6,675,[0.31910988],97,53,easy,minus,dotcolour,alfa,,,79,18,M,R,
10,10,10,0,0,53,27,1648,['c'],1,left,['0'],6,696,[0.2123307],91,53,easy,minus,dotcolour,alfa,,,79,18,M,R,
11,11,11,0,0,44,36,4449,['n'],0,left,['8'],4,4045,[0.41709721],13,44,hard,minus,dotcolour,alfa,,,79,18,M,R,
12,12,12,0,0,44,36,2549,['c'],1,left,['9'],5,733,[0.27582372],95,44,hard,minus,dotcolour,alfa,,,79,18,M,R,
13,13,13,0,0,33,47,1916,['n'],1,right,['9'],5,932,[-0.3411625],96,47,medium,minus,dotcolour,alfa,,,79,18,M,R,
14,14,14,0,0,36,44,2765,['c'],0,right,['3'],3,779,[0.24594382],92,44,hard,minus,dotcolour,alfa,,,79,18,M,R,
15,15,15,0,0,33,47,2049,['n'],1,right,['8'],4,779,[-0.20096109],89,47,medium,minus,dotcolour,alfa,,,79,18,M,R,
16,16,16,0,0,53,27,1449,['c'],1,left,['9'],5,947,[0.00389975],51,53,easy,minus,dotcolour,alfa,,,79,18,M,R,
17,17,17,0,0,36,44,2284,['n'],1,right,['9'],5,388,[-0.06224737],71,44,hard,minus,dotcolour,alfa,,,79,18,M,R,
18,18,18,0,0,33,47,1381,['n'],1,right,['9'],5,375,[-0.09163472],79,47,medium,minus,dotcolour,alfa,,,79,18,M,R,
19,19,19,0,0,47,33,1032,['c'],1,left,['8'],4,2328,[0.38675321],91,47,medium,minus,dotcolour,alfa,,,79,18,M,R,
20,20,20,0,0,44,36,1850,['c'],1,left,['8'],4,330,[0.06392067],73,44,hard,minus,dotcolour,alfa,,,79,18,M,R,
21,21,21,0,0,36,44,1549,['n'],1,right,['0'],6,521,[-0.02498922],58,44,hard,minus,dotcolour,alfa,,,79,18,M,R,
22,22,22,0,0,47,33,881,['c'],1,left,['0'],6,409,[0.14823753],89,47,medium,minus,dotcolour,alfa,,,79,18,M,R,
23,23,23,0,0,33,47,1082,['n'],1,right,['9'],5,415,[-0.11551601],83,47,medium,minus,dotcolour,alfa,,,79,18,M,R,
24,24,24,0,0,36,44,1415,['c'],0,right,['8'],4,400,[0.11168064],83,44,hard,minus,dotcolour,alfa,,,79,18,M,R,
25,25,25,0,0,53,27,1964,['c'],1,left,['8'],4,371,[0.05124673],68,53,easy,minus,dotcolour,alfa,,,79,18,M,R,
26,26,26,0,0,27,53,1616,['n'],1,right,['0'],6,430,[-0.03239284],61,53,easy,minus,dotcolour,alfa,,,79,18,M,R,
27,27,27,0,0,33,47,1715,['c'],0,right,['3'],3,953,[0.0866485],69,47,medium,minus,dotcolour,alfa,,,79,18,M,R,
28,28,28,0,0,44,36,1665,['c'],1,left,['9'],5,714,[0.04764012],62,44,hard,minus,dotcolour,alfa,,,79,18,M,R,
29,29,29,0,0,53,27,1680,['c'],1,left,['8'],4,444,[0.15420598],89,53,easy,minus,dotcolour,alfa,,,79,18,M,R,
30,30,30,0,0,27,53,965,['n'],1,right,['0'],6,597,[-0.22508949],93,53,easy,minus,dotcolour,alfa,,,79,18,M,R,
31,31,31,0,0,33,47,1982,['c'],0,right,['3'],3,735,[-0.09761498],26,47,medium,minus,dotcolour,alfa,,,79,18,M,R,
32,32,32,0,0,27,53,1180,['n'],1,right,['0'],6,852,[-0.25521061],92,53,easy,minus,dotcolour,alfa,,,79,18,M,R,
33,33,33,0,0,27,53,882,['n'],1,right,['0'],6,263,[-0.00678825],53,53,easy,minus,dotcolour,alfa,,,79,18,M,R,
34,34,34,0,0,47,33,1315,['c'],1,left,['3'],3,378,[0.07004164],74,47,medium,minus,dotcolour,alfa,,,79,18,M,R,
35,35,35,0,0,47,33,3082,['c'],1,left,['0'],6,1145,[0.07088529],64,47,medium,minus,dotcolour,alfa,,,79,18,M,R,
36,36,36,0,0,27,53,5416,['n'],1,right,['8'],4,501,[-0.12698797],83,53,easy,minus,dotcolour,alfa,,,79,18,M,R,
37,37,37,0,0,53,27,1664,['c'],1,left,['0'],6,776,[0.13366264],80,53,easy,minus,dotcolour,alfa,,,79,18,M,R,
38,38,38,0,0,47,33,1098,['c'],1,left,['9'],5,926,[0.30229933],94,47,medium,minus,dotcolour,alfa,,,79,18,M,R,
39,39,39,0,0,47,33,982,['c'],1,left,['8'],4,339,[0.0335941],63,47,medium,minus,dotcolour,alfa,,,79,18,M,R,
40,40,40,0,0,44,36,1549,['n'],0,left,['3'],3,449,[0.00420729],49,44,hard,minus,dotcolour,alfa,,,79,18,M,R,
41,41,41,0,0,47,33,1315,['c'],1,left,['0'],6,1164,[0.09779491],69,47,medium,minus,dotcolour,alfa,,,79,18,M,R,
42,42,0,1,0,47,33,2584,['c'],1,left,['0'],6,501,[-0.03917936],38,47,medium,minus,dotcolour,alfa,,,79,18,M,R,
43,43,1,1,0,27,53,982,['n'],1,right,['0'],6,363,[-0.2016265],95,53,easy,minus,dotcolour,alfa,,,79,18,M,R,
44,44,2,1,0,27,53,1131,['n'],1,right,['0'],6,392,[-0.16668083],92,53,easy,minus,dotcolour,alfa,,,79,18,M,R,
45,45,3,1,0,53,27,749,['c'],1,left,['0'],6,284,[0.20164158],97,53,easy,minus,dotcolour,alfa,,,79,18,M,R,
46,46,4,1,0,44,36,2500,['n'],0,left,['8'],4,534,[-0.00869429],53,44,hard,minus,dotcolour,alfa,,,79,18,M,R,
47,47,5,1,0,33,47,3782,['n'],1,right,['8'],4,412,[-0.20537048],95,47,medium,minus,dotcolour,alfa,,,79,18,M,R,
48,48,6,1,0,33,47,1230,['n'],1,right,['8'],4,308,[-0.15252976],92,47,medium,minus,dotcolour,alfa,,,79,18,M,R,
49,49,7,1,0,36,44,1050,['n'],1,right,['8'],4,239,[-0.10831131],88,44,hard,minus,dotcolour,alfa,,,79,18,M,R,
50,50,8,1,0,36,44,1333,['c'],0,right,['8'],4,489,[0.11079246],81,44,hard,minus,dotcolour,alfa,,,79,18,M,R,
51,51,9,1,0,47,33,899,['c'],1,left,['9'],5,411,[0.0183919],56,47,medium,minus,dotcolour,alfa,,,79,18,M,R,
52,52,10,1,0,53,27,949,['c'],1,left,['0'],6,294,[0.09869596],84,53,easy,minus,dotcolour,alfa,,,79,18,M,R,
53,53,11,1,0,44,36,1698,['c'],1,left,['9'],5,495,[0.0307587],60,44,hard,minus,dotcolour,alfa,,,79,18,M,R,
54,54,12,1,0,36,44,1933,['c'],0,right,['0'],6,536,[-0.06589399],31,44,hard,minus,dotcolour,alfa,,,79,18,M,R,
55,55,13,1,0,47,33,1147,['c'],1,left,['9'],5,462,[0.1386265],86,47,medium,minus,dotcolour,alfa,,,79,18,M,R,
56,56,14,1,0,53,27,1217,['c'],1,left,['9'],5,396,[0.13807681],88,53,easy,minus,dotcolour,alfa,,,79,18,M,R,
57,57,15,1,0,47,33,1066,['c'],1,left,['0'],6,451,[0.05886424],69,47,medium,minus,dotcolour,alfa,,,79,18,M,R,
58,58,16,1,0,27,53,1583,['n'],1,right,['0'],6,460,[0.07851344],26,53,easy,minus,dotcolour,alfa,,,79,18,M,R,
59,59,17,1,0,33,47,3832,['c'],0,right,['8'],4,1234,[0.12287634],73,47,medium,minus,dotcolour,alfa,,,79,18,M,R,
60,60,18,1,0,27,53,2584,['c'],0,right,['8'],4,298,[-0.00171204],49,53,easy,minus,dotcolour,alfa,,,79,18,M,R,
61,61,19,1,0,33,47,1050,['n'],1,right,['9'],5,326,[-0.08577429],79,47,medium,minus,dotcolour,alfa,,,79,18,M,R,
62,62,20,1,0,44,36,1033,['c'],1,left,['9'],5,249,[0.05151144],72,44,hard,minus,dotcolour,alfa,,,79,18,M,R,
63,63,21,1,0,44,36,3549,['c'],1,left,['8'],4,395,[0.06736471],72,44,hard,minus,dotcolour,alfa,,,79,18,M,R,
64,64,22,1,0,36,44,1266,['c'],0,right,['8'],4,282,[0.10889997],86,44,hard,minus,dotcolour,alfa,,,79,18,M,R,
65,65,23,1,0,27,53,1514,['n'],1,right,['9'],5,532,[-0.13153754],84,53,easy,minus,dotcolour,alfa,,,79,18,M,R,
66,66,24,1,0,33,47,1114,['n'],1,right,['9'],5,252,[-0.08875838],83,47,medium,minus,dotcolour,alfa,,,79,18,M,R,
67,67,25,1,0,53,27,1882,['c'],1,left,['0'],6,368,[0.16168666],92,53,easy,minus,dotcolour,alfa,,,79,18,M,R,
68,68,26,1,0,36,44,1499,['n'],1,right,['0'],6,535,[-0.02782016],58,44,hard,minus,dotcolour,alfa,,,79,18,M,R,
69,69,27,1,0,53,27,1816,['c'],1,left,['0'],6,707,[0.03370514],59,53,easy,minus,dotcolour,alfa,,,79,18,M,R,
70,70,28,1,0,47,33,1215,['c'],1,left,['0'],6,655,[0.02768227],58,47,medium,minus,dotcolour,alfa,,,79,18,M,R,
71,71,29,1,0,47,33,2216,['n'],0,left,['8'],4,4214,[0.72716189],4,47,medium,minus,dotcolour,alfa,,,79,18,M,R,
72,72,30,1,0,36,44,4381,['n'],1,right,['0'],6,519,[-0.19700769],92,44,hard,minus,dotcolour,alfa,,,79,18,M,R,
73,73,31,1,0,44,36,3581,['c'],1,left,['9'],5,637,[0.02639567],57,44,hard,minus,dotcolour,alfa,,,79,18,M,R,
74,74,32,1,0,33,47,983,['n'],1,right,['0'],6,637,[-0.10061398],76,47,medium,minus,dotcolour,alfa,,,79,18,M,R,
75,75,33,1,0,33,47,2781,['c'],0,right,['8'],4,422,[-0.00245042],49,47,medium,minus,dotcolour,alfa,,,79,18,M,R,
76,76,34,1,0,27,53,1015,['n'],1,right,['0'],6,333,[-0.17127487],94,53,easy,minus,dotcolour,alfa,,,79,18,M,R,
77,77,35,1,0,27,53,882,['n'],1,right,['9'],5,366,[-0.03180085],62,53,easy,minus,dotcolour,alfa,,,79,18,M,R,
78,78,36,1,0,47,33,966,['c'],1,left,['0'],6,291,[0.10912297],86,47,medium,minus,dotcolour,alfa,,,79,18,M,R,
79,79,37,1,0,36,44,1249,['n'],1,right,['0'],6,310,[-0.04716901],68,44,hard,minus,dotcolour,alfa,,,79,18,M,R,
80,80,38,1,0,53,27,782,['c'],1,left,['0'],6,332,[0.19115459],95,53,easy,minus,dotcolour,alfa,,,79,18,M,R,
81,81,39,1,0,53,27,914,['c'],1,left,['0'],6,500,[0.11202458],81,53,easy,minus,dotcolour,alfa,,,79,18,M,R,
82,82,40,1,0,44,36,1016,['c'],1,left,['0'],6,265,[0.20730021],97,44,hard,minus,dotcolour,alfa,,,79,18,M,R,
83,83,41,1,0,44,36,1316,['c'],1,left,['0'],6,283,[0.12800273],90,44,hard,minus,dotcolour,alfa,,,79,18,M,R,
84,84,0,2,0,27,53,1667,['n'],1,right,['0'],6,395,[-0.22598499],96,53,easy,minus,dotcolour,alfa,,,79,18,M,R,
85,85,1,2,0,33,47,2199,['n'],1,right,['9'],5,620,[-0.16216048],86,47,medium,minus,dotcolour,alfa,,,79,18,M,R,
86,86,2,2,0,27,53,632,['n'],1,right,['0'],6,227,[-0.13556078],93,53,easy,minus,dotcolour,alfa,,,79,18,M,R,
87,87,3,2,0,33,47,765,['n'],1,right,['0'],6,237,[-0.0801303],81,47,medium,minus,dotcolour,alfa,,,79,18,M,R,
88,88,4,2,0,36,44,2582,['c'],0,right,['8'],4,342,[0.03442254],63,44,hard,minus,dotcolour,alfa,,,79,18,M,R,
89,89,5,2,0,53,27,965,['c'],1,left,['8'],4,275,[0.14295187],92,53,easy,minus,dotcolour,alfa,,,79,18,M,R,
90,90,6,2,0,27,53,1049,['n'],1,right,['0'],6,255,[-0.06719926],77,53,easy,minus,dotcolour,alfa,,,79,18,M,R,
91,91,7,2,0,53,27,882,['c'],1,left,['0'],6,267,[0.19444052],97,53,easy,minus,dotcolour,alfa,,,79,18,M,R,
92,92,8,2,0,47,33,1381,['c'],1,left,['0'],6,243,[0.07863877],81,47,medium,minus,dotcolour,alfa,,,79,18,M,R,
93,93,9,2,0,47,33,765,['c'],1,left,['0'],6,244,[-0.01158432],45,47,medium,minus,dotcolour,alfa,,,79,18,M,R,
94,94,10,2,0,36,44,2600,['c'],0,right,['8'],4,244,[0.05592746],73,44,hard,minus,dotcolour,alfa,,,79,18,M,R,
95,95,11,2,0,36,44,1014,['n'],1,right,['0'],6,259,[-0.07059907],78,44,hard,minus,dotcolour,alfa,,,79,18,M,R,
96,96,12,2,0,27,53,716,['c'],0,right,['0'],6,277,[0.04944104],70,53,easy,minus,dotcolour,alfa,,,79,18,M,R,
97,97,13,2,0,44,36,1115,['c'],1,left,['0'],6,295,[0.08204708],80,44,hard,minus,dotcolour,alfa,,,79,18,M,R,
98,98,14,2,0,33,47,2013,['c'],0,right,['8'],4,532,[0.07174431],71,47,medium,minus,dotcolour,alfa,,,79,18,M,R,
99,99,15,2,0,53,27,1132,['c'],1,left,['9'],5,339,[0.15562924],92,53,easy,minus,dotcolour,alfa,,,79,18,M,R,
100,100,16,2,0,44,36,1599,['c'],1,left,['9'],5,287,[0.17315255],95,44,hard,minus,dotcolour,alfa,,,79,18,M,R,
101,101,17,2,0,44,36,800,['c'],1,left,['0'],6,574,[0.11702352],80,44,hard,minus,dotcolour,alfa,,,79,18,M,R,
102,102,18,2,0,53,27,1599,['c'],1,left,['9'],5,520,[0.13541951],84,53,easy,minus,dotcolour,alfa,,,79,18,M,R,
103,103,19,2,0,36,44,1348,['n'],1,right,['8'],4,919,[-0.08758424],69,44,hard,minus,dotcolour,alfa,,,79,18,M,R,
104,104,20,2,0,36,44,998,['c'],0,right,['8'],4,363,[-0.05296109],31,44,hard,minus,dotcolour,alfa,,,79,18,M,R,
105,105,21,2,0,27,53,1647,['n'],1,right,['0'],6,604,[-0.12539381],81,53,easy,minus,dotcolour,alfa,,,79,18,M,R,
106,106,22,2,0,53,27,1065,['c'],1,left,['0'],6,467,[0.15960855],89,53,easy,minus,dotcolour,alfa,,,79,18,M,R,
107,107,23,2,0,44,36,882,['c'],1,left,['9'],5,655,[-0.02727304],42,44,hard,minus,dotcolour,alfa,,,79,18,M,R,
108,108,24,2,0,33,47,1547,['n'],1,right,['8'],4,560,[-0.14742628],85,47,medium,minus,dotcolour,alfa,,,79,18,M,R,
109,109,25,2,0,53,27,917,['c'],1,left,['8'],4,174,[0.06803476],81,53,easy,minus,dotcolour,alfa,,,79,18,M,R,
110,110,26,2,0,44,36,3931,['c'],1,left,['8'],4,276,[-0.01125019],45,44,hard,minus,dotcolour,alfa,,,79,18,M,R,
111,111,27,2,0,33,47,947,['n'],1,right,['8'],4,196,[-0.1058359],90,47,medium,minus,dotcolour,alfa,,,79,18,M,R,
112,112,28,2,0,47,33,816,['c'],1,left,['0'],6,973,[0.22302495],88,47,medium,minus,dotcolour,alfa,,,79,18,M,R,
113,113,29,2,0,33,47,1198,['n'],1,right,['0'],6,279,[-0.0651737],75,47,medium,minus,dotcolour,alfa,,,79,18,M,R,
114,114,30,2,0,47,33,1315,['c'],1,left,['9'],5,537,[0.22917482],94,47,medium,minus,dotcolour,alfa,,,79,18,M,R,
115,115,31,2,0,47,33,1416,['c'],1,left,['0'],6,268,[0.10905147],87,47,medium,minus,dotcolour,alfa,,,79,18,M,R,
116,116,32,2,0,44,36,1282,['c'],1,left,['0'],6,248,[0.05028903],71,44,hard,minus,dotcolour,alfa,,,79,18,M,R,
117,117,33,2,0,53,27,665,['c'],1,left,['0'],6,261,[0.18700655],96,53,easy,minus,dotcolour,alfa,,,79,18,M,R,
118,118,34,2,0,27,53,1348,['n'],1,right,['0'],6,446,[-0.12943925],85,53,easy,minus,dotcolour,alfa,,,79,18,M,R,
119,119,35,2,0,44,36,1132,['c'],1,left,['0'],6,272,[0.11416988],88,44,hard,minus,dotcolour,alfa,,,79,18,M,R,
120,120,36,2,0,33,47,915,['n'],1,right,['0'],6,282,[-0.22400432],98,47,medium,minus,dotcolour,alfa,,,79,18,M,R,
121,121,37,2,0,27,53,765,['n'],1,right,['0'],6,282,[0.00576509],48,53,easy,minus,dotcolour,alfa,,,79,18,M,R,
122,122,38,2,0,47,33,1733,['c'],1,left,['9'],5,347,[0.03064061],61,47,medium,minus,dotcolour,alfa,,,79,18,M,R,
123,123,39,2,0,36,44,1116,['n'],1,right,['9'],5,610,[-0.07958712],71,44,hard,minus,dotcolour,alfa,,,79,18,M,R,
124,124,40,2,0,36,44,1831,['n'],1,right,['9'],5,273,[-0.1338622],91,44,hard,minus,dotcolour,alfa,,,79,18,M,R,
125,125,41,2,0,47,33,1165,['c'],1,left,['9'],5,393,[0.11237229],83,47,medium,minus,dotcolour,alfa,,,79,18,M,R,
126,0,0,3,1,44,36,1000,['c'],1,left,['9'],5,349,[-0.02163343],21,44,hard,plus,dotcolour,alfa,,,79,18,M,R,
127,1,1,3,1,27,53,866,['n'],1,right,['0'],6,470,[-0.02550176],79,53,easy,plus,dotcolour,alfa,,,79,18,M,R,
128,2,2,3,1,27,53,1148,['n'],1,right,['0'],6,334,[-0.10203703],100,53,easy,plus,dotcolour,alfa,,,79,18,M,R,
129,3,3,3,1,44,36,2632,['n'],0,left,['8'],4,242,[-0.02908247],89,44,hard,plus,dotcolour,alfa,,,79,18,M,R,
130,4,4,3,1,33,47,1283,['n'],1,right,['9'],5,710,[-0.04762166],88,47,medium,plus,dotcolour,alfa,,,79,18,M,R,
131,5,5,3,1,44,36,1932,['n'],0,left,['8'],4,549,[-0.1075498],99,44,hard,plus,dotcolour,alfa,,,79,18,M,R,
132,6,6,3,1,27,53,1748,['n'],1,right,['0'],6,267,[-0.1672291],100,53,easy,plus,dotcolour,alfa,,,79,18,M,R,
133,7,7,3,1,53,27,947,['c'],1,left,['0'],6,324,[0.15030169],100,53,easy,plus,dotcolour,alfa,,,79,18,M,R,
134,8,8,3,1,47,33,947,['c'],1,left,['0'],6,210,[0.11364295],100,47,medium,plus,dotcolour,alfa,,,79,18,M,R,
135,9,9,3,1,33,47,1582,['n'],1,right,['8'],4,364,[-0.08598692],99,47,medium,plus,dotcolour,alfa,,,79,18,M,R,
136,10,10,3,1,47,33,1264,['c'],1,left,['0'],6,396,[0.16653133],100,47,medium,plus,dotcolour,alfa,,,79,18,M,R,
137,11,11,3,1,36,44,1114,['c'],0,right,['0'],6,281,[-0.02618682],14,44,hard,plus,dotcolour,alfa,,,79,18,M,R,
138,12,12,3,1,36,44,2799,['c'],0,right,['8'],4,328,[0.05427768],97,44,hard,plus,dotcolour,alfa,,,79,18,M,R,
139,13,13,3,1,53,27,1597,['c'],1,left,['8'],4,261,[0.03425686],92,53,easy,plus,dotcolour,alfa,,,79,18,M,R,
140,14,14,3,1,36,44,2714,['n'],1,right,['8'],4,231,[-0.0352087],93,44,hard,plus,dotcolour,alfa,,,79,18,M,R,
141,15,15,3,1,33,47,1564,['c'],0,right,['8'],4,209,[0.05342187],99,47,medium,plus,dotcolour,alfa,,,79,18,M,R,
142,16,16,3,1,36,44,1049,['n'],1,right,['8'],4,216,[-0.2169228],100,44,hard,plus,dotcolour,alfa,,,79,18,M,R,
143,17,17,3,1,53,27,932,['c'],1,left,['0'],6,227,[0.0313826],91,53,easy,plus,dotcolour,alfa,,,79,18,M,R,
144,18,18,3,1,33,47,2800,['c'],0,right,['9'],5,444,[0.00708519],59,47,medium,plus,dotcolour,alfa,,,79,18,M,R,
145,19,19,3,1,47,33,2232,['c'],1,left,['8'],4,251,[0.10300921],100,47,medium,plus,dotcolour,alfa,,,79,18,M,R,
146,20,20,3,1,44,36,1566,['c'],1,left,['8'],4,251,[0.1129815],100,44,hard,plus,dotcolour,alfa,,,79,18,M,R,
147,21,21,3,1,44,36,898,['c'],1,left,['8'],4,214,[0.09566364],100,44,hard,plus,dotcolour,alfa,,,79,18,M,R,
148,22,22,3,1,27,53,947,['n'],1,right,['0'],6,217,[-0.07141894],100,53,easy,plus,dotcolour,alfa,,,79,18,M,R,
149,23,23,3,1,53,27,1148,['c'],1,left,['8'],4,197,[0.06506726],99,53,easy,plus,dotcolour,alfa,,,79,18,M,R,
150,24,24,3,1,44,36,981,['c'],1,left,['8'],4,239,[0.13336754],100,44,hard,plus,dotcolour,alfa,,,79,18,M,R,
151,25,25,3,1,33,47,1365,['n'],1,right,['0'],6,208,[-0.03688721],95,47,medium,plus,dotcolour,alfa,,,79,18,M,R,
152,26,26,3,1,27,53,766,['c'],0,right,['1'],1,2580,[-0.26830591],0,53,easy,plus,dotcolour,alfa,,,79,18,M,R,
153,27,27,3,1,47,33,14748,['c'],1,left,['9'],5,1089,[0.27343252],100,47,medium,plus,dotcolour,alfa,,,79,18,M,R,
154,28,28,3,1,53,27,1482,['c'],1,left,['9'],5,435,[0.18071155],100,53,easy,plus,dotcolour,alfa,,,79,18,M,R,
155,29,29,3,1,27,53,1516,['c'],0,right,['8'],4,407,[0.00806208],61,53,easy,plus,dotcolour,alfa,,,79,18,M,R,
156,30,30,3,1,33,47,1198,['n'],1,right,['9'],5,319,[-0.09239879],100,47,medium,plus,dotcolour,alfa,,,79,18,M,R,
157,31,31,3,1,47,33,864,['c'],1,left,['0'],6,298,[0.05336515],97,47,medium,plus,dotcolour,alfa,,,79,18,M,R,
158,32,32,3,1,36,44,1698,['n'],1,right,['9'],5,211,[-0.10496676],100,44,hard,plus,dotcolour,alfa,,,79,18,M,R,
159,33,33,3,1,36,44,1199,['c'],0,right,['9'],5,221,[0.11240137],100,44,hard,plus,dotcolour,alfa,,,79,18,M,R,
160,34,34,3,1,36,44,965,['n'],1,right,['8'],4,167,[-0.01138629],73,44,hard,plus,dotcolour,alfa,,,79,18,M,R,
161,35,35,3,1,27,53,965,['n'],1,right,['0'],6,179,[-0.10666087],100,53,easy,plus,dotcolour,alfa,,,79,18,M,R,
162,36,36,3,1,47,33,747,['c'],1,left,['0'],6,208,[0.06669778],99,47,medium,plus,dotcolour,alfa,,,79,18,M,R,
163,37,37,3,1,44,36,1697,['c'],1,left,['9'],5,237,[0.0972094],100,44,hard,plus,dotcolour,alfa,,,79,18,M,R,
164,38,38,3,1,53,27,1198,['c'],1,left,['8'],4,333,[0.1316278],100,53,easy,plus,dotcolour,alfa,,,79,18,M,R,
165,39,39,3,1,47,33,2547,['c'],1,left,['8'],4,195,[0.09469903],100,47,medium,plus,dotcolour,alfa,,,79,18,M,R,
166,40,40,3,1,53,27,980,['c'],1,left,['8'],4,222,[0.08875845],100,53,easy,plus,dotcolour,alfa,,,79,18,M,R,
167,41,41,3,1,33,47,1248,['n'],1,right,['8'],4,173,[-0.09790873],100,47,medium,plus,dotcolour,alfa,,,79,18,M,R,
168,42,0,4,1,47,33,1316,['c'],1,left,['9'],5,259,[0.13842346],100,47,medium,plus,dotcolour,alfa,,,79,18,M,R,
169,43,1,4,1,27,53,815,['n'],1,right,['0'],6,337,[-0.03122079],87,53,easy,plus,dotcolour,alfa,,,79,18,M,R,
170,44,2,4,1,36,44,916,['n'],1,right,['9'],5,385,[-0.01935836],75,44,hard,plus,dotcolour,alfa,,,79,18,M,R,
171,45,3,4,1,53,27,732,['c'],1,left,['9'],5,278,[0.0750996],99,53,easy,plus,dotcolour,alfa,,,79,18,M,R,
172,46,4,4,1,44,36,5747,['c'],1,left,['0'],6,415,[0.15018176],100,44,hard,plus,dotcolour,alfa,,,79,18,M,R,
173,47,5,4,1,27,53,682,['n'],1,right,['9'],5,252,[-0.1379561],100,53,easy,plus,dotcolour,alfa,,,79,18,M,R,
174,48,6,4,1,53,27,732,['c'],1,left,['0'],6,198,[0.11500275],100,53,easy,plus,dotcolour,alfa,,,79,18,M,R,
175,49,7,4,1,36,44,616,['n'],1,right,['0'],6,239,[-0.07183107],99,44,hard,plus,dotcolour,alfa,,,79,18,M,R,
176,50,8,4,1,36,44,1616,['n'],1,right,['8'],4,111,[-0.10098061],100,44,hard,plus,dotcolour,alfa,,,79,18,M,R,
177,51,9,4,1,53,27,1015,['c'],1,left,['0'],6,187,[0.10513743],100,53,easy,plus,dotcolour,alfa,,,79,18,M,R,
178,52,10,4,1,33,47,816,['n'],1,right,['0'],6,140,[-0.08528595],100,47,medium,plus,dotcolour,alfa,,,79,18,M,R,
179,53,11,4,1,44,36,1281,['n'],0,left,['8'],4,109,[-0.01916001],89,44,hard,plus,dotcolour,alfa,,,79,18,M,R,
180,54,12,4,1,47,33,1131,['c'],1,left,['8'],4,165,[0.14255722],100,47,medium,plus,dotcolour,alfa,,,79,18,M,R,
181,55,13,4,1,36,44,966,['c'],0,right,['8'],4,265,[0.03663525],93,44,hard,plus,dotcolour,alfa,,,79,18,M,R,
182,56,14,4,1,27,53,1415,['c'],0,right,['8'],4,599,[-0.18536053],0,53,easy,plus,dotcolour,alfa,,,79,18,M,R,
183,57,15,4,1,36,44,9199,['c'],0,right,['8'],4,186,[0.0104603],71,44,hard,plus,dotcolour,alfa,,,79,18,M,R,
184,58,16,4,1,44,36,916,['c'],1,left,['8'],4,200,[0.06578243],100,44,hard,plus,dotcolour,alfa,,,79,18,M,R,
185,59,17,4,1,44,36,1316,['c'],1,left,['8'],4,253,[0.1515194],100,44,hard,plus,dotcolour,alfa,,,79,18,M,R,
186,60,18,4,1,33,47,2731,['n'],1,right,['8'],4,135,[-0.09636184],100,47,medium,plus,dotcolour,alfa,,,79,18,M,R,
187,61,19,4,1,44,36,2366,['c'],1,left,['8'],4,197,[0.13377884],100,44,hard,plus,dotcolour,alfa,,,79,18,M,R,
188,62,20,4,1,53,27,767,['c'],1,left,['0'],6,399,[0.20486091],100,53,easy,plus,dotcolour,alfa,,,79,18,M,R,
189,63,21,4,1,36,44,799,['n'],1,right,['0'],6,161,[-0.03327327],95,44,hard,plus,dotcolour,alfa,,,79,18,M,R,
190,64,22,4,1,53,27,698,['c'],1,left,['0'],6,192,[0.13926092],100,53,easy,plus,dotcolour,alfa,,,79,18,M,R,
191,65,23,4,1,33,47,1298,['n'],1,right,['0'],6,142,[-0.0984928],100,47,medium,plus,dotcolour,alfa,,,79,18,M,R,
192,66,24,4,1,27,53,649,['n'],1,right,['0'],6,200,[-0.11261762],100,53,easy,plus,dotcolour,alfa,,,79,18,M,R,
193,67,25,4,1,33,47,1082,['n'],1,right,['0'],6,190,[-0.12546763],100,47,medium,plus,dotcolour,alfa,,,79,18,M,R,
194,68,26,4,1,47,33,831,['c'],1,left,['0'],6,174,[0.04937405],99,47,medium,plus,dotcolour,alfa,,,79,18,M,R,
195,69,27,4,1,36,44,949,['c'],0,right,['0'],6,204,[0.11588951],100,44,hard,plus,dotcolour,alfa,,,79,18,M,R,
196,70,28,4,1,47,33,615,['c'],1,left,['0'],6,196,[0.06600986],100,47,medium,plus,dotcolour,alfa,,,79,18,M,R,
197,71,29,4,1,33,47,1532,['n'],1,right,['0'],6,129,[-0.05069601],99,47,medium,plus,dotcolour,alfa,,,79,18,M,R,
198,72,30,4,1,47,33,930,['c'],1,left,['0'],6,168,[0.12193269],100,47,medium,plus,dotcolour,alfa,,,79,18,M,R,
199,73,31,4,1,47,33,1398,['n'],0,left,['0'],6,115,[-0.04059489],99,47,medium,plus,dotcolour,alfa,,,79,18,M,R,
200,74,32,4,1,27,53,915,['c'],0,right,['0'],6,147,[0.039438],98,53,easy,plus,dotcolour,alfa,,,79,18,M,R,
201,75,33,4,1,27,53,948,['c'],0,right,['0'],6,145,[0.0173864],84,53,easy,plus,dotcolour,alfa,,,79,18,M,R,
202,76,34,4,1,33,47,3432,['c'],0,right,['8'],4,123,[0.02476107],93,47,medium,plus,dotcolour,alfa,,,79,18,M,R,
203,77,35,4,1,44,36,1816,['c'],1,left,['0'],6,136,[0.02858848],94,44,hard,plus,dotcolour,alfa,,,79,18,M,R,
204,78,36,4,1,53,27,981,['c'],1,left,['0'],6,149,[0.06433618],100,53,easy,plus,dotcolour,alfa,,,79,18,M,R,
205,79,37,4,1,47,33,682,['c'],1,left,['0'],6,165,[0.09409959],100,47,medium,plus,dotcolour,alfa,,,79,18,M,R,
206,80,38,4,1,44,36,765,['c'],1,left,['0'],6,129,[0.11140223],100,44,hard,plus,dotcolour,alfa,,,79,18,M,R,
207,81,39,4,1,33,47,982,['n'],1,right,['0'],6,126,[-0.06736769],100,47,medium,plus,dotcolour,alfa,,,79,18,M,R,
208,82,40,4,1,53,27,781,['c'],1,left,['0'],6,139,[0.0703006],100,53,easy,plus,dotcolour,alfa,,,79,18,M,R,
209,83,41,4,1,27,53,982,['n'],1,right,['0'],6,128,[-0.12178755],100,53,easy,plus,dotcolour,alfa,,,79,18,M,R,
210,84,0,5,1,53,27,817,['c'],1,left,['0'],6,155,[0.11224362],100,53,easy,plus,dotcolour,alfa,,,79,18,M,R,
211,85,1,5,1,27,53,933,['n'],1,right,['0'],6,170,[-0.1359837],100,53,easy,plus,dotcolour,alfa,,,79,18,M,R,
212,86,2,5,1,53,27,815,['c'],1,left,['0'],6,180,[0.04940502],99,53,easy,plus,dotcolour,alfa,,,79,18,M,R,
213,87,3,5,1,44,36,798,['c'],1,left,['0'],6,143,[0.10601034],100,44,hard,plus,dotcolour,alfa,,,79,18,M,R,
214,88,4,5,1,53,27,665,['c'],1,left,['0'],6,167,[0.1262223],100,53,easy,plus,dotcolour,alfa,,,79,18,M,R,
215,89,5,5,1,36,44,599,['n'],1,right,['0'],6,194,[-0.01959705],83,44,hard,plus,dotcolour,alfa,,,79,18,M,R,
216,90,6,5,1,44,36,915,['c'],1,left,['0'],6,175,[0.05149423],99,44,hard,plus,dotcolour,alfa,,,79,18,M,R,
217,91,7,5,1,44,36,664,['c'],1,left,['0'],6,183,[0.01390857],76,44,hard,plus,dotcolour,alfa,,,79,18,M,R,
218,92,8,5,1,44,36,666,['c'],1,left,['0'],6,159,[0.05343838],99,44,hard,plus,dotcolour,alfa,,,79,18,M,R,
219,93,9,5,1,36,44,899,['n'],1,right,['0'],6,166,[-0.08553564],100,44,hard,plus,dotcolour,alfa,,,79,18,M,R,
220,94,10,5,1,33,47,547,['n'],1,right,['0'],6,210,[-0.1112185],100,47,medium,plus,dotcolour,alfa,,,79,18,M,R,
221,95,11,5,1,33,47,1599,['c'],0,right,['9'],5,420,[-0.03170587],15,47,medium,plus,dotcolour,alfa,,,79,18,M,R,
222,96,12,5,1,36,44,1132,['n'],1,right,['0'],6,223,[-0.12557099],100,44,hard,plus,dotcolour,alfa,,,79,18,M,R,
223,97,13,5,1,27,53,947,['n'],1,right,['9'],5,241,[-0.06770992],99,53,easy,plus,dotcolour,alfa,,,79,18,M,R,
224,98,14,5,1,44,36,7198,['c'],1,left,['0'],6,266,[0.02715213],87,44,hard,plus,dotcolour,alfa,,,79,18,M,R,
225,99,15,5,1,53,27,866,['c'],1,left,['0'],6,166,[0.11798663],100,53,easy,plus,dotcolour,alfa,,,79,18,M,R,
226,100,16,5,1,53,27,599,['c'],1,left,['0'],6,161,[0.0206548],86,53,easy,plus,dotcolour,alfa,,,79,18,M,R,
227,101,17,5,1,33,47,1031,['n'],1,right,['0'],6,122,[-0.08341214],100,47,medium,plus,dotcolour,alfa,,,79,18,M,R,
228,102,18,5,1,33,47,748,['n'],1,right,['9'],5,241,[-0.07678311],100,47,medium,plus,dotcolour,alfa,,,79,18,M,R,
229,103,19,5,1,44,36,849,['c'],1,left,['0'],6,222,[0.1114532],100,44,hard,plus,dotcolour,alfa,,,79,18,M,R,
230,104,20,5,1,33,47,1366,['c'],0,right,['0'],6,168,[0.12553281],100,47,medium,plus,dotcolour,alfa,,,79,18,M,R,
231,105,21,5,1,36,44,1464,['n'],1,right,['8'],4,777,[-0.08469052],97,44,hard,plus,dotcolour,alfa,,,79,18,M,R,
232,106,22,5,1,47,33,765,['c'],1,left,['0'],6,196,[0.04699528],98,47,medium,plus,dotcolour,alfa,,,79,18,M,R,
233,107,23,5,1,47,33,1101,['c'],1,left,['0'],6,162,[0.06603268],100,47,medium,plus,dotcolour,alfa,,,79,18,M,R,
234,108,24,5,1,33,47,732,['n'],1,right,['0'],6,168,[-0.06957973],100,47,medium,plus,dotcolour,alfa,,,79,18,M,R,
235,109,25,5,1,33,47,2732,['n'],1,right,['8'],4,222,[-0.12695276],100,47,medium,plus,dotcolour,alfa,,,79,18,M,R,
236,110,26,5,1,47,33,1298,['c'],1,left,['9'],5,163,[0.0997343],100,47,medium,plus,dotcolour,alfa,,,79,18,M,R,
237,111,27,5,1,36,44,1415,['n'],1,right,['9'],5,325,[-0.06638736],99,44,hard,plus,dotcolour,alfa,,,79,18,M,R,
238,112,28,5,1,27,53,1598,['n'],1,right,['0'],6,193,[-0.04820908],98,53,easy,plus,dotcolour,alfa,,,79,18,M,R,
239,113,29,5,1,53,27,732,['c'],1,left,['0'],6,214,[0.06766962],99,53,easy,plus,dotcolour,alfa,,,79,18,M,R,
240,114,30,5,1,47,33,1099,['c'],1,left,['0'],6,227,[0.12064142],100,47,medium,plus,dotcolour,alfa,,,79,18,M,R,
241,115,31,5,1,27,53,965,['n'],1,right,['0'],6,180,[-0.13365219],100,53,easy,plus,dotcolour,alfa,,,79,18,M,R,
242,116,32,5,1,44,36,779,['c'],1,left,['0'],6,231,[0.1136241],100,44,hard,plus,dotcolour,alfa,,,79,18,M,R,
243,117,33,5,1,27,53,2514,['c'],0,right,['0'],6,187,[-0.02093123],15,53,easy,plus,dotcolour,alfa,,,79,18,M,R,
244,118,34,5,1,27,53,797,['n'],1,right,['0'],6,246,[-0.11387298],100,53,easy,plus,dotcolour,alfa,,,79,18,M,R,
245,119,35,5,1,47,33,1332,['c'],1,left,['0'],6,152,[0.06851993],100,47,medium,plus,dotcolour,alfa,,,79,18,M,R,
246,120,36,5,1,53,27,750,['c'],1,left,['0'],6,205,[0.09109661],100,53,easy,plus,dotcolour,alfa,,,79,18,M,R,
247,121,37,5,1,47,33,682,['c'],1,left,['0'],6,203,[0.09762893],100,47,medium,plus,dotcolour,alfa,,,79,18,M,R,
248,122,38,5,1,36,44,1066,['n'],1,right,['0'],6,170,[-0.12575985],100,44,hard,plus,dotcolour,alfa,,,79,18,M,R,
249,123,39,5,1,36,44,2566,['n'],1,right,['8'],4,158,[-0.18268153],100,44,hard,plus,dotcolour,alfa,,,79,18,M,R,
250,124,40,5,1,47,33,1400,['n'],0,left,['8'],4,217,[-0.10438044],100,47,medium,plus,dotcolour,alfa,,,79,18,M,R,
251,125,41,5,1,27,53,3498,['c'],0,right,['0'],6,350,[0.16119091],100,53,easy,plus,dotcolour,alfa,,,79,18,M,R,
252,0,0,6,2,53,27,1883,['c'],1,left,['0'],6,275,[0.05287087],71,53,easy,minus,dotcolour,alfa,,,79,18,M,R,
253,1,1,6,2,47,33,5399,['n'],0,left,['8'],4,98,[-0.09625215],94,47,medium,minus,dotcolour,alfa,,,79,18,M,R,
254,2,2,6,2,47,33,898,['c'],1,left,['8'],4,131,[0.02820344],67,47,medium,minus,dotcolour,alfa,,,79,18,M,R,
255,3,3,6,2,33,47,1500,['c'],0,right,['8'],4,140,[0.06044495],81,47,medium,minus,dotcolour,alfa,,,79,18,M,R,
256,4,4,6,2,53,27,1100,['c'],1,left,['0'],6,132,[0.09355264],91,53,easy,minus,dotcolour,alfa,,,79,18,M,R,
257,5,5,6,2,44,36,849,['c'],1,left,['0'],6,135,[0.06331654],83,44,hard,minus,dotcolour,alfa,,,79,18,M,R,
258,6,6,6,2,53,27,1315,['c'],1,left,['0'],6,158,[0.03959096],71,53,easy,minus,dotcolour,alfa,,,79,18,M,R,
259,7,7,6,2,47,33,847,['c'],1,left,['0'],6,112,[0.1152576],96,47,medium,minus,dotcolour,alfa,,,79,18,M,R,
260,8,8,6,2,44,36,615,['c'],1,left,['0'],6,68,[0.09909613],97,44,hard,minus,dotcolour,alfa,,,79,18,M,R,
261,9,9,6,2,33,47,898,['c'],0,right,['0'],6,158,[0.05870188],79,47,medium,minus,dotcolour,alfa,,,79,18,M,R,
262,10,10,6,2,44,36,1499,['c'],1,left,['8'],4,494,[0.05909423],68,44,hard,minus,dotcolour,alfa,,,79,18,M,R,
263,11,11,6,2,36,44,832,['c'],0,right,['8'],4,266,[0.04780852],70,44,hard,minus,dotcolour,alfa,,,79,18,M,R,
264,12,12,6,2,44,36,914,['c'],1,left,['9'],5,356,[0.00179131],51,44,hard,minus,dotcolour,alfa,,,79,18,M,R,
265,13,13,6,2,53,27,899,['c'],1,left,['0'],6,283,[0.12093992],89,53,easy,minus,dotcolour,alfa,,,79,18,M,R,
266,14,14,6,2,44,36,816,['c'],1,left,['0'],6,313,[0.06121935],73,44,hard,minus,dotcolour,alfa,,,79,18,M,R,
267,15,15,6,2,27,53,782,['n'],1,right,['0'],6,255,[-0.01862184],58,53,easy,minus,dotcolour,alfa,,,79,18,M,R,
268,16,16,6,2,53,27,933,['c'],1,left,['0'],6,433,[0.19620147],94,53,easy,minus,dotcolour,alfa,,,79,18,M,R,
269,17,17,6,2,53,27,8432,['c'],1,left,['0'],6,225,[-0.00561831],47,53,easy,minus,dotcolour,alfa,,,79,18,M,R,
270,18,18,6,2,33,47,932,['n'],1,right,['0'],6,179,[-0.09822451],89,47,medium,minus,dotcolour,alfa,,,79,18,M,R,
271,19,19,6,2,27,53,666,['n'],1,right,['0'],6,171,[-0.01980628],61,53,easy,minus,dotcolour,alfa,,,79,18,M,R,
272,20,20,6,2,36,44,897,['c'],0,right,['0'],6,138,[0.05226443],78,44,hard,minus,dotcolour,alfa,,,79,18,M,R,
273,21,21,6,2,33,47,797,['n'],1,right,['0'],6,167,[-0.08235392],86,47,medium,minus,dotcolour,alfa,,,79,18,M,R,
274,22,22,6,2,27,53,615,['n'],1,right,['0'],6,281,[-0.1089421],86,53,easy,minus,dotcolour,alfa,,,79,18,M,R,
275,23,23,6,2,36,44,2316,['n'],1,right,['8'],4,131,[-0.14870864],98,44,hard,minus,dotcolour,alfa,,,79,18,M,R,
276,24,24,6,2,36,44,3334,['n'],1,right,['8'],4,74,[-0.06972794],91,44,hard,minus,dotcolour,alfa,,,79,18,M,R,
277,25,25,6,2,47,33,780,['c'],1,left,['8'],4,177,[0.08672546],86,47,medium,minus,dotcolour,alfa,,,79,18,M,R,
278,26,26,6,2,44,36,1931,['n'],0,left,['9'],5,270,[-0.09234931],83,44,hard,minus,dotcolour,alfa,,,79,18,M,R,
279,27,27,6,2,33,47,1197,['n'],1,right,['9'],5,277,[-0.11702642],88,47,medium,minus,dotcolour,alfa,,,79,18,M,R,
280,28,28,6,2,36,44,1865,['n'],1,right,['9'],5,249,[-0.03851558],67,44,hard,minus,dotcolour,alfa,,,79,18,M,R,
281,29,29,6,2,27,53,748,['n'],1,right,['0'],6,242,[-0.08514166],83,53,easy,minus,dotcolour,alfa,,,79,18,M,R,
282,30,30,6,2,36,44,715,['n'],1,right,['0'],6,141,[-0.11851032],94,44,hard,minus,dotcolour,alfa,,,79,18,M,R,
283,31,31,6,2,33,47,1015,['c'],0,right,['0'],6,104,[0.07028426],88,47,medium,minus,dotcolour,alfa,,,79,18,M,R,
284,32,32,6,2,33,47,1131,['c'],0,right,['0'],6,168,[0.03070211],66,47,medium,minus,dotcolour,alfa,,,79,18,M,R,
285,33,33,6,2,47,33,2949,['c'],1,left,['0'],6,165,[0.06449022],81,47,medium,minus,dotcolour,alfa,,,79,18,M,R,
286,34,34,6,2,36,44,2381,['n'],1,right,['8'],4,265,[-0.0823918],81,44,hard,minus,dotcolour,alfa,,,79,18,M,R,
287,35,35,6,2,27,53,850,['c'],0,right,['1'],1,2654,[-0.57445676],4,53,easy,minus,dotcolour,alfa,,,79,18,M,R,
288,36,36,6,2,53,27,3197,['c'],1,left,['0'],6,606,[0.15332433],85,53,easy,minus,dotcolour,alfa,,,79,18,M,R,
289,37,37,6,2,27,53,1433,['n'],1,right,['0'],6,517,[-0.17246829],90,53,easy,minus,dotcolour,alfa,,,79,18,M,R,
290,38,38,6,2,27,53,2599,['n'],1,right,['0'],6,306,[-0.05268754],70,53,easy,minus,dotcolour,alfa,,,79,18,M,R,
291,39,39,6,2,44,36,1315,['c'],1,left,['0'],6,635,[0.07903977],71,44,hard,minus,dotcolour,alfa,,,79,18,M,R,
292,40,40,6,2,47,33,1032,['c'],1,left,['0'],6,258,[0.07070965],78,47,medium,minus,dotcolour,alfa,,,79,18,M,R,
293,41,41,6,2,47,33,2515,['c'],1,left,['8'],4,197,[0.12668517],93,47,medium,minus,dotcolour,alfa,,,79,18,M,R,
294,42,0,7,2,47,33,1099,['c'],1,left,['0'],6,185,[-0.01106387],44,47,medium,minus,dotcolour,alfa,,,79,18,M,R,
295,43,1,7,2,33,47,916,['n'],1,right,['2'],2,879,[-0.20300552],88,47,medium,minus,dotcolour,alfa,,,79,18,M,R,
296,44,2,7,2,44,36,1332,['c'],1,left,['8'],4,1400,[0.1797446],80,44,hard,minus,dotcolour,alfa,,,79,18,M,R,
297,45,3,7,2,53,27,998,['c'],1,left,['0'],6,209,[0.06912357],80,53,easy,minus,dotcolour,alfa,,,79,18,M,R,
298,46,4,7,2,36,44,1033,['n'],1,right,['0'],6,216,[-0.14578223],94,44,hard,minus,dotcolour,alfa,,,79,18,M,R,
299,47,5,7,2,44,36,783,['c'],1,left,['0'],6,162,[0.07676583],85,44,hard,minus,dotcolour,alfa,,,79,18,M,R,
300,48,6,7,2,44,36,799,['c'],1,left,['0'],6,261,[0.07646107],79,44,hard,minus,dotcolour,alfa,,,79,18,M,R,
301,49,7,7,2,33,47,2282,['c'],0,right,['0'],6,265,[0.14560182],93,47,medium,minus,dotcolour,alfa,,,79,18,M,R,
302,50,8,7,2,27,53,1032,['n'],1,right,['0'],6,223,[-0.00699056],53,53,easy,minus,dotcolour,alfa,,,79,18,M,R,
303,51,9,7,2,27,53,815,['n'],1,right,['0'],6,199,[-0.10818479],90,53,easy,minus,dotcolour,alfa,,,79,18,M,R,
304,52,10,7,2,47,33,750,['c'],1,left,['0'],6,203,[0.11977783],92,47,medium,minus,dotcolour,alfa,,,79,18,M,R,
305,53,11,7,2,44,36,1699,['c'],1,left,['0'],6,160,[0.05314432],77,44,hard,minus,dotcolour,alfa,,,79,18,M,R,
306,54,12,7,2,33,47,716,['n'],1,right,['0'],6,174,[-0.01136522],56,47,medium,minus,dotcolour,alfa,,,79,18,M,R,
307,55,13,7,2,53,27,680,['c'],1,left,['0'],6,157,[0.00766758],54,53,easy,minus,dotcolour,alfa,,,79,18,M,R,
308,56,14,7,2,33,47,1316,['n'],1,right,['0'],6,179,[-0.05065101],75,47,medium,minus,dotcolour,alfa,,,79,18,M,R,
309,57,15,7,2,36,44,2550,['n'],1,right,['9'],5,352,[-0.07053154],74,44,hard,minus,dotcolour,alfa,,,79,18,M,R,
310,58,16,7,2,44,36,1448,['c'],1,left,['9'],5,233,[0.02185249],60,44,hard,minus,dotcolour,alfa,,,79,18,M,R,
311,59,17,7,2,36,44,1948,['c'],0,right,['8'],4,148,[0.01857075],61,44,hard,minus,dotcolour,alfa,,,79,18,M,R,
312,60,18,7,2,33,47,1682,['c'],0,right,['9'],5,796,[-0.18286789],14,47,medium,minus,dotcolour,alfa,,,79,18,M,R,
313,61,19,7,2,44,36,3198,['c'],1,left,['0'],6,237,[0.04631199],70,44,hard,minus,dotcolour,alfa,,,79,18,M,R,
314,62,20,7,2,44,36,814,['c'],1,left,['0'],6,213,[0.08892143],85,44,hard,minus,dotcolour,alfa,,,79,18,M,R,
315,63,21,7,2,27,53,1249,['n'],1,right,['0'],6,179,[-0.05903412],78,53,easy,minus,dotcolour,alfa,,,79,18,M,R,
316,64,22,7,2,36,44,982,['n'],1,right,['0'],6,151,[-0.16401279],98,44,hard,minus,dotcolour,alfa,,,79,18,M,R,
317,65,23,7,2,33,47,1183,['n'],1,right,['0'],6,195,[-0.11277243],91,47,medium,minus,dotcolour,alfa,,,79,18,M,R,
318,66,24,7,2,47,33,1066,['c'],1,left,['0'],6,146,[0.0332667],69,47,medium,minus,dotcolour,alfa,,,79,18,M,R,
319,67,25,7,2,53,27,1396,['c'],1,left,['0'],6,189,[0.17810305],98,53,easy,minus,dotcolour,alfa,,,79,18,M,R,
320,68,26,7,2,53,27,848,['c'],1,left,['0'],6,165,[0.09777662],90,53,easy,minus,dotcolour,alfa,,,79,18,M,R,
321,69,27,7,2,27,53,647,['n'],1,right,['0'],6,126,[-0.12613609],96,53,easy,minus,dotcolour,alfa,,,79,18,M,R,
322,70,28,7,2,47,33,731,['c'],1,left,['0'],6,133,[0.09399491],91,47,medium,minus,dotcolour,alfa,,,79,18,M,R,
323,71,29,7,2,53,27,632,['c'],1,left,['0'],6,144,[0.06789455],83,53,easy,minus,dotcolour,alfa,,,79,18,M,R,
324,72,30,7,2,47,33,784,['c'],1,left,['0'],6,181,[0.04841527],74,47,medium,minus,dotcolour,alfa,,,79,18,M,R,
325,73,31,7,2,33,47,3313,['c'],0,right,['8'],4,194,[0.03733969],68,47,medium,minus,dotcolour,alfa,,,79,18,M,R,
326,74,32,7,2,53,27,647,['c'],1,left,['0'],6,202,[0.13843363],94,53,easy,minus,dotcolour,alfa,,,79,18,M,R,
327,75,33,7,2,27,53,2064,['c'],0,right,['9'],5,225,[-0.0107458],45,53,easy,minus,dotcolour,alfa,,,79,18,M,R,
328,76,34,7,2,36,44,949,['c'],0,right,['0'],6,235,[0.09935556],86,44,hard,minus,dotcolour,alfa,,,79,18,M,R,
329,77,35,7,2,47,33,3264,['n'],0,left,['8'],4,177,[-0.09044177],87,47,medium,minus,dotcolour,alfa,,,79,18,M,R,
330,78,36,7,2,47,33,1781,['c'],1,left,['0'],6,260,[0.13952018],92,47,medium,minus,dotcolour,alfa,,,79,18,M,R,
331,79,37,7,2,36,44,1633,['c'],0,right,['9'],5,258,[0.16003649],94,44,hard,minus,dotcolour,alfa,,,79,18,M,R,
332,80,38,7,2,53,27,750,['c'],1,left,['0'],6,204,[0.14896737],95,53,easy,minus,dotcolour,alfa,,,79,18,M,R,
333,81,39,7,2,27,53,798,['n'],1,right,['0'],6,165,[-0.10771022],92,53,easy,minus,dotcolour,alfa,,,79,18,M,R,
334,82,40,7,2,27,53,981,['n'],1,right,['0'],6,137,[-0.08095999],88,53,easy,minus,dotcolour,alfa,,,79,18,M,R,
335,83,41,7,2,36,44,799,['n'],1,right,['0'],6,189,[-0.12669134],93,44,hard,minus,dotcolour,alfa,,,79,18,M,R,
336,84,0,8,2,27,53,901,['n'],1,right,['9'],5,342,[-0.11328112],85,53,easy,minus,dotcolour,alfa,,,79,18,M,R,
337,85,1,8,2,53,27,3397,['c'],1,left,['0'],6,299,[0.16686119],94,53,easy,minus,dotcolour,alfa,,,79,18,M,R,
338,86,2,8,2,47,33,716,['c'],1,left,['0'],6,211,[0.05582891],75,47,medium,minus,dotcolour,alfa,,,79,18,M,R,
339,87,3,8,2,36,44,1448,['n'],1,right,['2'],2,1314,[-0.25288901],88,44,hard,minus,dotcolour,alfa,,,79,18,M,R,
340,88,4,8,2,33,47,2431,['c'],0,right,['9'],5,438,[0.01758556],56,47,medium,minus,dotcolour,alfa,,,79,18,M,R,
341,89,5,8,2,44,36,7117,['c'],1,left,['0'],6,410,[0.1498856],89,44,hard,minus,dotcolour,alfa,,,79,18,M,R,
342,90,6,8,2,44,36,1447,['c'],1,left,['9'],5,538,[0.12147303],82,44,hard,minus,dotcolour,alfa,,,79,18,M,R,
343,91,7,8,2,36,44,948,['c'],0,right,['0'],6,199,[0.03534393],67,44,hard,minus,dotcolour,alfa,,,79,18,M,R,
344,92,8,8,2,33,47,2047,['n'],1,right,['9'],5,311,[-0.02357629],59,47,medium,minus,dotcolour,alfa,,,79,18,M,R,
345,93,9,8,2,53,27,816,['c'],1,left,['0'],6,235,[0.10460456],87,53,easy,minus,dotcolour,alfa,,,79,18,M,R,
346,94,10,8,2,47,33,1216,['c'],1,left,['0'],6,186,[0.1373616],95,47,medium,minus,dotcolour,alfa,,,79,18,M,R,
347,95,11,8,2,27,53,1117,['n'],1,right,['9'],5,399,[-0.05436956],68,53,easy,minus,dotcolour,alfa,,,79,18,M,R,
348,96,12,8,2,27,53,1764,['n'],1,right,['0'],6,410,[-0.11607594],84,53,easy,minus,dotcolour,alfa,,,79,18,M,R,
349,97,13,8,2,53,27,849,['c'],1,left,['0'],6,209,[0.0996003],88,53,easy,minus,dotcolour,alfa,,,79,18,M,R,
350,98,14,8,2,53,27,565,['c'],1,left,['0'],6,132,[0.1014452],93,53,easy,minus,dotcolour,alfa,,,79,18,M,R,
351,99,15,8,2,27,53,1332,['n'],1,right,['0'],6,195,[-0.14293318],95,53,easy,minus,dotcolour,alfa,,,79,18,M,R,
352,100,16,8,2,44,36,830,['c'],1,left,['0'],6,179,[0.10896964],91,44,hard,minus,dotcolour,alfa,,,79,18,M,R,
353,101,17,8,2,27,53,747,['n'],1,right,['0'],6,184,[-0.0223185],61,53,easy,minus,dotcolour,alfa,,,79,18,M,R,
354,102,18,8,2,33,47,2114,['c'],0,right,['0'],6,165,[0.14081418],96,47,medium,minus,dotcolour,alfa,,,79,18,M,R,
355,103,19,8,2,27,53,682,['n'],1,right,['0'],6,133,[-0.07029251],85,53,easy,minus,dotcolour,alfa,,,79,18,M,R,
356,104,20,8,2,33,47,1864,['n'],1,right,['0'],6,143,[-0.10431366],92,47,medium,minus,dotcolour,alfa,,,79,18,M,R,
357,105,21,8,2,36,44,1632,['c'],0,right,['0'],6,937,[0.02845261],57,44,hard,minus,dotcolour,alfa,,,79,18,M,R,
358,106,22,8,2,47,33,1532,['c'],1,left,['0'],6,167,[0.02036406],61,47,medium,minus,dotcolour,alfa,,,79,18,M,R,
359,107,23,8,2,47,33,1199,['c'],1,left,['0'],6,202,[0.12560956],93,47,medium,minus,dotcolour,alfa,,,79,18,M,R,
360,108,24,8,2,44,36,1150,['c'],1,left,['0'],6,270,[0.0837569],81,44,hard,minus,dotcolour,alfa,,,79,18,M,R,
361,109,25,8,2,47,33,1766,['c'],1,left,['8'],4,510,[0.12352554],83,47,medium,minus,dotcolour,alfa,,,79,18,M,R,
362,110,26,8,2,27,53,1248,['n'],1,right,['8'],4,458,[0.00878412],47,53,easy,minus,dotcolour,alfa,,,79,18,M,R,
363,111,27,8,2,47,33,948,['c'],1,left,['9'],5,338,[0.2060474],96,47,medium,minus,dotcolour,alfa,,,79,18,M,R,
364,112,28,8,2,33,47,1948,['n'],1,right,['9'],5,688,[-0.10383228],76,47,medium,minus,dotcolour,alfa,,,79,18,M,R,
365,113,29,8,2,36,44,1198,['c'],0,right,['8'],4,2382,[0.16343918],72,44,hard,minus,dotcolour,alfa,,,79,18,M,R,
366,114,30,8,2,47,33,2631,['c'],1,left,['0'],6,286,[0.10642933],86,47,medium,minus,dotcolour,alfa,,,79,18,M,R,
367,115,31,8,2,44,36,1832,['c'],1,left,['0'],6,220,[0.08273661],83,44,hard,minus,dotcolour,alfa,,,79,18,M,R,
368,116,32,8,2,36,44,933,['c'],0,right,['0'],6,135,[0.04849452],77,44,hard,minus,dotcolour,alfa,,,79,18,M,R,
369,117,33,8,2,44,36,1781,['c'],1,left,['9'],5,340,[0.11788624],86,44,hard,minus,dotcolour,alfa,,,79,18,M,R,
370,118,34,8,2,33,47,1748,['n'],1,right,['3'],3,1706,[-0.47359966],96,47,medium,minus,dotcolour,alfa,,,79,18,M,R,
371,119,35,8,2,44,36,1898,['c'],1,left,['0'],6,331,[7.54059853e-05],50,44,hard,minus,dotcolour,alfa,,,79,18,M,R,
372,120,36,8,2,53,27,849,['c'],1,left,['0'],6,221,[0.03354177],66,53,easy,minus,dotcolour,alfa,,,79,18,M,R,
373,121,37,8,2,33,47,815,['n'],1,right,['0'],6,262,[-0.09693236],85,47,medium,minus,dotcolour,alfa,,,79,18,M,R,
374,122,38,8,2,36,44,1715,['c'],0,right,['0'],6,248,[0.06309417],76,44,hard,minus,dotcolour,alfa,,,79,18,M,R,
375,123,39,8,2,53,27,815,['c'],1,left,['0'],6,191,[0.1902168],98,53,easy,minus,dotcolour,alfa,,,79,18,M,R,
376,124,40,8,2,53,27,631,['c'],1,left,['0'],6,199,[0.07013623],80,53,easy,minus,dotcolour,alfa,,,79,18,M,R,
377,125,41,8,2,36,44,3515,['n'],1,right,['8'],4,277,[-0.13788495],91,44,hard,minus,dotcolour,alfa,,,79,18,M,R,
378,0,0,9,3,33,47,1800,['n'],1,right,['8'],4,1890,[-0.09632258],93,47,medium,plus,dotcolour,alfa,,,79,18,M,R,
379,1,1,9,3,27,53,765,['n'],1,right,['9'],5,241,[-0.05227704],98,53,easy,plus,dotcolour,alfa,,,79,18,M,R,
380,2,2,9,3,53,27,1082,['c'],1,left,['0'],6,277,[0.07794017],100,53,easy,plus,dotcolour,alfa,,,79,18,M,R,
381,3,3,9,3,33,47,1448,['n'],1,right,['9'],5,250,[-0.06364686],99,47,medium,plus,dotcolour,alfa,,,79,18,M,R,
382,4,4,9,3,36,44,933,['n'],1,right,['9'],5,179,[-0.13588406],100,44,hard,plus,dotcolour,alfa,,,79,18,M,R,
383,5,5,9,3,27,53,765,['n'],1,right,['9'],5,175,[-0.12137764],100,53,easy,plus,dotcolour,alfa,,,79,18,M,R,
384,6,6,9,3,27,53,649,['n'],1,right,['9'],5,184,[-0.11432514],100,53,easy,plus,dotcolour,alfa,,,79,18,M,R,
385,7,7,9,3,44,36,732,['c'],1,left,['0'],6,245,[0.04683213],97,44,hard,plus,dotcolour,alfa,,,79,18,M,R,
386,8,8,9,3,44,36,716,['c'],1,left,['9'],5,191,[0.01916419],83,44,hard,plus,dotcolour,alfa,,,79,18,M,R,
387,9,9,9,3,27,53,1116,['n'],1,right,['9'],5,213,[-0.0719435],100,53,easy,plus,dotcolour,alfa,,,79,18,M,R,
388,10,10,9,3,44,36,817,['c'],1,left,['9'],5,173,[0.05278148],99,44,hard,plus,dotcolour,alfa,,,79,18,M,R,
389,11,11,9,3,36,44,1165,['c'],0,right,['8'],4,217,[0.05620611],99,44,hard,plus,dotcolour,alfa,,,79,18,M,R,
390,12,12,9,3,33,47,781,['n'],1,right,['9'],5,379,[-0.19620662],100,47,medium,plus,dotcolour,alfa,,,79,18,M,R,
391,13,13,9,3,44,36,2148,['c'],1,left,['0'],6,215,[0.10575143],100,44,hard,plus,dotcolour,alfa,,,79,18,M,R,
392,14,14,9,3,47,33,1300,['n'],0,left,['0'],6,356,[-0.08417972],99,47,medium,plus,dotcolour,alfa,,,79,18,M,R,
393,15,15,9,3,36,44,3515,['c'],0,right,['0'],6,459,[-0.05677635],5,44,hard,plus,dotcolour,alfa,,,79,18,M,R,
394,16,16,9,3,27,53,965,['n'],1,right,['0'],6,219,[-0.11185645],100,53,easy,plus,dotcolour,alfa,,,79,18,M,R,
395,17,17,9,3,33,47,2083,['n'],1,right,['0'],6,169,[-0.0834477],100,47,medium,plus,dotcolour,alfa,,,79,18,M,R,
396,18,18,9,3,27,53,2032,['n'],1,right,['0'],6,250,[-0.03676511],93,53,easy,plus,dotcolour,alfa,,,79,18,M,R,
397,19,19,9,3,33,47,2081,['c'],0,right,['9'],5,1095,[-0.17066725],0,47,medium,plus,dotcolour,alfa,,,79,18,M,R,
398,20,20,9,3,36,44,7715,['n'],1,right,['8'],4,736,[-0.0625567],93,44,hard,plus,dotcolour,alfa,,,79,18,M,R,
399,21,21,9,3,53,27,1615,['c'],1,left,['0'],6,788,[0.22879058],100,53,easy,plus,dotcolour,alfa,,,79,18,M,R,
400,22,22,9,3,53,27,815,['c'],1,left,['0'],6,180,[0.0770736],100,53,easy,plus,dotcolour,alfa,,,79,18,M,R,
401,23,23,9,3,36,44,1081,['c'],0,right,['0'],6,155,[0.07479656],100,44,hard,plus,dotcolour,alfa,,,79,18,M,R,
402,24,24,9,3,44,36,749,['c'],1,left,['0'],6,177,[0.07841035],100,44,hard,plus,dotcolour,alfa,,,79,18,M,R,
403,25,25,9,3,53,27,748,['c'],1,left,['0'],6,149,[0.03722593],97,53,easy,plus,dotcolour,alfa,,,79,18,M,R,
404,26,26,9,3,47,33,1049,['c'],1,left,['0'],6,143,[0.06733645],100,47,medium,plus,dotcolour,alfa,,,79,18,M,R,
405,27,27,9,3,53,27,765,['c'],1,left,['0'],6,180,[0.15214348],100,53,easy,plus,dotcolour,alfa,,,79,18,M,R,
406,28,28,9,3,47,33,815,['c'],1,left,['0'],6,398,[0.10260863],100,47,medium,plus,dotcolour,alfa,,,79,18,M,R,
407,29,29,9,3,36,44,1332,['n'],1,right,['0'],6,290,[-0.09885253],100,44,hard,plus,dotcolour,alfa,,,79,18,M,R,
408,30,30,9,3,47,33,1015,['c'],1,left,['0'],6,247,[0.04907456],97,47,medium,plus,dotcolour,alfa,,,79,18,M,R,
409,31,31,9,3,36,44,1866,['c'],0,right,['0'],6,132,[0.08587882],100,44,hard,plus,dotcolour,alfa,,,79,18,M,R,
410,32,32,9,3,47,33,1231,['c'],1,left,['0'],6,248,[0.07070593],99,47,medium,plus,dotcolour,alfa,,,79,18,M,R,
411,33,33,9,3,53,27,1132,['c'],1,left,['0'],6,153,[0.1008561],100,53,easy,plus,dotcolour,alfa,,,79,18,M,R,
412,34,34,9,3,47,33,1549,['c'],1,left,['0'],6,127,[0.15380732],100,47,medium,plus,dotcolour,alfa,,,79,18,M,R,
413,35,35,9,3,53,27,866,['c'],1,left,['0'],6,145,[0.08218006],100,53,easy,plus,dotcolour,alfa,,,79,18,M,R,
414,36,36,9,3,44,36,2465,['c'],1,left,['8'],4,322,[0.10977071],100,44,hard,plus,dotcolour,alfa,,,79,18,M,R,
415,37,37,9,3,33,47,1082,['n'],1,right,['0'],6,291,[-0.16903594],100,47,medium,plus,dotcolour,alfa,,,79,18,M,R,
416,38,38,9,3,47,33,749,['c'],1,left,['0'],6,155,[0.10313176],100,47,medium,plus,dotcolour,alfa,,,79,18,M,R,
417,39,39,9,3,27,53,765,['n'],1,right,['0'],6,128,[-0.05548095],100,53,easy,plus,dotcolour,alfa,,,79,18,M,R,
418,40,40,9,3,44,36,1949,['c'],1,left,['9'],5,159,[0.10518546],100,44,hard,plus,dotcolour,alfa,,,79,18,M,R,
419,41,41,9,3,33,47,1133,['c'],0,right,['0'],6,148,[0.02442463],91,47,medium,plus,dotcolour,alfa,,,79,18,M,R,
420,42,0,10,3,47,33,1166,['c'],1,left,['0'],6,176,[0.08518967],100,47,medium,plus,dotcolour,alfa,,,79,18,M,R,
421,43,1,10,3,27,53,867,['n'],1,right,['0'],6,152,[-0.10491949],100,53,easy,plus,dotcolour,alfa,,,79,18,M,R,
422,44,2,10,3,53,27,766,['c'],1,left,['0'],6,133,[0.05889094],100,53,easy,plus,dotcolour,alfa,,,79,18,M,R,
423,45,3,10,3,53,27,865,['c'],1,left,['9'],5,191,[0.06677598],100,53,easy,plus,dotcolour,alfa,,,79,18,M,R,
424,46,4,10,3,53,27,1065,['c'],1,left,['9'],5,373,[0.10923595],100,53,easy,plus,dotcolour,alfa,,,79,18,M,R,
425,47,5,10,3,27,53,781,['n'],1,right,['0'],6,201,[-0.05396632],99,53,easy,plus,dotcolour,alfa,,,79,18,M,R,
426,48,6,10,3,47,33,1531,['c'],1,left,['0'],6,421,[0.12603492],100,47,medium,plus,dotcolour,alfa,,,79,18,M,R,
427,49,7,10,3,53,27,715,['c'],1,left,['0'],6,210,[0.16410051],100,53,easy,plus,dotcolour,alfa,,,79,18,M,R,
428,50,8,10,3,47,33,647,['c'],1,left,['0'],6,216,[0.07683585],100,47,medium,plus,dotcolour,alfa,,,79,18,M,R,
429,51,9,10,3,36,44,649,['c'],0,right,['0'],6,167,[0.14649082],100,44,hard,plus,dotcolour,alfa,,,79,18,M,R,
430,52,10,10,3,33,47,1016,['n'],1,right,['0'],6,354,[-0.17438457],100,47,medium,plus,dotcolour,alfa,,,79,18,M,R,
431,53,11,10,3,53,27,834,['c'],1,left,['0'],6,227,[0.16627057],100,53,easy,plus,dotcolour,alfa,,,79,18,M,R,
432,54,12,10,3,47,33,1081,['c'],1,left,['0'],6,176,[0.13783541],100,47,medium,plus,dotcolour,alfa,,,79,18,M,R,
433,55,13,10,3,27,53,832,['n'],1,right,['0'],6,193,[-0.02820889],91,53,easy,plus,dotcolour,alfa,,,79,18,M,R,
434,56,14,10,3,44,36,3448,['n'],0,left,['3'],3,1553,[0.02327725],34,44,hard,plus,dotcolour,alfa,,,79,18,M,R,
435,57,15,10,3,36,44,1882,['c'],0,right,['9'],5,713,[0.00805325],59,44,hard,plus,dotcolour,alfa,,,79,18,M,R,
436,58,16,10,3,36,44,3063,['n'],1,right,['8'],4,772,[-0.02200096],71,44,hard,plus,dotcolour,alfa,,,79,18,M,R,
437,59,17,10,3,27,53,915,['n'],1,right,['8'],4,234,[-0.07536063],100,53,easy,plus,dotcolour,alfa,,,79,18,M,R,
438,60,18,10,3,47,33,1082,['c'],1,left,['9'],5,223,[0.01987613],82,47,medium,plus,dotcolour,alfa,,,79,18,M,R,
439,61,19,10,3,33,47,1248,['c'],0,right,['9'],5,413,[0.03145139],85,47,medium,plus,dotcolour,alfa,,,79,18,M,R,
440,62,20,10,3,44,36,631,['c'],1,left,['9'],5,149,[0.142734],100,44,hard,plus,dotcolour,alfa,,,79,18,M,R,
441,63,21,10,3,33,47,1032,['c'],0,right,['0'],6,719,[-0.0801283],3,47,medium,plus,dotcolour,alfa,,,79,18,M,R,
442,64,22,10,3,53,27,699,['c'],1,left,['9'],5,240,[0.08580869],100,53,easy,plus,dotcolour,alfa,,,79,18,M,R,
443,65,23,10,3,44,36,648,['c'],1,left,['9'],5,134,[0.02441233],92,44,hard,plus,dotcolour,alfa,,,79,18,M,R,
444,66,24,10,3,36,44,982,['c'],0,right,['9'],5,139,[0.043526],99,44,hard,plus,dotcolour,alfa,,,79,18,M,R,
445,67,25,10,3,36,44,2465,['n'],1,right,['8'],4,220,[-0.02008743],82,44,hard,plus,dotcolour,alfa,,,79,18,M,R,
446,68,26,10,3,33,47,2565,['c'],0,right,['8'],4,143,[0.0451836],99,47,medium,plus,dotcolour,alfa,,,79,18,M,R,
447,69,27,10,3,44,36,897,['c'],1,left,['0'],6,223,[0.16064585],100,44,hard,plus,dotcolour,alfa,,,79,18,M,R,
448,70,28,10,3,33,47,1066,['n'],1,right,['0'],6,117,[-0.10266297],100,47,medium,plus,dotcolour,alfa,,,79,18,M,R,
449,71,29,10,3,33,47,1115,['n'],1,right,['0'],6,2014,[-0.14087475],97,47,medium,plus,dotcolour,alfa,,,79,18,M,R,
450,72,30,10,3,27,53,783,['n'],1,right,['0'],6,287,[-0.14920374],100,53,easy,plus,dotcolour,alfa,,,79,18,M,R,
451,73,31,10,3,44,36,1766,['c'],1,left,['0'],6,134,[0.10848376],100,44,hard,plus,dotcolour,alfa,,,79,18,M,R,
452,74,32,10,3,27,53,815,['n'],1,right,['0'],6,153,[-0.08125409],100,53,easy,plus,dotcolour,alfa,,,79,18,M,R,
453,75,33,10,3,44,36,1116,['c'],1,left,['0'],6,145,[0.06149428],100,44,hard,plus,dotcolour,alfa,,,79,18,M,R,
454,76,34,10,3,47,33,1731,['n'],0,left,['0'],6,151,[0.01171959],25,47,medium,plus,dotcolour,alfa,,,79,18,M,R,
455,77,35,10,3,27,53,1165,['n'],1,right,['0'],6,188,[-0.09889446],100,53,easy,plus,dotcolour,alfa,,,79,18,M,R,
456,78,36,10,3,36,44,1248,['n'],1,right,['0'],6,140,[-0.03159581],95,44,hard,plus,dotcolour,alfa,,,79,18,M,R,
457,79,37,10,3,44,36,800,['c'],1,left,['0'],6,175,[0.0604772],99,44,hard,plus,dotcolour,alfa,,,79,18,M,R,
458,80,38,10,3,36,44,3615,['n'],1,right,['0'],6,281,[-0.172084],100,44,hard,plus,dotcolour,alfa,,,79,18,M,R,
459,81,39,10,3,33,47,2997,['n'],1,right,['8'],4,480,[-0.26741511],100,47,medium,plus,dotcolour,alfa,,,79,18,M,R,
460,82,40,10,3,47,33,1266,['c'],1,left,['0'],6,276,[0.04423777],95,47,medium,plus,dotcolour,alfa,,,79,18,M,R,
461,83,41,10,3,53,27,3749,['c'],1,left,['0'],6,228,[0.12575292],100,53,easy,plus,dotcolour,alfa,,,79,18,M,R,
462,84,0,11,3,53,27,1033,['c'],1,left,['9'],5,195,[0.06139954],99,53,easy,plus,dotcolour,alfa,,,79,18,M,R,
463,85,1,11,3,27,53,798,['n'],1,right,['0'],6,124,[-0.06952979],100,53,easy,plus,dotcolour,alfa,,,79,18,M,R,
464,86,2,11,3,33,47,749,['n'],1,right,['0'],6,122,[-0.071205],100,47,medium,plus,dotcolour,alfa,,,79,18,M,R,
465,87,3,11,3,33,47,849,['n'],1,right,['0'],6,125,[-0.06408797],100,47,medium,plus,dotcolour,alfa,,,79,18,M,R,
466,88,4,11,3,27,53,599,['n'],1,right,['0'],6,145,[-0.15120622],100,53,easy,plus,dotcolour,alfa,,,79,18,M,R,
467,89,5,11,3,44,36,998,['c'],1,left,['9'],5,205,[0.08989084],100,44,hard,plus,dotcolour,alfa,,,79,18,M,R,
468,90,6,11,3,53,27,1066,['c'],1,left,['9'],5,164,[0.10176602],100,53,easy,plus,dotcolour,alfa,,,79,18,M,R,
469,91,7,11,3,27,53,2149,['n'],1,right,['9'],5,329,[-0.09803542],100,53,easy,plus,dotcolour,alfa,,,79,18,M,R,
470,92,8,11,3,33,47,2082,['n'],1,right,['0'],6,1010,[-0.03028794],75,47,medium,plus,dotcolour,alfa,,,79,18,M,R,
471,93,9,11,3,44,36,1166,['n'],0,left,['0'],6,228,[-0.05301708],98,44,hard,plus,dotcolour,alfa,,,79,18,M,R,
472,94,10,11,3,44,36,949,['c'],1,left,['0'],6,215,[0.1455167],100,44,hard,plus,dotcolour,alfa,,,79,18,M,R,
473,95,11,11,3,47,33,848,['c'],1,left,['0'],6,254,[0.09865235],100,47,medium,plus,dotcolour,alfa,,,79,18,M,R,
474,96,12,11,3,36,44,1849,['c'],0,right,['8'],4,635,[0.11061807],99,44,hard,plus,dotcolour,alfa,,,79,18,M,R,
475,97,13,11,3,33,47,1315,['n'],1,right,['8'],4,455,[-0.05738126],96,47,medium,plus,dotcolour,alfa,,,79,18,M,R,
476,98,14,11,3,47,33,3466,['n'],0,left,['8'],4,228,[-0.02845912],90,47,medium,plus,dotcolour,alfa,,,79,18,M,R,
477,99,15,11,3,47,33,664,['c'],1,left,['8'],4,217,[0.07334351],100,47,medium,plus,dotcolour,alfa,,,79,18,M,R,
478,100,16,11,3,44,36,649,['c'],1,left,['8'],4,160,[0.0598452],100,44,hard,plus,dotcolour,alfa,,,79,18,M,R,
479,101,17,11,3,27,53,665,['n'],1,right,['8'],4,169,[-0.08534066],100,53,easy,plus,dotcolour,alfa,,,79,18,M,R,
480,102,18,11,3,47,33,699,['c'],1,left,['8'],4,144,[0.12211157],100,47,medium,plus,dotcolour,alfa,,,79,18,M,R,
481,103,19,11,3,33,47,665,['n'],1,right,['8'],4,153,[0.02096147],13,47,medium,plus,dotcolour,alfa,,,79,18,M,R,
482,104,20,11,3,44,36,932,['c'],1,left,['9'],5,255,[0.15529661],100,44,hard,plus,dotcolour,alfa,,,79,18,M,R,
483,105,21,11,3,53,27,1999,['c'],1,left,['0'],6,367,[0.14925631],100,53,easy,plus,dotcolour,alfa,,,79,18,M,R,
484,106,22,11,3,53,27,1133,['c'],1,left,['0'],6,421,[-0.03648778],12,53,easy,plus,dotcolour,alfa,,,79,18,M,R,
485,107,23,11,3,36,44,831,['c'],0,right,['0'],6,244,[-0.05700334],2,44,hard,plus,dotcolour,alfa,,,79,18,M,R,
486,108,24,11,3,47,33,1565,['c'],1,left,['9'],5,621,[0.13147321],100,47,medium,plus,dotcolour,alfa,,,79,18,M,R,
487,109,25,11,3,27,53,866,['n'],1,right,['0'],6,243,[-0.05920747],99,53,easy,plus,dotcolour,alfa,,,79,18,M,R,
488,110,26,11,3,53,27,866,['c'],1,left,['0'],6,376,[0.15123932],100,53,easy,plus,dotcolour,alfa,,,79,18,M,R,
489,111,27,11,3,27,53,816,['n'],1,right,['0'],6,314,[-0.12326064],100,53,easy,plus,dotcolour,alfa,,,79,18,M,R,
490,112,28,11,3,47,33,1698,['c'],1,left,['9'],5,475,[0.08801958],99,47,medium,plus,dotcolour,alfa,,,79,18,M,R,
491,113,29,11,3,44,36,1797,['c'],1,left,['0'],6,465,[0.15479753],100,44,hard,plus,dotcolour,alfa,,,79,18,M,R,
492,114,30,11,3,53,27,1150,['c'],1,left,['0'],6,202,[0.12223714],100,53,easy,plus,dotcolour,alfa,,,79,18,M,R,
493,115,31,11,3,44,36,733,['c'],1,left,['0'],6,174,[0.07193296],100,44,hard,plus,dotcolour,alfa,,,79,18,M,R,
494,116,32,11,3,36,44,815,['n'],1,right,['9'],5,208,[-0.14084864],100,44,hard,plus,dotcolour,alfa,,,79,18,M,R,
495,117,33,11,3,53,27,731,['c'],1,left,['0'],6,187,[0.05827163],99,53,easy,plus,dotcolour,alfa,,,79,18,M,R,
496,118,34,11,3,36,44,1149,['c'],0,right,['2'],2,1968,[-0.17658668],1,44,hard,plus,dotcolour,alfa,,,79,18,M,R,
497,119,35,11,3,36,44,3465,['c'],0,right,['9'],5,360,[0.06408605],98,44,hard,plus,dotcolour,alfa,,,79,18,M,R,
498,120,36,11,3,36,44,1048,['n'],1,right,['9'],5,145,[-0.07333509],100,44,hard,plus,dotcolour,alfa,,,79,18,M,R,
499,121,37,11,3,36,44,916,['c'],0,right,['0'],6,384,[0.10475752],100,44,hard,plus,dotcolour,alfa,,,79,18,M,R,
500,122,38,11,3,27,53,798,['n'],1,right,['9'],5,410,[-0.2379976],100,53,easy,plus,dotcolour,alfa,,,79,18,M,R,
501,123,39,11,3,33,47,2149,['n'],1,right,['8'],4,269,[-0.06346008],99,47,medium,plus,dotcolour,alfa,,,79,18,M,R,
502,124,40,11,3,33,47,1882,['n'],1,right,['9'],5,601,[-0.14121321],100,47,medium,plus,dotcolour,alfa,,,79,18,M,R,
503,125,41,11,3,47,33,981,['c'],1,left,['0'],6,276,[0.15380873],100,47,medium,plus,dotcolour,alfa,,,79,18,M,R,
504,0,0,12,4,47,33,1300,['c'],1,left,['8'],4,542,[0.13268218],84,47,medium,minus,dotcolour,alfa,,,79,18,M,R,
505,1,1,12,4,36,44,1715,['n'],1,right,['8'],4,3053,[-0.15640629],69,44,hard,minus,dotcolour,alfa,,,79,18,M,R,
506,2,2,12,4,27,53,998,['n'],1,right,['9'],5,428,[-0.19011535],93,53,easy,minus,dotcolour,alfa,,,79,18,M,R,
507,3,3,12,4,27,53,1132,['n'],1,right,['9'],5,182,[-0.09347716],88,53,easy,minus,dotcolour,alfa,,,79,18,M,R,
508,4,4,12,4,36,44,1448,['n'],1,right,['9'],5,239,[-0.1349236],92,44,hard,minus,dotcolour,alfa,,,79,18,M,R,
509,5,5,12,4,27,53,832,['n'],1,right,['9'],5,221,[-0.20578194],98,53,easy,minus,dotcolour,alfa,,,79,18,M,R,
510,6,6,12,4,53,27,682,['c'],1,left,['0'],6,283,[0.0385586],66,53,easy,minus,dotcolour,alfa,,,79,18,M,R,
511,7,7,12,4,47,33,717,['c'],1,left,['0'],6,188,[0.12937326],94,47,medium,minus,dotcolour,alfa,,,79,18,M,R,
512,8,8,12,4,33,47,1148,['n'],1,right,['8'],4,216,[-0.08322369],83,47,medium,minus,dotcolour,alfa,,,79,18,M,R,
513,9,9,12,4,44,36,800,['c'],1,left,['0'],6,249,[0.03974853],67,44,hard,minus,dotcolour,alfa,,,79,18,M,R,
514,10,10,12,4,53,27,630,['c'],1,left,['0'],6,223,[0.08880441],84,53,easy,minus,dotcolour,alfa,,,79,18,M,R,
515,11,11,12,4,53,27,813,['c'],1,left,['0'],6,215,[0.06510609],78,53,easy,minus,dotcolour,alfa,,,79,18,M,R,
516,12,12,12,4,53,27,1048,['c'],1,left,['0'],6,950,[0.28294599],93,53,easy,minus,dotcolour,alfa,,,79,18,M,R,
517,13,13,12,4,33,47,1532,['n'],1,right,['8'],4,236,[-0.1114997],89,47,medium,minus,dotcolour,alfa,,,79,18,M,R,
518,14,14,12,4,47,33,749,['c'],1,left,['9'],5,222,[0.03493626],66,47,medium,minus,dotcolour,alfa,,,79,18,M,R,
519,15,15,12,4,27,53,516,['n'],1,right,['0'],6,146,[-0.0909521],89,53,easy,minus,dotcolour,alfa,,,79,18,M,R,
520,16,16,12,4,44,36,1166,['c'],1,left,['0'],6,199,[0.07480486],82,44,hard,minus,dotcolour,alfa,,,79,18,M,R,
521,17,17,12,4,27,53,4149,['n'],1,right,['9'],5,331,[-0.13742866],90,53,easy,minus,dotcolour,alfa,,,79,18,M,R,
522,18,18,12,4,47,33,815,['c'],1,left,['9'],5,214,[0.14050661],94,47,medium,minus,dotcolour,alfa,,,79,18,M,R,
523,19,19,12,4,36,44,1317,['c'],0,right,['9'],5,243,[0.02616942],62,44,hard,minus,dotcolour,alfa,,,79,18,M,R,
524,20,20,12,4,33,47,798,['c'],0,right,['3'],3,210,[0.05687944],75,47,medium,minus,dotcolour,alfa,,,79,18,M,R,
525,21,21,12,4,53,27,1898,['c'],1,left,['0'],6,368,[0.13821613],89,53,easy,minus,dotcolour,alfa,,,79,18,M,R,
526,22,22,12,4,36,44,2049,['n'],1,right,['0'],6,520,[-0.29019844],97,44,hard,minus,dotcolour,alfa,,,79,18,M,R,
527,23,23,12,4,47,33,8532,['n'],0,left,['9'],5,329,[-0.06399462],73,47,medium,minus,dotcolour,alfa,,,79,18,M,R,
528,24,24,12,4,36,44,931,['c'],0,right,['0'],6,271,[0.01035137],54,44,hard,minus,dotcolour,alfa,,,79,18,M,R,
529,25,25,12,4,47,33,681,['c'],1,left,['0'],6,194,[0.01239123],56,47,medium,minus,dotcolour,alfa,,,79,18,M,R,
530,26,26,12,4,44,36,1165,['c'],1,left,['8'],4,461,[0.08406829],75,44,hard,minus,dotcolour,alfa,,,79,18,M,R,
531,27,27,12,4,33,47,1032,['c'],0,right,['8'],4,315,[0.0730954],76,47,medium,minus,dotcolour,alfa,,,79,18,M,R,
532,28,28,12,4,44,36,2248,['n'],0,left,['9'],5,1070,[0.06277864],37,44,hard,minus,dotcolour,alfa,,,79,18,M,R,
533,29,29,12,4,33,47,982,['c'],0,right,['9'],5,173,[0.11786113],93,47,medium,minus,dotcolour,alfa,,,79,18,M,R,
534,30,30,12,4,44,36,965,['n'],0,left,['9'],5,153,[-0.06514291],82,44,hard,minus,dotcolour,alfa,,,79,18,M,R,
535,31,31,12,4,33,47,650,['c'],0,right,['9'],5,178,[0.07121353],82,47,medium,minus,dotcolour,alfa,,,79,18,M,R,
536,32,32,12,4,47,33,583,['c'],1,left,['8'],4,357,[0.12182088],86,47,medium,minus,dotcolour,alfa,,,79,18,M,R,
537,33,33,12,4,33,47,800,['c'],0,right,['9'],5,328,[0.05306207],70,47,medium,minus,dotcolour,alfa,,,79,18,M,R,
538,34,34,12,4,44,36,1049,['c'],1,left,['8'],4,3987,[0.69740018],96,44,hard,minus,dotcolour,alfa,,,79,18,M,R,
539,35,35,12,4,53,27,1730,['c'],1,left,['9'],5,1287,[0.21015808],84,53,easy,minus,dotcolour,alfa,,,79,18,M,R,
540,36,36,12,4,44,36,948,['c'],1,left,['8'],4,327,[0.173356],94,44,hard,minus,dotcolour,alfa,,,79,18,M,R,
541,37,37,12,4,36,44,848,['c'],0,right,['9'],5,145,[0.02898944],66,44,hard,minus,dotcolour,alfa,,,79,18,M,R,
542,38,38,12,4,53,27,866,['c'],1,left,['0'],6,130,[0.07855116],88,53,easy,minus,dotcolour,alfa,,,79,18,M,R,
543,39,39,12,4,27,53,1199,['n'],1,right,['9'],5,423,[-0.04883654],66,53,easy,minus,dotcolour,alfa,,,79,18,M,R,
544,40,40,12,4,36,44,1681,['n'],1,right,['0'],6,220,[-0.12314391],91,44,hard,minus,dotcolour,alfa,,,79,18,M,R,
545,41,41,12,4,27,53,948,['n'],1,right,['0'],6,231,[0.00219711],49,53,easy,minus,dotcolour,alfa,,,79,18,M,R,
546,42,0,13,4,47,33,1066,['c'],1,left,['0'],6,225,[0.08304976],83,47,medium,minus,dotcolour,alfa,,,79,18,M,R,
547,43,1,13,4,44,36,665,['c'],1,left,['0'],6,182,[0.05814064],77,44,hard,minus,dotcolour,alfa,,,79,18,M,R,
548,44,2,13,4,27,53,632,['n'],1,right,['0'],6,271,[-0.22536451],98,53,easy,minus,dotcolour,alfa,,,79,18,M,R,
549,45,3,13,4,27,53,616,['n'],1,right,['0'],6,117,[-0.09763041],93,53,easy,minus,dotcolour,alfa,,,79,18,M,R,
550,46,4,13,4,47,33,716,['c'],1,left,['0'],6,133,[0.10766953],93,47,medium,minus,dotcolour,alfa,,,79,18,M,R,
551,47,5,13,4,36,44,1582,['n'],1,right,['9'],5,243,[-0.09561274],85,44,hard,minus,dotcolour,alfa,,,79,18,M,R,
552,48,6,13,4,33,47,1382,['c'],0,right,['0'],6,155,[0.07578077],85,47,medium,minus,dotcolour,alfa,,,79,18,M,R,
553,49,7,13,4,36,44,1748,['n'],1,right,['0'],6,144,[0.01208217],43,44,hard,minus,dotcolour,alfa,,,79,18,M,R,
554,50,8,13,4,53,27,651,['c'],1,left,['0'],6,194,[0.07165087],81,53,easy,minus,dotcolour,alfa,,,79,18,M,R,
555,51,9,13,4,47,33,900,['c'],1,left,['8'],4,488,[0.16571014],89,47,medium,minus,dotcolour,alfa,,,79,18,M,R,
556,52,10,13,4,44,36,680,['c'],1,left,['0'],6,170,[0.10002601],90,44,hard,minus,dotcolour,alfa,,,79,18,M,R,
557,53,11,13,4,33,47,766,['n'],1,right,['0'],6,126,[-0.1210614],96,47,medium,minus,dotcolour,alfa,,,79,18,M,R,
558,54,12,13,4,47,33,866,['c'],1,left,['0'],6,128,[0.01127073],57,47,medium,minus,dotcolour,alfa,,,79,18,M,R,
559,55,13,13,4,44,36,651,['c'],1,left,['0'],6,122,[0.14580942],98,44,hard,minus,dotcolour,alfa,,,79,18,M,R,
560,56,14,13,4,44,36,783,['c'],1,left,['9'],5,8426,[0.73146579],91,44,hard,minus,dotcolour,alfa,,,79,18,M,R,
561,57,15,13,4,33,47,3914,['c'],0,right,['8'],4,491,[0.02346668],57,47,medium,minus,dotcolour,alfa,,,79,18,M,R,
562,58,16,13,4,53,27,3017,['c'],1,left,['8'],4,897,[0.13555386],78,53,easy,minus,dotcolour,alfa,,,79,18,M,R,
563,59,17,13,4,53,27,666,['c'],1,left,['9'],5,203,[0.0911168],86,53,easy,minus,dotcolour,alfa,,,79,18,M,R,
564,60,18,13,4,27,53,1163,['n'],1,right,['0'],6,190,[-0.06001338],78,53,easy,minus,dotcolour,alfa,,,79,18,M,R,
565,61,19,13,4,36,44,1232,['n'],1,right,['0'],6,303,[-0.08393006],80,44,hard,minus,dotcolour,alfa,,,79,18,M,R,
566,62,20,13,4,36,44,747,['c'],0,right,['0'],6,183,[0.0566498],77,44,hard,minus,dotcolour,alfa,,,79,18,M,R,
567,63,21,13,4,27,53,983,['n'],1,right,['9'],5,177,[-0.15795257],97,53,easy,minus,dotcolour,alfa,,,79,18,M,R,
568,64,22,13,4,44,36,847,['c'],1,left,['9'],5,178,[0.07351003],83,44,hard,minus,dotcolour,alfa,,,79,18,M,R,
569,65,23,13,4,53,27,732,['c'],1,left,['9'],5,175,[0.08066891],85,53,easy,minus,dotcolour,alfa,,,79,18,M,R,
570,66,24,13,4,53,27,732,['c'],1,left,['0'],6,196,[0.11498782],91,53,easy,minus,dotcolour,alfa,,,79,18,M,R,
571,67,25,13,4,47,33,715,['c'],1,left,['9'],5,153,[0.05696697],79,47,medium,minus,dotcolour,alfa,,,79,18,M,R,
572,68,26,13,4,33,47,1366,['n'],1,right,['8'],4,254,[-0.20119466],97,47,medium,minus,dotcolour,alfa,,,79,18,M,R,
573,69,27,13,4,47,33,596,['c'],1,left,['8'],4,149,[0.13482279],96,47,medium,minus,dotcolour,alfa,,,79,18,M,R,
574,70,28,13,4,36,44,1066,['n'],1,right,['8'],4,143,[-0.12550332],95,44,hard,minus,dotcolour,alfa,,,79,18,M,R,
575,71,29,13,4,53,27,615,['c'],1,left,['8'],4,137,[0.15699299],98,53,easy,minus,dotcolour,alfa,,,79,18,M,R,
576,72,30,13,4,36,44,680,['n'],1,right,['8'],4,138,[-0.04961037],77,44,hard,minus,dotcolour,alfa,,,79,18,M,R,
577,73,31,13,4,36,44,1015,['n'],1,right,['8'],4,158,[-0.0725992],84,44,hard,minus,dotcolour,alfa,,,79,18,M,R,
578,74,32,13,4,33,47,732,['n'],1,right,['8'],4,164,[-0.07867853],85,47,medium,minus,dotcolour,alfa,,,79,18,M,R,
579,75,33,13,4,27,53,1248,['n'],1,right,['8'],4,221,[-0.11540879],90,53,easy,minus,dotcolour,alfa,,,79,18,M,R,
580,76,34,13,4,33,47,1033,['c'],0,right,['9'],5,540,[-0.11391502],20,47,medium,minus,dotcolour,alfa,,,79,18,M,R,
581,77,35,13,4,27,53,847,['n'],1,right,['9'],5,310,[-0.12911768],89,53,easy,minus,dotcolour,alfa,,,79,18,M,R,
582,78,36,13,4,47,33,1765,['c'],1,left,['9'],5,172,[0.05446713],77,47,medium,minus,dotcolour,alfa,,,79,18,M,R,
583,79,37,13,4,53,27,749,['c'],1,left,['0'],6,1473,[0.19698648],81,53,easy,minus,dotcolour,alfa,,,79,18,M,R,
584,80,38,13,4,44,36,931,['c'],1,left,['8'],4,170,[0.06483246],80,44,hard,minus,dotcolour,alfa,,,79,18,M,R,
585,81,39,13,4,33,47,1215,['c'],0,right,['8'],4,181,[0.13694582],95,47,medium,minus,dotcolour,alfa,,,79,18,M,R,
586,82,40,13,4,27,53,1015,['n'],1,right,['8'],4,119,[-0.16952612],99,53,easy,minus,dotcolour,alfa,,,79,18,M,R,
587,83,41,13,4,44,36,715,['c'],1,left,['9'],5,190,[0.04350248],71,44,hard,minus,dotcolour,alfa,,,79,18,M,R,
588,84,0,14,4,44,36,1084,['c'],1,left,['0'],6,174,[0.00390844],52,44,hard,minus,dotcolour,alfa,,,79,18,M,R,
589,85,1,14,4,27,53,848,['c'],0,right,['0'],6,118,[0.00704647],55,53,easy,minus,dotcolour,alfa,,,79,18,M,R,
590,86,2,14,4,27,53,1098,['c'],0,right,['9'],5,191,[0.07328515],82,53,easy,minus,dotcolour,alfa,,,79,18,M,R,
591,87,3,14,4,47,33,2199,['c'],1,left,['8'],4,145,[0.09709258],91,47,medium,minus,dotcolour,alfa,,,79,18,M,R,
592,88,4,14,4,33,47,1050,['n'],1,right,['8'],4,226,[-0.05231333],73,47,medium,minus,dotcolour,alfa,,,79,18,M,R,
593,89,5,14,4,27,53,933,['c'],0,right,['0'],6,205,[0.09612843],87,53,easy,minus,dotcolour,alfa,,,79,18,M,R,
594,90,6,14,4,33,47,4697,['n'],1,right,['9'],5,315,[-0.13893158],90,47,medium,minus,dotcolour,alfa,,,79,18,M,R,
595,91,7,14,4,36,44,830,['c'],0,right,['9'],5,191,[0.04828985],73,44,hard,minus,dotcolour,alfa,,,79,18,M,R,
596,92,8,14,4,33,47,1564,['n'],1,right,['0'],6,138,[-0.06255419],82,47,medium,minus,dotcolour,alfa,,,79,18,M,R,
597,93,9,14,4,44,36,963,['c'],1,left,['0'],6,111,[0.02660731],67,44,hard,minus,dotcolour,alfa,,,79,18,M,R,
598,94,10,14,4,47,33,1067,['c'],1,left,['0'],6,161,[0.11212439],93,47,medium,minus,dotcolour,alfa,,,79,18,M,R,
599,95,11,14,4,33,47,798,['n'],1,right,['9'],5,221,[-0.0255658],62,47,medium,minus,dotcolour,alfa,,,79,18,M,R,
600,96,12,14,4,53,27,734,['c'],1,left,['0'],6,168,[0.20237932],99,53,easy,minus,dotcolour,alfa,,,79,18,M,R,
601,97,13,14,4,44,36,649,['c'],1,left,['0'],6,153,[0.07159373],84,44,hard,minus,dotcolour,alfa,,,79,18,M,R,
602,98,14,14,4,44,36,748,['c'],1,left,['0'],6,135,[0.0683901],84,44,hard,minus,dotcolour,alfa,,,79,18,M,R,
603,99,15,14,4,36,44,1033,['n'],1,right,['0'],6,194,[-0.09628182],88,44,hard,minus,dotcolour,alfa,,,79,18,M,R,
604,100,16,14,4,36,44,2898,['n'],1,right,['0'],6,144,[-0.0105522],56,44,hard,minus,dotcolour,alfa,,,79,18,M,R,
605,101,17,14,4,47,33,915,['c'],1,left,['0'],6,119,[0.10282426],94,47,medium,minus,dotcolour,alfa,,,79,18,M,R,
606,102,18,14,4,36,44,1333,['n'],1,right,['0'],6,182,[-0.09425232],88,44,hard,minus,dotcolour,alfa,,,79,18,M,R,
607,103,19,14,4,33,47,1365,['n'],1,right,['0'],6,122,[-0.12232726],96,47,medium,minus,dotcolour,alfa,,,79,18,M,R,
608,104,20,14,4,44,36,1499,['n'],0,left,['0'],6,7076,[0.42519847],19,44,hard,minus,dotcolour,alfa,,,79,18,M,R,
609,105,21,14,4,36,44,998,['c'],0,right,['1'],1,1313,[0.0799624],65,44,hard,minus,dotcolour,alfa,,,79,18,M,R,
610,106,22,14,4,53,27,1566,['c'],1,left,['0'],6,230,[0.18941539],97,53,easy,minus,dotcolour,alfa,,,79,18,M,R,
611,107,23,14,4,53,27,899,['c'],1,left,['1'],1,283,[0.07579939],78,53,easy,minus,dotcolour,alfa,,,79,18,M,R,
612,108,24,14,4,47,33,615,['c'],1,left,['1'],1,176,[0.19227392],98,47,medium,minus,dotcolour,alfa,,,79,18,M,R,
613,109,25,14,4,53,27,932,['c'],1,left,['0'],6,149,[0.01823407],60,53,easy,minus,dotcolour,alfa,,,79,18,M,R,
614,110,26,14,4,44,36,1015,['n'],0,left,['0'],6,497,[-0.09710012],78,44,hard,minus,dotcolour,alfa,,,79,18,M,R,
615,111,27,14,4,27,53,880,['c'],0,right,['1'],1,835,[0.05830036],64,53,easy,minus,dotcolour,alfa,,,79,18,M,R,
616,112,28,14,4,44,36,1331,['c'],1,left,['0'],6,294,[0.13992115],91,44,hard,minus,dotcolour,alfa,,,79,18,M,R,
617,113,29,14,4,36,44,1315,['c'],0,right,['2'],2,1119,[-0.14507896],23,44,hard,minus,dotcolour,alfa,,,79,18,M,R,
618,114,30,14,4,27,53,2299,['c'],0,right,['0'],6,648,[0.13380976],82,53,easy,minus,dotcolour,alfa,,,79,18,M,R,
619,115,31,14,4,53,27,849,['c'],1,left,['0'],6,174,[0.11101219],92,53,easy,minus,dotcolour,alfa,,,79,18,M,R,
620,116,32,14,4,47,33,800,['c'],1,left,['0'],6,184,[0.08475267],86,47,medium,minus,dotcolour,alfa,,,79,18,M,R,
621,117,33,14,4,33,47,1398,['n'],1,right,['3'],3,154,[-0.06757518],82,47,medium,minus,dotcolour,alfa,,,79,18,M,R,
622,118,34,14,4,47,33,4715,['c'],1,left,['3'],3,522,[0.14665158],86,47,medium,minus,dotcolour,alfa,,,79,18,M,R,
623,119,35,14,4,27,53,998,['n'],1,right,['0'],6,293,[-0.15387145],93,53,easy,minus,dotcolour,alfa,,,79,18,M,R,
624,120,36,14,4,27,53,1565,['n'],1,right,['0'],6,284,[-0.12295085],89,53,easy,minus,dotcolour,alfa,,,79,18,M,R,
625,121,37,14,4,36,44,999,['n'],1,right,['0'],6,171,[-0.01477864],58,44,hard,minus,dotcolour,alfa,,,79,18,M,R,
626,122,38,14,4,53,27,716,['c'],1,left,['9'],5,161,[0.07583919],85,53,easy,minus,dotcolour,alfa,,,79,18,M,R,
627,123,39,14,4,53,27,582,['c'],1,left,['0'],6,181,[0.08715581],86,53,easy,minus,dotcolour,alfa,,,79,18,M,R,
628,124,40,14,4,33,47,864,['n'],1,right,['0'],6,149,[-0.15290102],97,47,medium,minus,dotcolour,alfa,,,79,18,M,R,
629,125,41,14,4,47,33,632,['c'],1,left,['0'],6,119,[0.05502737],81,47,medium,minus,dotcolour,alfa,,,79,18,M,R,
630,0,0,15,5,27,53,566,['n'],1,right,['0'],6,126,[-0.03823123],98,53,easy,plus,dotcolour,alfa,,,79,18,M,R,
631,1,1,15,5,33,47,832,['c'],0,right,['0'],6,176,[0.11630988],100,47,medium,plus,dotcolour,alfa,,,79,18,M,R,
632,2,2,15,5,47,33,599,['c'],1,left,['0'],6,123,[0.08030216],100,47,medium,plus,dotcolour,alfa,,,79,18,M,R,
633,3,3,15,5,36,44,565,['c'],0,right,['0'],6,105,[0.01124801],78,44,hard,plus,dotcolour,alfa,,,79,18,M,R,
634,4,4,15,5,36,44,581,['c'],0,right,['0'],6,135,[0.04069083],98,44,hard,plus,dotcolour,alfa,,,79,18,M,R,
635,5,5,15,5,27,53,715,['c'],0,right,['0'],6,143,[0.02821574],94,53,easy,plus,dotcolour,alfa,,,79,18,M,R,
636,6,6,15,5,36,44,782,['n'],1,right,['0'],6,123,[-0.0410472],99,44,hard,plus,dotcolour,alfa,,,79,18,M,R,
637,7,7,15,5,36,44,564,['n'],1,right,['0'],6,105,[-0.09832609],100,44,hard,plus,dotcolour,alfa,,,79,18,M,R,
638,8,8,15,5,36,44,564,['n'],1,right,['0'],6,97,[-0.04875849],100,44,hard,plus,dotcolour,alfa,,,79,18,M,R,
639,9,9,15,5,53,27,732,['c'],1,left,['0'],6,145,[0.08665483],100,53,easy,plus,dotcolour,alfa,,,79,18,M,R,
640,10,10,15,5,44,36,1048,['c'],1,left,['0'],6,114,[0.10715853],100,44,hard,plus,dotcolour,alfa,,,79,18,M,R,
641,11,11,15,5,47,33,1483,['c'],1,left,['0'],6,220,[0.13696481],100,47,medium,plus,dotcolour,alfa,,,79,18,M,R,
642,12,12,15,5,53,27,967,['c'],1,left,['0'],6,150,[0.1376211],100,53,easy,plus,dotcolour,alfa,,,79,18,M,R,
643,13,13,15,5,27,53,767,['n'],1,right,['0'],6,98,[-0.09475948],100,53,easy,plus,dotcolour,alfa,,,79,18,M,R,
644,14,14,15,5,33,47,849,['n'],1,right,['0'],6,118,[-0.06785564],100,47,medium,plus,dotcolour,alfa,,,79,18,M,R,
645,15,15,15,5,47,33,700,['c'],1,left,['0'],6,151,[0.14350296],100,47,medium,plus,dotcolour,alfa,,,79,18,M,R,
646,16,16,15,5,44,36,967,['c'],1,left,['0'],6,124,[0.09669919],100,44,hard,plus,dotcolour,alfa,,,79,18,M,R,
647,17,17,15,5,53,27,1600,['c'],1,left,['0'],6,112,[0.09960402],100,53,easy,plus,dotcolour,alfa,,,79,18,M,R,
648,18,18,15,5,47,33,765,['c'],1,left,['0'],6,119,[0.09618229],100,47,medium,plus,dotcolour,alfa,,,79,18,M,R,
649,19,19,15,5,27,53,2132,['c'],0,right,['0'],6,142,[0.01327753],78,53,easy,plus,dotcolour,alfa,,,79,18,M,R,
650,20,20,15,5,53,27,649,['c'],1,left,['0'],6,144,[0.0771788],100,53,easy,plus,dotcolour,alfa,,,79,18,M,R,
651,21,21,15,5,27,53,2200,['n'],1,right,['0'],6,500,[-0.0461345],91,53,easy,plus,dotcolour,alfa,,,79,18,M,R,
652,22,22,15,5,27,53,4149,['c'],0,right,['0'],6,324,[0.09602925],100,53,easy,plus,dotcolour,alfa,,,79,18,M,R,
653,23,23,15,5,47,33,666,['c'],1,left,['0'],6,134,[0.09539295],100,47,medium,plus,dotcolour,alfa,,,79,18,M,R,
654,24,24,15,5,47,33,650,['c'],1,left,['0'],6,167,[0.0775341],100,47,medium,plus,dotcolour,alfa,,,79,18,M,R,
655,25,25,15,5,53,27,532,['c'],1,left,['9'],5,477,[0.14142437],100,53,easy,plus,dotcolour,alfa,,,79,18,M,R,
656,26,26,15,5,44,36,714,['c'],1,left,['8'],4,159,[0.08009883],100,44,hard,plus,dotcolour,alfa,,,79,18,M,R,
657,27,27,15,5,33,47,1066,['n'],1,right,['0'],6,135,[-0.05674378],100,47,medium,plus,dotcolour,alfa,,,79,18,M,R,
658,28,28,15,5,33,47,1449,['n'],1,right,['8'],4,89,[-0.10951808],100,47,medium,plus,dotcolour,alfa,,,79,18,M,R,
659,29,29,15,5,47,33,1198,['c'],1,left,['8'],4,223,[0.15000123],100,47,medium,plus,dotcolour,alfa,,,79,18,M,R,
660,30,30,15,5,44,36,1833,['c'],1,left,['9'],5,206,[-0.08168654],0,44,hard,plus,dotcolour,alfa,,,79,18,M,R,
661,31,31,15,5,36,44,899,['n'],1,right,['9'],5,244,[-0.11004622],100,44,hard,plus,dotcolour,alfa,,,79,18,M,R,
662,32,32,15,5,33,47,749,['n'],1,right,['9'],5,182,[-0.09385942],100,47,medium,plus,dotcolour,alfa,,,79,18,M,R,
663,33,33,15,5,44,36,1349,['n'],0,left,['2'],2,1226,[0.01053694],42,44,hard,plus,dotcolour,alfa,,,79,18,M,R,
664,34,34,15,5,33,47,684,['n'],1,right,['0'],6,2087,[-0.05456701],80,47,medium,plus,dotcolour,alfa,,,79,18,M,R,
665,35,35,15,5,27,53,884,['n'],1,right,['0'],6,194,[-0.03242344],93,53,easy,plus,dotcolour,alfa,,,79,18,M,R,
666,36,36,15,5,53,27,1165,['c'],1,left,['2'],2,469,[0.18016036],100,53,easy,plus,dotcolour,alfa,,,79,18,M,R,
667,37,37,15,5,44,36,2599,['c'],1,left,['0'],6,219,[0.0478688],98,44,hard,plus,dotcolour,alfa,,,79,18,M,R,
668,38,38,15,5,53,27,632,['c'],1,left,['0'],6,123,[0.14610299],100,53,easy,plus,dotcolour,alfa,,,79,18,M,R,
669,39,39,15,5,33,47,549,['c'],0,right,['0'],6,113,[0.07389424],100,47,medium,plus,dotcolour,alfa,,,79,18,M,R,
670,40,40,15,5,44,36,749,['c'],1,left,['0'],6,128,[0.05904054],100,44,hard,plus,dotcolour,alfa,,,79,18,M,R,
671,41,41,15,5,36,44,815,['c'],0,right,['0'],6,171,[0.00713084],65,44,hard,plus,dotcolour,alfa,,,79,18,M,R,
672,42,0,16,5,27,53,866,['n'],1,right,['0'],6,106,[-0.0587383],100,53,easy,plus,dotcolour,alfa,,,79,18,M,R,
673,43,1,16,5,53,27,665,['c'],1,left,['0'],6,180,[0.16125114],100,53,easy,plus,dotcolour,alfa,,,79,18,M,R,
674,44,2,16,5,33,47,432,['c'],0,right,['0'],6,149,[0.04648516],99,47,medium,plus,dotcolour,alfa,,,79,18,M,R,
675,45,3,16,5,53,27,448,['c'],1,left,['0'],6,95,[0.07864578],100,53,easy,plus,dotcolour,alfa,,,79,18,M,R,
676,46,4,16,5,36,44,514,['c'],0,right,['0'],6,63,[0.05831958],100,44,hard,plus,dotcolour,alfa,,,79,18,M,R,
677,47,5,16,5,33,47,516,['n'],1,right,['0'],6,114,[-0.09109308],100,47,medium,plus,dotcolour,alfa,,,79,18,M,R,
678,48,6,16,5,33,47,733,['n'],1,right,['0'],6,98,[-0.02944482],97,47,medium,plus,dotcolour,alfa,,,79,18,M,R,
679,49,7,16,5,53,27,833,['c'],1,left,['0'],6,118,[0.0881446],100,53,easy,plus,dotcolour,alfa,,,79,18,M,R,
680,50,8,16,5,47,33,898,['c'],1,left,['0'],6,119,[0.11402583],100,47,medium,plus,dotcolour,alfa,,,79,18,M,R,
681,51,9,16,5,44,36,948,['c'],1,left,['0'],6,110,[0.13722311],100,44,hard,plus,dotcolour,alfa,,,79,18,M,R,
682,52,10,16,5,44,36,1166,['c'],1,left,['0'],6,124,[0.06846685],100,44,hard,plus,dotcolour,alfa,,,79,18,M,R,
683,53,11,16,5,44,36,1483,['c'],1,left,['0'],6,110,[0.07588553],100,44,hard,plus,dotcolour,alfa,,,79,18,M,R,
684,54,12,16,5,27,53,748,['n'],1,right,['0'],6,133,[-0.0997904],100,53,easy,plus,dotcolour,alfa,,,79,18,M,R,
685,55,13,16,5,33,47,2717,['n'],1,right,['0'],6,213,[-0.13514503],100,47,medium,plus,dotcolour,alfa,,,79,18,M,R,
686,56,14,16,5,44,36,815,['c'],1,left,['0'],6,133,[0.03983893],98,44,hard,plus,dotcolour,alfa,,,79,18,M,R,
687,57,15,16,5,53,27,667,['c'],1,left,['0'],6,111,[0.1072011],100,53,easy,plus,dotcolour,alfa,,,79,18,M,R,
688,58,16,16,5,47,33,598,['c'],1,left,['0'],6,108,[0.09138843],100,47,medium,plus,dotcolour,alfa,,,79,18,M,R,
689,59,17,16,5,47,33,450,['c'],1,left,['0'],6,111,[0.10180857],100,47,medium,plus,dotcolour,alfa,,,79,18,M,R,
690,60,18,16,5,36,44,681,['n'],1,right,['0'],6,89,[-0.13291411],100,44,hard,plus,dotcolour,alfa,,,79,18,M,R,
691,61,19,16,5,36,44,532,['c'],0,right,['0'],6,121,[0.05863249],100,44,hard,plus,dotcolour,alfa,,,79,18,M,R,
692,62,20,16,5,36,44,747,['n'],1,right,['0'],6,104,[-0.10340424],100,44,hard,plus,dotcolour,alfa,,,79,18,M,R,
693,63,21,16,5,33,47,1147,['n'],1,right,['0'],6,31,[-0.08629187],100,47,medium,plus,dotcolour,alfa,,,79,18,M,R,
694,64,22,16,5,36,44,449,['c'],0,right,['0'],6,109,[0.0828712],100,44,hard,plus,dotcolour,alfa,,,79,18,M,R,
695,65,23,16,5,47,33,566,['c'],1,left,['0'],6,115,[0.05098748],100,47,medium,plus,dotcolour,alfa,,,79,18,M,R,
696,66,24,16,5,47,33,1165,['c'],1,left,['0'],6,106,[0.12498067],100,47,medium,plus,dotcolour,alfa,,,79,18,M,R,
697,67,25,16,5,27,53,648,['n'],1,right,['0'],6,94,[-0.1242732],100,53,easy,plus,dotcolour,alfa,,,79,18,M,R,
698,68,26,16,5,53,27,680,['c'],1,left,['0'],6,72,[0.09275223],100,53,easy,plus,dotcolour,alfa,,,79,18,M,R,
699,69,27,16,5,33,47,766,['n'],1,right,['0'],6,64,[-0.08709723],100,47,medium,plus,dotcolour,alfa,,,79,18,M,R,
700,70,28,16,5,44,36,1798,['c'],1,left,['0'],6,112,[0.01051268],76,44,hard,plus,dotcolour,alfa,,,79,18,M,R,
701,71,29,16,5,27,53,566,['n'],1,right,['0'],6,102,[-0.08226483],100,53,easy,plus,dotcolour,alfa,,,79,18,M,R,
702,72,30,16,5,44,36,766,['c'],1,left,['0'],6,117,[0.04707874],99,44,hard,plus,dotcolour,alfa,,,79,18,M,R,
703,73,31,16,5,36,44,1131,['n'],1,right,['1'],1,1397,[-0.35868337],100,44,hard,plus,dotcolour,alfa,,,79,18,M,R,
704,74,32,16,5,33,47,850,['n'],1,right,['0'],6,131,[-0.078695],100,47,medium,plus,dotcolour,alfa,,,79,18,M,R,
705,75,33,16,5,53,27,631,['c'],1,left,['0'],6,151,[0.07088036],100,53,easy,plus,dotcolour,alfa,,,79,18,M,R,
706,76,34,16,5,44,36,1548,['c'],1,left,['0'],6,140,[0.10691001],100,44,hard,plus,dotcolour,alfa,,,79,18,M,R,
707,77,35,16,5,27,53,798,['n'],1,right,['0'],6,185,[-0.0582778],99,53,easy,plus,dotcolour,alfa,,,79,18,M,R,
708,78,36,16,5,27,53,699,['n'],1,right,['0'],6,175,[-0.06555961],100,53,easy,plus,dotcolour,alfa,,,79,18,M,R,
709,79,37,16,5,47,33,698,['c'],1,left,['0'],6,157,[0.17267537],100,47,medium,plus,dotcolour,alfa,,,79,18,M,R,
710,80,38,16,5,47,33,431,['c'],1,left,['0'],6,86,[0.05226313],100,47,medium,plus,dotcolour,alfa,,,79,18,M,R,
711,81,39,16,5,27,53,482,['c'],0,right,['1'],1,706,[0.00278946],53,53,easy,plus,dotcolour,alfa,,,79,18,M,R,
712,82,40,16,5,53,27,950,['c'],1,left,['0'],6,129,[0.1372004],100,53,easy,plus,dotcolour,alfa,,,79,18,M,R,
713,83,41,16,5,36,44,1098,['n'],1,right,['0'],6,89,[-0.04724542],100,44,hard,plus,dotcolour,alfa,,,79,18,M,R,
714,84,0,17,5,44,36,950,['c'],1,left,['9'],5,151,[0.12140784],100,44,hard,plus,dotcolour,alfa,,,79,18,M,R,
715,85,1,17,5,47,33,666,['c'],1,left,['0'],6,184,[0.0082702],67,47,medium,plus,dotcolour,alfa,,,79,18,M,R,
716,86,2,17,5,33,47,1198,['n'],1,right,['0'],6,106,[-0.06932705],100,47,medium,plus,dotcolour,alfa,,,79,18,M,R,
717,87,3,17,5,36,44,797,['n'],1,right,['0'],6,175,[-0.07268834],100,44,hard,plus,dotcolour,alfa,,,79,18,M,R,
718,88,4,17,5,36,44,516,['c'],0,right,['0'],6,141,[0.06427045],100,44,hard,plus,dotcolour,alfa,,,79,18,M,R,
719,89,5,17,5,36,44,1116,['n'],1,right,['0'],6,116,[0.02446064],7,44,hard,plus,dotcolour,alfa,,,79,18,M,R,
720,90,6,17,5,27,53,965,['n'],1,right,['0'],6,98,[-0.19680686],100,53,easy,plus,dotcolour,alfa,,,79,18,M,R,
721,91,7,17,5,44,36,1531,['c'],1,left,['0'],6,155,[0.01622409],82,44,hard,plus,dotcolour,alfa,,,79,18,M,R,
722,92,8,17,5,27,53,666,['n'],1,right,['0'],6,115,[-0.12021784],100,53,easy,plus,dotcolour,alfa,,,79,18,M,R,
723,93,9,17,5,27,53,749,['n'],1,right,['0'],6,210,[-0.12199566],100,53,easy,plus,dotcolour,alfa,,,79,18,M,R,
724,94,10,17,5,44,36,881,['c'],1,left,['0'],6,160,[0.1324171],100,44,hard,plus,dotcolour,alfa,,,79,18,M,R,
725,95,11,17,5,47,33,1332,['c'],1,left,['0'],6,158,[0.0618589],100,47,medium,plus,dotcolour,alfa,,,79,18,M,R,
726,96,12,17,5,53,27,1132,['c'],1,left,['0'],6,123,[0.06651757],100,53,easy,plus,dotcolour,alfa,,,79,18,M,R,
727,97,13,17,5,47,33,631,['c'],1,left,['0'],6,174,[0.11172416],100,47,medium,plus,dotcolour,alfa,,,79,18,M,R,
728,98,14,17,5,53,27,516,['c'],1,left,['0'],6,116,[0.07529272],100,53,easy,plus,dotcolour,alfa,,,79,18,M,R,
729,99,15,17,5,27,53,1066,['n'],1,right,['0'],6,118,[-0.05614932],100,53,easy,plus,dotcolour,alfa,,,79,18,M,R,
730,100,16,17,5,44,36,1083,['c'],1,left,['0'],6,168,[0.12194895],100,44,hard,plus,dotcolour,alfa,,,79,18,M,R,
731,101,17,17,5,36,44,664,['n'],1,right,['0'],6,160,[-0.06566413],100,44,hard,plus,dotcolour,alfa,,,79,18,M,R,
732,102,18,17,5,44,36,800,['c'],1,left,['0'],6,172,[0.03813437],96,44,hard,plus,dotcolour,alfa,,,79,18,M,R,
733,103,19,17,5,53,27,531,['c'],1,left,['0'],6,137,[0.06205629],100,53,easy,plus,dotcolour,alfa,,,79,18,M,R,
734,104,20,17,5,36,44,1084,['c'],0,right,['9'],5,3146,[-0.32772866],0,44,hard,plus,dotcolour,alfa,,,79,18,M,R,
735,105,21,17,5,27,53,1898,['n'],1,right,['9'],5,201,[-0.08588405],100,53,easy,plus,dotcolour,alfa,,,79,18,M,R,
736,106,22,17,5,33,47,934,['n'],1,right,['0'],6,221,[-0.11426346],100,47,medium,plus,dotcolour,alfa,,,79,18,M,R,
737,107,23,17,5,33,47,883,['n'],1,right,['0'],6,99,[-0.11937944],100,47,medium,plus,dotcolour,alfa,,,79,18,M,R,
738,108,24,17,5,44,36,1533,['c'],1,left,['0'],6,259,[0.10495146],100,44,hard,plus,dotcolour,alfa,,,79,18,M,R,
739,109,25,17,5,47,33,4431,['c'],1,left,['0'],6,185,[0.07896379],100,47,medium,plus,dotcolour,alfa,,,79,18,M,R,
740,110,26,17,5,47,33,898,['c'],1,left,['0'],6,112,[0.09272516],100,47,medium,plus,dotcolour,alfa,,,79,18,M,R,
741,111,27,17,5,36,44,748,['n'],1,right,['0'],6,95,[-0.10274028],100,44,hard,plus,dotcolour,alfa,,,79,18,M,R,
742,112,28,17,5,27,53,1616,['n'],1,right,['0'],6,108,[-0.07202081],100,53,easy,plus,dotcolour,alfa,,,79,18,M,R,
743,113,29,17,5,47,33,1148,['c'],1,left,['0'],6,115,[0.05646993],100,47,medium,plus,dotcolour,alfa,,,79,18,M,R,
744,114,30,17,5,53,27,631,['c'],1,left,['0'],6,110,[0.07927886],100,53,easy,plus,dotcolour,alfa,,,79,18,M,R,
745,115,31,17,5,33,47,699,['n'],1,right,['0'],6,88,[-0.09501811],100,47,medium,plus,dotcolour,alfa,,,79,18,M,R,
746,116,32,17,5,27,53,932,['n'],1,right,['0'],6,112,[-0.06810248],100,53,easy,plus,dotcolour,alfa,,,79,18,M,R,
747,117,33,17,5,33,47,1000,['n'],1,right,['0'],6,150,[-0.07484742],100,47,medium,plus,dotcolour,alfa,,,79,18,M,R,
748,118,34,17,5,47,33,949,['c'],1,left,['0'],6,155,[0.12078237],100,47,medium,plus,dotcolour,alfa,,,79,18,M,R,
749,119,35,17,5,53,27,699,['c'],1,left,['0'],6,179,[0.10926134],100,53,easy,plus,dotcolour,alfa,,,79,18,M,R,
750,120,36,17,5,36,44,866,['n'],1,right,['0'],6,122,[-0.06574544],100,44,hard,plus,dotcolour,alfa,,,79,18,M,R,
751,121,37,17,5,53,27,631,['c'],1,left,['0'],6,150,[0.04986477],99,53,easy,plus,dotcolour,alfa,,,79,18,M,R,
752,122,38,17,5,53,27,649,['c'],1,left,['0'],6,127,[0.09613884],100,53,easy,plus,dotcolour,alfa,,,79,18,M,R,
753,123,39,17,5,33,47,881,['n'],1,right,['0'],6,88,[-0.01325548],83,47,medium,plus,dotcolour,alfa,,,79,18,M,R,
754,124,40,17,5,33,47,2463,['c'],0,right,['0'],6,444,[-0.06163905],3,47,medium,plus,dotcolour,alfa,,,79,18,M,R,
755,125,41,17,5,44,36,1131,['c'],1,left,['0'],6,183,[0.08987109],100,44,hard,plus,dotcolour,alfa,,,79,18,M,R,
,,,,,,,,,,,,,,,,,,,,,1,nee,79,18,M,R,
,,,,,,,,,,,,,,,,,,,,,2,['g'],79,18,M,R,
,,,,,,,,,,,,,,,,,,,,,3,['g'],79,18,M,R,
,,,,,,,,,,,,,,,,,,,,,5,"['5', '3']",79,18,M,R,
