trial,withinphasetrial,withinblocktrial,block,phase,dotsLeft,dotsRight,rt,resp,cor,cresp,conf_press,cj,RTconf,ev,fb,diff,difflevel,condition,task,manip,questionID,questionResp,sub,age,gender,handedness,
0,0,0,0,0,53,27,867,['c'],1,left,['2'],5,5062,[0.57117632],98,53,easy,minus,dotcolour,beta,,,57,20,V,R,
1,1,1,0,0,33,47,1217,['n'],1,right,['2'],5,1106,[-0.21780563],94,47,medium,minus,dotcolour,beta,,,57,20,V,R,
2,2,2,0,0,33,47,917,['n'],1,right,['2'],5,467,[-0.09768023],75,47,medium,minus,dotcolour,beta,,,57,20,V,R,
3,3,3,0,0,44,36,984,['c'],1,left,['2'],5,498,[0.16672651],94,44,hard,minus,dotcolour,beta,,,57,20,V,R,
4,4,4,0,0,44,36,1267,['c'],1,left,['2'],5,453,[0.13371038],89,44,hard,minus,dotcolour,beta,,,57,20,V,R,
5,5,5,0,0,36,44,933,['n'],1,right,['2'],5,327,[-0.1269728],90,44,hard,minus,dotcolour,beta,,,57,20,V,R,
6,6,6,0,0,47,33,834,['c'],1,left,['2'],5,385,[0.16264489],96,47,medium,minus,dotcolour,beta,,,57,20,V,R,
7,7,7,0,0,36,44,1200,['n'],1,right,['2'],5,435,[-0.12633127],87,44,hard,minus,dotcolour,beta,,,57,20,V,R,
8,8,8,0,0,33,47,750,['n'],1,right,['2'],5,453,[-0.07258351],61,47,medium,minus,dotcolour,beta,,,57,20,V,R,
9,9,9,0,0,36,44,833,['n'],1,right,['2'],5,379,[-0.1257232],89,44,hard,minus,dotcolour,beta,,,57,20,V,R,
10,10,10,0,0,53,27,783,['c'],1,left,['1'],6,341,[0.17114801],97,53,easy,minus,dotcolour,beta,,,57,20,V,R,
11,11,11,0,0,33,47,1567,['n'],1,right,['1'],6,1523,[-0.304274],97,47,medium,minus,dotcolour,beta,,,57,20,V,R,
12,12,12,0,0,44,36,1966,['n'],0,left,['3'],4,2408,[0.08899654],16,44,hard,minus,dotcolour,beta,,,57,20,V,R,
13,13,13,0,0,47,33,933,['c'],1,left,['2'],5,1234,[0.07315057],57,47,medium,minus,dotcolour,beta,,,57,20,V,R,
14,14,14,0,0,47,33,2134,['n'],0,left,['2'],5,557,[0.07679258],4,47,medium,minus,dotcolour,beta,,,57,20,V,R,
15,15,15,0,0,33,47,800,['n'],1,right,['2'],5,327,[-0.06325939],56,47,medium,minus,dotcolour,beta,,,57,20,V,R,
16,16,16,0,0,47,33,850,['c'],1,left,['1'],6,801,[0.07675543],61,47,medium,minus,dotcolour,beta,,,57,20,V,R,
17,17,17,0,0,44,36,1200,['c'],1,left,['2'],5,410,[0.00494008],19,44,hard,minus,dotcolour,beta,,,57,20,V,R,
18,18,18,0,0,27,53,800,['n'],1,right,['1'],6,307,[-0.09478949],78,53,easy,minus,dotcolour,beta,,,57,20,V,R,
19,19,19,0,0,53,27,734,['c'],1,left,['1'],6,578,[0.10795162],78,53,easy,minus,dotcolour,beta,,,57,20,V,R,
20,20,20,0,0,53,27,734,['c'],1,left,['2'],5,398,[0.13898282],92,53,easy,minus,dotcolour,beta,,,57,20,V,R,
21,21,21,0,0,36,44,717,['n'],1,right,['2'],5,379,[0.00025169],16,44,hard,minus,dotcolour,beta,,,57,20,V,R,
22,22,22,0,0,27,53,600,['n'],1,right,['2'],5,373,[-0.1642335],96,53,easy,minus,dotcolour,beta,,,57,20,V,R,
23,23,23,0,0,53,27,634,['c'],1,left,['2'],5,350,[0.13897017],93,53,easy,minus,dotcolour,beta,,,57,20,V,R,
24,24,24,0,0,27,53,634,['n'],1,right,['2'],5,320,[-0.216723],99,53,easy,minus,dotcolour,beta,,,57,20,V,R,
25,25,25,0,0,27,53,567,['n'],1,right,['2'],5,294,[-0.05515145],50,53,easy,minus,dotcolour,beta,,,57,20,V,R,
26,26,26,0,0,47,33,683,['n'],0,left,['2'],5,344,[-0.07546038],65,47,medium,minus,dotcolour,beta,,,57,20,V,R,
27,27,27,0,0,47,33,717,['n'],0,left,['2'],5,351,[-0.14334237],94,47,medium,minus,dotcolour,beta,,,57,20,V,R,
28,28,28,0,0,36,44,566,['n'],1,right,['1'],6,507,[-0.13605876],88,44,hard,minus,dotcolour,beta,,,57,20,V,R,
29,29,29,0,0,53,27,684,['c'],1,left,['2'],5,357,[0.12698768],90,53,easy,minus,dotcolour,beta,,,57,20,V,R,
30,30,30,0,0,36,44,600,['n'],1,right,['2'],5,320,[0.032607],6,44,hard,minus,dotcolour,beta,,,57,20,V,R,
31,31,31,0,0,27,53,601,['n'],1,right,['1'],6,316,[-0.00626587],17,53,easy,minus,dotcolour,beta,,,57,20,V,R,
32,32,32,0,0,33,47,601,['n'],1,right,['1'],6,1345,[-0.22545298],93,47,medium,minus,dotcolour,beta,,,57,20,V,R,
33,33,33,0,0,44,36,817,['n'],0,left,['2'],5,427,[-0.06633469],57,44,hard,minus,dotcolour,beta,,,57,20,V,R,
34,34,34,0,0,44,36,766,['n'],0,left,['2'],5,341,[0.02092075],9,44,hard,minus,dotcolour,beta,,,57,20,V,R,
35,35,35,0,0,36,44,599,['n'],1,right,['2'],5,344,[0.02491266],8,44,hard,minus,dotcolour,beta,,,57,20,V,R,
36,36,36,0,0,44,36,666,['n'],0,left,['2'],5,361,[-0.02055161],26,44,hard,minus,dotcolour,beta,,,57,20,V,R,
37,37,37,0,0,47,33,667,['n'],0,left,['2'],5,369,[-0.00836282],20,47,medium,minus,dotcolour,beta,,,57,20,V,R,
38,38,38,0,0,27,53,517,['n'],1,right,['2'],5,343,[-0.1040723],82,53,easy,minus,dotcolour,beta,,,57,20,V,R,
39,39,39,0,0,27,53,484,['n'],1,right,['2'],5,311,[-0.12361665],90,53,easy,minus,dotcolour,beta,,,57,20,V,R,
40,40,40,0,0,53,27,833,['c'],1,left,['1'],6,466,[0.24496457],99,53,easy,minus,dotcolour,beta,,,57,20,V,R,
41,41,41,0,0,33,47,750,['n'],1,right,['1'],6,435,[-0.13608781],90,47,medium,minus,dotcolour,beta,,,57,20,V,R,
42,42,0,1,0,36,44,817,['n'],1,right,['2'],5,1344,[-0.24088089],95,44,hard,minus,dotcolour,beta,,,57,20,V,R,
43,43,1,1,0,36,44,550,['n'],1,right,['2'],5,757,[-0.0938731],69,44,hard,minus,dotcolour,beta,,,57,20,V,R,
44,44,2,1,0,27,53,600,['n'],1,right,['1'],6,361,[-0.16101994],96,53,easy,minus,dotcolour,beta,,,57,20,V,R,
45,45,3,1,0,47,33,717,['n'],0,left,['2'],5,598,[-0.06877617],58,47,medium,minus,dotcolour,beta,,,57,20,V,R,
46,46,4,1,0,44,36,718,['c'],1,left,['2'],5,419,[0.11825695],85,44,hard,minus,dotcolour,beta,,,57,20,V,R,
47,47,5,1,0,27,53,634,['n'],1,right,['1'],6,362,[-0.20370828],99,53,easy,minus,dotcolour,beta,,,57,20,V,R,
48,48,6,1,0,36,44,767,['n'],1,right,['2'],5,374,[-0.06571162],57,44,hard,minus,dotcolour,beta,,,57,20,V,R,
49,49,7,1,0,44,36,1150,['c'],1,left,['2'],5,442,[-0.01803035],12,44,hard,minus,dotcolour,beta,,,57,20,V,R,
50,50,8,1,0,27,53,633,['n'],1,right,['1'],6,1096,[-0.10234231],69,53,easy,minus,dotcolour,beta,,,57,20,V,R,
51,51,9,1,0,36,44,717,['n'],1,right,['1'],6,1473,[-0.08743905],62,44,hard,minus,dotcolour,beta,,,57,20,V,R,
52,52,10,1,0,36,44,633,['n'],1,right,['2'],5,430,[-0.10391968],79,44,hard,minus,dotcolour,beta,,,57,20,V,R,
53,53,11,1,0,27,53,700,['n'],1,right,['1'],6,402,[-0.16229083],95,53,easy,minus,dotcolour,beta,,,57,20,V,R,
54,54,12,1,0,33,47,600,['n'],1,right,['2'],5,419,[-0.0329297],35,47,medium,minus,dotcolour,beta,,,57,20,V,R,
55,55,13,1,0,33,47,683,['n'],1,right,['2'],5,376,[-0.06726449],59,47,medium,minus,dotcolour,beta,,,57,20,V,R,
56,56,14,1,0,33,47,500,['n'],1,right,['2'],5,439,[-0.06926159],59,47,medium,minus,dotcolour,beta,,,57,20,V,R,
57,57,15,1,0,33,47,617,['n'],1,right,['2'],5,389,[-0.09998698],78,47,medium,minus,dotcolour,beta,,,57,20,V,R,
58,58,16,1,0,53,27,784,['c'],1,left,['2'],5,375,[0.13868801],92,53,easy,minus,dotcolour,beta,,,57,20,V,R,
59,59,17,1,0,27,53,1716,['n'],1,right,['2'],5,1988,[-0.34649719],98,53,easy,minus,dotcolour,beta,,,57,20,V,R,
60,60,18,1,0,47,33,1050,['n'],0,left,['3'],4,492,[-0.10058914],76,47,medium,minus,dotcolour,beta,,,57,20,V,R,
61,61,19,1,0,53,27,817,['c'],1,left,['2'],5,480,[0.20973559],98,53,easy,minus,dotcolour,beta,,,57,20,V,R,
62,62,20,1,0,27,53,600,['n'],1,right,['1'],6,399,[-0.04976801],46,53,easy,minus,dotcolour,beta,,,57,20,V,R,
63,63,21,1,0,47,33,983,['n'],0,left,['3'],4,729,[0.01761326],18,47,medium,minus,dotcolour,beta,,,57,20,V,R,
64,64,22,1,0,44,36,783,['n'],0,left,['2'],5,454,[-0.05024115],46,44,hard,minus,dotcolour,beta,,,57,20,V,R,
65,65,23,1,0,27,53,734,['n'],1,right,['1'],6,327,[-0.10317959],82,53,easy,minus,dotcolour,beta,,,57,20,V,R,
66,66,24,1,0,47,33,966,['n'],0,left,['2'],5,341,[-0.02917053],31,47,medium,minus,dotcolour,beta,,,57,20,V,R,
67,67,25,1,0,33,47,634,['n'],1,right,['1'],6,286,[-0.09944954],81,47,medium,minus,dotcolour,beta,,,57,20,V,R,
68,68,26,1,0,53,27,950,['c'],1,left,['1'],6,383,[0.16199731],96,53,easy,minus,dotcolour,beta,,,57,20,V,R,
69,69,27,1,0,47,33,950,['n'],0,left,['2'],5,411,[-0.0511324],47,47,medium,minus,dotcolour,beta,,,57,20,V,R,
70,70,28,1,0,36,44,734,['n'],1,right,['1'],6,310,[0.0102065],11,44,hard,minus,dotcolour,beta,,,57,20,V,R,
71,71,29,1,0,47,33,850,['c'],1,left,['2'],5,369,[0.06950887],60,47,medium,minus,dotcolour,beta,,,57,20,V,R,
72,72,30,1,0,44,36,1334,['c'],1,left,['2'],5,366,[0.1223765],88,44,hard,minus,dotcolour,beta,,,57,20,V,R,
73,73,31,1,0,47,33,1250,['c'],1,left,['2'],5,343,[0.08713413],73,47,medium,minus,dotcolour,beta,,,57,20,V,R,
74,74,32,1,0,53,27,784,['c'],1,left,['1'],6,739,[0.12470883],81,53,easy,minus,dotcolour,beta,,,57,20,V,R,
75,75,33,1,0,33,47,583,['n'],1,right,['1'],6,527,[-0.20594206],98,47,medium,minus,dotcolour,beta,,,57,20,V,R,
76,76,34,1,0,53,27,717,['c'],1,left,['3'],4,494,[0.13233369],88,53,easy,minus,dotcolour,beta,,,57,20,V,R,
77,77,35,1,0,44,36,666,['n'],0,left,['3'],4,393,[-0.08158336],68,44,hard,minus,dotcolour,beta,,,57,20,V,R,
78,78,36,1,0,44,36,733,['c'],1,left,['3'],4,405,[0.08466036],69,44,hard,minus,dotcolour,beta,,,57,20,V,R,
79,79,37,1,0,44,36,650,['c'],1,left,['3'],4,356,[0.07067185],61,44,hard,minus,dotcolour,beta,,,57,20,V,R,
80,80,38,1,0,33,47,783,['n'],1,right,['1'],6,351,[-0.06150449],55,47,medium,minus,dotcolour,beta,,,57,20,V,R,
81,81,39,1,0,53,27,650,['c'],1,left,['1'],6,392,[0.22049215],99,53,easy,minus,dotcolour,beta,,,57,20,V,R,
82,82,40,1,0,36,44,584,['n'],1,right,['1'],6,330,[-0.08538364],72,44,hard,minus,dotcolour,beta,,,57,20,V,R,
83,83,41,1,0,53,27,733,['c'],1,left,['2'],5,457,[0.13782326],90,53,easy,minus,dotcolour,beta,,,57,20,V,R,
84,84,0,2,0,47,33,717,['n'],0,left,['2'],5,600,[0.08057908],4,47,medium,minus,dotcolour,beta,,,57,20,V,R,
85,85,1,2,0,33,47,667,['n'],1,right,['1'],6,327,[-0.04733796],44,47,medium,minus,dotcolour,beta,,,57,20,V,R,
86,86,2,2,0,36,44,701,['n'],1,right,['2'],5,351,[-0.01005354],20,44,hard,minus,dotcolour,beta,,,57,20,V,R,
87,87,3,2,0,36,44,583,['n'],1,right,['2'],5,411,[-0.14635037],93,44,hard,minus,dotcolour,beta,,,57,20,V,R,
88,88,4,2,0,33,47,684,['n'],1,right,['2'],5,744,[-0.06450598],55,47,medium,minus,dotcolour,beta,,,57,20,V,R,
89,89,5,2,0,36,44,634,['n'],1,right,['2'],5,498,[-0.09276569],72,44,hard,minus,dotcolour,beta,,,57,20,V,R,
90,90,6,2,0,36,44,551,['n'],1,right,['2'],5,362,[0.02771796],8,44,hard,minus,dotcolour,beta,,,57,20,V,R,
91,91,7,2,0,33,47,600,['n'],1,right,['1'],6,372,[-0.18072458],98,47,medium,minus,dotcolour,beta,,,57,20,V,R,
92,92,8,2,0,36,44,617,['n'],1,right,['2'],5,374,[-0.11489178],85,44,hard,minus,dotcolour,beta,,,57,20,V,R,
93,93,9,2,0,33,47,401,['n'],1,right,['2'],5,256,[-0.08937546],77,47,medium,minus,dotcolour,beta,,,57,20,V,R,
94,94,10,2,0,47,33,550,['n'],0,left,['2'],5,232,[-0.06599667],60,47,medium,minus,dotcolour,beta,,,57,20,V,R,
95,95,11,2,0,27,53,517,['n'],1,right,['1'],6,228,[-0.06755672],61,53,easy,minus,dotcolour,beta,,,57,20,V,R,
96,96,12,2,0,47,33,700,['n'],0,left,['2'],5,264,[-0.05088455],46,47,medium,minus,dotcolour,beta,,,57,20,V,R,
97,97,13,2,0,33,47,700,['n'],1,right,['2'],5,339,[-0.10667478],83,47,medium,minus,dotcolour,beta,,,57,20,V,R,
98,98,14,2,0,27,53,584,['n'],1,right,['2'],5,255,[-0.17446474],99,53,easy,minus,dotcolour,beta,,,57,20,V,R,
99,99,15,2,0,27,53,550,['n'],1,right,['1'],6,264,[-0.04395161],40,53,easy,minus,dotcolour,beta,,,57,20,V,R,
100,100,16,2,0,53,27,433,['n'],0,left,['2'],5,261,[-0.03971236],36,53,easy,minus,dotcolour,beta,,,57,20,V,R,
101,101,17,2,0,44,36,717,['n'],0,left,['2'],5,263,[0.02118161],6,44,hard,minus,dotcolour,beta,,,57,20,V,R,
102,102,18,2,0,44,36,401,['n'],0,left,['2'],5,222,[0.02015008],5,44,hard,minus,dotcolour,beta,,,57,20,V,R,
103,103,19,2,0,27,53,400,['n'],1,right,['1'],6,543,[-0.16680918],94,53,easy,minus,dotcolour,beta,,,57,20,V,R,
104,104,20,2,0,27,53,450,['n'],1,right,['2'],5,256,[-0.04678971],42,53,easy,minus,dotcolour,beta,,,57,20,V,R,
105,105,21,2,0,44,36,417,['n'],0,left,['2'],5,358,[-0.16645088],97,44,hard,minus,dotcolour,beta,,,57,20,V,R,
106,106,22,2,0,53,27,1716,['c'],1,left,['2'],5,364,[0.0263232],29,53,easy,minus,dotcolour,beta,,,57,20,V,R,
107,107,23,2,0,47,33,967,['n'],0,left,['2'],5,424,[-0.02475046],30,47,medium,minus,dotcolour,beta,,,57,20,V,R,
108,108,24,2,0,36,44,585,['n'],1,right,['2'],5,329,[-0.00810014],18,44,hard,minus,dotcolour,beta,,,57,20,V,R,
109,109,25,2,0,53,27,916,['c'],1,left,['1'],6,401,[0.07515214],64,53,easy,minus,dotcolour,beta,,,57,20,V,R,
110,110,26,2,0,53,27,767,['c'],1,left,['2'],5,299,[0.05756351],52,53,easy,minus,dotcolour,beta,,,57,20,V,R,
111,111,27,2,0,53,27,700,['c'],1,left,['2'],5,300,[0.20070487],99,53,easy,minus,dotcolour,beta,,,57,20,V,R,
112,112,28,2,0,36,44,800,['n'],1,right,['2'],5,338,[-0.03970137],38,44,hard,minus,dotcolour,beta,,,57,20,V,R,
113,113,29,2,0,47,33,833,['c'],1,left,['2'],5,316,[0.04450613],41,47,medium,minus,dotcolour,beta,,,57,20,V,R,
114,114,30,2,0,27,53,666,['n'],1,right,['2'],5,382,[-0.10394662],80,53,easy,minus,dotcolour,beta,,,57,20,V,R,
115,115,31,2,0,44,36,667,['c'],1,left,['2'],5,333,[0.07190439],62,44,hard,minus,dotcolour,beta,,,57,20,V,R,
116,116,32,2,0,47,33,717,['c'],1,left,['2'],5,309,[0.12608037],91,47,medium,minus,dotcolour,beta,,,57,20,V,R,
117,117,33,2,0,44,36,650,['c'],1,left,['2'],5,312,[0.15322415],96,44,hard,minus,dotcolour,beta,,,57,20,V,R,
118,118,34,2,0,44,36,750,['n'],0,left,['2'],5,350,[-0.01073199],20,44,hard,minus,dotcolour,beta,,,57,20,V,R,
119,119,35,2,0,27,53,783,['n'],1,right,['2'],5,355,[-0.06030829],54,53,easy,minus,dotcolour,beta,,,57,20,V,R,
120,120,36,2,0,53,27,850,['c'],1,left,['2'],5,915,[0.14990025],86,53,easy,minus,dotcolour,beta,,,57,20,V,R,
121,121,37,2,0,33,47,599,['n'],1,right,['1'],6,271,[-0.07867861],69,47,medium,minus,dotcolour,beta,,,57,20,V,R,
122,122,38,2,0,47,33,750,['c'],1,left,['2'],5,272,[-0.00357692],11,47,medium,minus,dotcolour,beta,,,57,20,V,R,
123,123,39,2,0,53,27,650,['c'],1,left,['2'],5,308,[0.05257068],48,53,easy,minus,dotcolour,beta,,,57,20,V,R,
124,124,40,2,0,44,36,600,['c'],1,left,['2'],5,360,[0.00841922],20,44,hard,minus,dotcolour,beta,,,57,20,V,R,
125,125,41,2,0,33,47,633,['n'],1,right,['2'],5,370,[-0.06314233],56,47,medium,minus,dotcolour,beta,,,57,20,V,R,
126,0,0,3,1,33,47,768,['n'],1,right,['1'],6,288,[-0.06917733],98,47,medium,plus,dotcolour,beta,,,57,20,V,R,
127,1,1,3,1,33,47,483,['n'],1,right,['2'],5,282,[-0.15160578],100,47,medium,plus,dotcolour,beta,,,57,20,V,R,
128,2,2,3,1,27,53,650,['n'],1,right,['1'],6,279,[-0.0916898],99,53,easy,plus,dotcolour,beta,,,57,20,V,R,
129,3,3,3,1,53,27,650,['c'],1,left,['2'],5,290,[0.08631021],99,53,easy,plus,dotcolour,beta,,,57,20,V,R,
130,4,4,3,1,47,33,917,['n'],0,left,['2'],5,451,[0.02493422],69,47,medium,plus,dotcolour,beta,,,57,20,V,R,
131,5,5,3,1,36,44,600,['n'],1,right,['1'],6,346,[-0.10592712],99,44,hard,plus,dotcolour,beta,,,57,20,V,R,
132,6,6,3,1,27,53,585,['n'],1,right,['1'],6,367,[-0.21471079],100,53,easy,plus,dotcolour,beta,,,57,20,V,R,
133,7,7,3,1,27,53,818,['n'],1,right,['2'],5,312,[-0.18884926],100,53,easy,plus,dotcolour,beta,,,57,20,V,R,
134,8,8,3,1,36,44,700,['n'],1,right,['2'],5,306,[-0.07130994],98,44,hard,plus,dotcolour,beta,,,57,20,V,R,
135,9,9,3,1,44,36,1401,['n'],0,left,['3'],4,406,[0.02828956],68,44,hard,plus,dotcolour,beta,,,57,20,V,R,
136,10,10,3,1,44,36,601,['n'],0,left,['3'],4,327,[-0.11291517],100,44,hard,plus,dotcolour,beta,,,57,20,V,R,
137,11,11,3,1,27,53,650,['n'],1,right,['1'],6,401,[-0.14991992],100,53,easy,plus,dotcolour,beta,,,57,20,V,R,
138,12,12,3,1,36,44,1117,['n'],1,right,['2'],5,365,[-0.03178918],93,44,hard,plus,dotcolour,beta,,,57,20,V,R,
139,13,13,3,1,53,27,982,['c'],1,left,['2'],5,338,[0.01246283],89,53,easy,plus,dotcolour,beta,,,57,20,V,R,
140,14,14,3,1,53,27,767,['c'],1,left,['2'],5,471,[0.29440335],100,53,easy,plus,dotcolour,beta,,,57,20,V,R,
141,15,15,3,1,53,27,884,['c'],1,left,['2'],5,377,[0.04802377],95,53,easy,plus,dotcolour,beta,,,57,20,V,R,
142,16,16,3,1,33,47,700,['n'],1,right,['2'],5,351,[-0.23806774],100,47,medium,plus,dotcolour,beta,,,57,20,V,R,
143,17,17,3,1,33,47,667,['n'],1,right,['2'],5,311,[-0.14541138],100,47,medium,plus,dotcolour,beta,,,57,20,V,R,
144,18,18,3,1,47,33,767,['n'],0,left,['2'],5,461,[-0.05623941],95,47,medium,plus,dotcolour,beta,,,57,20,V,R,
145,19,19,3,1,44,36,684,['n'],0,left,['2'],5,297,[-0.07164204],99,44,hard,plus,dotcolour,beta,,,57,20,V,R,
146,20,20,3,1,44,36,717,['n'],0,left,['2'],5,362,[-0.03195859],93,44,hard,plus,dotcolour,beta,,,57,20,V,R,
147,21,21,3,1,53,27,933,['c'],1,left,['2'],5,271,[0.07553409],99,53,easy,plus,dotcolour,beta,,,57,20,V,R,
148,22,22,3,1,44,36,749,['c'],1,left,['2'],5,320,[0.08252838],99,44,hard,plus,dotcolour,beta,,,57,20,V,R,
149,23,23,3,1,36,44,683,['n'],1,right,['2'],5,313,[-0.06728668],98,44,hard,plus,dotcolour,beta,,,57,20,V,R,
150,24,24,3,1,33,47,699,['n'],1,right,['1'],6,346,[-0.06154421],97,47,medium,plus,dotcolour,beta,,,57,20,V,R,
151,25,25,3,1,47,33,833,['c'],1,left,['2'],5,580,[0.13135773],99,47,medium,plus,dotcolour,beta,,,57,20,V,R,
152,26,26,3,1,53,27,918,['c'],1,left,['2'],5,353,[0.20371602],100,53,easy,plus,dotcolour,beta,,,57,20,V,R,
153,27,27,3,1,27,53,767,['n'],1,right,['1'],6,1525,[-0.45006084],100,53,easy,plus,dotcolour,beta,,,57,20,V,R,
154,28,28,3,1,47,33,1100,['n'],0,left,['2'],5,454,[-0.13283842],99,47,medium,plus,dotcolour,beta,,,57,20,V,R,
155,29,29,3,1,36,44,1050,['n'],1,right,['2'],5,1107,[-0.12262802],95,44,hard,plus,dotcolour,beta,,,57,20,V,R,
156,30,30,3,1,44,36,884,['c'],1,left,['2'],5,316,[-0.00906454],82,44,hard,plus,dotcolour,beta,,,57,20,V,R,
157,31,31,3,1,33,47,633,['n'],1,right,['1'],6,343,[-0.05421397],97,47,medium,plus,dotcolour,beta,,,57,20,V,R,
158,32,32,3,1,44,36,818,['c'],1,left,['2'],5,370,[0.06960635],98,44,hard,plus,dotcolour,beta,,,57,20,V,R,
159,33,33,3,1,47,33,868,['c'],1,left,['2'],5,354,[0.04850776],96,47,medium,plus,dotcolour,beta,,,57,20,V,R,
160,34,34,3,1,36,44,900,['n'],1,right,['2'],5,368,[-0.15723168],100,44,hard,plus,dotcolour,beta,,,57,20,V,R,
161,35,35,3,1,47,33,716,['c'],1,left,['2'],5,326,[0.10896131],99,47,medium,plus,dotcolour,beta,,,57,20,V,R,
162,36,36,3,1,27,53,717,['n'],1,right,['2'],5,870,[-0.25778253],100,53,easy,plus,dotcolour,beta,,,57,20,V,R,
163,37,37,3,1,33,47,582,['n'],1,right,['2'],5,517,[-0.07314737],96,47,medium,plus,dotcolour,beta,,,57,20,V,R,
164,38,38,3,1,27,53,684,['n'],1,right,['1'],6,342,[-0.11833245],100,53,easy,plus,dotcolour,beta,,,57,20,V,R,
165,39,39,3,1,53,27,667,['c'],1,left,['1'],6,357,[0.01305019],89,53,easy,plus,dotcolour,beta,,,57,20,V,R,
166,40,40,3,1,36,44,550,['n'],1,right,['2'],5,324,[-0.10277292],99,44,hard,plus,dotcolour,beta,,,57,20,V,R,
167,41,41,3,1,47,33,750,['c'],1,left,['2'],5,329,[0.15067919],100,47,medium,plus,dotcolour,beta,,,57,20,V,R,
168,42,0,4,1,47,33,884,['c'],1,left,['2'],5,323,[0.09137798],99,47,medium,plus,dotcolour,beta,,,57,20,V,R,
169,43,1,4,1,47,33,650,['c'],1,left,['2'],5,261,[0.0325207],96,47,medium,plus,dotcolour,beta,,,57,20,V,R,
170,44,2,4,1,36,44,600,['c'],0,right,['2'],5,300,[0.02396895],93,44,hard,plus,dotcolour,beta,,,57,20,V,R,
171,45,3,4,1,33,47,684,['n'],1,right,['2'],5,358,[-0.18187995],100,47,medium,plus,dotcolour,beta,,,57,20,V,R,
172,46,4,4,1,53,27,634,['c'],1,left,['1'],6,799,[0.14666305],98,53,easy,plus,dotcolour,beta,,,57,20,V,R,
173,47,5,4,1,53,27,983,['n'],0,left,['2'],5,1657,[0.04408716],54,53,easy,plus,dotcolour,beta,,,57,20,V,R,
174,48,6,4,1,27,53,632,['n'],1,right,['1'],6,303,[-0.16262907],100,53,easy,plus,dotcolour,beta,,,57,20,V,R,
175,49,7,4,1,44,36,750,['c'],1,left,['2'],5,326,[-0.01933383],76,44,hard,plus,dotcolour,beta,,,57,20,V,R,
176,50,8,4,1,33,47,732,['n'],1,right,['2'],5,493,[-0.08779568],98,47,medium,plus,dotcolour,beta,,,57,20,V,R,
177,51,9,4,1,27,53,549,['n'],1,right,['2'],5,292,[-0.1790362],100,53,easy,plus,dotcolour,beta,,,57,20,V,R,
178,52,10,4,1,44,36,750,['c'],1,left,['2'],5,292,[0.19811467],100,44,hard,plus,dotcolour,beta,,,57,20,V,R,
179,53,11,4,1,36,44,1101,['n'],1,right,['2'],5,437,[-0.02953104],91,44,hard,plus,dotcolour,beta,,,57,20,V,R,
180,54,12,4,1,47,33,784,['c'],1,left,['2'],5,294,[0.2065982],100,47,medium,plus,dotcolour,beta,,,57,20,V,R,
181,55,13,4,1,44,36,534,['n'],0,left,['2'],5,333,[0.00280245],84,44,hard,plus,dotcolour,beta,,,57,20,V,R,
182,56,14,4,1,36,44,617,['n'],1,right,['2'],5,289,[-0.0263034],94,44,hard,plus,dotcolour,beta,,,57,20,V,R,
183,57,15,4,1,33,47,500,['n'],1,right,['2'],5,314,[-0.09762743],99,47,medium,plus,dotcolour,beta,,,57,20,V,R,
184,58,16,4,1,36,44,500,['n'],1,right,['2'],5,283,[-0.20347043],100,44,hard,plus,dotcolour,beta,,,57,20,V,R,
185,59,17,4,1,27,53,566,['n'],1,right,['2'],5,507,[-0.27724782],100,53,easy,plus,dotcolour,beta,,,57,20,V,R,
186,60,18,4,1,44,36,817,['n'],0,left,['2'],5,366,[0.03567937],64,44,hard,plus,dotcolour,beta,,,57,20,V,R,
187,61,19,4,1,33,47,583,['n'],1,right,['2'],5,330,[-0.19141243],100,47,medium,plus,dotcolour,beta,,,57,20,V,R,
188,62,20,4,1,53,27,600,['c'],1,left,['2'],5,286,[0.13203158],100,53,easy,plus,dotcolour,beta,,,57,20,V,R,
189,63,21,4,1,27,53,466,['n'],1,right,['1'],6,409,[-0.09986369],99,53,easy,plus,dotcolour,beta,,,57,20,V,R,
190,64,22,4,1,53,27,733,['c'],1,left,['2'],5,300,[0.14389276],100,53,easy,plus,dotcolour,beta,,,57,20,V,R,
191,65,23,4,1,47,33,800,['c'],1,left,['2'],5,418,[0.06505388],97,47,medium,plus,dotcolour,beta,,,57,20,V,R,
192,66,24,4,1,53,27,749,['c'],1,left,['2'],5,341,[0.20507329],100,53,easy,plus,dotcolour,beta,,,57,20,V,R,
193,67,25,4,1,44,36,817,['c'],1,left,['2'],5,319,[0.15109359],100,44,hard,plus,dotcolour,beta,,,57,20,V,R,
194,68,26,4,1,53,27,617,['c'],1,left,['2'],5,363,[0.20307269],100,53,easy,plus,dotcolour,beta,,,57,20,V,R,
195,69,27,4,1,44,36,600,['n'],0,left,['2'],5,334,[-0.0206916],91,44,hard,plus,dotcolour,beta,,,57,20,V,R,
196,70,28,4,1,36,44,817,['n'],1,right,['1'],6,313,[0.02961339],70,44,hard,plus,dotcolour,beta,,,57,20,V,R,
197,71,29,4,1,36,44,733,['n'],1,right,['2'],5,513,[-0.02690623],89,44,hard,plus,dotcolour,beta,,,57,20,V,R,
198,72,30,4,1,33,47,583,['n'],1,right,['2'],5,278,[-0.10607316],100,47,medium,plus,dotcolour,beta,,,57,20,V,R,
199,73,31,4,1,47,33,850,['c'],1,left,['2'],5,282,[0.16900724],100,47,medium,plus,dotcolour,beta,,,57,20,V,R,
200,74,32,4,1,53,27,916,['c'],1,left,['2'],5,276,[0.10801211],100,53,easy,plus,dotcolour,beta,,,57,20,V,R,
201,75,33,4,1,27,53,633,['n'],1,right,['2'],5,288,[-0.08773986],99,53,easy,plus,dotcolour,beta,,,57,20,V,R,
202,76,34,4,1,33,47,600,['n'],1,right,['2'],5,229,[-0.08229382],99,47,medium,plus,dotcolour,beta,,,57,20,V,R,
203,77,35,4,1,44,36,666,['n'],0,left,['2'],5,226,[-0.07149797],99,44,hard,plus,dotcolour,beta,,,57,20,V,R,
204,78,36,4,1,27,53,551,['n'],1,right,['2'],5,285,[-0.01831586],92,53,easy,plus,dotcolour,beta,,,57,20,V,R,
205,79,37,4,1,33,47,632,['n'],1,right,['2'],5,265,[-0.12757145],100,47,medium,plus,dotcolour,beta,,,57,20,V,R,
206,80,38,4,1,36,44,650,['n'],1,right,['2'],5,302,[-0.08752159],99,44,hard,plus,dotcolour,beta,,,57,20,V,R,
207,81,39,4,1,27,53,617,['n'],1,right,['2'],5,259,[-0.06693862],99,53,easy,plus,dotcolour,beta,,,57,20,V,R,
208,82,40,4,1,47,33,800,['c'],1,left,['2'],5,610,[0.18863107],100,47,medium,plus,dotcolour,beta,,,57,20,V,R,
209,83,41,4,1,47,33,949,['n'],0,left,['2'],5,748,[0.04578852],55,47,medium,plus,dotcolour,beta,,,57,20,V,R,
210,84,0,5,1,47,33,1601,['n'],0,left,['2'],5,401,[-0.06202597],97,47,medium,plus,dotcolour,beta,,,57,20,V,R,
211,85,1,5,1,47,33,684,['c'],1,left,['2'],5,262,[0.13276646],100,47,medium,plus,dotcolour,beta,,,57,20,V,R,
212,86,2,5,1,27,53,617,['n'],1,right,['1'],6,292,[-0.129709],100,53,easy,plus,dotcolour,beta,,,57,20,V,R,
213,87,3,5,1,27,53,549,['n'],1,right,['1'],6,212,[-0.08529145],100,53,easy,plus,dotcolour,beta,,,57,20,V,R,
214,88,4,5,1,44,36,633,['c'],1,left,['2'],5,267,[0.11651004],100,44,hard,plus,dotcolour,beta,,,57,20,V,R,
215,89,5,5,1,33,47,634,['n'],1,right,['2'],5,272,[-0.1310104],100,47,medium,plus,dotcolour,beta,,,57,20,V,R,
216,90,6,5,1,53,27,551,['c'],1,left,['1'],6,704,[0.25412559],100,53,easy,plus,dotcolour,beta,,,57,20,V,R,
217,91,7,5,1,27,53,533,['n'],1,right,['1'],6,296,[-0.0588641],98,53,easy,plus,dotcolour,beta,,,57,20,V,R,
218,92,8,5,1,33,47,583,['n'],1,right,['1'],6,189,[-0.07166911],99,47,medium,plus,dotcolour,beta,,,57,20,V,R,
219,93,9,5,1,33,47,718,['n'],1,right,['1'],6,274,[-0.10824899],100,47,medium,plus,dotcolour,beta,,,57,20,V,R,
220,94,10,5,1,47,33,1267,['c'],1,left,['2'],5,422,[0.24067508],100,47,medium,plus,dotcolour,beta,,,57,20,V,R,
221,95,11,5,1,33,47,500,['n'],1,right,['2'],5,778,[-0.03815023],87,47,medium,plus,dotcolour,beta,,,57,20,V,R,
222,96,12,5,1,53,27,733,['c'],1,left,['2'],5,238,[0.14451163],100,53,easy,plus,dotcolour,beta,,,57,20,V,R,
223,97,13,5,1,53,27,700,['c'],1,left,['2'],5,274,[0.08770282],99,53,easy,plus,dotcolour,beta,,,57,20,V,R,
224,98,14,5,1,53,27,684,['c'],1,left,['2'],5,237,[0.09649308],100,53,easy,plus,dotcolour,beta,,,57,20,V,R,
225,99,15,5,1,36,44,882,['c'],0,right,['2'],5,274,[0.02623999],94,44,hard,plus,dotcolour,beta,,,57,20,V,R,
226,100,16,5,1,47,33,634,['c'],1,left,['2'],5,255,[0.11496134],100,47,medium,plus,dotcolour,beta,,,57,20,V,R,
227,101,17,5,1,36,44,750,['n'],1,right,['2'],5,304,[0.0177391],77,44,hard,plus,dotcolour,beta,,,57,20,V,R,
228,102,18,5,1,33,47,1033,['c'],0,right,['2'],5,244,[0.08283165],99,47,medium,plus,dotcolour,beta,,,57,20,V,R,
229,103,19,5,1,44,36,1100,['n'],0,left,['2'],5,408,[0.01674463],75,44,hard,plus,dotcolour,beta,,,57,20,V,R,
230,104,20,5,1,44,36,616,['c'],1,left,['2'],5,263,[0.13741464],100,44,hard,plus,dotcolour,beta,,,57,20,V,R,
231,105,21,5,1,36,44,617,['n'],1,right,['2'],5,302,[-0.11045722],100,44,hard,plus,dotcolour,beta,,,57,20,V,R,
232,106,22,5,1,33,47,633,['n'],1,right,['1'],6,329,[-0.11744218],100,47,medium,plus,dotcolour,beta,,,57,20,V,R,
233,107,23,5,1,47,33,617,['c'],1,left,['2'],5,269,[0.17546706],100,47,medium,plus,dotcolour,beta,,,57,20,V,R,
234,108,24,5,1,53,27,733,['c'],1,left,['2'],5,286,[0.15172137],100,53,easy,plus,dotcolour,beta,,,57,20,V,R,
235,109,25,5,1,44,36,934,['c'],1,left,['2'],5,359,[0.12436434],100,44,hard,plus,dotcolour,beta,,,57,20,V,R,
236,110,26,5,1,36,44,634,['n'],1,right,['2'],5,352,[-0.06044109],97,44,hard,plus,dotcolour,beta,,,57,20,V,R,
237,111,27,5,1,36,44,600,['n'],1,right,['1'],6,340,[-0.15742132],100,44,hard,plus,dotcolour,beta,,,57,20,V,R,
238,112,28,5,1,44,36,967,['n'],0,left,['2'],5,1088,[0.04725622],54,44,hard,plus,dotcolour,beta,,,57,20,V,R,
239,113,29,5,1,27,53,633,['n'],1,right,['2'],5,284,[-0.14309338],100,53,easy,plus,dotcolour,beta,,,57,20,V,R,
240,114,30,5,1,44,36,667,['c'],1,left,['1'],6,311,[0.12910577],100,44,hard,plus,dotcolour,beta,,,57,20,V,R,
241,115,31,5,1,47,33,584,['c'],1,left,['1'],6,261,[0.02411752],94,47,medium,plus,dotcolour,beta,,,57,20,V,R,
242,116,32,5,1,47,33,851,['c'],1,left,['2'],5,362,[0.05097661],96,47,medium,plus,dotcolour,beta,,,57,20,V,R,
243,117,33,5,1,27,53,634,['n'],1,right,['1'],6,531,[-0.21881347],100,53,easy,plus,dotcolour,beta,,,57,20,V,R,
244,118,34,5,1,53,27,717,['c'],1,left,['2'],5,842,[0.10860637],96,53,easy,plus,dotcolour,beta,,,57,20,V,R,
245,119,35,5,1,36,44,1051,['n'],1,right,['2'],5,1544,[0.02007376],63,44,hard,plus,dotcolour,beta,,,57,20,V,R,
246,120,36,5,1,33,47,633,['n'],1,right,['2'],5,306,[-0.05615881],97,47,medium,plus,dotcolour,beta,,,57,20,V,R,
247,121,37,5,1,27,53,583,['n'],1,right,['2'],5,1991,[-0.39544852],100,53,easy,plus,dotcolour,beta,,,57,20,V,R,
248,122,38,5,1,27,53,651,['n'],1,right,['2'],5,270,[-0.11173818],100,53,easy,plus,dotcolour,beta,,,57,20,V,R,
249,123,39,5,1,36,44,650,['n'],1,right,['2'],5,427,[-0.01180345],86,44,hard,plus,dotcolour,beta,,,57,20,V,R,
250,124,40,5,1,44,36,767,['c'],1,left,['2'],5,292,[-0.02228131],75,44,hard,plus,dotcolour,beta,,,57,20,V,R,
251,125,41,5,1,53,27,717,['c'],1,left,['1'],6,373,[0.10386631],99,53,easy,plus,dotcolour,beta,,,57,20,V,R,
252,0,0,6,2,36,44,651,['n'],1,right,['2'],5,589,[-0.04659842],45,44,hard,minus,dotcolour,beta,,,57,20,V,R,
253,1,1,6,2,47,33,617,['c'],1,left,['2'],5,542,[0.21111036],98,47,medium,minus,dotcolour,beta,,,57,20,V,R,
254,2,2,6,2,44,36,883,['n'],0,left,['2'],5,366,[-0.04913274],45,44,hard,minus,dotcolour,beta,,,57,20,V,R,
255,3,3,6,2,33,47,617,['n'],1,right,['2'],5,600,[-0.12104892],82,47,medium,minus,dotcolour,beta,,,57,20,V,R,
256,4,4,6,2,47,33,633,['c'],1,left,['2'],5,400,[0.18363771],97,47,medium,minus,dotcolour,beta,,,57,20,V,R,
257,5,5,6,2,44,36,800,['n'],0,left,['2'],5,505,[0.02328036],12,44,hard,minus,dotcolour,beta,,,57,20,V,R,
258,6,6,6,2,47,33,583,['c'],1,left,['1'],6,454,[0.21368311],99,47,medium,minus,dotcolour,beta,,,57,20,V,R,
259,7,7,6,2,53,27,767,['c'],1,left,['1'],6,303,[0.20521996],99,53,easy,minus,dotcolour,beta,,,57,20,V,R,
260,8,8,6,2,33,47,683,['n'],1,right,['1'],6,352,[-0.17091183],97,47,medium,minus,dotcolour,beta,,,57,20,V,R,
261,9,9,6,2,44,36,1250,['c'],1,left,['2'],5,426,[0.14158286],91,44,hard,minus,dotcolour,beta,,,57,20,V,R,
262,10,10,6,2,47,33,816,['n'],0,left,['2'],5,505,[0.00555856],18,47,medium,minus,dotcolour,beta,,,57,20,V,R,
263,11,11,6,2,33,47,633,['c'],0,right,['2'],5,965,[-0.06326021],10,47,medium,minus,dotcolour,beta,,,57,20,V,R,
264,12,12,6,2,27,53,483,['n'],1,right,['1'],6,356,[0.01796057],10,53,easy,minus,dotcolour,beta,,,57,20,V,R,
265,13,13,6,2,36,44,867,['n'],1,right,['2'],5,1652,[-0.11580484],70,44,hard,minus,dotcolour,beta,,,57,20,V,R,
266,14,14,6,2,36,44,867,['n'],1,right,['2'],5,648,[-0.12550316],83,44,hard,minus,dotcolour,beta,,,57,20,V,R,
267,15,15,6,2,36,44,651,['n'],1,right,['2'],5,533,[-0.15102851],91,44,hard,minus,dotcolour,beta,,,57,20,V,R,
268,16,16,6,2,53,27,666,['c'],1,left,['1'],6,455,[0.14242281],91,53,easy,minus,dotcolour,beta,,,57,20,V,R,
269,17,17,6,2,47,33,584,['n'],0,left,['2'],5,358,[0.03270957],7,47,medium,minus,dotcolour,beta,,,57,20,V,R,
270,18,18,6,2,47,33,650,['n'],0,left,['2'],5,351,[0.05368091],3,47,medium,minus,dotcolour,beta,,,57,20,V,R,
271,19,19,6,2,33,47,650,['n'],1,right,['2'],5,416,[-0.12542505],88,47,medium,minus,dotcolour,beta,,,57,20,V,R,
272,20,20,6,2,44,36,850,['n'],0,left,['2'],5,407,[-0.00741676],20,44,hard,minus,dotcolour,beta,,,57,20,V,R,
273,21,21,6,2,36,44,683,['n'],1,right,['2'],5,333,[-0.07903004],68,44,hard,minus,dotcolour,beta,,,57,20,V,R,
274,22,22,6,2,27,53,683,['n'],1,right,['2'],5,317,[-0.189068],99,53,easy,minus,dotcolour,beta,,,57,20,V,R,
275,23,23,6,2,27,53,434,['n'],1,right,['1'],6,376,[-0.20678524],99,53,easy,minus,dotcolour,beta,,,57,20,V,R,
276,24,24,6,2,36,44,501,['n'],1,right,['2'],5,375,[-0.03308224],34,44,hard,minus,dotcolour,beta,,,57,20,V,R,
277,25,25,6,2,33,47,467,['n'],1,right,['2'],5,357,[-0.26566853],100,47,medium,minus,dotcolour,beta,,,57,20,V,R,
278,26,26,6,2,33,47,534,['n'],1,right,['1'],6,323,[-0.12688085],91,47,medium,minus,dotcolour,beta,,,57,20,V,R,
279,27,27,6,2,44,36,467,['n'],0,left,['2'],5,364,[-0.14493007],94,44,hard,minus,dotcolour,beta,,,57,20,V,R,
280,28,28,6,2,27,53,434,['n'],1,right,['1'],6,478,[-0.20402056],98,53,easy,minus,dotcolour,beta,,,57,20,V,R,
281,29,29,6,2,47,33,1300,['c'],1,left,['2'],5,328,[0.11242603],86,47,medium,minus,dotcolour,beta,,,57,20,V,R,
282,30,30,6,2,53,27,717,['c'],1,left,['2'],5,310,[0.12454397],90,53,easy,minus,dotcolour,beta,,,57,20,V,R,
283,31,31,6,2,27,53,683,['n'],1,right,['2'],5,360,[-0.09145164],75,53,easy,minus,dotcolour,beta,,,57,20,V,R,
284,32,32,6,2,53,27,667,['c'],1,left,['1'],6,344,[-0.01950358],9,53,easy,minus,dotcolour,beta,,,57,20,V,R,
285,33,33,6,2,36,44,601,['n'],1,right,['2'],5,372,[-0.07531769],64,44,hard,minus,dotcolour,beta,,,57,20,V,R,
286,34,34,6,2,44,36,452,['n'],0,left,['2'],5,356,[-0.08270159],69,44,hard,minus,dotcolour,beta,,,57,20,V,R,
287,35,35,6,2,27,53,867,['n'],1,right,['1'],6,236,[-0.09646561],82,53,easy,minus,dotcolour,beta,,,57,20,V,R,
288,36,36,6,2,53,27,750,['c'],1,left,['2'],5,326,[0.17252312],98,53,easy,minus,dotcolour,beta,,,57,20,V,R,
289,37,37,6,2,33,47,667,['n'],1,right,['2'],5,343,[-0.09727355],78,47,medium,minus,dotcolour,beta,,,57,20,V,R,
290,38,38,6,2,27,53,700,['n'],1,right,['1'],6,295,[-0.13494309],93,53,easy,minus,dotcolour,beta,,,57,20,V,R,
291,39,39,6,2,53,27,734,['n'],0,left,['2'],5,350,[-0.0299714],31,53,easy,minus,dotcolour,beta,,,57,20,V,R,
292,40,40,6,2,44,36,1566,['c'],1,left,['2'],5,355,[-0.02306182],9,44,hard,minus,dotcolour,beta,,,57,20,V,R,
293,41,41,6,2,53,27,683,['c'],1,left,['2'],5,347,[0.15737874],96,53,easy,minus,dotcolour,beta,,,57,20,V,R,
294,42,0,7,2,44,36,2251,['n'],0,left,['2'],5,371,[-0.05335799],48,44,hard,minus,dotcolour,beta,,,57,20,V,R,
295,43,1,7,2,27,53,850,['n'],1,right,['2'],5,387,[-0.19619052],98,53,easy,minus,dotcolour,beta,,,57,20,V,R,
296,44,2,7,2,53,27,634,['c'],1,left,['1'],6,676,[0.29215014],99,53,easy,minus,dotcolour,beta,,,57,20,V,R,
297,45,3,7,2,53,27,917,['c'],1,left,['1'],6,1237,[0.02926427],40,53,easy,minus,dotcolour,beta,,,57,20,V,R,
298,46,4,7,2,27,53,616,['n'],1,right,['2'],5,364,[-0.05093254],47,53,easy,minus,dotcolour,beta,,,57,20,V,R,
299,47,5,7,2,44,36,684,['n'],0,left,['2'],5,388,[-0.05743953],51,44,hard,minus,dotcolour,beta,,,57,20,V,R,
300,48,6,7,2,44,36,1084,['c'],1,left,['2'],5,361,[0.0471574],44,44,hard,minus,dotcolour,beta,,,57,20,V,R,
301,49,7,7,2,36,44,800,['n'],1,right,['2'],5,404,[-0.04417928],42,44,hard,minus,dotcolour,beta,,,57,20,V,R,
302,50,8,7,2,47,33,701,['c'],1,left,['2'],5,289,[0.1171327],89,47,medium,minus,dotcolour,beta,,,57,20,V,R,
303,51,9,7,2,27,53,684,['c'],0,right,['0'],1,1163,[-0.01311971],24,53,easy,minus,dotcolour,beta,,,57,20,V,R,
304,52,10,7,2,33,47,700,['n'],1,right,['2'],5,585,[-0.04419735],43,47,medium,minus,dotcolour,beta,,,57,20,V,R,
305,53,11,7,2,47,33,1167,['c'],1,left,['2'],5,389,[0.08454798],70,47,medium,minus,dotcolour,beta,,,57,20,V,R,
306,54,12,7,2,47,33,1583,['c'],1,left,['2'],5,376,[-0.04459614],5,47,medium,minus,dotcolour,beta,,,57,20,V,R,
307,55,13,7,2,27,53,751,['n'],1,right,['1'],6,259,[-0.08842226],76,53,easy,minus,dotcolour,beta,,,57,20,V,R,
308,56,14,7,2,33,47,684,['n'],1,right,['2'],5,646,[-0.14143181],87,47,medium,minus,dotcolour,beta,,,57,20,V,R,
309,57,15,7,2,53,27,800,['c'],1,left,['2'],5,341,[0.0855859],72,53,easy,minus,dotcolour,beta,,,57,20,V,R,
310,58,16,7,2,27,53,667,['n'],1,right,['2'],5,366,[-0.13342014],91,53,easy,minus,dotcolour,beta,,,57,20,V,R,
311,59,17,7,2,33,47,2550,['n'],1,right,['2'],5,779,[-0.16429117],90,47,medium,minus,dotcolour,beta,,,57,20,V,R,
312,60,18,7,2,47,33,883,['c'],1,left,['2'],5,378,[0.12745739],89,47,medium,minus,dotcolour,beta,,,57,20,V,R,
313,61,19,7,2,33,47,750,['n'],1,right,['3'],4,589,[-0.10559757],76,47,medium,minus,dotcolour,beta,,,57,20,V,R,
314,62,20,7,2,47,33,817,['c'],1,left,['3'],4,374,[0.12819799],89,47,medium,minus,dotcolour,beta,,,57,20,V,R,
315,63,21,7,2,53,27,715,['c'],1,left,['3'],4,316,[0.12399745],90,53,easy,minus,dotcolour,beta,,,57,20,V,R,
316,64,22,7,2,44,36,734,['n'],0,left,['2'],5,323,[-0.13566665],93,44,hard,minus,dotcolour,beta,,,57,20,V,R,
317,65,23,7,2,44,36,734,['n'],0,left,['2'],5,242,[-0.10041896],84,44,hard,minus,dotcolour,beta,,,57,20,V,R,
318,66,24,7,2,53,27,817,['c'],1,left,['1'],6,352,[0.03699722],36,53,easy,minus,dotcolour,beta,,,57,20,V,R,
319,67,25,7,2,33,47,1299,['n'],1,right,['1'],6,392,[-0.08682362],71,47,medium,minus,dotcolour,beta,,,57,20,V,R,
320,68,26,7,2,47,33,851,['n'],0,left,['3'],4,663,[-0.12108066],81,47,medium,minus,dotcolour,beta,,,57,20,V,R,
321,69,27,7,2,44,36,900,['c'],1,left,['3'],4,386,[0.12789246],89,44,hard,minus,dotcolour,beta,,,57,20,V,R,
322,70,28,7,2,36,44,900,['n'],1,right,['3'],4,416,[-0.09926619],77,44,hard,minus,dotcolour,beta,,,57,20,V,R,
323,71,29,7,2,27,53,917,['n'],1,right,['2'],5,380,[-0.184759],98,53,easy,minus,dotcolour,beta,,,57,20,V,R,
324,72,30,7,2,36,44,718,['n'],1,right,['3'],4,249,[-0.14632053],96,44,hard,minus,dotcolour,beta,,,57,20,V,R,
325,73,31,7,2,27,53,750,['n'],1,right,['1'],6,1186,[-0.12609505],76,53,easy,minus,dotcolour,beta,,,57,20,V,R,
326,74,32,7,2,36,44,817,['n'],1,right,['3'],4,627,[-0.03482373],38,44,hard,minus,dotcolour,beta,,,57,20,V,R,
327,75,33,7,2,44,36,700,['n'],0,left,['3'],4,487,[0.02348002],12,44,hard,minus,dotcolour,beta,,,57,20,V,R,
328,76,34,7,2,47,33,834,['c'],1,left,['3'],4,395,[0.08906533],72,47,medium,minus,dotcolour,beta,,,57,20,V,R,
329,77,35,7,2,33,47,616,['n'],1,right,['2'],5,396,[-0.1093668],82,47,medium,minus,dotcolour,beta,,,57,20,V,R,
330,78,36,7,2,53,27,801,['c'],1,left,['2'],5,365,[0.07712105],66,53,easy,minus,dotcolour,beta,,,57,20,V,R,
331,79,37,7,2,33,47,917,['n'],1,right,['2'],5,323,[-0.06435392],57,47,medium,minus,dotcolour,beta,,,57,20,V,R,
332,80,38,7,2,36,44,1684,['n'],1,right,['2'],5,516,[-0.25057193],99,44,hard,minus,dotcolour,beta,,,57,20,V,R,
333,81,39,7,2,36,44,1735,['c'],0,right,['2'],5,300,[-0.04072102],4,44,hard,minus,dotcolour,beta,,,57,20,V,R,
334,82,40,7,2,53,27,767,['c'],1,left,['2'],5,306,[0.16705279],97,53,easy,minus,dotcolour,beta,,,57,20,V,R,
335,83,41,7,2,36,44,750,['n'],1,right,['3'],4,761,[-0.0330293],39,44,hard,minus,dotcolour,beta,,,57,20,V,R,
336,84,0,8,2,44,36,801,['c'],1,left,['2'],5,402,[0.03458239],36,44,hard,minus,dotcolour,beta,,,57,20,V,R,
337,85,1,8,2,47,33,717,['c'],1,left,['1'],6,351,[0.15787217],96,47,medium,minus,dotcolour,beta,,,57,20,V,R,
338,86,2,8,2,47,33,633,['c'],1,left,['2'],5,321,[0.10540871],83,47,medium,minus,dotcolour,beta,,,57,20,V,R,
339,87,3,8,2,27,53,618,['n'],1,right,['2'],5,325,[-0.07305632],63,53,easy,minus,dotcolour,beta,,,57,20,V,R,
340,88,4,8,2,33,47,1016,['c'],0,right,['9'],2,1888,[-0.23382524],2,47,medium,minus,dotcolour,beta,,,57,20,V,R,
341,89,5,8,2,47,33,801,['n'],0,left,['2'],5,302,[-0.03778279],36,47,medium,minus,dotcolour,beta,,,57,20,V,R,
342,90,6,8,2,47,33,651,['c'],1,left,['2'],5,297,[0.11060905],86,47,medium,minus,dotcolour,beta,,,57,20,V,R,
343,91,7,8,2,53,27,667,['c'],1,left,['2'],5,292,[0.14998712],96,53,easy,minus,dotcolour,beta,,,57,20,V,R,
344,92,8,8,2,53,27,600,['c'],1,left,['2'],5,281,[0.01706915],21,53,easy,minus,dotcolour,beta,,,57,20,V,R,
345,93,9,8,2,47,33,900,['c'],1,left,['2'],5,299,[0.05279489],48,47,medium,minus,dotcolour,beta,,,57,20,V,R,
346,94,10,8,2,36,44,666,['n'],1,right,['2'],5,278,[-0.08742119],75,44,hard,minus,dotcolour,beta,,,57,20,V,R,
347,95,11,8,2,53,27,700,['c'],1,left,['2'],5,384,[0.07253704],62,53,easy,minus,dotcolour,beta,,,57,20,V,R,
348,96,12,8,2,33,47,583,['n'],1,right,['2'],5,258,[-0.09586526],81,47,medium,minus,dotcolour,beta,,,57,20,V,R,
349,97,13,8,2,33,47,467,['n'],1,right,['2'],5,270,[-0.06164165],55,47,medium,minus,dotcolour,beta,,,57,20,V,R,
350,98,14,8,2,44,36,535,['n'],0,left,['2'],5,256,[-0.08569254],75,44,hard,minus,dotcolour,beta,,,57,20,V,R,
351,99,15,8,2,44,36,500,['n'],0,left,['2'],5,259,[-0.07032345],63,44,hard,minus,dotcolour,beta,,,57,20,V,R,
352,100,16,8,2,33,47,484,['n'],1,right,['2'],5,270,[-0.07027328],62,47,medium,minus,dotcolour,beta,,,57,20,V,R,
353,101,17,8,2,27,53,517,['n'],1,right,['2'],5,240,[-0.12951585],94,53,easy,minus,dotcolour,beta,,,57,20,V,R,
354,102,18,8,2,36,44,616,['n'],1,right,['2'],5,246,[-0.13614677],95,44,hard,minus,dotcolour,beta,,,57,20,V,R,
355,103,19,8,2,27,53,584,['n'],1,right,['2'],5,294,[-0.18296137],99,53,easy,minus,dotcolour,beta,,,57,20,V,R,
356,104,20,8,2,47,33,1184,['c'],1,left,['2'],5,268,[0.09746082],81,47,medium,minus,dotcolour,beta,,,57,20,V,R,
357,105,21,8,2,33,47,1432,['n'],1,right,['2'],5,3266,[-0.62031426],100,47,medium,minus,dotcolour,beta,,,57,20,V,R,
358,106,22,8,2,36,44,683,['n'],1,right,['2'],5,549,[0.00802684],18,44,hard,minus,dotcolour,beta,,,57,20,V,R,
359,107,23,8,2,27,53,716,['n'],1,right,['2'],5,524,[-0.04970879],46,53,easy,minus,dotcolour,beta,,,57,20,V,R,
360,108,24,8,2,53,27,684,['c'],1,left,['2'],5,404,[0.07271113],62,53,easy,minus,dotcolour,beta,,,57,20,V,R,
361,109,25,8,2,36,44,651,['n'],1,right,['2'],5,427,[-0.10839485],81,44,hard,minus,dotcolour,beta,,,57,20,V,R,
362,110,26,8,2,36,44,767,['n'],1,right,['2'],5,389,[-0.16052003],95,44,hard,minus,dotcolour,beta,,,57,20,V,R,
363,111,27,8,2,44,36,616,['n'],0,left,['2'],5,382,[-0.03401283],35,44,hard,minus,dotcolour,beta,,,57,20,V,R,
364,112,28,8,2,36,44,1701,['c'],0,right,['2'],5,348,[0.05259067],48,44,hard,minus,dotcolour,beta,,,57,20,V,R,
365,113,29,8,2,53,27,650,['c'],1,left,['2'],5,373,[0.13790402],92,53,easy,minus,dotcolour,beta,,,57,20,V,R,
366,114,30,8,2,44,36,1050,['n'],0,left,['2'],5,381,[-0.09351768],75,44,hard,minus,dotcolour,beta,,,57,20,V,R,
367,115,31,8,2,33,47,666,['n'],1,right,['2'],5,524,[-0.12426031],85,47,medium,minus,dotcolour,beta,,,57,20,V,R,
368,116,32,8,2,27,53,483,['n'],1,right,['1'],6,349,[-0.15542613],95,53,easy,minus,dotcolour,beta,,,57,20,V,R,
369,117,33,8,2,44,36,801,['c'],1,left,['2'],5,296,[0.11869394],89,44,hard,minus,dotcolour,beta,,,57,20,V,R,
370,118,34,8,2,53,27,700,['c'],1,left,['1'],6,345,[0.10045973],80,53,easy,minus,dotcolour,beta,,,57,20,V,R,
371,119,35,8,2,33,47,801,['n'],1,right,['1'],6,381,[-0.06192409],55,47,medium,minus,dotcolour,beta,,,57,20,V,R,
372,120,36,8,2,27,53,649,['n'],1,right,['2'],5,453,[-0.22147186],99,53,easy,minus,dotcolour,beta,,,57,20,V,R,
373,121,37,8,2,36,44,616,['n'],1,right,['2'],5,332,[-0.1228821],89,44,hard,minus,dotcolour,beta,,,57,20,V,R,
374,122,38,8,2,27,53,583,['n'],1,right,['1'],6,288,[-0.08806006],75,53,easy,minus,dotcolour,beta,,,57,20,V,R,
375,123,39,8,2,44,36,650,['n'],0,left,['2'],5,292,[-0.15474292],96,44,hard,minus,dotcolour,beta,,,57,20,V,R,
376,124,40,8,2,47,33,551,['n'],0,left,['2'],5,291,[-0.14509966],95,47,medium,minus,dotcolour,beta,,,57,20,V,R,
377,125,41,8,2,53,27,634,['n'],0,left,['0'],1,823,[0.16214882],1,53,easy,minus,dotcolour,beta,,,57,20,V,R,
378,0,0,9,3,44,36,1634,['n'],0,left,['2'],5,1577,[-0.03016427],77,44,hard,plus,dotcolour,beta,,,57,20,V,R,
379,1,1,9,3,53,27,817,['c'],1,left,['1'],6,1034,[0.25765948],100,53,easy,plus,dotcolour,beta,,,57,20,V,R,
380,2,2,9,3,33,47,700,['n'],1,right,['1'],6,285,[-0.02350719],93,47,medium,plus,dotcolour,beta,,,57,20,V,R,
381,3,3,9,3,47,33,2067,['c'],1,left,['2'],5,401,[0.09943336],99,47,medium,plus,dotcolour,beta,,,57,20,V,R,
382,4,4,9,3,47,33,883,['c'],1,left,['2'],5,374,[0.09936658],99,47,medium,plus,dotcolour,beta,,,57,20,V,R,
383,5,5,9,3,27,53,599,['n'],1,right,['1'],6,297,[-0.06546859],98,53,easy,plus,dotcolour,beta,,,57,20,V,R,
384,6,6,9,3,53,27,701,['c'],1,left,['2'],5,370,[0.15459742],100,53,easy,plus,dotcolour,beta,,,57,20,V,R,
385,7,7,9,3,33,47,567,['n'],1,right,['1'],6,286,[-0.12596992],100,47,medium,plus,dotcolour,beta,,,57,20,V,R,
386,8,8,9,3,53,27,750,['c'],1,left,['1'],6,495,[0.20012105],100,53,easy,plus,dotcolour,beta,,,57,20,V,R,
387,9,9,9,3,44,36,616,['n'],0,left,['2'],5,347,[-0.11687983],99,44,hard,plus,dotcolour,beta,,,57,20,V,R,
388,10,10,9,3,33,47,701,['n'],1,right,['1'],6,418,[-0.07070486],97,47,medium,plus,dotcolour,beta,,,57,20,V,R,
389,11,11,9,3,36,44,517,['n'],1,right,['2'],5,398,[-0.05649256],96,44,hard,plus,dotcolour,beta,,,57,20,V,R,
390,12,12,9,3,36,44,633,['n'],1,right,['2'],5,294,[-0.04771653],97,44,hard,plus,dotcolour,beta,,,57,20,V,R,
391,13,13,9,3,33,47,651,['n'],1,right,['2'],5,497,[0.00468087],79,47,medium,plus,dotcolour,beta,,,57,20,V,R,
392,14,14,9,3,44,36,1500,['c'],1,left,['2'],5,275,[0.11300575],100,44,hard,plus,dotcolour,beta,,,57,20,V,R,
393,15,15,9,3,27,53,550,['n'],1,right,['1'],6,315,[-0.10811354],99,53,easy,plus,dotcolour,beta,,,57,20,V,R,
394,16,16,9,3,33,47,482,['n'],1,right,['2'],5,356,[-0.08451803],99,47,medium,plus,dotcolour,beta,,,57,20,V,R,
395,17,17,9,3,36,44,484,['n'],1,right,['1'],6,363,[-0.00068872],84,44,hard,plus,dotcolour,beta,,,57,20,V,R,
396,18,18,9,3,27,53,450,['n'],1,right,['1'],6,356,[-0.05020591],96,53,easy,plus,dotcolour,beta,,,57,20,V,R,
397,19,19,9,3,36,44,517,['n'],1,right,['1'],6,330,[-0.08241846],99,44,hard,plus,dotcolour,beta,,,57,20,V,R,
398,20,20,9,3,53,27,784,['c'],1,left,['1'],6,255,[0.13729252],100,53,easy,plus,dotcolour,beta,,,57,20,V,R,
399,21,21,9,3,33,47,767,['n'],1,right,['1'],6,416,[-0.16738942],100,47,medium,plus,dotcolour,beta,,,57,20,V,R,
400,22,22,9,3,47,33,600,['n'],0,left,['2'],5,312,[0.0157329],78,47,medium,plus,dotcolour,beta,,,57,20,V,R,
401,23,23,9,3,27,53,601,['n'],1,right,['2'],5,213,[-0.03480908],97,53,easy,plus,dotcolour,beta,,,57,20,V,R,
402,24,24,9,3,27,53,467,['n'],1,right,['2'],5,291,[-0.07749212],99,53,easy,plus,dotcolour,beta,,,57,20,V,R,
403,25,25,9,3,53,27,817,['c'],1,left,['2'],5,248,[0.10869103],100,53,easy,plus,dotcolour,beta,,,57,20,V,R,
404,26,26,9,3,44,36,1033,['n'],0,left,['2'],5,534,[-0.05119817],93,44,hard,plus,dotcolour,beta,,,57,20,V,R,
405,27,27,9,3,36,44,5934,['n'],1,right,['2'],5,3052,[-0.19464781],93,44,hard,plus,dotcolour,beta,,,57,20,V,R,
406,28,28,9,3,36,44,500,['n'],1,right,['2'],5,302,[-0.20956099],100,44,hard,plus,dotcolour,beta,,,57,20,V,R,
407,29,29,9,3,44,36,900,['c'],1,left,['2'],5,288,[0.08596321],99,44,hard,plus,dotcolour,beta,,,57,20,V,R,
408,30,30,9,3,33,47,600,['n'],1,right,['2'],5,294,[-0.10003222],99,47,medium,plus,dotcolour,beta,,,57,20,V,R,
409,31,31,9,3,53,27,667,['n'],0,left,['2'],5,416,[-0.04274946],94,53,easy,plus,dotcolour,beta,,,57,20,V,R,
410,32,32,9,3,27,53,617,['n'],1,right,['1'],6,848,[-0.23936209],100,53,easy,plus,dotcolour,beta,,,57,20,V,R,
411,33,33,9,3,36,44,834,['n'],1,right,['2'],5,311,[-0.17114195],100,44,hard,plus,dotcolour,beta,,,57,20,V,R,
412,34,34,9,3,44,36,1617,['n'],0,left,['2'],5,402,[-0.07614517],98,44,hard,plus,dotcolour,beta,,,57,20,V,R,
413,35,35,9,3,47,33,834,['n'],0,left,['2'],5,338,[-0.06244607],97,47,medium,plus,dotcolour,beta,,,57,20,V,R,
414,36,36,9,3,44,36,951,['n'],0,left,['2'],5,304,[-0.07060626],98,44,hard,plus,dotcolour,beta,,,57,20,V,R,
415,37,37,9,3,27,53,766,['n'],1,right,['2'],5,327,[-0.14346732],100,53,easy,plus,dotcolour,beta,,,57,20,V,R,
416,38,38,9,3,47,33,866,['n'],0,left,['2'],5,344,[-0.00208083],85,47,medium,plus,dotcolour,beta,,,57,20,V,R,
417,39,39,9,3,47,33,883,['n'],0,left,['2'],5,192,[-0.11039307],100,47,medium,plus,dotcolour,beta,,,57,20,V,R,
418,40,40,9,3,53,27,717,['c'],1,left,['1'],6,301,[0.12490848],100,53,easy,plus,dotcolour,beta,,,57,20,V,R,
419,41,41,9,3,47,33,634,['n'],0,left,['2'],5,273,[-0.0931895],99,47,medium,plus,dotcolour,beta,,,57,20,V,R,
420,42,0,10,3,53,27,1118,['c'],1,left,['2'],5,437,[0.14655476],100,53,easy,plus,dotcolour,beta,,,57,20,V,R,
421,43,1,10,3,53,27,667,['c'],1,left,['2'],5,338,[0.14525849],100,53,easy,plus,dotcolour,beta,,,57,20,V,R,
422,44,2,10,3,33,47,618,['n'],1,right,['2'],5,253,[-0.12265258],100,47,medium,plus,dotcolour,beta,,,57,20,V,R,
423,45,3,10,3,47,33,834,['c'],1,left,['2'],5,331,[0.23103748],100,47,medium,plus,dotcolour,beta,,,57,20,V,R,
424,46,4,10,3,44,36,1016,['n'],0,left,['3'],4,254,[-0.02773882],95,44,hard,plus,dotcolour,beta,,,57,20,V,R,
425,47,5,10,3,47,33,1233,['c'],1,left,['3'],4,316,[0.19221562],100,47,medium,plus,dotcolour,beta,,,57,20,V,R,
426,48,6,10,3,44,36,801,['n'],0,left,['3'],4,433,[-0.00399007],84,44,hard,plus,dotcolour,beta,,,57,20,V,R,
427,49,7,10,3,47,33,868,['n'],0,left,['3'],4,342,[-0.05302847],97,47,medium,plus,dotcolour,beta,,,57,20,V,R,
428,50,8,10,3,53,27,801,['n'],0,left,['3'],4,370,[0.01630591],76,53,easy,plus,dotcolour,beta,,,57,20,V,R,
429,51,9,10,3,33,47,600,['n'],1,right,['1'],6,260,[-0.01682088],93,47,medium,plus,dotcolour,beta,,,57,20,V,R,
430,52,10,10,3,44,36,950,['c'],1,left,['2'],5,237,[0.06627892],99,44,hard,plus,dotcolour,beta,,,57,20,V,R,
431,53,11,10,3,27,53,884,['n'],1,right,['2'],5,322,[-0.14372103],100,53,easy,plus,dotcolour,beta,,,57,20,V,R,
432,54,12,10,3,44,36,917,['c'],1,left,['2'],5,281,[0.10825744],100,44,hard,plus,dotcolour,beta,,,57,20,V,R,
433,55,13,10,3,44,36,750,['c'],1,left,['2'],5,321,[0.06055933],98,44,hard,plus,dotcolour,beta,,,57,20,V,R,
434,56,14,10,3,27,53,717,['n'],1,right,['2'],5,328,[-0.08413246],99,53,easy,plus,dotcolour,beta,,,57,20,V,R,
435,57,15,10,3,27,53,584,['n'],1,right,['2'],5,205,[-0.15275866],100,53,easy,plus,dotcolour,beta,,,57,20,V,R,
436,58,16,10,3,44,36,700,['n'],0,left,['2'],5,282,[-0.06511421],98,44,hard,plus,dotcolour,beta,,,57,20,V,R,
437,59,17,10,3,47,33,768,['c'],1,left,['2'],5,482,[0.19920769],100,47,medium,plus,dotcolour,beta,,,57,20,V,R,
438,60,18,10,3,27,53,617,['n'],1,right,['1'],6,295,[-0.06534815],98,53,easy,plus,dotcolour,beta,,,57,20,V,R,
439,61,19,10,3,33,47,534,['n'],1,right,['1'],6,255,[-0.10722797],100,47,medium,plus,dotcolour,beta,,,57,20,V,R,
440,62,20,10,3,27,53,517,['n'],1,right,['1'],6,289,[-0.13282792],100,53,easy,plus,dotcolour,beta,,,57,20,V,R,
441,63,21,10,3,53,27,717,['c'],1,left,['2'],5,298,[0.11368779],100,53,easy,plus,dotcolour,beta,,,57,20,V,R,
442,64,22,10,3,47,33,733,['c'],1,left,['2'],5,242,[0.08914863],100,47,medium,plus,dotcolour,beta,,,57,20,V,R,
443,65,23,10,3,33,47,550,['n'],1,right,['2'],5,267,[-0.09945669],100,47,medium,plus,dotcolour,beta,,,57,20,V,R,
444,66,24,10,3,53,27,850,['c'],1,left,['2'],5,320,[0.14429169],100,53,easy,plus,dotcolour,beta,,,57,20,V,R,
445,67,25,10,3,47,33,1167,['c'],1,left,['2'],5,270,[0.1122501],100,47,medium,plus,dotcolour,beta,,,57,20,V,R,
446,68,26,10,3,36,44,1033,['n'],1,right,['2'],5,275,[-0.07714567],99,44,hard,plus,dotcolour,beta,,,57,20,V,R,
447,69,27,10,3,53,27,700,['c'],1,left,['2'],5,293,[0.09351353],99,53,easy,plus,dotcolour,beta,,,57,20,V,R,
448,70,28,10,3,47,33,1316,['n'],0,left,['2'],5,414,[0.01372476],76,47,medium,plus,dotcolour,beta,,,57,20,V,R,
449,71,29,10,3,53,27,651,['c'],1,left,['2'],5,301,[0.17236767],100,53,easy,plus,dotcolour,beta,,,57,20,V,R,
450,72,30,10,3,33,47,618,['n'],1,right,['2'],5,321,[-0.0142474],90,47,medium,plus,dotcolour,beta,,,57,20,V,R,
451,73,31,10,3,36,44,750,['n'],1,right,['2'],5,319,[-0.1227497],100,44,hard,plus,dotcolour,beta,,,57,20,V,R,
452,74,32,10,3,36,44,666,['n'],1,right,['2'],5,306,[-0.1800842],100,44,hard,plus,dotcolour,beta,,,57,20,V,R,
453,75,33,10,3,33,47,1383,['c'],0,right,['2'],5,335,[-0.02981599],69,47,medium,plus,dotcolour,beta,,,57,20,V,R,
454,76,34,10,3,27,53,733,['n'],1,right,['2'],5,254,[-0.08146116],99,53,easy,plus,dotcolour,beta,,,57,20,V,R,
455,77,35,10,3,44,36,950,['c'],1,left,['2'],5,303,[0.09947326],99,44,hard,plus,dotcolour,beta,,,57,20,V,R,
456,78,36,10,3,27,53,717,['n'],1,right,['2'],5,343,[-0.11605116],99,53,easy,plus,dotcolour,beta,,,57,20,V,R,
457,79,37,10,3,36,44,867,['n'],1,right,['2'],5,208,[-0.01683809],95,44,hard,plus,dotcolour,beta,,,57,20,V,R,
458,80,38,10,3,36,44,700,['c'],0,right,['2'],5,309,[0.06177433],98,44,hard,plus,dotcolour,beta,,,57,20,V,R,
459,81,39,10,3,36,44,499,['n'],1,right,['2'],5,325,[-0.10450462],99,44,hard,plus,dotcolour,beta,,,57,20,V,R,
460,82,40,10,3,33,47,467,['n'],1,right,['2'],5,319,[-0.04591367],96,47,medium,plus,dotcolour,beta,,,57,20,V,R,
461,83,41,10,3,36,44,583,['n'],1,right,['2'],5,268,[-0.15889721],100,44,hard,plus,dotcolour,beta,,,57,20,V,R,
462,84,0,11,3,27,53,767,['n'],1,right,['1'],6,207,[-0.0599527],99,53,easy,plus,dotcolour,beta,,,57,20,V,R,
463,85,1,11,3,36,44,700,['n'],1,right,['2'],5,260,[-0.07823679],99,44,hard,plus,dotcolour,beta,,,57,20,V,R,
464,86,2,11,3,44,36,567,['n'],0,left,['2'],5,253,[-0.00867272],91,44,hard,plus,dotcolour,beta,,,57,20,V,R,
465,87,3,11,3,53,27,666,['c'],1,left,['2'],5,329,[0.00967135],89,53,easy,plus,dotcolour,beta,,,57,20,V,R,
466,88,4,11,3,47,33,984,['n'],0,left,['2'],5,333,[-0.12332702],100,47,medium,plus,dotcolour,beta,,,57,20,V,R,
467,89,5,11,3,36,44,617,['n'],1,right,['2'],5,273,[-0.09559368],99,44,hard,plus,dotcolour,beta,,,57,20,V,R,
468,90,6,11,3,47,33,733,['c'],1,left,['2'],5,290,[0.14733359],100,47,medium,plus,dotcolour,beta,,,57,20,V,R,
469,91,7,11,3,44,36,784,['c'],1,left,['2'],5,288,[0.0908711],99,44,hard,plus,dotcolour,beta,,,57,20,V,R,
470,92,8,11,3,27,53,551,['n'],1,right,['2'],5,320,[-0.11798148],100,53,easy,plus,dotcolour,beta,,,57,20,V,R,
471,93,9,11,3,27,53,717,['n'],1,right,['1'],6,208,[-0.0836081],100,53,easy,plus,dotcolour,beta,,,57,20,V,R,
472,94,10,11,3,33,47,568,['n'],1,right,['2'],5,241,[-0.10039794],100,47,medium,plus,dotcolour,beta,,,57,20,V,R,
473,95,11,11,3,44,36,867,['c'],1,left,['2'],5,422,[0.08791963],98,44,hard,plus,dotcolour,beta,,,57,20,V,R,
474,96,12,11,3,27,53,783,['n'],1,right,['2'],5,279,[-0.13862827],100,53,easy,plus,dotcolour,beta,,,57,20,V,R,
475,97,13,11,3,53,27,617,['c'],1,left,['2'],5,300,[0.17848627],100,53,easy,plus,dotcolour,beta,,,57,20,V,R,
476,98,14,11,3,47,33,801,['c'],1,left,['2'],5,282,[0.15222756],100,47,medium,plus,dotcolour,beta,,,57,20,V,R,
477,99,15,11,3,47,33,1351,['c'],1,left,['2'],5,626,[0.11237045],98,47,medium,plus,dotcolour,beta,,,57,20,V,R,
478,100,16,11,3,53,27,550,['c'],1,left,['2'],5,324,[0.08922947],99,53,easy,plus,dotcolour,beta,,,57,20,V,R,
479,101,17,11,3,47,33,900,['c'],1,left,['2'],5,292,[0.08951976],99,47,medium,plus,dotcolour,beta,,,57,20,V,R,
480,102,18,11,3,36,44,633,['n'],1,right,['2'],5,872,[-0.07736046],93,44,hard,plus,dotcolour,beta,,,57,20,V,R,
481,103,19,11,3,27,53,700,['n'],1,right,['1'],6,770,[-0.13013756],98,53,easy,plus,dotcolour,beta,,,57,20,V,R,
482,104,20,11,3,44,36,967,['c'],1,left,['2'],5,301,[0.12966062],100,44,hard,plus,dotcolour,beta,,,57,20,V,R,
483,105,21,11,3,33,47,750,['n'],1,right,['2'],5,317,[-0.16644183],100,47,medium,plus,dotcolour,beta,,,57,20,V,R,
484,106,22,11,3,36,44,800,['n'],1,right,['2'],5,297,[-0.11829842],100,44,hard,plus,dotcolour,beta,,,57,20,V,R,
485,107,23,11,3,36,44,783,['n'],1,right,['2'],5,327,[-0.03970618],95,44,hard,plus,dotcolour,beta,,,57,20,V,R,
486,108,24,11,3,33,47,567,['n'],1,right,['2'],5,309,[-0.08040294],99,47,medium,plus,dotcolour,beta,,,57,20,V,R,
487,109,25,11,3,47,33,800,['n'],0,left,['2'],5,249,[-0.12607834],100,47,medium,plus,dotcolour,beta,,,57,20,V,R,
488,110,26,11,3,33,47,533,['n'],1,right,['2'],5,363,[-0.06715307],98,47,medium,plus,dotcolour,beta,,,57,20,V,R,
489,111,27,11,3,44,36,717,['n'],0,left,['2'],5,266,[-0.03244393],96,44,hard,plus,dotcolour,beta,,,57,20,V,R,
490,112,28,11,3,36,44,466,['n'],1,right,['2'],5,302,[-0.09007563],99,44,hard,plus,dotcolour,beta,,,57,20,V,R,
491,113,29,11,3,53,27,715,['c'],1,left,['2'],5,318,[0.03115136],94,53,easy,plus,dotcolour,beta,,,57,20,V,R,
492,114,30,11,3,33,47,500,['n'],1,right,['2'],5,302,[0.0031356],85,47,medium,plus,dotcolour,beta,,,57,20,V,R,
493,115,31,11,3,27,53,600,['n'],1,right,['1'],6,284,[-0.09097886],99,53,easy,plus,dotcolour,beta,,,57,20,V,R,
494,116,32,11,3,33,47,783,['n'],1,right,['2'],5,939,[-0.25217273],100,47,medium,plus,dotcolour,beta,,,57,20,V,R,
495,117,33,11,3,53,27,600,['c'],1,left,['2'],5,295,[0.09369292],99,53,easy,plus,dotcolour,beta,,,57,20,V,R,
496,118,34,11,3,44,36,833,['c'],1,left,['2'],5,298,[0.16624038],100,44,hard,plus,dotcolour,beta,,,57,20,V,R,
497,119,35,11,3,53,27,616,['c'],1,left,['1'],6,391,[0.11640886],99,53,easy,plus,dotcolour,beta,,,57,20,V,R,
498,120,36,11,3,47,33,667,['n'],0,left,['2'],5,285,[-0.08976348],99,47,medium,plus,dotcolour,beta,,,57,20,V,R,
499,121,37,11,3,36,44,517,['n'],1,right,['2'],5,319,[-0.10379176],99,44,hard,plus,dotcolour,beta,,,57,20,V,R,
500,122,38,11,3,33,47,633,['n'],1,right,['2'],5,290,[-0.08508077],99,47,medium,plus,dotcolour,beta,,,57,20,V,R,
501,123,39,11,3,44,36,717,['c'],1,left,['2'],5,331,[0.0687845],98,44,hard,plus,dotcolour,beta,,,57,20,V,R,
502,124,40,11,3,53,27,817,['c'],1,left,['2'],5,286,[0.10914654],100,53,easy,plus,dotcolour,beta,,,57,20,V,R,
503,125,41,11,3,27,53,633,['n'],1,right,['2'],5,291,[-0.07092277],99,53,easy,plus,dotcolour,beta,,,57,20,V,R,
504,0,0,12,4,36,44,684,['n'],1,right,['2'],5,298,[0.0072259],11,44,hard,minus,dotcolour,beta,,,57,20,V,R,
505,1,1,12,4,27,53,600,['n'],1,right,['2'],5,256,[-0.0958183],81,53,easy,minus,dotcolour,beta,,,57,20,V,R,
506,2,2,12,4,33,47,482,['n'],1,right,['2'],5,228,[-0.05684714],51,47,medium,minus,dotcolour,beta,,,57,20,V,R,
507,3,3,12,4,36,44,467,['n'],1,right,['1'],6,257,[-0.12895162],93,44,hard,minus,dotcolour,beta,,,57,20,V,R,
508,4,4,12,4,53,27,683,['c'],1,left,['1'],6,420,[0.12838563],88,53,easy,minus,dotcolour,beta,,,57,20,V,R,
509,5,5,12,4,53,27,600,['c'],1,left,['2'],5,292,[0.0745046],65,53,easy,minus,dotcolour,beta,,,57,20,V,R,
510,6,6,12,4,44,36,951,['n'],0,left,['2'],5,1188,[0.02595923],21,44,hard,minus,dotcolour,beta,,,57,20,V,R,
511,7,7,12,4,47,33,767,['c'],1,left,['2'],5,334,[0.18788049],98,47,medium,minus,dotcolour,beta,,,57,20,V,R,
512,8,8,12,4,53,27,883,['c'],1,left,['2'],5,303,[0.05656028],51,53,easy,minus,dotcolour,beta,,,57,20,V,R,
513,9,9,12,4,44,36,666,['c'],1,left,['2'],5,274,[0.03791454],35,44,hard,minus,dotcolour,beta,,,57,20,V,R,
514,10,10,12,4,44,36,634,['c'],1,left,['2'],5,287,[0.05953896],53,44,hard,minus,dotcolour,beta,,,57,20,V,R,
515,11,11,12,4,44,36,550,['c'],1,left,['2'],5,270,[0.09792242],81,44,hard,minus,dotcolour,beta,,,57,20,V,R,
516,12,12,12,4,47,33,901,['c'],1,left,['2'],5,257,[0.05161298],47,47,medium,minus,dotcolour,beta,,,57,20,V,R,
517,13,13,12,4,47,33,500,['c'],1,left,['2'],5,276,[0.03105077],30,47,medium,minus,dotcolour,beta,,,57,20,V,R,
518,14,14,12,4,44,36,567,['c'],1,left,['2'],5,235,[0.13266648],95,44,hard,minus,dotcolour,beta,,,57,20,V,R,
519,15,15,12,4,33,47,766,['n'],1,right,['2'],5,325,[-0.08643905],73,47,medium,minus,dotcolour,beta,,,57,20,V,R,
520,16,16,12,4,44,36,534,['n'],0,left,['0'],1,1211,[-0.02913822],39,44,hard,minus,dotcolour,beta,,,57,20,V,R,
521,17,17,12,4,53,27,667,['c'],1,left,['2'],5,2929,[0.4684457],99,53,easy,minus,dotcolour,beta,,,57,20,V,R,
522,18,18,12,4,33,47,1817,['n'],1,right,['2'],5,1708,[-0.15769178],80,47,medium,minus,dotcolour,beta,,,57,20,V,R,
523,19,19,12,4,33,47,2216,['n'],1,right,['2'],5,384,[-0.11466551],85,47,medium,minus,dotcolour,beta,,,57,20,V,R,
524,20,20,12,4,53,27,600,['c'],1,left,['2'],5,338,[0.00462671],17,53,easy,minus,dotcolour,beta,,,57,20,V,R,
525,21,21,12,4,27,53,634,['n'],1,right,['1'],6,348,[-0.13132881],91,53,easy,minus,dotcolour,beta,,,57,20,V,R,
526,22,22,12,4,36,44,584,['n'],1,right,['1'],6,320,[-0.10233017],82,44,hard,minus,dotcolour,beta,,,57,20,V,R,
527,23,23,12,4,27,53,467,['n'],1,right,['1'],6,290,[-0.06266315],56,53,easy,minus,dotcolour,beta,,,57,20,V,R,
528,24,24,12,4,47,33,700,['c'],1,left,['2'],5,291,[0.10427187],84,47,medium,minus,dotcolour,beta,,,57,20,V,R,
529,25,25,12,4,33,47,634,['n'],1,right,['2'],5,311,[-0.18042772],98,47,medium,minus,dotcolour,beta,,,57,20,V,R,
530,26,26,12,4,27,53,683,['n'],1,right,['2'],5,289,[-0.14324607],95,53,easy,minus,dotcolour,beta,,,57,20,V,R,
531,27,27,12,4,36,44,616,['n'],1,right,['2'],5,245,[-0.12457302],92,44,hard,minus,dotcolour,beta,,,57,20,V,R,
532,28,28,12,4,27,53,500,['n'],1,right,['1'],6,177,[-0.1176724],93,53,easy,minus,dotcolour,beta,,,57,20,V,R,
533,29,29,12,4,36,44,666,['n'],1,right,['1'],6,185,[-0.02035021],19,44,hard,minus,dotcolour,beta,,,57,20,V,R,
534,30,30,12,4,44,36,484,['n'],0,left,['2'],5,311,[-0.08682082],73,44,hard,minus,dotcolour,beta,,,57,20,V,R,
535,31,31,12,4,27,53,800,['n'],1,right,['2'],5,436,[-0.14399543],92,53,easy,minus,dotcolour,beta,,,57,20,V,R,
536,32,32,12,4,47,33,1266,['c'],1,left,['2'],5,433,[0.01607244],25,47,medium,minus,dotcolour,beta,,,57,20,V,R,
537,33,33,12,4,27,53,884,['n'],1,right,['2'],5,534,[-0.2276914],99,53,easy,minus,dotcolour,beta,,,57,20,V,R,
538,34,34,12,4,33,47,683,['n'],1,right,['2'],5,310,[-0.17127334],98,47,medium,minus,dotcolour,beta,,,57,20,V,R,
539,35,35,12,4,47,33,767,['c'],1,left,['2'],5,284,[0.15487034],97,47,medium,minus,dotcolour,beta,,,57,20,V,R,
540,36,36,12,4,53,27,683,['c'],1,left,['2'],5,335,[0.135039],92,53,easy,minus,dotcolour,beta,,,57,20,V,R,
541,37,37,12,4,36,44,733,['n'],1,right,['2'],5,278,[-0.01645176],21,44,hard,minus,dotcolour,beta,,,57,20,V,R,
542,38,38,12,4,47,33,1116,['c'],1,left,['2'],5,327,[0.09517956],78,47,medium,minus,dotcolour,beta,,,57,20,V,R,
543,39,39,12,4,33,47,965,['n'],1,right,['2'],5,236,[-0.11463649],90,47,medium,minus,dotcolour,beta,,,57,20,V,R,
544,40,40,12,4,53,27,900,['c'],1,left,['2'],5,401,[0.18333152],97,53,easy,minus,dotcolour,beta,,,57,20,V,R,
545,41,41,12,4,36,44,583,['n'],1,right,['2'],5,314,[-0.06066466],54,44,hard,minus,dotcolour,beta,,,57,20,V,R,
546,42,0,13,4,47,33,817,['n'],0,left,['2'],5,264,[-0.12652809],92,47,medium,minus,dotcolour,beta,,,57,20,V,R,
547,43,1,13,4,53,27,650,['c'],1,left,['2'],5,285,[0.10466621],84,53,easy,minus,dotcolour,beta,,,57,20,V,R,
548,44,2,13,4,44,36,1201,['c'],1,left,['2'],5,283,[0.1841048],99,44,hard,minus,dotcolour,beta,,,57,20,V,R,
549,45,3,13,4,53,27,533,['c'],1,left,['2'],5,275,[0.06392457],57,53,easy,minus,dotcolour,beta,,,57,20,V,R,
550,46,4,13,4,44,36,616,['c'],1,left,['2'],5,272,[0.11675584],89,44,hard,minus,dotcolour,beta,,,57,20,V,R,
551,47,5,13,4,47,33,533,['c'],1,left,['2'],5,241,[0.1073589],87,47,medium,minus,dotcolour,beta,,,57,20,V,R,
552,48,6,13,4,44,36,517,['c'],1,left,['2'],5,316,[0.0767294],66,44,hard,minus,dotcolour,beta,,,57,20,V,R,
553,49,7,13,4,33,47,667,['n'],1,right,['2'],5,286,[0.03780874],4,47,medium,minus,dotcolour,beta,,,57,20,V,R,
554,50,8,13,4,53,27,600,['c'],1,left,['2'],5,244,[0.12337146],92,53,easy,minus,dotcolour,beta,,,57,20,V,R,
555,51,9,13,4,47,33,583,['c'],1,left,['2'],5,268,[0.05011504],45,47,medium,minus,dotcolour,beta,,,57,20,V,R,
556,52,10,13,4,27,53,550,['n'],1,right,['1'],6,277,[-0.15436317],97,53,easy,minus,dotcolour,beta,,,57,20,V,R,
557,53,11,13,4,33,47,500,['n'],1,right,['2'],5,247,[-0.03916141],36,47,medium,minus,dotcolour,beta,,,57,20,V,R,
558,54,12,13,4,27,53,466,['n'],1,right,['2'],5,275,[-0.11397096],88,53,easy,minus,dotcolour,beta,,,57,20,V,R,
559,55,13,13,4,47,33,485,['n'],0,left,['0'],1,702,[-0.24532298],98,47,medium,minus,dotcolour,beta,,,57,20,V,R,
560,56,14,13,4,47,33,684,['c'],1,left,['2'],5,263,[0.06968677],62,47,medium,minus,dotcolour,beta,,,57,20,V,R,
561,57,15,13,4,36,44,633,['n'],1,right,['2'],5,230,[-0.08221469],73,44,hard,minus,dotcolour,beta,,,57,20,V,R,
562,58,16,13,4,33,47,550,['n'],1,right,['2'],5,223,[-0.07090237],64,47,medium,minus,dotcolour,beta,,,57,20,V,R,
563,59,17,13,4,36,44,433,['n'],1,right,['2'],5,230,[-0.06261742],57,44,hard,minus,dotcolour,beta,,,57,20,V,R,
564,60,18,13,4,27,53,483,['n'],1,right,['2'],5,362,[-0.11243829],85,53,easy,minus,dotcolour,beta,,,57,20,V,R,
565,61,19,13,4,47,33,667,['c'],1,left,['2'],5,258,[0.00398411],14,47,medium,minus,dotcolour,beta,,,57,20,V,R,
566,62,20,13,4,44,36,1734,['c'],1,left,['2'],5,252,[0.06414072],58,44,hard,minus,dotcolour,beta,,,57,20,V,R,
567,63,21,13,4,33,47,1000,['n'],1,right,['2'],5,1251,[-0.30066484],98,47,medium,minus,dotcolour,beta,,,57,20,V,R,
568,64,22,13,4,27,53,750,['n'],1,right,['2'],5,260,[-0.09555424],80,53,easy,minus,dotcolour,beta,,,57,20,V,R,
569,65,23,13,4,27,53,600,['n'],1,right,['2'],5,218,[-0.07616451],69,53,easy,minus,dotcolour,beta,,,57,20,V,R,
570,66,24,13,4,33,47,467,['n'],1,right,['1'],6,216,[-0.11231213],90,47,medium,minus,dotcolour,beta,,,57,20,V,R,
571,67,25,13,4,36,44,417,['n'],1,right,['2'],5,217,[-0.07899159],71,44,hard,minus,dotcolour,beta,,,57,20,V,R,
572,68,26,13,4,27,53,417,['n'],1,right,['1'],6,216,[-0.12800472],94,53,easy,minus,dotcolour,beta,,,57,20,V,R,
573,69,27,13,4,47,33,817,['c'],1,left,['2'],5,529,[0.09634532],73,47,medium,minus,dotcolour,beta,,,57,20,V,R,
574,70,28,13,4,33,47,683,['n'],1,right,['2'],5,289,[-0.10661702],85,47,medium,minus,dotcolour,beta,,,57,20,V,R,
575,71,29,13,4,53,27,783,['c'],1,left,['1'],6,1327,[0.22051467],93,53,easy,minus,dotcolour,beta,,,57,20,V,R,
576,72,30,13,4,53,27,834,['c'],1,left,['2'],5,313,[0.04406585],41,53,easy,minus,dotcolour,beta,,,57,20,V,R,
577,73,31,13,4,36,44,600,['n'],1,right,['2'],5,318,[-0.11568562],87,44,hard,minus,dotcolour,beta,,,57,20,V,R,
578,74,32,13,4,44,36,750,['c'],1,left,['2'],5,253,[0.04981615],45,44,hard,minus,dotcolour,beta,,,57,20,V,R,
579,75,33,13,4,36,44,967,['n'],1,right,['2'],5,502,[-0.1221022],84,44,hard,minus,dotcolour,beta,,,57,20,V,R,
580,76,34,13,4,44,36,716,['c'],1,left,['2'],5,215,[0.13900852],96,44,hard,minus,dotcolour,beta,,,57,20,V,R,
581,77,35,13,4,44,36,683,['c'],1,left,['2'],5,260,[0.04845167],44,44,hard,minus,dotcolour,beta,,,57,20,V,R,
582,78,36,13,4,36,44,634,['n'],1,right,['2'],5,225,[-0.11575721],91,44,hard,minus,dotcolour,beta,,,57,20,V,R,
583,79,37,13,4,36,44,617,['n'],1,right,['2'],5,225,[-0.05549333],50,44,hard,minus,dotcolour,beta,,,57,20,V,R,
584,80,38,13,4,27,53,600,['n'],1,right,['2'],5,233,[-0.07765408],70,53,easy,minus,dotcolour,beta,,,57,20,V,R,
585,81,39,13,4,33,47,499,['n'],1,right,['2'],5,237,[-0.12966935],94,47,medium,minus,dotcolour,beta,,,57,20,V,R,
586,82,40,13,4,53,27,633,['c'],1,left,['1'],6,267,[0.14882919],96,53,easy,minus,dotcolour,beta,,,57,20,V,R,
587,83,41,13,4,53,27,500,['c'],1,left,['2'],5,254,[0.16068217],98,53,easy,minus,dotcolour,beta,,,57,20,V,R,
588,84,0,14,4,27,53,735,['n'],1,right,['2'],5,281,[-0.01206014],19,53,easy,minus,dotcolour,beta,,,57,20,V,R,
589,85,1,14,4,44,36,850,['c'],1,left,['2'],5,277,[0.08876807],76,44,hard,minus,dotcolour,beta,,,57,20,V,R,
590,86,2,14,4,44,36,950,['n'],0,left,['2'],5,261,[-0.04835216],44,44,hard,minus,dotcolour,beta,,,57,20,V,R,
591,87,3,14,4,44,36,651,['c'],1,left,['2'],5,242,[0.07560756],68,44,hard,minus,dotcolour,beta,,,57,20,V,R,
592,88,4,14,4,44,36,850,['c'],1,left,['2'],5,375,[0.06320512],56,44,hard,minus,dotcolour,beta,,,57,20,V,R,
593,89,5,14,4,33,47,601,['n'],1,right,['2'],5,249,[-0.12051572],91,47,medium,minus,dotcolour,beta,,,57,20,V,R,
594,90,6,14,4,33,47,600,['n'],1,right,['2'],5,217,[-0.08587263],76,47,medium,minus,dotcolour,beta,,,57,20,V,R,
595,91,7,14,4,27,53,434,['n'],1,right,['2'],5,264,[-0.06890428],61,53,easy,minus,dotcolour,beta,,,57,20,V,R,
596,92,8,14,4,36,44,483,['n'],1,right,['2'],5,196,[-0.00050706],10,44,hard,minus,dotcolour,beta,,,57,20,V,R,
597,93,9,14,4,33,47,416,['n'],1,right,['2'],5,204,[0.00373171],9,47,medium,minus,dotcolour,beta,,,57,20,V,R,
598,94,10,14,4,44,36,433,['n'],0,left,['2'],5,229,[-0.04043788],36,44,hard,minus,dotcolour,beta,,,57,20,V,R,
599,95,11,14,4,36,44,417,['n'],1,right,['2'],5,163,[-0.09480847],85,44,hard,minus,dotcolour,beta,,,57,20,V,R,
600,96,12,14,4,27,53,766,['n'],1,right,['2'],5,247,[-0.05168585],47,53,easy,minus,dotcolour,beta,,,57,20,V,R,
601,97,13,14,4,53,27,750,['c'],1,left,['2'],5,225,[0.01639923],18,53,easy,minus,dotcolour,beta,,,57,20,V,R,
602,98,14,14,4,47,33,650,['c'],1,left,['2'],5,246,[0.06912412],62,47,medium,minus,dotcolour,beta,,,57,20,V,R,
603,99,15,14,4,27,53,667,['n'],1,right,['2'],5,251,[-0.09236341],79,53,easy,minus,dotcolour,beta,,,57,20,V,R,
604,100,16,14,4,47,33,767,['c'],1,left,['2'],5,212,[0.09559275],83,47,medium,minus,dotcolour,beta,,,57,20,V,R,
605,101,17,14,4,33,47,750,['n'],1,right,['2'],5,231,[-0.02460567],24,47,medium,minus,dotcolour,beta,,,57,20,V,R,
606,102,18,14,4,53,27,583,['c'],1,left,['2'],5,200,[0.04445643],39,53,easy,minus,dotcolour,beta,,,57,20,V,R,
607,103,19,14,4,47,33,567,['c'],1,left,['2'],5,258,[0.07270708],65,47,medium,minus,dotcolour,beta,,,57,20,V,R,
608,104,20,14,4,47,33,617,['c'],1,left,['2'],5,224,[0.06703302],61,47,medium,minus,dotcolour,beta,,,57,20,V,R,
609,105,21,14,4,27,53,500,['n'],1,right,['1'],6,244,[-0.13004007],94,53,easy,minus,dotcolour,beta,,,57,20,V,R,
610,106,22,14,4,53,27,550,['c'],1,left,['2'],5,278,[0.16018205],97,53,easy,minus,dotcolour,beta,,,57,20,V,R,
611,107,23,14,4,44,36,583,['c'],1,left,['2'],5,269,[0.08716274],75,44,hard,minus,dotcolour,beta,,,57,20,V,R,
612,108,24,14,4,53,27,602,['c'],1,left,['2'],5,243,[0.15346286],97,53,easy,minus,dotcolour,beta,,,57,20,V,R,
613,109,25,14,4,47,33,617,['c'],1,left,['2'],5,266,[0.19155698],99,47,medium,minus,dotcolour,beta,,,57,20,V,R,
614,110,26,14,4,33,47,583,['n'],1,right,['1'],6,377,[-0.16561622],96,47,medium,minus,dotcolour,beta,,,57,20,V,R,
615,111,27,14,4,27,53,566,['n'],1,right,['1'],6,188,[-0.05863341],53,53,easy,minus,dotcolour,beta,,,57,20,V,R,
616,112,28,14,4,36,44,884,['c'],0,right,['2'],5,371,[0.07655146],65,44,hard,minus,dotcolour,beta,,,57,20,V,R,
617,113,29,14,4,36,44,584,['n'],1,right,['2'],5,302,[-0.1730581],98,44,hard,minus,dotcolour,beta,,,57,20,V,R,
618,114,30,14,4,36,44,684,['n'],1,right,['2'],5,257,[-0.14678266],96,44,hard,minus,dotcolour,beta,,,57,20,V,R,
619,115,31,14,4,27,53,850,['n'],1,right,['1'],6,204,[-0.14825106],98,53,easy,minus,dotcolour,beta,,,57,20,V,R,
620,116,32,14,4,36,44,934,['n'],1,right,['2'],5,232,[-0.01385089],17,44,hard,minus,dotcolour,beta,,,57,20,V,R,
621,117,33,14,4,53,27,1967,['n'],0,left,['2'],5,250,[-0.12086119],91,53,easy,minus,dotcolour,beta,,,57,20,V,R,
622,118,34,14,4,47,33,684,['n'],0,left,['3'],4,286,[-0.00406681],15,47,medium,minus,dotcolour,beta,,,57,20,V,R,
623,119,35,14,4,36,44,500,['n'],1,right,['2'],5,376,[-0.00366554],18,44,hard,minus,dotcolour,beta,,,57,20,V,R,
624,120,36,14,4,33,47,650,['n'],1,right,['1'],6,200,[-0.07790623],71,47,medium,minus,dotcolour,beta,,,57,20,V,R,
625,121,37,14,4,47,33,1083,['c'],1,left,['2'],5,326,[0.02900907],30,47,medium,minus,dotcolour,beta,,,57,20,V,R,
626,122,38,14,4,44,36,1034,['c'],1,left,['2'],5,232,[0.0464203],42,44,hard,minus,dotcolour,beta,,,57,20,V,R,
627,123,39,14,4,53,27,851,['c'],1,left,['1'],6,279,[0.14499388],95,53,easy,minus,dotcolour,beta,,,57,20,V,R,
628,124,40,14,4,53,27,950,['c'],1,left,['2'],5,255,[0.13621535],95,53,easy,minus,dotcolour,beta,,,57,20,V,R,
629,125,41,14,4,33,47,700,['n'],1,right,['2'],5,257,[-0.04356607],40,47,medium,minus,dotcolour,beta,,,57,20,V,R,
630,0,0,15,5,44,36,734,['c'],1,left,['2'],5,310,[0.04906622],97,44,hard,plus,dotcolour,beta,,,57,20,V,R,
631,1,1,15,5,27,53,583,['n'],1,right,['1'],6,220,[-0.00899445],92,53,easy,plus,dotcolour,beta,,,57,20,V,R,
632,2,2,15,5,47,33,816,['c'],1,left,['2'],5,372,[0.06008055],97,47,medium,plus,dotcolour,beta,,,57,20,V,R,
633,3,3,15,5,53,27,600,['c'],1,left,['2'],5,246,[0.09303011],100,53,easy,plus,dotcolour,beta,,,57,20,V,R,
634,4,4,15,5,36,44,600,['n'],1,right,['2'],5,317,[-0.12136186],100,44,hard,plus,dotcolour,beta,,,57,20,V,R,
635,5,5,15,5,44,36,1250,['n'],0,left,['2'],5,360,[-0.11197766],99,44,hard,plus,dotcolour,beta,,,57,20,V,R,
636,6,6,15,5,47,33,833,['c'],1,left,['2'],5,345,[0.17572524],100,47,medium,plus,dotcolour,beta,,,57,20,V,R,
637,7,7,15,5,53,27,616,['c'],1,left,['2'],5,236,[0.14216267],100,53,easy,plus,dotcolour,beta,,,57,20,V,R,
638,8,8,15,5,33,47,550,['n'],1,right,['2'],5,237,[-0.13178557],100,47,medium,plus,dotcolour,beta,,,57,20,V,R,
639,9,9,15,5,33,47,567,['n'],1,right,['2'],5,207,[-0.05222314],99,47,medium,plus,dotcolour,beta,,,57,20,V,R,
640,10,10,15,5,53,27,668,['c'],1,left,['2'],5,261,[0.18693415],100,53,easy,plus,dotcolour,beta,,,57,20,V,R,
641,11,11,15,5,47,33,767,['n'],0,left,['2'],5,261,[-0.02598707],95,47,medium,plus,dotcolour,beta,,,57,20,V,R,
642,12,12,15,5,36,44,800,['c'],0,right,['2'],5,252,[-0.01306145],82,44,hard,plus,dotcolour,beta,,,57,20,V,R,
643,13,13,15,5,36,44,650,['n'],1,right,['2'],5,217,[-0.0773812],99,44,hard,plus,dotcolour,beta,,,57,20,V,R,
644,14,14,15,5,27,53,585,['n'],1,right,['2'],5,234,[-0.00951721],92,53,easy,plus,dotcolour,beta,,,57,20,V,R,
645,15,15,15,5,27,53,600,['n'],1,right,['2'],5,378,[-0.09887602],99,53,easy,plus,dotcolour,beta,,,57,20,V,R,
646,16,16,15,5,27,53,583,['n'],1,right,['2'],5,221,[-0.14166657],100,53,easy,plus,dotcolour,beta,,,57,20,V,R,
647,17,17,15,5,33,47,650,['n'],1,right,['2'],5,172,[-0.06115731],99,47,medium,plus,dotcolour,beta,,,57,20,V,R,
648,18,18,15,5,53,27,634,['c'],1,left,['2'],5,245,[0.21293433],100,53,easy,plus,dotcolour,beta,,,57,20,V,R,
649,19,19,15,5,36,44,1151,['c'],0,right,['2'],5,311,[0.1085701],100,44,hard,plus,dotcolour,beta,,,57,20,V,R,
650,20,20,15,5,47,33,684,['c'],1,left,['2'],5,248,[0.1879946],100,47,medium,plus,dotcolour,beta,,,57,20,V,R,
651,21,21,15,5,44,36,733,['c'],1,left,['2'],5,250,[0.00565963],90,44,hard,plus,dotcolour,beta,,,57,20,V,R,
652,22,22,15,5,27,53,600,['n'],1,right,['2'],5,233,[-0.03584199],97,53,easy,plus,dotcolour,beta,,,57,20,V,R,
653,23,23,15,5,36,44,532,['n'],1,right,['2'],5,188,[-0.09354074],100,44,hard,plus,dotcolour,beta,,,57,20,V,R,
654,24,24,15,5,44,36,1066,['c'],1,left,['2'],5,291,[0.13826185],100,44,hard,plus,dotcolour,beta,,,57,20,V,R,
655,25,25,15,5,27,53,600,['n'],1,right,['1'],6,168,[-0.05290251],99,53,easy,plus,dotcolour,beta,,,57,20,V,R,
656,26,26,15,5,53,27,718,['c'],1,left,['1'],6,230,[0.09972057],100,53,easy,plus,dotcolour,beta,,,57,20,V,R,
657,27,27,15,5,27,53,600,['n'],1,right,['1'],6,287,[-0.09214837],99,53,easy,plus,dotcolour,beta,,,57,20,V,R,
658,28,28,15,5,44,36,750,['c'],1,left,['0'],1,671,[0.00891048],80,44,hard,plus,dotcolour,beta,,,57,20,V,R,
659,29,29,15,5,33,47,717,['c'],0,right,['0'],1,2056,[0.03127541],75,47,medium,plus,dotcolour,beta,,,57,20,V,R,
660,30,30,15,5,36,44,600,['n'],1,right,['2'],5,303,[-0.00978864],89,44,hard,plus,dotcolour,beta,,,57,20,V,R,
661,31,31,15,5,33,47,567,['n'],1,right,['2'],5,213,[-0.09403943],100,47,medium,plus,dotcolour,beta,,,57,20,V,R,
662,32,32,15,5,33,47,567,['n'],1,right,['2'],5,287,[-0.1180272],100,47,medium,plus,dotcolour,beta,,,57,20,V,R,
663,33,33,15,5,47,33,734,['n'],0,left,['2'],5,208,[-0.01195684],93,47,medium,plus,dotcolour,beta,,,57,20,V,R,
664,34,34,15,5,53,27,600,['n'],0,left,['2'],5,273,[-0.03058012],95,53,easy,plus,dotcolour,beta,,,57,20,V,R,
665,35,35,15,5,44,36,566,['n'],0,left,['2'],5,280,[0.03745204],65,44,hard,plus,dotcolour,beta,,,57,20,V,R,
666,36,36,15,5,36,44,983,['c'],0,right,['2'],5,246,[-0.00097853],88,44,hard,plus,dotcolour,beta,,,57,20,V,R,
667,37,37,15,5,33,47,600,['n'],1,right,['1'],6,246,[-0.19107729],100,47,medium,plus,dotcolour,beta,,,57,20,V,R,
668,38,38,15,5,44,36,650,['n'],0,left,['2'],5,243,[-0.0882515],99,44,hard,plus,dotcolour,beta,,,57,20,V,R,
669,39,39,15,5,53,27,817,['c'],1,left,['2'],5,250,[0.1117018],100,53,easy,plus,dotcolour,beta,,,57,20,V,R,
670,40,40,15,5,47,33,1067,['c'],1,left,['2'],5,215,[0.22118898],100,47,medium,plus,dotcolour,beta,,,57,20,V,R,
671,41,41,15,5,47,33,683,['c'],1,left,['2'],5,212,[0.09941764],100,47,medium,plus,dotcolour,beta,,,57,20,V,R,
672,42,0,16,5,33,47,667,['n'],1,right,['2'],5,259,[-0.18100269],100,47,medium,plus,dotcolour,beta,,,57,20,V,R,
673,43,1,16,5,36,44,1383,['n'],1,right,['2'],5,1322,[-0.14304135],96,44,hard,plus,dotcolour,beta,,,57,20,V,R,
674,44,2,16,5,53,27,684,['c'],1,left,['2'],5,316,[0.1240908],100,53,easy,plus,dotcolour,beta,,,57,20,V,R,
675,45,3,16,5,36,44,1367,['n'],1,right,['2'],5,281,[-0.1757892],100,44,hard,plus,dotcolour,beta,,,57,20,V,R,
676,46,4,16,5,33,47,1300,['n'],1,right,['2'],5,267,[-0.00341867],89,47,medium,plus,dotcolour,beta,,,57,20,V,R,
677,47,5,16,5,33,47,683,['n'],1,right,['2'],5,230,[-0.13156799],100,47,medium,plus,dotcolour,beta,,,57,20,V,R,
678,48,6,16,5,47,33,700,['c'],1,left,['2'],5,338,[0.05478396],97,47,medium,plus,dotcolour,beta,,,57,20,V,R,
679,49,7,16,5,47,33,666,['n'],0,left,['2'],5,259,[0.03682715],66,47,medium,plus,dotcolour,beta,,,57,20,V,R,
680,50,8,16,5,44,36,767,['n'],0,left,['2'],5,260,[-0.10137317],100,44,hard,plus,dotcolour,beta,,,57,20,V,R,
681,51,9,16,5,36,44,800,['c'],0,right,['2'],5,274,[0.0753868],99,44,hard,plus,dotcolour,beta,,,57,20,V,R,
682,52,10,16,5,53,27,600,['c'],1,left,['1'],6,232,[0.12374393],100,53,easy,plus,dotcolour,beta,,,57,20,V,R,
683,53,11,16,5,33,47,617,['n'],1,right,['1'],6,304,[-0.10260019],99,47,medium,plus,dotcolour,beta,,,57,20,V,R,
684,54,12,16,5,27,53,617,['n'],1,right,['1'],6,284,[-0.22748415],100,53,easy,plus,dotcolour,beta,,,57,20,V,R,
685,55,13,16,5,33,47,500,['n'],1,right,['1'],6,270,[-0.06979332],99,47,medium,plus,dotcolour,beta,,,57,20,V,R,
686,56,14,16,5,27,53,967,['n'],1,right,['2'],5,302,[-0.11813292],100,53,easy,plus,dotcolour,beta,,,57,20,V,R,
687,57,15,16,5,44,36,667,['c'],1,left,['2'],5,257,[0.14670408],100,44,hard,plus,dotcolour,beta,,,57,20,V,R,
688,58,16,16,5,44,36,751,['c'],1,left,['2'],5,257,[0.09501992],100,44,hard,plus,dotcolour,beta,,,57,20,V,R,
689,59,17,16,5,53,27,1167,['c'],1,left,['2'],5,1569,[0.40036846],100,53,easy,plus,dotcolour,beta,,,57,20,V,R,
690,60,18,16,5,36,44,783,['n'],1,right,['2'],5,356,[-0.11892064],99,44,hard,plus,dotcolour,beta,,,57,20,V,R,
691,61,19,16,5,44,36,801,['c'],1,left,['2'],5,279,[0.10938145],100,44,hard,plus,dotcolour,beta,,,57,20,V,R,
692,62,20,16,5,36,44,1267,['n'],1,right,['2'],5,402,[-0.12799812],99,44,hard,plus,dotcolour,beta,,,57,20,V,R,
693,63,21,16,5,33,47,751,['n'],1,right,['2'],5,254,[-0.11529426],100,47,medium,plus,dotcolour,beta,,,57,20,V,R,
694,64,22,16,5,47,33,950,['c'],1,left,['2'],5,327,[0.02842498],93,47,medium,plus,dotcolour,beta,,,57,20,V,R,
695,65,23,16,5,47,33,733,['c'],1,left,['2'],5,245,[0.10377832],100,47,medium,plus,dotcolour,beta,,,57,20,V,R,
696,66,24,16,5,53,27,667,['c'],1,left,['2'],5,274,[0.07783601],99,53,easy,plus,dotcolour,beta,,,57,20,V,R,
697,67,25,16,5,53,27,734,['c'],1,left,['2'],5,323,[0.04611781],96,53,easy,plus,dotcolour,beta,,,57,20,V,R,
698,68,26,16,5,47,33,1150,['n'],0,left,['2'],5,217,[0.03960663],65,47,medium,plus,dotcolour,beta,,,57,20,V,R,
699,69,27,16,5,33,47,633,['c'],0,right,['2'],5,384,[-0.02439302],71,47,medium,plus,dotcolour,beta,,,57,20,V,R,
700,70,28,16,5,44,36,601,['n'],0,left,['2'],5,274,[-0.00016633],87,44,hard,plus,dotcolour,beta,,,57,20,V,R,
701,71,29,16,5,36,44,517,['n'],1,right,['2'],5,268,[-0.08685579],99,44,hard,plus,dotcolour,beta,,,57,20,V,R,
702,72,30,16,5,47,33,568,['n'],0,left,['2'],5,228,[-0.11133693],100,47,medium,plus,dotcolour,beta,,,57,20,V,R,
703,73,31,16,5,53,27,567,['c'],1,left,['2'],5,253,[0.04596533],97,53,easy,plus,dotcolour,beta,,,57,20,V,R,
704,74,32,16,5,27,53,600,['n'],1,right,['2'],5,244,[-0.10902144],100,53,easy,plus,dotcolour,beta,,,57,20,V,R,
705,75,33,16,5,44,36,732,['n'],0,left,['2'],5,150,[-0.04800115],99,44,hard,plus,dotcolour,beta,,,57,20,V,R,
706,76,34,16,5,53,27,617,['c'],1,left,['2'],5,234,[0.13181189],100,53,easy,plus,dotcolour,beta,,,57,20,V,R,
707,77,35,16,5,27,53,651,['n'],1,right,['2'],5,247,[-0.15512285],100,53,easy,plus,dotcolour,beta,,,57,20,V,R,
708,78,36,16,5,47,33,783,['c'],1,left,['2'],5,239,[0.06869764],99,47,medium,plus,dotcolour,beta,,,57,20,V,R,
709,79,37,16,5,44,36,1000,['c'],1,left,['2'],5,351,[0.04003482],95,44,hard,plus,dotcolour,beta,,,57,20,V,R,
710,80,38,16,5,27,53,400,['n'],1,right,['1'],6,362,[-0.08146623],98,53,easy,plus,dotcolour,beta,,,57,20,V,R,
711,81,39,16,5,27,53,500,['n'],1,right,['1'],6,265,[-0.02491908],94,53,easy,plus,dotcolour,beta,,,57,20,V,R,
712,82,40,16,5,36,44,800,['n'],1,right,['2'],5,239,[-0.10608341],100,44,hard,plus,dotcolour,beta,,,57,20,V,R,
713,83,41,16,5,27,53,600,['n'],1,right,['2'],5,303,[-0.12750137],100,53,easy,plus,dotcolour,beta,,,57,20,V,R,
714,84,0,17,5,53,27,900,['c'],1,left,['2'],5,372,[0.09357421],99,53,easy,plus,dotcolour,beta,,,57,20,V,R,
715,85,1,17,5,47,33,1200,['c'],1,left,['2'],5,310,[0.05966308],98,47,medium,plus,dotcolour,beta,,,57,20,V,R,
716,86,2,17,5,53,27,617,['c'],1,left,['2'],5,290,[0.08256484],99,53,easy,plus,dotcolour,beta,,,57,20,V,R,
717,87,3,17,5,33,47,583,['n'],1,right,['2'],5,200,[-0.11151563],100,47,medium,plus,dotcolour,beta,,,57,20,V,R,
718,88,4,17,5,44,36,1166,['c'],1,left,['2'],5,2579,[0.35253555],99,44,hard,plus,dotcolour,beta,,,57,20,V,R,
719,89,5,17,5,27,53,650,['n'],1,right,['2'],5,274,[-0.01965968],93,53,easy,plus,dotcolour,beta,,,57,20,V,R,
720,90,6,17,5,36,44,685,['n'],1,right,['2'],5,276,[-0.08000865],99,44,hard,plus,dotcolour,beta,,,57,20,V,R,
721,91,7,17,5,44,36,600,['n'],0,left,['2'],5,235,[-0.12232255],100,44,hard,plus,dotcolour,beta,,,57,20,V,R,
722,92,8,17,5,27,53,533,['n'],1,right,['2'],5,270,[-0.09432222],99,53,easy,plus,dotcolour,beta,,,57,20,V,R,
723,93,9,17,5,33,47,668,['n'],1,right,['2'],5,217,[-0.11596522],100,47,medium,plus,dotcolour,beta,,,57,20,V,R,
724,94,10,17,5,36,44,516,['n'],1,right,['2'],5,205,[-0.09622549],100,44,hard,plus,dotcolour,beta,,,57,20,V,R,
725,95,11,17,5,47,33,517,['n'],0,left,['2'],5,234,[-0.08542194],99,47,medium,plus,dotcolour,beta,,,57,20,V,R,
726,96,12,17,5,47,33,483,['n'],0,left,['2'],5,223,[-0.07394816],99,47,medium,plus,dotcolour,beta,,,57,20,V,R,
727,97,13,17,5,27,53,584,['n'],1,right,['1'],6,143,[-0.06600587],100,53,easy,plus,dotcolour,beta,,,57,20,V,R,
728,98,14,17,5,36,44,483,['n'],1,right,['1'],6,391,[-0.09645747],99,44,hard,plus,dotcolour,beta,,,57,20,V,R,
729,99,15,17,5,53,27,750,['c'],1,left,['1'],6,219,[0.07357131],99,53,easy,plus,dotcolour,beta,,,57,20,V,R,
730,100,16,17,5,44,36,700,['c'],1,left,['2'],5,191,[0.05361911],99,44,hard,plus,dotcolour,beta,,,57,20,V,R,
731,101,17,17,5,27,53,483,['n'],1,right,['1'],6,229,[-0.10172163],100,53,easy,plus,dotcolour,beta,,,57,20,V,R,
732,102,18,17,5,36,44,533,['n'],1,right,['1'],6,176,[-0.13217449],100,44,hard,plus,dotcolour,beta,,,57,20,V,R,
733,103,19,17,5,47,33,433,['n'],0,left,['2'],5,193,[-0.05388415],99,47,medium,plus,dotcolour,beta,,,57,20,V,R,
734,104,20,17,5,44,36,450,['n'],0,left,['2'],5,176,[-0.02633262],97,44,hard,plus,dotcolour,beta,,,57,20,V,R,
735,105,21,17,5,44,36,499,['n'],0,left,['2'],5,230,[-0.03270449],96,44,hard,plus,dotcolour,beta,,,57,20,V,R,
736,106,22,17,5,44,36,533,['n'],0,left,['2'],5,121,[-0.04470165],99,44,hard,plus,dotcolour,beta,,,57,20,V,R,
737,107,23,17,5,36,44,450,['n'],1,right,['2'],5,188,[-0.11110047],100,44,hard,plus,dotcolour,beta,,,57,20,V,R,
738,108,24,17,5,44,36,483,['n'],0,left,['2'],5,162,[-0.09527046],100,44,hard,plus,dotcolour,beta,,,57,20,V,R,
739,109,25,17,5,53,27,667,['c'],1,left,['2'],5,170,[0.1018578],100,53,easy,plus,dotcolour,beta,,,57,20,V,R,
740,110,26,17,5,33,47,567,['n'],1,right,['2'],5,190,[-0.08268965],100,47,medium,plus,dotcolour,beta,,,57,20,V,R,
741,111,27,17,5,33,47,717,['n'],1,right,['2'],5,219,[-0.17875199],100,47,medium,plus,dotcolour,beta,,,57,20,V,R,
742,112,28,17,5,47,33,666,['c'],1,left,['2'],5,209,[0.09646866],100,47,medium,plus,dotcolour,beta,,,57,20,V,R,
743,113,29,17,5,53,27,750,['c'],1,left,['2'],5,260,[0.11973143],100,53,easy,plus,dotcolour,beta,,,57,20,V,R,
744,114,30,17,5,33,47,583,['n'],1,right,['2'],5,203,[-0.09015456],100,47,medium,plus,dotcolour,beta,,,57,20,V,R,
745,115,31,17,5,33,47,600,['n'],1,right,['2'],5,180,[-0.11177033],100,47,medium,plus,dotcolour,beta,,,57,20,V,R,
746,116,32,17,5,36,44,549,['n'],1,right,['2'],5,200,[-0.14331001],100,44,hard,plus,dotcolour,beta,,,57,20,V,R,
747,117,33,17,5,47,33,733,['c'],1,left,['2'],5,252,[0.07270215],99,47,medium,plus,dotcolour,beta,,,57,20,V,R,
748,118,34,17,5,53,27,566,['c'],1,left,['2'],5,237,[0.05134009],98,53,easy,plus,dotcolour,beta,,,57,20,V,R,
749,119,35,17,5,27,53,600,['n'],1,right,['2'],5,205,[-0.05717128],99,53,easy,plus,dotcolour,beta,,,57,20,V,R,
750,120,36,17,5,36,44,1183,['c'],0,right,['2'],5,239,[0.05876643],99,44,hard,plus,dotcolour,beta,,,57,20,V,R,
751,121,37,17,5,47,33,649,['c'],1,left,['2'],5,292,[0.06465118],98,47,medium,plus,dotcolour,beta,,,57,20,V,R,
752,122,38,17,5,53,27,601,['c'],1,left,['2'],5,250,[0.20327201],100,53,easy,plus,dotcolour,beta,,,57,20,V,R,
753,123,39,17,5,27,53,550,['n'],1,right,['2'],5,211,[-0.08457976],100,53,easy,plus,dotcolour,beta,,,57,20,V,R,
754,124,40,17,5,33,47,1316,['c'],0,right,['2'],5,247,[-0.01335975],82,47,medium,plus,dotcolour,beta,,,57,20,V,R,
755,125,41,17,5,27,53,1034,['n'],1,right,['3'],4,1445,[-0.22154646],98,53,easy,plus,dotcolour,beta,,,57,20,V,R,
,,,,,,,,,,,,,,,,,,,,,1,"de lcihten van het lokaal zjn niet fel, de precentage kans was in het begin laa
g maar voor het goortste deel van het experiment vrijhoog, meerdere keren was h
et honderd percent",57,20,V,R,
,,,,,,,,,,,,,,,,,,,,,2,['h'],57,20,V,R,
,,,,,,,,,,,,,,,,,,,,,3,['f'],57,20,V,R,
,,,,,,,,,,,,,,,,,,,,,5,"['3', '4', '5']",57,20,V,R,
