trial,withinphasetrial,withinblocktrial,block,phase,dotsLeft,dotsRight,rt,resp,cor,cresp,conf_press,cj,RTconf,ev,fb,diff,difflevel,condition,task,manip,questionID,questionResp,sub,age,gender,handedness,
0,0,0,0,0,36,44,3167,['n'],1,right,['8'],3,7195,[0.07750013],26,44,hard,plus,dotcolour,alfa,,,76,20,V,R,
1,1,1,0,0,53,27,1083,['c'],1,left,['2'],5,2119,[0.23399905],100,53,easy,plus,dotcolour,alfa,,,76,20,V,R,
2,2,2,0,0,53,27,2166,['c'],1,left,['2'],5,1132,[0.27372405],100,53,easy,plus,dotcolour,alfa,,,76,20,V,R,
3,3,3,0,0,44,36,3380,['n'],0,left,['9'],2,3097,[0.266843],0,44,hard,plus,dotcolour,alfa,,,76,20,V,R,
4,4,4,0,0,47,33,2049,['c'],1,left,['2'],5,1211,[0.4158597],100,47,medium,plus,dotcolour,alfa,,,76,20,V,R,
5,5,5,0,0,44,36,6232,['n'],0,left,['3'],4,2003,[0.09654396],8,44,hard,plus,dotcolour,alfa,,,76,20,V,R,
6,6,6,0,0,36,44,6214,['n'],1,right,['9'],2,2011,[-0.16479009],98,44,hard,plus,dotcolour,alfa,,,76,20,V,R,
7,7,7,0,0,53,27,1298,['c'],1,left,['2'],5,1303,[0.13088985],98,53,easy,plus,dotcolour,alfa,,,76,20,V,R,
8,8,8,0,0,53,27,1348,['c'],1,left,['1'],6,1861,[0.49197543],100,53,easy,plus,dotcolour,alfa,,,76,20,V,R,
9,9,9,0,0,27,53,1249,['n'],1,right,['2'],5,1449,[-0.2011527],100,53,easy,plus,dotcolour,alfa,,,76,20,V,R,
10,10,10,0,0,36,44,2498,['c'],0,right,['3'],4,940,[-0.00909632],42,44,hard,plus,dotcolour,alfa,,,76,20,V,R,
11,11,11,0,0,27,53,866,['n'],1,right,['1'],6,877,[-0.22066935],100,53,easy,plus,dotcolour,alfa,,,76,20,V,R,
12,12,12,0,0,27,53,1215,['n'],1,right,['1'],6,530,[-0.1530792],100,53,easy,plus,dotcolour,alfa,,,76,20,V,R,
13,13,13,0,0,47,33,1866,['c'],1,left,['3'],4,1139,[0.12569914],99,47,medium,plus,dotcolour,alfa,,,76,20,V,R,
14,14,14,0,0,44,36,1433,['c'],1,left,['3'],4,629,[0.10192588],99,44,hard,plus,dotcolour,alfa,,,76,20,V,R,
15,15,15,0,0,33,47,1549,['n'],1,right,['3'],4,799,[-0.20417742],100,47,medium,plus,dotcolour,alfa,,,76,20,V,R,
16,16,16,0,0,44,36,1231,['c'],1,left,['2'],5,934,[0.01901374],67,44,hard,plus,dotcolour,alfa,,,76,20,V,R,
17,17,17,0,0,53,27,981,['c'],1,left,['2'],5,915,[0.27631211],100,53,easy,plus,dotcolour,alfa,,,76,20,V,R,
18,18,18,0,0,47,33,1082,['c'],1,left,['2'],5,1164,[0.29917416],100,47,medium,plus,dotcolour,alfa,,,76,20,V,R,
19,19,19,0,0,33,47,1348,['n'],1,right,['3'],4,1209,[-0.17997184],100,47,medium,plus,dotcolour,alfa,,,76,20,V,R,
20,20,20,0,0,47,33,898,['c'],1,left,['2'],5,757,[0.14838935],100,47,medium,plus,dotcolour,alfa,,,76,20,V,R,
21,21,21,0,0,36,44,1213,['c'],0,right,['2'],5,1591,[-0.06562928],13,44,hard,plus,dotcolour,alfa,,,76,20,V,R,
22,22,22,0,0,27,53,1233,['n'],1,right,['2'],5,1023,[-0.34107512],100,53,easy,plus,dotcolour,alfa,,,76,20,V,R,
23,23,23,0,0,44,36,1482,['n'],0,left,['3'],4,876,[0.06193929],8,44,hard,plus,dotcolour,alfa,,,76,20,V,R,
24,24,24,0,0,33,47,1131,['n'],1,right,['2'],5,1084,[-0.07378904],93,47,medium,plus,dotcolour,alfa,,,76,20,V,R,
25,25,25,0,0,47,33,1062,['c'],1,left,['1'],6,583,[0.15147663],100,47,medium,plus,dotcolour,alfa,,,76,20,V,R,
26,26,26,0,0,27,53,866,['n'],1,right,['1'],6,382,[-0.05352893],96,53,easy,plus,dotcolour,alfa,,,76,20,V,R,
27,27,27,0,0,36,44,2849,['c'],0,right,['8'],3,815,[0.02624219],74,44,hard,plus,dotcolour,alfa,,,76,20,V,R,
28,28,28,0,0,44,36,1098,['c'],1,left,['3'],4,923,[0.06831397],93,44,hard,plus,dotcolour,alfa,,,76,20,V,R,
29,29,29,0,0,33,47,1016,['n'],1,right,['3'],4,822,[-0.02192037],70,47,medium,plus,dotcolour,alfa,,,76,20,V,R,
30,30,30,0,0,27,53,932,['n'],1,right,['3'],4,1281,[-0.24336413],100,53,easy,plus,dotcolour,alfa,,,76,20,V,R,
31,31,31,0,0,44,36,1282,['c'],1,left,['2'],5,1132,[-0.00728742],44,44,hard,plus,dotcolour,alfa,,,76,20,V,R,
32,32,32,0,0,33,47,681,['n'],1,right,['1'],6,644,[-0.11226518],99,47,medium,plus,dotcolour,alfa,,,76,20,V,R,
33,33,33,0,0,47,33,898,['c'],1,left,['1'],6,472,[0.05322925],94,47,medium,plus,dotcolour,alfa,,,76,20,V,R,
34,34,34,0,0,36,44,715,['n'],1,right,['2'],5,1697,[-0.43242919],100,44,hard,plus,dotcolour,alfa,,,76,20,V,R,
35,35,35,0,0,33,47,716,['n'],1,right,['2'],5,481,[-0.06925012],97,47,medium,plus,dotcolour,alfa,,,76,20,V,R,
36,36,36,0,0,53,27,781,['c'],1,left,['1'],6,383,[0.12576523],100,53,easy,plus,dotcolour,alfa,,,76,20,V,R,
37,37,37,0,0,53,27,998,['c'],1,left,['1'],6,305,[0.16877289],100,53,easy,plus,dotcolour,alfa,,,76,20,V,R,
38,38,38,0,0,36,44,2132,['c'],0,right,['2'],5,1073,[0.06120716],89,44,hard,plus,dotcolour,alfa,,,76,20,V,R,
39,39,39,0,0,27,53,648,['n'],1,right,['2'],5,1061,[-0.3077584],100,53,easy,plus,dotcolour,alfa,,,76,20,V,R,
40,40,40,0,0,33,47,982,['n'],1,right,['3'],4,675,[-0.21780863],100,47,medium,plus,dotcolour,alfa,,,76,20,V,R,
41,41,41,0,0,47,33,1216,['c'],1,left,['2'],5,969,[0.34521246],100,47,medium,plus,dotcolour,alfa,,,76,20,V,R,
42,42,0,1,0,53,27,1066,['c'],1,left,['2'],5,1026,[0.22952566],100,53,easy,plus,dotcolour,alfa,,,76,20,V,R,
43,43,1,1,0,53,27,1199,['c'],1,left,['2'],5,1043,[0.10192917],97,53,easy,plus,dotcolour,alfa,,,76,20,V,R,
44,44,2,1,0,36,44,1647,['n'],1,right,['3'],4,695,[-0.02291263],73,44,hard,plus,dotcolour,alfa,,,76,20,V,R,
45,45,3,1,0,47,33,849,['c'],1,left,['2'],5,2299,[0.19388881],99,47,medium,plus,dotcolour,alfa,,,76,20,V,R,
46,46,4,1,0,33,47,798,['n'],1,right,['2'],5,575,[-0.17214357],100,47,medium,plus,dotcolour,alfa,,,76,20,V,R,
47,47,5,1,0,44,36,1999,['c'],1,left,['3'],4,801,[0.10462378],99,44,hard,plus,dotcolour,alfa,,,76,20,V,R,
48,48,6,1,0,27,53,680,['n'],1,right,['1'],6,431,[-0.23657955],100,53,easy,plus,dotcolour,alfa,,,76,20,V,R,
49,49,7,1,0,44,36,882,['c'],1,left,['2'],5,1756,[0.18347381],99,44,hard,plus,dotcolour,alfa,,,76,20,V,R,
50,50,8,1,0,47,33,1299,['c'],1,left,['3'],4,570,[0.1130365],100,47,medium,plus,dotcolour,alfa,,,76,20,V,R,
51,51,9,1,0,36,44,1447,['n'],1,right,['8'],3,978,[0.03934853],19,44,hard,plus,dotcolour,alfa,,,76,20,V,R,
52,52,10,1,0,36,44,1281,['c'],0,right,['3'],4,792,[-0.10868413],1,44,hard,plus,dotcolour,alfa,,,76,20,V,R,
53,53,11,1,0,53,27,1014,['c'],1,left,['3'],4,864,[0.15006782],100,53,easy,plus,dotcolour,alfa,,,76,20,V,R,
54,54,12,1,0,53,27,750,['c'],1,left,['1'],6,449,[0.03858638],89,53,easy,plus,dotcolour,alfa,,,76,20,V,R,
55,55,13,1,0,53,27,1097,['c'],1,left,['1'],6,317,[0.12295382],100,53,easy,plus,dotcolour,alfa,,,76,20,V,R,
56,56,14,1,0,53,27,999,['c'],1,left,['1'],6,354,[0.19776752],100,53,easy,plus,dotcolour,alfa,,,76,20,V,R,
57,57,15,1,0,44,36,3600,['c'],1,left,['2'],5,1317,[0.10909381],97,44,hard,plus,dotcolour,alfa,,,76,20,V,R,
58,58,16,1,0,36,44,750,['n'],1,right,['2'],5,667,[-0.10549868],99,44,hard,plus,dotcolour,alfa,,,76,20,V,R,
59,59,17,1,0,53,27,865,['c'],1,left,['1'],6,406,[0.13808863],100,53,easy,plus,dotcolour,alfa,,,76,20,V,R,
60,60,18,1,0,33,47,666,['n'],1,right,['2'],5,692,[-0.12818877],100,47,medium,plus,dotcolour,alfa,,,76,20,V,R,
61,61,19,1,0,47,33,915,['c'],1,left,['2'],5,645,[0.17226079],100,47,medium,plus,dotcolour,alfa,,,76,20,V,R,
62,62,20,1,0,47,33,930,['c'],1,left,['2'],5,527,[0.09237965],99,47,medium,plus,dotcolour,alfa,,,76,20,V,R,
63,63,21,1,0,27,53,882,['n'],1,right,['1'],6,327,[-0.08348814],99,53,easy,plus,dotcolour,alfa,,,76,20,V,R,
64,64,22,1,0,36,44,1848,['n'],1,right,['1'],6,505,[-0.07779066],98,44,hard,plus,dotcolour,alfa,,,76,20,V,R,
65,65,23,1,0,27,53,783,['n'],1,right,['1'],6,551,[-0.15935331],100,53,easy,plus,dotcolour,alfa,,,76,20,V,R,
66,66,24,1,0,44,36,1415,['c'],1,left,['3'],4,489,[0.05688796],95,44,hard,plus,dotcolour,alfa,,,76,20,V,R,
67,67,25,1,0,27,53,1015,['n'],1,right,['2'],5,669,[-0.32650093],100,53,easy,plus,dotcolour,alfa,,,76,20,V,R,
68,68,26,1,0,44,36,1899,['n'],0,left,['3'],4,601,[0.02957244],20,44,hard,plus,dotcolour,alfa,,,76,20,V,R,
69,69,27,1,0,36,44,1015,['n'],1,right,['3'],4,705,[-0.19379821],100,44,hard,plus,dotcolour,alfa,,,76,20,V,R,
70,70,28,1,0,47,33,850,['c'],1,left,['2'],5,676,[0.17380675],100,47,medium,plus,dotcolour,alfa,,,76,20,V,R,
71,71,29,1,0,33,47,1367,['n'],1,right,['2'],5,827,[-0.08429314],97,47,medium,plus,dotcolour,alfa,,,76,20,V,R,
72,72,30,1,0,44,36,2230,['c'],1,left,['3'],4,874,[0.14585177],100,44,hard,plus,dotcolour,alfa,,,76,20,V,R,
73,73,31,1,0,47,33,1634,['c'],1,left,['3'],4,526,[0.1551783],100,47,medium,plus,dotcolour,alfa,,,76,20,V,R,
74,74,32,1,0,36,44,1832,['n'],1,right,['3'],4,569,[-0.10713908],99,44,hard,plus,dotcolour,alfa,,,76,20,V,R,
75,75,33,1,0,33,47,1199,['n'],1,right,['3'],4,459,[-0.18990496],100,47,medium,plus,dotcolour,alfa,,,76,20,V,R,
76,76,34,1,0,27,53,764,['n'],1,right,['1'],6,443,[-0.12703677],100,53,easy,plus,dotcolour,alfa,,,76,20,V,R,
77,77,35,1,0,44,36,1147,['c'],1,left,['3'],4,980,[0.13625959],99,44,hard,plus,dotcolour,alfa,,,76,20,V,R,
78,78,36,1,0,27,53,800,['n'],1,right,['2'],5,669,[-0.33059505],100,53,easy,plus,dotcolour,alfa,,,76,20,V,R,
79,79,37,1,0,47,33,1316,['c'],1,left,['1'],6,800,[-0.1159781],1,47,medium,plus,dotcolour,alfa,,,76,20,V,R,
80,80,38,1,0,27,53,848,['n'],1,right,['1'],6,439,[-0.24907034],100,53,easy,plus,dotcolour,alfa,,,76,20,V,R,
81,81,39,1,0,33,47,832,['n'],1,right,['2'],5,581,[-0.05903759],94,47,medium,plus,dotcolour,alfa,,,76,20,V,R,
82,82,40,1,0,33,47,715,['n'],1,right,['2'],5,489,[-0.19313835],100,47,medium,plus,dotcolour,alfa,,,76,20,V,R,
83,83,41,1,0,33,47,1699,['n'],1,right,['3'],4,475,[0.02793672],19,47,medium,plus,dotcolour,alfa,,,76,20,V,R,
84,84,0,2,0,33,47,749,['n'],1,right,['2'],5,995,[-0.10426149],98,47,medium,plus,dotcolour,alfa,,,76,20,V,R,
85,85,1,2,0,27,53,965,['n'],1,right,['2'],5,2333,[-0.45828765],100,53,easy,plus,dotcolour,alfa,,,76,20,V,R,
86,86,2,2,0,47,33,866,['c'],1,left,['3'],4,1478,[0.17745897],99,47,medium,plus,dotcolour,alfa,,,76,20,V,R,
87,87,3,2,0,53,27,950,['c'],1,left,['2'],5,1398,[0.19666804],100,53,easy,plus,dotcolour,alfa,,,76,20,V,R,
88,88,4,2,0,53,27,1182,['c'],1,left,['2'],5,455,[0.09942361],100,53,easy,plus,dotcolour,alfa,,,76,20,V,R,
89,89,5,2,0,44,36,2266,['c'],1,left,['3'],4,979,[0.21182446],100,44,hard,plus,dotcolour,alfa,,,76,20,V,R,
90,90,6,2,0,33,47,814,['n'],1,right,['2'],5,717,[-0.06503914],94,47,medium,plus,dotcolour,alfa,,,76,20,V,R,
91,91,7,2,0,53,27,916,['c'],1,left,['2'],5,2748,[0.42888823],100,53,easy,plus,dotcolour,alfa,,,76,20,V,R,
92,92,8,2,0,33,47,732,['n'],1,right,['2'],5,625,[-0.33432873],100,47,medium,plus,dotcolour,alfa,,,76,20,V,R,
93,93,9,2,0,27,53,733,['n'],1,right,['1'],6,396,[-0.22588175],100,53,easy,plus,dotcolour,alfa,,,76,20,V,R,
94,94,10,2,0,44,36,2332,['c'],1,left,['8'],3,936,[0.17335542],100,44,hard,plus,dotcolour,alfa,,,76,20,V,R,
95,95,11,2,0,44,36,2015,['n'],0,left,['8'],3,571,[0.04099613],12,44,hard,plus,dotcolour,alfa,,,76,20,V,R,
96,96,12,2,0,47,33,949,['c'],1,left,['2'],5,1079,[0.09081539],96,47,medium,plus,dotcolour,alfa,,,76,20,V,R,
97,97,13,2,0,47,33,2150,['c'],1,left,['3'],4,607,[0.1340008],100,47,medium,plus,dotcolour,alfa,,,76,20,V,R,
98,98,14,2,0,44,36,1566,['n'],0,left,['3'],4,649,[-0.00213025],52,44,hard,plus,dotcolour,alfa,,,76,20,V,R,
99,99,15,2,0,27,53,765,['n'],1,right,['2'],5,1681,[-0.41251235],100,53,easy,plus,dotcolour,alfa,,,76,20,V,R,
100,100,16,2,0,44,36,1515,['c'],1,left,['3'],4,633,[0.17841098],100,44,hard,plus,dotcolour,alfa,,,76,20,V,R,
101,101,17,2,0,36,44,1166,['n'],1,right,['3'],4,578,[-0.07140812],97,44,hard,plus,dotcolour,alfa,,,76,20,V,R,
102,102,18,2,0,36,44,733,['n'],1,right,['3'],4,398,[0.04236262],8,44,hard,plus,dotcolour,alfa,,,76,20,V,R,
103,103,19,2,0,47,33,2117,['c'],1,left,['3'],4,1579,[0.06746072],87,47,medium,plus,dotcolour,alfa,,,76,20,V,R,
104,104,20,2,0,36,44,730,['n'],1,right,['3'],4,558,[-0.1147381],100,44,hard,plus,dotcolour,alfa,,,76,20,V,R,
105,105,21,2,0,27,53,650,['n'],1,right,['2'],5,799,[-0.04453103],86,53,easy,plus,dotcolour,alfa,,,76,20,V,R,
106,106,22,2,0,33,47,748,['n'],1,right,['2'],5,434,[-0.13922437],100,47,medium,plus,dotcolour,alfa,,,76,20,V,R,
107,107,23,2,0,27,53,664,['n'],1,right,['2'],5,336,[-0.1130621],100,53,easy,plus,dotcolour,alfa,,,76,20,V,R,
108,108,24,2,0,36,44,1182,['n'],1,right,['2'],5,700,[-0.23377621],100,44,hard,plus,dotcolour,alfa,,,76,20,V,R,
109,109,25,2,0,47,33,2014,['c'],1,left,['3'],4,1057,[0.21891385],100,47,medium,plus,dotcolour,alfa,,,76,20,V,R,
110,110,26,2,0,47,33,1082,['n'],0,left,['8'],3,724,[0.13146185],0,47,medium,plus,dotcolour,alfa,,,76,20,V,R,
111,111,27,2,0,36,44,1097,['n'],1,right,['2'],5,612,[0.01962574],29,44,hard,plus,dotcolour,alfa,,,76,20,V,R,
112,112,28,2,0,53,27,983,['c'],1,left,['2'],5,741,[0.1780825],100,53,easy,plus,dotcolour,alfa,,,76,20,V,R,
113,113,29,2,0,33,47,783,['n'],1,right,['1'],6,673,[-0.02958865],79,47,medium,plus,dotcolour,alfa,,,76,20,V,R,
114,114,30,2,0,44,36,1031,['c'],1,left,['1'],6,430,[0.00834459],61,44,hard,plus,dotcolour,alfa,,,76,20,V,R,
115,115,31,2,0,33,47,781,['n'],1,right,['1'],6,278,[-0.1380357],100,47,medium,plus,dotcolour,alfa,,,76,20,V,R,
116,116,32,2,0,27,53,916,['n'],1,right,['1'],6,352,[-0.07215633],99,53,easy,plus,dotcolour,alfa,,,76,20,V,R,
117,117,33,2,0,53,27,965,['c'],1,left,['2'],5,668,[0.13583255],100,53,easy,plus,dotcolour,alfa,,,76,20,V,R,
118,118,34,2,0,44,36,1415,['c'],1,left,['2'],5,738,[0.09852182],98,44,hard,plus,dotcolour,alfa,,,76,20,V,R,
119,119,35,2,0,53,27,1099,['c'],1,left,['2'],5,305,[0.03363432],90,53,easy,plus,dotcolour,alfa,,,76,20,V,R,
120,120,36,2,0,47,33,1116,['c'],1,left,['1'],6,297,[0.12455736],100,47,medium,plus,dotcolour,alfa,,,76,20,V,R,
121,121,37,2,0,33,47,2016,['n'],1,right,['3'],4,630,[-0.0299279],80,47,medium,plus,dotcolour,alfa,,,76,20,V,R,
122,122,38,2,0,36,44,1266,['n'],1,right,['3'],4,347,[-0.01362111],70,44,hard,plus,dotcolour,alfa,,,76,20,V,R,
123,123,39,2,0,53,27,916,['c'],1,left,['1'],6,730,[0.17869397],100,53,easy,plus,dotcolour,alfa,,,76,20,V,R,
124,124,40,2,0,27,53,730,['n'],1,right,['1'],6,232,[-0.10761518],100,53,easy,plus,dotcolour,alfa,,,76,20,V,R,
125,125,41,2,0,36,44,1331,['n'],1,right,['3'],4,675,[-0.10409409],99,44,hard,plus,dotcolour,alfa,,,76,20,V,R,
126,0,0,3,1,27,53,866,['n'],1,right,['1'],6,613,[-0.05271546],65,53,easy,minus,dotcolour,alfa,,,76,20,V,R,
127,1,1,3,1,33,47,1182,['n'],1,right,['3'],4,519,[0.02297955],43,47,medium,minus,dotcolour,alfa,,,76,20,V,R,
128,2,2,3,1,53,27,3315,['c'],1,left,['8'],3,1102,[0.13159885],76,53,easy,minus,dotcolour,alfa,,,76,20,V,R,
129,3,3,3,1,36,44,780,['n'],1,right,['2'],5,923,[-0.04932953],61,44,hard,minus,dotcolour,alfa,,,76,20,V,R,
130,4,4,3,1,36,44,750,['n'],1,right,['3'],4,1353,[0.12219263],28,44,hard,minus,dotcolour,alfa,,,76,20,V,R,
131,5,5,3,1,47,33,850,['c'],1,left,['3'],4,1018,[0.32637508],95,47,medium,minus,dotcolour,alfa,,,76,20,V,R,
132,6,6,3,1,53,27,832,['c'],1,left,['2'],5,840,[0.37851669],98,53,easy,minus,dotcolour,alfa,,,76,20,V,R,
133,7,7,3,1,53,27,1165,['c'],1,left,['2'],5,457,[0.10830569],81,53,easy,minus,dotcolour,alfa,,,76,20,V,R,
134,8,8,3,1,47,33,1764,['n'],0,left,['3'],4,625,[-0.02444491],57,47,medium,minus,dotcolour,alfa,,,76,20,V,R,
135,9,9,3,1,44,36,1815,['c'],1,left,['3'],4,720,[0.28993953],96,44,hard,minus,dotcolour,alfa,,,76,20,V,R,
136,10,10,3,1,27,53,1015,['n'],1,right,['2'],5,692,[-0.21567029],91,53,easy,minus,dotcolour,alfa,,,76,20,V,R,
137,11,11,3,1,53,27,1532,['c'],1,left,['2'],5,491,[0.04280932],63,53,easy,minus,dotcolour,alfa,,,76,20,V,R,
138,12,12,3,1,36,44,1067,['n'],1,right,['2'],5,438,[-0.0981303],79,44,hard,minus,dotcolour,alfa,,,76,20,V,R,
139,13,13,3,1,33,47,948,['n'],1,right,['3'],4,384,[-0.10612033],82,47,medium,minus,dotcolour,alfa,,,76,20,V,R,
140,14,14,3,1,33,47,1081,['n'],1,right,['3'],4,615,[-0.14808256],85,47,medium,minus,dotcolour,alfa,,,76,20,V,R,
141,15,15,3,1,33,47,749,['n'],1,right,['3'],4,473,[-0.15628562],89,47,medium,minus,dotcolour,alfa,,,76,20,V,R,
142,16,16,3,1,27,53,649,['n'],1,right,['3'],4,333,[-0.14155518],90,53,easy,minus,dotcolour,alfa,,,76,20,V,R,
143,17,17,3,1,47,33,1031,['c'],1,left,['3'],4,607,[0.17800803],89,47,medium,minus,dotcolour,alfa,,,76,20,V,R,
144,18,18,3,1,27,53,880,['n'],1,right,['2'],5,324,[-0.09820614],83,53,easy,minus,dotcolour,alfa,,,76,20,V,R,
145,19,19,3,1,44,36,2065,['c'],1,left,['8'],3,374,[0.21835802],96,44,hard,minus,dotcolour,alfa,,,76,20,V,R,
146,20,20,3,1,33,47,898,['n'],1,right,['2'],5,595,[-0.08955259],74,47,medium,minus,dotcolour,alfa,,,76,20,V,R,
147,21,21,3,1,27,53,733,['n'],1,right,['2'],5,344,[-0.17093611],93,53,easy,minus,dotcolour,alfa,,,76,20,V,R,
148,22,22,3,1,27,53,665,['n'],1,right,['1'],6,232,[-0.13158985],92,53,easy,minus,dotcolour,alfa,,,76,20,V,R,
149,23,23,3,1,47,33,1416,['c'],1,left,['3'],4,872,[0.22569302],90,47,medium,minus,dotcolour,alfa,,,76,20,V,R,
150,24,24,3,1,44,36,1767,['c'],1,left,['3'],4,479,[-0.01723045],44,44,hard,minus,dotcolour,alfa,,,76,20,V,R,
151,25,25,3,1,47,33,898,['c'],1,left,['2'],5,1585,[0.02853441],55,47,medium,minus,dotcolour,alfa,,,76,20,V,R,
152,26,26,3,1,36,44,917,['n'],1,right,['2'],5,1038,[-0.06699978],64,44,hard,minus,dotcolour,alfa,,,76,20,V,R,
153,27,27,3,1,36,44,1883,['n'],1,right,['3'],4,1946,[-0.21723958],80,44,hard,minus,dotcolour,alfa,,,76,20,V,R,
154,28,28,3,1,36,44,1233,['n'],1,right,['3'],4,387,[-0.05035098],67,44,hard,minus,dotcolour,alfa,,,76,20,V,R,
155,29,29,3,1,47,33,1964,['c'],1,left,['3'],4,974,[0.02746596],56,47,medium,minus,dotcolour,alfa,,,76,20,V,R,
156,30,30,3,1,33,47,781,['n'],1,right,['8'],3,856,[-0.10749821],74,47,medium,minus,dotcolour,alfa,,,76,20,V,R,
157,31,31,3,1,44,36,981,['c'],1,left,['3'],4,663,[0.19761873],90,44,hard,minus,dotcolour,alfa,,,76,20,V,R,
158,32,32,3,1,53,27,832,['c'],1,left,['2'],5,501,[0.15206954],87,53,easy,minus,dotcolour,alfa,,,76,20,V,R,
159,33,33,3,1,53,27,749,['c'],1,left,['1'],6,404,[0.18907592],94,53,easy,minus,dotcolour,alfa,,,76,20,V,R,
160,34,34,3,1,36,44,748,['n'],1,right,['1'],6,424,[-0.1234289],85,44,hard,minus,dotcolour,alfa,,,76,20,V,R,
161,35,35,3,1,27,53,733,['n'],1,right,['2'],5,409,[-0.10278311],81,53,easy,minus,dotcolour,alfa,,,76,20,V,R,
162,36,36,3,1,33,47,1316,['n'],1,right,['8'],3,1110,[-0.16069208],80,47,medium,minus,dotcolour,alfa,,,76,20,V,R,
163,37,37,3,1,53,27,1681,['c'],1,left,['3'],4,502,[0.01374227],54,53,easy,minus,dotcolour,alfa,,,76,20,V,R,
164,38,38,3,1,44,36,1831,['n'],0,left,['8'],3,930,[0.06077865],36,44,hard,minus,dotcolour,alfa,,,76,20,V,R,
165,39,39,3,1,44,36,1415,['c'],1,left,['3'],4,990,[0.1565642],80,44,hard,minus,dotcolour,alfa,,,76,20,V,R,
166,40,40,3,1,47,33,797,['n'],0,left,['3'],4,615,[-0.06778733],69,47,medium,minus,dotcolour,alfa,,,76,20,V,R,
167,41,41,3,1,44,36,1215,['c'],1,left,['3'],4,471,[0.19410733],93,44,hard,minus,dotcolour,alfa,,,76,20,V,R,
168,42,0,4,1,33,47,733,['n'],1,right,['2'],5,1099,[-0.01923552],54,47,medium,minus,dotcolour,alfa,,,76,20,V,R,
169,43,1,4,1,44,36,949,['n'],0,left,['2'],5,330,[-0.00306257],51,44,hard,minus,dotcolour,alfa,,,76,20,V,R,
170,44,2,4,1,36,44,899,['n'],1,right,['2'],5,298,[-0.07167464],77,44,hard,minus,dotcolour,alfa,,,76,20,V,R,
171,45,3,4,1,33,47,699,['n'],1,right,['2'],5,300,[-0.17485634],95,47,medium,minus,dotcolour,alfa,,,76,20,V,R,
172,46,4,4,1,27,53,516,['n'],1,right,['2'],5,316,[-0.03097718],62,53,easy,minus,dotcolour,alfa,,,76,20,V,R,
173,47,5,4,1,53,27,1015,['c'],1,left,['1'],6,336,[0.1379389],89,53,easy,minus,dotcolour,alfa,,,76,20,V,R,
174,48,6,4,1,44,36,1549,['c'],1,left,['3'],4,1061,[0.19808486],85,44,hard,minus,dotcolour,alfa,,,76,20,V,R,
175,49,7,4,1,33,47,648,['n'],1,right,['2'],5,538,[-0.21806986],94,47,medium,minus,dotcolour,alfa,,,76,20,V,R,
176,50,8,4,1,47,33,866,['c'],1,left,['2'],5,379,[0.05016408],68,47,medium,minus,dotcolour,alfa,,,76,20,V,R,
177,51,9,4,1,53,27,949,['c'],1,left,['1'],6,431,[0.03048341],60,53,easy,minus,dotcolour,alfa,,,76,20,V,R,
178,52,10,4,1,27,53,998,['n'],1,right,['2'],5,751,[-0.26622447],94,53,easy,minus,dotcolour,alfa,,,76,20,V,R,
179,53,11,4,1,33,47,899,['n'],1,right,['2'],5,398,[-0.1085713],82,47,medium,minus,dotcolour,alfa,,,76,20,V,R,
180,54,12,4,1,44,36,765,['c'],1,left,['2'],5,465,[-0.03404602],39,44,hard,minus,dotcolour,alfa,,,76,20,V,R,
181,55,13,4,1,44,36,915,['c'],1,left,['1'],6,323,[0.06224218],73,44,hard,minus,dotcolour,alfa,,,76,20,V,R,
182,56,14,4,1,53,27,916,['c'],1,left,['1'],6,370,[0.18896879],94,53,easy,minus,dotcolour,alfa,,,76,20,V,R,
183,57,15,4,1,36,44,933,['n'],1,right,['3'],4,647,[-0.15632383],85,44,hard,minus,dotcolour,alfa,,,76,20,V,R,
184,58,16,4,1,47,33,782,['c'],1,left,['2'],5,518,[0.17666772],90,47,medium,minus,dotcolour,alfa,,,76,20,V,R,
185,59,17,4,1,36,44,898,['n'],1,right,['1'],6,512,[-0.17933416],91,44,hard,minus,dotcolour,alfa,,,76,20,V,R,
186,60,18,4,1,27,53,766,['n'],1,right,['1'],6,413,[-0.14623578],89,53,easy,minus,dotcolour,alfa,,,76,20,V,R,
187,61,19,4,1,33,47,815,['n'],1,right,['1'],6,317,[-0.03350413],63,47,medium,minus,dotcolour,alfa,,,76,20,V,R,
188,62,20,4,1,44,36,1915,['c'],1,left,['3'],4,557,[0.06657541],69,44,hard,minus,dotcolour,alfa,,,76,20,V,R,
189,63,21,4,1,53,27,699,['c'],1,left,['2'],5,435,[0.10812429],81,53,easy,minus,dotcolour,alfa,,,76,20,V,R,
190,64,22,4,1,36,44,815,['n'],1,right,['2'],5,427,[-0.01277707],54,44,hard,minus,dotcolour,alfa,,,76,20,V,R,
191,65,23,4,1,36,44,1232,['c'],0,right,['2'],5,578,[0.15644685],86,44,hard,minus,dotcolour,alfa,,,76,20,V,R,
192,66,24,4,1,47,33,750,['c'],1,left,['3'],4,525,[0.13976903],85,47,medium,minus,dotcolour,alfa,,,76,20,V,R,
193,67,25,4,1,27,53,750,['n'],1,right,['1'],6,571,[-0.18669323],90,53,easy,minus,dotcolour,alfa,,,76,20,V,R,
194,68,26,4,1,27,53,680,['n'],1,right,['1'],6,266,[-0.19242447],97,53,easy,minus,dotcolour,alfa,,,76,20,V,R,
195,69,27,4,1,44,36,848,['c'],1,left,['2'],5,479,[0.01791391],56,44,hard,minus,dotcolour,alfa,,,76,20,V,R,
196,70,28,4,1,44,36,1132,['n'],0,left,['3'],4,991,[-0.04156857],59,44,hard,minus,dotcolour,alfa,,,76,20,V,R,
197,71,29,4,1,47,33,814,['c'],1,left,['3'],4,337,[0.12433893],87,47,medium,minus,dotcolour,alfa,,,76,20,V,R,
198,72,30,4,1,36,44,816,['n'],1,right,['2'],5,298,[-0.10307101],85,44,hard,minus,dotcolour,alfa,,,76,20,V,R,
199,73,31,4,1,53,27,766,['c'],1,left,['1'],6,530,[-0.01904189],44,53,easy,minus,dotcolour,alfa,,,76,20,V,R,
200,74,32,4,1,53,27,965,['c'],1,left,['1'],6,310,[0.14711946],92,53,easy,minus,dotcolour,alfa,,,76,20,V,R,
201,75,33,4,1,47,33,1248,['n'],0,left,['3'],4,1313,[0.07649338],35,47,medium,minus,dotcolour,alfa,,,76,20,V,R,
202,76,34,4,1,27,53,682,['n'],1,right,['1'],6,346,[-0.16687219],93,53,easy,minus,dotcolour,alfa,,,76,20,V,R,
203,77,35,4,1,36,44,1015,['n'],1,right,['2'],5,620,[-0.00905906],53,44,hard,minus,dotcolour,alfa,,,76,20,V,R,
204,78,36,4,1,47,33,849,['c'],1,left,['2'],5,443,[0.16800686],91,47,medium,minus,dotcolour,alfa,,,76,20,V,R,
205,79,37,4,1,33,47,782,['n'],1,right,['1'],6,347,[-0.1601113],92,47,medium,minus,dotcolour,alfa,,,76,20,V,R,
206,80,38,4,1,33,47,1132,['n'],1,right,['2'],5,521,[-0.07877967],73,47,medium,minus,dotcolour,alfa,,,76,20,V,R,
207,81,39,4,1,47,33,1365,['c'],1,left,['2'],5,782,[0.31627244],96,47,medium,minus,dotcolour,alfa,,,76,20,V,R,
208,82,40,4,1,53,27,1598,['c'],1,left,['3'],4,728,[0.17389196],86,53,easy,minus,dotcolour,alfa,,,76,20,V,R,
209,83,41,4,1,27,53,615,['n'],1,right,['1'],6,307,[-0.08630251],80,53,easy,minus,dotcolour,alfa,,,76,20,V,R,
210,84,0,5,1,47,33,1384,['c'],1,left,['3'],4,648,[0.11458945],78,47,medium,minus,dotcolour,alfa,,,76,20,V,R,
211,85,1,5,1,27,53,816,['n'],1,right,['1'],6,270,[-0.0738873],78,53,easy,minus,dotcolour,alfa,,,76,20,V,R,
212,86,2,5,1,27,53,881,['n'],1,right,['2'],5,314,[-0.17818198],95,53,easy,minus,dotcolour,alfa,,,76,20,V,R,
213,87,3,5,1,27,53,631,['n'],1,right,['1'],6,253,[-0.14481345],93,53,easy,minus,dotcolour,alfa,,,76,20,V,R,
214,88,4,5,1,36,44,916,['n'],1,right,['1'],6,192,[-0.04409257],71,44,hard,minus,dotcolour,alfa,,,76,20,V,R,
215,89,5,5,1,44,36,1049,['n'],0,left,['2'],5,591,[-0.09439127],75,44,hard,minus,dotcolour,alfa,,,76,20,V,R,
216,90,6,5,1,47,33,1249,['c'],1,left,['3'],4,823,[0.09677895],72,47,medium,minus,dotcolour,alfa,,,76,20,V,R,
217,91,7,5,1,44,36,1131,['c'],1,left,['2'],5,761,[0.05930667],65,44,hard,minus,dotcolour,alfa,,,76,20,V,R,
218,92,8,5,1,36,44,616,['n'],1,right,['2'],5,459,[-0.08608671],76,44,hard,minus,dotcolour,alfa,,,76,20,V,R,
219,93,9,5,1,33,47,533,['n'],1,right,['1'],6,228,[-0.0957405],86,47,medium,minus,dotcolour,alfa,,,76,20,V,R,
220,94,10,5,1,33,47,714,['n'],1,right,['1'],6,143,[-0.06932301],84,47,medium,minus,dotcolour,alfa,,,76,20,V,R,
221,95,11,5,1,47,33,965,['c'],1,left,['1'],6,197,[0.05803338],76,47,medium,minus,dotcolour,alfa,,,76,20,V,R,
222,96,12,5,1,44,36,797,['n'],0,left,['2'],5,374,[0.02180947],42,44,hard,minus,dotcolour,alfa,,,76,20,V,R,
223,97,13,5,1,33,47,582,['n'],1,right,['2'],5,192,[-0.08136883],84,47,medium,minus,dotcolour,alfa,,,76,20,V,R,
224,98,14,5,1,47,33,2230,['c'],1,left,['3'],4,616,[0.14119333],83,47,medium,minus,dotcolour,alfa,,,76,20,V,R,
225,99,15,5,1,33,47,566,['n'],1,right,['2'],5,426,[-0.15973055],90,47,medium,minus,dotcolour,alfa,,,76,20,V,R,
226,100,16,5,1,53,27,1316,['c'],1,left,['2'],5,557,[0.11302549],80,53,easy,minus,dotcolour,alfa,,,76,20,V,R,
227,101,17,5,1,47,33,1081,['c'],1,left,['2'],5,404,[0.17095005],92,47,medium,minus,dotcolour,alfa,,,76,20,V,R,
228,102,18,5,1,27,53,580,['n'],1,right,['2'],5,350,[-0.1767917],94,53,easy,minus,dotcolour,alfa,,,76,20,V,R,
229,103,19,5,1,44,36,881,['c'],1,left,['2'],5,303,[0.16899116],94,44,hard,minus,dotcolour,alfa,,,76,20,V,R,
230,104,20,5,1,44,36,1247,['c'],1,left,['3'],4,321,[0.11690133],86,44,hard,minus,dotcolour,alfa,,,76,20,V,R,
231,105,21,5,1,53,27,899,['c'],1,left,['3'],4,346,[0.01360314],55,53,easy,minus,dotcolour,alfa,,,76,20,V,R,
232,106,22,5,1,33,47,650,['n'],1,right,['2'],5,491,[-0.15284891],88,47,medium,minus,dotcolour,alfa,,,76,20,V,R,
233,107,23,5,1,47,33,1000,['c'],1,left,['3'],4,760,[0.1112843],76,47,medium,minus,dotcolour,alfa,,,76,20,V,R,
234,108,24,5,1,36,44,1115,['n'],1,right,['2'],5,350,[0.01035968],46,44,hard,minus,dotcolour,alfa,,,76,20,V,R,
235,109,25,5,1,53,27,765,['c'],1,left,['1'],6,322,[0.18897105],95,53,easy,minus,dotcolour,alfa,,,76,20,V,R,
236,110,26,5,1,27,53,797,['n'],1,right,['1'],6,182,[-0.10667868],90,53,easy,minus,dotcolour,alfa,,,76,20,V,R,
237,111,27,5,1,36,44,1482,['c'],0,right,['3'],4,565,[-0.0364821],39,44,hard,minus,dotcolour,alfa,,,76,20,V,R,
238,112,28,5,1,44,36,1065,['c'],1,left,['2'],5,1053,[0.11730131],74,44,hard,minus,dotcolour,alfa,,,76,20,V,R,
239,113,29,5,1,47,33,1296,['c'],1,left,['2'],5,223,[0.09649118],86,47,medium,minus,dotcolour,alfa,,,76,20,V,R,
240,114,30,5,1,27,53,767,['n'],1,right,['1'],6,200,[-0.10137123],88,53,easy,minus,dotcolour,alfa,,,76,20,V,R,
241,115,31,5,1,53,27,866,['c'],1,left,['1'],6,183,[0.153371],96,53,easy,minus,dotcolour,alfa,,,76,20,V,R,
242,116,32,5,1,33,47,682,['n'],1,right,['1'],6,181,[-0.08022045],85,47,medium,minus,dotcolour,alfa,,,76,20,V,R,
243,117,33,5,1,36,44,798,['n'],1,right,['1'],6,119,[-0.01183017],58,44,hard,minus,dotcolour,alfa,,,76,20,V,R,
244,118,34,5,1,44,36,1184,['c'],1,left,['2'],5,227,[0.02289684],61,44,hard,minus,dotcolour,alfa,,,76,20,V,R,
245,119,35,5,1,53,27,764,['c'],1,left,['2'],5,221,[0.00448159],52,53,easy,minus,dotcolour,alfa,,,76,20,V,R,
246,120,36,5,1,53,27,898,['c'],1,left,['2'],5,170,[0.13087889],95,53,easy,minus,dotcolour,alfa,,,76,20,V,R,
247,121,37,5,1,36,44,783,['n'],1,right,['1'],6,206,[-0.07901778],83,44,hard,minus,dotcolour,alfa,,,76,20,V,R,
248,122,38,5,1,53,27,797,['c'],1,left,['1'],6,205,[0.06941056],80,53,easy,minus,dotcolour,alfa,,,76,20,V,R,
249,123,39,5,1,27,53,815,['n'],1,right,['1'],6,230,[-0.14943326],94,53,easy,minus,dotcolour,alfa,,,76,20,V,R,
250,124,40,5,1,33,47,664,['n'],1,right,['1'],6,204,[-0.06552544],79,47,medium,minus,dotcolour,alfa,,,76,20,V,R,
251,125,41,5,1,36,44,934,['c'],0,right,['3'],4,735,[0.06560978],67,44,hard,minus,dotcolour,alfa,,,76,20,V,R,
252,0,0,6,2,33,47,1033,['n'],1,right,['1'],6,138,[-0.02932653],94,47,medium,plus,dotcolour,alfa,,,76,20,V,R,
253,1,1,6,2,27,53,650,['n'],1,right,['1'],6,204,[-0.13639804],100,53,easy,plus,dotcolour,alfa,,,76,20,V,R,
254,2,2,6,2,47,33,898,['c'],1,left,['2'],5,544,[0.22544558],100,47,medium,plus,dotcolour,alfa,,,76,20,V,R,
255,3,3,6,2,47,33,1682,['n'],0,left,['3'],4,641,[-0.0594731],94,47,medium,plus,dotcolour,alfa,,,76,20,V,R,
256,4,4,6,2,44,36,831,['c'],1,left,['2'],5,823,[-0.00495202],45,44,hard,plus,dotcolour,alfa,,,76,20,V,R,
257,5,5,6,2,27,53,583,['n'],1,right,['1'],6,263,[-0.08566864],100,53,easy,plus,dotcolour,alfa,,,76,20,V,R,
258,6,6,6,2,44,36,1181,['c'],1,left,['1'],6,150,[0.07860339],100,44,hard,plus,dotcolour,alfa,,,76,20,V,R,
259,7,7,6,2,36,44,633,['n'],1,right,['1'],6,184,[-0.07262677],100,44,hard,plus,dotcolour,alfa,,,76,20,V,R,
260,8,8,6,2,44,36,1283,['c'],1,left,['3'],4,583,[0.01832428],70,44,hard,plus,dotcolour,alfa,,,76,20,V,R,
261,9,9,6,2,27,53,631,['n'],1,right,['1'],6,168,[-0.13512861],100,53,easy,plus,dotcolour,alfa,,,76,20,V,R,
262,10,10,6,2,53,27,766,['c'],1,left,['1'],6,196,[0.11566573],100,53,easy,plus,dotcolour,alfa,,,76,20,V,R,
263,11,11,6,2,36,44,866,['n'],1,right,['2'],5,586,[0.00079074],49,44,hard,plus,dotcolour,alfa,,,76,20,V,R,
264,12,12,6,2,33,47,681,['n'],1,right,['1'],6,201,[-0.06085463],99,47,medium,plus,dotcolour,alfa,,,76,20,V,R,
265,13,13,6,2,36,44,1233,['n'],1,right,['2'],5,473,[-0.06489229],97,44,hard,plus,dotcolour,alfa,,,76,20,V,R,
266,14,14,6,2,47,33,833,['c'],1,left,['2'],5,502,[0.22739965],100,47,medium,plus,dotcolour,alfa,,,76,20,V,R,
267,15,15,6,2,33,47,682,['n'],1,right,['2'],5,335,[-0.11414761],100,47,medium,plus,dotcolour,alfa,,,76,20,V,R,
268,16,16,6,2,27,53,648,['n'],1,right,['1'],6,177,[-0.05456339],99,53,easy,plus,dotcolour,alfa,,,76,20,V,R,
269,17,17,6,2,44,36,1334,['n'],0,left,['3'],4,485,[-0.14295379],100,44,hard,plus,dotcolour,alfa,,,76,20,V,R,
270,18,18,6,2,47,33,1599,['c'],1,left,['3'],4,459,[0.06626152],97,47,medium,plus,dotcolour,alfa,,,76,20,V,R,
271,19,19,6,2,53,27,865,['c'],1,left,['3'],4,359,[0.2262116],100,53,easy,plus,dotcolour,alfa,,,76,20,V,R,
272,20,20,6,2,27,53,781,['n'],1,right,['1'],6,290,[-0.12426021],100,53,easy,plus,dotcolour,alfa,,,76,20,V,R,
273,21,21,6,2,36,44,814,['n'],1,right,['2'],5,447,[-0.08228771],99,44,hard,plus,dotcolour,alfa,,,76,20,V,R,
274,22,22,6,2,47,33,2682,['c'],1,left,['3'],4,755,[0.07411585],96,47,medium,plus,dotcolour,alfa,,,76,20,V,R,
275,23,23,6,2,27,53,683,['n'],1,right,['1'],6,210,[-0.05509701],99,53,easy,plus,dotcolour,alfa,,,76,20,V,R,
276,24,24,6,2,44,36,666,['n'],0,left,['2'],5,392,[-0.1522676],100,44,hard,plus,dotcolour,alfa,,,76,20,V,R,
277,25,25,6,2,53,27,948,['c'],1,left,['2'],5,444,[0.00429614],56,53,easy,plus,dotcolour,alfa,,,76,20,V,R,
278,26,26,6,2,53,27,1013,['c'],1,left,['3'],4,682,[0.05461987],92,53,easy,plus,dotcolour,alfa,,,76,20,V,R,
279,27,27,6,2,36,44,732,['n'],1,right,['2'],5,259,[-0.18521448],100,44,hard,plus,dotcolour,alfa,,,76,20,V,R,
280,28,28,6,2,36,44,1199,['n'],1,right,['2'],5,418,[-0.06632733],98,44,hard,plus,dotcolour,alfa,,,76,20,V,R,
281,29,29,6,2,53,27,2965,['n'],0,left,['3'],4,2484,[0.18901364],1,53,easy,plus,dotcolour,alfa,,,76,20,V,R,
282,30,30,6,2,33,47,2250,['n'],1,right,['3'],4,983,[-0.10704669],98,47,medium,plus,dotcolour,alfa,,,76,20,V,R,
283,31,31,6,2,44,36,1316,['c'],1,left,['3'],4,396,[0.10790187],100,44,hard,plus,dotcolour,alfa,,,76,20,V,R,
284,32,32,6,2,36,44,633,['n'],1,right,['3'],4,341,[-0.08901696],100,44,hard,plus,dotcolour,alfa,,,76,20,V,R,
285,33,33,6,2,53,27,1214,['c'],1,left,['2'],5,463,[0.10472153],100,53,easy,plus,dotcolour,alfa,,,76,20,V,R,
286,34,34,6,2,33,47,582,['n'],1,right,['1'],6,270,[-0.12103086],100,47,medium,plus,dotcolour,alfa,,,76,20,V,R,
287,35,35,6,2,33,47,649,['n'],1,right,['1'],6,219,[-0.04466523],97,47,medium,plus,dotcolour,alfa,,,76,20,V,R,
288,36,36,6,2,44,36,1267,['c'],1,left,['3'],4,409,[0.06902418],98,44,hard,plus,dotcolour,alfa,,,76,20,V,R,
289,37,37,6,2,53,27,1098,['c'],1,left,['3'],4,261,[0.12411722],100,53,easy,plus,dotcolour,alfa,,,76,20,V,R,
290,38,38,6,2,47,33,1665,['c'],1,left,['3'],4,321,[0.10716302],100,47,medium,plus,dotcolour,alfa,,,76,20,V,R,
291,39,39,6,2,27,53,582,['n'],1,right,['1'],6,223,[-0.066581],99,53,easy,plus,dotcolour,alfa,,,76,20,V,R,
292,40,40,6,2,33,47,633,['n'],1,right,['1'],6,229,[-0.01441475],75,47,medium,plus,dotcolour,alfa,,,76,20,V,R,
293,41,41,6,2,47,33,964,['c'],1,left,['2'],5,439,[0.27287793],100,47,medium,plus,dotcolour,alfa,,,76,20,V,R,
294,42,0,7,2,33,47,767,['n'],1,right,['1'],6,219,[-0.12840896],100,47,medium,plus,dotcolour,alfa,,,76,20,V,R,
295,43,1,7,2,53,27,998,['c'],1,left,['3'],4,252,[0.05163992],98,53,easy,plus,dotcolour,alfa,,,76,20,V,R,
296,44,2,7,2,36,44,816,['n'],1,right,['1'],6,251,[-0.1382312],100,44,hard,plus,dotcolour,alfa,,,76,20,V,R,
297,45,3,7,2,44,36,781,['n'],0,left,['2'],5,323,[-0.03806792],92,44,hard,plus,dotcolour,alfa,,,76,20,V,R,
298,46,4,7,2,36,44,699,['n'],1,right,['1'],6,258,[-0.14209313],100,44,hard,plus,dotcolour,alfa,,,76,20,V,R,
299,47,5,7,2,27,53,714,['n'],1,right,['1'],6,157,[-0.09198381],100,53,easy,plus,dotcolour,alfa,,,76,20,V,R,
300,48,6,7,2,53,27,999,['c'],1,left,['3'],4,328,[0.1610004],100,53,easy,plus,dotcolour,alfa,,,76,20,V,R,
301,49,7,7,2,47,33,1582,['n'],0,left,['3'],4,565,[-0.11690675],100,47,medium,plus,dotcolour,alfa,,,76,20,V,R,
302,50,8,7,2,27,53,580,['n'],1,right,['1'],6,192,[-0.10368915],100,53,easy,plus,dotcolour,alfa,,,76,20,V,R,
303,51,9,7,2,33,47,916,['n'],1,right,['2'],5,269,[-0.00412248],57,47,medium,plus,dotcolour,alfa,,,76,20,V,R,
304,52,10,7,2,33,47,580,['n'],1,right,['2'],5,188,[-0.11295361],100,47,medium,plus,dotcolour,alfa,,,76,20,V,R,
305,53,11,7,2,36,44,748,['n'],1,right,['2'],5,288,[-0.04487528],95,44,hard,plus,dotcolour,alfa,,,76,20,V,R,
306,54,12,7,2,27,53,714,['n'],1,right,['1'],6,185,[-0.10349731],100,53,easy,plus,dotcolour,alfa,,,76,20,V,R,
307,55,13,7,2,47,33,1315,['c'],1,left,['3'],4,566,[0.09256328],99,47,medium,plus,dotcolour,alfa,,,76,20,V,R,
308,56,14,7,2,33,47,565,['n'],1,right,['1'],6,258,[-0.09038204],100,47,medium,plus,dotcolour,alfa,,,76,20,V,R,
309,57,15,7,2,27,53,631,['n'],1,right,['1'],6,167,[-0.16378946],100,53,easy,plus,dotcolour,alfa,,,76,20,V,R,
310,58,16,7,2,47,33,1166,['n'],0,left,['3'],4,947,[-0.00446218],54,47,medium,plus,dotcolour,alfa,,,76,20,V,R,
311,59,17,7,2,36,44,697,['n'],1,right,['1'],6,210,[-0.10362748],100,44,hard,plus,dotcolour,alfa,,,76,20,V,R,
312,60,18,7,2,44,36,1066,['c'],1,left,['3'],4,448,[0.08067101],99,44,hard,plus,dotcolour,alfa,,,76,20,V,R,
313,61,19,7,2,44,36,1464,['c'],1,left,['2'],5,732,[0.01677082],67,44,hard,plus,dotcolour,alfa,,,76,20,V,R,
314,62,20,7,2,53,27,1815,['c'],1,left,['2'],5,472,[0.08435325],99,53,easy,plus,dotcolour,alfa,,,76,20,V,R,
315,63,21,7,2,36,44,1182,['n'],1,right,['2'],5,543,[0.03176003],17,44,hard,plus,dotcolour,alfa,,,76,20,V,R,
316,64,22,7,2,44,36,1750,['c'],1,left,['2'],5,812,[0.24202059],100,44,hard,plus,dotcolour,alfa,,,76,20,V,R,
317,65,23,7,2,53,27,866,['c'],1,left,['1'],6,194,[0.10611912],100,53,easy,plus,dotcolour,alfa,,,76,20,V,R,
318,66,24,7,2,53,27,665,['c'],1,left,['1'],6,169,[0.12373412],100,53,easy,plus,dotcolour,alfa,,,76,20,V,R,
319,67,25,7,2,47,33,715,['c'],1,left,['1'],6,182,[0.13554594],100,47,medium,plus,dotcolour,alfa,,,76,20,V,R,
320,68,26,7,2,44,36,982,['n'],0,left,['2'],5,513,[-0.01991532],73,44,hard,plus,dotcolour,alfa,,,76,20,V,R,
321,69,27,7,2,44,36,1883,['n'],0,left,['3'],4,330,[-0.10313622],100,44,hard,plus,dotcolour,alfa,,,76,20,V,R,
322,70,28,7,2,53,27,865,['c'],1,left,['1'],6,172,[0.03661427],96,53,easy,plus,dotcolour,alfa,,,76,20,V,R,
323,71,29,7,2,47,33,1683,['c'],1,left,['2'],5,588,[0.24028595],100,47,medium,plus,dotcolour,alfa,,,76,20,V,R,
324,72,30,7,2,27,53,650,['n'],1,right,['1'],6,194,[-0.13490709],100,53,easy,plus,dotcolour,alfa,,,76,20,V,R,
325,73,31,7,2,36,44,1015,['n'],1,right,['2'],5,546,[-0.22405502],100,44,hard,plus,dotcolour,alfa,,,76,20,V,R,
326,74,32,7,2,33,47,1065,['n'],1,right,['2'],5,355,[-0.07938798],99,47,medium,plus,dotcolour,alfa,,,76,20,V,R,
327,75,33,7,2,47,33,1066,['c'],1,left,['2'],5,595,[0.0881125],98,47,medium,plus,dotcolour,alfa,,,76,20,V,R,
328,76,34,7,2,27,53,650,['n'],1,right,['1'],6,235,[-0.20264699],100,53,easy,plus,dotcolour,alfa,,,76,20,V,R,
329,77,35,7,2,36,44,1699,['n'],1,right,['2'],5,534,[-0.19366894],100,44,hard,plus,dotcolour,alfa,,,76,20,V,R,
330,78,36,7,2,27,53,598,['n'],1,right,['1'],6,169,[-0.06186682],100,53,easy,plus,dotcolour,alfa,,,76,20,V,R,
331,79,37,7,2,53,27,964,['c'],1,left,['2'],5,468,[0.09958125],99,53,easy,plus,dotcolour,alfa,,,76,20,V,R,
332,80,38,7,2,33,47,766,['n'],1,right,['1'],6,173,[-0.05986571],99,47,medium,plus,dotcolour,alfa,,,76,20,V,R,
333,81,39,7,2,44,36,1514,['n'],0,left,['3'],4,394,[-0.13171615],100,44,hard,plus,dotcolour,alfa,,,76,20,V,R,
334,82,40,7,2,47,33,1114,['c'],1,left,['2'],5,399,[0.16171008],100,47,medium,plus,dotcolour,alfa,,,76,20,V,R,
335,83,41,7,2,33,47,832,['n'],1,right,['2'],5,270,[-0.13161999],100,47,medium,plus,dotcolour,alfa,,,76,20,V,R,
336,84,0,8,2,36,44,1183,['n'],1,right,['3'],4,691,[0.00298108],47,44,hard,plus,dotcolour,alfa,,,76,20,V,R,
337,85,1,8,2,47,33,817,['c'],1,left,['3'],4,752,[0.18433751],100,47,medium,plus,dotcolour,alfa,,,76,20,V,R,
338,86,2,8,2,44,36,1366,['n'],0,left,['3'],4,532,[-0.04652189],91,44,hard,plus,dotcolour,alfa,,,76,20,V,R,
339,87,3,8,2,44,36,733,['c'],1,left,['3'],4,466,[0.12904845],100,44,hard,plus,dotcolour,alfa,,,76,20,V,R,
340,88,4,8,2,33,47,583,['n'],1,right,['2'],5,322,[-0.15828731],100,47,medium,plus,dotcolour,alfa,,,76,20,V,R,
341,89,5,8,2,36,44,916,['n'],1,right,['2'],5,322,[-0.02556786],84,44,hard,plus,dotcolour,alfa,,,76,20,V,R,
342,90,6,8,2,47,33,1032,['c'],1,left,['2'],5,381,[0.05779748],97,47,medium,plus,dotcolour,alfa,,,76,20,V,R,
343,91,7,8,2,36,44,565,['n'],1,right,['2'],5,248,[-0.14561514],100,44,hard,plus,dotcolour,alfa,,,76,20,V,R,
344,92,8,8,2,33,47,1249,['n'],1,right,['2'],5,630,[-0.08559884],98,47,medium,plus,dotcolour,alfa,,,76,20,V,R,
345,93,9,8,2,27,53,665,['n'],1,right,['2'],5,363,[-0.07882185],99,53,easy,plus,dotcolour,alfa,,,76,20,V,R,
346,94,10,8,2,47,33,966,['c'],1,left,['2'],5,367,[0.21511051],100,47,medium,plus,dotcolour,alfa,,,76,20,V,R,
347,95,11,8,2,27,53,732,['c'],0,right,['0'],1,1445,[0.10779177],96,53,easy,plus,dotcolour,alfa,,,76,20,V,R,
348,96,12,8,2,33,47,998,['n'],1,right,['2'],5,1011,[-0.24767133],100,47,medium,plus,dotcolour,alfa,,,76,20,V,R,
349,97,13,8,2,53,27,1181,['c'],1,left,['2'],5,1212,[0.26685212],100,53,easy,plus,dotcolour,alfa,,,76,20,V,R,
350,98,14,8,2,33,47,682,['n'],1,right,['2'],5,618,[-0.15836886],100,47,medium,plus,dotcolour,alfa,,,76,20,V,R,
351,99,15,8,2,36,44,633,['n'],1,right,['2'],5,297,[-0.08198285],100,44,hard,plus,dotcolour,alfa,,,76,20,V,R,
352,100,16,8,2,27,53,565,['n'],1,right,['1'],6,160,[-0.11014138],100,53,easy,plus,dotcolour,alfa,,,76,20,V,R,
353,101,17,8,2,47,33,865,['n'],0,left,['2'],5,512,[-0.01016191],63,47,medium,plus,dotcolour,alfa,,,76,20,V,R,
354,102,18,8,2,27,53,615,['n'],1,right,['1'],6,172,[-0.14873527],100,53,easy,plus,dotcolour,alfa,,,76,20,V,R,
355,103,19,8,2,44,36,998,['n'],0,left,['3'],4,839,[-0.24133913],100,44,hard,plus,dotcolour,alfa,,,76,20,V,R,
356,104,20,8,2,53,27,966,['c'],1,left,['3'],4,327,[0.0729454],99,53,easy,plus,dotcolour,alfa,,,76,20,V,R,
357,105,21,8,2,36,44,765,['n'],1,right,['2'],5,204,[-0.05617785],99,44,hard,plus,dotcolour,alfa,,,76,20,V,R,
358,106,22,8,2,44,36,1133,['c'],1,left,['2'],5,336,[0.06667424],98,44,hard,plus,dotcolour,alfa,,,76,20,V,R,
359,107,23,8,2,36,44,1948,['c'],0,right,['2'],5,262,[0.08419691],100,44,hard,plus,dotcolour,alfa,,,76,20,V,R,
360,108,24,8,2,33,47,549,['n'],1,right,['2'],5,206,[-0.10573185],100,47,medium,plus,dotcolour,alfa,,,76,20,V,R,
361,109,25,8,2,47,33,865,['n'],0,left,['2'],5,789,[0.29584003],0,47,medium,plus,dotcolour,alfa,,,76,20,V,R,
362,110,26,8,2,44,36,917,['c'],1,left,['2'],5,393,[0.09714117],100,44,hard,plus,dotcolour,alfa,,,76,20,V,R,
363,111,27,8,2,44,36,1166,['c'],1,left,['2'],5,580,[0.14167171],100,44,hard,plus,dotcolour,alfa,,,76,20,V,R,
364,112,28,8,2,33,47,665,['n'],1,right,['1'],6,388,[-0.12490849],100,47,medium,plus,dotcolour,alfa,,,76,20,V,R,
365,113,29,8,2,53,27,1214,['c'],1,left,['1'],6,861,[0.36072071],100,53,easy,plus,dotcolour,alfa,,,76,20,V,R,
366,114,30,8,2,44,36,747,['n'],0,left,['1'],6,205,[-0.02640204],89,44,hard,plus,dotcolour,alfa,,,76,20,V,R,
367,115,31,8,2,27,53,582,['n'],1,right,['1'],6,174,[-0.1247645],100,53,easy,plus,dotcolour,alfa,,,76,20,V,R,
368,116,32,8,2,36,44,716,['n'],1,right,['1'],6,188,[-0.1524845],100,44,hard,plus,dotcolour,alfa,,,76,20,V,R,
369,117,33,8,2,53,27,932,['c'],1,left,['1'],6,168,[0.07556436],100,53,easy,plus,dotcolour,alfa,,,76,20,V,R,
370,118,34,8,2,27,53,565,['n'],1,right,['1'],6,148,[-0.11660191],100,53,easy,plus,dotcolour,alfa,,,76,20,V,R,
371,119,35,8,2,53,27,849,['c'],1,left,['1'],6,197,[0.12152281],100,53,easy,plus,dotcolour,alfa,,,76,20,V,R,
372,120,36,8,2,53,27,949,['c'],1,left,['2'],5,272,[0.19403622],100,53,easy,plus,dotcolour,alfa,,,76,20,V,R,
373,121,37,8,2,47,33,915,['c'],1,left,['3'],4,834,[0.05624839],90,47,medium,plus,dotcolour,alfa,,,76,20,V,R,
374,122,38,8,2,53,27,682,['c'],1,left,['2'],5,318,[0.0591729],98,53,easy,plus,dotcolour,alfa,,,76,20,V,R,
375,123,39,8,2,27,53,599,['n'],1,right,['1'],6,226,[-0.11981672],100,53,easy,plus,dotcolour,alfa,,,76,20,V,R,
376,124,40,8,2,33,47,498,['n'],1,right,['1'],6,198,[-0.06674087],100,47,medium,plus,dotcolour,alfa,,,76,20,V,R,
377,125,41,8,2,47,33,632,['c'],1,left,['2'],5,518,[0.1460878],100,47,medium,plus,dotcolour,alfa,,,76,20,V,R,
378,0,0,9,3,36,44,1033,['n'],1,right,['1'],6,179,[0.03409999],33,44,hard,minus,dotcolour,alfa,,,76,20,V,R,
379,1,1,9,3,44,36,497,['n'],0,left,['2'],5,529,[0.01850099],44,44,hard,minus,dotcolour,alfa,,,76,20,V,R,
380,2,2,9,3,53,27,750,['c'],1,left,['1'],6,319,[0.09588887],82,53,easy,minus,dotcolour,alfa,,,76,20,V,R,
381,3,3,9,3,33,47,632,['n'],1,right,['1'],6,266,[-0.05716611],73,47,medium,minus,dotcolour,alfa,,,76,20,V,R,
382,4,4,9,3,27,53,531,['n'],1,right,['1'],6,547,[-0.15571208],87,53,easy,minus,dotcolour,alfa,,,76,20,V,R,
383,5,5,9,3,47,33,1015,['c'],1,left,['2'],5,438,[0.18964367],93,47,medium,minus,dotcolour,alfa,,,76,20,V,R,
384,6,6,9,3,33,47,583,['n'],1,right,['1'],6,223,[-0.1190098],91,47,medium,minus,dotcolour,alfa,,,76,20,V,R,
385,7,7,9,3,44,36,948,['c'],1,left,['2'],5,337,[0.08934816],80,44,hard,minus,dotcolour,alfa,,,76,20,V,R,
386,8,8,9,3,53,27,1215,['c'],1,left,['2'],5,284,[0.00350796],51,53,easy,minus,dotcolour,alfa,,,76,20,V,R,
387,9,9,9,3,33,47,665,['n'],1,right,['1'],6,159,[-0.07798697],85,47,medium,minus,dotcolour,alfa,,,76,20,V,R,
388,10,10,9,3,53,27,814,['c'],1,left,['1'],6,585,[0.25352757],95,53,easy,minus,dotcolour,alfa,,,76,20,V,R,
389,11,11,9,3,27,53,582,['n'],1,right,['1'],6,219,[-0.12619083],92,53,easy,minus,dotcolour,alfa,,,76,20,V,R,
390,12,12,9,3,27,53,599,['n'],1,right,['1'],6,171,[-0.04521629],73,53,easy,minus,dotcolour,alfa,,,76,20,V,R,
391,13,13,9,3,47,33,1232,['c'],1,left,['3'],4,1028,[0.24183106],90,47,medium,minus,dotcolour,alfa,,,76,20,V,R,
392,14,14,9,3,33,47,616,['n'],1,right,['1'],6,164,[-0.13329685],95,47,medium,minus,dotcolour,alfa,,,76,20,V,R,
393,15,15,9,3,36,44,598,['n'],1,right,['1'],6,182,[-0.11093464],91,44,hard,minus,dotcolour,alfa,,,76,20,V,R,
394,16,16,9,3,27,53,615,['n'],1,right,['1'],6,159,[-0.06693435],82,53,easy,minus,dotcolour,alfa,,,76,20,V,R,
395,17,17,9,3,27,53,631,['n'],1,right,['1'],6,217,[-0.12716816],92,53,easy,minus,dotcolour,alfa,,,76,20,V,R,
396,18,18,9,3,53,27,779,['c'],1,left,['2'],5,410,[0.15196782],89,53,easy,minus,dotcolour,alfa,,,76,20,V,R,
397,19,19,9,3,33,47,465,['n'],1,right,['1'],6,161,[-0.16141356],97,47,medium,minus,dotcolour,alfa,,,76,20,V,R,
398,20,20,9,3,47,33,781,['c'],1,left,['8'],3,971,[0.25126447],91,47,medium,minus,dotcolour,alfa,,,76,20,V,R,
399,21,21,9,3,44,36,947,['c'],1,left,['3'],4,447,[0.04539772],65,44,hard,minus,dotcolour,alfa,,,76,20,V,R,
400,22,22,9,3,47,33,1665,['c'],1,left,['3'],4,300,[0.09195799],82,47,medium,minus,dotcolour,alfa,,,76,20,V,R,
401,23,23,9,3,44,36,1383,['n'],0,left,['3'],4,738,[0.1159022],23,44,hard,minus,dotcolour,alfa,,,76,20,V,R,
402,24,24,9,3,47,33,1050,['c'],1,left,['2'],5,532,[0.12148508],82,47,medium,minus,dotcolour,alfa,,,76,20,V,R,
403,25,25,9,3,47,33,749,['c'],1,left,['2'],5,322,[0.05121284],69,47,medium,minus,dotcolour,alfa,,,76,20,V,R,
404,26,26,9,3,44,36,1031,['c'],1,left,['2'],5,772,[-0.13580178],20,44,hard,minus,dotcolour,alfa,,,76,20,V,R,
405,27,27,9,3,47,33,798,['c'],1,left,['2'],5,318,[0.2012322],96,47,medium,minus,dotcolour,alfa,,,76,20,V,R,
406,28,28,9,3,36,44,1033,['n'],1,right,['2'],5,545,[-0.15982733],88,44,hard,minus,dotcolour,alfa,,,76,20,V,R,
407,29,29,9,3,44,36,966,['n'],0,left,['8'],3,846,[-0.14384085],80,44,hard,minus,dotcolour,alfa,,,76,20,V,R,
408,30,30,9,3,36,44,782,['n'],1,right,['2'],5,373,[-0.12905606],87,44,hard,minus,dotcolour,alfa,,,76,20,V,R,
409,31,31,9,3,44,36,898,['c'],1,left,['2'],5,779,[0.19706973],88,44,hard,minus,dotcolour,alfa,,,76,20,V,R,
410,32,32,9,3,36,44,766,['c'],0,right,['8'],3,911,[0.17360309],84,44,hard,minus,dotcolour,alfa,,,76,20,V,R,
411,33,33,9,3,27,53,583,['n'],1,right,['2'],5,324,[-0.20144024],96,53,easy,minus,dotcolour,alfa,,,76,20,V,R,
412,34,34,9,3,53,27,798,['c'],1,left,['1'],6,152,[0.09760086],90,53,easy,minus,dotcolour,alfa,,,76,20,V,R,
413,35,35,9,3,33,47,615,['n'],1,right,['1'],6,178,[-0.08160883],85,47,medium,minus,dotcolour,alfa,,,76,20,V,R,
414,36,36,9,3,36,44,1248,['n'],1,right,['3'],4,771,[-0.13787922],80,44,hard,minus,dotcolour,alfa,,,76,20,V,R,
415,37,37,9,3,36,44,697,['n'],1,right,['2'],5,569,[-0.04051045],62,44,hard,minus,dotcolour,alfa,,,76,20,V,R,
416,38,38,9,3,33,47,732,['n'],1,right,['2'],5,261,[-0.16720752],95,47,medium,minus,dotcolour,alfa,,,76,20,V,R,
417,39,39,9,3,53,27,833,['c'],1,left,['2'],5,323,[0.25193377],98,53,easy,minus,dotcolour,alfa,,,76,20,V,R,
418,40,40,9,3,53,27,732,['c'],1,left,['1'],6,201,[0.1101625],90,53,easy,minus,dotcolour,alfa,,,76,20,V,R,
419,41,41,9,3,27,53,515,['n'],1,right,['1'],6,262,[-0.09944986],85,53,easy,minus,dotcolour,alfa,,,76,20,V,R,
420,42,0,10,3,53,27,734,['n'],0,left,['9'],2,1626,[-0.08173358],64,53,easy,minus,dotcolour,alfa,,,76,20,V,R,
421,43,1,10,3,33,47,633,['n'],1,right,['2'],5,697,[-0.23862218],93,47,medium,minus,dotcolour,alfa,,,76,20,V,R,
422,44,2,10,3,44,36,949,['c'],1,left,['3'],4,632,[0.14604869],84,44,hard,minus,dotcolour,alfa,,,76,20,V,R,
423,45,3,10,3,53,27,864,['c'],1,left,['2'],5,421,[0.04908153],66,53,easy,minus,dotcolour,alfa,,,76,20,V,R,
424,46,4,10,3,36,44,700,['n'],1,right,['1'],6,282,[-0.08940718],82,44,hard,minus,dotcolour,alfa,,,76,20,V,R,
425,47,5,10,3,27,53,533,['n'],1,right,['1'],6,218,[-0.18483556],97,53,easy,minus,dotcolour,alfa,,,76,20,V,R,
426,48,6,10,3,47,33,915,['c'],1,left,['1'],6,239,[0.03982244],68,47,medium,minus,dotcolour,alfa,,,76,20,V,R,
427,49,7,10,3,33,47,598,['n'],1,right,['1'],6,206,[-0.08140378],83,47,medium,minus,dotcolour,alfa,,,76,20,V,R,
428,50,8,10,3,33,47,565,['n'],1,right,['1'],6,177,[-0.03917872],70,47,medium,minus,dotcolour,alfa,,,76,20,V,R,
429,51,9,10,3,53,27,765,['c'],1,left,['2'],5,381,[0.15253695],90,53,easy,minus,dotcolour,alfa,,,76,20,V,R,
430,52,10,10,3,33,47,515,['n'],1,right,['1'],6,186,[-0.00018313],50,47,medium,minus,dotcolour,alfa,,,76,20,V,R,
431,53,11,10,3,36,44,614,['n'],1,right,['1'],6,156,[-0.07722827],85,44,hard,minus,dotcolour,alfa,,,76,20,V,R,
432,54,12,10,3,44,36,1348,['c'],1,left,['3'],4,696,[0.25945326],94,44,hard,minus,dotcolour,alfa,,,76,20,V,R,
433,55,13,10,3,27,53,516,['n'],1,right,['1'],6,177,[-0.14936847],96,53,easy,minus,dotcolour,alfa,,,76,20,V,R,
434,56,14,10,3,47,33,932,['c'],1,left,['2'],5,470,[0.14738205],87,47,medium,minus,dotcolour,alfa,,,76,20,V,R,
435,57,15,10,3,36,44,615,['n'],1,right,['2'],5,499,[-0.13042714],84,44,hard,minus,dotcolour,alfa,,,76,20,V,R,
436,58,16,10,3,33,47,631,['n'],1,right,['2'],5,191,[-0.15657774],96,47,medium,minus,dotcolour,alfa,,,76,20,V,R,
437,59,17,10,3,44,36,1315,['n'],0,left,['3'],4,379,[-0.04111439],65,44,hard,minus,dotcolour,alfa,,,76,20,V,R,
438,60,18,10,3,27,53,549,['c'],0,right,['0'],1,1839,[-0.26460234],15,53,easy,minus,dotcolour,alfa,,,76,20,V,R,
439,61,19,10,3,47,33,764,['n'],0,left,['2'],5,440,[-0.02123126],57,47,medium,minus,dotcolour,alfa,,,76,20,V,R,
440,62,20,10,3,47,33,2166,['c'],1,left,['3'],4,289,[0.10309512],85,47,medium,minus,dotcolour,alfa,,,76,20,V,R,
441,63,21,10,3,33,47,547,['n'],1,right,['1'],6,232,[-0.08197617],82,47,medium,minus,dotcolour,alfa,,,76,20,V,R,
442,64,22,10,3,36,44,565,['n'],1,right,['1'],6,177,[-0.06064856],79,44,hard,minus,dotcolour,alfa,,,76,20,V,R,
443,65,23,10,3,47,33,850,['c'],1,left,['1'],6,441,[0.11270568],82,47,medium,minus,dotcolour,alfa,,,76,20,V,R,
444,66,24,10,3,44,36,2149,['c'],1,left,['3'],4,371,[0.09508293],80,44,hard,minus,dotcolour,alfa,,,76,20,V,R,
445,67,25,10,3,53,27,984,['c'],1,left,['2'],5,597,[0.12781335],82,53,easy,minus,dotcolour,alfa,,,76,20,V,R,
446,68,26,10,3,27,53,549,['n'],1,right,['1'],6,168,[-0.06057808],79,53,easy,minus,dotcolour,alfa,,,76,20,V,R,
447,69,27,10,3,27,53,500,['n'],1,right,['1'],6,191,[-0.1630641],97,53,easy,minus,dotcolour,alfa,,,76,20,V,R,
448,70,28,10,3,47,33,851,['c'],1,left,['2'],5,407,[0.12679973],86,47,medium,minus,dotcolour,alfa,,,76,20,V,R,
449,71,29,10,3,44,36,733,['n'],0,left,['2'],5,386,[0.10431939],18,44,hard,minus,dotcolour,alfa,,,76,20,V,R,
450,72,30,10,3,47,33,932,['c'],1,left,['2'],5,382,[0.22930612],97,47,medium,minus,dotcolour,alfa,,,76,20,V,R,
451,73,31,10,3,53,27,832,['c'],1,left,['2'],5,239,[0.21033066],98,53,easy,minus,dotcolour,alfa,,,76,20,V,R,
452,74,32,10,3,27,53,565,['n'],1,right,['1'],6,169,[-0.09098924],88,53,easy,minus,dotcolour,alfa,,,76,20,V,R,
453,75,33,10,3,36,44,998,['c'],0,right,['3'],4,827,[0.14924482],81,44,hard,minus,dotcolour,alfa,,,76,20,V,R,
454,76,34,10,3,36,44,1431,['n'],1,right,['3'],4,449,[-0.07247583],73,44,hard,minus,dotcolour,alfa,,,76,20,V,R,
455,77,35,10,3,53,27,732,['c'],1,left,['1'],6,331,[0.07033947],75,53,easy,minus,dotcolour,alfa,,,76,20,V,R,
456,78,36,10,3,36,44,1383,['n'],1,right,['3'],4,856,[0.00230559],49,44,hard,minus,dotcolour,alfa,,,76,20,V,R,
457,79,37,10,3,53,27,781,['c'],1,left,['2'],5,407,[0.19699512],94,53,easy,minus,dotcolour,alfa,,,76,20,V,R,
458,80,38,10,3,27,53,516,['n'],1,right,['1'],6,163,[-0.08617464],87,53,easy,minus,dotcolour,alfa,,,76,20,V,R,
459,81,39,10,3,44,36,582,['n'],0,left,['1'],6,223,[-0.01110768],55,44,hard,minus,dotcolour,alfa,,,76,20,V,R,
460,82,40,10,3,33,47,784,['n'],1,right,['1'],6,223,[-0.10705076],88,47,medium,minus,dotcolour,alfa,,,76,20,V,R,
461,83,41,10,3,44,36,848,['c'],1,left,['2'],5,445,[0.1231839],84,44,hard,minus,dotcolour,alfa,,,76,20,V,R,
462,84,0,11,3,47,33,1050,['n'],0,left,['9'],2,1844,[-5.15580948e-06],50,47,medium,minus,dotcolour,alfa,,,76,20,V,R,
463,85,1,11,3,44,36,999,['c'],1,left,['3'],4,650,[0.12894799],81,44,hard,minus,dotcolour,alfa,,,76,20,V,R,
464,86,2,11,3,47,33,665,['n'],0,left,['2'],5,702,[0.07327646],31,47,medium,minus,dotcolour,alfa,,,76,20,V,R,
465,87,3,11,3,53,27,1032,['c'],1,left,['2'],5,354,[0.01156023],54,53,easy,minus,dotcolour,alfa,,,76,20,V,R,
466,88,4,11,3,47,33,915,['c'],1,left,['2'],5,513,[0.09741617],77,47,medium,minus,dotcolour,alfa,,,76,20,V,R,
467,89,5,11,3,27,53,482,['n'],1,right,['1'],6,427,[-0.20641013],94,53,easy,minus,dotcolour,alfa,,,76,20,V,R,
468,90,6,11,3,36,44,1898,['c'],0,right,['3'],4,910,[-0.0490427],39,44,hard,minus,dotcolour,alfa,,,76,20,V,R,
469,91,7,11,3,27,53,766,['n'],1,right,['1'],6,229,[-0.08493603],83,53,easy,minus,dotcolour,alfa,,,76,20,V,R,
470,92,8,11,3,53,27,1348,['c'],1,left,['1'],6,246,[0.08759277],83,53,easy,minus,dotcolour,alfa,,,76,20,V,R,
471,93,9,11,3,33,47,747,['n'],1,right,['1'],6,296,[-0.1763205],95,47,medium,minus,dotcolour,alfa,,,76,20,V,R,
472,94,10,11,3,44,36,2066,['c'],1,left,['3'],4,691,[0.0213663],56,44,hard,minus,dotcolour,alfa,,,76,20,V,R,
473,95,11,11,3,47,33,897,['c'],1,left,['3'],4,396,[0.11414965],84,47,medium,minus,dotcolour,alfa,,,76,20,V,R,
474,96,12,11,3,44,36,682,['n'],0,left,['3'],4,546,[-0.12896392],83,44,hard,minus,dotcolour,alfa,,,76,20,V,R,
475,97,13,11,3,36,44,732,['n'],1,right,['3'],4,592,[-0.22640418],93,44,hard,minus,dotcolour,alfa,,,76,20,V,R,
476,98,14,11,3,36,44,964,['n'],1,right,['2'],5,315,[-0.16909122],94,44,hard,minus,dotcolour,alfa,,,76,20,V,R,
477,99,15,11,3,44,36,715,['n'],0,left,['2'],5,706,[-0.09978853],74,44,hard,minus,dotcolour,alfa,,,76,20,V,R,
478,100,16,11,3,44,36,1449,['c'],1,left,['3'],4,541,[0.07888779],72,44,hard,minus,dotcolour,alfa,,,76,20,V,R,
479,101,17,11,3,36,44,1033,['n'],1,right,['2'],5,599,[-0.06438783],68,44,hard,minus,dotcolour,alfa,,,76,20,V,R,
480,102,18,11,3,44,36,1165,['c'],1,left,['3'],4,329,[0.02712993],60,44,hard,minus,dotcolour,alfa,,,76,20,V,R,
481,103,19,11,3,33,47,581,['n'],1,right,['2'],5,214,[-0.06578387],78,47,medium,minus,dotcolour,alfa,,,76,20,V,R,
482,104,20,11,3,33,47,683,['n'],1,right,['2'],5,211,[-0.08773497],85,47,medium,minus,dotcolour,alfa,,,76,20,V,R,
483,105,21,11,3,33,47,531,['n'],1,right,['2'],5,183,[-0.10298425],90,47,medium,minus,dotcolour,alfa,,,76,20,V,R,
484,106,22,11,3,47,33,815,['c'],1,left,['3'],4,416,[0.19744194],94,47,medium,minus,dotcolour,alfa,,,76,20,V,R,
485,107,23,11,3,53,27,733,['c'],1,left,['1'],6,300,[0.08711018],81,53,easy,minus,dotcolour,alfa,,,76,20,V,R,
486,108,24,11,3,27,53,565,['n'],1,right,['1'],6,162,[-0.11221086],92,53,easy,minus,dotcolour,alfa,,,76,20,V,R,
487,109,25,11,3,36,44,532,['n'],1,right,['1'],6,175,[-0.15396762],96,44,hard,minus,dotcolour,alfa,,,76,20,V,R,
488,110,26,11,3,53,27,865,['c'],1,left,['2'],5,295,[0.06720091],75,53,easy,minus,dotcolour,alfa,,,76,20,V,R,
489,111,27,11,3,47,33,982,['c'],1,left,['2'],5,253,[0.14382273],93,47,medium,minus,dotcolour,alfa,,,76,20,V,R,
490,112,28,11,3,33,47,582,['n'],1,right,['1'],6,132,[-0.09272216],91,47,medium,minus,dotcolour,alfa,,,76,20,V,R,
491,113,29,11,3,27,53,567,['n'],1,right,['1'],6,138,[-0.06639991],83,53,easy,minus,dotcolour,alfa,,,76,20,V,R,
492,114,30,11,3,53,27,783,['c'],1,left,['1'],6,118,[0.12238118],96,53,easy,minus,dotcolour,alfa,,,76,20,V,R,
493,115,31,11,3,27,53,566,['n'],1,right,['1'],6,141,[-0.08518202],89,53,easy,minus,dotcolour,alfa,,,76,20,V,R,
494,116,32,11,3,47,33,1032,['c'],1,left,['3'],4,527,[0.14846603],86,47,medium,minus,dotcolour,alfa,,,76,20,V,R,
495,117,33,11,3,53,27,882,['c'],1,left,['2'],5,248,[0.04431845],69,53,easy,minus,dotcolour,alfa,,,76,20,V,R,
496,118,34,11,3,27,53,549,['n'],1,right,['1'],6,185,[-0.08020245],84,53,easy,minus,dotcolour,alfa,,,76,20,V,R,
497,119,35,11,3,44,36,834,['n'],0,left,['2'],5,346,[-0.01455193],56,44,hard,minus,dotcolour,alfa,,,76,20,V,R,
498,120,36,11,3,27,53,548,['n'],1,right,['2'],5,255,[-0.13698171],92,53,easy,minus,dotcolour,alfa,,,76,20,V,R,
499,121,37,11,3,53,27,798,['c'],1,left,['2'],5,622,[0.1403927],83,53,easy,minus,dotcolour,alfa,,,76,20,V,R,
500,122,38,11,3,33,47,532,['n'],1,right,['1'],6,352,[-0.02547958],60,47,medium,minus,dotcolour,alfa,,,76,20,V,R,
501,123,39,11,3,36,44,415,['n'],1,right,['2'],5,355,[-0.12799484],87,44,hard,minus,dotcolour,alfa,,,76,20,V,R,
502,124,40,11,3,36,44,499,['n'],1,right,['2'],5,186,[-0.03797825],69,44,hard,minus,dotcolour,alfa,,,76,20,V,R,
503,125,41,11,3,33,47,531,['n'],1,right,['2'],5,182,[-0.08160155],85,47,medium,minus,dotcolour,alfa,,,76,20,V,R,
504,0,0,12,4,53,27,933,['c'],1,left,['2'],5,260,[0.02619011],86,53,easy,plus,dotcolour,alfa,,,76,20,V,R,
505,1,1,12,4,53,27,482,['n'],0,left,['2'],5,207,[-0.11689533],100,53,easy,plus,dotcolour,alfa,,,76,20,V,R,
506,2,2,12,4,33,47,699,['n'],1,right,['1'],6,260,[-0.02333003],84,47,medium,plus,dotcolour,alfa,,,76,20,V,R,
507,3,3,12,4,44,36,1050,['c'],1,left,['3'],4,369,[0.13159384],100,44,hard,plus,dotcolour,alfa,,,76,20,V,R,
508,4,4,12,4,27,53,516,['n'],1,right,['1'],6,167,[-0.12714372],100,53,easy,plus,dotcolour,alfa,,,76,20,V,R,
509,5,5,12,4,47,33,1065,['n'],0,left,['1'],6,439,[0.01643062],29,47,medium,plus,dotcolour,alfa,,,76,20,V,R,
510,6,6,12,4,27,53,499,['n'],1,right,['1'],6,195,[-0.08904407],100,53,easy,plus,dotcolour,alfa,,,76,20,V,R,
511,7,7,12,4,44,36,948,['n'],0,left,['8'],3,1302,[0.10742979],3,44,hard,plus,dotcolour,alfa,,,76,20,V,R,
512,8,8,12,4,27,53,549,['n'],1,right,['1'],6,228,[-0.14541623],100,53,easy,plus,dotcolour,alfa,,,76,20,V,R,
513,9,9,12,4,47,33,683,['n'],0,left,['3'],4,465,[0.05134063],6,47,medium,plus,dotcolour,alfa,,,76,20,V,R,
514,10,10,12,4,36,44,517,['n'],1,right,['1'],6,171,[-0.06437043],100,44,hard,plus,dotcolour,alfa,,,76,20,V,R,
515,11,11,12,4,44,36,715,['n'],0,left,['8'],3,689,[-0.03025663],79,44,hard,plus,dotcolour,alfa,,,76,20,V,R,
516,12,12,12,4,33,47,499,['n'],1,right,['1'],6,194,[-0.09227859],100,47,medium,plus,dotcolour,alfa,,,76,20,V,R,
517,13,13,12,4,44,36,1466,['c'],1,left,['3'],4,433,[0.14189226],100,44,hard,plus,dotcolour,alfa,,,76,20,V,R,
518,14,14,12,4,36,44,697,['n'],1,right,['1'],6,293,[-0.09163492],100,44,hard,plus,dotcolour,alfa,,,76,20,V,R,
519,15,15,12,4,33,47,3131,['n'],1,right,['3'],4,781,[-0.13096755],100,47,medium,plus,dotcolour,alfa,,,76,20,V,R,
520,16,16,12,4,33,47,482,['n'],1,right,['1'],6,235,[-0.08636595],100,47,medium,plus,dotcolour,alfa,,,76,20,V,R,
521,17,17,12,4,53,27,932,['c'],1,left,['2'],5,461,[0.09053789],99,53,easy,plus,dotcolour,alfa,,,76,20,V,R,
522,18,18,12,4,33,47,649,['n'],1,right,['2'],5,234,[-0.07596009],100,47,medium,plus,dotcolour,alfa,,,76,20,V,R,
523,19,19,12,4,36,44,498,['n'],1,right,['2'],5,333,[0.0048596],42,44,hard,plus,dotcolour,alfa,,,76,20,V,R,
524,20,20,12,4,47,33,1282,['c'],1,left,['2'],5,221,[0.20320592],100,47,medium,plus,dotcolour,alfa,,,76,20,V,R,
525,21,21,12,4,36,44,532,['n'],1,right,['2'],5,201,[-0.06082722],99,44,hard,plus,dotcolour,alfa,,,76,20,V,R,
526,22,22,12,4,33,47,514,['n'],1,right,['1'],6,326,[-0.09299836],100,47,medium,plus,dotcolour,alfa,,,76,20,V,R,
527,23,23,12,4,33,47,1499,['c'],0,right,['3'],4,262,[0.14526658],100,47,medium,plus,dotcolour,alfa,,,76,20,V,R,
528,24,24,12,4,53,27,849,['c'],1,left,['1'],6,186,[0.11143507],100,53,easy,plus,dotcolour,alfa,,,76,20,V,R,
529,25,25,12,4,36,44,548,['n'],1,right,['1'],6,167,[-0.02862653],93,44,hard,plus,dotcolour,alfa,,,76,20,V,R,
530,26,26,12,4,44,36,1050,['c'],1,left,['2'],5,319,[0.11835964],100,44,hard,plus,dotcolour,alfa,,,76,20,V,R,
531,27,27,12,4,27,53,549,['n'],1,right,['1'],6,214,[-0.21280795],100,53,easy,plus,dotcolour,alfa,,,76,20,V,R,
532,28,28,12,4,47,33,1015,['c'],1,left,['3'],4,382,[0.09154015],100,47,medium,plus,dotcolour,alfa,,,76,20,V,R,
533,29,29,12,4,53,27,899,['c'],1,left,['2'],5,187,[0.08359469],100,53,easy,plus,dotcolour,alfa,,,76,20,V,R,
534,30,30,12,4,44,36,998,['n'],0,left,['3'],4,478,[-0.11399157],100,44,hard,plus,dotcolour,alfa,,,76,20,V,R,
535,31,31,12,4,27,53,533,['n'],1,right,['1'],6,222,[-0.01972112],82,53,easy,plus,dotcolour,alfa,,,76,20,V,R,
536,32,32,12,4,27,53,564,['n'],1,right,['1'],6,144,[-0.11761051],100,53,easy,plus,dotcolour,alfa,,,76,20,V,R,
537,33,33,12,4,27,53,499,['n'],1,right,['1'],6,119,[-0.09836023],100,53,easy,plus,dotcolour,alfa,,,76,20,V,R,
538,34,34,12,4,47,33,1617,['c'],1,left,['3'],4,835,[0.24062461],100,47,medium,plus,dotcolour,alfa,,,76,20,V,R,
539,35,35,12,4,36,44,498,['n'],1,right,['1'],6,159,[-0.04966529],99,44,hard,plus,dotcolour,alfa,,,76,20,V,R,
540,36,36,12,4,53,27,899,['c'],1,left,['1'],6,118,[0.08103001],100,53,easy,plus,dotcolour,alfa,,,76,20,V,R,
541,37,37,12,4,36,44,765,['n'],1,right,['2'],5,476,[-0.17264379],100,44,hard,plus,dotcolour,alfa,,,76,20,V,R,
542,38,38,12,4,44,36,914,['c'],1,left,['2'],5,301,[-0.00042893],49,44,hard,plus,dotcolour,alfa,,,76,20,V,R,
543,39,39,12,4,53,27,765,['c'],1,left,['2'],5,620,[0.13310522],100,53,easy,plus,dotcolour,alfa,,,76,20,V,R,
544,40,40,12,4,47,33,731,['c'],1,left,['2'],5,135,[0.05481465],100,47,medium,plus,dotcolour,alfa,,,76,20,V,R,
545,41,41,12,4,47,33,682,['c'],1,left,['2'],5,152,[0.07583075],100,47,medium,plus,dotcolour,alfa,,,76,20,V,R,
546,42,0,13,4,36,44,633,['n'],1,right,['2'],5,184,[-0.11142651],100,44,hard,plus,dotcolour,alfa,,,76,20,V,R,
547,43,1,13,4,33,47,797,['n'],1,right,['2'],5,290,[-0.05417249],97,47,medium,plus,dotcolour,alfa,,,76,20,V,R,
548,44,2,13,4,27,53,579,['n'],1,right,['1'],6,208,[-0.13865547],100,53,easy,plus,dotcolour,alfa,,,76,20,V,R,
549,45,3,13,4,27,53,482,['n'],1,right,['1'],6,101,[-0.09510916],100,53,easy,plus,dotcolour,alfa,,,76,20,V,R,
550,46,4,13,4,53,27,1082,['c'],1,left,['2'],5,815,[0.31772429],100,53,easy,plus,dotcolour,alfa,,,76,20,V,R,
551,47,5,13,4,47,33,732,['c'],1,left,['8'],3,1507,[0.2258696],100,47,medium,plus,dotcolour,alfa,,,76,20,V,R,
552,48,6,13,4,53,27,615,['n'],0,left,['9'],2,1095,[-0.0021683],52,53,easy,plus,dotcolour,alfa,,,76,20,V,R,
553,49,7,13,4,33,47,733,['n'],1,right,['1'],6,151,[-0.06227336],100,47,medium,plus,dotcolour,alfa,,,76,20,V,R,
554,50,8,13,4,53,27,866,['c'],1,left,['2'],5,248,[0.11057757],100,53,easy,plus,dotcolour,alfa,,,76,20,V,R,
555,51,9,13,4,36,44,1015,['n'],1,right,['3'],4,574,[-0.10955178],99,44,hard,plus,dotcolour,alfa,,,76,20,V,R,
556,52,10,13,4,27,53,497,['n'],1,right,['1'],6,244,[-0.13066347],100,53,easy,plus,dotcolour,alfa,,,76,20,V,R,
557,53,11,13,4,53,27,1048,['c'],1,left,['2'],5,441,[0.01095818],64,53,easy,plus,dotcolour,alfa,,,76,20,V,R,
558,54,12,13,4,53,27,732,['c'],1,left,['2'],5,387,[0.20559741],100,53,easy,plus,dotcolour,alfa,,,76,20,V,R,
559,55,13,13,4,33,47,748,['n'],1,right,['2'],5,272,[-0.11726039],100,47,medium,plus,dotcolour,alfa,,,76,20,V,R,
560,56,14,13,4,44,36,848,['c'],1,left,['2'],5,204,[0.12673588],100,44,hard,plus,dotcolour,alfa,,,76,20,V,R,
561,57,15,13,4,33,47,516,['n'],1,right,['2'],5,129,[-0.11413221],100,47,medium,plus,dotcolour,alfa,,,76,20,V,R,
562,58,16,13,4,47,33,865,['n'],0,left,['2'],5,298,[-0.0512957],97,47,medium,plus,dotcolour,alfa,,,76,20,V,R,
563,59,17,13,4,33,47,616,['n'],1,right,['2'],5,191,[-0.14281956],100,47,medium,plus,dotcolour,alfa,,,76,20,V,R,
564,60,18,13,4,44,36,832,['n'],0,left,['3'],4,727,[0.01114741],38,44,hard,plus,dotcolour,alfa,,,76,20,V,R,
565,61,19,13,4,33,47,580,['n'],1,right,['3'],4,187,[-0.09162734],100,47,medium,plus,dotcolour,alfa,,,76,20,V,R,
566,62,20,13,4,33,47,782,['n'],1,right,['2'],5,270,[-0.09729547],100,47,medium,plus,dotcolour,alfa,,,76,20,V,R,
567,63,21,13,4,36,44,580,['n'],1,right,['2'],5,173,[-0.05453896],99,44,hard,plus,dotcolour,alfa,,,76,20,V,R,
568,64,22,13,4,44,36,864,['n'],0,left,['3'],4,413,[0.00751501],40,44,hard,plus,dotcolour,alfa,,,76,20,V,R,
569,65,23,13,4,27,53,549,['n'],1,right,['1'],6,183,[0.00302906],44,53,easy,plus,dotcolour,alfa,,,76,20,V,R,
570,66,24,13,4,53,27,998,['c'],1,left,['1'],6,89,[0.09516728],100,53,easy,plus,dotcolour,alfa,,,76,20,V,R,
571,67,25,13,4,53,27,816,['c'],1,left,['2'],5,295,[0.05498177],97,53,easy,plus,dotcolour,alfa,,,76,20,V,R,
572,68,26,13,4,27,53,549,['n'],1,right,['1'],6,198,[-0.11311208],100,53,easy,plus,dotcolour,alfa,,,76,20,V,R,
573,69,27,13,4,44,36,1615,['c'],1,left,['3'],4,391,[0.14860741],100,44,hard,plus,dotcolour,alfa,,,76,20,V,R,
574,70,28,13,4,36,44,499,['n'],1,right,['1'],6,108,[-0.11561029],100,44,hard,plus,dotcolour,alfa,,,76,20,V,R,
575,71,29,13,4,47,33,1665,['c'],1,left,['3'],4,710,[0.2556389],100,47,medium,plus,dotcolour,alfa,,,76,20,V,R,
576,72,30,13,4,47,33,1415,['c'],1,left,['3'],4,370,[0.11710802],100,47,medium,plus,dotcolour,alfa,,,76,20,V,R,
577,73,31,13,4,36,44,547,['n'],1,right,['2'],5,159,[-0.11563045],100,44,hard,plus,dotcolour,alfa,,,76,20,V,R,
578,74,32,13,4,36,44,732,['n'],1,right,['2'],5,116,[-0.08739352],100,44,hard,plus,dotcolour,alfa,,,76,20,V,R,
579,75,33,13,4,44,36,850,['c'],1,left,['2'],5,318,[0.10754082],100,44,hard,plus,dotcolour,alfa,,,76,20,V,R,
580,76,34,13,4,36,44,566,['n'],1,right,['2'],5,124,[-0.08563656],100,44,hard,plus,dotcolour,alfa,,,76,20,V,R,
581,77,35,13,4,27,53,516,['n'],1,right,['1'],6,92,[-0.14999342],100,53,easy,plus,dotcolour,alfa,,,76,20,V,R,
582,78,36,13,4,47,33,1515,['c'],1,left,['2'],5,284,[0.08180855],100,47,medium,plus,dotcolour,alfa,,,76,20,V,R,
583,79,37,13,4,47,33,1099,['n'],0,left,['3'],4,374,[0.01367878],31,47,medium,plus,dotcolour,alfa,,,76,20,V,R,
584,80,38,13,4,47,33,1415,['c'],1,left,['3'],4,304,[0.0058074],59,47,medium,plus,dotcolour,alfa,,,76,20,V,R,
585,81,39,13,4,44,36,617,['n'],0,left,['3'],4,469,[-0.06937186],97,44,hard,plus,dotcolour,alfa,,,76,20,V,R,
586,82,40,13,4,44,36,749,['c'],1,left,['3'],4,173,[0.12082409],100,44,hard,plus,dotcolour,alfa,,,76,20,V,R,
587,83,41,13,4,27,53,567,['n'],1,right,['3'],4,120,[-0.15799921],100,53,easy,plus,dotcolour,alfa,,,76,20,V,R,
588,84,0,14,4,33,47,650,['n'],1,right,['2'],5,195,[-0.10961075],100,47,medium,plus,dotcolour,alfa,,,76,20,V,R,
589,85,1,14,4,33,47,465,['n'],1,right,['2'],5,162,[-0.09056458],100,47,medium,plus,dotcolour,alfa,,,76,20,V,R,
590,86,2,14,4,33,47,565,['n'],1,right,['2'],5,111,[-0.1014558],100,47,medium,plus,dotcolour,alfa,,,76,20,V,R,
591,87,3,14,4,36,44,498,['n'],1,right,['2'],5,110,[-0.05773933],100,44,hard,plus,dotcolour,alfa,,,76,20,V,R,
592,88,4,14,4,27,53,431,['n'],1,right,['1'],6,314,[-0.16088015],100,53,easy,plus,dotcolour,alfa,,,76,20,V,R,
593,89,5,14,4,44,36,934,['c'],1,left,['3'],4,641,[0.20125374],100,44,hard,plus,dotcolour,alfa,,,76,20,V,R,
594,90,6,14,4,33,47,516,['n'],1,right,['2'],5,220,[-0.0393865],95,47,medium,plus,dotcolour,alfa,,,76,20,V,R,
595,91,7,14,4,47,33,1148,['c'],1,left,['2'],5,206,[0.12247756],100,47,medium,plus,dotcolour,alfa,,,76,20,V,R,
596,92,8,14,4,44,36,983,['c'],1,left,['2'],5,272,[0.0993358],100,44,hard,plus,dotcolour,alfa,,,76,20,V,R,
597,93,9,14,4,33,47,648,['n'],1,right,['1'],6,148,[-0.11741405],100,47,medium,plus,dotcolour,alfa,,,76,20,V,R,
598,94,10,14,4,36,44,582,['n'],1,right,['1'],6,176,[-0.1361168],100,44,hard,plus,dotcolour,alfa,,,76,20,V,R,
599,95,11,14,4,47,33,1166,['n'],0,left,['3'],4,507,[0.06170183],4,47,medium,plus,dotcolour,alfa,,,76,20,V,R,
600,96,12,14,4,27,53,683,['n'],1,right,['1'],6,156,[-0.12788594],100,53,easy,plus,dotcolour,alfa,,,76,20,V,R,
601,97,13,14,4,44,36,1031,['c'],1,left,['2'],5,854,[0.1641228],100,44,hard,plus,dotcolour,alfa,,,76,20,V,R,
602,98,14,14,4,27,53,633,['n'],1,right,['1'],6,108,[-0.08046615],100,53,easy,plus,dotcolour,alfa,,,76,20,V,R,
603,99,15,14,4,27,53,499,['n'],1,right,['1'],6,101,[-0.05102019],100,53,easy,plus,dotcolour,alfa,,,76,20,V,R,
604,100,16,14,4,47,33,1232,['c'],1,left,['3'],4,208,[0.06860844],100,47,medium,plus,dotcolour,alfa,,,76,20,V,R,
605,101,17,14,4,27,53,531,['n'],1,right,['1'],6,148,[-0.10964773],100,53,easy,plus,dotcolour,alfa,,,76,20,V,R,
606,102,18,14,4,33,47,599,['n'],1,right,['1'],6,87,[-0.06483506],100,47,medium,plus,dotcolour,alfa,,,76,20,V,R,
607,103,19,14,4,27,53,398,['n'],1,right,['1'],6,125,[-0.09195083],100,53,easy,plus,dotcolour,alfa,,,76,20,V,R,
608,104,20,14,4,53,27,982,['c'],1,left,['2'],5,274,[0.13599127],100,53,easy,plus,dotcolour,alfa,,,76,20,V,R,
609,105,21,14,4,36,44,534,['n'],1,right,['1'],6,138,[-0.04869361],99,44,hard,plus,dotcolour,alfa,,,76,20,V,R,
610,106,22,14,4,53,27,900,['c'],1,left,['2'],5,242,[0.14904145],100,53,easy,plus,dotcolour,alfa,,,76,20,V,R,
611,107,23,14,4,53,27,782,['c'],1,left,['2'],5,146,[0.15370457],100,53,easy,plus,dotcolour,alfa,,,76,20,V,R,
612,108,24,14,4,36,44,616,['n'],1,right,['2'],5,405,[-0.18157625],100,44,hard,plus,dotcolour,alfa,,,76,20,V,R,
613,109,25,14,4,53,27,915,['c'],1,left,['2'],5,210,[0.15138459],100,53,easy,plus,dotcolour,alfa,,,76,20,V,R,
614,110,26,14,4,53,27,899,['c'],1,left,['2'],5,246,[0.08856007],100,53,easy,plus,dotcolour,alfa,,,76,20,V,R,
615,111,27,14,4,36,44,781,['n'],1,right,['1'],6,302,[-0.16091048],100,44,hard,plus,dotcolour,alfa,,,76,20,V,R,
616,112,28,14,4,44,36,731,['n'],0,left,['2'],5,318,[-0.07347093],99,44,hard,plus,dotcolour,alfa,,,76,20,V,R,
617,113,29,14,4,47,33,882,['n'],0,left,['3'],4,543,[-0.0644267],96,47,medium,plus,dotcolour,alfa,,,76,20,V,R,
618,114,30,14,4,27,53,565,['n'],1,right,['1'],6,123,[-0.08646393],100,53,easy,plus,dotcolour,alfa,,,76,20,V,R,
619,115,31,14,4,47,33,815,['c'],1,left,['2'],5,223,[0.05923061],99,47,medium,plus,dotcolour,alfa,,,76,20,V,R,
620,116,32,14,4,36,44,650,['n'],1,right,['1'],6,165,[-0.05304349],99,44,hard,plus,dotcolour,alfa,,,76,20,V,R,
621,117,33,14,4,33,47,698,['n'],1,right,['2'],5,228,[-0.09292961],100,47,medium,plus,dotcolour,alfa,,,76,20,V,R,
622,118,34,14,4,44,36,1448,['n'],0,left,['2'],5,738,[0.00019838],50,44,hard,plus,dotcolour,alfa,,,76,20,V,R,
623,119,35,14,4,36,44,916,['n'],1,right,['3'],4,968,[-0.22786631],100,44,hard,plus,dotcolour,alfa,,,76,20,V,R,
624,120,36,14,4,53,27,1816,['c'],1,left,['2'],5,138,[0.07581444],100,53,easy,plus,dotcolour,alfa,,,76,20,V,R,
625,121,37,14,4,44,36,1298,['c'],1,left,['3'],4,466,[0.09815235],99,44,hard,plus,dotcolour,alfa,,,76,20,V,R,
626,122,38,14,4,53,27,863,['c'],1,left,['3'],4,189,[0.09440703],100,53,easy,plus,dotcolour,alfa,,,76,20,V,R,
627,123,39,14,4,44,36,850,['n'],0,left,['3'],4,325,[0.05480819],3,44,hard,plus,dotcolour,alfa,,,76,20,V,R,
628,124,40,14,4,47,33,1816,['n'],0,left,['3'],4,233,[-0.08600773],100,47,medium,plus,dotcolour,alfa,,,76,20,V,R,
629,125,41,14,4,47,33,914,['c'],1,left,['2'],5,268,[0.01975192],80,47,medium,plus,dotcolour,alfa,,,76,20,V,R,
630,0,0,15,5,53,27,766,['c'],1,left,['2'],5,296,[0.10771697],86,53,easy,minus,dotcolour,alfa,,,76,20,V,R,
631,1,1,15,5,36,44,732,['n'],1,right,['2'],5,160,[-0.10903004],92,44,hard,minus,dotcolour,alfa,,,76,20,V,R,
632,2,2,15,5,47,33,699,['n'],0,left,['9'],2,942,[0.02125064],45,47,medium,minus,dotcolour,alfa,,,76,20,V,R,
633,3,3,15,5,27,53,848,['n'],1,right,['1'],6,168,[-0.08993141],88,53,easy,minus,dotcolour,alfa,,,76,20,V,R,
634,4,4,15,5,44,36,1830,['n'],0,left,['3'],4,241,[-0.03905231],67,44,hard,minus,dotcolour,alfa,,,76,20,V,R,
635,5,5,15,5,33,47,832,['n'],1,right,['1'],6,119,[-0.10115405],93,47,medium,minus,dotcolour,alfa,,,76,20,V,R,
636,6,6,15,5,53,27,1047,['c'],1,left,['2'],5,281,[0.11360102],87,53,easy,minus,dotcolour,alfa,,,76,20,V,R,
637,7,7,15,5,36,44,582,['n'],1,right,['2'],5,176,[-0.09883967],89,44,hard,minus,dotcolour,alfa,,,76,20,V,R,
638,8,8,15,5,44,36,515,['n'],0,left,['2'],5,374,[-0.04390073],66,44,hard,minus,dotcolour,alfa,,,76,20,V,R,
639,9,9,15,5,47,33,1465,['c'],1,left,['3'],4,189,[0.16735689],97,47,medium,minus,dotcolour,alfa,,,76,20,V,R,
640,10,10,15,5,33,47,849,['n'],1,right,['2'],5,165,[-0.02310249],63,47,medium,minus,dotcolour,alfa,,,76,20,V,R,
641,11,11,15,5,36,44,780,['n'],1,right,['3'],4,649,[-0.12346176],80,44,hard,minus,dotcolour,alfa,,,76,20,V,R,
642,12,12,15,5,33,47,532,['n'],1,right,['2'],5,162,[-0.06322986],80,47,medium,minus,dotcolour,alfa,,,76,20,V,R,
643,13,13,15,5,47,33,866,['c'],1,left,['2'],5,202,[0.04461891],71,47,medium,minus,dotcolour,alfa,,,76,20,V,R,
644,14,14,15,5,36,44,448,['n'],1,right,['3'],4,394,[-0.1185809],85,44,hard,minus,dotcolour,alfa,,,76,20,V,R,
645,15,15,15,5,33,47,533,['n'],1,right,['2'],5,166,[-0.0987139],90,47,medium,minus,dotcolour,alfa,,,76,20,V,R,
646,16,16,15,5,47,33,1049,['c'],1,left,['3'],4,359,[0.10251358],82,47,medium,minus,dotcolour,alfa,,,76,20,V,R,
647,17,17,15,5,47,33,766,['c'],1,left,['2'],5,218,[0.02130163],60,47,medium,minus,dotcolour,alfa,,,76,20,V,R,
648,18,18,15,5,36,44,815,['n'],1,right,['2'],5,202,[-0.02430713],62,44,hard,minus,dotcolour,alfa,,,76,20,V,R,
649,19,19,15,5,44,36,1049,['c'],1,left,['8'],3,770,[-0.02603581],43,44,hard,minus,dotcolour,alfa,,,76,20,V,R,
650,20,20,15,5,47,33,966,['c'],1,left,['3'],4,261,[0.05412963],72,47,medium,minus,dotcolour,alfa,,,76,20,V,R,
651,21,21,15,5,33,47,849,['n'],1,right,['2'],5,386,[-0.10129101],81,47,medium,minus,dotcolour,alfa,,,76,20,V,R,
652,22,22,15,5,27,53,499,['n'],1,right,['1'],6,272,[-0.16770312],95,53,easy,minus,dotcolour,alfa,,,76,20,V,R,
653,23,23,15,5,44,36,898,['c'],1,left,['2'],5,218,[0.12246673],91,44,hard,minus,dotcolour,alfa,,,76,20,V,R,
654,24,24,15,5,53,27,850,['c'],1,left,['2'],5,112,[0.102191],94,53,easy,minus,dotcolour,alfa,,,76,20,V,R,
655,25,25,15,5,36,44,601,['n'],1,right,['2'],5,125,[-0.09862072],92,44,hard,minus,dotcolour,alfa,,,76,20,V,R,
656,26,26,15,5,27,53,466,['n'],1,right,['1'],6,278,[-0.11998048],89,53,easy,minus,dotcolour,alfa,,,76,20,V,R,
657,27,27,15,5,53,27,948,['c'],1,left,['1'],6,230,[0.01945269],59,53,easy,minus,dotcolour,alfa,,,76,20,V,R,
658,28,28,15,5,44,36,682,['n'],0,left,['2'],5,243,[-0.0838924],82,44,hard,minus,dotcolour,alfa,,,76,20,V,R,
659,29,29,15,5,44,36,864,['n'],0,left,['2'],5,191,[-0.01718189],59,44,hard,minus,dotcolour,alfa,,,76,20,V,R,
660,30,30,15,5,47,33,515,['n'],0,left,['2'],5,148,[-0.10334968],92,47,medium,minus,dotcolour,alfa,,,76,20,V,R,
661,31,31,15,5,27,53,516,['n'],1,right,['2'],5,91,[-0.07335837],90,53,easy,minus,dotcolour,alfa,,,76,20,V,R,
662,32,32,15,5,44,36,1099,['c'],1,left,['2'],5,173,[0.10111976],90,44,hard,minus,dotcolour,alfa,,,76,20,V,R,
663,33,33,15,5,27,53,514,['n'],1,right,['1'],6,123,[-0.09569517],92,53,easy,minus,dotcolour,alfa,,,76,20,V,R,
664,34,34,15,5,33,47,432,['n'],1,right,['1'],6,142,[-0.09072928],90,47,medium,minus,dotcolour,alfa,,,76,20,V,R,
665,35,35,15,5,33,47,481,['n'],1,right,['1'],6,118,[-0.11867439],96,47,medium,minus,dotcolour,alfa,,,76,20,V,R,
666,36,36,15,5,27,53,582,['n'],1,right,['1'],6,108,[-0.11885366],96,53,easy,minus,dotcolour,alfa,,,76,20,V,R,
667,37,37,15,5,53,27,447,['n'],0,left,['9'],2,958,[0.27932078],7,53,easy,minus,dotcolour,alfa,,,76,20,V,R,
668,38,38,15,5,27,53,599,['n'],1,right,['1'],6,145,[-0.09920044],91,53,easy,minus,dotcolour,alfa,,,76,20,V,R,
669,39,39,15,5,53,27,932,['c'],1,left,['2'],5,167,[0.14750311],96,53,easy,minus,dotcolour,alfa,,,76,20,V,R,
670,40,40,15,5,36,44,499,['n'],1,right,['1'],6,189,[-0.07115167],81,44,hard,minus,dotcolour,alfa,,,76,20,V,R,
671,41,41,15,5,53,27,732,['c'],1,left,['1'],6,210,[0.11794524],91,53,easy,minus,dotcolour,alfa,,,76,20,V,R,
672,42,0,16,5,33,47,667,['n'],1,right,['2'],5,271,[-0.14738638],93,47,medium,minus,dotcolour,alfa,,,76,20,V,R,
673,43,1,16,5,47,33,733,['n'],0,left,['3'],4,583,[0.13084171],18,47,medium,minus,dotcolour,alfa,,,76,20,V,R,
674,44,2,16,5,47,33,6200,['c'],1,left,['3'],4,864,[0.21185694],89,47,medium,minus,dotcolour,alfa,,,76,20,V,R,
675,45,3,16,5,44,36,1865,['c'],1,left,['2'],5,300,[0.09633465],83,44,hard,minus,dotcolour,alfa,,,76,20,V,R,
676,46,4,16,5,47,33,1430,['c'],1,left,['2'],5,208,[0.08736762],85,47,medium,minus,dotcolour,alfa,,,76,20,V,R,
677,47,5,16,5,44,36,1466,['n'],0,left,['3'],4,806,[0.11168514],25,44,hard,minus,dotcolour,alfa,,,76,20,V,R,
678,48,6,16,5,47,33,998,['c'],1,left,['2'],5,199,[0.08579038],85,47,medium,minus,dotcolour,alfa,,,76,20,V,R,
679,49,7,16,5,36,44,498,['n'],1,right,['2'],5,172,[-0.14969667],96,44,hard,minus,dotcolour,alfa,,,76,20,V,R,
680,50,8,16,5,47,33,682,['n'],0,left,['2'],5,243,[-0.08767307],83,47,medium,minus,dotcolour,alfa,,,76,20,V,R,
681,51,9,16,5,33,47,399,['n'],1,right,['2'],5,130,[-0.07611112],87,47,medium,minus,dotcolour,alfa,,,76,20,V,R,
682,52,10,16,5,27,53,432,['n'],1,right,['1'],6,109,[-0.07470533],88,53,easy,minus,dotcolour,alfa,,,76,20,V,R,
683,53,11,16,5,36,44,432,['n'],1,right,['1'],6,120,[-0.06565016],85,44,hard,minus,dotcolour,alfa,,,76,20,V,R,
684,54,12,16,5,36,44,483,['n'],1,right,['1'],6,129,[-0.12119426],95,44,hard,minus,dotcolour,alfa,,,76,20,V,R,
685,55,13,16,5,47,33,367,['n'],0,left,['9'],2,751,[-0.0124161],53,47,medium,minus,dotcolour,alfa,,,76,20,V,R,
686,56,14,16,5,27,53,466,['n'],1,right,['1'],6,159,[-0.18773858],99,53,easy,minus,dotcolour,alfa,,,76,20,V,R,
687,57,15,16,5,44,36,1566,['n'],0,left,['2'],5,331,[0.15386427],8,44,hard,minus,dotcolour,alfa,,,76,20,V,R,
688,58,16,16,5,27,53,633,['n'],1,right,['1'],6,141,[-0.09343311],90,53,easy,minus,dotcolour,alfa,,,76,20,V,R,
689,59,17,16,5,53,27,917,['c'],1,left,['1'],6,164,[0.00864528],55,53,easy,minus,dotcolour,alfa,,,76,20,V,R,
690,60,18,16,5,44,36,783,['n'],0,left,['1'],6,135,[-0.05401641],79,44,hard,minus,dotcolour,alfa,,,76,20,V,R,
691,61,19,16,5,33,47,565,['n'],1,right,['1'],6,141,[-0.09318134],90,47,medium,minus,dotcolour,alfa,,,76,20,V,R,
692,62,20,16,5,44,36,932,['c'],1,left,['2'],5,211,[0.02088421],60,44,hard,minus,dotcolour,alfa,,,76,20,V,R,
693,63,21,16,5,44,36,648,['n'],0,left,['1'],6,106,[-0.06910399],87,44,hard,minus,dotcolour,alfa,,,76,20,V,R,
694,64,22,16,5,36,44,500,['n'],1,right,['2'],5,219,[-0.07682792],81,44,hard,minus,dotcolour,alfa,,,76,20,V,R,
695,65,23,16,5,36,44,730,['n'],1,right,['2'],5,126,[-0.12649446],96,44,hard,minus,dotcolour,alfa,,,76,20,V,R,
696,66,24,16,5,33,47,550,['n'],1,right,['2'],5,148,[-0.09970962],91,47,medium,minus,dotcolour,alfa,,,76,20,V,R,
697,67,25,16,5,53,27,799,['c'],1,left,['2'],5,135,[0.09015626],90,53,easy,minus,dotcolour,alfa,,,76,20,V,R,
698,68,26,16,5,36,44,517,['n'],1,right,['1'],6,95,[-0.14128444],98,44,hard,minus,dotcolour,alfa,,,76,20,V,R,
699,69,27,16,5,27,53,432,['n'],1,right,['1'],6,99,[-0.06883063],88,53,easy,minus,dotcolour,alfa,,,76,20,V,R,
700,70,28,16,5,27,53,466,['n'],1,right,['1'],6,118,[-0.08093943],89,53,easy,minus,dotcolour,alfa,,,76,20,V,R,
701,71,29,16,5,53,27,1116,['c'],1,left,['2'],5,133,[0.10698118],93,53,easy,minus,dotcolour,alfa,,,76,20,V,R,
702,72,30,16,5,44,36,1000,['n'],0,left,['3'],4,257,[-0.19073713],97,44,hard,minus,dotcolour,alfa,,,76,20,V,R,
703,73,31,16,5,33,47,548,['n'],1,right,['1'],6,130,[-0.12167913],95,47,medium,minus,dotcolour,alfa,,,76,20,V,R,
704,74,32,16,5,27,53,416,['n'],1,right,['1'],6,149,[-0.02188621],62,53,easy,minus,dotcolour,alfa,,,76,20,V,R,
705,75,33,16,5,53,27,982,['c'],1,left,['2'],5,146,[0.02693418],65,53,easy,minus,dotcolour,alfa,,,76,20,V,R,
706,76,34,16,5,47,33,816,['n'],0,left,['3'],4,564,[-0.02928759],59,47,medium,minus,dotcolour,alfa,,,76,20,V,R,
707,77,35,16,5,36,44,599,['n'],1,right,['1'],6,103,[-0.08990676],93,44,hard,minus,dotcolour,alfa,,,76,20,V,R,
708,78,36,16,5,53,27,648,['c'],1,left,['1'],6,113,[0.13091726],97,53,easy,minus,dotcolour,alfa,,,76,20,V,R,
709,79,37,16,5,53,27,815,['c'],1,left,['2'],5,213,[0.09308466],86,53,easy,minus,dotcolour,alfa,,,76,20,V,R,
710,80,38,16,5,33,47,665,['n'],1,right,['1'],6,131,[-0.11861179],95,47,medium,minus,dotcolour,alfa,,,76,20,V,R,
711,81,39,16,5,33,47,482,['n'],1,right,['1'],6,156,[-0.11662353],93,47,medium,minus,dotcolour,alfa,,,76,20,V,R,
712,82,40,16,5,53,27,948,['c'],1,left,['2'],5,130,[0.1363547],97,53,easy,minus,dotcolour,alfa,,,76,20,V,R,
713,83,41,16,5,27,53,515,['n'],1,right,['1'],6,81,[-0.02800706],71,53,easy,minus,dotcolour,alfa,,,76,20,V,R,
714,84,0,17,5,53,27,933,['c'],1,left,['2'],5,136,[0.09335012],91,53,easy,minus,dotcolour,alfa,,,76,20,V,R,
715,85,1,17,5,47,33,449,['n'],0,left,['9'],2,985,[0.12291379],25,47,medium,minus,dotcolour,alfa,,,76,20,V,R,
716,86,2,17,5,47,33,1016,['n'],0,left,['2'],5,186,[-0.11474674],92,47,medium,minus,dotcolour,alfa,,,76,20,V,R,
717,87,3,17,5,36,44,532,['n'],1,right,['2'],5,175,[-0.07859246],84,44,hard,minus,dotcolour,alfa,,,76,20,V,R,
718,88,4,17,5,53,27,1099,['c'],1,left,['2'],5,133,[0.13353414],96,53,easy,minus,dotcolour,alfa,,,76,20,V,R,
719,89,5,17,5,27,53,498,['n'],1,right,['1'],6,149,[-0.02390279],64,53,easy,minus,dotcolour,alfa,,,76,20,V,R,
720,90,6,17,5,33,47,514,['n'],1,right,['1'],6,139,[-0.06742629],84,47,medium,minus,dotcolour,alfa,,,76,20,V,R,
721,91,7,17,5,47,33,965,['c'],1,left,['2'],5,105,[0.08894094],92,47,medium,minus,dotcolour,alfa,,,76,20,V,R,
722,92,8,17,5,44,36,732,['n'],0,left,['2'],5,257,[-0.08672823],82,44,hard,minus,dotcolour,alfa,,,76,20,V,R,
723,93,9,17,5,44,36,948,['c'],1,left,['3'],4,201,[0.06887043],80,44,hard,minus,dotcolour,alfa,,,76,20,V,R,
724,94,10,17,5,53,27,833,['c'],1,left,['2'],5,129,[0.09457565],91,53,easy,minus,dotcolour,alfa,,,76,20,V,R,
725,95,11,17,5,53,27,950,['c'],1,left,['1'],6,423,[0.11563846],83,53,easy,minus,dotcolour,alfa,,,76,20,V,R,
726,96,12,17,5,27,53,731,['n'],1,right,['1'],6,154,[-0.05825105],79,53,easy,minus,dotcolour,alfa,,,76,20,V,R,
727,97,13,17,5,44,36,748,['c'],1,left,['2'],5,143,[0.02397761],64,44,hard,minus,dotcolour,alfa,,,76,20,V,R,
728,98,14,17,5,36,44,665,['n'],1,right,['1'],6,160,[-0.05275602],77,44,hard,minus,dotcolour,alfa,,,76,20,V,R,
729,99,15,17,5,33,47,633,['n'],1,right,['1'],6,129,[-0.11319966],94,47,medium,minus,dotcolour,alfa,,,76,20,V,R,
730,100,16,17,5,33,47,732,['n'],1,right,['2'],5,232,[-0.07752431],81,47,medium,minus,dotcolour,alfa,,,76,20,V,R,
731,101,17,17,5,27,53,515,['n'],1,right,['2'],5,163,[-0.13320012],95,53,easy,minus,dotcolour,alfa,,,76,20,V,R,
732,102,18,17,5,44,36,1015,['c'],1,left,['2'],5,101,[0.13565684],98,44,hard,minus,dotcolour,alfa,,,76,20,V,R,
733,103,19,17,5,44,36,550,['n'],0,left,['3'],4,821,[-0.03223832],58,44,hard,minus,dotcolour,alfa,,,76,20,V,R,
734,104,20,17,5,36,44,530,['n'],1,right,['1'],6,183,[-0.10028012],89,44,hard,minus,dotcolour,alfa,,,76,20,V,R,
735,105,21,17,5,53,27,782,['c'],1,left,['2'],5,147,[0.07960897],87,53,easy,minus,dotcolour,alfa,,,76,20,V,R,
736,106,22,17,5,27,53,1099,['n'],1,right,['2'],5,185,[-0.04341795],71,53,easy,minus,dotcolour,alfa,,,76,20,V,R,
737,107,23,17,5,44,36,899,['c'],1,left,['2'],5,175,[0.11345462],92,44,hard,minus,dotcolour,alfa,,,76,20,V,R,
738,108,24,17,5,47,33,1382,['c'],1,left,['0'],1,746,[0.22545868],91,47,medium,minus,dotcolour,alfa,,,76,20,V,R,
739,109,25,17,5,53,27,2830,['c'],1,left,['3'],4,372,[0.06409422],72,53,easy,minus,dotcolour,alfa,,,76,20,V,R,
740,110,26,17,5,27,53,616,['n'],1,right,['1'],6,101,[-0.12549408],97,53,easy,minus,dotcolour,alfa,,,76,20,V,R,
741,111,27,17,5,47,33,833,['n'],0,left,['3'],4,441,[-0.01652982],56,47,medium,minus,dotcolour,alfa,,,76,20,V,R,
742,112,28,17,5,33,47,499,['n'],1,right,['2'],5,245,[-0.10811263],88,47,medium,minus,dotcolour,alfa,,,76,20,V,R,
743,113,29,17,5,44,36,932,['c'],1,left,['2'],5,206,[0.13298845],93,44,hard,minus,dotcolour,alfa,,,76,20,V,R,
744,114,30,17,5,47,33,1099,['c'],1,left,['3'],4,188,[0.12226457],93,47,medium,minus,dotcolour,alfa,,,76,20,V,R,
745,115,31,17,5,36,44,548,['n'],1,right,['2'],5,208,[-0.06566786],79,44,hard,minus,dotcolour,alfa,,,76,20,V,R,
746,116,32,17,5,36,44,1782,['n'],1,right,['1'],6,257,[-0.13339059],91,44,hard,minus,dotcolour,alfa,,,76,20,V,R,
747,117,33,17,5,47,33,1033,['c'],1,left,['2'],5,174,[0.1256516],94,47,medium,minus,dotcolour,alfa,,,76,20,V,R,
748,118,34,17,5,33,47,614,['n'],1,right,['1'],6,176,[-0.05445527],76,47,medium,minus,dotcolour,alfa,,,76,20,V,R,
749,119,35,17,5,33,47,483,['n'],1,right,['1'],6,206,[-0.1339218],93,47,medium,minus,dotcolour,alfa,,,76,20,V,R,
750,120,36,17,5,27,53,448,['n'],1,right,['1'],6,173,[-0.05430488],76,53,easy,minus,dotcolour,alfa,,,76,20,V,R,
751,121,37,17,5,27,53,449,['n'],1,right,['1'],6,157,[-0.06158552],80,53,easy,minus,dotcolour,alfa,,,76,20,V,R,
752,122,38,17,5,36,44,448,['n'],1,right,['1'],6,167,[-0.08309298],86,44,hard,minus,dotcolour,alfa,,,76,20,V,R,
753,123,39,17,5,53,27,849,['c'],1,left,['1'],6,135,[0.1197389],95,53,easy,minus,dotcolour,alfa,,,76,20,V,R,
754,124,40,17,5,36,44,448,['n'],1,right,['1'],6,225,[-0.09115938],85,44,hard,minus,dotcolour,alfa,,,76,20,V,R,
755,125,41,17,5,33,47,449,['n'],1,right,['1'],6,151,[-0.15661364],97,47,medium,minus,dotcolour,alfa,,,76,20,V,R,
,,,,,,,,,,,,,,,,,,,,,1,de feedback klopte precies niet altijd,76,20,V,R,
,,,,,,,,,,,,,,,,,,,,,2,['f'],76,20,V,R,
,,,,,,,,,,,,,,,,,,,,,3,['f'],76,20,V,R,
,,,,,,,,,,,,,,,,,,,,,5,['5'],76,20,V,R,
