trial,withinphasetrial,withinblocktrial,block,phase,dotsLeft,dotsRight,rt,resp,cor,cresp,conf_press,cj,RTconf,ev,fb,diff,difflevel,condition,task,manip,questionID,questionResp,sub,age,gender,handedness,
0,0,0,0,0,53,27,2784,['n'],0,left,['3'],4,7712,[1.36697857],1,53,easy,minus,dotcolour,alfa,,,101,18,V,L,
1,1,1,0,0,27,53,1366,['n'],1,right,['2'],5,1948,[-0.37166714],92,53,easy,minus,dotcolour,alfa,,,101,18,V,L,
2,2,2,0,0,27,53,1334,['n'],1,right,['1'],6,1521,[-0.24868672],86,53,easy,minus,dotcolour,alfa,,,101,18,V,L,
3,3,3,0,0,44,36,1816,['c'],1,left,['8'],3,941,[0.25089576],91,44,hard,minus,dotcolour,alfa,,,101,18,V,L,
4,4,4,0,0,33,47,1149,['n'],1,right,['3'],4,1986,[-0.27995732],86,47,medium,minus,dotcolour,alfa,,,101,18,V,L,
5,5,5,0,0,44,36,951,['c'],1,left,['3'],4,1029,[0.0939213],70,44,hard,minus,dotcolour,alfa,,,101,18,V,L,
6,6,6,0,0,47,33,1016,['c'],1,left,['2'],5,2796,[0.0902252],62,47,medium,minus,dotcolour,alfa,,,101,18,V,L,
7,7,7,0,0,27,53,1167,['n'],1,right,['3'],4,2806,[-0.43650952],91,53,easy,minus,dotcolour,alfa,,,101,18,V,L,
8,8,8,0,0,27,53,784,['n'],1,right,['3'],4,870,[-0.26337721],93,53,easy,minus,dotcolour,alfa,,,101,18,V,L,
9,9,9,0,0,53,27,967,['c'],1,left,['3'],4,678,[0.15675231],85,53,easy,minus,dotcolour,alfa,,,101,18,V,L,
10,10,10,0,0,47,33,951,['c'],1,left,['8'],3,1110,[0.18773936],83,47,medium,minus,dotcolour,alfa,,,101,18,V,L,
11,11,11,0,0,33,47,901,['n'],1,right,['8'],3,703,[-0.0618761],66,47,medium,minus,dotcolour,alfa,,,101,18,V,L,
12,12,12,0,0,44,36,800,['c'],1,left,['3'],4,579,[0.02913172],59,44,hard,minus,dotcolour,alfa,,,101,18,V,L,
13,13,13,0,0,36,44,1049,['n'],1,right,['3'],4,1139,[-0.11261325],72,44,hard,minus,dotcolour,alfa,,,101,18,V,L,
14,14,14,0,0,33,47,1368,['c'],0,right,['8'],3,711,[-0.01347847],46,47,medium,minus,dotcolour,alfa,,,101,18,V,L,
15,15,15,0,0,44,36,717,['c'],1,left,['2'],5,847,[0.01999005],55,44,hard,minus,dotcolour,alfa,,,101,18,V,L,
16,16,16,0,0,47,33,801,['c'],1,left,['2'],5,831,[0.39900157],98,47,medium,minus,dotcolour,alfa,,,101,18,V,L,
17,17,17,0,0,36,44,1484,['c'],0,right,['8'],3,859,[0.01459957],54,44,hard,minus,dotcolour,alfa,,,101,18,V,L,
18,18,18,0,0,47,33,584,['c'],1,left,['2'],5,1363,[0.28512145],90,47,medium,minus,dotcolour,alfa,,,101,18,V,L,
19,19,19,0,0,53,27,684,['c'],1,left,['3'],4,658,[0.0743916],70,53,easy,minus,dotcolour,alfa,,,101,18,V,L,
20,20,20,0,0,47,33,934,['c'],1,left,['3'],4,307,[0.16935199],94,47,medium,minus,dotcolour,alfa,,,101,18,V,L,
21,21,21,0,0,36,44,951,['n'],1,right,['3'],4,386,[-0.14523186],89,44,hard,minus,dotcolour,alfa,,,101,18,V,L,
22,22,22,0,0,44,36,734,['c'],1,left,['3'],4,287,[0.12442463],89,44,hard,minus,dotcolour,alfa,,,101,18,V,L,
23,23,23,0,0,33,47,884,['n'],1,right,['3'],4,329,[-0.1462147],91,47,medium,minus,dotcolour,alfa,,,101,18,V,L,
24,24,24,0,0,47,33,684,['c'],1,left,['3'],4,298,[0.15156504],92,47,medium,minus,dotcolour,alfa,,,101,18,V,L,
25,25,25,0,0,47,33,867,['c'],1,left,['2'],5,508,[0.18278604],91,47,medium,minus,dotcolour,alfa,,,101,18,V,L,
26,26,26,0,0,36,44,817,['n'],1,right,['8'],3,800,[-0.20843934],89,44,hard,minus,dotcolour,alfa,,,101,18,V,L,
27,27,27,0,0,44,36,667,['c'],1,left,['3'],4,399,[0.13968065],88,44,hard,minus,dotcolour,alfa,,,101,18,V,L,
28,28,28,0,0,27,53,917,['n'],1,right,['3'],4,364,[-0.11296417],84,53,easy,minus,dotcolour,alfa,,,101,18,V,L,
29,29,29,0,0,27,53,750,['n'],1,right,['2'],5,705,[-0.08369009],71,53,easy,minus,dotcolour,alfa,,,101,18,V,L,
30,30,30,0,0,33,47,1250,['n'],1,right,['8'],3,675,[-0.19766827],90,47,medium,minus,dotcolour,alfa,,,101,18,V,L,
31,31,31,0,0,53,27,567,['c'],1,left,['3'],4,402,[0.08486728],77,53,easy,minus,dotcolour,alfa,,,101,18,V,L,
32,32,32,0,0,33,47,617,['n'],1,right,['3'],4,571,[-0.15873733],87,47,medium,minus,dotcolour,alfa,,,101,18,V,L,
33,33,33,0,0,36,44,851,['n'],1,right,['3'],4,427,[-0.09964631],80,44,hard,minus,dotcolour,alfa,,,101,18,V,L,
34,34,34,0,0,27,53,651,['n'],1,right,['3'],4,289,[-0.10188778],85,53,easy,minus,dotcolour,alfa,,,101,18,V,L,
35,35,35,0,0,53,27,1351,['c'],1,left,['3'],4,377,[0.18174243],93,53,easy,minus,dotcolour,alfa,,,101,18,V,L,
36,36,36,0,0,44,36,717,['n'],0,left,['2'],5,478,[0.02384689],42,44,hard,minus,dotcolour,alfa,,,101,18,V,L,
37,37,37,0,0,33,47,550,['n'],1,right,['2'],5,662,[-0.09533499],74,47,medium,minus,dotcolour,alfa,,,101,18,V,L,
38,38,38,0,0,36,44,667,['n'],1,right,['1'],6,434,[-0.00545529],52,44,hard,minus,dotcolour,alfa,,,101,18,V,L,
39,39,39,0,0,53,27,734,['c'],1,left,['1'],6,677,[0.30219579],96,53,easy,minus,dotcolour,alfa,,,101,18,V,L,
40,40,40,0,0,53,27,1034,['c'],1,left,['1'],6,385,[0.20811751],95,53,easy,minus,dotcolour,alfa,,,101,18,V,L,
41,41,41,0,0,36,44,700,['n'],1,right,['2'],5,503,[-0.12308579],83,44,hard,minus,dotcolour,alfa,,,101,18,V,L,
42,42,0,1,0,47,33,1150,['c'],1,left,['2'],5,677,[0.12080377],79,47,medium,minus,dotcolour,alfa,,,101,18,V,L,
43,43,1,1,0,36,44,717,['c'],0,right,['2'],5,390,[-0.0056846],48,44,hard,minus,dotcolour,alfa,,,101,18,V,L,
44,44,2,1,0,44,36,933,['c'],1,left,['3'],4,347,[0.12544545],87,44,hard,minus,dotcolour,alfa,,,101,18,V,L,
45,45,3,1,0,36,44,717,['n'],1,right,['3'],4,833,[-0.1102064],75,44,hard,minus,dotcolour,alfa,,,101,18,V,L,
46,46,4,1,0,44,36,767,['c'],1,left,['8'],3,627,[0.09205935],74,44,hard,minus,dotcolour,alfa,,,101,18,V,L,
47,47,5,1,0,47,33,734,['c'],1,left,['8'],3,469,[0.11658934],82,47,medium,minus,dotcolour,alfa,,,101,18,V,L,
48,48,6,1,0,27,53,817,['n'],1,right,['2'],5,507,[-0.20417438],93,53,easy,minus,dotcolour,alfa,,,101,18,V,L,
49,49,7,1,0,44,36,684,['c'],1,left,['2'],5,525,[0.07294863],71,44,hard,minus,dotcolour,alfa,,,101,18,V,L,
50,50,8,1,0,53,27,750,['c'],1,left,['2'],5,339,[0.15263665],91,53,easy,minus,dotcolour,alfa,,,101,18,V,L,
51,51,9,1,0,36,44,650,['n'],1,right,['2'],5,372,[-0.19406012],95,44,hard,minus,dotcolour,alfa,,,101,18,V,L,
52,52,10,1,0,27,53,616,['n'],1,right,['2'],5,309,[-0.11003557],86,53,easy,minus,dotcolour,alfa,,,101,18,V,L,
53,53,11,1,0,36,44,451,['n'],1,right,['2'],5,352,[-0.05760238],71,44,hard,minus,dotcolour,alfa,,,101,18,V,L,
54,54,12,1,0,47,33,566,['c'],1,left,['2'],5,389,[0.11778366],85,47,medium,minus,dotcolour,alfa,,,101,18,V,L,
55,55,13,1,0,47,33,801,['c'],1,left,['8'],3,782,[0.21253456],90,47,medium,minus,dotcolour,alfa,,,101,18,V,L,
56,56,14,1,0,53,27,417,['n'],0,left,['0'],1,1263,[0.0598265],38,53,easy,minus,dotcolour,alfa,,,101,18,V,L,
57,57,15,1,0,33,47,2534,['c'],0,right,['9'],2,1057,[0.11316498],73,47,medium,minus,dotcolour,alfa,,,101,18,V,L,
58,58,16,1,0,53,27,833,['c'],1,left,['2'],5,566,[0.10543736],78,53,easy,minus,dotcolour,alfa,,,101,18,V,L,
59,59,17,1,0,27,53,500,['n'],1,right,['3'],4,421,[0.00434061],48,53,easy,minus,dotcolour,alfa,,,101,18,V,L,
60,60,18,1,0,36,44,1267,['n'],1,right,['3'],4,587,[-0.09664056],76,44,hard,minus,dotcolour,alfa,,,101,18,V,L,
61,61,19,1,0,33,47,500,['n'],1,right,['2'],5,423,[0.03357122],39,47,medium,minus,dotcolour,alfa,,,101,18,V,L,
62,62,20,1,0,33,47,800,['n'],1,right,['8'],3,528,[-0.08264171],74,47,medium,minus,dotcolour,alfa,,,101,18,V,L,
63,63,21,1,0,44,36,700,['n'],0,left,['3'],4,416,[-0.09458675],79,44,hard,minus,dotcolour,alfa,,,101,18,V,L,
64,64,22,1,0,53,27,800,['c'],1,left,['2'],5,440,[0.18604893],93,53,easy,minus,dotcolour,alfa,,,101,18,V,L,
65,65,23,1,0,44,36,900,['c'],1,left,['3'],4,668,[0.07157719],69,44,hard,minus,dotcolour,alfa,,,101,18,V,L,
66,66,24,1,0,36,44,1116,['n'],1,right,['8'],3,310,[-0.10194538],84,44,hard,minus,dotcolour,alfa,,,101,18,V,L,
67,67,25,1,0,27,53,783,['n'],1,right,['3'],4,451,[-0.12855772],85,53,easy,minus,dotcolour,alfa,,,101,18,V,L,
68,68,26,1,0,33,47,466,['n'],1,right,['2'],5,376,[-0.17798359],93,47,medium,minus,dotcolour,alfa,,,101,18,V,L,
69,69,27,1,0,47,33,950,['c'],1,left,['2'],5,332,[-0.03116721],38,47,medium,minus,dotcolour,alfa,,,101,18,V,L,
70,70,28,1,0,44,36,1017,['n'],0,left,['3'],4,431,[0.01108026],46,44,hard,minus,dotcolour,alfa,,,101,18,V,L,
71,71,29,1,0,27,53,668,['n'],1,right,['3'],4,389,[-0.17091095],92,53,easy,minus,dotcolour,alfa,,,101,18,V,L,
72,72,30,1,0,53,27,616,['c'],1,left,['3'],4,349,[0.16433082],92,53,easy,minus,dotcolour,alfa,,,101,18,V,L,
73,73,31,1,0,53,27,666,['c'],1,left,['2'],5,502,[0.1314852],84,53,easy,minus,dotcolour,alfa,,,101,18,V,L,
74,74,32,1,0,33,47,600,['n'],1,right,['2'],5,587,[-0.04024594],62,47,medium,minus,dotcolour,alfa,,,101,18,V,L,
75,75,33,1,0,27,53,650,['n'],1,right,['2'],5,363,[-0.1008195],82,53,easy,minus,dotcolour,alfa,,,101,18,V,L,
76,76,34,1,0,27,53,717,['n'],1,right,['2'],5,329,[-0.2455973],98,53,easy,minus,dotcolour,alfa,,,101,18,V,L,
77,77,35,1,0,44,36,735,['n'],0,left,['3'],4,351,[0.07643786],24,44,hard,minus,dotcolour,alfa,,,101,18,V,L,
78,78,36,1,0,33,47,649,['n'],1,right,['3'],4,433,[-0.14447904],88,47,medium,minus,dotcolour,alfa,,,101,18,V,L,
79,79,37,1,0,36,44,550,['n'],1,right,['3'],4,363,[-0.11224151],84,44,hard,minus,dotcolour,alfa,,,101,18,V,L,
80,80,38,1,0,47,33,701,['c'],1,left,['2'],5,434,[0.17487131],92,47,medium,minus,dotcolour,alfa,,,101,18,V,L,
81,81,39,1,0,33,47,534,['n'],1,right,['3'],4,420,[-0.0538761],68,47,medium,minus,dotcolour,alfa,,,101,18,V,L,
82,82,40,1,0,47,33,1500,['c'],1,left,['2'],5,425,[0.13071353],86,47,medium,minus,dotcolour,alfa,,,101,18,V,L,
83,83,41,1,0,53,27,768,['c'],1,left,['3'],4,330,[0.1040016],84,53,easy,minus,dotcolour,alfa,,,101,18,V,L,
84,84,0,2,0,33,47,834,['n'],1,right,['3'],4,350,[-0.13917384],89,47,medium,minus,dotcolour,alfa,,,101,18,V,L,
85,85,1,2,0,47,33,684,['c'],1,left,['3'],4,382,[0.10248727],82,47,medium,minus,dotcolour,alfa,,,101,18,V,L,
86,86,2,2,0,47,33,817,['c'],1,left,['3'],4,311,[0.10865494],85,47,medium,minus,dotcolour,alfa,,,101,18,V,L,
87,87,3,2,0,27,53,684,['n'],1,right,['2'],5,457,[-0.06520568],70,53,easy,minus,dotcolour,alfa,,,101,18,V,L,
88,88,4,2,0,27,53,734,['n'],1,right,['2'],5,298,[-0.21822397],97,53,easy,minus,dotcolour,alfa,,,101,18,V,L,
89,89,5,2,0,27,53,484,['n'],1,right,['2'],5,300,[-0.04559109],68,53,easy,minus,dotcolour,alfa,,,101,18,V,L,
90,90,6,2,0,33,47,1734,['c'],0,right,['3'],4,428,[0.07328649],73,47,medium,minus,dotcolour,alfa,,,101,18,V,L,
91,91,7,2,0,36,44,600,['n'],1,right,['2'],5,428,[-0.07069752],73,44,hard,minus,dotcolour,alfa,,,101,18,V,L,
92,92,8,2,0,33,47,667,['n'],1,right,['1'],6,361,[-0.03832853],64,47,medium,minus,dotcolour,alfa,,,101,18,V,L,
93,93,9,2,0,44,36,684,['c'],1,left,['2'],5,536,[0.16631635],89,44,hard,minus,dotcolour,alfa,,,101,18,V,L,
94,94,10,2,0,53,27,651,['c'],1,left,['1'],6,466,[0.0159671],55,53,easy,minus,dotcolour,alfa,,,101,18,V,L,
95,95,11,2,0,36,44,584,['n'],1,right,['2'],5,345,[-0.14939558],91,44,hard,minus,dotcolour,alfa,,,101,18,V,L,
96,96,12,2,0,27,53,484,['n'],1,right,['2'],5,313,[-0.19250309],96,53,easy,minus,dotcolour,alfa,,,101,18,V,L,
97,97,13,2,0,44,36,967,['c'],1,left,['1'],6,496,[-0.02374969],42,44,hard,minus,dotcolour,alfa,,,101,18,V,L,
98,98,14,2,0,33,47,568,['n'],1,right,['2'],5,278,[-0.0570118],73,47,medium,minus,dotcolour,alfa,,,101,18,V,L,
99,99,15,2,0,53,27,833,['c'],1,left,['1'],6,243,[0.06273898],76,53,easy,minus,dotcolour,alfa,,,101,18,V,L,
100,100,16,2,0,53,27,618,['c'],1,left,['1'],6,313,[0.16243646],93,53,easy,minus,dotcolour,alfa,,,101,18,V,L,
101,101,17,2,0,36,44,633,['n'],1,right,['1'],6,293,[-0.06201589],74,44,hard,minus,dotcolour,alfa,,,101,18,V,L,
102,102,18,2,0,27,53,484,['n'],1,right,['1'],6,431,[-0.18105374],92,53,easy,minus,dotcolour,alfa,,,101,18,V,L,
103,103,19,2,0,47,33,767,['c'],1,left,['1'],6,288,[0.1580061],93,47,medium,minus,dotcolour,alfa,,,101,18,V,L,
104,104,20,2,0,36,44,568,['n'],1,right,['1'],6,247,[-0.07483143],79,44,hard,minus,dotcolour,alfa,,,101,18,V,L,
105,105,21,2,0,44,36,1501,['c'],1,left,['1'],6,434,[-0.04341987],36,44,hard,minus,dotcolour,alfa,,,101,18,V,L,
106,106,22,2,0,53,27,984,['c'],1,left,['2'],5,1043,[0.32014689],94,53,easy,minus,dotcolour,alfa,,,101,18,V,L,
107,107,23,2,0,53,27,867,['c'],1,left,['3'],4,255,[0.10120451],86,53,easy,minus,dotcolour,alfa,,,101,18,V,L,
108,108,24,2,0,53,27,666,['c'],1,left,['2'],5,516,[0.21916963],94,53,easy,minus,dotcolour,alfa,,,101,18,V,L,
109,109,25,2,0,33,47,650,['n'],1,right,['2'],5,311,[-0.19410223],96,47,medium,minus,dotcolour,alfa,,,101,18,V,L,
110,110,26,2,0,33,47,483,['n'],1,right,['2'],5,248,[-0.12758909],91,47,medium,minus,dotcolour,alfa,,,101,18,V,L,
111,111,27,2,0,44,36,600,['n'],0,left,['2'],5,271,[-0.04856153],70,44,hard,minus,dotcolour,alfa,,,101,18,V,L,
112,112,28,2,0,27,53,633,['n'],1,right,['2'],5,317,[-0.10526505],84,53,easy,minus,dotcolour,alfa,,,101,18,V,L,
113,113,29,2,0,44,36,784,['n'],0,left,['2'],5,282,[-0.10329943],85,44,hard,minus,dotcolour,alfa,,,101,18,V,L,
114,114,30,2,0,36,44,500,['n'],1,right,['2'],5,324,[-0.03442628],63,44,hard,minus,dotcolour,alfa,,,101,18,V,L,
115,115,31,2,0,47,33,783,['c'],1,left,['3'],4,889,[0.07151008],66,47,medium,minus,dotcolour,alfa,,,101,18,V,L,
116,116,32,2,0,53,27,882,['c'],1,left,['2'],5,323,[0.03650131],64,53,easy,minus,dotcolour,alfa,,,101,18,V,L,
117,117,33,2,0,33,47,567,['n'],1,right,['3'],4,608,[-0.15437238],86,47,medium,minus,dotcolour,alfa,,,101,18,V,L,
118,118,34,2,0,36,44,651,['n'],1,right,['2'],5,367,[-0.1372423],88,44,hard,minus,dotcolour,alfa,,,101,18,V,L,
119,119,35,2,0,47,33,717,['c'],1,left,['2'],5,421,[0.17195582],92,47,medium,minus,dotcolour,alfa,,,101,18,V,L,
120,120,36,2,0,47,33,817,['c'],1,left,['3'],4,485,[0.31923027],98,47,medium,minus,dotcolour,alfa,,,101,18,V,L,
121,121,37,2,0,44,36,483,['c'],1,left,['8'],3,535,[-0.01944968],44,44,hard,minus,dotcolour,alfa,,,101,18,V,L,
122,122,38,2,0,44,36,734,['c'],1,left,['8'],3,326,[0.16373361],93,44,hard,minus,dotcolour,alfa,,,101,18,V,L,
123,123,39,2,0,36,44,1050,['c'],0,right,['8'],3,808,[0.1216902],77,44,hard,minus,dotcolour,alfa,,,101,18,V,L,
124,124,40,2,0,47,33,600,['n'],0,left,['9'],2,1408,[-0.00932296],52,47,medium,minus,dotcolour,alfa,,,101,18,V,L,
125,125,41,2,0,27,53,1050,['n'],1,right,['3'],4,263,[-0.11382192],88,53,easy,minus,dotcolour,alfa,,,101,18,V,L,
126,0,0,3,1,44,36,934,['c'],1,left,['2'],5,375,[0.11161272],100,44,hard,plus,dotcolour,alfa,,,101,18,V,L,
127,1,1,3,1,44,36,1033,['c'],1,left,['3'],4,576,[0.18778681],100,44,hard,plus,dotcolour,alfa,,,101,18,V,L,
128,2,2,3,1,44,36,1333,['n'],0,left,['8'],3,244,[-0.12121966],100,44,hard,plus,dotcolour,alfa,,,101,18,V,L,
129,3,3,3,1,47,33,684,['n'],0,left,['8'],3,233,[-0.08662154],100,47,medium,plus,dotcolour,alfa,,,101,18,V,L,
130,4,4,3,1,44,36,784,['c'],1,left,['3'],4,905,[0.25426481],100,44,hard,plus,dotcolour,alfa,,,101,18,V,L,
131,5,5,3,1,33,47,833,['c'],0,right,['3'],4,420,[-0.09711548],0,47,medium,plus,dotcolour,alfa,,,101,18,V,L,
132,6,6,3,1,44,36,2267,['n'],0,left,['3'],4,1490,[0.16984909],1,44,hard,plus,dotcolour,alfa,,,101,18,V,L,
133,7,7,3,1,36,44,1400,['n'],1,right,['3'],4,383,[-0.02500585],81,44,hard,plus,dotcolour,alfa,,,101,18,V,L,
134,8,8,3,1,53,27,950,['c'],1,left,['2'],5,1307,[0.19645503],100,53,easy,plus,dotcolour,alfa,,,101,18,V,L,
135,9,9,3,1,53,27,767,['c'],1,left,['2'],5,673,[0.1838072],100,53,easy,plus,dotcolour,alfa,,,101,18,V,L,
136,10,10,3,1,44,36,1367,['n'],0,left,['3'],4,265,[-0.03209854],90,44,hard,plus,dotcolour,alfa,,,101,18,V,L,
137,11,11,3,1,53,27,884,['c'],1,left,['3'],4,492,[0.06255542],96,53,easy,plus,dotcolour,alfa,,,101,18,V,L,
138,12,12,3,1,27,53,601,['c'],0,right,['0'],1,2849,[-0.29959619],0,53,easy,plus,dotcolour,alfa,,,101,18,V,L,
139,13,13,3,1,36,44,949,['n'],1,right,['3'],4,274,[0.00683885],38,44,hard,plus,dotcolour,alfa,,,101,18,V,L,
140,14,14,3,1,27,53,800,['n'],1,right,['3'],4,232,[-0.14787357],100,53,easy,plus,dotcolour,alfa,,,101,18,V,L,
141,15,15,3,1,53,27,983,['n'],0,left,['3'],4,337,[-0.14996494],100,53,easy,plus,dotcolour,alfa,,,101,18,V,L,
142,16,16,3,1,27,53,701,['n'],1,right,['3'],4,281,[-0.0492264],97,53,easy,plus,dotcolour,alfa,,,101,18,V,L,
143,17,17,3,1,47,33,1517,['n'],0,left,['3'],4,363,[-0.06394828],98,47,medium,plus,dotcolour,alfa,,,101,18,V,L,
144,18,18,3,1,47,33,667,['c'],1,left,['3'],4,290,[0.15856195],100,47,medium,plus,dotcolour,alfa,,,101,18,V,L,
145,19,19,3,1,47,33,750,['n'],0,left,['8'],3,434,[-0.02893667],83,47,medium,plus,dotcolour,alfa,,,101,18,V,L,
146,20,20,3,1,44,36,616,['c'],1,left,['8'],3,409,[0.08178912],99,44,hard,plus,dotcolour,alfa,,,101,18,V,L,
147,21,21,3,1,47,33,933,['c'],1,left,['1'],6,437,[0.03588034],88,47,medium,plus,dotcolour,alfa,,,101,18,V,L,
148,22,22,3,1,33,47,784,['n'],1,right,['2'],5,653,[-0.18114112],100,47,medium,plus,dotcolour,alfa,,,101,18,V,L,
149,23,23,3,1,47,33,600,['c'],1,left,['3'],4,403,[0.10931644],100,47,medium,plus,dotcolour,alfa,,,101,18,V,L,
150,24,24,3,1,36,44,516,['n'],1,right,['3'],4,520,[-0.13740152],100,44,hard,plus,dotcolour,alfa,,,101,18,V,L,
151,25,25,3,1,27,53,717,['n'],1,right,['2'],5,447,[-0.0895573],99,53,easy,plus,dotcolour,alfa,,,101,18,V,L,
152,26,26,3,1,33,47,700,['n'],1,right,['2'],5,515,[-0.12310608],100,47,medium,plus,dotcolour,alfa,,,101,18,V,L,
153,27,27,3,1,36,44,517,['n'],1,right,['3'],4,434,[-0.05224948],95,44,hard,plus,dotcolour,alfa,,,101,18,V,L,
154,28,28,3,1,53,27,517,['c'],1,left,['3'],4,526,[0.14189462],100,53,easy,plus,dotcolour,alfa,,,101,18,V,L,
155,29,29,3,1,36,44,584,['n'],1,right,['3'],4,315,[-0.10046524],100,44,hard,plus,dotcolour,alfa,,,101,18,V,L,
156,30,30,3,1,33,47,417,['n'],1,right,['3'],4,327,[-0.19551999],100,47,medium,plus,dotcolour,alfa,,,101,18,V,L,
157,31,31,3,1,47,33,700,['n'],0,left,['8'],3,647,[-0.07771262],97,47,medium,plus,dotcolour,alfa,,,101,18,V,L,
158,32,32,3,1,27,53,634,['n'],1,right,['3'],4,333,[-0.15968385],100,53,easy,plus,dotcolour,alfa,,,101,18,V,L,
159,33,33,3,1,27,53,467,['n'],1,right,['3'],4,294,[-0.0312917],89,53,easy,plus,dotcolour,alfa,,,101,18,V,L,
160,34,34,3,1,33,47,699,['n'],1,right,['2'],5,271,[-0.08737696],100,47,medium,plus,dotcolour,alfa,,,101,18,V,L,
161,35,35,3,1,36,44,783,['n'],1,right,['3'],4,271,[-0.22967744],100,44,hard,plus,dotcolour,alfa,,,101,18,V,L,
162,36,36,3,1,53,27,1034,['c'],1,left,['3'],4,356,[0.31516128],100,53,easy,plus,dotcolour,alfa,,,101,18,V,L,
163,37,37,3,1,27,53,584,['n'],1,right,['3'],4,327,[-0.18300373],100,53,easy,plus,dotcolour,alfa,,,101,18,V,L,
164,38,38,3,1,33,47,583,['n'],1,right,['2'],5,324,[-0.12621922],100,47,medium,plus,dotcolour,alfa,,,101,18,V,L,
165,39,39,3,1,33,47,484,['n'],1,right,['2'],5,284,[-0.18977963],100,47,medium,plus,dotcolour,alfa,,,101,18,V,L,
166,40,40,3,1,36,44,450,['n'],1,right,['2'],5,384,[-0.08321522],99,44,hard,plus,dotcolour,alfa,,,101,18,V,L,
167,41,41,3,1,53,27,800,['c'],1,left,['3'],4,282,[0.12047197],100,53,easy,plus,dotcolour,alfa,,,101,18,V,L,
168,42,0,4,1,33,47,567,['n'],1,right,['3'],4,398,[-0.15455182],100,47,medium,plus,dotcolour,alfa,,,101,18,V,L,
169,43,1,4,1,36,44,517,['n'],1,right,['3'],4,218,[-0.07508111],100,44,hard,plus,dotcolour,alfa,,,101,18,V,L,
170,44,2,4,1,33,47,466,['n'],1,right,['3'],4,248,[-0.21301345],100,47,medium,plus,dotcolour,alfa,,,101,18,V,L,
171,45,3,4,1,44,36,516,['n'],0,left,['8'],3,491,[-0.16069766],100,44,hard,plus,dotcolour,alfa,,,101,18,V,L,
172,46,4,4,1,53,27,533,['c'],1,left,['3'],4,307,[0.02108939],80,53,easy,plus,dotcolour,alfa,,,101,18,V,L,
173,47,5,4,1,36,44,583,['n'],1,right,['3'],4,272,[-0.10813449],100,44,hard,plus,dotcolour,alfa,,,101,18,V,L,
174,48,6,4,1,36,44,583,['n'],1,right,['3'],4,286,[-0.0533384],97,44,hard,plus,dotcolour,alfa,,,101,18,V,L,
175,49,7,4,1,53,27,467,['n'],0,left,['8'],3,594,[0.13464714],0,53,easy,plus,dotcolour,alfa,,,101,18,V,L,
176,50,8,4,1,47,33,601,['c'],1,left,['3'],4,395,[0.0312036],86,47,medium,plus,dotcolour,alfa,,,101,18,V,L,
177,51,9,4,1,53,27,550,['c'],1,left,['3'],4,303,[0.05881073],98,53,easy,plus,dotcolour,alfa,,,101,18,V,L,
178,52,10,4,1,44,36,1184,['c'],1,left,['2'],5,461,[0.23274615],100,44,hard,plus,dotcolour,alfa,,,101,18,V,L,
179,53,11,4,1,53,27,566,['c'],1,left,['2'],5,309,[0.09445352],100,53,easy,plus,dotcolour,alfa,,,101,18,V,L,
180,54,12,4,1,44,36,617,['c'],1,left,['8'],3,305,[0.20039867],100,44,hard,plus,dotcolour,alfa,,,101,18,V,L,
181,55,13,4,1,47,33,784,['c'],1,left,['3'],4,470,[-0.01697009],29,47,medium,plus,dotcolour,alfa,,,101,18,V,L,
182,56,14,4,1,33,47,917,['n'],1,right,['2'],5,592,[-0.04720801],90,47,medium,plus,dotcolour,alfa,,,101,18,V,L,
183,57,15,4,1,27,53,500,['n'],1,right,['3'],4,493,[0.03212288],16,53,easy,plus,dotcolour,alfa,,,101,18,V,L,
184,58,16,4,1,27,53,667,['n'],1,right,['3'],4,368,[-0.14358594],100,53,easy,plus,dotcolour,alfa,,,101,18,V,L,
185,59,17,4,1,36,44,484,['n'],1,right,['2'],5,551,[-0.05061868],92,44,hard,plus,dotcolour,alfa,,,101,18,V,L,
186,60,18,4,1,33,47,1367,['n'],1,right,['2'],5,1012,[-0.16517678],100,47,medium,plus,dotcolour,alfa,,,101,18,V,L,
187,61,19,4,1,53,27,1950,['c'],1,left,['1'],6,334,[0.07019876],99,53,easy,plus,dotcolour,alfa,,,101,18,V,L,
188,62,20,4,1,44,36,1067,['n'],0,left,['8'],3,1400,[0.03768784],24,44,hard,plus,dotcolour,alfa,,,101,18,V,L,
189,63,21,4,1,47,33,1133,['c'],1,left,['2'],5,459,[0.13601098],100,47,medium,plus,dotcolour,alfa,,,101,18,V,L,
190,64,22,4,1,44,36,967,['n'],0,left,['8'],3,651,[-0.07444541],97,44,hard,plus,dotcolour,alfa,,,101,18,V,L,
191,65,23,4,1,27,53,950,['n'],1,right,['3'],4,677,[-0.14587939],100,53,easy,plus,dotcolour,alfa,,,101,18,V,L,
192,66,24,4,1,44,36,1050,['n'],0,left,['9'],2,1585,[0.22161064],0,44,hard,plus,dotcolour,alfa,,,101,18,V,L,
193,67,25,4,1,33,47,784,['n'],1,right,['3'],4,539,[-0.22709718],100,47,medium,plus,dotcolour,alfa,,,101,18,V,L,
194,68,26,4,1,27,53,1300,['n'],1,right,['8'],3,1018,[-0.28096751],100,53,easy,plus,dotcolour,alfa,,,101,18,V,L,
195,69,27,4,1,47,33,1533,['c'],1,left,['3'],4,501,[0.06717027],97,47,medium,plus,dotcolour,alfa,,,101,18,V,L,
196,70,28,4,1,27,53,683,['n'],1,right,['2'],5,487,[-0.14031192],100,53,easy,plus,dotcolour,alfa,,,101,18,V,L,
197,71,29,4,1,47,33,417,['n'],0,left,['0'],1,1627,[0.10945963],4,47,medium,plus,dotcolour,alfa,,,101,18,V,L,
198,72,30,4,1,27,53,817,['n'],1,right,['2'],5,451,[-0.17411465],100,53,easy,plus,dotcolour,alfa,,,101,18,V,L,
199,73,31,4,1,33,47,616,['n'],1,right,['2'],5,345,[-0.06777013],98,47,medium,plus,dotcolour,alfa,,,101,18,V,L,
200,74,32,4,1,47,33,934,['n'],0,left,['3'],4,319,[-0.0213211],80,47,medium,plus,dotcolour,alfa,,,101,18,V,L,
201,75,33,4,1,36,44,617,['n'],1,right,['3'],4,316,[-0.08793467],100,44,hard,plus,dotcolour,alfa,,,101,18,V,L,
202,76,34,4,1,33,47,484,['n'],1,right,['3'],4,421,[-0.06366497],97,47,medium,plus,dotcolour,alfa,,,101,18,V,L,
203,77,35,4,1,27,53,451,['n'],1,right,['3'],4,571,[-0.22627668],100,53,easy,plus,dotcolour,alfa,,,101,18,V,L,
204,78,36,4,1,53,27,567,['c'],1,left,['2'],5,446,[0.00826291],61,53,easy,plus,dotcolour,alfa,,,101,18,V,L,
205,79,37,4,1,47,33,400,['c'],1,left,['2'],5,630,[0.14200325],100,47,medium,plus,dotcolour,alfa,,,101,18,V,L,
206,80,38,4,1,36,44,566,['n'],1,right,['3'],4,503,[-0.07951257],98,44,hard,plus,dotcolour,alfa,,,101,18,V,L,
207,81,39,4,1,44,36,617,['n'],0,left,['0'],1,1459,[-0.13150959],98,44,hard,plus,dotcolour,alfa,,,101,18,V,L,
208,82,40,4,1,36,44,817,['n'],1,right,['3'],4,417,[-0.03928257],90,44,hard,plus,dotcolour,alfa,,,101,18,V,L,
209,83,41,4,1,53,27,500,['c'],1,left,['2'],5,358,[0.19489091],100,53,easy,plus,dotcolour,alfa,,,101,18,V,L,
210,84,0,5,1,47,33,1050,['c'],1,left,['2'],5,355,[0.03264897],88,47,medium,plus,dotcolour,alfa,,,101,18,V,L,
211,85,1,5,1,44,36,634,['c'],1,left,['2'],5,316,[0.07994285],99,44,hard,plus,dotcolour,alfa,,,101,18,V,L,
212,86,2,5,1,44,36,616,['c'],1,left,['3'],4,392,[0.08283829],99,44,hard,plus,dotcolour,alfa,,,101,18,V,L,
213,87,3,5,1,36,44,1200,['c'],0,right,['8'],3,489,[0.02455947],78,44,hard,plus,dotcolour,alfa,,,101,18,V,L,
214,88,4,5,1,33,47,500,['n'],1,right,['2'],5,395,[-0.16343691],100,47,medium,plus,dotcolour,alfa,,,101,18,V,L,
215,89,5,5,1,47,33,483,['n'],0,left,['9'],2,1033,[0.11556323],2,47,medium,plus,dotcolour,alfa,,,101,18,V,L,
216,90,6,5,1,36,44,1266,['c'],0,right,['8'],3,1326,[-0.12188636],2,44,hard,plus,dotcolour,alfa,,,101,18,V,L,
217,91,7,5,1,44,36,1084,['c'],1,left,['3'],4,654,[0.17356804],100,44,hard,plus,dotcolour,alfa,,,101,18,V,L,
218,92,8,5,1,44,36,1067,['c'],1,left,['3'],4,387,[-0.00551882],42,44,hard,plus,dotcolour,alfa,,,101,18,V,L,
219,93,9,5,1,53,27,600,['c'],1,left,['3'],4,803,[0.22223647],100,53,easy,plus,dotcolour,alfa,,,101,18,V,L,
220,94,10,5,1,27,53,701,['n'],1,right,['2'],5,344,[-0.21203472],100,53,easy,plus,dotcolour,alfa,,,101,18,V,L,
221,95,11,5,1,27,53,700,['n'],1,right,['3'],4,384,[-0.26280371],100,53,easy,plus,dotcolour,alfa,,,101,18,V,L,
222,96,12,5,1,36,44,551,['n'],1,right,['3'],4,339,[-0.02564442],83,44,hard,plus,dotcolour,alfa,,,101,18,V,L,
223,97,13,5,1,27,53,584,['n'],1,right,['2'],5,512,[-0.01807738],71,53,easy,plus,dotcolour,alfa,,,101,18,V,L,
224,98,14,5,1,33,47,601,['n'],1,right,['3'],4,348,[-0.1860302],100,47,medium,plus,dotcolour,alfa,,,101,18,V,L,
225,99,15,5,1,36,44,750,['n'],1,right,['3'],4,354,[-0.05965546],97,44,hard,plus,dotcolour,alfa,,,101,18,V,L,
226,100,16,5,1,33,47,1949,['c'],0,right,['3'],4,455,[-0.04986403],7,47,medium,plus,dotcolour,alfa,,,101,18,V,L,
227,101,17,5,1,53,27,634,['n'],0,left,['3'],4,492,[0.02141238],25,53,easy,plus,dotcolour,alfa,,,101,18,V,L,
228,102,18,5,1,53,27,900,['c'],1,left,['3'],4,422,[0.09787912],100,53,easy,plus,dotcolour,alfa,,,101,18,V,L,
229,103,19,5,1,53,27,833,['c'],1,left,['2'],5,388,[0.17479425],100,53,easy,plus,dotcolour,alfa,,,101,18,V,L,
230,104,20,5,1,27,53,616,['n'],1,right,['3'],4,325,[-0.10349813],100,53,easy,plus,dotcolour,alfa,,,101,18,V,L,
231,105,21,5,1,47,33,667,['n'],0,left,['9'],2,1055,[-0.10074951],97,47,medium,plus,dotcolour,alfa,,,101,18,V,L,
232,106,22,5,1,36,44,718,['c'],0,right,['9'],2,1353,[-0.12692476],2,44,hard,plus,dotcolour,alfa,,,101,18,V,L,
233,107,23,5,1,53,27,734,['c'],1,left,['3'],4,655,[0.2594579],100,53,easy,plus,dotcolour,alfa,,,101,18,V,L,
234,108,24,5,1,27,53,584,['n'],1,right,['3'],4,333,[-0.14361602],100,53,easy,plus,dotcolour,alfa,,,101,18,V,L,
235,109,25,5,1,33,47,600,['n'],1,right,['3'],4,281,[-0.04610564],96,47,medium,plus,dotcolour,alfa,,,101,18,V,L,
236,110,26,5,1,36,44,2200,['n'],1,right,['3'],4,688,[-0.09041689],98,44,hard,plus,dotcolour,alfa,,,101,18,V,L,
237,111,27,5,1,53,27,583,['c'],1,left,['2'],5,413,[0.12737667],100,53,easy,plus,dotcolour,alfa,,,101,18,V,L,
238,112,28,5,1,53,27,500,['c'],1,left,['2'],5,314,[0.21841674],100,53,easy,plus,dotcolour,alfa,,,101,18,V,L,
239,113,29,5,1,47,33,450,['c'],1,left,['2'],5,341,[0.08179243],99,47,medium,plus,dotcolour,alfa,,,101,18,V,L,
240,114,30,5,1,36,44,484,['n'],1,right,['3'],4,333,[-0.06648976],98,44,hard,plus,dotcolour,alfa,,,101,18,V,L,
241,115,31,5,1,27,53,433,['n'],1,right,['3'],4,304,[-0.14143689],100,53,easy,plus,dotcolour,alfa,,,101,18,V,L,
242,116,32,5,1,33,47,517,['n'],1,right,['3'],4,320,[-0.19717802],100,47,medium,plus,dotcolour,alfa,,,101,18,V,L,
243,117,33,5,1,33,47,467,['n'],1,right,['3'],4,490,[-0.16078637],100,47,medium,plus,dotcolour,alfa,,,101,18,V,L,
244,118,34,5,1,47,33,817,['c'],1,left,['2'],5,607,[0.13582819],100,47,medium,plus,dotcolour,alfa,,,101,18,V,L,
245,119,35,5,1,27,53,467,['n'],1,right,['3'],4,253,[-0.1479917],100,53,easy,plus,dotcolour,alfa,,,101,18,V,L,
246,120,36,5,1,33,47,400,['n'],1,right,['3'],4,260,[0.01627055],24,47,medium,plus,dotcolour,alfa,,,101,18,V,L,
247,121,37,5,1,47,33,600,['c'],1,left,['2'],5,323,[0.005933],59,47,medium,plus,dotcolour,alfa,,,101,18,V,L,
248,122,38,5,1,44,36,433,['c'],1,left,['2'],5,286,[0.03588469],92,44,hard,plus,dotcolour,alfa,,,101,18,V,L,
249,123,39,5,1,47,33,534,['c'],1,left,['3'],4,279,[-0.00963566],34,47,medium,plus,dotcolour,alfa,,,101,18,V,L,
250,124,40,5,1,44,36,1117,['c'],1,left,['8'],3,320,[0.1031338],100,44,hard,plus,dotcolour,alfa,,,101,18,V,L,
251,125,41,5,1,44,36,683,['n'],0,left,['3'],4,321,[-0.10832315],100,44,hard,plus,dotcolour,alfa,,,101,18,V,L,
252,0,0,6,2,44,36,718,['n'],0,left,['3'],4,189,[-0.0471],73,44,hard,minus,dotcolour,alfa,,,101,18,V,L,
253,1,1,6,2,36,44,717,['n'],1,right,['8'],3,307,[-0.17667803],95,44,hard,minus,dotcolour,alfa,,,101,18,V,L,
254,2,2,6,2,36,44,951,['c'],0,right,['3'],4,641,[-0.1627515],14,44,hard,minus,dotcolour,alfa,,,101,18,V,L,
255,3,3,6,2,47,33,917,['n'],0,left,['9'],2,916,[0.05957743],36,47,medium,minus,dotcolour,alfa,,,101,18,V,L,
256,4,4,6,2,53,27,634,['n'],0,left,['9'],2,799,[-0.08861634],71,53,easy,minus,dotcolour,alfa,,,101,18,V,L,
257,5,5,6,2,33,47,550,['n'],1,right,['3'],4,267,[-0.1405946],92,47,medium,minus,dotcolour,alfa,,,101,18,V,L,
258,6,6,6,2,33,47,517,['n'],1,right,['3'],4,293,[-0.06869977],76,47,medium,minus,dotcolour,alfa,,,101,18,V,L,
259,7,7,6,2,47,33,650,['c'],1,left,['3'],4,232,[0.17629303],96,47,medium,minus,dotcolour,alfa,,,101,18,V,L,
260,8,8,6,2,53,27,434,['c'],1,left,['2'],5,311,[0.07069734],76,53,easy,minus,dotcolour,alfa,,,101,18,V,L,
261,9,9,6,2,53,27,484,['c'],1,left,['3'],4,512,[0.08800564],75,53,easy,minus,dotcolour,alfa,,,101,18,V,L,
262,10,10,6,2,44,36,467,['c'],1,left,['2'],5,362,[0.09783848],81,44,hard,minus,dotcolour,alfa,,,101,18,V,L,
263,11,11,6,2,33,47,467,['c'],0,right,['9'],2,1114,[-0.03591153],42,47,medium,minus,dotcolour,alfa,,,101,18,V,L,
264,12,12,6,2,47,33,800,['c'],1,left,['3'],4,230,[0.02189434],60,47,medium,minus,dotcolour,alfa,,,101,18,V,L,
265,13,13,6,2,27,53,567,['n'],1,right,['3'],4,256,[-0.12447147],90,53,easy,minus,dotcolour,alfa,,,101,18,V,L,
266,14,14,6,2,33,47,550,['n'],1,right,['3'],4,320,[-0.15339477],92,47,medium,minus,dotcolour,alfa,,,101,18,V,L,
267,15,15,6,2,33,47,583,['n'],1,right,['3'],4,277,[-0.14441274],92,47,medium,minus,dotcolour,alfa,,,101,18,V,L,
268,16,16,6,2,33,47,550,['n'],1,right,['3'],4,293,[-0.14469079],92,47,medium,minus,dotcolour,alfa,,,101,18,V,L,
269,17,17,6,2,47,33,883,['c'],1,left,['3'],4,231,[0.04239852],69,47,medium,minus,dotcolour,alfa,,,101,18,V,L,
270,18,18,6,2,44,36,666,['c'],1,left,['8'],3,629,[0.0763761],70,44,hard,minus,dotcolour,alfa,,,101,18,V,L,
271,19,19,6,2,36,44,634,['n'],1,right,['3'],4,307,[-0.10289613],84,44,hard,minus,dotcolour,alfa,,,101,18,V,L,
272,20,20,6,2,27,53,466,['n'],1,right,['2'],5,573,[-0.07319969],70,53,easy,minus,dotcolour,alfa,,,101,18,V,L,
273,21,21,6,2,53,27,701,['c'],1,left,['1'],6,547,[0.17475464],89,53,easy,minus,dotcolour,alfa,,,101,18,V,L,
274,22,22,6,2,27,53,450,['n'],1,right,['1'],6,373,[-0.10734158],83,53,easy,minus,dotcolour,alfa,,,101,18,V,L,
275,23,23,6,2,36,44,1350,['n'],1,right,['3'],4,305,[-0.0743407],77,44,hard,minus,dotcolour,alfa,,,101,18,V,L,
276,24,24,6,2,33,47,800,['n'],1,right,['2'],5,221,[-0.07346463],80,47,medium,minus,dotcolour,alfa,,,101,18,V,L,
277,25,25,6,2,44,36,1284,['c'],1,left,['1'],6,314,[0.1671857],94,44,hard,minus,dotcolour,alfa,,,101,18,V,L,
278,26,26,6,2,47,33,650,['n'],0,left,['3'],4,597,[-0.0698638],69,47,medium,minus,dotcolour,alfa,,,101,18,V,L,
279,27,27,6,2,44,36,584,['n'],0,left,['8'],3,751,[0.11588005],23,44,hard,minus,dotcolour,alfa,,,101,18,V,L,
280,28,28,6,2,36,44,866,['n'],1,right,['8'],3,254,[0.01861416],42,44,hard,minus,dotcolour,alfa,,,101,18,V,L,
281,29,29,6,2,47,33,866,['n'],0,left,['8'],3,356,[-0.02341006],59,47,medium,minus,dotcolour,alfa,,,101,18,V,L,
282,30,30,6,2,44,36,751,['c'],1,left,['3'],4,632,[0.10849647],77,44,hard,minus,dotcolour,alfa,,,101,18,V,L,
283,31,31,6,2,27,53,1284,['n'],1,right,['2'],5,541,[-0.35426588],99,53,easy,minus,dotcolour,alfa,,,101,18,V,L,
284,32,32,6,2,44,36,1251,['n'],0,left,['8'],3,470,[-0.00055602],50,44,hard,minus,dotcolour,alfa,,,101,18,V,L,
285,33,33,6,2,47,33,734,['c'],1,left,['3'],4,471,[-0.01174201],46,47,medium,minus,dotcolour,alfa,,,101,18,V,L,
286,34,34,6,2,27,53,650,['n'],1,right,['2'],5,379,[-0.16121129],91,53,easy,minus,dotcolour,alfa,,,101,18,V,L,
287,35,35,6,2,36,44,868,['n'],1,right,['8'],3,266,[-0.15302545],94,44,hard,minus,dotcolour,alfa,,,101,18,V,L,
288,36,36,6,2,27,53,550,['n'],1,right,['3'],4,323,[-0.01679819],57,53,easy,minus,dotcolour,alfa,,,101,18,V,L,
289,37,37,6,2,53,27,883,['c'],1,left,['2'],5,308,[-0.0693296],25,53,easy,minus,dotcolour,alfa,,,101,18,V,L,
290,38,38,6,2,36,44,651,['n'],1,right,['3'],4,286,[-0.07387161],78,44,hard,minus,dotcolour,alfa,,,101,18,V,L,
291,39,39,6,2,53,27,918,['c'],1,left,['2'],5,279,[0.04219259],67,53,easy,minus,dotcolour,alfa,,,101,18,V,L,
292,40,40,6,2,27,53,984,['n'],1,right,['2'],5,326,[-0.0628118],73,53,easy,minus,dotcolour,alfa,,,101,18,V,L,
293,41,41,6,2,53,27,1000,['c'],1,left,['8'],3,362,[0.04921927],68,53,easy,minus,dotcolour,alfa,,,101,18,V,L,
294,42,0,7,2,53,27,650,['n'],0,left,['9'],2,943,[0.03081036],43,53,easy,minus,dotcolour,alfa,,,101,18,V,L,
295,43,1,7,2,53,27,516,['c'],1,left,['3'],4,390,[0.17076325],92,53,easy,minus,dotcolour,alfa,,,101,18,V,L,
296,44,2,7,2,36,44,733,['n'],1,right,['3'],4,291,[-0.06587395],75,44,hard,minus,dotcolour,alfa,,,101,18,V,L,
297,45,3,7,2,44,36,1216,['c'],1,left,['3'],4,247,[0.0091463],54,44,hard,minus,dotcolour,alfa,,,101,18,V,L,
298,46,4,7,2,36,44,633,['n'],1,right,['2'],5,477,[-0.16121146],89,44,hard,minus,dotcolour,alfa,,,101,18,V,L,
299,47,5,7,2,27,53,584,['n'],1,right,['2'],5,275,[-0.11631439],88,53,easy,minus,dotcolour,alfa,,,101,18,V,L,
300,48,6,7,2,47,33,833,['c'],1,left,['2'],5,305,[0.17061152],94,47,medium,minus,dotcolour,alfa,,,101,18,V,L,
301,49,7,7,2,27,53,483,['n'],1,right,['1'],6,395,[-0.09736065],80,53,easy,minus,dotcolour,alfa,,,101,18,V,L,
302,50,8,7,2,47,33,1034,['c'],1,left,['1'],6,339,[0.04311661],66,47,medium,minus,dotcolour,alfa,,,101,18,V,L,
303,51,9,7,2,36,44,599,['n'],1,right,['2'],5,302,[-0.08693196],81,44,hard,minus,dotcolour,alfa,,,101,18,V,L,
304,52,10,7,2,44,36,850,['n'],0,left,['3'],4,233,[-0.06420817],77,44,hard,minus,dotcolour,alfa,,,101,18,V,L,
305,53,11,7,2,33,47,517,['n'],1,right,['2'],5,597,[-0.11415029],79,47,medium,minus,dotcolour,alfa,,,101,18,V,L,
306,54,12,7,2,44,36,850,['c'],1,left,['2'],5,316,[0.06200202],73,44,hard,minus,dotcolour,alfa,,,101,18,V,L,
307,55,13,7,2,27,53,1034,['n'],1,right,['3'],4,368,[-0.15680735],91,53,easy,minus,dotcolour,alfa,,,101,18,V,L,
308,56,14,7,2,44,36,1083,['c'],1,left,['3'],4,263,[0.04988521],71,44,hard,minus,dotcolour,alfa,,,101,18,V,L,
309,57,15,7,2,36,44,651,['n'],1,right,['3'],4,564,[-0.14051104],84,44,hard,minus,dotcolour,alfa,,,101,18,V,L,
310,58,16,7,2,36,44,584,['n'],1,right,['2'],5,295,[-0.14539849],92,44,hard,minus,dotcolour,alfa,,,101,18,V,L,
311,59,17,7,2,33,47,450,['n'],1,right,['2'],5,283,[-0.11999878],88,47,medium,minus,dotcolour,alfa,,,101,18,V,L,
312,60,18,7,2,53,27,667,['c'],1,left,['2'],5,294,[0.0060219],52,53,easy,minus,dotcolour,alfa,,,101,18,V,L,
313,61,19,7,2,36,44,600,['n'],1,right,['2'],5,259,[-0.06516271],76,44,hard,minus,dotcolour,alfa,,,101,18,V,L,
314,62,20,7,2,53,27,550,['n'],0,left,['9'],2,860,[0.09184547],29,53,easy,minus,dotcolour,alfa,,,101,18,V,L,
315,63,21,7,2,36,44,701,['c'],0,right,['9'],2,855,[-0.08292428],31,44,hard,minus,dotcolour,alfa,,,101,18,V,L,
316,64,22,7,2,33,47,701,['n'],1,right,['3'],4,417,[-0.13487209],87,47,medium,minus,dotcolour,alfa,,,101,18,V,L,
317,65,23,7,2,44,36,1618,['c'],1,left,['2'],5,314,[0.18329107],95,44,hard,minus,dotcolour,alfa,,,101,18,V,L,
318,66,24,7,2,47,33,1134,['c'],1,left,['2'],5,313,[0.0772488],78,47,medium,minus,dotcolour,alfa,,,101,18,V,L,
319,67,25,7,2,44,36,984,['n'],0,left,['3'],4,470,[-0.08546994],75,44,hard,minus,dotcolour,alfa,,,101,18,V,L,
320,68,26,7,2,53,27,883,['c'],1,left,['2'],5,354,[0.17152052],93,53,easy,minus,dotcolour,alfa,,,101,18,V,L,
321,69,27,7,2,27,53,668,['n'],1,right,['2'],5,354,[-0.02065187],58,53,easy,minus,dotcolour,alfa,,,101,18,V,L,
322,70,28,7,2,47,33,983,['c'],1,left,['2'],5,334,[0.1683708],93,47,medium,minus,dotcolour,alfa,,,101,18,V,L,
323,71,29,7,2,27,53,1334,['n'],1,right,['1'],6,396,[-0.06067988],70,53,easy,minus,dotcolour,alfa,,,101,18,V,L,
324,72,30,7,2,27,53,917,['n'],1,right,['2'],5,345,[-0.18138564],94,53,easy,minus,dotcolour,alfa,,,101,18,V,L,
325,73,31,7,2,53,27,917,['c'],1,left,['2'],5,304,[0.25028698],98,53,easy,minus,dotcolour,alfa,,,101,18,V,L,
326,74,32,7,2,33,47,534,['n'],1,right,['1'],6,447,[-0.18924005],93,47,medium,minus,dotcolour,alfa,,,101,18,V,L,
327,75,33,7,2,47,33,1467,['c'],1,left,['3'],4,316,[0.11982691],87,47,medium,minus,dotcolour,alfa,,,101,18,V,L,
328,76,34,7,2,44,36,2134,['c'],1,left,['3'],4,532,[0.14044172],85,44,hard,minus,dotcolour,alfa,,,101,18,V,L,
329,77,35,7,2,33,47,450,['n'],1,right,['8'],3,838,[-0.27143195],94,47,medium,minus,dotcolour,alfa,,,101,18,V,L,
330,78,36,7,2,47,33,1600,['n'],0,left,['8'],3,485,[-0.08259357],74,47,medium,minus,dotcolour,alfa,,,101,18,V,L,
331,79,37,7,2,47,33,851,['c'],1,left,['3'],4,969,[0.32619205],95,47,medium,minus,dotcolour,alfa,,,101,18,V,L,
332,80,38,7,2,53,27,1317,['c'],1,left,['3'],4,279,[0.1545183],93,53,easy,minus,dotcolour,alfa,,,101,18,V,L,
333,81,39,7,2,33,47,1100,['n'],1,right,['3'],4,216,[-0.04485592],70,47,medium,minus,dotcolour,alfa,,,101,18,V,L,
334,82,40,7,2,27,53,984,['n'],1,right,['3'],4,202,[-0.07584322],82,53,easy,minus,dotcolour,alfa,,,101,18,V,L,
335,83,41,7,2,33,47,1082,['n'],1,right,['3'],4,296,[-0.11386302],87,47,medium,minus,dotcolour,alfa,,,101,18,V,L,
336,84,0,8,2,44,36,1250,['c'],1,left,['3'],4,288,[0.07495257],78,44,hard,minus,dotcolour,alfa,,,101,18,V,L,
337,85,1,8,2,47,33,651,['c'],1,left,['3'],4,324,[0.13884739],90,47,medium,minus,dotcolour,alfa,,,101,18,V,L,
338,86,2,8,2,36,44,566,['n'],1,right,['3'],4,273,[-0.1370196],91,44,hard,minus,dotcolour,alfa,,,101,18,V,L,
339,87,3,8,2,27,53,566,['n'],1,right,['3'],4,264,[-0.02373627],60,53,easy,minus,dotcolour,alfa,,,101,18,V,L,
340,88,4,8,2,36,44,735,['c'],0,right,['2'],5,297,[0.11780412],87,44,hard,minus,dotcolour,alfa,,,101,18,V,L,
341,89,5,8,2,33,47,616,['n'],1,right,['3'],4,326,[-0.03627219],64,47,medium,minus,dotcolour,alfa,,,101,18,V,L,
342,90,6,8,2,44,36,1283,['c'],1,left,['3'],4,319,[0.07846732],78,44,hard,minus,dotcolour,alfa,,,101,18,V,L,
343,91,7,8,2,36,44,534,['c'],0,right,['3'],4,758,[-0.00287289],49,44,hard,minus,dotcolour,alfa,,,101,18,V,L,
344,92,8,8,2,47,33,1067,['n'],0,left,['8'],3,1007,[0.11919432],26,47,medium,minus,dotcolour,alfa,,,101,18,V,L,
345,93,9,8,2,53,27,899,['c'],1,left,['3'],4,291,[0.14986822],92,53,easy,minus,dotcolour,alfa,,,101,18,V,L,
346,94,10,8,2,44,36,668,['c'],1,left,['3'],4,318,[0.09520025],82,44,hard,minus,dotcolour,alfa,,,101,18,V,L,
347,95,11,8,2,47,33,750,['c'],1,left,['3'],4,341,[0.17538193],94,47,medium,minus,dotcolour,alfa,,,101,18,V,L,
348,96,12,8,2,53,27,717,['c'],1,left,['3'],4,315,[0.11800324],87,53,easy,minus,dotcolour,alfa,,,101,18,V,L,
349,97,13,8,2,33,47,549,['n'],1,right,['3'],4,314,[-0.06425856],74,47,medium,minus,dotcolour,alfa,,,101,18,V,L,
350,98,14,8,2,27,53,500,['n'],1,right,['2'],5,410,[-0.05546823],69,53,easy,minus,dotcolour,alfa,,,101,18,V,L,
351,99,15,8,2,36,44,468,['n'],1,right,['3'],4,496,[-0.12907241],84,44,hard,minus,dotcolour,alfa,,,101,18,V,L,
352,100,16,8,2,33,47,917,['n'],1,right,['3'],4,226,[-0.12597893],92,47,medium,minus,dotcolour,alfa,,,101,18,V,L,
353,101,17,8,2,47,33,1051,['c'],1,left,['3'],4,287,[0.09518427],83,47,medium,minus,dotcolour,alfa,,,101,18,V,L,
354,102,18,8,2,33,47,618,['n'],1,right,['3'],4,309,[-0.14178804],91,47,medium,minus,dotcolour,alfa,,,101,18,V,L,
355,103,19,8,2,53,27,651,['c'],1,left,['3'],4,303,[0.12515986],89,53,easy,minus,dotcolour,alfa,,,101,18,V,L,
356,104,20,8,2,47,33,749,['n'],0,left,['8'],3,679,[-0.03916257],61,47,medium,minus,dotcolour,alfa,,,101,18,V,L,
357,105,21,8,2,44,36,1033,['c'],1,left,['3'],4,275,[0.11070036],87,44,hard,minus,dotcolour,alfa,,,101,18,V,L,
358,106,22,8,2,27,53,450,['n'],1,right,['2'],5,679,[-0.24654377],94,53,easy,minus,dotcolour,alfa,,,101,18,V,L,
359,107,23,8,2,33,47,584,['n'],1,right,['3'],4,326,[-0.12222192],87,47,medium,minus,dotcolour,alfa,,,101,18,V,L,
360,108,24,8,2,27,53,500,['n'],1,right,['2'],5,398,[-0.11761998],84,53,easy,minus,dotcolour,alfa,,,101,18,V,L,
361,109,25,8,2,27,53,716,['n'],1,right,['2'],5,275,[-0.16126171],94,53,easy,minus,dotcolour,alfa,,,101,18,V,L,
362,110,26,8,2,33,47,817,['n'],1,right,['3'],4,256,[-0.11464224],88,47,medium,minus,dotcolour,alfa,,,101,18,V,L,
363,111,27,8,2,44,36,767,['c'],1,left,['3'],4,288,[0.18002353],95,44,hard,minus,dotcolour,alfa,,,101,18,V,L,
364,112,28,8,2,53,27,650,['c'],1,left,['3'],4,315,[0.10055298],83,53,easy,minus,dotcolour,alfa,,,101,18,V,L,
365,113,29,8,2,47,33,1050,['n'],0,left,['3'],4,1007,[0.02280353],45,47,medium,minus,dotcolour,alfa,,,101,18,V,L,
366,114,30,8,2,33,47,867,['n'],1,right,['3'],4,253,[-0.10155058],86,47,medium,minus,dotcolour,alfa,,,101,18,V,L,
367,115,31,8,2,36,44,684,['n'],1,right,['2'],5,665,[-0.07721927],70,44,hard,minus,dotcolour,alfa,,,101,18,V,L,
368,116,32,8,2,44,36,851,['c'],1,left,['3'],4,358,[0.08549438],78,44,hard,minus,dotcolour,alfa,,,101,18,V,L,
369,117,33,8,2,44,36,634,['n'],0,left,['3'],4,487,[-0.1228161],83,44,hard,minus,dotcolour,alfa,,,101,18,V,L,
370,118,34,8,2,36,44,750,['n'],1,right,['3'],4,367,[-0.06202527],72,44,hard,minus,dotcolour,alfa,,,101,18,V,L,
371,119,35,8,2,53,27,500,['c'],1,left,['3'],4,438,[0.01799689],56,53,easy,minus,dotcolour,alfa,,,101,18,V,L,
372,120,36,8,2,27,53,482,['n'],1,right,['3'],4,346,[-0.15957964],92,53,easy,minus,dotcolour,alfa,,,101,18,V,L,
373,121,37,8,2,53,27,566,['c'],1,left,['3'],4,319,[0.11726468],87,53,easy,minus,dotcolour,alfa,,,101,18,V,L,
374,122,38,8,2,47,33,917,['c'],1,left,['3'],4,327,[0.22011014],97,47,medium,minus,dotcolour,alfa,,,101,18,V,L,
375,123,39,8,2,27,53,534,['n'],1,right,['3'],4,286,[-0.14068188],91,53,easy,minus,dotcolour,alfa,,,101,18,V,L,
376,124,40,8,2,53,27,567,['c'],1,left,['3'],4,477,[0.17033746],90,53,easy,minus,dotcolour,alfa,,,101,18,V,L,
377,125,41,8,2,36,44,782,['n'],1,right,['3'],4,252,[-0.02325549],60,44,hard,minus,dotcolour,alfa,,,101,18,V,L,
378,0,0,9,3,33,47,1184,['n'],1,right,['3'],4,341,[-0.04946328],95,47,medium,plus,dotcolour,alfa,,,101,18,V,L,
379,1,1,9,3,47,33,900,['c'],1,left,['3'],4,349,[0.03133075],87,47,medium,plus,dotcolour,alfa,,,101,18,V,L,
380,2,2,9,3,33,47,567,['n'],1,right,['3'],4,282,[-0.17468248],100,47,medium,plus,dotcolour,alfa,,,101,18,V,L,
381,3,3,9,3,27,53,466,['n'],1,right,['3'],4,293,[-0.11250552],100,53,easy,plus,dotcolour,alfa,,,101,18,V,L,
382,4,4,9,3,27,53,467,['n'],1,right,['3'],4,264,[-0.07873989],100,53,easy,plus,dotcolour,alfa,,,101,18,V,L,
383,5,5,9,3,53,27,683,['c'],1,left,['3'],4,315,[0.10548875],100,53,easy,plus,dotcolour,alfa,,,101,18,V,L,
384,6,6,9,3,33,47,483,['n'],1,right,['3'],4,860,[-0.17914266],100,47,medium,plus,dotcolour,alfa,,,101,18,V,L,
385,7,7,9,3,36,44,732,['n'],1,right,['3'],4,366,[-0.10862929],100,44,hard,plus,dotcolour,alfa,,,101,18,V,L,
386,8,8,9,3,44,36,552,['n'],0,left,['3'],4,314,[-0.032984],89,44,hard,plus,dotcolour,alfa,,,101,18,V,L,
387,9,9,9,3,47,33,599,['c'],1,left,['3'],4,567,[0.16975395],100,47,medium,plus,dotcolour,alfa,,,101,18,V,L,
388,10,10,9,3,27,53,500,['n'],1,right,['3'],4,358,[-0.04552116],94,53,easy,plus,dotcolour,alfa,,,101,18,V,L,
389,11,11,9,3,27,53,500,['n'],1,right,['2'],5,573,[-0.16582128],100,53,easy,plus,dotcolour,alfa,,,101,18,V,L,
390,12,12,9,3,44,36,483,['n'],0,left,['9'],2,1171,[-0.06366146],89,44,hard,plus,dotcolour,alfa,,,101,18,V,L,
391,13,13,9,3,47,33,633,['c'],1,left,['3'],4,364,[0.15701339],100,47,medium,plus,dotcolour,alfa,,,101,18,V,L,
392,14,14,9,3,44,36,917,['c'],1,left,['3'],4,338,[0.08842476],100,44,hard,plus,dotcolour,alfa,,,101,18,V,L,
393,15,15,9,3,47,33,683,['c'],1,left,['3'],4,290,[0.03878486],93,47,medium,plus,dotcolour,alfa,,,101,18,V,L,
394,16,16,9,3,27,53,584,['n'],1,right,['2'],5,320,[-0.14884296],100,53,easy,plus,dotcolour,alfa,,,101,18,V,L,
395,17,17,9,3,44,36,1283,['c'],1,left,['8'],3,753,[0.10347607],99,44,hard,plus,dotcolour,alfa,,,101,18,V,L,
396,18,18,9,3,47,33,1467,['c'],1,left,['3'],4,281,[0.04031169],94,47,medium,plus,dotcolour,alfa,,,101,18,V,L,
397,19,19,9,3,47,33,1050,['c'],1,left,['3'],4,278,[0.06516371],99,47,medium,plus,dotcolour,alfa,,,101,18,V,L,
398,20,20,9,3,36,44,734,['c'],0,right,['3'],4,686,[-0.00667406],43,44,hard,plus,dotcolour,alfa,,,101,18,V,L,
399,21,21,9,3,53,27,934,['n'],0,left,['3'],4,430,[0.01364718],32,53,easy,plus,dotcolour,alfa,,,101,18,V,L,
400,22,22,9,3,27,53,583,['n'],1,right,['3'],4,287,[-0.09861233],100,53,easy,plus,dotcolour,alfa,,,101,18,V,L,
401,23,23,9,3,53,27,900,['c'],1,left,['3'],4,289,[0.15253385],100,53,easy,plus,dotcolour,alfa,,,101,18,V,L,
402,24,24,9,3,44,36,1085,['c'],1,left,['3'],4,274,[0.05341846],98,44,hard,plus,dotcolour,alfa,,,101,18,V,L,
403,25,25,9,3,36,44,568,['n'],1,right,['3'],4,258,[-0.0457323],96,44,hard,plus,dotcolour,alfa,,,101,18,V,L,
404,26,26,9,3,44,36,717,['c'],1,left,['3'],4,245,[0.14698565],100,44,hard,plus,dotcolour,alfa,,,101,18,V,L,
405,27,27,9,3,36,44,801,['c'],0,right,['9'],2,1203,[-0.08949069],5,44,hard,plus,dotcolour,alfa,,,101,18,V,L,
406,28,28,9,3,33,47,849,['n'],1,right,['3'],4,267,[-0.11713338],100,47,medium,plus,dotcolour,alfa,,,101,18,V,L,
407,29,29,9,3,33,47,649,['n'],1,right,['2'],5,191,[-0.05197978],99,47,medium,plus,dotcolour,alfa,,,101,18,V,L,
408,30,30,9,3,44,36,817,['c'],1,left,['3'],4,455,[0.03002134],83,44,hard,plus,dotcolour,alfa,,,101,18,V,L,
409,31,31,9,3,53,27,650,['n'],0,left,['9'],2,885,[-0.03807309],81,53,easy,plus,dotcolour,alfa,,,101,18,V,L,
410,32,32,9,3,53,27,700,['c'],1,left,['3'],4,301,[0.14176891],100,53,easy,plus,dotcolour,alfa,,,101,18,V,L,
411,33,33,9,3,53,27,516,['c'],1,left,['3'],4,447,[0.19635869],100,53,easy,plus,dotcolour,alfa,,,101,18,V,L,
412,34,34,9,3,27,53,800,['n'],1,right,['2'],5,286,[-0.2631729],100,53,easy,plus,dotcolour,alfa,,,101,18,V,L,
413,35,35,9,3,36,44,666,['n'],1,right,['3'],4,266,[-0.19608337],100,44,hard,plus,dotcolour,alfa,,,101,18,V,L,
414,36,36,9,3,53,27,1150,['c'],1,left,['3'],4,226,[0.14277864],100,53,easy,plus,dotcolour,alfa,,,101,18,V,L,
415,37,37,9,3,33,47,683,['n'],1,right,['3'],4,222,[-0.12584651],100,47,medium,plus,dotcolour,alfa,,,101,18,V,L,
416,38,38,9,3,33,47,883,['c'],0,right,['9'],2,1436,[-0.02480935],32,47,medium,plus,dotcolour,alfa,,,101,18,V,L,
417,39,39,9,3,36,44,1116,['n'],1,right,['3'],4,422,[-0.17891949],100,44,hard,plus,dotcolour,alfa,,,101,18,V,L,
418,40,40,9,3,36,44,916,['n'],1,right,['3'],4,554,[0.01669447],31,44,hard,plus,dotcolour,alfa,,,101,18,V,L,
419,41,41,9,3,47,33,517,['c'],1,left,['3'],4,383,[0.12713399],100,47,medium,plus,dotcolour,alfa,,,101,18,V,L,
420,42,0,10,3,47,33,999,['c'],1,left,['3'],4,213,[0.09998795],100,47,medium,plus,dotcolour,alfa,,,101,18,V,L,
421,43,1,10,3,47,33,817,['c'],1,left,['2'],5,253,[0.04095404],95,47,medium,plus,dotcolour,alfa,,,101,18,V,L,
422,44,2,10,3,36,44,784,['n'],1,right,['2'],5,245,[-0.06083079],99,44,hard,plus,dotcolour,alfa,,,101,18,V,L,
423,45,3,10,3,47,33,1251,['n'],0,left,['9'],2,562,[0.00019409],50,47,medium,plus,dotcolour,alfa,,,101,18,V,L,
424,46,4,10,3,44,36,1182,['c'],1,left,['3'],4,366,[0.08112863],99,44,hard,plus,dotcolour,alfa,,,101,18,V,L,
425,47,5,10,3,27,53,634,['n'],1,right,['8'],3,511,[-0.26107214],100,53,easy,plus,dotcolour,alfa,,,101,18,V,L,
426,48,6,10,3,47,33,1000,['c'],1,left,['3'],4,356,[0.0333493],88,47,medium,plus,dotcolour,alfa,,,101,18,V,L,
427,49,7,10,3,44,36,784,['c'],1,left,['2'],5,351,[0.1305213],100,44,hard,plus,dotcolour,alfa,,,101,18,V,L,
428,50,8,10,3,47,33,917,['n'],0,left,['8'],3,918,[0.24957767],0,47,medium,plus,dotcolour,alfa,,,101,18,V,L,
429,51,9,10,3,33,47,783,['n'],1,right,['2'],5,322,[-0.01584426],73,47,medium,plus,dotcolour,alfa,,,101,18,V,L,
430,52,10,10,3,44,36,933,['c'],1,left,['2'],5,273,[0.00485712],58,44,hard,plus,dotcolour,alfa,,,101,18,V,L,
431,53,11,10,3,27,53,850,['n'],1,right,['2'],5,198,[-0.01742026],80,53,easy,plus,dotcolour,alfa,,,101,18,V,L,
432,54,12,10,3,33,47,634,['n'],1,right,['2'],5,445,[-0.08308924],99,47,medium,plus,dotcolour,alfa,,,101,18,V,L,
433,55,13,10,3,53,27,683,['c'],1,left,['3'],4,322,[0.06482719],98,53,easy,plus,dotcolour,alfa,,,101,18,V,L,
434,56,14,10,3,53,27,1301,['c'],1,left,['2'],5,250,[0.17175381],100,53,easy,plus,dotcolour,alfa,,,101,18,V,L,
435,57,15,10,3,53,27,1234,['c'],1,left,['3'],4,312,[0.12429441],100,53,easy,plus,dotcolour,alfa,,,101,18,V,L,
436,58,16,10,3,36,44,834,['n'],1,right,['2'],5,203,[-0.11850397],100,44,hard,plus,dotcolour,alfa,,,101,18,V,L,
437,59,17,10,3,27,53,550,['n'],1,right,['2'],5,271,[-0.10832843],100,53,easy,plus,dotcolour,alfa,,,101,18,V,L,
438,60,18,10,3,27,53,533,['n'],1,right,['2'],5,224,[-0.05102076],98,53,easy,plus,dotcolour,alfa,,,101,18,V,L,
439,61,19,10,3,47,33,1034,['c'],1,left,['3'],4,534,[0.11621544],100,47,medium,plus,dotcolour,alfa,,,101,18,V,L,
440,62,20,10,3,36,44,1000,['c'],0,right,['3'],4,394,[0.12481299],100,44,hard,plus,dotcolour,alfa,,,101,18,V,L,
441,63,21,10,3,27,53,883,['n'],1,right,['1'],6,249,[-0.1666647],100,53,easy,plus,dotcolour,alfa,,,101,18,V,L,
442,64,22,10,3,53,27,800,['c'],1,left,['2'],5,296,[0.13653329],100,53,easy,plus,dotcolour,alfa,,,101,18,V,L,
443,65,23,10,3,36,44,784,['n'],1,right,['2'],5,254,[-0.02253683],83,44,hard,plus,dotcolour,alfa,,,101,18,V,L,
444,66,24,10,3,33,47,500,['n'],1,right,['2'],5,273,[-0.09203777],100,47,medium,plus,dotcolour,alfa,,,101,18,V,L,
445,67,25,10,3,36,44,883,['c'],0,right,['8'],3,724,[-0.0075348],42,44,hard,plus,dotcolour,alfa,,,101,18,V,L,
446,68,26,10,3,27,53,734,['n'],1,right,['2'],5,227,[-0.14430282],100,53,easy,plus,dotcolour,alfa,,,101,18,V,L,
447,69,27,10,3,33,47,700,['n'],1,right,['3'],4,230,[-0.0871338],100,47,medium,plus,dotcolour,alfa,,,101,18,V,L,
448,70,28,10,3,53,27,800,['c'],1,left,['3'],4,223,[0.15799902],100,53,easy,plus,dotcolour,alfa,,,101,18,V,L,
449,71,29,10,3,53,27,1316,['c'],1,left,['2'],5,474,[0.13970734],100,53,easy,plus,dotcolour,alfa,,,101,18,V,L,
450,72,30,10,3,47,33,983,['c'],1,left,['3'],4,289,[0.07322824],99,47,medium,plus,dotcolour,alfa,,,101,18,V,L,
451,73,31,10,3,33,47,484,['n'],1,right,['1'],6,547,[-0.19082318],100,47,medium,plus,dotcolour,alfa,,,101,18,V,L,
452,74,32,10,3,27,53,683,['n'],1,right,['1'],6,307,[-0.10950525],100,53,easy,plus,dotcolour,alfa,,,101,18,V,L,
453,75,33,10,3,36,44,617,['n'],1,right,['2'],5,231,[-0.14522194],100,44,hard,plus,dotcolour,alfa,,,101,18,V,L,
454,76,34,10,3,33,47,500,['n'],1,right,['2'],5,259,[-0.12588192],100,47,medium,plus,dotcolour,alfa,,,101,18,V,L,
455,77,35,10,3,33,47,667,['n'],1,right,['2'],5,335,[-0.15142585],100,47,medium,plus,dotcolour,alfa,,,101,18,V,L,
456,78,36,10,3,53,27,834,['c'],1,left,['3'],4,346,[0.04251839],93,53,easy,plus,dotcolour,alfa,,,101,18,V,L,
457,79,37,10,3,44,36,783,['n'],0,left,['2'],5,254,[-0.07979731],100,44,hard,plus,dotcolour,alfa,,,101,18,V,L,
458,80,38,10,3,44,36,766,['c'],1,left,['2'],5,903,[-0.00854453],42,44,hard,plus,dotcolour,alfa,,,101,18,V,L,
459,81,39,10,3,36,44,1100,['n'],1,right,['3'],4,296,[-0.1543743],100,44,hard,plus,dotcolour,alfa,,,101,18,V,L,
460,82,40,10,3,44,36,767,['n'],0,left,['3'],4,294,[-0.10498552],100,44,hard,plus,dotcolour,alfa,,,101,18,V,L,
461,83,41,10,3,44,36,767,['c'],1,left,['3'],4,260,[0.1520112],100,44,hard,plus,dotcolour,alfa,,,101,18,V,L,
462,84,0,11,3,53,27,701,['c'],1,left,['3'],4,214,[0.16988502],100,53,easy,plus,dotcolour,alfa,,,101,18,V,L,
463,85,1,11,3,33,47,733,['n'],1,right,['2'],5,233,[-0.01760074],79,47,medium,plus,dotcolour,alfa,,,101,18,V,L,
464,86,2,11,3,53,27,850,['n'],0,left,['8'],3,535,[-0.03459148],85,53,easy,plus,dotcolour,alfa,,,101,18,V,L,
465,87,3,11,3,33,47,1000,['n'],1,right,['2'],5,227,[-0.06011967],99,47,medium,plus,dotcolour,alfa,,,101,18,V,L,
466,88,4,11,3,36,44,1883,['n'],1,right,['8'],3,320,[-0.0652924],98,44,hard,plus,dotcolour,alfa,,,101,18,V,L,
467,89,5,11,3,33,47,867,['n'],1,right,['2'],5,210,[0.02138422],16,47,medium,plus,dotcolour,alfa,,,101,18,V,L,
468,90,6,11,3,27,53,667,['n'],1,right,['2'],5,472,[-0.14335776],100,53,easy,plus,dotcolour,alfa,,,101,18,V,L,
469,91,7,11,3,27,53,583,['n'],1,right,['2'],5,271,[-0.08708652],100,53,easy,plus,dotcolour,alfa,,,101,18,V,L,
470,92,8,11,3,44,36,950,['n'],0,left,['8'],3,760,[-0.07859377],96,44,hard,plus,dotcolour,alfa,,,101,18,V,L,
471,93,9,11,3,53,27,767,['c'],1,left,['2'],5,355,[0.20864103],100,53,easy,plus,dotcolour,alfa,,,101,18,V,L,
472,94,10,11,3,44,36,966,['c'],1,left,['3'],4,327,[0.1266059],100,44,hard,plus,dotcolour,alfa,,,101,18,V,L,
473,95,11,11,3,36,44,866,['n'],1,right,['2'],5,361,[-0.0190365],76,44,hard,plus,dotcolour,alfa,,,101,18,V,L,
474,96,12,11,3,27,53,550,['n'],1,right,['3'],4,301,[-0.10188315],100,53,easy,plus,dotcolour,alfa,,,101,18,V,L,
475,97,13,11,3,44,36,699,['n'],0,left,['3'],4,287,[-0.03369972],91,44,hard,plus,dotcolour,alfa,,,101,18,V,L,
476,98,14,11,3,47,33,1300,['c'],1,left,['3'],4,217,[0.09381103],100,47,medium,plus,dotcolour,alfa,,,101,18,V,L,
477,99,15,11,3,33,47,1034,['c'],0,right,['3'],4,456,[-0.02421988],22,47,medium,plus,dotcolour,alfa,,,101,18,V,L,
478,100,16,11,3,53,27,1000,['c'],1,left,['2'],5,431,[0.15628345],100,53,easy,plus,dotcolour,alfa,,,101,18,V,L,
479,101,17,11,3,27,53,600,['n'],1,right,['2'],5,247,[-0.16198516],100,53,easy,plus,dotcolour,alfa,,,101,18,V,L,
480,102,18,11,3,44,36,1033,['c'],1,left,['3'],4,277,[0.10248816],100,44,hard,plus,dotcolour,alfa,,,101,18,V,L,
481,103,19,11,3,36,44,800,['c'],0,right,['3'],4,699,[0.17362844],100,44,hard,plus,dotcolour,alfa,,,101,18,V,L,
482,104,20,11,3,27,53,1234,['c'],0,right,['3'],4,255,[0.0736782],99,53,easy,plus,dotcolour,alfa,,,101,18,V,L,
483,105,21,11,3,53,27,1017,['c'],1,left,['3'],4,637,[0.05117826],91,53,easy,plus,dotcolour,alfa,,,101,18,V,L,
484,106,22,11,3,47,33,1867,['c'],1,left,['8'],3,250,[0.12670797],100,47,medium,plus,dotcolour,alfa,,,101,18,V,L,
485,107,23,11,3,47,33,2117,['n'],0,left,['8'],3,317,[-0.07943348],99,47,medium,plus,dotcolour,alfa,,,101,18,V,L,
486,108,24,11,3,53,27,1167,['c'],1,left,['8'],3,219,[0.11641575],100,53,easy,plus,dotcolour,alfa,,,101,18,V,L,
487,109,25,11,3,44,36,634,['c'],1,left,['8'],3,234,[0.04314768],96,44,hard,plus,dotcolour,alfa,,,101,18,V,L,
488,110,26,11,3,47,33,834,['n'],0,left,['8'],3,265,[0.00244157],46,47,medium,plus,dotcolour,alfa,,,101,18,V,L,
489,111,27,11,3,27,53,717,['n'],1,right,['2'],5,155,[-0.06858799],100,53,easy,plus,dotcolour,alfa,,,101,18,V,L,
490,112,28,11,3,36,44,667,['n'],1,right,['2'],5,163,[-0.14965036],100,44,hard,plus,dotcolour,alfa,,,101,18,V,L,
491,113,29,11,3,33,47,517,['n'],1,right,['2'],5,218,[-0.07115297],100,47,medium,plus,dotcolour,alfa,,,101,18,V,L,
492,114,30,11,3,33,47,449,['n'],1,right,['2'],5,264,[-0.06716298],99,47,medium,plus,dotcolour,alfa,,,101,18,V,L,
493,115,31,11,3,44,36,1150,['c'],1,left,['3'],4,449,[0.13739704],100,44,hard,plus,dotcolour,alfa,,,101,18,V,L,
494,116,32,11,3,47,33,1767,['c'],1,left,['8'],3,409,[0.10159575],100,47,medium,plus,dotcolour,alfa,,,101,18,V,L,
495,117,33,11,3,27,53,849,['n'],1,right,['3'],4,536,[-0.08146983],98,53,easy,plus,dotcolour,alfa,,,101,18,V,L,
496,118,34,11,3,36,44,450,['n'],1,right,['8'],3,1370,[-0.16494633],99,44,hard,plus,dotcolour,alfa,,,101,18,V,L,
497,119,35,11,3,36,44,666,['c'],0,right,['3'],4,474,[0.12629725],100,44,hard,plus,dotcolour,alfa,,,101,18,V,L,
498,120,36,11,3,47,33,1150,['n'],0,left,['3'],4,162,[-0.1008032],100,47,medium,plus,dotcolour,alfa,,,101,18,V,L,
499,121,37,11,3,47,33,1283,['n'],0,left,['3'],4,89,[-0.03307707],98,47,medium,plus,dotcolour,alfa,,,101,18,V,L,
500,122,38,11,3,44,36,1350,['c'],1,left,['3'],4,329,[0.10118703],100,44,hard,plus,dotcolour,alfa,,,101,18,V,L,
501,123,39,11,3,36,44,800,['n'],1,right,['3'],4,317,[-0.05583817],97,44,hard,plus,dotcolour,alfa,,,101,18,V,L,
502,124,40,11,3,33,47,617,['n'],1,right,['2'],5,441,[-0.16735013],100,47,medium,plus,dotcolour,alfa,,,101,18,V,L,
503,125,41,11,3,53,27,801,['c'],1,left,['3'],4,264,[0.08395976],100,53,easy,plus,dotcolour,alfa,,,101,18,V,L,
504,0,0,12,4,36,44,718,['n'],1,right,['3'],4,123,[-0.17147429],99,44,hard,minus,dotcolour,alfa,,,101,18,V,L,
505,1,1,12,4,33,47,569,['c'],0,right,['9'],2,809,[0.03519026],59,47,medium,minus,dotcolour,alfa,,,101,18,V,L,
506,2,2,12,4,53,27,1267,['c'],1,left,['3'],4,199,[0.11996721],92,53,easy,minus,dotcolour,alfa,,,101,18,V,L,
507,3,3,12,4,27,53,833,['n'],1,right,['3'],4,303,[-0.19341737],96,53,easy,minus,dotcolour,alfa,,,101,18,V,L,
508,4,4,12,4,36,44,599,['n'],1,right,['3'],4,252,[-0.09491512],85,44,hard,minus,dotcolour,alfa,,,101,18,V,L,
509,5,5,12,4,33,47,500,['n'],1,right,['3'],4,207,[-0.07405986],81,47,medium,minus,dotcolour,alfa,,,101,18,V,L,
510,6,6,12,4,27,53,500,['n'],1,right,['2'],5,396,[-0.23725866],97,53,easy,minus,dotcolour,alfa,,,101,18,V,L,
511,7,7,12,4,33,47,566,['n'],1,right,['2'],5,207,[-0.1286725],93,47,medium,minus,dotcolour,alfa,,,101,18,V,L,
512,8,8,12,4,44,36,1017,['n'],0,left,['8'],3,287,[-0.15435165],93,44,hard,minus,dotcolour,alfa,,,101,18,V,L,
513,9,9,12,4,47,33,817,['c'],1,left,['3'],4,204,[0.04208886],70,47,medium,minus,dotcolour,alfa,,,101,18,V,L,
514,10,10,12,4,47,33,1449,['c'],1,left,['3'],4,299,[0.03909605],66,47,medium,minus,dotcolour,alfa,,,101,18,V,L,
515,11,11,12,4,27,53,600,['n'],1,right,['3'],4,177,[-0.12746053],94,53,easy,minus,dotcolour,alfa,,,101,18,V,L,
516,12,12,12,4,44,36,733,['n'],0,left,['3'],4,253,[-0.06130165],75,44,hard,minus,dotcolour,alfa,,,101,18,V,L,
517,13,13,12,4,53,27,867,['c'],1,left,['3'],4,274,[0.0689244],77,53,easy,minus,dotcolour,alfa,,,101,18,V,L,
518,14,14,12,4,47,33,767,['c'],1,left,['3'],4,202,[0.11366564],91,47,medium,minus,dotcolour,alfa,,,101,18,V,L,
519,15,15,12,4,27,53,733,['n'],1,right,['3'],4,279,[-0.03633939],65,53,easy,minus,dotcolour,alfa,,,101,18,V,L,
520,16,16,12,4,53,27,767,['c'],1,left,['2'],5,238,[0.17144878],96,53,easy,minus,dotcolour,alfa,,,101,18,V,L,
521,17,17,12,4,47,33,1550,['c'],1,left,['3'],4,207,[0.07169623],81,47,medium,minus,dotcolour,alfa,,,101,18,V,L,
522,18,18,12,4,47,33,801,['c'],1,left,['3'],4,416,[0.07940257],75,47,medium,minus,dotcolour,alfa,,,101,18,V,L,
523,19,19,12,4,53,27,933,['n'],0,left,['9'],2,731,[0.21453532],9,53,easy,minus,dotcolour,alfa,,,101,18,V,L,
524,20,20,12,4,36,44,1116,['n'],1,right,['3'],4,123,[-0.05944578],82,44,hard,minus,dotcolour,alfa,,,101,18,V,L,
525,21,21,12,4,36,44,684,['n'],1,right,['3'],4,268,[-0.12325386],89,44,hard,minus,dotcolour,alfa,,,101,18,V,L,
526,22,22,12,4,36,44,868,['n'],1,right,['3'],4,96,[-0.09209824],94,44,hard,minus,dotcolour,alfa,,,101,18,V,L,
527,23,23,12,4,53,27,800,['c'],1,left,['2'],5,373,[0.10204949],82,53,easy,minus,dotcolour,alfa,,,101,18,V,L,
528,24,24,12,4,33,47,817,['n'],1,right,['2'],5,198,[-0.15210771],96,47,medium,minus,dotcolour,alfa,,,101,18,V,L,
529,25,25,12,4,36,44,1516,['c'],0,right,['3'],4,236,[0.12647038],91,44,hard,minus,dotcolour,alfa,,,101,18,V,L,
530,26,26,12,4,27,53,1134,['n'],1,right,['3'],4,150,[-0.09784546],91,53,easy,minus,dotcolour,alfa,,,101,18,V,L,
531,27,27,12,4,33,47,751,['n'],1,right,['3'],4,163,[-0.02437984],63,47,medium,minus,dotcolour,alfa,,,101,18,V,L,
532,28,28,12,4,44,36,1316,['c'],1,left,['3'],4,169,[0.05109403],75,44,hard,minus,dotcolour,alfa,,,101,18,V,L,
533,29,29,12,4,36,44,1100,['c'],0,right,['8'],3,568,[0.08429221],73,44,hard,minus,dotcolour,alfa,,,101,18,V,L,
534,30,30,12,4,53,27,900,['c'],1,left,['3'],4,263,[0.08093707],81,53,easy,minus,dotcolour,alfa,,,101,18,V,L,
535,31,31,12,4,44,36,700,['c'],1,left,['3'],4,225,[0.20090774],98,44,hard,minus,dotcolour,alfa,,,101,18,V,L,
536,32,32,12,4,27,53,733,['n'],1,right,['3'],4,381,[-0.02431642],59,53,easy,minus,dotcolour,alfa,,,101,18,V,L,
537,33,33,12,4,33,47,583,['n'],1,right,['3'],4,215,[-0.1337076],93,47,medium,minus,dotcolour,alfa,,,101,18,V,L,
538,34,34,12,4,47,33,482,['c'],1,left,['3'],4,244,[0.14751171],94,47,medium,minus,dotcolour,alfa,,,101,18,V,L,
539,35,35,12,4,44,36,501,['c'],1,left,['3'],4,255,[0.14035981],92,44,hard,minus,dotcolour,alfa,,,101,18,V,L,
540,36,36,12,4,27,53,650,['c'],0,right,['3'],4,660,[-0.17433239],13,53,easy,minus,dotcolour,alfa,,,101,18,V,L,
541,37,37,12,4,47,33,1901,['c'],1,left,['3'],4,415,[0.03235024],61,47,medium,minus,dotcolour,alfa,,,101,18,V,L,
542,38,38,12,4,33,47,552,['n'],1,right,['3'],4,578,[-0.01780048],55,47,medium,minus,dotcolour,alfa,,,101,18,V,L,
543,39,39,12,4,53,27,516,['c'],1,left,['3'],4,271,[0.15926508],94,53,easy,minus,dotcolour,alfa,,,101,18,V,L,
544,40,40,12,4,44,36,733,['n'],0,left,['8'],3,553,[-0.06095594],68,44,hard,minus,dotcolour,alfa,,,101,18,V,L,
545,41,41,12,4,44,36,867,['c'],1,left,['3'],4,274,[0.06989314],77,44,hard,minus,dotcolour,alfa,,,101,18,V,L,
546,42,0,13,4,36,44,918,['n'],1,right,['3'],4,106,[-0.09644703],93,44,hard,minus,dotcolour,alfa,,,101,18,V,L,
547,43,1,13,4,44,36,949,['c'],1,left,['3'],4,225,[0.1471057],94,44,hard,minus,dotcolour,alfa,,,101,18,V,L,
548,44,2,13,4,36,44,1068,['c'],0,right,['3'],4,206,[0.04315856],70,44,hard,minus,dotcolour,alfa,,,101,18,V,L,
549,45,3,13,4,44,36,818,['c'],1,left,['3'],4,222,[0.09257556],85,44,hard,minus,dotcolour,alfa,,,101,18,V,L,
550,46,4,13,4,44,36,983,['c'],1,left,['3'],4,208,[0.09798259],87,44,hard,minus,dotcolour,alfa,,,101,18,V,L,
551,47,5,13,4,53,27,616,['c'],1,left,['3'],4,183,[0.09701886],89,53,easy,minus,dotcolour,alfa,,,101,18,V,L,
552,48,6,13,4,36,44,650,['n'],1,right,['3'],4,199,[-0.01973454],60,44,hard,minus,dotcolour,alfa,,,101,18,V,L,
553,49,7,13,4,27,53,616,['n'],1,right,['2'],5,240,[-0.08895536],84,53,easy,minus,dotcolour,alfa,,,101,18,V,L,
554,50,8,13,4,27,53,451,['n'],1,right,['2'],5,174,[-0.11470332],92,53,easy,minus,dotcolour,alfa,,,101,18,V,L,
555,51,9,13,4,27,53,567,['n'],1,right,['2'],5,281,[-0.03524678],65,53,easy,minus,dotcolour,alfa,,,101,18,V,L,
556,52,10,13,4,47,33,766,['c'],1,left,['3'],4,240,[0.13524704],92,47,medium,minus,dotcolour,alfa,,,101,18,V,L,
557,53,11,13,4,33,47,501,['n'],1,right,['2'],5,292,[-0.1236462],89,47,medium,minus,dotcolour,alfa,,,101,18,V,L,
558,54,12,13,4,53,27,767,['c'],1,left,['2'],5,371,[0.11926038],85,53,easy,minus,dotcolour,alfa,,,101,18,V,L,
559,55,13,13,4,47,33,949,['n'],0,left,['3'],4,255,[-0.01641491],57,47,medium,minus,dotcolour,alfa,,,101,18,V,L,
560,56,14,13,4,33,47,732,['c'],0,right,['8'],3,1282,[0.13644171],75,47,medium,minus,dotcolour,alfa,,,101,18,V,L,
561,57,15,13,4,27,53,717,['n'],1,right,['2'],5,186,[0.02050801],39,53,easy,minus,dotcolour,alfa,,,101,18,V,L,
562,58,16,13,4,44,36,1699,['n'],0,left,['8'],3,288,[-0.04567174],68,44,hard,minus,dotcolour,alfa,,,101,18,V,L,
563,59,17,13,4,36,44,1601,['n'],1,right,['2'],5,238,[-0.13495853],92,44,hard,minus,dotcolour,alfa,,,101,18,V,L,
564,60,18,13,4,27,53,766,['n'],1,right,['2'],5,456,[-0.08287394],75,53,easy,minus,dotcolour,alfa,,,101,18,V,L,
565,61,19,13,4,33,47,768,['n'],1,right,['2'],5,167,[-0.07865341],85,47,medium,minus,dotcolour,alfa,,,101,18,V,L,
566,62,20,13,4,47,33,1018,['c'],1,left,['3'],4,170,[0.03623667],69,47,medium,minus,dotcolour,alfa,,,101,18,V,L,
567,63,21,13,4,33,47,717,['n'],1,right,['2'],5,311,[-0.01121771],55,47,medium,minus,dotcolour,alfa,,,101,18,V,L,
568,64,22,13,4,33,47,916,['c'],0,right,['3'],4,631,[-0.04974086],36,47,medium,minus,dotcolour,alfa,,,101,18,V,L,
569,65,23,13,4,47,33,868,['n'],0,left,['2'],5,140,[-0.03091795],68,47,medium,minus,dotcolour,alfa,,,101,18,V,L,
570,66,24,13,4,53,27,584,['c'],1,left,['2'],5,577,[0.25236078],95,53,easy,minus,dotcolour,alfa,,,101,18,V,L,
571,67,25,13,4,36,44,1050,['c'],0,right,['3'],4,248,[0.03361798],65,44,hard,minus,dotcolour,alfa,,,101,18,V,L,
572,68,26,13,4,53,27,933,['c'],1,left,['3'],4,843,[0.17727903],85,53,easy,minus,dotcolour,alfa,,,101,18,V,L,
573,69,27,13,4,44,36,1066,['c'],1,left,['3'],4,224,[0.13854607],93,44,hard,minus,dotcolour,alfa,,,101,18,V,L,
574,70,28,13,4,53,27,550,['c'],1,left,['3'],4,209,[0.10935228],90,53,easy,minus,dotcolour,alfa,,,101,18,V,L,
575,71,29,13,4,44,36,883,['c'],1,left,['3'],4,191,[0.1339257],94,44,hard,minus,dotcolour,alfa,,,101,18,V,L,
576,72,30,13,4,44,36,600,['c'],1,left,['3'],4,185,[0.09058899],87,44,hard,minus,dotcolour,alfa,,,101,18,V,L,
577,73,31,13,4,47,33,600,['c'],1,left,['3'],4,210,[0.05012303],73,47,medium,minus,dotcolour,alfa,,,101,18,V,L,
578,74,32,13,4,36,44,1301,['n'],1,right,['3'],4,240,[-0.14749861],94,44,hard,minus,dotcolour,alfa,,,101,18,V,L,
579,75,33,13,4,36,44,1383,['n'],1,right,['8'],3,823,[-0.17759159],85,44,hard,minus,dotcolour,alfa,,,101,18,V,L,
580,76,34,13,4,27,53,699,['n'],1,right,['2'],5,275,[-0.19308182],96,53,easy,minus,dotcolour,alfa,,,101,18,V,L,
581,77,35,13,4,33,47,550,['n'],1,right,['2'],5,163,[-0.11485821],93,47,medium,minus,dotcolour,alfa,,,101,18,V,L,
582,78,36,13,4,47,33,817,['c'],1,left,['3'],4,237,[0.05506457],73,47,medium,minus,dotcolour,alfa,,,101,18,V,L,
583,79,37,13,4,47,33,1168,['c'],1,left,['3'],4,174,[0.12818832],94,47,medium,minus,dotcolour,alfa,,,101,18,V,L,
584,80,38,13,4,27,53,634,['n'],1,right,['2'],5,367,[-0.13587778],88,53,easy,minus,dotcolour,alfa,,,101,18,V,L,
585,81,39,13,4,53,27,852,['c'],1,left,['2'],5,208,[0.102212],88,53,easy,minus,dotcolour,alfa,,,101,18,V,L,
586,82,40,13,4,53,27,968,['c'],1,left,['2'],5,177,[0.0610877],79,53,easy,minus,dotcolour,alfa,,,101,18,V,L,
587,83,41,13,4,33,47,550,['n'],1,right,['2'],5,158,[-0.0330514],68,47,medium,minus,dotcolour,alfa,,,101,18,V,L,
588,84,0,14,4,33,47,1484,['c'],0,right,['3'],4,136,[0.1058046],93,47,medium,minus,dotcolour,alfa,,,101,18,V,L,
589,85,1,14,4,47,33,566,['c'],1,left,['3'],4,182,[0.10826069],91,47,medium,minus,dotcolour,alfa,,,101,18,V,L,
590,86,2,14,4,33,47,550,['n'],1,right,['3'],4,194,[-0.10796304],90,47,medium,minus,dotcolour,alfa,,,101,18,V,L,
591,87,3,14,4,53,27,516,['c'],1,left,['3'],4,175,[0.12956931],94,53,easy,minus,dotcolour,alfa,,,101,18,V,L,
592,88,4,14,4,44,36,617,['c'],1,left,['8'],3,880,[0.18093806],85,44,hard,minus,dotcolour,alfa,,,101,18,V,L,
593,89,5,14,4,27,53,718,['n'],1,right,['3'],4,97,[-0.05683781],84,53,easy,minus,dotcolour,alfa,,,101,18,V,L,
594,90,6,14,4,47,33,782,['c'],1,left,['3'],4,208,[0.01886249],59,47,medium,minus,dotcolour,alfa,,,101,18,V,L,
595,91,7,14,4,36,44,617,['n'],1,right,['3'],4,143,[-0.03766691],71,44,hard,minus,dotcolour,alfa,,,101,18,V,L,
596,92,8,14,4,44,36,867,['c'],1,left,['8'],3,432,[0.08097945],75,44,hard,minus,dotcolour,alfa,,,101,18,V,L,
597,93,9,14,4,33,47,566,['n'],1,right,['3'],4,233,[-0.15269091],95,47,medium,minus,dotcolour,alfa,,,101,18,V,L,
598,94,10,14,4,53,27,1251,['c'],1,left,['3'],4,183,[0.1109723],91,53,easy,minus,dotcolour,alfa,,,101,18,V,L,
599,95,11,14,4,47,33,1068,['c'],1,left,['3'],4,214,[0.13902979],94,47,medium,minus,dotcolour,alfa,,,101,18,V,L,
600,96,12,14,4,33,47,600,['n'],1,right,['3'],4,159,[-0.08685112],88,47,medium,minus,dotcolour,alfa,,,101,18,V,L,
601,97,13,14,4,47,33,1683,['n'],0,left,['3'],4,110,[-0.03813394],74,47,medium,minus,dotcolour,alfa,,,101,18,V,L,
602,98,14,14,4,36,44,916,['n'],1,right,['3'],4,103,[-0.09734986],94,44,hard,minus,dotcolour,alfa,,,101,18,V,L,
603,99,15,14,4,27,53,518,['n'],1,right,['3'],4,512,[-0.08416992],74,53,easy,minus,dotcolour,alfa,,,101,18,V,L,
604,100,16,14,4,27,53,984,['n'],1,right,['2'],5,101,[-0.08916323],93,53,easy,minus,dotcolour,alfa,,,101,18,V,L,
605,101,17,14,4,44,36,1083,['c'],1,left,['3'],4,190,[0.01655876],58,44,hard,minus,dotcolour,alfa,,,101,18,V,L,
606,102,18,14,4,44,36,1234,['c'],1,left,['3'],4,174,[0.04119906],71,44,hard,minus,dotcolour,alfa,,,101,18,V,L,
607,103,19,14,4,44,36,451,['c'],1,left,['8'],3,494,[0.02419068],58,44,hard,minus,dotcolour,alfa,,,101,18,V,L,
608,104,20,14,4,47,33,884,['c'],1,left,['8'],3,192,[0.0354512],67,47,medium,minus,dotcolour,alfa,,,101,18,V,L,
609,105,21,14,4,36,44,950,['n'],1,right,['2'],5,229,[-0.01350434],56,44,hard,minus,dotcolour,alfa,,,101,18,V,L,
610,106,22,14,4,53,27,1266,['c'],1,left,['3'],4,249,[0.16035275],95,53,easy,minus,dotcolour,alfa,,,101,18,V,L,
611,107,23,14,4,53,27,1000,['n'],0,left,['9'],2,825,[0.01063423],47,53,easy,minus,dotcolour,alfa,,,101,18,V,L,
612,108,24,14,4,27,53,516,['c'],0,right,['9'],2,1053,[0.06269021],63,53,easy,minus,dotcolour,alfa,,,101,18,V,L,
613,109,25,14,4,36,44,1333,['c'],0,right,['8'],3,566,[0.05670823],66,44,hard,minus,dotcolour,alfa,,,101,18,V,L,
614,110,26,14,4,33,47,934,['c'],0,right,['8'],3,451,[-0.05781319],32,47,medium,minus,dotcolour,alfa,,,101,18,V,L,
615,111,27,14,4,47,33,867,['n'],0,left,['3'],4,208,[-0.08744366],85,47,medium,minus,dotcolour,alfa,,,101,18,V,L,
616,112,28,14,4,33,47,933,['c'],0,right,['9'],2,1163,[0.05590589],61,47,medium,minus,dotcolour,alfa,,,101,18,V,L,
617,113,29,14,4,47,33,833,['c'],1,left,['3'],4,284,[0.15171904],93,47,medium,minus,dotcolour,alfa,,,101,18,V,L,
618,114,30,14,4,27,53,633,['n'],1,right,['3'],4,145,[-0.08727202],89,53,easy,minus,dotcolour,alfa,,,101,18,V,L,
619,115,31,14,4,36,44,466,['n'],1,right,['3'],4,202,[-0.10189957],88,44,hard,minus,dotcolour,alfa,,,101,18,V,L,
620,116,32,14,4,44,36,683,['c'],1,left,['3'],4,256,[0.08649469],82,44,hard,minus,dotcolour,alfa,,,101,18,V,L,
621,117,33,14,4,53,27,901,['c'],1,left,['3'],4,243,[0.08449649],82,53,easy,minus,dotcolour,alfa,,,101,18,V,L,
622,118,34,14,4,36,44,551,['n'],1,right,['3'],4,228,[-0.04222462],69,44,hard,minus,dotcolour,alfa,,,101,18,V,L,
623,119,35,14,4,27,53,466,['n'],1,right,['2'],5,162,[-0.01169349],56,53,easy,minus,dotcolour,alfa,,,101,18,V,L,
624,120,36,14,4,33,47,417,['n'],1,right,['2'],5,163,[-0.09567428],89,47,medium,minus,dotcolour,alfa,,,101,18,V,L,
625,121,37,14,4,36,44,500,['n'],1,right,['2'],5,137,[-0.05832568],81,44,hard,minus,dotcolour,alfa,,,101,18,V,L,
626,122,38,14,4,53,27,600,['c'],1,left,['2'],5,302,[0.14543981],92,53,easy,minus,dotcolour,alfa,,,101,18,V,L,
627,123,39,14,4,44,36,600,['n'],0,left,['2'],5,219,[-0.1053528],88,44,hard,minus,dotcolour,alfa,,,101,18,V,L,
628,124,40,14,4,53,27,999,['c'],1,left,['2'],5,204,[0.0121742],56,53,easy,minus,dotcolour,alfa,,,101,18,V,L,
629,125,41,14,4,27,53,450,['n'],1,right,['2'],5,220,[-0.0957162],86,53,easy,minus,dotcolour,alfa,,,101,18,V,L,
630,0,0,15,5,36,44,851,['n'],1,right,['2'],5,290,[-0.04713746],96,44,hard,plus,dotcolour,alfa,,,101,18,V,L,
631,1,1,15,5,44,36,500,['n'],0,left,['2'],5,292,[-0.08959916],100,44,hard,plus,dotcolour,alfa,,,101,18,V,L,
632,2,2,15,5,44,36,1016,['c'],1,left,['3'],4,201,[0.13207465],100,44,hard,plus,dotcolour,alfa,,,101,18,V,L,
633,3,3,15,5,53,27,1283,['c'],1,left,['3'],4,246,[0.20098526],100,53,easy,plus,dotcolour,alfa,,,101,18,V,L,
634,4,4,15,5,53,27,983,['c'],1,left,['3'],4,158,[0.08327657],100,53,easy,plus,dotcolour,alfa,,,101,18,V,L,
635,5,5,15,5,44,36,633,['n'],0,left,['3'],4,287,[-0.01812555],77,44,hard,plus,dotcolour,alfa,,,101,18,V,L,
636,6,6,15,5,27,53,851,['n'],1,right,['2'],5,132,[-0.12180823],100,53,easy,plus,dotcolour,alfa,,,101,18,V,L,
637,7,7,15,5,47,33,634,['c'],1,left,['2'],5,295,[-0.00699464],39,47,medium,plus,dotcolour,alfa,,,101,18,V,L,
638,8,8,15,5,27,53,634,['n'],1,right,['2'],5,211,[-0.1260612],100,53,easy,plus,dotcolour,alfa,,,101,18,V,L,
639,9,9,15,5,33,47,1232,['c'],0,right,['3'],4,209,[0.00545776],61,47,medium,plus,dotcolour,alfa,,,101,18,V,L,
640,10,10,15,5,27,53,834,['n'],1,right,['2'],5,305,[-0.1743952],100,53,easy,plus,dotcolour,alfa,,,101,18,V,L,
641,11,11,15,5,47,33,883,['c'],1,left,['3'],4,227,[0.1071099],100,47,medium,plus,dotcolour,alfa,,,101,18,V,L,
642,12,12,15,5,53,27,533,['c'],1,left,['3'],4,325,[0.17095375],100,53,easy,plus,dotcolour,alfa,,,101,18,V,L,
643,13,13,15,5,36,44,1100,['n'],1,right,['2'],5,245,[-0.0521583],98,44,hard,plus,dotcolour,alfa,,,101,18,V,L,
644,14,14,15,5,47,33,885,['c'],1,left,['3'],4,233,[0.12934711],100,47,medium,plus,dotcolour,alfa,,,101,18,V,L,
645,15,15,15,5,53,27,666,['c'],1,left,['3'],4,223,[0.03689938],94,53,easy,plus,dotcolour,alfa,,,101,18,V,L,
646,16,16,15,5,33,47,834,['n'],1,right,['3'],4,413,[-0.14370248],100,47,medium,plus,dotcolour,alfa,,,101,18,V,L,
647,17,17,15,5,47,33,950,['c'],1,left,['3'],4,168,[0.06286345],100,47,medium,plus,dotcolour,alfa,,,101,18,V,L,
648,18,18,15,5,36,44,784,['c'],0,right,['3'],4,219,[0.12549581],100,44,hard,plus,dotcolour,alfa,,,101,18,V,L,
649,19,19,15,5,36,44,633,['c'],0,right,['3'],4,203,[0.02960298],91,44,hard,plus,dotcolour,alfa,,,101,18,V,L,
650,20,20,15,5,53,27,1017,['c'],1,left,['3'],4,155,[0.06844766],100,53,easy,plus,dotcolour,alfa,,,101,18,V,L,
651,21,21,15,5,27,53,418,['n'],1,right,['3'],4,133,[-0.15872966],100,53,easy,plus,dotcolour,alfa,,,101,18,V,L,
652,22,22,15,5,27,53,500,['n'],1,right,['2'],5,253,[-0.13567964],100,53,easy,plus,dotcolour,alfa,,,101,18,V,L,
653,23,23,15,5,44,36,850,['c'],1,left,['2'],5,242,[0.12554153],100,44,hard,plus,dotcolour,alfa,,,101,18,V,L,
654,24,24,15,5,47,33,1201,['c'],1,left,['3'],4,187,[0.0600226],99,47,medium,plus,dotcolour,alfa,,,101,18,V,L,
655,25,25,15,5,44,36,950,['n'],0,left,['2'],5,510,[-0.17088159],100,44,hard,plus,dotcolour,alfa,,,101,18,V,L,
656,26,26,15,5,36,44,516,['n'],1,right,['3'],4,230,[-0.12097586],100,44,hard,plus,dotcolour,alfa,,,101,18,V,L,
657,27,27,15,5,44,36,802,['c'],1,left,['3'],4,158,[0.05121042],99,44,hard,plus,dotcolour,alfa,,,101,18,V,L,
658,28,28,15,5,33,47,867,['n'],1,right,['3'],4,86,[-0.07687586],100,47,medium,plus,dotcolour,alfa,,,101,18,V,L,
659,29,29,15,5,47,33,1300,['c'],1,left,['3'],4,184,[0.03591664],95,47,medium,plus,dotcolour,alfa,,,101,18,V,L,
660,30,30,15,5,33,47,750,['n'],1,right,['3'],4,140,[-0.07395981],100,47,medium,plus,dotcolour,alfa,,,101,18,V,L,
661,31,31,15,5,33,47,533,['n'],1,right,['2'],5,249,[-0.07913887],100,47,medium,plus,dotcolour,alfa,,,101,18,V,L,
662,32,32,15,5,53,27,633,['c'],1,left,['3'],4,248,[0.15670524],100,53,easy,plus,dotcolour,alfa,,,101,18,V,L,
663,33,33,15,5,47,33,1233,['c'],1,left,['2'],5,270,[0.04899609],97,47,medium,plus,dotcolour,alfa,,,101,18,V,L,
664,34,34,15,5,27,53,817,['n'],1,right,['2'],5,237,[-0.12955485],100,53,easy,plus,dotcolour,alfa,,,101,18,V,L,
665,35,35,15,5,36,44,1017,['n'],1,right,['3'],4,268,[-0.0795796],100,44,hard,plus,dotcolour,alfa,,,101,18,V,L,
666,36,36,15,5,36,44,517,['n'],1,right,['2'],5,358,[-0.0802582],99,44,hard,plus,dotcolour,alfa,,,101,18,V,L,
667,37,37,15,5,53,27,934,['c'],1,left,['3'],4,219,[0.15762172],100,53,easy,plus,dotcolour,alfa,,,101,18,V,L,
668,38,38,15,5,33,47,818,['n'],1,right,['2'],5,316,[-0.05936952],98,47,medium,plus,dotcolour,alfa,,,101,18,V,L,
669,39,39,15,5,27,53,650,['n'],1,right,['3'],4,254,[-0.0851267],100,53,easy,plus,dotcolour,alfa,,,101,18,V,L,
670,40,40,15,5,44,36,933,['c'],1,left,['3'],4,183,[0.13337875],100,44,hard,plus,dotcolour,alfa,,,101,18,V,L,
671,41,41,15,5,33,47,1016,['n'],1,right,['3'],4,178,[-0.01690803],81,47,medium,plus,dotcolour,alfa,,,101,18,V,L,
672,42,0,16,5,33,47,1184,['n'],1,right,['3'],4,112,[-0.125593],100,47,medium,plus,dotcolour,alfa,,,101,18,V,L,
673,43,1,16,5,27,53,567,['n'],1,right,['3'],4,111,[-0.08932204],100,53,easy,plus,dotcolour,alfa,,,101,18,V,L,
674,44,2,16,5,36,44,951,['n'],1,right,['3'],4,262,[-0.08250966],100,44,hard,plus,dotcolour,alfa,,,101,18,V,L,
675,45,3,16,5,27,53,733,['n'],1,right,['2'],5,366,[-0.0817501],99,53,easy,plus,dotcolour,alfa,,,101,18,V,L,
676,46,4,16,5,36,44,683,['n'],1,right,['3'],4,222,[-0.08658489],100,44,hard,plus,dotcolour,alfa,,,101,18,V,L,
677,47,5,16,5,53,27,983,['c'],1,left,['8'],3,735,[0.09533867],98,53,easy,plus,dotcolour,alfa,,,101,18,V,L,
678,48,6,16,5,47,33,800,['c'],1,left,['3'],4,210,[0.08242479],100,47,medium,plus,dotcolour,alfa,,,101,18,V,L,
679,49,7,16,5,36,44,535,['n'],1,right,['8'],3,453,[-0.04739716],93,44,hard,plus,dotcolour,alfa,,,101,18,V,L,
680,50,8,16,5,36,44,834,['n'],1,right,['3'],4,98,[-0.07326455],100,44,hard,plus,dotcolour,alfa,,,101,18,V,L,
681,51,9,16,5,53,27,949,['c'],1,left,['2'],5,339,[0.09866204],100,53,easy,plus,dotcolour,alfa,,,101,18,V,L,
682,52,10,16,5,44,36,1099,['c'],1,left,['3'],4,170,[0.06974808],100,44,hard,plus,dotcolour,alfa,,,101,18,V,L,
683,53,11,16,5,44,36,1284,['n'],0,left,['8'],3,153,[-0.09740372],100,44,hard,plus,dotcolour,alfa,,,101,18,V,L,
684,54,12,16,5,44,36,817,['c'],1,left,['3'],4,180,[0.11467217],100,44,hard,plus,dotcolour,alfa,,,101,18,V,L,
685,55,13,16,5,47,33,700,['c'],1,left,['3'],4,161,[0.05374019],99,47,medium,plus,dotcolour,alfa,,,101,18,V,L,
686,56,14,16,5,36,44,1182,['n'],1,right,['3'],4,157,[-0.06237577],100,44,hard,plus,dotcolour,alfa,,,101,18,V,L,
687,57,15,16,5,33,47,616,['n'],1,right,['8'],3,335,[-0.14104881],100,47,medium,plus,dotcolour,alfa,,,101,18,V,L,
688,58,16,16,5,44,36,700,['n'],0,left,['8'],3,975,[0.06763891],8,44,hard,plus,dotcolour,alfa,,,101,18,V,L,
689,59,17,16,5,27,53,1201,['n'],1,right,['3'],4,289,[-0.08177772],100,53,easy,plus,dotcolour,alfa,,,101,18,V,L,
690,60,18,16,5,53,27,666,['c'],1,left,['3'],4,204,[0.14807319],100,53,easy,plus,dotcolour,alfa,,,101,18,V,L,
691,61,19,16,5,53,27,618,['c'],1,left,['3'],4,173,[0.07076249],100,53,easy,plus,dotcolour,alfa,,,101,18,V,L,
692,62,20,16,5,36,44,950,['n'],1,right,['3'],4,88,[-0.06423814],100,44,hard,plus,dotcolour,alfa,,,101,18,V,L,
693,63,21,16,5,33,47,800,['n'],1,right,['3'],4,79,[-0.15784013],100,47,medium,plus,dotcolour,alfa,,,101,18,V,L,
694,64,22,16,5,33,47,616,['n'],1,right,['3'],4,92,[-0.03329119],98,47,medium,plus,dotcolour,alfa,,,101,18,V,L,
695,65,23,16,5,44,36,801,['c'],1,left,['8'],3,913,[0.15428037],100,44,hard,plus,dotcolour,alfa,,,101,18,V,L,
696,66,24,16,5,27,53,566,['n'],1,right,['3'],4,151,[-0.11561474],100,53,easy,plus,dotcolour,alfa,,,101,18,V,L,
697,67,25,16,5,47,33,1333,['n'],0,left,['8'],3,261,[-0.10394691],100,47,medium,plus,dotcolour,alfa,,,101,18,V,L,
698,68,26,16,5,53,27,1001,['c'],1,left,['3'],4,196,[0.05801806],99,53,easy,plus,dotcolour,alfa,,,101,18,V,L,
699,69,27,16,5,47,33,567,['c'],1,left,['3'],4,455,[0.07842174],99,47,medium,plus,dotcolour,alfa,,,101,18,V,L,
700,70,28,16,5,33,47,501,['n'],1,right,['3'],4,218,[-0.08872634],100,47,medium,plus,dotcolour,alfa,,,101,18,V,L,
701,71,29,16,5,53,27,666,['n'],0,left,['8'],3,840,[0.02889822],24,53,easy,plus,dotcolour,alfa,,,101,18,V,L,
702,72,30,16,5,27,53,1300,['n'],1,right,['3'],4,219,[-0.12823442],100,53,easy,plus,dotcolour,alfa,,,101,18,V,L,
703,73,31,16,5,47,33,1116,['c'],1,left,['8'],3,783,[0.14920766],100,47,medium,plus,dotcolour,alfa,,,101,18,V,L,
704,74,32,16,5,27,53,716,['n'],1,right,['3'],4,387,[-0.12766237],100,53,easy,plus,dotcolour,alfa,,,101,18,V,L,
705,75,33,16,5,44,36,1266,['c'],1,left,['3'],4,275,[0.11128236],100,44,hard,plus,dotcolour,alfa,,,101,18,V,L,
706,76,34,16,5,47,33,733,['c'],1,left,['3'],4,219,[0.08572965],100,47,medium,plus,dotcolour,alfa,,,101,18,V,L,
707,77,35,16,5,36,44,749,['n'],1,right,['3'],4,95,[-0.05704693],100,44,hard,plus,dotcolour,alfa,,,101,18,V,L,
708,78,36,16,5,27,53,617,['c'],0,right,['9'],2,2092,[-0.25946672],0,53,easy,plus,dotcolour,alfa,,,101,18,V,L,
709,79,37,16,5,47,33,1650,['c'],1,left,['3'],4,254,[0.21272855],100,47,medium,plus,dotcolour,alfa,,,101,18,V,L,
710,80,38,16,5,44,36,1016,['c'],1,left,['8'],3,990,[0.17930369],100,44,hard,plus,dotcolour,alfa,,,101,18,V,L,
711,81,39,16,5,53,27,917,['c'],1,left,['2'],5,338,[0.11365839],100,53,easy,plus,dotcolour,alfa,,,101,18,V,L,
712,82,40,16,5,33,47,1434,['c'],0,right,['3'],4,404,[-0.0258006],19,47,medium,plus,dotcolour,alfa,,,101,18,V,L,
713,83,41,16,5,33,47,1734,['c'],0,right,['3'],4,216,[0.02286992],85,47,medium,plus,dotcolour,alfa,,,101,18,V,L,
714,84,0,17,5,53,27,851,['n'],0,left,['1'],6,245,[0.02982319],10,53,easy,plus,dotcolour,alfa,,,101,18,V,L,
715,85,1,17,5,33,47,1417,['n'],1,right,['3'],4,146,[-0.06063982],100,47,medium,plus,dotcolour,alfa,,,101,18,V,L,
716,86,2,17,5,44,36,850,['n'],0,left,['3'],4,204,[-0.12267784],100,44,hard,plus,dotcolour,alfa,,,101,18,V,L,
717,87,3,17,5,44,36,1050,['n'],0,left,['8'],3,1436,[-0.07627348],91,44,hard,plus,dotcolour,alfa,,,101,18,V,L,
718,88,4,17,5,53,27,1050,['n'],0,left,['2'],5,184,[0.0210653],15,53,easy,plus,dotcolour,alfa,,,101,18,V,L,
719,89,5,17,5,27,53,1066,['n'],1,right,['3'],4,209,[-0.10134214],100,53,easy,plus,dotcolour,alfa,,,101,18,V,L,
720,90,6,17,5,33,47,799,['n'],1,right,['3'],4,161,[-0.07886403],100,47,medium,plus,dotcolour,alfa,,,101,18,V,L,
721,91,7,17,5,36,44,683,['n'],1,right,['8'],3,1040,[-0.30485958],100,44,hard,plus,dotcolour,alfa,,,101,18,V,L,
722,92,8,17,5,47,33,1251,['c'],1,left,['3'],4,189,[0.09212593],100,47,medium,plus,dotcolour,alfa,,,101,18,V,L,
723,93,9,17,5,33,47,801,['n'],1,right,['3'],4,151,[-0.00650851],65,47,medium,plus,dotcolour,alfa,,,101,18,V,L,
724,94,10,17,5,53,27,868,['c'],1,left,['3'],4,232,[0.16292414],100,53,easy,plus,dotcolour,alfa,,,101,18,V,L,
725,95,11,17,5,47,33,933,['c'],1,left,['3'],4,242,[0.06386478],99,47,medium,plus,dotcolour,alfa,,,101,18,V,L,
726,96,12,17,5,47,33,867,['c'],1,left,['3'],4,383,[0.12319052],100,47,medium,plus,dotcolour,alfa,,,101,18,V,L,
727,97,13,17,5,44,36,866,['c'],1,left,['3'],4,183,[0.11504332],100,44,hard,plus,dotcolour,alfa,,,101,18,V,L,
728,98,14,17,5,27,53,500,['n'],1,right,['3'],4,285,[-0.19110321],100,53,easy,plus,dotcolour,alfa,,,101,18,V,L,
729,99,15,17,5,53,27,634,['c'],1,left,['3'],4,201,[0.07142933],100,53,easy,plus,dotcolour,alfa,,,101,18,V,L,
730,100,16,17,5,36,44,483,['n'],1,right,['3'],4,199,[-0.17687166],100,44,hard,plus,dotcolour,alfa,,,101,18,V,L,
731,101,17,17,5,36,44,934,['n'],1,right,['8'],3,772,[0.06656865],6,44,hard,plus,dotcolour,alfa,,,101,18,V,L,
732,102,18,17,5,36,44,700,['c'],0,right,['9'],2,1290,[-0.0619632],12,44,hard,plus,dotcolour,alfa,,,101,18,V,L,
733,103,19,17,5,47,33,700,['c'],1,left,['3'],4,203,[0.13788381],100,47,medium,plus,dotcolour,alfa,,,101,18,V,L,
734,104,20,17,5,33,47,650,['n'],1,right,['3'],4,106,[-0.14873996],100,47,medium,plus,dotcolour,alfa,,,101,18,V,L,
735,105,21,17,5,33,47,551,['n'],1,right,['3'],4,409,[-0.05598356],96,47,medium,plus,dotcolour,alfa,,,101,18,V,L,
736,106,22,17,5,36,44,1485,['c'],0,right,['8'],3,446,[-0.01746408],28,44,hard,plus,dotcolour,alfa,,,101,18,V,L,
737,107,23,17,5,44,36,1317,['c'],1,left,['8'],3,177,[0.06312031],100,44,hard,plus,dotcolour,alfa,,,101,18,V,L,
738,108,24,17,5,53,27,801,['c'],1,left,['8'],3,219,[0.05150379],98,53,easy,plus,dotcolour,alfa,,,101,18,V,L,
739,109,25,17,5,47,33,634,['c'],1,left,['3'],4,203,[0.06732476],100,47,medium,plus,dotcolour,alfa,,,101,18,V,L,
740,110,26,17,5,44,36,483,['c'],1,left,['3'],4,497,[0.28242322],100,44,hard,plus,dotcolour,alfa,,,101,18,V,L,
741,111,27,17,5,36,44,1084,['n'],1,right,['3'],4,99,[0.00130614],46,44,hard,plus,dotcolour,alfa,,,101,18,V,L,
742,112,28,17,5,33,47,499,['n'],1,right,['3'],4,92,[-0.10366158],100,47,medium,plus,dotcolour,alfa,,,101,18,V,L,
743,113,29,17,5,27,53,567,['n'],1,right,['3'],4,155,[-0.06464422],100,53,easy,plus,dotcolour,alfa,,,101,18,V,L,
744,114,30,17,5,47,33,1349,['c'],1,left,['3'],4,192,[0.13011738],100,47,medium,plus,dotcolour,alfa,,,101,18,V,L,
745,115,31,17,5,27,53,584,['n'],1,right,['2'],5,115,[-0.06964787],100,53,easy,plus,dotcolour,alfa,,,101,18,V,L,
746,116,32,17,5,53,27,717,['c'],1,left,['2'],5,258,[0.110773],100,53,easy,plus,dotcolour,alfa,,,101,18,V,L,
747,117,33,17,5,44,36,1217,['c'],1,left,['3'],4,273,[0.12678016],100,44,hard,plus,dotcolour,alfa,,,101,18,V,L,
748,118,34,17,5,36,44,583,['n'],1,right,['3'],4,487,[-0.04256471],90,44,hard,plus,dotcolour,alfa,,,101,18,V,L,
749,119,35,17,5,44,36,600,['n'],0,left,['8'],3,869,[0.04963029],13,44,hard,plus,dotcolour,alfa,,,101,18,V,L,
750,120,36,17,5,27,53,950,['n'],1,right,['2'],5,148,[-0.10600998],100,53,easy,plus,dotcolour,alfa,,,101,18,V,L,
751,121,37,17,5,33,47,617,['n'],1,right,['3'],4,383,[-0.03522971],89,47,medium,plus,dotcolour,alfa,,,101,18,V,L,
752,122,38,17,5,47,33,1017,['c'],1,left,['3'],4,416,[0.05860377],96,47,medium,plus,dotcolour,alfa,,,101,18,V,L,
753,123,39,17,5,53,27,1116,['c'],1,left,['3'],4,253,[0.05887346],99,53,easy,plus,dotcolour,alfa,,,101,18,V,L,
754,124,40,17,5,27,53,517,['n'],1,right,['2'],5,167,[-0.16203655],100,53,easy,plus,dotcolour,alfa,,,101,18,V,L,
755,125,41,17,5,27,53,550,['n'],1,right,['2'],5,147,[-0.10715309],100,53,easy,plus,dotcolour,alfa,,,101,18,V,L,
,,,,,,,,,,,,,,,,,,,,,1,  nee,101,18,V,L,
,,,,,,,,,,,,,,,,,,,,,2,['d'],101,18,V,L,
,,,,,,,,,,,,,,,,,,,,,3,['f'],101,18,V,L,
,,,,,,,,,,,,,,,,,,,,,5,"['5', '3']",101,18,V,L,
