trial,withinphasetrial,withinblocktrial,block,phase,dotsLeft,dotsRight,rt,resp,cor,cresp,conf_press,cj,RTconf,ev,fb,diff,difflevel,condition,task,manip,sub,age,gender,handedness,
0,0,0,0,0,36,44,751,['n'],1,right,['8'],4,1632,[-0.34555275],100,44,hard,plus,dotcolour,beta,46,18,V,L,
1,1,1,0,0,36,44,900,['n'],1,right,['8'],4,388,[-0.05570114],96,44,hard,plus,dotcolour,beta,46,18,V,L,
2,2,2,0,0,44,36,1651,['c'],1,left,['9'],5,267,[0.11705575],100,44,hard,plus,dotcolour,beta,46,18,V,L,
3,3,3,0,0,33,47,583,['n'],1,right,['9'],5,243,[-0.11307599],100,47,medium,plus,dotcolour,beta,46,18,V,L,
4,4,4,0,0,27,53,517,['n'],1,right,['8'],4,165,[-0.10151213],100,53,easy,plus,dotcolour,beta,46,18,V,L,
5,5,5,0,0,36,44,633,['n'],1,right,['9'],5,246,[-0.08806653],99,44,hard,plus,dotcolour,beta,46,18,V,L,
6,6,6,0,0,33,47,601,['n'],1,right,['9'],5,174,[-0.05358032],99,47,medium,plus,dotcolour,beta,46,18,V,L,
7,7,7,0,0,47,33,1417,['c'],1,left,['3'],3,271,[0.13402288],100,47,medium,plus,dotcolour,beta,46,18,V,L,
8,8,8,0,0,44,36,949,['c'],1,left,['8'],4,112,[0.0314664],99,44,hard,plus,dotcolour,beta,46,18,V,L,
9,9,9,0,0,27,53,583,['n'],1,right,['9'],5,221,[-0.0363359],97,53,easy,plus,dotcolour,beta,46,18,V,L,
10,10,10,0,0,27,53,566,['n'],1,right,['0'],6,183,[-0.09450685],100,53,easy,plus,dotcolour,beta,46,18,V,L,
11,11,11,0,0,33,47,667,['n'],1,right,['9'],5,205,[-0.14539679],100,47,medium,plus,dotcolour,beta,46,18,V,L,
12,12,12,0,0,33,47,618,['n'],1,right,['8'],4,149,[-0.14628067],100,47,medium,plus,dotcolour,beta,46,18,V,L,
13,13,13,0,0,53,27,667,['c'],1,left,['8'],4,150,[0.03776831],99,53,easy,plus,dotcolour,beta,46,18,V,L,
14,14,14,0,0,47,33,1434,['c'],1,left,['9'],5,120,[0.07460073],100,47,medium,plus,dotcolour,beta,46,18,V,L,
15,15,15,0,0,53,27,668,['c'],1,left,['9'],5,162,[0.08435464],100,53,easy,plus,dotcolour,beta,46,18,V,L,
16,16,16,0,0,47,33,1069,['c'],1,left,['8'],4,162,[0.11953628],100,47,medium,plus,dotcolour,beta,46,18,V,L,
17,17,17,0,0,33,47,618,['n'],1,right,['8'],4,100,[-0.08794257],100,47,medium,plus,dotcolour,beta,46,18,V,L,
18,18,18,0,0,44,36,734,['c'],1,left,['9'],5,220,[0.07944842],99,44,hard,plus,dotcolour,beta,46,18,V,L,
19,19,19,0,0,53,27,684,['c'],1,left,['8'],4,136,[0.08176439],100,53,easy,plus,dotcolour,beta,46,18,V,L,
20,20,20,0,0,53,27,1383,['c'],1,left,['8'],4,180,[0.0707827],100,53,easy,plus,dotcolour,beta,46,18,V,L,
21,21,21,0,0,47,33,650,['n'],0,left,['8'],4,157,[-0.05786051],99,47,medium,plus,dotcolour,beta,46,18,V,L,
22,22,22,0,0,53,27,883,['n'],0,left,['8'],4,93,[-0.06114216],100,53,easy,plus,dotcolour,beta,46,18,V,L,
23,23,23,0,0,33,47,652,['n'],1,right,['8'],4,175,[-0.08986724],100,47,medium,plus,dotcolour,beta,46,18,V,L,
24,24,24,0,0,44,36,1183,['n'],0,left,['8'],4,138,[-0.04345634],99,44,hard,plus,dotcolour,beta,46,18,V,L,
25,25,25,0,0,44,36,1667,['c'],1,left,['8'],4,123,[0.04319452],99,44,hard,plus,dotcolour,beta,46,18,V,L,
26,26,26,0,0,36,44,651,['n'],1,right,['9'],5,165,[-0.12634251],100,44,hard,plus,dotcolour,beta,46,18,V,L,
27,27,27,0,0,47,33,618,['n'],0,left,['8'],4,151,[-0.05797977],99,47,medium,plus,dotcolour,beta,46,18,V,L,
28,28,28,0,0,44,36,700,['c'],1,left,['9'],5,183,[0.11641775],100,44,hard,plus,dotcolour,beta,46,18,V,L,
29,29,29,0,0,44,36,800,['n'],0,left,['8'],4,257,[-0.04468996],97,44,hard,plus,dotcolour,beta,46,18,V,L,
30,30,30,0,0,36,44,551,['n'],1,right,['8'],4,58,[-0.04582848],100,44,hard,plus,dotcolour,beta,46,18,V,L,
31,31,31,0,0,53,27,716,['c'],1,left,['8'],4,115,[0.06200366],100,53,easy,plus,dotcolour,beta,46,18,V,L,
32,32,32,0,0,36,44,534,['n'],1,right,['8'],4,106,[-0.08933612],100,44,hard,plus,dotcolour,beta,46,18,V,L,
33,33,33,0,0,27,53,534,['n'],1,right,['8'],4,114,[-0.07830153],100,53,easy,plus,dotcolour,beta,46,18,V,L,
34,34,34,0,0,27,53,601,['n'],1,right,['9'],5,134,[-0.09224742],100,53,easy,plus,dotcolour,beta,46,18,V,L,
35,35,35,0,0,27,53,483,['n'],1,right,['9'],5,143,[-0.00352242],94,53,easy,plus,dotcolour,beta,46,18,V,L,
36,36,36,0,0,47,33,1000,['n'],0,left,['8'],4,171,[-0.08163884],100,47,medium,plus,dotcolour,beta,46,18,V,L,
37,37,37,0,0,47,33,784,['c'],1,left,['8'],4,158,[0.06846375],100,47,medium,plus,dotcolour,beta,46,18,V,L,
38,38,38,0,0,53,27,735,['n'],0,left,['9'],5,403,[0.09182182],26,53,easy,plus,dotcolour,beta,46,18,V,L,
39,39,39,0,0,33,47,717,['n'],1,right,['9'],5,143,[-0.07103503],100,47,medium,plus,dotcolour,beta,46,18,V,L,
40,40,40,0,0,36,44,1066,['n'],1,right,['0'],6,159,[-0.15190399],100,44,hard,plus,dotcolour,beta,46,18,V,L,
41,41,41,0,0,27,53,516,['n'],1,right,['9'],5,158,[-0.08918658],100,53,easy,plus,dotcolour,beta,46,18,V,L,
42,42,0,1,0,33,47,800,['c'],0,right,['8'],4,202,[0.07891415],100,47,medium,plus,dotcolour,beta,46,18,V,L,
43,43,1,1,0,27,53,585,['n'],1,right,['9'],5,148,[-0.07561874],100,53,easy,plus,dotcolour,beta,46,18,V,L,
44,44,2,1,0,36,44,601,['n'],1,right,['9'],5,151,[-0.05089049],99,44,hard,plus,dotcolour,beta,46,18,V,L,
45,45,3,1,0,44,36,883,['n'],0,left,['8'],4,111,[-0.08217177],100,44,hard,plus,dotcolour,beta,46,18,V,L,
46,46,4,1,0,36,44,1334,['c'],0,right,['8'],4,207,[0.05257741],99,44,hard,plus,dotcolour,beta,46,18,V,L,
47,47,5,1,0,27,53,651,['n'],1,right,['9'],5,142,[-0.10321708],100,53,easy,plus,dotcolour,beta,46,18,V,L,
48,48,6,1,0,44,36,551,['n'],0,left,['8'],4,60,[-0.1187612],100,44,hard,plus,dotcolour,beta,46,18,V,L,
49,49,7,1,0,36,44,584,['n'],1,right,['9'],5,130,[-0.02940381],99,44,hard,plus,dotcolour,beta,46,18,V,L,
50,50,8,1,0,27,53,534,['n'],1,right,['8'],4,153,[-0.12756434],100,53,easy,plus,dotcolour,beta,46,18,V,L,
51,51,9,1,0,36,44,1966,['c'],0,right,['8'],4,142,[0.15939395],100,44,hard,plus,dotcolour,beta,46,18,V,L,
52,52,10,1,0,33,47,668,['n'],1,right,['9'],5,199,[-0.12857972],100,47,medium,plus,dotcolour,beta,46,18,V,L,
53,53,11,1,0,44,36,1167,['n'],0,left,['8'],4,89,[-0.05447938],100,44,hard,plus,dotcolour,beta,46,18,V,L,
54,54,12,1,0,53,27,601,['c'],1,left,['8'],4,118,[0.0590605],100,53,easy,plus,dotcolour,beta,46,18,V,L,
55,55,13,1,0,44,36,683,['n'],0,left,['9'],5,160,[-0.04905861],99,44,hard,plus,dotcolour,beta,46,18,V,L,
56,56,14,1,0,53,27,767,['c'],1,left,['0'],6,228,[0.08877886],100,53,easy,plus,dotcolour,beta,46,18,V,L,
57,57,15,1,0,44,36,833,['n'],0,left,['8'],4,139,[-0.09060078],100,44,hard,plus,dotcolour,beta,46,18,V,L,
58,58,16,1,0,53,27,784,['c'],1,left,['9'],5,174,[0.15173281],100,53,easy,plus,dotcolour,beta,46,18,V,L,
59,59,17,1,0,53,27,1067,['c'],1,left,['9'],5,215,[0.15016633],100,53,easy,plus,dotcolour,beta,46,18,V,L,
60,60,18,1,0,36,44,750,['n'],1,right,['9'],5,129,[-0.12626006],100,44,hard,plus,dotcolour,beta,46,18,V,L,
61,61,19,1,0,47,33,751,['n'],0,left,['8'],4,215,[-0.06375885],99,47,medium,plus,dotcolour,beta,46,18,V,L,
62,62,20,1,0,47,33,1001,['n'],0,left,['9'],5,160,[-0.10242771],100,47,medium,plus,dotcolour,beta,46,18,V,L,
63,63,21,1,0,27,53,568,['n'],1,right,['0'],6,172,[-0.10890572],100,53,easy,plus,dotcolour,beta,46,18,V,L,
64,64,22,1,0,33,47,582,['n'],1,right,['8'],4,118,[-0.06408747],100,47,medium,plus,dotcolour,beta,46,18,V,L,
65,65,23,1,0,44,36,567,['c'],1,left,['9'],5,116,[0.10985574],100,44,hard,plus,dotcolour,beta,46,18,V,L,
66,66,24,1,0,33,47,568,['n'],1,right,['8'],4,146,[-0.13511955],100,47,medium,plus,dotcolour,beta,46,18,V,L,
67,67,25,1,0,33,47,634,['n'],1,right,['8'],4,92,[-0.12536274],100,47,medium,plus,dotcolour,beta,46,18,V,L,
68,68,26,1,0,53,27,634,['c'],1,left,['8'],4,128,[0.0654012],100,53,easy,plus,dotcolour,beta,46,18,V,L,
69,69,27,1,0,53,27,1568,['c'],1,left,['9'],5,133,[0.045454],99,53,easy,plus,dotcolour,beta,46,18,V,L,
70,70,28,1,0,36,44,568,['n'],1,right,['9'],5,99,[-0.08366718],100,44,hard,plus,dotcolour,beta,46,18,V,L,
71,71,29,1,0,47,33,635,['n'],0,left,['8'],4,119,[0.00032841],95,47,medium,plus,dotcolour,beta,46,18,V,L,
72,72,30,1,0,27,53,699,['n'],1,right,['9'],5,111,[-0.12765676],100,53,easy,plus,dotcolour,beta,46,18,V,L,
73,73,31,1,0,27,53,499,['n'],1,right,['9'],5,88,[-0.07078308],100,53,easy,plus,dotcolour,beta,46,18,V,L,
74,74,32,1,0,47,33,750,['n'],0,left,['8'],4,113,[-0.05344514],100,47,medium,plus,dotcolour,beta,46,18,V,L,
75,75,33,1,0,36,44,800,['n'],1,right,['9'],5,148,[-0.09437362],100,44,hard,plus,dotcolour,beta,46,18,V,L,
76,76,34,1,0,53,27,633,['c'],1,left,['9'],5,207,[0.08689689],100,53,easy,plus,dotcolour,beta,46,18,V,L,
77,77,35,1,0,47,33,617,['n'],0,left,['9'],5,79,[-0.07781396],100,47,medium,plus,dotcolour,beta,46,18,V,L,
78,78,36,1,0,27,53,833,['n'],1,right,['0'],6,139,[-0.03924982],99,53,easy,plus,dotcolour,beta,46,18,V,L,
79,79,37,1,0,33,47,584,['n'],1,right,['0'],6,135,[-0.05243258],99,47,medium,plus,dotcolour,beta,46,18,V,L,
80,80,38,1,0,44,36,666,['n'],0,left,['9'],5,104,[-0.05655349],100,44,hard,plus,dotcolour,beta,46,18,V,L,
81,81,39,1,0,47,33,950,['n'],0,left,['8'],4,575,[-0.01140308],83,47,medium,plus,dotcolour,beta,46,18,V,L,
82,82,40,1,0,47,33,1185,['c'],1,left,['8'],4,105,[0.04804311],100,47,medium,plus,dotcolour,beta,46,18,V,L,
83,83,41,1,0,33,47,550,['n'],1,right,['9'],5,81,[-0.10686903],100,47,medium,plus,dotcolour,beta,46,18,V,L,
84,84,0,2,0,53,27,868,['c'],1,left,['8'],4,165,[0.17458377],100,53,easy,plus,dotcolour,beta,46,18,V,L,
85,85,1,2,0,44,36,735,['n'],0,left,['8'],4,235,[0.00562532],86,44,hard,plus,dotcolour,beta,46,18,V,L,
86,86,2,2,0,44,36,651,['n'],0,left,['9'],5,89,[-0.14583645],100,44,hard,plus,dotcolour,beta,46,18,V,L,
87,87,3,2,0,53,27,1051,['c'],1,left,['9'],5,117,[0.09648002],100,53,easy,plus,dotcolour,beta,46,18,V,L,
88,88,4,2,0,47,33,684,['c'],1,left,['9'],5,125,[0.08915907],100,47,medium,plus,dotcolour,beta,46,18,V,L,
89,89,5,2,0,36,44,701,['n'],1,right,['9'],5,189,[-0.07947871],100,44,hard,plus,dotcolour,beta,46,18,V,L,
90,90,6,2,0,53,27,650,['c'],1,left,['9'],5,158,[0.13453126],100,53,easy,plus,dotcolour,beta,46,18,V,L,
91,91,7,2,0,53,27,1150,['n'],0,left,['8'],4,386,[0.00826695],80,53,easy,plus,dotcolour,beta,46,18,V,L,
92,92,8,2,0,47,33,683,['c'],1,left,['9'],5,96,[0.1146654],100,47,medium,plus,dotcolour,beta,46,18,V,L,
93,93,9,2,0,27,53,567,['n'],1,right,['9'],5,159,[-0.0675328],100,53,easy,plus,dotcolour,beta,46,18,V,L,
94,94,10,2,0,36,44,551,['n'],1,right,['9'],5,307,[-0.07535328],99,44,hard,plus,dotcolour,beta,46,18,V,L,
95,95,11,2,0,44,36,1067,['c'],1,left,['9'],5,157,[0.1021587],100,44,hard,plus,dotcolour,beta,46,18,V,L,
96,96,12,2,0,53,27,866,['c'],1,left,['9'],5,501,[0.1564604],100,53,easy,plus,dotcolour,beta,46,18,V,L,
97,97,13,2,0,33,47,968,['n'],1,right,['9'],5,196,[-0.08787477],100,47,medium,plus,dotcolour,beta,46,18,V,L,
98,98,14,2,0,44,36,817,['n'],0,left,['9'],5,125,[-0.03493866],99,44,hard,plus,dotcolour,beta,46,18,V,L,
99,99,15,2,0,36,44,600,['n'],1,right,['9'],5,128,[-0.09506266],100,44,hard,plus,dotcolour,beta,46,18,V,L,
100,100,16,2,0,47,33,1101,['n'],0,left,['8'],4,120,[-0.06616153],100,47,medium,plus,dotcolour,beta,46,18,V,L,
101,101,17,2,0,44,36,650,['n'],0,left,['8'],4,130,[-0.14274924],100,44,hard,plus,dotcolour,beta,46,18,V,L,
102,102,18,2,0,36,44,716,['c'],0,right,['9'],5,154,[0.04074173],99,44,hard,plus,dotcolour,beta,46,18,V,L,
103,103,19,2,0,33,47,734,['n'],1,right,['9'],5,159,[-0.07798581],100,47,medium,plus,dotcolour,beta,46,18,V,L,
104,104,20,2,0,44,36,518,['n'],0,left,['8'],4,173,[-0.12238965],100,44,hard,plus,dotcolour,beta,46,18,V,L,
105,105,21,2,0,36,44,633,['n'],1,right,['9'],5,150,[-0.11289606],100,44,hard,plus,dotcolour,beta,46,18,V,L,
106,106,22,2,0,27,53,1018,['n'],1,right,['0'],6,136,[-0.03640975],99,53,easy,plus,dotcolour,beta,46,18,V,L,
107,107,23,2,0,27,53,517,['n'],1,right,['0'],6,184,[-0.0983153],100,53,easy,plus,dotcolour,beta,46,18,V,L,
108,108,24,2,0,44,36,567,['n'],0,left,['9'],5,211,[-0.02178838],95,44,hard,plus,dotcolour,beta,46,18,V,L,
109,109,25,2,0,47,33,1184,['c'],1,left,['8'],4,132,[0.07426858],100,47,medium,plus,dotcolour,beta,46,18,V,L,
110,110,26,2,0,27,53,651,['n'],1,right,['0'],6,142,[-0.03736197],99,53,easy,plus,dotcolour,beta,46,18,V,L,
111,111,27,2,0,47,33,1118,['c'],1,left,['9'],5,117,[0.09229426],100,47,medium,plus,dotcolour,beta,46,18,V,L,
112,112,28,2,0,27,53,616,['n'],1,right,['9'],5,73,[-0.10702497],100,53,easy,plus,dotcolour,beta,46,18,V,L,
113,113,29,2,0,47,33,901,['c'],1,left,['9'],5,115,[0.04930411],100,47,medium,plus,dotcolour,beta,46,18,V,L,
114,114,30,2,0,53,27,617,['c'],1,left,['9'],5,303,[0.01879634],92,53,easy,plus,dotcolour,beta,46,18,V,L,
115,115,31,2,0,33,47,700,['n'],1,right,['9'],5,48,[-0.08163921],100,47,medium,plus,dotcolour,beta,46,18,V,L,
116,116,32,2,0,33,47,584,['n'],1,right,['9'],5,136,[-0.09704728],100,47,medium,plus,dotcolour,beta,46,18,V,L,
117,117,33,2,0,33,47,500,['n'],1,right,['0'],6,296,[-0.10627411],100,47,medium,plus,dotcolour,beta,46,18,V,L,
118,118,34,2,0,27,53,651,['n'],1,right,['0'],6,316,[-0.18962357],100,53,easy,plus,dotcolour,beta,46,18,V,L,
119,119,35,2,0,53,27,967,['c'],1,left,['9'],5,178,[0.06796893],99,53,easy,plus,dotcolour,beta,46,18,V,L,
120,120,36,2,0,47,33,1017,['c'],1,left,['9'],5,220,[0.06219395],99,47,medium,plus,dotcolour,beta,46,18,V,L,
121,121,37,2,0,33,47,683,['n'],1,right,['9'],5,144,[-0.07829979],100,47,medium,plus,dotcolour,beta,46,18,V,L,
122,122,38,2,0,36,44,618,['n'],1,right,['9'],5,163,[-0.12545064],100,44,hard,plus,dotcolour,beta,46,18,V,L,
123,123,39,2,0,36,44,751,['n'],1,right,['8'],4,192,[-0.05326922],99,44,hard,plus,dotcolour,beta,46,18,V,L,
124,124,40,2,0,33,47,634,['n'],1,right,['9'],5,135,[-0.04460245],99,47,medium,plus,dotcolour,beta,46,18,V,L,
125,125,41,2,0,27,53,901,['n'],1,right,['8'],4,112,[-0.08331257],100,53,easy,plus,dotcolour,beta,46,18,V,L,
126,0,0,3,1,36,44,801,['n'],1,right,['9'],5,149,[-0.04748388],41,44,hard,minus,dotcolour,beta,46,18,V,L,
127,1,1,3,1,47,33,851,['c'],1,left,['9'],5,127,[0.04460439],37,47,medium,minus,dotcolour,beta,46,18,V,L,
128,2,2,3,1,44,36,834,['c'],1,left,['8'],4,176,[0.0290736],24,44,hard,minus,dotcolour,beta,46,18,V,L,
129,3,3,3,1,47,33,1218,['c'],1,left,['0'],6,186,[0.06920345],64,47,medium,minus,dotcolour,beta,46,18,V,L,
130,4,4,3,1,36,44,734,['c'],0,right,['0'],6,183,[0.02970481],25,44,hard,minus,dotcolour,beta,46,18,V,L,
131,5,5,3,1,44,36,1100,['c'],1,left,['9'],5,164,[-0.03937066],1,44,hard,minus,dotcolour,beta,46,18,V,L,
132,6,6,3,1,44,36,684,['c'],1,left,['9'],5,172,[0.13557311],97,44,hard,minus,dotcolour,beta,46,18,V,L,
133,7,7,3,1,47,33,1234,['n'],0,left,['8'],4,132,[-0.10302474],91,47,medium,minus,dotcolour,beta,46,18,V,L,
134,8,8,3,1,27,53,917,['n'],1,right,['0'],6,188,[-0.09040734],81,53,easy,minus,dotcolour,beta,46,18,V,L,
135,9,9,3,1,44,36,1234,['c'],1,left,['8'],4,388,[0.20191931],99,44,hard,minus,dotcolour,beta,46,18,V,L,
136,10,10,3,1,36,44,667,['n'],1,right,['2'],2,1347,[-0.14733515],81,44,hard,minus,dotcolour,beta,46,18,V,L,
137,11,11,3,1,44,36,901,['n'],0,left,['8'],4,18,[-0.08072053],97,44,hard,minus,dotcolour,beta,46,18,V,L,
138,12,12,3,1,53,27,783,['c'],1,left,['9'],5,243,[0.15010922],97,53,easy,minus,dotcolour,beta,46,18,V,L,
139,13,13,3,1,53,27,917,['c'],1,left,['9'],5,277,[0.0945409],79,53,easy,minus,dotcolour,beta,46,18,V,L,
140,14,14,3,1,33,47,1250,['n'],1,right,['9'],5,169,[-0.0209487],18,47,medium,minus,dotcolour,beta,46,18,V,L,
141,15,15,3,1,33,47,867,['c'],0,right,['9'],5,138,[0.05544313],50,47,medium,minus,dotcolour,beta,46,18,V,L,
142,16,16,3,1,33,47,1184,['n'],1,right,['9'],5,141,[-0.12242015],96,47,medium,minus,dotcolour,beta,46,18,V,L,
143,17,17,3,1,47,33,751,['c'],1,left,['9'],5,139,[0.08255835],79,47,medium,minus,dotcolour,beta,46,18,V,L,
144,18,18,3,1,47,33,667,['n'],0,left,['9'],5,139,[-0.07771976],74,47,medium,minus,dotcolour,beta,46,18,V,L,
145,19,19,3,1,44,36,685,['c'],1,left,['9'],5,139,[0.08772211],83,44,hard,minus,dotcolour,beta,46,18,V,L,
146,20,20,3,1,27,53,600,['n'],1,right,['9'],5,103,[-0.06129048],58,53,easy,minus,dotcolour,beta,46,18,V,L,
147,21,21,3,1,36,44,633,['c'],0,right,['9'],5,131,[0.11945034],96,44,hard,minus,dotcolour,beta,46,18,V,L,
148,22,22,3,1,27,53,733,['n'],1,right,['9'],5,137,[-0.02747595],20,53,easy,minus,dotcolour,beta,46,18,V,L,
149,23,23,3,1,27,53,501,['n'],1,right,['8'],4,169,[-0.04250108],36,53,easy,minus,dotcolour,beta,46,18,V,L,
150,24,24,3,1,53,27,518,['c'],1,left,['9'],5,86,[0.05634668],51,53,easy,minus,dotcolour,beta,46,18,V,L,
151,25,25,3,1,33,47,567,['n'],1,right,['9'],5,119,[-0.09292562],88,47,medium,minus,dotcolour,beta,46,18,V,L,
152,26,26,3,1,27,53,568,['n'],1,right,['9'],5,124,[-0.07447828],72,53,easy,minus,dotcolour,beta,46,18,V,L,
153,27,27,3,1,44,36,767,['n'],0,left,['0'],6,161,[-0.03956595],33,44,hard,minus,dotcolour,beta,46,18,V,L,
154,28,28,3,1,53,27,768,['c'],1,left,['9'],5,142,[0.04469819],37,53,easy,minus,dotcolour,beta,46,18,V,L,
155,29,29,3,1,53,27,684,['c'],1,left,['8'],4,198,[0.24986231],100,53,easy,minus,dotcolour,beta,46,18,V,L,
156,30,30,3,1,33,47,600,['n'],1,right,['0'],6,320,[-0.1474112],95,47,medium,minus,dotcolour,beta,46,18,V,L,
157,31,31,3,1,53,27,835,['c'],1,left,['9'],5,74,[0.04383436],32,53,easy,minus,dotcolour,beta,46,18,V,L,
158,32,32,3,1,33,47,584,['n'],1,right,['8'],4,96,[-0.13745723],99,47,medium,minus,dotcolour,beta,46,18,V,L,
159,33,33,3,1,36,44,534,['n'],1,right,['9'],5,193,[-0.13892408],97,44,hard,minus,dotcolour,beta,46,18,V,L,
160,34,34,3,1,53,27,682,['c'],1,left,['8'],4,104,[0.06346799],61,53,easy,minus,dotcolour,beta,46,18,V,L,
161,35,35,3,1,47,33,651,['c'],1,left,['9'],5,131,[0.13158987],98,47,medium,minus,dotcolour,beta,46,18,V,L,
162,36,36,3,1,33,47,750,['n'],1,right,['9'],5,56,[-0.06901967],74,47,medium,minus,dotcolour,beta,46,18,V,L,
163,37,37,3,1,27,53,584,['n'],1,right,['9'],5,175,[-0.12831581],96,53,easy,minus,dotcolour,beta,46,18,V,L,
164,38,38,3,1,27,53,468,['n'],1,right,['9'],5,126,[-0.04707024],39,53,easy,minus,dotcolour,beta,46,18,V,L,
165,39,39,3,1,36,44,534,['n'],1,right,['9'],5,149,[-0.03348192],26,44,hard,minus,dotcolour,beta,46,18,V,L,
166,40,40,3,1,36,44,567,['n'],1,right,['9'],5,170,[-0.10461598],89,44,hard,minus,dotcolour,beta,46,18,V,L,
167,41,41,3,1,47,33,716,['n'],0,left,['8'],4,63,[-0.06701208],69,47,medium,minus,dotcolour,beta,46,18,V,L,
168,42,0,4,1,36,44,652,['n'],1,right,['9'],5,144,[-0.12332007],96,44,hard,minus,dotcolour,beta,46,18,V,L,
169,43,1,4,1,27,53,584,['n'],1,right,['0'],6,164,[-0.12022632],95,53,easy,minus,dotcolour,beta,46,18,V,L,
170,44,2,4,1,53,27,834,['c'],1,left,['8'],4,214,[0.18383546],99,53,easy,minus,dotcolour,beta,46,18,V,L,
171,45,3,4,1,47,33,768,['c'],1,left,['9'],5,136,[0.05600278],51,47,medium,minus,dotcolour,beta,46,18,V,L,
172,46,4,4,1,47,33,768,['c'],1,left,['9'],5,133,[0.08207438],79,47,medium,minus,dotcolour,beta,46,18,V,L,
173,47,5,4,1,44,36,783,['c'],1,left,['8'],4,153,[0.0239966],19,44,hard,minus,dotcolour,beta,46,18,V,L,
174,48,6,4,1,27,53,651,['n'],1,right,['9'],5,138,[-0.04834066],41,53,easy,minus,dotcolour,beta,46,18,V,L,
175,49,7,4,1,53,27,685,['c'],1,left,['8'],4,146,[0.114342],94,53,easy,minus,dotcolour,beta,46,18,V,L,
176,50,8,4,1,36,44,619,['n'],1,right,['9'],5,157,[-0.05813535],53,44,hard,minus,dotcolour,beta,46,18,V,L,
177,51,9,4,1,27,53,583,['c'],0,right,['9'],5,88,[0.05417529],48,53,easy,minus,dotcolour,beta,46,18,V,L,
178,52,10,4,1,47,33,817,['c'],1,left,['9'],5,149,[0.07607178],72,47,medium,minus,dotcolour,beta,46,18,V,L,
179,53,11,4,1,33,47,667,['c'],0,right,['8'],4,150,[0.09349595],85,47,medium,minus,dotcolour,beta,46,18,V,L,
180,54,12,4,1,33,47,816,['n'],1,right,['8'],4,136,[-0.1194165],96,47,medium,minus,dotcolour,beta,46,18,V,L,
181,55,13,4,1,27,53,550,['n'],1,right,['9'],5,111,[-0.1286013],98,53,easy,minus,dotcolour,beta,46,18,V,L,
182,56,14,4,1,36,44,568,['n'],1,right,['9'],5,76,[-0.07677947],80,44,hard,minus,dotcolour,beta,46,18,V,L,
183,57,15,4,1,44,36,601,['n'],0,left,['9'],5,171,[-0.03492023],29,44,hard,minus,dotcolour,beta,46,18,V,L,
184,58,16,4,1,27,53,584,['n'],1,right,['0'],6,277,[-0.09371324],79,53,easy,minus,dotcolour,beta,46,18,V,L,
185,59,17,4,1,44,36,1534,['c'],1,left,['9'],5,174,[0.05553936],50,44,hard,minus,dotcolour,beta,46,18,V,L,
186,60,18,4,1,44,36,652,['n'],0,left,['9'],5,182,[0.00142201],8,44,hard,minus,dotcolour,beta,46,18,V,L,
187,61,19,4,1,47,33,585,['n'],0,left,['9'],5,104,[-0.06737014],66,47,medium,minus,dotcolour,beta,46,18,V,L,
188,62,20,4,1,53,27,984,['c'],1,left,['9'],5,119,[0.10441721],93,53,easy,minus,dotcolour,beta,46,18,V,L,
189,63,21,4,1,44,36,817,['c'],1,left,['8'],4,146,[0.10329688],90,44,hard,minus,dotcolour,beta,46,18,V,L,
190,64,22,4,1,44,36,617,['n'],0,left,['9'],5,100,[-0.04484802],35,44,hard,minus,dotcolour,beta,46,18,V,L,
191,65,23,4,1,33,47,533,['n'],1,right,['9'],5,110,[-0.03907514],29,47,medium,minus,dotcolour,beta,46,18,V,L,
192,66,24,4,1,27,53,550,['n'],1,right,['9'],5,51,[-0.10937316],99,53,easy,minus,dotcolour,beta,46,18,V,L,
193,67,25,4,1,47,33,1252,['c'],1,left,['8'],4,233,[0.16549405],98,47,medium,minus,dotcolour,beta,46,18,V,L,
194,68,26,4,1,33,47,517,['n'],1,right,['9'],5,148,[-0.13071937],97,47,medium,minus,dotcolour,beta,46,18,V,L,
195,69,27,4,1,27,53,701,['n'],1,right,['9'],5,91,[-0.08257556],83,53,easy,minus,dotcolour,beta,46,18,V,L,
196,70,28,4,1,53,27,634,['c'],1,left,['9'],5,152,[0.08226984],77,53,easy,minus,dotcolour,beta,46,18,V,L,
197,71,29,4,1,33,47,552,['n'],1,right,['9'],5,21,[-0.0860745],98,47,medium,minus,dotcolour,beta,46,18,V,L,
198,72,30,4,1,53,27,1834,['c'],1,left,['8'],4,364,[0.13101159],90,53,easy,minus,dotcolour,beta,46,18,V,L,
199,73,31,4,1,36,44,851,['n'],1,right,['8'],4,157,[-0.06398026],59,44,hard,minus,dotcolour,beta,46,18,V,L,
200,74,32,4,1,53,27,1017,['n'],0,left,['8'],4,167,[-0.06500568],60,53,easy,minus,dotcolour,beta,46,18,V,L,
201,75,33,4,1,47,33,617,['n'],0,left,['9'],5,97,[-0.04157267],31,47,medium,minus,dotcolour,beta,46,18,V,L,
202,76,34,4,1,33,47,635,['n'],1,right,['8'],4,109,[-0.01856983],12,47,medium,minus,dotcolour,beta,46,18,V,L,
203,77,35,4,1,36,44,668,['n'],1,right,['8'],4,31,[-0.05041565],37,44,hard,minus,dotcolour,beta,46,18,V,L,
204,78,36,4,1,33,47,651,['n'],1,right,['9'],5,125,[-0.07544212],73,47,medium,minus,dotcolour,beta,46,18,V,L,
205,79,37,4,1,47,33,683,['c'],1,left,['9'],5,125,[0.0569962],52,47,medium,minus,dotcolour,beta,46,18,V,L,
206,80,38,4,1,36,44,534,['n'],1,right,['9'],5,117,[-0.06713832],65,44,hard,minus,dotcolour,beta,46,18,V,L,
207,81,39,4,1,44,36,667,['n'],0,left,['9'],5,183,[-0.13773507],97,44,hard,minus,dotcolour,beta,46,18,V,L,
208,82,40,4,1,36,44,817,['n'],1,right,['8'],4,120,[-0.06318529],60,44,hard,minus,dotcolour,beta,46,18,V,L,
209,83,41,4,1,53,27,967,['c'],1,left,['9'],5,167,[0.05792665],53,53,easy,minus,dotcolour,beta,46,18,V,L,
210,84,0,5,1,44,36,784,['c'],1,left,['8'],4,141,[0.07962434],76,44,hard,minus,dotcolour,beta,46,18,V,L,
211,85,1,5,1,44,36,500,['n'],0,left,['0'],6,181,[-0.00424734],10,44,hard,minus,dotcolour,beta,46,18,V,L,
212,86,2,5,1,36,44,383,['n'],1,right,['8'],4,119,[-0.14738833],99,44,hard,minus,dotcolour,beta,46,18,V,L,
213,87,3,5,1,36,44,351,['n'],1,right,['8'],4,85,[-0.07255269],74,44,hard,minus,dotcolour,beta,46,18,V,L,
214,88,4,5,1,36,44,452,['c'],0,right,['9'],5,41,[0.04782164],33,44,hard,minus,dotcolour,beta,46,18,V,L,
215,89,5,5,1,36,44,434,['n'],1,right,['8'],4,112,[-0.08773712],85,44,hard,minus,dotcolour,beta,46,18,V,L,
216,90,6,5,1,53,27,634,['c'],1,left,['9'],5,107,[0.05503922],49,53,easy,minus,dotcolour,beta,46,18,V,L,
217,91,7,5,1,47,33,716,['c'],1,left,['9'],5,131,[0.1262436],97,47,medium,minus,dotcolour,beta,46,18,V,L,
218,92,8,5,1,27,53,600,['n'],1,right,['9'],5,56,[-0.06162882],61,53,easy,minus,dotcolour,beta,46,18,V,L,
219,93,9,5,1,53,27,751,['c'],1,left,['9'],5,103,[0.05135294],44,53,easy,minus,dotcolour,beta,46,18,V,L,
220,94,10,5,1,47,33,1350,['n'],0,left,['8'],4,111,[-0.1370743],99,47,medium,minus,dotcolour,beta,46,18,V,L,
221,95,11,5,1,47,33,568,['c'],1,left,['0'],6,181,[0.03510961],30,47,medium,minus,dotcolour,beta,46,18,V,L,
222,96,12,5,1,36,44,735,['n'],1,right,['8'],4,177,[-0.17781335],99,44,hard,minus,dotcolour,beta,46,18,V,L,
223,97,13,5,1,44,36,634,['n'],0,left,['3'],3,947,[0.06515522],10,44,hard,minus,dotcolour,beta,46,18,V,L,
224,98,14,5,1,33,47,901,['n'],1,right,['8'],4,83,[-0.05987421],57,47,medium,minus,dotcolour,beta,46,18,V,L,
225,99,15,5,1,44,36,851,['c'],1,left,['9'],5,93,[0.11225151],97,44,hard,minus,dotcolour,beta,46,18,V,L,
226,100,16,5,1,47,33,750,['n'],0,left,['9'],5,181,[-0.09862459],86,47,medium,minus,dotcolour,beta,46,18,V,L,
227,101,17,5,1,44,36,600,['c'],1,left,['8'],4,127,[0.03891616],30,44,hard,minus,dotcolour,beta,46,18,V,L,
228,102,18,5,1,33,47,584,['n'],1,right,['9'],5,101,[-0.06106574],58,47,medium,minus,dotcolour,beta,46,18,V,L,
229,103,19,5,1,53,27,633,['c'],1,left,['9'],5,88,[0.08499848],86,53,easy,minus,dotcolour,beta,46,18,V,L,
230,104,20,5,1,27,53,417,['n'],1,right,['8'],4,141,[-0.09745807],88,53,easy,minus,dotcolour,beta,46,18,V,L,
231,105,21,5,1,53,27,351,['n'],0,left,['9'],5,98,[-0.0914673],89,53,easy,minus,dotcolour,beta,46,18,V,L,
232,106,22,5,1,53,27,534,['n'],0,left,['8'],4,123,[-0.08536508],82,53,easy,minus,dotcolour,beta,46,18,V,L,
233,107,23,5,1,33,47,633,['n'],1,right,['0'],6,197,[-0.14849849],98,47,medium,minus,dotcolour,beta,46,18,V,L,
234,108,24,5,1,36,44,584,['n'],1,right,['9'],5,103,[-0.07140569],71,44,hard,minus,dotcolour,beta,46,18,V,L,
235,109,25,5,1,33,47,567,['n'],1,right,['9'],5,134,[-0.09421278],87,47,medium,minus,dotcolour,beta,46,18,V,L,
236,110,26,5,1,27,53,567,['n'],1,right,['9'],5,91,[-0.05588803],50,53,easy,minus,dotcolour,beta,46,18,V,L,
237,111,27,5,1,27,53,733,['n'],1,right,['0'],6,204,[-0.02628898],24,53,easy,minus,dotcolour,beta,46,18,V,L,
238,112,28,5,1,33,47,568,['n'],1,right,['9'],5,317,[-0.03026125],31,47,medium,minus,dotcolour,beta,46,18,V,L,
239,113,29,5,1,44,36,800,['c'],1,left,['9'],5,162,[0.09686841],86,44,hard,minus,dotcolour,beta,46,18,V,L,
240,114,30,5,1,27,53,567,['n'],1,right,['8'],4,86,[-0.07680027],79,53,easy,minus,dotcolour,beta,46,18,V,L,
241,115,31,5,1,53,27,618,['c'],1,left,['9'],5,179,[0.09551615],85,53,easy,minus,dotcolour,beta,46,18,V,L,
242,116,32,5,1,27,53,567,['n'],1,right,['8'],4,183,[-0.13709878],97,53,easy,minus,dotcolour,beta,46,18,V,L,
243,117,33,5,1,27,53,633,['c'],0,right,['9'],5,95,[0.08680725],86,53,easy,minus,dotcolour,beta,46,18,V,L,
244,118,34,5,1,33,47,1317,['n'],1,right,['9'],5,137,[-0.0481992],41,47,medium,minus,dotcolour,beta,46,18,V,L,
245,119,35,5,1,44,36,651,['n'],0,left,['9'],5,106,[-0.05179988],45,44,hard,minus,dotcolour,beta,46,18,V,L,
246,120,36,5,1,47,33,1083,['n'],0,left,['8'],4,188,[-0.10588413],89,47,medium,minus,dotcolour,beta,46,18,V,L,
247,121,37,5,1,36,44,618,['n'],1,right,['9'],5,196,[-0.0712083],65,44,hard,minus,dotcolour,beta,46,18,V,L,
248,122,38,5,1,47,33,1184,['c'],1,left,['8'],4,198,[0.08554148],77,47,medium,minus,dotcolour,beta,46,18,V,L,
249,123,39,5,1,47,33,683,['n'],0,left,['9'],5,164,[-0.05385431],48,47,medium,minus,dotcolour,beta,46,18,V,L,
250,124,40,5,1,33,47,717,['n'],1,right,['9'],5,18,[-0.06409158],76,47,medium,minus,dotcolour,beta,46,18,V,L,
251,125,41,5,1,53,27,617,['n'],0,left,['9'],5,106,[-0.11786513],97,53,easy,minus,dotcolour,beta,46,18,V,L,
252,0,0,6,2,27,53,1485,['n'],1,right,['9'],5,135,[-0.09665036],100,53,easy,plus,dotcolour,beta,46,18,V,L,
253,1,1,6,2,53,27,1085,['c'],1,left,['8'],4,152,[0.09202633],100,53,easy,plus,dotcolour,beta,46,18,V,L,
254,2,2,6,2,44,36,617,['n'],0,left,['8'],4,186,[-0.039965],98,44,hard,plus,dotcolour,beta,46,18,V,L,
255,3,3,6,2,44,36,651,['n'],0,left,['8'],4,146,[-0.03088902],98,44,hard,plus,dotcolour,beta,46,18,V,L,
256,4,4,6,2,27,53,484,['n'],1,right,['9'],5,194,[-0.04922827],99,53,easy,plus,dotcolour,beta,46,18,V,L,
257,5,5,6,2,47,33,567,['n'],0,left,['9'],5,148,[-0.03511681],99,47,medium,plus,dotcolour,beta,46,18,V,L,
258,6,6,6,2,44,36,685,['n'],0,left,['8'],4,125,[-0.09020532],100,44,hard,plus,dotcolour,beta,46,18,V,L,
259,7,7,6,2,33,47,701,['n'],1,right,['9'],5,156,[-0.09718867],100,47,medium,plus,dotcolour,beta,46,18,V,L,
260,8,8,6,2,27,53,601,['n'],1,right,['0'],6,247,[-0.13167142],100,53,easy,plus,dotcolour,beta,46,18,V,L,
261,9,9,6,2,33,47,1233,['n'],1,right,['8'],4,182,[-0.07862715],100,47,medium,plus,dotcolour,beta,46,18,V,L,
262,10,10,6,2,53,27,700,['c'],1,left,['9'],5,140,[0.14407324],100,53,easy,plus,dotcolour,beta,46,18,V,L,
263,11,11,6,2,53,27,551,['c'],1,left,['9'],5,80,[0.1014113],100,53,easy,plus,dotcolour,beta,46,18,V,L,
264,12,12,6,2,33,47,616,['n'],1,right,['8'],4,191,[-0.1174522],100,47,medium,plus,dotcolour,beta,46,18,V,L,
265,13,13,6,2,27,53,700,['n'],1,right,['0'],6,308,[-0.04732915],97,53,easy,plus,dotcolour,beta,46,18,V,L,
266,14,14,6,2,53,27,617,['c'],1,left,['8'],4,137,[0.05013097],99,53,easy,plus,dotcolour,beta,46,18,V,L,
267,15,15,6,2,33,47,667,['n'],1,right,['9'],5,114,[-0.07056076],100,47,medium,plus,dotcolour,beta,46,18,V,L,
268,16,16,6,2,27,53,867,['n'],1,right,['9'],5,99,[-0.1034163],100,53,easy,plus,dotcolour,beta,46,18,V,L,
269,17,17,6,2,47,33,551,['n'],0,left,['9'],5,106,[-0.07371914],100,47,medium,plus,dotcolour,beta,46,18,V,L,
270,18,18,6,2,33,47,534,['n'],1,right,['9'],5,123,[-0.12696847],100,47,medium,plus,dotcolour,beta,46,18,V,L,
271,19,19,6,2,33,47,535,['n'],1,right,['9'],5,144,[-0.07910559],100,47,medium,plus,dotcolour,beta,46,18,V,L,
272,20,20,6,2,27,53,568,['n'],1,right,['9'],5,158,[-0.12300545],100,53,easy,plus,dotcolour,beta,46,18,V,L,
273,21,21,6,2,47,33,1167,['c'],1,left,['9'],5,153,[0.0993015],100,47,medium,plus,dotcolour,beta,46,18,V,L,
274,22,22,6,2,36,44,567,['n'],1,right,['9'],5,150,[-0.14338062],100,44,hard,plus,dotcolour,beta,46,18,V,L,
275,23,23,6,2,44,36,850,['c'],1,left,['8'],4,160,[0.07466896],100,44,hard,plus,dotcolour,beta,46,18,V,L,
276,24,24,6,2,36,44,550,['n'],1,right,['9'],5,100,[-0.05905791],100,44,hard,plus,dotcolour,beta,46,18,V,L,
277,25,25,6,2,36,44,582,['n'],1,right,['9'],5,122,[-0.0651984],100,44,hard,plus,dotcolour,beta,46,18,V,L,
278,26,26,6,2,53,27,651,['c'],1,left,['9'],5,108,[0.05429677],100,53,easy,plus,dotcolour,beta,46,18,V,L,
279,27,27,6,2,36,44,618,['n'],1,right,['9'],5,96,[-0.09277376],100,44,hard,plus,dotcolour,beta,46,18,V,L,
280,28,28,6,2,47,33,450,['c'],1,left,['9'],5,131,[0.06492405],100,47,medium,plus,dotcolour,beta,46,18,V,L,
281,29,29,6,2,44,36,767,['n'],0,left,['8'],4,296,[-0.06300262],98,44,hard,plus,dotcolour,beta,46,18,V,L,
282,30,30,6,2,53,27,668,['c'],1,left,['9'],5,131,[0.09707282],100,53,easy,plus,dotcolour,beta,46,18,V,L,
283,31,31,6,2,47,33,551,['n'],0,left,['3'],3,969,[-0.0320242],83,47,medium,plus,dotcolour,beta,46,18,V,L,
284,32,32,6,2,53,27,1116,['c'],1,left,['9'],5,198,[0.06319334],99,53,easy,plus,dotcolour,beta,46,18,V,L,
285,33,33,6,2,33,47,1015,['n'],1,right,['8'],4,144,[-0.05704573],100,47,medium,plus,dotcolour,beta,46,18,V,L,
286,34,34,6,2,27,53,602,['n'],1,right,['9'],5,90,[-0.04713712],100,53,easy,plus,dotcolour,beta,46,18,V,L,
287,35,35,6,2,36,44,950,['n'],1,right,['8'],4,146,[-0.07261794],100,44,hard,plus,dotcolour,beta,46,18,V,L,
288,36,36,6,2,47,33,1018,['c'],1,left,['0'],6,246,[-0.00468844],86,47,medium,plus,dotcolour,beta,46,18,V,L,
289,37,37,6,2,44,36,1134,['n'],0,left,['8'],4,607,[-0.08882843],97,44,hard,plus,dotcolour,beta,46,18,V,L,
290,38,38,6,2,47,33,1100,['c'],1,left,['8'],4,236,[-0.01426968],82,47,medium,plus,dotcolour,beta,46,18,V,L,
291,39,39,6,2,44,36,1667,['n'],0,left,['8'],4,106,[-0.07652481],100,44,hard,plus,dotcolour,beta,46,18,V,L,
292,40,40,6,2,36,44,917,['n'],1,right,['9'],5,89,[-0.09677326],100,44,hard,plus,dotcolour,beta,46,18,V,L,
293,41,41,6,2,36,44,1768,['n'],1,right,['8'],4,4961,[-0.14501382],83,44,hard,plus,dotcolour,beta,46,18,V,L,
294,42,0,7,2,47,33,702,['c'],1,left,['9'],5,150,[0.05449171],99,47,medium,plus,dotcolour,beta,46,18,V,L,
295,43,1,7,2,47,33,568,['n'],0,left,['9'],5,123,[-0.12143362],100,47,medium,plus,dotcolour,beta,46,18,V,L,
296,44,2,7,2,27,53,749,['n'],1,right,['8'],4,153,[-0.08778195],100,53,easy,plus,dotcolour,beta,46,18,V,L,
297,45,3,7,2,44,36,734,['n'],0,left,['9'],5,294,[-0.15157072],100,44,hard,plus,dotcolour,beta,46,18,V,L,
298,46,4,7,2,33,47,617,['n'],1,right,['9'],5,123,[-0.07825119],100,47,medium,plus,dotcolour,beta,46,18,V,L,
299,47,5,7,2,44,36,634,['n'],0,left,['8'],4,174,[0.01819431],83,44,hard,plus,dotcolour,beta,46,18,V,L,
300,48,6,7,2,27,53,1084,['n'],1,right,['0'],6,212,[-0.17194134],100,53,easy,plus,dotcolour,beta,46,18,V,L,
301,49,7,7,2,27,53,616,['n'],1,right,['9'],5,165,[-0.05385204],99,53,easy,plus,dotcolour,beta,46,18,V,L,
302,50,8,7,2,33,47,584,['n'],1,right,['9'],5,144,[-0.06107989],100,47,medium,plus,dotcolour,beta,46,18,V,L,
303,51,9,7,2,27,53,517,['n'],1,right,['9'],5,199,[-0.04579669],98,53,easy,plus,dotcolour,beta,46,18,V,L,
304,52,10,7,2,36,44,634,['n'],1,right,['9'],5,95,[-0.14798768],100,44,hard,plus,dotcolour,beta,46,18,V,L,
305,53,11,7,2,33,47,500,['n'],1,right,['8'],4,265,[-0.07262133],99,47,medium,plus,dotcolour,beta,46,18,V,L,
306,54,12,7,2,33,47,600,['n'],1,right,['9'],5,103,[-0.07417645],100,47,medium,plus,dotcolour,beta,46,18,V,L,
307,55,13,7,2,53,27,867,['c'],1,left,['9'],5,497,[0.10776573],98,53,easy,plus,dotcolour,beta,46,18,V,L,
308,56,14,7,2,33,47,601,['n'],1,right,['9'],5,127,[-0.06144914],100,47,medium,plus,dotcolour,beta,46,18,V,L,
309,57,15,7,2,47,33,936,['c'],1,left,['9'],5,453,[0.12970947],99,47,medium,plus,dotcolour,beta,46,18,V,L,
310,58,16,7,2,27,53,617,['n'],1,right,['9'],5,139,[-0.07160003],100,53,easy,plus,dotcolour,beta,46,18,V,L,
311,59,17,7,2,47,33,751,['c'],1,left,['9'],5,161,[0.14072646],100,47,medium,plus,dotcolour,beta,46,18,V,L,
312,60,18,7,2,36,44,684,['n'],1,right,['9'],5,136,[-0.03888975],99,44,hard,plus,dotcolour,beta,46,18,V,L,
313,61,19,7,2,27,53,834,['n'],1,right,['9'],5,147,[-0.1041568],100,53,easy,plus,dotcolour,beta,46,18,V,L,
314,62,20,7,2,33,47,601,['n'],1,right,['9'],5,158,[-0.13482266],100,47,medium,plus,dotcolour,beta,46,18,V,L,
315,63,21,7,2,33,47,600,['n'],1,right,['9'],5,97,[-0.04966271],100,47,medium,plus,dotcolour,beta,46,18,V,L,
316,64,22,7,2,53,27,634,['c'],1,left,['9'],5,125,[0.07283441],100,53,easy,plus,dotcolour,beta,46,18,V,L,
317,65,23,7,2,36,44,701,['n'],1,right,['9'],5,117,[-0.10503699],100,44,hard,plus,dotcolour,beta,46,18,V,L,
318,66,24,7,2,36,44,534,['n'],1,right,['8'],4,156,[-0.07175696],100,44,hard,plus,dotcolour,beta,46,18,V,L,
319,67,25,7,2,47,33,1334,['n'],0,left,['8'],4,138,[-0.06280209],100,47,medium,plus,dotcolour,beta,46,18,V,L,
320,68,26,7,2,44,36,651,['c'],1,left,['9'],5,196,[0.0709992],99,44,hard,plus,dotcolour,beta,46,18,V,L,
321,69,27,7,2,44,36,650,['c'],1,left,['9'],5,122,[0.07793947],100,44,hard,plus,dotcolour,beta,46,18,V,L,
322,70,28,7,2,53,27,483,['n'],0,left,['8'],4,140,[-0.08026801],100,53,easy,plus,dotcolour,beta,46,18,V,L,
323,71,29,7,2,44,36,668,['n'],0,left,['9'],5,292,[-0.07742543],99,44,hard,plus,dotcolour,beta,46,18,V,L,
324,72,30,7,2,47,33,750,['n'],0,left,['0'],6,155,[-0.06339631],100,47,medium,plus,dotcolour,beta,46,18,V,L,
325,73,31,7,2,53,27,751,['c'],1,left,['0'],6,112,[0.10056306],100,53,easy,plus,dotcolour,beta,46,18,V,L,
326,74,32,7,2,53,27,550,['c'],1,left,['0'],6,143,[0.03623643],99,53,easy,plus,dotcolour,beta,46,18,V,L,
327,75,33,7,2,36,44,618,['n'],1,right,['9'],5,209,[-0.18349986],100,44,hard,plus,dotcolour,beta,46,18,V,L,
328,76,34,7,2,53,27,634,['c'],1,left,['9'],5,202,[0.10501185],100,53,easy,plus,dotcolour,beta,46,18,V,L,
329,77,35,7,2,27,53,435,['n'],1,right,['8'],4,121,[-0.05729334],100,53,easy,plus,dotcolour,beta,46,18,V,L,
330,78,36,7,2,47,33,433,['c'],1,left,['9'],5,148,[0.13867375],100,47,medium,plus,dotcolour,beta,46,18,V,L,
331,79,37,7,2,44,36,535,['c'],1,left,['8'],4,170,[0.08125609],100,44,hard,plus,dotcolour,beta,46,18,V,L,
332,80,38,7,2,44,36,550,['n'],0,left,['8'],4,102,[-0.12821822],100,44,hard,plus,dotcolour,beta,46,18,V,L,
333,81,39,7,2,53,27,683,['c'],1,left,['9'],5,168,[0.06267348],99,53,easy,plus,dotcolour,beta,46,18,V,L,
334,82,40,7,2,36,44,584,['n'],1,right,['9'],5,75,[-0.08406596],100,44,hard,plus,dotcolour,beta,46,18,V,L,
335,83,41,7,2,36,44,534,['n'],1,right,['9'],5,60,[-0.06902712],100,44,hard,plus,dotcolour,beta,46,18,V,L,
336,84,0,8,2,36,44,567,['n'],1,right,['9'],5,128,[-0.08272298],100,44,hard,plus,dotcolour,beta,46,18,V,L,
337,85,1,8,2,53,27,651,['c'],1,left,['9'],5,178,[0.10347717],100,53,easy,plus,dotcolour,beta,46,18,V,L,
338,86,2,8,2,33,47,467,['n'],1,right,['8'],4,161,[-0.05711662],99,47,medium,plus,dotcolour,beta,46,18,V,L,
339,87,3,8,2,36,44,517,['n'],1,right,['9'],5,39,[-0.09751424],100,44,hard,plus,dotcolour,beta,46,18,V,L,
340,88,4,8,2,36,44,501,['n'],1,right,['9'],5,66,[-0.0827657],100,44,hard,plus,dotcolour,beta,46,18,V,L,
341,89,5,8,2,27,53,468,['n'],1,right,['9'],5,62,[-0.07282924],100,53,easy,plus,dotcolour,beta,46,18,V,L,
342,90,6,8,2,27,53,500,['n'],1,right,['9'],5,65,[-0.10165809],100,53,easy,plus,dotcolour,beta,46,18,V,L,
343,91,7,8,2,33,47,485,['n'],1,right,['9'],5,126,[-0.08800845],100,47,medium,plus,dotcolour,beta,46,18,V,L,
344,92,8,8,2,53,27,634,['c'],1,left,['9'],5,159,[0.08429605],100,53,easy,plus,dotcolour,beta,46,18,V,L,
345,93,9,8,2,27,53,651,['n'],1,right,['9'],5,120,[-0.05438191],100,53,easy,plus,dotcolour,beta,46,18,V,L,
346,94,10,8,2,47,33,833,['n'],0,left,['9'],5,307,[-0.0949277],99,47,medium,plus,dotcolour,beta,46,18,V,L,
347,95,11,8,2,47,33,450,['n'],0,left,['9'],5,86,[-0.0662628],100,47,medium,plus,dotcolour,beta,46,18,V,L,
348,96,12,8,2,33,47,483,['n'],1,right,['9'],5,1,[-0.07541793],100,47,medium,plus,dotcolour,beta,46,18,V,L,
349,97,13,8,2,36,44,500,['n'],1,right,['9'],5,125,[-0.12621574],100,44,hard,plus,dotcolour,beta,46,18,V,L,
350,98,14,8,2,33,47,534,['n'],1,right,['9'],5,69,[-0.10193067],100,47,medium,plus,dotcolour,beta,46,18,V,L,
351,99,15,8,2,36,44,651,['n'],1,right,['0'],6,113,[-0.01558348],98,44,hard,plus,dotcolour,beta,46,18,V,L,
352,100,16,8,2,44,36,600,['n'],0,left,['0'],6,55,[-0.06946393],100,44,hard,plus,dotcolour,beta,46,18,V,L,
353,101,17,8,2,27,53,434,['n'],1,right,['0'],6,60,[-0.12944741],100,53,easy,plus,dotcolour,beta,46,18,V,L,
354,102,18,8,2,53,27,502,['n'],0,left,['2'],2,1431,[0.13239879],24,53,easy,plus,dotcolour,beta,46,18,V,L,
355,103,19,8,2,47,33,567,['n'],0,left,['9'],5,95,[-0.05876731],100,47,medium,plus,dotcolour,beta,46,18,V,L,
356,104,20,8,2,53,27,768,['c'],1,left,['9'],5,174,[0.07025056],100,53,easy,plus,dotcolour,beta,46,18,V,L,
357,105,21,8,2,33,47,1150,['n'],1,right,['9'],5,194,[-0.07036105],99,47,medium,plus,dotcolour,beta,46,18,V,L,
358,106,22,8,2,44,36,1033,['n'],0,left,['8'],4,146,[-0.1001179],100,44,hard,plus,dotcolour,beta,46,18,V,L,
359,107,23,8,2,33,47,1450,['n'],1,right,['8'],4,444,[-0.10652275],99,47,medium,plus,dotcolour,beta,46,18,V,L,
360,108,24,8,2,44,36,917,['c'],1,left,['9'],5,175,[0.10014559],100,44,hard,plus,dotcolour,beta,46,18,V,L,
361,109,25,8,2,36,44,816,['n'],1,right,['9'],5,264,[-0.06864843],99,44,hard,plus,dotcolour,beta,46,18,V,L,
362,110,26,8,2,27,53,601,['n'],1,right,['0'],6,118,[-0.10965832],100,53,easy,plus,dotcolour,beta,46,18,V,L,
363,111,27,8,2,44,36,667,['c'],1,left,['9'],5,137,[0.08024772],100,44,hard,plus,dotcolour,beta,46,18,V,L,
364,112,28,8,2,47,33,817,['n'],0,left,['9'],5,100,[-0.09948127],100,47,medium,plus,dotcolour,beta,46,18,V,L,
365,113,29,8,2,47,33,766,['c'],1,left,['9'],5,139,[0.18203738],100,47,medium,plus,dotcolour,beta,46,18,V,L,
366,114,30,8,2,27,53,551,['n'],1,right,['9'],5,152,[-0.10753851],100,53,easy,plus,dotcolour,beta,46,18,V,L,
367,115,31,8,2,44,36,783,['c'],1,left,['9'],5,117,[0.12181118],100,44,hard,plus,dotcolour,beta,46,18,V,L,
368,116,32,8,2,33,47,633,['n'],1,right,['9'],5,128,[-0.0850992],100,47,medium,plus,dotcolour,beta,46,18,V,L,
369,117,33,8,2,53,27,834,['c'],1,left,['9'],5,162,[0.11382865],100,53,easy,plus,dotcolour,beta,46,18,V,L,
370,118,34,8,2,47,33,735,['n'],0,left,['8'],4,190,[0.03357386],71,47,medium,plus,dotcolour,beta,46,18,V,L,
371,119,35,8,2,44,36,601,['n'],0,left,['9'],5,88,[-0.07636481],100,44,hard,plus,dotcolour,beta,46,18,V,L,
372,120,36,8,2,44,36,1000,['c'],1,left,['8'],4,157,[0.08876102],100,44,hard,plus,dotcolour,beta,46,18,V,L,
373,121,37,8,2,36,44,517,['n'],1,right,['9'],5,116,[-0.10418859],100,44,hard,plus,dotcolour,beta,46,18,V,L,
374,122,38,8,2,27,53,584,['n'],1,right,['9'],5,137,[-0.16883805],100,53,easy,plus,dotcolour,beta,46,18,V,L,
375,123,39,8,2,47,33,684,['c'],1,left,['9'],5,178,[0.0669675],99,47,medium,plus,dotcolour,beta,46,18,V,L,
376,124,40,8,2,53,27,633,['n'],0,left,['8'],4,186,[-0.04527406],99,53,easy,plus,dotcolour,beta,46,18,V,L,
377,125,41,8,2,53,27,617,['c'],1,left,['9'],5,203,[0.11889421],100,53,easy,plus,dotcolour,beta,46,18,V,L,
378,0,0,9,3,47,33,753,['n'],0,left,['9'],5,85,[-0.04189873],30,47,medium,minus,dotcolour,beta,46,18,V,L,
379,1,1,9,3,36,44,700,['c'],0,right,['9'],5,247,[0.03321784],31,44,hard,minus,dotcolour,beta,46,18,V,L,
380,2,2,9,3,53,27,1000,['c'],1,left,['8'],4,247,[0.09741309],82,53,easy,minus,dotcolour,beta,46,18,V,L,
381,3,3,9,3,53,27,667,['c'],1,left,['9'],5,204,[0.06691631],61,53,easy,minus,dotcolour,beta,46,18,V,L,
382,4,4,9,3,53,27,567,['c'],1,left,['9'],5,309,[0.08061221],69,53,easy,minus,dotcolour,beta,46,18,V,L,
383,5,5,9,3,33,47,700,['n'],1,right,['8'],4,111,[-0.07096037],70,47,medium,minus,dotcolour,beta,46,18,V,L,
384,6,6,9,3,36,44,767,['c'],0,right,['8'],4,236,[0.08468406],75,44,hard,minus,dotcolour,beta,46,18,V,L,
385,7,7,9,3,27,53,968,['n'],1,right,['8'],4,141,[-0.07274242],70,53,easy,minus,dotcolour,beta,46,18,V,L,
386,8,8,9,3,33,47,534,['c'],0,right,['3'],3,659,[0.07888816],63,47,medium,minus,dotcolour,beta,46,18,V,L,
387,9,9,9,3,36,44,601,['n'],1,right,['8'],4,98,[-0.11148826],96,44,hard,minus,dotcolour,beta,46,18,V,L,
388,10,10,9,3,44,36,616,['c'],1,left,['9'],5,103,[0.08443551],83,44,hard,minus,dotcolour,beta,46,18,V,L,
389,11,11,9,3,36,44,633,['n'],1,right,['9'],5,122,[-0.07298195],71,44,hard,minus,dotcolour,beta,46,18,V,L,
390,12,12,9,3,53,27,951,['c'],1,left,['9'],5,160,[0.06486543],60,53,easy,minus,dotcolour,beta,46,18,V,L,
391,13,13,9,3,47,33,733,['c'],1,left,['9'],5,126,[0.09245336],87,47,medium,minus,dotcolour,beta,46,18,V,L,
392,14,14,9,3,36,44,633,['n'],1,right,['9'],5,154,[-0.07741524],73,44,hard,minus,dotcolour,beta,46,18,V,L,
393,15,15,9,3,47,33,650,['c'],1,left,['9'],5,210,[0.14146773],97,47,medium,minus,dotcolour,beta,46,18,V,L,
394,16,16,9,3,53,27,618,['c'],1,left,['9'],5,162,[0.04716103],41,53,easy,minus,dotcolour,beta,46,18,V,L,
395,17,17,9,3,33,47,783,['n'],1,right,['9'],5,151,[-0.08681921],81,47,medium,minus,dotcolour,beta,46,18,V,L,
396,18,18,9,3,27,53,652,['n'],1,right,['9'],5,79,[-0.08334047],86,53,easy,minus,dotcolour,beta,46,18,V,L,
397,19,19,9,3,47,33,684,['c'],1,left,['9'],5,89,[0.1314837],99,47,medium,minus,dotcolour,beta,46,18,V,L,
398,20,20,9,3,36,44,518,['n'],1,right,['8'],4,122,[-0.05716972],52,44,hard,minus,dotcolour,beta,46,18,V,L,
399,21,21,9,3,33,47,583,['c'],0,right,['9'],5,151,[0.09313102],85,47,medium,minus,dotcolour,beta,46,18,V,L,
400,22,22,9,3,47,33,1267,['c'],1,left,['9'],5,160,[0.0785059],74,47,medium,minus,dotcolour,beta,46,18,V,L,
401,23,23,9,3,36,44,1168,['n'],1,right,['8'],4,43,[-0.10384652],99,44,hard,minus,dotcolour,beta,46,18,V,L,
402,24,24,9,3,44,36,1684,['c'],1,left,['3'],3,960,[0.2648523],98,44,hard,minus,dotcolour,beta,46,18,V,L,
403,25,25,9,3,33,47,685,['n'],1,right,['9'],5,167,[-0.08049175],75,47,medium,minus,dotcolour,beta,46,18,V,L,
404,26,26,9,3,44,36,617,['c'],1,left,['9'],5,161,[0.11252166],93,44,hard,minus,dotcolour,beta,46,18,V,L,
405,27,27,9,3,47,33,1034,['n'],0,left,['8'],4,418,[0.01091803],14,47,medium,minus,dotcolour,beta,46,18,V,L,
406,28,28,9,3,27,53,550,['c'],0,right,['2'],2,837,[-0.05017463],11,53,easy,minus,dotcolour,beta,46,18,V,L,
407,29,29,9,3,44,36,934,['c'],1,left,['9'],5,87,[0.07883576],81,44,hard,minus,dotcolour,beta,46,18,V,L,
408,30,30,9,3,33,47,534,['n'],1,right,['0'],6,97,[-0.06741883],66,47,medium,minus,dotcolour,beta,46,18,V,L,
409,31,31,9,3,44,36,600,['n'],0,left,['8'],4,197,[-0.03731286],32,44,hard,minus,dotcolour,beta,46,18,V,L,
410,32,32,9,3,44,36,600,['n'],0,left,['8'],4,191,[-0.05824317],53,44,hard,minus,dotcolour,beta,46,18,V,L,
411,33,33,9,3,53,27,333,['n'],0,left,['8'],4,131,[-0.09367869],87,53,easy,minus,dotcolour,beta,46,18,V,L,
412,34,34,9,3,27,53,767,['n'],1,right,['8'],4,120,[-0.0974474],90,53,easy,minus,dotcolour,beta,46,18,V,L,
413,35,35,9,3,27,53,534,['n'],1,right,['9'],5,71,[-0.10105655],96,53,easy,minus,dotcolour,beta,46,18,V,L,
414,36,36,9,3,44,36,983,['c'],1,left,['9'],5,118,[0.13534518],98,44,hard,minus,dotcolour,beta,46,18,V,L,
415,37,37,9,3,53,27,585,['c'],1,left,['0'],6,196,[0.1214683],94,53,easy,minus,dotcolour,beta,46,18,V,L,
416,38,38,9,3,27,53,650,['n'],1,right,['9'],5,35,[-0.10983718],99,53,easy,minus,dotcolour,beta,46,18,V,L,
417,39,39,9,3,47,33,850,['c'],1,left,['9'],5,89,[0.04575242],36,47,medium,minus,dotcolour,beta,46,18,V,L,
418,40,40,9,3,27,53,601,['n'],1,right,['9'],5,110,[-0.05781377],53,53,easy,minus,dotcolour,beta,46,18,V,L,
419,41,41,9,3,33,47,985,['n'],1,right,['0'],6,212,[-0.06148831],56,47,medium,minus,dotcolour,beta,46,18,V,L,
420,42,0,10,3,33,47,901,['n'],1,right,['9'],5,180,[-0.03038991],26,47,medium,minus,dotcolour,beta,46,18,V,L,
421,43,1,10,3,33,47,484,['n'],1,right,['9'],5,195,[-0.05223275],47,47,medium,minus,dotcolour,beta,46,18,V,L,
422,44,2,10,3,36,44,634,['c'],0,right,['9'],5,122,[0.0765483],75,44,hard,minus,dotcolour,beta,46,18,V,L,
423,45,3,10,3,47,33,934,['c'],1,left,['8'],4,202,[0.03487446],30,47,medium,minus,dotcolour,beta,46,18,V,L,
424,46,4,10,3,44,36,568,['n'],0,left,['9'],5,156,[-0.11072581],93,44,hard,minus,dotcolour,beta,46,18,V,L,
425,47,5,10,3,36,44,566,['n'],1,right,['8'],4,145,[-0.03657541],29,44,hard,minus,dotcolour,beta,46,18,V,L,
426,48,6,10,3,33,47,567,['n'],1,right,['9'],5,141,[-0.10122341],90,47,medium,minus,dotcolour,beta,46,18,V,L,
427,49,7,10,3,44,36,850,['c'],1,left,['9'],5,134,[0.08908553],84,44,hard,minus,dotcolour,beta,46,18,V,L,
428,50,8,10,3,27,53,733,['n'],1,right,['8'],4,197,[-0.16631025],99,53,easy,minus,dotcolour,beta,46,18,V,L,
429,51,9,10,3,53,27,1151,['c'],1,left,['9'],5,233,[0.15041341],97,53,easy,minus,dotcolour,beta,46,18,V,L,
430,52,10,10,3,33,47,616,['n'],1,right,['9'],5,159,[-0.07215466],68,47,medium,minus,dotcolour,beta,46,18,V,L,
431,53,11,10,3,27,53,567,['n'],1,right,['9'],5,179,[-0.12002907],94,53,easy,minus,dotcolour,beta,46,18,V,L,
432,54,12,10,3,47,33,1117,['n'],0,left,['8'],4,249,[-0.11308142],89,47,medium,minus,dotcolour,beta,46,18,V,L,
433,55,13,10,3,33,47,584,['n'],1,right,['9'],5,185,[-0.14784277],98,47,medium,minus,dotcolour,beta,46,18,V,L,
434,56,14,10,3,44,36,618,['n'],0,left,['8'],4,138,[-0.11757975],95,44,hard,minus,dotcolour,beta,46,18,V,L,
435,57,15,10,3,47,33,1016,['c'],1,left,['8'],4,109,[0.10608035],94,47,medium,minus,dotcolour,beta,46,18,V,L,
436,58,16,10,3,27,53,635,['n'],1,right,['8'],4,121,[-0.1121877],95,53,easy,minus,dotcolour,beta,46,18,V,L,
437,59,17,10,3,53,27,633,['c'],1,left,['9'],5,244,[-0.00571741],10,53,easy,minus,dotcolour,beta,46,18,V,L,
438,60,18,10,3,44,36,517,['n'],0,left,['8'],4,78,[-0.07984984],83,44,hard,minus,dotcolour,beta,46,18,V,L,
439,61,19,10,3,36,44,566,['n'],1,right,['8'],4,142,[-0.07306969],70,44,hard,minus,dotcolour,beta,46,18,V,L,
440,62,20,10,3,44,36,684,['n'],0,left,['8'],4,158,[-0.00434444],9,44,hard,minus,dotcolour,beta,46,18,V,L,
441,63,21,10,3,36,44,716,['n'],1,right,['9'],5,124,[0.00490048],4,44,hard,minus,dotcolour,beta,46,18,V,L,
442,64,22,10,3,44,36,1117,['c'],1,left,['9'],5,292,[0.11735217],89,44,hard,minus,dotcolour,beta,46,18,V,L,
443,65,23,10,3,33,47,651,['n'],1,right,['9'],5,110,[-0.06473359],62,47,medium,minus,dotcolour,beta,46,18,V,L,
444,66,24,10,3,36,44,600,['n'],1,right,['8'],4,125,[-0.09924771],90,44,hard,minus,dotcolour,beta,46,18,V,L,
445,67,25,10,3,53,27,635,['c'],1,left,['9'],5,198,[0.02385377],22,53,easy,minus,dotcolour,beta,46,18,V,L,
446,68,26,10,3,47,33,733,['n'],0,left,['9'],5,330,[-0.01011739],19,47,medium,minus,dotcolour,beta,46,18,V,L,
447,69,27,10,3,27,53,650,['n'],1,right,['9'],5,92,[-0.06097582],58,53,easy,minus,dotcolour,beta,46,18,V,L,
448,70,28,10,3,47,33,801,['c'],1,left,['9'],5,410,[0.09583392],76,47,medium,minus,dotcolour,beta,46,18,V,L,
449,71,29,10,3,33,47,835,['n'],1,right,['8'],4,97,[-0.04974155],42,47,medium,minus,dotcolour,beta,46,18,V,L,
450,72,30,10,3,44,36,534,['n'],0,left,['9'],5,249,[0.00308936],11,44,hard,minus,dotcolour,beta,46,18,V,L,
451,73,31,10,3,27,53,434,['n'],1,right,['9'],5,151,[-0.07268406],69,53,easy,minus,dotcolour,beta,46,18,V,L,
452,74,32,10,3,53,27,768,['c'],1,left,['9'],5,115,[0.12406175],97,53,easy,minus,dotcolour,beta,46,18,V,L,
453,75,33,10,3,53,27,801,['n'],0,left,['0'],6,224,[-0.01846226],20,53,easy,minus,dotcolour,beta,46,18,V,L,
454,76,34,10,3,53,27,1183,['c'],1,left,['9'],5,585,[0.08024512],64,53,easy,minus,dotcolour,beta,46,18,V,L,
455,77,35,10,3,47,33,634,['c'],1,left,['9'],5,113,[0.06801197],66,47,medium,minus,dotcolour,beta,46,18,V,L,
456,78,36,10,3,36,44,634,['n'],1,right,['8'],4,21,[-0.071998],89,44,hard,minus,dotcolour,beta,46,18,V,L,
457,79,37,10,3,53,27,517,['c'],1,left,['9'],5,104,[0.11263509],96,53,easy,minus,dotcolour,beta,46,18,V,L,
458,80,38,10,3,47,33,650,['c'],1,left,['9'],5,76,[0.10475506],96,47,medium,minus,dotcolour,beta,46,18,V,L,
459,81,39,10,3,27,53,485,['n'],1,right,['9'],5,151,[-0.04722768],40,53,easy,minus,dotcolour,beta,46,18,V,L,
460,82,40,10,3,27,53,634,['n'],1,right,['9'],5,112,[-0.0829324],81,53,easy,minus,dotcolour,beta,46,18,V,L,
461,83,41,10,3,36,44,567,['n'],1,right,['9'],5,38,[-0.07229273],82,44,hard,minus,dotcolour,beta,46,18,V,L,
462,84,0,11,3,44,36,617,['n'],0,left,['9'],5,169,[-0.05526535],50,44,hard,minus,dotcolour,beta,46,18,V,L,
463,85,1,11,3,47,33,834,['c'],1,left,['9'],5,129,[0.05332501],47,47,medium,minus,dotcolour,beta,46,18,V,L,
464,86,2,11,3,36,44,600,['n'],1,right,['9'],5,158,[-0.10417711],90,44,hard,minus,dotcolour,beta,46,18,V,L,
465,87,3,11,3,47,33,535,['c'],1,left,['9'],5,114,[0.12151383],97,47,medium,minus,dotcolour,beta,46,18,V,L,
466,88,4,11,3,47,33,583,['c'],1,left,['8'],4,464,[0.13895916],90,47,medium,minus,dotcolour,beta,46,18,V,L,
467,89,5,11,3,27,53,666,['n'],1,right,['9'],5,196,[-0.0165818],17,53,easy,minus,dotcolour,beta,46,18,V,L,
468,90,6,11,3,27,53,749,['n'],1,right,['9'],5,137,[-0.07306612],70,53,easy,minus,dotcolour,beta,46,18,V,L,
469,91,7,11,3,44,36,586,['c'],1,left,['9'],5,188,[0.10986575],91,44,hard,minus,dotcolour,beta,46,18,V,L,
470,92,8,11,3,44,36,767,['n'],0,left,['8'],4,734,[-0.07292494],59,44,hard,minus,dotcolour,beta,46,18,V,L,
471,93,9,11,3,44,36,702,['n'],0,left,['9'],5,143,[-0.08736292],82,44,hard,minus,dotcolour,beta,46,18,V,L,
472,94,10,11,3,27,53,618,['n'],1,right,['9'],5,257,[-0.14758942],96,53,easy,minus,dotcolour,beta,46,18,V,L,
473,95,11,11,3,36,44,468,['n'],1,right,['8'],4,197,[-0.16890433],99,44,hard,minus,dotcolour,beta,46,18,V,L,
474,96,12,11,3,36,44,3534,['n'],1,right,['8'],4,866,[-0.14955483],86,44,hard,minus,dotcolour,beta,46,18,V,L,
