trial,withinphasetrial,withinblocktrial,block,phase,dotsLeft,dotsRight,rt,resp,cor,cresp,conf_press,cj,RTconf,ev,fb,diff,difflevel,condition,task,manip,sub,age,gender,handedness,
0,0,0,0,0,36,44,2733,['n'],1,right,['2'],2,3845,[-0.16963983],74,44,hard,minus,dotcolour,beta,51,19,M,R,
1,1,1,0,0,27,53,1666,['c'],0,right,['0'],6,3016,[-0.52504904],0,53,easy,minus,dotcolour,beta,51,19,M,R,
2,2,2,0,0,36,44,1618,['n'],1,right,['2'],2,1511,[-0.25835738],95,44,hard,minus,dotcolour,beta,51,19,M,R,
3,3,3,0,0,27,53,1567,['c'],0,right,['1'],1,1037,[-0.0119469],23,53,easy,minus,dotcolour,beta,51,19,M,R,
4,4,4,0,0,47,33,1284,['c'],1,left,['9'],5,1601,[0.23901099],93,47,medium,minus,dotcolour,beta,51,19,M,R,
5,5,5,0,0,47,33,1400,['c'],1,left,['0'],6,497,[0.06346729],55,47,medium,minus,dotcolour,beta,51,19,M,R,
6,6,6,0,0,27,53,1034,['c'],0,right,['8'],4,973,[0.04071072],43,53,easy,minus,dotcolour,beta,51,19,M,R,
7,7,7,0,0,53,27,667,['c'],1,left,['0'],6,1125,[0.40816896],100,53,easy,minus,dotcolour,beta,51,19,M,R,
8,8,8,0,0,44,36,1283,['c'],1,left,['9'],5,733,[0.20779696],96,44,hard,minus,dotcolour,beta,51,19,M,R,
9,9,9,0,0,53,27,683,['c'],1,left,['0'],6,342,[0.10713471],83,53,easy,minus,dotcolour,beta,51,19,M,R,
10,10,10,0,0,47,33,1317,['n'],0,left,['2'],2,1277,[0.17837487],2,47,medium,minus,dotcolour,beta,51,19,M,R,
11,11,11,0,0,36,44,1367,['n'],1,right,['0'],6,964,[-0.18685141],92,44,hard,minus,dotcolour,beta,51,19,M,R,
12,12,12,0,0,33,47,1183,['n'],1,right,['0'],6,223,[-0.15965005],98,47,medium,minus,dotcolour,beta,51,19,M,R,
13,13,13,0,0,44,36,867,['c'],1,left,['0'],6,381,[0.06491684],57,44,hard,minus,dotcolour,beta,51,19,M,R,
14,14,14,0,0,44,36,867,['c'],1,left,['9'],5,428,[-0.08739949],2,44,hard,minus,dotcolour,beta,51,19,M,R,
15,15,15,0,0,47,33,683,['c'],1,left,['8'],4,1233,[0.22347384],94,47,medium,minus,dotcolour,beta,51,19,M,R,
16,16,16,0,0,44,36,733,['c'],1,left,['8'],4,227,[0.0899186],79,44,hard,minus,dotcolour,beta,51,19,M,R,
17,17,17,0,0,44,36,583,['c'],1,left,['9'],5,228,[0.01922972],20,44,hard,minus,dotcolour,beta,51,19,M,R,
18,18,18,0,0,36,44,933,['n'],1,right,['0'],6,878,[-0.06320198],54,44,hard,minus,dotcolour,beta,51,19,M,R,
19,19,19,0,0,47,33,816,['c'],1,left,['8'],4,1661,[-0.0363002],22,47,medium,minus,dotcolour,beta,51,19,M,R,
20,20,20,0,0,36,44,1000,['c'],0,right,['3'],3,1106,[-0.09494721],7,44,hard,minus,dotcolour,beta,51,19,M,R,
21,21,21,0,0,33,47,816,['n'],1,right,['9'],5,631,[-0.10673495],76,47,medium,minus,dotcolour,beta,51,19,M,R,
22,22,22,0,0,53,27,1717,['c'],1,left,['9'],5,442,[0.09903247],76,53,easy,minus,dotcolour,beta,51,19,M,R,
23,23,23,0,0,47,33,1216,['c'],1,left,['9'],5,1585,[0.09122375],62,47,medium,minus,dotcolour,beta,51,19,M,R,
24,24,24,0,0,27,53,1283,['c'],0,right,['3'],3,950,[0.00966045],30,53,easy,minus,dotcolour,beta,51,19,M,R,
25,25,25,0,0,27,53,583,['c'],0,right,['0'],6,1635,[-0.08598562],12,53,easy,minus,dotcolour,beta,51,19,M,R,
26,26,26,0,0,44,36,917,['c'],1,left,['0'],6,429,[0.04040943],40,44,hard,minus,dotcolour,beta,51,19,M,R,
27,27,27,0,0,27,53,767,['n'],1,right,['0'],6,246,[-0.10681652],87,53,easy,minus,dotcolour,beta,51,19,M,R,
28,28,28,0,0,44,36,3433,['n'],0,left,['8'],4,2644,[-0.03095592],43,44,hard,minus,dotcolour,beta,51,19,M,R,
29,29,29,0,0,53,27,1450,['c'],1,left,['0'],6,913,[0.21964605],96,53,easy,minus,dotcolour,beta,51,19,M,R,
30,30,30,0,0,33,47,800,['n'],1,right,['0'],6,301,[-0.157091],97,47,medium,minus,dotcolour,beta,51,19,M,R,
31,31,31,0,0,36,44,1666,['c'],0,right,['3'],3,1288,[-0.25760473],1,44,hard,minus,dotcolour,beta,51,19,M,R,
32,32,32,0,0,33,47,1217,['n'],1,right,['9'],5,421,[-0.00185241],18,47,medium,minus,dotcolour,beta,51,19,M,R,
33,33,33,0,0,33,47,700,['n'],1,right,['9'],5,281,[-0.01166315],18,47,medium,minus,dotcolour,beta,51,19,M,R,
34,34,34,0,0,53,27,551,['c'],1,left,['0'],6,593,[0.24154395],99,53,easy,minus,dotcolour,beta,51,19,M,R,
35,35,35,0,0,33,47,683,['c'],0,right,['0'],6,279,[0.11193466],87,47,medium,minus,dotcolour,beta,51,19,M,R,
36,36,36,0,0,47,33,616,['c'],1,left,['0'],6,212,[0.05888717],53,47,medium,minus,dotcolour,beta,51,19,M,R,
37,37,37,0,0,36,44,933,['n'],1,right,['9'],5,215,[-0.04010989],35,44,hard,minus,dotcolour,beta,51,19,M,R,
38,38,38,0,0,53,27,800,['c'],1,left,['0'],6,208,[0.08886201],79,53,easy,minus,dotcolour,beta,51,19,M,R,
39,39,39,0,0,53,27,600,['c'],1,left,['9'],5,233,[0.05340536],48,53,easy,minus,dotcolour,beta,51,19,M,R,
40,40,40,0,0,27,53,734,['n'],1,right,['0'],6,212,[-0.1244277],94,53,easy,minus,dotcolour,beta,51,19,M,R,
41,41,41,0,0,33,47,833,['c'],0,right,['2'],2,1604,[0.05922794],51,47,medium,minus,dotcolour,beta,51,19,M,R,
42,42,0,1,0,44,36,2168,['c'],1,left,['3'],3,816,[0.05990559],52,44,hard,minus,dotcolour,beta,51,19,M,R,
43,43,1,1,0,33,47,817,['n'],1,right,['9'],5,312,[-0.08061978],69,47,medium,minus,dotcolour,beta,51,19,M,R,
44,44,2,1,0,33,47,1234,['n'],1,right,['9'],5,315,[-0.07025459],62,47,medium,minus,dotcolour,beta,51,19,M,R,
45,45,3,1,0,27,53,634,['n'],1,right,['0'],6,366,[-0.11333061],85,53,easy,minus,dotcolour,beta,51,19,M,R,
46,46,4,1,0,44,36,750,['c'],1,left,['0'],6,307,[0.00104914],15,44,hard,minus,dotcolour,beta,51,19,M,R,
47,47,5,1,0,33,47,3167,['c'],0,right,['8'],4,1113,[-0.13559615],4,47,medium,minus,dotcolour,beta,51,19,M,R,
48,48,6,1,0,47,33,867,['c'],1,left,['1'],1,219,[0.18576524],99,47,medium,minus,dotcolour,beta,51,19,M,R,
49,49,7,1,0,27,53,717,['n'],1,right,['0'],6,503,[-0.19634033],97,53,easy,minus,dotcolour,beta,51,19,M,R,
50,50,8,1,0,36,44,1667,['n'],1,right,['9'],5,353,[-0.00271073],17,44,hard,minus,dotcolour,beta,51,19,M,R,
51,51,9,1,0,53,27,751,['c'],1,left,['2'],2,367,[0.12087887],87,53,easy,minus,dotcolour,beta,51,19,M,R,
52,52,10,1,0,33,47,1266,['n'],1,right,['9'],5,631,[-0.13697809],86,47,medium,minus,dotcolour,beta,51,19,M,R,
53,53,11,1,0,36,44,734,['n'],1,right,['8'],4,1081,[-0.2236419],95,44,hard,minus,dotcolour,beta,51,19,M,R,
54,54,12,1,0,36,44,950,['n'],1,right,['8'],4,338,[-0.06596473],58,44,hard,minus,dotcolour,beta,51,19,M,R,
55,55,13,1,0,27,53,1033,['n'],1,right,['0'],6,1084,[-0.24256696],96,53,easy,minus,dotcolour,beta,51,19,M,R,
56,56,14,1,0,47,33,784,['c'],1,left,['3'],3,874,[0.09607106],69,47,medium,minus,dotcolour,beta,51,19,M,R,
57,57,15,1,0,53,27,799,['c'],1,left,['8'],4,984,[0.1588212],87,53,easy,minus,dotcolour,beta,51,19,M,R,
58,58,16,1,0,53,27,2268,['c'],1,left,['9'],5,1183,[0.29563702],98,53,easy,minus,dotcolour,beta,51,19,M,R,
59,59,17,1,0,27,53,1300,['n'],1,right,['0'],6,324,[-0.14132225],94,53,easy,minus,dotcolour,beta,51,19,M,R,
60,60,18,1,0,33,47,2100,['n'],1,right,['8'],4,884,[-0.04173618],43,47,medium,minus,dotcolour,beta,51,19,M,R,
61,61,19,1,0,47,33,685,['c'],1,left,['3'],3,366,[0.12796951],90,47,medium,minus,dotcolour,beta,51,19,M,R,
62,62,20,1,0,44,36,950,['n'],0,left,['2'],2,1971,[0.03578839],24,44,hard,minus,dotcolour,beta,51,19,M,R,
63,63,21,1,0,36,44,800,['n'],1,right,['3'],3,1453,[-0.15972127],83,44,hard,minus,dotcolour,beta,51,19,M,R,
64,64,22,1,0,36,44,1483,['n'],1,right,['8'],4,1760,[-0.27045698],95,44,hard,minus,dotcolour,beta,51,19,M,R,
65,65,23,1,0,44,36,817,['c'],1,left,['8'],4,346,[0.01232534],21,44,hard,minus,dotcolour,beta,51,19,M,R,
66,66,24,1,0,53,27,900,['c'],1,left,['0'],6,618,[0.13504297],86,53,easy,minus,dotcolour,beta,51,19,M,R,
67,67,25,1,0,44,36,867,['n'],0,left,['8'],4,864,[0.03804013],14,44,hard,minus,dotcolour,beta,51,19,M,R,
68,68,26,1,0,44,36,1450,['c'],1,left,['3'],3,269,[0.05678547],51,44,hard,minus,dotcolour,beta,51,19,M,R,
69,69,27,1,0,47,33,683,['c'],1,left,['3'],3,192,[0.10337327],88,47,medium,minus,dotcolour,beta,51,19,M,R,
70,70,28,1,0,36,44,1483,['c'],0,right,['0'],6,222,[0.0353211],32,44,hard,minus,dotcolour,beta,51,19,M,R,
71,71,29,1,0,47,33,233,['n'],0,left,['9'],5,333,[-0.12042736],88,47,medium,minus,dotcolour,beta,51,19,M,R,
72,72,30,1,0,53,27,883,['c'],1,left,['9'],5,910,[0.112537],75,53,easy,minus,dotcolour,beta,51,19,M,R,
73,73,31,1,0,36,44,783,['n'],1,right,['0'],6,267,[-0.08506673],74,44,hard,minus,dotcolour,beta,51,19,M,R,
74,74,32,1,0,27,53,901,['n'],1,right,['0'],6,238,[-0.10467257],86,53,easy,minus,dotcolour,beta,51,19,M,R,
75,75,33,1,0,33,47,667,['n'],1,right,['0'],6,227,[-0.02768637],26,47,medium,minus,dotcolour,beta,51,19,M,R,
76,76,34,1,0,47,33,666,['c'],1,left,['9'],5,529,[0.02433627],32,47,medium,minus,dotcolour,beta,51,19,M,R,
77,77,35,1,0,53,27,867,['c'],1,left,['0'],6,234,[0.02691738],26,53,easy,minus,dotcolour,beta,51,19,M,R,
78,78,36,1,0,33,47,2417,['n'],1,right,['8'],4,289,[-0.12834561],92,47,medium,minus,dotcolour,beta,51,19,M,R,
79,79,37,1,0,27,53,800,['n'],1,right,['0'],6,230,[-0.09854697],83,53,easy,minus,dotcolour,beta,51,19,M,R,
80,80,38,1,0,47,33,584,['c'],1,left,['9'],5,263,[0.13932515],95,47,medium,minus,dotcolour,beta,51,19,M,R,
81,81,39,1,0,53,27,717,['c'],1,left,['9'],5,178,[0.15452138],99,53,easy,minus,dotcolour,beta,51,19,M,R,
82,82,40,1,0,44,36,967,['n'],0,left,['8'],4,341,[-0.17489392],98,44,hard,minus,dotcolour,beta,51,19,M,R,
83,83,41,1,0,27,53,1317,['n'],1,right,['0'],6,204,[-0.14648477],97,53,easy,minus,dotcolour,beta,51,19,M,R,
84,84,0,2,0,44,36,734,['c'],1,left,['9'],5,347,[0.07175007],62,44,hard,minus,dotcolour,beta,51,19,M,R,
85,85,1,2,0,53,27,884,['c'],1,left,['0'],6,138,[0.15236981],99,53,easy,minus,dotcolour,beta,51,19,M,R,
86,86,2,2,0,36,44,884,['c'],0,right,['8'],4,299,[0.08001132],69,44,hard,minus,dotcolour,beta,51,19,M,R,
87,87,3,2,0,53,27,733,['c'],1,left,['3'],3,275,[0.12816788],92,53,easy,minus,dotcolour,beta,51,19,M,R,
88,88,4,2,0,44,36,283,['c'],1,left,['8'],4,1942,[0.03248871],43,44,hard,minus,dotcolour,beta,51,19,M,R,
89,89,5,2,0,33,47,800,['n'],1,right,['0'],6,233,[-0.13003264],94,47,medium,minus,dotcolour,beta,51,19,M,R,
90,90,6,2,0,47,33,867,['c'],1,left,['9'],5,302,[0.04314616],40,47,medium,minus,dotcolour,beta,51,19,M,R,
91,91,7,2,0,27,53,699,['n'],1,right,['9'],5,272,[0.02006824],7,53,easy,minus,dotcolour,beta,51,19,M,R,
92,92,8,2,0,27,53,600,['n'],1,right,['0'],6,246,[-0.15873364],98,53,easy,minus,dotcolour,beta,51,19,M,R,
93,93,9,2,0,33,47,567,['n'],1,right,['0'],6,191,[-0.07270461],67,47,medium,minus,dotcolour,beta,51,19,M,R,
94,94,10,2,0,47,33,583,['c'],1,left,['9'],5,233,[0.09357515],80,47,medium,minus,dotcolour,beta,51,19,M,R,
95,95,11,2,0,44,36,784,['n'],0,left,['8'],4,306,[-0.06924978],61,44,hard,minus,dotcolour,beta,51,19,M,R,
96,96,12,2,0,36,44,967,['n'],1,right,['3'],3,248,[-0.13402911],94,44,hard,minus,dotcolour,beta,51,19,M,R,
97,97,13,2,0,27,53,1067,['n'],1,right,['0'],6,1421,[-0.41911154],100,53,easy,minus,dotcolour,beta,51,19,M,R,
98,98,14,2,0,53,27,2000,['c'],1,left,['3'],3,1748,[0.11786471],70,53,easy,minus,dotcolour,beta,51,19,M,R,
99,99,15,2,0,36,44,767,['n'],1,right,['0'],6,137,[-0.11203193],94,44,hard,minus,dotcolour,beta,51,19,M,R,
100,100,16,2,0,53,27,635,['c'],1,left,['0'],6,299,[0.1062056],84,53,easy,minus,dotcolour,beta,51,19,M,R,
101,101,17,2,0,27,53,651,['c'],0,right,['0'],6,263,[0.01360556],19,53,easy,minus,dotcolour,beta,51,19,M,R,
102,102,18,2,0,53,27,900,['c'],1,left,['1'],1,193,[0.0853507],77,53,easy,minus,dotcolour,beta,51,19,M,R,
103,103,19,2,0,33,47,782,['n'],1,right,['9'],5,236,[-0.0697841],63,47,medium,minus,dotcolour,beta,51,19,M,R,
104,104,20,2,0,36,44,1216,['n'],1,right,['9'],5,419,[-0.06906086],59,44,hard,minus,dotcolour,beta,51,19,M,R,
105,105,21,2,0,33,47,899,['c'],0,right,['8'],4,199,[0.08270235],75,47,medium,minus,dotcolour,beta,51,19,M,R,
106,106,22,2,0,27,53,933,['n'],1,right,['9'],5,715,[-0.18080758],94,53,easy,minus,dotcolour,beta,51,19,M,R,
107,107,23,2,0,53,27,634,['n'],0,left,['1'],1,1343,[0.04829622],17,53,easy,minus,dotcolour,beta,51,19,M,R,
108,108,24,2,0,47,33,1400,['n'],0,left,['0'],6,170,[-0.05910295],54,47,medium,minus,dotcolour,beta,51,19,M,R,
109,109,25,2,0,36,44,1199,['n'],1,right,['8'],4,245,[-0.0081366],15,44,hard,minus,dotcolour,beta,51,19,M,R,
110,110,26,2,0,33,47,933,['c'],0,right,['8'],4,134,[0.13164578],98,47,medium,minus,dotcolour,beta,51,19,M,R,
111,111,27,2,0,27,53,1100,['n'],1,right,['0'],6,159,[-0.07405617],70,53,easy,minus,dotcolour,beta,51,19,M,R,
112,112,28,2,0,44,36,867,['c'],1,left,['8'],4,215,[0.0415354],37,44,hard,minus,dotcolour,beta,51,19,M,R,
113,113,29,2,0,53,27,1200,['c'],1,left,['8'],4,959,[0.14254879],83,53,easy,minus,dotcolour,beta,51,19,M,R,
114,114,30,2,0,44,36,1000,['c'],1,left,['0'],6,210,[0.11105181],90,44,hard,minus,dotcolour,beta,51,19,M,R,
115,115,31,2,0,44,36,1701,['n'],0,left,['9'],5,191,[-0.06845313],63,44,hard,minus,dotcolour,beta,51,19,M,R,
116,116,32,2,0,27,53,850,['n'],1,right,['0'],6,223,[-0.14139546],96,53,easy,minus,dotcolour,beta,51,19,M,R,
117,117,33,2,0,36,44,867,['c'],0,right,['9'],5,148,[0.13660345],98,44,hard,minus,dotcolour,beta,51,19,M,R,
118,118,34,2,0,47,33,850,['c'],1,left,['9'],5,197,[0.05992176],54,47,medium,minus,dotcolour,beta,51,19,M,R,
119,119,35,2,0,47,33,550,['c'],1,left,['8'],4,128,[0.04825205],41,47,medium,minus,dotcolour,beta,51,19,M,R,
120,120,36,2,0,47,33,1350,['c'],1,left,['3'],3,279,[0.05165405],47,47,medium,minus,dotcolour,beta,51,19,M,R,
121,121,37,2,0,33,47,968,['n'],1,right,['8'],4,238,[-0.0983257],83,47,medium,minus,dotcolour,beta,51,19,M,R,
122,122,38,2,0,33,47,1284,['n'],1,right,['0'],6,227,[-0.15376044],98,47,medium,minus,dotcolour,beta,51,19,M,R,
123,123,39,2,0,47,33,1383,['c'],1,left,['8'],4,1123,[-0.04195564],16,47,medium,minus,dotcolour,beta,51,19,M,R,
124,124,40,2,0,44,36,2700,['n'],0,left,['9'],5,331,[-0.0642913],57,44,hard,minus,dotcolour,beta,51,19,M,R,
125,125,41,2,0,36,44,683,['n'],1,right,['9'],5,108,[-0.07121902],70,44,hard,minus,dotcolour,beta,51,19,M,R,
126,0,0,3,1,44,36,751,['c'],1,left,['0'],6,199,[0.05758882],99,44,hard,plus,dotcolour,beta,51,19,M,R,
127,1,1,3,1,47,33,534,['c'],1,left,['9'],5,170,[0.1618021],100,47,medium,plus,dotcolour,beta,51,19,M,R,
128,2,2,3,1,53,27,383,['c'],1,left,['9'],5,302,[0.17327472],100,53,easy,plus,dotcolour,beta,51,19,M,R,
129,3,3,3,1,27,53,468,['n'],1,right,['9'],5,241,[0.07069174],36,53,easy,plus,dotcolour,beta,51,19,M,R,
130,4,4,3,1,33,47,917,['n'],1,right,['8'],4,596,[-0.25036452],100,47,medium,plus,dotcolour,beta,51,19,M,R,
131,5,5,3,1,27,53,1533,['n'],1,right,['0'],6,391,[-0.01660709],89,53,easy,plus,dotcolour,beta,51,19,M,R,
132,6,6,3,1,53,27,600,['c'],1,left,['8'],4,201,[0.055092],99,53,easy,plus,dotcolour,beta,51,19,M,R,
133,7,7,3,1,27,53,483,['c'],0,right,['8'],4,383,[-0.01923522],74,53,easy,plus,dotcolour,beta,51,19,M,R,
134,8,8,3,1,36,44,1750,['c'],0,right,['0'],6,75,[0.03927198],100,44,hard,plus,dotcolour,beta,51,19,M,R,
135,9,9,3,1,33,47,817,['n'],1,right,['0'],6,168,[-0.04834481],99,47,medium,plus,dotcolour,beta,51,19,M,R,
136,10,10,3,1,44,36,1350,['n'],0,left,['8'],4,197,[-0.03771046],98,44,hard,plus,dotcolour,beta,51,19,M,R,
137,11,11,3,1,53,27,934,['c'],1,left,['1'],1,376,[0.12484039],100,53,easy,plus,dotcolour,beta,51,19,M,R,
138,12,12,3,1,53,27,1150,['c'],1,left,['0'],6,149,[0.08149625],100,53,easy,plus,dotcolour,beta,51,19,M,R,
139,13,13,3,1,33,47,1483,['n'],1,right,['0'],6,133,[-0.11141216],100,47,medium,plus,dotcolour,beta,51,19,M,R,
140,14,14,3,1,36,44,767,['n'],1,right,['0'],6,138,[-0.05598673],100,44,hard,plus,dotcolour,beta,51,19,M,R,
141,15,15,3,1,27,53,850,['n'],1,right,['0'],6,172,[-0.08742067],100,53,easy,plus,dotcolour,beta,51,19,M,R,
142,16,16,3,1,36,44,584,['n'],1,right,['0'],6,208,[-0.03315246],97,44,hard,plus,dotcolour,beta,51,19,M,R,
143,17,17,3,1,44,36,500,['c'],1,left,['0'],6,180,[0.10228901],100,44,hard,plus,dotcolour,beta,51,19,M,R,
144,18,18,3,1,33,47,617,['c'],0,right,['9'],5,246,[0.05763655],98,47,medium,plus,dotcolour,beta,51,19,M,R,
145,19,19,3,1,47,33,617,['c'],1,left,['9'],5,252,[0.14207398],100,47,medium,plus,dotcolour,beta,51,19,M,R,
146,20,20,3,1,33,47,384,['c'],0,right,['1'],1,892,[-0.08615029],36,47,medium,plus,dotcolour,beta,51,19,M,R,
147,21,21,3,1,47,33,1149,['c'],1,left,['9'],5,284,[0.07448791],99,47,medium,plus,dotcolour,beta,51,19,M,R,
148,22,22,3,1,33,47,683,['n'],1,right,['0'],6,191,[-0.04642265],99,47,medium,plus,dotcolour,beta,51,19,M,R,
149,23,23,3,1,53,27,632,['c'],1,left,['0'],6,223,[0.15996752],100,53,easy,plus,dotcolour,beta,51,19,M,R,
150,24,24,3,1,44,36,1133,['c'],1,left,['0'],6,121,[0.06733312],100,44,hard,plus,dotcolour,beta,51,19,M,R,
151,25,25,3,1,44,36,599,['c'],1,left,['0'],6,238,[0.10135268],100,44,hard,plus,dotcolour,beta,51,19,M,R,
152,26,26,3,1,44,36,565,['c'],1,left,['0'],6,159,[0.07932666],100,44,hard,plus,dotcolour,beta,51,19,M,R,
153,27,27,3,1,36,44,817,['n'],1,right,['9'],5,273,[0.02295442],75,44,hard,plus,dotcolour,beta,51,19,M,R,
154,28,28,3,1,47,33,1733,['c'],1,left,['0'],6,338,[0.16897601],100,47,medium,plus,dotcolour,beta,51,19,M,R,
155,29,29,3,1,27,53,833,['n'],1,right,['8'],4,332,[-0.09028217],99,53,easy,plus,dotcolour,beta,51,19,M,R,
156,30,30,3,1,27,53,1866,['n'],1,right,['0'],6,173,[-0.08802549],100,53,easy,plus,dotcolour,beta,51,19,M,R,
157,31,31,3,1,53,27,783,['c'],1,left,['0'],6,208,[0.11959856],100,53,easy,plus,dotcolour,beta,51,19,M,R,
158,32,32,3,1,27,53,684,['n'],1,right,['9'],5,389,[-0.186397],100,53,easy,plus,dotcolour,beta,51,19,M,R,
159,33,33,3,1,47,33,1033,['c'],1,left,['8'],4,621,[0.2439901],100,47,medium,plus,dotcolour,beta,51,19,M,R,
160,34,34,3,1,36,44,933,['c'],0,right,['9'],5,192,[0.0664494],99,44,hard,plus,dotcolour,beta,51,19,M,R,
161,35,35,3,1,44,36,1000,['c'],1,left,['0'],6,177,[0.09230659],100,44,hard,plus,dotcolour,beta,51,19,M,R,
162,36,36,3,1,47,33,617,['n'],0,left,['0'],6,219,[-0.06581124],99,47,medium,plus,dotcolour,beta,51,19,M,R,
163,37,37,3,1,33,47,884,['n'],1,right,['8'],4,256,[-0.08583341],99,47,medium,plus,dotcolour,beta,51,19,M,R,
164,38,38,3,1,47,33,683,['n'],0,left,['9'],5,212,[-0.02761854],96,47,medium,plus,dotcolour,beta,51,19,M,R,
165,39,39,3,1,36,44,483,['c'],0,right,['0'],6,153,[0.09195882],100,44,hard,plus,dotcolour,beta,51,19,M,R,
166,40,40,3,1,53,27,551,['c'],1,left,['9'],5,207,[0.00157215],91,53,easy,plus,dotcolour,beta,51,19,M,R,
167,41,41,3,1,36,44,233,['c'],0,right,['8'],4,294,[0.03492029],95,44,hard,plus,dotcolour,beta,51,19,M,R,
168,42,0,4,1,36,44,1534,['n'],1,right,['0'],6,198,[-0.06217729],99,44,hard,plus,dotcolour,beta,51,19,M,R,
169,43,1,4,1,36,44,800,['c'],0,right,['9'],5,135,[0.04562936],99,44,hard,plus,dotcolour,beta,51,19,M,R,
170,44,2,4,1,27,53,566,['n'],1,right,['9'],5,109,[-0.12250177],100,53,easy,plus,dotcolour,beta,51,19,M,R,
171,45,3,4,1,27,53,584,['n'],1,right,['0'],6,130,[-0.09238168],100,53,easy,plus,dotcolour,beta,51,19,M,R,
172,46,4,4,1,44,36,601,['c'],1,left,['0'],6,150,[0.03424539],98,44,hard,plus,dotcolour,beta,51,19,M,R,
173,47,5,4,1,53,27,484,['c'],1,left,['0'],6,206,[0.01391296],94,53,easy,plus,dotcolour,beta,51,19,M,R,
174,48,6,4,1,27,53,483,['n'],1,right,['0'],6,179,[-0.12184376],100,53,easy,plus,dotcolour,beta,51,19,M,R,
175,49,7,4,1,47,33,433,['c'],1,left,['0'],6,229,[0.05721471],99,47,medium,plus,dotcolour,beta,51,19,M,R,
176,50,8,4,1,44,36,518,['c'],1,left,['0'],6,136,[0.03574162],99,44,hard,plus,dotcolour,beta,51,19,M,R,
177,51,9,4,1,27,53,883,['n'],1,right,['0'],6,129,[-0.10621145],100,53,easy,plus,dotcolour,beta,51,19,M,R,
178,52,10,4,1,36,44,717,['n'],1,right,['8'],4,408,[-0.15242033],100,44,hard,plus,dotcolour,beta,51,19,M,R,
179,53,11,4,1,53,27,750,['c'],1,left,['0'],6,163,[0.13600923],100,53,easy,plus,dotcolour,beta,51,19,M,R,
180,54,12,4,1,47,33,600,['c'],1,left,['0'],6,205,[0.15435317],100,47,medium,plus,dotcolour,beta,51,19,M,R,
181,55,13,4,1,44,36,850,['c'],1,left,['8'],4,181,[0.08751219],100,44,hard,plus,dotcolour,beta,51,19,M,R,
182,56,14,4,1,27,53,967,['n'],1,right,['8'],4,216,[-0.15244916],100,53,easy,plus,dotcolour,beta,51,19,M,R,
183,57,15,4,1,47,33,801,['c'],1,left,['8'],4,224,[0.15027205],100,47,medium,plus,dotcolour,beta,51,19,M,R,
184,58,16,4,1,44,36,1184,['c'],1,left,['3'],3,321,[0.04030562],95,44,hard,plus,dotcolour,beta,51,19,M,R,
185,59,17,4,1,33,47,1583,['n'],1,right,['0'],6,207,[-0.01691582],95,47,medium,plus,dotcolour,beta,51,19,M,R,
186,60,18,4,1,47,33,833,['c'],1,left,['0'],6,254,[0.07896821],99,47,medium,plus,dotcolour,beta,51,19,M,R,
187,61,19,4,1,47,33,734,['c'],1,left,['9'],5,232,[0.0313799],96,47,medium,plus,dotcolour,beta,51,19,M,R,
188,62,20,4,1,27,53,767,['n'],1,right,['9'],5,201,[-0.06514266],99,53,easy,plus,dotcolour,beta,51,19,M,R,
189,63,21,4,1,33,47,667,['n'],1,right,['0'],6,216,[-0.06034443],99,47,medium,plus,dotcolour,beta,51,19,M,R,
190,64,22,4,1,44,36,3168,['n'],0,left,['0'],6,338,[-0.10981364],99,44,hard,plus,dotcolour,beta,51,19,M,R,
191,65,23,4,1,53,27,1949,['c'],1,left,['8'],4,656,[0.23517813],100,53,easy,plus,dotcolour,beta,51,19,M,R,
192,66,24,4,1,36,44,1283,['n'],1,right,['8'],4,275,[-0.02102494],93,44,hard,plus,dotcolour,beta,51,19,M,R,
193,67,25,4,1,33,47,717,['n'],1,right,['9'],5,293,[-0.08782814],99,47,medium,plus,dotcolour,beta,51,19,M,R,
194,68,26,4,1,47,33,1167,['c'],1,left,['8'],4,219,[0.12648899],100,47,medium,plus,dotcolour,beta,51,19,M,R,
195,69,27,4,1,33,47,1034,['n'],1,right,['8'],4,291,[-0.07085915],99,47,medium,plus,dotcolour,beta,51,19,M,R,
196,70,28,4,1,33,47,1234,['n'],1,right,['9'],5,263,[-0.1413657],100,47,medium,plus,dotcolour,beta,51,19,M,R,
197,71,29,4,1,36,44,984,['c'],0,right,['9'],5,166,[0.03112514],98,44,hard,plus,dotcolour,beta,51,19,M,R,
198,72,30,4,1,33,47,634,['c'],0,right,['1'],1,935,[-0.07640914],40,47,medium,plus,dotcolour,beta,51,19,M,R,
199,73,31,4,1,53,27,750,['n'],0,left,['1'],1,2525,[0.11342659],34,53,easy,plus,dotcolour,beta,51,19,M,R,
200,74,32,4,1,27,53,616,['n'],1,right,['0'],6,215,[-0.11066821],100,53,easy,plus,dotcolour,beta,51,19,M,R,
201,75,33,4,1,33,47,716,['n'],1,right,['9'],5,211,[-0.1513249],100,47,medium,plus,dotcolour,beta,51,19,M,R,
202,76,34,4,1,47,33,766,['c'],1,left,['0'],6,190,[0.12615461],100,47,medium,plus,dotcolour,beta,51,19,M,R,
203,77,35,4,1,36,44,967,['c'],0,right,['9'],5,200,[0.06142716],99,44,hard,plus,dotcolour,beta,51,19,M,R,
204,78,36,4,1,53,27,801,['c'],1,left,['9'],5,218,[0.1521493],100,53,easy,plus,dotcolour,beta,51,19,M,R,
205,79,37,4,1,53,27,750,['c'],1,left,['9'],5,252,[0.14559276],100,53,easy,plus,dotcolour,beta,51,19,M,R,
206,80,38,4,1,44,36,801,['c'],1,left,['9'],5,244,[0.04721906],98,44,hard,plus,dotcolour,beta,51,19,M,R,
207,81,39,4,1,36,44,883,['c'],0,right,['8'],4,176,[0.08024257],100,44,hard,plus,dotcolour,beta,51,19,M,R,
208,82,40,4,1,53,27,2134,['c'],1,left,['8'],4,876,[0.04723328],88,53,easy,plus,dotcolour,beta,51,19,M,R,
209,83,41,4,1,44,36,1352,['c'],1,left,['8'],4,204,[0.09850273],100,44,hard,plus,dotcolour,beta,51,19,M,R,
210,84,0,5,1,33,47,1034,['n'],1,right,['9'],5,496,[-0.07816724],97,47,medium,plus,dotcolour,beta,51,19,M,R,
211,85,1,5,1,36,44,784,['n'],1,right,['0'],6,294,[-0.06629206],98,44,hard,plus,dotcolour,beta,51,19,M,R,
212,86,2,5,1,44,36,817,['c'],1,left,['9'],5,187,[0.07452139],100,44,hard,plus,dotcolour,beta,51,19,M,R,
213,87,3,5,1,53,27,667,['c'],1,left,['9'],5,234,[0.17023687],100,53,easy,plus,dotcolour,beta,51,19,M,R,
214,88,4,5,1,47,33,484,['c'],1,left,['0'],6,231,[0.14264563],100,47,medium,plus,dotcolour,beta,51,19,M,R,
215,89,5,5,1,47,33,583,['c'],1,left,['0'],6,287,[0.10933775],100,47,medium,plus,dotcolour,beta,51,19,M,R,
216,90,6,5,1,53,27,1183,['n'],0,left,['2'],2,1694,[0.35819233],2,53,easy,plus,dotcolour,beta,51,19,M,R,
217,91,7,5,1,36,44,1217,['n'],1,right,['0'],6,483,[-0.12121878],99,44,hard,plus,dotcolour,beta,51,19,M,R,
218,92,8,5,1,33,47,1017,['n'],1,right,['9'],5,168,[-0.04939629],99,47,medium,plus,dotcolour,beta,51,19,M,R,
219,93,9,5,1,47,33,666,['c'],1,left,['9'],5,257,[0.021109],94,47,medium,plus,dotcolour,beta,51,19,M,R,
220,94,10,5,1,27,53,651,['n'],1,right,['0'],6,181,[-0.12697136],100,53,easy,plus,dotcolour,beta,51,19,M,R,
221,95,11,5,1,27,53,600,['n'],1,right,['0'],6,263,[-0.12660025],100,53,easy,plus,dotcolour,beta,51,19,M,R,
222,96,12,5,1,44,36,717,['c'],1,left,['9'],5,169,[0.02359507],97,44,hard,plus,dotcolour,beta,51,19,M,R,
223,97,13,5,1,53,27,617,['c'],1,left,['9'],5,171,[0.05462379],99,53,easy,plus,dotcolour,beta,51,19,M,R,
224,98,14,5,1,27,53,267,['c'],0,right,['1'],1,1059,[-0.17759572],11,53,easy,plus,dotcolour,beta,51,19,M,R,
225,99,15,5,1,36,44,783,['n'],1,right,['0'],6,162,[-0.14042611],100,44,hard,plus,dotcolour,beta,51,19,M,R,
226,100,16,5,1,53,27,400,['n'],0,left,['0'],6,765,[0.0961536],30,53,easy,plus,dotcolour,beta,51,19,M,R,
227,101,17,5,1,27,53,185,['n'],1,right,['0'],6,160,[-0.1262263],100,53,easy,plus,dotcolour,beta,51,19,M,R,
228,102,18,5,1,53,27,350,['n'],0,left,['0'],6,132,[-0.10185625],100,53,easy,plus,dotcolour,beta,51,19,M,R,
229,103,19,5,1,33,47,684,['n'],1,right,['0'],6,613,[-0.19632425],100,47,medium,plus,dotcolour,beta,51,19,M,R,
230,104,20,5,1,27,53,766,['n'],1,right,['8'],4,391,[-0.2216212],100,53,easy,plus,dotcolour,beta,51,19,M,R,
231,105,21,5,1,36,44,799,['n'],1,right,['8'],4,392,[-0.05554295],96,44,hard,plus,dotcolour,beta,51,19,M,R,
232,106,22,5,1,53,27,952,['c'],1,left,['0'],6,1628,[0.32950995],100,53,easy,plus,dotcolour,beta,51,19,M,R,
233,107,23,5,1,33,47,417,['c'],0,right,['1'],1,443,[0.11164634],99,47,medium,plus,dotcolour,beta,51,19,M,R,
234,108,24,5,1,53,27,866,['c'],1,left,['1'],1,496,[0.07365432],96,53,easy,plus,dotcolour,beta,51,19,M,R,
235,109,25,5,1,36,44,1283,['c'],0,right,['0'],6,394,[0.05826834],96,44,hard,plus,dotcolour,beta,51,19,M,R,
236,110,26,5,1,36,44,766,['c'],0,right,['9'],5,172,[0.04044315],98,44,hard,plus,dotcolour,beta,51,19,M,R,
237,111,27,5,1,44,36,1250,['c'],1,left,['9'],5,269,[0.00425227],89,44,hard,plus,dotcolour,beta,51,19,M,R,
238,112,28,5,1,27,53,583,['n'],1,right,['0'],6,165,[0.00261901],91,53,easy,plus,dotcolour,beta,51,19,M,R,
239,113,29,5,1,27,53,500,['n'],1,right,['0'],6,155,[-0.10692965],100,53,easy,plus,dotcolour,beta,51,19,M,R,
240,114,30,5,1,44,36,884,['c'],1,left,['9'],5,171,[0.06276102],99,44,hard,plus,dotcolour,beta,51,19,M,R,
241,115,31,5,1,33,47,2000,['c'],0,right,['9'],5,134,[0.00941339],96,47,medium,plus,dotcolour,beta,51,19,M,R,
242,116,32,5,1,47,33,584,['c'],1,left,['8'],4,226,[0.09627092],100,47,medium,plus,dotcolour,beta,51,19,M,R,
243,117,33,5,1,44,36,584,['n'],0,left,['0'],6,187,[-0.05160536],99,44,hard,plus,dotcolour,beta,51,19,M,R,
244,118,34,5,1,47,33,1149,['c'],1,left,['9'],5,223,[0.15327401],100,47,medium,plus,dotcolour,beta,51,19,M,R,
245,119,35,5,1,33,47,566,['n'],1,right,['0'],6,200,[-0.06395482],99,47,medium,plus,dotcolour,beta,51,19,M,R,
246,120,36,5,1,36,44,1199,['n'],1,right,['9'],5,330,[-0.05271929],97,44,hard,plus,dotcolour,beta,51,19,M,R,
247,121,37,5,1,47,33,683,['c'],1,left,['8'],4,179,[3.89173367e-05],91,47,medium,plus,dotcolour,beta,51,19,M,R,
248,122,38,5,1,47,33,917,['c'],1,left,['9'],5,192,[0.02597248],97,47,medium,plus,dotcolour,beta,51,19,M,R,
249,123,39,5,1,33,47,733,['n'],1,right,['0'],6,220,[-0.0845784],100,47,medium,plus,dotcolour,beta,51,19,M,R,
250,124,40,5,1,44,36,650,['c'],1,left,['9'],5,243,[0.09537087],100,44,hard,plus,dotcolour,beta,51,19,M,R,
251,125,41,5,1,44,36,683,['c'],1,left,['9'],5,167,[0.04450423],99,44,hard,plus,dotcolour,beta,51,19,M,R,
252,0,0,6,2,44,36,718,['c'],1,left,['0'],6,176,[0.07712479],72,44,hard,minus,dotcolour,beta,51,19,M,R,
253,1,1,6,2,36,44,668,['n'],1,right,['0'],6,95,[-0.0920249],89,44,hard,minus,dotcolour,beta,51,19,M,R,
254,2,2,6,2,33,47,433,['n'],1,right,['0'],6,179,[0.00264114],8,47,medium,minus,dotcolour,beta,51,19,M,R,
255,3,3,6,2,53,27,600,['c'],1,left,['9'],5,140,[0.06836623],65,53,easy,minus,dotcolour,beta,51,19,M,R,
256,4,4,6,2,27,53,651,['n'],1,right,['0'],6,142,[-0.1046794],91,53,easy,minus,dotcolour,beta,51,19,M,R,
257,5,5,6,2,27,53,484,['n'],1,right,['9'],5,222,[-0.00169486],11,53,easy,minus,dotcolour,beta,51,19,M,R,
258,6,6,6,2,36,44,1167,['n'],1,right,['0'],6,103,[-0.08133392],81,44,hard,minus,dotcolour,beta,51,19,M,R,
259,7,7,6,2,53,27,966,['c'],1,left,['0'],6,182,[0.05189128],46,53,easy,minus,dotcolour,beta,51,19,M,R,
260,8,8,6,2,27,53,1367,['c'],0,right,['8'],4,6754,[-1.09963402],0,53,easy,minus,dotcolour,beta,51,19,M,R,
261,9,9,6,2,47,33,817,['c'],1,left,['9'],5,898,[0.15518794],87,47,medium,minus,dotcolour,beta,51,19,M,R,
262,10,10,6,2,47,33,1232,['c'],1,left,['9'],5,430,[0.16522247],95,47,medium,minus,dotcolour,beta,51,19,M,R,
263,11,11,6,2,33,47,817,['n'],1,right,['9'],5,262,[-0.06248777],56,47,medium,minus,dotcolour,beta,51,19,M,R,
264,12,12,6,2,33,47,1483,['c'],0,right,['8'],4,266,[0.11519524],89,47,medium,minus,dotcolour,beta,51,19,M,R,
265,13,13,6,2,33,47,733,['n'],1,right,['9'],5,187,[-0.15428204],98,47,medium,minus,dotcolour,beta,51,19,M,R,
266,14,14,6,2,36,44,233,['c'],0,right,['9'],5,204,[0.03286776],29,44,hard,minus,dotcolour,beta,51,19,M,R,
267,15,15,6,2,44,36,38,['c'],1,left,['0'],6,629,[0.15513948],91,44,hard,minus,dotcolour,beta,51,19,M,R,
268,16,16,6,2,53,27,232,['c'],1,left,['3'],3,27,[0.07882568],93,53,easy,minus,dotcolour,beta,51,19,M,R,
269,17,17,6,2,53,27,417,['n'],0,left,['1'],1,1363,[0.27386787],1,53,easy,minus,dotcolour,beta,51,19,M,R,
270,18,18,6,2,27,53,583,['n'],1,right,['0'],6,670,[-0.11237699],78,53,easy,minus,dotcolour,beta,51,19,M,R,
271,19,19,6,2,33,47,617,['n'],1,right,['0'],6,124,[-0.03825157],29,47,medium,minus,dotcolour,beta,51,19,M,R,
272,20,20,6,2,53,27,1200,['n'],0,left,['2'],2,544,[-0.00717838],23,53,easy,minus,dotcolour,beta,51,19,M,R,
273,21,21,6,2,36,44,733,['n'],1,right,['0'],6,213,[-0.15887314],98,44,hard,minus,dotcolour,beta,51,19,M,R,
274,22,22,6,2,44,36,783,['c'],1,left,['8'],4,215,[0.12723853],94,44,hard,minus,dotcolour,beta,51,19,M,R,
275,23,23,6,2,47,33,601,['c'],1,left,['9'],5,160,[0.07027113],66,47,medium,minus,dotcolour,beta,51,19,M,R,
276,24,24,6,2,36,44,634,['c'],0,right,['9'],5,265,[0.08412935],73,44,hard,minus,dotcolour,beta,51,19,M,R,
277,25,25,6,2,47,33,734,['c'],1,left,['9'],5,122,[0.03004185],21,47,medium,minus,dotcolour,beta,51,19,M,R,
278,26,26,6,2,47,33,966,['c'],1,left,['8'],4,904,[0.17915069],91,47,medium,minus,dotcolour,beta,51,19,M,R,
279,27,27,6,2,36,44,650,['c'],0,right,['0'],6,99,[0.05390398],48,44,hard,minus,dotcolour,beta,51,19,M,R,
280,28,28,6,2,44,36,145,['c'],1,left,['9'],5,97,[0.14008952],99,44,hard,minus,dotcolour,beta,51,19,M,R,
281,29,29,6,2,36,44,684,['n'],1,right,['0'],6,98,[-0.10188735],93,44,hard,minus,dotcolour,beta,51,19,M,R,
282,30,30,6,2,27,53,617,['n'],1,right,['9'],5,263,[-0.24713387],100,53,easy,minus,dotcolour,beta,51,19,M,R,
283,31,31,6,2,53,27,567,['c'],1,left,['0'],6,423,[0.0502334],46,53,easy,minus,dotcolour,beta,51,19,M,R,
284,32,32,6,2,44,36,900,['c'],1,left,['9'],5,43,[0.07345057],83,44,hard,minus,dotcolour,beta,51,19,M,R,
285,33,33,6,2,53,27,834,['c'],1,left,['9'],5,9,[0.07257418],96,53,easy,minus,dotcolour,beta,51,19,M,R,
286,34,34,6,2,27,53,817,['n'],1,right,['0'],6,737,[-0.24630402],98,53,easy,minus,dotcolour,beta,51,19,M,R,
287,35,35,6,2,33,47,616,['n'],1,right,['0'],6,132,[-0.08417361],80,47,medium,minus,dotcolour,beta,51,19,M,R,
288,36,36,6,2,33,47,450,['n'],1,right,['9'],5,230,[-0.06124063],55,47,medium,minus,dotcolour,beta,51,19,M,R,
289,37,37,6,2,47,33,284,['n'],0,left,['8'],4,194,[0.0200212],4,47,medium,minus,dotcolour,beta,51,19,M,R,
290,38,38,6,2,44,36,233,['n'],0,left,['3'],3,194,[-0.05853328],53,44,hard,minus,dotcolour,beta,51,19,M,R,
291,39,39,6,2,47,33,683,['n'],0,left,['2'],2,120,[-0.02213284],15,47,medium,minus,dotcolour,beta,51,19,M,R,
292,40,40,6,2,27,53,2200,['n'],1,right,['0'],6,221,[-0.20948289],100,53,easy,minus,dotcolour,beta,51,19,M,R,
293,41,41,6,2,44,36,216,['n'],0,left,['1'],1,198,[-0.08461207],76,44,hard,minus,dotcolour,beta,51,19,M,R,
294,42,0,7,2,44,36,1334,['c'],1,left,['9'],5,400,[-0.03170229],8,44,hard,minus,dotcolour,beta,51,19,M,R,
295,43,1,7,2,36,44,683,['n'],1,right,['0'],6,166,[-0.11596615],94,44,hard,minus,dotcolour,beta,51,19,M,R,
296,44,2,7,2,27,53,533,['n'],1,right,['0'],6,275,[-0.15003897],96,53,easy,minus,dotcolour,beta,51,19,M,R,
297,45,3,7,2,47,33,500,['c'],1,left,['9'],5,221,[0.08755845],77,47,medium,minus,dotcolour,beta,51,19,M,R,
298,46,4,7,2,27,53,483,['n'],1,right,['0'],6,187,[-0.06343142],58,53,easy,minus,dotcolour,beta,51,19,M,R,
299,47,5,7,2,44,36,500,['c'],1,left,['9'],5,209,[0.1313945],95,44,hard,minus,dotcolour,beta,51,19,M,R,
300,48,6,7,2,27,53,500,['c'],0,right,['1'],1,693,[-0.06389311],7,53,easy,minus,dotcolour,beta,51,19,M,R,
301,49,7,7,2,44,36,1151,['c'],1,left,['0'],6,453,[0.00390336],20,44,hard,minus,dotcolour,beta,51,19,M,R,
302,50,8,7,2,44,36,2234,['n'],0,left,['9'],5,91,[-0.1016286],94,44,hard,minus,dotcolour,beta,51,19,M,R,
303,51,9,7,2,53,27,516,['c'],1,left,['9'],5,147,[0.10542358],91,53,easy,minus,dotcolour,beta,51,19,M,R,
304,52,10,7,2,33,47,1067,['n'],1,right,['0'],6,148,[-0.125828],96,47,medium,minus,dotcolour,beta,51,19,M,R,
305,53,11,7,2,53,27,917,['c'],1,left,['0'],6,595,[0.11438951],80,53,easy,minus,dotcolour,beta,51,19,M,R,
306,54,12,7,2,33,47,716,['n'],1,right,['0'],6,167,[-0.11300012],93,47,medium,minus,dotcolour,beta,51,19,M,R,
307,55,13,7,2,44,36,1100,['n'],0,left,['8'],4,182,[-0.01602393],16,44,hard,minus,dotcolour,beta,51,19,M,R,
308,56,14,7,2,47,33,1050,['c'],1,left,['8'],4,271,[0.1289591],93,47,medium,minus,dotcolour,beta,51,19,M,R,
309,57,15,7,2,27,53,884,['n'],1,right,['0'],6,137,[-0.02672123],20,53,easy,minus,dotcolour,beta,51,19,M,R,
310,58,16,7,2,33,47,1850,['n'],1,right,['8'],4,276,[-0.09361519],79,47,medium,minus,dotcolour,beta,51,19,M,R,
311,59,17,7,2,36,44,500,['c'],0,right,['0'],6,158,[0.03084634],25,44,hard,minus,dotcolour,beta,51,19,M,R,
312,60,18,7,2,47,33,567,['c'],1,left,['0'],6,161,[0.09785631],87,47,medium,minus,dotcolour,beta,51,19,M,R,
313,61,19,7,2,53,27,834,['c'],1,left,['8'],4,1891,[0.40861896],99,53,easy,minus,dotcolour,beta,51,19,M,R,
314,62,20,7,2,27,53,716,['n'],1,right,['0'],6,196,[-0.04677416],41,53,easy,minus,dotcolour,beta,51,19,M,R,
315,63,21,7,2,33,47,1333,['c'],0,right,['8'],4,960,[-0.00102966],26,47,medium,minus,dotcolour,beta,51,19,M,R,
316,64,22,7,2,44,36,650,['n'],0,left,['0'],6,176,[-0.03448516],29,44,hard,minus,dotcolour,beta,51,19,M,R,
317,65,23,7,2,33,47,233,['n'],1,right,['9'],5,177,[-0.09261792],83,47,medium,minus,dotcolour,beta,51,19,M,R,
318,66,24,7,2,27,53,616,['n'],1,right,['0'],6,234,[-0.04509292],40,53,easy,minus,dotcolour,beta,51,19,M,R,
319,67,25,7,2,47,33,933,['c'],1,left,['0'],6,53,[0.05508728],49,47,medium,minus,dotcolour,beta,51,19,M,R,
320,68,26,7,2,36,44,934,['n'],1,right,['0'],6,183,[-0.04911676],43,44,hard,minus,dotcolour,beta,51,19,M,R,
321,69,27,7,2,36,44,700,['c'],0,right,['9'],5,133,[0.02534809],18,44,hard,minus,dotcolour,beta,51,19,M,R,
322,70,28,7,2,53,27,700,['c'],1,left,['0'],6,293,[0.16894747],98,53,easy,minus,dotcolour,beta,51,19,M,R,
323,71,29,7,2,44,36,650,['c'],1,left,['0'],6,216,[0.13869989],96,44,hard,minus,dotcolour,beta,51,19,M,R,
324,72,30,7,2,36,44,915,['n'],1,right,['9'],5,133,[-0.02640366],19,44,hard,minus,dotcolour,beta,51,19,M,R,
325,73,31,7,2,33,47,1017,['c'],0,right,['8'],4,248,[0.00947812],16,47,medium,minus,dotcolour,beta,51,19,M,R,
326,74,32,7,2,36,44,249,['n'],1,right,['9'],5,173,[-0.08279099],76,44,hard,minus,dotcolour,beta,51,19,M,R,
327,75,33,7,2,53,27,267,['c'],1,left,"['2', '9', '1']",2,301,[0.10453406],83,53,easy,minus,dotcolour,beta,51,19,M,R,
328,76,34,7,2,53,27,1683,['c'],1,left,['9'],5,511,[0.13645732],88,53,easy,minus,dotcolour,beta,51,19,M,R,
329,77,35,7,2,27,53,784,['n'],1,right,['0'],6,644,[-0.10579354],76,53,easy,minus,dotcolour,beta,51,19,M,R,
330,78,36,7,2,47,33,717,['c'],1,left,['8'],4,295,[-0.01241222],10,47,medium,minus,dotcolour,beta,51,19,M,R,
331,79,37,7,2,36,44,783,['n'],1,right,"['9', '0']",5,181,[-0.11531079],93,44,hard,minus,dotcolour,beta,51,19,M,R,
332,80,38,7,2,33,47,650,['n'],1,right,['0'],6,140,[-0.10252013],91,47,medium,minus,dotcolour,beta,51,19,M,R,
333,81,39,7,2,47,33,1583,['c'],1,left,['8'],4,201,[0.05567082],50,47,medium,minus,dotcolour,beta,51,19,M,R,
334,82,40,7,2,53,27,867,['n'],0,left,['9'],5,119,[-0.0588785],54,53,easy,minus,dotcolour,beta,51,19,M,R,
335,83,41,7,2,47,33,93,['c'],1,left,['2'],2,1413,[0.41677775],100,47,medium,minus,dotcolour,beta,51,19,M,R,
336,84,0,8,2,44,36,650,['c'],1,left,['9'],5,127,[0.09676934],89,44,hard,minus,dotcolour,beta,51,19,M,R,
337,85,1,8,2,27,53,233,['n'],1,right,['9'],5,115,[-0.06311105],60,53,easy,minus,dotcolour,beta,51,19,M,R,
338,86,2,8,2,47,33,466,['c'],1,left,['0'],6,140,[0.09411959],86,47,medium,minus,dotcolour,beta,51,19,M,R,
339,87,3,8,2,53,27,1066,['c'],1,left,['0'],6,166,[0.06668599],62,53,easy,minus,dotcolour,beta,51,19,M,R,
340,88,4,8,2,33,47,534,['n'],1,right,['0'],6,138,[-0.06225401],58,47,medium,minus,dotcolour,beta,51,19,M,R,
341,89,5,8,2,47,33,534,['c'],1,left,['9'],5,153,[0.12882227],97,47,medium,minus,dotcolour,beta,51,19,M,R,
342,90,6,8,2,47,33,483,['c'],1,left,['9'],5,153,[0.06292406],58,47,medium,minus,dotcolour,beta,51,19,M,R,
343,91,7,8,2,33,47,634,['n'],1,right,['0'],6,91,[-0.03105224],19,47,medium,minus,dotcolour,beta,51,19,M,R,
344,92,8,8,2,47,33,250,['n'],0,left,['2'],2,1246,[0.0861345],9,47,medium,minus,dotcolour,beta,51,19,M,R,
345,93,9,8,2,36,44,650,['n'],1,right,['9'],5,180,[-0.10268345],88,44,hard,minus,dotcolour,beta,51,19,M,R,
346,94,10,8,2,53,27,583,['c'],1,left,['0'],6,142,[0.10039352],89,53,easy,minus,dotcolour,beta,51,19,M,R,
347,95,11,8,2,36,44,533,['n'],1,right,['0'],6,69,[-0.09725734],95,44,hard,minus,dotcolour,beta,51,19,M,R,
348,96,12,8,2,33,47,816,['c'],0,right,['0'],6,34,[0.02613243],5,47,medium,minus,dotcolour,beta,51,19,M,R,
349,97,13,8,2,44,36,400,['n'],0,left,['0'],6,26,[-0.03311443],8,44,hard,minus,dotcolour,beta,51,19,M,R,
350,98,14,8,2,27,53,139,['c'],0,right,['0'],6,35,[0.06641333],74,53,easy,minus,dotcolour,beta,51,19,M,R,
351,99,15,8,2,27,53,832,['n'],1,right,['0'],6,1,[-0.07137091],100,53,easy,minus,dotcolour,beta,51,19,M,R,
352,100,16,8,2,27,53,533,['n'],1,right,['0'],6,45,[-0.04731494],33,53,easy,minus,dotcolour,beta,51,19,M,R,
353,101,17,8,2,44,36,649,['c'],1,left,['8'],4,290,[0.15625187],97,44,hard,minus,dotcolour,beta,51,19,M,R,
354,102,18,8,2,36,44,616,['n'],1,right,['8'],4,151,[-0.07635969],72,44,hard,minus,dotcolour,beta,51,19,M,R,
355,103,19,8,2,44,36,700,['c'],1,left,['8'],4,166,[0.11607698],94,44,hard,minus,dotcolour,beta,51,19,M,R,
356,104,20,8,2,44,36,616,['c'],1,left,['8'],4,144,[0.12898277],97,44,hard,minus,dotcolour,beta,51,19,M,R,
357,105,21,8,2,47,33,584,['c'],1,left,['8'],4,164,[0.07998042],75,47,medium,minus,dotcolour,beta,51,19,M,R,
358,106,22,8,2,36,44,717,['n'],1,right,['8'],4,179,[-0.12850929],96,44,hard,minus,dotcolour,beta,51,19,M,R,
359,107,23,8,2,53,27,516,['c'],1,left,['8'],4,160,[0.15881672],99,53,easy,minus,dotcolour,beta,51,19,M,R,
360,108,24,8,2,36,44,650,['n'],1,right,['8'],4,185,[-0.0707898],65,44,hard,minus,dotcolour,beta,51,19,M,R,
361,109,25,8,2,47,33,634,['c'],1,left,['9'],5,186,[0.10490142],89,47,medium,minus,dotcolour,beta,51,19,M,R,
362,110,26,8,2,53,27,616,['c'],1,left,['0'],6,195,[0.09095248],81,53,easy,minus,dotcolour,beta,51,19,M,R,
363,111,27,8,2,47,33,584,['c'],1,left,['0'],6,164,[0.08610443],80,47,medium,minus,dotcolour,beta,51,19,M,R,
364,112,28,8,2,33,47,650,['n'],1,right,['9'],5,405,[-0.1825327],97,47,medium,minus,dotcolour,beta,51,19,M,R,
365,113,29,8,2,27,53,484,['c'],0,right,['1'],1,1011,[-0.1576664],2,53,easy,minus,dotcolour,beta,51,19,M,R,
366,114,30,8,2,44,36,584,['c'],1,left,['0'],6,124,[0.1321719],98,44,hard,minus,dotcolour,beta,51,19,M,R,
367,115,31,8,2,44,36,817,['c'],1,left,['0'],6,344,[0.09766528],78,44,hard,minus,dotcolour,beta,51,19,M,R,
368,116,32,8,2,53,27,683,['c'],1,left,['9'],5,168,[0.10349401],89,53,easy,minus,dotcolour,beta,51,19,M,R,
369,117,33,8,2,27,53,1734,['n'],1,right,['9'],5,477,[-0.11340079],82,53,easy,minus,dotcolour,beta,51,19,M,R,
370,118,34,8,2,53,27,567,['c'],1,left,['0'],6,356,[0.19517753],99,53,easy,minus,dotcolour,beta,51,19,M,R,
371,119,35,8,2,33,47,534,['n'],1,right,['0'],6,153,[-0.0393065],32,47,medium,minus,dotcolour,beta,51,19,M,R,
372,120,36,8,2,27,53,533,['n'],1,right,['9'],5,183,[-0.1233006],95,53,easy,minus,dotcolour,beta,51,19,M,R,
373,121,37,8,2,36,44,567,['n'],1,right,['9'],5,243,[-0.07498371],67,44,hard,minus,dotcolour,beta,51,19,M,R,
374,122,38,8,2,33,47,417,['n'],1,right,['0'],6,129,[-0.07774327],75,47,medium,minus,dotcolour,beta,51,19,M,R,
375,123,39,8,2,36,44,1151,['c'],0,right,['8'],4,160,[0.03548804],29,44,hard,minus,dotcolour,beta,51,19,M,R,
376,124,40,8,2,33,47,1417,['n'],1,right,['0'],6,250,[-0.20512278],100,47,medium,minus,dotcolour,beta,51,19,M,R,
377,125,41,8,2,53,27,584,['c'],1,left,['9'],5,161,[0.14277774],98,53,easy,minus,dotcolour,beta,51,19,M,R,
378,0,0,9,3,47,33,1168,['n'],0,left,['0'],6,184,[-0.11089443],100,47,medium,plus,dotcolour,beta,51,19,M,R,
379,1,1,9,3,44,36,916,['n'],0,left,['9'],5,133,[-0.08683723],100,44,hard,plus,dotcolour,beta,51,19,M,R,
380,2,2,9,3,36,44,16,['n'],1,right,"['0', '9']",6,114,[-0.09196279],100,44,hard,plus,dotcolour,beta,51,19,M,R,
381,3,3,9,3,27,53,151,['n'],1,right,"['9', '0']",5,175,[-0.04137794],98,53,easy,plus,dotcolour,beta,51,19,M,R,
