trial,withinphasetrial,withinblocktrial,block,phase,dotsLeft,dotsRight,rt,resp,cor,cresp,conf_press,cj,RTconf,ev,fb,diff,difflevel,condition,task,manip,questionID,questionResp,sub,age,gender,handedness,
0,0,0,0,0,33,47,984,['n'],1,right,['8'],4,4539,[-0.37799833],94,47,medium,minus,dotcolour,beta,,,55,19,V,R,
1,1,1,0,0,53,27,1383,['c'],1,left,['0'],6,3413,[0.36509278],95,53,easy,minus,dotcolour,beta,,,55,19,V,R,
2,2,2,0,0,27,53,1734,['n'],1,right,['0'],6,2136,[-0.4081664],99,53,easy,minus,dotcolour,beta,,,55,19,V,R,
3,3,3,0,0,33,47,1616,['c'],0,right,['9'],5,2595,[-0.39018683],1,47,medium,minus,dotcolour,beta,,,55,19,V,R,
4,4,4,0,0,53,27,1917,['c'],1,left,['0'],6,2190,[0.58089528],100,53,easy,minus,dotcolour,beta,,,55,19,V,R,
5,5,5,0,0,36,44,1550,['n'],1,right,['8'],4,1273,[-0.10298658],68,44,hard,minus,dotcolour,beta,,,55,19,V,R,
6,6,6,0,0,53,27,1733,['c'],1,left,['9'],5,2849,[0.57306243],100,53,easy,minus,dotcolour,beta,,,55,19,V,R,
7,7,7,0,0,44,36,950,['c'],1,left,['8'],4,1859,[0.17727684],83,44,hard,minus,dotcolour,beta,,,55,19,V,R,
8,8,8,0,0,33,47,900,['c'],0,right,['8'],4,1421,[-0.02609099],23,47,medium,minus,dotcolour,beta,,,55,19,V,R,
9,9,9,0,0,27,53,1251,['n'],1,right,['9'],5,3899,[-0.55197562],99,53,easy,minus,dotcolour,beta,,,55,19,V,R,
10,10,10,0,0,27,53,1135,['n'],1,right,['0'],6,1050,[-0.34521558],99,53,easy,minus,dotcolour,beta,,,55,19,V,R,
11,11,11,0,0,33,47,1300,['c'],0,right,['0'],6,2301,[-0.14042313],9,47,medium,minus,dotcolour,beta,,,55,19,V,R,
12,12,12,0,0,44,36,1134,['c'],1,left,['0'],6,3828,[0.3824789],95,44,hard,minus,dotcolour,beta,,,55,19,V,R,
13,13,13,0,0,47,33,950,['c'],1,left,['0'],6,789,[0.12719164],81,47,medium,minus,dotcolour,beta,,,55,19,V,R,
14,14,14,0,0,53,27,916,['c'],1,left,['0'],6,1970,[0.11654765],69,53,easy,minus,dotcolour,beta,,,55,19,V,R,
15,15,15,0,0,47,33,1366,['c'],1,left,['0'],6,485,[0.10938852],80,47,medium,minus,dotcolour,beta,,,55,19,V,R,
16,16,16,0,0,44,36,917,['c'],1,left,['9'],5,2142,[0.3233132],96,44,hard,minus,dotcolour,beta,,,55,19,V,R,
17,17,17,0,0,44,36,1567,['c'],1,left,['9'],5,1267,[0.27129493],97,44,hard,minus,dotcolour,beta,,,55,19,V,R,
18,18,18,0,0,47,33,918,['c'],1,left,['9'],5,2708,[0.39264556],98,47,medium,minus,dotcolour,beta,,,55,19,V,R,
19,19,19,0,0,47,33,1117,['c'],1,left,['9'],5,1875,[0.07984598],58,47,medium,minus,dotcolour,beta,,,55,19,V,R,
20,20,20,0,0,36,44,1584,['n'],1,right,['0'],6,2290,[-0.06936343],54,44,hard,minus,dotcolour,beta,,,55,19,V,R,
21,21,21,0,0,36,44,1200,['c'],0,right,['8'],4,4639,[-0.27764889],6,44,hard,minus,dotcolour,beta,,,55,19,V,R,
22,22,22,0,0,44,36,817,['c'],1,left,['8'],4,1693,[0.18801167],86,44,hard,minus,dotcolour,beta,,,55,19,V,R,
23,23,23,0,0,44,36,1517,['n'],0,left,['0'],6,613,[-0.05984327],52,44,hard,minus,dotcolour,beta,,,55,19,V,R,
24,24,24,0,0,36,44,634,['c'],0,right,['9'],5,686,[0.0689721],57,44,hard,minus,dotcolour,beta,,,55,19,V,R,
25,25,25,0,0,27,53,2400,['n'],1,right,['0'],6,635,[-0.06111791],53,53,easy,minus,dotcolour,beta,,,55,19,V,R,
26,26,26,0,0,53,27,784,['c'],1,left,['0'],6,2483,[0.37586601],97,53,easy,minus,dotcolour,beta,,,55,19,V,R,
27,27,27,0,0,44,36,1650,['n'],0,left,['0'],6,1094,[-0.04248449],44,44,hard,minus,dotcolour,beta,,,55,19,V,R,
28,28,28,0,0,47,33,1251,['c'],1,left,['9'],5,1194,[0.18749759],90,47,medium,minus,dotcolour,beta,,,55,19,V,R,
29,29,29,0,0,53,27,735,['c'],1,left,['0'],6,1006,[0.13600476],81,53,easy,minus,dotcolour,beta,,,55,19,V,R,
30,30,30,0,0,47,33,867,['c'],1,left,['9'],5,1316,[0.22765983],94,47,medium,minus,dotcolour,beta,,,55,19,V,R,
31,31,31,0,0,27,53,1650,['n'],1,right,['0'],6,1654,[-0.36558836],99,53,easy,minus,dotcolour,beta,,,55,19,V,R,
32,32,32,0,0,33,47,1617,['c'],0,right,['3'],3,4068,[-0.33405751],3,47,medium,minus,dotcolour,beta,,,55,19,V,R,
33,33,33,0,0,53,27,983,['c'],1,left,['9'],5,690,[0.14748426],88,53,easy,minus,dotcolour,beta,,,55,19,V,R,
34,34,34,0,0,36,44,1184,['n'],1,right,['8'],4,800,[-0.18153975],93,44,hard,minus,dotcolour,beta,,,55,19,V,R,
35,35,35,0,0,33,47,2083,['n'],1,right,['8'],4,782,[-0.27425478],99,47,medium,minus,dotcolour,beta,,,55,19,V,R,
36,36,36,0,0,36,44,1168,['n'],1,right,['3'],3,1033,[-0.32355683],99,44,hard,minus,dotcolour,beta,,,55,19,V,R,
37,37,37,0,0,27,53,1301,['c'],0,right,['3'],3,533,[0.02362501],31,53,easy,minus,dotcolour,beta,,,55,19,V,R,
38,38,38,0,0,36,44,1999,['c'],0,right,['8'],4,666,[0.12887514],83,44,hard,minus,dotcolour,beta,,,55,19,V,R,
39,39,39,0,0,27,53,1366,['n'],1,right,['9'],5,2537,[-0.24492796],89,53,easy,minus,dotcolour,beta,,,55,19,V,R,
40,40,40,0,0,33,47,1284,['n'],1,right,['8'],4,449,[-0.09072278],72,47,medium,minus,dotcolour,beta,,,55,19,V,R,
41,41,41,0,0,47,33,2866,['c'],1,left,['8'],4,2854,[0.18662839],80,47,medium,minus,dotcolour,beta,,,55,19,V,R,
42,42,0,1,0,44,36,1684,['c'],1,left,['9'],5,1393,[0.15965067],83,44,hard,minus,dotcolour,beta,,,55,19,V,R,
43,43,1,1,0,47,33,1267,['c'],1,left,['9'],5,1656,[0.19344715],87,47,medium,minus,dotcolour,beta,,,55,19,V,R,
44,44,2,1,0,33,47,1584,['n'],1,right,['9'],5,1911,[-0.08405447],59,47,medium,minus,dotcolour,beta,,,55,19,V,R,
45,45,3,1,0,47,33,1050,['c'],1,left,['9'],5,1041,[0.10432759],70,47,medium,minus,dotcolour,beta,,,55,19,V,R,
46,46,4,1,0,47,33,1200,['c'],1,left,['3'],3,1520,[0.43627116],100,47,medium,minus,dotcolour,beta,,,55,19,V,R,
47,47,5,1,0,36,44,750,['c'],0,right,['3'],3,831,[-0.09647285],5,44,hard,minus,dotcolour,beta,,,55,19,V,R,
48,48,6,1,0,53,27,1499,['c'],1,left,['9'],5,1531,[0.31607975],98,53,easy,minus,dotcolour,beta,,,55,19,V,R,
49,49,7,1,0,44,36,833,['c'],1,left,['9'],5,989,[0.14145327],83,44,hard,minus,dotcolour,beta,,,55,19,V,R,
50,50,8,1,0,33,47,1251,['n'],1,right,['9'],5,764,[0.01553775],19,47,medium,minus,dotcolour,beta,,,55,19,V,R,
51,51,9,1,0,27,53,2033,['n'],1,right,['8'],4,781,[-0.33398267],100,53,easy,minus,dotcolour,beta,,,55,19,V,R,
52,52,10,1,0,53,27,1484,['c'],1,left,['0'],6,1428,[0.20504456],90,53,easy,minus,dotcolour,beta,,,55,19,V,R,
53,53,11,1,0,36,44,2467,['c'],0,right,['3'],3,1537,[-0.06984766],14,44,hard,minus,dotcolour,beta,,,55,19,V,R,
54,54,12,1,0,53,27,1084,['c'],1,left,['9'],5,889,[0.13708479],83,53,easy,minus,dotcolour,beta,,,55,19,V,R,
55,55,13,1,0,27,53,1767,['n'],1,right,['0'],6,768,[0.05155417],10,53,easy,minus,dotcolour,beta,,,55,19,V,R,
56,56,14,1,0,44,36,2068,['c'],1,left,['3'],3,3064,[-0.08516492],19,44,hard,minus,dotcolour,beta,,,55,19,V,R,
57,57,15,1,0,47,33,1217,['c'],1,left,['2'],2,1421,[0.2832262],97,47,medium,minus,dotcolour,beta,,,55,19,V,R,
58,58,16,1,0,47,33,1100,['c'],1,left,['9'],5,585,[0.10960671],78,47,medium,minus,dotcolour,beta,,,55,19,V,R,
59,59,17,1,0,27,53,1317,['n'],1,right,['9'],5,398,[-0.08940283],72,53,easy,minus,dotcolour,beta,,,55,19,V,R,
60,60,18,1,0,36,44,900,['c'],0,right,['8'],4,1372,[-0.05932696],15,44,hard,minus,dotcolour,beta,,,55,19,V,R,
61,61,19,1,0,53,27,1250,['c'],1,left,['9'],5,1340,[0.06418218],53,53,easy,minus,dotcolour,beta,,,55,19,V,R,
62,62,20,1,0,44,36,1233,['c'],1,left,['0'],6,2262,[0.16313141],78,44,hard,minus,dotcolour,beta,,,55,19,V,R,
63,63,21,1,0,44,36,1484,['n'],0,left,['9'],5,929,[0.0275097],17,44,hard,minus,dotcolour,beta,,,55,19,V,R,
64,64,22,1,0,33,47,1667,['n'],1,right,['2'],2,658,[-0.22704698],98,47,medium,minus,dotcolour,beta,,,55,19,V,R,
65,65,23,1,0,27,53,1400,['n'],1,right,['2'],2,577,[-0.17170004],94,53,easy,minus,dotcolour,beta,,,55,19,V,R,
66,66,24,1,0,47,33,1251,['c'],1,left,['9'],5,1120,[0.22574488],95,47,medium,minus,dotcolour,beta,,,55,19,V,R,
67,67,25,1,0,47,33,767,['c'],1,left,['9'],5,966,[0.36223275],100,47,medium,minus,dotcolour,beta,,,55,19,V,R,
68,68,26,1,0,27,53,1467,['n'],1,right,['8'],4,2038,[-0.32337053],97,53,easy,minus,dotcolour,beta,,,55,19,V,R,
69,69,27,1,0,36,44,983,['c'],0,right,['8'],4,1958,[0.03695099],44,44,hard,minus,dotcolour,beta,,,55,19,V,R,
70,70,28,1,0,44,36,868,['c'],1,left,['9'],5,702,[0.26126797],99,44,hard,minus,dotcolour,beta,,,55,19,V,R,
71,71,29,1,0,33,47,1534,['n'],1,right,['0'],6,613,[-0.18210369],95,47,medium,minus,dotcolour,beta,,,55,19,V,R,
72,72,30,1,0,36,44,3385,['n'],1,right,['9'],5,703,[-0.04237241],43,44,hard,minus,dotcolour,beta,,,55,19,V,R,
73,73,31,1,0,53,27,1016,['c'],1,left,['0'],6,331,[0.16756997],97,53,easy,minus,dotcolour,beta,,,55,19,V,R,
74,74,32,1,0,33,47,2017,['c'],0,right,['8'],4,1270,[-0.0095163],26,47,medium,minus,dotcolour,beta,,,55,19,V,R,
75,75,33,1,0,33,47,1184,['n'],1,right,['9'],5,557,[-0.18166188],95,47,medium,minus,dotcolour,beta,,,55,19,V,R,
76,76,34,1,0,36,44,2466,['n'],1,right,['9'],5,565,[-0.04567349],44,44,hard,minus,dotcolour,beta,,,55,19,V,R,
77,77,35,1,0,53,27,1283,['c'],1,left,['0'],6,1933,[0.22449993],90,53,easy,minus,dotcolour,beta,,,55,19,V,R,
78,78,36,1,0,53,27,984,['c'],1,left,['9'],5,680,[0.14847148],88,53,easy,minus,dotcolour,beta,,,55,19,V,R,
79,79,37,1,0,36,44,2300,['n'],1,right,['8'],4,2394,[-0.13906559],73,44,hard,minus,dotcolour,beta,,,55,19,V,R,
80,80,38,1,0,27,53,916,['n'],1,right,['9'],5,599,[-0.09966775],74,53,easy,minus,dotcolour,beta,,,55,19,V,R,
81,81,39,1,0,44,36,766,['c'],1,left,['0'],6,1201,[-0.11173739],6,44,hard,minus,dotcolour,beta,,,55,19,V,R,
82,82,40,1,0,33,47,1066,['c'],0,right,['3'],3,2703,[-0.39148086],1,47,medium,minus,dotcolour,beta,,,55,19,V,R,
83,83,41,1,0,27,53,1500,['n'],1,right,['8'],4,1368,[-0.1817521],87,53,easy,minus,dotcolour,beta,,,55,19,V,R,
84,84,0,2,0,44,36,1533,['c'],1,left,['0'],6,10625,[0.78735796],98,44,hard,minus,dotcolour,beta,,,55,19,V,R,
85,85,1,2,0,44,36,2683,['n'],0,left,['3'],3,2067,[0.17159255],6,44,hard,minus,dotcolour,beta,,,55,19,V,R,
86,86,2,2,0,36,44,1684,['n'],1,right,['3'],3,1294,[-0.15491192],83,44,hard,minus,dotcolour,beta,,,55,19,V,R,
87,87,3,2,0,44,36,1234,['c'],1,left,['8'],4,1458,[0.31253666],98,44,hard,minus,dotcolour,beta,,,55,19,V,R,
88,88,4,2,0,47,33,967,['c'],1,left,['8'],4,602,[0.20147396],97,47,medium,minus,dotcolour,beta,,,55,19,V,R,
89,89,5,2,0,33,47,1267,['n'],1,right,['9'],5,496,[-0.06140094],54,47,medium,minus,dotcolour,beta,,,55,19,V,R,
90,90,6,2,0,33,47,1017,['c'],0,right,['0'],6,789,[-0.07926829],6,47,medium,minus,dotcolour,beta,,,55,19,V,R,
91,91,7,2,0,27,53,1000,['n'],1,right,['9'],5,1175,[-0.33115849],99,53,easy,minus,dotcolour,beta,,,55,19,V,R,
92,92,8,2,0,27,53,1000,['n'],1,right,['9'],5,872,[-0.3909692],100,53,easy,minus,dotcolour,beta,,,55,19,V,R,
93,93,9,2,0,36,44,3100,['c'],0,right,['9'],5,2491,[-0.18458924],6,44,hard,minus,dotcolour,beta,,,55,19,V,R,
94,94,10,2,0,53,27,1300,['c'],1,left,['0'],6,787,[0.05964145],52,53,easy,minus,dotcolour,beta,,,55,19,V,R,
95,95,11,2,0,53,27,867,['c'],1,left,['0'],6,1106,[0.25258095],97,53,easy,minus,dotcolour,beta,,,55,19,V,R,
96,96,12,2,0,53,27,667,['c'],1,left,['0'],6,452,[0.16836934],95,53,easy,minus,dotcolour,beta,,,55,19,V,R,
97,97,13,2,0,36,44,1466,['n'],1,right,['9'],5,1496,[-0.04405092],46,44,hard,minus,dotcolour,beta,,,55,19,V,R,
98,98,14,2,0,36,44,1500,['c'],0,right,['8'],4,1433,[-0.31000937],0,44,hard,minus,dotcolour,beta,,,55,19,V,R,
99,99,15,2,0,27,53,1433,['n'],1,right,['0'],6,1135,[-0.41822506],100,53,easy,minus,dotcolour,beta,,,55,19,V,R,
100,100,16,2,0,27,53,1682,['n'],1,right,['9'],5,503,[-0.19665158],97,53,easy,minus,dotcolour,beta,,,55,19,V,R,
101,101,17,2,0,53,27,867,['c'],1,left,['9'],5,2866,[0.72762285],100,53,easy,minus,dotcolour,beta,,,55,19,V,R,
102,102,18,2,0,47,33,683,['c'],1,left,['0'],6,404,[0.15975581],95,47,medium,minus,dotcolour,beta,,,55,19,V,R,
103,103,19,2,0,36,44,1333,['c'],0,right,['9'],5,817,[0.06015336],52,44,hard,minus,dotcolour,beta,,,55,19,V,R,
104,104,20,2,0,47,33,750,['c'],1,left,['0'],6,827,[0.0871749],65,47,medium,minus,dotcolour,beta,,,55,19,V,R,
105,105,21,2,0,27,53,1000,['n'],1,right,['9'],5,1034,[-0.36501846],100,53,easy,minus,dotcolour,beta,,,55,19,V,R,
106,106,22,2,0,27,53,1484,['n'],1,right,['8'],4,958,[-0.20153264],94,53,easy,minus,dotcolour,beta,,,55,19,V,R,
107,107,23,2,0,33,47,2834,['c'],0,right,['9'],5,2384,[-0.22661413],4,47,medium,minus,dotcolour,beta,,,55,19,V,R,
108,108,24,2,0,33,47,1434,['n'],1,right,['9'],5,1512,[-0.28227708],97,47,medium,minus,dotcolour,beta,,,55,19,V,R,
109,109,25,2,0,33,47,1733,['n'],1,right,['9'],5,399,[-0.13596287],91,47,medium,minus,dotcolour,beta,,,55,19,V,R,
110,110,26,2,0,53,27,1134,['c'],1,left,['8'],4,947,[0.31915667],99,53,easy,minus,dotcolour,beta,,,55,19,V,R,
111,111,27,2,0,47,33,800,['c'],1,left,['0'],6,807,[0.12255025],79,47,medium,minus,dotcolour,beta,,,55,19,V,R,
112,112,28,2,0,36,44,1568,['n'],1,right,['9'],5,745,[-0.12255497],80,44,hard,minus,dotcolour,beta,,,55,19,V,R,
113,113,29,2,0,33,47,2583,['n'],1,right,['8'],4,861,[-0.09488118],68,47,medium,minus,dotcolour,beta,,,55,19,V,R,
114,114,30,2,0,47,33,1100,['c'],1,left,['9'],5,759,[0.14116147],85,47,medium,minus,dotcolour,beta,,,55,19,V,R,
115,115,31,2,0,44,36,2367,['n'],0,left,['8'],4,1684,[0.09033715],12,44,hard,minus,dotcolour,beta,,,55,19,V,R,
116,116,32,2,0,33,47,2916,['n'],1,right,['3'],3,1261,[-0.23959725],95,47,medium,minus,dotcolour,beta,,,55,19,V,R,
117,117,33,2,0,44,36,2000,['c'],1,left,['8'],4,1067,[0.23960847],96,44,hard,minus,dotcolour,beta,,,55,19,V,R,
118,118,34,2,0,47,33,2234,['n'],0,left,['3'],3,2263,[0.24518069],3,47,medium,minus,dotcolour,beta,,,55,19,V,R,
119,119,35,2,0,36,44,1600,['n'],1,right,['8'],4,1933,[-0.35304965],98,44,hard,minus,dotcolour,beta,,,55,19,V,R,
120,120,36,2,0,44,36,1850,['n'],0,left,['8'],4,887,[0.10769624],4,44,hard,minus,dotcolour,beta,,,55,19,V,R,
121,121,37,2,0,53,27,1067,['c'],1,left,['3'],3,969,[0.13006507],80,53,easy,minus,dotcolour,beta,,,55,19,V,R,
122,122,38,2,0,47,33,1383,['c'],1,left,['9'],5,1220,[0.35443374],99,47,medium,minus,dotcolour,beta,,,55,19,V,R,
123,123,39,2,0,44,36,967,['c'],1,left,['8'],4,645,[0.09209005],69,44,hard,minus,dotcolour,beta,,,55,19,V,R,
124,124,40,2,0,53,27,984,['c'],1,left,['3'],3,1710,[0.30247825],97,53,easy,minus,dotcolour,beta,,,55,19,V,R,
125,125,41,2,0,27,53,1134,['n'],1,right,['0'],6,1869,[-0.31845386],97,53,easy,minus,dotcolour,beta,,,55,19,V,R,
126,0,0,3,1,33,47,2700,['n'],1,right,['0'],6,607,[-0.1747974],100,47,medium,plus,dotcolour,beta,,,55,19,V,R,
127,1,1,3,1,27,53,1834,['n'],1,right,['9'],5,742,[-0.25482768],100,53,easy,plus,dotcolour,beta,,,55,19,V,R,
128,2,2,3,1,33,47,1083,['n'],1,right,['9'],5,550,[-0.20547034],100,47,medium,plus,dotcolour,beta,,,55,19,V,R,
129,3,3,3,1,53,27,1600,['c'],1,left,['3'],3,1290,[0.31031938],100,53,easy,plus,dotcolour,beta,,,55,19,V,R,
130,4,4,3,1,44,36,1633,['c'],1,left,['3'],3,830,[0.20003396],99,44,hard,plus,dotcolour,beta,,,55,19,V,R,
131,5,5,3,1,27,53,1234,['n'],1,right,['9'],5,1532,[-0.23246517],99,53,easy,plus,dotcolour,beta,,,55,19,V,R,
132,6,6,3,1,33,47,2368,['c'],0,right,['3'],3,1185,[0.06483671],88,47,medium,plus,dotcolour,beta,,,55,19,V,R,
133,7,7,3,1,44,36,1017,['c'],1,left,['8'],4,1138,[0.23585549],99,44,hard,plus,dotcolour,beta,,,55,19,V,R,
134,8,8,3,1,33,47,916,['n'],1,right,['9'],5,2384,[-0.12562033],89,47,medium,plus,dotcolour,beta,,,55,19,V,R,
135,9,9,3,1,47,33,1316,['c'],1,left,['9'],5,405,[0.07493195],98,47,medium,plus,dotcolour,beta,,,55,19,V,R,
136,10,10,3,1,53,27,767,['c'],1,left,['0'],6,455,[0.21028334],100,53,easy,plus,dotcolour,beta,,,55,19,V,R,
137,11,11,3,1,36,44,1167,['c'],0,right,['8'],4,815,[0.03144984],85,44,hard,plus,dotcolour,beta,,,55,19,V,R,
138,12,12,3,1,27,53,1467,['n'],1,right,['9'],5,1237,[-0.34478824],100,53,easy,plus,dotcolour,beta,,,55,19,V,R,
139,13,13,3,1,36,44,1484,['c'],0,right,['9'],5,873,[0.19986516],99,44,hard,plus,dotcolour,beta,,,55,19,V,R,
140,14,14,3,1,33,47,1733,['n'],1,right,['8'],4,866,[-0.21052482],99,47,medium,plus,dotcolour,beta,,,55,19,V,R,
141,15,15,3,1,53,27,850,['c'],1,left,['9'],5,1086,[0.21819103],99,53,easy,plus,dotcolour,beta,,,55,19,V,R,
142,16,16,3,1,47,33,967,['c'],1,left,['9'],5,509,[0.10492353],98,47,medium,plus,dotcolour,beta,,,55,19,V,R,
143,17,17,3,1,33,47,1300,['n'],1,right,['8'],4,438,[-0.12148403],99,47,medium,plus,dotcolour,beta,,,55,19,V,R,
144,18,18,3,1,33,47,1834,['n'],1,right,['3'],3,1660,[-0.16614202],96,47,medium,plus,dotcolour,beta,,,55,19,V,R,
145,19,19,3,1,47,33,900,['c'],1,left,['0'],6,870,[0.1534551],98,47,medium,plus,dotcolour,beta,,,55,19,V,R,
146,20,20,3,1,53,27,1084,['c'],1,left,['0'],6,289,[0.14253489],100,53,easy,plus,dotcolour,beta,,,55,19,V,R,
147,21,21,3,1,47,33,1167,['c'],1,left,['9'],5,1016,[0.01795273],79,47,medium,plus,dotcolour,beta,,,55,19,V,R,
148,22,22,3,1,27,53,1383,['n'],1,right,['8'],4,633,[-0.16621438],99,53,easy,plus,dotcolour,beta,,,55,19,V,R,
149,23,23,3,1,44,36,899,['c'],1,left,['0'],6,549,[0.14762189],99,44,hard,plus,dotcolour,beta,,,55,19,V,R,
150,24,24,3,1,47,33,1433,['c'],1,left,['8'],4,391,[0.1910313],100,47,medium,plus,dotcolour,beta,,,55,19,V,R,
151,25,25,3,1,53,27,1766,['c'],1,left,['9'],5,1074,[0.15454048],97,53,easy,plus,dotcolour,beta,,,55,19,V,R,
152,26,26,3,1,44,36,750,['c'],1,left,['9'],5,330,[0.13409259],100,44,hard,plus,dotcolour,beta,,,55,19,V,R,
153,27,27,3,1,36,44,1517,['n'],1,right,['9'],5,1353,[-0.42147978],100,44,hard,plus,dotcolour,beta,,,55,19,V,R,
154,28,28,3,1,36,44,1934,['c'],0,right,['8'],4,815,[-0.24257034],2,44,hard,plus,dotcolour,beta,,,55,19,V,R,
155,29,29,3,1,27,53,1967,['n'],1,right,['8'],4,1432,[0.01728211],64,53,easy,plus,dotcolour,beta,,,55,19,V,R,
156,30,30,3,1,36,44,2234,['n'],1,right,['3'],3,806,[-0.01666954],81,44,hard,plus,dotcolour,beta,,,55,19,V,R,
157,31,31,3,1,44,36,1350,['c'],1,left,['8'],4,1985,[0.10349181],88,44,hard,plus,dotcolour,beta,,,55,19,V,R,
158,32,32,3,1,53,27,850,['c'],1,left,['0'],6,400,[0.10754012],99,53,easy,plus,dotcolour,beta,,,55,19,V,R,
159,33,33,3,1,44,36,1084,['c'],1,left,['9'],5,895,[0.22283707],100,44,hard,plus,dotcolour,beta,,,55,19,V,R,
160,34,34,3,1,47,33,817,['c'],1,left,['8'],4,1908,[0.21641322],97,47,medium,plus,dotcolour,beta,,,55,19,V,R,
161,35,35,3,1,47,33,834,['c'],1,left,['0'],6,455,[0.21017177],100,47,medium,plus,dotcolour,beta,,,55,19,V,R,
162,36,36,3,1,44,36,767,['c'],1,left,['0'],6,503,[0.09833689],98,44,hard,plus,dotcolour,beta,,,55,19,V,R,
163,37,37,3,1,36,44,684,['c'],0,right,['0'],6,1073,[-0.08659393],37,44,hard,plus,dotcolour,beta,,,55,19,V,R,
164,38,38,3,1,27,53,2084,['n'],1,right,['0'],6,467,[-0.09485229],98,53,easy,plus,dotcolour,beta,,,55,19,V,R,
165,39,39,3,1,36,44,1000,['c'],0,right,['0'],6,418,[0.00519374],84,44,hard,plus,dotcolour,beta,,,55,19,V,R,
166,40,40,3,1,27,53,933,['n'],1,right,['0'],6,1102,[-0.12986056],96,53,easy,plus,dotcolour,beta,,,55,19,V,R,
167,41,41,3,1,53,27,834,['c'],1,left,['0'],6,561,[0.0437225],92,53,easy,plus,dotcolour,beta,,,55,19,V,R,
168,42,0,4,1,44,36,1735,['c'],1,left,['9'],5,3027,[0.40417804],99,44,hard,plus,dotcolour,beta,,,55,19,V,R,
169,43,1,4,1,33,47,1434,['n'],1,right,['9'],5,376,[-0.1460479],100,47,medium,plus,dotcolour,beta,,,55,19,V,R,
170,44,2,4,1,47,33,1066,['c'],1,left,['8'],4,488,[0.15122925],100,47,medium,plus,dotcolour,beta,,,55,19,V,R,
171,45,3,4,1,53,27,1100,['c'],1,left,['9'],5,506,[0.09070945],98,53,easy,plus,dotcolour,beta,,,55,19,V,R,
172,46,4,4,1,44,36,700,['c'],1,left,['9'],5,666,[0.20721287],100,44,hard,plus,dotcolour,beta,,,55,19,V,R,
173,47,5,4,1,53,27,766,['c'],1,left,['0'],6,547,[0.05697438],94,53,easy,plus,dotcolour,beta,,,55,19,V,R,
174,48,6,4,1,53,27,766,['c'],1,left,['0'],6,335,[0.0757118],98,53,easy,plus,dotcolour,beta,,,55,19,V,R,
175,49,7,4,1,36,44,984,['n'],1,right,['9'],5,443,[-0.07477581],97,44,hard,plus,dotcolour,beta,,,55,19,V,R,
176,50,8,4,1,27,53,1067,['n'],1,right,['0'],6,1384,[-0.18650485],98,53,easy,plus,dotcolour,beta,,,55,19,V,R,
177,51,9,4,1,33,47,1633,['c'],0,right,['8'],4,464,[0.00248226],82,47,medium,plus,dotcolour,beta,,,55,19,V,R,
178,52,10,4,1,47,33,733,['c'],1,left,['8'],4,490,[0.05388564],94,47,medium,plus,dotcolour,beta,,,55,19,V,R,
179,53,11,4,1,27,53,1434,['n'],1,right,['9'],5,421,[-0.12524351],99,53,easy,plus,dotcolour,beta,,,55,19,V,R,
180,54,12,4,1,27,53,1300,['n'],1,right,['3'],3,1106,[-0.26989602],100,53,easy,plus,dotcolour,beta,,,55,19,V,R,
181,55,13,4,1,27,53,4900,['n'],1,right,['2'],2,2058,[-0.47313057],100,53,easy,plus,dotcolour,beta,,,55,19,V,R,
182,56,14,4,1,44,36,1217,['c'],1,left,['9'],5,2504,[0.25019013],97,44,hard,plus,dotcolour,beta,,,55,19,V,R,
183,57,15,4,1,33,47,1600,['n'],1,right,['2'],2,1413,[-0.28422317],99,47,medium,plus,dotcolour,beta,,,55,19,V,R,
184,58,16,4,1,36,44,1599,['c'],0,right,['9'],5,1390,[0.01586176],75,44,hard,plus,dotcolour,beta,,,55,19,V,R,
185,59,17,4,1,27,53,1217,['n'],1,right,['9'],5,566,[-0.18480318],100,53,easy,plus,dotcolour,beta,,,55,19,V,R,
186,60,18,4,1,33,47,1668,['c'],0,right,['2'],2,814,[-0.00257841],74,47,medium,plus,dotcolour,beta,,,55,19,V,R,
187,61,19,4,1,47,33,1134,['c'],1,left,['0'],6,1473,[0.08366727],89,47,medium,plus,dotcolour,beta,,,55,19,V,R,
188,62,20,4,1,44,36,1316,['c'],1,left,['0'],6,666,[0.21248797],100,44,hard,plus,dotcolour,beta,,,55,19,V,R,
189,63,21,4,1,33,47,1166,['n'],1,right,['8'],4,1106,[-0.20189164],99,47,medium,plus,dotcolour,beta,,,55,19,V,R,
190,64,22,4,1,47,33,1199,['c'],1,left,['9'],5,671,[0.21067047],100,47,medium,plus,dotcolour,beta,,,55,19,V,R,
191,65,23,4,1,33,47,1867,['n'],1,right,['8'],4,1139,[-0.09770079],93,47,medium,plus,dotcolour,beta,,,55,19,V,R,
192,66,24,4,1,47,33,750,['c'],1,left,['9'],5,720,[0.23594958],100,47,medium,plus,dotcolour,beta,,,55,19,V,R,
193,67,25,4,1,36,44,983,['c'],0,right,['9'],5,413,[0.05889357],96,44,hard,plus,dotcolour,beta,,,55,19,V,R,
194,68,26,4,1,36,44,1116,['n'],1,right,['8'],4,2209,[-0.48609386],100,44,hard,plus,dotcolour,beta,,,55,19,V,R,
195,69,27,4,1,44,36,1200,['c'],1,left,['0'],6,497,[0.05680606],95,44,hard,plus,dotcolour,beta,,,55,19,V,R,
196,70,28,4,1,53,27,634,['c'],1,left,['9'],5,428,[0.21802006],100,53,easy,plus,dotcolour,beta,,,55,19,V,R,
197,71,29,4,1,53,27,634,['c'],1,left,['0'],6,340,[0.10629432],99,53,easy,plus,dotcolour,beta,,,55,19,V,R,
198,72,30,4,1,44,36,2317,['n'],0,left,['2'],2,362,[0.01446403],77,44,hard,plus,dotcolour,beta,,,55,19,V,R,
199,73,31,4,1,33,47,1434,['n'],1,right,['8'],4,699,[-0.07317553],94,47,medium,plus,dotcolour,beta,,,55,19,V,R,
200,74,32,4,1,27,53,1250,['n'],1,right,['9'],5,871,[-0.37538624],100,53,easy,plus,dotcolour,beta,,,55,19,V,R,
201,75,33,4,1,36,44,2350,['n'],1,right,['3'],3,1191,[-0.04360716],84,44,hard,plus,dotcolour,beta,,,55,19,V,R,
202,76,34,4,1,53,27,1233,['c'],1,left,['9'],5,1591,[0.41483943],100,53,easy,plus,dotcolour,beta,,,55,19,V,R,
203,77,35,4,1,53,27,617,['c'],1,left,['0'],6,375,[0.21051569],100,53,easy,plus,dotcolour,beta,,,55,19,V,R,
204,78,36,4,1,36,44,1084,['n'],1,right,['8'],4,678,[-0.09979396],97,44,hard,plus,dotcolour,beta,,,55,19,V,R,
205,79,37,4,1,47,33,934,['c'],1,left,['0'],6,671,[0.15283767],99,47,medium,plus,dotcolour,beta,,,55,19,V,R,
206,80,38,4,1,44,36,1284,['n'],0,left,['8'],4,801,[-0.11408831],97,44,hard,plus,dotcolour,beta,,,55,19,V,R,
207,81,39,4,1,47,33,683,['n'],0,left,['1'],1,2334,[-0.1196994],89,47,medium,plus,dotcolour,beta,,,55,19,V,R,
208,82,40,4,1,36,44,1783,['c'],0,right,['8'],4,1179,[0.0703834],89,44,hard,plus,dotcolour,beta,,,55,19,V,R,
209,83,41,4,1,27,53,1316,['n'],1,right,['0'],6,504,[-0.1504209],99,53,easy,plus,dotcolour,beta,,,55,19,V,R,
210,84,0,5,1,27,53,1584,['n'],1,right,['9'],5,2516,[-0.64997483],100,53,easy,plus,dotcolour,beta,,,55,19,V,R,
211,85,1,5,1,44,36,1250,['n'],0,left,['9'],5,374,[-0.06124915],97,44,hard,plus,dotcolour,beta,,,55,19,V,R,
212,86,2,5,1,36,44,1484,['c'],0,right,['2'],2,789,[0.03539269],86,44,hard,plus,dotcolour,beta,,,55,19,V,R,
213,87,3,5,1,53,27,1033,['c'],1,left,['0'],6,357,[0.15019346],100,53,easy,plus,dotcolour,beta,,,55,19,V,R,
214,88,4,5,1,27,53,1884,['n'],1,right,['0'],6,316,[-0.18156028],100,53,easy,plus,dotcolour,beta,,,55,19,V,R,
215,89,5,5,1,44,36,866,['c'],1,left,['9'],5,607,[0.19458791],100,44,hard,plus,dotcolour,beta,,,55,19,V,R,
216,90,6,5,1,36,44,2084,['c'],0,right,['1'],1,1555,[0.06767345],86,44,hard,plus,dotcolour,beta,,,55,19,V,R,
217,91,7,5,1,36,44,4017,['n'],1,right,['2'],2,974,[-0.13372247],97,44,hard,plus,dotcolour,beta,,,55,19,V,R,
218,92,8,5,1,36,44,2433,['c'],0,right,['9'],5,1294,[-0.00473652],69,44,hard,plus,dotcolour,beta,,,55,19,V,R,
219,93,9,5,1,47,33,817,['c'],1,left,['9'],5,723,[0.04562812],89,47,medium,plus,dotcolour,beta,,,55,19,V,R,
220,94,10,5,1,33,47,2200,['n'],1,right,['0'],6,808,[-0.11738056],97,47,medium,plus,dotcolour,beta,,,55,19,V,R,
221,95,11,5,1,36,44,1467,['n'],1,right,['9'],5,797,[-0.22264297],100,44,hard,plus,dotcolour,beta,,,55,19,V,R,
222,96,12,5,1,44,36,933,['c'],1,left,['9'],5,945,[0.15104956],98,44,hard,plus,dotcolour,beta,,,55,19,V,R,
223,97,13,5,1,44,36,1150,['c'],1,left,['9'],5,583,[-0.04206687],58,44,hard,plus,dotcolour,beta,,,55,19,V,R,
224,98,14,5,1,47,33,967,['c'],1,left,['0'],6,970,[0.10202536],95,47,medium,plus,dotcolour,beta,,,55,19,V,R,
225,99,15,5,1,44,36,1683,['n'],0,left,['8'],4,920,[-0.14506673],98,44,hard,plus,dotcolour,beta,,,55,19,V,R,
226,100,16,5,1,47,33,1067,['c'],1,left,['8'],4,401,[0.08417649],98,47,medium,plus,dotcolour,beta,,,55,19,V,R,
227,101,17,5,1,27,53,1201,['n'],1,right,['9'],5,467,[-0.18554202],100,53,easy,plus,dotcolour,beta,,,55,19,V,R,
228,102,18,5,1,36,44,1017,['c'],0,right,['8'],4,2433,[-0.17615061],20,44,hard,plus,dotcolour,beta,,,55,19,V,R,
229,103,19,5,1,47,33,1100,['c'],1,left,['3'],3,1164,[0.24656059],99,47,medium,plus,dotcolour,beta,,,55,19,V,R,
230,104,20,5,1,33,47,1650,['n'],1,right,['8'],4,957,[-0.22951248],99,47,medium,plus,dotcolour,beta,,,55,19,V,R,
231,105,21,5,1,44,36,2034,['c'],1,left,['8'],4,839,[0.20106395],99,44,hard,plus,dotcolour,beta,,,55,19,V,R,
232,106,22,5,1,44,36,1034,['c'],1,left,['8'],4,293,[0.08578922],99,44,hard,plus,dotcolour,beta,,,55,19,V,R,
233,107,23,5,1,36,44,1067,['n'],1,right,['9'],5,919,[-0.24136315],100,44,hard,plus,dotcolour,beta,,,55,19,V,R,
234,108,24,5,1,47,33,1234,['n'],0,left,['8'],4,674,[-0.07536225],95,47,medium,plus,dotcolour,beta,,,55,19,V,R,
235,109,25,5,1,53,27,968,['c'],1,left,['8'],4,1593,[0.26602374],99,53,easy,plus,dotcolour,beta,,,55,19,V,R,
236,110,26,5,1,33,47,2000,['n'],1,right,['0'],6,506,[-0.1871357],100,47,medium,plus,dotcolour,beta,,,55,19,V,R,
237,111,27,5,1,33,47,2366,['n'],1,right,['3'],3,865,[-0.1781867],99,47,medium,plus,dotcolour,beta,,,55,19,V,R,
238,112,28,5,1,27,53,1200,['n'],1,right,['9'],5,495,[-0.13224149],99,53,easy,plus,dotcolour,beta,,,55,19,V,R,
239,113,29,5,1,53,27,1267,['c'],1,left,['0'],6,418,[0.06272949],96,53,easy,plus,dotcolour,beta,,,55,19,V,R,
240,114,30,5,1,27,53,1050,['n'],1,right,['9'],5,768,[-0.29883675],100,53,easy,plus,dotcolour,beta,,,55,19,V,R,
241,115,31,5,1,27,53,1533,['c'],0,right,['3'],3,877,[0.01624619],80,53,easy,plus,dotcolour,beta,,,55,19,V,R,
242,116,32,5,1,33,47,1934,['n'],1,right,['8'],4,1398,[0.00391879],69,47,medium,plus,dotcolour,beta,,,55,19,V,R,
243,117,33,5,1,47,33,2466,['c'],1,left,['0'],6,444,[0.18139282],100,47,medium,plus,dotcolour,beta,,,55,19,V,R,
244,118,34,5,1,53,27,834,['c'],1,left,['0'],6,202,[0.12576595],100,53,easy,plus,dotcolour,beta,,,55,19,V,R,
245,119,35,5,1,53,27,966,['c'],1,left,['0'],6,445,[0.10441182],99,53,easy,plus,dotcolour,beta,,,55,19,V,R,
246,120,36,5,1,53,27,583,['c'],1,left,['0'],6,1461,[0.43325182],100,53,easy,plus,dotcolour,beta,,,55,19,V,R,
247,121,37,5,1,47,33,1967,['c'],1,left,['8'],4,460,[0.17252602],100,47,medium,plus,dotcolour,beta,,,55,19,V,R,
248,122,38,5,1,33,47,1267,['n'],1,right,['8'],4,521,[-0.06089588],95,47,medium,plus,dotcolour,beta,,,55,19,V,R,
249,123,39,5,1,53,27,732,['c'],1,left,['0'],6,343,[0.16056888],100,53,easy,plus,dotcolour,beta,,,55,19,V,R,
250,124,40,5,1,27,53,1317,['n'],1,right,['3'],3,1502,[-0.40200939],100,53,easy,plus,dotcolour,beta,,,55,19,V,R,
251,125,41,5,1,33,47,1533,['n'],1,right,['9'],5,1853,[-0.21236678],97,47,medium,plus,dotcolour,beta,,,55,19,V,R,
252,0,0,6,2,44,36,935,['n'],0,left,['0'],6,431,[-0.10288583],79,44,hard,minus,dotcolour,beta,,,55,19,V,R,
253,1,1,6,2,44,36,867,['c'],1,left,['0'],6,172,[0.04623254],40,44,hard,minus,dotcolour,beta,,,55,19,V,R,
254,2,2,6,2,36,44,799,['n'],1,right,['9'],5,855,[-0.0259946],36,44,hard,minus,dotcolour,beta,,,55,19,V,R,
255,3,3,6,2,33,47,749,['n'],1,right,['9'],5,391,[0.05026098],5,47,medium,minus,dotcolour,beta,,,55,19,V,R,
256,4,4,6,2,33,47,1333,['c'],0,right,['9'],5,1059,[-0.11670447],5,47,medium,minus,dotcolour,beta,,,55,19,V,R,
257,5,5,6,2,44,36,1418,['n'],0,left,['2'],2,497,[-0.12010519],84,44,hard,minus,dotcolour,beta,,,55,19,V,R,
258,6,6,6,2,44,36,899,['c'],1,left,['9'],5,1075,[0.29955565],99,44,hard,minus,dotcolour,beta,,,55,19,V,R,
259,7,7,6,2,27,53,1550,['n'],1,right,['8'],4,1275,[-0.45196677],100,53,easy,minus,dotcolour,beta,,,55,19,V,R,
260,8,8,6,2,27,53,1400,['c'],0,right,['1'],1,1433,[0.05954588],51,53,easy,minus,dotcolour,beta,,,55,19,V,R,
261,9,9,6,2,36,44,1667,['c'],0,right,['3'],3,1662,[0.16494871],82,44,hard,minus,dotcolour,beta,,,55,19,V,R,
262,10,10,6,2,53,27,767,['c'],1,left,['0'],6,477,[0.17283291],96,53,easy,minus,dotcolour,beta,,,55,19,V,R,
263,11,11,6,2,27,53,884,['n'],1,right,['0'],6,360,[-0.08595919],71,53,easy,minus,dotcolour,beta,,,55,19,V,R,
264,12,12,6,2,47,33,700,['c'],1,left,['0'],6,359,[0.0326188],33,47,medium,minus,dotcolour,beta,,,55,19,V,R,
265,13,13,6,2,53,27,1016,['c'],1,left,['0'],6,377,[0.13897449],92,53,easy,minus,dotcolour,beta,,,55,19,V,R,
266,14,14,6,2,53,27,966,['c'],1,left,['9'],5,1956,[0.51871073],100,53,easy,minus,dotcolour,beta,,,55,19,V,R,
267,15,15,6,2,44,36,1299,['c'],1,left,['0'],6,1379,[0.33725994],99,44,hard,minus,dotcolour,beta,,,55,19,V,R,
268,16,16,6,2,33,47,1183,['n'],1,right,['9'],5,1062,[-0.12193152],76,47,medium,minus,dotcolour,beta,,,55,19,V,R,
269,17,17,6,2,47,33,949,['c'],1,left,['9'],5,1598,[0.31825645],98,47,medium,minus,dotcolour,beta,,,55,19,V,R,
270,18,18,6,2,36,44,1317,['n'],1,right,['9'],5,754,[-0.13072558],83,44,hard,minus,dotcolour,beta,,,55,19,V,R,
271,19,19,6,2,47,33,766,['c'],1,left,['9'],5,550,[0.29160891],100,47,medium,minus,dotcolour,beta,,,55,19,V,R,
272,20,20,6,2,47,33,917,['c'],1,left,['9'],5,1045,[0.17831311],90,47,medium,minus,dotcolour,beta,,,55,19,V,R,
273,21,21,6,2,47,33,700,['c'],1,left,['9'],5,473,[0.20270098],98,47,medium,minus,dotcolour,beta,,,55,19,V,R,
274,22,22,6,2,44,36,734,['c'],1,left,['0'],6,1121,[0.16359012],86,44,hard,minus,dotcolour,beta,,,55,19,V,R,
275,23,23,6,2,53,27,716,['c'],1,left,['0'],6,312,[0.03964108],37,53,easy,minus,dotcolour,beta,,,55,19,V,R,
276,24,24,6,2,27,53,1116,['n'],1,right,['0'],6,777,[-0.3579389],100,53,easy,minus,dotcolour,beta,,,55,19,V,R,
277,25,25,6,2,27,53,917,['c'],0,right,['9'],5,766,[0.09676533],70,53,easy,minus,dotcolour,beta,,,55,19,V,R,
278,26,26,6,2,53,27,567,['c'],1,left,['9'],5,618,[0.08289524],65,53,easy,minus,dotcolour,beta,,,55,19,V,R,
279,27,27,6,2,36,44,1317,['c'],0,right,['1'],1,1294,[0.15478817],83,44,hard,minus,dotcolour,beta,,,55,19,V,R,
280,28,28,6,2,53,27,884,['c'],1,left,['9'],5,848,[0.13030493],81,53,easy,minus,dotcolour,beta,,,55,19,V,R,
281,29,29,6,2,44,36,1535,['c'],1,left,['8'],4,594,[0.0012192],22,44,hard,minus,dotcolour,beta,,,55,19,V,R,
282,30,30,6,2,33,47,866,['n'],1,right,['8'],4,1088,[-0.26023891],97,47,medium,minus,dotcolour,beta,,,55,19,V,R,
283,31,31,6,2,33,47,1067,['c'],0,right,['9'],5,363,[-0.00117767],16,47,medium,minus,dotcolour,beta,,,55,19,V,R,
284,32,32,6,2,33,47,1267,['n'],1,right,['9'],5,499,[-0.05562131],50,47,medium,minus,dotcolour,beta,,,55,19,V,R,
285,33,33,6,2,36,44,1133,['c'],0,right,['1'],1,1235,[-0.05089765],15,44,hard,minus,dotcolour,beta,,,55,19,V,R,
286,34,34,6,2,33,47,2467,['c'],0,right,['3'],3,680,[-0.01234969],19,47,medium,minus,dotcolour,beta,,,55,19,V,R,
287,35,35,6,2,47,33,667,['c'],1,left,['8'],4,1627,[0.12318965],72,47,medium,minus,dotcolour,beta,,,55,19,V,R,
288,36,36,6,2,36,44,1783,['n'],1,right,['9'],5,475,[-0.12920207],87,44,hard,minus,dotcolour,beta,,,55,19,V,R,
289,37,37,6,2,27,53,2684,['c'],0,right,['8'],4,759,[-0.01907913],18,53,easy,minus,dotcolour,beta,,,55,19,V,R,
290,38,38,6,2,47,33,1400,['c'],1,left,['8'],4,673,[0.17974425],94,47,medium,minus,dotcolour,beta,,,55,19,V,R,
291,39,39,6,2,36,44,1069,['c'],0,right,['9'],5,717,[0.13381361],84,44,hard,minus,dotcolour,beta,,,55,19,V,R,
292,40,40,6,2,27,53,933,['n'],1,right,['3'],3,1852,[-0.21350349],89,53,easy,minus,dotcolour,beta,,,55,19,V,R,
293,41,41,6,2,53,27,1049,['c'],1,left,['0'],6,1097,[0.15123412],84,53,easy,minus,dotcolour,beta,,,55,19,V,R,
294,42,0,7,2,36,44,1516,['n'],1,right,['9'],5,858,[0.01497038],20,44,hard,minus,dotcolour,beta,,,55,19,V,R,
295,43,1,7,2,47,33,685,['c'],1,left,['9'],5,302,[0.04106345],38,47,medium,minus,dotcolour,beta,,,55,19,V,R,
296,44,2,7,2,44,36,833,['c'],1,left,['9'],5,346,[0.09662988],78,44,hard,minus,dotcolour,beta,,,55,19,V,R,
297,45,3,7,2,47,33,749,['c'],1,left,['9'],5,496,[0.19353576],97,47,medium,minus,dotcolour,beta,,,55,19,V,R,
298,46,4,7,2,44,36,750,['c'],1,left,['0'],6,359,[0.02283579],27,44,hard,minus,dotcolour,beta,,,55,19,V,R,
299,47,5,7,2,44,36,918,['c'],1,left,['9'],5,453,[0.0323623],35,44,hard,minus,dotcolour,beta,,,55,19,V,R,
300,48,6,7,2,36,44,1800,['n'],1,right,['8'],4,964,[-0.15145877],85,44,hard,minus,dotcolour,beta,,,55,19,V,R,
301,49,7,7,2,47,33,1117,['c'],1,left,['8'],4,354,[0.04067205],39,47,medium,minus,dotcolour,beta,,,55,19,V,R,
302,50,8,7,2,27,53,1816,['n'],1,right,['9'],5,781,[-0.2115967],96,53,easy,minus,dotcolour,beta,,,55,19,V,R,
303,51,9,7,2,53,27,716,['c'],1,left,['0'],6,842,[0.21976976],96,53,easy,minus,dotcolour,beta,,,55,19,V,R,
304,52,10,7,2,36,44,1500,['n'],1,right,['9'],5,438,[-0.22049802],99,44,hard,minus,dotcolour,beta,,,55,19,V,R,
305,53,11,7,2,44,36,883,['c'],1,left,['0'],6,930,[0.25787226],98,44,hard,minus,dotcolour,beta,,,55,19,V,R,
306,54,12,7,2,36,44,1533,['c'],0,right,['8'],4,601,[0.18622924],95,44,hard,minus,dotcolour,beta,,,55,19,V,R,
307,55,13,7,2,33,47,1000,['n'],1,right,['0'],6,842,[-0.25375813],98,47,medium,minus,dotcolour,beta,,,55,19,V,R,
308,56,14,7,2,33,47,2333,['n'],1,right,['8'],4,548,[-0.15096752],91,47,medium,minus,dotcolour,beta,,,55,19,V,R,
309,57,15,7,2,53,27,1033,['c'],1,left,['8'],4,1030,[0.29950957],99,53,easy,minus,dotcolour,beta,,,55,19,V,R,
310,58,16,7,2,44,36,2333,['n'],0,left,['3'],3,3273,[0.2375059],5,44,hard,minus,dotcolour,beta,,,55,19,V,R,
311,59,17,7,2,36,44,1117,['n'],1,right,['9'],5,417,[-0.09140206],73,44,hard,minus,dotcolour,beta,,,55,19,V,R,
312,60,18,7,2,33,47,1116,['c'],0,right,['1'],1,653,[0.06006455],53,47,medium,minus,dotcolour,beta,,,55,19,V,R,
313,61,19,7,2,53,27,1534,['c'],1,left,['3'],3,903,[0.28805803],99,53,easy,minus,dotcolour,beta,,,55,19,V,R,
314,62,20,7,2,47,33,716,['c'],1,left,['8'],4,414,[0.1917383],98,47,medium,minus,dotcolour,beta,,,55,19,V,R,
315,63,21,7,2,27,53,883,['n'],1,right,['3'],3,948,[-0.27380248],98,53,easy,minus,dotcolour,beta,,,55,19,V,R,
316,64,22,7,2,53,27,1117,['c'],1,left,['0'],6,451,[0.221217],99,53,easy,minus,dotcolour,beta,,,55,19,V,R,
317,65,23,7,2,27,53,951,['n'],1,right,['8'],4,797,[-0.14380014],86,53,easy,minus,dotcolour,beta,,,55,19,V,R,
318,66,24,7,2,44,36,817,['c'],1,left,['0'],6,741,[0.14855184],87,44,hard,minus,dotcolour,beta,,,55,19,V,R,
319,67,25,7,2,27,53,1084,['n'],1,right,['9'],5,2413,[-0.53807016],100,53,easy,minus,dotcolour,beta,,,55,19,V,R,
320,68,26,7,2,27,53,800,['n'],1,right,['9'],5,365,[-0.11045155],84,53,easy,minus,dotcolour,beta,,,55,19,V,R,
321,69,27,7,2,36,44,1150,['c'],0,right,['9'],5,354,[0.13045669],91,44,hard,minus,dotcolour,beta,,,55,19,V,R,
322,70,28,7,2,27,53,867,['n'],1,right,['9'],5,339,[-0.09600447],78,53,easy,minus,dotcolour,beta,,,55,19,V,R,
323,71,29,7,2,47,33,701,['c'],1,left,['9'],5,402,[0.09336239],75,47,medium,minus,dotcolour,beta,,,55,19,V,R,
324,72,30,7,2,53,27,667,['c'],1,left,['0'],6,345,[0.17938345],98,53,easy,minus,dotcolour,beta,,,55,19,V,R,
325,73,31,7,2,47,33,616,['c'],1,left,['0'],6,235,[0.0888209],77,47,medium,minus,dotcolour,beta,,,55,19,V,R,
326,74,32,7,2,53,27,617,['c'],1,left,['0'],6,362,[0.15847767],96,53,easy,minus,dotcolour,beta,,,55,19,V,R,
327,75,33,7,2,36,44,1034,['n'],1,right,['8'],4,691,[-0.14841499],88,44,hard,minus,dotcolour,beta,,,55,19,V,R,
328,76,34,7,2,44,36,868,['c'],1,left,['3'],3,1334,[0.28147449],97,44,hard,minus,dotcolour,beta,,,55,19,V,R,
329,77,35,7,2,33,47,1199,['n'],1,right,['0'],6,698,[-0.17658112],93,47,medium,minus,dotcolour,beta,,,55,19,V,R,
330,78,36,7,2,33,47,1000,['n'],1,right,['8'],4,1207,[-0.22518904],94,47,medium,minus,dotcolour,beta,,,55,19,V,R,
331,79,37,7,2,33,47,1783,['n'],1,right,['3'],3,577,[-0.10993446],78,47,medium,minus,dotcolour,beta,,,55,19,V,R,
332,80,38,7,2,27,53,800,['n'],1,right,['3'],3,538,[-0.08554536],68,53,easy,minus,dotcolour,beta,,,55,19,V,R,
333,81,39,7,2,33,47,1666,['n'],1,right,['3'],3,475,[-0.06955356],59,47,medium,minus,dotcolour,beta,,,55,19,V,R,
334,82,40,7,2,47,33,1934,['c'],1,left,['8'],4,1212,[0.18474917],89,47,medium,minus,dotcolour,beta,,,55,19,V,R,
335,83,41,7,2,53,27,2017,['n'],0,left,['2'],2,2036,[0.3353923],1,53,easy,minus,dotcolour,beta,,,55,19,V,R,
336,84,0,8,2,47,33,1199,['c'],1,left,['9'],5,1110,[0.22906219],95,47,medium,minus,dotcolour,beta,,,55,19,V,R,
337,85,1,8,2,36,44,1283,['n'],1,right,['3'],3,1215,[-0.08829429],63,44,hard,minus,dotcolour,beta,,,55,19,V,R,
338,86,2,8,2,47,33,750,['c'],1,left,['9'],5,489,[0.25318071],99,47,medium,minus,dotcolour,beta,,,55,19,V,R,
339,87,3,8,2,53,27,733,['c'],1,left,['0'],6,417,[0.1422865],92,53,easy,minus,dotcolour,beta,,,55,19,V,R,
340,88,4,8,2,53,27,682,['c'],1,left,['0'],6,302,[0.1219858],90,53,easy,minus,dotcolour,beta,,,55,19,V,R,
341,89,5,8,2,36,44,1233,['c'],0,right,['8'],4,579,[-0.05450517],7,44,hard,minus,dotcolour,beta,,,55,19,V,R,
342,90,6,8,2,44,36,1016,['c'],1,left,['8'],4,404,[0.12499761],88,44,hard,minus,dotcolour,beta,,,55,19,V,R,
343,91,7,8,2,27,53,1317,['n'],1,right,['9'],5,2048,[-0.55424939],100,53,easy,minus,dotcolour,beta,,,55,19,V,R,
344,92,8,8,2,53,27,666,['c'],1,left,['0'],6,821,[0.05706424],51,53,easy,minus,dotcolour,beta,,,55,19,V,R,
345,93,9,8,2,44,36,750,['c'],1,left,['0'],6,359,[0.10601335],82,44,hard,minus,dotcolour,beta,,,55,19,V,R,
346,94,10,8,2,27,53,967,['n'],1,right,['0'],6,490,[-0.07912302],65,53,easy,minus,dotcolour,beta,,,55,19,V,R,
347,95,11,8,2,33,47,1084,['n'],1,right,['3'],3,524,[-0.1259227],85,47,medium,minus,dotcolour,beta,,,55,19,V,R,
348,96,12,8,2,36,44,766,['c'],0,right,['3'],3,850,[0.11304868],75,44,hard,minus,dotcolour,beta,,,55,19,V,R,
349,97,13,8,2,27,53,933,['n'],1,right,['2'],2,2164,[-0.14577727],75,53,easy,minus,dotcolour,beta,,,55,19,V,R,
350,98,14,8,2,47,33,950,['c'],1,left,['0'],6,312,[0.0855815],72,47,medium,minus,dotcolour,beta,,,55,19,V,R,
351,99,15,8,2,53,27,867,['c'],1,left,['9'],5,322,[0.06902545],61,53,easy,minus,dotcolour,beta,,,55,19,V,R,
352,100,16,8,2,36,44,1082,['n'],1,right,['9'],5,1707,[-0.08335928],59,44,hard,minus,dotcolour,beta,,,55,19,V,R,
353,101,17,8,2,44,36,683,['c'],1,left,['9'],5,484,[0.0824661],67,44,hard,minus,dotcolour,beta,,,55,19,V,R,
354,102,18,8,2,53,27,916,['c'],1,left,['9'],5,429,[0.1221187],86,53,easy,minus,dotcolour,beta,,,55,19,V,R,
355,103,19,8,2,47,33,1201,['n'],0,left,['2'],2,469,[-0.03704886],38,47,medium,minus,dotcolour,beta,,,55,19,V,R,
356,104,20,8,2,33,47,833,['c'],0,right,['2'],2,531,[-0.08630136],3,47,medium,minus,dotcolour,beta,,,55,19,V,R,
357,105,21,8,2,27,53,983,['n'],1,right,['0'],6,519,[-0.08385763],67,53,easy,minus,dotcolour,beta,,,55,19,V,R,
358,106,22,8,2,33,47,1567,['c'],0,right,['0'],6,445,[0.10623134],80,47,medium,minus,dotcolour,beta,,,55,19,V,R,
359,107,23,8,2,44,36,3200,['n'],0,left,['8'],4,404,[0.05304251],4,44,hard,minus,dotcolour,beta,,,55,19,V,R,
360,108,24,8,2,44,36,800,['c'],1,left,['9'],5,333,[0.09339212],76,44,hard,minus,dotcolour,beta,,,55,19,V,R,
361,109,25,8,2,44,36,600,['c'],1,left,['8'],4,817,[0.2501848],98,44,hard,minus,dotcolour,beta,,,55,19,V,R,
362,110,26,8,2,47,33,750,['c'],1,left,['8'],4,348,[0.11141009],85,47,medium,minus,dotcolour,beta,,,55,19,V,R,
363,111,27,8,2,47,33,767,['c'],1,left,['3'],3,1193,[0.20695887],92,47,medium,minus,dotcolour,beta,,,55,19,V,R,
364,112,28,8,2,36,44,1367,['n'],1,right,['9'],5,644,[-0.11413289],79,44,hard,minus,dotcolour,beta,,,55,19,V,R,
365,113,29,8,2,47,33,750,['n'],0,left,['9'],5,389,[-0.08610769],71,47,medium,minus,dotcolour,beta,,,55,19,V,R,
366,114,30,8,2,33,47,1300,['n'],1,right,['2'],2,994,[-0.26144593],98,47,medium,minus,dotcolour,beta,,,55,19,V,R,
367,115,31,8,2,33,47,1167,['n'],1,right,['2'],2,1013,[-0.03859659],42,47,medium,minus,dotcolour,beta,,,55,19,V,R,
368,116,32,8,2,53,27,1234,['c'],1,left,['9'],5,908,[0.30941036],99,53,easy,minus,dotcolour,beta,,,55,19,V,R,
369,117,33,8,2,27,53,751,['n'],1,right,['9'],5,1947,[-0.60017308],100,53,easy,minus,dotcolour,beta,,,55,19,V,R,
370,118,34,8,2,44,36,1400,['n'],0,left,['8'],4,910,[-0.14278679],84,44,hard,minus,dotcolour,beta,,,55,19,V,R,
371,119,35,8,2,27,53,1283,['c'],0,right,['9'],5,439,[-0.00704549],15,53,easy,minus,dotcolour,beta,,,55,19,V,R,
372,120,36,8,2,53,27,783,['c'],1,left,['0'],6,407,[0.19845816],98,53,easy,minus,dotcolour,beta,,,55,19,V,R,
373,121,37,8,2,36,44,983,['n'],1,right,['9'],5,1521,[-0.16836068],84,44,hard,minus,dotcolour,beta,,,55,19,V,R,
374,122,38,8,2,27,53,800,['c'],0,right,['2'],2,1524,[-0.12673492],7,53,easy,minus,dotcolour,beta,,,55,19,V,R,
375,123,39,8,2,33,47,1633,['c'],0,right,['2'],2,679,[-0.02831854],14,47,medium,minus,dotcolour,beta,,,55,19,V,R,
376,124,40,8,2,36,44,983,['c'],0,right,['9'],5,1046,[-0.10056911],6,44,hard,minus,dotcolour,beta,,,55,19,V,R,
377,125,41,8,2,33,47,1333,['n'],1,right,['9'],5,735,[-0.15837067],90,47,medium,minus,dotcolour,beta,,,55,19,V,R,
378,0,0,9,3,47,33,1267,['c'],1,left,['9'],5,641,[0.17152364],99,47,medium,plus,dotcolour,beta,,,55,19,V,R,
379,1,1,9,3,36,44,901,['n'],1,right,['9'],5,349,[-0.15389165],100,44,hard,plus,dotcolour,beta,,,55,19,V,R,
380,2,2,9,3,44,36,633,['c'],1,left,['0'],6,870,[0.14403871],98,44,hard,plus,dotcolour,beta,,,55,19,V,R,
381,3,3,9,3,33,47,850,['c'],0,right,['9'],5,507,[0.04467601],93,47,medium,plus,dotcolour,beta,,,55,19,V,R,
382,4,4,9,3,33,47,767,['c'],0,right,['3'],3,489,[-0.06669461],43,47,medium,plus,dotcolour,beta,,,55,19,V,R,
383,5,5,9,3,53,27,817,['c'],1,left,['9'],5,429,[0.10313228],99,53,easy,plus,dotcolour,beta,,,55,19,V,R,
384,6,6,9,3,33,47,567,['c'],0,right,['2'],2,726,[0.05634645],91,47,medium,plus,dotcolour,beta,,,55,19,V,R,
385,7,7,9,3,36,44,1301,['n'],1,right,['0'],6,430,[-0.10432854],99,44,hard,plus,dotcolour,beta,,,55,19,V,R,
386,8,8,9,3,27,53,700,['c'],0,right,['1'],1,587,[-0.05063429],53,53,easy,plus,dotcolour,beta,,,55,19,V,R,
387,9,9,9,3,36,44,750,['c'],0,right,['2'],2,502,[0.1458438],99,44,hard,plus,dotcolour,beta,,,55,19,V,R,
388,10,10,9,3,27,53,835,['n'],1,right,['9'],5,322,[-0.16311257],100,53,easy,plus,dotcolour,beta,,,55,19,V,R,
389,11,11,9,3,33,47,682,['n'],1,right,['9'],5,210,[-0.10527064],100,47,medium,plus,dotcolour,beta,,,55,19,V,R,
390,12,12,9,3,53,27,716,['c'],1,left,['0'],6,254,[0.18001676],100,53,easy,plus,dotcolour,beta,,,55,19,V,R,
391,13,13,9,3,27,53,883,['n'],1,right,['9'],5,322,[-0.13033458],100,53,easy,plus,dotcolour,beta,,,55,19,V,R,
392,14,14,9,3,47,33,1133,['c'],1,left,['0'],6,257,[0.03992328],97,47,medium,plus,dotcolour,beta,,,55,19,V,R,
393,15,15,9,3,27,53,700,['n'],1,right,['9'],5,460,[-0.15516444],100,53,easy,plus,dotcolour,beta,,,55,19,V,R,
394,16,16,9,3,33,47,950,['c'],0,right,['8'],4,380,[0.02833139],92,47,medium,plus,dotcolour,beta,,,55,19,V,R,
395,17,17,9,3,44,36,633,['c'],1,left,['3'],3,589,[0.20953904],100,44,hard,plus,dotcolour,beta,,,55,19,V,R,
396,18,18,9,3,27,53,950,['n'],1,right,['9'],5,657,[-0.26593828],100,53,easy,plus,dotcolour,beta,,,55,19,V,R,
397,19,19,9,3,44,36,1001,['c'],1,left,['2'],2,679,[0.03371465],88,44,hard,plus,dotcolour,beta,,,55,19,V,R,
398,20,20,9,3,47,33,735,['c'],1,left,['9'],5,728,[0.15086514],99,47,medium,plus,dotcolour,beta,,,55,19,V,R,
399,21,21,9,3,53,27,717,['c'],1,left,['8'],4,583,[0.29288302],100,53,easy,plus,dotcolour,beta,,,55,19,V,R,
400,22,22,9,3,33,47,934,['n'],1,right,['9'],5,1012,[-0.2204571],99,47,medium,plus,dotcolour,beta,,,55,19,V,R,
401,23,23,9,3,44,36,1033,['c'],1,left,['9'],5,635,[0.14561293],99,44,hard,plus,dotcolour,beta,,,55,19,V,R,
402,24,24,9,3,36,44,617,['c'],0,right,['1'],1,1171,[-0.06117984],48,44,hard,plus,dotcolour,beta,,,55,19,V,R,
403,25,25,9,3,36,44,1050,['n'],1,right,['1'],1,411,[-0.12221276],99,44,hard,plus,dotcolour,beta,,,55,19,V,R,
404,26,26,9,3,53,27,700,['c'],1,left,['9'],5,503,[0.13132469],99,53,easy,plus,dotcolour,beta,,,55,19,V,R,
405,27,27,9,3,27,53,868,['n'],1,right,['9'],5,890,[-0.35142055],100,53,easy,plus,dotcolour,beta,,,55,19,V,R,
406,28,28,9,3,33,47,1267,['c'],0,right,['3'],3,1228,[0.0471608],84,47,medium,plus,dotcolour,beta,,,55,19,V,R,
407,29,29,9,3,44,36,1550,['c'],1,left,['3'],3,686,[-0.00411256],75,44,hard,plus,dotcolour,beta,,,55,19,V,R,
408,30,30,9,3,53,27,700,['c'],1,left,['9'],5,760,[0.22569727],100,53,easy,plus,dotcolour,beta,,,55,19,V,R,
409,31,31,9,3,44,36,783,['c'],1,left,['9'],5,643,[0.23461768],100,44,hard,plus,dotcolour,beta,,,55,19,V,R,
410,32,32,9,3,44,36,1067,['n'],0,left,['8'],4,1432,[-0.07029778],87,44,hard,plus,dotcolour,beta,,,55,19,V,R,
411,33,33,9,3,27,53,1150,['n'],1,right,['9'],5,1081,[-0.2998293],100,53,easy,plus,dotcolour,beta,,,55,19,V,R,
412,34,34,9,3,36,44,834,['n'],1,right,['9'],5,414,[0.0030268],81,44,hard,plus,dotcolour,beta,,,55,19,V,R,
413,35,35,9,3,47,33,700,['n'],0,left,['9'],5,179,[-0.04491862],99,47,medium,plus,dotcolour,beta,,,55,19,V,R,
414,36,36,9,3,53,27,583,['n'],0,left,['9'],5,181,[-0.03712942],98,53,easy,plus,dotcolour,beta,,,55,19,V,R,
415,37,37,9,3,47,33,867,['n'],0,left,['8'],4,269,[-0.01414541],92,47,medium,plus,dotcolour,beta,,,55,19,V,R,
416,38,38,9,3,47,33,667,['n'],0,left,['8'],4,233,[-0.02839872],96,47,medium,plus,dotcolour,beta,,,55,19,V,R,
417,39,39,9,3,47,33,800,['n'],0,left,['0'],6,473,[0.02087821],71,47,medium,plus,dotcolour,beta,,,55,19,V,R,
418,40,40,9,3,53,27,583,['n'],0,left,['9'],5,440,[0.0795159],34,53,easy,plus,dotcolour,beta,,,55,19,V,R,
419,41,41,9,3,36,44,750,['n'],1,right,['1'],1,393,[-0.05126025],96,44,hard,plus,dotcolour,beta,,,55,19,V,R,
420,42,0,10,3,27,53,900,['c'],0,right,['0'],6,389,[-0.11066189],17,53,easy,plus,dotcolour,beta,,,55,19,V,R,
421,43,1,10,3,53,27,684,['c'],1,left,['8'],4,635,[0.3344644],100,53,easy,plus,dotcolour,beta,,,55,19,V,R,
422,44,2,10,3,33,47,999,['n'],1,right,['0'],6,651,[-0.03116053],87,47,medium,plus,dotcolour,beta,,,55,19,V,R,
423,45,3,10,3,47,33,667,['c'],1,left,['0'],6,488,[0.1958821],100,47,medium,plus,dotcolour,beta,,,55,19,V,R,
424,46,4,10,3,27,53,768,['c'],0,right,['1'],1,959,[-0.11135832],26,53,easy,plus,dotcolour,beta,,,55,19,V,R,
425,47,5,10,3,47,33,984,['c'],1,left,['9'],5,826,[0.10525166],96,47,medium,plus,dotcolour,beta,,,55,19,V,R,
426,48,6,10,3,53,27,534,['c'],1,left,['9'],5,773,[0.11961396],97,53,easy,plus,dotcolour,beta,,,55,19,V,R,
427,49,7,10,3,47,33,650,['c'],1,left,['8'],4,813,[0.17142317],99,47,medium,plus,dotcolour,beta,,,55,19,V,R,
428,50,8,10,3,27,53,1017,['n'],1,right,['0'],6,381,[-0.07162852],98,53,easy,plus,dotcolour,beta,,,55,19,V,R,
429,51,9,10,3,36,44,1350,['n'],1,right,['8'],4,617,[-0.09842125],97,44,hard,plus,dotcolour,beta,,,55,19,V,R,
430,52,10,10,3,27,53,1017,['c'],0,right,['8'],4,201,[0.0182394],95,53,easy,plus,dotcolour,beta,,,55,19,V,R,
431,53,11,10,3,53,27,666,['c'],1,left,['0'],6,616,[0.19642649],100,53,easy,plus,dotcolour,beta,,,55,19,V,R,
432,54,12,10,3,36,44,751,['c'],0,right,['8'],4,378,[0.01563679],89,44,hard,plus,dotcolour,beta,,,55,19,V,R,
433,55,13,10,3,47,33,1634,['c'],1,left,['0'],6,323,[0.22962659],100,47,medium,plus,dotcolour,beta,,,55,19,V,R,
434,56,14,10,3,36,44,1483,['n'],1,right,['1'],1,700,[-0.08646372],96,44,hard,plus,dotcolour,beta,,,55,19,V,R,
435,57,15,10,3,27,53,750,['c'],0,right,['9'],5,1547,[-0.01856984],63,53,easy,plus,dotcolour,beta,,,55,19,V,R,
436,58,16,10,3,44,36,1000,['c'],1,left,['9'],5,1374,[0.1508524],96,44,hard,plus,dotcolour,beta,,,55,19,V,R,
437,59,17,10,3,36,44,1101,['n'],1,right,['8'],4,364,[-0.0218079],91,44,hard,plus,dotcolour,beta,,,55,19,V,R,
438,60,18,10,3,36,44,733,['n'],1,right,['8'],4,1121,[-0.30603106],100,44,hard,plus,dotcolour,beta,,,55,19,V,R,
439,61,19,10,3,44,36,1251,['c'],1,left,['9'],5,763,[0.04525107],89,44,hard,plus,dotcolour,beta,,,55,19,V,R,
440,62,20,10,3,33,47,800,['c'],0,right,['9'],5,454,[-0.04293321],58,47,medium,plus,dotcolour,beta,,,55,19,V,R,
441,63,21,10,3,33,47,916,['c'],0,right,['2'],2,1816,[0.11020901],90,47,medium,plus,dotcolour,beta,,,55,19,V,R,
442,64,22,10,3,44,36,1734,['c'],1,left,['9'],5,667,[0.09388568],96,44,hard,plus,dotcolour,beta,,,55,19,V,R,
443,65,23,10,3,53,27,917,['c'],1,left,['0'],6,757,[0.15810759],99,53,easy,plus,dotcolour,beta,,,55,19,V,R,
444,66,24,10,3,44,36,1049,['c'],1,left,['9'],5,406,[0.08638215],98,44,hard,plus,dotcolour,beta,,,55,19,V,R,
445,67,25,10,3,44,36,750,['c'],1,left,['9'],5,240,[0.11288851],100,44,hard,plus,dotcolour,beta,,,55,19,V,R,
446,68,26,10,3,53,27,700,['c'],1,left,['0'],6,356,[0.16686737],100,53,easy,plus,dotcolour,beta,,,55,19,V,R,
447,69,27,10,3,36,44,900,['n'],1,right,['0'],6,282,[-0.11664944],100,44,hard,plus,dotcolour,beta,,,55,19,V,R,
448,70,28,10,3,27,53,750,['n'],1,right,['0'],6,242,[-0.06518387],99,53,easy,plus,dotcolour,beta,,,55,19,V,R,
449,71,29,10,3,47,33,867,['c'],1,left,['0'],6,631,[-0.05301693],51,47,medium,plus,dotcolour,beta,,,55,19,V,R,
450,72,30,10,3,44,36,1183,['n'],0,left,['2'],2,696,[0.04665405],55,44,hard,plus,dotcolour,beta,,,55,19,V,R,
451,73,31,10,3,47,33,983,['n'],0,left,['8'],4,1166,[-0.05130955],86,47,medium,plus,dotcolour,beta,,,55,19,V,R,
452,74,32,10,3,33,47,867,['c'],0,right,['8'],4,390,[0.10230486],99,47,medium,plus,dotcolour,beta,,,55,19,V,R,
453,75,33,10,3,33,47,1267,['n'],1,right,['9'],5,500,[-0.09640595],98,47,medium,plus,dotcolour,beta,,,55,19,V,R,
454,76,34,10,3,33,47,1733,['n'],1,right,['9'],5,228,[-0.07657203],99,47,medium,plus,dotcolour,beta,,,55,19,V,R,
455,77,35,10,3,36,44,917,['n'],1,right,['9'],5,375,[-0.12730434],100,44,hard,plus,dotcolour,beta,,,55,19,V,R,
456,78,36,10,3,53,27,750,['c'],1,left,['0'],6,291,[0.15095395],100,53,easy,plus,dotcolour,beta,,,55,19,V,R,
457,79,37,10,3,53,27,832,['c'],1,left,['0'],6,735,[0.21017657],100,53,easy,plus,dotcolour,beta,,,55,19,V,R,
458,80,38,10,3,27,53,916,['n'],1,right,['9'],5,374,[-0.07778513],98,53,easy,plus,dotcolour,beta,,,55,19,V,R,
459,81,39,10,3,33,47,1167,['c'],0,right,['0'],6,194,[0.01415709],95,47,medium,plus,dotcolour,beta,,,55,19,V,R,
460,82,40,10,3,47,33,750,['c'],1,left,['8'],4,213,[0.12736372],100,47,medium,plus,dotcolour,beta,,,55,19,V,R,
461,83,41,10,3,44,36,1268,['c'],1,left,['3'],3,667,[0.08166932],95,44,hard,plus,dotcolour,beta,,,55,19,V,R,
462,84,0,11,3,33,47,801,['n'],1,right,['0'],6,247,[-0.11401753],100,47,medium,plus,dotcolour,beta,,,55,19,V,R,
463,85,1,11,3,53,27,600,['c'],1,left,['0'],6,278,[0.04974087],97,53,easy,plus,dotcolour,beta,,,55,19,V,R,
464,86,2,11,3,36,44,1017,['n'],1,right,['9'],5,524,[-0.00328675],81,44,hard,plus,dotcolour,beta,,,55,19,V,R,
465,87,3,11,3,36,44,684,['c'],0,right,['9'],5,508,[0.06360387],95,44,hard,plus,dotcolour,beta,,,55,19,V,R,
466,88,4,11,3,36,44,833,['c'],0,right,['8'],4,648,[0.07053572],94,44,hard,plus,dotcolour,beta,,,55,19,V,R,
467,89,5,11,3,53,27,667,['c'],1,left,['8'],4,340,[0.2020924],100,53,easy,plus,dotcolour,beta,,,55,19,V,R,
468,90,6,11,3,53,27,666,['c'],1,left,['0'],6,205,[0.14235065],100,53,easy,plus,dotcolour,beta,,,55,19,V,R,
469,91,7,11,3,27,53,718,['c'],0,right,['0'],6,458,[0.00804593],84,53,easy,plus,dotcolour,beta,,,55,19,V,R,
470,92,8,11,3,47,33,600,['c'],1,left,['9'],5,665,[0.15909198],99,47,medium,plus,dotcolour,beta,,,55,19,V,R,
471,93,9,11,3,44,36,716,['c'],1,left,['0'],6,435,[0.12098655],99,44,hard,plus,dotcolour,beta,,,55,19,V,R,
472,94,10,11,3,53,27,617,['c'],1,left,['0'],6,266,[0.00587022],90,53,easy,plus,dotcolour,beta,,,55,19,V,R,
473,95,11,11,3,36,44,966,['n'],1,right,['3'],3,1499,[-0.20291427],98,44,hard,plus,dotcolour,beta,,,55,19,V,R,
474,96,12,11,3,27,53,1383,['n'],1,right,['0'],6,295,[-0.08830982],99,53,easy,plus,dotcolour,beta,,,55,19,V,R,
475,97,13,11,3,27,53,851,['n'],1,right,['0'],6,339,[-0.11730569],100,53,easy,plus,dotcolour,beta,,,55,19,V,R,
476,98,14,11,3,27,53,766,['n'],1,right,['0'],6,375,[-0.28340106],100,53,easy,plus,dotcolour,beta,,,55,19,V,R,
477,99,15,11,3,47,33,867,['c'],1,left,['0'],6,423,[0.15605413],100,47,medium,plus,dotcolour,beta,,,55,19,V,R,
478,100,16,11,3,44,36,549,['c'],1,left,['0'],6,321,[0.06134605],98,44,hard,plus,dotcolour,beta,,,55,19,V,R,
479,101,17,11,3,36,44,967,['n'],1,right,['8'],4,1775,[-0.35343405],100,44,hard,plus,dotcolour,beta,,,55,19,V,R,
480,102,18,11,3,47,33,716,['c'],1,left,['0'],6,1116,[0.0606598],88,47,medium,plus,dotcolour,beta,,,55,19,V,R,
481,103,19,11,3,44,36,667,['c'],1,left,['9'],5,421,[0.01837652],89,44,hard,plus,dotcolour,beta,,,55,19,V,R,
482,104,20,11,3,36,44,1017,['c'],0,right,['0'],6,381,[0.09638294],99,44,hard,plus,dotcolour,beta,,,55,19,V,R,
483,105,21,11,3,47,33,734,['c'],1,left,['0'],6,137,[0.08444188],100,47,medium,plus,dotcolour,beta,,,55,19,V,R,
484,106,22,11,3,33,47,1334,['n'],1,right,['3'],3,1568,[-0.1545411],95,47,medium,plus,dotcolour,beta,,,55,19,V,R,
485,107,23,11,3,33,47,801,['n'],1,right,['9'],5,338,[-0.13488063],100,47,medium,plus,dotcolour,beta,,,55,19,V,R,
486,108,24,11,3,33,47,817,['n'],1,right,['9'],5,237,[-0.05227943],98,47,medium,plus,dotcolour,beta,,,55,19,V,R,
487,109,25,11,3,27,53,784,['n'],1,right,['9'],5,525,[-0.35686953],100,53,easy,plus,dotcolour,beta,,,55,19,V,R,
488,110,26,11,3,27,53,684,['n'],1,right,['0'],6,198,[-0.0663017],99,53,easy,plus,dotcolour,beta,,,55,19,V,R,
489,111,27,11,3,47,33,1150,['c'],1,left,['9'],5,497,[0.19660575],100,47,medium,plus,dotcolour,beta,,,55,19,V,R,
490,112,28,11,3,27,53,866,['n'],1,right,['9'],5,764,[-0.18509834],99,53,easy,plus,dotcolour,beta,,,55,19,V,R,
491,113,29,11,3,36,44,1000,['c'],0,right,['9'],5,847,[0.09779397],95,44,hard,plus,dotcolour,beta,,,55,19,V,R,
492,114,30,11,3,47,33,784,['c'],1,left,['9'],5,303,[0.11910728],100,47,medium,plus,dotcolour,beta,,,55,19,V,R,
493,115,31,11,3,44,36,918,['c'],1,left,['0'],6,255,[0.13832372],100,44,hard,plus,dotcolour,beta,,,55,19,V,R,
494,116,32,11,3,33,47,1001,['n'],1,right,['9'],5,654,[-0.20412946],100,47,medium,plus,dotcolour,beta,,,55,19,V,R,
495,117,33,11,3,44,36,801,['c'],1,left,['0'],6,325,[0.10341207],99,44,hard,plus,dotcolour,beta,,,55,19,V,R,
496,118,34,11,3,33,47,784,['n'],1,right,['8'],4,738,[-0.22199402],100,47,medium,plus,dotcolour,beta,,,55,19,V,R,
497,119,35,11,3,53,27,1666,['n'],0,left,['0'],6,226,[-0.15418545],100,53,easy,plus,dotcolour,beta,,,55,19,V,R,
498,120,36,11,3,33,47,1034,['c'],0,right,['0'],6,433,[-0.07041381],40,47,medium,plus,dotcolour,beta,,,55,19,V,R,
499,121,37,11,3,53,27,584,['c'],1,left,['0'],6,369,[0.07141063],98,53,easy,plus,dotcolour,beta,,,55,19,V,R,
500,122,38,11,3,44,36,584,['c'],1,left,['0'],6,301,[0.04072967],96,44,hard,plus,dotcolour,beta,,,55,19,V,R,
501,123,39,11,3,47,33,866,['c'],1,left,['0'],6,311,[0.19316099],100,47,medium,plus,dotcolour,beta,,,55,19,V,R,
502,124,40,11,3,53,27,650,['c'],1,left,['0'],6,426,[0.24931826],100,53,easy,plus,dotcolour,beta,,,55,19,V,R,
503,125,41,11,3,44,36,600,['c'],1,left,['0'],6,690,[0.10577192],97,44,hard,plus,dotcolour,beta,,,55,19,V,R,
504,0,0,12,4,44,36,716,['c'],1,left,['3'],3,1693,[0.24683925],93,44,hard,minus,dotcolour,beta,,,55,19,V,R,
505,1,1,12,4,47,33,733,['c'],1,left,['0'],6,605,[0.05842104],52,47,medium,minus,dotcolour,beta,,,55,19,V,R,
506,2,2,12,4,33,47,983,['n'],1,right,['9'],5,542,[-0.26967654],99,47,medium,minus,dotcolour,beta,,,55,19,V,R,
507,3,3,12,4,53,27,550,['c'],1,left,['0'],6,299,[0.11498855],88,53,easy,minus,dotcolour,beta,,,55,19,V,R,
508,4,4,12,4,44,36,500,['c'],1,left,['8'],4,756,[0.00439281],26,44,hard,minus,dotcolour,beta,,,55,19,V,R,
509,5,5,12,4,36,44,1000,['n'],1,right,['8'],4,1031,[-0.38181344],100,44,hard,minus,dotcolour,beta,,,55,19,V,R,
510,6,6,12,4,53,27,584,['c'],1,left,['0'],6,392,[0.15904317],95,53,easy,minus,dotcolour,beta,,,55,19,V,R,
511,7,7,12,4,36,44,966,['n'],1,right,['8'],4,618,[-0.10411704],75,44,hard,minus,dotcolour,beta,,,55,19,V,R,
512,8,8,12,4,33,47,717,['c'],0,right,['1'],1,2446,[-0.06855347],19,47,medium,minus,dotcolour,beta,,,55,19,V,R,
513,9,9,12,4,36,44,1150,['n'],1,right,['9'],5,799,[-0.16405472],90,44,hard,minus,dotcolour,beta,,,55,19,V,R,
514,10,10,12,4,27,53,1150,['n'],1,right,['9'],5,251,[-0.18550229],99,53,easy,minus,dotcolour,beta,,,55,19,V,R,
515,11,11,12,4,27,53,800,['n'],1,right,['0'],6,442,[-0.09640111],75,53,easy,minus,dotcolour,beta,,,55,19,V,R,
516,12,12,12,4,47,33,867,['c'],1,left,['0'],6,174,[0.08132955],75,47,medium,minus,dotcolour,beta,,,55,19,V,R,
517,13,13,12,4,36,44,834,['n'],1,right,['0'],6,239,[-0.09782772],83,44,hard,minus,dotcolour,beta,,,55,19,V,R,
518,14,14,12,4,47,33,1065,['n'],0,left,['3'],3,692,[-0.01227155],28,47,medium,minus,dotcolour,beta,,,55,19,V,R,
519,15,15,12,4,44,36,667,['c'],1,left,['0'],6,198,[0.03082946],27,44,hard,minus,dotcolour,beta,,,55,19,V,R,
520,16,16,12,4,53,27,583,['c'],1,left,['9'],5,504,[0.17955648],96,53,easy,minus,dotcolour,beta,,,55,19,V,R,
521,17,17,12,4,53,27,684,['c'],1,left,['0'],6,826,[0.20894734],95,53,easy,minus,dotcolour,beta,,,55,19,V,R,
522,18,18,12,4,33,47,934,['n'],1,right,['9'],5,2420,[-0.647443],100,47,medium,minus,dotcolour,beta,,,55,19,V,R,
523,19,19,12,4,53,27,617,['c'],1,left,['0'],6,700,[0.43031167],100,53,easy,minus,dotcolour,beta,,,55,19,V,R,
524,20,20,12,4,27,53,983,['n'],1,right,['8'],4,721,[-0.06992021],58,53,easy,minus,dotcolour,beta,,,55,19,V,R,
525,21,21,12,4,33,47,2749,['n'],1,right,['2'],2,1032,[-0.07939289],60,47,medium,minus,dotcolour,beta,,,55,19,V,R,
526,22,22,12,4,33,47,1166,['c'],0,right,['9'],5,585,[0.11113954],79,47,medium,minus,dotcolour,beta,,,55,19,V,R,
527,23,23,12,4,36,44,1067,['n'],1,right,['2'],2,433,[-0.09467115],74,44,hard,minus,dotcolour,beta,,,55,19,V,R,
528,24,24,12,4,44,36,1050,['c'],1,left,['0'],6,470,[0.0055536],21,44,hard,minus,dotcolour,beta,,,55,19,V,R,
529,25,25,12,4,27,53,834,['n'],1,right,['0'],6,235,[-0.13042525],94,53,easy,minus,dotcolour,beta,,,55,19,V,R,
530,26,26,12,4,36,44,800,['n'],1,right,['0'],6,203,[-0.15867936],98,44,hard,minus,dotcolour,beta,,,55,19,V,R,
531,27,27,12,4,44,36,967,['n'],0,left,['2'],2,934,[0.0830457],7,44,hard,minus,dotcolour,beta,,,55,19,V,R,
532,28,28,12,4,53,27,967,['c'],1,left,['0'],6,322,[0.14303701],94,53,easy,minus,dotcolour,beta,,,55,19,V,R,
533,29,29,12,4,44,36,566,['c'],1,left,['9'],5,401,[0.04953861],46,44,hard,minus,dotcolour,beta,,,55,19,V,R,
534,30,30,12,4,47,33,1367,['c'],1,left,['9'],5,355,[0.17815006],98,47,medium,minus,dotcolour,beta,,,55,19,V,R,
535,31,31,12,4,53,27,617,['c'],1,left,['0'],6,332,[0.12078956],88,53,easy,minus,dotcolour,beta,,,55,19,V,R,
536,32,32,12,4,47,33,517,['c'],1,left,['2'],2,1484,[-0.0349982],21,47,medium,minus,dotcolour,beta,,,55,19,V,R,
537,33,33,12,4,47,33,750,['c'],1,left,['9'],5,699,[0.25330978],99,47,medium,minus,dotcolour,beta,,,55,19,V,R,
538,34,34,12,4,36,44,651,['c'],0,right,['2'],2,775,[-0.08569722],5,44,hard,minus,dotcolour,beta,,,55,19,V,R,
539,35,35,12,4,44,36,901,['c'],1,left,['9'],5,373,[-0.03041485],7,44,hard,minus,dotcolour,beta,,,55,19,V,R,
540,36,36,12,4,27,53,1017,['n'],1,right,['0'],6,350,[-0.12612896],90,53,easy,minus,dotcolour,beta,,,55,19,V,R,
541,37,37,12,4,27,53,650,['n'],1,right,['9'],5,583,[-0.14967886],90,53,easy,minus,dotcolour,beta,,,55,19,V,R,
542,38,38,12,4,47,33,851,['c'],1,left,['0'],6,239,[0.06465952],58,47,medium,minus,dotcolour,beta,,,55,19,V,R,
543,39,39,12,4,33,47,517,['c'],0,right,['1'],1,1186,[-0.23692447],1,47,medium,minus,dotcolour,beta,,,55,19,V,R,
544,40,40,12,4,27,53,883,['n'],1,right,['0'],6,672,[-0.14561177],88,53,easy,minus,dotcolour,beta,,,55,19,V,R,
545,41,41,12,4,33,47,1750,['c'],0,right,['8'],4,864,[-0.21437273],1,47,medium,minus,dotcolour,beta,,,55,19,V,R,
546,42,0,13,4,44,36,784,['n'],0,left,['0'],6,360,[-0.0866514],72,44,hard,minus,dotcolour,beta,,,55,19,V,R,
547,43,1,13,4,44,36,682,['n'],0,left,['2'],2,1079,[0.15138329],3,44,hard,minus,dotcolour,beta,,,55,19,V,R,
548,44,2,13,4,27,53,950,['n'],1,right,['9'],5,1063,[-0.14120728],82,53,easy,minus,dotcolour,beta,,,55,19,V,R,
549,45,3,13,4,47,33,833,['n'],0,left,['3'],3,556,[0.01256889],16,47,medium,minus,dotcolour,beta,,,55,19,V,R,
550,46,4,13,4,33,47,801,['c'],0,right,['1'],1,911,[-0.00809392],23,47,medium,minus,dotcolour,beta,,,55,19,V,R,
551,47,5,13,4,36,44,1567,['n'],1,right,['0'],6,285,[-0.11080551],87,44,hard,minus,dotcolour,beta,,,55,19,V,R,
552,48,6,13,4,44,36,701,['n'],0,left,['0'],6,247,[0.01381334],7,44,hard,minus,dotcolour,beta,,,55,19,V,R,
553,49,7,13,4,36,44,1116,['c'],0,right,['0'],6,361,[0.04293951],41,44,hard,minus,dotcolour,beta,,,55,19,V,R,
554,50,8,13,4,47,33,1333,['c'],1,left,['0'],6,215,[0.12093187],93,47,medium,minus,dotcolour,beta,,,55,19,V,R,
555,51,9,13,4,53,27,616,['c'],1,left,['0'],6,207,[0.15833955],98,53,easy,minus,dotcolour,beta,,,55,19,V,R,
556,52,10,13,4,27,53,634,['n'],1,right,['0'],6,1014,[-0.17889163],90,53,easy,minus,dotcolour,beta,,,55,19,V,R,
557,53,11,13,4,33,47,867,['c'],0,right,['3'],3,572,[-0.04679362],8,47,medium,minus,dotcolour,beta,,,55,19,V,R,
558,54,12,13,4,47,33,566,['c'],1,left,['3'],3,391,[0.11496336],85,47,medium,minus,dotcolour,beta,,,55,19,V,R,
559,55,13,13,4,44,36,1201,['c'],1,left,['8'],4,536,[0.11988724],83,44,hard,minus,dotcolour,beta,,,55,19,V,R,
560,56,14,13,4,33,47,917,['n'],1,right,['8'],4,336,[-0.09424677],77,47,medium,minus,dotcolour,beta,,,55,19,V,R,
561,57,15,13,4,33,47,1899,['c'],0,right,['8'],4,136,[0.05343326],47,47,medium,minus,dotcolour,beta,,,55,19,V,R,
562,58,16,13,4,53,27,1368,['n'],0,left,['9'],5,269,[-0.17286075],98,53,easy,minus,dotcolour,beta,,,55,19,V,R,
563,59,17,13,4,44,36,1834,['c'],1,left,['9'],5,298,[0.09345499],78,44,hard,minus,dotcolour,beta,,,55,19,V,R,
564,60,18,13,4,36,44,618,['c'],0,right,['1'],1,1263,[-0.01952695],23,44,hard,minus,dotcolour,beta,,,55,19,V,R,
565,61,19,13,4,53,27,867,['c'],1,left,['9'],5,1611,[0.30856394],97,53,easy,minus,dotcolour,beta,,,55,19,V,R,
566,62,20,13,4,27,53,817,['n'],1,right,['0'],6,371,[-0.16989518],97,53,easy,minus,dotcolour,beta,,,55,19,V,R,
567,63,21,13,4,47,33,600,['c'],1,left,['0'],6,998,[0.13611473],81,47,medium,minus,dotcolour,beta,,,55,19,V,R,
568,64,22,13,4,36,44,900,['c'],0,right,['0'],6,627,[0.20960574],97,44,hard,minus,dotcolour,beta,,,55,19,V,R,
569,65,23,13,4,36,44,950,['n'],1,right,['0'],6,445,[0.01810143],12,44,hard,minus,dotcolour,beta,,,55,19,V,R,
570,66,24,13,4,33,47,818,['n'],1,right,['9'],5,315,[0.03308645],6,47,medium,minus,dotcolour,beta,,,55,19,V,R,
571,67,25,13,4,47,33,801,['c'],1,left,['0'],6,1288,[0.12721871],76,47,medium,minus,dotcolour,beta,,,55,19,V,R,
572,68,26,13,4,27,53,1351,['n'],1,right,['9'],5,568,[-0.10981063],79,53,easy,minus,dotcolour,beta,,,55,19,V,R,
573,69,27,13,4,27,53,750,['n'],1,right,['9'],5,301,[-0.10555818],84,53,easy,minus,dotcolour,beta,,,55,19,V,R,
574,70,28,13,4,44,36,967,['c'],1,left,['0'],6,1139,[0.15334399],84,44,hard,minus,dotcolour,beta,,,55,19,V,R,
575,71,29,13,4,53,27,565,['c'],1,left,['0'],6,208,[0.18431912],99,53,easy,minus,dotcolour,beta,,,55,19,V,R,
576,72,30,13,4,53,27,633,['c'],1,left,['0'],6,223,[0.09476576],82,53,easy,minus,dotcolour,beta,,,55,19,V,R,
577,73,31,13,4,47,33,1467,['n'],0,left,['8'],4,828,[0.05799349],10,47,medium,minus,dotcolour,beta,,,55,19,V,R,
578,74,32,13,4,33,47,716,['c'],0,right,['2'],2,1128,[0.10081565],68,47,medium,minus,dotcolour,beta,,,55,19,V,R,
579,75,33,13,4,36,44,1400,['n'],1,right,['9'],5,676,[-0.18936814],95,44,hard,minus,dotcolour,beta,,,55,19,V,R,
580,76,34,13,4,27,53,818,['n'],1,right,['9'],5,377,[-0.15898242],95,53,easy,minus,dotcolour,beta,,,55,19,V,R,
581,77,35,13,4,53,27,1001,['c'],1,left,['9'],5,227,[0.0504907],45,53,easy,minus,dotcolour,beta,,,55,19,V,R,
582,78,36,13,4,27,53,883,['n'],1,right,['9'],5,705,[-0.26917334],99,53,easy,minus,dotcolour,beta,,,55,19,V,R,
583,79,37,13,4,47,33,933,['c'],1,left,['0'],6,295,[0.16491461],97,47,medium,minus,dotcolour,beta,,,55,19,V,R,
584,80,38,13,4,44,36,700,['c'],1,left,['9'],5,921,[0.13451583],81,44,hard,minus,dotcolour,beta,,,55,19,V,R,
585,81,39,13,4,53,27,817,['n'],0,left,['0'],6,620,[0.10384781],3,53,easy,minus,dotcolour,beta,,,55,19,V,R,
586,82,40,13,4,33,47,950,['n'],1,right,['0'],6,222,[-0.04675582],42,47,medium,minus,dotcolour,beta,,,55,19,V,R,
587,83,41,13,4,36,44,1033,['c'],0,right,['1'],1,845,[0.16817922],90,44,hard,minus,dotcolour,beta,,,55,19,V,R,
588,84,0,14,4,27,53,716,['n'],1,right,['9'],5,416,[-0.14453947],92,53,easy,minus,dotcolour,beta,,,55,19,V,R,
589,85,1,14,4,53,27,1150,['n'],0,left,['1'],1,826,[-0.10066151],71,53,easy,minus,dotcolour,beta,,,55,19,V,R,
590,86,2,14,4,47,33,1100,['c'],1,left,['9'],5,646,[0.14739535],89,47,medium,minus,dotcolour,beta,,,55,19,V,R,
591,87,3,14,4,53,27,785,['c'],1,left,['9'],5,566,[0.1841794],96,53,easy,minus,dotcolour,beta,,,55,19,V,R,
592,88,4,14,4,44,36,700,['c'],1,left,['8'],4,853,[0.13037576],81,44,hard,minus,dotcolour,beta,,,55,19,V,R,
593,89,5,14,4,33,47,916,['n'],1,right,['8'],4,343,[-0.02641295],29,47,medium,minus,dotcolour,beta,,,55,19,V,R,
594,90,6,14,4,33,47,800,['n'],1,right,['0'],6,243,[-0.04633785],42,47,medium,minus,dotcolour,beta,,,55,19,V,R,
595,91,7,14,4,33,47,1151,['c'],0,right,['2'],2,1084,[0.07332697],58,47,medium,minus,dotcolour,beta,,,55,19,V,R,
596,92,8,14,4,36,44,1683,['n'],1,right,['9'],5,950,[-0.12899821],80,44,hard,minus,dotcolour,beta,,,55,19,V,R,
597,93,9,14,4,53,27,734,['c'],1,left,['0'],6,500,[0.12655461],86,53,easy,minus,dotcolour,beta,,,55,19,V,R,
598,94,10,14,4,53,27,616,['c'],1,left,['0'],6,209,[0.04884908],43,53,easy,minus,dotcolour,beta,,,55,19,V,R,
599,95,11,14,4,27,53,834,['n'],1,right,['0'],6,161,[-0.134137],97,53,easy,minus,dotcolour,beta,,,55,19,V,R,
600,96,12,14,4,47,33,550,['c'],1,left,['0'],6,524,[0.02108979],30,47,medium,minus,dotcolour,beta,,,55,19,V,R,
601,97,13,14,4,44,36,768,['c'],1,left,['9'],5,322,[0.05352838],48,44,hard,minus,dotcolour,beta,,,55,19,V,R,
602,98,14,14,4,27,53,1067,['n'],1,right,['0'],6,179,[-0.09584948],85,53,easy,minus,dotcolour,beta,,,55,19,V,R,
603,99,15,14,4,47,33,767,['c'],1,left,['8'],4,591,[0.0216536],31,47,medium,minus,dotcolour,beta,,,55,19,V,R,
604,100,16,14,4,44,36,683,['c'],1,left,['8'],4,333,[0.08239239],70,44,hard,minus,dotcolour,beta,,,55,19,V,R,
605,101,17,14,4,36,44,667,['c'],0,right,['1'],1,718,[0.07711216],61,44,hard,minus,dotcolour,beta,,,55,19,V,R,
606,102,18,14,4,27,53,966,['c'],0,right,['0'],6,869,[-0.11664673],3,53,easy,minus,dotcolour,beta,,,55,19,V,R,
607,103,19,14,4,33,47,867,['n'],1,right,['8'],4,1119,[-0.06622051],55,47,medium,minus,dotcolour,beta,,,55,19,V,R,
608,104,20,14,4,27,53,1150,['n'],1,right,['8'],4,1669,[-0.30957064],97,53,easy,minus,dotcolour,beta,,,55,19,V,R,
609,105,21,14,4,36,44,1001,['c'],0,right,['8'],4,372,[0.07849986],66,44,hard,minus,dotcolour,beta,,,55,19,V,R,
610,106,22,14,4,47,33,1017,['n'],0,left,['8'],4,405,[0.06895749],3,47,medium,minus,dotcolour,beta,,,55,19,V,R,
611,107,23,14,4,53,27,967,['c'],1,left,['0'],6,535,[0.16890963],94,53,easy,minus,dotcolour,beta,,,55,19,V,R,
612,108,24,14,4,47,33,883,['c'],1,left,['8'],4,951,[0.07167386],57,47,medium,minus,dotcolour,beta,,,55,19,V,R,
613,109,25,14,4,53,27,650,['c'],1,left,['0'],6,200,[0.11538708],92,53,easy,minus,dotcolour,beta,,,55,19,V,R,
614,110,26,14,4,44,36,1001,['n'],0,left,['0'],6,217,[0.06858845],1,44,hard,minus,dotcolour,beta,,,55,19,V,R,
615,111,27,14,4,44,36,1266,['n'],0,left,['2'],2,656,[0.05385343],8,44,hard,minus,dotcolour,beta,,,55,19,V,R,
616,112,28,14,4,27,53,784,['n'],1,right,['2'],2,271,[-0.19622959],99,53,easy,minus,dotcolour,beta,,,55,19,V,R,
617,113,29,14,4,27,53,1367,['c'],0,right,['8'],4,1087,[-0.04980228],14,53,easy,minus,dotcolour,beta,,,55,19,V,R,
618,114,30,14,4,47,33,599,['c'],1,left,['8'],4,340,[0.0595661],53,47,medium,minus,dotcolour,beta,,,55,19,V,R,
619,115,31,14,4,36,44,1067,['n'],1,right,['8'],4,845,[-0.13413911],82,44,hard,minus,dotcolour,beta,,,55,19,V,R,
620,116,32,14,4,33,47,750,['n'],1,right,['8'],4,278,[-0.1324475],93,47,medium,minus,dotcolour,beta,,,55,19,V,R,
621,117,33,14,4,36,44,1900,['c'],0,right,['3'],3,529,[0.07373645],61,44,hard,minus,dotcolour,beta,,,55,19,V,R,
622,118,34,14,4,53,27,1034,['c'],1,left,['9'],5,515,[0.03652151],38,53,easy,minus,dotcolour,beta,,,55,19,V,R,
623,119,35,14,4,33,47,967,['n'],1,right,['9'],5,273,[-0.12446781],91,47,medium,minus,dotcolour,beta,,,55,19,V,R,
624,120,36,14,4,36,44,850,['c'],0,right,['2'],2,277,[0.05794207],52,44,hard,minus,dotcolour,beta,,,55,19,V,R,
625,121,37,14,4,44,36,716,['n'],0,left,['9'],5,423,[-0.08779071],71,44,hard,minus,dotcolour,beta,,,55,19,V,R,
626,122,38,14,4,44,36,800,['c'],1,left,['8'],4,318,[0.08650522],73,44,hard,minus,dotcolour,beta,,,55,19,V,R,
627,123,39,14,4,36,44,1783,['n'],1,right,['3'],3,396,[-0.07782857],65,44,hard,minus,dotcolour,beta,,,55,19,V,R,
628,124,40,14,4,47,33,800,['n'],0,left,['8'],4,468,[0.08305937],3,47,medium,minus,dotcolour,beta,,,55,19,V,R,
629,125,41,14,4,33,47,1116,['n'],1,right,['2'],2,359,[-0.03969107],38,47,medium,minus,dotcolour,beta,,,55,19,V,R,
630,0,0,15,5,44,36,1167,['c'],1,left,['8'],4,212,[0.0972212],100,44,hard,plus,dotcolour,beta,,,55,19,V,R,
631,1,1,15,5,47,33,700,['c'],1,left,['8'],4,208,[0.09180438],100,47,medium,plus,dotcolour,beta,,,55,19,V,R,
632,2,2,15,5,36,44,1083,['n'],1,right,['9'],5,254,[-0.13861464],100,44,hard,plus,dotcolour,beta,,,55,19,V,R,
633,3,3,15,5,36,44,716,['n'],1,right,['9'],5,201,[-0.0056127],92,44,hard,plus,dotcolour,beta,,,55,19,V,R,
634,4,4,15,5,53,27,750,['c'],1,left,['9'],5,172,[0.07141644],100,53,easy,plus,dotcolour,beta,,,55,19,V,R,
635,5,5,15,5,47,33,800,['c'],1,left,['9'],5,151,[0.06573879],100,47,medium,plus,dotcolour,beta,,,55,19,V,R,
636,6,6,15,5,33,47,884,['n'],1,right,['9'],5,295,[-0.05378205],97,47,medium,plus,dotcolour,beta,,,55,19,V,R,
637,7,7,15,5,47,33,633,['c'],1,left,['0'],6,250,[0.09206445],100,47,medium,plus,dotcolour,beta,,,55,19,V,R,
638,8,8,15,5,36,44,717,['n'],1,right,['0'],6,269,[-0.06799271],99,44,hard,plus,dotcolour,beta,,,55,19,V,R,
639,9,9,15,5,33,47,917,['c'],0,right,['8'],4,591,[-0.05865845],48,47,medium,plus,dotcolour,beta,,,55,19,V,R,
640,10,10,15,5,44,36,584,['c'],1,left,['8'],4,361,[0.10751754],99,44,hard,plus,dotcolour,beta,,,55,19,V,R,
641,11,11,15,5,47,33,600,['c'],1,left,['0'],6,364,[0.11667801],99,47,medium,plus,dotcolour,beta,,,55,19,V,R,
642,12,12,15,5,53,27,601,['c'],1,left,['0'],6,262,[0.15120851],100,53,easy,plus,dotcolour,beta,,,55,19,V,R,
643,13,13,15,5,44,36,1284,['n'],0,left,['3'],3,826,[-0.01602059],80,44,hard,plus,dotcolour,beta,,,55,19,V,R,
644,14,14,15,5,47,33,699,['c'],1,left,['3'],3,910,[0.05166185],88,47,medium,plus,dotcolour,beta,,,55,19,V,R,
645,15,15,15,5,33,47,617,['c'],0,right,['2'],2,1234,[0.01966023],77,47,medium,plus,dotcolour,beta,,,55,19,V,R,
646,16,16,15,5,44,36,1499,['c'],1,left,['9'],5,518,[0.24328458],100,44,hard,plus,dotcolour,beta,,,55,19,V,R,
647,17,17,15,5,44,36,867,['n'],0,left,['8'],4,959,[0.01613912],67,44,hard,plus,dotcolour,beta,,,55,19,V,R,
648,18,18,15,5,44,36,666,['c'],1,left,['9'],5,463,[0.08978224],98,44,hard,plus,dotcolour,beta,,,55,19,V,R,
649,19,19,15,5,27,53,867,['n'],1,right,['0'],6,1075,[-0.35321231],100,53,easy,plus,dotcolour,beta,,,55,19,V,R,
650,20,20,15,5,47,33,666,['c'],1,left,['0'],6,334,[0.23352638],100,47,medium,plus,dotcolour,beta,,,55,19,V,R,
651,21,21,15,5,44,36,617,['c'],1,left,['0'],6,186,[0.05146421],99,44,hard,plus,dotcolour,beta,,,55,19,V,R,
652,22,22,15,5,33,47,1300,['n'],1,right,['0'],6,296,[-0.13131282],100,47,medium,plus,dotcolour,beta,,,55,19,V,R,
653,23,23,15,5,53,27,782,['c'],1,left,['0'],6,222,[0.15332265],100,53,easy,plus,dotcolour,beta,,,55,19,V,R,
654,24,24,15,5,27,53,850,['n'],1,right,['0'],6,236,[-0.06520195],99,53,easy,plus,dotcolour,beta,,,55,19,V,R,
655,25,25,15,5,53,27,800,['n'],0,left,['0'],6,389,[-0.02169741],90,53,easy,plus,dotcolour,beta,,,55,19,V,R,
656,26,26,15,5,47,33,701,['c'],1,left,['0'],6,194,[0.09256959],100,47,medium,plus,dotcolour,beta,,,55,19,V,R,
657,27,27,15,5,36,44,750,['n'],1,right,['0'],6,165,[-0.09034963],100,44,hard,plus,dotcolour,beta,,,55,19,V,R,
658,28,28,15,5,33,47,650,['n'],1,right,['0'],6,182,[-0.13693474],100,47,medium,plus,dotcolour,beta,,,55,19,V,R,
659,29,29,15,5,53,27,816,['c'],1,left,['8'],4,256,[0.08341626],99,53,easy,plus,dotcolour,beta,,,55,19,V,R,
660,30,30,15,5,36,44,1200,['n'],1,right,['9'],5,734,[-0.17973163],99,44,hard,plus,dotcolour,beta,,,55,19,V,R,
661,31,31,15,5,36,44,1117,['c'],0,right,['1'],1,1069,[0.0624386],89,44,hard,plus,dotcolour,beta,,,55,19,V,R,
662,32,32,15,5,27,53,1350,['n'],1,right,['3'],3,309,[-0.07646879],99,53,easy,plus,dotcolour,beta,,,55,19,V,R,
663,33,33,15,5,27,53,700,['n'],1,right,['9'],5,222,[-0.12171183],100,53,easy,plus,dotcolour,beta,,,55,19,V,R,
664,34,34,15,5,27,53,766,['n'],1,right,['9'],5,264,[-0.10426497],100,53,easy,plus,dotcolour,beta,,,55,19,V,R,
665,35,35,15,5,33,47,568,['n'],1,right,['9'],5,240,[-0.16514243],100,47,medium,plus,dotcolour,beta,,,55,19,V,R,
666,36,36,15,5,53,27,834,['c'],1,left,['9'],5,270,[0.10836051],100,53,easy,plus,dotcolour,beta,,,55,19,V,R,
667,37,37,15,5,53,27,734,['c'],1,left,['9'],5,279,[0.13368383],100,53,easy,plus,dotcolour,beta,,,55,19,V,R,
668,38,38,15,5,27,53,934,['n'],1,right,['0'],6,272,[-0.13121727],100,53,easy,plus,dotcolour,beta,,,55,19,V,R,
669,39,39,15,5,27,53,1150,['c'],0,right,['9'],5,424,[0.02266095],90,53,easy,plus,dotcolour,beta,,,55,19,V,R,
670,40,40,15,5,33,47,1101,['n'],1,right,['2'],2,412,[-0.12458007],99,47,medium,plus,dotcolour,beta,,,55,19,V,R,
671,41,41,15,5,36,44,1051,['c'],0,right,['9'],5,275,[0.1095947],100,44,hard,plus,dotcolour,beta,,,55,19,V,R,
672,42,0,16,5,36,44,800,['n'],1,right,['9'],5,2252,[0.05146092],51,44,hard,plus,dotcolour,beta,,,55,19,V,R,
673,43,1,16,5,33,47,1017,['n'],1,right,['3'],3,457,[-0.15783085],100,47,medium,plus,dotcolour,beta,,,55,19,V,R,
674,44,2,16,5,33,47,616,['n'],1,right,['9'],5,368,[-0.08666412],99,47,medium,plus,dotcolour,beta,,,55,19,V,R,
675,45,3,16,5,36,44,767,['c'],0,right,['9'],5,323,[0.00053414],86,44,hard,plus,dotcolour,beta,,,55,19,V,R,
676,46,4,16,5,27,53,633,['n'],1,right,['9'],5,334,[-0.1328267],100,53,easy,plus,dotcolour,beta,,,55,19,V,R,
677,47,5,16,5,27,53,534,['n'],1,right,['0'],6,429,[-0.11362431],99,53,easy,plus,dotcolour,beta,,,55,19,V,R,
678,48,6,16,5,47,33,650,['c'],1,left,['0'],6,179,[0.10351604],100,47,medium,plus,dotcolour,beta,,,55,19,V,R,
679,49,7,16,5,44,36,850,['c'],1,left,['0'],6,115,[0.13327104],100,44,hard,plus,dotcolour,beta,,,55,19,V,R,
680,50,8,16,5,27,53,750,['n'],1,right,['0'],6,273,[-0.14315441],100,53,easy,plus,dotcolour,beta,,,55,19,V,R,
681,51,9,16,5,44,36,733,['c'],1,left,['0'],6,226,[0.04801501],98,44,hard,plus,dotcolour,beta,,,55,19,V,R,
682,52,10,16,5,36,44,766,['c'],0,right,['0'],6,172,[0.09823374],100,44,hard,plus,dotcolour,beta,,,55,19,V,R,
683,53,11,16,5,36,44,1000,['n'],1,right,['8'],4,718,[-0.14921556],99,44,hard,plus,dotcolour,beta,,,55,19,V,R,
684,54,12,16,5,27,53,683,['c'],0,right,['8'],4,343,[0.00327095],86,53,easy,plus,dotcolour,beta,,,55,19,V,R,
685,55,13,16,5,27,53,1316,['n'],1,right,['9'],5,447,[-0.2311219],100,53,easy,plus,dotcolour,beta,,,55,19,V,R,
686,56,14,16,5,44,36,751,['c'],1,left,['9'],5,280,[-0.04315878],60,44,hard,plus,dotcolour,beta,,,55,19,V,R,
687,57,15,16,5,53,27,566,['c'],1,left,['9'],5,167,[0.12946776],100,53,easy,plus,dotcolour,beta,,,55,19,V,R,
688,58,16,16,5,47,33,549,['c'],1,left,['9'],5,476,[0.06459331],96,47,medium,plus,dotcolour,beta,,,55,19,V,R,
689,59,17,16,5,36,44,967,['n'],1,right,['9'],5,371,[-0.12212671],99,44,hard,plus,dotcolour,beta,,,55,19,V,R,
690,60,18,16,5,53,27,850,['c'],1,left,['0'],6,291,[0.15846172],100,53,easy,plus,dotcolour,beta,,,55,19,V,R,
691,61,19,16,5,53,27,568,['c'],1,left,['8'],4,794,[0.05438929],90,53,easy,plus,dotcolour,beta,,,55,19,V,R,
692,62,20,16,5,33,47,1117,['n'],1,right,['9'],5,798,[-0.02260128],83,47,medium,plus,dotcolour,beta,,,55,19,V,R,
693,63,21,16,5,53,27,1100,['c'],1,left,['0'],6,236,[0.05154038],98,53,easy,plus,dotcolour,beta,,,55,19,V,R,
694,64,22,16,5,47,33,567,['c'],1,left,['0'],6,117,[0.09674413],100,47,medium,plus,dotcolour,beta,,,55,19,V,R,
695,65,23,16,5,44,36,1800,['c'],1,left,['0'],6,274,[0.08671125],99,44,hard,plus,dotcolour,beta,,,55,19,V,R,
696,66,24,16,5,33,47,1201,['n'],1,right,['9'],5,199,[-0.09555861],100,47,medium,plus,dotcolour,beta,,,55,19,V,R,
697,67,25,16,5,36,44,567,['c'],0,right,['0'],6,242,[0.03007515],96,44,hard,plus,dotcolour,beta,,,55,19,V,R,
698,68,26,16,5,33,47,1483,['n'],1,right,['9'],5,1662,[-0.08378233],87,47,medium,plus,dotcolour,beta,,,55,19,V,R,
699,69,27,16,5,53,27,833,['c'],1,left,['9'],5,635,[0.26932857],100,53,easy,plus,dotcolour,beta,,,55,19,V,R,
700,70,28,16,5,53,27,1383,['c'],1,left,['9'],5,308,[0.04933049],97,53,easy,plus,dotcolour,beta,,,55,19,V,R,
701,71,29,16,5,47,33,667,['c'],1,left,['9'],5,198,[0.07890998],100,47,medium,plus,dotcolour,beta,,,55,19,V,R,
702,72,30,16,5,27,53,817,['n'],1,right,['0'],6,327,[-0.13154264],100,53,easy,plus,dotcolour,beta,,,55,19,V,R,
703,73,31,16,5,47,33,567,['c'],1,left,['0'],6,428,[0.06015416],96,47,medium,plus,dotcolour,beta,,,55,19,V,R,
704,74,32,16,5,33,47,1050,['n'],1,right,['9'],5,914,[-0.18123516],99,47,medium,plus,dotcolour,beta,,,55,19,V,R,
705,75,33,16,5,44,36,600,['c'],1,left,['9'],5,423,[0.15076706],100,44,hard,plus,dotcolour,beta,,,55,19,V,R,
706,76,34,16,5,33,47,1250,['n'],1,right,['9'],5,548,[-0.07084643],96,47,medium,plus,dotcolour,beta,,,55,19,V,R,
707,77,35,16,5,27,53,949,['n'],1,right,['9'],5,402,[-0.06677215],97,53,easy,plus,dotcolour,beta,,,55,19,V,R,
708,78,36,16,5,53,27,717,['c'],1,left,['0'],6,254,[0.07833755],99,53,easy,plus,dotcolour,beta,,,55,19,V,R,
709,79,37,16,5,36,44,984,['n'],1,right,['0'],6,374,[-0.13328078],100,44,hard,plus,dotcolour,beta,,,55,19,V,R,
710,80,38,16,5,44,36,668,['c'],1,left,['0'],6,223,[0.06172211],99,44,hard,plus,dotcolour,beta,,,55,19,V,R,
711,81,39,16,5,44,36,667,['c'],1,left,['8'],4,692,[0.05975551],92,44,hard,plus,dotcolour,beta,,,55,19,V,R,
712,82,40,16,5,47,33,900,['c'],1,left,['9'],5,310,[0.04908041],97,47,medium,plus,dotcolour,beta,,,55,19,V,R,
713,83,41,16,5,47,33,650,['c'],1,left,['0'],6,440,[0.18498946],100,47,medium,plus,dotcolour,beta,,,55,19,V,R,
714,84,0,17,5,53,27,834,['c'],1,left,['0'],6,242,[0.05167576],98,53,easy,plus,dotcolour,beta,,,55,19,V,R,
715,85,1,17,5,33,47,866,['n'],1,right,['0'],6,287,[-0.07465613],99,47,medium,plus,dotcolour,beta,,,55,19,V,R,
716,86,2,17,5,33,47,950,['n'],1,right,['9'],5,335,[-0.03957521],95,47,medium,plus,dotcolour,beta,,,55,19,V,R,
717,87,3,17,5,44,36,883,['c'],1,left,['8'],4,320,[0.00554412],87,44,hard,plus,dotcolour,beta,,,55,19,V,R,
718,88,4,17,5,44,36,900,['n'],0,left,['8'],4,280,[-0.10274558],100,44,hard,plus,dotcolour,beta,,,55,19,V,R,
719,89,5,17,5,47,33,734,['c'],1,left,['9'],5,865,[0.153318],98,47,medium,plus,dotcolour,beta,,,55,19,V,R,
720,90,6,17,5,47,33,716,['c'],1,left,['9'],5,307,[0.03007819],94,47,medium,plus,dotcolour,beta,,,55,19,V,R,
721,91,7,17,5,53,27,583,['c'],1,left,['9'],5,224,[0.10112489],100,53,easy,plus,dotcolour,beta,,,55,19,V,R,
722,92,8,17,5,47,33,833,['c'],1,left,['9'],5,143,[0.11806209],100,47,medium,plus,dotcolour,beta,,,55,19,V,R,
723,93,9,17,5,47,33,700,['c'],1,left,['9'],5,375,[0.07656963],98,47,medium,plus,dotcolour,beta,,,55,19,V,R,
724,94,10,17,5,53,27,1417,['c'],1,left,['9'],5,336,[0.17952729],100,53,easy,plus,dotcolour,beta,,,55,19,V,R,
725,95,11,17,5,27,53,1033,['n'],1,right,['0'],6,338,[-0.16988354],100,53,easy,plus,dotcolour,beta,,,55,19,V,R,
726,96,12,17,5,44,36,1233,['c'],1,left,['3'],3,381,[0.10003461],99,44,hard,plus,dotcolour,beta,,,55,19,V,R,
727,97,13,17,5,36,44,751,['c'],0,right,['8'],4,1249,[-0.05179174],52,44,hard,plus,dotcolour,beta,,,55,19,V,R,
728,98,14,17,5,33,47,832,['n'],1,right,['9'],5,534,[-0.13354758],99,47,medium,plus,dotcolour,beta,,,55,19,V,R,
729,99,15,17,5,47,33,616,['c'],1,left,['9'],5,225,[-0.0013843],89,47,medium,plus,dotcolour,beta,,,55,19,V,R,
730,100,16,17,5,44,36,917,['c'],1,left,['8'],4,301,[0.05893562],98,44,hard,plus,dotcolour,beta,,,55,19,V,R,
731,101,17,17,5,36,44,1266,['n'],1,right,['8'],4,559,[-0.12965752],99,44,hard,plus,dotcolour,beta,,,55,19,V,R,
732,102,18,17,5,33,47,600,['c'],0,right,['2'],2,922,[0.04779452],87,47,medium,plus,dotcolour,beta,,,55,19,V,R,
733,103,19,17,5,27,53,983,['n'],1,right,['9'],5,439,[-0.12502884],99,53,easy,plus,dotcolour,beta,,,55,19,V,R,
734,104,20,17,5,27,53,884,['n'],1,right,['0'],6,251,[-0.09496087],100,53,easy,plus,dotcolour,beta,,,55,19,V,R,
735,105,21,17,5,47,33,783,['c'],1,left,['0'],6,131,[0.09837021],100,47,medium,plus,dotcolour,beta,,,55,19,V,R,
736,106,22,17,5,36,44,1284,['c'],0,right,['8'],4,523,[0.166481],100,44,hard,plus,dotcolour,beta,,,55,19,V,R,
737,107,23,17,5,53,27,900,['n'],0,left,['1'],1,1115,[0.11077505],28,53,easy,plus,dotcolour,beta,,,55,19,V,R,
738,108,24,17,5,47,33,833,['c'],1,left,['0'],6,583,[0.21918195],100,47,medium,plus,dotcolour,beta,,,55,19,V,R,
739,109,25,17,5,27,53,884,['n'],1,right,['0'],6,237,[-0.1637435],100,53,easy,plus,dotcolour,beta,,,55,19,V,R,
740,110,26,17,5,44,36,600,['c'],1,left,['0'],6,182,[0.03182861],98,44,hard,plus,dotcolour,beta,,,55,19,V,R,
741,111,27,17,5,36,44,550,['c'],0,right,['9'],5,873,[0.04954757],88,44,hard,plus,dotcolour,beta,,,55,19,V,R,
742,112,28,17,5,36,44,634,['c'],0,right,['0'],6,166,[0.13436698],100,44,hard,plus,dotcolour,beta,,,55,19,V,R,
743,113,29,17,5,33,47,633,['c'],0,right,['1'],1,871,[0.03165017],84,47,medium,plus,dotcolour,beta,,,55,19,V,R,
744,114,30,17,5,27,53,1084,['n'],1,right,['0'],6,818,[-0.11170898],97,53,easy,plus,dotcolour,beta,,,55,19,V,R,
745,115,31,17,5,44,36,1116,['n'],0,left,['0'],6,293,[-0.0422601],96,44,hard,plus,dotcolour,beta,,,55,19,V,R,
746,116,32,17,5,44,36,1133,['c'],1,left,['0'],6,173,[0.07791385],100,44,hard,plus,dotcolour,beta,,,55,19,V,R,
747,117,33,17,5,33,47,817,['n'],1,right,['9'],5,247,[-0.09157836],100,47,medium,plus,dotcolour,beta,,,55,19,V,R,
748,118,34,17,5,53,27,583,['c'],1,left,['9'],5,319,[0.16947021],100,53,easy,plus,dotcolour,beta,,,55,19,V,R,
749,119,35,17,5,36,44,933,['n'],1,right,['0'],6,422,[-0.14761989],100,44,hard,plus,dotcolour,beta,,,55,19,V,R,
750,120,36,17,5,36,44,1333,['n'],1,right,['2'],2,465,[-0.13583048],99,44,hard,plus,dotcolour,beta,,,55,19,V,R,
751,121,37,17,5,53,27,784,['c'],1,left,['9'],5,312,[0.08144235],99,53,easy,plus,dotcolour,beta,,,55,19,V,R,
752,122,38,17,5,27,53,1616,['n'],1,right,['9'],5,397,[-0.151737],100,53,easy,plus,dotcolour,beta,,,55,19,V,R,
753,123,39,17,5,53,27,733,['c'],1,left,['9'],5,344,[0.04435551],96,53,easy,plus,dotcolour,beta,,,55,19,V,R,
754,124,40,17,5,33,47,733,['n'],1,right,['0'],6,303,[-0.17150477],100,47,medium,plus,dotcolour,beta,,,55,19,V,R,
755,125,41,17,5,27,53,733,['n'],1,right,['0'],6,287,[-0.15212343],100,53,easy,plus,dotcolour,beta,,,55,19,V,R,
,,,,,,,,,,,,,,,,,,,,,1,   nee niet echt,55,19,V,R,
,,,,,,,,,,,,,,,,,,,,,2,['g'],55,19,V,R,
,,,,,,,,,,,,,,,,,,,,,3,['g'],55,19,V,R,
,,,,,,,,,,,,,,,,,,,,,5,"['1', '5', '3']",55,19,V,R,
