trial,withinphasetrial,withinblocktrial,block,phase,dotsLeft,dotsRight,rt,resp,cor,cresp,conf_press,cj,RTconf,ev,fb,diff,difflevel,condition,task,manip,questionID,questionResp,sub,age,gender,handedness,
0,0,0,0,0,53,27,2817,['n'],0,left,['8'],4,2199,[0.1342232],9,53,easy,minus,dotcolour,beta,,,59,18,V,R,
1,1,1,0,0,47,33,1266,['c'],1,left,['8'],4,1412,[0.17835706],87,47,medium,minus,dotcolour,beta,,,59,18,V,R,
2,2,2,0,0,33,47,950,['n'],1,right,['0'],6,887,[-0.10631943],73,47,medium,minus,dotcolour,beta,,,59,18,V,R,
3,3,3,0,0,27,53,785,['n'],1,right,['0'],6,1125,[-0.31004066],99,53,easy,minus,dotcolour,beta,,,59,18,V,R,
4,4,4,0,0,44,36,567,['c'],1,left,['3'],3,1058,[0.0672789],55,44,hard,minus,dotcolour,beta,,,59,18,V,R,
5,5,5,0,0,36,44,1000,['n'],1,right,['0'],6,553,[0.08203139],3,44,hard,minus,dotcolour,beta,,,59,18,V,R,
6,6,6,0,0,53,27,1334,['c'],1,left,['9'],5,3319,[0.58058635],99,53,easy,minus,dotcolour,beta,,,59,18,V,R,
7,7,7,0,0,53,27,750,['c'],1,left,['0'],6,740,[0.2035575],96,53,easy,minus,dotcolour,beta,,,59,18,V,R,
8,8,8,0,0,47,33,1017,['c'],1,left,['8'],4,743,[0.14891022],88,47,medium,minus,dotcolour,beta,,,59,18,V,R,
9,9,9,0,0,36,44,1334,['n'],1,right,['0'],6,901,[-0.29057634],99,44,hard,minus,dotcolour,beta,,,59,18,V,R,
10,10,10,0,0,44,36,916,['c'],1,left,['9'],5,774,[0.25814859],98,44,hard,minus,dotcolour,beta,,,59,18,V,R,
11,11,11,0,0,36,44,1183,['n'],1,right,['8'],4,696,[-0.10713367],75,44,hard,minus,dotcolour,beta,,,59,18,V,R,
12,12,12,0,0,36,44,934,['n'],1,right,['0'],6,800,[-0.03075993],38,44,hard,minus,dotcolour,beta,,,59,18,V,R,
13,13,13,0,0,33,47,850,['n'],1,right,['8'],4,839,[-0.21281873],96,47,medium,minus,dotcolour,beta,,,59,18,V,R,
14,14,14,0,0,44,36,884,['c'],1,left,['9'],5,1067,[0.22539639],95,44,hard,minus,dotcolour,beta,,,59,18,V,R,
15,15,15,0,0,27,53,700,['n'],1,right,['0'],6,389,[-0.23761289],99,53,easy,minus,dotcolour,beta,,,59,18,V,R,
16,16,16,0,0,47,33,750,['c'],1,left,['9'],5,1057,[0.30239079],99,47,medium,minus,dotcolour,beta,,,59,18,V,R,
17,17,17,0,0,44,36,785,['c'],1,left,['9'],5,664,[0.27003843],99,44,hard,minus,dotcolour,beta,,,59,18,V,R,
18,18,18,0,0,47,33,1184,['c'],1,left,['8'],4,455,[0.179282],96,47,medium,minus,dotcolour,beta,,,59,18,V,R,
19,19,19,0,0,27,53,700,['n'],1,right,['0'],6,418,[-0.17042775],96,53,easy,minus,dotcolour,beta,,,59,18,V,R,
20,20,20,0,0,27,53,767,['n'],1,right,['0'],6,596,[-0.1359278],87,53,easy,minus,dotcolour,beta,,,59,18,V,R,
21,21,21,0,0,33,47,767,['n'],1,right,['0'],6,447,[-0.05184427],48,47,medium,minus,dotcolour,beta,,,59,18,V,R,
22,22,22,0,0,27,53,1318,['n'],1,right,['9'],5,849,[-0.08446967],64,53,easy,minus,dotcolour,beta,,,59,18,V,R,
23,23,23,0,0,33,47,1184,['n'],1,right,['9'],5,497,[-0.03431427],37,47,medium,minus,dotcolour,beta,,,59,18,V,R,
24,24,24,0,0,33,47,1118,['n'],1,right,['9'],5,594,[-0.10064657],74,47,medium,minus,dotcolour,beta,,,59,18,V,R,
25,25,25,0,0,44,36,1467,['c'],1,left,['8'],4,633,[0.17358267],94,44,hard,minus,dotcolour,beta,,,59,18,V,R,
26,26,26,0,0,27,53,866,['n'],1,right,['0'],6,471,[-0.07132252],60,53,easy,minus,dotcolour,beta,,,59,18,V,R,
27,27,27,0,0,53,27,866,['c'],1,left,['0'],6,538,[0.01187488],26,53,easy,minus,dotcolour,beta,,,59,18,V,R,
28,28,28,0,0,36,44,949,['n'],1,right,['9'],5,1031,[-0.15109459],84,44,hard,minus,dotcolour,beta,,,59,18,V,R,
29,29,29,0,0,36,44,950,['c'],0,right,['0'],6,617,[0.12874822],84,44,hard,minus,dotcolour,beta,,,59,18,V,R,
30,30,30,0,0,47,33,1050,['c'],1,left,['3'],3,2064,[0.33465111],97,47,medium,minus,dotcolour,beta,,,59,18,V,R,
31,31,31,0,0,33,47,1134,['n'],1,right,['0'],6,529,[-0.09529946],73,47,medium,minus,dotcolour,beta,,,59,18,V,R,
32,32,32,0,0,47,33,734,['c'],1,left,['0'],6,519,[0.2431509],99,47,medium,minus,dotcolour,beta,,,59,18,V,R,
33,33,33,0,0,27,53,767,['n'],1,right,['9'],5,429,[-0.07758153],65,53,easy,minus,dotcolour,beta,,,59,18,V,R,
34,34,34,0,0,53,27,734,['c'],1,left,['0'],6,1184,[0.02593222],38,53,easy,minus,dotcolour,beta,,,59,18,V,R,
35,35,35,0,0,44,36,5883,['c'],1,left,['3'],3,639,[0.10371266],75,44,hard,minus,dotcolour,beta,,,59,18,V,R,
36,36,36,0,0,36,44,834,['n'],1,right,['0'],6,556,[-0.11248176],80,44,hard,minus,dotcolour,beta,,,59,18,V,R,
37,37,37,0,0,47,33,999,['c'],1,left,['0'],6,367,[0.03567991],36,47,medium,minus,dotcolour,beta,,,59,18,V,R,
38,38,38,0,0,44,36,800,['c'],1,left,['9'],5,433,[0.13384032],89,44,hard,minus,dotcolour,beta,,,59,18,V,R,
39,39,39,0,0,33,47,1550,['n'],1,right,['9'],5,443,[-0.07225577],61,47,medium,minus,dotcolour,beta,,,59,18,V,R,
40,40,40,0,0,53,27,717,['c'],1,left,['0'],6,686,[0.16162292],91,53,easy,minus,dotcolour,beta,,,59,18,V,R,
41,41,41,0,0,53,27,800,['c'],1,left,['0'],6,315,[0.19974815],99,53,easy,minus,dotcolour,beta,,,59,18,V,R,
42,42,0,1,0,36,44,1017,['n'],1,right,['0'],6,443,[-0.21367666],99,44,hard,minus,dotcolour,beta,,,59,18,V,R,
43,43,1,1,0,53,27,532,['c'],1,left,['0'],6,358,[0.06752706],59,53,easy,minus,dotcolour,beta,,,59,18,V,R,
44,44,2,1,0,33,47,1016,['n'],1,right,['9'],5,344,[-0.13611185],92,47,medium,minus,dotcolour,beta,,,59,18,V,R,
45,45,3,1,0,53,27,417,['c'],1,left,['0'],6,371,[0.15436459],95,53,easy,minus,dotcolour,beta,,,59,18,V,R,
46,46,4,1,0,27,53,667,['n'],1,right,['0'],6,371,[-0.03246209],34,53,easy,minus,dotcolour,beta,,,59,18,V,R,
47,47,5,1,0,47,33,716,['c'],1,left,['9'],5,240,[0.14937181],97,47,medium,minus,dotcolour,beta,,,59,18,V,R,
48,48,6,1,0,33,47,1167,['n'],1,right,['9'],5,257,[-0.03692349],34,47,medium,minus,dotcolour,beta,,,59,18,V,R,
49,49,7,1,0,36,44,1250,['n'],1,right,['9'],5,278,[-0.03256795],31,44,hard,minus,dotcolour,beta,,,59,18,V,R,
50,50,8,1,0,53,27,600,['c'],1,left,['9'],5,268,[0.15577458],97,53,easy,minus,dotcolour,beta,,,59,18,V,R,
51,51,9,1,0,36,44,700,['n'],1,right,['0'],6,270,[-0.04181586],38,44,hard,minus,dotcolour,beta,,,59,18,V,R,
52,52,10,1,0,53,27,582,['c'],1,left,['0'],6,302,[0.05231473],47,53,easy,minus,dotcolour,beta,,,59,18,V,R,
53,53,11,1,0,33,47,633,['n'],1,right,['0'],6,290,[-0.13955922],94,47,medium,minus,dotcolour,beta,,,59,18,V,R,
54,54,12,1,0,53,27,617,['c'],1,left,['0'],6,182,[0.12774805],95,53,easy,minus,dotcolour,beta,,,59,18,V,R,
55,55,13,1,0,53,27,483,['c'],1,left,['0'],6,158,[0.12910579],97,53,easy,minus,dotcolour,beta,,,59,18,V,R,
56,56,14,1,0,27,53,950,['n'],1,right,['9'],5,146,[-0.09509805],87,53,easy,minus,dotcolour,beta,,,59,18,V,R,
57,57,15,1,0,36,44,651,['n'],1,right,['0'],6,276,[-0.01210114],18,44,hard,minus,dotcolour,beta,,,59,18,V,R,
58,58,16,1,0,44,36,866,['c'],1,left,['0'],6,183,[0.04552173],40,44,hard,minus,dotcolour,beta,,,59,18,V,R,
59,59,17,1,0,47,33,884,['c'],1,left,['9'],5,134,[0.10512627],92,47,medium,minus,dotcolour,beta,,,59,18,V,R,
60,60,18,1,0,27,53,700,['n'],1,right,['9'],5,213,[-0.11216611],90,53,easy,minus,dotcolour,beta,,,59,18,V,R,
61,61,19,1,0,44,36,1051,['c'],1,left,['9'],5,140,[0.02101005],16,44,hard,minus,dotcolour,beta,,,59,18,V,R,
62,62,20,1,0,44,36,917,['c'],1,left,['9'],5,211,[0.03462212],31,44,hard,minus,dotcolour,beta,,,59,18,V,R,
63,63,21,1,0,33,47,983,['n'],1,right,['9'],5,244,[-0.10729615],87,47,medium,minus,dotcolour,beta,,,59,18,V,R,
64,64,22,1,0,44,36,467,['c'],1,left,['9'],5,385,[0.03149746],33,44,hard,minus,dotcolour,beta,,,59,18,V,R,
65,65,23,1,0,36,44,616,['c'],0,right,['9'],5,186,[0.06898171],64,44,hard,minus,dotcolour,beta,,,59,18,V,R,
66,66,24,1,0,53,27,468,['c'],1,left,['9'],5,161,[0.11846519],94,53,easy,minus,dotcolour,beta,,,59,18,V,R,
67,67,25,1,0,27,53,618,['n'],1,right,['0'],6,188,[-0.14990668],98,53,easy,minus,dotcolour,beta,,,59,18,V,R,
68,68,26,1,0,47,33,716,['c'],1,left,['8'],4,137,[0.08892391],84,47,medium,minus,dotcolour,beta,,,59,18,V,R,
69,69,27,1,0,47,33,784,['c'],1,left,['8'],4,245,[0.0807026],71,47,medium,minus,dotcolour,beta,,,59,18,V,R,
70,70,28,1,0,33,47,866,['n'],1,right,['0'],6,227,[-0.08219538],73,47,medium,minus,dotcolour,beta,,,59,18,V,R,
71,71,29,1,0,47,33,584,['c'],1,left,['8'],4,187,[0.04186388],36,47,medium,minus,dotcolour,beta,,,59,18,V,R,
72,72,30,1,0,27,53,617,['n'],1,right,['0'],6,213,[-0.21338502],100,53,easy,minus,dotcolour,beta,,,59,18,V,R,
73,73,31,1,0,44,36,766,['c'],1,left,['0'],6,166,[0.04092003],34,44,hard,minus,dotcolour,beta,,,59,18,V,R,
74,74,32,1,0,36,44,850,['n'],1,right,['0'],6,207,[-0.10549658],88,44,hard,minus,dotcolour,beta,,,59,18,V,R,
75,75,33,1,0,36,44,1034,['n'],1,right,['0'],6,174,[-0.07988859],74,44,hard,minus,dotcolour,beta,,,59,18,V,R,
76,76,34,1,0,27,53,650,['n'],1,right,['0'],6,182,[-0.05399187],48,53,easy,minus,dotcolour,beta,,,59,18,V,R,
77,77,35,1,0,27,53,667,['n'],1,right,['0'],6,198,[-0.12726366],95,53,easy,minus,dotcolour,beta,,,59,18,V,R,
78,78,36,1,0,44,36,817,['c'],1,left,['8'],4,135,[0.05395686],48,44,hard,minus,dotcolour,beta,,,59,18,V,R,
79,79,37,1,0,47,33,683,['c'],1,left,['0'],6,103,[0.10046836],93,47,medium,minus,dotcolour,beta,,,59,18,V,R,
80,80,38,1,0,33,47,566,['n'],1,right,['0'],6,167,[-0.07016656],66,47,medium,minus,dotcolour,beta,,,59,18,V,R,
81,81,39,1,0,33,47,633,['n'],1,right,['0'],6,135,[-0.0537026],48,47,medium,minus,dotcolour,beta,,,59,18,V,R,
82,82,40,1,0,47,33,634,['c'],1,left,['0'],6,123,[0.13980077],99,47,medium,minus,dotcolour,beta,,,59,18,V,R,
83,83,41,1,0,44,36,783,['n'],0,left,['0'],6,111,[-0.01501734],10,44,hard,minus,dotcolour,beta,,,59,18,V,R,
84,84,0,2,0,53,27,800,['c'],1,left,['0'],6,93,[0.01889903],10,53,easy,minus,dotcolour,beta,,,59,18,V,R,
85,85,1,2,0,27,53,500,['n'],1,right,['0'],6,159,[-0.10844978],92,53,easy,minus,dotcolour,beta,,,59,18,V,R,
86,86,2,2,0,27,53,683,['n'],1,right,['0'],6,143,[-0.13217227],97,53,easy,minus,dotcolour,beta,,,59,18,V,R,
87,87,3,2,0,33,47,1067,['n'],1,right,['0'],6,119,[-0.17470701],100,47,medium,minus,dotcolour,beta,,,59,18,V,R,
88,88,4,2,0,44,36,750,['c'],1,left,['9'],5,270,[0.17477779],98,44,hard,minus,dotcolour,beta,,,59,18,V,R,
89,89,5,2,0,36,44,1416,['c'],0,right,['3'],3,187,[0.11414034],92,44,hard,minus,dotcolour,beta,,,59,18,V,R,
90,90,6,2,0,44,36,900,['n'],0,left,['0'],6,146,[-0.06816114],64,44,hard,minus,dotcolour,beta,,,59,18,V,R,
91,91,7,2,0,27,53,800,['n'],1,right,['0'],6,133,[-0.08166823],78,53,easy,minus,dotcolour,beta,,,59,18,V,R,
92,92,8,2,0,44,36,567,['c'],1,left,['8'],4,211,[0.08455652],76,44,hard,minus,dotcolour,beta,,,59,18,V,R,
93,93,9,2,0,27,53,600,['n'],1,right,['0'],6,107,[-0.10877989],95,53,easy,minus,dotcolour,beta,,,59,18,V,R,
94,94,10,2,0,33,47,784,['n'],1,right,['0'],6,112,[-0.09068],87,47,medium,minus,dotcolour,beta,,,59,18,V,R,
95,95,11,2,0,47,33,634,['c'],1,left,['3'],3,772,[0.17064948],91,47,medium,minus,dotcolour,beta,,,59,18,V,R,
96,96,12,2,0,36,44,983,['c'],0,right,['8'],4,102,[0.05949718],56,44,hard,minus,dotcolour,beta,,,59,18,V,R,
97,97,13,2,0,47,33,817,['c'],1,left,['8'],4,187,[0.06458561],59,47,medium,minus,dotcolour,beta,,,59,18,V,R,
98,98,14,2,0,33,47,683,['n'],1,right,['0'],6,146,[-0.10652987],92,47,medium,minus,dotcolour,beta,,,59,18,V,R,
99,99,15,2,0,44,36,1050,['c'],1,left,['8'],4,204,[0.10039429],86,44,hard,minus,dotcolour,beta,,,59,18,V,R,
100,100,16,2,0,27,53,650,['n'],1,right,['0'],6,114,[-0.05861034],54,53,easy,minus,dotcolour,beta,,,59,18,V,R,
101,101,17,2,0,47,33,767,['c'],1,left,['8'],4,161,[0.15304669],99,47,medium,minus,dotcolour,beta,,,59,18,V,R,
102,102,18,2,0,53,27,700,['c'],1,left,['8'],4,280,[0.18373251],99,53,easy,minus,dotcolour,beta,,,59,18,V,R,
103,103,19,2,0,47,33,583,['c'],1,left,['0'],6,118,[0.08553568],83,47,medium,minus,dotcolour,beta,,,59,18,V,R,
104,104,20,2,0,44,36,667,['c'],1,left,['0'],6,104,[0.09125537],88,44,hard,minus,dotcolour,beta,,,59,18,V,R,
105,105,21,2,0,33,47,567,['n'],1,right,['0'],6,167,[-0.11714115],94,47,medium,minus,dotcolour,beta,,,59,18,V,R,
106,106,22,2,0,36,44,549,['n'],1,right,['0'],6,140,[-0.1005774],90,44,hard,minus,dotcolour,beta,,,59,18,V,R,
107,107,23,2,0,33,47,717,['n'],1,right,['0'],6,131,[-0.07224081],70,47,medium,minus,dotcolour,beta,,,59,18,V,R,
108,108,24,2,0,36,44,566,['c'],0,right,['8'],4,128,[0.05313417],47,44,hard,minus,dotcolour,beta,,,59,18,V,R,
109,109,25,2,0,33,47,550,['n'],1,right,['0'],6,102,[-0.07116635],71,47,medium,minus,dotcolour,beta,,,59,18,V,R,
110,110,26,2,0,53,27,584,['c'],1,left,['8'],4,124,[0.06335349],60,53,easy,minus,dotcolour,beta,,,59,18,V,R,
111,111,27,2,0,27,53,517,['n'],1,right,['0'],6,124,[-0.04972077],43,53,easy,minus,dotcolour,beta,,,59,18,V,R,
112,112,28,2,0,53,27,633,['c'],1,left,['8'],4,150,[0.08736925],81,53,easy,minus,dotcolour,beta,,,59,18,V,R,
113,113,29,2,0,44,36,667,['c'],1,left,['9'],5,239,[0.10097512],84,44,hard,minus,dotcolour,beta,,,59,18,V,R,
114,114,30,2,0,47,33,434,['c'],1,left,['0'],6,125,[0.16366212],100,47,medium,minus,dotcolour,beta,,,59,18,V,R,
115,115,31,2,0,53,27,450,['c'],1,left,['0'],6,103,[0.13225256],99,53,easy,minus,dotcolour,beta,,,59,18,V,R,
116,116,32,2,0,27,53,701,['n'],1,right,['0'],6,120,[-0.10568185],93,53,easy,minus,dotcolour,beta,,,59,18,V,R,
117,117,33,2,0,36,44,566,['n'],1,right,['0'],6,110,[-0.06507531],63,44,hard,minus,dotcolour,beta,,,59,18,V,R,
118,118,34,2,0,33,47,567,['n'],1,right,['0'],6,148,[-0.10649668],92,47,medium,minus,dotcolour,beta,,,59,18,V,R,
119,119,35,2,0,53,27,567,['c'],1,left,['0'],6,193,[0.10692458],89,53,easy,minus,dotcolour,beta,,,59,18,V,R,
120,120,36,2,0,53,27,433,['c'],1,left,['0'],6,129,[0.032925],24,53,easy,minus,dotcolour,beta,,,59,18,V,R,
121,121,37,2,0,47,33,500,['c'],1,left,['0'],6,129,[0.04683714],39,47,medium,minus,dotcolour,beta,,,59,18,V,R,
122,122,38,2,0,36,44,533,['c'],0,right,['0'],6,113,[0.06784316],66,44,hard,minus,dotcolour,beta,,,59,18,V,R,
123,123,39,2,0,36,44,633,['n'],1,right,['0'],6,156,[-0.085723],80,44,hard,minus,dotcolour,beta,,,59,18,V,R,
124,124,40,2,0,44,36,699,['c'],1,left,['3'],3,283,[0.11958703],90,44,hard,minus,dotcolour,beta,,,59,18,V,R,
125,125,41,2,0,47,33,750,['c'],1,left,['8'],4,242,[0.11676085],90,47,medium,minus,dotcolour,beta,,,59,18,V,R,
126,0,0,3,1,47,33,834,['c'],1,left,['0'],6,141,[0.07764143],100,47,medium,plus,dotcolour,beta,,,59,18,V,R,
127,1,1,3,1,36,44,733,['n'],1,right,['0'],6,147,[-0.03331373],98,44,hard,plus,dotcolour,beta,,,59,18,V,R,
128,2,2,3,1,33,47,716,['n'],1,right,['0'],6,129,[-0.12958551],100,47,medium,plus,dotcolour,beta,,,59,18,V,R,
129,3,3,3,1,27,53,500,['n'],1,right,['0'],6,121,[-0.09510182],100,53,easy,plus,dotcolour,beta,,,59,18,V,R,
130,4,4,3,1,27,53,783,['n'],1,right,['0'],6,143,[-0.09610797],100,53,easy,plus,dotcolour,beta,,,59,18,V,R,
131,5,5,3,1,33,47,567,['c'],0,right,['8'],4,123,[0.05760038],100,47,medium,plus,dotcolour,beta,,,59,18,V,R,
132,6,6,3,1,44,36,666,['c'],1,left,['8'],4,125,[0.08211206],100,44,hard,plus,dotcolour,beta,,,59,18,V,R,
133,7,7,3,1,53,27,651,['c'],1,left,['8'],4,279,[0.06166218],98,53,easy,plus,dotcolour,beta,,,59,18,V,R,
134,8,8,3,1,27,53,667,['n'],1,right,['0'],6,114,[-0.12834856],100,53,easy,plus,dotcolour,beta,,,59,18,V,R,
135,9,9,3,1,44,36,600,['c'],1,left,['0'],6,87,[0.05455643],100,44,hard,plus,dotcolour,beta,,,59,18,V,R,
136,10,10,3,1,33,47,684,['n'],1,right,['0'],6,105,[-0.05584105],100,47,medium,plus,dotcolour,beta,,,59,18,V,R,
137,11,11,3,1,33,47,617,['n'],1,right,['0'],6,150,[-0.05875102],100,47,medium,plus,dotcolour,beta,,,59,18,V,R,
138,12,12,3,1,44,36,533,['c'],1,left,['0'],6,101,[0.05982279],100,44,hard,plus,dotcolour,beta,,,59,18,V,R,
139,13,13,3,1,44,36,667,['n'],0,left,['0'],6,271,[-0.04675737],97,44,hard,plus,dotcolour,beta,,,59,18,V,R,
140,14,14,3,1,36,44,533,['n'],1,right,['0'],6,128,[-0.02954525],99,44,hard,plus,dotcolour,beta,,,59,18,V,R,
141,15,15,3,1,47,33,617,['c'],1,left,['0'],6,36,[0.03303334],100,47,medium,plus,dotcolour,beta,,,59,18,V,R,
142,16,16,3,1,36,44,550,['n'],1,right,['0'],6,141,[-0.08257051],100,44,hard,plus,dotcolour,beta,,,59,18,V,R,
143,17,17,3,1,44,36,384,['c'],1,left,['0'],6,58,[0.12731195],100,44,hard,plus,dotcolour,beta,,,59,18,V,R,
144,18,18,3,1,47,33,550,['c'],1,left,['0'],6,58,[0.07436272],100,47,medium,plus,dotcolour,beta,,,59,18,V,R,
145,19,19,3,1,36,44,800,['n'],1,right,['0'],6,121,[-0.0748208],100,44,hard,plus,dotcolour,beta,,,59,18,V,R,
146,20,20,3,1,47,33,750,['n'],0,left,['0'],6,112,[-0.07376294],100,47,medium,plus,dotcolour,beta,,,59,18,V,R,
147,21,21,3,1,36,44,582,['c'],0,right,['0'],6,165,[0.04168435],99,44,hard,plus,dotcolour,beta,,,59,18,V,R,
148,22,22,3,1,47,33,800,['c'],1,left,['0'],6,56,[0.1303885],100,47,medium,plus,dotcolour,beta,,,59,18,V,R,
149,23,23,3,1,53,27,750,['c'],1,left,['0'],6,89,[0.12408165],100,53,easy,plus,dotcolour,beta,,,59,18,V,R,
150,24,24,3,1,27,53,684,['n'],1,right,['0'],6,148,[-0.10651353],100,53,easy,plus,dotcolour,beta,,,59,18,V,R,
151,25,25,3,1,27,53,634,['n'],1,right,['0'],6,134,[-0.06069321],100,53,easy,plus,dotcolour,beta,,,59,18,V,R,
152,26,26,3,1,27,53,483,['n'],1,right,['0'],6,118,[-0.08871635],100,53,easy,plus,dotcolour,beta,,,59,18,V,R,
153,27,27,3,1,53,27,750,['c'],1,left,['0'],6,61,[0.1103251],100,53,easy,plus,dotcolour,beta,,,59,18,V,R,
154,28,28,3,1,33,47,617,['n'],1,right,['0'],6,91,[-0.10902238],100,47,medium,plus,dotcolour,beta,,,59,18,V,R,
155,29,29,3,1,33,47,684,['n'],1,right,['0'],6,102,[-0.07259687],100,47,medium,plus,dotcolour,beta,,,59,18,V,R,
156,30,30,3,1,27,53,684,['n'],1,right,['0'],6,159,[-0.09969005],100,53,easy,plus,dotcolour,beta,,,59,18,V,R,
157,31,31,3,1,44,36,683,['n'],0,left,['0'],6,103,[-0.05319273],100,44,hard,plus,dotcolour,beta,,,59,18,V,R,
158,32,32,3,1,47,33,550,['c'],1,left,['0'],6,126,[0.07659764],100,47,medium,plus,dotcolour,beta,,,59,18,V,R,
159,33,33,3,1,33,47,734,['c'],0,right,['3'],3,805,[0.04038239],87,47,medium,plus,dotcolour,beta,,,59,18,V,R,
160,34,34,3,1,36,44,934,['n'],1,right,['9'],5,305,[-0.14994337],100,44,hard,plus,dotcolour,beta,,,59,18,V,R,
161,35,35,3,1,36,44,734,['n'],1,right,['8'],4,136,[-0.11350107],100,44,hard,plus,dotcolour,beta,,,59,18,V,R,
162,36,36,3,1,53,27,667,['c'],1,left,['8'],4,177,[0.14047543],100,53,easy,plus,dotcolour,beta,,,59,18,V,R,
163,37,37,3,1,53,27,600,['c'],1,left,['0'],6,108,[0.05538712],100,53,easy,plus,dotcolour,beta,,,59,18,V,R,
164,38,38,3,1,44,36,617,['c'],1,left,['0'],6,40,[0.0711556],100,44,hard,plus,dotcolour,beta,,,59,18,V,R,
165,39,39,3,1,53,27,584,['c'],1,left,['0'],6,80,[0.11177916],100,53,easy,plus,dotcolour,beta,,,59,18,V,R,
166,40,40,3,1,53,27,467,['c'],1,left,['0'],6,84,[0.04050495],100,53,easy,plus,dotcolour,beta,,,59,18,V,R,
167,41,41,3,1,47,33,516,['c'],1,left,['0'],6,77,[0.05571732],100,47,medium,plus,dotcolour,beta,,,59,18,V,R,
168,42,0,4,1,44,36,1101,['c'],1,left,['0'],6,59,[0.10552877],100,44,hard,plus,dotcolour,beta,,,59,18,V,R,
169,43,1,4,1,33,47,700,['n'],1,right,['0'],6,118,[-0.11900377],100,47,medium,plus,dotcolour,beta,,,59,18,V,R,
170,44,2,4,1,33,47,916,['c'],0,right,['1'],1,982,[0.10525055],95,47,medium,plus,dotcolour,beta,,,59,18,V,R,
171,45,3,4,1,47,33,1050,['n'],0,left,['9'],5,454,[-0.00066751],82,47,medium,plus,dotcolour,beta,,,59,18,V,R,
172,46,4,4,1,27,53,700,['n'],1,right,['0'],6,136,[-0.05825866],100,53,easy,plus,dotcolour,beta,,,59,18,V,R,
173,47,5,4,1,53,27,650,['c'],1,left,['0'],6,82,[0.09713276],100,53,easy,plus,dotcolour,beta,,,59,18,V,R,
174,48,6,4,1,27,53,616,['n'],1,right,['0'],6,120,[-0.08029061],100,53,easy,plus,dotcolour,beta,,,59,18,V,R,
175,49,7,4,1,44,36,584,['c'],1,left,['0'],6,85,[0.10361938],100,44,hard,plus,dotcolour,beta,,,59,18,V,R,
176,50,8,4,1,36,44,950,['n'],1,right,['8'],4,109,[-0.08860484],100,44,hard,plus,dotcolour,beta,,,59,18,V,R,
177,51,9,4,1,44,36,1117,['n'],0,left,['8'],4,117,[-0.05243665],100,44,hard,plus,dotcolour,beta,,,59,18,V,R,
178,52,10,4,1,44,36,1267,['c'],1,left,['8'],4,224,[0.12074988],100,44,hard,plus,dotcolour,beta,,,59,18,V,R,
179,53,11,4,1,47,33,1050,['c'],1,left,['0'],6,301,[0.11910312],100,47,medium,plus,dotcolour,beta,,,59,18,V,R,
180,54,12,4,1,53,27,600,['c'],1,left,['0'],6,107,[0.09775539],100,53,easy,plus,dotcolour,beta,,,59,18,V,R,
181,55,13,4,1,27,53,717,['c'],0,right,['0'],6,59,[0.08399239],100,53,easy,plus,dotcolour,beta,,,59,18,V,R,
182,56,14,4,1,44,36,950,['n'],0,left,['0'],6,131,[-0.08715297],100,44,hard,plus,dotcolour,beta,,,59,18,V,R,
183,57,15,4,1,33,47,767,['n'],1,right,['0'],6,145,[-0.09565393],100,47,medium,plus,dotcolour,beta,,,59,18,V,R,
184,58,16,4,1,53,27,767,['c'],1,left,['0'],6,109,[0.03845841],99,53,easy,plus,dotcolour,beta,,,59,18,V,R,
185,59,17,4,1,27,53,617,['n'],1,right,['0'],6,161,[-0.06706226],100,53,easy,plus,dotcolour,beta,,,59,18,V,R,
186,60,18,4,1,36,44,1067,['n'],1,right,['8'],4,194,[-0.13649311],100,44,hard,plus,dotcolour,beta,,,59,18,V,R,
187,61,19,4,1,36,44,700,['n'],1,right,['0'],6,159,[-0.1253685],100,44,hard,plus,dotcolour,beta,,,59,18,V,R,
188,62,20,4,1,33,47,800,['n'],1,right,['9'],5,274,[-0.03029143],95,47,medium,plus,dotcolour,beta,,,59,18,V,R,
189,63,21,4,1,33,47,617,['n'],1,right,['8'],4,168,[-0.08858888],100,47,medium,plus,dotcolour,beta,,,59,18,V,R,
190,64,22,4,1,47,33,716,['c'],1,left,['0'],6,221,[0.08213189],99,47,medium,plus,dotcolour,beta,,,59,18,V,R,
191,65,23,4,1,44,36,600,['c'],1,left,['9'],5,638,[0.21136445],100,44,hard,plus,dotcolour,beta,,,59,18,V,R,
192,66,24,4,1,53,27,867,['c'],1,left,['3'],3,194,[0.04502198],98,53,easy,plus,dotcolour,beta,,,59,18,V,R,
193,67,25,4,1,27,53,718,['n'],1,right,['0'],6,135,[-0.02615216],98,53,easy,plus,dotcolour,beta,,,59,18,V,R,
194,68,26,4,1,27,53,550,['n'],1,right,['0'],6,125,[-0.10042268],100,53,easy,plus,dotcolour,beta,,,59,18,V,R,
195,69,27,4,1,53,27,650,['c'],1,left,['0'],6,79,[0.11624749],100,53,easy,plus,dotcolour,beta,,,59,18,V,R,
196,70,28,4,1,27,53,566,['n'],1,right,['0'],6,142,[-0.05779244],100,53,easy,plus,dotcolour,beta,,,59,18,V,R,
197,71,29,4,1,36,44,1050,['n'],1,right,['9'],5,376,[-0.01951219],90,44,hard,plus,dotcolour,beta,,,59,18,V,R,
198,72,30,4,1,36,44,834,['c'],0,right,['8'],4,273,[0.08259517],99,44,hard,plus,dotcolour,beta,,,59,18,V,R,
199,73,31,4,1,47,33,683,['n'],0,left,['9'],5,139,[-0.05216373],99,47,medium,plus,dotcolour,beta,,,59,18,V,R,
200,74,32,4,1,33,47,917,['n'],1,right,['0'],6,154,[-0.09614942],100,47,medium,plus,dotcolour,beta,,,59,18,V,R,
201,75,33,4,1,47,33,1033,['c'],1,left,['9'],5,157,[0.1167136],100,47,medium,plus,dotcolour,beta,,,59,18,V,R,
202,76,34,4,1,47,33,867,['c'],1,left,['8'],4,189,[0.047172],99,47,medium,plus,dotcolour,beta,,,59,18,V,R,
203,77,35,4,1,36,44,833,['n'],1,right,['9'],5,213,[-0.11043017],100,44,hard,plus,dotcolour,beta,,,59,18,V,R,
204,78,36,4,1,47,33,733,['c'],1,left,['8'],4,209,[0.05135195],99,47,medium,plus,dotcolour,beta,,,59,18,V,R,
205,79,37,4,1,44,36,717,['c'],1,left,['9'],5,269,[0.08970822],99,44,hard,plus,dotcolour,beta,,,59,18,V,R,
206,80,38,4,1,33,47,566,['n'],1,right,['0'],6,221,[0.01008719],85,47,medium,plus,dotcolour,beta,,,59,18,V,R,
207,81,39,4,1,53,27,584,['c'],1,left,['9'],5,278,[0.10608083],100,53,easy,plus,dotcolour,beta,,,59,18,V,R,
208,82,40,4,1,53,27,734,['c'],1,left,['0'],6,199,[0.09945813],100,53,easy,plus,dotcolour,beta,,,59,18,V,R,
209,83,41,4,1,36,44,2317,['c'],0,right,['0'],6,100,[0.10625306],100,44,hard,plus,dotcolour,beta,,,59,18,V,R,
210,84,0,5,1,53,27,766,['c'],1,left,['0'],6,144,[0.07332872],100,53,easy,plus,dotcolour,beta,,,59,18,V,R,
211,85,1,5,1,47,33,634,['c'],1,left,['0'],6,98,[0.12535502],100,47,medium,plus,dotcolour,beta,,,59,18,V,R,
212,86,2,5,1,47,33,667,['c'],1,left,['0'],6,68,[0.08026006],100,47,medium,plus,dotcolour,beta,,,59,18,V,R,
213,87,3,5,1,36,44,735,['n'],1,right,['0'],6,110,[-0.09268345],100,44,hard,plus,dotcolour,beta,,,59,18,V,R,
214,88,4,5,1,44,36,716,['c'],1,left,['0'],6,102,[0.0697221],100,44,hard,plus,dotcolour,beta,,,59,18,V,R,
215,89,5,5,1,36,44,750,['n'],1,right,['9'],5,149,[-0.13026995],100,44,hard,plus,dotcolour,beta,,,59,18,V,R,
216,90,6,5,1,53,27,734,['c'],1,left,['0'],6,115,[0.08465033],100,53,easy,plus,dotcolour,beta,,,59,18,V,R,
217,91,7,5,1,27,53,600,['n'],1,right,['0'],6,136,[-0.11256986],100,53,easy,plus,dotcolour,beta,,,59,18,V,R,
218,92,8,5,1,27,53,717,['n'],1,right,['0'],6,104,[-0.04132144],100,53,easy,plus,dotcolour,beta,,,59,18,V,R,
219,93,9,5,1,33,47,717,['n'],1,right,['0'],6,160,[-0.087134],100,47,medium,plus,dotcolour,beta,,,59,18,V,R,
220,94,10,5,1,27,53,582,['n'],1,right,['0'],6,91,[-0.073806],100,53,easy,plus,dotcolour,beta,,,59,18,V,R,
221,95,11,5,1,47,33,582,['c'],1,left,['0'],6,113,[0.0642378],100,47,medium,plus,dotcolour,beta,,,59,18,V,R,
222,96,12,5,1,47,33,600,['c'],1,left,['0'],6,134,[0.09020756],100,47,medium,plus,dotcolour,beta,,,59,18,V,R,
223,97,13,5,1,27,53,567,['n'],1,right,['0'],6,155,[-0.10776308],100,53,easy,plus,dotcolour,beta,,,59,18,V,R,
224,98,14,5,1,27,53,599,['n'],1,right,['0'],6,119,[-0.14472041],100,53,easy,plus,dotcolour,beta,,,59,18,V,R,
225,99,15,5,1,47,33,1117,['c'],1,left,['9'],5,79,[0.10867236],100,47,medium,plus,dotcolour,beta,,,59,18,V,R,
226,100,16,5,1,47,33,602,['c'],1,left,['8'],4,117,[0.09321501],100,47,medium,plus,dotcolour,beta,,,59,18,V,R,
227,101,17,5,1,36,44,684,['n'],1,right,['0'],6,134,[-0.08639563],100,44,hard,plus,dotcolour,beta,,,59,18,V,R,
228,102,18,5,1,44,36,717,['n'],0,left,['0'],6,141,[-0.06102409],100,44,hard,plus,dotcolour,beta,,,59,18,V,R,
229,103,19,5,1,53,27,933,['c'],1,left,['0'],6,155,[0.07243419],100,53,easy,plus,dotcolour,beta,,,59,18,V,R,
230,104,20,5,1,27,53,633,['n'],1,right,['0'],6,118,[-0.09419906],100,53,easy,plus,dotcolour,beta,,,59,18,V,R,
231,105,21,5,1,53,27,833,['c'],1,left,['0'],6,105,[0.09186334],100,53,easy,plus,dotcolour,beta,,,59,18,V,R,
232,106,22,5,1,44,36,1134,['c'],1,left,['8'],4,121,[0.0916148],100,44,hard,plus,dotcolour,beta,,,59,18,V,R,
233,107,23,5,1,47,33,833,['c'],1,left,['3'],3,172,[0.10448778],100,47,medium,plus,dotcolour,beta,,,59,18,V,R,
234,108,24,5,1,27,53,800,['n'],1,right,['0'],6,95,[-0.04340816],100,53,easy,plus,dotcolour,beta,,,59,18,V,R,
235,109,25,5,1,36,44,716,['n'],1,right,['0'],6,48,[-0.08065201],100,44,hard,plus,dotcolour,beta,,,59,18,V,R,
236,110,26,5,1,36,44,733,['n'],1,right,['0'],6,98,[-0.02778353],99,44,hard,plus,dotcolour,beta,,,59,18,V,R,
237,111,27,5,1,44,36,933,['c'],1,left,['8'],4,122,[0.05756537],100,44,hard,plus,dotcolour,beta,,,59,18,V,R,
238,112,28,5,1,53,27,767,['c'],1,left,['8'],4,208,[0.1810123],100,53,easy,plus,dotcolour,beta,,,59,18,V,R,
239,113,29,5,1,33,47,750,['n'],1,right,['0'],6,147,[-0.01831939],97,47,medium,plus,dotcolour,beta,,,59,18,V,R,
240,114,30,5,1,36,44,667,['n'],1,right,['0'],6,156,[-0.10566782],100,44,hard,plus,dotcolour,beta,,,59,18,V,R,
241,115,31,5,1,53,27,635,['c'],1,left,['8'],4,229,[0.21670416],100,53,easy,plus,dotcolour,beta,,,59,18,V,R,
242,116,32,5,1,44,36,650,['n'],0,left,['0'],6,148,[-0.0917119],100,44,hard,plus,dotcolour,beta,,,59,18,V,R,
243,117,33,5,1,36,44,667,['n'],1,right,['0'],6,148,[-0.09301231],100,44,hard,plus,dotcolour,beta,,,59,18,V,R,
244,118,34,5,1,33,47,683,['n'],1,right,['0'],6,108,[-0.05820422],100,47,medium,plus,dotcolour,beta,,,59,18,V,R,
245,119,35,5,1,33,47,716,['n'],1,right,['0'],6,140,[-0.08830533],100,47,medium,plus,dotcolour,beta,,,59,18,V,R,
246,120,36,5,1,53,27,617,['c'],1,left,['0'],6,239,[0.08960991],100,53,easy,plus,dotcolour,beta,,,59,18,V,R,
247,121,37,5,1,33,47,1083,['n'],1,right,['9'],5,131,[-0.05700556],100,47,medium,plus,dotcolour,beta,,,59,18,V,R,
248,122,38,5,1,44,36,751,['c'],1,left,['0'],6,73,[0.09881248],100,44,hard,plus,dotcolour,beta,,,59,18,V,R,
249,123,39,5,1,33,47,650,['n'],1,right,['0'],6,166,[-0.07335019],100,47,medium,plus,dotcolour,beta,,,59,18,V,R,
250,124,40,5,1,44,36,867,['c'],1,left,['0'],6,93,[0.09027835],100,44,hard,plus,dotcolour,beta,,,59,18,V,R,
251,125,41,5,1,33,47,616,['n'],1,right,['0'],6,123,[-0.12939296],100,47,medium,plus,dotcolour,beta,,,59,18,V,R,
252,0,0,6,2,33,47,768,['n'],1,right,['0'],6,72,[-0.11100077],98,47,medium,minus,dotcolour,beta,,,59,18,V,R,
253,1,1,6,2,33,47,584,['n'],1,right,['0'],6,111,[-0.09364866],89,47,medium,minus,dotcolour,beta,,,59,18,V,R,
254,2,2,6,2,36,44,584,['n'],1,right,['0'],6,76,[-0.09053808],91,44,hard,minus,dotcolour,beta,,,59,18,V,R,
255,3,3,6,2,44,36,700,['c'],1,left,['0'],6,94,[0.07695044],78,44,hard,minus,dotcolour,beta,,,59,18,V,R,
256,4,4,6,2,53,27,584,['c'],1,left,['0'],6,36,[0.06315268],67,53,easy,minus,dotcolour,beta,,,59,18,V,R,
257,5,5,6,2,27,53,617,['n'],1,right,['0'],6,108,[-0.09375256],89,53,easy,minus,dotcolour,beta,,,59,18,V,R,
258,6,6,6,2,53,27,600,['c'],1,left,['0'],6,49,[0.08735049],93,53,easy,minus,dotcolour,beta,,,59,18,V,R,
259,7,7,6,2,44,36,1001,['n'],0,left,['9'],5,200,[-0.10868874],89,44,hard,minus,dotcolour,beta,,,59,18,V,R,
260,8,8,6,2,47,33,517,['c'],1,left,['0'],6,53,[0.09927443],97,47,medium,minus,dotcolour,beta,,,59,18,V,R,
261,9,9,6,2,44,36,516,['c'],1,left,['9'],5,207,[0.11032284],90,44,hard,minus,dotcolour,beta,,,59,18,V,R,
262,10,10,6,2,44,36,601,['c'],1,left,['9'],5,168,[0.05349099],48,44,hard,minus,dotcolour,beta,,,59,18,V,R,
263,11,11,6,2,47,33,1100,['c'],1,left,['8'],4,166,[0.09901066],87,47,medium,minus,dotcolour,beta,,,59,18,V,R,
264,12,12,6,2,36,44,916,['n'],1,right,['0'],6,124,[-0.05930797],55,44,hard,minus,dotcolour,beta,,,59,18,V,R,
265,13,13,6,2,53,27,750,['c'],1,left,['9'],5,106,[0.07788916],77,53,easy,minus,dotcolour,beta,,,59,18,V,R,
266,14,14,6,2,27,53,717,['c'],0,right,['0'],6,219,[-0.02496476],4,53,easy,minus,dotcolour,beta,,,59,18,V,R,
267,15,15,6,2,36,44,1417,['n'],1,right,['0'],6,99,[-0.05562004],50,44,hard,minus,dotcolour,beta,,,59,18,V,R,
268,16,16,6,2,44,36,951,['c'],1,left,['8'],4,99,[0.02178083],13,44,hard,minus,dotcolour,beta,,,59,18,V,R,
269,17,17,6,2,53,27,651,['c'],1,left,['9'],5,86,[0.08677072],87,53,easy,minus,dotcolour,beta,,,59,18,V,R,
270,18,18,6,2,47,33,1183,['n'],0,left,['0'],6,109,[-0.04099349],31,47,medium,minus,dotcolour,beta,,,59,18,V,R,
271,19,19,6,2,27,53,934,['n'],1,right,['0'],6,93,[-0.09800204],92,53,easy,minus,dotcolour,beta,,,59,18,V,R,
272,20,20,6,2,47,33,634,['c'],1,left,['9'],5,33,[0.07635784],89,47,medium,minus,dotcolour,beta,,,59,18,V,R,
273,21,21,6,2,36,44,900,['n'],1,right,['0'],6,92,[-0.02325183],13,44,hard,minus,dotcolour,beta,,,59,18,V,R,
274,22,22,6,2,47,33,767,['c'],1,left,['9'],5,83,[0.04208525],30,47,medium,minus,dotcolour,beta,,,59,18,V,R,
275,23,23,6,2,27,53,816,['n'],1,right,['0'],6,113,[-0.10668616],94,53,easy,minus,dotcolour,beta,,,59,18,V,R,
276,24,24,6,2,33,47,767,['n'],1,right,['0'],6,95,[-0.04977342],42,47,medium,minus,dotcolour,beta,,,59,18,V,R,
277,25,25,6,2,27,53,749,['n'],1,right,['0'],6,78,[-0.05569561],50,53,easy,minus,dotcolour,beta,,,59,18,V,R,
278,26,26,6,2,53,27,683,['c'],1,left,['9'],5,73,[0.09270805],92,53,easy,minus,dotcolour,beta,,,59,18,V,R,
279,27,27,6,2,47,33,467,['c'],1,left,['0'],6,101,[0.06416071],62,47,medium,minus,dotcolour,beta,,,59,18,V,R,
280,28,28,6,2,47,33,566,['c'],1,left,['9'],5,100,[0.0900773],88,47,medium,minus,dotcolour,beta,,,59,18,V,R,
281,29,29,6,2,36,44,850,['n'],1,right,['0'],6,142,[-0.11228716],94,44,hard,minus,dotcolour,beta,,,59,18,V,R,
282,30,30,6,2,33,47,1216,['c'],0,right,['3'],3,193,[-0.02621297],3,47,medium,minus,dotcolour,beta,,,59,18,V,R,
283,31,31,6,2,33,47,667,['n'],1,right,['0'],6,112,[-0.08840212],85,47,medium,minus,dotcolour,beta,,,59,18,V,R,
284,32,32,6,2,44,36,1067,['c'],1,left,['8'],4,130,[0.07843357],76,44,hard,minus,dotcolour,beta,,,59,18,V,R,
285,33,33,6,2,44,36,1033,['c'],1,left,['8'],4,93,[0.07147703],72,44,hard,minus,dotcolour,beta,,,59,18,V,R,
286,34,34,6,2,53,27,716,['c'],1,left,['9'],5,102,[0.09637677],91,53,easy,minus,dotcolour,beta,,,59,18,V,R,
287,35,35,6,2,36,44,666,['n'],1,right,['0'],6,56,[-0.05591236],51,44,hard,minus,dotcolour,beta,,,59,18,V,R,
288,36,36,6,2,27,53,650,['n'],1,right,['0'],6,141,[-0.08781061],82,53,easy,minus,dotcolour,beta,,,59,18,V,R,
289,37,37,6,2,33,47,600,['n'],1,right,['0'],6,105,[-0.0786086],78,47,medium,minus,dotcolour,beta,,,59,18,V,R,
290,38,38,6,2,33,47,566,['n'],1,right,['0'],6,79,[-0.06190234],60,47,medium,minus,dotcolour,beta,,,59,18,V,R,
291,39,39,6,2,27,53,583,['n'],1,right,['0'],6,166,[-0.08740292],80,53,easy,minus,dotcolour,beta,,,59,18,V,R,
292,40,40,6,2,53,27,551,['c'],1,left,['9'],5,179,[0.1549025],99,53,easy,minus,dotcolour,beta,,,59,18,V,R,
293,41,41,6,2,36,44,750,['n'],1,right,['0'],6,119,[-0.10917472],94,44,hard,minus,dotcolour,beta,,,59,18,V,R,
294,42,0,7,2,27,53,717,['n'],1,right,['0'],6,36,[-0.07572092],87,53,easy,minus,dotcolour,beta,,,59,18,V,R,
295,43,1,7,2,27,53,684,['n'],1,right,['0'],6,81,[-0.08675376],88,53,easy,minus,dotcolour,beta,,,59,18,V,R,
296,44,2,7,2,53,27,684,['c'],1,left,['9'],5,99,[0.0887992],87,53,easy,minus,dotcolour,beta,,,59,18,V,R,
297,45,3,7,2,53,27,600,['c'],1,left,['9'],5,154,[0.11561943],94,53,easy,minus,dotcolour,beta,,,59,18,V,R,
298,46,4,7,2,33,47,567,['n'],1,right,['0'],6,157,[-0.06100812],56,47,medium,minus,dotcolour,beta,,,59,18,V,R,
299,47,5,7,2,33,47,500,['n'],1,right,['0'],6,132,[-0.07095139],68,47,medium,minus,dotcolour,beta,,,59,18,V,R,
300,48,6,7,2,33,47,634,['n'],1,right,['0'],6,135,[-0.07128017],68,47,medium,minus,dotcolour,beta,,,59,18,V,R,
301,49,7,7,2,33,47,883,['n'],1,right,['9'],5,184,[-0.04163655],36,47,medium,minus,dotcolour,beta,,,59,18,V,R,
302,50,8,7,2,47,33,649,['c'],1,left,['8'],4,104,[0.07357337],73,47,medium,minus,dotcolour,beta,,,59,18,V,R,
303,51,9,7,2,53,27,485,['c'],1,left,['8'],4,130,[0.16826928],100,53,easy,minus,dotcolour,beta,,,59,18,V,R,
304,52,10,7,2,27,53,583,['n'],1,right,['0'],6,110,[-0.14164992],99,53,easy,minus,dotcolour,beta,,,59,18,V,R,
305,53,11,7,2,36,44,650,['n'],1,right,['0'],6,130,[-0.06682584],64,44,hard,minus,dotcolour,beta,,,59,18,V,R,
306,54,12,7,2,47,33,550,['c'],1,left,['9'],5,95,[0.07959186],80,47,medium,minus,dotcolour,beta,,,59,18,V,R,
307,55,13,7,2,47,33,532,['c'],1,left,['9'],5,120,[0.06583534],63,47,medium,minus,dotcolour,beta,,,59,18,V,R,
308,56,14,7,2,27,53,616,['n'],1,right,['0'],6,180,[-0.08851378],80,53,easy,minus,dotcolour,beta,,,59,18,V,R,
309,57,15,7,2,36,44,933,['n'],1,right,['0'],6,88,[-0.0549593],49,44,hard,minus,dotcolour,beta,,,59,18,V,R,
310,58,16,7,2,53,27,666,['c'],1,left,['9'],5,116,[0.091355],87,53,easy,minus,dotcolour,beta,,,59,18,V,R,
311,59,17,7,2,36,44,950,['n'],1,right,['0'],6,106,[-0.04062122],30,44,hard,minus,dotcolour,beta,,,59,18,V,R,
312,60,18,7,2,44,36,733,['c'],1,left,['9'],5,114,[0.04912345],42,44,hard,minus,dotcolour,beta,,,59,18,V,R,
313,61,19,7,2,47,33,649,['c'],1,left,['9'],5,116,[0.05810865],53,47,medium,minus,dotcolour,beta,,,59,18,V,R,
314,62,20,7,2,47,33,666,['c'],1,left,['9'],5,118,[0.06529406],62,47,medium,minus,dotcolour,beta,,,59,18,V,R,
315,63,21,7,2,36,44,901,['n'],1,right,['0'],6,159,[-0.05936373],54,44,hard,minus,dotcolour,beta,,,59,18,V,R,
316,64,22,7,2,44,36,933,['c'],1,left,['9'],5,132,[0.12141301],96,44,hard,minus,dotcolour,beta,,,59,18,V,R,
317,65,23,7,2,53,27,967,['n'],0,left,['0'],6,137,[-0.05245839],46,53,easy,minus,dotcolour,beta,,,59,18,V,R,
318,66,24,7,2,53,27,651,['c'],1,left,['9'],5,132,[0.08391121],80,53,easy,minus,dotcolour,beta,,,59,18,V,R,
319,67,25,7,2,33,47,866,['n'],1,right,['9'],5,165,[-0.09250787],84,47,medium,minus,dotcolour,beta,,,59,18,V,R,
320,68,26,7,2,36,44,733,['c'],0,right,['9'],5,106,[0.11991709],97,44,hard,minus,dotcolour,beta,,,59,18,V,R,
321,69,27,7,2,47,33,633,['c'],1,left,['9'],5,102,[0.08863043],87,47,medium,minus,dotcolour,beta,,,59,18,V,R,
322,70,28,7,2,33,47,816,['n'],1,right,['9'],5,179,[-0.11328598],92,47,medium,minus,dotcolour,beta,,,59,18,V,R,
323,71,29,7,2,36,44,550,['n'],1,right,['9'],5,103,[-0.07292412],73,44,hard,minus,dotcolour,beta,,,59,18,V,R,
324,72,30,7,2,44,36,884,['c'],1,left,['8'],4,105,[0.08487842],84,44,hard,minus,dotcolour,beta,,,59,18,V,R,
325,73,31,7,2,27,53,734,['c'],0,right,['8'],4,105,[0.04489514],36,53,easy,minus,dotcolour,beta,,,59,18,V,R,
326,74,32,7,2,27,53,582,['n'],1,right,['8'],4,127,[-0.08880716],84,53,easy,minus,dotcolour,beta,,,59,18,V,R,
327,75,33,7,2,44,36,750,['c'],1,left,['8'],4,181,[0.05384338],48,44,hard,minus,dotcolour,beta,,,59,18,V,R,
328,76,34,7,2,53,27,466,['c'],1,left,['8'],4,220,[0.14605471],97,53,easy,minus,dotcolour,beta,,,59,18,V,R,
329,77,35,7,2,44,36,634,['n'],0,left,['9'],5,148,[-0.04209111],35,44,hard,minus,dotcolour,beta,,,59,18,V,R,
330,78,36,7,2,44,36,550,['n'],0,left,['9'],5,154,[-0.08406342],79,44,hard,minus,dotcolour,beta,,,59,18,V,R,
331,79,37,7,2,47,33,684,['n'],0,left,['9'],5,129,[-0.04107479],33,47,medium,minus,dotcolour,beta,,,59,18,V,R,
332,80,38,7,2,33,47,600,['n'],1,right,['9'],5,133,[-0.0751818],72,47,medium,minus,dotcolour,beta,,,59,18,V,R,
333,81,39,7,2,44,36,950,['c'],1,left,['9'],5,147,[0.03788722],30,44,hard,minus,dotcolour,beta,,,59,18,V,R,
334,82,40,7,2,27,53,534,['n'],1,right,['9'],5,153,[-0.06154222],57,53,easy,minus,dotcolour,beta,,,59,18,V,R,
335,83,41,7,2,36,44,550,['n'],1,right,['9'],5,135,[-0.07599424],73,44,hard,minus,dotcolour,beta,,,59,18,V,R,
336,84,0,8,2,33,47,717,['n'],1,right,['9'],5,137,[-0.1082029],93,47,medium,minus,dotcolour,beta,,,59,18,V,R,
337,85,1,8,2,27,53,566,['n'],1,right,['9'],5,78,[-0.04777313],38,53,easy,minus,dotcolour,beta,,,59,18,V,R,
338,86,2,8,2,27,53,733,['n'],1,right,['9'],5,159,[-0.09613646],86,53,easy,minus,dotcolour,beta,,,59,18,V,R,
339,87,3,8,2,47,33,717,['c'],1,left,['9'],5,117,[0.06066278],57,47,medium,minus,dotcolour,beta,,,59,18,V,R,
340,88,4,8,2,33,47,583,['n'],1,right,['9'],5,147,[-0.0468669],40,47,medium,minus,dotcolour,beta,,,59,18,V,R,
341,89,5,8,2,27,53,500,['n'],1,right,['8'],4,241,[-0.10957669],88,53,easy,minus,dotcolour,beta,,,59,18,V,R,
342,90,6,8,2,44,36,550,['c'],1,left,['8'],4,139,[0.04416251],37,44,hard,minus,dotcolour,beta,,,59,18,V,R,
343,91,7,8,2,47,33,750,['c'],1,left,['9'],5,89,[0.05340839],47,47,medium,minus,dotcolour,beta,,,59,18,V,R,
344,92,8,8,2,36,44,567,['n'],1,right,['9'],5,104,[-0.0975544],91,44,hard,minus,dotcolour,beta,,,59,18,V,R,
345,93,9,8,2,47,33,566,['n'],0,left,['9'],5,96,[-0.08764657],87,47,medium,minus,dotcolour,beta,,,59,18,V,R,
346,94,10,8,2,36,44,750,['c'],0,right,['9'],5,102,[0.08371021],83,44,hard,minus,dotcolour,beta,,,59,18,V,R,
347,95,11,8,2,36,44,600,['n'],1,right,['9'],5,108,[-0.04827138],40,44,hard,minus,dotcolour,beta,,,59,18,V,R,
348,96,12,8,2,33,47,616,['c'],0,right,['9'],5,72,[0.1181381],99,47,medium,minus,dotcolour,beta,,,59,18,V,R,
349,97,13,8,2,53,27,617,['c'],1,left,['9'],5,118,[0.1250181],97,53,easy,minus,dotcolour,beta,,,59,18,V,R,
350,98,14,8,2,44,36,534,['c'],1,left,['9'],5,85,[0.07780026],80,44,hard,minus,dotcolour,beta,,,59,18,V,R,
351,99,15,8,2,44,36,567,['c'],1,left,['9'],5,92,[0.06641982],66,44,hard,minus,dotcolour,beta,,,59,18,V,R,
352,100,16,8,2,27,53,532,['c'],0,right,['3'],3,797,[0.04369636],44,53,easy,minus,dotcolour,beta,,,59,18,V,R,
353,101,17,8,2,27,53,367,['n'],1,right,['9'],5,31,[-0.1072674],99,53,easy,minus,dotcolour,beta,,,59,18,V,R,
354,102,18,8,2,44,36,433,['c'],1,left,['2'],2,278,[0.10359982],84,44,hard,minus,dotcolour,beta,,,59,18,V,R,
355,103,19,8,2,53,27,583,['n'],0,left,['9'],5,813,[0.16169673],1,53,easy,minus,dotcolour,beta,,,59,18,V,R,
356,104,20,8,2,36,44,767,['n'],1,right,['9'],5,175,[-0.03544725],30,44,hard,minus,dotcolour,beta,,,59,18,V,R,
357,105,21,8,2,33,47,600,['c'],0,right,['9'],5,105,[0.07613709],76,47,medium,minus,dotcolour,beta,,,59,18,V,R,
358,106,22,8,2,33,47,801,['n'],1,right,['9'],5,134,[-0.10115811],90,47,medium,minus,dotcolour,beta,,,59,18,V,R,
359,107,23,8,2,53,27,482,['c'],1,left,['9'],5,127,[0.07470992],72,53,easy,minus,dotcolour,beta,,,59,18,V,R,
360,108,24,8,2,33,47,850,['n'],1,right,['0'],6,96,[-0.07565009],76,47,medium,minus,dotcolour,beta,,,59,18,V,R,
361,109,25,8,2,36,44,617,['n'],1,right,['0'],6,126,[-0.10539272],93,44,hard,minus,dotcolour,beta,,,59,18,V,R,
362,110,26,8,2,47,33,600,['c'],1,left,['0'],6,82,[0.0619751],60,47,medium,minus,dotcolour,beta,,,59,18,V,R,
363,111,27,8,2,53,27,500,['c'],1,left,['0'],6,35,[0.05618254],52,53,easy,minus,dotcolour,beta,,,59,18,V,R,
364,112,28,8,2,36,44,650,['n'],1,right,['0'],6,113,[-0.12045243],97,44,hard,minus,dotcolour,beta,,,59,18,V,R,
365,113,29,8,2,27,53,799,['n'],1,right,['0'],6,199,[-0.16782563],99,53,easy,minus,dotcolour,beta,,,59,18,V,R,
366,114,30,8,2,44,36,868,['c'],1,left,['9'],5,101,[0.07800828],78,44,hard,minus,dotcolour,beta,,,59,18,V,R,
367,115,31,8,2,47,33,516,['c'],1,left,['9'],5,94,[0.05823858],54,47,medium,minus,dotcolour,beta,,,59,18,V,R,
368,116,32,8,2,53,27,550,['c'],1,left,['9'],5,109,[0.04573247],37,53,easy,minus,dotcolour,beta,,,59,18,V,R,
369,117,33,8,2,44,36,650,['c'],1,left,['0'],6,111,[0.0370948],27,44,hard,minus,dotcolour,beta,,,59,18,V,R,
370,118,34,8,2,36,44,1383,['n'],1,right,['0'],6,1077,[-0.07221941],57,44,hard,minus,dotcolour,beta,,,59,18,V,R,
371,119,35,8,2,33,47,917,['n'],1,right,['0'],6,158,[-0.08076657],76,47,medium,minus,dotcolour,beta,,,59,18,V,R,
372,120,36,8,2,47,33,800,['c'],1,left,['0'],6,657,[0.08092945],64,47,medium,minus,dotcolour,beta,,,59,18,V,R,
373,121,37,8,2,27,53,616,['n'],1,right,['0'],6,144,[-0.04870685],42,53,easy,minus,dotcolour,beta,,,59,18,V,R,
374,122,38,8,2,47,33,449,['c'],1,left,['3'],3,153,[-0.00228085],7,47,medium,minus,dotcolour,beta,,,59,18,V,R,
375,123,39,8,2,53,27,667,['c'],1,left,['0'],6,89,[0.05736746],53,53,easy,minus,dotcolour,beta,,,59,18,V,R,
376,124,40,8,2,44,36,833,['n'],0,left,['0'],6,1174,[-0.03740151],43,44,hard,minus,dotcolour,beta,,,59,18,V,R,
377,125,41,8,2,53,27,784,['n'],0,left,['0'],6,88,[-0.04485164],34,53,easy,minus,dotcolour,beta,,,59,18,V,R,
378,0,0,9,3,27,53,784,['n'],1,right,['0'],6,100,[-0.04631679],100,53,easy,plus,dotcolour,beta,,,59,18,V,R,
379,1,1,9,3,44,36,667,['n'],0,left,['0'],6,118,[-0.059084],100,44,hard,plus,dotcolour,beta,,,59,18,V,R,
380,2,2,9,3,33,47,649,['n'],1,right,['0'],6,137,[-0.10438587],100,47,medium,plus,dotcolour,beta,,,59,18,V,R,
381,3,3,9,3,33,47,701,['n'],1,right,['0'],6,113,[-0.08230351],100,47,medium,plus,dotcolour,beta,,,59,18,V,R,
382,4,4,9,3,27,53,550,['n'],1,right,['0'],6,104,[-0.06941027],100,53,easy,plus,dotcolour,beta,,,59,18,V,R,
383,5,5,9,3,53,27,467,['c'],1,left,['0'],6,82,[0.10608034],100,53,easy,plus,dotcolour,beta,,,59,18,V,R,
384,6,6,9,3,44,36,635,['n'],0,left,['0'],6,126,[-0.01021861],97,44,hard,plus,dotcolour,beta,,,59,18,V,R,
385,7,7,9,3,36,44,483,['n'],1,right,['0'],6,111,[-0.02454569],99,44,hard,plus,dotcolour,beta,,,59,18,V,R,
386,8,8,9,3,44,36,483,['n'],0,left,['0'],6,121,[-0.03170899],99,44,hard,plus,dotcolour,beta,,,59,18,V,R,
387,9,9,9,3,27,53,433,['n'],1,right,['0'],6,116,[-0.13209485],100,53,easy,plus,dotcolour,beta,,,59,18,V,R,
388,10,10,9,3,33,47,483,['n'],1,right,['0'],6,102,[-0.07548182],100,47,medium,plus,dotcolour,beta,,,59,18,V,R,
389,11,11,9,3,36,44,617,['n'],1,right,['0'],6,82,[-0.06373264],100,44,hard,plus,dotcolour,beta,,,59,18,V,R,
390,12,12,9,3,36,44,467,['n'],1,right,['0'],6,126,[-0.09371498],100,44,hard,plus,dotcolour,beta,,,59,18,V,R,
391,13,13,9,3,27,53,300,['c'],0,right,['3'],3,662,[-0.12187744],19,53,easy,plus,dotcolour,beta,,,59,18,V,R,
392,14,14,9,3,53,27,616,['c'],1,left,['0'],6,100,[0.11308567],100,53,easy,plus,dotcolour,beta,,,59,18,V,R,
393,15,15,9,3,47,33,449,['c'],1,left,['0'],6,279,[0.07424324],99,47,medium,plus,dotcolour,beta,,,59,18,V,R,
394,16,16,9,3,47,33,934,['n'],0,left,['0'],6,112,[-0.0336596],99,47,medium,plus,dotcolour,beta,,,59,18,V,R,
395,17,17,9,3,47,33,651,['c'],1,left,['0'],6,82,[0.05705827],100,47,medium,plus,dotcolour,beta,,,59,18,V,R,
396,18,18,9,3,53,27,583,['c'],1,left,['0'],6,81,[0.09032159],100,53,easy,plus,dotcolour,beta,,,59,18,V,R,
397,19,19,9,3,33,47,583,['n'],1,right,['0'],6,80,[-0.06764235],100,47,medium,plus,dotcolour,beta,,,59,18,V,R,
398,20,20,9,3,44,36,1116,['n'],0,left,['0'],6,129,[-0.06402478],100,44,hard,plus,dotcolour,beta,,,59,18,V,R,
399,21,21,9,3,27,53,567,['n'],1,right,['0'],6,135,[-0.05700625],100,53,easy,plus,dotcolour,beta,,,59,18,V,R,
400,22,22,9,3,47,33,582,['n'],0,left,['0'],6,163,[-0.03649966],98,47,medium,plus,dotcolour,beta,,,59,18,V,R,
401,23,23,9,3,53,27,500,['c'],1,left,['0'],6,98,[0.08027312],100,53,easy,plus,dotcolour,beta,,,59,18,V,R,
402,24,24,9,3,53,27,600,['c'],1,left,['0'],6,72,[0.0800337],100,53,easy,plus,dotcolour,beta,,,59,18,V,R,
403,25,25,9,3,44,36,451,['c'],1,left,['0'],6,92,[0.05831991],100,44,hard,plus,dotcolour,beta,,,59,18,V,R,
404,26,26,9,3,36,44,533,['n'],1,right,['0'],6,108,[-0.13906901],100,44,hard,plus,dotcolour,beta,,,59,18,V,R,
405,27,27,9,3,53,27,666,['c'],1,left,['0'],6,63,[0.10425944],100,53,easy,plus,dotcolour,beta,,,59,18,V,R,
406,28,28,9,3,33,47,549,['n'],1,right,['0'],6,110,[-0.09630794],100,47,medium,plus,dotcolour,beta,,,59,18,V,R,
407,29,29,9,3,36,44,650,['n'],1,right,['0'],6,145,[-0.08539065],100,44,hard,plus,dotcolour,beta,,,59,18,V,R,
408,30,30,9,3,27,53,583,['n'],1,right,['0'],6,150,[-0.08242789],100,53,easy,plus,dotcolour,beta,,,59,18,V,R,
409,31,31,9,3,47,33,500,['c'],1,left,['9'],5,69,[0.07497992],100,47,medium,plus,dotcolour,beta,,,59,18,V,R,
410,32,32,9,3,44,36,417,['c'],1,left,['9'],5,195,[0.08461226],100,44,hard,plus,dotcolour,beta,,,59,18,V,R,
411,33,33,9,3,53,27,550,['c'],1,left,['8'],4,206,[0.12843896],100,53,easy,plus,dotcolour,beta,,,59,18,V,R,
412,34,34,9,3,33,47,717,['n'],1,right,['0'],6,106,[-0.0899336],100,47,medium,plus,dotcolour,beta,,,59,18,V,R,
413,35,35,9,3,33,47,634,['n'],1,right,['0'],6,102,[-0.04909577],100,47,medium,plus,dotcolour,beta,,,59,18,V,R,
414,36,36,9,3,44,36,516,['c'],1,left,['0'],6,23,[0.06202937],100,44,hard,plus,dotcolour,beta,,,59,18,V,R,
415,37,37,9,3,36,44,549,['n'],1,right,['0'],6,17,[-0.07980686],100,44,hard,plus,dotcolour,beta,,,59,18,V,R,
416,38,38,9,3,27,53,466,['n'],1,right,['0'],6,119,[-0.1037762],100,53,easy,plus,dotcolour,beta,,,59,18,V,R,
417,39,39,9,3,36,44,567,['n'],1,right,['0'],6,94,[-0.03899346],100,44,hard,plus,dotcolour,beta,,,59,18,V,R,
418,40,40,9,3,47,33,502,['c'],1,left,['0'],6,111,[0.12908034],100,47,medium,plus,dotcolour,beta,,,59,18,V,R,
419,41,41,9,3,47,33,517,['c'],1,left,['0'],6,63,[0.10604483],100,47,medium,plus,dotcolour,beta,,,59,18,V,R,
420,42,0,10,3,33,47,751,['n'],1,right,['0'],6,63,[-0.09431058],100,47,medium,plus,dotcolour,beta,,,59,18,V,R,
421,43,1,10,3,27,53,566,['n'],1,right,['0'],6,86,[-0.09453959],100,53,easy,plus,dotcolour,beta,,,59,18,V,R,
422,44,2,10,3,27,53,567,['n'],1,right,['0'],6,158,[-0.08414617],100,53,easy,plus,dotcolour,beta,,,59,18,V,R,
423,45,3,10,3,36,44,617,['n'],1,right,['0'],6,336,[-0.05356353],97,44,hard,plus,dotcolour,beta,,,59,18,V,R,
424,46,4,10,3,53,27,584,['c'],1,left,['0'],6,61,[0.08855991],100,53,easy,plus,dotcolour,beta,,,59,18,V,R,
425,47,5,10,3,36,44,551,['n'],1,right,['0'],6,101,[-0.06831439],100,44,hard,plus,dotcolour,beta,,,59,18,V,R,
426,48,6,10,3,53,27,600,['c'],1,left,['9'],5,82,[0.07789273],100,53,easy,plus,dotcolour,beta,,,59,18,V,R,
427,49,7,10,3,44,36,484,['c'],1,left,['9'],5,109,[0.05700866],100,44,hard,plus,dotcolour,beta,,,59,18,V,R,
428,50,8,10,3,44,36,467,['c'],1,left,['9'],5,167,[0.11860592],100,44,hard,plus,dotcolour,beta,,,59,18,V,R,
429,51,9,10,3,36,44,483,['c'],0,right,['8'],4,127,[0.05987425],100,44,hard,plus,dotcolour,beta,,,59,18,V,R,
430,52,10,10,3,27,53,1050,['n'],1,right,['0'],6,41,[-0.0818927],100,53,easy,plus,dotcolour,beta,,,59,18,V,R,
431,53,11,10,3,44,36,616,['c'],1,left,['9'],5,80,[0.06348031],100,44,hard,plus,dotcolour,beta,,,59,18,V,R,
432,54,12,10,3,36,44,601,['n'],1,right,['0'],6,118,[-0.0911124],100,44,hard,plus,dotcolour,beta,,,59,18,V,R,
433,55,13,10,3,27,53,534,['n'],1,right,['0'],6,85,[-0.05180395],100,53,easy,plus,dotcolour,beta,,,59,18,V,R,
434,56,14,10,3,53,27,616,['c'],1,left,['0'],6,91,[0.07655785],100,53,easy,plus,dotcolour,beta,,,59,18,V,R,
435,57,15,10,3,36,44,533,['n'],1,right,['9'],5,75,[-0.11960775],100,44,hard,plus,dotcolour,beta,,,59,18,V,R,
436,58,16,10,3,33,47,567,['n'],1,right,['0'],6,82,[-0.07639006],100,47,medium,plus,dotcolour,beta,,,59,18,V,R,
437,59,17,10,3,47,33,733,['c'],1,left,['9'],5,170,[0.12270871],100,47,medium,plus,dotcolour,beta,,,59,18,V,R,
438,60,18,10,3,44,36,850,['c'],1,left,['8'],4,123,[0.05238208],100,44,hard,plus,dotcolour,beta,,,59,18,V,R,
439,61,19,10,3,36,44,483,['n'],1,right,['0'],6,108,[-0.11007849],100,44,hard,plus,dotcolour,beta,,,59,18,V,R,
440,62,20,10,3,47,33,467,['c'],1,left,['8'],4,158,[0.11412646],100,47,medium,plus,dotcolour,beta,,,59,18,V,R,
441,63,21,10,3,47,33,500,['c'],1,left,['8'],4,124,[0.10215948],100,47,medium,plus,dotcolour,beta,,,59,18,V,R,
442,64,22,10,3,33,47,583,['n'],1,right,['0'],6,105,[-0.09172245],100,47,medium,plus,dotcolour,beta,,,59,18,V,R,
443,65,23,10,3,27,53,451,['n'],1,right,['0'],6,188,[-0.12445274],100,53,easy,plus,dotcolour,beta,,,59,18,V,R,
444,66,24,10,3,33,47,450,['n'],1,right,['0'],6,140,[-0.06651754],100,47,medium,plus,dotcolour,beta,,,59,18,V,R,
445,67,25,10,3,33,47,633,['n'],1,right,['0'],6,759,[-0.20902706],100,47,medium,plus,dotcolour,beta,,,59,18,V,R,
446,68,26,10,3,47,33,634,['c'],1,left,['0'],6,120,[0.1065034],100,47,medium,plus,dotcolour,beta,,,59,18,V,R,
447,69,27,10,3,33,47,767,['c'],0,right,['0'],6,158,[0.04030268],99,47,medium,plus,dotcolour,beta,,,59,18,V,R,
448,70,28,10,3,33,47,583,['n'],1,right,['0'],6,81,[-0.06993252],100,47,medium,plus,dotcolour,beta,,,59,18,V,R,
449,71,29,10,3,53,27,668,['c'],1,left,['0'],6,68,[0.12017854],100,53,easy,plus,dotcolour,beta,,,59,18,V,R,
450,72,30,10,3,47,33,1366,['n'],0,left,['0'],6,117,[-0.0318137],99,47,medium,plus,dotcolour,beta,,,59,18,V,R,
451,73,31,10,3,36,44,600,['n'],1,right,['0'],6,106,[-0.11368781],100,44,hard,plus,dotcolour,beta,,,59,18,V,R,
452,74,32,10,3,53,27,450,['c'],1,left,['0'],6,37,[0.06528211],100,53,easy,plus,dotcolour,beta,,,59,18,V,R,
453,75,33,10,3,27,53,534,['n'],1,right,['0'],6,143,[-0.07824465],100,53,easy,plus,dotcolour,beta,,,59,18,V,R,
454,76,34,10,3,44,36,1100,['c'],1,left,['0'],6,87,[0.05025578],100,44,hard,plus,dotcolour,beta,,,59,18,V,R,
455,77,35,10,3,44,36,501,['n'],0,left,['0'],6,81,[-0.04484104],100,44,hard,plus,dotcolour,beta,,,59,18,V,R,
456,78,36,10,3,44,36,868,['c'],1,left,['0'],6,140,[0.01913515],97,44,hard,plus,dotcolour,beta,,,59,18,V,R,
457,79,37,10,3,53,27,583,['c'],1,left,['0'],6,72,[0.10824751],100,53,easy,plus,dotcolour,beta,,,59,18,V,R,
458,80,38,10,3,27,53,733,['n'],1,right,['0'],6,114,[-0.16306415],100,53,easy,plus,dotcolour,beta,,,59,18,V,R,
459,81,39,10,3,47,33,1201,['n'],0,left,['0'],6,46,[-0.11114087],100,47,medium,plus,dotcolour,beta,,,59,18,V,R,
460,82,40,10,3,53,27,616,['n'],0,left,['0'],6,45,[-0.04753042],100,53,easy,plus,dotcolour,beta,,,59,18,V,R,
461,83,41,10,3,47,33,834,['n'],0,left,['0'],6,19,[-0.03468841],100,47,medium,plus,dotcolour,beta,,,59,18,V,R,
462,84,0,11,3,47,33,834,['c'],1,left,['0'],6,137,[0.01930866],97,47,medium,plus,dotcolour,beta,,,59,18,V,R,
463,85,1,11,3,44,36,833,['c'],1,left,['9'],5,139,[0.06462896],100,44,hard,plus,dotcolour,beta,,,59,18,V,R,
464,86,2,11,3,36,44,667,['n'],1,right,['0'],6,165,[-0.0910615],100,44,hard,plus,dotcolour,beta,,,59,18,V,R,
465,87,3,11,3,33,47,667,['c'],0,right,['0'],6,173,[0.01527037],96,47,medium,plus,dotcolour,beta,,,59,18,V,R,
466,88,4,11,3,33,47,682,['n'],1,right,['0'],6,212,[-0.08742614],100,47,medium,plus,dotcolour,beta,,,59,18,V,R,
467,89,5,11,3,53,27,416,['c'],1,left,['9'],5,212,[0.02615761],96,53,easy,plus,dotcolour,beta,,,59,18,V,R,
468,90,6,11,3,47,33,633,['n'],0,left,['0'],6,163,[-0.01546072],96,47,medium,plus,dotcolour,beta,,,59,18,V,R,
469,91,7,11,3,44,36,817,['c'],1,left,['9'],5,109,[0.04289768],100,44,hard,plus,dotcolour,beta,,,59,18,V,R,
470,92,8,11,3,44,36,534,['n'],0,left,['0'],6,140,[-0.02551235],98,44,hard,plus,dotcolour,beta,,,59,18,V,R,
471,93,9,11,3,36,44,434,['c'],0,right,['0'],6,247,[0.080587],99,44,hard,plus,dotcolour,beta,,,59,18,V,R,
472,94,10,11,3,27,53,384,['c'],0,right,['1'],1,855,[-0.0765732],40,53,easy,plus,dotcolour,beta,,,59,18,V,R,
473,95,11,11,3,27,53,884,['n'],1,right,['0'],6,99,[-0.05808255],100,53,easy,plus,dotcolour,beta,,,59,18,V,R,
474,96,12,11,3,53,27,917,['c'],1,left,['9'],5,122,[0.09854568],100,53,easy,plus,dotcolour,beta,,,59,18,V,R,
475,97,13,11,3,47,33,517,['c'],1,left,['9'],5,195,[0.12138011],100,47,medium,plus,dotcolour,beta,,,59,18,V,R,
476,98,14,11,3,47,33,600,['c'],1,left,['0'],6,108,[0.09267482],100,47,medium,plus,dotcolour,beta,,,59,18,V,R,
477,99,15,11,3,44,36,701,['c'],1,left,['9'],5,148,[0.15094808],100,44,hard,plus,dotcolour,beta,,,59,18,V,R,
478,100,16,11,3,36,44,1049,['n'],1,right,['0'],6,119,[-0.04753756],100,44,hard,plus,dotcolour,beta,,,59,18,V,R,
479,101,17,11,3,53,27,683,['c'],1,left,['8'],4,96,[0.05499235],100,53,easy,plus,dotcolour,beta,,,59,18,V,R,
480,102,18,11,3,44,36,1266,['c'],1,left,['8'],4,90,[0.11391681],100,44,hard,plus,dotcolour,beta,,,59,18,V,R,
481,103,19,11,3,33,47,850,['n'],1,right,['0'],6,77,[-0.05334513],100,47,medium,plus,dotcolour,beta,,,59,18,V,R,
482,104,20,11,3,47,33,865,['c'],1,left,['0'],6,97,[0.06455012],100,47,medium,plus,dotcolour,beta,,,59,18,V,R,
483,105,21,11,3,47,33,1150,['c'],1,left,['8'],4,104,[0.07348132],100,47,medium,plus,dotcolour,beta,,,59,18,V,R,
484,106,22,11,3,36,44,1017,['n'],1,right,['0'],6,93,[-0.06446974],100,44,hard,plus,dotcolour,beta,,,59,18,V,R,
485,107,23,11,3,53,27,716,['c'],1,left,['8'],4,119,[0.0245792],98,53,easy,plus,dotcolour,beta,,,59,18,V,R,
486,108,24,11,3,53,27,650,['c'],1,left,['8'],4,208,[0.09610123],100,53,easy,plus,dotcolour,beta,,,59,18,V,R,
487,109,25,11,3,27,53,684,['n'],1,right,['0'],6,830,[-0.20608518],99,53,easy,plus,dotcolour,beta,,,59,18,V,R,
488,110,26,11,3,27,53,749,['n'],1,right,['0'],6,127,[-0.09043256],100,53,easy,plus,dotcolour,beta,,,59,18,V,R,
489,111,27,11,3,36,44,550,['n'],1,right,['0'],6,94,[-0.06446122],100,44,hard,plus,dotcolour,beta,,,59,18,V,R,
490,112,28,11,3,27,53,650,['n'],1,right,['0'],6,121,[-0.11184287],100,53,easy,plus,dotcolour,beta,,,59,18,V,R,
491,113,29,11,3,27,53,600,['n'],1,right,['0'],6,126,[-0.06840872],100,53,easy,plus,dotcolour,beta,,,59,18,V,R,
492,114,30,11,3,33,47,583,['n'],1,right,['0'],6,147,[-0.07427411],100,47,medium,plus,dotcolour,beta,,,59,18,V,R,
493,115,31,11,3,33,47,583,['n'],1,right,['0'],6,95,[-0.0440036],100,47,medium,plus,dotcolour,beta,,,59,18,V,R,
494,116,32,11,3,44,36,734,['c'],1,left,['9'],5,70,[0.08041741],100,44,hard,plus,dotcolour,beta,,,59,18,V,R,
495,117,33,11,3,36,44,650,['n'],1,right,['0'],6,75,[-0.05194671],100,44,hard,plus,dotcolour,beta,,,59,18,V,R,
496,118,34,11,3,47,33,617,['c'],1,left,['8'],4,137,[0.08901492],100,47,medium,plus,dotcolour,beta,,,59,18,V,R,
497,119,35,11,3,33,47,633,['n'],1,right,['0'],6,83,[-0.11983932],100,47,medium,plus,dotcolour,beta,,,59,18,V,R,
498,120,36,11,3,53,27,799,['c'],1,left,['8'],4,89,[0.0512967],100,53,easy,plus,dotcolour,beta,,,59,18,V,R,
499,121,37,11,3,53,27,700,['c'],1,left,['8'],4,91,[0.07644248],100,53,easy,plus,dotcolour,beta,,,59,18,V,R,
500,122,38,11,3,36,44,633,['n'],1,right,['0'],6,31,[-0.07647808],100,44,hard,plus,dotcolour,beta,,,59,18,V,R,
501,123,39,11,3,27,53,583,['n'],1,right,['0'],6,32,[-0.08417985],100,53,easy,plus,dotcolour,beta,,,59,18,V,R,
502,124,40,11,3,33,47,600,['n'],1,right,['0'],6,256,[-0.04080364],97,47,medium,plus,dotcolour,beta,,,59,18,V,R,
503,125,41,11,3,44,36,734,['c'],1,left,['8'],4,105,[0.04366103],100,44,hard,plus,dotcolour,beta,,,59,18,V,R,
504,0,0,12,4,36,44,651,['n'],1,right,['0'],6,84,[-0.13618905],99,44,hard,minus,dotcolour,beta,,,59,18,V,R,
505,1,1,12,4,47,33,1084,['n'],0,left,['0'],6,95,[-0.03873357],27,47,medium,minus,dotcolour,beta,,,59,18,V,R,
506,2,2,12,4,36,44,750,['n'],1,right,['0'],6,62,[-0.0940771],94,44,hard,minus,dotcolour,beta,,,59,18,V,R,
507,3,3,12,4,47,33,700,['c'],1,left,['9'],5,121,[0.07871789],77,47,medium,minus,dotcolour,beta,,,59,18,V,R,
508,4,4,12,4,53,27,700,['c'],1,left,['0'],6,193,[0.10172566],87,53,easy,minus,dotcolour,beta,,,59,18,V,R,
509,5,5,12,4,36,44,717,['n'],1,right,['0'],6,86,[-0.10490621],95,44,hard,minus,dotcolour,beta,,,59,18,V,R,
510,6,6,12,4,44,36,750,['n'],0,left,['9'],5,286,[-0.08987161],76,44,hard,minus,dotcolour,beta,,,59,18,V,R,
511,7,7,12,4,33,47,666,['n'],1,right,['0'],6,130,[-0.0761349],74,47,medium,minus,dotcolour,beta,,,59,18,V,R,
512,8,8,12,4,33,47,650,['n'],1,right,['0'],6,92,[-0.1088348],96,47,medium,minus,dotcolour,beta,,,59,18,V,R,
513,9,9,12,4,33,47,550,['n'],1,right,['0'],6,100,[-0.10377669],94,47,medium,minus,dotcolour,beta,,,59,18,V,R,
514,10,10,12,4,53,27,917,['c'],1,left,['8'],4,92,[0.09931229],93,53,easy,minus,dotcolour,beta,,,59,18,V,R,
515,11,11,12,4,33,47,684,['n'],1,right,['0'],6,54,[-0.08748115],92,47,medium,minus,dotcolour,beta,,,59,18,V,R,
516,12,12,12,4,36,44,701,['n'],1,right,['0'],6,97,[-0.0526791],46,44,hard,minus,dotcolour,beta,,,59,18,V,R,
517,13,13,12,4,53,27,684,['c'],1,left,['8'],4,115,[0.06787089],66,53,easy,minus,dotcolour,beta,,,59,18,V,R,
518,14,14,12,4,44,36,666,['c'],1,left,['9'],5,126,[0.13482749],98,44,hard,minus,dotcolour,beta,,,59,18,V,R,
519,15,15,12,4,47,33,584,['c'],1,left,['9'],5,82,[0.1415124],100,47,medium,minus,dotcolour,beta,,,59,18,V,R,
520,16,16,12,4,47,33,682,['c'],1,left,['0'],6,93,[0.09009245],88,47,medium,minus,dotcolour,beta,,,59,18,V,R,
521,17,17,12,4,53,27,616,['c'],1,left,['9'],5,114,[-0.03450383],1,53,easy,minus,dotcolour,beta,,,59,18,V,R,
522,18,18,12,4,33,47,801,['n'],1,right,['0'],6,126,[-0.07108453],69,47,medium,minus,dotcolour,beta,,,59,18,V,R,
523,19,19,12,4,27,53,600,['n'],1,right,['0'],6,122,[-0.10144535],91,53,easy,minus,dotcolour,beta,,,59,18,V,R,
524,20,20,12,4,53,27,833,['c'],1,left,['9'],5,149,[0.10153285],90,53,easy,minus,dotcolour,beta,,,59,18,V,R,
525,21,21,12,4,47,33,733,['c'],1,left,['8'],4,131,[0.11634998],95,47,medium,minus,dotcolour,beta,,,59,18,V,R,
526,22,22,12,4,33,47,683,['n'],1,right,['0'],6,108,[-0.08936464],86,47,medium,minus,dotcolour,beta,,,59,18,V,R,
527,23,23,12,4,27,53,650,['n'],1,right,['0'],6,63,[-0.06229039],62,53,easy,minus,dotcolour,beta,,,59,18,V,R,
528,24,24,12,4,36,44,1150,['c'],0,right,['8'],4,104,[0.08840199],86,44,hard,minus,dotcolour,beta,,,59,18,V,R,
529,25,25,12,4,27,53,583,['n'],1,right,['0'],6,101,[-0.08509876],84,53,easy,minus,dotcolour,beta,,,59,18,V,R,
530,26,26,12,4,27,53,750,['n'],1,right,['0'],6,85,[-0.02621159],14,53,easy,minus,dotcolour,beta,,,59,18,V,R,
531,27,27,12,4,44,36,900,['c'],1,left,['8'],4,95,[0.07887432],80,44,hard,minus,dotcolour,beta,,,59,18,V,R,
532,28,28,12,4,47,33,633,['c'],1,left,['9'],5,163,[0.05655219],51,47,medium,minus,dotcolour,beta,,,59,18,V,R,
533,29,29,12,4,53,27,616,['c'],1,left,['9'],5,109,[0.11097164],95,53,easy,minus,dotcolour,beta,,,59,18,V,R,
534,30,30,12,4,47,33,732,['c'],1,left,['0'],6,109,[0.06390363],61,47,medium,minus,dotcolour,beta,,,59,18,V,R,
535,31,31,12,4,53,27,535,['c'],1,left,['0'],6,124,[0.1134285],95,53,easy,minus,dotcolour,beta,,,59,18,V,R,
536,32,32,12,4,44,36,483,['c'],1,left,['0'],6,108,[0.0385094],28,44,hard,minus,dotcolour,beta,,,59,18,V,R,
537,33,33,12,4,44,36,866,['c'],1,left,['9'],5,79,[0.07536428],78,44,hard,minus,dotcolour,beta,,,59,18,V,R,
538,34,34,12,4,36,44,750,['n'],1,right,['0'],6,175,[-0.13436111],97,44,hard,minus,dotcolour,beta,,,59,18,V,R,
539,35,35,12,4,44,36,717,['c'],1,left,['8'],4,108,[0.04644357],38,44,hard,minus,dotcolour,beta,,,59,18,V,R,
540,36,36,12,4,36,44,665,['c'],0,right,['9'],5,94,[0.08486852],85,44,hard,minus,dotcolour,beta,,,59,18,V,R,
541,37,37,12,4,27,53,566,['n'],1,right,['0'],6,100,[-0.05006368],42,53,easy,minus,dotcolour,beta,,,59,18,V,R,
542,38,38,12,4,33,47,533,['n'],1,right,['0'],6,116,[-0.06519014],62,47,medium,minus,dotcolour,beta,,,59,18,V,R,
543,39,39,12,4,27,53,566,['n'],1,right,['0'],6,59,[-0.10391494],97,53,easy,minus,dotcolour,beta,,,59,18,V,R,
544,40,40,12,4,44,36,666,['c'],1,left,['9'],5,111,[0.04472235],36,44,hard,minus,dotcolour,beta,,,59,18,V,R,
545,41,41,12,4,27,53,800,['n'],1,right,['0'],6,99,[-0.11068145],96,53,easy,minus,dotcolour,beta,,,59,18,V,R,
546,42,0,13,4,33,47,817,['c'],0,right,['0'],6,121,[-0.00040768],5,47,medium,minus,dotcolour,beta,,,59,18,V,R,
547,43,1,13,4,27,53,549,['n'],1,right,['0'],6,79,[-0.10815569],97,53,easy,minus,dotcolour,beta,,,59,18,V,R,
548,44,2,13,4,27,53,616,['n'],1,right,['0'],6,77,[-0.07466782],78,53,easy,minus,dotcolour,beta,,,59,18,V,R,
549,45,3,13,4,33,47,566,['n'],1,right,['0'],6,76,[-0.05094042],43,47,medium,minus,dotcolour,beta,,,59,18,V,R,
550,46,4,13,4,27,53,617,['n'],1,right,['0'],6,122,[-0.08845946],84,53,easy,minus,dotcolour,beta,,,59,18,V,R,
551,47,5,13,4,53,27,617,['c'],1,left,['9'],5,85,[0.16183089],100,53,easy,minus,dotcolour,beta,,,59,18,V,R,
552,48,6,13,4,36,44,717,['n'],1,right,['0'],6,71,[-0.11517111],98,44,hard,minus,dotcolour,beta,,,59,18,V,R,
553,49,7,13,4,47,33,599,['c'],1,left,['9'],5,94,[0.02864888],17,47,medium,minus,dotcolour,beta,,,59,18,V,R,
554,50,8,13,4,53,27,550,['c'],1,left,['9'],5,125,[0.09245023],87,53,easy,minus,dotcolour,beta,,,59,18,V,R,
555,51,9,13,4,44,36,1034,['c'],1,left,['9'],5,159,[0.08948491],82,44,hard,minus,dotcolour,beta,,,59,18,V,R,
556,52,10,13,4,36,44,683,['n'],1,right,['0'],6,31,[-0.06740704],77,44,hard,minus,dotcolour,beta,,,59,18,V,R,
557,53,11,13,4,27,53,751,['n'],1,right,['0'],6,113,[-0.06681551],65,53,easy,minus,dotcolour,beta,,,59,18,V,R,
558,54,12,13,4,53,27,617,['c'],1,left,['0'],6,125,[0.03613669],27,53,easy,minus,dotcolour,beta,,,59,18,V,R,
559,55,13,13,4,44,36,633,['c'],1,left,['9'],5,96,[0.07494978],76,44,hard,minus,dotcolour,beta,,,59,18,V,R,
560,56,14,13,4,36,44,700,['n'],1,right,['0'],6,121,[-0.0947093],88,44,hard,minus,dotcolour,beta,,,59,18,V,R,
561,57,15,13,4,33,47,733,['n'],1,right,['0'],6,160,[-0.17374212],100,47,medium,minus,dotcolour,beta,,,59,18,V,R,
562,58,16,13,4,36,44,800,['c'],0,right,['9'],5,107,[0.07904928],78,44,hard,minus,dotcolour,beta,,,59,18,V,R,
563,59,17,13,4,33,47,783,['n'],1,right,['0'],6,56,[-0.01850151],6,47,medium,minus,dotcolour,beta,,,59,18,V,R,
564,60,18,13,4,53,27,583,['c'],1,left,['9'],5,104,[0.07883178],79,53,easy,minus,dotcolour,beta,,,59,18,V,R,
565,61,19,13,4,44,36,634,['c'],1,left,['9'],5,108,[0.12047161],97,44,hard,minus,dotcolour,beta,,,59,18,V,R,
566,62,20,13,4,47,33,616,['c'],1,left,['9'],5,89,[0.09021803],89,47,medium,minus,dotcolour,beta,,,59,18,V,R,
567,63,21,13,4,36,44,616,['n'],1,right,['9'],5,125,[-0.05505338],49,44,hard,minus,dotcolour,beta,,,59,18,V,R,
568,64,22,13,4,27,53,850,['n'],1,right,['0'],6,63,[-0.06542301],67,53,easy,minus,dotcolour,beta,,,59,18,V,R,
569,65,23,13,4,27,53,716,['n'],1,right,['0'],6,33,[-0.07818247],90,53,easy,minus,dotcolour,beta,,,59,18,V,R,
570,66,24,13,4,27,53,583,['n'],1,right,['0'],6,210,[-0.10260882],86,53,easy,minus,dotcolour,beta,,,59,18,V,R,
571,67,25,13,4,44,36,550,['c'],1,left,['9'],5,108,[0.06939201],68,44,hard,minus,dotcolour,beta,,,59,18,V,R,
572,68,26,13,4,33,47,700,['n'],1,right,['0'],6,109,[-0.1024827],93,47,medium,minus,dotcolour,beta,,,59,18,V,R,
573,69,27,13,4,53,27,633,['c'],1,left,['9'],5,89,[0.14807872],100,53,easy,minus,dotcolour,beta,,,59,18,V,R,
574,70,28,13,4,44,36,716,['n'],0,left,['0'],6,114,[-0.0379656],28,44,hard,minus,dotcolour,beta,,,59,18,V,R,
575,71,29,13,4,33,47,567,['n'],1,right,['0'],6,136,[-0.08817567],83,47,medium,minus,dotcolour,beta,,,59,18,V,R,
576,72,30,13,4,47,33,782,['c'],1,left,['9'],5,173,[0.07519913],70,47,medium,minus,dotcolour,beta,,,59,18,V,R,
577,73,31,13,4,36,44,734,['n'],1,right,['0'],6,194,[-0.07089509],65,44,hard,minus,dotcolour,beta,,,59,18,V,R,
578,74,32,13,4,44,36,616,['c'],1,left,['0'],6,123,[0.14452873],99,44,hard,minus,dotcolour,beta,,,59,18,V,R,
579,75,33,13,4,47,33,1900,['c'],1,left,['0'],6,114,[0.09856431],91,47,medium,minus,dotcolour,beta,,,59,18,V,R,
580,76,34,13,4,44,36,1150,['c'],1,left,['9'],5,217,[0.09900156],84,44,hard,minus,dotcolour,beta,,,59,18,V,R,
581,77,35,13,4,47,33,617,['c'],1,left,['9'],5,81,[0.05039577],42,47,medium,minus,dotcolour,beta,,,59,18,V,R,
582,78,36,13,4,47,33,700,['c'],1,left,['0'],6,107,[0.01891212],12,47,medium,minus,dotcolour,beta,,,59,18,V,R,
583,79,37,13,4,47,33,634,['c'],1,left,['9'],5,134,[0.1385988],98,47,medium,minus,dotcolour,beta,,,59,18,V,R,
584,80,38,13,4,36,44,700,['n'],1,right,['0'],6,479,[-0.02702071],32,44,hard,minus,dotcolour,beta,,,59,18,V,R,
585,81,39,13,4,53,27,701,['c'],1,left,['9'],5,17,[0.06067038],67,53,easy,minus,dotcolour,beta,,,59,18,V,R,
586,82,40,13,4,53,27,433,['c'],1,left,['9'],5,104,[0.04052553],30,53,easy,minus,dotcolour,beta,,,59,18,V,R,
587,83,41,13,4,33,47,667,['n'],1,right,['0'],6,91,[-0.03758569],25,47,medium,minus,dotcolour,beta,,,59,18,V,R,
588,84,0,14,4,36,44,1166,['n'],1,right,['0'],6,96,[-0.11920315],98,44,hard,minus,dotcolour,beta,,,59,18,V,R,
589,85,1,14,4,47,33,565,['c'],1,left,['9'],5,119,[0.06261617],59,47,medium,minus,dotcolour,beta,,,59,18,V,R,
590,86,2,14,4,33,47,750,['n'],1,right,['0'],6,125,[-0.09960042],90,47,medium,minus,dotcolour,beta,,,59,18,V,R,
591,87,3,14,4,44,36,616,['c'],1,left,['9'],5,96,[0.08828139],87,44,hard,minus,dotcolour,beta,,,59,18,V,R,
592,88,4,14,4,27,53,717,['n'],1,right,['0'],6,104,[-0.08607955],85,53,easy,minus,dotcolour,beta,,,59,18,V,R,
593,89,5,14,4,27,53,534,['n'],1,right,['0'],6,65,[-0.0967972],95,53,easy,minus,dotcolour,beta,,,59,18,V,R,
594,90,6,14,4,53,27,550,['c'],1,left,['9'],5,106,[0.12270079],98,53,easy,minus,dotcolour,beta,,,59,18,V,R,
595,91,7,14,4,47,33,600,['c'],1,left,['9'],5,102,[0.11442389],97,47,medium,minus,dotcolour,beta,,,59,18,V,R,
596,92,8,14,4,47,33,534,['c'],1,left,['8'],4,151,[0.10868954],92,47,medium,minus,dotcolour,beta,,,59,18,V,R,
597,93,9,14,4,36,44,534,['n'],1,right,['0'],6,77,[-0.08632786],88,44,hard,minus,dotcolour,beta,,,59,18,V,R,
598,94,10,14,4,33,47,717,['n'],1,right,['9'],5,158,[-0.06157117],57,47,medium,minus,dotcolour,beta,,,59,18,V,R,
599,95,11,14,4,47,33,550,['c'],1,left,['9'],5,155,[0.11036831],92,47,medium,minus,dotcolour,beta,,,59,18,V,R,
600,96,12,14,4,36,44,567,['n'],1,right,['0'],6,120,[-0.10249016],92,44,hard,minus,dotcolour,beta,,,59,18,V,R,
601,97,13,14,4,44,36,601,['c'],1,left,['9'],5,76,[0.05399659],47,44,hard,minus,dotcolour,beta,,,59,18,V,R,
602,98,14,14,4,33,47,533,['n'],1,right,['9'],5,133,[-0.02805772],20,47,medium,minus,dotcolour,beta,,,59,18,V,R,
603,99,15,14,4,27,53,600,['n'],1,right,['0'],6,137,[-0.05069185],44,53,easy,minus,dotcolour,beta,,,59,18,V,R,
604,100,16,14,4,27,53,584,['n'],1,right,['0'],6,5,[-0.0789012],100,53,easy,minus,dotcolour,beta,,,59,18,V,R,
605,101,17,14,4,53,27,800,['c'],1,left,['9'],5,39,[0.05047579],39,53,easy,minus,dotcolour,beta,,,59,18,V,R,
606,102,18,14,4,36,44,800,['n'],1,right,['0'],6,87,[-0.08628858],87,44,hard,minus,dotcolour,beta,,,59,18,V,R,
607,103,19,14,4,33,47,567,['n'],1,right,['0'],6,86,[-0.10660648],96,47,medium,minus,dotcolour,beta,,,59,18,V,R,
608,104,20,14,4,33,47,518,['n'],1,right,['0'],6,32,[-0.04917593],34,47,medium,minus,dotcolour,beta,,,59,18,V,R,
609,105,21,14,4,47,33,933,['n'],0,left,['9'],5,18,[-0.03814665],9,47,medium,minus,dotcolour,beta,,,59,18,V,R,
610,106,22,14,4,36,44,650,['c'],0,right,['9'],5,97,[0.01814353],10,44,hard,minus,dotcolour,beta,,,59,18,V,R,
611,107,23,14,4,44,36,934,['n'],0,left,['0'],6,121,[-0.07126132],69,44,hard,minus,dotcolour,beta,,,59,18,V,R,
612,108,24,14,4,53,27,550,['c'],1,left,['9'],5,224,[0.07161406],65,53,easy,minus,dotcolour,beta,,,59,18,V,R,
613,109,25,14,4,53,27,634,['c'],1,left,['9'],5,118,[0.0964086],89,53,easy,minus,dotcolour,beta,,,59,18,V,R,
614,110,26,14,4,27,53,600,['n'],1,right,['0'],6,75,[-0.11506061],98,53,easy,minus,dotcolour,beta,,,59,18,V,R,
615,111,27,14,4,44,36,784,['c'],1,left,['9'],5,74,[0.09682417],94,44,hard,minus,dotcolour,beta,,,59,18,V,R,
616,112,28,14,4,33,47,516,['n'],1,right,"['9', '0']",5,147,[-0.10123297],90,47,medium,minus,dotcolour,beta,,,59,18,V,R,
617,113,29,14,4,27,53,600,['n'],1,right,['0'],6,111,[-0.09100335],87,53,easy,minus,dotcolour,beta,,,59,18,V,R,
618,114,30,14,4,47,33,651,['c'],1,left,['9'],5,129,[0.08851234],84,47,medium,minus,dotcolour,beta,,,59,18,V,R,
619,115,31,14,4,27,53,517,['n'],1,right,['0'],6,121,[-0.05731319],52,53,easy,minus,dotcolour,beta,,,59,18,V,R,
620,116,32,14,4,44,36,633,['c'],1,left,['9'],5,132,[0.10748747],93,44,hard,minus,dotcolour,beta,,,59,18,V,R,
621,117,33,14,4,53,27,666,['c'],1,left,['9'],5,110,[0.12788602],98,53,easy,minus,dotcolour,beta,,,59,18,V,R,
622,118,34,14,4,44,36,517,['c'],1,left,['9'],5,133,[0.0130421],11,44,hard,minus,dotcolour,beta,,,59,18,V,R,
623,119,35,14,4,36,44,483,['n'],1,right,['0'],6,127,[-0.12367335],97,44,hard,minus,dotcolour,beta,,,59,18,V,R,
624,120,36,14,4,53,27,667,['c'],1,left,['9'],5,104,[0.09308288],89,53,easy,minus,dotcolour,beta,,,59,18,V,R,
625,121,37,14,4,33,47,516,['n'],1,right,['0'],6,112,[-0.12251716],97,47,medium,minus,dotcolour,beta,,,59,18,V,R,
626,122,38,14,4,36,44,617,['n'],1,right,['0'],6,92,[-0.0469748],38,44,hard,minus,dotcolour,beta,,,59,18,V,R,
627,123,39,14,4,47,33,500,['c'],1,left,['8'],4,158,[0.14375841],98,47,medium,minus,dotcolour,beta,,,59,18,V,R,
628,124,40,14,4,44,36,584,['c'],1,left,['9'],5,41,[0.08436445],93,44,hard,minus,dotcolour,beta,,,59,18,V,R,
629,125,41,14,4,53,27,583,['c'],1,left,['9'],5,105,[0.0269372],17,53,easy,minus,dotcolour,beta,,,59,18,V,R,
630,0,0,15,5,27,53,750,['n'],1,right,['9'],5,143,[-0.04552798],99,53,easy,plus,dotcolour,beta,,,59,18,V,R,
631,1,1,15,5,36,44,734,['n'],1,right,['0'],6,118,[-0.11872744],100,44,hard,plus,dotcolour,beta,,,59,18,V,R,
632,2,2,15,5,33,47,683,['n'],1,right,['0'],6,143,[-0.08032566],100,47,medium,plus,dotcolour,beta,,,59,18,V,R,
633,3,3,15,5,36,44,567,['n'],1,right,['9'],5,140,[-0.03300827],99,44,hard,plus,dotcolour,beta,,,59,18,V,R,
634,4,4,15,5,47,33,650,['c'],1,left,['9'],5,213,[0.06449864],99,47,medium,plus,dotcolour,beta,,,59,18,V,R,
635,5,5,15,5,33,47,801,['n'],1,right,['0'],6,158,[-0.03954898],99,47,medium,plus,dotcolour,beta,,,59,18,V,R,
636,6,6,15,5,47,33,1100,['c'],1,left,['9'],5,149,[0.11629859],100,47,medium,plus,dotcolour,beta,,,59,18,V,R,
637,7,7,15,5,27,53,801,['n'],1,right,['0'],6,120,[-0.12128875],100,53,easy,plus,dotcolour,beta,,,59,18,V,R,
638,8,8,15,5,33,47,567,['n'],1,right,['0'],6,150,[-0.22281436],100,47,medium,plus,dotcolour,beta,,,59,18,V,R,
639,9,9,15,5,47,33,816,['c'],1,left,['8'],4,137,[0.07551842],100,47,medium,plus,dotcolour,beta,,,59,18,V,R,
640,10,10,15,5,44,36,550,['n'],0,left,['0'],6,158,[-0.05040347],99,44,hard,plus,dotcolour,beta,,,59,18,V,R,
641,11,11,15,5,33,47,850,['n'],1,right,['9'],5,135,[-0.04830906],99,47,medium,plus,dotcolour,beta,,,59,18,V,R,
642,12,12,15,5,36,44,566,['n'],1,right,['0'],6,101,[-0.03005007],99,44,hard,plus,dotcolour,beta,,,59,18,V,R,
643,13,13,15,5,27,53,534,['n'],1,right,['0'],6,125,[-0.12465594],100,53,easy,plus,dotcolour,beta,,,59,18,V,R,
644,14,14,15,5,53,27,516,['c'],1,left,['9'],5,132,[0.08494253],100,53,easy,plus,dotcolour,beta,,,59,18,V,R,
645,15,15,15,5,53,27,601,['n'],0,left,['0'],6,217,[-0.0836286],100,53,easy,plus,dotcolour,beta,,,59,18,V,R,
646,16,16,15,5,44,36,618,['n'],0,left,['0'],6,32,[-0.08134308],100,44,hard,plus,dotcolour,beta,,,59,18,V,R,
647,17,17,15,5,27,53,650,['n'],1,right,['0'],6,111,[-0.08832285],100,53,easy,plus,dotcolour,beta,,,59,18,V,R,
648,18,18,15,5,53,27,717,['c'],1,left,['9'],5,103,[0.086855],100,53,easy,plus,dotcolour,beta,,,59,18,V,R,
649,19,19,15,5,47,33,701,['c'],1,left,['9'],5,143,[0.1686359],100,47,medium,plus,dotcolour,beta,,,59,18,V,R,
650,20,20,15,5,44,36,667,['c'],1,left,['9'],5,120,[0.08229888],100,44,hard,plus,dotcolour,beta,,,59,18,V,R,
651,21,21,15,5,44,36,850,['c'],1,left,['1'],1,827,[0.07081392],92,44,hard,plus,dotcolour,beta,,,59,18,V,R,
652,22,22,15,5,44,36,851,['c'],1,left,['9'],5,154,[0.13513146],100,44,hard,plus,dotcolour,beta,,,59,18,V,R,
653,23,23,15,5,27,53,617,['n'],1,right,['0'],6,300,[-0.04646972],97,53,easy,plus,dotcolour,beta,,,59,18,V,R,
654,24,24,15,5,44,36,983,['c'],1,left,['8'],4,178,[0.13708696],100,44,hard,plus,dotcolour,beta,,,59,18,V,R,
655,25,25,15,5,33,47,599,['n'],1,right,['0'],6,84,[-0.08045538],100,47,medium,plus,dotcolour,beta,,,59,18,V,R,
656,26,26,15,5,27,53,551,['n'],1,right,['0'],6,20,[-0.07073505],100,53,easy,plus,dotcolour,beta,,,59,18,V,R,
657,27,27,15,5,47,33,417,['c'],1,left,['9'],5,76,[0.0879688],100,47,medium,plus,dotcolour,beta,,,59,18,V,R,
658,28,28,15,5,36,44,601,['n'],1,right,['0'],6,10,[-0.09279292],100,44,hard,plus,dotcolour,beta,,,59,18,V,R,
659,29,29,15,5,53,27,1050,['c'],1,left,['9'],5,112,[0.06655341],100,53,easy,plus,dotcolour,beta,,,59,18,V,R,
660,30,30,15,5,33,47,766,['n'],1,right,['0'],6,102,[-0.03934066],100,47,medium,plus,dotcolour,beta,,,59,18,V,R,
661,31,31,15,5,33,47,1016,['n'],1,right,['0'],6,1475,[-0.30095964],99,47,medium,plus,dotcolour,beta,,,59,18,V,R,
662,32,32,15,5,53,27,784,['c'],1,left,['9'],5,154,[0.10927603],100,53,easy,plus,dotcolour,beta,,,59,18,V,R,
663,33,33,15,5,53,27,617,['c'],1,left,['9'],5,117,[0.07655611],100,53,easy,plus,dotcolour,beta,,,59,18,V,R,
664,34,34,15,5,36,44,651,['n'],1,right,['0'],6,79,[-0.06206753],100,44,hard,plus,dotcolour,beta,,,59,18,V,R,
665,35,35,15,5,44,36,683,['c'],1,left,['9'],5,82,[0.08409424],100,44,hard,plus,dotcolour,beta,,,59,18,V,R,
666,36,36,15,5,27,53,566,['n'],1,right,['0'],6,73,[-0.05896479],100,53,easy,plus,dotcolour,beta,,,59,18,V,R,
667,37,37,15,5,47,33,734,['c'],1,left,['9'],5,50,[0.0243766],100,47,medium,plus,dotcolour,beta,,,59,18,V,R,
668,38,38,15,5,47,33,750,['c'],1,left,['9'],5,76,[0.08692954],100,47,medium,plus,dotcolour,beta,,,59,18,V,R,
669,39,39,15,5,53,27,633,['c'],1,left,['9'],5,104,[0.13784027],100,53,easy,plus,dotcolour,beta,,,59,18,V,R,
670,40,40,15,5,36,44,600,['n'],1,right,['9'],5,125,[-0.11064954],100,44,hard,plus,dotcolour,beta,,,59,18,V,R,
671,41,41,15,5,36,44,517,['n'],1,right,['0'],6,101,[-0.05753771],100,44,hard,plus,dotcolour,beta,,,59,18,V,R,
672,42,0,16,5,36,44,701,['n'],1,right,['0'],6,199,[-0.09413205],100,44,hard,plus,dotcolour,beta,,,59,18,V,R,
673,43,1,16,5,27,53,534,['n'],1,right,['0'],6,91,[-0.03175171],99,53,easy,plus,dotcolour,beta,,,59,18,V,R,
674,44,2,16,5,27,53,517,['n'],1,right,['0'],6,76,[-0.07786198],100,53,easy,plus,dotcolour,beta,,,59,18,V,R,
675,45,3,16,5,53,27,550,['c'],1,left,['9'],5,108,[0.1266013],100,53,easy,plus,dotcolour,beta,,,59,18,V,R,
676,46,4,16,5,47,33,716,['c'],1,left,['8'],4,123,[0.08303232],100,47,medium,plus,dotcolour,beta,,,59,18,V,R,
677,47,5,16,5,47,33,617,['c'],1,left,['9'],5,95,[0.06771841],100,47,medium,plus,dotcolour,beta,,,59,18,V,R,
678,48,6,16,5,53,27,517,['c'],1,left,['9'],5,104,[0.0952284],100,53,easy,plus,dotcolour,beta,,,59,18,V,R,
679,49,7,16,5,44,36,466,['c'],1,left,['3'],3,666,[0.08940651],96,44,hard,plus,dotcolour,beta,,,59,18,V,R,
680,50,8,16,5,36,44,584,['n'],1,right,['0'],6,34,[-0.07306393],100,44,hard,plus,dotcolour,beta,,,59,18,V,R,
681,51,9,16,5,33,47,684,['n'],1,right,['0'],6,103,[-0.0263403],99,47,medium,plus,dotcolour,beta,,,59,18,V,R,
682,52,10,16,5,33,47,1151,['n'],1,right,['9'],5,22,[-0.0679866],100,47,medium,plus,dotcolour,beta,,,59,18,V,R,
683,53,11,16,5,53,27,650,['c'],1,left,['9'],5,181,[0.07441728],100,53,easy,plus,dotcolour,beta,,,59,18,V,R,
684,54,12,16,5,27,53,633,['n'],1,right,['8'],4,142,[-0.10363131],100,53,easy,plus,dotcolour,beta,,,59,18,V,R,
685,55,13,16,5,44,36,667,['c'],1,left,['9'],5,70,[0.06942477],100,44,hard,plus,dotcolour,beta,,,59,18,V,R,
686,56,14,16,5,47,33,617,['n'],0,left,['0'],6,100,[-0.04204724],100,47,medium,plus,dotcolour,beta,,,59,18,V,R,
687,57,15,16,5,27,53,583,['n'],1,right,['0'],6,74,[-0.06525456],100,53,easy,plus,dotcolour,beta,,,59,18,V,R,
688,58,16,16,5,44,36,500,['c'],1,left,['9'],5,92,[0.0810405],100,44,hard,plus,dotcolour,beta,,,59,18,V,R,
689,59,17,16,5,33,47,550,['n'],1,right,['0'],6,68,[-0.07766658],100,47,medium,plus,dotcolour,beta,,,59,18,V,R,
690,60,18,16,5,44,36,650,['n'],0,left,['9'],5,49,[-0.07498007],100,44,hard,plus,dotcolour,beta,,,59,18,V,R,
691,61,19,16,5,44,36,700,['c'],1,left,['8'],4,108,[0.0639179],100,44,hard,plus,dotcolour,beta,,,59,18,V,R,
692,62,20,16,5,47,33,600,['c'],1,left,['8'],4,112,[0.03398721],99,47,medium,plus,dotcolour,beta,,,59,18,V,R,
693,63,21,16,5,27,53,551,['n'],1,right,['0'],6,79,[-0.08268697],100,53,easy,plus,dotcolour,beta,,,59,18,V,R,
694,64,22,16,5,36,44,633,['n'],1,right,['9'],5,188,[-0.04109897],98,44,hard,plus,dotcolour,beta,,,59,18,V,R,
695,65,23,16,5,44,36,1150,['c'],1,left,['8'],4,104,[0.04676618],100,44,hard,plus,dotcolour,beta,,,59,18,V,R,
696,66,24,16,5,47,33,651,['c'],1,left,['8'],4,107,[0.00861711],97,47,medium,plus,dotcolour,beta,,,59,18,V,R,
697,67,25,16,5,33,47,683,['n'],1,right,['0'],6,92,[-0.13117685],100,47,medium,plus,dotcolour,beta,,,59,18,V,R,
698,68,26,16,5,36,44,817,['n'],1,right,['0'],6,113,[-0.03597144],99,44,hard,plus,dotcolour,beta,,,59,18,V,R,
699,69,27,16,5,53,27,684,['c'],1,left,['8'],4,82,[0.05503628],100,53,easy,plus,dotcolour,beta,,,59,18,V,R,
700,70,28,16,5,33,47,534,['n'],1,right,['0'],6,51,[-0.09199526],100,47,medium,plus,dotcolour,beta,,,59,18,V,R,
701,71,29,16,5,53,27,500,['c'],1,left,['8'],4,70,[0.11362572],100,53,easy,plus,dotcolour,beta,,,59,18,V,R,
702,72,30,16,5,47,33,717,['n'],0,left,['0'],6,784,[0.18698319],6,47,medium,plus,dotcolour,beta,,,59,18,V,R,
703,73,31,16,5,53,27,501,['c'],1,left,['0'],6,150,[0.13110262],100,53,easy,plus,dotcolour,beta,,,59,18,V,R,
704,74,32,16,5,33,47,600,['n'],1,right,['9'],5,146,[-0.09090595],100,47,medium,plus,dotcolour,beta,,,59,18,V,R,
705,75,33,16,5,36,44,600,['n'],1,right,['9'],5,61,[-0.02860106],100,44,hard,plus,dotcolour,beta,,,59,18,V,R,
706,76,34,16,5,44,36,683,['n'],0,left,['9'],5,9,[-0.06158174],100,44,hard,plus,dotcolour,beta,,,59,18,V,R,
707,77,35,16,5,33,47,517,['n'],1,right,['9'],5,684,[-0.20829144],100,47,medium,plus,dotcolour,beta,,,59,18,V,R,
708,78,36,16,5,36,44,500,['n'],1,right,['9'],5,102,[-0.1359016],100,44,hard,plus,dotcolour,beta,,,59,18,V,R,
709,79,37,16,5,36,44,467,['c'],0,right,['8'],4,137,[0.00840344],96,44,hard,plus,dotcolour,beta,,,59,18,V,R,
710,80,38,16,5,47,33,583,['n'],0,left,['9'],5,78,[-0.05766529],100,47,medium,plus,dotcolour,beta,,,59,18,V,R,
711,81,39,16,5,27,53,534,['n'],1,right,['8'],4,39,[-0.0895253],100,53,easy,plus,dotcolour,beta,,,59,18,V,R,
712,82,40,16,5,27,53,600,['n'],1,right,['9'],5,54,[-0.09431035],100,53,easy,plus,dotcolour,beta,,,59,18,V,R,
713,83,41,16,5,53,27,432,['c'],1,left,['9'],5,85,[0.05984003],100,53,easy,plus,dotcolour,beta,,,59,18,V,R,
714,84,0,17,5,33,47,634,['n'],1,right,['9'],5,33,[-0.08324594],100,47,medium,plus,dotcolour,beta,,,59,18,V,R,
715,85,1,17,5,27,53,734,['n'],1,right,['9'],5,52,[-0.09169452],100,53,easy,plus,dotcolour,beta,,,59,18,V,R,
716,86,2,17,5,27,53,534,['n'],1,right,['9'],5,46,[-0.11180667],100,53,easy,plus,dotcolour,beta,,,59,18,V,R,
717,87,3,17,5,53,27,501,['c'],1,left,['9'],5,113,[0.14668711],100,53,easy,plus,dotcolour,beta,,,59,18,V,R,
718,88,4,17,5,44,36,617,['c'],1,left,['0'],6,77,[0.0885789],100,44,hard,plus,dotcolour,beta,,,59,18,V,R,
719,89,5,17,5,33,47,450,['n'],1,right,['0'],6,145,[-0.08127626],100,47,medium,plus,dotcolour,beta,,,59,18,V,R,
720,90,6,17,5,53,27,467,['c'],1,left,['9'],5,106,[0.07163897],100,53,easy,plus,dotcolour,beta,,,59,18,V,R,
721,91,7,17,5,33,47,484,['n'],1,right,['9'],5,52,[-0.07163548],100,47,medium,plus,dotcolour,beta,,,59,18,V,R,
722,92,8,17,5,47,33,517,['n'],0,left,['0'],6,95,[-0.01349967],98,47,medium,plus,dotcolour,beta,,,59,18,V,R,
723,93,9,17,5,44,36,2616,['c'],1,left,['9'],5,228,[0.1043965],100,44,hard,plus,dotcolour,beta,,,59,18,V,R,
724,94,10,17,5,27,53,516,['n'],1,right,['9'],5,239,[-0.17960098],100,53,easy,plus,dotcolour,beta,,,59,18,V,R,
725,95,11,17,5,53,27,600,['c'],1,left,['9'],5,86,[0.10298059],100,53,easy,plus,dotcolour,beta,,,59,18,V,R,
726,96,12,17,5,36,44,699,['n'],1,right,['9'],5,121,[-0.11454224],100,44,hard,plus,dotcolour,beta,,,59,18,V,R,
727,97,13,17,5,44,36,465,['c'],1,left,['8'],4,123,[0.10106988],100,44,hard,plus,dotcolour,beta,,,59,18,V,R,
728,98,14,17,5,53,27,516,['n'],0,left,['8'],4,146,[-0.05473864],99,53,easy,plus,dotcolour,beta,,,59,18,V,R,
729,99,15,17,5,53,27,549,['c'],1,left,['8'],4,63,[0.05528323],100,53,easy,plus,dotcolour,beta,,,59,18,V,R,
730,100,16,17,5,36,44,1000,['n'],1,right,['8'],4,94,[-0.01862207],99,44,hard,plus,dotcolour,beta,,,59,18,V,R,
731,101,17,17,5,36,44,633,['c'],0,right,['9'],5,58,[0.06858981],100,44,hard,plus,dotcolour,beta,,,59,18,V,R,
732,102,18,17,5,47,33,549,['c'],1,left,['8'],4,67,[0.1051649],100,47,medium,plus,dotcolour,beta,,,59,18,V,R,
733,103,19,17,5,44,36,717,['c'],1,left,['8'],4,61,[0.03670903],100,44,hard,plus,dotcolour,beta,,,59,18,V,R,
734,104,20,17,5,36,44,517,['c'],0,right,['9'],5,86,[0.09938843],100,44,hard,plus,dotcolour,beta,,,59,18,V,R,
735,105,21,17,5,47,33,650,['c'],1,left,['0'],6,155,[0.13606643],100,47,medium,plus,dotcolour,beta,,,59,18,V,R,
736,106,22,17,5,33,47,549,['n'],1,right,['0'],6,72,[-0.1086678],100,47,medium,plus,dotcolour,beta,,,59,18,V,R,
737,107,23,17,5,27,53,550,['n'],1,right,['0'],6,113,[-0.00090148],95,53,easy,plus,dotcolour,beta,,,59,18,V,R,
738,108,24,17,5,33,47,583,['n'],1,right,['0'],6,78,[-0.05636428],100,47,medium,plus,dotcolour,beta,,,59,18,V,R,
739,109,25,17,5,27,53,567,['n'],1,right,['0'],6,85,[-0.08698692],100,53,easy,plus,dotcolour,beta,,,59,18,V,R,
740,110,26,17,5,27,53,650,['n'],1,right,['0'],6,65,[-0.07381123],100,53,easy,plus,dotcolour,beta,,,59,18,V,R,
741,111,27,17,5,36,44,500,['n'],1,right,['0'],6,20,[-0.07209089],100,44,hard,plus,dotcolour,beta,,,59,18,V,R,
742,112,28,17,5,44,36,467,['c'],1,left,['9'],5,82,[0.03246022],100,44,hard,plus,dotcolour,beta,,,59,18,V,R,
743,113,29,17,5,33,47,651,['n'],1,right,['9'],5,7,[-0.0523085],100,47,medium,plus,dotcolour,beta,,,59,18,V,R,
744,114,30,17,5,33,47,568,['c'],0,right,['8'],4,745,[-0.05228802],52,47,medium,plus,dotcolour,beta,,,59,18,V,R,
745,115,31,17,5,44,36,734,['c'],1,left,['9'],5,95,[0.10491882],100,44,hard,plus,dotcolour,beta,,,59,18,V,R,
746,116,32,17,5,27,53,633,['n'],1,right,['0'],6,59,[-0.05419836],100,53,easy,plus,dotcolour,beta,,,59,18,V,R,
747,117,33,17,5,44,36,583,['c'],1,left,['9'],5,90,[0.08253417],100,44,hard,plus,dotcolour,beta,,,59,18,V,R,
748,118,34,17,5,36,44,599,['n'],1,right,['0'],6,111,[-0.05646024],100,44,hard,plus,dotcolour,beta,,,59,18,V,R,
749,119,35,17,5,47,33,617,['c'],1,left,['8'],4,76,[0.1031966],100,47,medium,plus,dotcolour,beta,,,59,18,V,R,
750,120,36,17,5,47,33,700,['c'],1,left,['8'],4,94,[0.09216808],100,47,medium,plus,dotcolour,beta,,,59,18,V,R,
751,121,37,17,5,36,44,500,['c'],0,right,['9'],5,95,[0.08284423],100,44,hard,plus,dotcolour,beta,,,59,18,V,R,
752,122,38,17,5,53,27,602,['c'],1,left,['9'],5,84,[0.06169485],100,53,easy,plus,dotcolour,beta,,,59,18,V,R,
753,123,39,17,5,47,33,650,['c'],1,left,['8'],4,129,[0.09186281],100,47,medium,plus,dotcolour,beta,,,59,18,V,R,
754,124,40,17,5,53,27,651,['n'],0,left,['0'],6,98,[-0.06971322],100,53,easy,plus,dotcolour,beta,,,59,18,V,R,
755,125,41,17,5,47,33,766,['n'],0,left,['0'],6,105,[-0.06419827],100,47,medium,plus,dotcolour,beta,,,59,18,V,R,
,,,,,,,,,,,,,,,,,,,,,1,de feedback die we krijgen klopt niet altijd ,59,18,V,R,
,,,,,,,,,,,,,,,,,,,,,2,['f'],59,18,V,R,
,,,,,,,,,,,,,,,,,,,,,3,['f'],59,18,V,R,
,,,,,,,,,,,,,,,,,,,,,5,[],59,18,V,R,
