trial,withinphasetrial,withinblocktrial,block,phase,dotsLeft,dotsRight,rt,resp,cor,cresp,conf_press,cj,RTconf,ev,fb,diff,difflevel,condition,task,manip,questionID,questionResp,sub,age,gender,handedness,
0,0,0,0,0,53,27,1434,['c'],1,left,['8'],4,5879,[0.74157815],94,53,easy,minus,dotcolour,alfa,,,131,20,V,R,
1,1,1,0,0,53,27,2767,['n'],0,left,['3'],3,1516,[0.30064274],10,53,easy,minus,dotcolour,alfa,,,131,20,V,R,
2,2,2,0,0,47,33,2933,['c'],1,left,['3'],3,1851,[0.37225492],92,47,medium,minus,dotcolour,alfa,,,131,20,V,R,
3,3,3,0,0,44,36,3334,['n'],0,left,['8'],4,2788,[-0.2648945],81,44,hard,minus,dotcolour,alfa,,,131,20,V,R,
4,4,4,0,0,53,27,2367,['c'],1,left,['9'],5,2678,[0.32791452],86,53,easy,minus,dotcolour,alfa,,,131,20,V,R,
5,5,5,0,0,33,47,2516,['n'],1,right,['8'],4,1639,[-0.1285854],71,47,medium,minus,dotcolour,alfa,,,131,20,V,R,
6,6,6,0,0,27,53,2033,['n'],1,right,['0'],6,838,[-0.17209099],84,53,easy,minus,dotcolour,alfa,,,131,20,V,R,
7,7,7,0,0,47,33,4000,['c'],1,left,['3'],3,4541,[0.87640894],98,47,medium,minus,dotcolour,alfa,,,131,20,V,R,
8,8,8,0,0,44,36,4200,['n'],0,left,['8'],4,4063,[-0.15622863],67,44,hard,minus,dotcolour,alfa,,,131,20,V,R,
9,9,9,0,0,33,47,1500,['n'],1,right,['9'],5,1440,[-0.23006659],85,47,medium,minus,dotcolour,alfa,,,131,20,V,R,
10,10,10,0,0,27,53,1684,['n'],1,right,['9'],5,892,[-0.40358092],98,53,easy,minus,dotcolour,alfa,,,131,20,V,R,
11,11,11,0,0,36,44,1684,['n'],1,right,['9'],5,678,[-0.14744372],83,44,hard,minus,dotcolour,alfa,,,131,20,V,R,
12,12,12,0,0,44,36,1567,['c'],1,left,['9'],5,1125,[0.04793478],60,44,hard,minus,dotcolour,alfa,,,131,20,V,R,
13,13,13,0,0,33,47,2084,['n'],1,right,['9'],5,830,[-0.15367819],82,47,medium,minus,dotcolour,alfa,,,131,20,V,R,
14,14,14,0,0,47,33,1300,['c'],1,left,['8'],4,1650,[0.13542267],72,47,medium,minus,dotcolour,alfa,,,131,20,V,R,
15,15,15,0,0,53,27,1749,['c'],1,left,['8'],4,1620,[0.42626447],95,53,easy,minus,dotcolour,alfa,,,131,20,V,R,
16,16,16,0,0,53,27,1266,['c'],1,left,['9'],5,1224,[0.1024759],70,53,easy,minus,dotcolour,alfa,,,131,20,V,R,
17,17,17,0,0,33,47,1167,['n'],1,right,['0'],6,570,[-0.14146],84,47,medium,minus,dotcolour,alfa,,,131,20,V,R,
18,18,18,0,0,33,47,1416,['n'],1,right,['9'],5,908,[-0.13619164],78,47,medium,minus,dotcolour,alfa,,,131,20,V,R,
19,19,19,0,0,27,53,19367,['n'],1,right,['9'],5,753,[-0.22586618],91,53,easy,minus,dotcolour,alfa,,,131,20,V,R,
20,20,20,0,0,44,36,1033,['n'],0,left,['9'],5,635,[-0.1384132],83,44,hard,minus,dotcolour,alfa,,,131,20,V,R,
21,21,21,0,0,27,53,916,['n'],1,right,['9'],5,1623,[-0.15067538],74,53,easy,minus,dotcolour,alfa,,,131,20,V,R,
22,22,22,0,0,47,33,5983,['c'],1,left,['3'],3,1366,[-0.01454621],47,47,medium,minus,dotcolour,alfa,,,131,20,V,R,
23,23,23,0,0,36,44,1633,['n'],1,right,['9'],5,727,[-0.27010872],95,44,hard,minus,dotcolour,alfa,,,131,20,V,R,
24,24,24,0,0,36,44,1117,['n'],1,right,['0'],6,767,[-0.08506455],71,44,hard,minus,dotcolour,alfa,,,131,20,V,R,
25,25,25,0,0,27,53,1316,['n'],1,right,['9'],5,717,[-0.21834116],91,53,easy,minus,dotcolour,alfa,,,131,20,V,R,
26,26,26,0,0,33,47,1183,['n'],1,right,['9'],5,651,[-0.14386072],83,47,medium,minus,dotcolour,alfa,,,131,20,V,R,
27,27,27,0,0,27,53,1234,['n'],1,right,['9'],5,496,[-0.24332337],96,53,easy,minus,dotcolour,alfa,,,131,20,V,R,
28,28,28,0,0,47,33,1401,['c'],1,left,['8'],4,1077,[0.23150098],88,47,medium,minus,dotcolour,alfa,,,131,20,V,R,
29,29,29,0,0,36,44,1467,['n'],1,right,['9'],5,817,[-0.16856121],84,44,hard,minus,dotcolour,alfa,,,131,20,V,R,
30,30,30,0,0,36,44,2366,['n'],1,right,['8'],4,916,[-0.09627286],71,44,hard,minus,dotcolour,alfa,,,131,20,V,R,
31,31,31,0,0,47,33,1267,['c'],1,left,['8'],4,1413,[0.03683321],57,47,medium,minus,dotcolour,alfa,,,131,20,V,R,
32,32,32,0,0,27,53,1533,['n'],1,right,['9'],5,784,[-0.14724226],82,53,easy,minus,dotcolour,alfa,,,131,20,V,R,
33,33,33,0,0,47,33,1301,['c'],1,left,['8'],4,1070,[0.06618251],64,47,medium,minus,dotcolour,alfa,,,131,20,V,R,
34,34,34,0,0,53,27,1184,['c'],1,left,['0'],6,748,[0.17415352],86,53,easy,minus,dotcolour,alfa,,,131,20,V,R,
35,35,35,0,0,44,36,1433,['c'],1,left,['8'],4,727,[0.13258483],80,44,hard,minus,dotcolour,alfa,,,131,20,V,R,
36,36,36,0,0,44,36,1300,['c'],1,left,['8'],4,750,[0.10083279],74,44,hard,minus,dotcolour,alfa,,,131,20,V,R,
37,37,37,0,0,36,44,917,['n'],1,right,['9'],5,573,[-0.17214484],89,44,hard,minus,dotcolour,alfa,,,131,20,V,R,
38,38,38,0,0,33,47,1318,['c'],0,right,['8'],4,770,[-0.05825597],35,47,medium,minus,dotcolour,alfa,,,131,20,V,R,
39,39,39,0,0,53,27,934,['c'],1,left,['9'],5,551,[0.08325024],73,53,easy,minus,dotcolour,alfa,,,131,20,V,R,
40,40,40,0,0,44,36,1084,['n'],0,left,['9'],5,583,[0.03221156],41,44,hard,minus,dotcolour,alfa,,,131,20,V,R,
41,41,41,0,0,36,44,1267,['n'],1,right,['0'],6,575,[-0.17218564],89,44,hard,minus,dotcolour,alfa,,,131,20,V,R,
42,42,0,1,0,53,27,1451,['c'],1,left,['9'],5,898,[0.11320884],75,53,easy,minus,dotcolour,alfa,,,131,20,V,R,
43,43,1,1,0,53,27,1400,['c'],1,left,['9'],5,911,[0.35541609],97,53,easy,minus,dotcolour,alfa,,,131,20,V,R,
44,44,2,1,0,33,47,1216,['n'],1,right,['0'],6,531,[-0.1614817],88,47,medium,minus,dotcolour,alfa,,,131,20,V,R,
45,45,3,1,0,27,53,1133,['c'],0,right,['8'],4,498,[0.04035956],63,53,easy,minus,dotcolour,alfa,,,131,20,V,R,
46,46,4,1,0,47,33,851,['n'],0,left,['9'],5,437,[-0.03854537],63,47,medium,minus,dotcolour,alfa,,,131,20,V,R,
47,47,5,1,0,47,33,900,['n'],0,left,['0'],6,537,[-0.02418196],57,47,medium,minus,dotcolour,alfa,,,131,20,V,R,
48,48,6,1,0,44,36,983,['c'],1,left,['8'],4,781,[0.05714834],64,44,hard,minus,dotcolour,alfa,,,131,20,V,R,
49,49,7,1,0,36,44,1182,['n'],1,right,['9'],5,447,[-0.09114876],77,44,hard,minus,dotcolour,alfa,,,131,20,V,R,
50,50,8,1,0,44,36,1283,['c'],1,left,['8'],4,868,[0.16728551],83,44,hard,minus,dotcolour,alfa,,,131,20,V,R,
51,51,9,1,0,36,44,1250,['n'],1,right,['9'],5,360,[-0.06711715],73,44,hard,minus,dotcolour,alfa,,,131,20,V,R,
52,52,10,1,0,33,47,1100,['n'],1,right,['9'],5,471,[-0.11352314],82,47,medium,minus,dotcolour,alfa,,,131,20,V,R,
53,53,11,1,0,33,47,2167,['n'],1,right,['9'],5,526,[-0.14507214],86,47,medium,minus,dotcolour,alfa,,,131,20,V,R,
54,54,12,1,0,33,47,900,['c'],0,right,['8'],4,638,[-0.04599912],37,47,medium,minus,dotcolour,alfa,,,131,20,V,R,
55,55,13,1,0,44,36,1233,['c'],1,left,['9'],5,908,[0.20607761],88,44,hard,minus,dotcolour,alfa,,,131,20,V,R,
56,56,14,1,0,47,33,1683,['c'],1,left,['9'],5,821,[0.16058304],83,47,medium,minus,dotcolour,alfa,,,131,20,V,R,
57,57,15,1,0,27,53,900,['n'],1,right,['9'],5,881,[-0.19618927],87,53,easy,minus,dotcolour,alfa,,,131,20,V,R,
58,58,16,1,0,53,27,950,['c'],1,left,['0'],6,873,[0.29982266],95,53,easy,minus,dotcolour,alfa,,,131,20,V,R,
59,59,17,1,0,33,47,1100,['n'],1,right,['9'],5,523,[-0.1434402],86,47,medium,minus,dotcolour,alfa,,,131,20,V,R,
60,60,18,1,0,33,47,3418,['c'],0,right,['8'],4,1150,[-0.25480675],11,47,medium,minus,dotcolour,alfa,,,131,20,V,R,
61,61,19,1,0,36,44,1617,['n'],1,right,['9'],5,393,[-0.00416439],51,44,hard,minus,dotcolour,alfa,,,131,20,V,R,
62,62,20,1,0,53,27,1284,['c'],1,left,['0'],6,847,[0.37204922],97,53,easy,minus,dotcolour,alfa,,,131,20,V,R,
63,63,21,1,0,47,33,1150,['c'],1,left,['9'],5,928,[0.20200508],87,47,medium,minus,dotcolour,alfa,,,131,20,V,R,
64,64,22,1,0,44,36,1900,['n'],0,left,['0'],6,424,[-0.10828485],82,44,hard,minus,dotcolour,alfa,,,131,20,V,R,
65,65,23,1,0,27,53,1050,['c'],0,right,['2'],2,2191,[-0.39217942],8,53,easy,minus,dotcolour,alfa,,,131,20,V,R,
66,66,24,1,0,44,36,1117,['n'],0,left,['0'],6,242,[-0.10137809],86,44,hard,minus,dotcolour,alfa,,,131,20,V,R,
67,67,25,1,0,27,53,1484,['n'],1,right,['0'],6,278,[-0.11319667],87,53,easy,minus,dotcolour,alfa,,,131,20,V,R,
68,68,26,1,0,27,53,1333,['n'],1,right,['9'],5,479,[-0.15226883],88,53,easy,minus,dotcolour,alfa,,,131,20,V,R,
69,69,27,1,0,36,44,1783,['n'],1,right,['9'],5,566,[-0.01499052],54,44,hard,minus,dotcolour,alfa,,,131,20,V,R,
70,70,28,1,0,27,53,1650,['n'],1,right,['0'],6,390,[-0.18241179],93,53,easy,minus,dotcolour,alfa,,,131,20,V,R,
71,71,29,1,0,47,33,1368,['n'],0,left,['0'],6,265,[-0.04856227],70,47,medium,minus,dotcolour,alfa,,,131,20,V,R,
72,72,30,1,0,36,44,1216,['n'],1,right,['0'],6,303,[-0.11300668],86,44,hard,minus,dotcolour,alfa,,,131,20,V,R,
73,73,31,1,0,33,47,1050,['n'],1,right,['0'],6,402,[-0.09608892],80,47,medium,minus,dotcolour,alfa,,,131,20,V,R,
74,74,32,1,0,36,44,1517,['n'],1,right,['0'],6,215,[-0.05384809],74,44,hard,minus,dotcolour,alfa,,,131,20,V,R,
75,75,33,1,0,36,44,1149,['n'],1,right,['0'],6,354,[-0.18780386],94,44,hard,minus,dotcolour,alfa,,,131,20,V,R,
76,76,34,1,0,53,27,1250,['n'],0,left,['8'],4,1243,[0.25305822],11,53,easy,minus,dotcolour,alfa,,,131,20,V,R,
77,77,35,1,0,44,36,1900,['c'],1,left,['9'],5,846,[0.19033909],87,44,hard,minus,dotcolour,alfa,,,131,20,V,R,
78,78,36,1,0,53,27,934,['c'],1,left,['9'],5,497,[0.14653152],87,53,easy,minus,dotcolour,alfa,,,131,20,V,R,
79,79,37,1,0,27,53,834,['n'],1,right,['0'],6,372,[-0.13409804],88,53,easy,minus,dotcolour,alfa,,,131,20,V,R,
80,80,38,1,0,47,33,884,['c'],1,left,['9'],5,443,[0.08634496],76,47,medium,minus,dotcolour,alfa,,,131,20,V,R,
81,81,39,1,0,44,36,1234,['n'],0,left,['0'],6,321,[-0.04148654],66,44,hard,minus,dotcolour,alfa,,,131,20,V,R,
82,82,40,1,0,53,27,834,['c'],1,left,['0'],6,1132,[-0.01832314],46,53,easy,minus,dotcolour,alfa,,,131,20,V,R,
83,83,41,1,0,47,33,800,['n'],0,left,['8'],4,904,[-0.00534212],51,47,medium,minus,dotcolour,alfa,,,131,20,V,R,
84,84,0,2,0,36,44,2184,['c'],0,right,['9'],5,624,[0.14566838],84,44,hard,minus,dotcolour,alfa,,,131,20,V,R,
85,85,1,2,0,44,36,2183,['n'],0,left,['0'],6,369,[-0.07201829],74,44,hard,minus,dotcolour,alfa,,,131,20,V,R,
86,86,2,2,0,47,33,1583,['c'],1,left,['8'],4,652,[0.2688729],95,47,medium,minus,dotcolour,alfa,,,131,20,V,R,
87,87,3,2,0,33,47,1234,['n'],1,right,['0'],6,378,[-0.19252807],94,47,medium,minus,dotcolour,alfa,,,131,20,V,R,
88,88,4,2,0,44,36,1700,['n'],0,left,['9'],5,584,[0.04845222],36,44,hard,minus,dotcolour,alfa,,,131,20,V,R,
89,89,5,2,0,33,47,1633,['c'],0,right,['9'],5,520,[0.08513436],74,47,medium,minus,dotcolour,alfa,,,131,20,V,R,
90,90,6,2,0,44,36,1267,['c'],1,left,['9'],5,473,[0.10958383],81,44,hard,minus,dotcolour,alfa,,,131,20,V,R,
91,91,7,2,0,44,36,1133,['c'],1,left,['9'],5,387,[0.10678717],82,44,hard,minus,dotcolour,alfa,,,131,20,V,R,
92,92,8,2,0,36,44,967,['n'],1,right,['9'],5,470,[-0.12530225],84,44,hard,minus,dotcolour,alfa,,,131,20,V,R,
93,93,9,2,0,47,33,1701,['c'],1,left,['9'],5,312,[0.18077118],95,47,medium,minus,dotcolour,alfa,,,131,20,V,R,
94,94,10,2,0,33,47,983,['n'],1,right,['9'],5,390,[-0.17943776],93,47,medium,minus,dotcolour,alfa,,,131,20,V,R,
95,95,11,2,0,47,33,783,['c'],1,left,['9'],5,344,[0.03053966],62,47,medium,minus,dotcolour,alfa,,,131,20,V,R,
96,96,12,2,0,33,47,1083,['n'],1,right,['9'],5,440,[-0.12648527],85,47,medium,minus,dotcolour,alfa,,,131,20,V,R,
97,97,13,2,0,47,33,1600,['c'],1,left,['8'],4,728,[0.03168488],58,47,medium,minus,dotcolour,alfa,,,131,20,V,R,
98,98,14,2,0,33,47,768,['n'],1,right,['9'],5,332,[-0.0359554],64,47,medium,minus,dotcolour,alfa,,,131,20,V,R,
99,99,15,2,0,53,27,817,['c'],1,left,['0'],6,640,[0.04208583],62,53,easy,minus,dotcolour,alfa,,,131,20,V,R,
100,100,16,2,0,27,53,800,['n'],1,right,['0'],6,535,[-0.13001827],83,53,easy,minus,dotcolour,alfa,,,131,20,V,R,
101,101,17,2,0,53,27,816,['c'],1,left,['8'],4,627,[0.24685366],94,53,easy,minus,dotcolour,alfa,,,131,20,V,R,
102,102,18,2,0,53,27,1301,['c'],1,left,['8'],4,287,[0.12459918],89,53,easy,minus,dotcolour,alfa,,,131,20,V,R,
103,103,19,2,0,36,44,1850,['n'],1,right,['0'],6,267,[-0.13992209],92,44,hard,minus,dotcolour,alfa,,,131,20,V,R,
104,104,20,2,0,47,33,1017,['c'],1,left,['0'],6,721,[0.1923662],88,47,medium,minus,dotcolour,alfa,,,131,20,V,R,
105,105,21,2,0,44,36,800,['c'],1,left,['9'],5,333,[0.09909688],82,44,hard,minus,dotcolour,alfa,,,131,20,V,R,
106,106,22,2,0,53,27,1034,['c'],1,left,['0'],6,455,[0.15719362],89,53,easy,minus,dotcolour,alfa,,,131,20,V,R,
107,107,23,2,0,53,27,967,['c'],1,left,['0'],6,295,[0.04463675],68,53,easy,minus,dotcolour,alfa,,,131,20,V,R,
108,108,24,2,0,53,27,767,['c'],1,left,['0'],6,534,[0.06015133],68,53,easy,minus,dotcolour,alfa,,,131,20,V,R,
109,109,25,2,0,47,33,883,['c'],1,left,['0'],6,383,[0.07820319],76,47,medium,minus,dotcolour,alfa,,,131,20,V,R,
110,110,26,2,0,33,47,1433,['n'],1,right,['0'],6,495,[-0.04963707],65,47,medium,minus,dotcolour,alfa,,,131,20,V,R,
111,111,27,2,0,44,36,817,['c'],1,left,['8'],4,500,[0.18926187],92,44,hard,minus,dotcolour,alfa,,,131,20,V,R,
112,112,28,2,0,36,44,849,['c'],0,right,['9'],5,584,[-0.01203783],46,44,hard,minus,dotcolour,alfa,,,131,20,V,R,
113,113,29,2,0,27,53,966,['n'],1,right,['0'],6,427,[-0.13766394],87,53,easy,minus,dotcolour,alfa,,,131,20,V,R,
114,114,30,2,0,27,53,1217,['n'],1,right,['0'],6,378,[-0.17472065],93,53,easy,minus,dotcolour,alfa,,,131,20,V,R,
115,115,31,2,0,44,36,1500,['c'],1,left,['8'],4,488,[0.03002826],60,44,hard,minus,dotcolour,alfa,,,131,20,V,R,
116,116,32,2,0,36,44,1100,['c'],0,right,['8'],4,562,[0.06180697],68,44,hard,minus,dotcolour,alfa,,,131,20,V,R,
117,117,33,2,0,33,47,984,['n'],1,right,['0'],6,373,[-0.10258748],82,47,medium,minus,dotcolour,alfa,,,131,20,V,R,
118,118,34,2,0,27,53,1484,['n'],1,right,['0'],6,332,[-0.17340418],94,53,easy,minus,dotcolour,alfa,,,131,20,V,R,
119,119,35,2,0,27,53,917,['n'],1,right,['0'],6,291,[-0.12835504],89,53,easy,minus,dotcolour,alfa,,,131,20,V,R,
120,120,36,2,0,27,53,750,['n'],1,right,['0'],6,250,[-0.05209117],72,53,easy,minus,dotcolour,alfa,,,131,20,V,R,
121,121,37,2,0,36,44,1151,['n'],1,right,['0'],6,220,[-0.00266605],51,44,hard,minus,dotcolour,alfa,,,131,20,V,R,
122,122,38,2,0,47,33,650,['c'],1,left,['8'],4,531,[-0.09321392],24,47,medium,minus,dotcolour,alfa,,,131,20,V,R,
123,123,39,2,0,27,53,734,['n'],1,right,['0'],6,321,[-0.16213123],93,53,easy,minus,dotcolour,alfa,,,131,20,V,R,
124,124,40,2,0,36,44,1533,['c'],0,right,['8'],4,456,[-0.10189319],20,44,hard,minus,dotcolour,alfa,,,131,20,V,R,
125,125,41,2,0,53,27,783,['c'],1,left,['0'],6,695,[0.09325129],73,53,easy,minus,dotcolour,alfa,,,131,20,V,R,
126,0,0,3,1,44,36,3000,['c'],1,left,['3'],3,372,[0.01389593],69,44,hard,plus,dotcolour,alfa,,,131,20,V,R,
127,1,1,3,1,44,36,1500,['n'],0,left,['0'],6,322,[-0.06417465],98,44,hard,plus,dotcolour,alfa,,,131,20,V,R,
128,2,2,3,1,53,27,967,['c'],1,left,['0'],6,839,[0.37863943],100,53,easy,plus,dotcolour,alfa,,,131,20,V,R,
129,3,3,3,1,53,27,1617,['n'],0,left,['0'],6,270,[-0.03899384],94,53,easy,plus,dotcolour,alfa,,,131,20,V,R,
130,4,4,3,1,44,36,784,['c'],1,left,['8'],4,438,[0.00916146],62,44,hard,plus,dotcolour,alfa,,,131,20,V,R,
131,5,5,3,1,27,53,1384,['n'],1,right,['0'],6,582,[-0.12747471],100,53,easy,plus,dotcolour,alfa,,,131,20,V,R,
132,6,6,3,1,27,53,1983,['c'],0,right,['8'],4,576,[0.06101532],95,53,easy,plus,dotcolour,alfa,,,131,20,V,R,
133,7,7,3,1,53,27,950,['c'],1,left,['0'],6,316,[0.14034711],100,53,easy,plus,dotcolour,alfa,,,131,20,V,R,
134,8,8,3,1,53,27,834,['c'],1,left,['0'],6,319,[0.13589879],100,53,easy,plus,dotcolour,alfa,,,131,20,V,R,
135,9,9,3,1,47,33,1467,['c'],1,left,['0'],6,193,[0.05923311],99,47,medium,plus,dotcolour,alfa,,,131,20,V,R,
136,10,10,3,1,33,47,1651,['n'],1,right,['0'],6,305,[-0.03907072],93,47,medium,plus,dotcolour,alfa,,,131,20,V,R,
137,11,11,3,1,53,27,1218,['c'],1,left,['8'],4,597,[0.23403675],100,53,easy,plus,dotcolour,alfa,,,131,20,V,R,
138,12,12,3,1,36,44,1483,['n'],1,right,['8'],4,571,[-0.05008754],92,44,hard,plus,dotcolour,alfa,,,131,20,V,R,
139,13,13,3,1,36,44,1667,['n'],1,right,['9'],5,618,[-0.08252666],98,44,hard,plus,dotcolour,alfa,,,131,20,V,R,
140,14,14,3,1,33,47,1934,['n'],1,right,['0'],6,270,[-0.03349841],91,47,medium,plus,dotcolour,alfa,,,131,20,V,R,
141,15,15,3,1,47,33,883,['c'],1,left,['8'],4,401,[0.21052113],100,47,medium,plus,dotcolour,alfa,,,131,20,V,R,
142,16,16,3,1,53,27,800,['c'],1,left,['0'],6,394,[0.1685704],100,53,easy,plus,dotcolour,alfa,,,131,20,V,R,
143,17,17,3,1,33,47,1567,['n'],1,right,['0'],6,245,[-0.04485259],96,47,medium,plus,dotcolour,alfa,,,131,20,V,R,
144,18,18,3,1,27,53,983,['n'],1,right,['0'],6,237,[-0.1240929],100,53,easy,plus,dotcolour,alfa,,,131,20,V,R,
145,19,19,3,1,36,44,800,['c'],0,right,['9'],5,693,[0.08502879],98,44,hard,plus,dotcolour,alfa,,,131,20,V,R,
146,20,20,3,1,44,36,884,['c'],1,left,['9'],5,471,[0.15435775],100,44,hard,plus,dotcolour,alfa,,,131,20,V,R,
147,21,21,3,1,47,33,1217,['c'],1,left,['9'],5,261,[0.05929512],98,47,medium,plus,dotcolour,alfa,,,131,20,V,R,
148,22,22,3,1,44,36,1334,['n'],0,left,['0'],6,262,[-0.0400564],94,44,hard,plus,dotcolour,alfa,,,131,20,V,R,
149,23,23,3,1,33,47,1017,['c'],0,right,['9'],5,284,[-0.03120259],11,47,medium,plus,dotcolour,alfa,,,131,20,V,R,
150,24,24,3,1,44,36,901,['c'],1,left,['9'],5,958,[0.07123193],93,44,hard,plus,dotcolour,alfa,,,131,20,V,R,
151,25,25,3,1,27,53,1000,['n'],1,right,['0'],6,201,[-0.07784916],100,53,easy,plus,dotcolour,alfa,,,131,20,V,R,
152,26,26,3,1,47,33,850,['c'],1,left,['9'],5,472,[0.17928352],100,47,medium,plus,dotcolour,alfa,,,131,20,V,R,
153,27,27,3,1,47,33,783,['c'],1,left,['0'],6,303,[0.05584662],97,47,medium,plus,dotcolour,alfa,,,131,20,V,R,
154,28,28,3,1,53,27,1117,['n'],0,left,['0'],6,304,[-0.00687362],61,53,easy,plus,dotcolour,alfa,,,131,20,V,R,
155,29,29,3,1,36,44,683,['c'],0,right,['3'],3,2050,[0.1938968],99,44,hard,plus,dotcolour,alfa,,,131,20,V,R,
156,30,30,3,1,44,36,1200,['n'],0,left,['0'],6,480,[-0.0235861],77,44,hard,plus,dotcolour,alfa,,,131,20,V,R,
157,31,31,3,1,36,44,1716,['n'],1,right,['9'],5,682,[-0.14501012],100,44,hard,plus,dotcolour,alfa,,,131,20,V,R,
158,32,32,3,1,33,47,1450,['c'],0,right,['9'],5,518,[0.06001705],95,47,medium,plus,dotcolour,alfa,,,131,20,V,R,
159,33,33,3,1,47,33,2234,['n'],0,left,['9'],5,345,[-0.07014751],99,47,medium,plus,dotcolour,alfa,,,131,20,V,R,
160,34,34,3,1,47,33,784,['c'],1,left,['9'],5,469,[0.02093801],75,47,medium,plus,dotcolour,alfa,,,131,20,V,R,
161,35,35,3,1,27,53,1085,['n'],1,right,['9'],5,280,[-0.11913498],100,53,easy,plus,dotcolour,alfa,,,131,20,V,R,
162,36,36,3,1,36,44,817,['c'],0,right,['9'],5,493,[-0.03023485],18,44,hard,plus,dotcolour,alfa,,,131,20,V,R,
163,37,37,3,1,27,53,1351,['n'],1,right,['9'],5,302,[-0.07777814],99,53,easy,plus,dotcolour,alfa,,,131,20,V,R,
164,38,38,3,1,33,47,1466,['n'],1,right,['0'],6,296,[-0.13267921],100,47,medium,plus,dotcolour,alfa,,,131,20,V,R,
165,39,39,3,1,36,44,850,['c'],0,right,['9'],5,468,[0.01742489],71,44,hard,plus,dotcolour,alfa,,,131,20,V,R,
166,40,40,3,1,33,47,917,['n'],1,right,['0'],6,397,[-0.15340962],100,47,medium,plus,dotcolour,alfa,,,131,20,V,R,
167,41,41,3,1,27,53,850,['n'],1,right,['0'],6,196,[-0.08651219],100,53,easy,plus,dotcolour,alfa,,,131,20,V,R,
168,42,0,4,1,27,53,1317,['n'],1,right,['0'],6,229,[-0.12009462],100,53,easy,plus,dotcolour,alfa,,,131,20,V,R,
169,43,1,4,1,44,36,867,['c'],1,left,['9'],5,386,[0.16503606],100,44,hard,plus,dotcolour,alfa,,,131,20,V,R,
170,44,2,4,1,36,44,850,['n'],1,right,['0'],6,258,[-0.1157351],100,44,hard,plus,dotcolour,alfa,,,131,20,V,R,
171,45,3,4,1,53,27,683,['c'],1,left,['0'],6,270,[0.13562135],100,53,easy,plus,dotcolour,alfa,,,131,20,V,R,
172,46,4,4,1,47,33,650,['c'],1,left,['0'],6,267,[0.17820488],100,47,medium,plus,dotcolour,alfa,,,131,20,V,R,
173,47,5,4,1,27,53,850,['n'],1,right,['0'],6,224,[-0.19995731],100,53,easy,plus,dotcolour,alfa,,,131,20,V,R,
174,48,6,4,1,47,33,883,['c'],1,left,['0'],6,188,[0.12740931],100,47,medium,plus,dotcolour,alfa,,,131,20,V,R,
175,49,7,4,1,36,44,901,['n'],1,right,['0'],6,202,[-0.02967259],92,44,hard,plus,dotcolour,alfa,,,131,20,V,R,
176,50,8,4,1,44,36,850,['c'],1,left,['9'],5,793,[0.17433334],100,44,hard,plus,dotcolour,alfa,,,131,20,V,R,
177,51,9,4,1,36,44,1234,['c'],0,right,['3'],3,1161,[0.1273097],99,44,hard,plus,dotcolour,alfa,,,131,20,V,R,
178,52,10,4,1,33,47,1033,['n'],1,right,['0'],6,330,[-0.10372551],100,47,medium,plus,dotcolour,alfa,,,131,20,V,R,
179,53,11,4,1,44,36,667,['c'],1,left,['0'],6,308,[0.15129859],100,44,hard,plus,dotcolour,alfa,,,131,20,V,R,
180,54,12,4,1,33,47,784,['c'],0,right,['2'],2,1009,[-0.06060247],10,47,medium,plus,dotcolour,alfa,,,131,20,V,R,
181,55,13,4,1,53,27,1633,['c'],1,left,['0'],6,217,[0.0986344],100,53,easy,plus,dotcolour,alfa,,,131,20,V,R,
182,56,14,4,1,53,27,767,['c'],1,left,['0'],6,595,[0.16814756],100,53,easy,plus,dotcolour,alfa,,,131,20,V,R,
183,57,15,4,1,36,44,800,['n'],1,right,['0'],6,244,[-0.03676683],94,44,hard,plus,dotcolour,alfa,,,131,20,V,R,
184,58,16,4,1,47,33,717,['c'],1,left,['0'],6,303,[0.06619504],99,47,medium,plus,dotcolour,alfa,,,131,20,V,R,
185,59,17,4,1,47,33,684,['c'],1,left,['0'],6,185,[0.09976187],100,47,medium,plus,dotcolour,alfa,,,131,20,V,R,
186,60,18,4,1,33,47,867,['n'],1,right,['0'],6,208,[-0.09141179],100,47,medium,plus,dotcolour,alfa,,,131,20,V,R,
187,61,19,4,1,47,33,851,['c'],1,left,['0'],6,183,[-0.0102534],30,47,medium,plus,dotcolour,alfa,,,131,20,V,R,
188,62,20,4,1,33,47,2033,['n'],1,right,['9'],5,296,[-0.1137007],100,47,medium,plus,dotcolour,alfa,,,131,20,V,R,
189,63,21,4,1,53,27,667,['c'],1,left,['0'],6,218,[0.15323783],100,53,easy,plus,dotcolour,alfa,,,131,20,V,R,
190,64,22,4,1,27,53,1250,['n'],1,right,['0'],6,217,[-0.13333126],100,53,easy,plus,dotcolour,alfa,,,131,20,V,R,
191,65,23,4,1,33,47,1801,['n'],1,right,['9'],5,554,[-0.06051935],95,47,medium,plus,dotcolour,alfa,,,131,20,V,R,
192,66,24,4,1,53,27,900,['c'],1,left,['0'],6,297,[0.20045844],100,53,easy,plus,dotcolour,alfa,,,131,20,V,R,
193,67,25,4,1,36,44,917,['c'],0,right,['0'],6,265,[0.03403716],92,44,hard,plus,dotcolour,alfa,,,131,20,V,R,
194,68,26,4,1,36,44,1833,['c'],0,right,['8'],4,238,[0.08559335],100,44,hard,plus,dotcolour,alfa,,,131,20,V,R,
195,69,27,4,1,27,53,884,['n'],1,right,['0'],6,347,[-0.06663247],98,53,easy,plus,dotcolour,alfa,,,131,20,V,R,
196,70,28,4,1,47,33,717,['c'],1,left,['0'],6,426,[0.0615251],97,47,medium,plus,dotcolour,alfa,,,131,20,V,R,
197,71,29,4,1,44,36,1183,['c'],1,left,['9'],5,508,[0.12970212],100,44,hard,plus,dotcolour,alfa,,,131,20,V,R,
198,72,30,4,1,27,53,1067,['n'],1,right,['0'],6,300,[-0.17669335],100,53,easy,plus,dotcolour,alfa,,,131,20,V,R,
199,73,31,4,1,27,53,1184,['n'],1,right,['9'],5,442,[-0.03546347],87,53,easy,plus,dotcolour,alfa,,,131,20,V,R,
200,74,32,4,1,47,33,733,['c'],1,left,['0'],6,229,[0.06723808],99,47,medium,plus,dotcolour,alfa,,,131,20,V,R,
201,75,33,4,1,53,27,634,['c'],1,left,['0'],6,244,[0.07172865],99,53,easy,plus,dotcolour,alfa,,,131,20,V,R,
202,76,34,4,1,36,44,933,['n'],1,right,['9'],5,509,[-0.09110112],99,44,hard,plus,dotcolour,alfa,,,131,20,V,R,
203,77,35,4,1,44,36,933,['n'],0,left,['0'],6,189,[-0.00915447],68,44,hard,plus,dotcolour,alfa,,,131,20,V,R,
204,78,36,4,1,53,27,700,['c'],1,left,['9'],5,292,[0.06208873],98,53,easy,plus,dotcolour,alfa,,,131,20,V,R,
205,79,37,4,1,44,36,634,['c'],1,left,['9'],5,367,[0.19112445],100,44,hard,plus,dotcolour,alfa,,,131,20,V,R,
206,80,38,4,1,44,36,816,['c'],1,left,['0'],6,649,[0.15557599],100,44,hard,plus,dotcolour,alfa,,,131,20,V,R,
207,81,39,4,1,33,47,834,['n'],1,right,['0'],6,255,[-0.05430471],98,47,medium,plus,dotcolour,alfa,,,131,20,V,R,
208,82,40,4,1,33,47,567,['c'],0,right,['9'],5,295,[0.03556581],91,47,medium,plus,dotcolour,alfa,,,131,20,V,R,
209,83,41,4,1,27,53,867,['n'],1,right,['0'],6,210,[-0.12966127],100,53,easy,plus,dotcolour,alfa,,,131,20,V,R,
210,84,0,5,1,44,36,868,['c'],1,left,['9'],5,498,[0.07544759],98,44,hard,plus,dotcolour,alfa,,,131,20,V,R,
211,85,1,5,1,36,44,884,['n'],1,right,['0'],6,196,[-0.09530905],100,44,hard,plus,dotcolour,alfa,,,131,20,V,R,
212,86,2,5,1,36,44,984,['c'],0,right,['0'],6,142,[0.04619832],99,44,hard,plus,dotcolour,alfa,,,131,20,V,R,
213,87,3,5,1,53,27,650,['c'],1,left,['0'],6,167,[0.0569107],99,53,easy,plus,dotcolour,alfa,,,131,20,V,R,
214,88,4,5,1,47,33,450,['c'],1,left,['0'],6,184,[0.17147237],100,47,medium,plus,dotcolour,alfa,,,131,20,V,R,
215,89,5,5,1,47,33,517,['c'],1,left,['0'],6,165,[0.15536339],100,47,medium,plus,dotcolour,alfa,,,131,20,V,R,
216,90,6,5,1,47,33,400,['c'],1,left,['0'],6,192,[0.04669816],98,47,medium,plus,dotcolour,alfa,,,131,20,V,R,
217,91,7,5,1,44,36,516,['c'],1,left,['0'],6,164,[0.07856277],100,44,hard,plus,dotcolour,alfa,,,131,20,V,R,
218,92,8,5,1,53,27,515,['c'],1,left,['0'],6,170,[0.04869271],99,53,easy,plus,dotcolour,alfa,,,131,20,V,R,
219,93,9,5,1,33,47,417,['c'],0,right,['0'],6,180,[0.05152082],99,47,medium,plus,dotcolour,alfa,,,131,20,V,R,
220,94,10,5,1,44,36,550,['c'],1,left,['0'],6,176,[0.08905414],100,44,hard,plus,dotcolour,alfa,,,131,20,V,R,
221,95,11,5,1,33,47,967,['c'],0,right,['0'],6,148,[0.09527331],100,47,medium,plus,dotcolour,alfa,,,131,20,V,R,
222,96,12,5,1,27,53,1650,['n'],1,right,['0'],6,165,[-0.04610571],98,53,easy,plus,dotcolour,alfa,,,131,20,V,R,
223,97,13,5,1,27,53,1000,['n'],1,right,['0'],6,184,[-0.15684839],100,53,easy,plus,dotcolour,alfa,,,131,20,V,R,
224,98,14,5,1,33,47,833,['n'],1,right,['0'],6,129,[-0.0898891],100,47,medium,plus,dotcolour,alfa,,,131,20,V,R,
225,99,15,5,1,33,47,2133,['n'],1,right,['8'],4,431,[-0.06150338],97,47,medium,plus,dotcolour,alfa,,,131,20,V,R,
226,100,16,5,1,53,27,617,['c'],1,left,['0'],6,199,[0.03523624],94,53,easy,plus,dotcolour,alfa,,,131,20,V,R,
227,101,17,5,1,47,33,567,['c'],1,left,['0'],6,145,[0.11415911],100,47,medium,plus,dotcolour,alfa,,,131,20,V,R,
228,102,18,5,1,36,44,717,['c'],0,right,['0'],6,168,[-0.00377376],42,44,hard,plus,dotcolour,alfa,,,131,20,V,R,
229,103,19,5,1,27,53,916,['n'],1,right,['0'],6,222,[-0.13854636],100,53,easy,plus,dotcolour,alfa,,,131,20,V,R,
230,104,20,5,1,36,44,1000,['c'],0,right,['9'],5,807,[-0.02233457],29,44,hard,plus,dotcolour,alfa,,,131,20,V,R,
231,105,21,5,1,36,44,667,['n'],1,right,['9'],5,485,[-0.05975044],96,44,hard,plus,dotcolour,alfa,,,131,20,V,R,
232,106,22,5,1,47,33,684,['c'],1,left,['0'],6,215,[0.10691779],100,47,medium,plus,dotcolour,alfa,,,131,20,V,R,
233,107,23,5,1,27,53,934,['n'],1,right,['0'],6,203,[-0.16302586],100,53,easy,plus,dotcolour,alfa,,,131,20,V,R,
234,108,24,5,1,36,44,1099,['c'],0,right,['9'],5,1297,[-0.11092933],3,44,hard,plus,dotcolour,alfa,,,131,20,V,R,
235,109,25,5,1,47,33,883,['c'],1,left,['0'],6,242,[0.09533171],100,47,medium,plus,dotcolour,alfa,,,131,20,V,R,
236,110,26,5,1,33,47,667,['n'],1,right,['0'],6,215,[-0.00184246],54,47,medium,plus,dotcolour,alfa,,,131,20,V,R,
237,111,27,5,1,53,27,583,['c'],1,left,['0'],6,160,[0.07135255],100,53,easy,plus,dotcolour,alfa,,,131,20,V,R,
238,112,28,5,1,33,47,800,['n'],1,right,['0'],6,275,[-0.08929068],100,47,medium,plus,dotcolour,alfa,,,131,20,V,R,
239,113,29,5,1,53,27,667,['c'],1,left,['0'],6,182,[0.05946922],99,53,easy,plus,dotcolour,alfa,,,131,20,V,R,
240,114,30,5,1,44,36,1501,['n'],0,left,['9'],5,588,[0.01936722],29,44,hard,plus,dotcolour,alfa,,,131,20,V,R,
241,115,31,5,1,53,27,533,['c'],1,left,['0'],6,240,[0.14729708],100,53,easy,plus,dotcolour,alfa,,,131,20,V,R,
242,116,32,5,1,33,47,700,['n'],1,right,['9'],5,419,[-0.14176696],100,47,medium,plus,dotcolour,alfa,,,131,20,V,R,
243,117,33,5,1,27,53,750,['n'],1,right,['0'],6,166,[-0.06840735],100,53,easy,plus,dotcolour,alfa,,,131,20,V,R,
244,118,34,5,1,27,53,1500,['c'],0,right,['0'],6,749,[0.11036413],99,53,easy,plus,dotcolour,alfa,,,131,20,V,R,
245,119,35,5,1,53,27,634,['c'],1,left,['9'],5,367,[0.08969215],100,53,easy,plus,dotcolour,alfa,,,131,20,V,R,
246,120,36,5,1,44,36,700,['c'],1,left,['0'],6,238,[0.06948276],99,44,hard,plus,dotcolour,alfa,,,131,20,V,R,
247,121,37,5,1,44,36,600,['c'],1,left,['0'],6,134,[0.11438336],100,44,hard,plus,dotcolour,alfa,,,131,20,V,R,
248,122,38,5,1,44,36,650,['c'],1,left,['0'],6,136,[0.03499435],97,44,hard,plus,dotcolour,alfa,,,131,20,V,R,
249,123,39,5,1,36,44,533,['c'],0,right,['0'],6,198,[-0.00198308],46,44,hard,plus,dotcolour,alfa,,,131,20,V,R,
250,124,40,5,1,47,33,567,['c'],1,left,['9'],5,297,[0.0643627],99,47,medium,plus,dotcolour,alfa,,,131,20,V,R,
251,125,41,5,1,27,53,800,['c'],0,right,['0'],6,111,[0.05681113],100,53,easy,plus,dotcolour,alfa,,,131,20,V,R,
252,0,0,6,2,53,27,751,['c'],1,left,['0'],6,252,[0.0694],78,53,easy,minus,dotcolour,alfa,,,131,20,V,R,
253,1,1,6,2,44,36,949,['n'],0,left,['0'],6,413,[-0.15222709],89,44,hard,minus,dotcolour,alfa,,,131,20,V,R,
254,2,2,6,2,27,53,867,['c'],0,right,['0'],6,163,[0.0963206],90,53,easy,minus,dotcolour,alfa,,,131,20,V,R,
255,3,3,6,2,27,53,701,['c'],0,right,['0'],6,106,[0.09350448],93,53,easy,minus,dotcolour,alfa,,,131,20,V,R,
256,4,4,6,2,36,44,667,['c'],0,right,['0'],6,164,[0.11566707],93,44,hard,minus,dotcolour,alfa,,,131,20,V,R,
257,5,5,6,2,33,47,617,['c'],0,right,['0'],6,86,[0.05447378],84,47,medium,minus,dotcolour,alfa,,,131,20,V,R,
258,6,6,6,2,33,47,783,['c'],0,right,['0'],6,125,[-0.0464115],23,47,medium,minus,dotcolour,alfa,,,131,20,V,R,
259,7,7,6,2,27,53,834,['n'],1,right,['0'],6,168,[-0.07549568],84,53,easy,minus,dotcolour,alfa,,,131,20,V,R,
260,8,8,6,2,27,53,967,['n'],1,right,['0'],6,300,[-0.06261259],74,53,easy,minus,dotcolour,alfa,,,131,20,V,R,
261,9,9,6,2,44,36,1016,['c'],1,left,['9'],5,457,[0.19111432],93,44,hard,minus,dotcolour,alfa,,,131,20,V,R,
262,10,10,6,2,47,33,867,['c'],1,left,['9'],5,261,[0.11117029],88,47,medium,minus,dotcolour,alfa,,,131,20,V,R,
263,11,11,6,2,36,44,1683,['n'],1,right,['0'],6,240,[-0.07988982],81,44,hard,minus,dotcolour,alfa,,,131,20,V,R,
264,12,12,6,2,44,36,700,['c'],1,left,['9'],5,332,[0.03705497],64,44,hard,minus,dotcolour,alfa,,,131,20,V,R,
265,13,13,6,2,53,27,767,['c'],1,left,['9'],5,233,[0.0402118],68,53,easy,minus,dotcolour,alfa,,,131,20,V,R,
266,14,14,6,2,44,36,717,['c'],1,left,['0'],6,172,[0.17306473],98,44,hard,minus,dotcolour,alfa,,,131,20,V,R,
267,15,15,6,2,47,33,733,['c'],1,left,['0'],6,153,[0.10967045],93,47,medium,minus,dotcolour,alfa,,,131,20,V,R,
268,16,16,6,2,36,44,950,['n'],1,right,['0'],6,167,[-0.07928295],85,44,hard,minus,dotcolour,alfa,,,131,20,V,R,
269,17,17,6,2,44,36,616,['c'],1,left,['9'],5,313,[0.06414806],74,44,hard,minus,dotcolour,alfa,,,131,20,V,R,
270,18,18,6,2,53,27,784,['c'],1,left,['0'],6,166,[0.09164256],88,53,easy,minus,dotcolour,alfa,,,131,20,V,R,
271,19,19,6,2,33,47,650,['n'],1,right,['0'],6,118,[-0.03231412],70,47,medium,minus,dotcolour,alfa,,,131,20,V,R,
272,20,20,6,2,36,44,700,['c'],0,right,['9'],5,263,[0.0582971],74,44,hard,minus,dotcolour,alfa,,,131,20,V,R,
273,21,21,6,2,33,47,817,['n'],1,right,['0'],6,205,[-0.05706641],76,47,medium,minus,dotcolour,alfa,,,131,20,V,R,
274,22,22,6,2,27,53,1334,['n'],1,right,['0'],6,257,[-0.05667841],73,53,easy,minus,dotcolour,alfa,,,131,20,V,R,
275,23,23,6,2,33,47,634,['n'],1,right,['0'],6,198,[-0.03368765],66,47,medium,minus,dotcolour,alfa,,,131,20,V,R,
276,24,24,6,2,47,33,834,['c'],1,left,['9'],5,782,[0.22255701],91,47,medium,minus,dotcolour,alfa,,,131,20,V,R,
277,25,25,6,2,36,44,617,['n'],1,right,['0'],6,264,[-0.09538877],84,44,hard,minus,dotcolour,alfa,,,131,20,V,R,
278,26,26,6,2,53,27,584,['c'],1,left,['9'],5,279,[0.11289026],87,53,easy,minus,dotcolour,alfa,,,131,20,V,R,
279,27,27,6,2,47,33,866,['n'],0,left,['0'],6,187,[-0.0941561],88,47,medium,minus,dotcolour,alfa,,,131,20,V,R,
280,28,28,6,2,47,33,950,['c'],1,left,['9'],5,631,[0.1652795],87,47,medium,minus,dotcolour,alfa,,,131,20,V,R,
281,29,29,6,2,53,27,1050,['c'],1,left,['9'],5,277,[0.1247977],89,53,easy,minus,dotcolour,alfa,,,131,20,V,R,
282,30,30,6,2,36,44,766,['n'],1,right,['9'],5,332,[-0.01893847],57,44,hard,minus,dotcolour,alfa,,,131,20,V,R,
283,31,31,6,2,33,47,1183,['n'],1,right,['0'],6,184,[-0.07055339],81,47,medium,minus,dotcolour,alfa,,,131,20,V,R,
284,32,32,6,2,27,53,517,['n'],1,right,['0'],6,222,[-0.13228226],93,53,easy,minus,dotcolour,alfa,,,131,20,V,R,
285,33,33,6,2,53,27,701,['c'],1,left,['9'],5,290,[0.21882134],97,53,easy,minus,dotcolour,alfa,,,131,20,V,R,
286,34,34,6,2,47,33,634,['n'],0,left,['0'],6,174,[-0.12866496],94,47,medium,minus,dotcolour,alfa,,,131,20,V,R,
287,35,35,6,2,53,27,800,['c'],1,left,['9'],5,248,[0.17852345],96,53,easy,minus,dotcolour,alfa,,,131,20,V,R,
288,36,36,6,2,27,53,667,['n'],1,right,['0'],6,173,[-0.05311436],76,53,easy,minus,dotcolour,alfa,,,131,20,V,R,
289,37,37,6,2,44,36,899,['c'],1,left,['9'],5,395,[0.04279528],65,44,hard,minus,dotcolour,alfa,,,131,20,V,R,
290,38,38,6,2,36,44,850,['n'],1,right,['0'],6,146,[-0.08531692],88,44,hard,minus,dotcolour,alfa,,,131,20,V,R,
291,39,39,6,2,47,33,916,['c'],1,left,['8'],4,297,[0.11170426],86,47,medium,minus,dotcolour,alfa,,,131,20,V,R,
292,40,40,6,2,44,36,734,['c'],1,left,['8'],4,273,[0.09136988],83,44,hard,minus,dotcolour,alfa,,,131,20,V,R,
293,41,41,6,2,33,47,667,['n'],1,right,['0'],6,196,[-0.11294396],91,47,medium,minus,dotcolour,alfa,,,131,20,V,R,
294,42,0,7,2,44,36,1650,['n'],0,left,['0'],6,590,[-0.04977485],64,44,hard,minus,dotcolour,alfa,,,131,20,V,R,
295,43,1,7,2,47,33,635,['n'],0,left,['0'],6,158,[-0.02937179],66,47,medium,minus,dotcolour,alfa,,,131,20,V,R,
296,44,2,7,2,27,53,784,['c'],0,right,['9'],5,321,[-0.00481937],48,53,easy,minus,dotcolour,alfa,,,131,20,V,R,
297,45,3,7,2,36,44,1217,['n'],1,right,['0'],6,181,[-0.09845227],89,44,hard,minus,dotcolour,alfa,,,131,20,V,R,
298,46,4,7,2,27,53,750,['n'],1,right,['0'],6,145,[-0.14387122],97,53,easy,minus,dotcolour,alfa,,,131,20,V,R,
299,47,5,7,2,33,47,634,['n'],1,right,['0'],6,163,[-0.10364868],91,47,medium,minus,dotcolour,alfa,,,131,20,V,R,
300,48,6,7,2,33,47,634,['n'],1,right,['0'],6,116,[-0.03266609],70,47,medium,minus,dotcolour,alfa,,,131,20,V,R,
301,49,7,7,2,44,36,967,['n'],0,left,['0'],6,115,[-0.06761153],86,44,hard,minus,dotcolour,alfa,,,131,20,V,R,
302,50,8,7,2,53,27,667,['c'],1,left,['9'],5,253,[0.08133007],81,53,easy,minus,dotcolour,alfa,,,131,20,V,R,
303,51,9,7,2,27,53,533,['n'],1,right,['0'],6,278,[-0.07664339],79,53,easy,minus,dotcolour,alfa,,,131,20,V,R,
304,52,10,7,2,33,47,648,['n'],1,right,['0'],6,115,[-0.04896666],79,47,medium,minus,dotcolour,alfa,,,131,20,V,R,
305,53,11,7,2,47,33,950,['c'],1,left,['9'],5,161,[0.07705364],85,47,medium,minus,dotcolour,alfa,,,131,20,V,R,
306,54,12,7,2,27,53,550,['n'],1,right,['0'],6,182,[0.00366386],48,53,easy,minus,dotcolour,alfa,,,131,20,V,R,
307,55,13,7,2,36,44,550,['c'],0,right,['0'],6,170,[0.09084744],88,44,hard,minus,dotcolour,alfa,,,131,20,V,R,
308,56,14,7,2,33,47,550,['n'],1,right,['0'],6,150,[-0.03706053],70,47,medium,minus,dotcolour,alfa,,,131,20,V,R,
309,57,15,7,2,33,47,634,['n'],1,right,['0'],6,176,[-0.06324119],80,47,medium,minus,dotcolour,alfa,,,131,20,V,R,
310,58,16,7,2,36,44,417,['n'],1,right,['0'],6,162,[-0.01957529],61,44,hard,minus,dotcolour,alfa,,,131,20,V,R,
311,59,17,7,2,27,53,533,['c'],0,right,['0'],6,167,[0.06116817],79,53,easy,minus,dotcolour,alfa,,,131,20,V,R,
312,60,18,7,2,27,53,450,['n'],1,right,['0'],6,152,[-0.06160429],81,53,easy,minus,dotcolour,alfa,,,131,20,V,R,
313,61,19,7,2,47,33,717,['c'],1,left,['9'],5,279,[0.04923085],70,47,medium,minus,dotcolour,alfa,,,131,20,V,R,
314,62,20,7,2,53,27,767,['c'],1,left,['9'],5,246,[0.1511058],94,53,easy,minus,dotcolour,alfa,,,131,20,V,R,
315,63,21,7,2,33,47,534,['n'],1,right,['0'],6,152,[-0.09604344],90,47,medium,minus,dotcolour,alfa,,,131,20,V,R,
316,64,22,7,2,47,33,567,['n'],0,left,['0'],6,173,[-0.05822238],78,47,medium,minus,dotcolour,alfa,,,131,20,V,R,
317,65,23,7,2,47,33,567,['n'],0,left,['0'],6,232,[-0.03812726],67,47,medium,minus,dotcolour,alfa,,,131,20,V,R,
318,66,24,7,2,47,33,700,['c'],1,left,['9'],5,212,[0.15457545],95,47,medium,minus,dotcolour,alfa,,,131,20,V,R,
319,67,25,7,2,33,47,567,['n'],1,right,['0'],6,174,[0.01592283],41,47,medium,minus,dotcolour,alfa,,,131,20,V,R,
320,68,26,7,2,44,36,516,['n'],0,left,['0'],6,156,[0.00349277],48,44,hard,minus,dotcolour,alfa,,,131,20,V,R,
321,69,27,7,2,36,44,766,['n'],1,right,['0'],6,121,[-0.11321439],95,44,hard,minus,dotcolour,alfa,,,131,20,V,R,
322,70,28,7,2,53,27,434,['n'],0,left,['0'],6,132,[0.00795711],45,53,easy,minus,dotcolour,alfa,,,131,20,V,R,
323,71,29,7,2,44,36,817,['c'],1,left,['9'],5,151,[0.09833234],91,44,hard,minus,dotcolour,alfa,,,131,20,V,R,
324,72,30,7,2,27,53,584,['n'],1,right,['0'],6,99,[-0.1229121],97,53,easy,minus,dotcolour,alfa,,,131,20,V,R,
325,73,31,7,2,44,36,834,['c'],1,left,['8'],4,239,[-0.02701778],38,44,hard,minus,dotcolour,alfa,,,131,20,V,R,
326,74,32,7,2,36,44,634,['n'],1,right,['0'],6,285,[-0.11111281],87,44,hard,minus,dotcolour,alfa,,,131,20,V,R,
327,75,33,7,2,53,27,700,['c'],1,left,['0'],6,344,[0.23621416],97,53,easy,minus,dotcolour,alfa,,,131,20,V,R,
328,76,34,7,2,44,36,650,['n'],0,left,['0'],6,176,[-0.07382051],83,44,hard,minus,dotcolour,alfa,,,131,20,V,R,
329,77,35,7,2,53,27,534,['n'],0,left,['0'],6,109,[-0.04612172],78,53,easy,minus,dotcolour,alfa,,,131,20,V,R,
330,78,36,7,2,36,44,833,['n'],1,right,['0'],6,193,[-0.08877311],86,44,hard,minus,dotcolour,alfa,,,131,20,V,R,
331,79,37,7,2,36,44,566,['n'],1,right,['0'],6,179,[-0.06730812],81,44,hard,minus,dotcolour,alfa,,,131,20,V,R,
332,80,38,7,2,53,27,484,['n'],0,left,['0'],6,138,[-0.07211463],85,53,easy,minus,dotcolour,alfa,,,131,20,V,R,
333,81,39,7,2,53,27,601,['c'],1,left,['0'],6,214,[0.04174555],69,53,easy,minus,dotcolour,alfa,,,131,20,V,R,
334,82,40,7,2,47,33,734,['c'],1,left,['9'],5,345,[0.23577741],97,47,medium,minus,dotcolour,alfa,,,131,20,V,R,
335,83,41,7,2,44,36,883,['c'],1,left,['9'],5,202,[0.15061862],95,44,hard,minus,dotcolour,alfa,,,131,20,V,R,
336,84,0,8,2,53,27,668,['c'],1,left,['9'],5,322,[0.13177694],89,53,easy,minus,dotcolour,alfa,,,131,20,V,R,
337,85,1,8,2,36,44,1284,['n'],1,right,['0'],6,251,[-0.10687052],87,44,hard,minus,dotcolour,alfa,,,131,20,V,R,
338,86,2,8,2,47,33,650,['c'],1,left,['9'],5,208,[0.12598781],92,47,medium,minus,dotcolour,alfa,,,131,20,V,R,
339,87,3,8,2,33,47,933,['n'],1,right,['9'],5,235,[-0.09336763],85,47,medium,minus,dotcolour,alfa,,,131,20,V,R,
340,88,4,8,2,27,53,967,['n'],1,right,['0'],6,157,[0.01008784],44,53,easy,minus,dotcolour,alfa,,,131,20,V,R,
341,89,5,8,2,36,44,1000,['n'],1,right,['0'],6,119,[-0.05804381],82,44,hard,minus,dotcolour,alfa,,,131,20,V,R,
342,90,6,8,2,36,44,1434,['n'],1,right,['9'],5,315,[-0.09048518],81,44,hard,minus,dotcolour,alfa,,,131,20,V,R,
343,91,7,8,2,44,36,667,['c'],1,left,['9'],5,429,[0.00967783],53,44,hard,minus,dotcolour,alfa,,,131,20,V,R,
344,92,8,8,2,27,53,700,['n'],1,right,['0'],6,265,[-0.13389599],91,53,easy,minus,dotcolour,alfa,,,131,20,V,R,
345,93,9,8,2,53,27,733,['c'],1,left,['8'],4,786,[0.05853144],64,53,easy,minus,dotcolour,alfa,,,131,20,V,R,
346,94,10,8,2,33,47,717,['n'],1,right,['0'],6,295,[-0.10034196],84,47,medium,minus,dotcolour,alfa,,,131,20,V,R,
347,95,11,8,2,27,53,617,['n'],1,right,['0'],6,171,[-0.14409428],96,53,easy,minus,dotcolour,alfa,,,131,20,V,R,
348,96,12,8,2,47,33,767,['n'],0,left,['0'],6,160,[-0.05240794],76,47,medium,minus,dotcolour,alfa,,,131,20,V,R,
349,97,13,8,2,36,44,750,['c'],0,right,['9'],5,348,[0.1302602],88,44,hard,minus,dotcolour,alfa,,,131,20,V,R,
350,98,14,8,2,27,53,784,['n'],1,right,['0'],6,152,[-0.05753062],79,53,easy,minus,dotcolour,alfa,,,131,20,V,R,
351,99,15,8,2,53,27,700,['n'],0,left,['0'],6,304,[-0.09816488],83,53,easy,minus,dotcolour,alfa,,,131,20,V,R,
352,100,16,8,2,33,47,733,['n'],1,right,['0'],6,184,[-0.14767756],96,47,medium,minus,dotcolour,alfa,,,131,20,V,R,
353,101,17,8,2,33,47,1250,['n'],1,right,['8'],4,416,[-0.13417703],87,47,medium,minus,dotcolour,alfa,,,131,20,V,R,
354,102,18,8,2,47,33,1033,['c'],1,left,['8'],4,303,[0.16162203],93,47,medium,minus,dotcolour,alfa,,,131,20,V,R,
355,103,19,8,2,44,36,1033,['c'],1,left,['8'],4,291,[0.11720141],88,44,hard,minus,dotcolour,alfa,,,131,20,V,R,
356,104,20,8,2,53,27,750,['c'],1,left,['8'],4,130,[0.06410677],83,53,easy,minus,dotcolour,alfa,,,131,20,V,R,
357,105,21,8,2,33,47,900,['c'],0,right,['8'],4,82,[0.00684831],55,47,medium,minus,dotcolour,alfa,,,131,20,V,R,
358,106,22,8,2,44,36,767,['c'],1,left,['8'],4,234,[0.19151849],97,44,hard,minus,dotcolour,alfa,,,131,20,V,R,
359,107,23,8,2,27,53,1100,['c'],0,right,['0'],6,94,[0.03833195],75,53,easy,minus,dotcolour,alfa,,,131,20,V,R,
360,108,24,8,2,36,44,1117,['c'],0,right,['9'],5,262,[0.06461186],76,44,hard,minus,dotcolour,alfa,,,131,20,V,R,
361,109,25,8,2,36,44,1617,['c'],0,right,['8'],4,213,[0.00883317],54,44,hard,minus,dotcolour,alfa,,,131,20,V,R,
362,110,26,8,2,33,47,750,['n'],1,right,['0'],6,199,[-0.06998115],80,47,medium,minus,dotcolour,alfa,,,131,20,V,R,
363,111,27,8,2,47,33,716,['c'],1,left,['8'],4,300,[0.11986673],88,47,medium,minus,dotcolour,alfa,,,131,20,V,R,
364,112,28,8,2,47,33,1334,['c'],1,left,['8'],4,260,[0.08131524],81,47,medium,minus,dotcolour,alfa,,,131,20,V,R,
365,113,29,8,2,44,36,700,['c'],1,left,['8'],4,119,[0.07591808],88,44,hard,minus,dotcolour,alfa,,,131,20,V,R,
366,114,30,8,2,27,53,934,['c'],0,right,['0'],6,102,[0.04215416],77,53,easy,minus,dotcolour,alfa,,,131,20,V,R,
367,115,31,8,2,47,33,734,['c'],1,left,['8'],4,414,[0.17392533],92,47,medium,minus,dotcolour,alfa,,,131,20,V,R,
368,116,32,8,2,33,47,1534,['n'],1,right,['0'],6,153,[-0.14829401],97,47,medium,minus,dotcolour,alfa,,,131,20,V,R,
369,117,33,8,2,44,36,767,['c'],1,left,['8'],4,734,[0.09223305],72,44,hard,minus,dotcolour,alfa,,,131,20,V,R,
370,118,34,8,2,44,36,834,['c'],1,left,['9'],5,185,[0.15055335],96,44,hard,minus,dotcolour,alfa,,,131,20,V,R,
371,119,35,8,2,53,27,766,['c'],1,left,['9'],5,133,[0.04364804],75,53,easy,minus,dotcolour,alfa,,,131,20,V,R,
372,120,36,8,2,44,36,917,['c'],1,left,['0'],6,515,[0.01436359],54,44,hard,minus,dotcolour,alfa,,,131,20,V,R,
373,121,37,8,2,47,33,650,['c'],1,left,['8'],4,230,[0.13210969],92,47,medium,minus,dotcolour,alfa,,,131,20,V,R,
374,122,38,8,2,27,53,1284,['n'],1,right,['0'],6,171,[-0.14051765],96,53,easy,minus,dotcolour,alfa,,,131,20,V,R,
375,123,39,8,2,36,44,733,['c'],0,right,['9'],5,176,[0.15992324],97,44,hard,minus,dotcolour,alfa,,,131,20,V,R,
376,124,40,8,2,53,27,1134,['c'],1,left,['9'],5,397,[0.19385494],94,53,easy,minus,dotcolour,alfa,,,131,20,V,R,
377,125,41,8,2,53,27,600,['c'],1,left,['9'],5,110,[0.08338813],91,53,easy,minus,dotcolour,alfa,,,131,20,V,R,
378,0,0,9,3,44,36,1185,['n'],0,left,['0'],6,593,[-0.19298314],100,44,hard,plus,dotcolour,alfa,,,131,20,V,R,
379,1,1,9,3,44,36,733,['c'],1,left,['9'],5,293,[-0.00838986],36,44,hard,plus,dotcolour,alfa,,,131,20,V,R,
380,2,2,9,3,53,27,650,['c'],1,left,['9'],5,424,[0.10614596],100,53,easy,plus,dotcolour,alfa,,,131,20,V,R,
381,3,3,9,3,36,44,667,['n'],1,right,['0'],6,206,[-0.09289765],100,44,hard,plus,dotcolour,alfa,,,131,20,V,R,
382,4,4,9,3,47,33,751,['n'],0,left,['0'],6,160,[-0.10745244],100,47,medium,plus,dotcolour,alfa,,,131,20,V,R,
383,5,5,9,3,33,47,634,['n'],1,right,['0'],6,130,[-0.11140507],100,47,medium,plus,dotcolour,alfa,,,131,20,V,R,
384,6,6,9,3,27,53,667,['n'],1,right,['0'],6,123,[-0.12272212],100,53,easy,plus,dotcolour,alfa,,,131,20,V,R,
385,7,7,9,3,33,47,267,['n'],1,right,['0'],6,149,[-0.06403908],100,47,medium,plus,dotcolour,alfa,,,131,20,V,R,
386,8,8,9,3,47,33,317,['n'],0,left,['0'],6,171,[-0.04186746],97,47,medium,plus,dotcolour,alfa,,,131,20,V,R,
387,9,9,9,3,33,47,417,['n'],1,right,['0'],6,149,[-0.05852862],100,47,medium,plus,dotcolour,alfa,,,131,20,V,R,
388,10,10,9,3,47,33,467,['n'],0,left,['0'],6,150,[-0.09403658],100,47,medium,plus,dotcolour,alfa,,,131,20,V,R,
389,11,11,9,3,36,44,333,['n'],1,right,['0'],6,196,[-0.07642123],100,44,hard,plus,dotcolour,alfa,,,131,20,V,R,
390,12,12,9,3,47,33,249,['n'],0,left,['9'],5,219,[-0.03488913],94,47,medium,plus,dotcolour,alfa,,,131,20,V,R,
391,13,13,9,3,27,53,650,['n'],1,right,['0'],6,122,[-0.16402974],100,53,easy,plus,dotcolour,alfa,,,131,20,V,R,
392,14,14,9,3,53,27,500,['n'],0,left,['8'],4,75,[-0.03440986],99,53,easy,plus,dotcolour,alfa,,,131,20,V,R,
393,15,15,9,3,33,47,450,['n'],1,right,['0'],6,111,[-0.07770742],100,47,medium,plus,dotcolour,alfa,,,131,20,V,R,
394,16,16,9,3,27,53,249,['n'],1,right,['9'],5,146,[-0.01321969],78,53,easy,plus,dotcolour,alfa,,,131,20,V,R,
395,17,17,9,3,33,47,142,['n'],1,right,['0'],6,45,[-0.08714385],100,47,medium,plus,dotcolour,alfa,,,131,20,V,R,
396,18,18,9,3,27,53,1100,['n'],1,right,['0'],6,208,[-0.10967542],100,53,easy,plus,dotcolour,alfa,,,131,20,V,R,
397,19,19,9,3,53,27,734,['c'],1,left,['0'],6,211,[0.0725179],100,53,easy,plus,dotcolour,alfa,,,131,20,V,R,
398,20,20,9,3,53,27,549,['c'],1,left,['9'],5,215,[0.05482662],99,53,easy,plus,dotcolour,alfa,,,131,20,V,R,
399,21,21,9,3,47,33,450,['c'],1,left,['0'],6,133,[0.15373185],100,47,medium,plus,dotcolour,alfa,,,131,20,V,R,
400,22,22,9,3,36,44,317,['c'],0,right,['0'],6,28,[0.06190566],100,44,hard,plus,dotcolour,alfa,,,131,20,V,R,
401,23,23,9,3,33,47,284,['c'],0,right,['0'],6,97,[0.0492254],100,47,medium,plus,dotcolour,alfa,,,131,20,V,R,
402,24,24,9,3,27,53,159,['c'],0,right,['0'],6,55,[0.05416083],100,53,easy,plus,dotcolour,alfa,,,131,20,V,R,
403,25,25,9,3,47,33,350,['n'],0,left,['0'],6,295,[-0.08454844],100,47,medium,plus,dotcolour,alfa,,,131,20,V,R,
404,26,26,9,3,33,47,432,['n'],1,right,['0'],6,188,[-0.07617559],100,47,medium,plus,dotcolour,alfa,,,131,20,V,R,
405,27,27,9,3,36,44,233,['n'],1,right,['0'],6,284,[-0.15144445],100,44,hard,plus,dotcolour,alfa,,,131,20,V,R,
406,28,28,9,3,36,44,401,['n'],1,right,['0'],6,122,[-0.11364702],100,44,hard,plus,dotcolour,alfa,,,131,20,V,R,
407,29,29,9,3,53,27,449,['n'],0,left,['0'],6,157,[-0.0297025],94,53,easy,plus,dotcolour,alfa,,,131,20,V,R,
408,30,30,9,3,44,36,400,['c'],1,left,['0'],6,175,[0.05748841],99,44,hard,plus,dotcolour,alfa,,,131,20,V,R,
409,31,31,9,3,44,36,384,['n'],0,left,['8'],4,907,[-0.07116577],94,44,hard,plus,dotcolour,alfa,,,131,20,V,R,
410,32,32,9,3,36,44,1217,['n'],1,right,['0'],6,174,[-0.08981217],100,44,hard,plus,dotcolour,alfa,,,131,20,V,R,
411,33,33,9,3,44,36,667,['c'],1,left,['0'],6,198,[0.1422805],100,44,hard,plus,dotcolour,alfa,,,131,20,V,R,
412,34,34,9,3,53,27,600,['c'],1,left,['0'],6,127,[0.02485142],92,53,easy,plus,dotcolour,alfa,,,131,20,V,R,
413,35,35,9,3,44,36,700,['c'],1,left,['0'],6,119,[0.12388532],100,44,hard,plus,dotcolour,alfa,,,131,20,V,R,
414,36,36,9,3,36,44,567,['c'],0,right,['0'],6,85,[0.06982554],100,44,hard,plus,dotcolour,alfa,,,131,20,V,R,
415,37,37,9,3,27,53,584,['n'],1,right,['0'],6,84,[-0.09565004],100,53,easy,plus,dotcolour,alfa,,,131,20,V,R,
416,38,38,9,3,53,27,500,['c'],1,left,['0'],6,142,[0.03262087],96,53,easy,plus,dotcolour,alfa,,,131,20,V,R,
417,39,39,9,3,44,36,367,['n'],0,left,['0'],6,122,[-0.0425012],99,44,hard,plus,dotcolour,alfa,,,131,20,V,R,
418,40,40,9,3,27,53,717,['n'],1,right,['0'],6,83,[-0.11020737],100,53,easy,plus,dotcolour,alfa,,,131,20,V,R,
419,41,41,9,3,47,33,384,['n'],0,left,['0'],6,113,[-0.07868574],100,47,medium,plus,dotcolour,alfa,,,131,20,V,R,
420,42,0,10,3,36,44,818,['c'],0,right,['0'],6,167,[0.01577559],80,44,hard,plus,dotcolour,alfa,,,131,20,V,R,
421,43,1,10,3,53,27,1049,['c'],1,left,['0'],6,376,[0.14918823],100,53,easy,plus,dotcolour,alfa,,,131,20,V,R,
422,44,2,10,3,33,47,651,['n'],1,right,['0'],6,112,[-0.04327047],99,47,medium,plus,dotcolour,alfa,,,131,20,V,R,
423,45,3,10,3,36,44,633,['c'],0,right,['0'],6,203,[-0.00944768],32,44,hard,plus,dotcolour,alfa,,,131,20,V,R,
424,46,4,10,3,44,36,684,['n'],0,left,['0'],6,457,[0.11294037],0,44,hard,plus,dotcolour,alfa,,,131,20,V,R,
425,47,5,10,3,44,36,1399,['n'],0,left,['0'],6,151,[-0.02525677],91,44,hard,plus,dotcolour,alfa,,,131,20,V,R,
426,48,6,10,3,27,53,684,['n'],1,right,['0'],6,127,[-0.07228396],100,53,easy,plus,dotcolour,alfa,,,131,20,V,R,
427,49,7,10,3,44,36,783,['n'],0,left,['0'],6,484,[0.03275017],16,44,hard,plus,dotcolour,alfa,,,131,20,V,R,
428,50,8,10,3,44,36,1034,['c'],1,left,['0'],6,145,[0.05365816],99,44,hard,plus,dotcolour,alfa,,,131,20,V,R,
429,51,9,10,3,47,33,684,['n'],0,left,['0'],6,169,[-0.07274063],100,47,medium,plus,dotcolour,alfa,,,131,20,V,R,
430,52,10,10,3,33,47,600,['n'],1,right,['0'],6,83,[0.00152225],45,47,medium,plus,dotcolour,alfa,,,131,20,V,R,
431,53,11,10,3,36,44,717,['c'],0,right,['0'],6,117,[0.11735923],100,44,hard,plus,dotcolour,alfa,,,131,20,V,R,
432,54,12,10,3,44,36,3183,['n'],0,left,['0'],6,90,[-0.07750901],100,44,hard,plus,dotcolour,alfa,,,131,20,V,R,
433,55,13,10,3,27,53,517,['n'],1,right,['0'],6,131,[-0.10446733],100,53,easy,plus,dotcolour,alfa,,,131,20,V,R,
434,56,14,10,3,53,27,833,['c'],1,left,['0'],6,277,[0.17473716],100,53,easy,plus,dotcolour,alfa,,,131,20,V,R,
435,57,15,10,3,27,53,433,['n'],1,right,['0'],6,283,[-0.21749174],100,53,easy,plus,dotcolour,alfa,,,131,20,V,R,
436,58,16,10,3,33,47,484,['n'],1,right,['0'],6,133,[-0.09821743],100,47,medium,plus,dotcolour,alfa,,,131,20,V,R,
437,59,17,10,3,53,27,650,['c'],1,left,['0'],6,247,[0.06816377],99,53,easy,plus,dotcolour,alfa,,,131,20,V,R,
438,60,18,10,3,53,27,384,['n'],0,left,['0'],6,135,[-0.01982129],87,53,easy,plus,dotcolour,alfa,,,131,20,V,R,
439,61,19,10,3,33,47,300,['c'],0,right,['0'],6,135,[0.07419755],100,47,medium,plus,dotcolour,alfa,,,131,20,V,R,
440,62,20,10,3,44,36,300,['n'],0,left,['0'],6,79,[-0.08379951],100,44,hard,plus,dotcolour,alfa,,,131,20,V,R,
441,63,21,10,3,47,33,334,['c'],1,left,['0'],6,432,[0.07570072],98,47,medium,plus,dotcolour,alfa,,,131,20,V,R,
442,64,22,10,3,36,44,517,['n'],1,right,['0'],6,259,[-0.11093584],100,44,hard,plus,dotcolour,alfa,,,131,20,V,R,
443,65,23,10,3,44,36,385,['n'],0,left,['0'],6,123,[-0.07816057],100,44,hard,plus,dotcolour,alfa,,,131,20,V,R,
444,66,24,10,3,47,33,383,['n'],0,left,['0'],6,104,[-0.08449753],100,47,medium,plus,dotcolour,alfa,,,131,20,V,R,
445,67,25,10,3,27,53,684,['n'],1,right,['0'],6,154,[-0.10374915],100,53,easy,plus,dotcolour,alfa,,,131,20,V,R,
446,68,26,10,3,53,27,450,['c'],1,left,['0'],6,187,[0.11192752],100,53,easy,plus,dotcolour,alfa,,,131,20,V,R,
447,69,27,10,3,27,53,900,['n'],1,right,['0'],6,105,[-0.09684711],100,53,easy,plus,dotcolour,alfa,,,131,20,V,R,
448,70,28,10,3,47,33,583,['c'],1,left,['0'],6,144,[0.16143335],100,47,medium,plus,dotcolour,alfa,,,131,20,V,R,
449,71,29,10,3,33,47,749,['n'],1,right,['0'],6,61,[-0.10479743],100,47,medium,plus,dotcolour,alfa,,,131,20,V,R,
450,72,30,10,3,53,27,450,['c'],1,left,['0'],6,153,[0.05247535],99,53,easy,plus,dotcolour,alfa,,,131,20,V,R,
451,73,31,10,3,36,44,583,['n'],1,right,['0'],6,69,[-0.09144384],100,44,hard,plus,dotcolour,alfa,,,131,20,V,R,
452,74,32,10,3,47,33,599,['n'],0,left,['0'],6,91,[-0.0568574],100,47,medium,plus,dotcolour,alfa,,,131,20,V,R,
453,75,33,10,3,33,47,467,['n'],1,right,['0'],6,127,[-0.04288899],99,47,medium,plus,dotcolour,alfa,,,131,20,V,R,
454,76,34,10,3,47,33,750,['n'],0,left,['0'],6,101,[-0.03947571],99,47,medium,plus,dotcolour,alfa,,,131,20,V,R,
455,77,35,10,3,36,44,450,['n'],1,right,['0'],6,80,[-0.03303048],99,44,hard,plus,dotcolour,alfa,,,131,20,V,R,
456,78,36,10,3,53,27,517,['n'],0,left,['0'],6,105,[-0.08411095],100,53,easy,plus,dotcolour,alfa,,,131,20,V,R,
457,79,37,10,3,47,33,1267,['n'],0,left,['0'],6,1340,[0.02581105],31,47,medium,plus,dotcolour,alfa,,,131,20,V,R,
458,80,38,10,3,33,47,801,['c'],0,right,['0'],6,248,[0.04569665],96,47,medium,plus,dotcolour,alfa,,,131,20,V,R,
459,81,39,10,3,27,53,617,['n'],1,right,['0'],6,62,[-0.10310653],100,53,easy,plus,dotcolour,alfa,,,131,20,V,R,
460,82,40,10,3,27,53,884,['n'],1,right,['0'],6,73,[-0.0853156],100,53,easy,plus,dotcolour,alfa,,,131,20,V,R,
461,83,41,10,3,36,44,534,['n'],1,right,['0'],6,67,[-0.05327015],100,44,hard,plus,dotcolour,alfa,,,131,20,V,R,
462,84,0,11,3,44,36,835,['c'],1,left,['0'],6,235,[0.04588405],97,44,hard,plus,dotcolour,alfa,,,131,20,V,R,
463,85,1,11,3,27,53,683,['n'],1,right,['0'],6,696,[-0.18488079],100,53,easy,plus,dotcolour,alfa,,,131,20,V,R,
464,86,2,11,3,33,47,367,['n'],1,right,['0'],6,71,[-0.14730934],100,47,medium,plus,dotcolour,alfa,,,131,20,V,R,
465,87,3,11,3,27,53,767,['c'],0,right,['9'],5,279,[0.03325912],91,53,easy,plus,dotcolour,alfa,,,131,20,V,R,
466,88,4,11,3,27,53,500,['n'],1,right,['0'],6,129,[-0.0785126],100,53,easy,plus,dotcolour,alfa,,,131,20,V,R,
467,89,5,11,3,33,47,500,['n'],1,right,['0'],6,17,[-0.06017583],100,47,medium,plus,dotcolour,alfa,,,131,20,V,R,
468,90,6,11,3,44,36,434,['n'],0,left,['0'],6,64,[-0.06746117],100,44,hard,plus,dotcolour,alfa,,,131,20,V,R,
469,91,7,11,3,47,33,551,['c'],1,left,['9'],5,281,[0.12802952],100,47,medium,plus,dotcolour,alfa,,,131,20,V,R,
470,92,8,11,3,27,53,584,['n'],1,right,['0'],6,104,[-0.07076147],100,53,easy,plus,dotcolour,alfa,,,131,20,V,R,
471,93,9,11,3,53,27,518,['c'],1,left,['0'],6,152,[0.02892928],94,53,easy,plus,dotcolour,alfa,,,131,20,V,R,
472,94,10,11,3,47,33,450,['n'],0,left,['0'],6,938,[-0.09869597],98,47,medium,plus,dotcolour,alfa,,,131,20,V,R,
473,95,11,11,3,27,53,550,['n'],1,right,['0'],6,111,[-0.0584942],100,53,easy,plus,dotcolour,alfa,,,131,20,V,R,
474,96,12,11,3,47,33,534,['c'],1,left,['9'],5,246,[-0.01074755],31,47,medium,plus,dotcolour,alfa,,,131,20,V,R,
475,97,13,11,3,47,33,666,['n'],0,left,['0'],6,67,[-0.06538647],100,47,medium,plus,dotcolour,alfa,,,131,20,V,R,
476,98,14,11,3,33,47,667,['n'],1,right,['9'],5,207,[-0.15512827],100,47,medium,plus,dotcolour,alfa,,,131,20,V,R,
477,99,15,11,3,44,36,1467,['n'],0,left,['0'],6,261,[-0.05972181],99,44,hard,plus,dotcolour,alfa,,,131,20,V,R,
478,100,16,11,3,36,44,617,['c'],0,right,['0'],6,211,[0.19042967],100,44,hard,plus,dotcolour,alfa,,,131,20,V,R,
479,101,17,11,3,36,44,399,['n'],1,right,['0'],6,61,[-0.10403029],100,44,hard,plus,dotcolour,alfa,,,131,20,V,R,
480,102,18,11,3,36,44,433,['n'],1,right,['0'],6,113,[-0.09743687],100,44,hard,plus,dotcolour,alfa,,,131,20,V,R,
481,103,19,11,3,53,27,483,['n'],0,left,['0'],6,107,[-0.14033022],100,53,easy,plus,dotcolour,alfa,,,131,20,V,R,
482,104,20,11,3,53,27,550,['c'],1,left,['0'],6,321,[0.24015847],100,53,easy,plus,dotcolour,alfa,,,131,20,V,R,
483,105,21,11,3,27,53,433,['n'],1,right,['0'],6,68,[-0.05873688],100,53,easy,plus,dotcolour,alfa,,,131,20,V,R,
484,106,22,11,3,53,27,650,['c'],1,left,['0'],6,265,[0.00850226],64,53,easy,plus,dotcolour,alfa,,,131,20,V,R,
485,107,23,11,3,44,36,817,['c'],1,left,['9'],5,623,[0.19180777],100,44,hard,plus,dotcolour,alfa,,,131,20,V,R,
486,108,24,11,3,47,33,799,['c'],1,left,['0'],6,263,[0.05442928],98,47,medium,plus,dotcolour,alfa,,,131,20,V,R,
487,109,25,11,3,44,36,717,['n'],0,left,['0'],6,144,[-0.0120769],76,44,hard,plus,dotcolour,alfa,,,131,20,V,R,
488,110,26,11,3,33,47,600,['c'],0,right,['9'],5,180,[0.10670394],100,47,medium,plus,dotcolour,alfa,,,131,20,V,R,
489,111,27,11,3,27,53,534,['n'],1,right,['0'],6,81,[-0.07422695],100,53,easy,plus,dotcolour,alfa,,,131,20,V,R,
490,112,28,11,3,47,33,650,['c'],1,left,['9'],5,253,[0.14924934],100,47,medium,plus,dotcolour,alfa,,,131,20,V,R,
491,113,29,11,3,53,27,600,['c'],1,left,['9'],5,180,[0.08703931],100,53,easy,plus,dotcolour,alfa,,,131,20,V,R,
492,114,30,11,3,33,47,600,['n'],1,right,['0'],6,62,[-0.02381425],97,47,medium,plus,dotcolour,alfa,,,131,20,V,R,
493,115,31,11,3,53,27,684,['c'],1,left,['9'],5,201,[0.13325036],100,53,easy,plus,dotcolour,alfa,,,131,20,V,R,
494,116,32,11,3,33,47,567,['n'],1,right,['0'],6,76,[-0.06468062],100,47,medium,plus,dotcolour,alfa,,,131,20,V,R,
495,117,33,11,3,36,44,550,['n'],1,right,['0'],6,4,[-0.07461783],100,44,hard,plus,dotcolour,alfa,,,131,20,V,R,
496,118,34,11,3,44,36,717,['c'],1,left,['9'],5,265,[0.07564012],99,44,hard,plus,dotcolour,alfa,,,131,20,V,R,
497,119,35,11,3,36,44,601,['n'],1,right,['0'],6,96,[-0.0847532],100,44,hard,plus,dotcolour,alfa,,,131,20,V,R,
498,120,36,11,3,53,27,600,['c'],1,left,['0'],6,181,[0.10525856],100,53,easy,plus,dotcolour,alfa,,,131,20,V,R,
499,121,37,11,3,36,44,400,['n'],1,right,['0'],6,79,[-0.06639544],100,44,hard,plus,dotcolour,alfa,,,131,20,V,R,
500,122,38,11,3,33,47,683,['n'],1,right,['0'],6,106,[-0.06519652],100,47,medium,plus,dotcolour,alfa,,,131,20,V,R,
501,123,39,11,3,36,44,550,['c'],0,right,['9'],5,185,[0.07173005],100,44,hard,plus,dotcolour,alfa,,,131,20,V,R,
502,124,40,11,3,47,33,401,['n'],0,left,['9'],5,59,[-0.06948859],100,47,medium,plus,dotcolour,alfa,,,131,20,V,R,
503,125,41,11,3,44,36,500,['c'],1,left,['9'],5,110,[0.13081698],100,44,hard,plus,dotcolour,alfa,,,131,20,V,R,
504,0,0,12,4,44,36,568,['c'],1,left,['9'],5,128,[0.05035356],78,44,hard,minus,dotcolour,alfa,,,131,20,V,R,
505,1,1,12,4,47,33,350,['n'],0,left,['0'],6,62,[-0.06828085],92,47,medium,minus,dotcolour,alfa,,,131,20,V,R,
506,2,2,12,4,47,33,550,['c'],1,left,['0'],6,150,[0.09374969],90,47,medium,minus,dotcolour,alfa,,,131,20,V,R,
507,3,3,12,4,33,47,367,['n'],1,right,['0'],6,83,[-0.07408796],91,47,medium,minus,dotcolour,alfa,,,131,20,V,R,
508,4,4,12,4,33,47,417,['n'],1,right,['0'],6,24,[-0.10148636],100,47,medium,minus,dotcolour,alfa,,,131,20,V,R,
509,5,5,12,4,36,44,1317,['n'],1,right,['0'],6,220,[-0.04529854],70,44,hard,minus,dotcolour,alfa,,,131,20,V,R,
510,6,6,12,4,53,27,517,['n'],0,left,['0'],6,40,[-0.05394529],92,53,easy,minus,dotcolour,alfa,,,131,20,V,R,
511,7,7,12,4,47,33,617,['n'],0,left,['0'],6,86,[-0.04708018],81,47,medium,minus,dotcolour,alfa,,,131,20,V,R,
512,8,8,12,4,53,27,517,['n'],0,left,['0'],6,128,[-0.04882146],77,53,easy,minus,dotcolour,alfa,,,131,20,V,R,
513,9,9,12,4,47,33,616,['c'],1,left,['9'],5,259,[0.13890004],92,47,medium,minus,dotcolour,alfa,,,131,20,V,R,
514,10,10,12,4,53,27,467,['n'],0,left,['2'],2,1831,[0.26895311],14,53,easy,minus,dotcolour,alfa,,,131,20,V,R,
515,11,11,12,4,36,44,634,['c'],0,right,['9'],5,197,[0.10084846],89,44,hard,minus,dotcolour,alfa,,,131,20,V,R,
516,12,12,12,4,53,27,517,['c'],1,left,['0'],6,66,[0.08402897],95,53,easy,minus,dotcolour,alfa,,,131,20,V,R,
517,13,13,12,4,47,33,517,['c'],1,left,['0'],6,108,[0.09004915],92,47,medium,minus,dotcolour,alfa,,,131,20,V,R,
518,14,14,12,4,53,27,500,['c'],1,left,['0'],6,85,[0.03351308],74,53,easy,minus,dotcolour,alfa,,,131,20,V,R,
519,15,15,12,4,53,27,500,['c'],1,left,['0'],6,31,[0.0921606],99,53,easy,minus,dotcolour,alfa,,,131,20,V,R,
520,16,16,12,4,36,44,467,['c'],0,right,['2'],2,100,[0.12412881],97,44,hard,minus,dotcolour,alfa,,,131,20,V,R,
521,17,17,12,4,44,36,517,['c'],1,left,['0'],6,77,[0.04406644],81,44,hard,minus,dotcolour,alfa,,,131,20,V,R,
522,18,18,12,4,27,53,334,['c'],0,right,['0'],6,117,[0.05264657],80,53,easy,minus,dotcolour,alfa,,,131,20,V,R,
523,19,19,12,4,33,47,301,['n'],1,right,['0'],6,102,[-0.11636015],96,47,medium,minus,dotcolour,alfa,,,131,20,V,R,
524,20,20,12,4,33,47,417,['n'],1,right,['0'],6,131,[-0.06199845],82,47,medium,minus,dotcolour,alfa,,,131,20,V,R,
525,21,21,12,4,27,53,250,['n'],1,right,['0'],6,165,[-0.01065014],56,53,easy,minus,dotcolour,alfa,,,131,20,V,R,
526,22,22,12,4,36,44,484,['n'],1,right,['0'],6,132,[-0.11571837],95,44,hard,minus,dotcolour,alfa,,,131,20,V,R,
527,23,23,12,4,36,44,433,['n'],1,right,['9'],5,175,[-0.04355285],72,44,hard,minus,dotcolour,alfa,,,131,20,V,R,
528,24,24,12,4,27,53,416,['n'],1,right,['0'],6,112,[-0.05388071],81,53,easy,minus,dotcolour,alfa,,,131,20,V,R,
529,25,25,12,4,36,44,433,['c'],0,right,['9'],5,835,[0.21012946],89,44,hard,minus,dotcolour,alfa,,,131,20,V,R,
530,26,26,12,4,33,47,250,['n'],1,right,['9'],5,137,[-0.11512182],94,47,medium,minus,dotcolour,alfa,,,131,20,V,R,
531,27,27,12,4,27,53,617,['n'],1,right,['0'],6,52,[-0.11037364],99,53,easy,minus,dotcolour,alfa,,,131,20,V,R,
532,28,28,12,4,47,33,400,['n'],0,left,['9'],5,147,[-0.08095055],87,47,medium,minus,dotcolour,alfa,,,131,20,V,R,
533,29,29,12,4,33,47,650,['n'],1,right,['9'],5,77,[-0.05250525],85,47,medium,minus,dotcolour,alfa,,,131,20,V,R,
534,30,30,12,4,27,53,484,['n'],1,right,['0'],6,143,[-0.05349069],78,53,easy,minus,dotcolour,alfa,,,131,20,V,R,
535,31,31,12,4,47,33,717,['n'],0,left,['9'],5,134,[-0.07331967],86,47,medium,minus,dotcolour,alfa,,,131,20,V,R,
536,32,32,12,4,33,47,172,['c'],0,right,['2'],2,147,[0.04414625],74,47,medium,minus,dotcolour,alfa,,,131,20,V,R,
537,33,33,12,4,44,36,517,['n'],0,left,['9'],5,129,[-0.05881051],81,44,hard,minus,dotcolour,alfa,,,131,20,V,R,
538,34,34,12,4,53,27,250,['c'],1,left,['2'],2,155,[0.02753202],65,53,easy,minus,dotcolour,alfa,,,131,20,V,R,
539,35,35,12,4,44,36,199,['c'],1,left,['9'],5,191,[0.07426811],82,44,hard,minus,dotcolour,alfa,,,131,20,V,R,
540,36,36,12,4,44,36,450,['c'],1,left,['9'],5,190,[0.09918525],89,44,hard,minus,dotcolour,alfa,,,131,20,V,R,
541,37,37,12,4,44,36,217,['n'],0,left,['9'],5,151,[-0.06765652],83,44,hard,minus,dotcolour,alfa,,,131,20,V,R,
542,38,38,12,4,36,44,550,['n'],1,right,['9'],5,124,[-0.06831015],85,44,hard,minus,dotcolour,alfa,,,131,20,V,R,
543,39,39,12,4,44,36,583,['n'],0,left,['9'],5,152,[-0.05766],79,44,hard,minus,dotcolour,alfa,,,131,20,V,R,
544,40,40,12,4,27,53,733,['n'],1,right,['9'],5,174,[-0.08252249],86,53,easy,minus,dotcolour,alfa,,,131,20,V,R,
545,41,41,12,4,27,53,768,['c'],0,right,['9'],5,122,[0.03996096],74,53,easy,minus,dotcolour,alfa,,,131,20,V,R,
546,42,0,13,4,44,36,767,['c'],1,left,['2'],2,136,[0.10045489],92,44,hard,minus,dotcolour,alfa,,,131,20,V,R,
547,43,1,13,4,53,27,517,['c'],1,left,['2'],2,119,[0.09236415],92,53,easy,minus,dotcolour,alfa,,,131,20,V,R,
548,44,2,13,4,53,27,1750,['n'],0,left,['9'],5,174,[-0.0014552],51,53,easy,minus,dotcolour,alfa,,,131,20,V,R,
549,45,3,13,4,36,44,833,['n'],1,right,['9'],5,247,[-0.10194245],86,44,hard,minus,dotcolour,alfa,,,131,20,V,R,
550,46,4,13,4,44,36,501,['c'],1,left,['2'],2,98,[0.08956603],93,44,hard,minus,dotcolour,alfa,,,131,20,V,R,
551,47,5,13,4,47,33,617,['c'],1,left,['2'],2,175,[-0.01315836],43,47,medium,minus,dotcolour,alfa,,,131,20,V,R,
552,48,6,13,4,44,36,450,['n'],0,left,['9'],5,87,[-0.05864296],86,44,hard,minus,dotcolour,alfa,,,131,20,V,R,
553,49,7,13,4,33,47,400,['n'],1,right,['9'],5,116,[-0.14514834],98,47,medium,minus,dotcolour,alfa,,,131,20,V,R,
554,50,8,13,4,27,53,466,['n'],1,right,['9'],5,103,[-0.02781535],69,53,easy,minus,dotcolour,alfa,,,131,20,V,R,
555,51,9,13,4,53,27,449,['c'],1,left,['2'],2,130,[0.16446902],98,53,easy,minus,dotcolour,alfa,,,131,20,V,R,
556,52,10,13,4,36,44,483,['n'],1,right,['9'],5,99,[-0.1179871],97,44,hard,minus,dotcolour,alfa,,,131,20,V,R,
557,53,11,13,4,33,47,400,['n'],1,right,['9'],5,104,[-0.05932363],84,47,medium,minus,dotcolour,alfa,,,131,20,V,R,
558,54,12,13,4,33,47,583,['n'],1,right,['0'],6,31,[-0.08656683],99,47,medium,minus,dotcolour,alfa,,,131,20,V,R,
559,55,13,13,4,36,44,850,['n'],1,right,['9'],5,1012,[-0.0342277],58,44,hard,minus,dotcolour,alfa,,,131,20,V,R,
560,56,14,13,4,27,53,350,['n'],1,right,['9'],5,431,[-0.21691461],95,53,easy,minus,dotcolour,alfa,,,131,20,V,R,
561,57,15,13,4,44,36,617,['c'],1,left,['2'],2,126,[0.14705998],98,44,hard,minus,dotcolour,alfa,,,131,20,V,R,
562,58,16,13,4,53,27,667,['c'],1,left,['3'],3,95,[0.06565922],87,53,easy,minus,dotcolour,alfa,,,131,20,V,R,
563,59,17,13,4,47,33,448,['n'],0,left,['9'],5,108,[-0.04149964],76,47,medium,minus,dotcolour,alfa,,,131,20,V,R,
564,60,18,13,4,27,53,450,['c'],0,right,['9'],5,334,[0.10185946],83,53,easy,minus,dotcolour,alfa,,,131,20,V,R,
565,61,19,13,4,27,53,534,['c'],0,right,['3'],3,148,[0.00937424],55,53,easy,minus,dotcolour,alfa,,,131,20,V,R,
566,62,20,13,4,27,53,400,['n'],1,right,['9'],5,96,[-0.08428558],92,53,easy,minus,dotcolour,alfa,,,131,20,V,R,
567,63,21,13,4,53,27,383,['n'],0,left,['9'],5,286,[-0.06464976],75,53,easy,minus,dotcolour,alfa,,,131,20,V,R,
568,64,22,13,4,36,44,583,['c'],0,right,['3'],3,108,[0.04969387],80,44,hard,minus,dotcolour,alfa,,,131,20,V,R,
569,65,23,13,4,33,47,450,['n'],1,right,"['9', '0']",5,143,[-0.125352],95,47,medium,minus,dotcolour,alfa,,,131,20,V,R,
570,66,24,13,4,44,36,300,['n'],0,left,['9'],5,150,[-0.04254508],73,44,hard,minus,dotcolour,alfa,,,131,20,V,R,
571,67,25,13,4,27,53,467,['c'],0,right,['3'],3,71,[0.05852956],88,53,easy,minus,dotcolour,alfa,,,131,20,V,R,
572,68,26,13,4,47,33,667,['c'],1,left,['3'],3,123,[0.11190312],95,47,medium,minus,dotcolour,alfa,,,131,20,V,R,
573,69,27,13,4,47,33,483,['c'],1,left,['3'],3,124,[0.10750909],94,47,medium,minus,dotcolour,alfa,,,131,20,V,R,
574,70,28,13,4,47,33,416,['c'],1,left,['3'],3,151,[0.14554647],97,47,medium,minus,dotcolour,alfa,,,131,20,V,R,
575,71,29,13,4,36,44,417,['c'],0,right,['3'],3,138,[0.10589917],93,44,hard,minus,dotcolour,alfa,,,131,20,V,R,
576,72,30,13,4,53,27,550,['c'],1,left,['3'],3,112,[0.08671689],91,53,easy,minus,dotcolour,alfa,,,131,20,V,R,
577,73,31,13,4,36,44,750,['n'],1,right,['0'],6,54,[-0.09396685],97,44,hard,minus,dotcolour,alfa,,,131,20,V,R,
578,74,32,13,4,47,33,334,['n'],0,left,['0'],6,41,[-0.09834678],99,47,medium,minus,dotcolour,alfa,,,131,20,V,R,
579,75,33,13,4,53,27,367,['n'],0,left,['0'],6,105,[-0.05415986],82,53,easy,minus,dotcolour,alfa,,,131,20,V,R,
580,76,34,13,4,27,53,367,['c'],0,right,['3'],3,96,[0.01427833],60,53,easy,minus,dotcolour,alfa,,,131,20,V,R,
581,77,35,13,4,33,47,267,['n'],1,right,['0'],6,106,[-0.08721737],92,47,medium,minus,dotcolour,alfa,,,131,20,V,R,
582,78,36,13,4,36,44,717,['c'],0,right,['3'],3,130,[0.09506298],91,44,hard,minus,dotcolour,alfa,,,131,20,V,R,
583,79,37,13,4,44,36,1084,['c'],1,left,['3'],3,123,[0.06253721],83,44,hard,minus,dotcolour,alfa,,,131,20,V,R,
584,80,38,13,4,44,36,650,['c'],1,left,['3'],3,213,[0.07308741],81,44,hard,minus,dotcolour,alfa,,,131,20,V,R,
585,81,39,13,4,33,47,127,['n'],1,right,['0'],6,23,[-0.07458536],99,47,medium,minus,dotcolour,alfa,,,131,20,V,R,
586,82,40,13,4,47,33,283,['n'],0,left,['9'],5,107,[-0.06913519],87,47,medium,minus,dotcolour,alfa,,,131,20,V,R,
587,83,41,13,4,33,47,350,['n'],1,right,['0'],6,162,[-0.03537664],69,47,medium,minus,dotcolour,alfa,,,131,20,V,R,
588,84,0,14,4,44,36,902,['n'],0,left,['9'],5,120,[-0.0375476],73,44,hard,minus,dotcolour,alfa,,,131,20,V,R,
589,85,1,14,4,36,44,816,['c'],0,right,['3'],3,171,[0.12887109],94,44,hard,minus,dotcolour,alfa,,,131,20,V,R,
590,86,2,14,4,53,27,583,['c'],1,left,['3'],3,135,[0.06702569],84,53,easy,minus,dotcolour,alfa,,,131,20,V,R,
591,87,3,14,4,44,36,717,['c'],1,left,['3'],3,103,[0.02517948],67,44,hard,minus,dotcolour,alfa,,,131,20,V,R,
592,88,4,14,4,27,53,834,['n'],1,right,['0'],6,98,[-0.08951519],93,53,easy,minus,dotcolour,alfa,,,131,20,V,R,
593,89,5,14,4,33,47,417,['n'],1,right,['0'],6,71,[-0.07096833],92,47,medium,minus,dotcolour,alfa,,,131,20,V,R,
594,90,6,14,4,33,47,334,['n'],1,right,['0'],6,40,[-0.11137216],99,47,medium,minus,dotcolour,alfa,,,131,20,V,R,
595,91,7,14,4,53,27,684,['c'],1,left,['3'],3,165,[0.09320955],89,53,easy,minus,dotcolour,alfa,,,131,20,V,R,
596,92,8,14,4,53,27,1250,['n'],0,left,['8'],4,102,[-0.03892488],75,53,easy,minus,dotcolour,alfa,,,131,20,V,R,
597,93,9,14,4,33,47,250,['n'],1,right,['0'],6,41,[-0.04246774],87,47,medium,minus,dotcolour,alfa,,,131,20,V,R,
598,94,10,14,4,53,27,232,['n'],0,left,['0'],6,55,[-0.05426718],89,53,easy,minus,dotcolour,alfa,,,131,20,V,R,
599,95,11,14,4,36,44,283,['n'],1,right,['0'],6,11,[-0.08065556],100,44,hard,minus,dotcolour,alfa,,,131,20,V,R,
600,96,12,14,4,47,33,299,['n'],0,left,['0'],6,48,[-0.07449064],96,47,medium,minus,dotcolour,alfa,,,131,20,V,R,
601,97,13,14,4,36,44,128,['n'],1,right,['0'],6,64,[-0.03695675],79,44,hard,minus,dotcolour,alfa,,,131,20,V,R,
602,98,14,14,4,36,44,1183,['n'],1,right,['0'],6,774,[-0.20523256],89,44,hard,minus,dotcolour,alfa,,,131,20,V,R,
603,99,15,14,4,47,33,334,['n'],0,left,['0'],6,203,[0.02761623],37,47,medium,minus,dotcolour,alfa,,,131,20,V,R,
604,100,16,14,4,44,36,118,['n'],0,left,['0'],6,13,[-0.0746415],100,44,hard,minus,dotcolour,alfa,,,131,20,V,R,
605,101,17,14,4,27,53,283,['n'],1,right,['0'],6,58,[-0.06683204],92,53,easy,minus,dotcolour,alfa,,,131,20,V,R,
606,102,18,14,4,53,27,284,['n'],0,left,['0'],6,125,[-0.12629501],96,53,easy,minus,dotcolour,alfa,,,131,20,V,R,
607,103,19,14,4,27,53,299,['n'],1,right,['0'],6,77,[-0.06972464],91,53,easy,minus,dotcolour,alfa,,,131,20,V,R,
608,104,20,14,4,27,53,181,['n'],1,right,['0'],6,75,[-0.03710439],77,53,easy,minus,dotcolour,alfa,,,131,20,V,R,
609,105,21,14,4,53,27,917,['c'],1,left,['3'],3,100,[0.10545451],95,53,easy,minus,dotcolour,alfa,,,131,20,V,R,
610,106,22,14,4,47,33,450,['c'],1,left,['3'],3,120,[0.09550594],92,47,medium,minus,dotcolour,alfa,,,131,20,V,R,
611,107,23,14,4,27,53,267,['c'],0,right,['3'],3,106,[0.09488264],93,53,easy,minus,dotcolour,alfa,,,131,20,V,R,
612,108,24,14,4,44,36,160,['c'],1,left,['3'],3,102,[0.07542746],89,44,hard,minus,dotcolour,alfa,,,131,20,V,R,
613,109,25,14,4,33,47,284,['c'],0,right,['3'],3,177,[0.04463851],72,47,medium,minus,dotcolour,alfa,,,131,20,V,R,
614,110,26,14,4,47,33,1034,['c'],1,left,['3'],3,305,[0.10732665],85,47,medium,minus,dotcolour,alfa,,,131,20,V,R,
615,111,27,14,4,33,47,175,['n'],1,right,['0'],6,78,[-0.0650882],89,47,medium,minus,dotcolour,alfa,,,131,20,V,R,
616,112,28,14,4,33,47,196,['n'],1,right,['0'],6,133,[-0.08484829],89,47,medium,minus,dotcolour,alfa,,,131,20,V,R,
617,113,29,14,4,33,47,284,['n'],1,right,['0'],6,85,[-0.10585195],96,47,medium,minus,dotcolour,alfa,,,131,20,V,R,
618,114,30,14,4,47,33,284,['n'],0,left,['0'],6,151,[-0.02248645],63,47,medium,minus,dotcolour,alfa,,,131,20,V,R,
619,115,31,14,4,44,36,99,['n'],0,left,['9'],5,83,[-0.06457952],88,44,hard,minus,dotcolour,alfa,,,131,20,V,R,
620,116,32,14,4,53,27,215,['c'],1,left,['3'],3,97,[0.09702414],94,53,easy,minus,dotcolour,alfa,,,131,20,V,R,
621,117,33,14,4,47,33,102,['n'],0,left,['0'],6,62,[-0.04475908],83,47,medium,minus,dotcolour,alfa,,,131,20,V,R,
622,118,34,14,4,36,44,181,['n'],1,right,['0'],6,124,[-0.08675599],90,44,hard,minus,dotcolour,alfa,,,131,20,V,R,
623,119,35,14,4,36,44,333,['n'],1,right,['0'],6,155,[-0.03350651],68,44,hard,minus,dotcolour,alfa,,,131,20,V,R,
624,120,36,14,4,27,53,283,['n'],1,right,['0'],6,131,[-0.09006483],90,53,easy,minus,dotcolour,alfa,,,131,20,V,R,
625,121,37,14,4,47,33,250,['n'],0,left,['0'],6,101,[-0.04429514],78,47,medium,minus,dotcolour,alfa,,,131,20,V,R,
626,122,38,14,4,44,36,266,['n'],0,left,['9'],5,320,[-0.05709911],71,44,hard,minus,dotcolour,alfa,,,131,20,V,R,
627,123,39,14,4,36,44,767,['c'],0,right,['3'],3,125,[0.10364656],93,44,hard,minus,dotcolour,alfa,,,131,20,V,R,
628,124,40,14,4,44,36,300,['n'],0,left,['0'],6,46,[-0.06548636],94,44,hard,minus,dotcolour,alfa,,,131,20,V,R,
629,125,41,14,4,27,53,283,['n'],1,right,['0'],6,73,[-0.11180793],98,53,easy,minus,dotcolour,alfa,,,131,20,V,R,
630,0,0,15,5,53,27,350,['n'],0,left,['0'],6,72,[-0.04903389],100,53,easy,plus,dotcolour,alfa,,,131,20,V,R,
631,1,1,15,5,27,53,216,['n'],1,right,['0'],6,87,[-0.09143548],100,53,easy,plus,dotcolour,alfa,,,131,20,V,R,
632,2,2,15,5,27,53,233,['n'],1,right,['0'],6,115,[-0.10379115],100,53,easy,plus,dotcolour,alfa,,,131,20,V,R,
633,3,3,15,5,27,53,234,['n'],1,right,['0'],6,110,[-0.09682981],100,53,easy,plus,dotcolour,alfa,,,131,20,V,R,
634,4,4,15,5,53,27,116,['n'],0,left,['0'],6,44,[-0.07618186],100,53,easy,plus,dotcolour,alfa,,,131,20,V,R,
635,5,5,15,5,27,53,115,['n'],1,right,['0'],6,43,[-0.08203119],100,53,easy,plus,dotcolour,alfa,,,131,20,V,R,
636,6,6,15,5,33,47,91,['n'],1,right,['0'],6,98,[-0.11322817],100,47,medium,plus,dotcolour,alfa,,,131,20,V,R,
637,7,7,15,5,27,53,192,['n'],1,right,['0'],6,120,[-0.13073528],100,53,easy,plus,dotcolour,alfa,,,131,20,V,R,
638,8,8,15,5,33,47,216,['n'],1,right,['0'],6,804,[-0.01290701],63,47,medium,plus,dotcolour,alfa,,,131,20,V,R,
639,9,9,15,5,27,53,883,['n'],1,right,['0'],6,216,[-0.0897176],100,53,easy,plus,dotcolour,alfa,,,131,20,V,R,
640,10,10,15,5,47,33,138,['n'],0,left,['0'],6,82,[-0.06200428],100,47,medium,plus,dotcolour,alfa,,,131,20,V,R,
641,11,11,15,5,36,44,300,['n'],1,right,['9'],5,155,[-0.14636596],100,44,hard,plus,dotcolour,alfa,,,131,20,V,R,
642,12,12,15,5,33,47,160,['n'],1,right,['0'],6,166,[-0.01230885],75,47,medium,plus,dotcolour,alfa,,,131,20,V,R,
643,13,13,15,5,33,47,249,['n'],1,right,['0'],6,95,[-0.07423488],100,47,medium,plus,dotcolour,alfa,,,131,20,V,R,
644,14,14,15,5,53,27,267,['n'],0,left,['0'],6,122,[-0.02695129],94,53,easy,plus,dotcolour,alfa,,,131,20,V,R,
645,15,15,15,5,44,36,216,['n'],0,left,['0'],6,150,[-0.11074974],100,44,hard,plus,dotcolour,alfa,,,131,20,V,R,
646,16,16,15,5,33,47,250,['n'],1,right,['0'],6,119,[-0.08774329],100,47,medium,plus,dotcolour,alfa,,,131,20,V,R,
647,17,17,15,5,47,33,189,['n'],0,left,['0'],6,132,[0.03162991],4,47,medium,plus,dotcolour,alfa,,,131,20,V,R,
648,18,18,15,5,44,36,137,['n'],0,left,['0'],6,88,[-0.11419669],100,44,hard,plus,dotcolour,alfa,,,131,20,V,R,
649,19,19,15,5,36,44,233,['n'],1,right,['0'],6,12,[-0.07779635],100,44,hard,plus,dotcolour,alfa,,,131,20,V,R,
650,20,20,15,5,27,53,233,['n'],1,right,['0'],6,140,[-0.08676061],100,53,easy,plus,dotcolour,alfa,,,131,20,V,R,
651,21,21,15,5,47,33,216,['n'],0,left,['0'],6,151,[-0.07729551],100,47,medium,plus,dotcolour,alfa,,,131,20,V,R,
652,22,22,15,5,36,44,351,['n'],1,right,['0'],6,164,[-0.0617342],100,44,hard,plus,dotcolour,alfa,,,131,20,V,R,
653,23,23,15,5,44,36,233,['n'],0,left,['9'],5,157,[-0.07265647],100,44,hard,plus,dotcolour,alfa,,,131,20,V,R,
654,24,24,15,5,36,44,267,['n'],1,right,['0'],6,85,[-0.05988779],100,44,hard,plus,dotcolour,alfa,,,131,20,V,R,
655,25,25,15,5,53,27,249,['n'],0,left,['0'],6,97,[-0.01607627],87,53,easy,plus,dotcolour,alfa,,,131,20,V,R,
656,26,26,15,5,53,27,184,['n'],0,left,['0'],6,87,[-0.08396098],100,53,easy,plus,dotcolour,alfa,,,131,20,V,R,
657,27,27,15,5,47,33,233,['n'],0,left,['0'],6,123,[-0.06352325],100,47,medium,plus,dotcolour,alfa,,,131,20,V,R,
658,28,28,15,5,33,47,299,['n'],1,right,['0'],6,123,[-0.08975417],100,47,medium,plus,dotcolour,alfa,,,131,20,V,R,
659,29,29,15,5,53,27,250,['n'],0,left,['0'],6,61,[-0.06463191],100,53,easy,plus,dotcolour,alfa,,,131,20,V,R,
660,30,30,15,5,36,44,125,['n'],1,right,['0'],6,77,[-0.10151777],100,44,hard,plus,dotcolour,alfa,,,131,20,V,R,
661,31,31,15,5,36,44,233,['n'],1,right,['0'],6,105,[-0.06417478],100,44,hard,plus,dotcolour,alfa,,,131,20,V,R,
662,32,32,15,5,44,36,284,['n'],0,left,['0'],6,115,[-0.01112727],77,44,hard,plus,dotcolour,alfa,,,131,20,V,R,
663,33,33,15,5,44,36,217,['n'],0,left,['0'],6,111,[-0.05132675],100,44,hard,plus,dotcolour,alfa,,,131,20,V,R,
664,34,34,15,5,44,36,300,['n'],0,left,['0'],6,55,[-0.0518404],100,44,hard,plus,dotcolour,alfa,,,131,20,V,R,
665,35,35,15,5,47,33,184,['n'],0,left,['0'],6,47,[-0.04447848],100,47,medium,plus,dotcolour,alfa,,,131,20,V,R,
666,36,36,15,5,36,44,266,['n'],1,right,['0'],6,75,[-0.06711444],100,44,hard,plus,dotcolour,alfa,,,131,20,V,R,
667,37,37,15,5,47,33,266,['n'],0,left,['0'],6,15,[-0.08329334],100,47,medium,plus,dotcolour,alfa,,,131,20,V,R,
668,38,38,15,5,44,36,384,['n'],0,left,['0'],6,48,[-0.04123475],100,44,hard,plus,dotcolour,alfa,,,131,20,V,R,
669,39,39,15,5,47,33,1583,['n'],0,left,['0'],6,256,[-0.05659988],98,47,medium,plus,dotcolour,alfa,,,131,20,V,R,
670,40,40,15,5,33,47,450,['n'],1,right,['0'],6,77,[-0.08410582],100,47,medium,plus,dotcolour,alfa,,,131,20,V,R,
671,41,41,15,5,53,27,500,['n'],0,left,['9'],5,151,[0.03511465],4,53,easy,plus,dotcolour,alfa,,,131,20,V,R,
672,42,0,16,5,53,27,401,['n'],0,left,['0'],6,104,[-0.0423636],99,53,easy,plus,dotcolour,alfa,,,131,20,V,R,
673,43,1,16,5,36,44,234,['n'],1,right,['0'],6,100,[-0.0180761],89,44,hard,plus,dotcolour,alfa,,,131,20,V,R,
674,44,2,16,5,44,36,317,['n'],0,left,['0'],6,134,[-0.02951086],95,44,hard,plus,dotcolour,alfa,,,131,20,V,R,
675,45,3,16,5,36,44,43,['n'],1,right,['0'],6,170,[-0.01248392],75,44,hard,plus,dotcolour,alfa,,,131,20,V,R,
676,46,4,16,5,27,53,266,['n'],1,right,['9'],5,121,[-0.08674255],100,53,easy,plus,dotcolour,alfa,,,131,20,V,R,
677,47,5,16,5,36,44,550,['c'],0,right,['3'],3,120,[0.02209584],91,44,hard,plus,dotcolour,alfa,,,131,20,V,R,
678,48,6,16,5,27,53,1734,['n'],1,right,['9'],5,151,[-0.09912625],100,53,easy,plus,dotcolour,alfa,,,131,20,V,R,
679,49,7,16,5,47,33,850,['c'],1,left,['9'],5,256,[0.13501669],100,47,medium,plus,dotcolour,alfa,,,131,20,V,R,
680,50,8,16,5,44,36,250,['n'],0,left,['9'],5,117,[-0.11248508],100,44,hard,plus,dotcolour,alfa,,,131,20,V,R,
681,51,9,16,5,53,27,300,['n'],0,left,['9'],5,118,[-0.04141069],99,53,easy,plus,dotcolour,alfa,,,131,20,V,R,
682,52,10,16,5,47,33,249,['n'],0,left,['9'],5,136,[-0.12605091],100,47,medium,plus,dotcolour,alfa,,,131,20,V,R,
683,53,11,16,5,47,33,283,['n'],0,left,['9'],5,154,[-0.05878997],100,47,medium,plus,dotcolour,alfa,,,131,20,V,R,
684,54,12,16,5,53,27,668,['n'],0,left,['9'],5,138,[-0.06239374],100,53,easy,plus,dotcolour,alfa,,,131,20,V,R,
685,55,13,16,5,36,44,233,['n'],1,right,['9'],5,140,[-0.03867425],98,44,hard,plus,dotcolour,alfa,,,131,20,V,R,
686,56,14,16,5,44,36,833,['n'],0,left,['9'],5,151,[-0.0781207],100,44,hard,plus,dotcolour,alfa,,,131,20,V,R,
687,57,15,16,5,33,47,901,['n'],1,right,['0'],6,134,[-0.06651068],100,47,medium,plus,dotcolour,alfa,,,131,20,V,R,
688,58,16,16,5,33,47,384,['n'],1,right,['9'],5,155,[-0.08774481],100,47,medium,plus,dotcolour,alfa,,,131,20,V,R,
689,59,17,16,5,53,27,833,['n'],0,left,['9'],5,109,[-0.05811737],100,53,easy,plus,dotcolour,alfa,,,131,20,V,R,
690,60,18,16,5,47,33,162,['n'],0,left,['9'],5,138,[-0.09626798],100,47,medium,plus,dotcolour,alfa,,,131,20,V,R,
691,61,19,16,5,27,53,250,['n'],1,right,['9'],5,139,[-0.10198225],100,53,easy,plus,dotcolour,alfa,,,131,20,V,R,
692,62,20,16,5,47,33,417,['n'],0,left,['9'],5,175,[-0.04756736],98,47,medium,plus,dotcolour,alfa,,,131,20,V,R,
693,63,21,16,5,33,47,216,['n'],1,right,['9'],5,153,[-0.05455435],99,47,medium,plus,dotcolour,alfa,,,131,20,V,R,
694,64,22,16,5,27,53,767,['n'],1,right,['9'],5,141,[-0.13215967],100,53,easy,plus,dotcolour,alfa,,,131,20,V,R,
695,65,23,16,5,33,47,250,['n'],1,right,['9'],5,158,[-0.09143829],100,47,medium,plus,dotcolour,alfa,,,131,20,V,R,
696,66,24,16,5,47,33,366,['n'],0,left,['9'],5,138,[-0.05321139],99,47,medium,plus,dotcolour,alfa,,,131,20,V,R,
697,67,25,16,5,36,44,135,['n'],1,right,['9'],5,63,[-0.06010799],100,44,hard,plus,dotcolour,alfa,,,131,20,V,R,
698,68,26,16,5,36,44,126,['n'],1,right,['9'],5,133,[-0.08692917],100,44,hard,plus,dotcolour,alfa,,,131,20,V,R,
699,69,27,16,5,27,53,233,['n'],1,right,['0'],6,80,[-0.10473124],100,53,easy,plus,dotcolour,alfa,,,131,20,V,R,
700,70,28,16,5,53,27,334,['n'],0,left,['0'],6,72,[-0.03286049],99,53,easy,plus,dotcolour,alfa,,,131,20,V,R,
701,71,29,16,5,53,27,266,['n'],0,left,['9'],5,164,[-0.07122116],100,53,easy,plus,dotcolour,alfa,,,131,20,V,R,
702,72,30,16,5,27,53,417,['n'],1,right,['9'],5,70,[-0.12857855],100,53,easy,plus,dotcolour,alfa,,,131,20,V,R,
703,73,31,16,5,27,53,250,['n'],1,right,['0'],6,75,[-0.14312307],100,53,easy,plus,dotcolour,alfa,,,131,20,V,R,
704,74,32,16,5,44,36,334,['n'],0,left,['9'],5,579,[0.12849667],0,44,hard,plus,dotcolour,alfa,,,131,20,V,R,
705,75,33,16,5,53,27,949,['c'],1,left,['9'],5,320,[0.06030512],98,53,easy,plus,dotcolour,alfa,,,131,20,V,R,
706,76,34,16,5,36,44,450,['c'],0,right,['9'],5,162,[0.04084622],97,44,hard,plus,dotcolour,alfa,,,131,20,V,R,
707,77,35,16,5,33,47,483,['c'],0,right,['9'],5,97,[0.05427349],100,47,medium,plus,dotcolour,alfa,,,131,20,V,R,
708,78,36,16,5,47,33,129,['n'],0,left,['9'],5,95,[-0.04010934],99,47,medium,plus,dotcolour,alfa,,,131,20,V,R,
709,79,37,16,5,33,47,768,['c'],0,right,['9'],5,189,[0.09816796],100,47,medium,plus,dotcolour,alfa,,,131,20,V,R,
710,80,38,16,5,33,47,1217,['n'],1,right,['9'],5,158,[-0.07592787],100,47,medium,plus,dotcolour,alfa,,,131,20,V,R,
711,81,39,16,5,44,36,1450,['n'],0,left,['9'],5,207,[-0.05428357],99,44,hard,plus,dotcolour,alfa,,,131,20,V,R,
712,82,40,16,5,44,36,282,['n'],0,left,['9'],5,125,[-0.02234582],91,44,hard,plus,dotcolour,alfa,,,131,20,V,R,
713,83,41,16,5,44,36,1034,['n'],0,left,['9'],5,127,[-0.02881135],95,44,hard,plus,dotcolour,alfa,,,131,20,V,R,
714,84,0,17,5,27,53,651,['n'],1,right,['9'],5,184,[-0.05881603],99,53,easy,plus,dotcolour,alfa,,,131,20,V,R,
715,85,1,17,5,53,27,2533,['n'],0,left,['9'],5,189,[0.00031222],49,53,easy,plus,dotcolour,alfa,,,131,20,V,R,
716,86,2,17,5,47,33,900,['c'],1,left,['9'],5,162,[0.03456388],96,47,medium,plus,dotcolour,alfa,,,131,20,V,R,
717,87,3,17,5,53,27,967,['c'],1,left,['9'],5,142,[0.07654502],100,53,easy,plus,dotcolour,alfa,,,131,20,V,R,
718,88,4,17,5,47,33,616,['c'],1,left,['9'],5,73,[0.07752339],100,47,medium,plus,dotcolour,alfa,,,131,20,V,R,
719,89,5,17,5,44,36,550,['c'],1,left,['9'],5,97,[0.06766523],100,44,hard,plus,dotcolour,alfa,,,131,20,V,R,
720,90,6,17,5,36,44,451,['c'],0,right,['9'],5,68,[0.0686648],100,44,hard,plus,dotcolour,alfa,,,131,20,V,R,
721,91,7,17,5,33,47,2417,['c'],0,right,['9'],5,314,[0.2047309],100,47,medium,plus,dotcolour,alfa,,,131,20,V,R,
722,92,8,17,5,33,47,216,['n'],1,right,['9'],5,135,[-0.11238496],100,47,medium,plus,dotcolour,alfa,,,131,20,V,R,
723,93,9,17,5,27,53,283,['n'],1,right,['9'],5,183,[-0.0731848],100,53,easy,plus,dotcolour,alfa,,,131,20,V,R,
724,94,10,17,5,36,44,933,['n'],1,right,['9'],5,204,[-0.08017577],100,44,hard,plus,dotcolour,alfa,,,131,20,V,R,
725,95,11,17,5,44,36,118,['n'],0,left,['9'],5,102,[-0.10353666],100,44,hard,plus,dotcolour,alfa,,,131,20,V,R,
726,96,12,17,5,36,44,350,['n'],1,right,['9'],5,133,[-0.09075026],100,44,hard,plus,dotcolour,alfa,,,131,20,V,R,
727,97,13,17,5,27,53,450,['n'],1,right,['9'],5,71,[-0.06552455],100,53,easy,plus,dotcolour,alfa,,,131,20,V,R,
728,98,14,17,5,36,44,384,['c'],0,right,['9'],5,150,[0.05911021],100,44,hard,plus,dotcolour,alfa,,,131,20,V,R,
729,99,15,17,5,33,47,501,['n'],1,right,['9'],5,117,[-0.09320272],100,47,medium,plus,dotcolour,alfa,,,131,20,V,R,
730,100,16,17,5,33,47,417,['c'],0,right,['9'],5,241,[0.05234536],98,47,medium,plus,dotcolour,alfa,,,131,20,V,R,
731,101,17,17,5,27,53,700,['c'],0,right,['9'],5,109,[0.03300977],97,53,easy,plus,dotcolour,alfa,,,131,20,V,R,
732,102,18,17,5,44,36,550,['n'],0,left,['9'],5,139,[-0.02909118],94,44,hard,plus,dotcolour,alfa,,,131,20,V,R,
733,103,19,17,5,27,53,418,['n'],1,right,['9'],5,182,[-0.05367043],99,53,easy,plus,dotcolour,alfa,,,131,20,V,R,
734,104,20,17,5,33,47,484,['n'],1,right,['9'],5,101,[-0.03033725],97,47,medium,plus,dotcolour,alfa,,,131,20,V,R,
735,105,21,17,5,27,53,350,['n'],1,right,['9'],5,212,[-0.1044294],100,53,easy,plus,dotcolour,alfa,,,131,20,V,R,
736,106,22,17,5,33,47,467,['n'],1,right,['9'],5,138,[-0.01066413],74,47,medium,plus,dotcolour,alfa,,,131,20,V,R,
737,107,23,17,5,36,44,683,['n'],1,right,['9'],5,139,[-0.11911898],100,44,hard,plus,dotcolour,alfa,,,131,20,V,R,
738,108,24,17,5,44,36,883,['c'],1,left,['9'],5,219,[0.05617365],99,44,hard,plus,dotcolour,alfa,,,131,20,V,R,
739,109,25,17,5,53,27,733,['c'],1,left,['9'],5,103,[0.0915699],100,53,easy,plus,dotcolour,alfa,,,131,20,V,R,
740,110,26,17,5,53,27,616,['c'],1,left,['9'],5,36,[0.09677213],100,53,easy,plus,dotcolour,alfa,,,131,20,V,R,
741,111,27,17,5,36,44,499,['c'],0,right,['9'],5,80,[0.09417789],100,44,hard,plus,dotcolour,alfa,,,131,20,V,R,
742,112,28,17,5,47,33,667,['c'],1,left,['9'],5,59,[0.05318586],100,47,medium,plus,dotcolour,alfa,,,131,20,V,R,
743,113,29,17,5,44,36,584,['c'],1,left,['9'],5,42,[0.04400217],100,44,hard,plus,dotcolour,alfa,,,131,20,V,R,
744,114,30,17,5,53,27,1650,['c'],1,left,['9'],5,423,[0.18132992],100,53,easy,plus,dotcolour,alfa,,,131,20,V,R,
745,115,31,17,5,47,33,917,['n'],0,left,['9'],5,619,[-0.00294702],53,47,medium,plus,dotcolour,alfa,,,131,20,V,R,
746,116,32,17,5,47,33,3566,['n'],0,left,['9'],5,180,[-0.05051117],99,47,medium,plus,dotcolour,alfa,,,131,20,V,R,
747,117,33,17,5,47,33,850,['c'],1,left,['9'],5,189,[0.12504678],100,47,medium,plus,dotcolour,alfa,,,131,20,V,R,
748,118,34,17,5,47,33,566,['c'],1,left,['9'],5,128,[0.05671188],100,47,medium,plus,dotcolour,alfa,,,131,20,V,R,
749,119,35,17,5,44,36,584,['c'],1,left,['9'],5,100,[0.03918901],99,44,hard,plus,dotcolour,alfa,,,131,20,V,R,
750,120,36,17,5,53,27,617,['c'],1,left,['9'],5,113,[0.05655917],100,53,easy,plus,dotcolour,alfa,,,131,20,V,R,
751,121,37,17,5,33,47,334,['c'],0,right,['9'],5,81,[0.03787882],99,47,medium,plus,dotcolour,alfa,,,131,20,V,R,
752,122,38,17,5,44,36,499,['c'],1,left,['9'],5,50,[0.0646643],100,44,hard,plus,dotcolour,alfa,,,131,20,V,R,
753,123,39,17,5,27,53,317,['c'],0,right,['9'],5,93,[0.07238877],100,53,easy,plus,dotcolour,alfa,,,131,20,V,R,
754,124,40,17,5,36,44,501,['c'],0,right,['9'],5,110,[0.11372721],100,44,hard,plus,dotcolour,alfa,,,131,20,V,R,
755,125,41,17,5,53,27,350,['c'],1,left,['9'],5,77,[0.09558255],100,53,easy,plus,dotcolour,alfa,,,131,20,V,R,
,,,,,,,,,,,,,,,,,,,,,1,"ik heb het gevoel dat er vaak evenveel rode bolletjes als blauwe bolletjes zijn
",131,20,V,R,
,,,,,,,,,,,,,,,,,,,,,2,['g'],131,20,V,R,
,,,,,,,,,,,,,,,,,,,,,3,['d'],131,20,V,R,
,,,,,,,,,,,,,,,,,,,,,5,"['3', '5']",131,20,V,R,
