trial,withinphasetrial,withinblocktrial,block,phase,dotsLeft,dotsRight,rt,resp,cor,cresp,conf_press,cj,RTconf,ev,fb,diff,difflevel,condition,task,manip,questionID,questionResp,sub,age,gender,handedness,
0,0,0,0,0,44,36,1001,['n'],0,left,['8'],4,2414,[-0.01763703],70,44,hard,plus,dotcolour,beta,,,38,18,V,R,
1,1,1,0,0,44,36,1017,['c'],1,left,['9'],5,1669,[0.33678233],100,44,hard,plus,dotcolour,beta,,,38,18,V,R,
2,2,2,0,0,33,47,834,['n'],1,right,['9'],5,930,[-0.20254532],99,47,medium,plus,dotcolour,beta,,,38,18,V,R,
3,3,3,0,0,36,44,1183,['c'],0,right,['2'],2,1375,[-0.2144082],8,44,hard,plus,dotcolour,beta,,,38,18,V,R,
4,4,4,0,0,27,53,1449,['n'],1,right,['8'],4,1304,[-0.09384173],91,53,easy,plus,dotcolour,beta,,,38,18,V,R,
5,5,5,0,0,33,47,1284,['n'],1,right,['8'],4,1584,[-0.27895106],99,47,medium,plus,dotcolour,beta,,,38,18,V,R,
6,6,6,0,0,47,33,766,['c'],1,left,['9'],5,1019,[0.06446427],89,47,medium,plus,dotcolour,beta,,,38,18,V,R,
7,7,7,0,0,27,53,1067,['n'],1,right,['9'],5,880,[-0.14259002],98,53,easy,plus,dotcolour,beta,,,38,18,V,R,
8,8,8,0,0,27,53,1234,['c'],0,right,['8'],4,2085,[-0.37713535],2,53,easy,plus,dotcolour,beta,,,38,18,V,R,
9,9,9,0,0,27,53,1250,['n'],1,right,['8'],4,1288,[-0.38902434],100,53,easy,plus,dotcolour,beta,,,38,18,V,R,
10,10,10,0,0,44,36,1050,['c'],1,left,['9'],5,3044,[0.31655648],98,44,hard,plus,dotcolour,beta,,,38,18,V,R,
11,11,11,0,0,36,44,1016,['c'],0,right,['8'],4,754,[0.11349639],97,44,hard,plus,dotcolour,beta,,,38,18,V,R,
12,12,12,0,0,53,27,700,['c'],1,left,['9'],5,832,[0.31765814],100,53,easy,plus,dotcolour,beta,,,38,18,V,R,
13,13,13,0,0,36,44,1167,['n'],1,right,['3'],3,1034,[-0.15354214],98,44,hard,plus,dotcolour,beta,,,38,18,V,R,
14,14,14,0,0,47,33,867,['c'],1,left,['9'],5,719,[0.16008811],99,47,medium,plus,dotcolour,beta,,,38,18,V,R,
15,15,15,0,0,27,53,800,['n'],1,right,['9'],5,451,[-0.25398814],100,53,easy,plus,dotcolour,beta,,,38,18,V,R,
16,16,16,0,0,53,27,666,['c'],1,left,['9'],5,463,[0.18183059],100,53,easy,plus,dotcolour,beta,,,38,18,V,R,
17,17,17,0,0,36,44,950,['n'],1,right,['9'],5,608,[-0.15587798],99,44,hard,plus,dotcolour,beta,,,38,18,V,R,
18,18,18,0,0,33,47,833,['c'],0,right,['3'],3,655,[-0.12987084],16,47,medium,plus,dotcolour,beta,,,38,18,V,R,
19,19,19,0,0,33,47,1150,['n'],1,right,['9'],5,513,[-0.10196769],98,47,medium,plus,dotcolour,beta,,,38,18,V,R,
20,20,20,0,0,47,33,783,['c'],1,left,['9'],5,541,[0.04392023],92,47,medium,plus,dotcolour,beta,,,38,18,V,R,
21,21,21,0,0,33,47,1217,['n'],1,right,['8'],4,728,[-0.06999782],93,47,medium,plus,dotcolour,beta,,,38,18,V,R,
22,22,22,0,0,53,27,816,['c'],1,left,['0'],6,1211,[0.25882225],99,53,easy,plus,dotcolour,beta,,,38,18,V,R,
23,23,23,0,0,44,36,2983,['n'],0,left,['3'],3,821,[0.14411087],15,44,hard,plus,dotcolour,beta,,,38,18,V,R,
24,24,24,0,0,36,44,1000,['c'],0,right,['8'],4,629,[-0.01045988],74,44,hard,plus,dotcolour,beta,,,38,18,V,R,
25,25,25,0,0,36,44,1118,['n'],1,right,['8'],4,432,[-0.19912725],100,44,hard,plus,dotcolour,beta,,,38,18,V,R,
26,26,26,0,0,33,47,851,['c'],0,right,['3'],3,502,[-0.10850132],21,47,medium,plus,dotcolour,beta,,,38,18,V,R,
27,27,27,0,0,47,33,967,['c'],1,left,['0'],6,461,[0.15487106],100,47,medium,plus,dotcolour,beta,,,38,18,V,R,
28,28,28,0,0,44,36,1334,['c'],1,left,['9'],5,774,[0.08922028],95,44,hard,plus,dotcolour,beta,,,38,18,V,R,
29,29,29,0,0,53,27,816,['c'],1,left,['9'],5,544,[0.04259876],92,53,easy,plus,dotcolour,beta,,,38,18,V,R,
30,30,30,0,0,27,53,683,['n'],1,right,['9'],5,440,[-0.16526572],100,53,easy,plus,dotcolour,beta,,,38,18,V,R,
31,31,31,0,0,44,36,683,['c'],1,left,['9'],5,452,[-0.00287548],80,44,hard,plus,dotcolour,beta,,,38,18,V,R,
32,32,32,0,0,44,36,1350,['n'],0,left,['9'],5,341,[-0.06329235],97,44,hard,plus,dotcolour,beta,,,38,18,V,R,
33,33,33,0,0,36,44,1200,['n'],1,right,['3'],3,857,[-0.24115556],100,44,hard,plus,dotcolour,beta,,,38,18,V,R,
34,34,34,0,0,53,27,833,['c'],1,left,['0'],6,662,[0.08616267],96,53,easy,plus,dotcolour,beta,,,38,18,V,R,
35,35,35,0,0,53,27,800,['c'],1,left,['0'],6,293,[0.1645817],100,53,easy,plus,dotcolour,beta,,,38,18,V,R,
36,36,36,0,0,47,33,716,['c'],1,left,['0'],6,341,[0.02453835],92,47,medium,plus,dotcolour,beta,,,38,18,V,R,
37,37,37,0,0,47,33,550,['c'],1,left,['0'],6,363,[0.16634656],100,47,medium,plus,dotcolour,beta,,,38,18,V,R,
38,38,38,0,0,47,33,1033,['c'],1,left,['8'],4,596,[0.10764618],98,47,medium,plus,dotcolour,beta,,,38,18,V,R,
39,39,39,0,0,33,47,1250,['n'],1,right,['8'],4,515,[-0.05776079],94,47,medium,plus,dotcolour,beta,,,38,18,V,R,
40,40,40,0,0,27,53,933,['n'],1,right,['8'],4,299,[-0.0623868],98,53,easy,plus,dotcolour,beta,,,38,18,V,R,
41,41,41,0,0,53,27,1416,['c'],1,left,['9'],5,1456,[0.31565582],100,53,easy,plus,dotcolour,beta,,,38,18,V,R,
42,42,0,1,0,47,33,934,['c'],1,left,['0'],6,387,[0.17426816],100,47,medium,plus,dotcolour,beta,,,38,18,V,R,
43,43,1,1,0,33,47,734,['n'],1,right,['9'],5,600,[-0.10816146],98,47,medium,plus,dotcolour,beta,,,38,18,V,R,
44,44,2,1,0,33,47,900,['n'],1,right,['9'],5,493,[-0.16119346],100,47,medium,plus,dotcolour,beta,,,38,18,V,R,
45,45,3,1,0,36,44,867,['n'],1,right,['3'],3,392,[-0.12127136],99,44,hard,plus,dotcolour,beta,,,38,18,V,R,
46,46,4,1,0,44,36,983,['c'],1,left,['9'],5,666,[0.10287287],97,44,hard,plus,dotcolour,beta,,,38,18,V,R,
47,47,5,1,0,53,27,650,['c'],1,left,['9'],5,327,[0.12116973],100,53,easy,plus,dotcolour,beta,,,38,18,V,R,
48,48,6,1,0,27,53,766,['n'],1,right,['9'],5,404,[-0.09745102],99,53,easy,plus,dotcolour,beta,,,38,18,V,R,
49,49,7,1,0,33,47,1782,['c'],0,right,['3'],3,1501,[0.00753061],72,47,medium,plus,dotcolour,beta,,,38,18,V,R,
50,50,8,1,0,47,33,834,['c'],1,left,['8'],4,441,[0.11144293],99,47,medium,plus,dotcolour,beta,,,38,18,V,R,
51,51,9,1,0,53,27,850,['c'],1,left,['0'],6,382,[0.0924112],99,53,easy,plus,dotcolour,beta,,,38,18,V,R,
52,52,10,1,0,47,33,750,['c'],1,left,['0'],6,250,[0.08250499],99,47,medium,plus,dotcolour,beta,,,38,18,V,R,
53,53,11,1,0,36,44,934,['n'],1,right,['3'],3,604,[-0.15515175],99,44,hard,plus,dotcolour,beta,,,38,18,V,R,
54,54,12,1,0,47,33,883,['c'],1,left,['9'],5,537,[0.13684152],99,47,medium,plus,dotcolour,beta,,,38,18,V,R,
55,55,13,1,0,53,27,883,['c'],1,left,['9'],5,554,[0.18534304],100,53,easy,plus,dotcolour,beta,,,38,18,V,R,
56,56,14,1,0,27,53,1166,['n'],1,right,['0'],6,806,[-0.0724832],93,53,easy,plus,dotcolour,beta,,,38,18,V,R,
57,57,15,1,0,27,53,1233,['n'],1,right,['0'],6,613,[-0.14459826],99,53,easy,plus,dotcolour,beta,,,38,18,V,R,
58,58,16,1,0,47,33,1034,['c'],1,left,['0'],6,452,[0.00814071],85,47,medium,plus,dotcolour,beta,,,38,18,V,R,
59,59,17,1,0,44,36,734,['c'],1,left,['0'],6,214,[0.18179656],100,44,hard,plus,dotcolour,beta,,,38,18,V,R,
60,60,18,1,0,33,47,984,['n'],1,right,['0'],6,304,[-0.10271401],99,47,medium,plus,dotcolour,beta,,,38,18,V,R,
61,61,19,1,0,36,44,1482,['n'],1,right,['0'],6,530,[-0.0466675],93,44,hard,plus,dotcolour,beta,,,38,18,V,R,
62,62,20,1,0,44,36,967,['c'],1,left,['9'],5,551,[-0.04077301],59,44,hard,plus,dotcolour,beta,,,38,18,V,R,
63,63,21,1,0,33,47,1182,['c'],0,right,['3'],3,572,[0.0713278],95,47,medium,plus,dotcolour,beta,,,38,18,V,R,
64,64,22,1,0,27,53,1382,['c'],0,right,['3'],3,654,[0.01578763],83,53,easy,plus,dotcolour,beta,,,38,18,V,R,
65,65,23,1,0,36,44,716,['n'],1,right,['3'],3,736,[-0.17426202],99,44,hard,plus,dotcolour,beta,,,38,18,V,R,
66,66,24,1,0,47,33,899,['c'],1,left,['0'],6,431,[0.0179304],88,47,medium,plus,dotcolour,beta,,,38,18,V,R,
67,67,25,1,0,53,27,617,['c'],1,left,['9'],5,302,[0.16219614],100,53,easy,plus,dotcolour,beta,,,38,18,V,R,
68,68,26,1,0,53,27,567,['c'],1,left,['9'],5,373,[0.11448649],99,53,easy,plus,dotcolour,beta,,,38,18,V,R,
69,69,27,1,0,47,33,784,['c'],1,left,['0'],6,568,[0.13832064],99,47,medium,plus,dotcolour,beta,,,38,18,V,R,
70,70,28,1,0,53,27,733,['c'],1,left,['0'],6,213,[0.03516097],97,53,easy,plus,dotcolour,beta,,,38,18,V,R,
71,71,29,1,0,44,36,900,['c'],1,left,['8'],4,970,[0.11265057],96,44,hard,plus,dotcolour,beta,,,38,18,V,R,
72,72,30,1,0,36,44,617,['c'],0,right,['8'],4,420,[0.14518359],100,44,hard,plus,dotcolour,beta,,,38,18,V,R,
73,73,31,1,0,27,53,450,['n'],1,right,['0'],6,682,[-0.11095827],97,53,easy,plus,dotcolour,beta,,,38,18,V,R,
74,74,32,1,0,27,53,683,['n'],1,right,['0'],6,325,[-0.06744189],98,53,easy,plus,dotcolour,beta,,,38,18,V,R,
75,75,33,1,0,36,44,966,['c'],0,right,['3'],3,546,[0.09919579],98,44,hard,plus,dotcolour,beta,,,38,18,V,R,
76,76,34,1,0,44,36,1151,['c'],1,left,['9'],5,536,[0.00891643],83,44,hard,plus,dotcolour,beta,,,38,18,V,R,
77,77,35,1,0,33,47,1267,['n'],1,right,['9'],5,977,[-0.03435341],84,47,medium,plus,dotcolour,beta,,,38,18,V,R,
78,78,36,1,0,36,44,1866,['n'],1,right,['9'],5,1584,[0.00288964],68,44,hard,plus,dotcolour,beta,,,38,18,V,R,
79,79,37,1,0,27,53,800,['n'],1,right,['0'],6,457,[-0.13293542],99,53,easy,plus,dotcolour,beta,,,38,18,V,R,
80,80,38,1,0,33,47,733,['n'],1,right,['0'],6,267,[-0.03328341],96,47,medium,plus,dotcolour,beta,,,38,18,V,R,
81,81,39,1,0,44,36,834,['c'],1,left,['8'],4,880,[0.12987083],97,44,hard,plus,dotcolour,beta,,,38,18,V,R,
82,82,40,1,0,44,36,900,['c'],1,left,['9'],5,386,[0.06515985],97,44,hard,plus,dotcolour,beta,,,38,18,V,R,
83,83,41,1,0,53,27,734,['c'],1,left,['9'],5,383,[0.12549765],99,53,easy,plus,dotcolour,beta,,,38,18,V,R,
84,84,0,2,0,44,36,800,['c'],1,left,['9'],5,379,[0.09251102],99,44,hard,plus,dotcolour,beta,,,38,18,V,R,
85,85,1,2,0,47,33,818,['c'],1,left,['0'],6,532,[0.11445563],99,47,medium,plus,dotcolour,beta,,,38,18,V,R,
86,86,2,2,0,27,53,917,['n'],1,right,['0'],6,339,[-0.06672282],98,53,easy,plus,dotcolour,beta,,,38,18,V,R,
87,87,3,2,0,33,47,1433,['n'],1,right,['0'],6,254,[-0.11891015],100,47,medium,plus,dotcolour,beta,,,38,18,V,R,
88,88,4,2,0,36,44,1084,['c'],0,right,['8'],4,506,[0.13853313],99,44,hard,plus,dotcolour,beta,,,38,18,V,R,
89,89,5,2,0,33,47,1299,['c'],0,right,['3'],3,554,[0.14889068],99,47,medium,plus,dotcolour,beta,,,38,18,V,R,
90,90,6,2,0,44,36,984,['c'],1,left,['2'],2,526,[0.11215582],98,44,hard,plus,dotcolour,beta,,,38,18,V,R,
91,91,7,2,0,53,27,1284,['c'],1,left,['0'],6,174,[-0.00902819],88,53,easy,plus,dotcolour,beta,,,38,18,V,R,
92,92,8,2,0,47,33,751,['c'],1,left,['0'],6,331,[0.0303203],94,47,medium,plus,dotcolour,beta,,,38,18,V,R,
93,93,9,2,0,47,33,651,['c'],1,left,['0'],6,172,[0.14479448],100,47,medium,plus,dotcolour,beta,,,38,18,V,R,
94,94,10,2,0,53,27,734,['c'],1,left,['0'],6,193,[0.07823489],100,53,easy,plus,dotcolour,beta,,,38,18,V,R,
95,95,11,2,0,36,44,1133,['c'],0,right,['1'],1,365,[0.03648273],94,44,hard,plus,dotcolour,beta,,,38,18,V,R,
96,96,12,2,0,53,27,1083,['c'],1,left,['9'],5,389,[0.19776547],100,53,easy,plus,dotcolour,beta,,,38,18,V,R,
97,97,13,2,0,44,36,750,['c'],1,left,['9'],5,320,[0.01313233],90,44,hard,plus,dotcolour,beta,,,38,18,V,R,
98,98,14,2,0,53,27,851,['c'],1,left,['9'],5,539,[0.09696052],98,53,easy,plus,dotcolour,beta,,,38,18,V,R,
99,99,15,2,0,53,27,600,['c'],1,left,['0'],6,183,[0.11154783],100,53,easy,plus,dotcolour,beta,,,38,18,V,R,
100,100,16,2,0,47,33,1283,['n'],0,left,['2'],2,461,[-0.05661819],95,47,medium,plus,dotcolour,beta,,,38,18,V,R,
101,101,17,2,0,44,36,1666,['c'],1,left,['1'],1,1049,[0.21810564],99,44,hard,plus,dotcolour,beta,,,38,18,V,R,
102,102,18,2,0,36,44,1017,['c'],0,right,['1'],1,295,[0.04903749],97,44,hard,plus,dotcolour,beta,,,38,18,V,R,
103,103,19,2,0,27,53,567,['c'],0,right,['1'],1,974,[-0.24782158],3,53,easy,plus,dotcolour,beta,,,38,18,V,R,
104,104,20,2,0,36,44,1166,['c'],0,right,['0'],6,209,[0.02340618],96,44,hard,plus,dotcolour,beta,,,38,18,V,R,
105,105,21,2,0,44,36,1150,['c'],1,left,['0'],6,452,[0.0208769],89,44,hard,plus,dotcolour,beta,,,38,18,V,R,
106,106,22,2,0,44,36,650,['c'],1,left,['0'],6,305,[0.1264229],100,44,hard,plus,dotcolour,beta,,,38,18,V,R,
107,107,23,2,0,27,53,1317,['n'],1,right,['9'],5,577,[-0.2677827],100,53,easy,plus,dotcolour,beta,,,38,18,V,R,
108,108,24,2,0,36,44,682,['n'],1,right,['9'],5,480,[-0.07074998],96,44,hard,plus,dotcolour,beta,,,38,18,V,R,
109,109,25,2,0,33,47,1583,['n'],1,right,['9'],5,311,[-0.11928011],100,47,medium,plus,dotcolour,beta,,,38,18,V,R,
110,110,26,2,0,47,33,883,['c'],1,left,['0'],6,264,[0.15158653],100,47,medium,plus,dotcolour,beta,,,38,18,V,R,
111,111,27,2,0,53,27,1251,['c'],1,left,['9'],5,373,[0.17562356],100,53,easy,plus,dotcolour,beta,,,38,18,V,R,
112,112,28,2,0,27,53,833,['n'],1,right,['0'],6,333,[-0.11500395],100,53,easy,plus,dotcolour,beta,,,38,18,V,R,
113,113,29,2,0,33,47,1285,['n'],1,right,['9'],5,622,[-0.16386099],99,47,medium,plus,dotcolour,beta,,,38,18,V,R,
114,114,30,2,0,27,53,833,['n'],1,right,['0'],6,389,[-0.19614944],100,53,easy,plus,dotcolour,beta,,,38,18,V,R,
115,115,31,2,0,47,33,1450,['c'],1,left,['0'],6,500,[0.05190703],94,47,medium,plus,dotcolour,beta,,,38,18,V,R,
116,116,32,2,0,33,47,1100,['c'],0,right,['2'],2,510,[0.10782849],98,47,medium,plus,dotcolour,beta,,,38,18,V,R,
117,117,33,2,0,47,33,1450,['c'],1,left,['0'],6,240,[0.10673961],100,47,medium,plus,dotcolour,beta,,,38,18,V,R,
118,118,34,2,0,27,53,800,['n'],1,right,['0'],6,200,[-0.07717272],100,53,easy,plus,dotcolour,beta,,,38,18,V,R,
119,119,35,2,0,33,47,800,['n'],1,right,['0'],6,209,[-0.05154703],99,47,medium,plus,dotcolour,beta,,,38,18,V,R,
120,120,36,2,0,53,27,734,['c'],1,left,['0'],6,212,[0.10163122],100,53,easy,plus,dotcolour,beta,,,38,18,V,R,
121,121,37,2,0,36,44,1133,['n'],1,right,['1'],1,288,[-0.11498332],100,44,hard,plus,dotcolour,beta,,,38,18,V,R,
122,122,38,2,0,27,53,850,['n'],1,right,['0'],6,323,[-0.15583429],100,53,easy,plus,dotcolour,beta,,,38,18,V,R,
123,123,39,2,0,36,44,982,['c'],0,right,['2'],2,456,[0.15440756],100,44,hard,plus,dotcolour,beta,,,38,18,V,R,
124,124,40,2,0,44,36,1017,['c'],1,left,['3'],3,206,[0.06527298],99,44,hard,plus,dotcolour,beta,,,38,18,V,R,
125,125,41,2,0,33,47,784,['n'],1,right,['9'],5,447,[-0.08616195],98,47,medium,plus,dotcolour,beta,,,38,18,V,R,
126,0,0,3,1,53,27,1018,['c'],1,left,['0'],6,291,[0.13614869],94,53,easy,minus,dotcolour,beta,,,38,18,V,R,
127,1,1,3,1,36,44,800,['n'],1,right,['0'],6,257,[-0.02699025],27,44,hard,minus,dotcolour,beta,,,38,18,V,R,
128,2,2,3,1,44,36,1150,['n'],0,left,['1'],1,1425,[-0.0056922],32,44,hard,minus,dotcolour,beta,,,38,18,V,R,
129,3,3,3,1,36,44,899,['n'],1,right,['0'],6,254,[-0.10358258],85,44,hard,minus,dotcolour,beta,,,38,18,V,R,
130,4,4,3,1,27,53,750,['n'],1,right,['0'],6,255,[-0.1116905],88,53,easy,minus,dotcolour,beta,,,38,18,V,R,
131,5,5,3,1,53,27,883,['c'],1,left,['0'],6,313,[0.04757938],44,53,easy,minus,dotcolour,beta,,,38,18,V,R,
132,6,6,3,1,27,53,1549,['n'],1,right,['8'],4,393,[-0.03339857],35,53,easy,minus,dotcolour,beta,,,38,18,V,R,
133,7,7,3,1,27,53,1067,['n'],1,right,['0'],6,215,[-0.08059588],73,53,easy,minus,dotcolour,beta,,,38,18,V,R,
134,8,8,3,1,36,44,983,['n'],1,right,['0'],6,177,[-0.06663106],62,44,hard,minus,dotcolour,beta,,,38,18,V,R,
135,9,9,3,1,44,36,850,['c'],1,left,['0'],6,337,[0.07058073],61,44,hard,minus,dotcolour,beta,,,38,18,V,R,
136,10,10,3,1,27,53,750,['n'],1,right,['0'],6,215,[-0.0916976],80,53,easy,minus,dotcolour,beta,,,38,18,V,R,
137,11,11,3,1,36,44,683,['c'],0,right,['0'],6,204,[0.08153592],74,44,hard,minus,dotcolour,beta,,,38,18,V,R,
138,12,12,3,1,33,47,1433,['c'],0,right,['0'],6,220,[0.043884],39,47,medium,minus,dotcolour,beta,,,38,18,V,R,
139,13,13,3,1,33,47,918,['n'],1,right,['0'],6,224,[-0.08950372],78,47,medium,minus,dotcolour,beta,,,38,18,V,R,
140,14,14,3,1,27,53,534,['n'],1,right,['0'],6,171,[-0.06140588],56,53,easy,minus,dotcolour,beta,,,38,18,V,R,
141,15,15,3,1,44,36,1067,['c'],1,left,['9'],5,235,[0.09321688],80,44,hard,minus,dotcolour,beta,,,38,18,V,R,
142,16,16,3,1,44,36,900,['c'],1,left,['0'],6,183,[0.09544166],84,44,hard,minus,dotcolour,beta,,,38,18,V,R,
143,17,17,3,1,47,33,666,['c'],1,left,['0'],6,135,[0.12538589],97,47,medium,minus,dotcolour,beta,,,38,18,V,R,
144,18,18,3,1,27,53,817,['n'],1,right,['0'],6,314,[-0.11948031],89,53,easy,minus,dotcolour,beta,,,38,18,V,R,
145,19,19,3,1,44,36,1567,['c'],1,left,['0'],6,335,[0.02909472],31,44,hard,minus,dotcolour,beta,,,38,18,V,R,
146,20,20,3,1,27,53,933,['n'],1,right,['0'],6,246,[-0.09898032],83,53,easy,minus,dotcolour,beta,,,38,18,V,R,
147,21,21,3,1,53,27,901,['c'],1,left,['0'],6,162,[0.13377611],97,53,easy,minus,dotcolour,beta,,,38,18,V,R,
148,22,22,3,1,53,27,667,['c'],1,left,['0'],6,178,[0.03053328],26,53,easy,minus,dotcolour,beta,,,38,18,V,R,
149,23,23,3,1,53,27,684,['c'],1,left,['0'],6,160,[0.14258418],98,53,easy,minus,dotcolour,beta,,,38,18,V,R,
150,24,24,3,1,36,44,1250,['n'],1,right,['9'],5,585,[0.09111009],3,44,hard,minus,dotcolour,beta,,,38,18,V,R,
151,25,25,3,1,47,33,850,['c'],1,left,['9'],5,305,[0.10044125],81,47,medium,minus,dotcolour,beta,,,38,18,V,R,
152,26,26,3,1,53,27,617,['c'],1,left,['9'],5,125,[0.10387203],92,53,easy,minus,dotcolour,beta,,,38,18,V,R,
153,27,27,3,1,47,33,568,['c'],1,left,['9'],5,123,[0.09502467],88,47,medium,minus,dotcolour,beta,,,38,18,V,R,
154,28,28,3,1,47,33,550,['c'],1,left,['9'],5,113,[0.08581793],83,47,medium,minus,dotcolour,beta,,,38,18,V,R,
155,29,29,3,1,36,44,533,['c'],0,right,['0'],6,136,[0.09857003],89,44,hard,minus,dotcolour,beta,,,38,18,V,R,
156,30,30,3,1,36,44,384,['c'],0,right,['0'],6,141,[0.06563817],62,44,hard,minus,dotcolour,beta,,,38,18,V,R,
157,31,31,3,1,33,47,1200,['n'],1,right,['0'],6,344,[-0.14594331],94,47,medium,minus,dotcolour,beta,,,38,18,V,R,
158,32,32,3,1,47,33,866,['c'],1,left,['0'],6,121,[0.07288757],71,47,medium,minus,dotcolour,beta,,,38,18,V,R,
159,33,33,3,1,44,36,649,['c'],1,left,['9'],5,443,[0.07213806],61,44,hard,minus,dotcolour,beta,,,38,18,V,R,
160,34,34,3,1,47,33,818,['c'],1,left,['9'],5,163,[0.08241927],77,47,medium,minus,dotcolour,beta,,,38,18,V,R,
161,35,35,3,1,47,33,934,['c'],1,left,['9'],5,263,[0.15835686],97,47,medium,minus,dotcolour,beta,,,38,18,V,R,
162,36,36,3,1,53,27,750,['c'],1,left,['0'],6,761,[0.13728519],84,53,easy,minus,dotcolour,beta,,,38,18,V,R,
163,37,37,3,1,33,47,1317,['c'],0,right,['8'],4,238,[0.04337748],39,47,medium,minus,dotcolour,beta,,,38,18,V,R,
164,38,38,3,1,33,47,951,['n'],1,right,['0'],6,233,[-0.05628213],51,47,medium,minus,dotcolour,beta,,,38,18,V,R,
165,39,39,3,1,44,36,901,['c'],1,left,['0'],6,205,[0.11818618],92,44,hard,minus,dotcolour,beta,,,38,18,V,R,
166,40,40,3,1,33,47,733,['n'],1,right,['0'],6,217,[-0.09405597],82,47,medium,minus,dotcolour,beta,,,38,18,V,R,
167,41,41,3,1,33,47,916,['n'],1,right,['0'],6,205,[-0.14913183],98,47,medium,minus,dotcolour,beta,,,38,18,V,R,
168,42,0,4,1,33,47,667,['n'],1,right,['0'],6,279,[-0.04457515],41,47,medium,minus,dotcolour,beta,,,38,18,V,R,
169,43,1,4,1,36,44,799,['c'],0,right,['0'],6,157,[0.0219794],18,44,hard,minus,dotcolour,beta,,,38,18,V,R,
170,44,2,4,1,33,47,684,['n'],1,right,['0'],6,173,[-0.10344289],89,47,medium,minus,dotcolour,beta,,,38,18,V,R,
171,45,3,4,1,53,27,767,['c'],1,left,['0'],6,88,[0.07266467],74,53,easy,minus,dotcolour,beta,,,38,18,V,R,
172,46,4,4,1,47,33,1502,['c'],1,left,['2'],2,538,[0.06884968],58,47,medium,minus,dotcolour,beta,,,38,18,V,R,
173,47,5,4,1,33,47,916,['n'],1,right,['0'],6,169,[-0.07923856],74,47,medium,minus,dotcolour,beta,,,38,18,V,R,
174,48,6,4,1,33,47,1550,['c'],0,right,['2'],2,718,[0.06847065],57,47,medium,minus,dotcolour,beta,,,38,18,V,R,
175,49,7,4,1,36,44,734,['c'],0,right,['9'],5,525,[0.02450925],32,44,hard,minus,dotcolour,beta,,,38,18,V,R,
176,50,8,4,1,53,27,816,['c'],1,left,['0'],6,433,[0.15431585],94,53,easy,minus,dotcolour,beta,,,38,18,V,R,
177,51,9,4,1,53,27,700,['c'],1,left,['0'],6,124,[0.10747954],93,53,easy,minus,dotcolour,beta,,,38,18,V,R,
178,52,10,4,1,47,33,500,['c'],1,left,['0'],6,76,[0.09156252],91,47,medium,minus,dotcolour,beta,,,38,18,V,R,
179,53,11,4,1,33,47,1000,['n'],1,right,['0'],6,170,[-0.10028083],88,47,medium,minus,dotcolour,beta,,,38,18,V,R,
180,54,12,4,1,36,44,1300,['c'],0,right,['8'],4,449,[0.0557912],50,44,hard,minus,dotcolour,beta,,,38,18,V,R,
181,55,13,4,1,27,53,784,['n'],1,right,['0'],6,225,[-0.11769308],91,53,easy,minus,dotcolour,beta,,,38,18,V,R,
182,56,14,4,1,36,44,583,['n'],1,right,['0'],6,169,[-0.07771269],73,44,hard,minus,dotcolour,beta,,,38,18,V,R,
183,57,15,4,1,44,36,850,['c'],1,left,['0'],6,162,[0.06811927],64,44,hard,minus,dotcolour,beta,,,38,18,V,R,
184,58,16,4,1,44,36,933,['c'],1,left,['0'],6,216,[0.08865857],78,44,hard,minus,dotcolour,beta,,,38,18,V,R,
185,59,17,4,1,36,44,815,['n'],1,right,['0'],6,152,[-0.13750396],98,44,hard,minus,dotcolour,beta,,,38,18,V,R,
186,60,18,4,1,27,53,667,['n'],1,right,['0'],6,128,[-0.11284369],95,53,easy,minus,dotcolour,beta,,,38,18,V,R,
187,61,19,4,1,27,53,1500,['n'],1,right,['9'],5,344,[-0.24528136],100,53,easy,minus,dotcolour,beta,,,38,18,V,R,
188,62,20,4,1,47,33,667,['c'],1,left,['9'],5,257,[0.03314321],31,47,medium,minus,dotcolour,beta,,,38,18,V,R,
189,63,21,4,1,47,33,583,['c'],1,left,['8'],4,472,[0.17527186],96,47,medium,minus,dotcolour,beta,,,38,18,V,R,
190,64,22,4,1,47,33,1083,['c'],1,left,['8'],4,299,[0.1459898],95,47,medium,minus,dotcolour,beta,,,38,18,V,R,
191,65,23,4,1,33,47,1066,['n'],1,right,['0'],6,134,[-0.1097992],94,47,medium,minus,dotcolour,beta,,,38,18,V,R,
192,66,24,4,1,27,53,716,['n'],1,right,['9'],5,198,[-0.14021457],97,53,easy,minus,dotcolour,beta,,,38,18,V,R,
193,67,25,4,1,53,27,784,['c'],1,left,['9'],5,255,[0.08742845],76,53,easy,minus,dotcolour,beta,,,38,18,V,R,
194,68,26,4,1,53,27,449,['c'],1,left,['9'],5,172,[0.16531889],99,53,easy,minus,dotcolour,beta,,,38,18,V,R,
195,69,27,4,1,33,47,883,['n'],1,right,['0'],6,267,[-0.10478669],85,47,medium,minus,dotcolour,beta,,,38,18,V,R,
196,70,28,4,1,27,53,684,['n'],1,right,['0'],6,166,[-0.13074949],97,53,easy,minus,dotcolour,beta,,,38,18,V,R,
197,71,29,4,1,44,36,951,['c'],1,left,['3'],3,475,[0.14610951],91,44,hard,minus,dotcolour,beta,,,38,18,V,R,
198,72,30,4,1,36,44,1067,['c'],0,right,['8'],4,222,[0.06027154],54,44,hard,minus,dotcolour,beta,,,38,18,V,R,
199,73,31,4,1,36,44,1401,['n'],1,right,['8'],4,726,[-0.05551795],50,44,hard,minus,dotcolour,beta,,,38,18,V,R,
200,74,32,4,1,44,36,984,['c'],1,left,['0'],6,331,[0.11911948],88,44,hard,minus,dotcolour,beta,,,38,18,V,R,
201,75,33,4,1,44,36,917,['c'],1,left,['9'],5,211,[0.17673234],99,44,hard,minus,dotcolour,beta,,,38,18,V,R,
202,76,34,4,1,53,27,717,['c'],1,left,['0'],6,407,[0.10277491],79,53,easy,minus,dotcolour,beta,,,38,18,V,R,
203,77,35,4,1,47,33,683,['c'],1,left,['0'],6,76,[0.03960138],26,47,medium,minus,dotcolour,beta,,,38,18,V,R,
204,78,36,4,1,44,36,1166,['c'],1,left,['8'],4,379,[0.15975481],95,44,hard,minus,dotcolour,beta,,,38,18,V,R,
205,79,37,4,1,27,53,551,['n'],1,right,['8'],4,215,[-0.05486551],49,53,easy,minus,dotcolour,beta,,,38,18,V,R,
206,80,38,4,1,47,33,800,['c'],1,left,['8'],4,152,[0.01693429],14,47,medium,minus,dotcolour,beta,,,38,18,V,R,
207,81,39,4,1,44,36,1450,['n'],0,left,['9'],5,729,[-0.08968659],67,44,hard,minus,dotcolour,beta,,,38,18,V,R,
208,82,40,4,1,53,27,699,['c'],1,left,['9'],5,249,[0.1487863],97,53,easy,minus,dotcolour,beta,,,38,18,V,R,
209,83,41,4,1,27,53,585,['c'],0,right,['0'],6,122,[0.02412927],17,53,easy,minus,dotcolour,beta,,,38,18,V,R,
210,84,0,5,1,27,53,718,['n'],1,right,['0'],6,242,[-0.11581969],90,53,easy,minus,dotcolour,beta,,,38,18,V,R,
211,85,1,5,1,33,47,716,['c'],0,right,['9'],5,485,[0.0813997],66,47,medium,minus,dotcolour,beta,,,38,18,V,R,
212,86,2,5,1,33,47,500,['n'],1,right,['0'],6,246,[-0.07437278],66,47,medium,minus,dotcolour,beta,,,38,18,V,R,
213,87,3,5,1,44,36,684,['c'],1,left,['0'],6,258,[0.13092299],94,44,hard,minus,dotcolour,beta,,,38,18,V,R,
214,88,4,5,1,27,53,533,['c'],0,right,['0'],6,163,[0.00050233],8,53,easy,minus,dotcolour,beta,,,38,18,V,R,
215,89,5,5,1,47,33,699,['c'],1,left,['0'],6,379,[0.15936653],95,47,medium,minus,dotcolour,beta,,,38,18,V,R,
216,90,6,5,1,33,47,883,['n'],1,right,['0'],6,168,[-0.06094145],56,47,medium,minus,dotcolour,beta,,,38,18,V,R,
217,91,7,5,1,44,36,950,['c'],1,left,['0'],6,109,[0.11213074],96,44,hard,minus,dotcolour,beta,,,38,18,V,R,
218,92,8,5,1,36,44,967,['n'],1,right,['3'],3,804,[-0.13694458],84,44,hard,minus,dotcolour,beta,,,38,18,V,R,
219,93,9,5,1,27,53,1001,['c'],0,right,['0'],6,124,[0.04607778],38,53,easy,minus,dotcolour,beta,,,38,18,V,R,
220,94,10,5,1,44,36,967,['c'],1,left,['0'],6,138,[0.03077333],23,44,hard,minus,dotcolour,beta,,,38,18,V,R,
221,95,11,5,1,36,44,850,['n'],1,right,['0'],6,299,[-0.14962603],96,44,hard,minus,dotcolour,beta,,,38,18,V,R,
222,96,12,5,1,36,44,667,['c'],0,right,['9'],5,382,[0.09926431],78,44,hard,minus,dotcolour,beta,,,38,18,V,R,
223,97,13,5,1,33,47,550,['n'],1,right,['0'],6,266,[-0.08749404],75,47,medium,minus,dotcolour,beta,,,38,18,V,R,
224,98,14,5,1,47,33,651,['c'],1,left,['0'],6,463,[0.10882573],80,47,medium,minus,dotcolour,beta,,,38,18,V,R,
225,99,15,5,1,47,33,634,['c'],1,left,['0'],6,284,[0.0956205],79,47,medium,minus,dotcolour,beta,,,38,18,V,R,
226,100,16,5,1,36,44,1217,['c'],0,right,['9'],5,250,[0.09070589],78,44,hard,minus,dotcolour,beta,,,38,18,V,R,
227,101,17,5,1,27,53,1182,['n'],1,right,['0'],6,778,[-0.13949394],85,53,easy,minus,dotcolour,beta,,,38,18,V,R,
228,102,18,5,1,36,44,934,['n'],1,right,['0'],6,230,[-0.14682492],97,44,hard,minus,dotcolour,beta,,,38,18,V,R,
229,103,19,5,1,33,47,1901,['n'],1,right,['8'],4,442,[-0.12195867],86,47,medium,minus,dotcolour,beta,,,38,18,V,R,
230,104,20,5,1,53,27,933,['c'],1,left,['0'],6,125,[0.14582648],99,53,easy,minus,dotcolour,beta,,,38,18,V,R,
231,105,21,5,1,44,36,1033,['n'],0,left,['8'],4,488,[0.02927182],10,44,hard,minus,dotcolour,beta,,,38,18,V,R,
232,106,22,5,1,47,33,1133,['c'],1,left,['3'],3,640,[0.24693936],99,47,medium,minus,dotcolour,beta,,,38,18,V,R,
233,107,23,5,1,27,53,983,['n'],1,right,['0'],6,216,[-0.13542616],96,53,easy,minus,dotcolour,beta,,,38,18,V,R,
234,108,24,5,1,53,27,784,['c'],1,left,['0'],6,177,[0.06879628],64,53,easy,minus,dotcolour,beta,,,38,18,V,R,
235,109,25,5,1,33,47,1099,['n'],1,right,['9'],5,295,[-0.13135733],92,47,medium,minus,dotcolour,beta,,,38,18,V,R,
236,110,26,5,1,27,53,717,['n'],1,right,['0'],6,159,[-0.10321578],90,53,easy,minus,dotcolour,beta,,,38,18,V,R,
237,111,27,5,1,27,53,534,['n'],1,right,['0'],6,149,[-0.06261156],58,53,easy,minus,dotcolour,beta,,,38,18,V,R,
238,112,28,5,1,36,44,917,['n'],1,right,['0'],6,131,[-0.07926825],76,44,hard,minus,dotcolour,beta,,,38,18,V,R,
239,113,29,5,1,44,36,1067,['c'],1,left,['9'],5,445,[0.17178733],96,44,hard,minus,dotcolour,beta,,,38,18,V,R,
240,114,30,5,1,36,44,1484,['c'],0,right,['3'],3,329,[-0.06352481],2,44,hard,minus,dotcolour,beta,,,38,18,V,R,
241,115,31,5,1,44,36,1017,['c'],1,left,['8'],4,340,[0.07619636],65,44,hard,minus,dotcolour,beta,,,38,18,V,R,
242,116,32,5,1,33,47,1133,['n'],1,right,['0'],6,242,[-0.12297126],92,47,medium,minus,dotcolour,beta,,,38,18,V,R,
243,117,33,5,1,53,27,1767,['c'],1,left,['8'],4,731,[0.24552281],98,53,easy,minus,dotcolour,beta,,,38,18,V,R,
244,118,34,5,1,47,33,1016,['c'],1,left,['0'],6,103,[0.09316156],89,47,medium,minus,dotcolour,beta,,,38,18,V,R,
245,119,35,5,1,53,27,883,['c'],1,left,['0'],6,96,[0.0681179],67,53,easy,minus,dotcolour,beta,,,38,18,V,R,
246,120,36,5,1,53,27,617,['c'],1,left,['0'],6,125,[0.08740996],84,53,easy,minus,dotcolour,beta,,,38,18,V,R,
247,121,37,5,1,47,33,567,['c'],1,left,['0'],6,106,[0.09628048],90,47,medium,minus,dotcolour,beta,,,38,18,V,R,
248,122,38,5,1,47,33,534,['c'],1,left,['0'],6,90,[0.04556479],35,47,medium,minus,dotcolour,beta,,,38,18,V,R,
249,123,39,5,1,44,36,1167,['c'],1,left,['3'],3,288,[0.10044916],82,44,hard,minus,dotcolour,beta,,,38,18,V,R,
250,124,40,5,1,53,27,817,['c'],1,left,['0'],6,309,[0.04105731],38,53,easy,minus,dotcolour,beta,,,38,18,V,R,
251,125,41,5,1,53,27,484,['c'],1,left,['0'],6,134,[0.05268789],46,53,easy,minus,dotcolour,beta,,,38,18,V,R,
252,0,0,6,2,44,36,818,['c'],1,left,['0'],6,144,[0.00678634],95,44,hard,plus,dotcolour,beta,,,38,18,V,R,
253,1,1,6,2,47,33,750,['c'],1,left,['0'],6,182,[0.1134171],100,47,medium,plus,dotcolour,beta,,,38,18,V,R,
254,2,2,6,2,36,44,833,['n'],1,right,['0'],6,230,[-0.08027807],99,44,hard,plus,dotcolour,beta,,,38,18,V,R,
255,3,3,6,2,33,47,1417,['n'],1,right,['9'],5,581,[-0.21353607],100,47,medium,plus,dotcolour,beta,,,38,18,V,R,
256,4,4,6,2,44,36,1184,['c'],1,left,['9'],5,352,[0.08327871],99,44,hard,plus,dotcolour,beta,,,38,18,V,R,
257,5,5,6,2,47,33,516,['c'],1,left,['9'],5,119,[0.06272895],100,47,medium,plus,dotcolour,beta,,,38,18,V,R,
258,6,6,6,2,53,27,466,['c'],1,left,['9'],5,97,[0.081582],100,53,easy,plus,dotcolour,beta,,,38,18,V,R,
259,7,7,6,2,27,53,866,['n'],1,right,['9'],5,219,[-0.08203625],99,53,easy,plus,dotcolour,beta,,,38,18,V,R,
260,8,8,6,2,53,27,883,['c'],1,left,['9'],5,120,[0.12484926],100,53,easy,plus,dotcolour,beta,,,38,18,V,R,
261,9,9,6,2,53,27,667,['c'],1,left,['9'],5,107,[0.05630118],100,53,easy,plus,dotcolour,beta,,,38,18,V,R,
262,10,10,6,2,36,44,800,['n'],1,right,['9'],5,167,[-0.03007939],98,44,hard,plus,dotcolour,beta,,,38,18,V,R,
263,11,11,6,2,44,36,1116,['c'],1,left,['9'],5,198,[0.12549035],100,44,hard,plus,dotcolour,beta,,,38,18,V,R,
264,12,12,6,2,36,44,784,['c'],0,right,['9'],5,103,[0.0934247],100,44,hard,plus,dotcolour,beta,,,38,18,V,R,
265,13,13,6,2,47,33,650,['c'],1,left,['9'],5,115,[0.06868809],100,47,medium,plus,dotcolour,beta,,,38,18,V,R,
266,14,14,6,2,44,36,416,['n'],0,left,['9'],5,263,[0.02791295],73,44,hard,plus,dotcolour,beta,,,38,18,V,R,
267,15,15,6,2,36,44,766,['c'],0,right,['9'],5,103,[0.03459813],99,44,hard,plus,dotcolour,beta,,,38,18,V,R,
268,16,16,6,2,53,27,867,['c'],1,left,['0'],6,289,[0.02127103],93,53,easy,plus,dotcolour,beta,,,38,18,V,R,
269,17,17,6,2,53,27,650,['c'],1,left,['0'],6,205,[0.1101609],100,53,easy,plus,dotcolour,beta,,,38,18,V,R,
270,18,18,6,2,33,47,933,['n'],1,right,['8'],4,465,[-0.00137833],82,47,medium,plus,dotcolour,beta,,,38,18,V,R,
271,19,19,6,2,33,47,950,['n'],1,right,['9'],5,346,[-0.02590083],92,47,medium,plus,dotcolour,beta,,,38,18,V,R,
272,20,20,6,2,44,36,1400,['c'],1,left,['3'],3,685,[0.24253879],100,44,hard,plus,dotcolour,beta,,,38,18,V,R,
273,21,21,6,2,36,44,1333,['c'],0,right,['8'],4,357,[-0.00731188],81,44,hard,plus,dotcolour,beta,,,38,18,V,R,
274,22,22,6,2,27,53,1167,['n'],1,right,['9'],5,225,[-0.08868378],100,53,easy,plus,dotcolour,beta,,,38,18,V,R,
275,23,23,6,2,27,53,784,['n'],1,right,['0'],6,362,[-0.11722442],99,53,easy,plus,dotcolour,beta,,,38,18,V,R,
276,24,24,6,2,44,36,916,['c'],1,left,['9'],5,265,[0.09803236],100,44,hard,plus,dotcolour,beta,,,38,18,V,R,
277,25,25,6,2,53,27,1534,['c'],1,left,['9'],5,545,[0.15010695],99,53,easy,plus,dotcolour,beta,,,38,18,V,R,
278,26,26,6,2,44,36,901,['c'],1,left,['9'],5,305,[0.06911742],98,44,hard,plus,dotcolour,beta,,,38,18,V,R,
279,27,27,6,2,36,44,767,['c'],0,right,['9'],5,103,[-0.00012547],96,44,hard,plus,dotcolour,beta,,,38,18,V,R,
280,28,28,6,2,47,33,633,['c'],1,left,['9'],5,115,[0.09150116],100,47,medium,plus,dotcolour,beta,,,38,18,V,R,
281,29,29,6,2,27,53,600,['n'],1,right,['9'],5,207,[-0.12690587],100,53,easy,plus,dotcolour,beta,,,38,18,V,R,
282,30,30,6,2,47,33,617,['c'],1,left,['9'],5,87,[0.0674071],100,47,medium,plus,dotcolour,beta,,,38,18,V,R,
283,31,31,6,2,36,44,983,['n'],1,right,['9'],5,238,[-0.12310563],100,44,hard,plus,dotcolour,beta,,,38,18,V,R,
284,32,32,6,2,27,53,600,['n'],1,right,['9'],5,134,[-0.0829064],100,53,easy,plus,dotcolour,beta,,,38,18,V,R,
285,33,33,6,2,27,53,467,['n'],1,right,['9'],5,119,[-0.07990772],100,53,easy,plus,dotcolour,beta,,,38,18,V,R,
286,34,34,6,2,33,47,417,['n'],1,right,['9'],5,131,[-0.06098797],100,47,medium,plus,dotcolour,beta,,,38,18,V,R,
287,35,35,6,2,47,33,700,['c'],1,left,['9'],5,187,[0.09625907],100,47,medium,plus,dotcolour,beta,,,38,18,V,R,
288,36,36,6,2,27,53,650,['n'],1,right,['9'],5,164,[-0.06100885],99,53,easy,plus,dotcolour,beta,,,38,18,V,R,
289,37,37,6,2,33,47,1317,['c'],0,right,['9'],5,563,[-0.12264276],17,47,medium,plus,dotcolour,beta,,,38,18,V,R,
290,38,38,6,2,47,33,917,['c'],1,left,['9'],5,112,[0.07080093],100,47,medium,plus,dotcolour,beta,,,38,18,V,R,
291,39,39,6,2,33,47,1333,['n'],1,right,['9'],5,159,[-0.05743269],99,47,medium,plus,dotcolour,beta,,,38,18,V,R,
292,40,40,6,2,33,47,1201,['n'],1,right,['0'],6,137,[-0.05396897],100,47,medium,plus,dotcolour,beta,,,38,18,V,R,
293,41,41,6,2,53,27,917,['c'],1,left,['0'],6,113,[0.08224136],100,53,easy,plus,dotcolour,beta,,,38,18,V,R,
294,42,0,7,2,47,33,1118,['c'],1,left,['0'],6,149,[0.11531203],100,47,medium,plus,dotcolour,beta,,,38,18,V,R,
295,43,1,7,2,47,33,700,['c'],1,left,['0'],6,164,[0.10835467],100,47,medium,plus,dotcolour,beta,,,38,18,V,R,
296,44,2,7,2,53,27,767,['c'],1,left,['0'],6,137,[0.16528409],100,53,easy,plus,dotcolour,beta,,,38,18,V,R,
297,45,3,7,2,47,33,550,['c'],1,left,['0'],6,110,[0.11279677],100,47,medium,plus,dotcolour,beta,,,38,18,V,R,
298,46,4,7,2,36,44,700,['n'],1,right,['0'],6,191,[-0.147823],100,44,hard,plus,dotcolour,beta,,,38,18,V,R,
299,47,5,7,2,53,27,600,['n'],0,left,['0'],6,201,[-0.02404701],96,53,easy,plus,dotcolour,beta,,,38,18,V,R,
300,48,6,7,2,36,44,817,['n'],1,right,['0'],6,176,[-0.15213623],100,44,hard,plus,dotcolour,beta,,,38,18,V,R,
301,49,7,7,2,44,36,617,['c'],1,left,['9'],5,162,[0.11449208],100,44,hard,plus,dotcolour,beta,,,38,18,V,R,
302,50,8,7,2,44,36,566,['c'],1,left,['9'],5,150,[-0.0009613],93,44,hard,plus,dotcolour,beta,,,38,18,V,R,
303,51,9,7,2,53,27,699,['c'],1,left,['0'],6,173,[0.08302626],100,53,easy,plus,dotcolour,beta,,,38,18,V,R,
304,52,10,7,2,27,53,417,['c'],0,right,['1'],1,1303,[-0.36621252],1,53,easy,plus,dotcolour,beta,,,38,18,V,R,
305,53,11,7,2,47,33,1167,['c'],1,left,['0'],6,309,[0.12049282],100,47,medium,plus,dotcolour,beta,,,38,18,V,R,
306,54,12,7,2,27,53,683,['n'],1,right,['0'],6,190,[-0.13963617],100,53,easy,plus,dotcolour,beta,,,38,18,V,R,
307,55,13,7,2,33,47,1750,['n'],1,right,['8'],4,369,[-0.14238994],100,47,medium,plus,dotcolour,beta,,,38,18,V,R,
308,56,14,7,2,44,36,1084,['c'],1,left,['8'],4,137,[0.09962511],100,44,hard,plus,dotcolour,beta,,,38,18,V,R,
309,57,15,7,2,33,47,950,['n'],1,right,['9'],5,335,[-0.09599623],99,47,medium,plus,dotcolour,beta,,,38,18,V,R,
310,58,16,7,2,47,33,884,['c'],1,left,['9'],5,167,[0.0626394],99,47,medium,plus,dotcolour,beta,,,38,18,V,R,
311,59,17,7,2,44,36,1366,['c'],1,left,['8'],4,379,[0.11196225],99,44,hard,plus,dotcolour,beta,,,38,18,V,R,
312,60,18,7,2,27,53,918,['n'],1,right,['0'],6,193,[-0.09348427],100,53,easy,plus,dotcolour,beta,,,38,18,V,R,
313,61,19,7,2,33,47,700,['c'],0,right,['8'],4,254,[0.10442846],100,47,medium,plus,dotcolour,beta,,,38,18,V,R,
314,62,20,7,2,36,44,1316,['c'],0,right,['9'],5,97,[0.03973806],100,44,hard,plus,dotcolour,beta,,,38,18,V,R,
315,63,21,7,2,44,36,684,['c'],1,left,['9'],5,243,[0.12023652],100,44,hard,plus,dotcolour,beta,,,38,18,V,R,
316,64,22,7,2,53,27,933,['c'],1,left,['9'],5,389,[0.12393678],99,53,easy,plus,dotcolour,beta,,,38,18,V,R,
317,65,23,7,2,33,47,833,['c'],0,right,['9'],5,141,[0.05463987],99,47,medium,plus,dotcolour,beta,,,38,18,V,R,
318,66,24,7,2,47,33,817,['c'],1,left,['9'],5,160,[0.11612373],100,47,medium,plus,dotcolour,beta,,,38,18,V,R,
319,67,25,7,2,53,27,766,['c'],1,left,['9'],5,180,[0.16668392],100,53,easy,plus,dotcolour,beta,,,38,18,V,R,
320,68,26,7,2,33,47,934,['c'],0,right,['9'],5,105,[0.08115572],100,47,medium,plus,dotcolour,beta,,,38,18,V,R,
321,69,27,7,2,27,53,751,['n'],1,right,['9'],5,144,[-0.135564],100,53,easy,plus,dotcolour,beta,,,38,18,V,R,
322,70,28,7,2,36,44,600,['n'],1,right,['9'],5,139,[-0.05396489],99,44,hard,plus,dotcolour,beta,,,38,18,V,R,
323,71,29,7,2,36,44,716,['n'],1,right,['9'],5,75,[-0.04492476],100,44,hard,plus,dotcolour,beta,,,38,18,V,R,
324,72,30,7,2,44,36,784,['c'],1,left,['9'],5,177,[0.03159322],98,44,hard,plus,dotcolour,beta,,,38,18,V,R,
325,73,31,7,2,47,33,833,['c'],1,left,['9'],5,99,[0.11600287],100,47,medium,plus,dotcolour,beta,,,38,18,V,R,
326,74,32,7,2,53,27,533,['c'],1,left,['9'],5,98,[0.08038687],100,53,easy,plus,dotcolour,beta,,,38,18,V,R,
327,75,33,7,2,27,53,450,['c'],0,right,['3'],3,1238,[-0.12629323],24,53,easy,plus,dotcolour,beta,,,38,18,V,R,
328,76,34,7,2,36,44,1017,['n'],1,right,['9'],5,180,[-0.05151542],99,44,hard,plus,dotcolour,beta,,,38,18,V,R,
329,77,35,7,2,36,44,883,['c'],0,right,['9'],5,115,[0.06182004],100,44,hard,plus,dotcolour,beta,,,38,18,V,R,
330,78,36,7,2,53,27,683,['c'],1,left,['9'],5,140,[0.11341699],100,53,easy,plus,dotcolour,beta,,,38,18,V,R,
331,79,37,7,2,33,47,1150,['c'],0,right,['3'],3,345,[0.04115652],95,47,medium,plus,dotcolour,beta,,,38,18,V,R,
332,80,38,7,2,44,36,884,['c'],1,left,['9'],5,130,[0.04242535],99,44,hard,plus,dotcolour,beta,,,38,18,V,R,
333,81,39,7,2,33,47,750,['n'],1,right,['9'],5,167,[-0.07973167],100,47,medium,plus,dotcolour,beta,,,38,18,V,R,
334,82,40,7,2,27,53,717,['n'],1,right,['9'],5,214,[-0.16698834],100,53,easy,plus,dotcolour,beta,,,38,18,V,R,
335,83,41,7,2,27,53,550,['n'],1,right,['9'],5,152,[-0.12505259],100,53,easy,plus,dotcolour,beta,,,38,18,V,R,
336,84,0,8,2,53,27,750,['c'],1,left,['9'],5,206,[0.08908253],100,53,easy,plus,dotcolour,beta,,,38,18,V,R,
337,85,1,8,2,44,36,684,['c'],1,left,['9'],5,44,[0.07700057],100,44,hard,plus,dotcolour,beta,,,38,18,V,R,
338,86,2,8,2,53,27,418,['c'],1,left,['9'],5,99,[0.13466199],100,53,easy,plus,dotcolour,beta,,,38,18,V,R,
339,87,3,8,2,33,47,800,['c'],0,right,['8'],4,400,[0.1392926],100,47,medium,plus,dotcolour,beta,,,38,18,V,R,
340,88,4,8,2,27,53,416,['n'],1,right,['9'],5,225,[-0.05102941],98,53,easy,plus,dotcolour,beta,,,38,18,V,R,
341,89,5,8,2,47,33,768,['c'],1,left,['9'],5,147,[0.08352429],100,47,medium,plus,dotcolour,beta,,,38,18,V,R,
342,90,6,8,2,36,44,566,['n'],1,right,['9'],5,118,[-0.10887152],100,44,hard,plus,dotcolour,beta,,,38,18,V,R,
343,91,7,8,2,36,44,650,['n'],1,right,['9'],5,105,[-0.09559105],100,44,hard,plus,dotcolour,beta,,,38,18,V,R,
344,92,8,8,2,33,47,567,['c'],0,right,['9'],5,64,[0.08447788],100,47,medium,plus,dotcolour,beta,,,38,18,V,R,
345,93,9,8,2,33,47,584,['n'],1,right,['9'],5,111,[-0.1173767],100,47,medium,plus,dotcolour,beta,,,38,18,V,R,
346,94,10,8,2,53,27,717,['c'],1,left,['9'],5,279,[0.00207999],88,53,easy,plus,dotcolour,beta,,,38,18,V,R,
347,95,11,8,2,44,36,1033,['c'],1,left,['9'],5,84,[0.07788313],100,44,hard,plus,dotcolour,beta,,,38,18,V,R,
348,96,12,8,2,53,27,850,['c'],1,left,['0'],6,152,[0.08313714],100,53,easy,plus,dotcolour,beta,,,38,18,V,R,
349,97,13,8,2,27,53,900,['n'],1,right,['9'],5,335,[-0.12187673],100,53,easy,plus,dotcolour,beta,,,38,18,V,R,
350,98,14,8,2,53,27,650,['c'],1,left,['9'],5,137,[0.07161019],100,53,easy,plus,dotcolour,beta,,,38,18,V,R,
351,99,15,8,2,33,47,1649,['c'],0,right,['8'],4,572,[0.02037026],86,47,medium,plus,dotcolour,beta,,,38,18,V,R,
352,100,16,8,2,36,44,751,['c'],0,right,['9'],5,88,[0.0934022],100,44,hard,plus,dotcolour,beta,,,38,18,V,R,
353,101,17,8,2,33,47,1250,['c'],0,right,['3'],3,260,[-0.00081244],87,47,medium,plus,dotcolour,beta,,,38,18,V,R,
354,102,18,8,2,47,33,867,['c'],1,left,['8'],4,264,[0.14145715],100,47,medium,plus,dotcolour,beta,,,38,18,V,R,
355,103,19,8,2,47,33,734,['c'],1,left,['9'],5,81,[0.07909361],100,47,medium,plus,dotcolour,beta,,,38,18,V,R,
356,104,20,8,2,36,44,834,['c'],0,right,['9'],5,6,[0.06531024],100,44,hard,plus,dotcolour,beta,,,38,18,V,R,
357,105,21,8,2,44,36,550,['c'],1,left,['9'],5,49,[0.05928777],100,44,hard,plus,dotcolour,beta,,,38,18,V,R,
358,106,22,8,2,44,36,567,['c'],1,left,['9'],5,17,[0.08058311],100,44,hard,plus,dotcolour,beta,,,38,18,V,R,
359,107,23,8,2,27,53,967,['n'],1,right,['9'],5,116,[-0.12783567],100,53,easy,plus,dotcolour,beta,,,38,18,V,R,
360,108,24,8,2,47,33,701,['c'],1,left,['9'],5,172,[0.01626159],96,47,medium,plus,dotcolour,beta,,,38,18,V,R,
361,109,25,8,2,47,33,633,['c'],1,left,['9'],5,46,[0.07358144],100,47,medium,plus,dotcolour,beta,,,38,18,V,R,
362,110,26,8,2,27,53,1167,['n'],1,right,['9'],5,134,[-0.0242792],98,53,easy,plus,dotcolour,beta,,,38,18,V,R,
363,111,27,8,2,36,44,718,['c'],0,right,['9'],5,54,[0.0567442],100,44,hard,plus,dotcolour,beta,,,38,18,V,R,
364,112,28,8,2,27,53,350,['n'],1,right,['9'],5,119,[-0.10489058],100,53,easy,plus,dotcolour,beta,,,38,18,V,R,
365,113,29,8,2,36,44,1168,['c'],0,right,['8'],4,285,[0.08280381],99,44,hard,plus,dotcolour,beta,,,38,18,V,R,
366,114,30,8,2,53,27,734,['c'],1,left,['9'],5,142,[0.05393059],99,53,easy,plus,dotcolour,beta,,,38,18,V,R,
367,115,31,8,2,53,27,550,['c'],1,left,['0'],6,139,[0.1770513],100,53,easy,plus,dotcolour,beta,,,38,18,V,R,
368,116,32,8,2,33,47,950,['n'],1,right,['9'],5,113,[-0.07323424],100,47,medium,plus,dotcolour,beta,,,38,18,V,R,
369,117,33,8,2,27,53,2716,['c'],0,right,['9'],5,177,[0.04507592],99,53,easy,plus,dotcolour,beta,,,38,18,V,R,
370,118,34,8,2,47,33,1116,['c'],1,left,['8'],4,127,[0.07937789],100,47,medium,plus,dotcolour,beta,,,38,18,V,R,
371,119,35,8,2,44,36,1117,['c'],1,left,['9'],5,30,[0.0638816],100,44,hard,plus,dotcolour,beta,,,38,18,V,R,
372,120,36,8,2,44,36,1018,['c'],1,left,['8'],4,125,[0.0481888],99,44,hard,plus,dotcolour,beta,,,38,18,V,R,
373,121,37,8,2,33,47,883,['n'],1,right,['9'],5,126,[-0.05025136],100,47,medium,plus,dotcolour,beta,,,38,18,V,R,
374,122,38,8,2,27,53,500,['n'],1,right,['9'],5,62,[-0.06575601],100,53,easy,plus,dotcolour,beta,,,38,18,V,R,
375,123,39,8,2,44,36,850,['c'],1,left,['9'],5,179,[0.11214045],100,44,hard,plus,dotcolour,beta,,,38,18,V,R,
376,124,40,8,2,47,33,884,['n'],0,left,['9'],5,258,[-0.0195929],93,47,medium,plus,dotcolour,beta,,,38,18,V,R,
377,125,41,8,2,36,44,1300,['c'],0,right,['9'],5,76,[0.04971511],100,44,hard,plus,dotcolour,beta,,,38,18,V,R,
378,0,0,9,3,27,53,785,['n'],1,right,['9'],5,111,[-0.06007267],56,53,easy,minus,dotcolour,beta,,,38,18,V,R,
379,1,1,9,3,47,33,1399,['c'],1,left,['9'],5,492,[0.14687603],91,47,medium,minus,dotcolour,beta,,,38,18,V,R,
380,2,2,9,3,53,27,1367,['c'],1,left,['9'],5,146,[0.0865009],81,53,easy,minus,dotcolour,beta,,,38,18,V,R,
381,3,3,9,3,36,44,1200,['c'],0,right,['9'],5,141,[0.10906894],93,44,hard,minus,dotcolour,beta,,,38,18,V,R,
382,4,4,9,3,47,33,667,['c'],1,left,['9'],5,110,[0.1038223],93,47,medium,minus,dotcolour,beta,,,38,18,V,R,
383,5,5,9,3,44,36,1367,['c'],1,left,['9'],5,116,[0.10205777],92,44,hard,minus,dotcolour,beta,,,38,18,V,R,
384,6,6,9,3,33,47,750,['c'],0,right,['9'],5,139,[0.12631727],97,47,medium,minus,dotcolour,beta,,,38,18,V,R,
385,7,7,9,3,47,33,800,['n'],0,left,['9'],5,71,[-0.08119904],85,47,medium,minus,dotcolour,beta,,,38,18,V,R,
386,8,8,9,3,33,47,633,['n'],1,right,['9'],5,52,[-0.05818066],55,47,medium,minus,dotcolour,beta,,,38,18,V,R,
387,9,9,9,3,44,36,700,['c'],1,left,['9'],5,96,[0.13492831],99,44,hard,minus,dotcolour,beta,,,38,18,V,R,
388,10,10,9,3,47,33,1482,['c'],1,left,['9'],5,89,[0.07642224],78,47,medium,minus,dotcolour,beta,,,38,18,V,R,
389,11,11,9,3,36,44,799,['c'],0,right,['9'],5,95,[0.04217853],31,44,hard,minus,dotcolour,beta,,,38,18,V,R,
390,12,12,9,3,47,33,1299,['c'],1,left,['8'],4,136,[0.18710169],100,47,medium,minus,dotcolour,beta,,,38,18,V,R,
391,13,13,9,3,27,53,766,['c'],0,right,['0'],6,254,[0.08144222],72,53,easy,minus,dotcolour,beta,,,38,18,V,R,
392,14,14,9,3,44,36,850,['c'],1,left,['9'],5,259,[0.0981503],82,44,hard,minus,dotcolour,beta,,,38,18,V,R,
393,15,15,9,3,44,36,1000,['c'],1,left,['9'],5,186,[0.01609575],16,44,hard,minus,dotcolour,beta,,,38,18,V,R,
394,16,16,9,3,33,47,616,['n'],1,right,['0'],6,140,[-0.09265038],86,47,medium,minus,dotcolour,beta,,,38,18,V,R,
395,17,17,9,3,53,27,734,['c'],1,left,['8'],4,138,[0.0364267],28,53,easy,minus,dotcolour,beta,,,38,18,V,R,
396,18,18,9,3,33,47,1150,['n'],1,right,['9'],5,200,[-0.09954596],85,47,medium,minus,dotcolour,beta,,,38,18,V,R,
397,19,19,9,3,33,47,717,['n'],1,right,['9'],5,334,[-0.20026882],99,47,medium,minus,dotcolour,beta,,,38,18,V,R,
398,20,20,9,3,33,47,601,['n'],1,right,['9'],5,130,[-0.0685089],66,47,medium,minus,dotcolour,beta,,,38,18,V,R,
399,21,21,9,3,53,27,683,['c'],1,left,['8'],4,145,[0.07662423],73,53,easy,minus,dotcolour,beta,,,38,18,V,R,
400,22,22,9,3,27,53,767,['c'],0,right,['3'],3,1158,[0.03025697],40,53,easy,minus,dotcolour,beta,,,38,18,V,R,
401,23,23,9,3,27,53,800,['n'],1,right,['9'],5,201,[-0.04616599],41,53,easy,minus,dotcolour,beta,,,38,18,V,R,
402,24,24,9,3,27,53,1133,['n'],1,right,['9'],5,158,[-0.03377035],27,53,easy,minus,dotcolour,beta,,,38,18,V,R,
403,25,25,9,3,53,27,684,['c'],1,left,['9'],5,156,[0.0197959],16,53,easy,minus,dotcolour,beta,,,38,18,V,R,
404,26,26,9,3,44,36,1634,['c'],1,left,['9'],5,158,[0.06196666],57,44,hard,minus,dotcolour,beta,,,38,18,V,R,
405,27,27,9,3,36,44,667,['n'],1,right,['9'],5,110,[-0.11285547],96,44,hard,minus,dotcolour,beta,,,38,18,V,R,
406,28,28,9,3,53,27,600,['c'],1,left,['9'],5,90,[0.10830367],96,53,easy,minus,dotcolour,beta,,,38,18,V,R,
407,29,29,9,3,36,44,1367,['c'],0,right,['9'],5,114,[0.06366032],61,44,hard,minus,dotcolour,beta,,,38,18,V,R,
408,30,30,9,3,33,47,617,['n'],1,right,['9'],5,117,[-0.07178142],70,47,medium,minus,dotcolour,beta,,,38,18,V,R,
409,31,31,9,3,44,36,900,['c'],1,left,['9'],5,126,[0.12659804],97,44,hard,minus,dotcolour,beta,,,38,18,V,R,
410,32,32,9,3,47,33,951,['c'],1,left,['9'],5,28,[0.07838743],92,47,medium,minus,dotcolour,beta,,,38,18,V,R,
411,33,33,9,3,53,27,767,['c'],1,left,['9'],5,101,[0.0861444],85,53,easy,minus,dotcolour,beta,,,38,18,V,R,
412,34,34,9,3,27,53,816,['n'],1,right,['9'],5,90,[-0.07448702],76,53,easy,minus,dotcolour,beta,,,38,18,V,R,
413,35,35,9,3,53,27,583,['c'],1,left,['9'],5,88,[0.12576081],99,53,easy,minus,dotcolour,beta,,,38,18,V,R,
414,36,36,9,3,44,36,617,['c'],1,left,['9'],5,85,[0.10156547],94,44,hard,minus,dotcolour,beta,,,38,18,V,R,
415,37,37,9,3,27,53,801,['n'],1,right,['9'],5,116,[-0.09743442],90,53,easy,minus,dotcolour,beta,,,38,18,V,R,
416,38,38,9,3,47,33,649,['c'],1,left,['9'],5,174,[0.09777327],86,47,medium,minus,dotcolour,beta,,,38,18,V,R,
417,39,39,9,3,36,44,884,['n'],1,right,['9'],5,141,[-0.12117729],96,44,hard,minus,dotcolour,beta,,,38,18,V,R,
418,40,40,9,3,36,44,1183,['n'],1,right,['0'],6,97,[-0.11282705],96,44,hard,minus,dotcolour,beta,,,38,18,V,R,
419,41,41,9,3,36,44,650,['c'],0,right,['9'],5,68,[0.06126275],60,44,hard,minus,dotcolour,beta,,,38,18,V,R,
420,42,0,10,3,53,27,682,['c'],1,left,['9'],5,143,[0.15481394],99,53,easy,minus,dotcolour,beta,,,38,18,V,R,
421,43,1,10,3,33,47,849,['n'],1,right,['9'],5,64,[-0.07039049],74,47,medium,minus,dotcolour,beta,,,38,18,V,R,
422,44,2,10,3,47,33,751,['c'],1,left,['9'],5,65,[0.0473288],36,47,medium,minus,dotcolour,beta,,,38,18,V,R,
423,45,3,10,3,27,53,817,['n'],1,right,['9'],5,143,[-0.17351479],100,53,easy,minus,dotcolour,beta,,,38,18,V,R,
424,46,4,10,3,53,27,684,['c'],1,left,['9'],5,135,[0.04788336],41,53,easy,minus,dotcolour,beta,,,38,18,V,R,
425,47,5,10,3,44,36,967,['n'],0,left,['9'],5,1156,[0.02059872],22,44,hard,minus,dotcolour,beta,,,38,18,V,R,
426,48,6,10,3,36,44,1067,['c'],0,right,['9'],5,116,[0.05554913],50,44,hard,minus,dotcolour,beta,,,38,18,V,R,
427,49,7,10,3,33,47,1150,['n'],1,right,['8'],4,115,[-0.0350641],25,47,medium,minus,dotcolour,beta,,,38,18,V,R,
428,50,8,10,3,36,44,1166,['c'],0,right,['8'],4,74,[0.02419613],11,44,hard,minus,dotcolour,beta,,,38,18,V,R,
429,51,9,10,3,44,36,884,['c'],1,left,['8'],4,156,[0.03493995],28,44,hard,minus,dotcolour,beta,,,38,18,V,R,
430,52,10,10,3,36,44,1449,['c'],0,right,['8'],4,221,[0.01987216],20,44,hard,minus,dotcolour,beta,,,38,18,V,R,
431,53,11,10,3,27,53,784,['n'],1,right,['9'],5,62,[-0.06402336],65,53,easy,minus,dotcolour,beta,,,38,18,V,R,
432,54,12,10,3,27,53,532,['n'],1,right,['9'],5,167,[-0.09823574],87,53,easy,minus,dotcolour,beta,,,38,18,V,R,
433,55,13,10,3,44,36,816,['c'],1,left,['8'],4,97,[0.06459121],63,44,hard,minus,dotcolour,beta,,,38,18,V,R,
434,56,14,10,3,27,53,600,['n'],1,right,['9'],5,87,[-0.13685481],99,53,easy,minus,dotcolour,beta,,,38,18,V,R,
435,57,15,10,3,47,33,701,['c'],1,left,['0'],6,193,[0.08706818],78,47,medium,minus,dotcolour,beta,,,38,18,V,R,
436,58,16,10,3,33,47,1533,['n'],1,right,['3'],3,557,[-0.08170038],65,47,medium,minus,dotcolour,beta,,,38,18,V,R,
437,59,17,10,3,44,36,1267,['c'],1,left,['8'],4,597,[-0.02189767],14,44,hard,minus,dotcolour,beta,,,38,18,V,R,
438,60,18,10,3,27,53,883,['n'],1,right,['8'],4,203,[-0.06098938],55,53,easy,minus,dotcolour,beta,,,38,18,V,R,
439,61,19,10,3,53,27,550,['c'],1,left,['9'],5,335,[0.24728689],100,53,easy,minus,dotcolour,beta,,,38,18,V,R,
440,62,20,10,3,53,27,517,['c'],1,left,['0'],6,334,[0.09026248],75,53,easy,minus,dotcolour,beta,,,38,18,V,R,
441,63,21,10,3,53,27,501,['c'],1,left,['0'],6,165,[0.0011081],8,53,easy,minus,dotcolour,beta,,,38,18,V,R,
442,64,22,10,3,47,33,1033,['c'],1,left,['9'],5,111,[0.06799459],66,47,medium,minus,dotcolour,beta,,,38,18,V,R,
443,65,23,10,3,47,33,916,['c'],1,left,['9'],5,103,[0.11160468],96,47,medium,minus,dotcolour,beta,,,38,18,V,R,
444,66,24,10,3,27,53,1032,['n'],1,right,['8'],4,124,[-0.10118588],91,53,easy,minus,dotcolour,beta,,,38,18,V,R,
445,67,25,10,3,44,36,582,['c'],1,left,['8'],4,96,[0.06712633],66,44,hard,minus,dotcolour,beta,,,38,18,V,R,
446,68,26,10,3,33,47,550,['c'],0,right,['9'],5,111,[0.02689736],18,47,medium,minus,dotcolour,beta,,,38,18,V,R,
447,69,27,10,3,47,33,483,['c'],1,left,['9'],5,97,[0.05627881],51,47,medium,minus,dotcolour,beta,,,38,18,V,R,
448,70,28,10,3,44,36,516,['c'],1,left,['9'],5,89,[0.06206141],60,44,hard,minus,dotcolour,beta,,,38,18,V,R,
449,71,29,10,3,33,47,934,['n'],1,right,['8'],4,178,[-0.1071137],90,47,medium,minus,dotcolour,beta,,,38,18,V,R,
450,72,30,10,3,44,36,650,['c'],1,left,['8'],4,106,[0.08369963],83,44,hard,minus,dotcolour,beta,,,38,18,V,R,
451,73,31,10,3,47,33,583,['c'],1,left,['8'],4,88,[0.12426688],98,47,medium,minus,dotcolour,beta,,,38,18,V,R,
452,74,32,10,3,47,33,400,['c'],1,left,['9'],5,94,[0.09271824],90,47,medium,minus,dotcolour,beta,,,38,18,V,R,
453,75,33,10,3,36,44,467,['c'],0,right,['9'],5,129,[0.0742402],72,44,hard,minus,dotcolour,beta,,,38,18,V,R,
454,76,34,10,3,36,44,884,['c'],0,right,['8'],4,113,[0.03544405],25,44,hard,minus,dotcolour,beta,,,38,18,V,R,
455,77,35,10,3,36,44,750,['n'],1,right,['8'],4,144,[-0.07590315],72,44,hard,minus,dotcolour,beta,,,38,18,V,R,
456,78,36,10,3,36,44,1317,['c'],0,right,['8'],4,359,[0.02741632],30,44,hard,minus,dotcolour,beta,,,38,18,V,R,
457,79,37,10,3,27,53,983,['n'],1,right,['9'],5,147,[-0.14104584],98,53,easy,minus,dotcolour,beta,,,38,18,V,R,
458,80,38,10,3,33,47,983,['c'],0,right,['8'],4,111,[0.00352078],6,47,medium,minus,dotcolour,beta,,,38,18,V,R,
459,81,39,10,3,53,27,1250,['c'],1,left,['9'],5,305,[0.14655656],95,53,easy,minus,dotcolour,beta,,,38,18,V,R,
460,82,40,10,3,33,47,866,['n'],1,right,['8'],4,131,[-0.0434817],35,47,medium,minus,dotcolour,beta,,,38,18,V,R,
461,83,41,10,3,53,27,701,['c'],1,left,['8'],4,147,[0.14445751],98,53,easy,minus,dotcolour,beta,,,38,18,V,R,
462,84,0,11,3,44,36,784,['c'],1,left,['8'],4,104,[0.08440422],83,44,hard,minus,dotcolour,beta,,,38,18,V,R,
463,85,1,11,3,44,36,634,['c'],1,left,['8'],4,92,[0.08912925],88,44,hard,minus,dotcolour,beta,,,38,18,V,R,
464,86,2,11,3,36,44,867,['n'],1,right,['9'],5,111,[-0.02150585],14,44,hard,minus,dotcolour,beta,,,38,18,V,R,
465,87,3,11,3,44,36,599,['c'],1,left,['8'],4,108,[0.05883413],54,44,hard,minus,dotcolour,beta,,,38,18,V,R,
466,88,4,11,3,33,47,1050,['n'],1,right,['9'],5,110,[-0.06751321],66,47,medium,minus,dotcolour,beta,,,38,18,V,R,
467,89,5,11,3,27,53,1667,['n'],1,right,['9'],5,176,[-0.17403853],99,53,easy,minus,dotcolour,beta,,,38,18,V,R,
468,90,6,11,3,36,44,850,['n'],1,right,['9'],5,80,[-0.0438372],32,44,hard,minus,dotcolour,beta,,,38,18,V,R,
469,91,7,11,3,36,44,683,['c'],0,right,['8'],4,75,[0.0404196],27,44,hard,minus,dotcolour,beta,,,38,18,V,R,
470,92,8,11,3,33,47,633,['n'],1,right,['9'],5,72,[-0.05886534],56,47,medium,minus,dotcolour,beta,,,38,18,V,R,
471,93,9,11,3,44,36,616,['c'],1,left,['8'],4,127,[0.11268802],95,44,hard,minus,dotcolour,beta,,,38,18,V,R,
472,94,10,11,3,33,47,684,['n'],1,right,['9'],5,86,[-0.10453958],95,47,medium,minus,dotcolour,beta,,,38,18,V,R,
473,95,11,11,3,36,44,583,['c'],0,right,['8'],4,157,[0.08732156],81,44,hard,minus,dotcolour,beta,,,38,18,V,R,
474,96,12,11,3,36,44,568,['c'],0,right,['8'],4,106,[0.05607924],51,44,hard,minus,dotcolour,beta,,,38,18,V,R,
475,97,13,11,3,47,33,866,['c'],1,left,['8'],4,100,[0.03104052],20,47,medium,minus,dotcolour,beta,,,38,18,V,R,
476,98,14,11,3,33,47,717,['n'],1,right,['9'],5,5,[-0.083114],100,47,medium,minus,dotcolour,beta,,,38,18,V,R,
477,99,15,11,3,27,53,933,['n'],1,right,['0'],6,225,[-0.01890056],20,53,easy,minus,dotcolour,beta,,,38,18,V,R,
478,100,16,11,3,27,53,783,['n'],1,right,['0'],6,138,[-0.14300452],99,53,easy,minus,dotcolour,beta,,,38,18,V,R,
479,101,17,11,3,53,27,767,['c'],1,left,['8'],4,15,[0.06294242],75,53,easy,minus,dotcolour,beta,,,38,18,V,R,
480,102,18,11,3,44,36,634,['c'],1,left,['8'],4,46,[0.07663861],85,44,hard,minus,dotcolour,beta,,,38,18,V,R,
481,103,19,11,3,53,27,617,['c'],1,left,['8'],4,69,[0.08610302],89,53,easy,minus,dotcolour,beta,,,38,18,V,R,
482,104,20,11,3,53,27,534,['c'],1,left,['9'],5,94,[0.1027259],94,53,easy,minus,dotcolour,beta,,,38,18,V,R,
483,105,21,11,3,47,33,417,['c'],1,left,['0'],6,211,[0.05512414],50,47,medium,minus,dotcolour,beta,,,38,18,V,R,
484,106,22,11,3,36,44,867,['n'],1,right,['9'],5,137,[-0.11780065],95,44,hard,minus,dotcolour,beta,,,38,18,V,R,
485,107,23,11,3,33,47,751,['c'],0,right,['8'],4,103,[0.05302178],46,47,medium,minus,dotcolour,beta,,,38,18,V,R,
486,108,24,11,3,27,53,967,['n'],1,right,['9'],5,110,[-0.12788298],98,53,easy,minus,dotcolour,beta,,,38,18,V,R,
487,109,25,11,3,47,33,617,['c'],1,left,['8'],4,74,[0.07736538],81,47,medium,minus,dotcolour,beta,,,38,18,V,R,
488,110,26,11,3,27,53,933,['n'],1,right,['9'],5,114,[-0.07085409],69,53,easy,minus,dotcolour,beta,,,38,18,V,R,
489,111,27,11,3,33,47,534,['n'],1,right,['9'],5,82,[-0.02079449],10,47,medium,minus,dotcolour,beta,,,38,18,V,R,
490,112,28,11,3,33,47,617,['n'],1,right,['9'],5,87,[-0.07482079],76,47,medium,minus,dotcolour,beta,,,38,18,V,R,
491,113,29,11,3,53,27,500,['c'],1,left,['8'],4,113,[0.13279611],98,53,easy,minus,dotcolour,beta,,,38,18,V,R,
492,114,30,11,3,47,33,1033,['c'],1,left,['8'],4,204,[0.11281703],91,47,medium,minus,dotcolour,beta,,,38,18,V,R,
493,115,31,11,3,27,53,600,['n'],1,right,['9'],5,70,[-0.10620957],97,53,easy,minus,dotcolour,beta,,,38,18,V,R,
494,116,32,11,3,44,36,450,['c'],1,left,['9'],5,3,[0.06826604],98,44,hard,minus,dotcolour,beta,,,38,18,V,R,
495,117,33,11,3,47,33,466,['c'],1,left,['9'],5,57,[0.09961062],97,47,medium,minus,dotcolour,beta,,,38,18,V,R,
496,118,34,11,3,36,44,834,['n'],1,right,['9'],5,126,[-0.11337639],95,44,hard,minus,dotcolour,beta,,,38,18,V,R,
497,119,35,11,3,47,33,883,['c'],1,left,['0'],6,264,[0.0456042],41,47,medium,minus,dotcolour,beta,,,38,18,V,R,
498,120,36,11,3,53,27,634,['c'],1,left,['9'],5,92,[0.14768333],100,53,easy,minus,dotcolour,beta,,,38,18,V,R,
499,121,37,11,3,53,27,433,['c'],1,left,['0'],6,105,[0.13370987],99,53,easy,minus,dotcolour,beta,,,38,18,V,R,
500,122,38,11,3,47,33,484,['c'],1,left,['0'],6,59,[0.0843329],89,47,medium,minus,dotcolour,beta,,,38,18,V,R,
501,123,39,11,3,44,36,1317,['c'],1,left,['0'],6,117,[0.10227906],92,44,hard,minus,dotcolour,beta,,,38,18,V,R,
502,124,40,11,3,27,53,783,['n'],1,right,['9'],5,83,[-0.09891298],94,53,easy,minus,dotcolour,beta,,,38,18,V,R,
503,125,41,11,3,53,27,567,['c'],1,left,['9'],5,98,[0.09543989],91,53,easy,minus,dotcolour,beta,,,38,18,V,R,
504,0,0,12,4,44,36,833,['c'],1,left,['9'],5,71,[0.07623474],100,44,hard,plus,dotcolour,beta,,,38,18,V,R,
505,1,1,12,4,27,53,484,['n'],1,right,['9'],5,51,[-0.0715494],100,53,easy,plus,dotcolour,beta,,,38,18,V,R,
506,2,2,12,4,53,27,517,['c'],1,left,['9'],5,78,[0.07596889],100,53,easy,plus,dotcolour,beta,,,38,18,V,R,
507,3,3,12,4,33,47,717,['n'],1,right,['9'],5,103,[-0.05755256],100,47,medium,plus,dotcolour,beta,,,38,18,V,R,
508,4,4,12,4,53,27,550,['c'],1,left,['0'],6,62,[0.02947904],100,53,easy,plus,dotcolour,beta,,,38,18,V,R,
509,5,5,12,4,44,36,467,['c'],1,left,['0'],6,146,[0.08751544],100,44,hard,plus,dotcolour,beta,,,38,18,V,R,
510,6,6,12,4,53,27,499,['c'],1,left,['0'],6,49,[0.07810575],100,53,easy,plus,dotcolour,beta,,,38,18,V,R,
511,7,7,12,4,27,53,749,['n'],1,right,['0'],6,147,[-0.10926048],100,53,easy,plus,dotcolour,beta,,,38,18,V,R,
512,8,8,12,4,47,33,584,['c'],1,left,['0'],6,136,[0.07827835],100,47,medium,plus,dotcolour,beta,,,38,18,V,R,
513,9,9,12,4,33,47,767,['n'],1,right,['0'],6,100,[-0.03838227],100,47,medium,plus,dotcolour,beta,,,38,18,V,R,
514,10,10,12,4,47,33,733,['c'],1,left,['0'],6,85,[0.10474489],100,47,medium,plus,dotcolour,beta,,,38,18,V,R,
515,11,11,12,4,36,44,833,['n'],1,right,['9'],5,217,[-0.06737726],99,44,hard,plus,dotcolour,beta,,,38,18,V,R,
516,12,12,12,4,27,53,800,['n'],1,right,['9'],5,146,[0.01092422],89,53,easy,plus,dotcolour,beta,,,38,18,V,R,
517,13,13,12,4,36,44,500,['n'],1,right,['9'],5,73,[-0.05428257],100,44,hard,plus,dotcolour,beta,,,38,18,V,R,
518,14,14,12,4,33,47,517,['n'],1,right,['9'],5,91,[-0.06836509],100,47,medium,plus,dotcolour,beta,,,38,18,V,R,
519,15,15,12,4,47,33,516,['c'],1,left,['9'],5,148,[0.06837091],100,47,medium,plus,dotcolour,beta,,,38,18,V,R,
520,16,16,12,4,36,44,867,['n'],1,right,['8'],4,204,[-0.0693491],99,44,hard,plus,dotcolour,beta,,,38,18,V,R,
521,17,17,12,4,27,53,750,['c'],0,right,['8'],4,104,[0.0851703],100,53,easy,plus,dotcolour,beta,,,38,18,V,R,
522,18,18,12,4,33,47,500,['n'],1,right,['9'],5,121,[-0.05715185],100,47,medium,plus,dotcolour,beta,,,38,18,V,R,
523,19,19,12,4,36,44,734,['c'],0,right,['8'],4,120,[0.11742804],100,44,hard,plus,dotcolour,beta,,,38,18,V,R,
524,20,20,12,4,44,36,868,['c'],1,left,['8'],4,186,[0.16770131],100,44,hard,plus,dotcolour,beta,,,38,18,V,R,
525,21,21,12,4,27,53,566,['c'],0,right,['8'],4,1046,[0.06072372],89,53,easy,plus,dotcolour,beta,,,38,18,V,R,
526,22,22,12,4,36,44,549,['c'],0,right,['8'],4,112,[0.08432984],100,44,hard,plus,dotcolour,beta,,,38,18,V,R,
527,23,23,12,4,44,36,1083,['c'],1,left,['8'],4,129,[0.01569144],97,44,hard,plus,dotcolour,beta,,,38,18,V,R,
528,24,24,12,4,53,27,616,['c'],1,left,['8'],4,85,[0.01448952],99,53,easy,plus,dotcolour,beta,,,38,18,V,R,
529,25,25,12,4,33,47,850,['n'],1,right,['8'],4,161,[-0.13625554],100,47,medium,plus,dotcolour,beta,,,38,18,V,R,
530,26,26,12,4,44,36,666,['c'],1,left,['8'],4,105,[0.06483043],100,44,hard,plus,dotcolour,beta,,,38,18,V,R,
531,27,27,12,4,27,53,884,['n'],1,right,['9'],5,179,[-0.13263442],100,53,easy,plus,dotcolour,beta,,,38,18,V,R,
532,28,28,12,4,36,44,851,['c'],0,right,['8'],4,131,[0.04303943],99,44,hard,plus,dotcolour,beta,,,38,18,V,R,
533,29,29,12,4,47,33,617,['c'],1,left,['8'],4,134,[0.11799227],100,47,medium,plus,dotcolour,beta,,,38,18,V,R,
534,30,30,12,4,27,53,734,['n'],1,right,['9'],5,69,[-0.06638883],100,53,easy,plus,dotcolour,beta,,,38,18,V,R,
535,31,31,12,4,53,27,584,['c'],1,left,['8'],4,108,[0.12448464],100,53,easy,plus,dotcolour,beta,,,38,18,V,R,
536,32,32,12,4,33,47,801,['n'],1,right,['9'],5,137,[-0.10707885],100,47,medium,plus,dotcolour,beta,,,38,18,V,R,
537,33,33,12,4,44,36,934,['c'],1,left,['9'],5,96,[0.09044321],100,44,hard,plus,dotcolour,beta,,,38,18,V,R,
538,34,34,12,4,33,47,1133,['n'],1,right,['9'],5,104,[-0.06620831],100,47,medium,plus,dotcolour,beta,,,38,18,V,R,
539,35,35,12,4,47,33,1234,['n'],0,left,['9'],5,340,[-0.06324456],98,47,medium,plus,dotcolour,beta,,,38,18,V,R,
540,36,36,12,4,53,27,701,['c'],1,left,['9'],5,99,[0.08280056],100,53,easy,plus,dotcolour,beta,,,38,18,V,R,
541,37,37,12,4,47,33,600,['c'],1,left,['0'],6,152,[0.07733513],100,47,medium,plus,dotcolour,beta,,,38,18,V,R,
542,38,38,12,4,36,44,1234,['n'],1,right,['0'],6,114,[-0.07488136],100,44,hard,plus,dotcolour,beta,,,38,18,V,R,
543,39,39,12,4,44,36,1618,['c'],1,left,['8'],4,590,[0.12685107],99,44,hard,plus,dotcolour,beta,,,38,18,V,R,
544,40,40,12,4,47,33,1351,['n'],0,left,['9'],5,82,[-0.0682043],100,47,medium,plus,dotcolour,beta,,,38,18,V,R,
545,41,41,12,4,53,27,550,['c'],1,left,['9'],5,202,[0.08231846],100,53,easy,plus,dotcolour,beta,,,38,18,V,R,
546,42,0,13,4,33,47,851,['n'],1,right,['9'],5,184,[-0.11824135],100,47,medium,plus,dotcolour,beta,,,38,18,V,R,
547,43,1,13,4,27,53,650,['n'],1,right,['9'],5,65,[-0.0988351],100,53,easy,plus,dotcolour,beta,,,38,18,V,R,
548,44,2,13,4,33,47,1050,['n'],1,right,['9'],5,85,[-0.08403482],100,47,medium,plus,dotcolour,beta,,,38,18,V,R,
549,45,3,13,4,53,27,616,['c'],1,left,['9'],5,115,[0.09345235],100,53,easy,plus,dotcolour,beta,,,38,18,V,R,
550,46,4,13,4,53,27,450,['c'],1,left,['9'],5,61,[0.09111428],100,53,easy,plus,dotcolour,beta,,,38,18,V,R,
551,47,5,13,4,36,44,784,['n'],1,right,['9'],5,165,[-0.06983121],100,44,hard,plus,dotcolour,beta,,,38,18,V,R,
552,48,6,13,4,33,47,751,['n'],1,right,['9'],5,106,[-0.10511837],100,47,medium,plus,dotcolour,beta,,,38,18,V,R,
553,49,7,13,4,44,36,899,['c'],1,left,['9'],5,67,[0.07800954],100,44,hard,plus,dotcolour,beta,,,38,18,V,R,
554,50,8,13,4,53,27,650,['c'],1,left,['9'],5,31,[0.05340854],100,53,easy,plus,dotcolour,beta,,,38,18,V,R,
555,51,9,13,4,33,47,833,['n'],1,right,['9'],5,1005,[-0.3036207],100,47,medium,plus,dotcolour,beta,,,38,18,V,R,
556,52,10,13,4,47,33,632,['c'],1,left,['9'],5,53,[0.07483996],100,47,medium,plus,dotcolour,beta,,,38,18,V,R,
557,53,11,13,4,33,47,1032,['n'],1,right,['8'],4,115,[0.0263591],82,47,medium,plus,dotcolour,beta,,,38,18,V,R,
558,54,12,13,4,27,53,834,['n'],1,right,['9'],5,78,[-0.06512891],100,53,easy,plus,dotcolour,beta,,,38,18,V,R,
559,55,13,13,4,44,36,784,['c'],1,left,['0'],6,293,[0.12528826],100,44,hard,plus,dotcolour,beta,,,38,18,V,R,
560,56,14,13,4,53,27,702,['c'],1,left,['0'],6,150,[0.06431332],100,53,easy,plus,dotcolour,beta,,,38,18,V,R,
561,57,15,13,4,33,47,517,['c'],0,right,['0'],6,261,[0.03517862],96,47,medium,plus,dotcolour,beta,,,38,18,V,R,
562,58,16,13,4,27,53,533,['n'],1,right,['0'],6,111,[-0.06336048],100,53,easy,plus,dotcolour,beta,,,38,18,V,R,
563,59,17,13,4,47,33,733,['c'],1,left,['0'],6,158,[0.08587053],100,47,medium,plus,dotcolour,beta,,,38,18,V,R,
564,60,18,13,4,44,36,867,['c'],1,left,['0'],6,198,[0.05888831],99,44,hard,plus,dotcolour,beta,,,38,18,V,R,
565,61,19,13,4,47,33,1200,['c'],1,left,['0'],6,223,[0.04066637],98,47,medium,plus,dotcolour,beta,,,38,18,V,R,
566,62,20,13,4,44,36,1000,['c'],1,left,['8'],4,103,[0.0944346],100,44,hard,plus,dotcolour,beta,,,38,18,V,R,
567,63,21,13,4,27,53,850,['n'],1,right,['0'],6,155,[-0.11095396],100,53,easy,plus,dotcolour,beta,,,38,18,V,R,
568,64,22,13,4,53,27,717,['c'],1,left,['0'],6,185,[0.13445355],100,53,easy,plus,dotcolour,beta,,,38,18,V,R,
569,65,23,13,4,53,27,499,['c'],1,left,['0'],6,39,[0.10710718],100,53,easy,plus,dotcolour,beta,,,38,18,V,R,
570,66,24,13,4,36,44,1150,['n'],1,right,['9'],5,201,[-0.04100702],98,44,hard,plus,dotcolour,beta,,,38,18,V,R,
571,67,25,13,4,36,44,1016,['n'],1,right,['9'],5,202,[-0.10665734],100,44,hard,plus,dotcolour,beta,,,38,18,V,R,
572,68,26,13,4,27,53,917,['n'],1,right,['9'],5,30,[-0.05948013],100,53,easy,plus,dotcolour,beta,,,38,18,V,R,
573,69,27,13,4,47,33,583,['c'],1,left,['9'],5,47,[0.06133851],100,47,medium,plus,dotcolour,beta,,,38,18,V,R,
574,70,28,13,4,27,53,599,['n'],1,right,['9'],5,31,[-0.08922517],100,53,easy,plus,dotcolour,beta,,,38,18,V,R,
575,71,29,13,4,27,53,717,['n'],1,right,['9'],5,98,[-0.07124326],100,53,easy,plus,dotcolour,beta,,,38,18,V,R,
576,72,30,13,4,33,47,568,['c'],0,right,['9'],5,121,[0.06119488],100,47,medium,plus,dotcolour,beta,,,38,18,V,R,
577,73,31,13,4,36,44,883,['n'],1,right,['9'],5,131,[-0.06171759],100,44,hard,plus,dotcolour,beta,,,38,18,V,R,
578,74,32,13,4,44,36,916,['c'],1,left,['9'],5,898,[0.28180371],100,44,hard,plus,dotcolour,beta,,,38,18,V,R,
579,75,33,13,4,44,36,1684,['c'],1,left,['8'],4,212,[0.13495709],100,44,hard,plus,dotcolour,beta,,,38,18,V,R,
580,76,34,13,4,36,44,850,['n'],1,right,['9'],5,98,[-0.14043249],100,44,hard,plus,dotcolour,beta,,,38,18,V,R,
581,77,35,13,4,36,44,567,['n'],1,right,['9'],5,81,[-0.0342689],100,44,hard,plus,dotcolour,beta,,,38,18,V,R,
582,78,36,13,4,36,44,866,['c'],0,right,['8'],4,116,[0.05292927],100,44,hard,plus,dotcolour,beta,,,38,18,V,R,
583,79,37,13,4,53,27,949,['c'],1,left,['9'],5,108,[0.14796057],100,53,easy,plus,dotcolour,beta,,,38,18,V,R,
584,80,38,13,4,47,33,617,['c'],1,left,['8'],4,239,[0.12429635],100,47,medium,plus,dotcolour,beta,,,38,18,V,R,
585,81,39,13,4,47,33,533,['c'],1,left,['9'],5,50,[0.07852838],100,47,medium,plus,dotcolour,beta,,,38,18,V,R,
586,82,40,13,4,47,33,500,['c'],1,left,['9'],5,29,[0.08344876],100,47,medium,plus,dotcolour,beta,,,38,18,V,R,
587,83,41,13,4,44,36,766,['c'],1,left,['9'],5,30,[0.09541407],100,44,hard,plus,dotcolour,beta,,,38,18,V,R,
588,84,0,14,4,27,53,784,['n'],1,right,['9'],5,89,[-0.107942],100,53,easy,plus,dotcolour,beta,,,38,18,V,R,
589,85,1,14,4,53,27,516,['c'],1,left,['9'],5,91,[0.03592194],100,53,easy,plus,dotcolour,beta,,,38,18,V,R,
590,86,2,14,4,44,36,433,['c'],1,left,['9'],5,46,[0.05423844],100,44,hard,plus,dotcolour,beta,,,38,18,V,R,
591,87,3,14,4,33,47,501,['n'],1,right,['9'],5,74,[-0.09183912],100,47,medium,plus,dotcolour,beta,,,38,18,V,R,
592,88,4,14,4,44,36,767,['c'],1,left,['9'],5,41,[0.07805457],100,44,hard,plus,dotcolour,beta,,,38,18,V,R,
593,89,5,14,4,27,53,701,['n'],1,right,['9'],5,108,[-0.10367175],100,53,easy,plus,dotcolour,beta,,,38,18,V,R,
594,90,6,14,4,36,44,900,['c'],0,right,['9'],5,70,[0.08264109],100,44,hard,plus,dotcolour,beta,,,38,18,V,R,
595,91,7,14,4,44,36,734,['c'],1,left,['9'],5,55,[0.10159851],100,44,hard,plus,dotcolour,beta,,,38,18,V,R,
596,92,8,14,4,36,44,966,['c'],0,right,['3'],3,80,[0.09044372],100,44,hard,plus,dotcolour,beta,,,38,18,V,R,
597,93,9,14,4,36,44,651,['c'],0,right,['3'],3,84,[0.09872154],100,44,hard,plus,dotcolour,beta,,,38,18,V,R,
598,94,10,14,4,27,53,1034,['n'],1,right,['8'],4,144,[-0.09473148],100,53,easy,plus,dotcolour,beta,,,38,18,V,R,
599,95,11,14,4,44,36,1033,['c'],1,left,['8'],4,178,[0.11228758],100,44,hard,plus,dotcolour,beta,,,38,18,V,R,
600,96,12,14,4,36,44,917,['c'],0,right,['9'],5,144,[0.06563836],100,44,hard,plus,dotcolour,beta,,,38,18,V,R,
601,97,13,14,4,36,44,766,['n'],1,right,['9'],5,84,[-0.04410251],100,44,hard,plus,dotcolour,beta,,,38,18,V,R,
602,98,14,14,4,44,36,566,['n'],0,left,['9'],5,115,[-0.0730071],100,44,hard,plus,dotcolour,beta,,,38,18,V,R,
603,99,15,14,4,47,33,1249,['c'],1,left,['9'],5,327,[0.01365967],90,47,medium,plus,dotcolour,beta,,,38,18,V,R,
604,100,16,14,4,47,33,634,['c'],1,left,['9'],5,97,[0.07597573],100,47,medium,plus,dotcolour,beta,,,38,18,V,R,
605,101,17,14,4,44,36,433,['c'],1,left,['9'],5,301,[0.1599408],100,44,hard,plus,dotcolour,beta,,,38,18,V,R,
606,102,18,14,4,33,47,533,['c'],0,right,['9'],5,277,[0.03326346],95,47,medium,plus,dotcolour,beta,,,38,18,V,R,
607,103,19,14,4,53,27,684,['c'],1,left,['9'],5,80,[0.09679093],100,53,easy,plus,dotcolour,beta,,,38,18,V,R,
608,104,20,14,4,53,27,584,['c'],1,left,['0'],6,135,[0.09035737],100,53,easy,plus,dotcolour,beta,,,38,18,V,R,
609,105,21,14,4,27,53,1434,['n'],1,right,['0'],6,209,[-0.01590846],94,53,easy,plus,dotcolour,beta,,,38,18,V,R,
610,106,22,14,4,33,47,1033,['n'],1,right,['9'],5,112,[-0.04592014],100,47,medium,plus,dotcolour,beta,,,38,18,V,R,
611,107,23,14,4,53,27,733,['c'],1,left,['0'],6,80,[0.10968489],100,53,easy,plus,dotcolour,beta,,,38,18,V,R,
612,108,24,14,4,27,53,1100,['n'],1,right,['0'],6,282,[-0.13980351],100,53,easy,plus,dotcolour,beta,,,38,18,V,R,
613,109,25,14,4,53,27,733,['n'],0,left,['0'],6,283,[0.00256898],86,53,easy,plus,dotcolour,beta,,,38,18,V,R,
614,110,26,14,4,47,33,984,['c'],1,left,['8'],4,145,[0.07709299],100,47,medium,plus,dotcolour,beta,,,38,18,V,R,
615,111,27,14,4,47,33,550,['c'],1,left,['9'],5,119,[0.10831902],100,47,medium,plus,dotcolour,beta,,,38,18,V,R,
616,112,28,14,4,47,33,1818,['n'],0,left,['8'],4,339,[0.0183961],76,47,medium,plus,dotcolour,beta,,,38,18,V,R,
617,113,29,14,4,53,27,733,['c'],1,left,['0'],6,65,[0.09735593],100,53,easy,plus,dotcolour,beta,,,38,18,V,R,
618,114,30,14,4,27,53,917,['n'],1,right,['9'],5,203,[-0.04996804],99,53,easy,plus,dotcolour,beta,,,38,18,V,R,
619,115,31,14,4,53,27,650,['c'],1,left,['0'],6,130,[0.13736129],100,53,easy,plus,dotcolour,beta,,,38,18,V,R,
620,116,32,14,4,33,47,1300,['n'],1,right,['2'],2,147,[-0.09247682],100,47,medium,plus,dotcolour,beta,,,38,18,V,R,
621,117,33,14,4,33,47,699,['n'],1,right,['2'],2,146,[-0.0998224],100,47,medium,plus,dotcolour,beta,,,38,18,V,R,
622,118,34,14,4,36,44,1067,['c'],0,right,['8'],4,794,[0.03736149],87,44,hard,plus,dotcolour,beta,,,38,18,V,R,
623,119,35,14,4,33,47,816,['c'],0,right,['3'],3,1083,[-0.09819374],32,47,medium,plus,dotcolour,beta,,,38,18,V,R,
624,120,36,14,4,27,53,783,['n'],1,right,['9'],5,161,[-0.10763025],100,53,easy,plus,dotcolour,beta,,,38,18,V,R,
625,121,37,14,4,44,36,783,['c'],1,left,['9'],5,125,[0.04044095],99,44,hard,plus,dotcolour,beta,,,38,18,V,R,
626,122,38,14,4,47,33,683,['c'],1,left,['9'],5,126,[0.08729656],100,47,medium,plus,dotcolour,beta,,,38,18,V,R,
627,123,39,14,4,33,47,917,['n'],1,right,['8'],4,173,[-0.05866907],99,47,medium,plus,dotcolour,beta,,,38,18,V,R,
628,124,40,14,4,36,44,801,['n'],1,right,['8'],4,151,[-0.08597579],100,44,hard,plus,dotcolour,beta,,,38,18,V,R,
629,125,41,14,4,47,33,768,['c'],1,left,['8'],4,140,[0.13024396],100,47,medium,plus,dotcolour,beta,,,38,18,V,R,
630,0,0,15,5,36,44,983,['n'],1,right,['8'],4,105,[-0.06844086],67,44,hard,minus,dotcolour,beta,,,38,18,V,R,
631,1,1,15,5,27,53,583,['n'],1,right,['9'],5,87,[-0.06918481],70,53,easy,minus,dotcolour,beta,,,38,18,V,R,
632,2,2,15,5,36,44,1067,['n'],1,right,['9'],5,58,[-0.09958573],96,44,hard,minus,dotcolour,beta,,,38,18,V,R,
633,3,3,15,5,27,53,851,['n'],1,right,['8'],4,214,[-0.09647672],83,53,easy,minus,dotcolour,beta,,,38,18,V,R,
634,4,4,15,5,53,27,700,['c'],1,left,['8'],4,211,[0.07866923],71,53,easy,minus,dotcolour,beta,,,38,18,V,R,
635,5,5,15,5,36,44,733,['n'],1,right,['8'],4,167,[-0.12595675],96,44,hard,minus,dotcolour,beta,,,38,18,V,R,
636,6,6,15,5,53,27,634,['c'],1,left,['9'],5,152,[0.07086707],67,53,easy,minus,dotcolour,beta,,,38,18,V,R,
637,7,7,15,5,53,27,566,['c'],1,left,['9'],5,5,[0.06505283],92,53,easy,minus,dotcolour,beta,,,38,18,V,R,
638,8,8,15,5,47,33,450,['c'],1,left,['9'],5,116,[0.08600487],83,47,medium,minus,dotcolour,beta,,,38,18,V,R,
639,9,9,15,5,47,33,584,['c'],1,left,['8'],4,137,[0.06319518],59,47,medium,minus,dotcolour,beta,,,38,18,V,R,
640,10,10,15,5,44,36,951,['n'],0,left,['8'],4,103,[-0.05707164],52,44,hard,minus,dotcolour,beta,,,38,18,V,R,
641,11,11,15,5,33,47,801,['c'],0,right,['8'],4,205,[0.00652851],12,47,medium,minus,dotcolour,beta,,,38,18,V,R,
642,12,12,15,5,33,47,750,['c'],0,right,['8'],4,112,[-0.00677407],3,47,medium,minus,dotcolour,beta,,,38,18,V,R,
643,13,13,15,5,47,33,1533,['c'],1,left,['8'],4,263,[0.14123944],95,47,medium,minus,dotcolour,beta,,,38,18,V,R,
644,14,14,15,5,33,47,583,['n'],1,right,['8'],4,159,[-0.12964109],97,47,medium,minus,dotcolour,beta,,,38,18,V,R,
645,15,15,15,5,36,44,651,['n'],1,right,['8'],4,112,[-0.07839327],77,44,hard,minus,dotcolour,beta,,,38,18,V,R,
646,16,16,15,5,33,47,467,['n'],1,right,['8'],4,33,[-0.10262693],99,47,medium,minus,dotcolour,beta,,,38,18,V,R,
647,17,17,15,5,36,44,1049,['c'],0,right,['3'],3,631,[0.0828167],65,44,hard,minus,dotcolour,beta,,,38,18,V,R,
648,18,18,15,5,53,27,734,['c'],1,left,['9'],5,105,[0.11832511],97,53,easy,minus,dotcolour,beta,,,38,18,V,R,
649,19,19,15,5,27,53,783,['n'],1,right,['9'],5,88,[-0.12577818],99,53,easy,minus,dotcolour,beta,,,38,18,V,R,
650,20,20,15,5,47,33,601,['c'],1,left,['9'],5,150,[0.12272608],96,47,medium,minus,dotcolour,beta,,,38,18,V,R,
651,21,21,15,5,33,47,951,['n'],1,right,['9'],5,163,[-0.13884054],98,47,medium,minus,dotcolour,beta,,,38,18,V,R,
652,22,22,15,5,47,33,633,['c'],1,left,['9'],5,125,[0.0961544],89,47,medium,minus,dotcolour,beta,,,38,18,V,R,
653,23,23,15,5,44,36,800,['c'],1,left,['9'],5,848,[0.06198445],53,44,hard,minus,dotcolour,beta,,,38,18,V,R,
654,24,24,15,5,44,36,568,['c'],1,left,['9'],5,137,[0.02968014],22,44,hard,minus,dotcolour,beta,,,38,18,V,R,
655,25,25,15,5,47,33,616,['c'],1,left,['9'],5,133,[0.05551787],50,47,medium,minus,dotcolour,beta,,,38,18,V,R,
656,26,26,15,5,27,53,850,['n'],1,right,['9'],5,150,[-0.08092846],76,53,easy,minus,dotcolour,beta,,,38,18,V,R,
657,27,27,15,5,27,53,867,['n'],1,right,['9'],5,87,[-0.06421161],63,53,easy,minus,dotcolour,beta,,,38,18,V,R,
658,28,28,15,5,33,47,850,['c'],0,right,['8'],4,139,[0.05115322],45,47,medium,minus,dotcolour,beta,,,38,18,V,R,
659,29,29,15,5,44,36,1367,['c'],1,left,['8'],4,321,[0.17607819],98,44,hard,minus,dotcolour,beta,,,38,18,V,R,
660,30,30,15,5,44,36,817,['c'],1,left,['8'],4,140,[0.07840231],75,44,hard,minus,dotcolour,beta,,,38,18,V,R,
661,31,31,15,5,47,33,667,['c'],1,left,['8'],4,149,[0.06456242],60,47,medium,minus,dotcolour,beta,,,38,18,V,R,
662,32,32,15,5,44,36,784,['n'],0,left,['8'],4,306,[-0.08079441],69,44,hard,minus,dotcolour,beta,,,38,18,V,R,
663,33,33,15,5,44,36,850,['n'],0,left,['8'],4,84,[-0.06168143],59,44,hard,minus,dotcolour,beta,,,38,18,V,R,
664,34,34,15,5,36,44,700,['n'],1,right,['8'],4,94,[-0.05421655],48,44,hard,minus,dotcolour,beta,,,38,18,V,R,
665,35,35,15,5,53,27,683,['c'],1,left,['8'],4,96,[0.09260367],90,53,easy,minus,dotcolour,beta,,,38,18,V,R,
666,36,36,15,5,33,47,800,['n'],1,right,['9'],5,109,[-0.07872337],78,47,medium,minus,dotcolour,beta,,,38,18,V,R,
667,37,37,15,5,53,27,567,['c'],1,left,['9'],5,172,[0.07246215],68,53,easy,minus,dotcolour,beta,,,38,18,V,R,
668,38,38,15,5,36,44,1067,['n'],1,right,['9'],5,19,[-0.06285866],72,44,hard,minus,dotcolour,beta,,,38,18,V,R,
669,39,39,15,5,27,53,850,['n'],1,right,['0'],6,98,[-0.09955213],93,53,easy,minus,dotcolour,beta,,,38,18,V,R,
670,40,40,15,5,53,27,817,['c'],1,left,['0'],6,103,[0.04065631],30,53,easy,minus,dotcolour,beta,,,38,18,V,R,
671,41,41,15,5,27,53,767,['n'],1,right,['0'],6,86,[-0.06210849],60,53,easy,minus,dotcolour,beta,,,38,18,V,R,
672,42,0,16,5,47,33,784,['c'],1,left,['0'],6,133,[0.08176527],78,47,medium,minus,dotcolour,beta,,,38,18,V,R,
673,43,1,16,5,44,36,1050,['c'],1,left,['8'],4,248,[0.10293733],85,44,hard,minus,dotcolour,beta,,,38,18,V,R,
674,44,2,16,5,44,36,734,['c'],1,left,['8'],4,138,[0.00744957],9,44,hard,minus,dotcolour,beta,,,38,18,V,R,
675,45,3,16,5,44,36,583,['c'],1,left,['8'],4,70,[0.04683064],36,44,hard,minus,dotcolour,beta,,,38,18,V,R,
676,46,4,16,5,27,53,800,['n'],1,right,['9'],5,253,[-0.14445684],96,53,easy,minus,dotcolour,beta,,,38,18,V,R,
677,47,5,16,5,33,47,967,['c'],0,right,['8'],4,69,[0.07499831],79,47,medium,minus,dotcolour,beta,,,38,18,V,R,
678,48,6,16,5,36,44,517,['c'],0,right,['8'],4,64,[0.08199233],87,44,hard,minus,dotcolour,beta,,,38,18,V,R,
679,49,7,16,5,47,33,618,['c'],1,left,['8'],4,94,[0.04663652],37,47,medium,minus,dotcolour,beta,,,38,18,V,R,
680,50,8,16,5,53,27,767,['c'],1,left,['8'],4,77,[0.0978473],94,53,easy,minus,dotcolour,beta,,,38,18,V,R,
681,51,9,16,5,27,53,583,['n'],1,right,['9'],5,155,[-0.13261681],97,53,easy,minus,dotcolour,beta,,,38,18,V,R,
682,52,10,16,5,36,44,782,['n'],1,right,['9'],5,79,[-0.08907631],90,44,hard,minus,dotcolour,beta,,,38,18,V,R,
683,53,11,16,5,44,36,716,['c'],1,left,['9'],5,113,[0.09750166],90,44,hard,minus,dotcolour,beta,,,38,18,V,R,
684,54,12,16,5,27,53,617,['c'],0,right,['8'],4,685,[-0.05688694],8,53,easy,minus,dotcolour,beta,,,38,18,V,R,
685,55,13,16,5,44,36,833,['c'],1,left,['9'],5,97,[0.09295735],90,44,hard,minus,dotcolour,beta,,,38,18,V,R,
686,56,14,16,5,53,27,600,['c'],1,left,['9'],5,71,[0.05408959],48,53,easy,minus,dotcolour,beta,,,38,18,V,R,
687,57,15,16,5,53,27,433,['c'],1,left,['0'],6,76,[0.01818112],8,53,easy,minus,dotcolour,beta,,,38,18,V,R,
688,58,16,16,5,47,33,567,['c'],1,left,['0'],6,147,[6.91913336e-05],7,47,medium,minus,dotcolour,beta,,,38,18,V,R,
689,59,17,16,5,36,44,751,['n'],1,right,['9'],5,120,[-0.12332298],97,44,hard,minus,dotcolour,beta,,,38,18,V,R,
690,60,18,16,5,36,44,734,['c'],0,right,['9'],5,80,[0.08959698],90,44,hard,minus,dotcolour,beta,,,38,18,V,R,
691,61,19,16,5,47,33,767,['c'],1,left,['9'],5,136,[0.04015876],32,47,medium,minus,dotcolour,beta,,,38,18,V,R,
692,62,20,16,5,53,27,499,['c'],1,left,['0'],6,191,[0.13723097],97,53,easy,minus,dotcolour,beta,,,38,18,V,R,
693,63,21,16,5,33,47,667,['n'],1,right,['9'],5,94,[-0.12797715],99,47,medium,minus,dotcolour,beta,,,38,18,V,R,
694,64,22,16,5,27,53,501,['n'],1,right,['0'],6,183,[-0.10494847],89,53,easy,minus,dotcolour,beta,,,38,18,V,R,
695,65,23,16,5,27,53,984,['c'],0,right,['9'],5,298,[0.00490747],16,53,easy,minus,dotcolour,beta,,,38,18,V,R,
696,66,24,16,5,33,47,733,['c'],0,right,['9'],5,162,[0.06076421],56,47,medium,minus,dotcolour,beta,,,38,18,V,R,
697,67,25,16,5,53,27,1099,['c'],1,left,['0'],6,122,[0.13795366],99,53,easy,minus,dotcolour,beta,,,38,18,V,R,
698,68,26,16,5,47,33,883,['c'],1,left,['0'],6,90,[0.02095528],11,47,medium,minus,dotcolour,beta,,,38,18,V,R,
699,69,27,16,5,36,44,667,['c'],0,right,['9'],5,317,[0.02725461],29,44,hard,minus,dotcolour,beta,,,38,18,V,R,
700,70,28,16,5,33,47,800,['c'],0,right,['8'],4,130,[0.06993141],67,47,medium,minus,dotcolour,beta,,,38,18,V,R,
701,71,29,16,5,33,47,1567,['n'],1,right,['9'],5,399,[-0.09783395],77,47,medium,minus,dotcolour,beta,,,38,18,V,R,
702,72,30,16,5,53,27,616,['c'],1,left,['0'],6,96,[0.08188775],82,53,easy,minus,dotcolour,beta,,,38,18,V,R,
703,73,31,16,5,47,33,567,['c'],1,left,['0'],6,110,[0.09524776],90,47,medium,minus,dotcolour,beta,,,38,18,V,R,
704,74,32,16,5,44,36,917,['c'],1,left,['8'],4,214,[0.09443591],82,44,hard,minus,dotcolour,beta,,,38,18,V,R,
705,75,33,16,5,27,53,917,['n'],1,right,['9'],5,106,[-0.06975197],69,53,easy,minus,dotcolour,beta,,,38,18,V,R,
706,76,34,16,5,36,44,649,['c'],0,right,['9'],5,93,[0.0336938],22,44,hard,minus,dotcolour,beta,,,38,18,V,R,
707,77,35,16,5,36,44,585,['c'],0,right,['9'],5,195,[0.03664258],32,44,hard,minus,dotcolour,beta,,,38,18,V,R,
708,78,36,16,5,44,36,550,['n'],0,left,['9'],5,158,[-0.04396432],37,44,hard,minus,dotcolour,beta,,,38,18,V,R,
709,79,37,16,5,47,33,616,['c'],1,left,['9'],5,161,[0.05190231],46,47,medium,minus,dotcolour,beta,,,38,18,V,R,
710,80,38,16,5,27,53,816,['n'],1,right,['0'],6,131,[-0.1037289],92,53,easy,minus,dotcolour,beta,,,38,18,V,R,
711,81,39,16,5,33,47,750,['n'],1,right,['9'],5,145,[-0.09215865],85,47,medium,minus,dotcolour,beta,,,38,18,V,R,
712,82,40,16,5,53,27,1500,['c'],1,left,['0'],6,1016,[0.14373021],83,53,easy,minus,dotcolour,beta,,,38,18,V,R,
713,83,41,16,5,33,47,1434,['n'],1,right,['9'],5,95,[-0.07262557],73,47,medium,minus,dotcolour,beta,,,38,18,V,R,
714,84,0,17,5,44,36,1017,['c'],1,left,['8'],4,91,[0.05393746],48,44,hard,minus,dotcolour,beta,,,38,18,V,R,
715,85,1,17,5,53,27,501,['c'],1,left,['8'],4,117,[0.06765978],65,53,easy,minus,dotcolour,beta,,,38,18,V,R,
716,86,2,17,5,53,27,349,['c'],1,left,['8'],4,123,[0.09883204],90,53,easy,minus,dotcolour,beta,,,38,18,V,R,
717,87,3,17,5,33,47,400,['c'],0,right,['8'],4,608,[0.09884683],73,47,medium,minus,dotcolour,beta,,,38,18,V,R,
718,88,4,17,5,44,36,833,['c'],1,left,['9'],5,111,[0.10508815],94,44,hard,minus,dotcolour,beta,,,38,18,V,R,
719,89,5,17,5,47,33,1716,['c'],1,left,['9'],5,143,[0.08052291],77,47,medium,minus,dotcolour,beta,,,38,18,V,R,
720,90,6,17,5,27,53,484,['n'],1,right,['9'],5,151,[-0.08777202],82,53,easy,minus,dotcolour,beta,,,38,18,V,R,
721,91,7,17,5,47,33,550,['c'],1,left,['9'],5,92,[0.04264995],32,47,medium,minus,dotcolour,beta,,,38,18,V,R,
722,92,8,17,5,33,47,816,['n'],1,right,['9'],5,105,[-0.10021492],92,47,medium,minus,dotcolour,beta,,,38,18,V,R,
723,93,9,17,5,27,53,634,['c'],0,right,['8'],4,973,[0.22319464],96,53,easy,minus,dotcolour,beta,,,38,18,V,R,
724,94,10,17,5,44,36,1617,['c'],1,left,['8'],4,142,[0.10068907],90,44,hard,minus,dotcolour,beta,,,38,18,V,R,
725,95,11,17,5,36,44,900,['n'],1,right,['9'],5,102,[-0.09103125],88,44,hard,minus,dotcolour,beta,,,38,18,V,R,
726,96,12,17,5,44,36,816,['c'],1,left,['9'],5,59,[0.07049376],75,44,hard,minus,dotcolour,beta,,,38,18,V,R,
727,97,13,17,5,53,27,684,['c'],1,left,['9'],5,70,[0.09232811],92,53,easy,minus,dotcolour,beta,,,38,18,V,R,
728,98,14,17,5,36,44,899,['n'],1,right,['8'],4,192,[-0.0622385],57,44,hard,minus,dotcolour,beta,,,38,18,V,R,
729,99,15,17,5,44,36,1566,['n'],0,left,['9'],5,147,[-0.08474603],80,44,hard,minus,dotcolour,beta,,,38,18,V,R,
730,100,16,17,5,33,47,934,['n'],1,right,['9'],5,65,[-0.11414399],98,47,medium,minus,dotcolour,beta,,,38,18,V,R,
731,101,17,17,5,47,33,1284,['c'],1,left,['0'],6,285,[0.09557285],79,47,medium,minus,dotcolour,beta,,,38,18,V,R,
732,102,18,17,5,27,53,834,['n'],1,right,['9'],5,97,[-0.02014373],11,53,easy,minus,dotcolour,beta,,,38,18,V,R,
733,103,19,17,5,27,53,684,['n'],1,right,['0'],6,99,[-0.06261901],60,53,easy,minus,dotcolour,beta,,,38,18,V,R,
734,104,20,17,5,36,44,1100,['c'],0,right,['8'],4,189,[0.10249665],87,44,hard,minus,dotcolour,beta,,,38,18,V,R,
735,105,21,17,5,44,36,867,['c'],1,left,['8'],4,100,[0.12703234],98,44,hard,minus,dotcolour,beta,,,38,18,V,R,
736,106,22,17,5,53,27,717,['c'],1,left,['9'],5,181,[0.06605186],61,53,easy,minus,dotcolour,beta,,,38,18,V,R,
737,107,23,17,5,36,44,1000,['n'],1,right,['9'],5,303,[-0.11132892],86,44,hard,minus,dotcolour,beta,,,38,18,V,R,
738,108,24,17,5,47,33,1150,['c'],1,left,['9'],5,158,[0.09630291],86,47,medium,minus,dotcolour,beta,,,38,18,V,R,
739,109,25,17,5,27,53,1033,['n'],1,right,['9'],5,151,[-0.10109978],89,53,easy,minus,dotcolour,beta,,,38,18,V,R,
740,110,26,17,5,36,44,1317,['n'],1,right,['9'],5,110,[-0.06926249],68,44,hard,minus,dotcolour,beta,,,38,18,V,R,
741,111,27,17,5,36,44,718,['n'],1,right,['9'],5,22,[-0.08135445],96,44,hard,minus,dotcolour,beta,,,38,18,V,R,
742,112,28,17,5,47,33,1050,['c'],1,left,['9'],5,149,[0.11755616],95,47,medium,minus,dotcolour,beta,,,38,18,V,R,
743,113,29,17,5,44,36,1718,['c'],1,left,['9'],5,188,[0.0708253],65,44,hard,minus,dotcolour,beta,,,38,18,V,R,
744,114,30,17,5,47,33,1233,['c'],1,left,['9'],5,357,[0.12883762],90,47,medium,minus,dotcolour,beta,,,38,18,V,R,
745,115,31,17,5,33,47,850,['n'],1,right,['9'],5,158,[-0.09309402],85,47,medium,minus,dotcolour,beta,,,38,18,V,R,
746,116,32,17,5,53,27,768,['c'],1,left,['9'],5,113,[0.0975814],90,53,easy,minus,dotcolour,beta,,,38,18,V,R,
747,117,33,17,5,33,47,1084,['c'],0,right,['9'],5,155,[0.17642717],100,47,medium,minus,dotcolour,beta,,,38,18,V,R,
748,118,34,17,5,27,53,783,['n'],1,right,['9'],5,135,[-0.12215262],96,53,easy,minus,dotcolour,beta,,,38,18,V,R,
749,119,35,17,5,33,47,667,['n'],1,right,['9'],5,128,[-0.06946511],67,47,medium,minus,dotcolour,beta,,,38,18,V,R,
750,120,36,17,5,36,44,650,['c'],0,right,['8'],4,170,[0.0296156],24,44,hard,minus,dotcolour,beta,,,38,18,V,R,
751,121,37,17,5,33,47,750,['c'],0,right,['9'],5,183,[0.1064651],89,47,medium,minus,dotcolour,beta,,,38,18,V,R,
752,122,38,17,5,47,33,883,['c'],1,left,['9'],5,173,[0.08603233],79,47,medium,minus,dotcolour,beta,,,38,18,V,R,
753,123,39,17,5,27,53,750,['n'],1,right,['9'],5,138,[-0.10119176],90,53,easy,minus,dotcolour,beta,,,38,18,V,R,
754,124,40,17,5,53,27,583,['c'],1,left,['9'],5,126,[0.1336968],98,53,easy,minus,dotcolour,beta,,,38,18,V,R,
755,125,41,17,5,53,27,433,['c'],1,left,['0'],6,17,[0.08456811],98,53,easy,minus,dotcolour,beta,,,38,18,V,R,
,,,,,,,,,,,,,,,,,,,,,1, nee,38,18,V,R,
,,,,,,,,,,,,,,,,,,,,,2,['g'],38,18,V,R,
,,,,,,,,,,,,,,,,,,,,,3,['g'],38,18,V,R,
,,,,,,,,,,,,,,,,,,,,,5,"['1', '3', '2', '4']",38,18,V,R,
