trial,withinphasetrial,withinblocktrial,block,phase,dotsLeft,dotsRight,rt,resp,cor,cresp,conf_press,cj,RTconf,ev,fb,diff,difflevel,condition,task,manip,questionID,questionResp,sub,age,gender,handedness,
0,0,0,0,0,33,47,3532,['n'],1,right,['8'],3,4546,[-0.6599193],100,47,medium,plus,dotcolour,beta,,,8,18,M,R,
1,1,1,0,0,53,27,1582,['c'],1,left,['3'],4,3028,[0.43245425],99,53,easy,plus,dotcolour,beta,,,8,18,M,R,
2,2,2,0,0,47,33,2349,['c'],1,left,['2'],5,2477,[0.56741677],100,47,medium,plus,dotcolour,beta,,,8,18,M,R,
3,3,3,0,0,44,36,1582,['c'],1,left,['2'],5,612,[0.14782691],99,44,hard,plus,dotcolour,beta,,,8,18,M,R,
4,4,4,0,0,33,47,1130,['n'],1,right,['2'],5,1815,[-0.3704841],100,47,medium,plus,dotcolour,beta,,,8,18,M,R,
5,5,5,0,0,27,53,931,['n'],1,right,['2'],5,417,[-0.14458995],100,53,easy,plus,dotcolour,beta,,,8,18,M,R,
6,6,6,0,0,53,27,1298,['c'],1,left,['1'],6,439,[0.06419854],96,53,easy,plus,dotcolour,beta,,,8,18,M,R,
7,7,7,0,0,44,36,1749,['n'],0,left,['9'],2,760,[-0.11009143],97,44,hard,plus,dotcolour,beta,,,8,18,M,R,
8,8,8,0,0,53,27,1399,['c'],1,left,['2'],5,762,[0.21098969],100,53,easy,plus,dotcolour,beta,,,8,18,M,R,
9,9,9,0,0,33,47,897,['n'],1,right,['2'],5,537,[-0.11573159],99,47,medium,plus,dotcolour,beta,,,8,18,M,R,
10,10,10,0,0,33,47,1199,['n'],1,right,['3'],4,2181,[-0.1320852],91,47,medium,plus,dotcolour,beta,,,8,18,M,R,
11,11,11,0,0,47,33,1100,['c'],1,left,['3'],4,1802,[0.24124806],98,47,medium,plus,dotcolour,beta,,,8,18,M,R,
12,12,12,0,0,44,36,1314,['n'],0,left,['2'],5,910,[-0.04999948],88,44,hard,plus,dotcolour,beta,,,8,18,M,R,
13,13,13,0,0,53,27,1449,['c'],1,left,['1'],6,904,[0.29603856],100,53,easy,plus,dotcolour,beta,,,8,18,M,R,
14,14,14,0,0,53,27,999,['c'],1,left,['1'],6,309,[0.0297248],94,53,easy,plus,dotcolour,beta,,,8,18,M,R,
15,15,15,0,0,36,44,831,['n'],1,right,['1'],6,256,[-0.10963278],100,44,hard,plus,dotcolour,beta,,,8,18,M,R,
16,16,16,0,0,27,53,832,['n'],1,right,['2'],5,326,[-0.06349709],98,53,easy,plus,dotcolour,beta,,,8,18,M,R,
17,17,17,0,0,44,36,1765,['n'],0,left,['2'],5,283,[-0.02548836],94,44,hard,plus,dotcolour,beta,,,8,18,M,R,
18,18,18,0,0,44,36,1633,['n'],0,left,['2'],5,592,[-0.10503343],98,44,hard,plus,dotcolour,beta,,,8,18,M,R,
19,19,19,0,0,27,53,733,['n'],1,right,['1'],6,284,[-0.06176202],98,53,easy,plus,dotcolour,beta,,,8,18,M,R,
20,20,20,0,0,36,44,965,['n'],1,right,['1'],6,219,[-0.08191808],99,44,hard,plus,dotcolour,beta,,,8,18,M,R,
21,21,21,0,0,47,33,1732,['c'],1,left,['1'],6,599,[0.07129403],95,47,medium,plus,dotcolour,beta,,,8,18,M,R,
22,22,22,0,0,47,33,1016,['c'],1,left,['1'],6,343,[0.1912797],100,47,medium,plus,dotcolour,beta,,,8,18,M,R,
23,23,23,0,0,27,53,848,['n'],1,right,['2'],5,616,[-0.18943456],100,53,easy,plus,dotcolour,beta,,,8,18,M,R,
24,24,24,0,0,33,47,997,['n'],1,right,['2'],5,528,[-0.17886776],100,47,medium,plus,dotcolour,beta,,,8,18,M,R,
25,25,25,0,0,27,53,715,['n'],1,right,['1'],6,455,[-0.13562129],99,53,easy,plus,dotcolour,beta,,,8,18,M,R,
26,26,26,0,0,36,44,1481,['c'],0,right,['1'],6,371,[0.13435766],100,44,hard,plus,dotcolour,beta,,,8,18,M,R,
27,27,27,0,0,27,53,784,['n'],1,right,['1'],6,958,[-0.22810984],99,53,easy,plus,dotcolour,beta,,,8,18,M,R,
28,28,28,0,0,47,33,1215,['c'],1,left,['2'],5,816,[0.05689083],90,47,medium,plus,dotcolour,beta,,,8,18,M,R,
29,29,29,0,0,36,44,747,['n'],1,right,['1'],6,186,[-0.01974669],96,44,hard,plus,dotcolour,beta,,,8,18,M,R,
30,30,30,0,0,53,27,1215,['c'],1,left,['1'],6,836,[0.30597325],100,53,easy,plus,dotcolour,beta,,,8,18,M,R,
31,31,31,0,0,36,44,1014,['n'],1,right,['2'],5,506,[-0.04914745],93,44,hard,plus,dotcolour,beta,,,8,18,M,R,
32,32,32,0,0,44,36,1231,['c'],1,left,['8'],3,6750,[0.42795214],97,44,hard,plus,dotcolour,beta,,,8,18,M,R,
33,33,33,0,0,47,33,3498,['n'],0,left,['0'],1,1227,[0.19128235],10,47,medium,plus,dotcolour,beta,,,8,18,M,R,
34,34,34,0,0,36,44,2065,['c'],0,right,['0'],1,616,[0.09005502],97,44,hard,plus,dotcolour,beta,,,8,18,M,R,
35,35,35,0,0,33,47,1413,['n'],1,right,['1'],6,607,[-0.14851029],99,47,medium,plus,dotcolour,beta,,,8,18,M,R,
36,36,36,0,0,27,53,650,['n'],1,right,['1'],6,198,[-0.18673401],100,53,easy,plus,dotcolour,beta,,,8,18,M,R,
37,37,37,0,0,44,36,998,['c'],1,left,['1'],6,919,[-0.04003985],57,44,hard,plus,dotcolour,beta,,,8,18,M,R,
38,38,38,0,0,47,33,2148,['c'],1,left,['2'],5,733,[-0.02539501],65,47,medium,plus,dotcolour,beta,,,8,18,M,R,
39,39,39,0,0,33,47,1615,['n'],1,right,['3'],4,1001,[-0.31250973],100,47,medium,plus,dotcolour,beta,,,8,18,M,R,
40,40,40,0,0,53,27,1299,['c'],1,left,['1'],6,325,[0.14830715],100,53,easy,plus,dotcolour,beta,,,8,18,M,R,
41,41,41,0,0,36,44,865,['n'],1,right,['1'],6,503,[-0.07111563],96,44,hard,plus,dotcolour,beta,,,8,18,M,R,
42,42,0,1,0,53,27,2233,['c'],1,left,['1'],6,676,[0.18304647],99,53,easy,plus,dotcolour,beta,,,8,18,M,R,
43,43,1,1,0,33,47,732,['n'],1,right,['1'],6,172,[-0.0259502],97,47,medium,plus,dotcolour,beta,,,8,18,M,R,
44,44,2,1,0,33,47,882,['n'],1,right,['1'],6,172,[-0.08411994],100,47,medium,plus,dotcolour,beta,,,8,18,M,R,
45,45,3,1,0,33,47,1781,['n'],1,right,['3'],4,1127,[-0.13322188],96,47,medium,plus,dotcolour,beta,,,8,18,M,R,
46,46,4,1,0,47,33,1482,['n'],0,left,['3'],4,856,[0.08259438],37,47,medium,plus,dotcolour,beta,,,8,18,M,R,
47,47,5,1,0,27,53,1315,['n'],1,right,['2'],5,1546,[-0.52652284],100,53,easy,plus,dotcolour,beta,,,8,18,M,R,
48,48,6,1,0,53,27,1315,['c'],1,left,['1'],6,376,[0.17764564],100,53,easy,plus,dotcolour,beta,,,8,18,M,R,
49,49,7,1,0,53,27,1182,['c'],1,left,['1'],6,251,[0.09405882],100,53,easy,plus,dotcolour,beta,,,8,18,M,R,
50,50,8,1,0,44,36,1082,['n'],0,left,['8'],3,1967,[-0.07342314],84,44,hard,plus,dotcolour,beta,,,8,18,M,R,
51,51,9,1,0,33,47,1065,['n'],1,right,['1'],6,1718,[-0.31067186],99,47,medium,plus,dotcolour,beta,,,8,18,M,R,
52,52,10,1,0,27,53,750,['n'],1,right,['1'],6,253,[-0.1038485],100,53,easy,plus,dotcolour,beta,,,8,18,M,R,
53,53,11,1,0,36,44,1232,['n'],1,right,['1'],6,170,[-0.11337989],100,44,hard,plus,dotcolour,beta,,,8,18,M,R,
54,54,12,1,0,47,33,966,['c'],1,left,['1'],6,247,[0.18038179],100,47,medium,plus,dotcolour,beta,,,8,18,M,R,
55,55,13,1,0,47,33,799,['c'],1,left,['1'],6,294,[0.20342215],100,47,medium,plus,dotcolour,beta,,,8,18,M,R,
56,56,14,1,0,47,33,1097,['c'],1,left,['1'],6,207,[0.14239313],100,47,medium,plus,dotcolour,beta,,,8,18,M,R,
57,57,15,1,0,36,44,1099,['n'],1,right,['3'],4,1900,[-0.11580221],90,44,hard,plus,dotcolour,beta,,,8,18,M,R,
58,58,16,1,0,36,44,1414,['n'],1,right,['3'],4,640,[0.04536091],56,44,hard,plus,dotcolour,beta,,,8,18,M,R,
59,59,17,1,0,33,47,699,['n'],1,right,['3'],4,195,[-0.09176584],100,47,medium,plus,dotcolour,beta,,,8,18,M,R,
60,60,18,1,0,44,36,748,['n'],0,left,['1'],6,231,[-0.02470046],95,44,hard,plus,dotcolour,beta,,,8,18,M,R,
61,61,19,1,0,44,36,1315,['n'],0,left,['2'],5,210,[-0.03911664],98,44,hard,plus,dotcolour,beta,,,8,18,M,R,
62,62,20,1,0,27,53,916,['n'],1,right,['1'],6,718,[-0.16683574],99,53,easy,plus,dotcolour,beta,,,8,18,M,R,
63,63,21,1,0,36,44,682,['n'],1,right,['1'],6,168,[-0.05869505],99,44,hard,plus,dotcolour,beta,,,8,18,M,R,
64,64,22,1,0,53,27,1732,['c'],1,left,['1'],6,301,[0.08773076],99,53,easy,plus,dotcolour,beta,,,8,18,M,R,
65,65,23,1,0,44,36,999,['n'],0,left,['2'],5,665,[-0.11236276],98,44,hard,plus,dotcolour,beta,,,8,18,M,R,
66,66,24,1,0,27,53,748,['n'],1,right,['1'],6,202,[-0.10925232],100,53,easy,plus,dotcolour,beta,,,8,18,M,R,
67,67,25,1,0,33,47,716,['n'],1,right,['1'],6,158,[-0.04485078],99,47,medium,plus,dotcolour,beta,,,8,18,M,R,
68,68,26,1,0,44,36,1282,['c'],1,left,['1'],6,438,[0.16444552],100,44,hard,plus,dotcolour,beta,,,8,18,M,R,
69,69,27,1,0,36,44,715,['n'],1,right,['1'],6,273,[-0.18484334],100,44,hard,plus,dotcolour,beta,,,8,18,M,R,
70,70,28,1,0,27,53,664,['n'],1,right,['1'],6,164,[-0.09844133],100,53,easy,plus,dotcolour,beta,,,8,18,M,R,
71,71,29,1,0,53,27,814,['c'],1,left,['1'],6,406,[0.19208538],100,53,easy,plus,dotcolour,beta,,,8,18,M,R,
72,72,30,1,0,53,27,831,['c'],1,left,['1'],6,301,[0.07510257],99,53,easy,plus,dotcolour,beta,,,8,18,M,R,
73,73,31,1,0,47,33,2081,['c'],1,left,['3'],4,1711,[0.42335459],100,47,medium,plus,dotcolour,beta,,,8,18,M,R,
74,74,32,1,0,36,44,799,['n'],1,right,['1'],6,220,[-0.0704488],99,44,hard,plus,dotcolour,beta,,,8,18,M,R,
75,75,33,1,0,44,36,1767,['c'],1,left,['2'],5,287,[0.07040419],99,44,hard,plus,dotcolour,beta,,,8,18,M,R,
76,76,34,1,0,53,27,1297,['c'],1,left,['2'],5,400,[0.10737157],99,53,easy,plus,dotcolour,beta,,,8,18,M,R,
77,77,35,1,0,36,44,3415,['n'],1,right,['0'],1,1018,[-0.18400599],99,44,hard,plus,dotcolour,beta,,,8,18,M,R,
78,78,36,1,0,33,47,2299,['n'],1,right,['1'],6,301,[-0.21415265],100,47,medium,plus,dotcolour,beta,,,8,18,M,R,
79,79,37,1,0,27,53,748,['n'],1,right,['1'],6,268,[-0.01234549],91,53,easy,plus,dotcolour,beta,,,8,18,M,R,
80,80,38,1,0,27,53,634,['n'],1,right,['1'],6,202,[-0.16748684],100,53,easy,plus,dotcolour,beta,,,8,18,M,R,
81,81,39,1,0,47,33,2964,['n'],0,left,['3'],4,1508,[0.18670099],13,47,medium,plus,dotcolour,beta,,,8,18,M,R,
82,82,40,1,0,47,33,1466,['c'],1,left,['1'],6,350,[0.05636125],97,47,medium,plus,dotcolour,beta,,,8,18,M,R,
83,83,41,1,0,44,36,1130,['c'],1,left,['3'],4,884,[0.10784179],96,44,hard,plus,dotcolour,beta,,,8,18,M,R,
84,84,0,2,0,33,47,867,['n'],1,right,['1'],6,438,[-0.19583648],100,47,medium,plus,dotcolour,beta,,,8,18,M,R,
85,85,1,2,0,27,53,715,['n'],1,right,['1'],6,233,[-0.06709724],99,53,easy,plus,dotcolour,beta,,,8,18,M,R,
86,86,2,2,0,47,33,1032,['c'],1,left,['2'],5,1071,[0.1240868],96,47,medium,plus,dotcolour,beta,,,8,18,M,R,
87,87,3,2,0,36,44,783,['n'],1,right,['1'],6,334,[-0.08627805],99,44,hard,plus,dotcolour,beta,,,8,18,M,R,
88,88,4,2,0,27,53,597,['n'],1,right,['1'],6,178,[-0.12629636],100,53,easy,plus,dotcolour,beta,,,8,18,M,R,
89,89,5,2,0,36,44,1998,['c'],0,right,['3'],4,740,[-0.13380772],16,44,hard,plus,dotcolour,beta,,,8,18,M,R,
90,90,6,2,0,36,44,1349,['n'],1,right,['3'],4,529,[-0.12044053],99,44,hard,plus,dotcolour,beta,,,8,18,M,R,
91,91,7,2,0,44,36,799,['n'],0,left,['3'],4,173,[-5.50094763e-05],92,44,hard,plus,dotcolour,beta,,,8,18,M,R,
92,92,8,2,0,36,44,799,['n'],1,right,['1'],6,503,[-0.10511687],98,44,hard,plus,dotcolour,beta,,,8,18,M,R,
93,93,9,2,0,44,36,1783,['c'],1,left,['9'],2,845,[0.37195224],100,44,hard,plus,dotcolour,beta,,,8,18,M,R,
94,94,10,2,0,53,27,900,['c'],1,left,['1'],6,656,[0.23547815],100,53,easy,plus,dotcolour,beta,,,8,18,M,R,
95,95,11,2,0,53,27,1149,['c'],1,left,['2'],5,568,[0.2334991],100,53,easy,plus,dotcolour,beta,,,8,18,M,R,
96,96,12,2,0,53,27,948,['c'],1,left,['2'],5,1221,[0.16694013],97,53,easy,plus,dotcolour,beta,,,8,18,M,R,
97,97,13,2,0,53,27,1382,['c'],1,left,['2'],5,503,[0.18190414],100,53,easy,plus,dotcolour,beta,,,8,18,M,R,
98,98,14,2,0,36,44,1017,['n'],1,right,['3'],4,1499,[0.0359313],57,44,hard,plus,dotcolour,beta,,,8,18,M,R,
99,99,15,2,0,33,47,1697,['n'],1,right,['2'],5,572,[-0.2955092],100,47,medium,plus,dotcolour,beta,,,8,18,M,R,
100,100,16,2,0,47,33,799,['c'],1,left,['1'],6,149,[0.08935892],100,47,medium,plus,dotcolour,beta,,,8,18,M,R,
101,101,17,2,0,53,27,749,['c'],1,left,['1'],6,211,[0.11164643],100,53,easy,plus,dotcolour,beta,,,8,18,M,R,
102,102,18,2,0,33,47,716,['n'],1,right,['1'],6,199,[-0.13921554],100,47,medium,plus,dotcolour,beta,,,8,18,M,R,
103,103,19,2,0,36,44,798,['n'],1,right,['1'],6,152,[-0.109588],100,44,hard,plus,dotcolour,beta,,,8,18,M,R,
104,104,20,2,0,44,36,1016,['c'],1,left,['1'],6,219,[0.0492127],98,44,hard,plus,dotcolour,beta,,,8,18,M,R,
105,105,21,2,0,47,33,1016,['n'],0,left,['2'],5,258,[-0.13380384],100,47,medium,plus,dotcolour,beta,,,8,18,M,R,
106,106,22,2,0,33,47,1783,['n'],1,right,['1'],6,242,[-0.09951799],100,47,medium,plus,dotcolour,beta,,,8,18,M,R,
107,107,23,2,0,53,27,814,['c'],1,left,['1'],6,114,[0.09257864],100,53,easy,plus,dotcolour,beta,,,8,18,M,R,
108,108,24,2,0,36,44,897,['n'],1,right,['2'],5,185,[-0.0721771],100,44,hard,plus,dotcolour,beta,,,8,18,M,R,
109,109,25,2,0,33,47,699,['n'],1,right,['2'],5,167,[-0.18697292],100,47,medium,plus,dotcolour,beta,,,8,18,M,R,
110,110,26,2,0,44,36,2032,['c'],1,left,['2'],5,656,[0.18681744],100,44,hard,plus,dotcolour,beta,,,8,18,M,R,
111,111,27,2,0,27,53,1015,['n'],1,right,['1'],6,702,[-0.34390244],100,53,easy,plus,dotcolour,beta,,,8,18,M,R,
112,112,28,2,0,53,27,1100,['c'],1,left,['2'],5,880,[0.12576572],97,53,easy,plus,dotcolour,beta,,,8,18,M,R,
113,113,29,2,0,47,33,1548,['c'],1,left,['2'],5,287,[0.16204263],100,47,medium,plus,dotcolour,beta,,,8,18,M,R,
114,114,30,2,0,27,53,833,['n'],1,right,['1'],6,315,[-0.10564403],99,53,easy,plus,dotcolour,beta,,,8,18,M,R,
115,115,31,2,0,27,53,784,['n'],1,right,['1'],6,192,[-0.09694513],100,53,easy,plus,dotcolour,beta,,,8,18,M,R,
116,116,32,2,0,44,36,1516,['n'],0,left,['9'],2,1093,[0.02202504],64,44,hard,plus,dotcolour,beta,,,8,18,M,R,
117,117,33,2,0,44,36,1717,['n'],0,left,['3'],4,1382,[-0.06167168],86,44,hard,plus,dotcolour,beta,,,8,18,M,R,
118,118,34,2,0,27,53,1614,['n'],1,right,['1'],6,286,[-0.07682971],99,53,easy,plus,dotcolour,beta,,,8,18,M,R,
119,119,35,2,0,47,33,2533,['c'],1,left,['2'],5,671,[0.11741479],98,47,medium,plus,dotcolour,beta,,,8,18,M,R,
120,120,36,2,0,27,53,799,['n'],1,right,['1'],6,181,[-0.12448619],100,53,easy,plus,dotcolour,beta,,,8,18,M,R,
121,121,37,2,0,33,47,2647,['n'],1,right,['3'],4,541,[-0.30370345],100,47,medium,plus,dotcolour,beta,,,8,18,M,R,
122,122,38,2,0,44,36,1133,['c'],1,left,['1'],6,155,[0.13631362],100,44,hard,plus,dotcolour,beta,,,8,18,M,R,
123,123,39,2,0,33,47,613,['n'],1,right,['1'],6,117,[-0.09299084],100,47,medium,plus,dotcolour,beta,,,8,18,M,R,
124,124,40,2,0,47,33,847,['c'],1,left,['1'],6,256,[0.11303311],100,47,medium,plus,dotcolour,beta,,,8,18,M,R,
125,125,41,2,0,47,33,882,['c'],1,left,['1'],6,131,[-0.01128001],90,47,medium,plus,dotcolour,beta,,,8,18,M,R,
126,0,0,3,1,53,27,1200,['c'],1,left,['1'],6,205,[0.0538985],48,53,easy,minus,dotcolour,beta,,,8,18,M,R,
127,1,1,3,1,33,47,798,['n'],1,right,['1'],6,214,[-0.10335595],87,47,medium,minus,dotcolour,beta,,,8,18,M,R,
128,2,2,3,1,27,53,815,['n'],1,right,['1'],6,319,[-0.15550155],96,53,easy,minus,dotcolour,beta,,,8,18,M,R,
129,3,3,3,1,33,47,1365,['n'],1,right,['3'],4,756,[-0.10143252],72,47,medium,minus,dotcolour,beta,,,8,18,M,R,
130,4,4,3,1,53,27,1649,['c'],1,left,['1'],6,965,[0.3611059],100,53,easy,minus,dotcolour,beta,,,8,18,M,R,
131,5,5,3,1,33,47,1116,['n'],1,right,['1'],6,339,[-0.10742334],83,47,medium,minus,dotcolour,beta,,,8,18,M,R,
132,6,6,3,1,53,27,1665,['n'],0,left,['2'],5,404,[-0.05846844],52,53,easy,minus,dotcolour,beta,,,8,18,M,R,
133,7,7,3,1,44,36,1333,['c'],1,left,['2'],5,400,[0.20201117],98,44,hard,minus,dotcolour,beta,,,8,18,M,R,
134,8,8,3,1,47,33,1717,['c'],1,left,['2'],5,213,[0.06683608],61,47,medium,minus,dotcolour,beta,,,8,18,M,R,
135,9,9,3,1,44,36,1400,['c'],1,left,['3'],4,885,[0.03491047],40,44,hard,minus,dotcolour,beta,,,8,18,M,R,
136,10,10,3,1,47,33,2030,['c'],1,left,['9'],2,1633,[0.20762972],89,47,medium,minus,dotcolour,beta,,,8,18,M,R,
137,11,11,3,1,44,36,1481,['n'],0,left,['9'],2,213,[-0.0146432],17,44,hard,minus,dotcolour,beta,,,8,18,M,R,
138,12,12,3,1,44,36,1565,['n'],0,left,['9'],2,407,[-0.07091099],61,44,hard,minus,dotcolour,beta,,,8,18,M,R,
139,13,13,3,1,33,47,899,['n'],1,right,['1'],6,708,[-0.09031372],68,47,medium,minus,dotcolour,beta,,,8,18,M,R,
140,14,14,3,1,27,53,648,['n'],1,right,['1'],6,215,[-0.07721847],70,53,easy,minus,dotcolour,beta,,,8,18,M,R,
141,15,15,3,1,27,53,614,['n'],1,right,['1'],6,143,[-0.05871381],54,53,easy,minus,dotcolour,beta,,,8,18,M,R,
142,16,16,3,1,47,33,2082,['c'],1,left,['1'],6,407,[0.32867817],100,47,medium,minus,dotcolour,beta,,,8,18,M,R,
143,17,17,3,1,36,44,647,['n'],1,right,['1'],6,173,[-0.09254229],83,44,hard,minus,dotcolour,beta,,,8,18,M,R,
144,18,18,3,1,27,53,799,['n'],1,right,['1'],6,184,[-0.13125796],96,53,easy,minus,dotcolour,beta,,,8,18,M,R,
145,19,19,3,1,47,33,1865,['c'],1,left,['2'],5,407,[0.08804149],71,47,medium,minus,dotcolour,beta,,,8,18,M,R,
146,20,20,3,1,44,36,1166,['n'],0,left,['2'],5,290,[-0.15421569],96,44,hard,minus,dotcolour,beta,,,8,18,M,R,
147,21,21,3,1,36,44,682,['n'],1,right,['2'],5,180,[-0.02592817],22,44,hard,minus,dotcolour,beta,,,8,18,M,R,
148,22,22,3,1,33,47,915,['n'],1,right,['2'],5,337,[0.01306261],11,47,medium,minus,dotcolour,beta,,,8,18,M,R,
149,23,23,3,1,36,44,1415,['n'],1,right,['2'],5,323,[-0.06333459],56,44,hard,minus,dotcolour,beta,,,8,18,M,R,
150,24,24,3,1,53,27,882,['c'],1,left,['1'],6,252,[0.07129659],64,53,easy,minus,dotcolour,beta,,,8,18,M,R,
151,25,25,3,1,27,53,632,['n'],1,right,['1'],6,322,[-0.10109185],81,53,easy,minus,dotcolour,beta,,,8,18,M,R,
152,26,26,3,1,33,47,749,['n'],1,right,['1'],6,137,[-0.06017504],56,47,medium,minus,dotcolour,beta,,,8,18,M,R,
153,27,27,3,1,53,27,948,['c'],1,left,['1'],6,295,[-0.01419851],9,53,easy,minus,dotcolour,beta,,,8,18,M,R,
154,28,28,3,1,47,33,650,['c'],1,left,['1'],6,202,[0.15665833],98,47,medium,minus,dotcolour,beta,,,8,18,M,R,
155,29,29,3,1,36,44,867,['n'],1,right,['1'],6,329,[-0.055449],50,44,hard,minus,dotcolour,beta,,,8,18,M,R,
156,30,30,3,1,27,53,967,['n'],1,right,['1'],6,270,[-0.13596994],94,53,easy,minus,dotcolour,beta,,,8,18,M,R,
157,31,31,3,1,47,33,2649,['c'],1,left,['3'],4,1379,[0.19267231],89,47,medium,minus,dotcolour,beta,,,8,18,M,R,
158,32,32,3,1,53,27,1398,['c'],1,left,['1'],6,1220,[0.13779416],79,53,easy,minus,dotcolour,beta,,,8,18,M,R,
159,33,33,3,1,53,27,1116,['c'],1,left,['2'],5,240,[0.07466709],67,53,easy,minus,dotcolour,beta,,,8,18,M,R,
160,34,34,3,1,33,47,764,['n'],1,right,['2'],5,208,[-0.16468985],99,47,medium,minus,dotcolour,beta,,,8,18,M,R,
161,35,35,3,1,36,44,980,['c'],0,right,['1'],6,194,[0.11867731],93,44,hard,minus,dotcolour,beta,,,8,18,M,R,
162,36,36,3,1,27,53,700,['n'],1,right,['1'],6,279,[-0.13285836],93,53,easy,minus,dotcolour,beta,,,8,18,M,R,
163,37,37,3,1,47,33,1199,['c'],1,left,['2'],5,566,[0.1529113],91,47,medium,minus,dotcolour,beta,,,8,18,M,R,
164,38,38,3,1,44,36,1465,['n'],0,left,['1'],6,316,[-0.03361567],33,44,hard,minus,dotcolour,beta,,,8,18,M,R,
165,39,39,3,1,36,44,698,['n'],1,right,['2'],5,325,[-0.06410887],57,44,hard,minus,dotcolour,beta,,,8,18,M,R,
166,40,40,3,1,44,36,1214,['c'],1,left,['2'],5,504,[0.14438791],90,44,hard,minus,dotcolour,beta,,,8,18,M,R,
167,41,41,3,1,36,44,1283,['n'],1,right,['8'],3,4691,[-0.13589822],66,44,hard,minus,dotcolour,beta,,,8,18,M,R,
168,42,0,4,1,47,33,3849,['c'],1,left,['1'],6,595,[0.0622112],54,47,medium,minus,dotcolour,beta,,,8,18,M,R,
169,43,1,4,1,53,27,848,['c'],1,left,['1'],6,770,[0.30338207],99,53,easy,minus,dotcolour,beta,,,8,18,M,R,
170,44,2,4,1,53,27,950,['c'],1,left,['3'],4,262,[0.0549604],49,53,easy,minus,dotcolour,beta,,,8,18,M,R,
171,45,3,4,1,27,53,1966,['n'],1,right,['1'],6,310,[-0.13538267],93,53,easy,minus,dotcolour,beta,,,8,18,M,R,
172,46,4,4,1,27,53,634,['n'],1,right,['1'],6,169,[-0.09942673],87,53,easy,minus,dotcolour,beta,,,8,18,M,R,
173,47,5,4,1,36,44,1033,['n'],1,right,['3'],4,195,[-0.14954865],98,44,hard,minus,dotcolour,beta,,,8,18,M,R,
174,48,6,4,1,36,44,1082,['n'],1,right,['3'],4,433,[-0.05418161],49,44,hard,minus,dotcolour,beta,,,8,18,M,R,
175,49,7,4,1,33,47,648,['n'],1,right,['3'],4,214,[-0.09451057],82,47,medium,minus,dotcolour,beta,,,8,18,M,R,
176,50,8,4,1,44,36,1632,['c'],1,left,['1'],6,253,[0.02897457],28,44,hard,minus,dotcolour,beta,,,8,18,M,R,
177,51,9,4,1,27,53,1332,['n'],1,right,['1'],6,399,[-0.15278542],94,53,easy,minus,dotcolour,beta,,,8,18,M,R,
178,52,10,4,1,27,53,615,['n'],1,right,['1'],6,224,[-0.09882754],84,53,easy,minus,dotcolour,beta,,,8,18,M,R,
179,53,11,4,1,53,27,1831,['c'],1,left,['1'],6,254,[0.16772332],98,53,easy,minus,dotcolour,beta,,,8,18,M,R,
180,54,12,4,1,36,44,650,['n'],1,right,['1'],6,131,[-0.0440691],36,44,hard,minus,dotcolour,beta,,,8,18,M,R,
181,55,13,4,1,33,47,798,['n'],1,right,['1'],6,127,[-0.10358729],92,47,medium,minus,dotcolour,beta,,,8,18,M,R,
182,56,14,4,1,53,27,1065,['c'],1,left,['1'],6,168,[0.18552608],100,53,easy,minus,dotcolour,beta,,,8,18,M,R,
183,57,15,4,1,47,33,1467,['c'],1,left,['2'],5,512,[0.05124431],47,47,medium,minus,dotcolour,beta,,,8,18,M,R,
184,58,16,4,1,33,47,983,['n'],1,right,['1'],6,269,[-0.1768803],99,47,medium,minus,dotcolour,beta,,,8,18,M,R,
185,59,17,4,1,36,44,1066,['n'],1,right,['2'],5,329,[0.0119647],11,44,hard,minus,dotcolour,beta,,,8,18,M,R,
186,60,18,4,1,36,44,1033,['n'],1,right,['3'],4,700,[-0.06469448],55,44,hard,minus,dotcolour,beta,,,8,18,M,R,
187,61,19,4,1,47,33,983,['c'],1,left,['3'],4,553,[0.12350596],84,47,medium,minus,dotcolour,beta,,,8,18,M,R,
188,62,20,4,1,27,53,696,['n'],1,right,['1'],6,153,[-0.07366594],70,53,easy,minus,dotcolour,beta,,,8,18,M,R,
189,63,21,4,1,44,36,1016,['c'],1,left,['1'],6,299,[0.1636289],97,44,hard,minus,dotcolour,beta,,,8,18,M,R,
190,64,22,4,1,36,44,1182,['n'],1,right,['2'],5,393,[-0.06487956],57,44,hard,minus,dotcolour,beta,,,8,18,M,R,
191,65,23,4,1,33,47,1315,['n'],1,right,['1'],6,502,[-0.22051268],99,47,medium,minus,dotcolour,beta,,,8,18,M,R,
192,66,24,4,1,27,53,698,['n'],1,right,['1'],6,119,[-0.07198559],70,53,easy,minus,dotcolour,beta,,,8,18,M,R,
193,67,25,4,1,33,47,866,['n'],1,right,['1'],6,120,[-0.05811094],53,47,medium,minus,dotcolour,beta,,,8,18,M,R,
194,68,26,4,1,44,36,834,['c'],1,left,['2'],5,299,[0.13057031],92,44,hard,minus,dotcolour,beta,,,8,18,M,R,
195,69,27,4,1,33,47,1533,['n'],1,right,['2'],5,459,[-0.12438513],86,47,medium,minus,dotcolour,beta,,,8,18,M,R,
196,70,28,4,1,44,36,949,['c'],1,left,['1'],6,236,[0.09207998],79,44,hard,minus,dotcolour,beta,,,8,18,M,R,
197,71,29,4,1,47,33,832,['n'],0,left,['0'],1,2938,[0.22607925],5,47,medium,minus,dotcolour,beta,,,8,18,M,R,
198,72,30,4,1,53,27,1466,['c'],1,left,['2'],5,563,[0.08577063],67,53,easy,minus,dotcolour,beta,,,8,18,M,R,
199,73,31,4,1,47,33,1083,['c'],1,left,['1'],6,162,[0.0687569],64,47,medium,minus,dotcolour,beta,,,8,18,M,R,
200,74,32,4,1,44,36,1000,['n'],0,left,['1'],6,332,[-0.05659491],51,44,hard,minus,dotcolour,beta,,,8,18,M,R,
201,75,33,4,1,47,33,1632,['c'],1,left,['2'],5,358,[0.03160549],33,47,medium,minus,dotcolour,beta,,,8,18,M,R,
202,76,34,4,1,36,44,1333,['c'],0,right,['2'],5,452,[0.01935026],28,44,hard,minus,dotcolour,beta,,,8,18,M,R,
203,77,35,4,1,27,53,1017,['n'],1,right,['1'],6,323,[-0.11648601],87,53,easy,minus,dotcolour,beta,,,8,18,M,R,
204,78,36,4,1,33,47,817,['n'],1,right,['1'],6,254,[-0.06404642],58,47,medium,minus,dotcolour,beta,,,8,18,M,R,
205,79,37,4,1,44,36,2365,['n'],0,left,['2'],5,622,[-0.07554916],61,44,hard,minus,dotcolour,beta,,,8,18,M,R,
206,80,38,4,1,53,27,1115,['c'],1,left,['1'],6,289,[0.12038402],90,53,easy,minus,dotcolour,beta,,,8,18,M,R,
207,81,39,4,1,44,36,1398,['c'],1,left,['1'],6,375,[0.22383216],99,44,hard,minus,dotcolour,beta,,,8,18,M,R,
208,82,40,4,1,53,27,783,['c'],1,left,['1'],6,226,[0.0895271],78,53,easy,minus,dotcolour,beta,,,8,18,M,R,
209,83,41,4,1,47,33,682,['c'],1,left,['1'],6,254,[0.09868177],82,47,medium,minus,dotcolour,beta,,,8,18,M,R,
210,84,0,5,1,53,27,2066,['c'],1,left,['2'],5,500,[0.04555033],44,53,easy,minus,dotcolour,beta,,,8,18,M,R,
211,85,1,5,1,44,36,1448,['c'],1,left,['2'],5,352,[0.08909777],73,44,hard,minus,dotcolour,beta,,,8,18,M,R,
212,86,2,5,1,33,47,1165,['n'],1,right,['2'],5,452,[-0.24642231],99,47,medium,minus,dotcolour,beta,,,8,18,M,R,
213,87,3,5,1,36,44,1365,['n'],1,right,['3'],4,1164,[-0.12984544],78,44,hard,minus,dotcolour,beta,,,8,18,M,R,
214,88,4,5,1,27,53,816,['n'],1,right,['1'],6,269,[-0.03833286],35,53,easy,minus,dotcolour,beta,,,8,18,M,R,
215,89,5,5,1,27,53,1965,['n'],1,right,['2'],5,566,[-0.12824642],85,53,easy,minus,dotcolour,beta,,,8,18,M,R,
216,90,6,5,1,44,36,833,['n'],0,left,['2'],5,239,[-0.11743207],91,44,hard,minus,dotcolour,beta,,,8,18,M,R,
217,91,7,5,1,33,47,1300,['n'],1,right,['2'],5,291,[-0.20601649],99,47,medium,minus,dotcolour,beta,,,8,18,M,R,
218,92,8,5,1,36,44,1566,['c'],0,right,['2'],5,274,[0.06999384],62,44,hard,minus,dotcolour,beta,,,8,18,M,R,
219,93,9,5,1,27,53,798,['n'],1,right,['1'],6,217,[-0.13576987],96,53,easy,minus,dotcolour,beta,,,8,18,M,R,
220,94,10,5,1,44,36,1164,['c'],1,left,['2'],5,338,[0.05480706],49,44,hard,minus,dotcolour,beta,,,8,18,M,R,
221,95,11,5,1,33,47,699,['n'],1,right,['2'],5,385,[-0.15181203],94,47,medium,minus,dotcolour,beta,,,8,18,M,R,
222,96,12,5,1,47,33,2397,['c'],1,left,['2'],5,435,[0.15789167],94,47,medium,minus,dotcolour,beta,,,8,18,M,R,
223,97,13,5,1,53,27,1547,['c'],1,left,['2'],5,309,[0.10211078],82,53,easy,minus,dotcolour,beta,,,8,18,M,R,
224,98,14,5,1,53,27,1748,['c'],1,left,['2'],5,220,[0.03790766],34,53,easy,minus,dotcolour,beta,,,8,18,M,R,
225,99,15,5,1,47,33,1315,['c'],1,left,['2'],5,272,[0.14880105],96,47,medium,minus,dotcolour,beta,,,8,18,M,R,
226,100,16,5,1,36,44,765,['n'],1,right,['1'],6,543,[-0.07226131],60,44,hard,minus,dotcolour,beta,,,8,18,M,R,
227,101,17,5,1,44,36,1382,['c'],1,left,['3'],4,747,[0.1474531],87,44,hard,minus,dotcolour,beta,,,8,18,M,R,
228,102,18,5,1,47,33,1498,['c'],1,left,['3'],4,433,[0.13773509],90,47,medium,minus,dotcolour,beta,,,8,18,M,R,
229,103,19,5,1,33,47,882,['n'],1,right,['1'],6,238,[-0.12190826],92,47,medium,minus,dotcolour,beta,,,8,18,M,R,
230,104,20,5,1,44,36,1497,['c'],1,left,['1'],6,346,[0.10387741],81,44,hard,minus,dotcolour,beta,,,8,18,M,R,
231,105,21,5,1,27,53,782,['n'],1,right,['1'],6,334,[-0.23041761],100,53,easy,minus,dotcolour,beta,,,8,18,M,R,
232,106,22,5,1,47,33,1215,['c'],1,left,['2'],5,466,[0.09359888],73,47,medium,minus,dotcolour,beta,,,8,18,M,R,
233,107,23,5,1,53,27,964,['c'],1,left,['2'],5,633,[0.1718047],93,53,easy,minus,dotcolour,beta,,,8,18,M,R,
234,108,24,5,1,53,27,983,['c'],1,left,['2'],5,241,[0.10287359],85,53,easy,minus,dotcolour,beta,,,8,18,M,R,
235,109,25,5,1,47,33,1216,['c'],1,left,['2'],5,168,[0.11542332],93,47,medium,minus,dotcolour,beta,,,8,18,M,R,
236,110,26,5,1,36,44,999,['n'],1,right,['2'],5,298,[-0.1595684],97,44,hard,minus,dotcolour,beta,,,8,18,M,R,
237,111,27,5,1,47,33,716,['c'],1,left,['1'],6,570,[0.09904323],74,47,medium,minus,dotcolour,beta,,,8,18,M,R,
238,112,28,5,1,53,27,915,['c'],1,left,['1'],6,224,[0.04117324],37,53,easy,minus,dotcolour,beta,,,8,18,M,R,
239,113,29,5,1,44,36,1214,['c'],1,left,['1'],6,224,[0.05297714],48,44,hard,minus,dotcolour,beta,,,8,18,M,R,
240,114,30,5,1,27,53,984,['n'],1,right,['2'],5,281,[-0.14660951],96,53,easy,minus,dotcolour,beta,,,8,18,M,R,
241,115,31,5,1,53,27,1031,['c'],1,left,['1'],6,189,[0.12430059],95,53,easy,minus,dotcolour,beta,,,8,18,M,R,
242,116,32,5,1,36,44,1297,['n'],1,right,['1'],6,515,[-0.03937624],40,44,hard,minus,dotcolour,beta,,,8,18,M,R,
243,117,33,5,1,36,44,998,['n'],1,right,['1'],6,231,[-0.05603324],50,44,hard,minus,dotcolour,beta,,,8,18,M,R,
244,118,34,5,1,33,47,847,['n'],1,right,['1'],6,165,[-0.11305441],93,47,medium,minus,dotcolour,beta,,,8,18,M,R,
245,119,35,5,1,27,53,664,['n'],1,right,['1'],6,133,[-0.08127024],78,53,easy,minus,dotcolour,beta,,,8,18,M,R,
246,120,36,5,1,33,47,749,['n'],1,right,['1'],6,123,[-0.04881251],41,47,medium,minus,dotcolour,beta,,,8,18,M,R,
247,121,37,5,1,44,36,1565,['c'],1,left,['2'],5,393,[0.14529125],93,44,hard,minus,dotcolour,beta,,,8,18,M,R,
248,122,38,5,1,33,47,733,['n'],1,right,['1'],6,213,[-0.10980029],89,47,medium,minus,dotcolour,beta,,,8,18,M,R,
249,123,39,5,1,27,53,915,['n'],1,right,['1'],6,178,[-0.0897389],81,53,easy,minus,dotcolour,beta,,,8,18,M,R,
250,124,40,5,1,47,33,1033,['n'],0,left,['1'],6,242,[-0.00041292],12,47,medium,minus,dotcolour,beta,,,8,18,M,R,
251,125,41,5,1,36,44,816,['n'],1,right,['1'],6,177,[-0.12457449],95,44,hard,minus,dotcolour,beta,,,8,18,M,R,
252,0,0,6,2,36,44,767,['n'],1,right,['1'],6,577,[-0.16196519],99,44,hard,plus,dotcolour,beta,,,8,18,M,R,
253,1,1,6,2,47,33,999,['c'],1,left,['2'],5,547,[0.15003885],99,47,medium,plus,dotcolour,beta,,,8,18,M,R,
254,2,2,6,2,44,36,1449,['n'],0,left,['1'],6,292,[-0.04036066],96,44,hard,plus,dotcolour,beta,,,8,18,M,R,
255,3,3,6,2,47,33,1082,['c'],1,left,['1'],6,119,[0.12339103],100,47,medium,plus,dotcolour,beta,,,8,18,M,R,
256,4,4,6,2,36,44,917,['n'],1,right,['2'],5,207,[0.0018933],89,44,hard,plus,dotcolour,beta,,,8,18,M,R,
257,5,5,6,2,44,36,1765,['c'],1,left,['3'],4,625,[-0.03615258],61,44,hard,plus,dotcolour,beta,,,8,18,M,R,
258,6,6,6,2,33,47,831,['n'],1,right,['1'],6,263,[-0.0400397],97,47,medium,plus,dotcolour,beta,,,8,18,M,R,
259,7,7,6,2,33,47,782,['n'],1,right,['1'],6,206,[-0.1193103],100,47,medium,plus,dotcolour,beta,,,8,18,M,R,
260,8,8,6,2,36,44,833,['c'],0,right,['1'],6,230,[0.01398315],93,44,hard,plus,dotcolour,beta,,,8,18,M,R,
261,9,9,6,2,53,27,914,['c'],1,left,['2'],5,386,[0.24591371],100,53,easy,plus,dotcolour,beta,,,8,18,M,R,
262,10,10,6,2,27,53,715,['n'],1,right,['1'],6,415,[-0.10202349],99,53,easy,plus,dotcolour,beta,,,8,18,M,R,
263,11,11,6,2,47,33,916,['c'],1,left,['2'],5,307,[0.1072799],99,47,medium,plus,dotcolour,beta,,,8,18,M,R,
264,12,12,6,2,33,47,699,['n'],1,right,['1'],6,236,[-0.1094992],100,47,medium,plus,dotcolour,beta,,,8,18,M,R,
265,13,13,6,2,44,36,967,['c'],1,left,['2'],5,277,[0.06173127],98,44,hard,plus,dotcolour,beta,,,8,18,M,R,
266,14,14,6,2,27,53,765,['n'],1,right,['2'],5,613,[-0.05163629],92,53,easy,plus,dotcolour,beta,,,8,18,M,R,
267,15,15,6,2,47,33,1014,['c'],1,left,['2'],5,236,[0.05041954],98,47,medium,plus,dotcolour,beta,,,8,18,M,R,
268,16,16,6,2,36,44,748,['n'],1,right,['2'],5,311,[-0.07681071],99,44,hard,plus,dotcolour,beta,,,8,18,M,R,
269,17,17,6,2,33,47,947,['n'],1,right,['2'],5,357,[-0.04642563],96,47,medium,plus,dotcolour,beta,,,8,18,M,R,
270,18,18,6,2,44,36,1432,['n'],0,left,['2'],5,231,[-0.0052324],91,44,hard,plus,dotcolour,beta,,,8,18,M,R,
271,19,19,6,2,53,27,1948,['c'],1,left,['1'],6,144,[0.03300594],99,53,easy,plus,dotcolour,beta,,,8,18,M,R,
272,20,20,6,2,44,36,1799,['n'],0,left,['8'],3,3404,[0.20718477],19,44,hard,plus,dotcolour,beta,,,8,18,M,R,
273,21,21,6,2,27,53,897,['n'],1,right,['1'],6,176,[-0.09213776],100,53,easy,plus,dotcolour,beta,,,8,18,M,R,
274,22,22,6,2,44,36,1450,['c'],1,left,['8'],3,816,[-0.0864771],35,44,hard,plus,dotcolour,beta,,,8,18,M,R,
275,23,23,6,2,27,53,998,['n'],1,right,['1'],6,888,[-0.15446694],98,53,easy,plus,dotcolour,beta,,,8,18,M,R,
276,24,24,6,2,36,44,1166,['n'],1,right,['1'],6,191,[-0.14771566],100,44,hard,plus,dotcolour,beta,,,8,18,M,R,
277,25,25,6,2,36,44,915,['n'],1,right,['1'],6,156,[-0.09980526],100,44,hard,plus,dotcolour,beta,,,8,18,M,R,
278,26,26,6,2,33,47,1115,['n'],1,right,['3'],4,546,[-0.24810393],100,47,medium,plus,dotcolour,beta,,,8,18,M,R,
279,27,27,6,2,53,27,1364,['c'],1,left,['1'],6,359,[0.1277724],100,53,easy,plus,dotcolour,beta,,,8,18,M,R,
280,28,28,6,2,36,44,3450,['n'],1,right,['0'],1,1239,[-0.1735604],98,44,hard,plus,dotcolour,beta,,,8,18,M,R,
281,29,29,6,2,27,53,732,['n'],1,right,['1'],6,946,[-0.24411164],100,53,easy,plus,dotcolour,beta,,,8,18,M,R,
282,30,30,6,2,47,33,965,['c'],1,left,['1'],6,350,[0.13921058],100,47,medium,plus,dotcolour,beta,,,8,18,M,R,
283,31,31,6,2,47,33,1280,['c'],1,left,['1'],6,294,[0.13867482],100,47,medium,plus,dotcolour,beta,,,8,18,M,R,
284,32,32,6,2,27,53,914,['n'],1,right,['1'],6,207,[-0.06642241],99,53,easy,plus,dotcolour,beta,,,8,18,M,R,
285,33,33,6,2,53,27,966,['c'],1,left,['1'],6,369,[0.09453557],99,53,easy,plus,dotcolour,beta,,,8,18,M,R,
286,34,34,6,2,53,27,865,['c'],1,left,['1'],6,161,[0.1357899],100,53,easy,plus,dotcolour,beta,,,8,18,M,R,
287,35,35,6,2,27,53,665,['n'],1,right,['1'],6,353,[-0.2140973],100,53,easy,plus,dotcolour,beta,,,8,18,M,R,
288,36,36,6,2,47,33,1281,['c'],1,left,['1'],6,185,[0.14798211],100,47,medium,plus,dotcolour,beta,,,8,18,M,R,
289,37,37,6,2,53,27,832,['c'],1,left,['2'],5,313,[0.06356283],98,53,easy,plus,dotcolour,beta,,,8,18,M,R,
290,38,38,6,2,44,36,1181,['c'],1,left,['2'],5,199,[0.10353038],100,44,hard,plus,dotcolour,beta,,,8,18,M,R,
291,39,39,6,2,33,47,830,['n'],1,right,['2'],5,399,[-0.04156641],94,47,medium,plus,dotcolour,beta,,,8,18,M,R,
292,40,40,6,2,53,27,866,['c'],1,left,['1'],6,230,[0.06902731],99,53,easy,plus,dotcolour,beta,,,8,18,M,R,
293,41,41,6,2,33,47,813,['n'],1,right,['2'],5,197,[-0.14729668],100,47,medium,plus,dotcolour,beta,,,8,18,M,R,
294,42,0,7,2,33,47,916,['n'],1,right,['2'],5,303,[-0.11021021],100,47,medium,plus,dotcolour,beta,,,8,18,M,R,
295,43,1,7,2,47,33,882,['c'],1,left,['1'],6,241,[0.07753293],99,47,medium,plus,dotcolour,beta,,,8,18,M,R,
296,44,2,7,2,53,27,666,['c'],1,left,['1'],6,270,[0.05791291],98,53,easy,plus,dotcolour,beta,,,8,18,M,R,
297,45,3,7,2,53,27,634,['c'],1,left,['1'],6,186,[0.05936928],99,53,easy,plus,dotcolour,beta,,,8,18,M,R,
298,46,4,7,2,36,44,916,['n'],1,right,['1'],6,208,[-0.06081084],99,44,hard,plus,dotcolour,beta,,,8,18,M,R,
299,47,5,7,2,44,36,950,['c'],1,left,['1'],6,346,[0.14740237],100,44,hard,plus,dotcolour,beta,,,8,18,M,R,
300,48,6,7,2,53,27,732,['c'],1,left,['1'],6,224,[0.14354705],100,53,easy,plus,dotcolour,beta,,,8,18,M,R,
301,49,7,7,2,53,27,566,['c'],1,left,['1'],6,242,[0.09370569],100,53,easy,plus,dotcolour,beta,,,8,18,M,R,
302,50,8,7,2,44,36,1001,['c'],1,left,['1'],6,217,[0.06836842],99,44,hard,plus,dotcolour,beta,,,8,18,M,R,
303,51,9,7,2,47,33,1715,['n'],0,left,['2'],5,446,[0.04097286],60,47,medium,plus,dotcolour,beta,,,8,18,M,R,
304,52,10,7,2,44,36,1033,['c'],1,left,['1'],6,347,[0.14849185],100,44,hard,plus,dotcolour,beta,,,8,18,M,R,
305,53,11,7,2,27,53,765,['n'],1,right,['1'],6,239,[0.0256815],75,53,easy,plus,dotcolour,beta,,,8,18,M,R,
306,54,12,7,2,53,27,1482,['c'],1,left,['2'],5,228,[0.19001332],100,53,easy,plus,dotcolour,beta,,,8,18,M,R,
307,55,13,7,2,36,44,815,['c'],0,right,['2'],5,171,[0.10541799],100,44,hard,plus,dotcolour,beta,,,8,18,M,R,
308,56,14,7,2,36,44,948,['c'],0,right,['2'],5,208,[0.01972669],95,44,hard,plus,dotcolour,beta,,,8,18,M,R,
309,57,15,7,2,36,44,1082,['n'],1,right,['2'],5,181,[-0.12684304],100,44,hard,plus,dotcolour,beta,,,8,18,M,R,
310,58,16,7,2,47,33,1216,['c'],1,left,['2'],5,222,[0.11238041],100,47,medium,plus,dotcolour,beta,,,8,18,M,R,
311,59,17,7,2,27,53,782,['n'],1,right,['2'],5,200,[-0.09516213],100,53,easy,plus,dotcolour,beta,,,8,18,M,R,
312,60,18,7,2,27,53,1565,['n'],1,right,['2'],5,155,[-0.03656331],99,53,easy,plus,dotcolour,beta,,,8,18,M,R,
313,61,19,7,2,27,53,598,['n'],1,right,['1'],6,150,[-0.1684409],100,53,easy,plus,dotcolour,beta,,,8,18,M,R,
314,62,20,7,2,33,47,1465,['c'],0,right,['1'],6,167,[0.09639073],100,47,medium,plus,dotcolour,beta,,,8,18,M,R,
315,63,21,7,2,27,53,650,['n'],1,right,['1'],6,191,[-0.08984927],100,53,easy,plus,dotcolour,beta,,,8,18,M,R,
316,64,22,7,2,33,47,1463,['n'],1,right,['2'],5,190,[-0.04902482],99,47,medium,plus,dotcolour,beta,,,8,18,M,R,
317,65,23,7,2,33,47,1065,['n'],1,right,['2'],5,356,[-0.08868483],99,47,medium,plus,dotcolour,beta,,,8,18,M,R,
318,66,24,7,2,36,44,630,['n'],1,right,['2'],5,182,[-0.1250872],100,44,hard,plus,dotcolour,beta,,,8,18,M,R,
319,67,25,7,2,53,27,750,['c'],1,left,['1'],6,578,[0.15076969],99,53,easy,plus,dotcolour,beta,,,8,18,M,R,
320,68,26,7,2,47,33,966,['c'],1,left,['2'],5,261,[0.02961916],95,47,medium,plus,dotcolour,beta,,,8,18,M,R,
321,69,27,7,2,44,36,2400,['n'],0,left,['2'],5,1485,[-0.21059994],98,44,hard,plus,dotcolour,beta,,,8,18,M,R,
322,70,28,7,2,47,33,2182,['c'],1,left,['1'],6,226,[0.09018878],100,47,medium,plus,dotcolour,beta,,,8,18,M,R,
323,71,29,7,2,44,36,1134,['c'],1,left,['2'],5,589,[0.00305755],80,44,hard,plus,dotcolour,beta,,,8,18,M,R,
324,72,30,7,2,27,53,867,['n'],1,right,['1'],6,284,[-0.09664753],99,53,easy,plus,dotcolour,beta,,,8,18,M,R,
325,73,31,7,2,36,44,1249,['c'],0,right,['2'],5,199,[0.01782311],95,44,hard,plus,dotcolour,beta,,,8,18,M,R,
326,74,32,7,2,47,33,1383,['c'],1,left,['2'],5,321,[0.14810117],100,47,medium,plus,dotcolour,beta,,,8,18,M,R,
327,75,33,7,2,33,47,1066,['n'],1,right,['2'],5,235,[-0.08387857],99,47,medium,plus,dotcolour,beta,,,8,18,M,R,
328,76,34,7,2,44,36,899,['c'],1,left,['2'],5,207,[0.14523222],100,44,hard,plus,dotcolour,beta,,,8,18,M,R,
329,77,35,7,2,47,33,864,['c'],1,left,['2'],5,156,[0.09477894],100,47,medium,plus,dotcolour,beta,,,8,18,M,R,
330,78,36,7,2,33,47,749,['n'],1,right,['2'],5,250,[-0.00214839],89,47,medium,plus,dotcolour,beta,,,8,18,M,R,
331,79,37,7,2,27,53,865,['n'],1,right,['2'],5,255,[-0.10647272],100,53,easy,plus,dotcolour,beta,,,8,18,M,R,
332,80,38,7,2,44,36,882,['c'],1,left,['2'],5,210,[0.10685071],100,44,hard,plus,dotcolour,beta,,,8,18,M,R,
333,81,39,7,2,36,44,682,['n'],1,right,['1'],6,168,[-0.12126296],100,44,hard,plus,dotcolour,beta,,,8,18,M,R,
334,82,40,7,2,53,27,1082,['c'],1,left,['2'],5,247,[0.11136711],100,53,easy,plus,dotcolour,beta,,,8,18,M,R,
335,83,41,7,2,33,47,748,['n'],1,right,['1'],6,264,[-0.13758347],100,47,medium,plus,dotcolour,beta,,,8,18,M,R,
336,84,0,8,2,33,47,783,['n'],1,right,['1'],6,246,[-0.07938943],99,47,medium,plus,dotcolour,beta,,,8,18,M,R,
337,85,1,8,2,27,53,647,['n'],1,right,['1'],6,219,[-0.09535717],100,53,easy,plus,dotcolour,beta,,,8,18,M,R,
338,86,2,8,2,53,27,916,['c'],1,left,['2'],5,391,[0.09520947],99,53,easy,plus,dotcolour,beta,,,8,18,M,R,
339,87,3,8,2,33,47,682,['n'],1,right,['1'],6,221,[-0.0924657],100,47,medium,plus,dotcolour,beta,,,8,18,M,R,
340,88,4,8,2,53,27,1084,['c'],1,left,['2'],5,257,[0.11059903],100,53,easy,plus,dotcolour,beta,,,8,18,M,R,
341,89,5,8,2,47,33,849,['c'],1,left,['2'],5,222,[0.06856267],99,47,medium,plus,dotcolour,beta,,,8,18,M,R,
342,90,6,8,2,27,53,797,['n'],1,right,['2'],5,270,[-0.13171956],100,53,easy,plus,dotcolour,beta,,,8,18,M,R,
343,91,7,8,2,33,47,798,['n'],1,right,['2'],5,404,[-0.14295698],100,47,medium,plus,dotcolour,beta,,,8,18,M,R,
344,92,8,8,2,44,36,2766,['c'],1,left,['1'],6,367,[0.11574054],99,44,hard,plus,dotcolour,beta,,,8,18,M,R,
345,93,9,8,2,27,53,765,['n'],1,right,['2'],5,282,[-0.14052246],100,53,easy,plus,dotcolour,beta,,,8,18,M,R,
346,94,10,8,2,47,33,1165,['c'],1,left,['2'],5,257,[0.12422186],100,47,medium,plus,dotcolour,beta,,,8,18,M,R,
347,95,11,8,2,44,36,915,['n'],0,left,['2'],5,459,[-0.08099173],97,44,hard,plus,dotcolour,beta,,,8,18,M,R,
348,96,12,8,2,53,27,932,['c'],1,left,['2'],5,268,[0.14182543],100,53,easy,plus,dotcolour,beta,,,8,18,M,R,
349,97,13,8,2,44,36,1099,['c'],1,left,['2'],5,767,[0.0314307],86,44,hard,plus,dotcolour,beta,,,8,18,M,R,
350,98,14,8,2,27,53,1899,['n'],1,right,['3'],4,517,[-0.16870845],100,53,easy,plus,dotcolour,beta,,,8,18,M,R,
351,99,15,8,2,36,44,815,['n'],1,right,['1'],6,177,[-0.12877241],100,44,hard,plus,dotcolour,beta,,,8,18,M,R,
352,100,16,8,2,27,53,698,['n'],1,right,['1'],6,199,[-0.10415745],100,53,easy,plus,dotcolour,beta,,,8,18,M,R,
353,101,17,8,2,36,44,863,['c'],0,right,['2'],5,190,[0.09196945],100,44,hard,plus,dotcolour,beta,,,8,18,M,R,
354,102,18,8,2,36,44,998,['c'],0,right,['2'],5,175,[0.04332784],99,44,hard,plus,dotcolour,beta,,,8,18,M,R,
355,103,19,8,2,53,27,682,['c'],1,left,['1'],6,119,[0.16913361],100,53,easy,plus,dotcolour,beta,,,8,18,M,R,
356,104,20,8,2,36,44,1365,['n'],1,right,['2'],5,180,[-0.00669436],93,44,hard,plus,dotcolour,beta,,,8,18,M,R,
357,105,21,8,2,47,33,931,['n'],0,left,['3'],4,457,[-0.02432037],89,47,medium,plus,dotcolour,beta,,,8,18,M,R,
358,106,22,8,2,36,44,980,['n'],1,right,['3'],4,552,[-0.08118144],96,44,hard,plus,dotcolour,beta,,,8,18,M,R,
359,107,23,8,2,36,44,916,['c'],0,right,['1'],6,358,[0.07978822],98,44,hard,plus,dotcolour,beta,,,8,18,M,R,
360,108,24,8,2,27,53,650,['n'],1,right,['1'],6,247,[-0.10001595],100,53,easy,plus,dotcolour,beta,,,8,18,M,R,
361,109,25,8,2,27,53,783,['n'],1,right,['2'],5,367,[-0.23829193],100,53,easy,plus,dotcolour,beta,,,8,18,M,R,
362,110,26,8,2,33,47,665,['n'],1,right,['1'],6,207,[-0.06712404],99,47,medium,plus,dotcolour,beta,,,8,18,M,R,
363,111,27,8,2,44,36,898,['c'],1,left,['1'],6,235,[0.07755615],99,44,hard,plus,dotcolour,beta,,,8,18,M,R,
364,112,28,8,2,47,33,1215,['c'],1,left,['1'],6,163,[0.05896442],99,47,medium,plus,dotcolour,beta,,,8,18,M,R,
365,113,29,8,2,47,33,867,['c'],1,left,['1'],6,195,[0.0785026],100,47,medium,plus,dotcolour,beta,,,8,18,M,R,
366,114,30,8,2,33,47,751,['n'],1,right,['1'],6,198,[-0.08365609],100,47,medium,plus,dotcolour,beta,,,8,18,M,R,
367,115,31,8,2,44,36,1214,['c'],1,left,['1'],6,215,[0.08939396],100,44,hard,plus,dotcolour,beta,,,8,18,M,R,
368,116,32,8,2,53,27,1132,['c'],1,left,['1'],6,178,[0.0948968],100,53,easy,plus,dotcolour,beta,,,8,18,M,R,
369,117,33,8,2,44,36,2198,['c'],1,left,['3'],4,660,[0.17553705],99,44,hard,plus,dotcolour,beta,,,8,18,M,R,
370,118,34,8,2,44,36,915,['n'],0,left,['3'],4,550,[0.07859665],36,44,hard,plus,dotcolour,beta,,,8,18,M,R,
371,119,35,8,2,53,27,663,['c'],1,left,['1'],6,207,[0.03387855],97,53,easy,plus,dotcolour,beta,,,8,18,M,R,
372,120,36,8,2,47,33,1814,['c'],1,left,['3'],4,591,[0.19611856],100,47,medium,plus,dotcolour,beta,,,8,18,M,R,
373,121,37,8,2,47,33,3033,['c'],1,left,['3'],4,431,[0.12465002],99,47,medium,plus,dotcolour,beta,,,8,18,M,R,
374,122,38,8,2,33,47,999,['n'],1,right,['3'],4,255,[-0.11910406],100,47,medium,plus,dotcolour,beta,,,8,18,M,R,
375,123,39,8,2,36,44,781,['c'],0,right,['1'],6,270,[0.10268862],100,44,hard,plus,dotcolour,beta,,,8,18,M,R,
376,124,40,8,2,53,27,814,['c'],1,left,['1'],6,235,[0.18005691],100,53,easy,plus,dotcolour,beta,,,8,18,M,R,
377,125,41,8,2,33,47,999,['n'],1,right,['2'],5,476,[-0.07770136],97,47,medium,plus,dotcolour,beta,,,8,18,M,R,
378,0,0,9,3,36,44,933,['n'],1,right,['2'],5,671,[-0.15111254],89,44,hard,minus,dotcolour,beta,,,8,18,M,R,
379,1,1,9,3,27,53,662,['n'],1,right,['2'],5,218,[-0.09979529],85,53,easy,minus,dotcolour,beta,,,8,18,M,R,
380,2,2,9,3,47,33,750,['c'],1,left,['2'],5,437,[0.16403611],95,47,medium,minus,dotcolour,beta,,,8,18,M,R,
381,3,3,9,3,27,53,665,['n'],1,right,['2'],5,211,[-0.16207115],98,53,easy,minus,dotcolour,beta,,,8,18,M,R,
382,4,4,9,3,47,33,800,['c'],1,left,['2'],5,251,[0.02025432],22,47,medium,minus,dotcolour,beta,,,8,18,M,R,
383,5,5,9,3,44,36,1315,['c'],1,left,['3'],4,638,[0.02678712],34,44,hard,minus,dotcolour,beta,,,8,18,M,R,
384,6,6,9,3,47,33,817,['c'],1,left,['1'],6,580,[0.10377062],76,47,medium,minus,dotcolour,beta,,,8,18,M,R,
385,7,7,9,3,33,47,932,['n'],1,right,['2'],5,185,[-0.1623436],99,47,medium,minus,dotcolour,beta,,,8,18,M,R,
386,8,8,9,3,36,44,782,['n'],1,right,['2'],5,172,[-0.10694698],90,44,hard,minus,dotcolour,beta,,,8,18,M,R,
387,9,9,9,3,44,36,1100,['c'],1,left,['2'],5,250,[0.06800597],61,44,hard,minus,dotcolour,beta,,,8,18,M,R,
388,10,10,9,3,36,44,782,['n'],1,right,['2'],5,219,[-0.02335682],22,44,hard,minus,dotcolour,beta,,,8,18,M,R,
389,11,11,9,3,47,33,965,['c'],1,left,['2'],5,564,[0.19499995],97,47,medium,minus,dotcolour,beta,,,8,18,M,R,
390,12,12,9,3,44,36,1248,['c'],1,left,['2'],5,269,[0.13226275],93,44,hard,minus,dotcolour,beta,,,8,18,M,R,
391,13,13,9,3,36,44,712,['n'],1,right,['2'],5,207,[-0.1209654],93,44,hard,minus,dotcolour,beta,,,8,18,M,R,
392,14,14,9,3,53,27,1215,['c'],1,left,['2'],5,519,[0.17856604],96,53,easy,minus,dotcolour,beta,,,8,18,M,R,
393,15,15,9,3,33,47,1048,['n'],1,right,['1'],6,345,[-0.1277553],90,47,medium,minus,dotcolour,beta,,,8,18,M,R,
394,16,16,9,3,44,36,1032,['c'],1,left,['2'],5,675,[0.08059588],63,44,hard,minus,dotcolour,beta,,,8,18,M,R,
395,17,17,9,3,36,44,847,['n'],1,right,['1'],6,319,[-0.07340194],64,44,hard,minus,dotcolour,beta,,,8,18,M,R,
396,18,18,9,3,53,27,1200,['c'],1,left,['2'],5,235,[0.05659019],51,53,easy,minus,dotcolour,beta,,,8,18,M,R,
397,19,19,9,3,53,27,784,['c'],1,left,['2'],5,243,[0.10216185],85,53,easy,minus,dotcolour,beta,,,8,18,M,R,
398,20,20,9,3,33,47,683,['n'],1,right,['2'],5,215,[-0.05017357],45,47,medium,minus,dotcolour,beta,,,8,18,M,R,
399,21,21,9,3,33,47,817,['n'],1,right,['2'],5,286,[-0.09688524],80,47,medium,minus,dotcolour,beta,,,8,18,M,R,
400,22,22,9,3,53,27,717,['c'],1,left,['2'],5,224,[0.10460267],87,53,easy,minus,dotcolour,beta,,,8,18,M,R,
401,23,23,9,3,47,33,765,['c'],1,left,['2'],5,289,[0.06519991],58,47,medium,minus,dotcolour,beta,,,8,18,M,R,
402,24,24,9,3,44,36,867,['n'],0,left,['9'],2,1924,[-0.10511201],66,44,hard,minus,dotcolour,beta,,,8,18,M,R,
403,25,25,9,3,47,33,1232,['c'],1,left,['1'],6,342,[0.16307894],96,47,medium,minus,dotcolour,beta,,,8,18,M,R,
404,26,26,9,3,27,53,665,['n'],1,right,['1'],6,199,[-0.1336122],96,53,easy,minus,dotcolour,beta,,,8,18,M,R,
405,27,27,9,3,33,47,615,['n'],1,right,['1'],6,143,[-0.12062236],96,47,medium,minus,dotcolour,beta,,,8,18,M,R,
406,28,28,9,3,44,36,1065,['c'],1,left,['1'],6,200,[0.06566668],60,44,hard,minus,dotcolour,beta,,,8,18,M,R,
407,29,29,9,3,36,44,800,['n'],1,right,['1'],6,561,[-0.05020314],47,44,hard,minus,dotcolour,beta,,,8,18,M,R,
408,30,30,9,3,33,47,633,['n'],1,right,['1'],6,162,[-0.15311951],99,47,medium,minus,dotcolour,beta,,,8,18,M,R,
409,31,31,9,3,33,47,550,['n'],1,right,['1'],6,175,[-0.07749412],72,47,medium,minus,dotcolour,beta,,,8,18,M,R,
410,32,32,9,3,44,36,1099,['n'],0,left,['3'],4,1405,[0.15374782],4,44,hard,minus,dotcolour,beta,,,8,18,M,R,
411,33,33,9,3,27,53,882,['n'],1,right,['2'],5,362,[-0.21696145],99,53,easy,minus,dotcolour,beta,,,8,18,M,R,
412,34,34,9,3,27,53,715,['n'],1,right,['1'],6,296,[-0.12991814],92,53,easy,minus,dotcolour,beta,,,8,18,M,R,
413,35,35,9,3,27,53,566,['n'],1,right,['1'],6,183,[-0.09400786],83,53,easy,minus,dotcolour,beta,,,8,18,M,R,
414,36,36,9,3,27,53,649,['n'],1,right,['1'],6,223,[-0.01325759],17,53,easy,minus,dotcolour,beta,,,8,18,M,R,
415,37,37,9,3,47,33,933,['c'],1,left,['1'],6,169,[0.12047492],94,47,medium,minus,dotcolour,beta,,,8,18,M,R,
416,38,38,9,3,36,44,1181,['n'],1,right,['2'],5,269,[-0.08127665],71,44,hard,minus,dotcolour,beta,,,8,18,M,R,
417,39,39,9,3,53,27,749,['c'],1,left,['2'],5,454,[0.06983162],59,53,easy,minus,dotcolour,beta,,,8,18,M,R,
418,40,40,9,3,53,27,782,['c'],1,left,['2'],5,245,[0.08142446],72,53,easy,minus,dotcolour,beta,,,8,18,M,R,
419,41,41,9,3,53,27,1882,['c'],1,left,['2'],5,337,[0.20049026],99,53,easy,minus,dotcolour,beta,,,8,18,M,R,
420,42,0,10,3,36,44,949,['n'],1,right,['2'],5,208,[-0.06333357],58,44,hard,minus,dotcolour,beta,,,8,18,M,R,
421,43,1,10,3,33,47,699,['n'],1,right,['2'],5,157,[-0.09323253],85,47,medium,minus,dotcolour,beta,,,8,18,M,R,
422,44,2,10,3,53,27,814,['c'],1,left,['1'],6,95,[0.09070747],89,53,easy,minus,dotcolour,beta,,,8,18,M,R,
423,45,3,10,3,27,53,715,['n'],1,right,['2'],5,192,[-0.08115215],74,53,easy,minus,dotcolour,beta,,,8,18,M,R,
424,46,4,10,3,44,36,1181,['n'],0,left,['3'],4,1074,[-0.13258708],79,44,hard,minus,dotcolour,beta,,,8,18,M,R,
425,47,5,10,3,47,33,6865,['n'],0,left,['0'],1,2189,[0.21686835],4,47,medium,minus,dotcolour,beta,,,8,18,M,R,
426,48,6,10,3,53,27,1181,['c'],1,left,['3'],4,478,[-0.0705191],4,53,easy,minus,dotcolour,beta,,,8,18,M,R,
427,49,7,10,3,36,44,1914,['n'],1,right,['2'],5,296,[-0.07969792],69,44,hard,minus,dotcolour,beta,,,8,18,M,R,
428,50,8,10,3,36,44,1066,['n'],1,right,['2'],5,242,[-0.03795104],34,44,hard,minus,dotcolour,beta,,,8,18,M,R,
429,51,9,10,3,33,47,731,['n'],1,right,['2'],5,188,[-0.13457861],96,47,medium,minus,dotcolour,beta,,,8,18,M,R,
430,52,10,10,3,47,33,2265,['c'],1,left,['2'],5,324,[0.06107406],54,47,medium,minus,dotcolour,beta,,,8,18,M,R,
431,53,11,10,3,33,47,914,['n'],1,right,['2'],5,531,[-0.03572008],38,47,medium,minus,dotcolour,beta,,,8,18,M,R,
432,54,12,10,3,44,36,1083,['n'],0,left,['3'],4,540,[-0.06773042],57,44,hard,minus,dotcolour,beta,,,8,18,M,R,
433,55,13,10,3,53,27,831,['c'],1,left,['1'],6,486,[0.10558689],78,53,easy,minus,dotcolour,beta,,,8,18,M,R,
434,56,14,10,3,27,53,598,['n'],1,right,['1'],6,243,[-0.07531839],67,53,easy,minus,dotcolour,beta,,,8,18,M,R,
435,57,15,10,3,44,36,1331,['c'],1,left,['2'],5,285,[0.10773011],85,44,hard,minus,dotcolour,beta,,,8,18,M,R,
436,58,16,10,3,27,53,648,['n'],1,right,['1'],6,233,[-0.07530979],68,53,easy,minus,dotcolour,beta,,,8,18,M,R,
437,59,17,10,3,53,27,964,['c'],1,left,['1'],6,442,[0.06544595],57,53,easy,minus,dotcolour,beta,,,8,18,M,R,
438,60,18,10,3,36,44,633,['n'],1,right,['1'],6,176,[-0.08816026],80,44,hard,minus,dotcolour,beta,,,8,18,M,R,
439,61,19,10,3,53,27,798,['c'],1,left,['2'],5,387,[0.16673556],96,53,easy,minus,dotcolour,beta,,,8,18,M,R,
440,62,20,10,3,27,53,565,['n'],1,right,['1'],6,246,[-0.1831475],99,53,easy,minus,dotcolour,beta,,,8,18,M,R,
441,63,21,10,3,47,33,948,['c'],1,left,['2'],5,319,[0.10083781],81,47,medium,minus,dotcolour,beta,,,8,18,M,R,
442,64,22,10,3,33,47,617,['n'],1,right,['1'],6,218,[-0.071977],65,47,medium,minus,dotcolour,beta,,,8,18,M,R,
443,65,23,10,3,44,36,2431,['n'],0,left,['8'],3,1778,[-0.16513124],81,44,hard,minus,dotcolour,beta,,,8,18,M,R,
444,66,24,10,3,44,36,1449,['n'],0,left,['8'],3,522,[-0.12041136],83,44,hard,minus,dotcolour,beta,,,8,18,M,R,
445,67,25,10,3,47,33,732,['c'],1,left,['1'],6,328,[0.1028507],82,47,medium,minus,dotcolour,beta,,,8,18,M,R,
446,68,26,10,3,33,47,932,['n'],1,right,['2'],5,207,[-0.0882633],78,47,medium,minus,dotcolour,beta,,,8,18,M,R,
447,69,27,10,3,44,36,931,['c'],1,left,['1'],6,266,[0.12125338],91,44,hard,minus,dotcolour,beta,,,8,18,M,R,
448,70,28,10,3,47,33,848,['n'],0,left,['2'],5,231,[-0.02390906],23,47,medium,minus,dotcolour,beta,,,8,18,M,R,
449,71,29,10,3,27,53,780,['n'],1,right,['2'],5,591,[-0.1007676],74,53,easy,minus,dotcolour,beta,,,8,18,M,R,
450,72,30,10,3,44,36,765,['c'],1,left,['1'],6,218,[0.07624726],69,44,hard,minus,dotcolour,beta,,,8,18,M,R,
451,73,31,10,3,36,44,866,['n'],1,right,['3'],4,712,[-0.10870198],76,44,hard,minus,dotcolour,beta,,,8,18,M,R,
452,74,32,10,3,53,27,914,['c'],1,left,['3'],4,360,[0.1808735],98,53,easy,minus,dotcolour,beta,,,8,18,M,R,
453,75,33,10,3,27,53,814,['n'],1,right,['2'],5,690,[-0.17273039],93,53,easy,minus,dotcolour,beta,,,8,18,M,R,
454,76,34,10,3,36,44,849,['n'],1,right,['2'],5,301,[-0.16974375],98,44,hard,minus,dotcolour,beta,,,8,18,M,R,
455,77,35,10,3,47,33,831,['c'],1,left,['3'],4,449,[0.01307748],24,47,medium,minus,dotcolour,beta,,,8,18,M,R,
456,78,36,10,3,33,47,697,['n'],1,right,['2'],5,277,[-0.1113803],87,47,medium,minus,dotcolour,beta,,,8,18,M,R,
457,79,37,10,3,33,47,666,['n'],1,right,['2'],5,304,[-0.09246327],77,47,medium,minus,dotcolour,beta,,,8,18,M,R,
458,80,38,10,3,36,44,3181,['c'],0,right,['3'],4,373,[0.10697356],82,44,hard,minus,dotcolour,beta,,,8,18,M,R,
459,81,39,10,3,53,27,966,['c'],1,left,['1'],6,393,[0.21244771],99,53,easy,minus,dotcolour,beta,,,8,18,M,R,
460,82,40,10,3,47,33,917,['n'],0,left,['1'],6,438,[0.05231006],5,47,medium,minus,dotcolour,beta,,,8,18,M,R,
461,83,41,10,3,27,53,1050,['n'],1,right,['1'],6,284,[-0.11385234],88,53,easy,minus,dotcolour,beta,,,8,18,M,R,
462,84,0,11,3,53,27,934,['c'],1,left,['2'],5,2168,[0.50780546],100,53,easy,minus,dotcolour,beta,,,8,18,M,R,
463,85,1,11,3,36,44,766,['n'],1,right,['3'],4,339,[-0.12116117],88,44,hard,minus,dotcolour,beta,,,8,18,M,R,
464,86,2,11,3,44,36,1067,['c'],1,left,['2'],5,292,[0.07488689],66,44,hard,minus,dotcolour,beta,,,8,18,M,R,
465,87,3,11,3,47,33,832,['c'],1,left,['2'],5,480,[0.05010518],46,47,medium,minus,dotcolour,beta,,,8,18,M,R,
466,88,4,11,3,27,53,682,['n'],1,right,['2'],5,259,[-0.08815821],76,53,easy,minus,dotcolour,beta,,,8,18,M,R,
467,89,5,11,3,44,36,849,['n'],0,left,['2'],5,184,[-0.10238282],88,44,hard,minus,dotcolour,beta,,,8,18,M,R,
468,90,6,11,3,53,27,1231,['c'],1,left,['2'],5,224,[0.13260797],95,53,easy,minus,dotcolour,beta,,,8,18,M,R,
469,91,7,11,3,36,44,849,['n'],1,right,['2'],5,222,[-0.15293109],98,44,hard,minus,dotcolour,beta,,,8,18,M,R,
470,92,8,11,3,44,36,934,['c'],1,left,['2'],5,217,[0.06606314],60,44,hard,minus,dotcolour,beta,,,8,18,M,R,
471,93,9,11,3,33,47,598,['n'],1,right,['2'],5,170,[-0.15080537],98,47,medium,minus,dotcolour,beta,,,8,18,M,R,
472,94,10,11,3,47,33,748,['c'],1,left,['2'],5,222,[0.09680867],83,47,medium,minus,dotcolour,beta,,,8,18,M,R,
473,95,11,11,3,27,53,666,['n'],1,right,['1'],6,293,[-0.15847669],97,53,easy,minus,dotcolour,beta,,,8,18,M,R,
474,96,12,11,3,47,33,1081,['c'],1,left,['1'],6,135,[0.12434066],97,47,medium,minus,dotcolour,beta,,,8,18,M,R,
475,97,13,11,3,44,36,3099,['c'],1,left,['3'],4,863,[-0.01056864],22,44,hard,minus,dotcolour,beta,,,8,18,M,R,
476,98,14,11,3,33,47,1097,['n'],1,right,['1'],6,249,[-0.10996689],88,47,medium,minus,dotcolour,beta,,,8,18,M,R,
477,99,15,11,3,36,44,816,['n'],1,right,['2'],5,352,[-0.08954494],74,44,hard,minus,dotcolour,beta,,,8,18,M,R,
478,100,16,11,3,47,33,865,['c'],1,left,['2'],5,336,[0.12099032],88,47,medium,minus,dotcolour,beta,,,8,18,M,R,
479,101,17,11,3,44,36,1683,['c'],1,left,['1'],6,121,[0.07563715],74,44,hard,minus,dotcolour,beta,,,8,18,M,R,
480,102,18,11,3,33,47,699,['n'],1,right,['1'],6,145,[-0.12198046],96,47,medium,minus,dotcolour,beta,,,8,18,M,R,
481,103,19,11,3,53,27,965,['c'],1,left,['3'],4,181,[0.09008313],81,53,easy,minus,dotcolour,beta,,,8,18,M,R,
482,104,20,11,3,27,53,814,['n'],1,right,['1'],6,183,[-0.06071266],55,53,easy,minus,dotcolour,beta,,,8,18,M,R,
483,105,21,11,3,36,44,1033,['c'],0,right,['1'],6,151,[0.02715405],21,44,hard,minus,dotcolour,beta,,,8,18,M,R,
484,106,22,11,3,33,47,915,['n'],1,right,['1'],6,166,[-0.00927932],11,47,medium,minus,dotcolour,beta,,,8,18,M,R,
485,107,23,11,3,27,53,680,['n'],1,right,['1'],6,165,[-0.08006865],75,53,easy,minus,dotcolour,beta,,,8,18,M,R,
486,108,24,11,3,47,33,1031,['c'],1,left,['2'],5,215,[0.1732141],99,47,medium,minus,dotcolour,beta,,,8,18,M,R,
487,109,25,11,3,36,44,1096,['n'],1,right,['1'],6,203,[-0.06168108],56,44,hard,minus,dotcolour,beta,,,8,18,M,R,
488,110,26,11,3,27,53,681,['n'],1,right,['1'],6,226,[-0.11763771],91,53,easy,minus,dotcolour,beta,,,8,18,M,R,
489,111,27,11,3,27,53,864,['n'],1,right,['1'],6,167,[-0.14958134],98,53,easy,minus,dotcolour,beta,,,8,18,M,R,
490,112,28,11,3,36,44,733,['n'],1,right,['1'],6,276,[-0.05345424],48,44,hard,minus,dotcolour,beta,,,8,18,M,R,
491,113,29,11,3,53,27,850,['c'],1,left,['2'],5,232,[0.13029956],94,53,easy,minus,dotcolour,beta,,,8,18,M,R,
492,114,30,11,3,53,27,1451,['c'],1,left,['2'],5,214,[0.15261995],98,53,easy,minus,dotcolour,beta,,,8,18,M,R,
493,115,31,11,3,47,33,1066,['c'],1,left,['2'],5,276,[0.17407758],98,47,medium,minus,dotcolour,beta,,,8,18,M,R,
494,116,32,11,3,33,47,716,['n'],1,right,['1'],6,157,[-0.11940425],95,47,medium,minus,dotcolour,beta,,,8,18,M,R,
495,117,33,11,3,53,27,1132,['c'],1,left,['1'],6,139,[0.1091497],93,53,easy,minus,dotcolour,beta,,,8,18,M,R,
496,118,34,11,3,47,33,1166,['c'],1,left,['3'],4,856,[0.25921995],98,47,medium,minus,dotcolour,beta,,,8,18,M,R,
497,119,35,11,3,53,27,732,['c'],1,left,['1'],6,169,[0.10053535],88,53,easy,minus,dotcolour,beta,,,8,18,M,R,
498,120,36,11,3,27,53,1248,['n'],1,right,['1'],6,177,[-0.14770027],98,53,easy,minus,dotcolour,beta,,,8,18,M,R,
499,121,37,11,3,33,47,931,['n'],1,right,['1'],6,182,[-0.13797245],97,47,medium,minus,dotcolour,beta,,,8,18,M,R,
500,122,38,11,3,33,47,647,['n'],1,right,['1'],6,182,[-0.07001868],65,47,medium,minus,dotcolour,beta,,,8,18,M,R,
501,123,39,11,3,44,36,832,['c'],1,left,['1'],6,167,[0.11089671],92,44,hard,minus,dotcolour,beta,,,8,18,M,R,
502,124,40,11,3,44,36,1633,['n'],0,left,['3'],4,888,[-0.15574692],87,44,hard,minus,dotcolour,beta,,,8,18,M,R,
503,125,41,11,3,36,44,816,['n'],1,right,['1'],6,245,[-0.10114653],84,44,hard,minus,dotcolour,beta,,,8,18,M,R,
504,0,0,12,4,47,33,900,['c'],1,left,['1'],6,186,[0.11010454],100,47,medium,plus,dotcolour,beta,,,8,18,M,R,
505,1,1,12,4,36,44,680,['n'],1,right,['1'],6,136,[-0.1159895],100,44,hard,plus,dotcolour,beta,,,8,18,M,R,
506,2,2,12,4,33,47,665,['n'],1,right,['1'],6,161,[-0.04100626],99,47,medium,plus,dotcolour,beta,,,8,18,M,R,
507,3,3,12,4,44,36,2215,['c'],1,left,['2'],5,900,[0.19206196],99,44,hard,plus,dotcolour,beta,,,8,18,M,R,
508,4,4,12,4,36,44,698,['n'],1,right,['2'],5,348,[-0.02252461],92,44,hard,plus,dotcolour,beta,,,8,18,M,R,
509,5,5,12,4,44,36,1398,['n'],0,left,['3'],4,351,[-0.02173609],91,44,hard,plus,dotcolour,beta,,,8,18,M,R,
510,6,6,12,4,53,27,813,['c'],1,left,['1'],6,161,[0.07324192],100,53,easy,plus,dotcolour,beta,,,8,18,M,R,
511,7,7,12,4,27,53,747,['n'],1,right,['1'],6,150,[-0.11813561],100,53,easy,plus,dotcolour,beta,,,8,18,M,R,
512,8,8,12,4,44,36,2048,['n'],0,left,['3'],4,463,[-0.11819259],99,44,hard,plus,dotcolour,beta,,,8,18,M,R,
513,9,9,12,4,53,27,680,['c'],1,left,['1'],6,138,[0.06163206],100,53,easy,plus,dotcolour,beta,,,8,18,M,R,
514,10,10,12,4,47,33,784,['c'],1,left,['1'],6,198,[0.02953359],97,47,medium,plus,dotcolour,beta,,,8,18,M,R,
515,11,11,12,4,33,47,649,['n'],1,right,['1'],6,198,[-0.07666403],100,47,medium,plus,dotcolour,beta,,,8,18,M,R,
516,12,12,12,4,36,44,900,['n'],1,right,['1'],6,347,[-0.06170662],97,44,hard,plus,dotcolour,beta,,,8,18,M,R,
517,13,13,12,4,53,27,1098,['c'],1,left,['1'],6,218,[0.01201442],93,53,easy,plus,dotcolour,beta,,,8,18,M,R,
518,14,14,12,4,36,44,732,['n'],1,right,['2'],5,461,[-0.01988766],88,44,hard,plus,dotcolour,beta,,,8,18,M,R,
519,15,15,12,4,44,36,997,['n'],0,left,['2'],5,404,[0.00689003],80,44,hard,plus,dotcolour,beta,,,8,18,M,R,
520,16,16,12,4,33,47,648,['n'],1,right,['2'],5,259,[-0.15176352],100,47,medium,plus,dotcolour,beta,,,8,18,M,R,
521,17,17,12,4,36,44,766,['n'],1,right,['2'],5,195,[-0.12050427],100,44,hard,plus,dotcolour,beta,,,8,18,M,R,
522,18,18,12,4,44,36,1216,['c'],1,left,['1'],6,244,[0.08607933],99,44,hard,plus,dotcolour,beta,,,8,18,M,R,
523,19,19,12,4,44,36,1180,['n'],0,left,['2'],5,292,[-0.09304133],99,44,hard,plus,dotcolour,beta,,,8,18,M,R,
524,20,20,12,4,36,44,648,['n'],1,right,['2'],5,167,[-0.08319507],100,44,hard,plus,dotcolour,beta,,,8,18,M,R,
525,21,21,12,4,27,53,651,['n'],1,right,['2'],5,232,[-0.08583479],99,53,easy,plus,dotcolour,beta,,,8,18,M,R,
526,22,22,12,4,33,47,616,['n'],1,right,['2'],5,143,[-0.11445211],100,47,medium,plus,dotcolour,beta,,,8,18,M,R,
527,23,23,12,4,27,53,498,['n'],1,right,['2'],5,166,[-0.0758104],100,53,easy,plus,dotcolour,beta,,,8,18,M,R,
528,24,24,12,4,53,27,899,['n'],0,left,['1'],6,613,[0.08168247],35,53,easy,plus,dotcolour,beta,,,8,18,M,R,
529,25,25,12,4,47,33,1348,['c'],1,left,['2'],5,264,[0.18200908],100,47,medium,plus,dotcolour,beta,,,8,18,M,R,
530,26,26,12,4,53,27,1448,['n'],0,left,['2'],5,325,[-0.02376654],92,53,easy,plus,dotcolour,beta,,,8,18,M,R,
531,27,27,12,4,27,53,1665,['c'],0,right,['2'],5,486,[0.08485183],97,53,easy,plus,dotcolour,beta,,,8,18,M,R,
532,28,28,12,4,27,53,783,['n'],1,right,['1'],6,189,[-0.02664101],97,53,easy,plus,dotcolour,beta,,,8,18,M,R,
533,29,29,12,4,36,44,715,['n'],1,right,['1'],6,162,[-0.01979141],97,44,hard,plus,dotcolour,beta,,,8,18,M,R,
534,30,30,12,4,47,33,1348,['c'],1,left,['2'],5,263,[0.17444222],100,47,medium,plus,dotcolour,beta,,,8,18,M,R,
535,31,31,12,4,53,27,1083,['c'],1,left,['2'],5,274,[0.10930017],100,53,easy,plus,dotcolour,beta,,,8,18,M,R,
536,32,32,12,4,33,47,682,['n'],1,right,['1'],6,277,[-0.12548907],100,47,medium,plus,dotcolour,beta,,,8,18,M,R,
537,33,33,12,4,47,33,1382,['c'],1,left,['1'],6,260,[-0.0068161],85,47,medium,plus,dotcolour,beta,,,8,18,M,R,
538,34,34,12,4,53,27,1083,['c'],1,left,['3'],4,183,[0.10758264],100,53,easy,plus,dotcolour,beta,,,8,18,M,R,
539,35,35,12,4,27,53,833,['n'],1,right,['2'],5,384,[-0.06405055],97,53,easy,plus,dotcolour,beta,,,8,18,M,R,
540,36,36,12,4,44,36,1065,['c'],1,left,['2'],5,183,[0.08177156],100,44,hard,plus,dotcolour,beta,,,8,18,M,R,
541,37,37,12,4,33,47,900,['n'],1,right,['2'],5,245,[-0.14219471],100,47,medium,plus,dotcolour,beta,,,8,18,M,R,
542,38,38,12,4,47,33,932,['n'],0,left,['2'],5,167,[-0.02172781],97,47,medium,plus,dotcolour,beta,,,8,18,M,R,
543,39,39,12,4,47,33,1167,['n'],0,left,['2'],5,172,[-0.03437283],98,47,medium,plus,dotcolour,beta,,,8,18,M,R,
544,40,40,12,4,33,47,649,['n'],1,right,['2'],5,108,[-0.04682839],100,47,medium,plus,dotcolour,beta,,,8,18,M,R,
545,41,41,12,4,27,53,582,['n'],1,right,['2'],5,129,[-0.04965932],99,53,easy,plus,dotcolour,beta,,,8,18,M,R,
546,42,0,13,4,44,36,3134,['c'],1,left,['3'],4,662,[0.05790264],92,44,hard,plus,dotcolour,beta,,,8,18,M,R,
547,43,1,13,4,36,44,948,['c'],0,right,['2'],5,1119,[-0.12635154],23,44,hard,plus,dotcolour,beta,,,8,18,M,R,
548,44,2,13,4,44,36,1181,['c'],1,left,['2'],5,428,[0.05386644],95,44,hard,plus,dotcolour,beta,,,8,18,M,R,
549,45,3,13,4,47,33,1264,['n'],0,left,['3'],4,618,[-0.16719796],99,47,medium,plus,dotcolour,beta,,,8,18,M,R,
550,46,4,13,4,33,47,1048,['n'],1,right,['3'],4,200,[-0.11251694],100,47,medium,plus,dotcolour,beta,,,8,18,M,R,
551,47,5,13,4,47,33,916,['c'],1,left,['3'],4,700,[0.13896819],99,47,medium,plus,dotcolour,beta,,,8,18,M,R,
552,48,6,13,4,27,53,815,['n'],1,right,['1'],6,177,[-0.07026707],100,53,easy,plus,dotcolour,beta,,,8,18,M,R,
553,49,7,13,4,47,33,1165,['c'],1,left,['1'],6,620,[0.1545944],99,47,medium,plus,dotcolour,beta,,,8,18,M,R,
554,50,8,13,4,27,53,681,['n'],1,right,['1'],6,537,[-0.13459445],99,53,easy,plus,dotcolour,beta,,,8,18,M,R,
555,51,9,13,4,27,53,680,['n'],1,right,['1'],6,177,[-0.12184508],100,53,easy,plus,dotcolour,beta,,,8,18,M,R,
556,52,10,13,4,53,27,1080,['c'],1,left,['2'],5,328,[0.15521871],100,53,easy,plus,dotcolour,beta,,,8,18,M,R,
557,53,11,13,4,36,44,683,['n'],1,right,['1'],6,345,[-0.0381044],95,44,hard,plus,dotcolour,beta,,,8,18,M,R,
558,54,12,13,4,47,33,798,['c'],1,left,['2'],5,524,[0.14997301],99,47,medium,plus,dotcolour,beta,,,8,18,M,R,
559,55,13,13,4,47,33,799,['c'],1,left,['2'],5,328,[0.14448118],100,47,medium,plus,dotcolour,beta,,,8,18,M,R,
560,56,14,13,4,53,27,699,['c'],1,left,['2'],5,168,[0.07909847],100,53,easy,plus,dotcolour,beta,,,8,18,M,R,
561,57,15,13,4,36,44,682,['n'],1,right,['2'],5,207,[-0.14419075],100,44,hard,plus,dotcolour,beta,,,8,18,M,R,
562,58,16,13,4,44,36,913,['n'],0,left,['2'],5,163,[-0.05836613],99,44,hard,plus,dotcolour,beta,,,8,18,M,R,
563,59,17,13,4,53,27,898,['c'],1,left,['2'],5,169,[0.143024],100,53,easy,plus,dotcolour,beta,,,8,18,M,R,
564,60,18,13,4,27,53,965,['n'],1,right,['1'],6,205,[-0.15454624],100,53,easy,plus,dotcolour,beta,,,8,18,M,R,
565,61,19,13,4,47,33,765,['c'],1,left,['2'],5,240,[0.13907059],100,47,medium,plus,dotcolour,beta,,,8,18,M,R,
566,62,20,13,4,53,27,931,['c'],1,left,['1'],6,298,[0.14898547],100,53,easy,plus,dotcolour,beta,,,8,18,M,R,
567,63,21,13,4,36,44,683,['n'],1,right,['1'],6,236,[-0.06953193],99,44,hard,plus,dotcolour,beta,,,8,18,M,R,
568,64,22,13,4,44,36,832,['c'],1,left,['2'],5,235,[-0.06171646],44,44,hard,plus,dotcolour,beta,,,8,18,M,R,
569,65,23,13,4,33,47,698,['n'],1,right,['2'],5,190,[-0.14835678],100,47,medium,plus,dotcolour,beta,,,8,18,M,R,
570,66,24,13,4,33,47,665,['n'],1,right,['2'],5,221,[-0.03059394],96,47,medium,plus,dotcolour,beta,,,8,18,M,R,
571,67,25,13,4,47,33,766,['c'],1,left,['2'],5,223,[0.11038064],100,47,medium,plus,dotcolour,beta,,,8,18,M,R,
572,68,26,13,4,33,47,799,['n'],1,right,['2'],5,215,[-0.11258843],100,47,medium,plus,dotcolour,beta,,,8,18,M,R,
573,69,27,13,4,44,36,997,['c'],1,left,['1'],6,159,[0.04644685],99,44,hard,plus,dotcolour,beta,,,8,18,M,R,
574,70,28,13,4,53,27,964,['c'],1,left,['1'],6,203,[0.05124939],99,53,easy,plus,dotcolour,beta,,,8,18,M,R,
575,71,29,13,4,33,47,582,['n'],1,right,['1'],6,205,[-0.10331131],100,47,medium,plus,dotcolour,beta,,,8,18,M,R,
576,72,30,13,4,44,36,1448,['c'],1,left,['1'],6,172,[0.0315735],98,44,hard,plus,dotcolour,beta,,,8,18,M,R,
577,73,31,13,4,53,27,699,['c'],1,left,['1'],6,131,[0.10280296],100,53,easy,plus,dotcolour,beta,,,8,18,M,R,
578,74,32,13,4,36,44,799,['n'],1,right,['1'],6,167,[-0.03699301],98,44,hard,plus,dotcolour,beta,,,8,18,M,R,
579,75,33,13,4,36,44,698,['n'],1,right,['1'],6,286,[-0.13403288],100,44,hard,plus,dotcolour,beta,,,8,18,M,R,
580,76,34,13,4,33,47,631,['n'],1,right,['1'],6,130,[-0.09730955],100,47,medium,plus,dotcolour,beta,,,8,18,M,R,
581,77,35,13,4,53,27,698,['c'],1,left,['1'],6,242,[0.08300337],99,53,easy,plus,dotcolour,beta,,,8,18,M,R,
582,78,36,13,4,36,44,848,['n'],1,right,['1'],6,159,[-0.03004875],98,44,hard,plus,dotcolour,beta,,,8,18,M,R,
583,79,37,13,4,44,36,1363,['c'],1,left,['1'],6,211,[0.13022536],100,44,hard,plus,dotcolour,beta,,,8,18,M,R,
584,80,38,13,4,27,53,631,['n'],1,right,['1'],6,123,[-0.07396495],100,53,easy,plus,dotcolour,beta,,,8,18,M,R,
585,81,39,13,4,33,47,899,['n'],1,right,['2'],5,204,[-0.08807675],100,47,medium,plus,dotcolour,beta,,,8,18,M,R,
586,82,40,13,4,27,53,666,['n'],1,right,['1'],6,154,[-0.1011115],100,53,easy,plus,dotcolour,beta,,,8,18,M,R,
587,83,41,13,4,27,53,583,['n'],1,right,['1'],6,190,[-0.13758069],100,53,easy,plus,dotcolour,beta,,,8,18,M,R,
588,84,0,14,4,53,27,1016,['c'],1,left,['1'],6,981,[0.13036755],97,53,easy,plus,dotcolour,beta,,,8,18,M,R,
589,85,1,14,4,44,36,582,['n'],0,left,['2'],5,215,[-0.04988729],98,44,hard,plus,dotcolour,beta,,,8,18,M,R,
590,86,2,14,4,33,47,633,['n'],1,right,['1'],6,198,[-0.01765673],95,47,medium,plus,dotcolour,beta,,,8,18,M,R,
591,87,3,14,4,47,33,1632,['c'],1,left,['2'],5,199,[0.11784715],100,47,medium,plus,dotcolour,beta,,,8,18,M,R,
592,88,4,14,4,27,53,883,['n'],1,right,['2'],5,188,[-0.11960634],100,53,easy,plus,dotcolour,beta,,,8,18,M,R,
593,89,5,14,4,27,53,616,['n'],1,right,['2'],5,125,[-0.07789819],100,53,easy,plus,dotcolour,beta,,,8,18,M,R,
594,90,6,14,4,36,44,931,['c'],0,right,['2'],5,180,[0.06143244],99,44,hard,plus,dotcolour,beta,,,8,18,M,R,
595,91,7,14,4,44,36,1182,['n'],0,left,['2'],5,150,[-0.05242939],99,44,hard,plus,dotcolour,beta,,,8,18,M,R,
596,92,8,14,4,36,44,550,['n'],1,right,['2'],5,156,[-0.11431832],100,44,hard,plus,dotcolour,beta,,,8,18,M,R,
597,93,9,14,4,44,36,849,['n'],0,left,['2'],5,349,[0.01695149],76,44,hard,plus,dotcolour,beta,,,8,18,M,R,
598,94,10,14,4,33,47,617,['n'],1,right,['2'],5,168,[-0.08520934],100,47,medium,plus,dotcolour,beta,,,8,18,M,R,
599,95,11,14,4,47,33,1515,['n'],0,left,['2'],5,334,[-0.01571984],90,47,medium,plus,dotcolour,beta,,,8,18,M,R,
600,96,12,14,4,33,47,1416,['n'],1,right,['3'],4,393,[-0.1754171],100,47,medium,plus,dotcolour,beta,,,8,18,M,R,
601,97,13,14,4,27,53,617,['n'],1,right,['1'],6,122,[-0.09909958],100,53,easy,plus,dotcolour,beta,,,8,18,M,R,
602,98,14,14,4,44,36,1466,['n'],0,left,['3'],4,340,[0.02820759],70,44,hard,plus,dotcolour,beta,,,8,18,M,R,
603,99,15,14,4,47,33,2433,['n'],0,left,['2'],5,470,[-0.00644932],84,47,medium,plus,dotcolour,beta,,,8,18,M,R,
604,100,16,14,4,33,47,816,['n'],1,right,['1'],6,235,[-0.11799976],100,47,medium,plus,dotcolour,beta,,,8,18,M,R,
605,101,17,14,4,53,27,1082,['c'],1,left,['2'],5,264,[0.15852304],100,53,easy,plus,dotcolour,beta,,,8,18,M,R,
606,102,18,14,4,27,53,799,['n'],1,right,['2'],5,167,[-0.06367117],99,53,easy,plus,dotcolour,beta,,,8,18,M,R,
607,103,19,14,4,36,44,732,['n'],1,right,['2'],5,180,[-0.11479403],100,44,hard,plus,dotcolour,beta,,,8,18,M,R,
608,104,20,14,4,33,47,716,['n'],1,right,['1'],6,225,[-0.02464141],95,47,medium,plus,dotcolour,beta,,,8,18,M,R,
609,105,21,14,4,47,33,849,['c'],1,left,['1'],6,231,[0.03715324],97,47,medium,plus,dotcolour,beta,,,8,18,M,R,
610,106,22,14,4,53,27,715,['c'],1,left,['1'],6,195,[0.12881473],100,53,easy,plus,dotcolour,beta,,,8,18,M,R,
611,107,23,14,4,47,33,915,['c'],1,left,['1'],6,168,[0.13552159],100,47,medium,plus,dotcolour,beta,,,8,18,M,R,
612,108,24,14,4,47,33,1515,['c'],1,left,['2'],5,221,[0.11874125],100,47,medium,plus,dotcolour,beta,,,8,18,M,R,
613,109,25,14,4,27,53,917,['n'],1,right,['1'],6,185,[-0.14726194],100,53,easy,plus,dotcolour,beta,,,8,18,M,R,
614,110,26,14,4,53,27,548,['c'],1,left,['1'],6,166,[0.17064162],100,53,easy,plus,dotcolour,beta,,,8,18,M,R,
615,111,27,14,4,47,33,665,['c'],1,left,['2'],5,301,[0.10213826],99,47,medium,plus,dotcolour,beta,,,8,18,M,R,
616,112,28,14,4,36,44,649,['c'],0,right,['3'],4,585,[-0.0167181],71,44,hard,plus,dotcolour,beta,,,8,18,M,R,
617,113,29,14,4,33,47,698,['n'],1,right,['1'],6,143,[-0.1020819],100,47,medium,plus,dotcolour,beta,,,8,18,M,R,
618,114,30,14,4,36,44,581,['n'],1,right,['1'],6,163,[-0.05906635],99,44,hard,plus,dotcolour,beta,,,8,18,M,R,
619,115,31,14,4,44,36,1515,['c'],1,left,['3'],4,665,[0.10197496],97,44,hard,plus,dotcolour,beta,,,8,18,M,R,
620,116,32,14,4,27,53,1048,['n'],1,right,['1'],6,358,[-0.04286766],95,53,easy,plus,dotcolour,beta,,,8,18,M,R,
621,117,33,14,4,53,27,699,['c'],1,left,['1'],6,180,[0.13211255],100,53,easy,plus,dotcolour,beta,,,8,18,M,R,
622,118,34,14,4,44,36,1600,['c'],1,left,['8'],3,2142,[0.0037211],67,44,hard,plus,dotcolour,beta,,,8,18,M,R,
623,119,35,14,4,36,44,2214,['n'],1,right,['1'],6,209,[-0.09018608],100,44,hard,plus,dotcolour,beta,,,8,18,M,R,
624,120,36,14,4,53,27,831,['c'],1,left,['1'],6,240,[0.10308929],100,53,easy,plus,dotcolour,beta,,,8,18,M,R,
625,121,37,14,4,44,36,1466,['c'],1,left,['8'],3,749,[0.27022434],100,44,hard,plus,dotcolour,beta,,,8,18,M,R,
626,122,38,14,4,27,53,784,['n'],1,right,['1'],6,152,[-0.11350037],100,53,easy,plus,dotcolour,beta,,,8,18,M,R,
627,123,39,14,4,53,27,715,['c'],1,left,['1'],6,174,[0.07545047],100,53,easy,plus,dotcolour,beta,,,8,18,M,R,
628,124,40,14,4,33,47,699,['n'],1,right,['1'],6,108,[-0.02134692],99,47,medium,plus,dotcolour,beta,,,8,18,M,R,
629,125,41,14,4,36,44,565,['n'],1,right,['1'],6,138,[-0.11291987],100,44,hard,plus,dotcolour,beta,,,8,18,M,R,
630,0,0,15,5,27,53,800,['n'],1,right,['1'],6,169,[-0.16006143],99,53,easy,minus,dotcolour,beta,,,8,18,M,R,
631,1,1,15,5,36,44,1031,['n'],1,right,['1'],6,266,[-0.0284098],28,44,hard,minus,dotcolour,beta,,,8,18,M,R,
632,2,2,15,5,36,44,731,['n'],1,right,['1'],6,179,[0.01475001],5,44,hard,minus,dotcolour,beta,,,8,18,M,R,
633,3,3,15,5,36,44,1115,['n'],1,right,['9'],2,761,[-0.23706292],98,44,hard,minus,dotcolour,beta,,,8,18,M,R,
634,4,4,15,5,44,36,1233,['c'],1,left,['1'],6,178,[0.11617313],93,44,hard,minus,dotcolour,beta,,,8,18,M,R,
635,5,5,15,5,53,27,699,['c'],1,left,['2'],5,296,[0.13249774],93,53,easy,minus,dotcolour,beta,,,8,18,M,R,
636,6,6,15,5,33,47,699,['n'],1,right,['2'],5,185,[-0.08005888],74,47,medium,minus,dotcolour,beta,,,8,18,M,R,
637,7,7,15,5,47,33,1167,['c'],1,left,['2'],5,228,[0.07258025],66,47,medium,minus,dotcolour,beta,,,8,18,M,R,
638,8,8,15,5,36,44,734,['n'],1,right,['2'],5,182,[-0.11110571],91,44,hard,minus,dotcolour,beta,,,8,18,M,R,
639,9,9,15,5,47,33,915,['n'],0,left,['2'],5,172,[-0.07605315],71,47,medium,minus,dotcolour,beta,,,8,18,M,R,
640,10,10,15,5,53,27,1332,['c'],1,left,['1'],6,216,[0.14882041],97,53,easy,minus,dotcolour,beta,,,8,18,M,R,
641,11,11,15,5,53,27,749,['c'],1,left,['1'],6,235,[0.09134313],79,53,easy,minus,dotcolour,beta,,,8,18,M,R,
642,12,12,15,5,36,44,798,['n'],1,right,['1'],6,123,[-0.05789457],53,44,hard,minus,dotcolour,beta,,,8,18,M,R,
643,13,13,15,5,33,47,899,['n'],1,right,['1'],6,330,[-0.0795591],68,47,medium,minus,dotcolour,beta,,,8,18,M,R,
644,14,14,15,5,27,53,547,['n'],1,right,['1'],6,209,[-0.15403572],98,53,easy,minus,dotcolour,beta,,,8,18,M,R,
645,15,15,15,5,33,47,733,['n'],1,right,['2'],5,404,[-0.08909154],72,47,medium,minus,dotcolour,beta,,,8,18,M,R,
646,16,16,15,5,47,33,2148,['n'],0,left,['3'],4,567,[-0.08018745],64,47,medium,minus,dotcolour,beta,,,8,18,M,R,
647,17,17,15,5,36,44,1064,['n'],1,right,['3'],4,311,[-0.11207541],86,44,hard,minus,dotcolour,beta,,,8,18,M,R,
648,18,18,15,5,44,36,1249,['c'],1,left,['2'],5,570,[0.10696231],77,44,hard,minus,dotcolour,beta,,,8,18,M,R,
649,19,19,15,5,27,53,598,['n'],1,right,['2'],5,219,[-0.08511226],76,53,easy,minus,dotcolour,beta,,,8,18,M,R,
650,20,20,15,5,53,27,880,['c'],1,left,['2'],5,329,[0.19698936],99,53,easy,minus,dotcolour,beta,,,8,18,M,R,
651,21,21,15,5,47,33,749,['c'],1,left,['2'],5,302,[0.13544303],93,47,medium,minus,dotcolour,beta,,,8,18,M,R,
652,22,22,15,5,53,27,816,['c'],1,left,['2'],5,147,[0.08232434],78,53,easy,minus,dotcolour,beta,,,8,18,M,R,
653,23,23,15,5,44,36,900,['n'],0,left,['2'],5,251,[-0.07766455],69,44,hard,minus,dotcolour,beta,,,8,18,M,R,
654,24,24,15,5,44,36,616,['n'],0,left,['2'],5,137,[-0.16301794],99,44,hard,minus,dotcolour,beta,,,8,18,M,R,
655,25,25,15,5,33,47,732,['n'],1,right,['3'],4,647,[-0.07869588],63,47,medium,minus,dotcolour,beta,,,8,18,M,R,
656,26,26,15,5,27,53,765,['n'],1,right,['2'],5,311,[-0.22546949],100,53,easy,minus,dotcolour,beta,,,8,18,M,R,
657,27,27,15,5,27,53,732,['n'],1,right,['1'],6,183,[-0.13064772],96,53,easy,minus,dotcolour,beta,,,8,18,M,R,
658,28,28,15,5,33,47,515,['n'],1,right,['1'],6,164,[-0.07579001],71,47,medium,minus,dotcolour,beta,,,8,18,M,R,
659,29,29,15,5,33,47,550,['n'],1,right,['1'],6,161,[-0.06090202],56,47,medium,minus,dotcolour,beta,,,8,18,M,R,
660,30,30,15,5,53,27,981,['c'],1,left,['2'],5,164,[0.13156063],97,53,easy,minus,dotcolour,beta,,,8,18,M,R,
661,31,31,15,5,44,36,666,['n'],0,left,['1'],6,212,[-0.08197363],74,44,hard,minus,dotcolour,beta,,,8,18,M,R,
662,32,32,15,5,36,44,650,['n'],1,right,['1'],6,291,[-0.10160457],82,44,hard,minus,dotcolour,beta,,,8,18,M,R,
663,33,33,15,5,47,33,832,['c'],1,left,['2'],5,183,[0.10226935],88,47,medium,minus,dotcolour,beta,,,8,18,M,R,
664,34,34,15,5,27,53,649,['n'],1,right,['1'],6,175,[-0.16386878],99,53,easy,minus,dotcolour,beta,,,8,18,M,R,
665,35,35,15,5,47,33,966,['c'],1,left,['2'],5,210,[0.13628284],96,47,medium,minus,dotcolour,beta,,,8,18,M,R,
666,36,36,15,5,53,27,1381,['c'],1,left,['2'],5,211,[0.0828924],74,53,easy,minus,dotcolour,beta,,,8,18,M,R,
667,37,37,15,5,47,33,1297,['c'],1,left,['2'],5,224,[0.13137798],95,47,medium,minus,dotcolour,beta,,,8,18,M,R,
668,38,38,15,5,33,47,650,['n'],1,right,['1'],6,198,[-0.09132271],81,47,medium,minus,dotcolour,beta,,,8,18,M,R,
669,39,39,15,5,44,36,1082,['c'],1,left,['2'],5,205,[0.06107892],55,44,hard,minus,dotcolour,beta,,,8,18,M,R,
670,40,40,15,5,27,53,683,['n'],1,right,['2'],5,529,[-0.17514372],95,53,easy,minus,dotcolour,beta,,,8,18,M,R,
671,41,41,15,5,44,36,1449,['c'],1,left,['2'],5,220,[0.12490582],93,44,hard,minus,dotcolour,beta,,,8,18,M,R,
672,42,0,16,5,47,33,933,['c'],1,left,['2'],5,286,[0.15448205],97,47,medium,minus,dotcolour,beta,,,8,18,M,R,
673,43,1,16,5,44,36,817,['c'],1,left,['2'],5,322,[0.26232794],100,44,hard,minus,dotcolour,beta,,,8,18,M,R,
674,44,2,16,5,27,53,700,['n'],1,right,['2'],5,132,[-0.15008546],99,53,easy,minus,dotcolour,beta,,,8,18,M,R,
675,45,3,16,5,27,53,683,['n'],1,right,['2'],5,156,[-0.15840588],99,53,easy,minus,dotcolour,beta,,,8,18,M,R,
676,46,4,16,5,53,27,732,['c'],1,left,['2'],5,193,[0.03350108],29,53,easy,minus,dotcolour,beta,,,8,18,M,R,
677,47,5,16,5,53,27,883,['c'],1,left,['2'],5,199,[0.11588598],92,53,easy,minus,dotcolour,beta,,,8,18,M,R,
678,48,6,16,5,36,44,632,['n'],1,right,['2'],5,143,[-0.11639334],95,44,hard,minus,dotcolour,beta,,,8,18,M,R,
679,49,7,16,5,36,44,649,['n'],1,right,['2'],5,136,[-0.06171048],57,44,hard,minus,dotcolour,beta,,,8,18,M,R,
680,50,8,16,5,44,36,949,['c'],1,left,['2'],5,238,[0.11264602],89,44,hard,minus,dotcolour,beta,,,8,18,M,R,
681,51,9,16,5,36,44,681,['n'],1,right,['1'],6,219,[0.00748729],8,44,hard,minus,dotcolour,beta,,,8,18,M,R,
682,52,10,16,5,44,36,698,['c'],1,left,['2'],5,191,[0.10477481],88,44,hard,minus,dotcolour,beta,,,8,18,M,R,
683,53,11,16,5,44,36,981,['n'],0,left,['2'],5,193,[-0.10982192],90,44,hard,minus,dotcolour,beta,,,8,18,M,R,
684,54,12,16,5,53,27,1033,['c'],1,left,['2'],5,273,[0.12085786],90,53,easy,minus,dotcolour,beta,,,8,18,M,R,
685,55,13,16,5,47,33,880,['c'],1,left,['2'],5,180,[0.05523392],50,47,medium,minus,dotcolour,beta,,,8,18,M,R,
686,56,14,16,5,33,47,715,['n'],1,right,['2'],5,202,[-0.04453249],39,47,medium,minus,dotcolour,beta,,,8,18,M,R,
687,57,15,16,5,53,27,1064,['c'],1,left,['2'],5,217,[0.16699261],99,53,easy,minus,dotcolour,beta,,,8,18,M,R,
688,58,16,16,5,27,53,714,['n'],1,right,['2'],5,181,[-0.08630408],79,53,easy,minus,dotcolour,beta,,,8,18,M,R,
689,59,17,16,5,33,47,582,['n'],1,right,['2'],5,175,[-0.12143279],94,47,medium,minus,dotcolour,beta,,,8,18,M,R,
690,60,18,16,5,47,33,1014,['c'],1,left,['2'],5,217,[0.10005481],85,47,medium,minus,dotcolour,beta,,,8,18,M,R,
691,61,19,16,5,36,44,782,['n'],1,right,['2'],5,178,[-0.05745932],52,44,hard,minus,dotcolour,beta,,,8,18,M,R,
692,62,20,16,5,47,33,899,['c'],1,left,['1'],6,176,[0.13081571],96,47,medium,minus,dotcolour,beta,,,8,18,M,R,
693,63,21,16,5,53,27,831,['c'],1,left,['1'],6,208,[0.13407836],96,53,easy,minus,dotcolour,beta,,,8,18,M,R,
694,64,22,16,5,36,44,814,['n'],1,right,['1'],6,297,[-0.11113365],86,44,hard,minus,dotcolour,beta,,,8,18,M,R,
695,65,23,16,5,53,27,882,['c'],1,left,['2'],5,251,[0.03114701],29,53,easy,minus,dotcolour,beta,,,8,18,M,R,
696,66,24,16,5,33,47,930,['n'],1,right,['1'],6,212,[-0.12519359],94,47,medium,minus,dotcolour,beta,,,8,18,M,R,
697,67,25,16,5,27,53,632,['n'],1,right,['1'],6,123,[-0.08753492],84,53,easy,minus,dotcolour,beta,,,8,18,M,R,
698,68,26,16,5,27,53,532,['n'],1,right,['1'],6,98,[-0.05934734],55,53,easy,minus,dotcolour,beta,,,8,18,M,R,
699,69,27,16,5,47,33,781,['c'],1,left,['2'],5,168,[0.05492672],49,47,medium,minus,dotcolour,beta,,,8,18,M,R,
700,70,28,16,5,53,27,748,['c'],1,left,['2'],5,149,[0.04053262],33,53,easy,minus,dotcolour,beta,,,8,18,M,R,
701,71,29,16,5,33,47,765,['n'],1,right,['1'],6,185,[-0.10094891],87,47,medium,minus,dotcolour,beta,,,8,18,M,R,
702,72,30,16,5,33,47,716,['n'],1,right,['1'],6,351,[-0.11946022],87,47,medium,minus,dotcolour,beta,,,8,18,M,R,
703,73,31,16,5,27,53,551,['n'],1,right,['1'],6,219,[-0.09925914],84,53,easy,minus,dotcolour,beta,,,8,18,M,R,
704,74,32,16,5,47,33,1482,['c'],1,left,['2'],5,145,[0.08851096],83,47,medium,minus,dotcolour,beta,,,8,18,M,R,
705,75,33,16,5,44,36,1032,['n'],0,left,['2'],5,155,[-0.03901153],32,44,hard,minus,dotcolour,beta,,,8,18,M,R,
706,76,34,16,5,27,53,782,['n'],1,right,['2'],5,151,[-0.10842104],92,53,easy,minus,dotcolour,beta,,,8,18,M,R,
707,77,35,16,5,44,36,1831,['c'],1,left,['1'],6,449,[0.11818963],84,44,hard,minus,dotcolour,beta,,,8,18,M,R,
708,78,36,16,5,33,47,999,['n'],1,right,['2'],5,368,[-0.25018967],100,47,medium,minus,dotcolour,beta,,,8,18,M,R,
709,79,37,16,5,36,44,5916,['n'],1,right,['2'],5,783,[-0.06800011],56,44,hard,minus,dotcolour,beta,,,8,18,M,R,
710,80,38,16,5,44,36,965,['n'],0,left,['2'],5,273,[0.00974715],10,44,hard,minus,dotcolour,beta,,,8,18,M,R,
711,81,39,16,5,36,44,1032,['n'],1,right,['2'],5,229,[-0.14425653],97,44,hard,minus,dotcolour,beta,,,8,18,M,R,
712,82,40,16,5,47,33,983,['c'],1,left,['2'],5,198,[0.06802974],62,47,medium,minus,dotcolour,beta,,,8,18,M,R,
713,83,41,16,5,33,47,747,['n'],1,right,['1'],6,138,[-0.05913625],54,47,medium,minus,dotcolour,beta,,,8,18,M,R,
714,84,0,17,5,44,36,916,['c'],1,left,['2'],5,396,[0.03395678],35,44,hard,minus,dotcolour,beta,,,8,18,M,R,
715,85,1,17,5,53,27,666,['c'],1,left,['1'],6,217,[0.15285525],98,53,easy,minus,dotcolour,beta,,,8,18,M,R,
716,86,2,17,5,33,47,1117,['n'],1,right,['1'],6,389,[-0.1100974],83,47,medium,minus,dotcolour,beta,,,8,18,M,R,
717,87,3,17,5,36,44,815,['n'],1,right,['2'],5,198,[-0.08309075],75,44,hard,minus,dotcolour,beta,,,8,18,M,R,
718,88,4,17,5,36,44,698,['n'],1,right,['2'],5,211,[-0.09752761],84,44,hard,minus,dotcolour,beta,,,8,18,M,R,
719,89,5,17,5,27,53,1199,['n'],1,right,['1'],6,228,[-0.12000459],92,53,easy,minus,dotcolour,beta,,,8,18,M,R,
720,90,6,17,5,27,53,831,['n'],1,right,['1'],6,195,[-0.15839793],99,53,easy,minus,dotcolour,beta,,,8,18,M,R,
721,91,7,17,5,27,53,564,['n'],1,right,['1'],6,125,[-0.10677462],93,53,easy,minus,dotcolour,beta,,,8,18,M,R,
722,92,8,17,5,47,33,782,['c'],1,left,['2'],5,314,[0.09015851],75,47,medium,minus,dotcolour,beta,,,8,18,M,R,
723,93,9,17,5,47,33,883,['c'],1,left,['1'],6,211,[0.1136161],91,47,medium,minus,dotcolour,beta,,,8,18,M,R,
724,94,10,17,5,27,53,616,['n'],1,right,['1'],6,171,[-0.04321302],37,53,easy,minus,dotcolour,beta,,,8,18,M,R,
725,95,11,17,5,47,33,983,['c'],1,left,['3'],4,854,[0.24366429],98,47,medium,minus,dotcolour,beta,,,8,18,M,R,
726,96,12,17,5,47,33,765,['n'],0,left,['8'],3,2094,[-0.14141384],74,47,medium,minus,dotcolour,beta,,,8,18,M,R,
727,97,13,17,5,47,33,932,['c'],1,left,['1'],6,221,[0.07996157],72,47,medium,minus,dotcolour,beta,,,8,18,M,R,
728,98,14,17,5,36,44,1449,['n'],1,right,['2'],5,451,[-0.08482181],69,44,hard,minus,dotcolour,beta,,,8,18,M,R,
729,99,15,17,5,27,53,716,['n'],1,right,['2'],5,334,[-0.18662078],98,53,easy,minus,dotcolour,beta,,,8,18,M,R,
730,100,16,17,5,53,27,898,['c'],1,left,['1'],6,293,[0.10532813],84,53,easy,minus,dotcolour,beta,,,8,18,M,R,
731,101,17,17,5,33,47,747,['n'],1,right,['2'],5,236,[-0.05306053],48,47,medium,minus,dotcolour,beta,,,8,18,M,R,
732,102,18,17,5,47,33,1332,['c'],1,left,['2'],5,286,[0.05243847],47,47,medium,minus,dotcolour,beta,,,8,18,M,R,
733,103,19,17,5,44,36,2233,['n'],0,left,['2'],5,363,[-0.05266728],48,44,hard,minus,dotcolour,beta,,,8,18,M,R,
734,104,20,17,5,53,27,765,['c'],1,left,['1'],6,166,[0.08664863],80,53,easy,minus,dotcolour,beta,,,8,18,M,R,
735,105,21,17,5,53,27,815,['c'],1,left,['1'],6,145,[0.15326293],99,53,easy,minus,dotcolour,beta,,,8,18,M,R,
736,106,22,17,5,33,47,698,['n'],1,right,['2'],5,272,[-0.06976967],62,47,medium,minus,dotcolour,beta,,,8,18,M,R,
737,107,23,17,5,36,44,1249,['c'],0,right,['2'],5,196,[0.1163296],92,44,hard,minus,dotcolour,beta,,,8,18,M,R,
738,108,24,17,5,36,44,699,['n'],1,right,['2'],5,146,[-0.0974632],88,44,hard,minus,dotcolour,beta,,,8,18,M,R,
739,109,25,17,5,47,33,830,['c'],1,left,['2'],5,165,[0.06554403],61,47,medium,minus,dotcolour,beta,,,8,18,M,R,
740,110,26,17,5,33,47,698,['n'],1,right,['2'],5,187,[-0.05450635],49,47,medium,minus,dotcolour,beta,,,8,18,M,R,
741,111,27,17,5,44,36,982,['c'],1,left,['2'],5,125,[0.120273],96,44,hard,minus,dotcolour,beta,,,8,18,M,R,
742,112,28,17,5,44,36,698,['n'],0,left,['2'],5,133,[-0.06078855],56,44,hard,minus,dotcolour,beta,,,8,18,M,R,
743,113,29,17,5,53,27,882,['c'],1,left,['2'],5,174,[0.02509789],21,53,easy,minus,dotcolour,beta,,,8,18,M,R,
744,114,30,17,5,33,47,730,['n'],1,right,['2'],5,163,[-0.07304521],69,47,medium,minus,dotcolour,beta,,,8,18,M,R,
745,115,31,17,5,44,36,782,['c'],1,left,['2'],5,174,[0.03845763],32,44,hard,minus,dotcolour,beta,,,8,18,M,R,
746,116,32,17,5,36,44,747,['n'],1,right,['2'],5,170,[-0.17620306],99,44,hard,minus,dotcolour,beta,,,8,18,M,R,
747,117,33,17,5,27,53,849,['n'],1,right,['2'],5,187,[-0.09832902],86,53,easy,minus,dotcolour,beta,,,8,18,M,R,
748,118,34,17,5,33,47,516,['n'],1,right,['2'],5,111,[-0.09504491],89,47,medium,minus,dotcolour,beta,,,8,18,M,R,
749,119,35,17,5,36,44,583,['n'],1,right,['2'],5,173,[-0.0800492],74,44,hard,minus,dotcolour,beta,,,8,18,M,R,
750,120,36,17,5,44,36,732,['n'],0,left,['2'],5,138,[-0.0620683],58,44,hard,minus,dotcolour,beta,,,8,18,M,R,
751,121,37,17,5,33,47,682,['n'],1,right,['2'],5,146,[-0.06114591],57,47,medium,minus,dotcolour,beta,,,8,18,M,R,
752,122,38,17,5,53,27,965,['c'],1,left,['3'],4,295,[0.18064007],98,53,easy,minus,dotcolour,beta,,,8,18,M,R,
753,123,39,17,5,53,27,1299,['c'],1,left,['2'],5,320,[0.08416973],71,53,easy,minus,dotcolour,beta,,,8,18,M,R,
754,124,40,17,5,44,36,1018,['c'],1,left,['2'],5,140,[0.06446881],61,44,hard,minus,dotcolour,beta,,,8,18,M,R,
755,125,41,17,5,27,53,633,['n'],1,right,['2'],5,126,[-0.15533461],99,53,easy,minus,dotcolour,beta,,,8,18,M,R,
,,,,,,,,,,,,,,,,,,,,,1,op de schaal stond twee keer hetzelfde,8,18,M,R,
,,,,,,,,,,,,,,,,,,,,,2,['f'],8,18,M,R,
,,,,,,,,,,,,,,,,,,,,,3,['g'],8,18,M,R,
,,,,,,,,,,,,,,,,,,,,,5,['5'],8,18,M,R,
