trial,withinphasetrial,withinblocktrial,block,phase,dotsLeft,dotsRight,rt,resp,cor,cresp,conf_press,cj,RTconf,ev,fb,diff,difflevel,condition,task,manip,questionID,questionResp,sub,age,gender,handedness,
0,0,0,0,0,27,53,11684,['c'],0,right,['2'],2,4187,[-0.65745228],0,53,easy,plus,dotcolour,alfa,,,102,18,V,R,
1,1,1,0,0,53,27,4417,['n'],0,left,['2'],2,1930,[0.03597193],28,53,easy,plus,dotcolour,alfa,,,102,18,V,R,
2,2,2,0,0,44,36,1951,['c'],1,left,['8'],4,2815,[0.24213293],99,44,hard,plus,dotcolour,alfa,,,102,18,V,R,
3,3,3,0,0,27,53,1617,['n'],1,right,['8'],4,2335,[-0.5478835],100,53,easy,plus,dotcolour,alfa,,,102,18,V,R,
4,4,4,0,0,33,47,1817,['n'],1,right,['9'],5,1314,[-0.19058666],100,47,medium,plus,dotcolour,alfa,,,102,18,V,R,
5,5,5,0,0,27,53,1517,['n'],1,right,['8'],4,1234,[-0.32304375],100,53,easy,plus,dotcolour,alfa,,,102,18,V,R,
6,6,6,0,0,53,27,1418,['c'],1,left,['3'],3,1224,[0.18385855],100,53,easy,plus,dotcolour,alfa,,,102,18,V,R,
7,7,7,0,0,44,36,2050,['n'],0,left,['8'],4,382,[-0.10155992],100,44,hard,plus,dotcolour,alfa,,,102,18,V,R,
8,8,8,0,0,44,36,1333,['n'],0,left,['8'],4,371,[0.00969955],36,44,hard,plus,dotcolour,alfa,,,102,18,V,R,
9,9,9,0,0,47,33,2049,['n'],0,left,['3'],3,883,[0.05199625],12,47,medium,plus,dotcolour,alfa,,,102,18,V,R,
10,10,10,0,0,44,36,1916,['c'],1,left,['3'],3,612,[0.10588646],99,44,hard,plus,dotcolour,alfa,,,102,18,V,R,
11,11,11,0,0,47,33,2517,['c'],1,left,['8'],4,448,[0.16399414],100,47,medium,plus,dotcolour,alfa,,,102,18,V,R,
12,12,12,0,0,27,53,1583,['n'],1,right,['8'],4,1744,[-0.34908913],100,53,easy,plus,dotcolour,alfa,,,102,18,V,R,
13,13,13,0,0,33,47,1367,['n'],1,right,['9'],5,1020,[-0.23388617],100,47,medium,plus,dotcolour,alfa,,,102,18,V,R,
14,14,14,0,0,36,44,1717,['c'],0,right,['2'],2,592,[0.01288663],65,44,hard,plus,dotcolour,alfa,,,102,18,V,R,
15,15,15,0,0,47,33,1534,['c'],1,left,['2'],2,452,[-0.00833826],39,47,medium,plus,dotcolour,alfa,,,102,18,V,R,
16,16,16,0,0,47,33,1534,['n'],0,left,['9'],5,293,[-0.10004124],100,47,medium,plus,dotcolour,alfa,,,102,18,V,R,
17,17,17,0,0,36,44,1051,['n'],1,right,['9'],5,336,[-0.05820989],97,44,hard,plus,dotcolour,alfa,,,102,18,V,R,
18,18,18,0,0,33,47,1334,['n'],1,right,['2'],2,278,[-0.20849587],100,47,medium,plus,dotcolour,alfa,,,102,18,V,R,
19,19,19,0,0,36,44,717,['n'],1,right,['9'],5,312,[-0.08679489],100,44,hard,plus,dotcolour,alfa,,,102,18,V,R,
20,20,20,0,0,53,27,834,['c'],1,left,['2'],2,243,[0.10849517],100,53,easy,plus,dotcolour,alfa,,,102,18,V,R,
21,21,21,0,0,33,47,883,['n'],1,right,['9'],5,432,[-0.07285002],98,47,medium,plus,dotcolour,alfa,,,102,18,V,R,
22,22,22,0,0,36,44,1134,['n'],1,right,['9'],5,314,[-0.08094862],99,44,hard,plus,dotcolour,alfa,,,102,18,V,R,
23,23,23,0,0,33,47,984,['c'],0,right,['9'],5,455,[0.038113],88,47,medium,plus,dotcolour,alfa,,,102,18,V,R,
24,24,24,0,0,47,33,1467,['c'],1,left,['9'],5,307,[0.03926699],93,47,medium,plus,dotcolour,alfa,,,102,18,V,R,
25,25,25,0,0,36,44,718,['n'],1,right,['9'],5,323,[-0.11116709],100,44,hard,plus,dotcolour,alfa,,,102,18,V,R,
26,26,26,0,0,44,36,1818,['c'],1,left,['2'],2,799,[0.24271903],100,44,hard,plus,dotcolour,alfa,,,102,18,V,R,
27,27,27,0,0,53,27,1400,['c'],1,left,['2'],2,304,[0.10597913],100,53,easy,plus,dotcolour,alfa,,,102,18,V,R,
28,28,28,0,0,36,44,1734,['n'],1,right,['2'],2,984,[-0.1453455],99,44,hard,plus,dotcolour,alfa,,,102,18,V,R,
29,29,29,0,0,47,33,1651,['c'],1,left,['8'],4,807,[0.19060807],100,47,medium,plus,dotcolour,alfa,,,102,18,V,R,
30,30,30,0,0,47,33,1300,['c'],1,left,['8'],4,596,[0.1223952],100,47,medium,plus,dotcolour,alfa,,,102,18,V,R,
31,31,31,0,0,53,27,767,['c'],1,left,['8'],4,383,[0.15071296],100,53,easy,plus,dotcolour,alfa,,,102,18,V,R,
32,32,32,0,0,27,53,1217,['n'],1,right,['8'],4,424,[-0.15660568],100,53,easy,plus,dotcolour,alfa,,,102,18,V,R,
33,33,33,0,0,27,53,1050,['n'],1,right,['8'],4,430,[-0.01136044],65,53,easy,plus,dotcolour,alfa,,,102,18,V,R,
34,34,34,0,0,53,27,1066,['c'],1,left,['3'],3,444,[0.06209211],97,53,easy,plus,dotcolour,alfa,,,102,18,V,R,
35,35,35,0,0,53,27,3017,['n'],0,left,['8'],4,346,[-0.06956192],99,53,easy,plus,dotcolour,alfa,,,102,18,V,R,
36,36,36,0,0,44,36,1350,['n'],0,left,['3'],3,536,[-0.03367368],84,44,hard,plus,dotcolour,alfa,,,102,18,V,R,
37,37,37,0,0,33,47,817,['n'],1,right,['3'],3,578,[-0.16193162],100,47,medium,plus,dotcolour,alfa,,,102,18,V,R,
38,38,38,0,0,44,36,2050,['n'],0,left,['3'],3,322,[-0.0697262],99,44,hard,plus,dotcolour,alfa,,,102,18,V,R,
39,39,39,0,0,33,47,1034,['c'],0,right,['2'],2,2293,[-0.13136302],4,47,medium,plus,dotcolour,alfa,,,102,18,V,R,
40,40,40,0,0,27,53,1166,['n'],1,right,['9'],5,971,[-0.14630863],100,53,easy,plus,dotcolour,alfa,,,102,18,V,R,
41,41,41,0,0,36,44,2784,['n'],1,right,['2'],2,638,[-0.1332422],100,44,hard,plus,dotcolour,alfa,,,102,18,V,R,
42,42,0,1,0,53,27,3667,['c'],1,left,['8'],4,1998,[0.3727757],100,53,easy,plus,dotcolour,alfa,,,102,18,V,R,
43,43,1,1,0,53,27,1784,['c'],1,left,['8'],4,791,[0.14730499],100,53,easy,plus,dotcolour,alfa,,,102,18,V,R,
44,44,2,1,0,53,27,800,['c'],1,left,['8'],4,377,[0.10606946],100,53,easy,plus,dotcolour,alfa,,,102,18,V,R,
45,45,3,1,0,47,33,2000,['n'],0,left,['8'],4,379,[-0.06379806],98,47,medium,plus,dotcolour,alfa,,,102,18,V,R,
46,46,4,1,0,53,27,1117,['c'],1,left,['8'],4,264,[0.08832534],100,53,easy,plus,dotcolour,alfa,,,102,18,V,R,
47,47,5,1,0,27,53,901,['n'],1,right,['8'],4,339,[-0.09531598],100,53,easy,plus,dotcolour,alfa,,,102,18,V,R,
48,48,6,1,0,47,33,750,['c'],1,left,['9'],5,328,[0.08197391],99,47,medium,plus,dotcolour,alfa,,,102,18,V,R,
49,49,7,1,0,47,33,767,['c'],1,left,['9'],5,277,[0.15766787],100,47,medium,plus,dotcolour,alfa,,,102,18,V,R,
50,50,8,1,0,44,36,883,['c'],1,left,['9'],5,368,[0.048769],95,44,hard,plus,dotcolour,alfa,,,102,18,V,R,
51,51,9,1,0,27,53,834,['n'],1,right,['9'],5,297,[-0.09144771],100,53,easy,plus,dotcolour,alfa,,,102,18,V,R,
52,52,10,1,0,33,47,817,['c'],0,right,['9'],5,318,[0.02202895],80,47,medium,plus,dotcolour,alfa,,,102,18,V,R,
53,53,11,1,0,36,44,1200,['n'],1,right,['8'],4,315,[-0.04900735],96,44,hard,plus,dotcolour,alfa,,,102,18,V,R,
54,54,12,1,0,36,44,1217,['n'],1,right,['8'],4,295,[-0.1334955],100,44,hard,plus,dotcolour,alfa,,,102,18,V,R,
55,55,13,1,0,33,47,1417,['n'],1,right,['8'],4,308,[-0.10589826],100,47,medium,plus,dotcolour,alfa,,,102,18,V,R,
56,56,14,1,0,44,36,1233,['n'],0,left,['9'],5,247,[-0.120374],100,44,hard,plus,dotcolour,alfa,,,102,18,V,R,
57,57,15,1,0,36,44,2334,['n'],1,right,['3'],3,353,[-0.09849198],100,44,hard,plus,dotcolour,alfa,,,102,18,V,R,
58,58,16,1,0,44,36,1068,['n'],0,left,['2'],2,282,[-0.04203206],95,44,hard,plus,dotcolour,alfa,,,102,18,V,R,
59,59,17,1,0,47,33,1934,['n'],0,left,['1'],1,594,[0.05589952],7,47,medium,plus,dotcolour,alfa,,,102,18,V,R,
60,60,18,1,0,27,53,1184,['n'],1,right,['0'],6,3140,[-0.36556908],100,53,easy,plus,dotcolour,alfa,,,102,18,V,R,
61,61,19,1,0,27,53,2984,['c'],0,right,['3'],3,304,[0.05276749],97,53,easy,plus,dotcolour,alfa,,,102,18,V,R,
62,62,20,1,0,44,36,1717,['c'],1,left,['3'],3,865,[-0.01060917],40,44,hard,plus,dotcolour,alfa,,,102,18,V,R,
63,63,21,1,0,47,33,1217,['n'],0,left,['9'],5,534,[-0.10965051],100,47,medium,plus,dotcolour,alfa,,,102,18,V,R,
64,64,22,1,0,33,47,900,['n'],1,right,['9'],5,391,[-0.11652408],100,47,medium,plus,dotcolour,alfa,,,102,18,V,R,
65,65,23,1,0,33,47,1034,['n'],1,right,['9'],5,350,[-0.06637267],98,47,medium,plus,dotcolour,alfa,,,102,18,V,R,
66,66,24,1,0,44,36,1117,['n'],0,left,['9'],5,317,[-0.03058029],88,44,hard,plus,dotcolour,alfa,,,102,18,V,R,
67,67,25,1,0,53,27,1751,['c'],1,left,['9'],5,828,[0.14691295],100,53,easy,plus,dotcolour,alfa,,,102,18,V,R,
68,68,26,1,0,27,53,1067,['n'],1,right,['9'],5,378,[-0.1146745],100,53,easy,plus,dotcolour,alfa,,,102,18,V,R,
69,69,27,1,0,33,47,1350,['c'],0,right,['3'],3,1661,[-0.06536701],14,47,medium,plus,dotcolour,alfa,,,102,18,V,R,
70,70,28,1,0,53,27,1118,['c'],1,left,['0'],6,695,[0.16086924],100,53,easy,plus,dotcolour,alfa,,,102,18,V,R,
71,71,29,1,0,33,47,1017,['c'],0,right,['0'],6,419,[0.0091499],62,47,medium,plus,dotcolour,alfa,,,102,18,V,R,
72,72,30,1,0,47,33,2734,['n'],0,left,['0'],6,1063,[0.04051869],20,47,medium,plus,dotcolour,alfa,,,102,18,V,R,
73,73,31,1,0,36,44,1401,['n'],1,right,['0'],6,566,[-0.15122228],100,44,hard,plus,dotcolour,alfa,,,102,18,V,R,
74,74,32,1,0,47,33,1234,['c'],1,left,['0'],6,551,[0.16592585],100,47,medium,plus,dotcolour,alfa,,,102,18,V,R,
75,75,33,1,0,44,36,1284,['n'],0,left,['0'],6,487,[0.08275871],1,44,hard,plus,dotcolour,alfa,,,102,18,V,R,
76,76,34,1,0,36,44,1668,['c'],0,right,['3'],3,1026,[-0.22643583],0,44,hard,plus,dotcolour,alfa,,,102,18,V,R,
77,77,35,1,0,36,44,834,['n'],1,right,['0'],6,384,[-0.2024284],100,44,hard,plus,dotcolour,alfa,,,102,18,V,R,
78,78,36,1,0,53,27,1067,['c'],1,left,['0'],6,335,[0.20034329],100,53,easy,plus,dotcolour,alfa,,,102,18,V,R,
79,79,37,1,0,27,53,768,['n'],1,right,['0'],6,460,[-0.10811541],100,53,easy,plus,dotcolour,alfa,,,102,18,V,R,
80,80,38,1,0,44,36,1017,['n'],0,left,['0'],6,314,[-0.09127439],100,44,hard,plus,dotcolour,alfa,,,102,18,V,R,
81,81,39,1,0,33,47,617,['n'],1,right,['0'],6,286,[-0.11427888],100,47,medium,plus,dotcolour,alfa,,,102,18,V,R,
82,82,40,1,0,27,53,484,['n'],1,right,['0'],6,296,[-0.00470937],58,53,easy,plus,dotcolour,alfa,,,102,18,V,R,
83,83,41,1,0,36,44,651,['n'],1,right,['0'],6,260,[-0.04754336],97,44,hard,plus,dotcolour,alfa,,,102,18,V,R,
84,84,0,2,0,36,44,1001,['n'],1,right,['0'],6,254,[-0.11861981],100,44,hard,plus,dotcolour,alfa,,,102,18,V,R,
85,85,1,2,0,33,47,801,['n'],1,right,['0'],6,294,[-0.14479426],100,47,medium,plus,dotcolour,alfa,,,102,18,V,R,
86,86,2,2,0,47,33,717,['n'],0,left,['0'],6,222,[-0.04320554],96,47,medium,plus,dotcolour,alfa,,,102,18,V,R,
87,87,3,2,0,33,47,717,['n'],1,right,['0'],6,274,[0.01039814],33,47,medium,plus,dotcolour,alfa,,,102,18,V,R,
88,88,4,2,0,44,36,1400,['n'],0,left,['0'],6,216,[0.04407657],3,44,hard,plus,dotcolour,alfa,,,102,18,V,R,
89,89,5,2,0,44,36,1134,['c'],1,left,['8'],4,1331,[0.05119988],83,44,hard,plus,dotcolour,alfa,,,102,18,V,R,
90,90,6,2,0,27,53,834,['c'],0,right,['8'],4,1277,[-0.07303335],9,53,easy,plus,dotcolour,alfa,,,102,18,V,R,
91,91,7,2,0,27,53,1217,['n'],1,right,['9'],5,739,[-0.21845306],100,53,easy,plus,dotcolour,alfa,,,102,18,V,R,
92,92,8,2,0,53,27,1001,['c'],1,left,['9'],5,398,[0.196415],100,53,easy,plus,dotcolour,alfa,,,102,18,V,R,
93,93,9,2,0,47,33,1168,['n'],0,left,['8'],4,673,[-0.07029878],96,47,medium,plus,dotcolour,alfa,,,102,18,V,R,
94,94,10,2,0,33,47,1117,['n'],1,right,['9'],5,458,[-0.06165431],96,47,medium,plus,dotcolour,alfa,,,102,18,V,R,
95,95,11,2,0,47,33,1351,['c'],1,left,['3'],3,779,[0.00302324],53,47,medium,plus,dotcolour,alfa,,,102,18,V,R,
96,96,12,2,0,36,44,1984,['n'],1,right,['8'],4,309,[-0.17091916],100,44,hard,plus,dotcolour,alfa,,,102,18,V,R,
97,97,13,2,0,44,36,1450,['c'],1,left,['9'],5,464,[0.17002149],100,44,hard,plus,dotcolour,alfa,,,102,18,V,R,
98,98,14,2,0,36,44,2034,['c'],0,right,['9'],5,517,[0.06631894],97,44,hard,plus,dotcolour,alfa,,,102,18,V,R,
99,99,15,2,0,36,44,1684,['n'],1,right,['9'],5,318,[-0.18970625],100,44,hard,plus,dotcolour,alfa,,,102,18,V,R,
100,100,16,2,0,44,36,1551,['c'],1,left,['9'],5,317,[0.06532719],98,44,hard,plus,dotcolour,alfa,,,102,18,V,R,
101,101,17,2,0,44,36,1684,['c'],1,left,['3'],3,830,[0.04941245],88,44,hard,plus,dotcolour,alfa,,,102,18,V,R,
102,102,18,2,0,53,27,1383,['c'],1,left,['0'],6,463,[0.18571494],100,53,easy,plus,dotcolour,alfa,,,102,18,V,R,
103,103,19,2,0,33,47,851,['n'],1,right,['0'],6,452,[-0.11536088],100,47,medium,plus,dotcolour,alfa,,,102,18,V,R,
104,104,20,2,0,36,44,916,['n'],1,right,['0'],6,534,[-0.03237829],83,44,hard,plus,dotcolour,alfa,,,102,18,V,R,
105,105,21,2,0,47,33,1400,['n'],0,left,['8'],4,802,[0.16897467],0,47,medium,plus,dotcolour,alfa,,,102,18,V,R,
106,106,22,2,0,27,53,1234,['n'],1,right,['0'],6,530,[-0.17932986],100,53,easy,plus,dotcolour,alfa,,,102,18,V,R,
107,107,23,2,0,33,47,717,['n'],1,right,['0'],6,497,[-0.15257424],100,47,medium,plus,dotcolour,alfa,,,102,18,V,R,
108,108,24,2,0,47,33,1401,['c'],1,left,['0'],6,318,[0.07385613],99,47,medium,plus,dotcolour,alfa,,,102,18,V,R,
109,109,25,2,0,53,27,1317,['c'],1,left,['0'],6,423,[0.25407278],100,53,easy,plus,dotcolour,alfa,,,102,18,V,R,
110,110,26,2,0,53,27,834,['c'],1,left,['0'],6,269,[0.08479082],100,53,easy,plus,dotcolour,alfa,,,102,18,V,R,
111,111,27,2,0,44,36,967,['n'],0,left,['0'],6,293,[-0.07048494],99,44,hard,plus,dotcolour,alfa,,,102,18,V,R,
112,112,28,2,0,53,27,918,['c'],1,left,['0'],6,270,[0.17186295],100,53,easy,plus,dotcolour,alfa,,,102,18,V,R,
113,113,29,2,0,53,27,600,['c'],1,left,['0'],6,261,[0.14817675],100,53,easy,plus,dotcolour,alfa,,,102,18,V,R,
114,114,30,2,0,27,53,950,['n'],1,right,['0'],6,293,[-0.19472182],100,53,easy,plus,dotcolour,alfa,,,102,18,V,R,
115,115,31,2,0,27,53,716,['n'],1,right,['0'],6,342,[-0.10314874],100,53,easy,plus,dotcolour,alfa,,,102,18,V,R,
116,116,32,2,0,36,44,1134,['n'],1,right,['0'],6,332,[-0.09955457],100,44,hard,plus,dotcolour,alfa,,,102,18,V,R,
117,117,33,2,0,33,47,950,['n'],1,right,['0'],6,290,[-0.06841039],99,47,medium,plus,dotcolour,alfa,,,102,18,V,R,
118,118,34,2,0,53,27,884,['c'],1,left,['0'],6,268,[0.12306796],100,53,easy,plus,dotcolour,alfa,,,102,18,V,R,
119,119,35,2,0,44,36,2650,['n'],0,left,['8'],4,1120,[0.0773084],7,44,hard,plus,dotcolour,alfa,,,102,18,V,R,
120,120,36,2,0,27,53,934,['n'],1,right,['0'],6,647,[-0.20435209],100,53,easy,plus,dotcolour,alfa,,,102,18,V,R,
121,121,37,2,0,36,44,834,['n'],1,right,['0'],6,325,[-0.08634251],100,44,hard,plus,dotcolour,alfa,,,102,18,V,R,
122,122,38,2,0,27,53,717,['n'],1,right,['0'],6,268,[-0.20327692],100,53,easy,plus,dotcolour,alfa,,,102,18,V,R,
123,123,39,2,0,33,47,684,['n'],1,right,['0'],6,288,[-0.16209562],100,47,medium,plus,dotcolour,alfa,,,102,18,V,R,
124,124,40,2,0,47,33,734,['c'],1,left,['0'],6,408,[0.1645984],100,47,medium,plus,dotcolour,alfa,,,102,18,V,R,
125,125,41,2,0,47,33,867,['c'],1,left,['0'],6,182,[0.11595686],100,47,medium,plus,dotcolour,alfa,,,102,18,V,R,
126,0,0,3,1,36,44,1151,['n'],1,right,['0'],6,240,[-0.05393531],73,44,hard,minus,dotcolour,alfa,,,102,18,V,R,
127,1,1,3,1,53,27,651,['c'],1,left,['0'],6,214,[0.06080074],77,53,easy,minus,dotcolour,alfa,,,102,18,V,R,
128,2,2,3,1,33,47,617,['n'],1,right,['0'],6,326,[-0.08471944],79,47,medium,minus,dotcolour,alfa,,,102,18,V,R,
129,3,3,3,1,33,47,934,['n'],1,right,['0'],6,284,[-0.09164376],82,47,medium,minus,dotcolour,alfa,,,102,18,V,R,
130,4,4,3,1,53,27,651,['c'],1,left,['0'],6,232,[0.07840897],81,53,easy,minus,dotcolour,alfa,,,102,18,V,R,
131,5,5,3,1,27,53,967,['n'],1,right,['0'],6,330,[-0.09674528],82,53,easy,minus,dotcolour,alfa,,,102,18,V,R,
132,6,6,3,1,44,36,868,['c'],1,left,['0'],6,323,[0.16328792],93,44,hard,minus,dotcolour,alfa,,,102,18,V,R,
133,7,7,3,1,44,36,600,['n'],0,left,['0'],6,679,[-0.03869732],60,44,hard,minus,dotcolour,alfa,,,102,18,V,R,
134,8,8,3,1,27,53,650,['c'],0,right,['3'],3,1867,[-0.26223908],15,53,easy,minus,dotcolour,alfa,,,102,18,V,R,
135,9,9,3,1,36,44,784,['n'],1,right,['0'],6,298,[0.04704466],32,44,hard,minus,dotcolour,alfa,,,102,18,V,R,
136,10,10,3,1,33,47,867,['n'],1,right,['8'],4,388,[-0.07736353],75,47,medium,minus,dotcolour,alfa,,,102,18,V,R,
137,11,11,3,1,27,53,634,['n'],1,right,['0'],6,821,[-0.2283018],91,53,easy,minus,dotcolour,alfa,,,102,18,V,R,
138,12,12,3,1,44,36,1284,['c'],1,left,['8'],4,241,[0.05018464],72,44,hard,minus,dotcolour,alfa,,,102,18,V,R,
139,13,13,3,1,44,36,767,['c'],1,left,['9'],5,690,[0.21449438],91,44,hard,minus,dotcolour,alfa,,,102,18,V,R,
140,14,14,3,1,53,27,934,['c'],1,left,['8'],4,146,[0.10161497],92,53,easy,minus,dotcolour,alfa,,,102,18,V,R,
141,15,15,3,1,36,44,718,['c'],0,right,['0'],6,185,[0.06538532],80,44,hard,minus,dotcolour,alfa,,,102,18,V,R,
142,16,16,3,1,44,36,1934,['c'],1,left,['9'],5,637,[0.07283593],69,44,hard,minus,dotcolour,alfa,,,102,18,V,R,
143,17,17,3,1,36,44,934,['c'],0,right,['0'],6,423,[0.06886311],72,44,hard,minus,dotcolour,alfa,,,102,18,V,R,
144,18,18,3,1,47,33,2101,['c'],1,left,['8'],4,131,[0.06588939],84,47,medium,minus,dotcolour,alfa,,,102,18,V,R,
145,19,19,3,1,53,27,1084,['c'],1,left,['0'],6,212,[0.05948237],76,53,easy,minus,dotcolour,alfa,,,102,18,V,R,
146,20,20,3,1,44,36,1601,['n'],0,left,['0'],6,357,[0.05005685],32,44,hard,minus,dotcolour,alfa,,,102,18,V,R,
147,21,21,3,1,33,47,617,['n'],1,right,['0'],6,327,[-0.07661298],77,47,medium,minus,dotcolour,alfa,,,102,18,V,R,
148,22,22,3,1,27,53,600,['n'],1,right,['0'],6,299,[-0.07141093],76,53,easy,minus,dotcolour,alfa,,,102,18,V,R,
149,23,23,3,1,47,33,1350,['c'],1,left,['0'],6,266,[0.09187939],83,47,medium,minus,dotcolour,alfa,,,102,18,V,R,
150,24,24,3,1,47,33,1434,['c'],1,left,['9'],5,288,[0.04597879],68,47,medium,minus,dotcolour,alfa,,,102,18,V,R,
151,25,25,3,1,27,53,850,['c'],0,right,['1'],1,1372,[0.02074558],54,53,easy,minus,dotcolour,alfa,,,102,18,V,R,
152,26,26,3,1,33,47,1500,['n'],1,right,['0'],6,378,[-0.13178982],87,47,medium,minus,dotcolour,alfa,,,102,18,V,R,
153,27,27,3,1,36,44,1050,['n'],1,right,['0'],6,282,[-0.05217474],71,44,hard,minus,dotcolour,alfa,,,102,18,V,R,
154,28,28,3,1,36,44,716,['n'],1,right,['0'],6,331,[-0.09321755],81,44,hard,minus,dotcolour,alfa,,,102,18,V,R,
155,29,29,3,1,47,33,867,['n'],0,left,['0'],6,380,[-0.04718588],67,47,medium,minus,dotcolour,alfa,,,102,18,V,R,
156,30,30,3,1,47,33,767,['n'],0,left,['0'],6,264,[-0.11185576],88,47,medium,minus,dotcolour,alfa,,,102,18,V,R,
157,31,31,3,1,33,47,634,['n'],1,right,['0'],6,293,[-0.06494355],75,47,medium,minus,dotcolour,alfa,,,102,18,V,R,
158,32,32,3,1,53,27,1100,['c'],1,left,['0'],6,230,[0.04953366],72,53,easy,minus,dotcolour,alfa,,,102,18,V,R,
159,33,33,3,1,27,53,751,['n'],1,right,['0'],6,256,[-0.01985188],59,53,easy,minus,dotcolour,alfa,,,102,18,V,R,
160,34,34,3,1,53,27,816,['c'],1,left,['0'],6,255,[0.00205507],51,53,easy,minus,dotcolour,alfa,,,102,18,V,R,
161,35,35,3,1,44,36,1017,['c'],1,left,['0'],6,261,[0.03855222],66,44,hard,minus,dotcolour,alfa,,,102,18,V,R,
162,36,36,3,1,47,33,751,['c'],1,left,['0'],6,317,[0.07576673],77,47,medium,minus,dotcolour,alfa,,,102,18,V,R,
163,37,37,3,1,53,27,900,['c'],1,left,['0'],6,207,[0.12185819],92,53,easy,minus,dotcolour,alfa,,,102,18,V,R,
164,38,38,3,1,47,33,1100,['n'],0,left,['3'],3,1555,[-0.1196451],70,47,medium,minus,dotcolour,alfa,,,102,18,V,R,
165,39,39,3,1,36,44,1517,['n'],1,right,['3'],3,289,[-0.07922349],79,44,hard,minus,dotcolour,alfa,,,102,18,V,R,
166,40,40,3,1,33,47,634,['n'],1,right,['3'],3,325,[-0.07946547],78,47,medium,minus,dotcolour,alfa,,,102,18,V,R,
167,41,41,3,1,27,53,700,['n'],1,right,['0'],6,469,[-0.07892822],74,53,easy,minus,dotcolour,alfa,,,102,18,V,R,
168,42,0,4,1,36,44,1434,['n'],1,right,['0'],6,287,[-0.11272968],87,44,hard,minus,dotcolour,alfa,,,102,18,V,R,
169,43,1,4,1,44,36,1933,['c'],1,left,['0'],6,295,[0.05266594],71,44,hard,minus,dotcolour,alfa,,,102,18,V,R,
170,44,2,4,1,27,53,1268,['n'],1,right,['0'],6,314,[-0.14626506],91,53,easy,minus,dotcolour,alfa,,,102,18,V,R,
171,45,3,4,1,53,27,867,['c'],1,left,['0'],6,420,[0.12744698],85,53,easy,minus,dotcolour,alfa,,,102,18,V,R,
172,46,4,4,1,47,33,1551,['c'],1,left,['8'],4,182,[0.11076634],91,47,medium,minus,dotcolour,alfa,,,102,18,V,R,
173,47,5,4,1,33,47,1050,['n'],1,right,['0'],6,326,[-0.00691044],53,47,medium,minus,dotcolour,alfa,,,102,18,V,R,
174,48,6,4,1,44,36,766,['n'],0,left,['0'],6,283,[-0.14804038],92,44,hard,minus,dotcolour,alfa,,,102,18,V,R,
175,49,7,4,1,27,53,767,['n'],1,right,['0'],6,378,[-0.01802761],57,53,easy,minus,dotcolour,alfa,,,102,18,V,R,
176,50,8,4,1,36,44,583,['n'],1,right,['0'],6,326,[-0.09722695],82,44,hard,minus,dotcolour,alfa,,,102,18,V,R,
177,51,9,4,1,44,36,1150,['c'],1,left,['0'],6,228,[0.10235342],87,44,hard,minus,dotcolour,alfa,,,102,18,V,R,
178,52,10,4,1,53,27,750,['c'],1,left,['0'],6,285,[0.1146312],87,53,easy,minus,dotcolour,alfa,,,102,18,V,R,
179,53,11,4,1,47,33,633,['c'],1,left,['0'],6,298,[0.14498679],92,47,medium,minus,dotcolour,alfa,,,102,18,V,R,
180,54,12,4,1,33,47,934,['n'],1,right,['0'],6,298,[-0.20292374],97,47,medium,minus,dotcolour,alfa,,,102,18,V,R,
181,55,13,4,1,27,53,667,['n'],1,right,['0'],6,269,[-0.08010381],80,53,easy,minus,dotcolour,alfa,,,102,18,V,R,
182,56,14,4,1,47,33,950,['c'],1,left,['0'],6,238,[0.19484075],97,47,medium,minus,dotcolour,alfa,,,102,18,V,R,
183,57,15,4,1,27,53,1316,['n'],1,right,['0'],6,281,[-0.16193138],94,53,easy,minus,dotcolour,alfa,,,102,18,V,R,
184,58,16,4,1,53,27,617,['c'],1,left,['0'],6,206,[0.1493413],95,53,easy,minus,dotcolour,alfa,,,102,18,V,R,
185,59,17,4,1,44,36,1484,['c'],1,left,['8'],4,163,[0.06436269],81,44,hard,minus,dotcolour,alfa,,,102,18,V,R,
186,60,18,4,1,47,33,1200,['c'],1,left,['8'],4,175,[0.04100732],71,47,medium,minus,dotcolour,alfa,,,102,18,V,R,
187,61,19,4,1,33,47,1451,['n'],1,right,['0'],6,303,[-0.24205332],98,47,medium,minus,dotcolour,alfa,,,102,18,V,R,
188,62,20,4,1,36,44,2200,['c'],0,right,['8'],4,1556,[0.15560517],75,44,hard,minus,dotcolour,alfa,,,102,18,V,R,
189,63,21,4,1,53,27,1384,['c'],1,left,['8'],4,175,[0.14439166],96,53,easy,minus,dotcolour,alfa,,,102,18,V,R,
190,64,22,4,1,33,47,1267,['n'],1,right,['0'],6,278,[-0.13352201],91,47,medium,minus,dotcolour,alfa,,,102,18,V,R,
191,65,23,4,1,44,36,2733,['n'],0,left,['8'],4,1287,[-0.02825841],56,44,hard,minus,dotcolour,alfa,,,102,18,V,R,
192,66,24,4,1,27,53,734,['c'],0,right,['1'],1,1087,[-0.00892376],48,53,easy,minus,dotcolour,alfa,,,102,18,V,R,
193,67,25,4,1,27,53,835,['n'],1,right,['0'],6,259,[-0.07485271],79,53,easy,minus,dotcolour,alfa,,,102,18,V,R,
194,68,26,4,1,27,53,634,['n'],1,right,['0'],6,265,[-0.05853655],74,53,easy,minus,dotcolour,alfa,,,102,18,V,R,
195,69,27,4,1,36,44,717,['n'],1,right,['0'],6,243,[-0.09535179],85,44,hard,minus,dotcolour,alfa,,,102,18,V,R,
196,70,28,4,1,47,33,1617,['c'],1,left,['0'],6,225,[0.03097712],64,47,medium,minus,dotcolour,alfa,,,102,18,V,R,
197,71,29,4,1,47,33,966,['c'],1,left,['0'],6,219,[0.04147049],69,47,medium,minus,dotcolour,alfa,,,102,18,V,R,
198,72,30,4,1,53,27,617,['c'],1,left,['0'],6,179,[-0.00669719],46,53,easy,minus,dotcolour,alfa,,,102,18,V,R,
199,73,31,4,1,47,33,2067,['c'],1,left,['0'],6,194,[0.05552356],76,47,medium,minus,dotcolour,alfa,,,102,18,V,R,
200,74,32,4,1,33,47,867,['n'],1,right,['0'],6,217,[-0.09854557],87,47,medium,minus,dotcolour,alfa,,,102,18,V,R,
201,75,33,4,1,44,36,917,['c'],1,left,['0'],6,197,[0.15321424],96,44,hard,minus,dotcolour,alfa,,,102,18,V,R,
202,76,34,4,1,36,44,783,['c'],0,right,['0'],6,167,[0.12200941],94,44,hard,minus,dotcolour,alfa,,,102,18,V,R,
203,77,35,4,1,36,44,1167,['n'],1,right,['0'],6,219,[-0.11842292],91,44,hard,minus,dotcolour,alfa,,,102,18,V,R,
204,78,36,4,1,44,36,1051,['c'],1,left,['0'],6,170,[0.03047138],66,44,hard,minus,dotcolour,alfa,,,102,18,V,R,
205,79,37,4,1,53,27,818,['c'],1,left,['0'],6,196,[0.17315525],97,53,easy,minus,dotcolour,alfa,,,102,18,V,R,
206,80,38,4,1,33,47,450,['n'],1,right,['0'],6,243,[-0.08927202],84,47,medium,minus,dotcolour,alfa,,,102,18,V,R,
207,81,39,4,1,33,47,1151,['n'],1,right,['0'],6,244,[-0.11286745],89,47,medium,minus,dotcolour,alfa,,,102,18,V,R,
208,82,40,4,1,53,27,751,['c'],1,left,['0'],6,238,[0.17311457],96,53,easy,minus,dotcolour,alfa,,,102,18,V,R,
209,83,41,4,1,36,44,833,['n'],1,right,['0'],6,237,[-0.13381287],92,44,hard,minus,dotcolour,alfa,,,102,18,V,R,
210,84,0,5,1,47,33,1517,['n'],0,left,['0'],6,204,[-0.06841566],80,47,medium,minus,dotcolour,alfa,,,102,18,V,R,
211,85,1,5,1,47,33,700,['c'],1,left,['0'],6,209,[0.09349863],86,47,medium,minus,dotcolour,alfa,,,102,18,V,R,
212,86,2,5,1,44,36,1049,['c'],1,left,['0'],6,144,[0.05035248],77,44,hard,minus,dotcolour,alfa,,,102,18,V,R,
213,87,3,5,1,53,27,750,['c'],1,left,['0'],6,165,[0.08606198],87,53,easy,minus,dotcolour,alfa,,,102,18,V,R,
214,88,4,5,1,44,36,1551,['c'],1,left,['8'],4,290,[0.04049269],66,44,hard,minus,dotcolour,alfa,,,102,18,V,R,
215,89,5,5,1,33,47,967,['n'],1,right,['0'],6,273,[-0.1011559],85,47,medium,minus,dotcolour,alfa,,,102,18,V,R,
216,90,6,5,1,44,36,1300,['n'],0,left,['0'],6,202,[-0.098535],88,44,hard,minus,dotcolour,alfa,,,102,18,V,R,
217,91,7,5,1,27,53,667,['n'],1,right,['0'],6,217,[-0.0904681],85,53,easy,minus,dotcolour,alfa,,,102,18,V,R,
218,92,8,5,1,44,36,983,['n'],0,left,['0'],6,211,[0.01588678],42,44,hard,minus,dotcolour,alfa,,,102,18,V,R,
219,93,9,5,1,53,27,2216,['c'],1,left,['0'],6,379,[0.14833342],90,53,easy,minus,dotcolour,alfa,,,102,18,V,R,
220,94,10,5,1,44,36,917,['c'],1,left,['0'],6,232,[0.10836863],88,44,hard,minus,dotcolour,alfa,,,102,18,V,R,
221,95,11,5,1,47,33,766,['c'],1,left,['0'],6,521,[0.09210041],76,47,medium,minus,dotcolour,alfa,,,102,18,V,R,
222,96,12,5,1,27,53,1134,['n'],1,right,['0'],6,208,[-0.14280077],94,53,easy,minus,dotcolour,alfa,,,102,18,V,R,
223,97,13,5,1,47,33,734,['n'],0,left,['0'],6,195,[-0.06992471],81,47,medium,minus,dotcolour,alfa,,,102,18,V,R,
224,98,14,5,1,27,53,1650,['n'],1,right,['0'],6,187,[-0.14115945],95,53,easy,minus,dotcolour,alfa,,,102,18,V,R,
225,99,15,5,1,47,33,734,['c'],1,left,['0'],6,176,[0.02461278],63,47,medium,minus,dotcolour,alfa,,,102,18,V,R,
226,100,16,5,1,27,53,717,['n'],1,right,['0'],6,181,[-0.15993996],97,53,easy,minus,dotcolour,alfa,,,102,18,V,R,
227,101,17,5,1,53,27,550,['c'],1,left,['0'],6,153,[0.05727212],79,53,easy,minus,dotcolour,alfa,,,102,18,V,R,
228,102,18,5,1,33,47,567,['n'],1,right,['0'],6,198,[-0.0604045],77,47,medium,minus,dotcolour,alfa,,,102,18,V,R,
229,103,19,5,1,53,27,700,['n'],0,left,['1'],1,962,[0.10506588],28,53,easy,minus,dotcolour,alfa,,,102,18,V,R,
230,104,20,5,1,27,53,1300,['n'],1,right,['0'],6,154,[-0.13986786],96,53,easy,minus,dotcolour,alfa,,,102,18,V,R,
231,105,21,5,1,53,27,650,['c'],1,left,['0'],6,235,[0.12907674],92,53,easy,minus,dotcolour,alfa,,,102,18,V,R,
232,106,22,5,1,33,47,701,['n'],1,right,['0'],6,175,[-0.12801561],94,47,medium,minus,dotcolour,alfa,,,102,18,V,R,
233,107,23,5,1,36,44,834,['c'],0,right,['0'],6,176,[0.13616148],95,44,hard,minus,dotcolour,alfa,,,102,18,V,R,
234,108,24,5,1,33,47,817,['n'],1,right,['0'],6,177,[-0.06857166],81,47,medium,minus,dotcolour,alfa,,,102,18,V,R,
235,109,25,5,1,33,47,650,['n'],1,right,['0'],6,321,[-0.07336392],76,47,medium,minus,dotcolour,alfa,,,102,18,V,R,
236,110,26,5,1,36,44,667,['n'],1,right,['0'],6,226,[-0.09831953],87,44,hard,minus,dotcolour,alfa,,,102,18,V,R,
237,111,27,5,1,36,44,1267,['c'],0,right,['0'],6,128,[0.11039579],94,44,hard,minus,dotcolour,alfa,,,102,18,V,R,
238,112,28,5,1,53,27,634,['c'],1,left,['0'],6,195,[0.1721933],97,53,easy,minus,dotcolour,alfa,,,102,18,V,R,
239,113,29,5,1,44,36,2017,['c'],1,left,['0'],6,171,[0.09600746],89,44,hard,minus,dotcolour,alfa,,,102,18,V,R,
240,114,30,5,1,27,53,800,['n'],1,right,['0'],6,158,[-0.12051411],94,53,easy,minus,dotcolour,alfa,,,102,18,V,R,
241,115,31,5,1,47,33,767,['c'],1,left,['8'],4,154,[0.15706464],97,47,medium,minus,dotcolour,alfa,,,102,18,V,R,
242,116,32,5,1,33,47,833,['c'],0,right,['8'],4,164,[0.05081657],76,47,medium,minus,dotcolour,alfa,,,102,18,V,R,
243,117,33,5,1,53,27,784,['c'],1,left,['8'],4,191,[0.17570536],97,53,easy,minus,dotcolour,alfa,,,102,18,V,R,
244,118,34,5,1,36,44,616,['c'],0,right,['0'],6,256,[0.06050767],75,44,hard,minus,dotcolour,alfa,,,102,18,V,R,
245,119,35,5,1,47,33,967,['c'],1,left,['8'],4,224,[0.11058493],89,47,medium,minus,dotcolour,alfa,,,102,18,V,R,
246,120,36,5,1,36,44,1684,['n'],1,right,['0'],6,293,[-0.02866822],62,44,hard,minus,dotcolour,alfa,,,102,18,V,R,
247,121,37,5,1,33,47,684,['c'],0,right,['1'],1,935,[-0.08406108],31,47,medium,minus,dotcolour,alfa,,,102,18,V,R,
248,122,38,5,1,44,36,1383,['c'],1,left,['8'],4,283,[0.11764288],88,44,hard,minus,dotcolour,alfa,,,102,18,V,R,
249,123,39,5,1,27,53,1216,['n'],1,right,['0'],6,208,[-0.17294742],97,53,easy,minus,dotcolour,alfa,,,102,18,V,R,
250,124,40,5,1,36,44,934,['n'],1,right,['0'],6,195,[-0.03788793],68,44,hard,minus,dotcolour,alfa,,,102,18,V,R,
251,125,41,5,1,36,44,817,['n'],1,right,['0'],6,172,[-0.10610664],91,44,hard,minus,dotcolour,alfa,,,102,18,V,R,
252,0,0,6,2,53,27,1584,['c'],1,left,['0'],6,142,[0.04501688],99,53,easy,plus,dotcolour,alfa,,,102,18,V,R,
253,1,1,6,2,27,53,701,['n'],1,right,['0'],6,237,[-0.15674288],100,53,easy,plus,dotcolour,alfa,,,102,18,V,R,
254,2,2,6,2,53,27,1183,['c'],1,left,['0'],6,278,[0.09872022],100,53,easy,plus,dotcolour,alfa,,,102,18,V,R,
255,3,3,6,2,44,36,867,['n'],0,left,['0'],6,226,[-0.15188725],100,44,hard,plus,dotcolour,alfa,,,102,18,V,R,
256,4,4,6,2,33,47,1335,['n'],1,right,['0'],6,269,[-0.10002674],100,47,medium,plus,dotcolour,alfa,,,102,18,V,R,
257,5,5,6,2,36,44,1751,['n'],1,right,['0'],6,813,[-0.22841329],100,44,hard,plus,dotcolour,alfa,,,102,18,V,R,
258,6,6,6,2,27,53,717,['n'],1,right,['0'],6,161,[-0.15057707],100,53,easy,plus,dotcolour,alfa,,,102,18,V,R,
259,7,7,6,2,33,47,884,['n'],1,right,['0'],6,408,[-0.2713208],100,47,medium,plus,dotcolour,alfa,,,102,18,V,R,
260,8,8,6,2,53,27,1017,['c'],1,left,['0'],6,137,[0.12089128],100,53,easy,plus,dotcolour,alfa,,,102,18,V,R,
261,9,9,6,2,27,53,700,['n'],1,right,['0'],6,168,[-0.15460197],100,53,easy,plus,dotcolour,alfa,,,102,18,V,R,
262,10,10,6,2,53,27,968,['c'],1,left,['0'],6,197,[0.06345699],99,53,easy,plus,dotcolour,alfa,,,102,18,V,R,
263,11,11,6,2,33,47,983,['n'],1,right,['0'],6,175,[-0.04447674],98,47,medium,plus,dotcolour,alfa,,,102,18,V,R,
264,12,12,6,2,47,33,734,['c'],1,left,['0'],6,171,[0.02787132],92,47,medium,plus,dotcolour,alfa,,,102,18,V,R,
265,13,13,6,2,47,33,1584,['c'],1,left,['0'],6,158,[0.11163082],100,47,medium,plus,dotcolour,alfa,,,102,18,V,R,
266,14,14,6,2,47,33,550,['c'],1,left,['0'],6,194,[0.07152991],100,47,medium,plus,dotcolour,alfa,,,102,18,V,R,
267,15,15,6,2,53,27,867,['c'],1,left,['0'],6,153,[0.04608382],99,53,easy,plus,dotcolour,alfa,,,102,18,V,R,
268,16,16,6,2,53,27,650,['c'],1,left,['0'],6,202,[0.09483964],100,53,easy,plus,dotcolour,alfa,,,102,18,V,R,
269,17,17,6,2,36,44,617,['c'],0,right,['3'],3,1323,[0.14534038],99,44,hard,plus,dotcolour,alfa,,,102,18,V,R,
270,18,18,6,2,47,33,1034,['c'],1,left,['0'],6,150,[0.14532931],100,47,medium,plus,dotcolour,alfa,,,102,18,V,R,
271,19,19,6,2,36,44,984,['n'],1,right,['0'],6,202,[-0.05023158],98,44,hard,plus,dotcolour,alfa,,,102,18,V,R,
272,20,20,6,2,44,36,1434,['c'],1,left,['8'],4,626,[0.07518301],97,44,hard,plus,dotcolour,alfa,,,102,18,V,R,
273,21,21,6,2,47,33,1133,['n'],0,left,['0'],6,205,[-0.12030388],100,47,medium,plus,dotcolour,alfa,,,102,18,V,R,
274,22,22,6,2,44,36,867,['n'],0,left,['0'],6,179,[-0.10137497],100,44,hard,plus,dotcolour,alfa,,,102,18,V,R,
275,23,23,6,2,36,44,1134,['n'],1,right,['0'],6,152,[-0.04226866],98,44,hard,plus,dotcolour,alfa,,,102,18,V,R,
276,24,24,6,2,33,47,1134,['n'],1,right,['8'],4,142,[-0.11103204],100,47,medium,plus,dotcolour,alfa,,,102,18,V,R,
277,25,25,6,2,36,44,867,['n'],1,right,['0'],6,191,[-0.0856711],100,44,hard,plus,dotcolour,alfa,,,102,18,V,R,
278,26,26,6,2,33,47,817,['n'],1,right,['8'],4,8,[-0.06194942],100,47,medium,plus,dotcolour,alfa,,,102,18,V,R,
279,27,27,6,2,27,53,634,['n'],1,right,['8'],4,96,[-0.1026964],100,53,easy,plus,dotcolour,alfa,,,102,18,V,R,
280,28,28,6,2,44,36,1984,['n'],0,left,['0'],6,158,[-0.03777967],97,44,hard,plus,dotcolour,alfa,,,102,18,V,R,
281,29,29,6,2,53,27,1283,['c'],1,left,['0'],6,325,[0.09713485],100,53,easy,plus,dotcolour,alfa,,,102,18,V,R,
282,30,30,6,2,44,36,750,['c'],1,left,['1'],1,1211,[0.15656128],99,44,hard,plus,dotcolour,alfa,,,102,18,V,R,
283,31,31,6,2,27,53,933,['n'],1,right,['0'],6,334,[-0.16356916],100,53,easy,plus,dotcolour,alfa,,,102,18,V,R,
284,32,32,6,2,33,47,700,['n'],1,right,['0'],6,261,[-0.10816999],100,47,medium,plus,dotcolour,alfa,,,102,18,V,R,
285,33,33,6,2,36,44,550,['n'],1,right,['0'],6,182,[-0.03334909],94,44,hard,plus,dotcolour,alfa,,,102,18,V,R,
286,34,34,6,2,27,53,484,['n'],1,right,['0'],6,221,[-0.13501585],100,53,easy,plus,dotcolour,alfa,,,102,18,V,R,
287,35,35,6,2,44,36,684,['n'],0,left,['0'],6,194,[-0.09745944],100,44,hard,plus,dotcolour,alfa,,,102,18,V,R,
288,36,36,6,2,47,33,916,['c'],1,left,['0'],6,167,[0.04965751],99,47,medium,plus,dotcolour,alfa,,,102,18,V,R,
289,37,37,6,2,27,53,649,['n'],1,right,['0'],6,152,[-0.05963686],100,53,easy,plus,dotcolour,alfa,,,102,18,V,R,
290,38,38,6,2,33,47,684,['n'],1,right,['0'],6,208,[-0.11258226],100,47,medium,plus,dotcolour,alfa,,,102,18,V,R,
291,39,39,6,2,44,36,800,['c'],1,left,['0'],6,137,[0.05789035],100,44,hard,plus,dotcolour,alfa,,,102,18,V,R,
292,40,40,6,2,36,44,767,['n'],1,right,['0'],6,166,[-0.11678819],100,44,hard,plus,dotcolour,alfa,,,102,18,V,R,
293,41,41,6,2,47,33,666,['c'],1,left,['0'],6,126,[0.08554122],100,47,medium,plus,dotcolour,alfa,,,102,18,V,R,
294,42,0,7,2,44,36,768,['c'],1,left,['0'],6,120,[0.11274407],100,44,hard,plus,dotcolour,alfa,,,102,18,V,R,
295,43,1,7,2,27,53,734,['n'],1,right,['0'],6,143,[-0.14803943],100,53,easy,plus,dotcolour,alfa,,,102,18,V,R,
296,44,2,7,2,33,47,734,['n'],1,right,['0'],6,157,[-0.05774804],99,47,medium,plus,dotcolour,alfa,,,102,18,V,R,
297,45,3,7,2,36,44,550,['n'],1,right,['0'],6,154,[-0.11912753],100,44,hard,plus,dotcolour,alfa,,,102,18,V,R,
298,46,4,7,2,27,53,1167,['n'],1,right,['0'],6,167,[-0.02745437],92,53,easy,plus,dotcolour,alfa,,,102,18,V,R,
299,47,5,7,2,53,27,767,['c'],1,left,['0'],6,139,[0.12376213],100,53,easy,plus,dotcolour,alfa,,,102,18,V,R,
300,48,6,7,2,27,53,817,['n'],1,right,['0'],6,142,[-0.10859405],100,53,easy,plus,dotcolour,alfa,,,102,18,V,R,
301,49,7,7,2,33,47,800,['n'],1,right,['0'],6,169,[-0.09836754],100,47,medium,plus,dotcolour,alfa,,,102,18,V,R,
302,50,8,7,2,36,44,734,['n'],1,right,['0'],6,158,[-0.08972066],100,44,hard,plus,dotcolour,alfa,,,102,18,V,R,
303,51,9,7,2,53,27,767,['c'],1,left,['0'],6,163,[0.10201713],100,53,easy,plus,dotcolour,alfa,,,102,18,V,R,
304,52,10,7,2,47,33,733,['c'],1,left,['0'],6,208,[0.08408081],100,47,medium,plus,dotcolour,alfa,,,102,18,V,R,
305,53,11,7,2,36,44,701,['c'],0,right,['0'],6,165,[0.04829379],99,44,hard,plus,dotcolour,alfa,,,102,18,V,R,
306,54,12,7,2,44,36,617,['n'],0,left,['0'],6,127,[-0.03928184],98,44,hard,plus,dotcolour,alfa,,,102,18,V,R,
307,55,13,7,2,53,27,833,['c'],1,left,['0'],6,170,[0.1441869],100,53,easy,plus,dotcolour,alfa,,,102,18,V,R,
308,56,14,7,2,47,33,733,['c'],1,left,['0'],6,135,[0.07826605],100,47,medium,plus,dotcolour,alfa,,,102,18,V,R,
309,57,15,7,2,47,33,617,['c'],1,left,['0'],6,266,[0.09064268],100,47,medium,plus,dotcolour,alfa,,,102,18,V,R,
310,58,16,7,2,47,33,817,['c'],1,left,['0'],6,136,[0.13178814],100,47,medium,plus,dotcolour,alfa,,,102,18,V,R,
311,59,17,7,2,36,44,567,['c'],0,right,['0'],6,302,[0.04072701],94,44,hard,plus,dotcolour,alfa,,,102,18,V,R,
312,60,18,7,2,44,36,800,['c'],1,left,['0'],6,259,[0.05454882],98,44,hard,plus,dotcolour,alfa,,,102,18,V,R,
313,61,19,7,2,33,47,950,['n'],1,right,['0'],6,164,[-0.08953789],100,47,medium,plus,dotcolour,alfa,,,102,18,V,R,
314,62,20,7,2,36,44,834,['n'],1,right,['0'],6,181,[-0.01714595],81,44,hard,plus,dotcolour,alfa,,,102,18,V,R,
315,63,21,7,2,53,27,834,['c'],1,left,['0'],6,102,[0.12912869],100,53,easy,plus,dotcolour,alfa,,,102,18,V,R,
316,64,22,7,2,53,27,800,['c'],1,left,['0'],6,99,[0.0974961],100,53,easy,plus,dotcolour,alfa,,,102,18,V,R,
317,65,23,7,2,36,44,1050,['n'],1,right,['0'],6,142,[-0.11295675],100,44,hard,plus,dotcolour,alfa,,,102,18,V,R,
318,66,24,7,2,47,33,717,['c'],1,left,['0'],6,125,[-0.00373505],41,47,medium,plus,dotcolour,alfa,,,102,18,V,R,
319,67,25,7,2,27,53,684,['n'],1,right,['0'],6,166,[-0.11851705],100,53,easy,plus,dotcolour,alfa,,,102,18,V,R,
320,68,26,7,2,27,53,801,['n'],1,right,['0'],6,135,[-0.18618325],100,53,easy,plus,dotcolour,alfa,,,102,18,V,R,
321,69,27,7,2,44,36,968,['n'],0,left,['0'],6,275,[-0.09765974],100,44,hard,plus,dotcolour,alfa,,,102,18,V,R,
322,70,28,7,2,44,36,734,['n'],0,left,['0'],6,172,[-0.08351427],100,44,hard,plus,dotcolour,alfa,,,102,18,V,R,
323,71,29,7,2,44,36,900,['c'],1,left,['0'],6,122,[0.06399627],100,44,hard,plus,dotcolour,alfa,,,102,18,V,R,
324,72,30,7,2,33,47,901,['n'],1,right,['8'],4,107,[-0.06650065],100,47,medium,plus,dotcolour,alfa,,,102,18,V,R,
325,73,31,7,2,33,47,617,['n'],1,right,['0'],6,183,[-0.13401432],100,47,medium,plus,dotcolour,alfa,,,102,18,V,R,
326,74,32,7,2,36,44,567,['n'],1,right,['0'],6,98,[0.00269926],42,44,hard,plus,dotcolour,alfa,,,102,18,V,R,
327,75,33,7,2,47,33,1349,['c'],1,left,['0'],6,169,[0.06324958],100,47,medium,plus,dotcolour,alfa,,,102,18,V,R,
328,76,34,7,2,47,33,800,['c'],1,left,['0'],6,108,[0.09664412],100,47,medium,plus,dotcolour,alfa,,,102,18,V,R,
329,77,35,7,2,44,36,734,['c'],1,left,['0'],6,116,[0.08348791],100,44,hard,plus,dotcolour,alfa,,,102,18,V,R,
330,78,36,7,2,33,47,767,['n'],1,right,['0'],6,186,[-0.09373965],100,47,medium,plus,dotcolour,alfa,,,102,18,V,R,
331,79,37,7,2,27,53,667,['n'],1,right,['0'],6,145,[-0.06965773],100,53,easy,plus,dotcolour,alfa,,,102,18,V,R,
332,80,38,7,2,53,27,1150,['c'],1,left,['0'],6,118,[0.1725376],100,53,easy,plus,dotcolour,alfa,,,102,18,V,R,
333,81,39,7,2,27,53,767,['n'],1,right,['0'],6,132,[-0.06011146],100,53,easy,plus,dotcolour,alfa,,,102,18,V,R,
334,82,40,7,2,53,27,934,['c'],1,left,['0'],6,139,[0.06369018],100,53,easy,plus,dotcolour,alfa,,,102,18,V,R,
335,83,41,7,2,33,47,799,['n'],1,right,['0'],6,166,[-0.03948859],97,47,medium,plus,dotcolour,alfa,,,102,18,V,R,
336,84,0,8,2,53,27,1584,['c'],1,left,['0'],6,136,[0.01999267],88,53,easy,plus,dotcolour,alfa,,,102,18,V,R,
337,85,1,8,2,27,53,700,['n'],1,right,['0'],6,136,[-0.14114629],100,53,easy,plus,dotcolour,alfa,,,102,18,V,R,
338,86,2,8,2,53,27,733,['c'],1,left,['0'],6,191,[0.11437633],100,53,easy,plus,dotcolour,alfa,,,102,18,V,R,
339,87,3,8,2,36,44,1550,['c'],0,right,['2'],2,482,[-0.03199329],16,44,hard,plus,dotcolour,alfa,,,102,18,V,R,
340,88,4,8,2,44,36,1583,['n'],0,left,['0'],6,113,[-0.07088169],100,44,hard,plus,dotcolour,alfa,,,102,18,V,R,
341,89,5,8,2,33,47,651,['n'],1,right,['0'],6,196,[-0.13953917],100,47,medium,plus,dotcolour,alfa,,,102,18,V,R,
342,90,6,8,2,44,36,1250,['n'],0,left,['0'],6,147,[-0.05339226],99,44,hard,plus,dotcolour,alfa,,,102,18,V,R,
343,91,7,8,2,36,44,750,['n'],1,right,['0'],6,136,[-0.0677915],100,44,hard,plus,dotcolour,alfa,,,102,18,V,R,
344,92,8,8,2,33,47,667,['n'],1,right,['0'],6,138,[-0.10425843],100,47,medium,plus,dotcolour,alfa,,,102,18,V,R,
345,93,9,8,2,53,27,1018,['c'],1,left,['0'],6,117,[0.14315595],100,53,easy,plus,dotcolour,alfa,,,102,18,V,R,
346,94,10,8,2,47,33,683,['c'],1,left,['0'],6,134,[0.08539659],100,47,medium,plus,dotcolour,alfa,,,102,18,V,R,
347,95,11,8,2,47,33,701,['c'],1,left,['0'],6,190,[0.16495094],100,47,medium,plus,dotcolour,alfa,,,102,18,V,R,
348,96,12,8,2,53,27,867,['n'],0,left,['1'],1,917,[0.07372291],6,53,easy,plus,dotcolour,alfa,,,102,18,V,R,
349,97,13,8,2,27,53,699,['c'],0,right,['0'],6,141,[0.07526617],100,53,easy,plus,dotcolour,alfa,,,102,18,V,R,
350,98,14,8,2,36,44,4434,['n'],1,right,['2'],2,127,[-0.09452232],100,44,hard,plus,dotcolour,alfa,,,102,18,V,R,
351,99,15,8,2,27,53,867,['n'],1,right,['0'],6,88,[-0.05408229],100,53,easy,plus,dotcolour,alfa,,,102,18,V,R,
352,100,16,8,2,47,33,1401,['c'],1,left,['0'],6,167,[0.11662112],100,47,medium,plus,dotcolour,alfa,,,102,18,V,R,
353,101,17,8,2,44,36,2700,['n'],0,left,['0'],6,77,[-0.0884012],100,44,hard,plus,dotcolour,alfa,,,102,18,V,R,
354,102,18,8,2,36,44,666,['n'],1,right,['0'],6,185,[-0.02757187],91,44,hard,plus,dotcolour,alfa,,,102,18,V,R,
355,103,19,8,2,36,44,1467,['n'],1,right,['0'],6,224,[-0.03074318],91,44,hard,plus,dotcolour,alfa,,,102,18,V,R,
356,104,20,8,2,27,53,751,['n'],1,right,['0'],6,169,[-0.09741533],100,53,easy,plus,dotcolour,alfa,,,102,18,V,R,
357,105,21,8,2,33,47,533,['n'],1,right,['0'],6,184,[-0.0767762],100,47,medium,plus,dotcolour,alfa,,,102,18,V,R,
358,106,22,8,2,47,33,1017,['c'],1,left,['0'],6,161,[0.06886204],100,47,medium,plus,dotcolour,alfa,,,102,18,V,R,
359,107,23,8,2,53,27,701,['c'],1,left,['0'],6,167,[0.05038204],99,53,easy,plus,dotcolour,alfa,,,102,18,V,R,
360,108,24,8,2,47,33,584,['c'],1,left,['0'],6,202,[0.05274626],99,47,medium,plus,dotcolour,alfa,,,102,18,V,R,
361,109,25,8,2,27,53,767,['n'],1,right,['0'],6,157,[-0.11986431],100,53,easy,plus,dotcolour,alfa,,,102,18,V,R,
362,110,26,8,2,47,33,633,['c'],1,left,['0'],6,279,[0.160818],100,47,medium,plus,dotcolour,alfa,,,102,18,V,R,
363,111,27,8,2,47,33,549,['c'],1,left,['0'],6,239,[0.05966594],99,47,medium,plus,dotcolour,alfa,,,102,18,V,R,
364,112,28,8,2,44,36,1983,['c'],1,left,['0'],6,311,[0.13089103],100,44,hard,plus,dotcolour,alfa,,,102,18,V,R,
365,113,29,8,2,53,27,782,['c'],1,left,['0'],6,268,[0.06363413],99,53,easy,plus,dotcolour,alfa,,,102,18,V,R,
366,114,30,8,2,53,27,550,['c'],1,left,['0'],6,253,[0.13059854],100,53,easy,plus,dotcolour,alfa,,,102,18,V,R,
367,115,31,8,2,33,47,1234,['n'],1,right,['0'],6,171,[-0.09656483],100,47,medium,plus,dotcolour,alfa,,,102,18,V,R,
368,116,32,8,2,44,36,883,['c'],1,left,['0'],6,122,[0.03752044],98,44,hard,plus,dotcolour,alfa,,,102,18,V,R,
369,117,33,8,2,27,53,683,['n'],1,right,['0'],6,180,[-0.10682786],100,53,easy,plus,dotcolour,alfa,,,102,18,V,R,
370,118,34,8,2,33,47,1000,['n'],1,right,['0'],6,166,[-0.1474283],100,47,medium,plus,dotcolour,alfa,,,102,18,V,R,
371,119,35,8,2,36,44,967,['n'],1,right,['0'],6,161,[-0.07839145],100,44,hard,plus,dotcolour,alfa,,,102,18,V,R,
372,120,36,8,2,36,44,933,['n'],1,right,['0'],6,143,[-0.11444485],100,44,hard,plus,dotcolour,alfa,,,102,18,V,R,
373,121,37,8,2,33,47,801,['n'],1,right,['0'],6,242,[-0.05692748],98,47,medium,plus,dotcolour,alfa,,,102,18,V,R,
374,122,38,8,2,33,47,700,['n'],1,right,['0'],6,158,[-0.09401054],100,47,medium,plus,dotcolour,alfa,,,102,18,V,R,
375,123,39,8,2,44,36,1017,['c'],1,left,['0'],6,240,[0.02009821],81,44,hard,plus,dotcolour,alfa,,,102,18,V,R,
376,124,40,8,2,27,53,1200,['n'],1,right,['0'],6,143,[-0.09514344],100,53,easy,plus,dotcolour,alfa,,,102,18,V,R,
377,125,41,8,2,44,36,917,['c'],1,left,['0'],6,150,[0.06795781],100,44,hard,plus,dotcolour,alfa,,,102,18,V,R,
378,0,0,9,3,33,47,1184,['n'],1,right,['0'],6,151,[-0.10830113],92,47,medium,minus,dotcolour,alfa,,,102,18,V,R,
379,1,1,9,3,53,27,784,['c'],1,left,['0'],6,155,[0.12309751],94,53,easy,minus,dotcolour,alfa,,,102,18,V,R,
380,2,2,9,3,53,27,616,['c'],1,left,['0'],6,165,[0.15795599],97,53,easy,minus,dotcolour,alfa,,,102,18,V,R,
381,3,3,9,3,44,36,684,['c'],1,left,['0'],6,109,[0.09284322],93,44,hard,minus,dotcolour,alfa,,,102,18,V,R,
382,4,4,9,3,33,47,834,['n'],1,right,['0'],6,136,[-0.04954366],77,47,medium,minus,dotcolour,alfa,,,102,18,V,R,
383,5,5,9,3,47,33,834,['n'],0,left,['0'],6,195,[-0.08885301],86,47,medium,minus,dotcolour,alfa,,,102,18,V,R,
384,6,6,9,3,27,53,1251,['n'],1,right,['0'],6,802,[-0.27402123],94,53,easy,minus,dotcolour,alfa,,,102,18,V,R,
385,7,7,9,3,44,36,817,['c'],1,left,['0'],6,114,[0.0304088],69,44,hard,minus,dotcolour,alfa,,,102,18,V,R,
386,8,8,9,3,53,27,884,['c'],1,left,['8'],4,644,[0.22926429],93,53,easy,minus,dotcolour,alfa,,,102,18,V,R,
387,9,9,9,3,53,27,668,['c'],1,left,['8'],4,160,[0.13806904],96,53,easy,minus,dotcolour,alfa,,,102,18,V,R,
388,10,10,9,3,27,53,950,['n'],1,right,['0'],6,133,[-0.15571011],98,53,easy,minus,dotcolour,alfa,,,102,18,V,R,
389,11,11,9,3,47,33,650,['c'],1,left,['8'],4,143,[0.14767944],97,47,medium,minus,dotcolour,alfa,,,102,18,V,R,
390,12,12,9,3,44,36,817,['c'],1,left,['8'],4,1393,[0.16374585],78,44,hard,minus,dotcolour,alfa,,,102,18,V,R,
391,13,13,9,3,44,36,1200,['c'],1,left,['9'],5,203,[0.01680525],58,44,hard,minus,dotcolour,alfa,,,102,18,V,R,
392,14,14,9,3,36,44,750,['c'],0,right,['1'],1,926,[0.11747043],75,44,hard,minus,dotcolour,alfa,,,102,18,V,R,
393,15,15,9,3,44,36,866,['n'],0,left,['0'],6,120,[-0.07551864],88,44,hard,minus,dotcolour,alfa,,,102,18,V,R,
394,16,16,9,3,53,27,967,['n'],0,left,['0'],6,190,[-0.05835679],77,53,easy,minus,dotcolour,alfa,,,102,18,V,R,
395,17,17,9,3,36,44,767,['n'],1,right,['0'],6,128,[-0.08624538],90,44,hard,minus,dotcolour,alfa,,,102,18,V,R,
396,18,18,9,3,33,47,733,['n'],1,right,['0'],6,807,[-0.04547039],61,47,medium,minus,dotcolour,alfa,,,102,18,V,R,
397,19,19,9,3,27,53,1350,['n'],1,right,['0'],6,25,[-0.10704215],100,53,easy,minus,dotcolour,alfa,,,102,18,V,R,
398,20,20,9,3,27,53,950,['n'],1,right,['0'],6,52,[-0.08433152],97,53,easy,minus,dotcolour,alfa,,,102,18,V,R,
399,21,21,9,3,36,44,885,['n'],1,right,['0'],6,127,[-0.12890162],96,44,hard,minus,dotcolour,alfa,,,102,18,V,R,
400,22,22,9,3,33,47,834,['n'],1,right,['0'],6,59,[-0.06672187],92,47,medium,minus,dotcolour,alfa,,,102,18,V,R,
401,23,23,9,3,53,27,1167,['c'],1,left,['0'],6,122,[0.11206277],95,53,easy,minus,dotcolour,alfa,,,102,18,V,R,
402,24,24,9,3,47,33,650,['c'],1,left,['0'],6,125,[0.10226066],93,47,medium,minus,dotcolour,alfa,,,102,18,V,R,
403,25,25,9,3,47,33,483,['c'],1,left,['0'],6,310,[0.12708544],89,47,medium,minus,dotcolour,alfa,,,102,18,V,R,
404,26,26,9,3,47,33,550,['c'],1,left,['0'],6,172,[0.05841102],78,47,medium,minus,dotcolour,alfa,,,102,18,V,R,
405,27,27,9,3,36,44,2167,['n'],1,right,['8'],4,160,[-0.04223608],72,44,hard,minus,dotcolour,alfa,,,102,18,V,R,
406,28,28,9,3,44,36,1834,['n'],0,left,['0'],6,146,[-0.07526607],85,44,hard,minus,dotcolour,alfa,,,102,18,V,R,
407,29,29,9,3,36,44,834,['n'],1,right,['0'],6,115,[-0.04993019],79,44,hard,minus,dotcolour,alfa,,,102,18,V,R,
408,30,30,9,3,47,33,1050,['n'],0,left,['8'],4,126,[-0.03571589],71,47,medium,minus,dotcolour,alfa,,,102,18,V,R,
409,31,31,9,3,36,44,732,['n'],1,right,['8'],4,141,[-0.09696378],91,44,hard,minus,dotcolour,alfa,,,102,18,V,R,
410,32,32,9,3,33,47,784,['n'],1,right,['8'],4,90,[-0.06947201],89,47,medium,minus,dotcolour,alfa,,,102,18,V,R,
411,33,33,9,3,33,47,534,['n'],1,right,['8'],4,122,[-0.1123713],95,47,medium,minus,dotcolour,alfa,,,102,18,V,R,
412,34,34,9,3,27,53,683,['n'],1,right,['8'],4,19,[-0.07198223],99,53,easy,minus,dotcolour,alfa,,,102,18,V,R,
413,35,35,9,3,33,47,633,['n'],1,right,['8'],4,107,[-0.10322382],94,47,medium,minus,dotcolour,alfa,,,102,18,V,R,
414,36,36,9,3,47,33,2566,['n'],0,left,['0'],6,410,[-0.07107596],73,47,medium,minus,dotcolour,alfa,,,102,18,V,R,
415,37,37,9,3,53,27,1418,['c'],1,left,['0'],6,113,[0.12024316],96,53,easy,minus,dotcolour,alfa,,,102,18,V,R,
416,38,38,9,3,44,36,1034,['n'],0,left,['8'],4,156,[-0.12048681],94,44,hard,minus,dotcolour,alfa,,,102,18,V,R,
417,39,39,9,3,27,53,882,['n'],1,right,['0'],6,156,[-0.14061869],96,53,easy,minus,dotcolour,alfa,,,102,18,V,R,
418,40,40,9,3,36,44,2167,['n'],1,right,['0'],6,128,[-0.20346478],99,44,hard,minus,dotcolour,alfa,,,102,18,V,R,
419,41,41,9,3,27,53,751,['n'],1,right,['0'],6,134,[-0.03482379],70,53,easy,minus,dotcolour,alfa,,,102,18,V,R,
420,42,0,10,3,53,27,967,['c'],1,left,['0'],6,72,[0.12389874],98,53,easy,minus,dotcolour,alfa,,,102,18,V,R,
421,43,1,10,3,53,27,634,['c'],1,left,['0'],6,141,[0.17153636],98,53,easy,minus,dotcolour,alfa,,,102,18,V,R,
422,44,2,10,3,53,27,616,['c'],1,left,['0'],6,79,[0.10909623],97,53,easy,minus,dotcolour,alfa,,,102,18,V,R,
423,45,3,10,3,47,33,1283,['c'],1,left,['3'],3,354,[0.10137509],82,47,medium,minus,dotcolour,alfa,,,102,18,V,R,
424,46,4,10,3,44,36,1084,['n'],0,left,['8'],4,26,[-0.06350148],97,44,hard,minus,dotcolour,alfa,,,102,18,V,R,
425,47,5,10,3,36,44,835,['n'],1,right,['0'],6,64,[-0.09358464],97,44,hard,minus,dotcolour,alfa,,,102,18,V,R,
426,48,6,10,3,36,44,2199,['n'],1,right,['2'],2,256,[-0.14876362],93,44,hard,minus,dotcolour,alfa,,,102,18,V,R,
427,49,7,10,3,36,44,1416,['n'],1,right,['8'],4,94,[-0.0483678],81,44,hard,minus,dotcolour,alfa,,,102,18,V,R,
428,50,8,10,3,33,47,766,['n'],1,right,['8'],4,108,[-0.1292722],97,47,medium,minus,dotcolour,alfa,,,102,18,V,R,
429,51,9,10,3,47,33,967,['c'],1,left,['3'],3,219,[0.04617215],71,47,medium,minus,dotcolour,alfa,,,102,18,V,R,
430,52,10,10,3,47,33,1066,['c'],1,left,['8'],4,113,[0.08739496],91,47,medium,minus,dotcolour,alfa,,,102,18,V,R,
431,53,11,10,3,33,47,1500,['c'],0,right,['8'],4,249,[0.01638808],57,47,medium,minus,dotcolour,alfa,,,102,18,V,R,
432,54,12,10,3,44,36,1300,['n'],0,left,['0'],6,196,[-0.02674595],63,44,hard,minus,dotcolour,alfa,,,102,18,V,R,
433,55,13,10,3,33,47,1232,['n'],1,right,['0'],6,1150,[-0.20502079],85,47,medium,minus,dotcolour,alfa,,,102,18,V,R,
434,56,14,10,3,53,27,1367,['n'],0,left,['8'],4,129,[-0.08866715],90,53,easy,minus,dotcolour,alfa,,,102,18,V,R,
435,57,15,10,3,44,36,2234,['c'],1,left,['8'],4,99,[0.0241653],67,44,hard,minus,dotcolour,alfa,,,102,18,V,R,
436,58,16,10,3,44,36,766,['c'],1,left,['8'],4,187,[0.00272261],51,44,hard,minus,dotcolour,alfa,,,102,18,V,R,
437,59,17,10,3,33,47,635,['n'],1,right,['0'],6,147,[-0.06800745],83,47,medium,minus,dotcolour,alfa,,,102,18,V,R,
438,60,18,10,3,27,53,850,['n'],1,right,['0'],6,549,[-0.15877663],87,53,easy,minus,dotcolour,alfa,,,102,18,V,R,
439,61,19,10,3,27,53,767,['n'],1,right,['0'],6,144,[-0.09871871],91,53,easy,minus,dotcolour,alfa,,,102,18,V,R,
440,62,20,10,3,27,53,800,['n'],1,right,['0'],6,164,[-0.058389],79,53,easy,minus,dotcolour,alfa,,,102,18,V,R,
441,63,21,10,3,53,27,834,['c'],1,left,['0'],6,341,[0.0617742],72,53,easy,minus,dotcolour,alfa,,,102,18,V,R,
442,64,22,10,3,27,53,884,['n'],1,right,['0'],6,165,[-0.12395721],94,53,easy,minus,dotcolour,alfa,,,102,18,V,R,
443,65,23,10,3,27,53,567,['n'],1,right,['0'],6,201,[-0.11841065],92,53,easy,minus,dotcolour,alfa,,,102,18,V,R,
444,66,24,10,3,36,44,551,['n'],1,right,['0'],6,157,[-0.14063653],96,44,hard,minus,dotcolour,alfa,,,102,18,V,R,
445,67,25,10,3,44,36,1083,['n'],0,left,['0'],6,164,[-0.10621742],91,44,hard,minus,dotcolour,alfa,,,102,18,V,R,
446,68,26,10,3,47,33,1049,['c'],1,left,['0'],6,118,[0.05153449],79,47,medium,minus,dotcolour,alfa,,,102,18,V,R,
447,69,27,10,3,33,47,617,['n'],1,right,['0'],6,410,[-0.215392],95,47,medium,minus,dotcolour,alfa,,,102,18,V,R,
448,70,28,10,3,27,53,634,['n'],1,right,['0'],6,121,[-0.07822925],88,53,easy,minus,dotcolour,alfa,,,102,18,V,R,
449,71,29,10,3,44,36,834,['n'],0,left,['0'],6,139,[-0.12079783],95,44,hard,minus,dotcolour,alfa,,,102,18,V,R,
450,72,30,10,3,47,33,583,['c'],1,left,['0'],6,56,[0.03371973],78,47,medium,minus,dotcolour,alfa,,,102,18,V,R,
451,73,31,10,3,36,44,666,['c'],0,right,['0'],6,84,[0.12632451],98,44,hard,minus,dotcolour,alfa,,,102,18,V,R,
452,74,32,10,3,36,44,632,['c'],0,right,['0'],6,66,[0.04065114],81,44,hard,minus,dotcolour,alfa,,,102,18,V,R,
453,75,33,10,3,53,27,634,['c'],1,left,['0'],6,103,[0.15361521],99,53,easy,minus,dotcolour,alfa,,,102,18,V,R,
454,76,34,10,3,44,36,616,['c'],1,left,['0'],6,123,[0.09064584],91,44,hard,minus,dotcolour,alfa,,,102,18,V,R,
455,77,35,10,3,27,53,783,['n'],1,right,['0'],6,128,[-0.04171981],74,53,easy,minus,dotcolour,alfa,,,102,18,V,R,
456,78,36,10,3,33,47,767,['n'],1,right,['0'],6,149,[-0.07702625],86,47,medium,minus,dotcolour,alfa,,,102,18,V,R,
457,79,37,10,3,33,47,1168,['c'],0,right,['8'],4,82,[0.07234042],91,47,medium,minus,dotcolour,alfa,,,102,18,V,R,
458,80,38,10,3,53,27,850,['c'],1,left,['8'],4,358,[0.11023668],84,53,easy,minus,dotcolour,alfa,,,102,18,V,R,
459,81,39,10,3,47,33,600,['c'],1,left,['8'],4,273,[-0.00532454],48,47,medium,minus,dotcolour,alfa,,,102,18,V,R,
460,82,40,10,3,47,33,783,['c'],1,left,['0'],6,208,[0.07419238],81,47,medium,minus,dotcolour,alfa,,,102,18,V,R,
461,83,41,10,3,36,44,734,['c'],0,right,['2'],2,1067,[0.05975675],63,44,hard,minus,dotcolour,alfa,,,102,18,V,R,
462,84,0,11,3,53,27,1100,['c'],1,left,['0'],6,79,[0.08791161],94,53,easy,minus,dotcolour,alfa,,,102,18,V,R,
463,85,1,11,3,27,53,800,['n'],1,right,['0'],6,133,[-0.10026055],92,53,easy,minus,dotcolour,alfa,,,102,18,V,R,
464,86,2,11,3,53,27,634,['c'],1,left,['0'],6,119,[0.04972261],79,53,easy,minus,dotcolour,alfa,,,102,18,V,R,
465,87,3,11,3,53,27,952,['c'],1,left,['0'],6,118,[0.07667429],88,53,easy,minus,dotcolour,alfa,,,102,18,V,R,
466,88,4,11,3,44,36,2751,['n'],0,left,['0'],6,1020,[0.07314835],34,44,hard,minus,dotcolour,alfa,,,102,18,V,R,
467,89,5,11,3,44,36,1033,['c'],1,left,['0'],6,211,[0.10250496],88,44,hard,minus,dotcolour,alfa,,,102,18,V,R,
468,90,6,11,3,44,36,1234,['n'],0,left,['0'],6,82,[-0.10635944],97,44,hard,minus,dotcolour,alfa,,,102,18,V,R,
469,91,7,11,3,36,44,1200,['n'],1,right,['0'],6,144,[-0.0192695],61,44,hard,minus,dotcolour,alfa,,,102,18,V,R,
470,92,8,11,3,27,53,717,['n'],1,right,['0'],6,143,[-0.10749339],93,53,easy,minus,dotcolour,alfa,,,102,18,V,R,
471,93,9,11,3,47,33,683,['n'],0,left,['0'],6,159,[-0.03123274],67,47,medium,minus,dotcolour,alfa,,,102,18,V,R,
472,94,10,11,3,47,33,684,['c'],1,left,['0'],6,158,[0.06525646],81,47,medium,minus,dotcolour,alfa,,,102,18,V,R,
473,95,11,11,3,33,47,850,['n'],1,right,['0'],6,199,[-0.09862741],88,47,medium,minus,dotcolour,alfa,,,102,18,V,R,
474,96,12,11,3,33,47,951,['n'],1,right,['0'],6,186,[-0.11482487],92,47,medium,minus,dotcolour,alfa,,,102,18,V,R,
475,97,13,11,3,47,33,633,['c'],1,left,['0'],6,107,[0.05072153],80,47,medium,minus,dotcolour,alfa,,,102,18,V,R,
476,98,14,11,3,33,47,834,['c'],0,right,['0'],6,102,[0.07712715],90,47,medium,minus,dotcolour,alfa,,,102,18,V,R,
477,99,15,11,3,33,47,950,['n'],1,right,['0'],6,93,[-0.06756711],88,47,medium,minus,dotcolour,alfa,,,102,18,V,R,
478,100,16,11,3,36,44,917,['n'],1,right,['0'],6,542,[-0.07274827],71,44,hard,minus,dotcolour,alfa,,,102,18,V,R,
479,101,17,11,3,53,27,1084,['c'],1,left,['0'],6,71,[0.10594059],97,53,easy,minus,dotcolour,alfa,,,102,18,V,R,
480,102,18,11,3,27,53,833,['n'],1,right,['0'],6,124,[-0.09799508],92,53,easy,minus,dotcolour,alfa,,,102,18,V,R,
481,103,19,11,3,44,36,649,['c'],1,left,['0'],6,94,[0.07256949],89,44,hard,minus,dotcolour,alfa,,,102,18,V,R,
482,104,20,11,3,53,27,583,['n'],0,left,['0'],6,100,[-0.05164942],81,53,easy,minus,dotcolour,alfa,,,102,18,V,R,
483,105,21,11,3,44,36,1301,['n'],0,left,['0'],6,125,[-0.05093429],79,44,hard,minus,dotcolour,alfa,,,102,18,V,R,
484,106,22,11,3,44,36,716,['c'],1,left,['0'],6,84,[0.08237581],93,44,hard,minus,dotcolour,alfa,,,102,18,V,R,
485,107,23,11,3,47,33,1233,['n'],0,left,['0'],6,113,[-0.06755732],86,47,medium,minus,dotcolour,alfa,,,102,18,V,R,
486,108,24,11,3,36,44,934,['n'],1,right,['0'],6,152,[-0.08789671],88,44,hard,minus,dotcolour,alfa,,,102,18,V,R,
487,109,25,11,3,36,44,1317,['n'],1,right,['0'],6,111,[-0.09744134],93,44,hard,minus,dotcolour,alfa,,,102,18,V,R,
488,110,26,11,3,27,53,750,['n'],1,right,['0'],6,126,[-0.0992956],93,53,easy,minus,dotcolour,alfa,,,102,18,V,R,
489,111,27,11,3,44,36,1266,['n'],0,left,['0'],6,23,[-0.05774934],97,44,hard,minus,dotcolour,alfa,,,102,18,V,R,
490,112,28,11,3,36,44,1033,['c'],0,right,['8'],4,182,[0.07402016],83,44,hard,minus,dotcolour,alfa,,,102,18,V,R,
491,113,29,11,3,47,33,1067,['n'],0,left,['0'],6,102,[-0.06820772],87,47,medium,minus,dotcolour,alfa,,,102,18,V,R,
492,114,30,11,3,33,47,1434,['n'],1,right,['8'],4,1394,[-0.25807465],88,47,medium,minus,dotcolour,alfa,,,102,18,V,R,
493,115,31,11,3,53,27,1266,['c'],1,left,['9'],5,513,[0.30253931],98,53,easy,minus,dotcolour,alfa,,,102,18,V,R,
494,116,32,11,3,36,44,1100,['c'],0,right,['3'],3,1785,[-0.02600367],46,44,hard,minus,dotcolour,alfa,,,102,18,V,R,
495,117,33,11,3,47,33,1183,['n'],0,left,['8'],4,195,[-0.07198626],81,47,medium,minus,dotcolour,alfa,,,102,18,V,R,
496,118,34,11,3,27,53,533,['n'],1,right,['9'],5,175,[-0.11251072],92,53,easy,minus,dotcolour,alfa,,,102,18,V,R,
497,119,35,11,3,33,47,817,['n'],1,right,['8'],4,152,[-0.15663837],97,47,medium,minus,dotcolour,alfa,,,102,18,V,R,
498,120,36,11,3,33,47,1000,['n'],1,right,['8'],4,116,[-0.0547147],81,47,medium,minus,dotcolour,alfa,,,102,18,V,R,
499,121,37,11,3,53,27,983,['c'],1,left,['0'],6,530,[0.24019749],95,53,easy,minus,dotcolour,alfa,,,102,18,V,R,
500,122,38,11,3,36,44,834,['n'],1,right,['8'],4,212,[-0.06112379],77,44,hard,minus,dotcolour,alfa,,,102,18,V,R,
501,123,39,11,3,27,53,800,['c'],0,right,['0'],6,101,[0.07895302],90,53,easy,minus,dotcolour,alfa,,,102,18,V,R,
502,124,40,11,3,27,53,767,['n'],1,right,['0'],6,139,[-0.12361245],95,53,easy,minus,dotcolour,alfa,,,102,18,V,R,
503,125,41,11,3,47,33,1617,['c'],1,left,['0'],6,102,[0.10207168],95,47,medium,minus,dotcolour,alfa,,,102,18,V,R,
504,0,0,12,4,27,53,1434,['n'],1,right,['0'],6,95,[-0.08584137],100,53,easy,plus,dotcolour,alfa,,,102,18,V,R,
505,1,1,12,4,36,44,733,['n'],1,right,['0'],6,144,[-0.09281615],100,44,hard,plus,dotcolour,alfa,,,102,18,V,R,
506,2,2,12,4,53,27,817,['c'],1,left,['0'],6,130,[0.08488997],100,53,easy,plus,dotcolour,alfa,,,102,18,V,R,
507,3,3,12,4,44,36,1084,['n'],0,left,['0'],6,1051,[-0.03338083],76,44,hard,plus,dotcolour,alfa,,,102,18,V,R,
508,4,4,12,4,27,53,584,['n'],1,right,['0'],6,114,[-0.03668994],98,53,easy,plus,dotcolour,alfa,,,102,18,V,R,
509,5,5,12,4,33,47,566,['n'],1,right,['0'],6,104,[-0.11925066],100,47,medium,plus,dotcolour,alfa,,,102,18,V,R,
510,6,6,12,4,27,53,867,['n'],1,right,['0'],6,355,[-0.0736484],99,53,easy,plus,dotcolour,alfa,,,102,18,V,R,
511,7,7,12,4,27,53,583,['n'],1,right,['0'],6,127,[-0.05572248],100,53,easy,plus,dotcolour,alfa,,,102,18,V,R,
512,8,8,12,4,44,36,484,['n'],0,left,['3'],3,983,[0.0453066],16,44,hard,plus,dotcolour,alfa,,,102,18,V,R,
513,9,9,12,4,44,36,933,['c'],1,left,['0'],6,515,[0.13152535],100,44,hard,plus,dotcolour,alfa,,,102,18,V,R,
514,10,10,12,4,47,33,617,['c'],1,left,['9'],5,687,[0.05021479],90,47,medium,plus,dotcolour,alfa,,,102,18,V,R,
515,11,11,12,4,36,44,684,['c'],0,right,['8'],4,130,[0.10808442],100,44,hard,plus,dotcolour,alfa,,,102,18,V,R,
516,12,12,12,4,47,33,700,['c'],1,left,['9'],5,145,[0.04458581],99,47,medium,plus,dotcolour,alfa,,,102,18,V,R,
517,13,13,12,4,47,33,750,['c'],1,left,['8'],4,214,[0.0898014],100,47,medium,plus,dotcolour,alfa,,,102,18,V,R,
518,14,14,12,4,44,36,582,['c'],1,left,['9'],5,152,[0.14222119],100,44,hard,plus,dotcolour,alfa,,,102,18,V,R,
519,15,15,12,4,33,47,900,['c'],0,right,['0'],6,184,[0.05796591],99,47,medium,plus,dotcolour,alfa,,,102,18,V,R,
520,16,16,12,4,47,33,784,['c'],1,left,['0'],6,154,[0.10097545],100,47,medium,plus,dotcolour,alfa,,,102,18,V,R,
521,17,17,12,4,53,27,817,['c'],1,left,['0'],6,205,[0.09170671],100,53,easy,plus,dotcolour,alfa,,,102,18,V,R,
522,18,18,12,4,36,44,783,['n'],1,right,['0'],6,31,[-0.07652879],100,44,hard,plus,dotcolour,alfa,,,102,18,V,R,
523,19,19,12,4,36,44,750,['n'],1,right,['0'],6,145,[-0.09042291],100,44,hard,plus,dotcolour,alfa,,,102,18,V,R,
524,20,20,12,4,53,27,850,['c'],1,left,['0'],6,186,[0.04649528],98,53,easy,plus,dotcolour,alfa,,,102,18,V,R,
525,21,21,12,4,36,44,850,['n'],1,right,['0'],6,130,[-0.05773164],100,44,hard,plus,dotcolour,alfa,,,102,18,V,R,
526,22,22,12,4,53,27,750,['c'],1,left,['0'],6,136,[0.06979092],100,53,easy,plus,dotcolour,alfa,,,102,18,V,R,
527,23,23,12,4,44,36,967,['c'],1,left,['0'],6,38,[0.05704329],100,44,hard,plus,dotcolour,alfa,,,102,18,V,R,
528,24,24,12,4,27,53,717,['n'],1,right,['0'],6,97,[-0.04432368],99,53,easy,plus,dotcolour,alfa,,,102,18,V,R,
529,25,25,12,4,33,47,984,['c'],0,right,['0'],6,167,[0.10883271],100,47,medium,plus,dotcolour,alfa,,,102,18,V,R,
530,26,26,12,4,47,33,1600,['n'],0,left,['0'],6,98,[-0.06306898],100,47,medium,plus,dotcolour,alfa,,,102,18,V,R,
531,27,27,12,4,27,53,1399,['n'],1,right,['0'],6,23,[-0.08130765],100,53,easy,plus,dotcolour,alfa,,,102,18,V,R,
532,28,28,12,4,27,53,833,['n'],1,right,['0'],6,118,[-0.13619653],100,53,easy,plus,dotcolour,alfa,,,102,18,V,R,
533,29,29,12,4,53,27,800,['c'],1,left,['0'],6,163,[0.08404337],100,53,easy,plus,dotcolour,alfa,,,102,18,V,R,
534,30,30,12,4,47,33,983,['c'],1,left,['0'],6,206,[0.15741428],100,47,medium,plus,dotcolour,alfa,,,102,18,V,R,
535,31,31,12,4,47,33,866,['c'],1,left,['8'],4,124,[0.08033612],100,47,medium,plus,dotcolour,alfa,,,102,18,V,R,
536,32,32,12,4,33,47,1066,['n'],1,right,['8'],4,1958,[-0.39008869],100,47,medium,plus,dotcolour,alfa,,,102,18,V,R,
537,33,33,12,4,53,27,784,['c'],1,left,['0'],6,105,[0.05695856],100,53,easy,plus,dotcolour,alfa,,,102,18,V,R,
538,34,34,12,4,33,47,1533,['n'],1,right,['0'],6,561,[-0.22189501],100,47,medium,plus,dotcolour,alfa,,,102,18,V,R,
539,35,35,12,4,36,44,817,['n'],1,right,['0'],6,83,[-0.04698841],100,44,hard,plus,dotcolour,alfa,,,102,18,V,R,
540,36,36,12,4,36,44,851,['n'],1,right,['8'],4,63,[-0.08482182],100,44,hard,plus,dotcolour,alfa,,,102,18,V,R,
541,37,37,12,4,53,27,1067,['c'],1,left,['0'],6,131,[0.06190317],100,53,easy,plus,dotcolour,alfa,,,102,18,V,R,
542,38,38,12,4,44,36,1382,['n'],0,left,['2'],2,681,[0.06740958],5,44,hard,plus,dotcolour,alfa,,,102,18,V,R,
543,39,39,12,4,44,36,1116,['n'],0,left,['8'],4,50,[-0.07370128],100,44,hard,plus,dotcolour,alfa,,,102,18,V,R,
544,40,40,12,4,33,47,817,['n'],1,right,['9'],5,768,[-0.31654216],100,47,medium,plus,dotcolour,alfa,,,102,18,V,R,
545,41,41,12,4,33,47,817,['n'],1,right,['9'],5,153,[-0.09727714],100,47,medium,plus,dotcolour,alfa,,,102,18,V,R,
546,42,0,13,4,33,47,968,['n'],1,right,['0'],6,32,[-0.08036158],100,47,medium,plus,dotcolour,alfa,,,102,18,V,R,
547,43,1,13,4,36,44,567,['n'],1,right,['0'],6,56,[-0.05740727],100,44,hard,plus,dotcolour,alfa,,,102,18,V,R,
548,44,2,13,4,44,36,1200,['c'],1,left,['0'],6,128,[0.06940128],100,44,hard,plus,dotcolour,alfa,,,102,18,V,R,
549,45,3,13,4,33,47,917,['n'],1,right,['0'],6,103,[-0.09374717],100,47,medium,plus,dotcolour,alfa,,,102,18,V,R,
550,46,4,13,4,27,53,1082,['n'],1,right,['0'],6,104,[-0.07472765],100,53,easy,plus,dotcolour,alfa,,,102,18,V,R,
551,47,5,13,4,47,33,933,['c'],1,left,['0'],6,601,[0.12264288],100,47,medium,plus,dotcolour,alfa,,,102,18,V,R,
552,48,6,13,4,27,53,1434,['n'],1,right,['8'],4,177,[-0.08982784],100,53,easy,plus,dotcolour,alfa,,,102,18,V,R,
553,49,7,13,4,33,47,599,['n'],1,right,['9'],5,155,[-0.09064774],100,47,medium,plus,dotcolour,alfa,,,102,18,V,R,
554,50,8,13,4,53,27,1218,['c'],1,left,['8'],4,517,[0.27563194],100,53,easy,plus,dotcolour,alfa,,,102,18,V,R,
555,51,9,13,4,27,53,651,['n'],1,right,['9'],5,256,[-0.07397833],99,53,easy,plus,dotcolour,alfa,,,102,18,V,R,
556,52,10,13,4,44,36,1133,['c'],1,left,['8'],4,154,[0.06711505],100,44,hard,plus,dotcolour,alfa,,,102,18,V,R,
557,53,11,13,4,27,53,2701,['n'],1,right,['9'],5,105,[-0.08383021],100,53,easy,plus,dotcolour,alfa,,,102,18,V,R,
558,54,12,13,4,44,36,1017,['n'],0,left,['9'],5,101,[-0.01750082],88,44,hard,plus,dotcolour,alfa,,,102,18,V,R,
559,55,13,13,4,44,36,1400,['c'],1,left,['8'],4,91,[0.10331836],100,44,hard,plus,dotcolour,alfa,,,102,18,V,R,
560,56,14,13,4,36,44,1034,['c'],0,right,['8'],4,47,[0.05862906],100,44,hard,plus,dotcolour,alfa,,,102,18,V,R,
561,57,15,13,4,36,44,901,['n'],1,right,['8'],4,331,[-0.09964439],100,44,hard,plus,dotcolour,alfa,,,102,18,V,R,
562,58,16,13,4,53,27,1516,['c'],1,left,['8'],4,266,[0.12711591],100,53,easy,plus,dotcolour,alfa,,,102,18,V,R,
563,59,17,13,4,36,44,1717,['n'],1,right,['0'],6,660,[-0.0088307],60,44,hard,plus,dotcolour,alfa,,,102,18,V,R,
564,60,18,13,4,53,27,682,['n'],0,left,['3'],3,1448,[0.15443456],1,53,easy,plus,dotcolour,alfa,,,102,18,V,R,
565,61,19,13,4,33,47,950,['n'],1,right,['0'],6,88,[-0.1008537],100,47,medium,plus,dotcolour,alfa,,,102,18,V,R,
566,62,20,13,4,44,36,1368,['c'],1,left,['8'],4,87,[0.06387051],100,44,hard,plus,dotcolour,alfa,,,102,18,V,R,
567,63,21,13,4,47,33,1499,['c'],1,left,['9'],5,154,[0.04846015],99,47,medium,plus,dotcolour,alfa,,,102,18,V,R,
568,64,22,13,4,36,44,885,['c'],0,right,['9'],5,121,[0.11085118],100,44,hard,plus,dotcolour,alfa,,,102,18,V,R,
569,65,23,13,4,33,47,949,['c'],0,right,['9'],5,153,[0.06213114],100,47,medium,plus,dotcolour,alfa,,,102,18,V,R,
570,66,24,13,4,53,27,783,['c'],1,left,['9'],5,109,[0.10246395],100,53,easy,plus,dotcolour,alfa,,,102,18,V,R,
571,67,25,13,4,53,27,866,['c'],1,left,['0'],6,134,[0.11427748],100,53,easy,plus,dotcolour,alfa,,,102,18,V,R,
572,68,26,13,4,27,53,1450,['n'],1,right,['0'],6,40,[-0.06649265],100,53,easy,plus,dotcolour,alfa,,,102,18,V,R,
573,69,27,13,4,47,33,683,['n'],0,left,['0'],6,69,[-0.0100045],80,47,medium,plus,dotcolour,alfa,,,102,18,V,R,
574,70,28,13,4,36,44,784,['n'],1,right,['0'],6,108,[-0.10895914],100,44,hard,plus,dotcolour,alfa,,,102,18,V,R,
575,71,29,13,4,44,36,1684,['c'],1,left,['0'],6,62,[0.06873805],100,44,hard,plus,dotcolour,alfa,,,102,18,V,R,
576,72,30,13,4,27,53,735,['c'],0,right,['8'],4,151,[0.01664128],82,53,easy,plus,dotcolour,alfa,,,102,18,V,R,
577,73,31,13,4,47,33,567,['n'],0,left,['8'],4,139,[-0.00148277],54,47,medium,plus,dotcolour,alfa,,,102,18,V,R,
578,74,32,13,4,53,27,901,['c'],1,left,['8'],4,75,[0.08605746],100,53,easy,plus,dotcolour,alfa,,,102,18,V,R,
579,75,33,13,4,33,47,600,['n'],1,right,['8'],4,73,[-0.03176433],99,47,medium,plus,dotcolour,alfa,,,102,18,V,R,
580,76,34,13,4,47,33,683,['c'],1,left,['9'],5,52,[0.04026063],100,47,medium,plus,dotcolour,alfa,,,102,18,V,R,
581,77,35,13,4,47,33,617,['c'],1,left,['9'],5,131,[0.07238574],100,47,medium,plus,dotcolour,alfa,,,102,18,V,R,
582,78,36,13,4,36,44,1017,['c'],0,right,['9'],5,550,[0.00545159],57,44,hard,plus,dotcolour,alfa,,,102,18,V,R,
583,79,37,13,4,53,27,899,['n'],0,left,['9'],5,462,[-0.08786471],99,53,easy,plus,dotcolour,alfa,,,102,18,V,R,
584,80,38,13,4,33,47,1167,['n'],1,right,['0'],6,134,[-0.08066063],100,47,medium,plus,dotcolour,alfa,,,102,18,V,R,
585,81,39,13,4,27,53,699,['n'],1,right,['9'],5,93,[-0.13328406],100,53,easy,plus,dotcolour,alfa,,,102,18,V,R,
586,82,40,13,4,47,33,1050,['n'],0,left,['3'],3,193,[-0.09817348],100,47,medium,plus,dotcolour,alfa,,,102,18,V,R,
587,83,41,13,4,44,36,1233,['c'],1,left,['9'],5,130,[0.08184993],100,44,hard,plus,dotcolour,alfa,,,102,18,V,R,
588,84,0,14,4,27,53,885,['n'],1,right,['0'],6,125,[-0.03031429],96,53,easy,plus,dotcolour,alfa,,,102,18,V,R,
589,85,1,14,4,36,44,668,['n'],1,right,['0'],6,134,[-0.06845044],100,44,hard,plus,dotcolour,alfa,,,102,18,V,R,
590,86,2,14,4,47,33,1067,['n'],0,left,['3'],3,160,[-0.11947977],100,47,medium,plus,dotcolour,alfa,,,102,18,V,R,
591,87,3,14,4,36,44,1100,['n'],1,right,['0'],6,142,[-0.05939848],100,44,hard,plus,dotcolour,alfa,,,102,18,V,R,
592,88,4,14,4,33,47,916,['n'],1,right,['0'],6,101,[-0.08583854],100,47,medium,plus,dotcolour,alfa,,,102,18,V,R,
593,89,5,14,4,44,36,317,['c'],1,left,['9'],5,150,[0.11993075],100,44,hard,plus,dotcolour,alfa,,,102,18,V,R,
594,90,6,14,4,33,47,917,['n'],1,right,['0'],6,117,[-0.07622509],100,47,medium,plus,dotcolour,alfa,,,102,18,V,R,
595,91,7,14,4,44,36,584,['c'],1,left,['9'],5,97,[0.0639617],100,44,hard,plus,dotcolour,alfa,,,102,18,V,R,
596,92,8,14,4,47,33,934,['c'],1,left,['8'],4,338,[0.20882723],100,47,medium,plus,dotcolour,alfa,,,102,18,V,R,
597,93,9,14,4,33,47,883,['c'],0,right,['0'],6,122,[0.02348255],92,47,medium,plus,dotcolour,alfa,,,102,18,V,R,
598,94,10,14,4,36,44,1499,['c'],0,right,['8'],4,283,[0.03578897],92,44,hard,plus,dotcolour,alfa,,,102,18,V,R,
599,95,11,14,4,53,27,1249,['c'],1,left,['9'],5,607,[0.09458027],99,53,easy,plus,dotcolour,alfa,,,102,18,V,R,
600,96,12,14,4,27,53,701,['n'],1,right,['0'],6,12,[-0.08954505],100,53,easy,plus,dotcolour,alfa,,,102,18,V,R,
601,97,13,14,4,44,36,983,['c'],1,left,['9'],5,109,[-0.02776068],5,44,hard,plus,dotcolour,alfa,,,102,18,V,R,
602,98,14,14,4,53,27,1150,['c'],1,left,['9'],5,116,[0.09206372],100,53,easy,plus,dotcolour,alfa,,,102,18,V,R,
603,99,15,14,4,33,47,716,['n'],1,right,['0'],6,211,[-0.09170197],100,47,medium,plus,dotcolour,alfa,,,102,18,V,R,
604,100,16,14,4,47,33,734,['c'],1,left,['8'],4,102,[0.08607065],100,47,medium,plus,dotcolour,alfa,,,102,18,V,R,
605,101,17,14,4,47,33,916,['c'],1,left,['8'],4,95,[0.08015944],100,47,medium,plus,dotcolour,alfa,,,102,18,V,R,
606,102,18,14,4,27,53,650,['n'],1,right,['0'],6,98,[-0.08229565],100,53,easy,plus,dotcolour,alfa,,,102,18,V,R,
607,103,19,14,4,27,53,533,['n'],1,right,['0'],6,139,[-0.11066741],100,53,easy,plus,dotcolour,alfa,,,102,18,V,R,
608,104,20,14,4,53,27,767,['c'],1,left,['8'],4,80,[0.06620782],100,53,easy,plus,dotcolour,alfa,,,102,18,V,R,
609,105,21,14,4,47,33,1016,['c'],1,left,['8'],4,69,[0.10564136],100,47,medium,plus,dotcolour,alfa,,,102,18,V,R,
610,106,22,14,4,36,44,749,['n'],1,right,['0'],6,47,[-0.10324137],100,44,hard,plus,dotcolour,alfa,,,102,18,V,R,
611,107,23,14,4,33,47,551,['n'],1,right,['0'],6,80,[-0.05723171],100,47,medium,plus,dotcolour,alfa,,,102,18,V,R,
612,108,24,14,4,36,44,517,['n'],1,right,['0'],6,169,[-0.03913106],97,44,hard,plus,dotcolour,alfa,,,102,18,V,R,
613,109,25,14,4,27,53,533,['n'],1,right,['0'],6,199,[-0.03593872],95,53,easy,plus,dotcolour,alfa,,,102,18,V,R,
614,110,26,14,4,44,36,967,['c'],1,left,['8'],4,113,[0.08661829],100,44,hard,plus,dotcolour,alfa,,,102,18,V,R,
615,111,27,14,4,47,33,617,['c'],1,left,['9'],5,141,[0.13423953],100,47,medium,plus,dotcolour,alfa,,,102,18,V,R,
616,112,28,14,4,27,53,866,['n'],1,right,['0'],6,102,[-0.03824627],99,53,easy,plus,dotcolour,alfa,,,102,18,V,R,
617,113,29,14,4,53,27,934,['c'],1,left,['0'],6,630,[0.05197784],91,53,easy,plus,dotcolour,alfa,,,102,18,V,R,
618,114,30,14,4,53,27,850,['c'],1,left,['0'],6,132,[0.0756537],100,53,easy,plus,dotcolour,alfa,,,102,18,V,R,
619,115,31,14,4,44,36,884,['c'],1,left,['0'],6,124,[0.05122014],99,44,hard,plus,dotcolour,alfa,,,102,18,V,R,
620,116,32,14,4,33,47,2517,['n'],1,right,['9'],5,260,[-0.21838112],100,47,medium,plus,dotcolour,alfa,,,102,18,V,R,
621,117,33,14,4,27,53,799,['c'],0,right,['2'],2,955,[-0.01113664],40,53,easy,plus,dotcolour,alfa,,,102,18,V,R,
622,118,34,14,4,36,44,833,['n'],1,right,['0'],6,108,[-0.05841147],100,44,hard,plus,dotcolour,alfa,,,102,18,V,R,
623,119,35,14,4,53,27,1283,['c'],1,left,['9'],5,165,[0.08109642],100,53,easy,plus,dotcolour,alfa,,,102,18,V,R,
624,120,36,14,4,33,47,683,['c'],0,right,['2'],2,877,[-0.16064072],0,47,medium,plus,dotcolour,alfa,,,102,18,V,R,
625,121,37,14,4,36,44,1000,['n'],1,right,['0'],6,43,[-0.11088184],100,44,hard,plus,dotcolour,alfa,,,102,18,V,R,
626,122,38,14,4,44,36,1101,['c'],1,left,['0'],6,118,[0.14520364],100,44,hard,plus,dotcolour,alfa,,,102,18,V,R,
627,123,39,14,4,47,33,949,['c'],1,left,['0'],6,125,[0.03977815],98,47,medium,plus,dotcolour,alfa,,,102,18,V,R,
628,124,40,14,4,44,36,817,['n'],0,left,['0'],6,128,[-0.09203503],100,44,hard,plus,dotcolour,alfa,,,102,18,V,R,
629,125,41,14,4,53,27,1334,['c'],1,left,['0'],6,287,[0.0841131],100,53,easy,plus,dotcolour,alfa,,,102,18,V,R,
630,0,0,15,5,47,33,1317,['c'],1,left,['0'],6,98,[0.07788689],90,47,medium,minus,dotcolour,alfa,,,102,18,V,R,
631,1,1,15,5,47,33,882,['c'],1,left,['0'],6,221,[0.18916715],97,47,medium,minus,dotcolour,alfa,,,102,18,V,R,
632,2,2,15,5,33,47,884,['n'],1,right,['0'],6,98,[-0.084822],92,47,medium,minus,dotcolour,alfa,,,102,18,V,R,
633,3,3,15,5,53,27,767,['c'],1,left,['8'],4,489,[0.15507513],88,53,easy,minus,dotcolour,alfa,,,102,18,V,R,
634,4,4,15,5,27,53,651,['n'],1,right,['0'],6,156,[-0.03961152],71,53,easy,minus,dotcolour,alfa,,,102,18,V,R,
635,5,5,15,5,44,36,716,['c'],1,left,['8'],4,131,[0.06013611],82,44,hard,minus,dotcolour,alfa,,,102,18,V,R,
636,6,6,15,5,47,33,1000,['n'],0,left,['0'],6,94,[-0.06883604],88,47,medium,minus,dotcolour,alfa,,,102,18,V,R,
637,7,7,15,5,47,33,849,['c'],1,left,['8'],4,106,[0.08199572],91,47,medium,minus,dotcolour,alfa,,,102,18,V,R,
638,8,8,15,5,44,36,650,['c'],1,left,['9'],5,148,[0.15924602],98,44,hard,minus,dotcolour,alfa,,,102,18,V,R,
639,9,9,15,5,36,44,817,['n'],1,right,['0'],6,32,[-0.05077904],93,44,hard,minus,dotcolour,alfa,,,102,18,V,R,
640,10,10,15,5,33,47,1066,['n'],1,right,['0'],6,1294,[-0.18185938],81,47,medium,minus,dotcolour,alfa,,,102,18,V,R,
641,11,11,15,5,44,36,934,['n'],0,left,['8'],4,5,[-0.07133321],100,44,hard,minus,dotcolour,alfa,,,102,18,V,R,
642,12,12,15,5,27,53,749,['n'],1,right,['9'],5,48,[-0.09625054],98,53,easy,minus,dotcolour,alfa,,,102,18,V,R,
643,13,13,15,5,44,36,583,['n'],0,left,['8'],4,64,[-0.10807994],98,44,hard,minus,dotcolour,alfa,,,102,18,V,R,
644,14,14,15,5,27,53,933,['n'],1,right,['8'],4,138,[-0.06850299],84,53,easy,minus,dotcolour,alfa,,,102,18,V,R,
645,15,15,15,5,36,44,601,['n'],1,right,['8'],4,174,[-0.07955101],85,44,hard,minus,dotcolour,alfa,,,102,18,V,R,
646,16,16,15,5,33,47,634,['n'],1,right,['0'],6,134,[-0.13644538],97,47,medium,minus,dotcolour,alfa,,,102,18,V,R,
647,17,17,15,5,44,36,1133,['n'],0,left,['8'],4,309,[-0.00548798],52,44,hard,minus,dotcolour,alfa,,,102,18,V,R,
648,18,18,15,5,53,27,1868,['c'],1,left,['9'],5,191,[0.07824461],83,53,easy,minus,dotcolour,alfa,,,102,18,V,R,
649,19,19,15,5,27,53,1450,['n'],1,right,['0'],6,111,[-0.11509523],96,53,easy,minus,dotcolour,alfa,,,102,18,V,R,
650,20,20,15,5,36,44,966,['n'],1,right,['0'],6,85,[-0.06872082],89,44,hard,minus,dotcolour,alfa,,,102,18,V,R,
651,21,21,15,5,44,36,1283,['c'],1,left,['0'],6,127,[0.09591764],92,44,hard,minus,dotcolour,alfa,,,102,18,V,R,
652,22,22,15,5,36,44,817,['c'],0,right,['9'],5,562,[0.08044321],72,44,hard,minus,dotcolour,alfa,,,102,18,V,R,
653,23,23,15,5,47,33,833,['c'],1,left,['9'],5,140,[0.06777214],84,47,medium,minus,dotcolour,alfa,,,102,18,V,R,
654,24,24,15,5,27,53,749,['n'],1,right,['0'],6,130,[-0.0954718],92,53,easy,minus,dotcolour,alfa,,,102,18,V,R,
655,25,25,15,5,36,44,1101,['n'],1,right,['0'],6,593,[-0.14344889],84,44,hard,minus,dotcolour,alfa,,,102,18,V,R,
656,26,26,15,5,47,33,917,['n'],0,left,['0'],6,54,[-0.03856718],82,47,medium,minus,dotcolour,alfa,,,102,18,V,R,
657,27,27,15,5,53,27,2349,['n'],0,left,['0'],6,168,[-0.02158083],62,53,easy,minus,dotcolour,alfa,,,102,18,V,R,
658,28,28,15,5,53,27,917,['c'],1,left,['0'],6,134,[0.14384589],97,53,easy,minus,dotcolour,alfa,,,102,18,V,R,
659,29,29,15,5,36,44,699,['n'],1,right,['0'],6,37,[-0.07394777],97,44,hard,minus,dotcolour,alfa,,,102,18,V,R,
660,30,30,15,5,33,47,767,['n'],1,right,['0'],6,126,[-0.15777095],98,47,medium,minus,dotcolour,alfa,,,102,18,V,R,
661,31,31,15,5,53,27,1766,['c'],1,left,['9'],5,101,[0.12121476],97,53,easy,minus,dotcolour,alfa,,,102,18,V,R,
662,32,32,15,5,33,47,1017,['n'],1,right,['0'],6,121,[-0.04199723],75,47,medium,minus,dotcolour,alfa,,,102,18,V,R,
663,33,33,15,5,53,27,1152,['c'],1,left,['9'],5,104,[0.1417668],98,53,easy,minus,dotcolour,alfa,,,102,18,V,R,
664,34,34,15,5,27,53,1134,['c'],0,right,['9'],5,136,[0.05975186],81,53,easy,minus,dotcolour,alfa,,,102,18,V,R,
665,35,35,15,5,33,47,766,['n'],1,right,['9'],5,93,[-0.07316576],90,47,medium,minus,dotcolour,alfa,,,102,18,V,R,
666,36,36,15,5,36,44,834,['n'],1,right,['9'],5,1449,[-0.20728195],82,44,hard,minus,dotcolour,alfa,,,102,18,V,R,
667,37,37,15,5,33,47,1067,['n'],1,right,['9'],5,85,[-0.05751879],86,47,medium,minus,dotcolour,alfa,,,102,18,V,R,
668,38,38,15,5,44,36,734,['n'],0,left,['9'],5,1014,[0.14437254],22,44,hard,minus,dotcolour,alfa,,,102,18,V,R,
669,39,39,15,5,53,27,1300,['c'],1,left,['9'],5,161,[0.01681309],59,53,easy,minus,dotcolour,alfa,,,102,18,V,R,
670,40,40,15,5,47,33,632,['c'],1,left,['0'],6,532,[0.0522905],66,47,medium,minus,dotcolour,alfa,,,102,18,V,R,
671,41,41,15,5,27,53,1249,['n'],1,right,['0'],6,590,[-0.2037837],92,53,easy,minus,dotcolour,alfa,,,102,18,V,R,
672,42,0,16,5,27,53,901,['n'],1,right,['0'],6,108,[-0.11059353],95,53,easy,minus,dotcolour,alfa,,,102,18,V,R,
673,43,1,16,5,44,36,818,['n'],0,left,['0'],6,113,[-0.06208],84,44,hard,minus,dotcolour,alfa,,,102,18,V,R,
674,44,2,16,5,33,47,483,['n'],1,right,['0'],6,163,[-0.02310205],63,47,medium,minus,dotcolour,alfa,,,102,18,V,R,
675,45,3,16,5,36,44,3535,['n'],1,right,['8'],4,96,[-0.10485318],95,44,hard,minus,dotcolour,alfa,,,102,18,V,R,
676,46,4,16,5,36,44,717,['n'],1,right,['8'],4,24,[-0.07449098],99,44,hard,minus,dotcolour,alfa,,,102,18,V,R,
677,47,5,16,5,44,36,800,['n'],0,left,['8'],4,657,[-0.01572313],54,44,hard,minus,dotcolour,alfa,,,102,18,V,R,
678,48,6,16,5,36,44,1466,['n'],1,right,['8'],4,1469,[-0.37095533],94,44,hard,minus,dotcolour,alfa,,,102,18,V,R,
679,49,7,16,5,27,53,584,['n'],1,right,['9'],5,164,[-0.08429103],87,53,easy,minus,dotcolour,alfa,,,102,18,V,R,
680,50,8,16,5,47,33,1149,['c'],1,left,['2'],2,169,[0.0980089],90,47,medium,minus,dotcolour,alfa,,,102,18,V,R,
681,51,9,16,5,33,47,684,['n'],1,right,['8'],4,47,[-0.04275247],86,47,medium,minus,dotcolour,alfa,,,102,18,V,R,
682,52,10,16,5,33,47,918,['n'],1,right,['8'],4,506,[-0.11736892],82,47,medium,minus,dotcolour,alfa,,,102,18,V,R,
683,53,11,16,5,47,33,683,['c'],1,left,['9'],5,148,[0.10535175],92,47,medium,minus,dotcolour,alfa,,,102,18,V,R,
684,54,12,16,5,27,53,967,['n'],1,right,['8'],4,136,[-0.04418839],75,53,easy,minus,dotcolour,alfa,,,102,18,V,R,
685,55,13,16,5,33,47,766,['c'],0,right,['8'],4,230,[0.00478207],52,47,medium,minus,dotcolour,alfa,,,102,18,V,R,
686,56,14,16,5,27,53,783,['c'],0,right,['2'],2,1191,[-0.18827335],17,53,easy,minus,dotcolour,alfa,,,102,18,V,R,
687,57,15,16,5,27,53,1267,['n'],1,right,['0'],6,101,[-0.17104831],99,53,easy,minus,dotcolour,alfa,,,102,18,V,R,
688,58,16,16,5,47,33,1268,['c'],1,left,['0'],6,88,[0.06151419],87,47,medium,minus,dotcolour,alfa,,,102,18,V,R,
689,59,17,16,5,44,36,800,['c'],1,left,['0'],6,373,[0.06182455],71,44,hard,minus,dotcolour,alfa,,,102,18,V,R,
690,60,18,16,5,36,44,982,['n'],1,right,['0'],6,104,[-0.04298393],77,44,hard,minus,dotcolour,alfa,,,102,18,V,R,
691,61,19,16,5,53,27,734,['c'],1,left,['0'],6,104,[0.07941978],90,53,easy,minus,dotcolour,alfa,,,102,18,V,R,
692,62,20,16,5,47,33,1334,['c'],1,left,['0'],6,600,[0.14624853],85,47,medium,minus,dotcolour,alfa,,,102,18,V,R,
693,63,21,16,5,33,47,1535,['n'],1,right,['0'],6,180,[-0.06603723],80,47,medium,minus,dotcolour,alfa,,,102,18,V,R,
694,64,22,16,5,53,27,950,['c'],1,left,['0'],6,169,[0.05342237],76,53,easy,minus,dotcolour,alfa,,,102,18,V,R,
695,65,23,16,5,33,47,1150,['n'],1,right,['0'],6,149,[-0.07771762],86,47,medium,minus,dotcolour,alfa,,,102,18,V,R,
696,66,24,16,5,44,36,683,['c'],1,left,['0'],6,149,[0.09273954],90,44,hard,minus,dotcolour,alfa,,,102,18,V,R,
697,67,25,16,5,33,47,967,['n'],1,right,['0'],6,154,[-0.0908285],89,47,medium,minus,dotcolour,alfa,,,102,18,V,R,
698,68,26,16,5,36,44,2451,['c'],0,right,['0'],6,435,[-0.05167142],33,44,hard,minus,dotcolour,alfa,,,102,18,V,R,
699,69,27,16,5,47,33,784,['c'],1,left,['0'],6,123,[0.06780378],85,47,medium,minus,dotcolour,alfa,,,102,18,V,R,
700,70,28,16,5,53,27,2251,['c'],1,left,['0'],6,1478,[0.24303145],86,53,easy,minus,dotcolour,alfa,,,102,18,V,R,
701,71,29,16,5,44,36,984,['c'],1,left,['0'],6,1525,[0.2554278],87,44,hard,minus,dotcolour,alfa,,,102,18,V,R,
702,72,30,16,5,53,27,751,['c'],1,left,['0'],6,122,[0.09914202],93,53,easy,minus,dotcolour,alfa,,,102,18,V,R,
703,73,31,16,5,47,33,901,['c'],1,left,['8'],4,331,[0.13612353],89,47,medium,minus,dotcolour,alfa,,,102,18,V,R,
704,74,32,16,5,27,53,517,['n'],1,right,['0'],6,131,[-0.14664064],97,53,easy,minus,dotcolour,alfa,,,102,18,V,R,
705,75,33,16,5,27,53,768,['n'],1,right,['9'],5,112,[-0.0751983],88,53,easy,minus,dotcolour,alfa,,,102,18,V,R,
706,76,34,16,5,36,44,550,['n'],1,right,['9'],5,118,[-0.13001665],97,44,hard,minus,dotcolour,alfa,,,102,18,V,R,
707,77,35,16,5,44,36,2517,['c'],1,left,['0'],6,86,[0.10392854],96,44,hard,minus,dotcolour,alfa,,,102,18,V,R,
708,78,36,16,5,47,33,900,['c'],1,left,['0'],6,128,[0.14961532],98,47,medium,minus,dotcolour,alfa,,,102,18,V,R,
709,79,37,16,5,53,27,633,['c'],1,left,['0'],6,124,[0.152993],98,53,easy,minus,dotcolour,alfa,,,102,18,V,R,
710,80,38,16,5,53,27,550,['c'],1,left,['0'],6,122,[0.08269741],89,53,easy,minus,dotcolour,alfa,,,102,18,V,R,
711,81,39,16,5,53,27,533,['c'],1,left,['0'],6,113,[0.07543511],88,53,easy,minus,dotcolour,alfa,,,102,18,V,R,
712,82,40,16,5,44,36,517,['c'],1,left,['0'],6,121,[0.08238652],89,44,hard,minus,dotcolour,alfa,,,102,18,V,R,
713,83,41,16,5,36,44,884,['n'],1,right,['0'],6,129,[-0.09709163],92,44,hard,minus,dotcolour,alfa,,,102,18,V,R,
714,84,0,17,5,36,44,751,['n'],1,right,['0'],6,166,[-0.10353651],91,44,hard,minus,dotcolour,alfa,,,102,18,V,R,
715,85,1,17,5,33,47,765,['n'],1,right,['0'],6,138,[-0.10484681],93,47,medium,minus,dotcolour,alfa,,,102,18,V,R,
716,86,2,17,5,53,27,600,['c'],1,left,['8'],4,254,[0.10069798],86,53,easy,minus,dotcolour,alfa,,,102,18,V,R,
717,87,3,17,5,33,47,967,['n'],1,right,['0'],6,126,[-0.11519886],95,47,medium,minus,dotcolour,alfa,,,102,18,V,R,
718,88,4,17,5,36,44,900,['c'],0,right,['0'],6,119,[0.0909539],91,44,hard,minus,dotcolour,alfa,,,102,18,V,R,
719,89,5,17,5,44,36,618,['c'],1,left,['0'],6,291,[0.10632127],85,44,hard,minus,dotcolour,alfa,,,102,18,V,R,
720,90,6,17,5,44,36,633,['c'],1,left,['0'],6,86,[0.10311803],96,44,hard,minus,dotcolour,alfa,,,102,18,V,R,
721,91,7,17,5,27,53,650,['n'],1,right,['0'],6,99,[-0.05219083],82,53,easy,minus,dotcolour,alfa,,,102,18,V,R,
722,92,8,17,5,47,33,733,['c'],1,left,['0'],6,98,[0.05013729],81,47,medium,minus,dotcolour,alfa,,,102,18,V,R,
723,93,9,17,5,36,44,683,['c'],0,right,['0'],6,205,[0.033018],66,44,hard,minus,dotcolour,alfa,,,102,18,V,R,
724,94,10,17,5,33,47,701,['n'],1,right,['0'],6,130,[-0.10706167],94,47,medium,minus,dotcolour,alfa,,,102,18,V,R,
725,95,11,17,5,33,47,633,['n'],1,right,['0'],6,117,[-0.11623981],96,47,medium,minus,dotcolour,alfa,,,102,18,V,R,
726,96,12,17,5,53,27,1134,['c'],1,left,['0'],6,125,[0.11174593],95,53,easy,minus,dotcolour,alfa,,,102,18,V,R,
727,97,13,17,5,47,33,1935,['c'],1,left,['0'],6,443,[0.12541766],84,47,medium,minus,dotcolour,alfa,,,102,18,V,R,
728,98,14,17,5,53,27,1984,['c'],1,left,['0'],6,355,[0.09354924],80,53,easy,minus,dotcolour,alfa,,,102,18,V,R,
729,99,15,17,5,33,47,1100,['n'],1,right,['0'],6,706,[0.04398998],38,47,medium,minus,dotcolour,alfa,,,102,18,V,R,
730,100,16,17,5,44,36,934,['c'],1,left,['0'],6,121,[0.05514857],81,44,hard,minus,dotcolour,alfa,,,102,18,V,R,
731,101,17,17,5,53,27,766,['c'],1,left,['0'],6,103,[0.10296463],95,53,easy,minus,dotcolour,alfa,,,102,18,V,R,
732,102,18,17,5,47,33,900,['n'],0,left,['0'],6,473,[-0.11737385],82,47,medium,minus,dotcolour,alfa,,,102,18,V,R,
733,103,19,17,5,47,33,916,['c'],1,left,['0'],6,874,[0.25259279],92,47,medium,minus,dotcolour,alfa,,,102,18,V,R,
734,104,20,17,5,53,27,1717,['n'],0,left,['0'],6,700,[-0.0322677],59,53,easy,minus,dotcolour,alfa,,,102,18,V,R,
735,105,21,17,5,47,33,1283,['n'],0,left,['0'],6,125,[-0.06743028],85,47,medium,minus,dotcolour,alfa,,,102,18,V,R,
736,106,22,17,5,53,27,733,['c'],1,left,['0'],6,84,[0.13940494],99,53,easy,minus,dotcolour,alfa,,,102,18,V,R,
737,107,23,17,5,27,53,833,['n'],1,right,['0'],6,89,[-0.12339683],98,53,easy,minus,dotcolour,alfa,,,102,18,V,R,
738,108,24,17,5,27,53,1034,['n'],1,right,['0'],6,101,[-0.08486635],92,53,easy,minus,dotcolour,alfa,,,102,18,V,R,
739,109,25,17,5,53,27,900,['c'],1,left,['0'],6,127,[0.09925746],92,53,easy,minus,dotcolour,alfa,,,102,18,V,R,
740,110,26,17,5,47,33,2282,['c'],1,left,['8'],4,335,[0.09051409],80,47,medium,minus,dotcolour,alfa,,,102,18,V,R,
741,111,27,17,5,27,53,934,['n'],1,right,['0'],6,174,[-0.12580816],94,53,easy,minus,dotcolour,alfa,,,102,18,V,R,
742,112,28,17,5,44,36,750,['c'],1,left,['0'],6,138,[0.07603916],86,44,hard,minus,dotcolour,alfa,,,102,18,V,R,
743,113,29,17,5,27,53,1051,['n'],1,right,['0'],6,212,[-0.08038267],83,53,easy,minus,dotcolour,alfa,,,102,18,V,R,
744,114,30,17,5,33,47,884,['n'],1,right,['0'],6,9,[-0.07640865],100,47,medium,minus,dotcolour,alfa,,,102,18,V,R,
745,115,31,17,5,36,44,717,['n'],1,right,['0'],6,45,[-0.05504494],91,44,hard,minus,dotcolour,alfa,,,102,18,V,R,
746,116,32,17,5,36,44,750,['c'],0,right,['0'],6,382,[0.0873791],78,44,hard,minus,dotcolour,alfa,,,102,18,V,R,
747,117,33,17,5,36,44,1066,['n'],1,right,['0'],6,63,[-0.03409777],77,44,hard,minus,dotcolour,alfa,,,102,18,V,R,
748,118,34,17,5,27,53,1035,['n'],1,right,['0'],6,139,[-0.07298903],85,53,easy,minus,dotcolour,alfa,,,102,18,V,R,
749,119,35,17,5,36,44,1016,['c'],0,right,['0'],6,214,[0.04426291],70,44,hard,minus,dotcolour,alfa,,,102,18,V,R,
750,120,36,17,5,33,47,2068,['n'],1,right,['0'],6,85,[-0.05254804],84,47,medium,minus,dotcolour,alfa,,,102,18,V,R,
751,121,37,17,5,47,33,867,['c'],1,left,['0'],6,160,[0.07361306],84,47,medium,minus,dotcolour,alfa,,,102,18,V,R,
752,122,38,17,5,44,36,751,['c'],1,left,['0'],6,156,[0.09825055],90,44,hard,minus,dotcolour,alfa,,,102,18,V,R,
753,123,39,17,5,27,53,799,['n'],1,right,['0'],6,231,[-0.06168164],76,53,easy,minus,dotcolour,alfa,,,102,18,V,R,
754,124,40,17,5,44,36,751,['c'],1,left,['0'],6,113,[0.05856052],83,44,hard,minus,dotcolour,alfa,,,102,18,V,R,
755,125,41,17,5,44,36,767,['c'],1,left,['0'],6,128,[0.105581],93,44,hard,minus,dotcolour,alfa,,,102,18,V,R,
,,,,,,,,,,,,,,,,,,,,,1,,102,18,V,R,
,,,,,,,,,,,,,,,,,,,,,2,['d'],102,18,V,R,
,,,,,,,,,,,,,,,,,,,,,3,['f'],102,18,V,R,
,,,,,,,,,,,,,,,,,,,,,5,"['3', '4']",102,18,V,R,
