trial,withinphasetrial,withinblocktrial,block,phase,dotsLeft,dotsRight,rt,resp,cor,cresp,conf_press,cj,RTconf,ev,fb,diff,difflevel,condition,task,manip,questionID,questionResp,sub,age,gender,handedness,
0,0,0,0,0,33,47,3468,['n'],1,right,['9'],5,3287,[-0.17653934],97,47,medium,plus,dotcolour,alfa,,,106,20,V,R,
1,1,1,0,0,36,44,4567,['c'],0,right,['3'],3,2740,[0.04907951],74,44,hard,plus,dotcolour,alfa,,,106,20,V,R,
2,2,2,0,0,53,27,2284,['c'],1,left,['9'],5,1964,[0.48523983],100,53,easy,plus,dotcolour,alfa,,,106,20,V,R,
3,3,3,0,0,36,44,4550,['n'],1,right,['2'],2,1864,[-0.01173618],58,44,hard,plus,dotcolour,alfa,,,106,20,V,R,
4,4,4,0,0,33,47,2133,['n'],1,right,['8'],4,2025,[-0.31523056],100,47,medium,plus,dotcolour,alfa,,,106,20,V,R,
5,5,5,0,0,53,27,2367,['c'],1,left,['0'],6,2186,[0.6173223],100,53,easy,plus,dotcolour,alfa,,,106,20,V,R,
6,6,6,0,0,33,47,2618,['n'],1,right,['9'],5,1579,[-0.43772711],100,47,medium,plus,dotcolour,alfa,,,106,20,V,R,
7,7,7,0,0,53,27,1400,['c'],1,left,['0'],6,1821,[0.26806757],100,53,easy,plus,dotcolour,alfa,,,106,20,V,R,
8,8,8,0,0,27,53,1234,['n'],1,right,['0'],6,1220,[-0.2313931],100,53,easy,plus,dotcolour,alfa,,,106,20,V,R,
9,9,9,0,0,33,47,1517,['n'],1,right,['9'],5,2103,[-0.20730218],99,47,medium,plus,dotcolour,alfa,,,106,20,V,R,
10,10,10,0,0,36,44,1567,['n'],1,right,['8'],4,1301,[0.02668425],30,44,hard,plus,dotcolour,alfa,,,106,20,V,R,
11,11,11,0,0,44,36,1201,['c'],1,left,['3'],3,2018,[0.2574229],100,44,hard,plus,dotcolour,alfa,,,106,20,V,R,
12,12,12,0,0,44,36,2416,['c'],1,left,['8'],4,2258,[0.23991171],100,44,hard,plus,dotcolour,alfa,,,106,20,V,R,
13,13,13,0,0,33,47,2383,['n'],1,right,['3'],3,1952,[-0.14318404],98,47,medium,plus,dotcolour,alfa,,,106,20,V,R,
14,14,14,0,0,27,53,1850,['n'],1,right,['3'],3,1569,[-0.20340069],100,53,easy,plus,dotcolour,alfa,,,106,20,V,R,
15,15,15,0,0,47,33,3116,['c'],1,left,['2'],2,2126,[0.52070825],100,47,medium,plus,dotcolour,alfa,,,106,20,V,R,
16,16,16,0,0,44,36,3400,['n'],0,left,['3'],3,2482,[0.01076183],44,44,hard,plus,dotcolour,alfa,,,106,20,V,R,
17,17,17,0,0,27,53,1632,['n'],1,right,['9'],5,1350,[-0.27317707],100,53,easy,plus,dotcolour,alfa,,,106,20,V,R,
18,18,18,0,0,27,53,1301,['n'],1,right,['9'],5,1236,[0.03029348],27,53,easy,plus,dotcolour,alfa,,,106,20,V,R,
19,19,19,0,0,27,53,2133,['n'],1,right,['8'],4,2823,[-0.43595873],100,53,easy,plus,dotcolour,alfa,,,106,20,V,R,
20,20,20,0,0,53,27,1818,['c'],1,left,['8'],4,1901,[0.24926526],100,53,easy,plus,dotcolour,alfa,,,106,20,V,R,
21,21,21,0,0,47,33,1283,['c'],1,left,['9'],5,1455,[0.00112099],51,47,medium,plus,dotcolour,alfa,,,106,20,V,R,
22,22,22,0,0,27,53,1851,['n'],1,right,['3'],3,2388,[-0.42880878],100,53,easy,plus,dotcolour,alfa,,,106,20,V,R,
23,23,23,0,0,36,44,5701,['c'],0,right,['2'],2,1080,[0.03267597],76,44,hard,plus,dotcolour,alfa,,,106,20,V,R,
24,24,24,0,0,47,33,1351,['c'],1,left,['8'],4,1768,[0.14983794],98,47,medium,plus,dotcolour,alfa,,,106,20,V,R,
25,25,25,0,0,53,27,1134,['c'],1,left,['0'],6,1532,[0.49475429],100,53,easy,plus,dotcolour,alfa,,,106,20,V,R,
26,26,26,0,0,44,36,1931,['c'],1,left,['8'],4,1099,[0.30776247],100,44,hard,plus,dotcolour,alfa,,,106,20,V,R,
27,27,27,0,0,44,36,1684,['c'],1,left,['8'],4,2205,[0.20464596],99,44,hard,plus,dotcolour,alfa,,,106,20,V,R,
28,28,28,0,0,27,53,1601,['n'],1,right,['9'],5,1333,[-0.19911575],100,53,easy,plus,dotcolour,alfa,,,106,20,V,R,
29,29,29,0,0,53,27,1166,['c'],1,left,['0'],6,706,[0.17294909],100,53,easy,plus,dotcolour,alfa,,,106,20,V,R,
30,30,30,0,0,36,44,1233,['n'],1,right,['8'],4,837,[-0.12307725],99,44,hard,plus,dotcolour,alfa,,,106,20,V,R,
31,31,31,0,0,47,33,1366,['c'],1,left,['8'],4,847,[0.15600318],100,47,medium,plus,dotcolour,alfa,,,106,20,V,R,
32,32,32,0,0,33,47,1967,['n'],1,right,['8'],4,943,[-0.39017301],100,47,medium,plus,dotcolour,alfa,,,106,20,V,R,
33,33,33,0,0,33,47,1218,['c'],0,right,['3'],3,1354,[-0.09040148],6,47,medium,plus,dotcolour,alfa,,,106,20,V,R,
34,34,34,0,0,44,36,1484,['c'],1,left,['2'],2,1217,[0.11702097],98,44,hard,plus,dotcolour,alfa,,,106,20,V,R,
35,35,35,0,0,47,33,1267,['c'],1,left,['9'],5,855,[0.11983771],99,47,medium,plus,dotcolour,alfa,,,106,20,V,R,
36,36,36,0,0,36,44,1534,['n'],1,right,['8'],4,1728,[-0.19618661],100,44,hard,plus,dotcolour,alfa,,,106,20,V,R,
37,37,37,0,0,47,33,1567,['c'],1,left,['3'],3,3388,[0.43582046],100,47,medium,plus,dotcolour,alfa,,,106,20,V,R,
38,38,38,0,0,47,33,1699,['c'],1,left,['8'],4,682,[0.15995309],100,47,medium,plus,dotcolour,alfa,,,106,20,V,R,
39,39,39,0,0,36,44,1850,['n'],1,right,['3'],3,1014,[-0.06259429],90,44,hard,plus,dotcolour,alfa,,,106,20,V,R,
40,40,40,0,0,53,27,2184,['c'],1,left,['3'],3,959,[0.32105944],100,53,easy,plus,dotcolour,alfa,,,106,20,V,R,
41,41,41,0,0,44,36,5367,['n'],0,left,['2'],2,1418,[-0.00285249],52,44,hard,plus,dotcolour,alfa,,,106,20,V,R,
42,42,0,1,0,36,44,3750,['c'],0,right,['3'],3,488,[0.00727388],59,44,hard,plus,dotcolour,alfa,,,106,20,V,R,
43,43,1,1,0,47,33,1950,['c'],1,left,['9'],5,631,[0.04364539],88,47,medium,plus,dotcolour,alfa,,,106,20,V,R,
44,44,2,1,0,33,47,1434,['n'],1,right,['9'],5,1502,[-0.23310507],100,47,medium,plus,dotcolour,alfa,,,106,20,V,R,
45,45,3,1,0,53,27,983,['c'],1,left,['9'],5,659,[0.22866547],100,53,easy,plus,dotcolour,alfa,,,106,20,V,R,
46,46,4,1,0,53,27,1033,['c'],1,left,['9'],5,576,[0.21548916],100,53,easy,plus,dotcolour,alfa,,,106,20,V,R,
47,47,5,1,0,53,27,884,['c'],1,left,['0'],6,455,[0.14895906],100,53,easy,plus,dotcolour,alfa,,,106,20,V,R,
48,48,6,1,0,47,33,1166,['c'],1,left,['8'],4,736,[0.17135158],100,47,medium,plus,dotcolour,alfa,,,106,20,V,R,
49,49,7,1,0,44,36,1050,['c'],1,left,['9'],5,625,[0.11906569],100,44,hard,plus,dotcolour,alfa,,,106,20,V,R,
50,50,8,1,0,47,33,1867,['c'],1,left,['8'],4,725,[0.09587272],98,47,medium,plus,dotcolour,alfa,,,106,20,V,R,
51,51,9,1,0,47,33,1267,['c'],1,left,['8'],4,895,[0.33301583],100,47,medium,plus,dotcolour,alfa,,,106,20,V,R,
52,52,10,1,0,36,44,1784,['c'],0,right,['8'],4,1438,[-0.23821039],0,44,hard,plus,dotcolour,alfa,,,106,20,V,R,
53,53,11,1,0,27,53,1051,['n'],1,right,['8'],4,1466,[-0.40394341],100,53,easy,plus,dotcolour,alfa,,,106,20,V,R,
54,54,12,1,0,44,36,3266,['c'],1,left,['3'],3,758,[0.19567427],100,44,hard,plus,dotcolour,alfa,,,106,20,V,R,
55,55,13,1,0,36,44,3916,['n'],1,right,['1'],1,1284,[-0.02790693],71,44,hard,plus,dotcolour,alfa,,,106,20,V,R,
56,56,14,1,0,47,33,1383,['c'],1,left,['8'],4,962,[0.36144537],100,47,medium,plus,dotcolour,alfa,,,106,20,V,R,
57,57,15,1,0,44,36,2417,['c'],1,left,['8'],4,844,[0.08939802],97,44,hard,plus,dotcolour,alfa,,,106,20,V,R,
58,58,16,1,0,33,47,1266,['n'],1,right,['8'],4,3017,[-0.19499844],98,47,medium,plus,dotcolour,alfa,,,106,20,V,R,
59,59,17,1,0,33,47,2417,['n'],1,right,['2'],2,1624,[-0.45143663],100,47,medium,plus,dotcolour,alfa,,,106,20,V,R,
60,60,18,1,0,27,53,4567,['n'],1,right,['9'],5,1322,[-0.31643578],100,53,easy,plus,dotcolour,alfa,,,106,20,V,R,
61,61,19,1,0,33,47,1584,['n'],1,right,['9'],5,1159,[-0.23928794],100,47,medium,plus,dotcolour,alfa,,,106,20,V,R,
62,62,20,1,0,44,36,2284,['c'],1,left,['8'],4,1166,[0.19231885],100,44,hard,plus,dotcolour,alfa,,,106,20,V,R,
63,63,21,1,0,36,44,1649,['n'],1,right,['3'],3,1454,[-0.34855455],100,44,hard,plus,dotcolour,alfa,,,106,20,V,R,
64,64,22,1,0,53,27,1268,['c'],1,left,['9'],5,826,[0.18758668],100,53,easy,plus,dotcolour,alfa,,,106,20,V,R,
65,65,23,1,0,36,44,1265,['n'],1,right,['8'],4,1391,[-0.02749799],70,44,hard,plus,dotcolour,alfa,,,106,20,V,R,
66,66,24,1,0,27,53,1334,['n'],1,right,['8'],4,971,[-0.29686511],100,53,easy,plus,dotcolour,alfa,,,106,20,V,R,
67,67,25,1,0,47,33,1234,['c'],1,left,['9'],5,1884,[0.17312324],99,47,medium,plus,dotcolour,alfa,,,106,20,V,R,
68,68,26,1,0,44,36,1450,['c'],1,left,['9'],5,615,[0.06433311],95,44,hard,plus,dotcolour,alfa,,,106,20,V,R,
69,69,27,1,0,53,27,1300,['c'],1,left,['9'],5,988,[0.23335839],100,53,easy,plus,dotcolour,alfa,,,106,20,V,R,
70,70,28,1,0,27,53,1050,['n'],1,right,['0'],6,1260,[-0.05414996],85,53,easy,plus,dotcolour,alfa,,,106,20,V,R,
71,71,29,1,0,53,27,3433,['c'],1,left,['8'],4,1352,[0.13846041],99,53,easy,plus,dotcolour,alfa,,,106,20,V,R,
72,72,30,1,0,44,36,1166,['c'],1,left,['8'],4,1029,[0.20352767],100,44,hard,plus,dotcolour,alfa,,,106,20,V,R,
73,73,31,1,0,44,36,1834,['c'],1,left,['8'],4,812,[0.09351303],98,44,hard,plus,dotcolour,alfa,,,106,20,V,R,
74,74,32,1,0,33,47,1467,['n'],1,right,['8'],4,1257,[-0.09138939],95,47,medium,plus,dotcolour,alfa,,,106,20,V,R,
75,75,33,1,0,27,53,1116,['c'],0,right,['9'],5,644,[-0.01721317],32,53,easy,plus,dotcolour,alfa,,,106,20,V,R,
76,76,34,1,0,53,27,1500,['c'],1,left,['0'],6,832,[0.16148304],100,53,easy,plus,dotcolour,alfa,,,106,20,V,R,
77,77,35,1,0,27,53,966,['n'],1,right,['0'],6,800,[-0.1356094],100,53,easy,plus,dotcolour,alfa,,,106,20,V,R,
78,78,36,1,0,36,44,1116,['n'],1,right,['0'],6,485,[-0.07696489],98,44,hard,plus,dotcolour,alfa,,,106,20,V,R,
79,79,37,1,0,27,53,799,['n'],1,right,['0'],6,731,[-0.29297601],100,53,easy,plus,dotcolour,alfa,,,106,20,V,R,
80,80,38,1,0,33,47,1117,['n'],1,right,['9'],5,610,[-0.10383162],99,47,medium,plus,dotcolour,alfa,,,106,20,V,R,
81,81,39,1,0,33,47,2184,['n'],1,right,['8'],4,523,[-0.14378722],100,47,medium,plus,dotcolour,alfa,,,106,20,V,R,
82,82,40,1,0,36,44,1550,['n'],1,right,['8'],4,618,[-0.21681648],100,44,hard,plus,dotcolour,alfa,,,106,20,V,R,
83,83,41,1,0,47,33,1499,['c'],1,left,['8'],4,647,[0.12937985],100,47,medium,plus,dotcolour,alfa,,,106,20,V,R,
84,84,0,2,0,47,33,1133,['c'],1,left,['9'],5,1043,[0.25493554],100,47,medium,plus,dotcolour,alfa,,,106,20,V,R,
85,85,1,2,0,47,33,967,['c'],1,left,['9'],5,548,[0.09583513],99,47,medium,plus,dotcolour,alfa,,,106,20,V,R,
86,86,2,2,0,36,44,3333,['c'],0,right,['9'],5,546,[0.00987847],62,44,hard,plus,dotcolour,alfa,,,106,20,V,R,
87,87,3,2,0,53,27,1117,['c'],1,left,['9'],5,1176,[0.10029481],97,53,easy,plus,dotcolour,alfa,,,106,20,V,R,
88,88,4,2,0,33,47,1100,['n'],1,right,['9'],5,702,[-0.1710356],100,47,medium,plus,dotcolour,alfa,,,106,20,V,R,
89,89,5,2,0,47,33,982,['c'],1,left,['8'],4,979,[0.11374347],98,47,medium,plus,dotcolour,alfa,,,106,20,V,R,
90,90,6,2,0,36,44,1816,['n'],1,right,['8'],4,557,[-0.10231007],99,44,hard,plus,dotcolour,alfa,,,106,20,V,R,
91,91,7,2,0,53,27,933,['c'],1,left,['9'],5,642,[-0.05695019],7,53,easy,plus,dotcolour,alfa,,,106,20,V,R,
92,92,8,2,0,53,27,817,['c'],1,left,['9'],5,808,[0.23027765],100,53,easy,plus,dotcolour,alfa,,,106,20,V,R,
93,93,9,2,0,53,27,767,['c'],1,left,['9'],5,570,[0.17751601],100,53,easy,plus,dotcolour,alfa,,,106,20,V,R,
94,94,10,2,0,36,44,1250,['c'],0,right,['8'],4,851,[0.10762637],99,44,hard,plus,dotcolour,alfa,,,106,20,V,R,
95,95,11,2,0,27,53,933,['n'],1,right,['9'],5,981,[-0.38337054],100,53,easy,plus,dotcolour,alfa,,,106,20,V,R,
96,96,12,2,0,47,33,816,['c'],1,left,['9'],5,710,[0.09440989],98,47,medium,plus,dotcolour,alfa,,,106,20,V,R,
97,97,13,2,0,36,44,1751,['n'],1,right,['9'],5,717,[-0.00357044],54,44,hard,plus,dotcolour,alfa,,,106,20,V,R,
98,98,14,2,0,33,47,2067,['n'],1,right,['8'],4,551,[0.0370138],14,47,medium,plus,dotcolour,alfa,,,106,20,V,R,
99,99,15,2,0,36,44,1183,['n'],1,right,['3'],3,1411,[-0.15753494],99,44,hard,plus,dotcolour,alfa,,,106,20,V,R,
100,100,16,2,0,44,36,1467,['c'],1,left,['3'],3,825,[0.11772675],99,44,hard,plus,dotcolour,alfa,,,106,20,V,R,
101,101,17,2,0,44,36,1952,['c'],1,left,['8'],4,563,[-0.00968641],39,44,hard,plus,dotcolour,alfa,,,106,20,V,R,
102,102,18,2,0,33,47,2400,['c'],0,right,['3'],3,614,[-0.00230405],47,47,medium,plus,dotcolour,alfa,,,106,20,V,R,
103,103,19,2,0,33,47,1650,['n'],1,right,['8'],4,581,[0.00713469],42,47,medium,plus,dotcolour,alfa,,,106,20,V,R,
104,104,20,2,0,44,36,900,['c'],1,left,['8'],4,882,[0.18595408],100,44,hard,plus,dotcolour,alfa,,,106,20,V,R,
105,105,21,2,0,27,53,867,['n'],1,right,['8'],4,646,[-0.07875795],97,53,easy,plus,dotcolour,alfa,,,106,20,V,R,
106,106,22,2,0,27,53,1766,['n'],1,right,['8'],4,638,[-0.18697888],100,53,easy,plus,dotcolour,alfa,,,106,20,V,R,
107,107,23,2,0,27,53,1467,['n'],1,right,['8'],4,1347,[-0.29798028],100,53,easy,plus,dotcolour,alfa,,,106,20,V,R,
108,108,24,2,0,44,36,1949,['c'],1,left,['8'],4,648,[0.16866233],100,44,hard,plus,dotcolour,alfa,,,106,20,V,R,
109,109,25,2,0,33,47,1433,['n'],1,right,['9'],5,702,[-0.00306597],53,47,medium,plus,dotcolour,alfa,,,106,20,V,R,
110,110,26,2,0,44,36,1850,['c'],1,left,['8'],4,600,[0.02990128],80,44,hard,plus,dotcolour,alfa,,,106,20,V,R,
111,111,27,2,0,47,33,1283,['c'],1,left,['9'],5,534,[-0.06379206],4,47,medium,plus,dotcolour,alfa,,,106,20,V,R,
112,112,28,2,0,47,33,1133,['c'],1,left,['8'],4,757,[0.04952743],89,47,medium,plus,dotcolour,alfa,,,106,20,V,R,
113,113,29,2,0,33,47,1616,['n'],1,right,['3'],3,728,[-0.16204257],100,47,medium,plus,dotcolour,alfa,,,106,20,V,R,
114,114,30,2,0,36,44,2133,['c'],0,right,['3'],3,1086,[0.05962127],89,44,hard,plus,dotcolour,alfa,,,106,20,V,R,
115,115,31,2,0,27,53,984,['n'],1,right,['9'],5,700,[-0.15700241],100,53,easy,plus,dotcolour,alfa,,,106,20,V,R,
116,116,32,2,0,53,27,982,['c'],1,left,['0'],6,450,[0.25413955],100,53,easy,plus,dotcolour,alfa,,,106,20,V,R,
117,117,33,2,0,44,36,1284,['c'],1,left,['9'],5,662,[0.06291362],94,44,hard,plus,dotcolour,alfa,,,106,20,V,R,
118,118,34,2,0,27,53,1334,['n'],1,right,['9'],5,784,[-0.15021534],100,53,easy,plus,dotcolour,alfa,,,106,20,V,R,
119,119,35,2,0,36,44,1399,['n'],1,right,['8'],4,1105,[-0.15679124],100,44,hard,plus,dotcolour,alfa,,,106,20,V,R,
120,120,36,2,0,53,27,933,['c'],1,left,['9'],5,1001,[0.14071036],99,53,easy,plus,dotcolour,alfa,,,106,20,V,R,
121,121,37,2,0,44,36,1184,['c'],1,left,['9'],5,746,[0.07958226],97,44,hard,plus,dotcolour,alfa,,,106,20,V,R,
122,122,38,2,0,33,47,1768,['n'],1,right,['8'],4,831,[-0.0154452],65,47,medium,plus,dotcolour,alfa,,,106,20,V,R,
123,123,39,2,0,27,53,1783,['n'],1,right,['8'],4,560,[-0.1861616],100,53,easy,plus,dotcolour,alfa,,,106,20,V,R,
124,124,40,2,0,47,33,1317,['c'],1,left,['8'],4,886,[0.15845247],100,47,medium,plus,dotcolour,alfa,,,106,20,V,R,
125,125,41,2,0,53,27,800,['c'],1,left,['9'],5,1195,[0.27963139],100,53,easy,plus,dotcolour,alfa,,,106,20,V,R,
126,0,0,3,1,27,53,1450,['n'],1,right,['9'],5,831,[-0.20072421],88,53,easy,minus,dotcolour,alfa,,,106,20,V,R,
127,1,1,3,1,44,36,1350,['c'],1,left,['2'],2,921,[-0.05333429],38,44,hard,minus,dotcolour,alfa,,,106,20,V,R,
128,2,2,3,1,33,47,2716,['c'],0,right,['2'],2,954,[-0.13476128],22,47,medium,minus,dotcolour,alfa,,,106,20,V,R,
129,3,3,3,1,36,44,1600,['n'],1,right,['9'],5,1572,[-0.22068002],83,44,hard,minus,dotcolour,alfa,,,106,20,V,R,
130,4,4,3,1,33,47,2400,['c'],0,right,['8'],4,1741,[-0.09215073],35,47,medium,minus,dotcolour,alfa,,,106,20,V,R,
131,5,5,3,1,47,33,1134,['n'],0,left,['1'],1,2428,[-0.03955389],56,47,medium,minus,dotcolour,alfa,,,106,20,V,R,
132,6,6,3,1,47,33,1700,['c'],1,left,['3'],3,2144,[0.31469634],87,47,medium,minus,dotcolour,alfa,,,106,20,V,R,
133,7,7,3,1,27,53,1316,['n'],1,right,['9'],5,973,[-0.17984186],84,53,easy,minus,dotcolour,alfa,,,106,20,V,R,
134,8,8,3,1,47,33,1151,['c'],1,left,['8'],4,1833,[0.44541136],95,47,medium,minus,dotcolour,alfa,,,106,20,V,R,
135,9,9,3,1,36,44,1134,['n'],1,right,['9'],5,771,[-0.10834794],75,44,hard,minus,dotcolour,alfa,,,106,20,V,R,
136,10,10,3,1,44,36,3284,['c'],1,left,['3'],3,2362,[0.24025193],80,44,hard,minus,dotcolour,alfa,,,106,20,V,R,
137,11,11,3,1,47,33,1350,['c'],1,left,['8'],4,1318,[0.20158023],83,47,medium,minus,dotcolour,alfa,,,106,20,V,R,
138,12,12,3,1,47,33,1934,['c'],1,left,['9'],5,821,[0.13052042],79,47,medium,minus,dotcolour,alfa,,,106,20,V,R,
139,13,13,3,1,36,44,2983,['n'],1,right,['8'],4,933,[-0.15046429],80,44,hard,minus,dotcolour,alfa,,,106,20,V,R,
140,14,14,3,1,36,44,3250,['n'],1,right,['3'],3,1695,[-0.19149496],79,44,hard,minus,dotcolour,alfa,,,106,20,V,R,
141,15,15,3,1,33,47,1334,['n'],1,right,['8'],4,870,[-0.04712919],61,47,medium,minus,dotcolour,alfa,,,106,20,V,R,
142,16,16,3,1,53,27,1267,['c'],1,left,['8'],4,1009,[0.11515046],74,53,easy,minus,dotcolour,alfa,,,106,20,V,R,
143,17,17,3,1,27,53,901,['n'],1,right,['9'],5,1238,[-0.46623839],98,53,easy,minus,dotcolour,alfa,,,106,20,V,R,
144,18,18,3,1,27,53,1084,['n'],1,right,['9'],5,770,[-0.19069958],88,53,easy,minus,dotcolour,alfa,,,106,20,V,R,
145,19,19,3,1,33,47,784,['n'],1,right,['9'],5,678,[-0.24769258],94,47,medium,minus,dotcolour,alfa,,,106,20,V,R,
146,20,20,3,1,53,27,1000,['c'],1,left,['9'],5,651,[0.16367385],86,53,easy,minus,dotcolour,alfa,,,106,20,V,R,
147,21,21,3,1,44,36,2066,['n'],0,left,['8'],4,705,[0.05739208],35,44,hard,minus,dotcolour,alfa,,,106,20,V,R,
148,22,22,3,1,36,44,1533,['n'],1,right,['3'],3,1376,[-0.18362767],80,44,hard,minus,dotcolour,alfa,,,106,20,V,R,
149,23,23,3,1,53,27,1667,['c'],1,left,['9'],5,718,[0.201598],89,53,easy,minus,dotcolour,alfa,,,106,20,V,R,
150,24,24,3,1,53,27,850,['c'],1,left,['9'],5,672,[0.08779331],72,53,easy,minus,dotcolour,alfa,,,106,20,V,R,
151,25,25,3,1,33,47,2983,['n'],1,right,['8'],4,639,[-0.11416199],78,47,medium,minus,dotcolour,alfa,,,106,20,V,R,
152,26,26,3,1,33,47,1884,['n'],1,right,['8'],4,523,[-0.24608215],96,47,medium,minus,dotcolour,alfa,,,106,20,V,R,
153,27,27,3,1,44,36,1018,['c'],1,left,['8'],4,487,[0.12881095],84,44,hard,minus,dotcolour,alfa,,,106,20,V,R,
154,28,28,3,1,47,33,1334,['c'],1,left,['8'],4,231,[0.08516153],83,47,medium,minus,dotcolour,alfa,,,106,20,V,R,
155,29,29,3,1,44,36,2051,['c'],1,left,['8'],4,701,[0.10368163],75,44,hard,minus,dotcolour,alfa,,,106,20,V,R,
156,30,30,3,1,44,36,1484,['c'],1,left,['8'],4,568,[0.15637314],87,44,hard,minus,dotcolour,alfa,,,106,20,V,R,
157,31,31,3,1,53,27,917,['c'],1,left,['9'],5,901,[0.15469262],81,53,easy,minus,dotcolour,alfa,,,106,20,V,R,
158,32,32,3,1,53,27,884,['c'],1,left,['9'],5,455,[0.15269405],88,53,easy,minus,dotcolour,alfa,,,106,20,V,R,
159,33,33,3,1,53,27,783,['c'],1,left,['9'],5,350,[0.19833688],95,53,easy,minus,dotcolour,alfa,,,106,20,V,R,
160,34,34,3,1,33,47,1700,['n'],1,right,['3'],3,917,[-0.26529053],92,47,medium,minus,dotcolour,alfa,,,106,20,V,R,
161,35,35,3,1,27,53,1000,['n'],1,right,['9'],5,434,[-0.03679605],62,53,easy,minus,dotcolour,alfa,,,106,20,V,R,
162,36,36,3,1,36,44,716,['n'],1,right,['8'],4,413,[-0.13566384],87,44,hard,minus,dotcolour,alfa,,,106,20,V,R,
163,37,37,3,1,44,36,1784,['c'],1,left,['8'],4,774,[0.08993632],72,44,hard,minus,dotcolour,alfa,,,106,20,V,R,
164,38,38,3,1,27,53,984,['n'],1,right,['9'],5,441,[-0.22511366],95,53,easy,minus,dotcolour,alfa,,,106,20,V,R,
165,39,39,3,1,36,44,967,['n'],1,right,['9'],5,529,[-0.11288026],80,44,hard,minus,dotcolour,alfa,,,106,20,V,R,
166,40,40,3,1,47,33,1151,['c'],1,left,['8'],4,376,[0.04521288],66,47,medium,minus,dotcolour,alfa,,,106,20,V,R,
167,41,41,3,1,27,53,967,['n'],1,right,['9'],5,563,[-0.1533793],86,53,easy,minus,dotcolour,alfa,,,106,20,V,R,
168,42,0,4,1,33,47,1201,['n'],1,right,['9'],5,466,[-0.04833782],65,47,medium,minus,dotcolour,alfa,,,106,20,V,R,
169,43,1,4,1,36,44,800,['n'],1,right,['8'],4,384,[0.0659723],28,44,hard,minus,dotcolour,alfa,,,106,20,V,R,
170,44,2,4,1,53,27,1017,['c'],1,left,['2'],2,458,[0.24754676],96,53,easy,minus,dotcolour,alfa,,,106,20,V,R,
171,45,3,4,1,36,44,983,['n'],1,right,['8'],4,409,[-0.12364116],85,44,hard,minus,dotcolour,alfa,,,106,20,V,R,
172,46,4,4,1,47,33,950,['c'],1,left,['9'],5,500,[0.00544804],52,47,medium,minus,dotcolour,alfa,,,106,20,V,R,
173,47,5,4,1,33,47,984,['n'],1,right,['8'],4,394,[-0.16197774],91,47,medium,minus,dotcolour,alfa,,,106,20,V,R,
174,48,6,4,1,36,44,1900,['n'],1,right,['8'],4,359,[-0.06883126],74,44,hard,minus,dotcolour,alfa,,,106,20,V,R,
175,49,7,4,1,33,47,1100,['n'],1,right,['8'],4,342,[-0.14069106],90,47,medium,minus,dotcolour,alfa,,,106,20,V,R,
176,50,8,4,1,33,47,1067,['n'],1,right,['9'],5,550,[-0.07206664],71,47,medium,minus,dotcolour,alfa,,,106,20,V,R,
177,51,9,4,1,44,36,1284,['n'],0,left,['8'],4,439,[-0.13029429],85,44,hard,minus,dotcolour,alfa,,,106,20,V,R,
178,52,10,4,1,47,33,1183,['c'],1,left,['3'],3,959,[0.1354639],78,47,medium,minus,dotcolour,alfa,,,106,20,V,R,
179,53,11,4,1,53,27,900,['c'],1,left,['9'],5,541,[0.15718614],87,53,easy,minus,dotcolour,alfa,,,106,20,V,R,
180,54,12,4,1,53,27,867,['c'],1,left,['9'],5,398,[0.15578928],90,53,easy,minus,dotcolour,alfa,,,106,20,V,R,
181,55,13,4,1,36,44,950,['c'],0,right,['9'],5,466,[0.05758382],68,44,hard,minus,dotcolour,alfa,,,106,20,V,R,
182,56,14,4,1,27,53,1184,['n'],1,right,['9'],5,433,[-0.08857986],77,53,easy,minus,dotcolour,alfa,,,106,20,V,R,
183,57,15,4,1,47,33,1517,['c'],1,left,['8'],4,348,[0.11210487],85,47,medium,minus,dotcolour,alfa,,,106,20,V,R,
184,58,16,4,1,33,47,1083,['c'],0,right,['9'],5,421,[0.14933202],89,47,medium,minus,dotcolour,alfa,,,106,20,V,R,
185,59,17,4,1,47,33,1034,['c'],1,left,['8'],4,436,[0.18067381],92,47,medium,minus,dotcolour,alfa,,,106,20,V,R,
186,60,18,4,1,44,36,1184,['c'],1,left,['9'],5,556,[0.0218947],57,44,hard,minus,dotcolour,alfa,,,106,20,V,R,
187,61,19,4,1,44,36,1367,['c'],1,left,['8'],4,848,[0.1023011],73,44,hard,minus,dotcolour,alfa,,,106,20,V,R,
188,62,20,4,1,36,44,1250,['n'],1,right,['8'],4,406,[-0.15467142],90,44,hard,minus,dotcolour,alfa,,,106,20,V,R,
189,63,21,4,1,27,53,1117,['c'],0,right,['9'],5,602,[-0.08727098],27,53,easy,minus,dotcolour,alfa,,,106,20,V,R,
190,64,22,4,1,33,47,1350,['c'],0,right,['9'],5,749,[-0.03285551],42,47,medium,minus,dotcolour,alfa,,,106,20,V,R,
191,65,23,4,1,44,36,1217,['c'],1,left,['9'],5,384,[0.04702717],66,44,hard,minus,dotcolour,alfa,,,106,20,V,R,
192,66,24,4,1,33,47,1667,['c'],0,right,['9'],5,383,[0.01030716],54,47,medium,minus,dotcolour,alfa,,,106,20,V,R,
193,67,25,4,1,53,27,866,['c'],1,left,['9'],5,423,[0.07600256],74,53,easy,minus,dotcolour,alfa,,,106,20,V,R,
194,68,26,4,1,44,36,967,['c'],1,left,['9'],5,640,[0.14631611],84,44,hard,minus,dotcolour,alfa,,,106,20,V,R,
195,69,27,4,1,53,27,1117,['c'],1,left,['9'],5,378,[0.111705],84,53,easy,minus,dotcolour,alfa,,,106,20,V,R,
196,70,28,4,1,47,33,884,['c'],1,left,['9'],5,385,[0.14226932],89,47,medium,minus,dotcolour,alfa,,,106,20,V,R,
197,71,29,4,1,27,53,1368,['n'],1,right,['9'],5,429,[-0.12719328],85,53,easy,minus,dotcolour,alfa,,,106,20,V,R,
198,72,30,4,1,27,53,966,['n'],1,right,['9'],5,471,[-0.11801984],82,53,easy,minus,dotcolour,alfa,,,106,20,V,R,
199,73,31,4,1,47,33,1783,['c'],1,left,['8'],4,318,[0.09786869],83,47,medium,minus,dotcolour,alfa,,,106,20,V,R,
200,74,32,4,1,27,53,1633,['n'],1,right,['9'],5,409,[-0.19279363],94,53,easy,minus,dotcolour,alfa,,,106,20,V,R,
201,75,33,4,1,36,44,1884,['n'],1,right,['9'],5,302,[-0.08642252],80,44,hard,minus,dotcolour,alfa,,,106,20,V,R,
202,76,34,4,1,27,53,1300,['n'],1,right,['8'],4,351,[0.00791282],47,53,easy,minus,dotcolour,alfa,,,106,20,V,R,
203,77,35,4,1,53,27,2800,['c'],1,left,['9'],5,411,[0.13331978],87,53,easy,minus,dotcolour,alfa,,,106,20,V,R,
204,78,36,4,1,47,33,2734,['c'],1,left,['9'],5,5030,[0.51115215],89,47,medium,minus,dotcolour,alfa,,,106,20,V,R,
205,79,37,4,1,44,36,2783,['c'],1,left,['8'],4,2758,[0.01657276],52,44,hard,minus,dotcolour,alfa,,,106,20,V,R,
206,80,38,4,1,53,27,1533,['c'],1,left,['9'],5,1106,[0.29193032],92,53,easy,minus,dotcolour,alfa,,,106,20,V,R,
207,81,39,4,1,36,44,1533,['c'],0,right,['9'],5,1130,[-0.11981147],27,44,hard,minus,dotcolour,alfa,,,106,20,V,R,
208,82,40,4,1,44,36,2384,['c'],1,left,['8'],4,654,[0.19671579],90,44,hard,minus,dotcolour,alfa,,,106,20,V,R,
209,83,41,4,1,27,53,1166,['n'],1,right,['8'],4,558,[-0.20713843],92,53,easy,minus,dotcolour,alfa,,,106,20,V,R,
210,84,0,5,1,53,27,1418,['c'],1,left,['0'],6,1152,[0.19860728],84,53,easy,minus,dotcolour,alfa,,,106,20,V,R,
211,85,1,5,1,36,44,1050,['n'],1,right,['8'],4,704,[-0.22841818],92,44,hard,minus,dotcolour,alfa,,,106,20,V,R,
212,86,2,5,1,33,47,933,['n'],1,right,['8'],4,464,[-0.14799743],88,47,medium,minus,dotcolour,alfa,,,106,20,V,R,
213,87,3,5,1,47,33,1283,['c'],1,left,['8'],4,531,[-0.02688239],42,47,medium,minus,dotcolour,alfa,,,106,20,V,R,
214,88,4,5,1,36,44,2100,['n'],1,right,['9'],5,2148,[0.01764232],47,44,hard,minus,dotcolour,alfa,,,106,20,V,R,
215,89,5,5,1,47,33,1100,['n'],0,left,['2'],2,1874,[0.04632997],42,47,medium,minus,dotcolour,alfa,,,106,20,V,R,
216,90,6,5,1,36,44,3784,['n'],1,right,['8'],4,1217,[-0.13829391],76,44,hard,minus,dotcolour,alfa,,,106,20,V,R,
217,91,7,5,1,44,36,2267,['c'],1,left,['3'],3,1246,[-0.1163277],28,44,hard,minus,dotcolour,alfa,,,106,20,V,R,
218,92,8,5,1,33,47,2083,['c'],0,right,['8'],4,1226,[0.07555534],65,47,medium,minus,dotcolour,alfa,,,106,20,V,R,
219,93,9,5,1,53,27,1117,['c'],1,left,['9'],5,742,[0.03130669],58,53,easy,minus,dotcolour,alfa,,,106,20,V,R,
220,94,10,5,1,33,47,1833,['c'],0,right,['8'],4,696,[-0.22258232],8,47,medium,minus,dotcolour,alfa,,,106,20,V,R,
221,95,11,5,1,44,36,3350,['c'],1,left,['8'],4,775,[0.04015483],60,44,hard,minus,dotcolour,alfa,,,106,20,V,R,
222,96,12,5,1,27,53,1050,['n'],1,right,['9'],5,543,[-0.06548445],69,53,easy,minus,dotcolour,alfa,,,106,20,V,R,
223,97,13,5,1,33,47,3567,['c'],0,right,['8'],4,740,[-0.09072248],28,47,medium,minus,dotcolour,alfa,,,106,20,V,R,
224,98,14,5,1,27,53,884,['n'],1,right,['9'],5,932,[-0.31360448],95,53,easy,minus,dotcolour,alfa,,,106,20,V,R,
225,99,15,5,1,53,27,917,['c'],1,left,['9'],5,643,[0.16273458],86,53,easy,minus,dotcolour,alfa,,,106,20,V,R,
226,100,16,5,1,53,27,900,['c'],1,left,['9'],5,590,[0.13938341],84,53,easy,minus,dotcolour,alfa,,,106,20,V,R,
227,101,17,5,1,36,44,1100,['c'],0,right,['9'],5,460,[0.10337219],80,44,hard,minus,dotcolour,alfa,,,106,20,V,R,
228,102,18,5,1,36,44,1283,['n'],1,right,['9'],5,647,[-0.32929288],98,44,hard,minus,dotcolour,alfa,,,106,20,V,R,
229,103,19,5,1,36,44,1250,['n'],1,right,['9'],5,573,[-0.19922461],91,44,hard,minus,dotcolour,alfa,,,106,20,V,R,
230,104,20,5,1,44,36,1166,['c'],1,left,['8'],4,840,[0.2210068],90,44,hard,minus,dotcolour,alfa,,,106,20,V,R,
231,105,21,5,1,27,53,901,['n'],1,right,['9'],5,587,[-0.25176833],95,53,easy,minus,dotcolour,alfa,,,106,20,V,R,
232,106,22,5,1,33,47,1134,['n'],1,right,['8'],4,1047,[-0.0968326],70,47,medium,minus,dotcolour,alfa,,,106,20,V,R,
233,107,23,5,1,47,33,917,['c'],1,left,['9'],5,674,[0.19389362],89,47,medium,minus,dotcolour,alfa,,,106,20,V,R,
234,108,24,5,1,33,47,883,['n'],1,right,['9'],5,661,[-0.20830858],91,47,medium,minus,dotcolour,alfa,,,106,20,V,R,
235,109,25,5,1,33,47,1150,['n'],1,right,['8'],4,525,[-0.08764803],75,47,medium,minus,dotcolour,alfa,,,106,20,V,R,
236,110,26,5,1,53,27,800,['c'],1,left,['9'],5,698,[0.11588655],78,53,easy,minus,dotcolour,alfa,,,106,20,V,R,
237,111,27,5,1,47,33,1999,['c'],1,left,['8'],4,519,[0.06819391],70,47,medium,minus,dotcolour,alfa,,,106,20,V,R,
238,112,28,5,1,53,27,1251,['c'],1,left,['9'],5,529,[0.10085047],78,53,easy,minus,dotcolour,alfa,,,106,20,V,R,
239,113,29,5,1,27,53,983,['n'],1,right,['9'],5,775,[-0.13347306],80,53,easy,minus,dotcolour,alfa,,,106,20,V,R,
240,114,30,5,1,27,53,1167,['n'],1,right,['9'],5,617,[-0.28244302],96,53,easy,minus,dotcolour,alfa,,,106,20,V,R,
241,115,31,5,1,27,53,1000,['n'],1,right,['9'],5,674,[-0.15012815],84,53,easy,minus,dotcolour,alfa,,,106,20,V,R,
242,116,32,5,1,47,33,1017,['c'],1,left,['8'],4,600,[0.15635325],86,47,medium,minus,dotcolour,alfa,,,106,20,V,R,
243,117,33,5,1,47,33,1167,['c'],1,left,['8'],4,587,[0.15198177],86,47,medium,minus,dotcolour,alfa,,,106,20,V,R,
244,118,34,5,1,53,27,900,['c'],1,left,['8'],4,616,[0.34850296],98,53,easy,minus,dotcolour,alfa,,,106,20,V,R,
245,119,35,5,1,44,36,1017,['c'],1,left,['8'],4,496,[0.0440799],64,44,hard,minus,dotcolour,alfa,,,106,20,V,R,
246,120,36,5,1,44,36,1384,['c'],1,left,['8'],4,1342,[-0.1393882],25,44,hard,minus,dotcolour,alfa,,,106,20,V,R,
247,121,37,5,1,27,53,1084,['n'],1,right,['9'],5,582,[-0.14705252],85,53,easy,minus,dotcolour,alfa,,,106,20,V,R,
248,122,38,5,1,44,36,2967,['c'],1,left,['8'],4,1249,[-0.11614442],28,44,hard,minus,dotcolour,alfa,,,106,20,V,R,
249,123,39,5,1,44,36,1333,['n'],0,left,['8'],4,875,[-0.08050184],68,44,hard,minus,dotcolour,alfa,,,106,20,V,R,
250,124,40,5,1,47,33,1567,['c'],1,left,['8'],4,522,[0.06288245],69,47,medium,minus,dotcolour,alfa,,,106,20,V,R,
251,125,41,5,1,36,44,917,['n'],1,right,['9'],5,473,[-0.15223961],88,44,hard,minus,dotcolour,alfa,,,106,20,V,R,
252,0,0,6,2,33,47,1567,['n'],1,right,['8'],4,781,[-0.22996505],100,47,medium,plus,dotcolour,alfa,,,106,20,V,R,
253,1,1,6,2,27,53,3033,['n'],1,right,['8'],4,799,[-0.1891821],100,53,easy,plus,dotcolour,alfa,,,106,20,V,R,
254,2,2,6,2,53,27,984,['c'],1,left,['9'],5,1168,[0.3432842],100,53,easy,plus,dotcolour,alfa,,,106,20,V,R,
255,3,3,6,2,33,47,1301,['n'],1,right,['9'],5,614,[-0.02382417],75,47,medium,plus,dotcolour,alfa,,,106,20,V,R,
256,4,4,6,2,36,44,2200,['c'],0,right,['8'],4,1151,[-0.12351757],2,44,hard,plus,dotcolour,alfa,,,106,20,V,R,
257,5,5,6,2,44,36,3667,['n'],0,left,['2'],2,1463,[0.07922934],9,44,hard,plus,dotcolour,alfa,,,106,20,V,R,
258,6,6,6,2,36,44,1117,['n'],1,right,['9'],5,640,[-0.14574071],100,44,hard,plus,dotcolour,alfa,,,106,20,V,R,
259,7,7,6,2,44,36,1583,['c'],1,left,['9'],5,633,[0.01702162],68,44,hard,plus,dotcolour,alfa,,,106,20,V,R,
260,8,8,6,2,33,47,1249,['n'],1,right,['8'],4,958,[-0.16341557],100,47,medium,plus,dotcolour,alfa,,,106,20,V,R,
261,9,9,6,2,53,27,1200,['c'],1,left,['9'],5,961,[0.38952099],100,53,easy,plus,dotcolour,alfa,,,106,20,V,R,
262,10,10,6,2,47,33,2684,['n'],0,left,['8'],4,1449,[0.14912836],1,47,medium,plus,dotcolour,alfa,,,106,20,V,R,
263,11,11,6,2,44,36,1950,['n'],0,left,['9'],5,1001,[-0.08995244],96,44,hard,plus,dotcolour,alfa,,,106,20,V,R,
264,12,12,6,2,44,36,1884,['c'],1,left,['8'],4,966,[0.28129465],100,44,hard,plus,dotcolour,alfa,,,106,20,V,R,
265,13,13,6,2,33,47,1183,['n'],1,right,['8'],4,601,[-0.22576485],100,47,medium,plus,dotcolour,alfa,,,106,20,V,R,
266,14,14,6,2,27,53,1201,['n'],1,right,['9'],5,963,[0.01926599],33,53,easy,plus,dotcolour,alfa,,,106,20,V,R,
267,15,15,6,2,47,33,1017,['c'],1,left,['9'],5,852,[0.13646052],100,47,medium,plus,dotcolour,alfa,,,106,20,V,R,
268,16,16,6,2,33,47,1033,['n'],1,right,['9'],5,882,[-0.34792393],100,47,medium,plus,dotcolour,alfa,,,106,20,V,R,
269,17,17,6,2,36,44,1100,['c'],0,right,['9'],5,613,[0.0307138],80,44,hard,plus,dotcolour,alfa,,,106,20,V,R,
270,18,18,6,2,27,53,866,['n'],1,right,['9'],5,683,[-0.21469323],100,53,easy,plus,dotcolour,alfa,,,106,20,V,R,
271,19,19,6,2,47,33,1782,['c'],1,left,['8'],4,601,[0.06436963],95,47,medium,plus,dotcolour,alfa,,,106,20,V,R,
272,20,20,6,2,53,27,1384,['c'],1,left,['9'],5,571,[0.24280223],100,53,easy,plus,dotcolour,alfa,,,106,20,V,R,
273,21,21,6,2,47,33,950,['c'],1,left,['9'],5,599,[0.11588987],100,47,medium,plus,dotcolour,alfa,,,106,20,V,R,
274,22,22,6,2,27,53,934,['n'],1,right,['9'],5,875,[-0.24497211],100,53,easy,plus,dotcolour,alfa,,,106,20,V,R,
275,23,23,6,2,53,27,818,['c'],1,left,['9'],5,688,[0.11019325],99,53,easy,plus,dotcolour,alfa,,,106,20,V,R,
276,24,24,6,2,36,44,1100,['n'],1,right,['8'],4,666,[-0.07344316],96,44,hard,plus,dotcolour,alfa,,,106,20,V,R,
277,25,25,6,2,27,53,1250,['n'],1,right,['9'],5,663,[-0.15114201],100,53,easy,plus,dotcolour,alfa,,,106,20,V,R,
278,26,26,6,2,44,36,1950,['n'],0,left,['8'],4,487,[0.00572004],43,44,hard,plus,dotcolour,alfa,,,106,20,V,R,
279,27,27,6,2,53,27,850,['c'],1,left,['9'],5,1554,[0.43679461],100,53,easy,plus,dotcolour,alfa,,,106,20,V,R,
280,28,28,6,2,47,33,2600,['c'],1,left,['8'],4,557,[0.14127038],100,47,medium,plus,dotcolour,alfa,,,106,20,V,R,
281,29,29,6,2,27,53,1017,['n'],1,right,['8'],4,487,[-0.13962348],100,53,easy,plus,dotcolour,alfa,,,106,20,V,R,
282,30,30,6,2,33,47,1133,['n'],1,right,['8'],4,687,[-0.18200753],100,47,medium,plus,dotcolour,alfa,,,106,20,V,R,
283,31,31,6,2,47,33,2367,['n'],0,left,['8'],4,782,[-0.13112291],100,47,medium,plus,dotcolour,alfa,,,106,20,V,R,
284,32,32,6,2,36,44,2433,['n'],1,right,['8'],4,583,[-0.01937625],71,44,hard,plus,dotcolour,alfa,,,106,20,V,R,
285,33,33,6,2,53,27,1150,['c'],1,left,['8'],4,603,[0.24049886],100,53,easy,plus,dotcolour,alfa,,,106,20,V,R,
286,34,34,6,2,44,36,1816,['c'],1,left,['8'],4,635,[0.23423312],100,44,hard,plus,dotcolour,alfa,,,106,20,V,R,
287,35,35,6,2,36,44,1633,['c'],0,right,['8'],4,650,[-0.02426912],25,44,hard,plus,dotcolour,alfa,,,106,20,V,R,
288,36,36,6,2,27,53,933,['n'],1,right,['8'],4,596,[-0.17114316],100,53,easy,plus,dotcolour,alfa,,,106,20,V,R,
289,37,37,6,2,53,27,917,['c'],1,left,['8'],4,424,[0.11631905],100,53,easy,plus,dotcolour,alfa,,,106,20,V,R,
290,38,38,6,2,47,33,1000,['c'],1,left,['8'],4,552,[0.16028904],100,47,medium,plus,dotcolour,alfa,,,106,20,V,R,
291,39,39,6,2,44,36,1400,['c'],1,left,['8'],4,451,[0.15376956],100,44,hard,plus,dotcolour,alfa,,,106,20,V,R,
292,40,40,6,2,36,44,1050,['n'],1,right,['8'],4,457,[-0.0195707],74,44,hard,plus,dotcolour,alfa,,,106,20,V,R,
293,41,41,6,2,33,47,1050,['n'],1,right,['8'],4,1062,[-0.1396731],99,47,medium,plus,dotcolour,alfa,,,106,20,V,R,
294,42,0,7,2,33,47,1683,['n'],1,right,['9'],5,619,[-0.14665316],100,47,medium,plus,dotcolour,alfa,,,106,20,V,R,
295,43,1,7,2,44,36,1217,['c'],1,left,['9'],5,579,[0.13392229],100,44,hard,plus,dotcolour,alfa,,,106,20,V,R,
296,44,2,7,2,47,33,1216,['c'],1,left,['8'],4,548,[0.30604225],100,47,medium,plus,dotcolour,alfa,,,106,20,V,R,
297,45,3,7,2,47,33,1050,['c'],1,left,['9'],5,582,[0.1928519],100,47,medium,plus,dotcolour,alfa,,,106,20,V,R,
298,46,4,7,2,27,53,934,['n'],1,right,['9'],5,506,[-0.23548291],100,53,easy,plus,dotcolour,alfa,,,106,20,V,R,
299,47,5,7,2,36,44,1667,['n'],1,right,['8'],4,516,[-0.1800524],100,44,hard,plus,dotcolour,alfa,,,106,20,V,R,
300,48,6,7,2,44,36,2184,['c'],1,left,['8'],4,1161,[-0.05382158],14,44,hard,plus,dotcolour,alfa,,,106,20,V,R,
301,49,7,7,2,36,44,917,['n'],1,right,['9'],5,679,[-0.2075976],100,44,hard,plus,dotcolour,alfa,,,106,20,V,R,
302,50,8,7,2,33,47,1033,['n'],1,right,['8'],4,452,[-0.08727639],99,47,medium,plus,dotcolour,alfa,,,106,20,V,R,
303,51,9,7,2,27,53,1017,['n'],1,right,['9'],5,546,[-0.13782111],100,53,easy,plus,dotcolour,alfa,,,106,20,V,R,
304,52,10,7,2,47,33,1267,['c'],1,left,['9'],5,1476,[0.35598242],100,47,medium,plus,dotcolour,alfa,,,106,20,V,R,
305,53,11,7,2,53,27,1132,['n'],0,left,['9'],5,484,[0.04468789],9,53,easy,plus,dotcolour,alfa,,,106,20,V,R,
306,54,12,7,2,53,27,717,['n'],0,left,['9'],5,461,[-0.02567684],80,53,easy,plus,dotcolour,alfa,,,106,20,V,R,
307,55,13,7,2,27,53,1817,['n'],1,right,['9'],5,859,[-0.1694872],100,53,easy,plus,dotcolour,alfa,,,106,20,V,R,
308,56,14,7,2,33,47,817,['n'],1,right,['9'],5,537,[-0.10451642],99,47,medium,plus,dotcolour,alfa,,,106,20,V,R,
309,57,15,7,2,47,33,850,['c'],1,left,['9'],5,506,[0.22730103],100,47,medium,plus,dotcolour,alfa,,,106,20,V,R,
310,58,16,7,2,47,33,617,['c'],1,left,['9'],5,535,[0.14001607],100,47,medium,plus,dotcolour,alfa,,,106,20,V,R,
311,59,17,7,2,36,44,1966,['n'],1,right,['8'],4,356,[-0.08621799],99,44,hard,plus,dotcolour,alfa,,,106,20,V,R,
312,60,18,7,2,44,36,900,['c'],1,left,['8'],4,1275,[0.06367892],88,44,hard,plus,dotcolour,alfa,,,106,20,V,R,
313,61,19,7,2,53,27,733,['c'],1,left,['9'],5,524,[0.10056674],99,53,easy,plus,dotcolour,alfa,,,106,20,V,R,
314,62,20,7,2,53,27,717,['c'],1,left,['9'],5,563,[0.14579381],100,53,easy,plus,dotcolour,alfa,,,106,20,V,R,
315,63,21,7,2,36,44,1016,['n'],1,right,['8'],4,685,[0.05549364],8,44,hard,plus,dotcolour,alfa,,,106,20,V,R,
316,64,22,7,2,44,36,717,['c'],1,left,['9'],5,502,[0.21160679],100,44,hard,plus,dotcolour,alfa,,,106,20,V,R,
317,65,23,7,2,44,36,716,['c'],1,left,['9'],5,470,[0.0010254],51,44,hard,plus,dotcolour,alfa,,,106,20,V,R,
318,66,24,7,2,53,27,833,['c'],1,left,['9'],5,379,[0.20425917],100,53,easy,plus,dotcolour,alfa,,,106,20,V,R,
319,67,25,7,2,33,47,1567,['c'],0,right,['8'],4,582,[0.04714479],90,47,medium,plus,dotcolour,alfa,,,106,20,V,R,
320,68,26,7,2,36,44,1534,['n'],1,right,['8'],4,532,[-0.17318931],100,44,hard,plus,dotcolour,alfa,,,106,20,V,R,
321,69,27,7,2,27,53,833,['n'],1,right,['9'],5,694,[-0.18096204],100,53,easy,plus,dotcolour,alfa,,,106,20,V,R,
322,70,28,7,2,53,27,767,['c'],1,left,['9'],5,461,[0.10286673],100,53,easy,plus,dotcolour,alfa,,,106,20,V,R,
323,71,29,7,2,27,53,1283,['n'],1,right,['9'],5,464,[-0.12205976],100,53,easy,plus,dotcolour,alfa,,,106,20,V,R,
324,72,30,7,2,33,47,1467,['n'],1,right,['9'],5,516,[-0.04656491],91,47,medium,plus,dotcolour,alfa,,,106,20,V,R,
325,73,31,7,2,44,36,2367,['n'],0,left,['8'],4,602,[0.03509469],16,44,hard,plus,dotcolour,alfa,,,106,20,V,R,
326,74,32,7,2,47,33,916,['c'],1,left,['8'],4,1167,[0.17651049],100,47,medium,plus,dotcolour,alfa,,,106,20,V,R,
327,75,33,7,2,27,53,1117,['n'],1,right,['9'],5,437,[-0.20661105],100,53,easy,plus,dotcolour,alfa,,,106,20,V,R,
328,76,34,7,2,27,53,1716,['n'],1,right,['8'],4,743,[-0.22468809],100,53,easy,plus,dotcolour,alfa,,,106,20,V,R,
329,77,35,7,2,33,47,800,['n'],1,right,['8'],4,467,[-0.04348841],91,47,medium,plus,dotcolour,alfa,,,106,20,V,R,
330,78,36,7,2,36,44,749,['n'],1,right,['9'],5,515,[-0.09756393],99,44,hard,plus,dotcolour,alfa,,,106,20,V,R,
331,79,37,7,2,36,44,1183,['n'],1,right,['8'],4,337,[-0.0052251],58,44,hard,plus,dotcolour,alfa,,,106,20,V,R,
332,80,38,7,2,47,33,1133,['n'],0,left,['9'],5,544,[-0.07241918],97,47,medium,plus,dotcolour,alfa,,,106,20,V,R,
333,81,39,7,2,53,27,933,['c'],1,left,['9'],5,533,[0.11111507],100,53,easy,plus,dotcolour,alfa,,,106,20,V,R,
334,82,40,7,2,33,47,1717,['n'],1,right,['9'],5,413,[-0.04644532],93,47,medium,plus,dotcolour,alfa,,,106,20,V,R,
335,83,41,7,2,44,36,883,['n'],0,left,['9'],5,699,[-0.15134142],100,44,hard,plus,dotcolour,alfa,,,106,20,V,R,
336,84,0,8,2,33,47,884,['n'],1,right,['9'],5,695,[-0.24903971],100,47,medium,plus,dotcolour,alfa,,,106,20,V,R,
337,85,1,8,2,44,36,1233,['c'],1,left,['8'],4,379,[0.01923431],75,44,hard,plus,dotcolour,alfa,,,106,20,V,R,
338,86,2,8,2,47,33,884,['c'],1,left,['9'],5,394,[0.08557684],99,47,medium,plus,dotcolour,alfa,,,106,20,V,R,
339,87,3,8,2,33,47,1484,['c'],0,right,['8'],4,592,[0.0102057],62,47,medium,plus,dotcolour,alfa,,,106,20,V,R,
340,88,4,8,2,36,44,1133,['c'],0,right,['8'],4,380,[0.11725143],100,44,hard,plus,dotcolour,alfa,,,106,20,V,R,
341,89,5,8,2,44,36,1100,['c'],1,left,['8'],4,362,[0.12335267],100,44,hard,plus,dotcolour,alfa,,,106,20,V,R,
342,90,6,8,2,53,27,649,['c'],1,left,['8'],4,426,[0.16466047],100,53,easy,plus,dotcolour,alfa,,,106,20,V,R,
343,91,7,8,2,36,44,1082,['n'],1,right,['8'],4,431,[-0.02060811],76,44,hard,plus,dotcolour,alfa,,,106,20,V,R,
344,92,8,8,2,47,33,700,['c'],1,left,['9'],5,467,[0.11559458],100,47,medium,plus,dotcolour,alfa,,,106,20,V,R,
345,93,9,8,2,44,36,635,['c'],1,left,['9'],5,440,[0.12563907],100,44,hard,plus,dotcolour,alfa,,,106,20,V,R,
346,94,10,8,2,27,53,901,['n'],1,right,['9'],5,516,[-0.22560681],100,53,easy,plus,dotcolour,alfa,,,106,20,V,R,
347,95,11,8,2,47,33,649,['c'],1,left,['9'],5,1631,[0.51793121],100,47,medium,plus,dotcolour,alfa,,,106,20,V,R,
348,96,12,8,2,44,36,1451,['c'],1,left,['8'],4,764,[0.14828844],100,44,hard,plus,dotcolour,alfa,,,106,20,V,R,
349,97,13,8,2,53,27,768,['c'],1,left,['9'],5,464,[0.15435453],100,53,easy,plus,dotcolour,alfa,,,106,20,V,R,
350,98,14,8,2,53,27,966,['c'],1,left,['9'],5,408,[0.03838405],90,53,easy,plus,dotcolour,alfa,,,106,20,V,R,
351,99,15,8,2,33,47,1517,['n'],1,right,['8'],4,388,[-0.15692444],100,47,medium,plus,dotcolour,alfa,,,106,20,V,R,
352,100,16,8,2,33,47,2516,['n'],1,right,['8'],4,329,[-0.12056139],100,47,medium,plus,dotcolour,alfa,,,106,20,V,R,
353,101,17,8,2,53,27,733,['c'],1,left,['9'],5,535,[0.1080665],100,53,easy,plus,dotcolour,alfa,,,106,20,V,R,
354,102,18,8,2,53,27,650,['c'],1,left,['9'],5,578,[0.24966863],100,53,easy,plus,dotcolour,alfa,,,106,20,V,R,
355,103,19,8,2,33,47,1617,['n'],1,right,['8'],4,563,[-0.160666],100,47,medium,plus,dotcolour,alfa,,,106,20,V,R,
356,104,20,8,2,27,53,1317,['n'],1,right,['9'],5,369,[-0.08949318],100,53,easy,plus,dotcolour,alfa,,,106,20,V,R,
357,105,21,8,2,47,33,850,['c'],1,left,['9'],5,353,[0.06245269],98,47,medium,plus,dotcolour,alfa,,,106,20,V,R,
358,106,22,8,2,33,47,1534,['n'],1,right,['9'],5,488,[-0.04333591],90,47,medium,plus,dotcolour,alfa,,,106,20,V,R,
359,107,23,8,2,33,47,1883,['n'],1,right,['8'],4,330,[-0.15759514],100,47,medium,plus,dotcolour,alfa,,,106,20,V,R,
360,108,24,8,2,44,36,1734,['n'],0,left,['8'],4,488,[0.02124005],25,44,hard,plus,dotcolour,alfa,,,106,20,V,R,
361,109,25,8,2,44,36,767,['c'],1,left,['9'],5,448,[0.14725183],100,44,hard,plus,dotcolour,alfa,,,106,20,V,R,
362,110,26,8,2,27,53,950,['n'],1,right,['9'],5,680,[-0.17936043],100,53,easy,plus,dotcolour,alfa,,,106,20,V,R,
363,111,27,8,2,27,53,833,['n'],1,right,['9'],5,446,[-0.164961],100,53,easy,plus,dotcolour,alfa,,,106,20,V,R,
364,112,28,8,2,47,33,1584,['c'],1,left,['8'],4,397,[0.16922806],100,47,medium,plus,dotcolour,alfa,,,106,20,V,R,
365,113,29,8,2,36,44,1017,['n'],1,right,['8'],4,1142,[-0.22133733],100,44,hard,plus,dotcolour,alfa,,,106,20,V,R,
366,114,30,8,2,44,36,1466,['n'],0,left,['8'],4,903,[0.02604073],27,44,hard,plus,dotcolour,alfa,,,106,20,V,R,
367,115,31,8,2,27,53,1450,['n'],1,right,['8'],4,1137,[-0.36455457],100,53,easy,plus,dotcolour,alfa,,,106,20,V,R,
368,116,32,8,2,36,44,1317,['n'],1,right,['8'],4,360,[-0.21767566],100,44,hard,plus,dotcolour,alfa,,,106,20,V,R,
369,117,33,8,2,53,27,650,['c'],1,left,['9'],5,665,[0.17778079],100,53,easy,plus,dotcolour,alfa,,,106,20,V,R,
370,118,34,8,2,47,33,1750,['c'],1,left,['8'],4,1473,[0.33478204],100,47,medium,plus,dotcolour,alfa,,,106,20,V,R,
371,119,35,8,2,36,44,1300,['c'],0,right,['8'],4,1195,[0.03822901],78,44,hard,plus,dotcolour,alfa,,,106,20,V,R,
372,120,36,8,2,27,53,1183,['n'],1,right,['9'],5,1054,[-0.16662878],100,53,easy,plus,dotcolour,alfa,,,106,20,V,R,
373,121,37,8,2,53,27,817,['c'],1,left,['9'],5,844,[0.23556931],100,53,easy,plus,dotcolour,alfa,,,106,20,V,R,
374,122,38,8,2,36,44,2066,['c'],0,right,['8'],4,856,[-0.01780461],33,44,hard,plus,dotcolour,alfa,,,106,20,V,R,
375,123,39,8,2,27,53,1200,['n'],1,right,['8'],4,447,[-0.04216319],91,53,easy,plus,dotcolour,alfa,,,106,20,V,R,
376,124,40,8,2,47,33,867,['c'],1,left,['8'],4,1372,[0.18928],100,47,medium,plus,dotcolour,alfa,,,106,20,V,R,
377,125,41,8,2,36,44,1350,['c'],0,right,['8'],4,464,[0.08754788],99,44,hard,plus,dotcolour,alfa,,,106,20,V,R,
378,0,0,9,3,27,53,934,['n'],1,right,['8'],4,506,[-0.23406344],95,53,easy,minus,dotcolour,alfa,,,106,20,V,R,
379,1,1,9,3,47,33,1401,['n'],0,left,['8'],4,326,[-0.11307765],86,47,medium,minus,dotcolour,alfa,,,106,20,V,R,
380,2,2,9,3,53,27,983,['c'],1,left,['8'],4,298,[0.15831918],93,53,easy,minus,dotcolour,alfa,,,106,20,V,R,
381,3,3,9,3,44,36,832,['n'],0,left,['8'],4,359,[0.0142303],45,44,hard,minus,dotcolour,alfa,,,106,20,V,R,
382,4,4,9,3,53,27,768,['c'],1,left,['8'],4,290,[0.1090429],86,53,easy,minus,dotcolour,alfa,,,106,20,V,R,
383,5,5,9,3,27,53,782,['n'],1,right,['9'],5,424,[-0.17163881],91,53,easy,minus,dotcolour,alfa,,,106,20,V,R,
384,6,6,9,3,36,44,1250,['n'],1,right,['9'],5,815,[-0.09340303],72,44,hard,minus,dotcolour,alfa,,,106,20,V,R,
385,7,7,9,3,33,47,816,['n'],1,right,['8'],4,351,[-0.18722989],95,47,medium,minus,dotcolour,alfa,,,106,20,V,R,
386,8,8,9,3,27,53,1050,['n'],1,right,['9'],5,312,[-0.1877768],95,53,easy,minus,dotcolour,alfa,,,106,20,V,R,
387,9,9,9,3,36,44,667,['n'],1,right,['9'],5,554,[-0.2722437],96,44,hard,minus,dotcolour,alfa,,,106,20,V,R,
388,10,10,9,3,33,47,1100,['n'],1,right,['9'],5,377,[-0.10886628],83,47,medium,minus,dotcolour,alfa,,,106,20,V,R,
389,11,11,9,3,44,36,867,['c'],1,left,['9'],5,360,[0.07529828],76,44,hard,minus,dotcolour,alfa,,,106,20,V,R,
390,12,12,9,3,33,47,1583,['n'],1,right,['9'],5,363,[0.04703917],33,47,medium,minus,dotcolour,alfa,,,106,20,V,R,
391,13,13,9,3,33,47,1717,['n'],1,right,['8'],4,362,[-0.10613603],83,47,medium,minus,dotcolour,alfa,,,106,20,V,R,
392,14,14,9,3,27,53,1150,['n'],1,right,['8'],4,390,[-0.01037085],54,53,easy,minus,dotcolour,alfa,,,106,20,V,R,
393,15,15,9,3,47,33,2033,['c'],1,left,['8'],4,343,[0.13163044],88,47,medium,minus,dotcolour,alfa,,,106,20,V,R,
394,16,16,9,3,44,36,1034,['c'],1,left,['8'],4,456,[0.18216692],92,44,hard,minus,dotcolour,alfa,,,106,20,V,R,
395,17,17,9,3,33,47,900,['c'],0,right,['8'],4,307,[0.07351968],77,47,medium,minus,dotcolour,alfa,,,106,20,V,R,
396,18,18,9,3,33,47,1149,['n'],1,right,['9'],5,346,[-0.21462712],96,47,medium,minus,dotcolour,alfa,,,106,20,V,R,
397,19,19,9,3,53,27,833,['c'],1,left,['8'],4,404,[0.080406],76,53,easy,minus,dotcolour,alfa,,,106,20,V,R,
398,20,20,9,3,47,33,900,['c'],1,left,['9'],5,449,[0.09042506],77,47,medium,minus,dotcolour,alfa,,,106,20,V,R,
399,21,21,9,3,27,53,1417,['n'],1,right,['8'],4,408,[-0.16651238],91,53,easy,minus,dotcolour,alfa,,,106,20,V,R,
400,22,22,9,3,44,36,1067,['c'],1,left,['9'],5,606,[0.02468585],57,44,hard,minus,dotcolour,alfa,,,106,20,V,R,
401,23,23,9,3,44,36,1084,['c'],1,left,['9'],5,387,[0.09190601],79,44,hard,minus,dotcolour,alfa,,,106,20,V,R,
402,24,24,9,3,44,36,984,['c'],1,left,['9'],5,509,[0.22567859],95,44,hard,minus,dotcolour,alfa,,,106,20,V,R,
403,25,25,9,3,53,27,917,['c'],1,left,['9'],5,333,[0.16087859],92,53,easy,minus,dotcolour,alfa,,,106,20,V,R,
404,26,26,9,3,47,33,3232,['c'],1,left,['9'],5,376,[0.08287184],77,47,medium,minus,dotcolour,alfa,,,106,20,V,R,
405,27,27,9,3,36,44,1601,['c'],0,right,['9'],5,346,[0.04670931],67,44,hard,minus,dotcolour,alfa,,,106,20,V,R,
406,28,28,9,3,27,53,1250,['n'],1,right,['8'],4,1059,[-0.06837783],65,53,easy,minus,dotcolour,alfa,,,106,20,V,R,
407,29,29,9,3,44,36,2033,['c'],1,left,['9'],5,409,[0.09700009],80,44,hard,minus,dotcolour,alfa,,,106,20,V,R,
408,30,30,9,3,53,27,1317,['n'],0,left,['9'],5,477,[0.10524325],20,53,easy,minus,dotcolour,alfa,,,106,20,V,R,
409,31,31,9,3,36,44,1301,['n'],1,right,['8'],4,1471,[-0.01921739],54,44,hard,minus,dotcolour,alfa,,,106,20,V,R,
410,32,32,9,3,47,33,2133,['c'],1,left,['9'],5,767,[0.15304984],83,47,medium,minus,dotcolour,alfa,,,106,20,V,R,
411,33,33,9,3,27,53,2200,['n'],1,right,['8'],4,266,[-0.06964468],77,53,easy,minus,dotcolour,alfa,,,106,20,V,R,
412,34,34,9,3,36,44,1467,['n'],1,right,['8'],4,310,[-0.12605507],88,44,hard,minus,dotcolour,alfa,,,106,20,V,R,
413,35,35,9,3,53,27,1051,['c'],1,left,['9'],5,377,[0.06578893],72,53,easy,minus,dotcolour,alfa,,,106,20,V,R,
414,36,36,9,3,47,33,1317,['c'],1,left,['9'],5,319,[0.15979092],93,47,medium,minus,dotcolour,alfa,,,106,20,V,R,
415,37,37,9,3,53,27,767,['c'],1,left,['9'],5,324,[0.09860878],83,53,easy,minus,dotcolour,alfa,,,106,20,V,R,
416,38,38,9,3,36,44,1584,['n'],1,right,['8'],4,321,[-0.08681112],80,44,hard,minus,dotcolour,alfa,,,106,20,V,R,
417,39,39,9,3,33,47,933,['c'],0,right,['8'],4,305,[-0.00198992],49,47,medium,minus,dotcolour,alfa,,,106,20,V,R,
418,40,40,9,3,36,44,3667,['n'],1,right,['8'],4,347,[-0.07731523],77,44,hard,minus,dotcolour,alfa,,,106,20,V,R,
419,41,41,9,3,47,33,1116,['c'],1,left,['8'],4,282,[0.09536714],83,47,medium,minus,dotcolour,alfa,,,106,20,V,R,
420,42,0,10,3,27,53,1668,['n'],1,right,['8'],4,268,[-0.12348037],90,53,easy,minus,dotcolour,alfa,,,106,20,V,R,
421,43,1,10,3,33,47,1884,['n'],1,right,['9'],5,1544,[-0.28837618],89,47,medium,minus,dotcolour,alfa,,,106,20,V,R,
422,44,2,10,3,44,36,1450,['c'],1,left,['8'],4,329,[0.09361455],81,44,hard,minus,dotcolour,alfa,,,106,20,V,R,
423,45,3,10,3,53,27,3250,['c'],1,left,['9'],5,1947,[0.23075522],82,53,easy,minus,dotcolour,alfa,,,106,20,V,R,
424,46,4,10,3,36,44,2599,['n'],1,right,['8'],4,286,[-0.10099165],85,44,hard,minus,dotcolour,alfa,,,106,20,V,R,
425,47,5,10,3,33,47,2368,['n'],1,right,['8'],4,205,[-0.08766392],85,47,medium,minus,dotcolour,alfa,,,106,20,V,R,
426,48,6,10,3,47,33,1950,['c'],1,left,['8'],4,240,[0.02159725],60,47,medium,minus,dotcolour,alfa,,,106,20,V,R,
427,49,7,10,3,44,36,2083,['c'],1,left,['8'],4,196,[0.15198589],96,44,hard,minus,dotcolour,alfa,,,106,20,V,R,
428,50,8,10,3,27,53,1133,['n'],1,right,['9'],5,200,[-0.11171631],90,53,easy,minus,dotcolour,alfa,,,106,20,V,R,
429,51,9,10,3,44,36,1800,['n'],0,left,['8'],4,170,[-0.09580085],89,44,hard,minus,dotcolour,alfa,,,106,20,V,R,
430,52,10,10,3,27,53,867,['n'],1,right,['9'],5,321,[-0.02229776],59,53,easy,minus,dotcolour,alfa,,,106,20,V,R,
431,53,11,10,3,53,27,966,['c'],1,left,['8'],4,215,[0.07653863],82,53,easy,minus,dotcolour,alfa,,,106,20,V,R,
432,54,12,10,3,36,44,1182,['n'],1,right,['8'],4,344,[-0.10352864],83,44,hard,minus,dotcolour,alfa,,,106,20,V,R,
433,55,13,10,3,33,47,1583,['c'],0,right,['8'],4,308,[-0.06068309],27,47,medium,minus,dotcolour,alfa,,,106,20,V,R,
434,56,14,10,3,33,47,2500,['n'],1,right,['9'],5,405,[-0.03333327],62,47,medium,minus,dotcolour,alfa,,,106,20,V,R,
435,57,15,10,3,44,36,1116,['c'],1,left,['8'],4,281,[0.11499417],88,44,hard,minus,dotcolour,alfa,,,106,20,V,R,
436,58,16,10,3,36,44,1050,['n'],1,right,['9'],5,237,[-0.08824858],84,44,hard,minus,dotcolour,alfa,,,106,20,V,R,
437,59,17,10,3,53,27,967,['c'],1,left,['8'],4,223,[0.15424374],95,53,easy,minus,dotcolour,alfa,,,106,20,V,R,
438,60,18,10,3,47,33,916,['c'],1,left,['9'],5,250,[0.1848729],97,47,medium,minus,dotcolour,alfa,,,106,20,V,R,
439,61,19,10,3,27,53,1133,['n'],1,right,['9'],5,324,[-0.1301927],89,53,easy,minus,dotcolour,alfa,,,106,20,V,R,
440,62,20,10,3,44,36,1366,['c'],1,left,['8'],4,257,[0.05203517],72,44,hard,minus,dotcolour,alfa,,,106,20,V,R,
441,63,21,10,3,33,47,1351,['n'],1,right,['8'],4,474,[-0.03691428],62,47,medium,minus,dotcolour,alfa,,,106,20,V,R,
442,64,22,10,3,44,36,1084,['c'],1,left,['8'],4,229,[0.00875152],54,44,hard,minus,dotcolour,alfa,,,106,20,V,R,
443,65,23,10,3,36,44,1534,['c'],0,right,['2'],2,1663,[-0.11927525],30,44,hard,minus,dotcolour,alfa,,,106,20,V,R,
444,66,24,10,3,47,33,3734,['c'],1,left,['2'],2,1776,[0.27110492],86,47,medium,minus,dotcolour,alfa,,,106,20,V,R,
445,67,25,10,3,27,53,1517,['n'],1,right,['9'],5,1165,[-0.11512814],72,53,easy,minus,dotcolour,alfa,,,106,20,V,R,
446,68,26,10,3,53,27,1251,['c'],1,left,['8'],4,717,[0.30393497],96,53,easy,minus,dotcolour,alfa,,,106,20,V,R,
447,69,27,10,3,47,33,1217,['n'],0,left,['8'],4,378,[-0.00460597],52,47,medium,minus,dotcolour,alfa,,,106,20,V,R,
448,70,28,10,3,47,33,1067,['c'],1,left,['8'],4,577,[0.11284059],79,47,medium,minus,dotcolour,alfa,,,106,20,V,R,
449,71,29,10,3,27,53,1483,['n'],1,right,['8'],4,207,[-0.12643682],92,53,easy,minus,dotcolour,alfa,,,106,20,V,R,
450,72,30,10,3,36,44,3501,['n'],1,right,['8'],4,285,[-0.09836784],84,44,hard,minus,dotcolour,alfa,,,106,20,V,R,
451,73,31,10,3,53,27,1033,['c'],1,left,['9'],5,289,[0.08692983],81,53,easy,minus,dotcolour,alfa,,,106,20,V,R,
452,74,32,10,3,44,36,2999,['c'],1,left,['8'],4,255,[0.14609983],93,44,hard,minus,dotcolour,alfa,,,106,20,V,R,
453,75,33,10,3,33,47,1767,['n'],1,right,['8'],4,255,[-0.11020076],88,47,medium,minus,dotcolour,alfa,,,106,20,V,R,
454,76,34,10,3,36,44,902,['n'],1,right,['9'],5,338,[-0.01641302],56,44,hard,minus,dotcolour,alfa,,,106,20,V,R,
455,77,35,10,3,36,44,1816,['n'],1,right,['9'],5,269,[-0.15858962],94,44,hard,minus,dotcolour,alfa,,,106,20,V,R,
456,78,36,10,3,53,27,1034,['c'],1,left,['8'],4,290,[0.08159189],80,53,easy,minus,dotcolour,alfa,,,106,20,V,R,
457,79,37,10,3,53,27,1283,['c'],1,left,['9'],5,301,[0.1238903],88,53,easy,minus,dotcolour,alfa,,,106,20,V,R,
458,80,38,10,3,47,33,934,['c'],1,left,['9'],5,301,[0.11546189],87,47,medium,minus,dotcolour,alfa,,,106,20,V,R,
459,81,39,10,3,47,33,734,['c'],1,left,['9'],5,277,[0.10424016],86,47,medium,minus,dotcolour,alfa,,,106,20,V,R,
460,82,40,10,3,27,53,1333,['n'],1,right,['9'],5,334,[-0.09066459],80,53,easy,minus,dotcolour,alfa,,,106,20,V,R,
461,83,41,10,3,33,47,1234,['n'],1,right,['9'],5,288,[-0.03128059],63,47,medium,minus,dotcolour,alfa,,,106,20,V,R,
462,84,0,11,3,47,33,901,['c'],1,left,['9'],5,141,[0.11837305],94,47,medium,minus,dotcolour,alfa,,,106,20,V,R,
463,85,1,11,3,36,44,1150,['c'],0,right,['9'],5,154,[0.1040065],92,44,hard,minus,dotcolour,alfa,,,106,20,V,R,
464,86,2,11,3,27,53,899,['n'],1,right,['9'],5,241,[-0.03505763],66,53,easy,minus,dotcolour,alfa,,,106,20,V,R,
465,87,3,11,3,47,33,783,['c'],1,left,['9'],5,226,[0.0650008],77,47,medium,minus,dotcolour,alfa,,,106,20,V,R,
466,88,4,11,3,47,33,951,['c'],1,left,['9'],5,235,[0.06386235],77,47,medium,minus,dotcolour,alfa,,,106,20,V,R,
467,89,5,11,3,27,53,917,['n'],1,right,['9'],5,207,[-0.05956194],76,53,easy,minus,dotcolour,alfa,,,106,20,V,R,
468,90,6,11,3,44,36,2034,['c'],1,left,['8'],4,262,[0.07655219],79,44,hard,minus,dotcolour,alfa,,,106,20,V,R,
469,91,7,11,3,36,44,1302,['c'],0,right,['9'],5,217,[-0.02161993],40,44,hard,minus,dotcolour,alfa,,,106,20,V,R,
470,92,8,11,3,36,44,1800,['n'],1,right,['9'],5,281,[-0.12079097],89,44,hard,minus,dotcolour,alfa,,,106,20,V,R,
471,93,9,11,3,33,47,867,['n'],1,right,['9'],5,309,[-0.11618229],87,47,medium,minus,dotcolour,alfa,,,106,20,V,R,
472,94,10,11,3,53,27,1016,['c'],1,left,['8'],4,241,[0.06380261],76,53,easy,minus,dotcolour,alfa,,,106,20,V,R,
473,95,11,11,3,27,53,1383,['n'],1,right,['9'],5,249,[-0.10254494],86,53,easy,minus,dotcolour,alfa,,,106,20,V,R,
474,96,12,11,3,47,33,1067,['c'],1,left,['8'],4,270,[0.1290098],90,47,medium,minus,dotcolour,alfa,,,106,20,V,R,
475,97,13,11,3,53,27,1266,['c'],1,left,['9'],5,306,[0.17143033],94,53,easy,minus,dotcolour,alfa,,,106,20,V,R,
476,98,14,11,3,44,36,968,['c'],1,left,['9'],5,304,[0.10554894],85,44,hard,minus,dotcolour,alfa,,,106,20,V,R,
477,99,15,11,3,44,36,1383,['c'],1,left,['8'],4,246,[0.0745449],79,44,hard,minus,dotcolour,alfa,,,106,20,V,R,
478,100,16,11,3,36,44,1733,['n'],1,right,['9'],5,280,[-0.10321678],85,44,hard,minus,dotcolour,alfa,,,106,20,V,R,
479,101,17,11,3,33,47,1050,['n'],1,right,['9'],5,364,[-0.11720088],85,47,medium,minus,dotcolour,alfa,,,106,20,V,R,
480,102,18,11,3,36,44,1751,['c'],0,right,['8'],4,192,[0.07191276],81,44,hard,minus,dotcolour,alfa,,,106,20,V,R,
481,103,19,11,3,53,27,967,['n'],0,left,['9'],5,412,[-0.02585493],59,53,easy,minus,dotcolour,alfa,,,106,20,V,R,
482,104,20,11,3,47,33,2617,['c'],1,left,['9'],5,363,[0.20705622],96,47,medium,minus,dotcolour,alfa,,,106,20,V,R,
483,105,21,11,3,33,47,1100,['n'],1,right,['9'],5,354,[-0.17563197],93,47,medium,minus,dotcolour,alfa,,,106,20,V,R,
484,106,22,11,3,27,53,1233,['n'],1,right,['9'],5,324,[-0.14275922],91,53,easy,minus,dotcolour,alfa,,,106,20,V,R,
485,107,23,11,3,47,33,1367,['c'],1,left,['9'],5,281,[0.11797732],88,47,medium,minus,dotcolour,alfa,,,106,20,V,R,
486,108,24,11,3,53,27,1484,['c'],1,left,['9'],5,388,[0.09703587],80,53,easy,minus,dotcolour,alfa,,,106,20,V,R,
487,109,25,11,3,36,44,1533,['n'],1,right,['9'],5,344,[-0.13672736],89,44,hard,minus,dotcolour,alfa,,,106,20,V,R,
488,110,26,11,3,33,47,1251,['n'],1,right,['9'],5,353,[-0.21631768],96,47,medium,minus,dotcolour,alfa,,,106,20,V,R,
489,111,27,11,3,36,44,1284,['n'],1,right,['9'],5,322,[-0.12449745],88,44,hard,minus,dotcolour,alfa,,,106,20,V,R,
490,112,28,11,3,44,36,1917,['n'],0,left,['9'],5,249,[-0.07186675],79,44,hard,minus,dotcolour,alfa,,,106,20,V,R,
491,113,29,11,3,44,36,2150,['c'],1,left,['8'],4,250,[0.08385643],82,44,hard,minus,dotcolour,alfa,,,106,20,V,R,
492,114,30,11,3,27,53,1234,['n'],1,right,['9'],5,288,[-0.12108562],88,53,easy,minus,dotcolour,alfa,,,106,20,V,R,
493,115,31,11,3,53,27,1383,['c'],1,left,['9'],5,303,[0.1686632],94,53,easy,minus,dotcolour,alfa,,,106,20,V,R,
494,116,32,11,3,44,36,1683,['c'],1,left,['8'],4,641,[0.12472352],80,44,hard,minus,dotcolour,alfa,,,106,20,V,R,
495,117,33,11,3,27,53,933,['n'],1,right,['9'],5,259,[-0.18173731],96,53,easy,minus,dotcolour,alfa,,,106,20,V,R,
496,118,34,11,3,53,27,867,['c'],1,left,['9'],5,391,[0.11180312],83,53,easy,minus,dotcolour,alfa,,,106,20,V,R,
497,119,35,11,3,33,47,1550,['n'],1,right,['9'],5,298,[-0.07813154],78,47,medium,minus,dotcolour,alfa,,,106,20,V,R,
498,120,36,11,3,44,36,1750,['c'],1,left,['8'],4,298,[0.11810204],88,44,hard,minus,dotcolour,alfa,,,106,20,V,R,
499,121,37,11,3,27,53,1017,['n'],1,right,['9'],5,350,[-0.13611561],89,53,easy,minus,dotcolour,alfa,,,106,20,V,R,
500,122,38,11,3,33,47,1433,['n'],1,right,['9'],5,208,[-0.12514428],92,47,medium,minus,dotcolour,alfa,,,106,20,V,R,
501,123,39,11,3,33,47,916,['n'],1,right,['9'],5,228,[0.01998469],41,47,medium,minus,dotcolour,alfa,,,106,20,V,R,
502,124,40,11,3,47,33,1317,['c'],1,left,['8'],4,199,[0.18517996],98,47,medium,minus,dotcolour,alfa,,,106,20,V,R,
503,125,41,11,3,53,27,851,['c'],1,left,['8'],4,175,[0.08172009],85,53,easy,minus,dotcolour,alfa,,,106,20,V,R,
504,0,0,12,4,36,44,1118,['c'],0,right,['9'],5,100,[0.02876378],96,44,hard,plus,dotcolour,alfa,,,106,20,V,R,
505,1,1,12,4,33,47,1267,['n'],1,right,['9'],5,118,[-0.03890199],98,47,medium,plus,dotcolour,alfa,,,106,20,V,R,
506,2,2,12,4,27,53,867,['n'],1,right,['9'],5,152,[-0.0631533],100,53,easy,plus,dotcolour,alfa,,,106,20,V,R,
507,3,3,12,4,36,44,1085,['n'],1,right,['9'],5,168,[-0.08252487],100,44,hard,plus,dotcolour,alfa,,,106,20,V,R,
508,4,4,12,4,53,27,899,['c'],1,left,['9'],5,135,[0.06855413],100,53,easy,plus,dotcolour,alfa,,,106,20,V,R,
509,5,5,12,4,47,33,667,['c'],1,left,['9'],5,80,[0.01545486],88,47,medium,plus,dotcolour,alfa,,,106,20,V,R,
510,6,6,12,4,47,33,734,['c'],1,left,['9'],5,137,[0.07366904],100,47,medium,plus,dotcolour,alfa,,,106,20,V,R,
511,7,7,12,4,53,27,950,['c'],1,left,['9'],5,111,[0.08773111],100,53,easy,plus,dotcolour,alfa,,,106,20,V,R,
512,8,8,12,4,33,47,1250,['c'],0,right,['9'],5,105,[0.06619939],100,47,medium,plus,dotcolour,alfa,,,106,20,V,R,
513,9,9,12,4,27,53,1200,['n'],1,right,['9'],5,167,[-0.14956542],100,53,easy,plus,dotcolour,alfa,,,106,20,V,R,
514,10,10,12,4,27,53,2932,['n'],1,right,['9'],5,140,[-0.04247687],98,53,easy,plus,dotcolour,alfa,,,106,20,V,R,
515,11,11,12,4,27,53,1901,['n'],1,right,['9'],5,124,[-0.11017867],100,53,easy,plus,dotcolour,alfa,,,106,20,V,R,
516,12,12,12,4,47,33,3100,['c'],1,left,['9'],5,132,[0.11043342],100,47,medium,plus,dotcolour,alfa,,,106,20,V,R,
517,13,13,12,4,47,33,3700,['c'],1,left,['9'],5,75,[0.10036844],100,47,medium,plus,dotcolour,alfa,,,106,20,V,R,
518,14,14,12,4,53,27,5134,['c'],1,left,['9'],5,804,[0.18315804],100,53,easy,plus,dotcolour,alfa,,,106,20,V,R,
519,15,15,12,4,53,27,917,['c'],1,left,['9'],5,96,[0.07571799],100,53,easy,plus,dotcolour,alfa,,,106,20,V,R,
520,16,16,12,4,47,33,950,['c'],1,left,['9'],5,103,[0.0920347],100,47,medium,plus,dotcolour,alfa,,,106,20,V,R,
521,17,17,12,4,33,47,1433,['c'],0,right,['9'],5,124,[0.06594239],100,47,medium,plus,dotcolour,alfa,,,106,20,V,R,
522,18,18,12,4,53,27,900,['c'],1,left,['9'],5,132,[0.05251706],99,53,easy,plus,dotcolour,alfa,,,106,20,V,R,
523,19,19,12,4,33,47,1217,['n'],1,right,['9'],5,56,[-0.09455227],100,47,medium,plus,dotcolour,alfa,,,106,20,V,R,
524,20,20,12,4,33,47,1067,['n'],1,right,['9'],5,116,[-0.14351182],100,47,medium,plus,dotcolour,alfa,,,106,20,V,R,
525,21,21,12,4,44,36,2368,['c'],1,left,['9'],5,97,[0.09166391],100,44,hard,plus,dotcolour,alfa,,,106,20,V,R,
526,22,22,12,4,27,53,767,['n'],1,right,['9'],5,169,[-0.0445346],98,53,easy,plus,dotcolour,alfa,,,106,20,V,R,
527,23,23,12,4,44,36,1500,['c'],1,left,['9'],5,119,[0.08843408],100,44,hard,plus,dotcolour,alfa,,,106,20,V,R,
528,24,24,12,4,27,53,867,['n'],1,right,['9'],5,145,[-0.14543681],100,53,easy,plus,dotcolour,alfa,,,106,20,V,R,
529,25,25,12,4,53,27,1033,['c'],1,left,['9'],5,147,[0.10538303],100,53,easy,plus,dotcolour,alfa,,,106,20,V,R,
530,26,26,12,4,47,33,1151,['c'],1,left,['9'],5,161,[0.05480912],99,47,medium,plus,dotcolour,alfa,,,106,20,V,R,
531,27,27,12,4,36,44,2350,['c'],0,right,['9'],5,133,[0.09005633],100,44,hard,plus,dotcolour,alfa,,,106,20,V,R,
532,28,28,12,4,36,44,3500,['c'],0,right,['9'],5,110,[0.11508518],100,44,hard,plus,dotcolour,alfa,,,106,20,V,R,
533,29,29,12,4,44,36,2517,['c'],1,left,['9'],5,102,[0.07727303],100,44,hard,plus,dotcolour,alfa,,,106,20,V,R,
534,30,30,12,4,36,44,1851,['c'],0,right,['9'],5,105,[0.07011429],100,44,hard,plus,dotcolour,alfa,,,106,20,V,R,
535,31,31,12,4,27,53,8117,['n'],1,right,['9'],5,186,[-0.02940309],92,53,easy,plus,dotcolour,alfa,,,106,20,V,R,
536,32,32,12,4,33,47,1550,['n'],1,right,['9'],5,141,[-0.0706405],100,47,medium,plus,dotcolour,alfa,,,106,20,V,R,
537,33,33,12,4,33,47,1183,['n'],1,right,['9'],5,66,[-0.10708655],100,47,medium,plus,dotcolour,alfa,,,106,20,V,R,
538,34,34,12,4,36,44,1300,['n'],1,right,['9'],5,124,[-0.12264328],100,44,hard,plus,dotcolour,alfa,,,106,20,V,R,
539,35,35,12,4,47,33,1133,['c'],1,left,['9'],5,131,[-0.02155604],10,47,medium,plus,dotcolour,alfa,,,106,20,V,R,
540,36,36,12,4,44,36,1566,['c'],1,left,['9'],5,88,[0.06267045],100,44,hard,plus,dotcolour,alfa,,,106,20,V,R,
541,37,37,12,4,44,36,1384,['c'],1,left,['9'],5,87,[0.08584527],100,44,hard,plus,dotcolour,alfa,,,106,20,V,R,
542,38,38,12,4,36,44,1034,['c'],0,right,['9'],5,148,[0.08019616],100,44,hard,plus,dotcolour,alfa,,,106,20,V,R,
543,39,39,12,4,44,36,767,['c'],1,left,['9'],5,120,[0.09559205],100,44,hard,plus,dotcolour,alfa,,,106,20,V,R,
544,40,40,12,4,53,27,2867,['n'],0,left,['9'],5,107,[-0.01676354],86,53,easy,plus,dotcolour,alfa,,,106,20,V,R,
545,41,41,12,4,44,36,4650,['n'],0,left,['9'],5,125,[-0.04796148],99,44,hard,plus,dotcolour,alfa,,,106,20,V,R,
546,42,0,13,4,33,47,934,['c'],0,right,['9'],5,141,[-0.00349743],42,47,medium,plus,dotcolour,alfa,,,106,20,V,R,
547,43,1,13,4,27,53,667,['n'],1,right,['9'],5,45,[-0.11720214],100,53,easy,plus,dotcolour,alfa,,,106,20,V,R,
548,44,2,13,4,44,36,850,['c'],1,left,['9'],5,179,[0.12269122],100,44,hard,plus,dotcolour,alfa,,,106,20,V,R,
549,45,3,13,4,36,44,1200,['n'],1,right,['9'],5,85,[-0.10217699],100,44,hard,plus,dotcolour,alfa,,,106,20,V,R,
550,46,4,13,4,53,27,999,['c'],1,left,['9'],5,147,[0.04206199],98,53,easy,plus,dotcolour,alfa,,,106,20,V,R,
551,47,5,13,4,27,53,1000,['n'],1,right,['9'],5,127,[-0.09932959],100,53,easy,plus,dotcolour,alfa,,,106,20,V,R,
552,48,6,13,4,33,47,950,['n'],1,right,['9'],5,140,[-0.06988796],100,47,medium,plus,dotcolour,alfa,,,106,20,V,R,
553,49,7,13,4,27,53,666,['n'],1,right,['9'],5,133,[-0.02106337],89,53,easy,plus,dotcolour,alfa,,,106,20,V,R,
554,50,8,13,4,53,27,1017,['c'],1,left,['9'],5,96,[0.07742453],100,53,easy,plus,dotcolour,alfa,,,106,20,V,R,
555,51,9,13,4,44,36,1233,['c'],1,left,['9'],5,92,[0.08587178],100,44,hard,plus,dotcolour,alfa,,,106,20,V,R,
556,52,10,13,4,44,36,2017,['c'],1,left,['9'],5,97,[0.07824933],100,44,hard,plus,dotcolour,alfa,,,106,20,V,R,
557,53,11,13,4,36,44,1100,['n'],1,right,['9'],5,578,[0.01930323],29,44,hard,plus,dotcolour,alfa,,,106,20,V,R,
558,54,12,13,4,33,47,817,['n'],1,right,['9'],5,284,[-0.07259819],99,47,medium,plus,dotcolour,alfa,,,106,20,V,R,
559,55,13,13,4,33,47,717,['n'],1,right,['9'],5,261,[0.01837026],22,47,medium,plus,dotcolour,alfa,,,106,20,V,R,
560,56,14,13,4,33,47,834,['n'],1,right,['9'],5,306,[-0.1866447],100,47,medium,plus,dotcolour,alfa,,,106,20,V,R,
561,57,15,13,4,33,47,850,['n'],1,right,['9'],5,333,[-0.14417094],100,47,medium,plus,dotcolour,alfa,,,106,20,V,R,
562,58,16,13,4,47,33,817,['c'],1,left,['9'],5,240,[0.05201732],98,47,medium,plus,dotcolour,alfa,,,106,20,V,R,
563,59,17,13,4,53,27,767,['c'],1,left,['9'],5,241,[0.1207035],100,53,easy,plus,dotcolour,alfa,,,106,20,V,R,
564,60,18,13,4,27,53,683,['n'],1,right,['9'],5,294,[-0.08914818],100,53,easy,plus,dotcolour,alfa,,,106,20,V,R,
565,61,19,13,4,47,33,834,['c'],1,left,['9'],5,265,[0.05172798],97,47,medium,plus,dotcolour,alfa,,,106,20,V,R,
566,62,20,13,4,53,27,584,['c'],1,left,['9'],5,305,[0.12332135],100,53,easy,plus,dotcolour,alfa,,,106,20,V,R,
567,63,21,13,4,44,36,733,['c'],1,left,['9'],5,272,[0.14098829],100,44,hard,plus,dotcolour,alfa,,,106,20,V,R,
568,64,22,13,4,53,27,599,['c'],1,left,['9'],5,231,[0.13945387],100,53,easy,plus,dotcolour,alfa,,,106,20,V,R,
569,65,23,13,4,27,53,717,['n'],1,right,['9'],5,218,[-0.1378797],100,53,easy,plus,dotcolour,alfa,,,106,20,V,R,
570,66,24,13,4,47,33,784,['c'],1,left,['9'],5,211,[0.02734332],90,47,medium,plus,dotcolour,alfa,,,106,20,V,R,
571,67,25,13,4,44,36,817,['c'],1,left,['9'],5,267,[0.1950265],100,44,hard,plus,dotcolour,alfa,,,106,20,V,R,
572,68,26,13,4,36,44,783,['n'],1,right,['9'],5,259,[-0.0806117],100,44,hard,plus,dotcolour,alfa,,,106,20,V,R,
573,69,27,13,4,44,36,1150,['c'],1,left,['9'],5,251,[0.12812086],100,44,hard,plus,dotcolour,alfa,,,106,20,V,R,
574,70,28,13,4,47,33,666,['c'],1,left,['9'],5,264,[0.220693],100,47,medium,plus,dotcolour,alfa,,,106,20,V,R,
575,71,29,13,4,33,47,833,['n'],1,right,['9'],5,245,[-0.15376852],100,47,medium,plus,dotcolour,alfa,,,106,20,V,R,
576,72,30,13,4,44,36,801,['c'],1,left,['9'],5,205,[0.00431262],58,44,hard,plus,dotcolour,alfa,,,106,20,V,R,
577,73,31,13,4,27,53,583,['n'],1,right,['9'],5,248,[-0.08538971],100,53,easy,plus,dotcolour,alfa,,,106,20,V,R,
578,74,32,13,4,27,53,517,['n'],1,right,['9'],5,250,[-0.07514747],100,53,easy,plus,dotcolour,alfa,,,106,20,V,R,
579,75,33,13,4,36,44,532,['n'],1,right,['9'],5,252,[-0.13127593],100,44,hard,plus,dotcolour,alfa,,,106,20,V,R,
580,76,34,13,4,53,27,917,['c'],1,left,['9'],5,263,[0.1333835],100,53,easy,plus,dotcolour,alfa,,,106,20,V,R,
581,77,35,13,4,36,44,1017,['n'],1,right,['9'],5,204,[-0.15010184],100,44,hard,plus,dotcolour,alfa,,,106,20,V,R,
582,78,36,13,4,36,44,734,['n'],1,right,['9'],5,281,[-0.06670054],99,44,hard,plus,dotcolour,alfa,,,106,20,V,R,
583,79,37,13,4,47,33,685,['c'],1,left,['9'],5,235,[0.10955359],100,47,medium,plus,dotcolour,alfa,,,106,20,V,R,
584,80,38,13,4,53,27,683,['c'],1,left,['9'],5,248,[0.021576],83,53,easy,plus,dotcolour,alfa,,,106,20,V,R,
585,81,39,13,4,36,44,699,['n'],1,right,['9'],5,195,[-0.02156785],85,44,hard,plus,dotcolour,alfa,,,106,20,V,R,
586,82,40,13,4,47,33,633,['c'],1,left,['9'],5,275,[0.10916973],100,47,medium,plus,dotcolour,alfa,,,106,20,V,R,
587,83,41,13,4,47,33,666,['c'],1,left,['9'],5,255,[0.07675552],100,47,medium,plus,dotcolour,alfa,,,106,20,V,R,
588,84,0,14,4,27,53,1567,['n'],1,right,['9'],5,188,[-0.07608136],100,53,easy,plus,dotcolour,alfa,,,106,20,V,R,
589,85,1,14,4,47,33,683,['c'],1,left,['9'],5,211,[0.09836715],100,47,medium,plus,dotcolour,alfa,,,106,20,V,R,
590,86,2,14,4,27,53,733,['n'],1,right,['9'],5,286,[-0.12238244],100,53,easy,plus,dotcolour,alfa,,,106,20,V,R,
591,87,3,14,4,27,53,567,['n'],1,right,['9'],5,285,[-0.09640553],100,53,easy,plus,dotcolour,alfa,,,106,20,V,R,
592,88,4,14,4,53,27,717,['c'],1,left,['9'],5,255,[0.09825417],100,53,easy,plus,dotcolour,alfa,,,106,20,V,R,
593,89,5,14,4,44,36,634,['c'],1,left,['9'],5,284,[0.10570668],100,44,hard,plus,dotcolour,alfa,,,106,20,V,R,
594,90,6,14,4,36,44,717,['c'],0,right,['9'],5,229,[0.09935131],100,44,hard,plus,dotcolour,alfa,,,106,20,V,R,
595,91,7,14,4,33,47,1100,['n'],1,right,['9'],5,121,[-0.10105034],100,47,medium,plus,dotcolour,alfa,,,106,20,V,R,
596,92,8,14,4,44,36,1034,['c'],1,left,['9'],5,269,[0.14669347],100,44,hard,plus,dotcolour,alfa,,,106,20,V,R,
597,93,9,14,4,33,47,534,['n'],1,right,['9'],5,270,[-0.0680376],99,47,medium,plus,dotcolour,alfa,,,106,20,V,R,
598,94,10,14,4,53,27,483,['c'],1,left,['9'],5,274,[0.10275214],100,53,easy,plus,dotcolour,alfa,,,106,20,V,R,
599,95,11,14,4,33,47,667,['n'],1,right,['9'],5,292,[-0.09456308],100,47,medium,plus,dotcolour,alfa,,,106,20,V,R,
600,96,12,14,4,36,44,550,['c'],0,right,['9'],5,316,[0.02842881],86,44,hard,plus,dotcolour,alfa,,,106,20,V,R,
601,97,13,14,4,47,33,416,['n'],0,left,['9'],5,264,[-0.0473123],96,47,medium,plus,dotcolour,alfa,,,106,20,V,R,
602,98,14,14,4,44,36,833,['c'],1,left,['9'],5,269,[0.09956748],100,44,hard,plus,dotcolour,alfa,,,106,20,V,R,
603,99,15,14,4,33,47,685,['n'],1,right,['9'],5,193,[-0.06762148],100,47,medium,plus,dotcolour,alfa,,,106,20,V,R,
604,100,16,14,4,44,36,617,['c'],1,left,['9'],5,290,[0.11373634],100,44,hard,plus,dotcolour,alfa,,,106,20,V,R,
605,101,17,14,4,33,47,601,['n'],1,right,['9'],5,359,[-0.12544622],100,47,medium,plus,dotcolour,alfa,,,106,20,V,R,
606,102,18,14,4,27,53,700,['n'],1,right,['9'],5,197,[0.04064781],4,53,easy,plus,dotcolour,alfa,,,106,20,V,R,
607,103,19,14,4,47,33,666,['c'],1,left,['9'],5,220,[0.12183861],100,47,medium,plus,dotcolour,alfa,,,106,20,V,R,
608,104,20,14,4,44,36,750,['c'],1,left,['9'],5,207,[0.11782273],100,44,hard,plus,dotcolour,alfa,,,106,20,V,R,
609,105,21,14,4,33,47,717,['n'],1,right,['9'],5,171,[-0.11557536],100,47,medium,plus,dotcolour,alfa,,,106,20,V,R,
610,106,22,14,4,27,53,816,['c'],0,right,['9'],5,309,[-0.03143113],12,53,easy,plus,dotcolour,alfa,,,106,20,V,R,
611,107,23,14,4,53,27,650,['c'],1,left,['9'],5,184,[0.09927137],100,53,easy,plus,dotcolour,alfa,,,106,20,V,R,
612,108,24,14,4,33,47,533,['n'],1,right,['9'],5,229,[-0.11705923],100,47,medium,plus,dotcolour,alfa,,,106,20,V,R,
613,109,25,14,4,27,53,616,['n'],1,right,['9'],5,228,[-0.01546315],76,53,easy,plus,dotcolour,alfa,,,106,20,V,R,
614,110,26,14,4,53,27,700,['c'],1,left,['9'],5,224,[0.06186509],99,53,easy,plus,dotcolour,alfa,,,106,20,V,R,
615,111,27,14,4,27,53,518,['n'],1,right,['9'],5,203,[-0.11620697],100,53,easy,plus,dotcolour,alfa,,,106,20,V,R,
616,112,28,14,4,36,44,600,['n'],1,right,['9'],5,204,[-0.01580308],78,44,hard,plus,dotcolour,alfa,,,106,20,V,R,
617,113,29,14,4,36,44,617,['n'],1,right,['9'],5,221,[-0.07280776],100,44,hard,plus,dotcolour,alfa,,,106,20,V,R,
618,114,30,14,4,36,44,2000,['n'],1,right,['8'],4,1326,[-0.13362298],98,44,hard,plus,dotcolour,alfa,,,106,20,V,R,
619,115,31,14,4,47,33,1851,['c'],1,left,['8'],4,272,[0.02871212],88,47,medium,plus,dotcolour,alfa,,,106,20,V,R,
620,116,32,14,4,47,33,917,['n'],0,left,['9'],5,313,[-0.05745366],98,47,medium,plus,dotcolour,alfa,,,106,20,V,R,
621,117,33,14,4,53,27,967,['c'],1,left,['8'],4,231,[0.08080154],100,53,easy,plus,dotcolour,alfa,,,106,20,V,R,
622,118,34,14,4,47,33,816,['c'],1,left,['8'],4,255,[0.0650898],99,47,medium,plus,dotcolour,alfa,,,106,20,V,R,
623,119,35,14,4,36,44,783,['c'],0,right,['9'],5,255,[0.13326198],100,44,hard,plus,dotcolour,alfa,,,106,20,V,R,
624,120,36,14,4,53,27,900,['c'],1,left,['8'],4,226,[0.10087661],100,53,easy,plus,dotcolour,alfa,,,106,20,V,R,
625,121,37,14,4,47,33,1233,['c'],1,left,['8'],4,337,[0.03148307],88,47,medium,plus,dotcolour,alfa,,,106,20,V,R,
626,122,38,14,4,44,36,600,['c'],1,left,['9'],5,277,[0.06834017],99,44,hard,plus,dotcolour,alfa,,,106,20,V,R,
627,123,39,14,4,53,27,699,['c'],1,left,['9'],5,334,[0.12149999],100,53,easy,plus,dotcolour,alfa,,,106,20,V,R,
628,124,40,14,4,44,36,950,['c'],1,left,['9'],5,189,[0.1308271],100,44,hard,plus,dotcolour,alfa,,,106,20,V,R,
629,125,41,14,4,36,44,901,['c'],0,right,['9'],5,203,[0.0785787],100,44,hard,plus,dotcolour,alfa,,,106,20,V,R,
630,0,0,15,5,36,44,1016,['n'],1,right,['9'],5,179,[-0.09436246],88,44,hard,minus,dotcolour,alfa,,,106,20,V,R,
631,1,1,15,5,53,27,834,['c'],1,left,['9'],5,220,[0.12146812],91,53,easy,minus,dotcolour,alfa,,,106,20,V,R,
632,2,2,15,5,27,53,850,['n'],1,right,['9'],5,267,[-0.1342372],91,53,easy,minus,dotcolour,alfa,,,106,20,V,R,
633,3,3,15,5,53,27,750,['c'],1,left,['8'],4,235,[0.05966824],75,53,easy,minus,dotcolour,alfa,,,106,20,V,R,
634,4,4,15,5,27,53,700,['n'],1,right,['9'],5,256,[-0.12941529],91,53,easy,minus,dotcolour,alfa,,,106,20,V,R,
635,5,5,15,5,44,36,817,['c'],1,left,['8'],4,326,[0.10923947],85,44,hard,minus,dotcolour,alfa,,,106,20,V,R,
636,6,6,15,5,36,44,1117,['c'],0,right,['9'],5,197,[0.05893244],77,44,hard,minus,dotcolour,alfa,,,106,20,V,R,
637,7,7,15,5,44,36,700,['c'],1,left,['1'],1,3739,[0.31112996],81,44,hard,minus,dotcolour,alfa,,,106,20,V,R,
638,8,8,15,5,53,27,1633,['c'],1,left,['9'],5,268,[0.01452555],56,53,easy,minus,dotcolour,alfa,,,106,20,V,R,
639,9,9,15,5,47,33,816,['c'],1,left,['8'],4,266,[0.06473754],76,47,medium,minus,dotcolour,alfa,,,106,20,V,R,
640,10,10,15,5,33,47,700,['n'],1,right,['9'],5,284,[-0.10718046],86,47,medium,minus,dotcolour,alfa,,,106,20,V,R,
641,11,11,15,5,53,27,767,['c'],1,left,['9'],5,372,[0.12087567],86,53,easy,minus,dotcolour,alfa,,,106,20,V,R,
642,12,12,15,5,44,36,1034,['n'],0,left,['8'],4,253,[-0.10817651],87,44,hard,minus,dotcolour,alfa,,,106,20,V,R,
643,13,13,15,5,53,27,1516,['c'],1,left,['8'],4,207,[0.0734993],81,53,easy,minus,dotcolour,alfa,,,106,20,V,R,
644,14,14,15,5,44,36,1650,['c'],1,left,['8'],4,342,[0.14877803],91,44,hard,minus,dotcolour,alfa,,,106,20,V,R,
645,15,15,15,5,27,53,1183,['n'],1,right,['9'],5,330,[-0.14175018],90,53,easy,minus,dotcolour,alfa,,,106,20,V,R,
646,16,16,15,5,44,36,716,['n'],0,left,['9'],5,209,[-0.0039912],52,44,hard,minus,dotcolour,alfa,,,106,20,V,R,
647,17,17,15,5,33,47,866,['n'],1,right,['9'],5,287,[-0.10116288],85,47,medium,minus,dotcolour,alfa,,,106,20,V,R,
648,18,18,15,5,47,33,934,['c'],1,left,['8'],4,240,[0.18005409],96,47,medium,minus,dotcolour,alfa,,,106,20,V,R,
649,19,19,15,5,27,53,1216,['n'],1,right,['9'],5,239,[0.02013338],41,53,easy,minus,dotcolour,alfa,,,106,20,V,R,
650,20,20,15,5,36,44,883,['c'],0,right,['8'],4,299,[0.12955557],89,44,hard,minus,dotcolour,alfa,,,106,20,V,R,
651,21,21,15,5,27,53,850,['n'],1,right,['9'],5,334,[-0.08922366],80,53,easy,minus,dotcolour,alfa,,,106,20,V,R,
652,22,22,15,5,36,44,650,['n'],1,right,['8'],4,248,[-0.07815248],80,44,hard,minus,dotcolour,alfa,,,106,20,V,R,
653,23,23,15,5,27,53,617,['n'],1,right,['9'],5,167,[-0.05308667],76,53,easy,minus,dotcolour,alfa,,,106,20,V,R,
654,24,24,15,5,47,33,850,['c'],1,left,['8'],4,295,[0.14725316],92,47,medium,minus,dotcolour,alfa,,,106,20,V,R,
655,25,25,15,5,47,33,717,['c'],1,left,['8'],4,272,[0.10506707],86,47,medium,minus,dotcolour,alfa,,,106,20,V,R,
656,26,26,15,5,44,36,833,['c'],1,left,['8'],4,237,[-0.02155618],40,44,hard,minus,dotcolour,alfa,,,106,20,V,R,
657,27,27,15,5,47,33,767,['c'],1,left,['9'],5,294,[0.16795377],94,47,medium,minus,dotcolour,alfa,,,106,20,V,R,
658,28,28,15,5,33,47,850,['c'],0,right,['9'],5,266,[0.07172876],78,47,medium,minus,dotcolour,alfa,,,106,20,V,R,
659,29,29,15,5,33,47,684,['n'],1,right,['9'],5,237,[-0.06772306],78,47,medium,minus,dotcolour,alfa,,,106,20,V,R,
660,30,30,15,5,44,36,1050,['c'],1,left,['8'],4,379,[0.01202148],54,44,hard,minus,dotcolour,alfa,,,106,20,V,R,
661,31,31,15,5,33,47,833,['c'],0,right,['8'],4,156,[0.03936875],71,47,medium,minus,dotcolour,alfa,,,106,20,V,R,
662,32,32,15,5,53,27,850,['c'],1,left,['8'],4,293,[0.08625703],81,53,easy,minus,dotcolour,alfa,,,106,20,V,R,
663,33,33,15,5,33,47,1034,['n'],1,right,['9'],5,233,[-0.16565865],96,47,medium,minus,dotcolour,alfa,,,106,20,V,R,
664,34,34,15,5,53,27,683,['c'],1,left,['8'],4,246,[0.07530245],80,53,easy,minus,dotcolour,alfa,,,106,20,V,R,
665,35,35,15,5,27,53,567,['n'],1,right,['9'],5,198,[0.00888836],46,53,easy,minus,dotcolour,alfa,,,106,20,V,R,
666,36,36,15,5,36,44,867,['c'],0,right,['8'],4,197,[0.04361972],71,44,hard,minus,dotcolour,alfa,,,106,20,V,R,
667,37,37,15,5,36,44,1334,['n'],1,right,['9'],5,185,[0.04755344],27,44,hard,minus,dotcolour,alfa,,,106,20,V,R,
668,38,38,15,5,47,33,3966,['c'],1,left,['9'],5,269,[0.09067325],83,47,medium,minus,dotcolour,alfa,,,106,20,V,R,
669,39,39,15,5,33,47,1683,['n'],1,right,['9'],5,224,[-0.10138625],87,47,medium,minus,dotcolour,alfa,,,106,20,V,R,
670,40,40,15,5,36,44,918,['n'],1,right,['9'],5,363,[-0.07997981],77,44,hard,minus,dotcolour,alfa,,,106,20,V,R,
671,41,41,15,5,47,33,717,['c'],1,left,['8'],4,249,[0.05929667],74,47,medium,minus,dotcolour,alfa,,,106,20,V,R,
672,42,0,16,5,53,27,1085,['c'],1,left,['8'],4,201,[0.1544936],96,53,easy,minus,dotcolour,alfa,,,106,20,V,R,
673,43,1,16,5,27,53,1484,['n'],1,right,['9'],5,350,[-0.14388618],90,53,easy,minus,dotcolour,alfa,,,106,20,V,R,
674,44,2,16,5,33,47,833,['n'],1,right,['9'],5,232,[-0.05926011],75,47,medium,minus,dotcolour,alfa,,,106,20,V,R,
675,45,3,16,5,33,47,650,['n'],1,right,['9'],5,447,[-0.19593318],93,47,medium,minus,dotcolour,alfa,,,106,20,V,R,
676,46,4,16,5,33,47,367,['n'],1,right,['9'],5,239,[-0.09668631],86,47,medium,minus,dotcolour,alfa,,,106,20,V,R,
677,47,5,16,5,44,36,1250,['n'],0,left,['9'],5,365,[-0.07281586],75,44,hard,minus,dotcolour,alfa,,,106,20,V,R,
678,48,6,16,5,33,47,416,['n'],1,right,['9'],5,215,[-0.06583867],78,47,medium,minus,dotcolour,alfa,,,106,20,V,R,
679,49,7,16,5,53,27,433,['n'],0,left,['9'],5,175,[0.01551789],42,53,easy,minus,dotcolour,alfa,,,106,20,V,R,
680,50,8,16,5,33,47,350,['c'],0,right,['9'],5,202,[0.02922823],64,47,medium,minus,dotcolour,alfa,,,106,20,V,R,
681,51,9,16,5,36,44,1183,['n'],1,right,['9'],5,388,[-0.17086702],92,44,hard,minus,dotcolour,alfa,,,106,20,V,R,
682,52,10,16,5,44,36,249,['n'],0,left,['9'],5,115,[-0.10609432],94,44,hard,minus,dotcolour,alfa,,,106,20,V,R,
683,53,11,16,5,47,33,933,['n'],0,left,['9'],5,251,[-0.08232195],81,47,medium,minus,dotcolour,alfa,,,106,20,V,R,
684,54,12,16,5,27,53,1601,['c'],0,right,['9'],5,283,[-0.00617479],47,53,easy,minus,dotcolour,alfa,,,106,20,V,R,
685,55,13,16,5,44,36,50,['n'],0,left,['9'],5,73,[-0.04348318],81,44,hard,minus,dotcolour,alfa,,,106,20,V,R,
686,56,14,16,5,33,47,1433,['c'],0,right,['9'],5,326,[0.06576704],74,47,medium,minus,dotcolour,alfa,,,106,20,V,R,
687,57,15,16,5,36,44,332,['c'],0,right,['9'],5,197,[0.04410701],71,44,hard,minus,dotcolour,alfa,,,106,20,V,R,
688,58,16,16,5,27,53,3733,['c'],0,right,['9'],5,321,[-0.03857377],35,53,easy,minus,dotcolour,alfa,,,106,20,V,R,
689,59,17,16,5,44,36,3850,['c'],1,left,['9'],5,275,[0.07728145],79,44,hard,minus,dotcolour,alfa,,,106,20,V,R,
690,60,18,16,5,53,27,1783,['c'],1,left,['9'],5,210,[0.05713961],75,53,easy,minus,dotcolour,alfa,,,106,20,V,R,
691,61,19,16,5,36,44,1517,['c'],0,right,['0'],6,294,[0.03660766],65,44,hard,minus,dotcolour,alfa,,,106,20,V,R,
692,62,20,16,5,27,53,1400,['c'],0,right,['9'],5,363,[-0.03739925],36,53,easy,minus,dotcolour,alfa,,,106,20,V,R,
693,63,21,16,5,47,33,833,['c'],1,left,['9'],5,84,[0.09516638],95,47,medium,minus,dotcolour,alfa,,,106,20,V,R,
694,64,22,16,5,36,44,534,['n'],1,right,['9'],5,381,[-0.02180184],58,44,hard,minus,dotcolour,alfa,,,106,20,V,R,
695,65,23,16,5,47,33,160,['n'],0,left,['9'],5,1032,[0.13944635],23,47,medium,minus,dotcolour,alfa,,,106,20,V,R,
696,66,24,16,5,47,33,751,['c'],1,left,['9'],5,233,[0.16893944],96,47,medium,minus,dotcolour,alfa,,,106,20,V,R,
697,67,25,16,5,53,27,617,['c'],1,left,['9'],5,256,[0.086018],82,53,easy,minus,dotcolour,alfa,,,106,20,V,R,
698,68,26,16,5,27,53,384,['n'],1,right,['9'],5,280,[-0.15683734],94,53,easy,minus,dotcolour,alfa,,,106,20,V,R,
699,69,27,16,5,36,44,583,['n'],1,right,['9'],5,199,[-0.12317143],92,44,hard,minus,dotcolour,alfa,,,106,20,V,R,
700,70,28,16,5,44,36,649,['c'],1,left,['9'],5,198,[0.09880574],88,44,hard,minus,dotcolour,alfa,,,106,20,V,R,
701,71,29,16,5,33,47,384,['n'],1,right,['9'],5,264,[-0.05722236],73,47,medium,minus,dotcolour,alfa,,,106,20,V,R,
702,72,30,16,5,44,36,368,['n'],0,left,['9'],5,289,[-0.04053719],66,44,hard,minus,dotcolour,alfa,,,106,20,V,R,
703,73,31,16,5,53,27,316,['c'],1,left,['9'],5,785,[-0.02816784],43,53,easy,minus,dotcolour,alfa,,,106,20,V,R,
704,74,32,16,5,47,33,367,['c'],1,left,['9'],5,205,[0.09158835],86,47,medium,minus,dotcolour,alfa,,,106,20,V,R,
705,75,33,16,5,47,33,384,['n'],0,left,['9'],5,262,[0.00734628],47,47,medium,minus,dotcolour,alfa,,,106,20,V,R,
706,76,34,16,5,44,36,367,['c'],1,left,['8'],4,342,[0.05673456],71,44,hard,minus,dotcolour,alfa,,,106,20,V,R,
707,77,35,16,5,53,27,367,['c'],1,left,['8'],4,339,[0.13113814],88,53,easy,minus,dotcolour,alfa,,,106,20,V,R,
708,78,36,16,5,27,53,633,['n'],1,right,['8'],4,277,[-0.13578608],91,53,easy,minus,dotcolour,alfa,,,106,20,V,R,
709,79,37,16,5,47,33,467,['n'],0,left,['8'],4,208,[-0.0037121],52,47,medium,minus,dotcolour,alfa,,,106,20,V,R,
710,80,38,16,5,53,27,517,['c'],1,left,['8'],4,188,[0.03520282],67,53,easy,minus,dotcolour,alfa,,,106,20,V,R,
711,81,39,16,5,27,53,733,['n'],1,right,['9'],5,201,[-0.05492057],75,53,easy,minus,dotcolour,alfa,,,106,20,V,R,
712,82,40,16,5,36,44,683,['n'],1,right,['9'],5,71,[-0.05040659],85,44,hard,minus,dotcolour,alfa,,,106,20,V,R,
713,83,41,16,5,36,44,550,['n'],1,right,['9'],5,208,[-0.07897409],83,44,hard,minus,dotcolour,alfa,,,106,20,V,R,
714,84,0,17,5,27,53,2100,['n'],1,right,['8'],4,231,[-0.20065787],98,53,easy,minus,dotcolour,alfa,,,106,20,V,R,
715,85,1,17,5,47,33,3366,['c'],1,left,['8'],4,648,[0.09306502],74,47,medium,minus,dotcolour,alfa,,,106,20,V,R,
716,86,2,17,5,36,44,1567,['n'],1,right,['8'],4,50,[-0.09987827],98,44,hard,minus,dotcolour,alfa,,,106,20,V,R,
717,87,3,17,5,27,53,899,['c'],0,right,['9'],5,196,[-0.00588309],47,53,easy,minus,dotcolour,alfa,,,106,20,V,R,
718,88,4,17,5,33,47,300,['c'],0,right,['9'],5,258,[0.09631724],85,47,medium,minus,dotcolour,alfa,,,106,20,V,R,
719,89,5,17,5,47,33,366,['c'],1,left,['9'],5,210,[0.02521224],62,47,medium,minus,dotcolour,alfa,,,106,20,V,R,
720,90,6,17,5,33,47,1617,['n'],1,right,['9'],5,90,[-0.06703293],88,47,medium,minus,dotcolour,alfa,,,106,20,V,R,
721,91,7,17,5,44,36,551,['n'],0,left,['8'],4,89,[-0.11188658],97,44,hard,minus,dotcolour,alfa,,,106,20,V,R,
722,92,8,17,5,47,33,366,['c'],1,left,['9'],5,136,[0.1188408],95,47,medium,minus,dotcolour,alfa,,,106,20,V,R,
723,93,9,17,5,44,36,849,['c'],1,left,['9'],5,283,[0.11350784],87,44,hard,minus,dotcolour,alfa,,,106,20,V,R,
724,94,10,17,5,36,44,234,['n'],1,right,['8'],4,80,[-0.05493489],85,44,hard,minus,dotcolour,alfa,,,106,20,V,R,
725,95,11,17,5,53,27,567,['c'],1,left,['9'],5,415,[0.07857483],75,53,easy,minus,dotcolour,alfa,,,106,20,V,R,
726,96,12,17,5,44,36,1734,['c'],1,left,['8'],4,546,[0.16080572],88,44,hard,minus,dotcolour,alfa,,,106,20,V,R,
727,97,13,17,5,44,36,917,['c'],1,left,['9'],5,577,[0.13866999],84,44,hard,minus,dotcolour,alfa,,,106,20,V,R,
728,98,14,17,5,33,47,249,['n'],1,right,['8'],4,169,[-0.07850344],85,47,medium,minus,dotcolour,alfa,,,106,20,V,R,
729,99,15,17,5,53,27,717,['n'],0,left,['9'],5,295,[-0.0874605],81,53,easy,minus,dotcolour,alfa,,,106,20,V,R,
730,100,16,17,5,47,33,300,['c'],1,left,['0'],6,88,[0.03495316],74,47,medium,minus,dotcolour,alfa,,,106,20,V,R,
731,101,17,17,5,33,47,434,['c'],0,right,['8'],4,693,[0.03112374],58,47,medium,minus,dotcolour,alfa,,,106,20,V,R,
732,102,18,17,5,27,53,567,['c'],0,right,['8'],4,676,[-0.13470715],19,53,easy,minus,dotcolour,alfa,,,106,20,V,R,
733,103,19,17,5,27,53,667,['n'],1,right,['8'],4,143,[-0.04599597],75,53,easy,minus,dotcolour,alfa,,,106,20,V,R,
734,104,20,17,5,36,44,19,['n'],1,right,['8'],4,91,[-0.11682882],97,44,hard,minus,dotcolour,alfa,,,106,20,V,R,
735,105,21,17,5,36,44,767,['n'],1,right,['8'],4,569,[0.00523907],48,44,hard,minus,dotcolour,alfa,,,106,20,V,R,
736,106,22,17,5,36,44,149,['n'],1,right,['8'],4,437,[-0.12240562],84,44,hard,minus,dotcolour,alfa,,,106,20,V,R,
737,107,23,17,5,36,44,141,['n'],1,right,['8'],4,92,[-0.08509274],93,44,hard,minus,dotcolour,alfa,,,106,20,V,R,
738,108,24,17,5,53,27,517,['n'],0,left,['9'],5,132,[-0.04428653],75,53,easy,minus,dotcolour,alfa,,,106,20,V,R,
739,109,25,17,5,47,33,850,['n'],0,left,['8'],4,799,[-0.10461421],74,47,medium,minus,dotcolour,alfa,,,106,20,V,R,
740,110,26,17,5,44,36,233,['c'],1,left,['8'],4,103,[0.11635653],96,44,hard,minus,dotcolour,alfa,,,106,20,V,R,
741,111,27,17,5,27,53,999,['n'],1,right,['9'],5,124,[-0.08280484],89,53,easy,minus,dotcolour,alfa,,,106,20,V,R,
742,112,28,17,5,33,47,550,['c'],0,right,['9'],5,298,[0.01605858],57,47,medium,minus,dotcolour,alfa,,,106,20,V,R,
743,113,29,17,5,36,44,416,['n'],1,right,['9'],5,958,[-0.04176425],59,44,hard,minus,dotcolour,alfa,,,106,20,V,R,
744,114,30,17,5,27,53,917,['n'],1,right,['9'],5,821,[-0.20765444],89,53,easy,minus,dotcolour,alfa,,,106,20,V,R,
745,115,31,17,5,44,36,550,['n'],0,left,['9'],5,662,[-0.1474946],84,44,hard,minus,dotcolour,alfa,,,106,20,V,R,
746,116,32,17,5,47,33,334,['n'],0,left,['9'],5,169,[0.03869838],30,47,medium,minus,dotcolour,alfa,,,106,20,V,R,
747,117,33,17,5,53,27,351,['n'],0,left,['9'],5,124,[-0.08227424],89,53,easy,minus,dotcolour,alfa,,,106,20,V,R,
748,118,34,17,5,53,27,1950,['n'],0,left,['9'],5,43,[-0.0648645],94,53,easy,minus,dotcolour,alfa,,,106,20,V,R,
749,119,35,17,5,53,27,350,['n'],0,left,['9'],5,1692,[0.03619488],44,53,easy,minus,dotcolour,alfa,,,106,20,V,R,
750,120,36,17,5,53,27,350,['n'],0,left,['9'],5,5444,[1.02643533],2,53,easy,minus,dotcolour,alfa,,,106,20,V,R,
751,121,37,17,5,44,36,1467,['n'],0,left,['9'],5,863,[-0.0833708],69,44,hard,minus,dotcolour,alfa,,,106,20,V,R,
752,122,38,17,5,33,47,401,['n'],1,right,['8'],4,246,[-0.12992761],91,47,medium,minus,dotcolour,alfa,,,106,20,V,R,
753,123,39,17,5,33,47,550,['n'],1,right,['8'],4,119,[-0.02609664],66,47,medium,minus,dotcolour,alfa,,,106,20,V,R,
754,124,40,17,5,47,33,30,['n'],0,left,['9'],5,204,[-0.04051957],69,47,medium,minus,dotcolour,alfa,,,106,20,V,R,
755,125,41,17,5,27,53,1517,['n'],1,right,['9'],5,472,[-0.04352734],64,53,easy,minus,dotcolour,alfa,,,106,20,V,R,
,,,,,,,,,,,,,,,,,,,,,1,"soms was het makkelijk 100 te halen hele tijd en dan weer niet terwijl ik zelfd
e taktiek bleef toepassen ",106,20,V,R,
,,,,,,,,,,,,,,,,,,,,,2,['d'],106,20,V,R,
,,,,,,,,,,,,,,,,,,,,,3,['d'],106,20,V,R,
,,,,,,,,,,,,,,,,,,,,,5,['1'],106,20,V,R,
