trial,withinphasetrial,withinblocktrial,block,phase,dotsLeft,dotsRight,rt,resp,cor,cresp,conf_press,cj,RTconf,ev,fb,diff,difflevel,condition,task,manip,questionID,questionResp,sub,age,gender,handedness,
0,0,0,0,0,27,53,4734,['n'],1,right,['8'],4,1880,[-0.46424504],95,53,easy,minus,dotcolour,alfa,,,91,27,M,R,
1,1,1,0,0,36,44,2168,['n'],1,right,['3'],3,2406,[-0.35785319],89,44,hard,minus,dotcolour,alfa,,,91,27,M,R,
2,2,2,0,0,36,44,1900,['c'],0,right,['3'],3,1219,[0.08086216],66,44,hard,minus,dotcolour,alfa,,,91,27,M,R,
3,3,3,0,0,33,47,2883,['c'],0,right,['8'],4,1223,[-0.08706927],33,47,medium,minus,dotcolour,alfa,,,91,27,M,R,
4,4,4,0,0,53,27,2032,['c'],1,left,['0'],6,1022,[0.20559273],86,53,easy,minus,dotcolour,alfa,,,91,27,M,R,
5,5,5,0,0,27,53,1284,['n'],1,right,['0'],6,1154,[-0.37843358],96,53,easy,minus,dotcolour,alfa,,,91,27,M,R,
6,6,6,0,0,44,36,2768,['c'],1,left,['8'],4,2214,[0.14588989],71,44,hard,minus,dotcolour,alfa,,,91,27,M,R,
7,7,7,0,0,47,33,2217,['c'],1,left,['3'],3,1006,[0.1605179],81,47,medium,minus,dotcolour,alfa,,,91,27,M,R,
8,8,8,0,0,27,53,3184,['n'],1,right,['0'],6,1488,[-0.27395079],88,53,easy,minus,dotcolour,alfa,,,91,27,M,R,
9,9,9,0,0,44,36,2284,['c'],1,left,['3'],3,1993,[0.1323272],70,44,hard,minus,dotcolour,alfa,,,91,27,M,R,
10,10,10,0,0,44,36,1466,['n'],0,left,['0'],6,488,[-0.1413817],86,44,hard,minus,dotcolour,alfa,,,91,27,M,R,
11,11,11,0,0,53,27,1183,['c'],1,left,['0'],6,869,[0.25721521],92,53,easy,minus,dotcolour,alfa,,,91,27,M,R,
12,12,12,0,0,44,36,3767,['n'],0,left,['3'],3,981,[0.18180666],16,44,hard,minus,dotcolour,alfa,,,91,27,M,R,
13,13,13,0,0,33,47,3166,['n'],1,right,['3'],3,1432,[-0.203872],82,47,medium,minus,dotcolour,alfa,,,91,27,M,R,
14,14,14,0,0,33,47,900,['n'],1,right,['0'],6,419,[-0.0803091],75,47,medium,minus,dotcolour,alfa,,,91,27,M,R,
15,15,15,0,0,47,33,1317,['c'],1,left,['0'],6,416,[0.13102469],86,47,medium,minus,dotcolour,alfa,,,91,27,M,R,
16,16,16,0,0,27,53,1284,['n'],1,right,['0'],6,292,[-0.12488424],89,53,easy,minus,dotcolour,alfa,,,91,27,M,R,
17,17,17,0,0,44,36,866,['n'],0,left,['0'],6,263,[-0.11040735],87,44,hard,minus,dotcolour,alfa,,,91,27,M,R,
18,18,18,0,0,47,33,884,['c'],1,left,['0'],6,347,[0.05969738],71,47,medium,minus,dotcolour,alfa,,,91,27,M,R,
19,19,19,0,0,33,47,3134,['n'],1,right,['0'],6,425,[-0.05062005],67,47,medium,minus,dotcolour,alfa,,,91,27,M,R,
20,20,20,0,0,36,44,1185,['c'],0,right,['8'],4,561,[0.00112236],50,44,hard,minus,dotcolour,alfa,,,91,27,M,R,
21,21,21,0,0,27,53,1133,['n'],1,right,['0'],6,175,[-0.0510707],75,53,easy,minus,dotcolour,alfa,,,91,27,M,R,
22,22,22,0,0,53,27,733,['c'],1,left,['0'],6,396,[0.13480156],87,53,easy,minus,dotcolour,alfa,,,91,27,M,R,
23,23,23,0,0,36,44,1216,['n'],1,right,['0'],6,269,[-0.20287357],97,44,hard,minus,dotcolour,alfa,,,91,27,M,R,
24,24,24,0,0,36,44,867,['n'],1,right,['0'],6,632,[-0.33690506],98,44,hard,minus,dotcolour,alfa,,,91,27,M,R,
25,25,25,0,0,47,33,816,['c'],1,left,['8'],4,1096,[0.10483071],71,47,medium,minus,dotcolour,alfa,,,91,27,M,R,
26,26,26,0,0,47,33,1500,['c'],1,left,['8'],4,689,[0.07466954],69,47,medium,minus,dotcolour,alfa,,,91,27,M,R,
27,27,27,0,0,33,47,2166,['c'],0,right,['3'],3,1424,[-0.24648628],13,47,medium,minus,dotcolour,alfa,,,91,27,M,R,
28,28,28,0,0,33,47,950,['n'],1,right,['0'],6,266,[-0.01952345],58,47,medium,minus,dotcolour,alfa,,,91,27,M,R,
29,29,29,0,0,27,53,950,['n'],1,right,['0'],6,507,[-0.17569464],90,53,easy,minus,dotcolour,alfa,,,91,27,M,R,
30,30,30,0,0,36,44,750,['n'],1,right,['0'],6,210,[-0.09055851],86,44,hard,minus,dotcolour,alfa,,,91,27,M,R,
31,31,31,0,0,53,27,884,['c'],1,left,['0'],6,278,[0.23175585],98,53,easy,minus,dotcolour,alfa,,,91,27,M,R,
32,32,32,0,0,27,53,750,['n'],1,right,['0'],6,151,[-0.04463861],74,53,easy,minus,dotcolour,alfa,,,91,27,M,R,
33,33,33,0,0,53,27,733,['c'],1,left,['0'],6,284,[0.12786957],90,53,easy,minus,dotcolour,alfa,,,91,27,M,R,
34,34,34,0,0,53,27,800,['c'],1,left,['0'],6,251,[0.05395864],72,53,easy,minus,dotcolour,alfa,,,91,27,M,R,
35,35,35,0,0,47,33,1367,['c'],1,left,['8'],4,443,[0.21497212],95,47,medium,minus,dotcolour,alfa,,,91,27,M,R,
36,36,36,0,0,44,36,933,['c'],1,left,['0'],6,125,[0.04765758],77,44,hard,minus,dotcolour,alfa,,,91,27,M,R,
37,37,37,0,0,44,36,800,['c'],1,left,['0'],6,153,[0.04819224],75,44,hard,minus,dotcolour,alfa,,,91,27,M,R,
38,38,38,0,0,33,47,1383,['n'],1,right,['3'],3,893,[-0.25943107],92,47,medium,minus,dotcolour,alfa,,,91,27,M,R,
39,39,39,0,0,47,33,2116,['c'],1,left,['3'],3,414,[0.06786766],72,47,medium,minus,dotcolour,alfa,,,91,27,M,R,
40,40,40,0,0,53,27,1399,['c'],1,left,['8'],4,959,[0.19374366],86,53,easy,minus,dotcolour,alfa,,,91,27,M,R,
41,41,41,0,0,36,44,1533,['n'],1,right,['0'],6,140,[-0.12679704],95,44,hard,minus,dotcolour,alfa,,,91,27,M,R,
42,42,0,1,0,36,44,968,['n'],1,right,['0'],6,109,[-0.05906899],83,44,hard,minus,dotcolour,alfa,,,91,27,M,R,
43,43,1,1,0,36,44,700,['n'],1,right,['0'],6,118,[-0.11589823],95,44,hard,minus,dotcolour,alfa,,,91,27,M,R,
44,44,2,1,0,47,33,816,['c'],1,left,['0'],6,82,[0.1539696],99,47,medium,minus,dotcolour,alfa,,,91,27,M,R,
45,45,3,1,0,53,27,917,['c'],1,left,['0'],6,75,[0.09369744],96,53,easy,minus,dotcolour,alfa,,,91,27,M,R,
46,46,4,1,0,53,27,733,['c'],1,left,['0'],6,100,[0.13116466],98,53,easy,minus,dotcolour,alfa,,,91,27,M,R,
47,47,5,1,0,33,47,883,['n'],1,right,['0'],6,78,[-0.10745481],97,47,medium,minus,dotcolour,alfa,,,91,27,M,R,
48,48,6,1,0,47,33,800,['c'],1,left,['0'],6,84,[0.09178098],95,47,medium,minus,dotcolour,alfa,,,91,27,M,R,
49,49,7,1,0,36,44,1084,['c'],0,right,['0'],6,127,[0.10010839],93,44,hard,minus,dotcolour,alfa,,,91,27,M,R,
50,50,8,1,0,44,36,1034,['c'],1,left,['0'],6,114,[0.10740779],95,44,hard,minus,dotcolour,alfa,,,91,27,M,R,
51,51,9,1,0,44,36,783,['n'],0,left,['0'],6,167,[-0.06999425],82,44,hard,minus,dotcolour,alfa,,,91,27,M,R,
52,52,10,1,0,47,33,1166,['c'],1,left,['0'],6,236,[0.10164031],87,47,medium,minus,dotcolour,alfa,,,91,27,M,R,
53,53,11,1,0,27,53,784,['n'],1,right,['0'],6,147,[-0.15793954],98,53,easy,minus,dotcolour,alfa,,,91,27,M,R,
54,54,12,1,0,33,47,1099,['n'],1,right,['9'],5,155,[-0.05532609],78,47,medium,minus,dotcolour,alfa,,,91,27,M,R,
55,55,13,1,0,27,53,900,['n'],1,right,['0'],6,107,[-0.09714763],94,53,easy,minus,dotcolour,alfa,,,91,27,M,R,
56,56,14,1,0,44,36,2750,['n'],0,left,['8'],4,368,[-0.03101364],61,44,hard,minus,dotcolour,alfa,,,91,27,M,R,
57,57,15,1,0,44,36,916,['c'],1,left,['9'],5,2327,[0.30855727],86,44,hard,minus,dotcolour,alfa,,,91,27,M,R,
58,58,16,1,0,33,47,883,['n'],1,right,['0'],6,95,[-0.06918888],88,47,medium,minus,dotcolour,alfa,,,91,27,M,R,
59,59,17,1,0,47,33,1833,['c'],1,left,['9'],5,99,[0.06631957],87,47,medium,minus,dotcolour,alfa,,,91,27,M,R,
60,60,18,1,0,36,44,883,['c'],0,right,['9'],5,141,[0.0449582],75,44,hard,minus,dotcolour,alfa,,,91,27,M,R,
61,61,19,1,0,27,53,766,['c'],0,right,['0'],6,98,[0.0627527],86,53,easy,minus,dotcolour,alfa,,,91,27,M,R,
62,62,20,1,0,47,33,1534,['c'],1,left,['0'],6,946,[0.39321776],97,47,medium,minus,dotcolour,alfa,,,91,27,M,R,
63,63,21,1,0,44,36,1199,['c'],1,left,['8'],4,229,[0.05046469],72,44,hard,minus,dotcolour,alfa,,,91,27,M,R,
64,64,22,1,0,33,47,3600,['c'],0,right,['8'],4,1734,[0.13241656],71,47,medium,minus,dotcolour,alfa,,,91,27,M,R,
65,65,23,1,0,53,27,850,['c'],1,left,['0'],6,183,[0.09013934],87,53,easy,minus,dotcolour,alfa,,,91,27,M,R,
66,66,24,1,0,27,53,817,['c'],0,right,['0'],6,64,[0.07982656],94,53,easy,minus,dotcolour,alfa,,,91,27,M,R,
67,67,25,1,0,27,53,583,['c'],0,right,['0'],6,55,[0.05303075],88,53,easy,minus,dotcolour,alfa,,,91,27,M,R,
68,68,26,1,0,44,36,1417,['c'],1,left,['8'],4,1750,[0.07212866],62,44,hard,minus,dotcolour,alfa,,,91,27,M,R,
69,69,27,1,0,33,47,1668,['n'],1,right,['0'],6,142,[-0.12325765],95,47,medium,minus,dotcolour,alfa,,,91,27,M,R,
70,70,28,1,0,44,36,1299,['n'],0,left,['9'],5,766,[-0.01645397],54,44,hard,minus,dotcolour,alfa,,,91,27,M,R,
71,71,29,1,0,36,44,884,['c'],0,right,['9'],5,117,[0.07231453],87,44,hard,minus,dotcolour,alfa,,,91,27,M,R,
72,72,30,1,0,53,27,1567,['c'],1,left,['0'],6,603,[0.14581357],84,53,easy,minus,dotcolour,alfa,,,91,27,M,R,
73,73,31,1,0,27,53,933,['c'],0,right,['0'],6,102,[0.06956181],88,53,easy,minus,dotcolour,alfa,,,91,27,M,R,
74,74,32,1,0,53,27,1717,['c'],1,left,['0'],6,111,[0.11191573],95,53,easy,minus,dotcolour,alfa,,,91,27,M,R,
75,75,33,1,0,33,47,967,['n'],1,right,['0'],6,117,[-0.07747415],88,47,medium,minus,dotcolour,alfa,,,91,27,M,R,
76,76,34,1,0,47,33,1183,['c'],1,left,['8'],4,170,[0.08142277],86,47,medium,minus,dotcolour,alfa,,,91,27,M,R,
77,77,35,1,0,36,44,883,['c'],0,right,['0'],6,65,[0.06531168],91,44,hard,minus,dotcolour,alfa,,,91,27,M,R,
78,78,36,1,0,33,47,1333,['n'],1,right,['9'],5,427,[-0.08755294],77,47,medium,minus,dotcolour,alfa,,,91,27,M,R,
79,79,37,1,0,53,27,967,['c'],1,left,['9'],5,548,[0.1241079],82,53,easy,minus,dotcolour,alfa,,,91,27,M,R,
80,80,38,1,0,47,33,1367,['c'],1,left,['9'],5,585,[0.22368263],93,47,medium,minus,dotcolour,alfa,,,91,27,M,R,
81,81,39,1,0,53,27,800,['c'],1,left,['0'],6,107,[0.1072168],95,53,easy,minus,dotcolour,alfa,,,91,27,M,R,
82,82,40,1,0,36,44,1200,['n'],1,right,['9'],5,360,[-0.08275576],78,44,hard,minus,dotcolour,alfa,,,91,27,M,R,
83,83,41,1,0,27,53,900,['n'],1,right,['9'],5,230,[-0.11364211],89,53,easy,minus,dotcolour,alfa,,,91,27,M,R,
84,84,0,2,0,33,47,1451,['n'],1,right,['9'],5,235,[-0.07964099],81,47,medium,minus,dotcolour,alfa,,,91,27,M,R,
85,85,1,2,0,44,36,1417,['c'],1,left,['9'],5,83,[0.08623199],94,44,hard,minus,dotcolour,alfa,,,91,27,M,R,
86,86,2,2,0,33,47,683,['n'],1,right,['0'],6,246,[-0.04652975],70,47,medium,minus,dotcolour,alfa,,,91,27,M,R,
87,87,3,2,0,36,44,1467,['n'],1,right,['0'],6,122,[-0.07760105],88,44,hard,minus,dotcolour,alfa,,,91,27,M,R,
88,88,4,2,0,36,44,2050,['n'],1,right,['8'],4,644,[-0.0740614],70,44,hard,minus,dotcolour,alfa,,,91,27,M,R,
89,89,5,2,0,36,44,1767,['n'],1,right,['9'],5,253,[-0.11403421],88,44,hard,minus,dotcolour,alfa,,,91,27,M,R,
90,90,6,2,0,53,27,950,['c'],1,left,['0'],6,254,[0.11327573],88,53,easy,minus,dotcolour,alfa,,,91,27,M,R,
91,91,7,2,0,27,53,866,['n'],1,right,['0'],6,84,[-0.11645193],97,53,easy,minus,dotcolour,alfa,,,91,27,M,R,
92,92,8,2,0,33,47,700,['n'],1,right,['0'],6,125,[-0.0482261],77,47,medium,minus,dotcolour,alfa,,,91,27,M,R,
93,93,9,2,0,33,47,866,['n'],1,right,['0'],6,135,[-0.0495475],77,47,medium,minus,dotcolour,alfa,,,91,27,M,R,
94,94,10,2,0,47,33,2051,['n'],0,left,['8'],4,529,[-0.0846389],74,47,medium,minus,dotcolour,alfa,,,91,27,M,R,
95,95,11,2,0,33,47,800,['n'],1,right,['0'],6,85,[-0.07929618],92,47,medium,minus,dotcolour,alfa,,,91,27,M,R,
96,96,12,2,0,44,36,900,['c'],1,left,['9'],5,111,[0.09681021],93,44,hard,minus,dotcolour,alfa,,,91,27,M,R,
97,97,13,2,0,27,53,766,['n'],1,right,['9'],5,277,[-0.13156854],90,53,easy,minus,dotcolour,alfa,,,91,27,M,R,
98,98,14,2,0,53,27,866,['c'],1,left,['9'],5,640,[0.22430948],93,53,easy,minus,dotcolour,alfa,,,91,27,M,R,
99,99,15,2,0,53,27,1049,['c'],1,left,['9'],5,150,[0.14732256],97,53,easy,minus,dotcolour,alfa,,,91,27,M,R,
100,100,16,2,0,44,36,2152,['n'],0,left,['9'],5,187,[-0.06381632],79,44,hard,minus,dotcolour,alfa,,,91,27,M,R,
101,101,17,2,0,53,27,900,['c'],1,left,['9'],5,121,[0.11223048],95,53,easy,minus,dotcolour,alfa,,,91,27,M,R,
102,102,18,2,0,44,36,1817,['c'],1,left,['8'],4,397,[-0.03283146],38,44,hard,minus,dotcolour,alfa,,,91,27,M,R,
103,103,19,2,0,44,36,1217,['n'],0,left,['9'],5,606,[-0.0251461],57,44,hard,minus,dotcolour,alfa,,,91,27,M,R,
104,104,20,2,0,27,53,1184,['n'],1,right,['0'],6,151,[-0.10540486],92,53,easy,minus,dotcolour,alfa,,,91,27,M,R,
105,105,21,2,0,44,36,684,['n'],0,left,['0'],6,151,[-0.04473497],74,44,hard,minus,dotcolour,alfa,,,91,27,M,R,
106,106,22,2,0,47,33,733,['n'],0,left,['9'],5,397,[0.01263506],46,47,medium,minus,dotcolour,alfa,,,91,27,M,R,
107,107,23,2,0,27,53,750,['n'],1,right,['9'],5,641,[-0.11372832],78,53,easy,minus,dotcolour,alfa,,,91,27,M,R,
108,108,24,2,0,27,53,1016,['c'],0,right,['0'],6,95,[0.03596643],74,53,easy,minus,dotcolour,alfa,,,91,27,M,R,
109,109,25,2,0,53,27,1434,['c'],1,left,['9'],5,555,[0.07903064],72,53,easy,minus,dotcolour,alfa,,,91,27,M,R,
110,110,26,2,0,36,44,917,['n'],1,right,['9'],5,905,[-0.13383111],78,44,hard,minus,dotcolour,alfa,,,91,27,M,R,
111,111,27,2,0,47,33,1250,['c'],1,left,['3'],3,1668,[0.15652647],75,47,medium,minus,dotcolour,alfa,,,91,27,M,R,
112,112,28,2,0,33,47,849,['n'],1,right,['0'],6,777,[-0.20145593],89,47,medium,minus,dotcolour,alfa,,,91,27,M,R,
113,113,29,2,0,47,33,2051,['c'],1,left,['9'],5,223,[-0.02520947],38,47,medium,minus,dotcolour,alfa,,,91,27,M,R,
114,114,30,2,0,36,44,1783,['c'],0,right,['9'],5,617,[0.11030726],78,44,hard,minus,dotcolour,alfa,,,91,27,M,R,
115,115,31,2,0,47,33,783,['c'],1,left,['0'],6,162,[0.10325016],91,47,medium,minus,dotcolour,alfa,,,91,27,M,R,
116,116,32,2,0,53,27,783,['c'],1,left,['9'],5,277,[0.03783929],66,53,easy,minus,dotcolour,alfa,,,91,27,M,R,
117,117,33,2,0,44,36,766,['c'],1,left,['9'],5,133,[0.01998075],62,44,hard,minus,dotcolour,alfa,,,91,27,M,R,
118,118,34,2,0,47,33,900,['c'],1,left,['9'],5,357,[0.11305745],85,47,medium,minus,dotcolour,alfa,,,91,27,M,R,
119,119,35,2,0,36,44,1200,['n'],1,right,['9'],5,215,[-0.08536241],84,44,hard,minus,dotcolour,alfa,,,91,27,M,R,
120,120,36,2,0,36,44,900,['n'],1,right,['9'],5,124,[-0.0900316],91,44,hard,minus,dotcolour,alfa,,,91,27,M,R,
121,121,37,2,0,33,47,817,['n'],1,right,['0'],6,103,[-0.08569176],92,47,medium,minus,dotcolour,alfa,,,91,27,M,R,
122,122,38,2,0,53,27,749,['c'],1,left,['9'],5,79,[0.07040608],91,53,easy,minus,dotcolour,alfa,,,91,27,M,R,
123,123,39,2,0,27,53,783,['n'],1,right,['0'],6,166,[-0.074705],84,53,easy,minus,dotcolour,alfa,,,91,27,M,R,
124,124,40,2,0,47,33,1983,['n'],0,left,['8'],4,1225,[0.04691249],41,47,medium,minus,dotcolour,alfa,,,91,27,M,R,
125,125,41,2,0,27,53,950,['n'],1,right,['0'],6,147,[-0.11051989],93,53,easy,minus,dotcolour,alfa,,,91,27,M,R,
126,0,0,3,1,36,44,1184,['n'],1,right,['9'],5,161,[-0.06958811],100,44,hard,plus,dotcolour,alfa,,,91,27,M,R,
127,1,1,3,1,27,53,1050,['n'],1,right,['0'],6,73,[-0.09541262],100,53,easy,plus,dotcolour,alfa,,,91,27,M,R,
128,2,2,3,1,27,53,717,['n'],1,right,['0'],6,130,[-0.05349835],100,53,easy,plus,dotcolour,alfa,,,91,27,M,R,
129,3,3,3,1,47,33,1333,['c'],1,left,['8'],4,745,[0.2681515],100,47,medium,plus,dotcolour,alfa,,,91,27,M,R,
130,4,4,3,1,44,36,999,['c'],1,left,['9'],5,613,[0.0804561],98,44,hard,plus,dotcolour,alfa,,,91,27,M,R,
131,5,5,3,1,53,27,800,['c'],1,left,['0'],6,1053,[0.21288439],100,53,easy,plus,dotcolour,alfa,,,91,27,M,R,
132,6,6,3,1,36,44,1483,['n'],1,right,['0'],6,480,[-0.03243238],84,44,hard,plus,dotcolour,alfa,,,91,27,M,R,
133,7,7,3,1,33,47,718,['n'],1,right,['0'],6,97,[-0.0563627],100,47,medium,plus,dotcolour,alfa,,,91,27,M,R,
134,8,8,3,1,47,33,883,['c'],1,left,['9'],5,436,[0.07375386],98,47,medium,plus,dotcolour,alfa,,,91,27,M,R,
135,9,9,3,1,33,47,816,['n'],1,right,['8'],4,1364,[-0.36384182],100,47,medium,plus,dotcolour,alfa,,,91,27,M,R,
136,10,10,3,1,53,27,800,['c'],1,left,['3'],3,613,[0.24996177],100,53,easy,plus,dotcolour,alfa,,,91,27,M,R,
137,11,11,3,1,27,53,1200,['n'],1,right,['9'],5,342,[-0.12019534],100,53,easy,plus,dotcolour,alfa,,,91,27,M,R,
138,12,12,3,1,53,27,783,['c'],1,left,['0'],6,146,[0.04773705],99,53,easy,plus,dotcolour,alfa,,,91,27,M,R,
139,13,13,3,1,27,53,1034,['n'],1,right,['0'],6,116,[-0.04509233],99,53,easy,plus,dotcolour,alfa,,,91,27,M,R,
140,14,14,3,1,36,44,1650,['c'],0,right,['8'],4,158,[0.09080925],100,44,hard,plus,dotcolour,alfa,,,91,27,M,R,
141,15,15,3,1,36,44,883,['n'],1,right,['9'],5,158,[-0.02781688],93,44,hard,plus,dotcolour,alfa,,,91,27,M,R,
142,16,16,3,1,36,44,767,['n'],1,right,['9'],5,794,[-0.18243745],100,44,hard,plus,dotcolour,alfa,,,91,27,M,R,
143,17,17,3,1,27,53,767,['n'],1,right,['9'],5,140,[-0.03782936],97,53,easy,plus,dotcolour,alfa,,,91,27,M,R,
144,18,18,3,1,47,33,1417,['n'],0,left,['9'],5,671,[-0.163453],100,47,medium,plus,dotcolour,alfa,,,91,27,M,R,
145,19,19,3,1,47,33,2184,['n'],0,left,['3'],3,878,[-0.09556491],98,47,medium,plus,dotcolour,alfa,,,91,27,M,R,
146,20,20,3,1,44,36,3884,['c'],1,left,['9'],5,385,[0.03456713],88,44,hard,plus,dotcolour,alfa,,,91,27,M,R,
147,21,21,3,1,53,27,783,['c'],1,left,['8'],4,299,[0.08907354],100,53,easy,plus,dotcolour,alfa,,,91,27,M,R,
148,22,22,3,1,44,36,816,['n'],0,left,['9'],5,480,[-0.05440496],94,44,hard,plus,dotcolour,alfa,,,91,27,M,R,
149,23,23,3,1,44,36,1201,['c'],1,left,['8'],4,286,[0.17002065],100,44,hard,plus,dotcolour,alfa,,,91,27,M,R,
150,24,24,3,1,33,47,1300,['c'],0,right,['9'],5,232,[0.11364956],100,47,medium,plus,dotcolour,alfa,,,91,27,M,R,
151,25,25,3,1,36,44,849,['c'],0,right,['8'],4,287,[0.0141913],72,44,hard,plus,dotcolour,alfa,,,91,27,M,R,
152,26,26,3,1,44,36,1468,['c'],1,left,['9'],5,849,[0.13222385],99,44,hard,plus,dotcolour,alfa,,,91,27,M,R,
153,27,27,3,1,47,33,867,['c'],1,left,['9'],5,238,[0.10726431],100,47,medium,plus,dotcolour,alfa,,,91,27,M,R,
154,28,28,3,1,53,27,716,['c'],1,left,['0'],6,458,[0.1863674],100,53,easy,plus,dotcolour,alfa,,,91,27,M,R,
155,29,29,3,1,53,27,1017,['c'],1,left,['9'],5,408,[0.19400839],100,53,easy,plus,dotcolour,alfa,,,91,27,M,R,
156,30,30,3,1,33,47,1201,['n'],1,right,['9'],5,312,[-0.17709337],100,47,medium,plus,dotcolour,alfa,,,91,27,M,R,
157,31,31,3,1,33,47,818,['c'],0,right,['9'],5,172,[0.11057898],100,47,medium,plus,dotcolour,alfa,,,91,27,M,R,
158,32,32,3,1,53,27,883,['c'],1,left,['0'],6,108,[0.12560369],100,53,easy,plus,dotcolour,alfa,,,91,27,M,R,
159,33,33,3,1,44,36,734,['c'],1,left,['0'],6,171,[0.07329277],100,44,hard,plus,dotcolour,alfa,,,91,27,M,R,
160,34,34,3,1,36,44,1183,['n'],1,right,['8'],4,1063,[-0.11277319],98,44,hard,plus,dotcolour,alfa,,,91,27,M,R,
161,35,35,3,1,27,53,1117,['n'],1,right,['9'],5,737,[-0.23910005],100,53,easy,plus,dotcolour,alfa,,,91,27,M,R,
162,36,36,3,1,47,33,1733,['n'],0,left,['9'],5,286,[-0.07466863],99,47,medium,plus,dotcolour,alfa,,,91,27,M,R,
163,37,37,3,1,33,47,1600,['n'],1,right,['9'],5,196,[-0.17216765],100,47,medium,plus,dotcolour,alfa,,,91,27,M,R,
164,38,38,3,1,44,36,800,['n'],0,left,['9'],5,278,[-0.11729008],100,44,hard,plus,dotcolour,alfa,,,91,27,M,R,
165,39,39,3,1,27,53,1050,['c'],0,right,['9'],5,146,[-0.03437366],4,53,easy,plus,dotcolour,alfa,,,91,27,M,R,
166,40,40,3,1,47,33,1050,['c'],1,left,['9'],5,251,[0.09971759],100,47,medium,plus,dotcolour,alfa,,,91,27,M,R,
167,41,41,3,1,33,47,883,['n'],1,right,['9'],5,168,[-0.11207084],100,47,medium,plus,dotcolour,alfa,,,91,27,M,R,
168,42,0,4,1,53,27,1101,['n'],0,left,['9'],5,266,[-0.05546945],98,53,easy,plus,dotcolour,alfa,,,91,27,M,R,
169,43,1,4,1,47,33,700,['n'],0,left,['9'],5,196,[-0.06040865],99,47,medium,plus,dotcolour,alfa,,,91,27,M,R,
170,44,2,4,1,44,36,733,['c'],1,left,['9'],5,153,[0.07807506],100,44,hard,plus,dotcolour,alfa,,,91,27,M,R,
171,45,3,4,1,33,47,717,['n'],1,right,['9'],5,111,[-0.05990181],100,47,medium,plus,dotcolour,alfa,,,91,27,M,R,
172,46,4,4,1,27,53,601,['n'],1,right,['0'],6,260,[-0.09991784],100,53,easy,plus,dotcolour,alfa,,,91,27,M,R,
173,47,5,4,1,44,36,1033,['c'],1,left,['3'],3,1025,[0.26732099],100,44,hard,plus,dotcolour,alfa,,,91,27,M,R,
174,48,6,4,1,44,36,883,['c'],1,left,['9'],5,213,[0.09589509],100,44,hard,plus,dotcolour,alfa,,,91,27,M,R,
175,49,7,4,1,53,27,917,['c'],1,left,['0'],6,169,[0.10642898],100,53,easy,plus,dotcolour,alfa,,,91,27,M,R,
176,50,8,4,1,53,27,667,['c'],1,left,['0'],6,89,[0.1030833],100,53,easy,plus,dotcolour,alfa,,,91,27,M,R,
177,51,9,4,1,36,44,834,['c'],0,right,['0'],6,118,[0.10383716],100,44,hard,plus,dotcolour,alfa,,,91,27,M,R,
178,52,10,4,1,53,27,683,['c'],1,left,['0'],6,79,[0.0645761],100,53,easy,plus,dotcolour,alfa,,,91,27,M,R,
179,53,11,4,1,47,33,1384,['c'],1,left,['8'],4,382,[0.08659394],99,47,medium,plus,dotcolour,alfa,,,91,27,M,R,
180,54,12,4,1,36,44,1149,['n'],1,right,['9'],5,651,[-0.15165645],100,44,hard,plus,dotcolour,alfa,,,91,27,M,R,
181,55,13,4,1,44,36,1234,['c'],1,left,['9'],5,152,[0.08985832],100,44,hard,plus,dotcolour,alfa,,,91,27,M,R,
182,56,14,4,1,27,53,1067,['n'],1,right,['9'],5,289,[-0.25011483],100,53,easy,plus,dotcolour,alfa,,,91,27,M,R,
183,57,15,4,1,36,44,1583,['n'],1,right,['9'],5,287,[-0.10050091],100,44,hard,plus,dotcolour,alfa,,,91,27,M,R,
184,58,16,4,1,36,44,767,['n'],1,right,['9'],5,310,[-0.03964473],93,44,hard,plus,dotcolour,alfa,,,91,27,M,R,
185,59,17,4,1,33,47,1184,['n'],1,right,['9'],5,300,[-0.05593295],98,47,medium,plus,dotcolour,alfa,,,91,27,M,R,
186,60,18,4,1,47,33,884,['c'],1,left,['9'],5,1142,[0.17455331],100,47,medium,plus,dotcolour,alfa,,,91,27,M,R,
187,61,19,4,1,36,44,867,['n'],1,right,['9'],5,334,[-0.02437766],82,44,hard,plus,dotcolour,alfa,,,91,27,M,R,
188,62,20,4,1,27,53,900,['n'],1,right,['0'],6,342,[-0.08077983],99,53,easy,plus,dotcolour,alfa,,,91,27,M,R,
189,63,21,4,1,44,36,1284,['n'],0,left,['0'],6,326,[-0.05082054],96,44,hard,plus,dotcolour,alfa,,,91,27,M,R,
190,64,22,4,1,44,36,699,['c'],1,left,['9'],5,343,[0.02288783],80,44,hard,plus,dotcolour,alfa,,,91,27,M,R,
191,65,23,4,1,47,33,1400,['c'],1,left,['9'],5,546,[0.17164048],100,47,medium,plus,dotcolour,alfa,,,91,27,M,R,
192,66,24,4,1,47,33,684,['n'],0,left,['9'],5,298,[-0.04478858],95,47,medium,plus,dotcolour,alfa,,,91,27,M,R,
193,67,25,4,1,27,53,1283,['n'],1,right,['9'],5,277,[-0.17758508],100,53,easy,plus,dotcolour,alfa,,,91,27,M,R,
194,68,26,4,1,53,27,1500,['c'],1,left,['9'],5,135,[0.12003589],100,53,easy,plus,dotcolour,alfa,,,91,27,M,R,
195,69,27,4,1,53,27,617,['c'],1,left,['9'],5,153,[0.06855858],100,53,easy,plus,dotcolour,alfa,,,91,27,M,R,
196,70,28,4,1,27,53,634,['n'],1,right,['0'],6,219,[-0.05978973],99,53,easy,plus,dotcolour,alfa,,,91,27,M,R,
197,71,29,4,1,33,47,1450,['n'],1,right,['9'],5,506,[-0.08039556],98,47,medium,plus,dotcolour,alfa,,,91,27,M,R,
198,72,30,4,1,36,44,1033,['n'],1,right,['9'],5,285,[-0.07638192],99,44,hard,plus,dotcolour,alfa,,,91,27,M,R,
199,73,31,4,1,53,27,900,['c'],1,left,['9'],5,143,[0.05308086],99,53,easy,plus,dotcolour,alfa,,,91,27,M,R,
200,74,32,4,1,47,33,751,['c'],1,left,['9'],5,197,[0.1647833],100,47,medium,plus,dotcolour,alfa,,,91,27,M,R,
201,75,33,4,1,47,33,784,['c'],1,left,['9'],5,431,[0.09904564],100,47,medium,plus,dotcolour,alfa,,,91,27,M,R,
202,76,34,4,1,36,44,967,['n'],1,right,['8'],4,800,[-0.11081831],99,44,hard,plus,dotcolour,alfa,,,91,27,M,R,
203,77,35,4,1,33,47,934,['n'],1,right,['0'],6,420,[-0.18388402],100,47,medium,plus,dotcolour,alfa,,,91,27,M,R,
204,78,36,4,1,27,53,667,['n'],1,right,['9'],5,226,[-0.0852969],100,53,easy,plus,dotcolour,alfa,,,91,27,M,R,
205,79,37,4,1,44,36,850,['c'],1,left,['9'],5,193,[0.12431068],100,44,hard,plus,dotcolour,alfa,,,91,27,M,R,
206,80,38,4,1,33,47,734,['n'],1,right,['0'],6,276,[-0.10880991],100,47,medium,plus,dotcolour,alfa,,,91,27,M,R,
207,81,39,4,1,27,53,683,['n'],1,right,['0'],6,191,[-0.0793345],100,53,easy,plus,dotcolour,alfa,,,91,27,M,R,
208,82,40,4,1,33,47,984,['n'],1,right,['0'],6,185,[-0.10926284],100,47,medium,plus,dotcolour,alfa,,,91,27,M,R,
209,83,41,4,1,33,47,1050,['n'],1,right,['0'],6,97,[-0.10448576],100,47,medium,plus,dotcolour,alfa,,,91,27,M,R,
210,84,0,5,1,27,53,1117,['n'],1,right,['0'],6,144,[-0.09669921],100,53,easy,plus,dotcolour,alfa,,,91,27,M,R,
211,85,1,5,1,33,47,617,['n'],1,right,['0'],6,130,[-0.11366858],100,47,medium,plus,dotcolour,alfa,,,91,27,M,R,
212,86,2,5,1,47,33,750,['c'],1,left,['0'],6,409,[0.09961394],100,47,medium,plus,dotcolour,alfa,,,91,27,M,R,
213,87,3,5,1,44,36,884,['c'],1,left,['9'],5,382,[0.148911],100,44,hard,plus,dotcolour,alfa,,,91,27,M,R,
214,88,4,5,1,36,44,984,['n'],1,right,['9'],5,257,[-0.13931713],100,44,hard,plus,dotcolour,alfa,,,91,27,M,R,
215,89,5,5,1,47,33,651,['c'],1,left,['0'],6,229,[0.09653969],100,47,medium,plus,dotcolour,alfa,,,91,27,M,R,
216,90,6,5,1,27,53,567,['n'],1,right,['0'],6,119,[-0.12880061],100,53,easy,plus,dotcolour,alfa,,,91,27,M,R,
217,91,7,5,1,33,47,550,['n'],1,right,['0'],6,189,[-0.14321445],100,47,medium,plus,dotcolour,alfa,,,91,27,M,R,
218,92,8,5,1,36,44,766,['n'],1,right,['9'],5,192,[-0.0730934],100,44,hard,plus,dotcolour,alfa,,,91,27,M,R,
219,93,9,5,1,47,33,901,['c'],1,left,['9'],5,85,[0.1084605],100,47,medium,plus,dotcolour,alfa,,,91,27,M,R,
220,94,10,5,1,47,33,750,['c'],1,left,['8'],4,453,[0.0155096],70,47,medium,plus,dotcolour,alfa,,,91,27,M,R,
221,95,11,5,1,36,44,1067,['n'],1,right,['0'],6,418,[0.03478656],13,44,hard,plus,dotcolour,alfa,,,91,27,M,R,
222,96,12,5,1,33,47,767,['n'],1,right,['9'],5,492,[-0.17464393],100,47,medium,plus,dotcolour,alfa,,,91,27,M,R,
223,97,13,5,1,27,53,617,['n'],1,right,['0'],6,201,[-0.09587003],100,53,easy,plus,dotcolour,alfa,,,91,27,M,R,
224,98,14,5,1,53,27,767,['c'],1,left,['8'],4,915,[0.30793612],100,53,easy,plus,dotcolour,alfa,,,91,27,M,R,
225,99,15,5,1,53,27,934,['c'],1,left,['9'],5,203,[0.15561812],100,53,easy,plus,dotcolour,alfa,,,91,27,M,R,
226,100,16,5,1,33,47,567,['n'],1,right,['9'],5,261,[-0.21839214],100,47,medium,plus,dotcolour,alfa,,,91,27,M,R,
227,101,17,5,1,36,44,1517,['n'],1,right,['9'],5,239,[-0.05355429],98,44,hard,plus,dotcolour,alfa,,,91,27,M,R,
228,102,18,5,1,53,27,834,['c'],1,left,['9'],5,677,[0.19069066],100,53,easy,plus,dotcolour,alfa,,,91,27,M,R,
229,103,19,5,1,36,44,850,['n'],1,right,['8'],4,330,[-0.10198191],100,44,hard,plus,dotcolour,alfa,,,91,27,M,R,
230,104,20,5,1,44,36,684,['n'],0,left,['8'],4,339,[0.00289168],46,44,hard,plus,dotcolour,alfa,,,91,27,M,R,
231,105,21,5,1,53,27,767,['c'],1,left,['9'],5,151,[0.08713789],100,53,easy,plus,dotcolour,alfa,,,91,27,M,R,
232,106,22,5,1,44,36,650,['c'],1,left,['9'],5,144,[0.03222637],96,44,hard,plus,dotcolour,alfa,,,91,27,M,R,
233,107,23,5,1,36,44,1267,['n'],1,right,['3'],3,1209,[-0.35222096],100,44,hard,plus,dotcolour,alfa,,,91,27,M,R,
234,108,24,5,1,44,36,983,['n'],0,left,['9'],5,282,[-0.11649736],100,44,hard,plus,dotcolour,alfa,,,91,27,M,R,
235,109,25,5,1,47,33,767,['c'],1,left,['8'],4,322,[0.10097827],100,47,medium,plus,dotcolour,alfa,,,91,27,M,R,
236,110,26,5,1,44,36,700,['c'],1,left,['3'],3,274,[0.10353851],100,44,hard,plus,dotcolour,alfa,,,91,27,M,R,
237,111,27,5,1,33,47,667,['c'],0,right,['9'],5,325,[0.1362731],100,47,medium,plus,dotcolour,alfa,,,91,27,M,R,
238,112,28,5,1,27,53,600,['c'],0,right,['9'],5,369,[0.07579879],99,53,easy,plus,dotcolour,alfa,,,91,27,M,R,
239,113,29,5,1,44,36,582,['c'],1,left,['3'],3,477,[0.10057615],99,44,hard,plus,dotcolour,alfa,,,91,27,M,R,
240,114,30,5,1,27,53,918,['c'],0,right,['9'],5,86,[0.06325489],100,53,easy,plus,dotcolour,alfa,,,91,27,M,R,
241,115,31,5,1,53,27,750,['c'],1,left,['0'],6,230,[0.05315247],98,53,easy,plus,dotcolour,alfa,,,91,27,M,R,
242,116,32,5,1,44,36,717,['c'],1,left,['0'],6,185,[0.11238636],100,44,hard,plus,dotcolour,alfa,,,91,27,M,R,
243,117,33,5,1,53,27,766,['c'],1,left,['0'],6,341,[0.11100135],100,53,easy,plus,dotcolour,alfa,,,91,27,M,R,
244,118,34,5,1,53,27,834,['c'],1,left,['9'],5,311,[0.25436399],100,53,easy,plus,dotcolour,alfa,,,91,27,M,R,
245,119,35,5,1,47,33,750,['c'],1,left,['8'],4,221,[0.12497656],100,47,medium,plus,dotcolour,alfa,,,91,27,M,R,
246,120,36,5,1,33,47,684,['c'],0,right,['8'],4,699,[-0.12382885],0,47,medium,plus,dotcolour,alfa,,,91,27,M,R,
247,121,37,5,1,27,53,1217,['c'],0,right,['0'],6,1455,[-0.19870338],0,53,easy,plus,dotcolour,alfa,,,91,27,M,R,
248,122,38,5,1,33,47,1734,['c'],0,right,['1'],1,1233,[-0.11096112],3,47,medium,plus,dotcolour,alfa,,,91,27,M,R,
249,123,39,5,1,47,33,1250,['c'],1,left,['0'],6,462,[0.04203971],90,47,medium,plus,dotcolour,alfa,,,91,27,M,R,
250,124,40,5,1,36,44,784,['n'],1,right,['0'],6,149,[-0.09321758],100,44,hard,plus,dotcolour,alfa,,,91,27,M,R,
251,125,41,5,1,27,53,667,['n'],1,right,['0'],6,142,[-0.04610979],99,53,easy,plus,dotcolour,alfa,,,91,27,M,R,
252,0,0,6,2,33,47,2051,['n'],1,right,['0'],6,478,[-0.17904871],91,47,medium,minus,dotcolour,alfa,,,91,27,M,R,
253,1,1,6,2,47,33,1084,['c'],1,left,['9'],5,681,[0.11998359],79,47,medium,minus,dotcolour,alfa,,,91,27,M,R,
254,2,2,6,2,44,36,2000,['n'],0,left,['9'],5,175,[-0.0088164],55,44,hard,minus,dotcolour,alfa,,,91,27,M,R,
255,3,3,6,2,47,33,867,['c'],1,left,['9'],5,310,[0.12169987],88,47,medium,minus,dotcolour,alfa,,,91,27,M,R,
256,4,4,6,2,27,53,1134,['n'],1,right,['9'],5,430,[-0.12519008],85,53,easy,minus,dotcolour,alfa,,,91,27,M,R,
257,5,5,6,2,36,44,766,['n'],1,right,['9'],5,423,[-0.1297347],86,44,hard,minus,dotcolour,alfa,,,91,27,M,R,
258,6,6,6,2,36,44,1850,['n'],1,right,['8'],4,261,[-0.08723013],82,44,hard,minus,dotcolour,alfa,,,91,27,M,R,
259,7,7,6,2,53,27,934,['n'],0,left,['9'],5,230,[-0.01296634],56,53,easy,minus,dotcolour,alfa,,,91,27,M,R,
260,8,8,6,2,44,36,683,['n'],0,left,['9'],5,211,[-0.08691432],85,44,hard,minus,dotcolour,alfa,,,91,27,M,R,
261,9,9,6,2,53,27,867,['c'],1,left,['0'],6,201,[0.06619148],79,53,easy,minus,dotcolour,alfa,,,91,27,M,R,
262,10,10,6,2,27,53,751,['n'],1,right,['0'],6,156,[-0.0387319],71,53,easy,minus,dotcolour,alfa,,,91,27,M,R,
263,11,11,6,2,27,53,650,['n'],1,right,['0'],6,173,[-0.13811702],95,53,easy,minus,dotcolour,alfa,,,91,27,M,R,
264,12,12,6,2,47,33,1233,['c'],1,left,['8'],4,166,[0.11971592],93,47,medium,minus,dotcolour,alfa,,,91,27,M,R,
265,13,13,6,2,36,44,599,['n'],1,right,['0'],6,89,[-0.0677533],89,44,hard,minus,dotcolour,alfa,,,91,27,M,R,
266,14,14,6,2,53,27,933,['c'],1,left,['0'],6,177,[0.02272805],62,53,easy,minus,dotcolour,alfa,,,91,27,M,R,
267,15,15,6,2,53,27,1251,['n'],0,left,['8'],4,369,[0.09174621],20,53,easy,minus,dotcolour,alfa,,,91,27,M,R,
268,16,16,6,2,33,47,683,['c'],0,right,['9'],5,168,[0.04711711],74,47,medium,minus,dotcolour,alfa,,,91,27,M,R,
269,17,17,6,2,33,47,683,['n'],1,right,['9'],5,176,[-0.00414113],52,47,medium,minus,dotcolour,alfa,,,91,27,M,R,
270,18,18,6,2,44,36,1034,['c'],1,left,['8'],4,313,[0.05764201],72,44,hard,minus,dotcolour,alfa,,,91,27,M,R,
271,19,19,6,2,33,47,1367,['n'],1,right,['0'],6,631,[-0.06082528],67,47,medium,minus,dotcolour,alfa,,,91,27,M,R,
272,20,20,6,2,44,36,1000,['n'],0,left,['9'],5,167,[-0.05314459],76,44,hard,minus,dotcolour,alfa,,,91,27,M,R,
273,21,21,6,2,36,44,733,['n'],1,right,['9'],5,148,[-0.06377792],82,44,hard,minus,dotcolour,alfa,,,91,27,M,R,
274,22,22,6,2,47,33,717,['n'],0,left,['0'],6,123,[-0.09393239],92,47,medium,minus,dotcolour,alfa,,,91,27,M,R,
275,23,23,6,2,47,33,917,['c'],1,left,['9'],5,131,[0.1218575],95,47,medium,minus,dotcolour,alfa,,,91,27,M,R,
276,24,24,6,2,47,33,1085,['n'],0,left,['8'],4,115,[-0.11377605],95,47,medium,minus,dotcolour,alfa,,,91,27,M,R,
277,25,25,6,2,27,53,833,['n'],1,right,['0'],6,135,[-0.15284318],98,53,easy,minus,dotcolour,alfa,,,91,27,M,R,
278,26,26,6,2,44,36,1417,['n'],0,left,['9'],5,203,[-0.07950703],83,44,hard,minus,dotcolour,alfa,,,91,27,M,R,
279,27,27,6,2,53,27,633,['c'],1,left,['9'],5,235,[0.06567218],77,53,easy,minus,dotcolour,alfa,,,91,27,M,R,
280,28,28,6,2,53,27,766,['c'],1,left,['9'],5,148,[0.13043687],95,53,easy,minus,dotcolour,alfa,,,91,27,M,R,
281,29,29,6,2,27,53,817,['n'],1,right,['0'],6,166,[-0.15355256],97,53,easy,minus,dotcolour,alfa,,,91,27,M,R,
282,30,30,6,2,36,44,717,['n'],1,right,['0'],6,84,[-0.05019208],83,44,hard,minus,dotcolour,alfa,,,91,27,M,R,
283,31,31,6,2,33,47,716,['n'],1,right,['9'],5,358,[-0.19598134],95,47,medium,minus,dotcolour,alfa,,,91,27,M,R,
284,32,32,6,2,44,36,900,['c'],1,left,['9'],5,164,[0.13806737],96,44,hard,minus,dotcolour,alfa,,,91,27,M,R,
285,33,33,6,2,33,47,1000,['n'],1,right,['0'],6,263,[-0.08488293],82,47,medium,minus,dotcolour,alfa,,,91,27,M,R,
286,34,34,6,2,36,44,766,['n'],1,right,['0'],6,287,[-0.07580936],78,44,hard,minus,dotcolour,alfa,,,91,27,M,R,
287,35,35,6,2,44,36,800,['c'],1,left,['9'],5,165,[0.12210221],94,44,hard,minus,dotcolour,alfa,,,91,27,M,R,
288,36,36,6,2,47,33,1383,['c'],1,left,['8'],4,416,[0.05219144],67,47,medium,minus,dotcolour,alfa,,,91,27,M,R,
289,37,37,6,2,36,44,884,['n'],1,right,['9'],5,262,[-0.08452167],82,44,hard,minus,dotcolour,alfa,,,91,27,M,R,
290,38,38,6,2,27,53,901,['n'],1,right,['0'],6,200,[-0.05352291],75,53,easy,minus,dotcolour,alfa,,,91,27,M,R,
291,39,39,6,2,33,47,734,['n'],1,right,['9'],5,204,[-0.06151165],77,47,medium,minus,dotcolour,alfa,,,91,27,M,R,
292,40,40,6,2,53,27,766,['c'],1,left,['9'],5,519,[0.26773951],97,53,easy,minus,dotcolour,alfa,,,91,27,M,R,
293,41,41,6,2,27,53,1100,['n'],1,right,['0'],6,160,[-0.14488923],96,53,easy,minus,dotcolour,alfa,,,91,27,M,R,
294,42,0,7,2,36,44,867,['n'],1,right,['0'],6,100,[-0.07926656],91,44,hard,minus,dotcolour,alfa,,,91,27,M,R,
295,43,1,7,2,27,53,533,['n'],1,right,['0'],6,92,[-0.13969701],98,53,easy,minus,dotcolour,alfa,,,91,27,M,R,
296,44,2,7,2,27,53,567,['n'],1,right,['0'],6,98,[-0.15032285],99,53,easy,minus,dotcolour,alfa,,,91,27,M,R,
297,45,3,7,2,47,33,1016,['c'],1,left,['9'],5,1031,[0.1379865],77,47,medium,minus,dotcolour,alfa,,,91,27,M,R,
298,46,4,7,2,33,47,750,['n'],1,right,['0'],6,97,[-0.05867245],84,47,medium,minus,dotcolour,alfa,,,91,27,M,R,
299,47,5,7,2,53,27,900,['c'],1,left,['9'],5,139,[0.05247319],78,53,easy,minus,dotcolour,alfa,,,91,27,M,R,
300,48,6,7,2,47,33,900,['c'],1,left,['9'],5,99,[0.08988652],93,47,medium,minus,dotcolour,alfa,,,91,27,M,R,
301,49,7,7,2,44,36,1017,['n'],0,left,['9'],5,79,[-0.05129957],84,44,hard,minus,dotcolour,alfa,,,91,27,M,R,
302,50,8,7,2,44,36,684,['n'],0,left,['9'],5,146,[-0.06421992],82,44,hard,minus,dotcolour,alfa,,,91,27,M,R,
303,51,9,7,2,47,33,1200,['c'],1,left,['9'],5,125,[0.02804383],67,47,medium,minus,dotcolour,alfa,,,91,27,M,R,
304,52,10,7,2,27,53,850,['n'],1,right,['0'],6,71,[-0.08163035],94,53,easy,minus,dotcolour,alfa,,,91,27,M,R,
305,53,11,7,2,36,44,1167,['n'],1,right,['0'],6,463,[-0.09405865],78,44,hard,minus,dotcolour,alfa,,,91,27,M,R,
306,54,12,7,2,53,27,867,['c'],1,left,['0'],6,36,[0.0931825],99,53,easy,minus,dotcolour,alfa,,,91,27,M,R,
307,55,13,7,2,44,36,1167,['c'],1,left,['8'],4,77,[0.11387498],98,44,hard,minus,dotcolour,alfa,,,91,27,M,R,
308,56,14,7,2,44,36,1067,['c'],1,left,['9'],5,336,[0.11032444],85,44,hard,minus,dotcolour,alfa,,,91,27,M,R,
309,57,15,7,2,47,33,716,['c'],1,left,['9'],5,120,[0.08154732],89,47,medium,minus,dotcolour,alfa,,,91,27,M,R,
310,58,16,7,2,47,33,750,['c'],1,left,['9'],5,167,[0.03639702],69,47,medium,minus,dotcolour,alfa,,,91,27,M,R,
311,59,17,7,2,33,47,717,['n'],1,right,['9'],5,45,[-0.09046264],98,47,medium,minus,dotcolour,alfa,,,91,27,M,R,
312,60,18,7,2,27,53,617,['n'],1,right,['0'],6,131,[-0.07398159],86,53,easy,minus,dotcolour,alfa,,,91,27,M,R,
313,61,19,7,2,36,44,784,['n'],1,right,['9'],5,167,[-0.09181585],88,44,hard,minus,dotcolour,alfa,,,91,27,M,R,
314,62,20,7,2,47,33,1483,['c'],1,left,['0'],6,159,[0.14194968],96,47,medium,minus,dotcolour,alfa,,,91,27,M,R,
315,63,21,7,2,36,44,767,['n'],1,right,['0'],6,139,[-0.06830413],84,44,hard,minus,dotcolour,alfa,,,91,27,M,R,
316,64,22,7,2,36,44,684,['n'],1,right,['0'],6,124,[-0.07842081],88,44,hard,minus,dotcolour,alfa,,,91,27,M,R,
317,65,23,7,2,53,27,717,['c'],1,left,['9'],5,171,[0.09992601],90,53,easy,minus,dotcolour,alfa,,,91,27,M,R,
318,66,24,7,2,53,27,734,['c'],1,left,['9'],5,128,[0.03360289],70,53,easy,minus,dotcolour,alfa,,,91,27,M,R,
319,67,25,7,2,36,44,666,['c'],0,right,['0'],6,50,[0.08857525],97,44,hard,minus,dotcolour,alfa,,,91,27,M,R,
320,68,26,7,2,33,47,1000,['n'],1,right,['0'],6,185,[-0.07301468],82,47,medium,minus,dotcolour,alfa,,,91,27,M,R,
321,69,27,7,2,33,47,766,['n'],1,right,['0'],6,100,[-0.10019241],95,47,medium,minus,dotcolour,alfa,,,91,27,M,R,
322,70,28,7,2,27,53,817,['n'],1,right,['0'],6,433,[-0.16965999],91,53,easy,minus,dotcolour,alfa,,,91,27,M,R,
323,71,29,7,2,36,44,1402,['n'],1,right,['9'],5,305,[-0.01943597],58,44,hard,minus,dotcolour,alfa,,,91,27,M,R,
324,72,30,7,2,33,47,850,['n'],1,right,['0'],6,220,[-0.14843243],95,47,medium,minus,dotcolour,alfa,,,91,27,M,R,
325,73,31,7,2,53,27,866,['c'],1,left,['0'],6,98,[0.04205159],77,53,easy,minus,dotcolour,alfa,,,91,27,M,R,
326,74,32,7,2,47,33,1050,['n'],0,left,['9'],5,389,[0.00828007],47,47,medium,minus,dotcolour,alfa,,,91,27,M,R,
327,75,33,7,2,27,53,1200,['n'],1,right,['9'],5,302,[-0.07730053],78,53,easy,minus,dotcolour,alfa,,,91,27,M,R,
328,76,34,7,2,44,36,1017,['c'],1,left,['0'],6,356,[0.18928188],95,44,hard,minus,dotcolour,alfa,,,91,27,M,R,
329,77,35,7,2,53,27,767,['c'],1,left,['0'],6,239,[0.11732313],90,53,easy,minus,dotcolour,alfa,,,91,27,M,R,
330,78,36,7,2,53,27,717,['c'],1,left,['0'],6,90,[0.10562152],96,53,easy,minus,dotcolour,alfa,,,91,27,M,R,
331,79,37,7,2,44,36,1100,['c'],1,left,['0'],6,116,[0.09104447],92,44,hard,minus,dotcolour,alfa,,,91,27,M,R,
332,80,38,7,2,44,36,800,['c'],1,left,['0'],6,288,[0.11907066],88,44,hard,minus,dotcolour,alfa,,,91,27,M,R,
333,81,39,7,2,27,53,751,['n'],1,right,['0'],6,103,[-0.10941396],96,53,easy,minus,dotcolour,alfa,,,91,27,M,R,
334,82,40,7,2,33,47,750,['n'],1,right,['0'],6,79,[-0.10286758],96,47,medium,minus,dotcolour,alfa,,,91,27,M,R,
335,83,41,7,2,33,47,783,['n'],1,right,['0'],6,150,[-0.11974043],94,47,medium,minus,dotcolour,alfa,,,91,27,M,R,
336,84,0,8,2,27,53,1118,['n'],1,right,['0'],6,81,[-0.08354844],93,53,easy,minus,dotcolour,alfa,,,91,27,M,R,
337,85,1,8,2,33,47,717,['n'],1,right,['0'],6,74,[-0.08286007],94,47,medium,minus,dotcolour,alfa,,,91,27,M,R,
338,86,2,8,2,47,33,700,['c'],1,left,['0'],6,156,[0.14643134],97,47,medium,minus,dotcolour,alfa,,,91,27,M,R,
339,87,3,8,2,27,53,1483,['n'],1,right,['0'],6,84,[-0.07968618],92,53,easy,minus,dotcolour,alfa,,,91,27,M,R,
340,88,4,8,2,53,27,617,['c'],1,left,['0'],6,105,[0.06697052],87,53,easy,minus,dotcolour,alfa,,,91,27,M,R,
341,89,5,8,2,27,53,533,['n'],1,right,['0'],6,89,[-0.0947227],95,53,easy,minus,dotcolour,alfa,,,91,27,M,R,
342,90,6,8,2,33,47,800,['c'],0,right,['0'],6,39,[0.06789663],96,47,medium,minus,dotcolour,alfa,,,91,27,M,R,
343,91,7,8,2,27,53,617,['n'],1,right,['0'],6,86,[-0.0258271],69,53,easy,minus,dotcolour,alfa,,,91,27,M,R,
344,92,8,8,2,53,27,633,['c'],1,left,['0'],6,67,[0.07014012],92,53,easy,minus,dotcolour,alfa,,,91,27,M,R,
345,93,9,8,2,44,36,1383,['n'],0,left,['9'],5,274,[-0.03113121],63,44,hard,minus,dotcolour,alfa,,,91,27,M,R,
346,94,10,8,2,44,36,900,['c'],1,left,['9'],5,76,[0.09700222],96,44,hard,minus,dotcolour,alfa,,,91,27,M,R,
347,95,11,8,2,47,33,1117,['c'],1,left,['9'],5,518,[0.0027655],51,47,medium,minus,dotcolour,alfa,,,91,27,M,R,
348,96,12,8,2,47,33,684,['c'],1,left,['0'],6,368,[0.21722644],96,47,medium,minus,dotcolour,alfa,,,91,27,M,R,
349,97,13,8,2,44,36,800,['c'],1,left,['0'],6,130,[0.06009115],82,44,hard,minus,dotcolour,alfa,,,91,27,M,R,
350,98,14,8,2,47,33,1917,['c'],1,left,['9'],5,73,[0.11472579],98,47,medium,minus,dotcolour,alfa,,,91,27,M,R,
351,99,15,8,2,36,44,918,['c'],0,right,['9'],5,131,[-0.01805381],39,44,hard,minus,dotcolour,alfa,,,91,27,M,R,
352,100,16,8,2,53,27,650,['c'],1,left,['0'],6,85,[0.06428293],88,53,easy,minus,dotcolour,alfa,,,91,27,M,R,
353,101,17,8,2,53,27,967,['c'],1,left,['0'],6,84,[0.12178005],98,53,easy,minus,dotcolour,alfa,,,91,27,M,R,
354,102,18,8,2,27,53,1184,['n'],1,right,['0'],6,163,[-0.06994307],83,53,easy,minus,dotcolour,alfa,,,91,27,M,R,
355,103,19,8,2,33,47,817,['n'],1,right,['0'],6,77,[-0.10170039],96,47,medium,minus,dotcolour,alfa,,,91,27,M,R,
356,104,20,8,2,36,44,2500,['c'],0,right,['9'],5,359,[-0.01314091],45,44,hard,minus,dotcolour,alfa,,,91,27,M,R,
357,105,21,8,2,27,53,667,['n'],1,right,['0'],6,111,[-0.0623114],84,53,easy,minus,dotcolour,alfa,,,91,27,M,R,
358,106,22,8,2,44,36,1534,['n'],0,left,['9'],5,407,[-0.00954687],53,44,hard,minus,dotcolour,alfa,,,91,27,M,R,
359,107,23,8,2,36,44,617,['n'],1,right,['0'],6,223,[-0.10838141],89,44,hard,minus,dotcolour,alfa,,,91,27,M,R,
360,108,24,8,2,47,33,700,['c'],1,left,['9'],5,331,[0.17035822],93,47,medium,minus,dotcolour,alfa,,,91,27,M,R,
361,109,25,8,2,36,44,1217,['c'],0,right,['9'],5,174,[0.00883754],55,44,hard,minus,dotcolour,alfa,,,91,27,M,R,
362,110,26,8,2,44,36,850,['c'],1,left,['9'],5,206,[0.0689362],80,44,hard,minus,dotcolour,alfa,,,91,27,M,R,
363,111,27,8,2,44,36,1000,['n'],0,left,['0'],6,559,[-0.00254867],51,44,hard,minus,dotcolour,alfa,,,91,27,M,R,
364,112,28,8,2,53,27,884,['n'],0,left,['0'],6,110,[-0.05779351],83,53,easy,minus,dotcolour,alfa,,,91,27,M,R,
365,113,29,8,2,36,44,750,['n'],1,right,['0'],6,237,[-0.14170958],93,44,hard,minus,dotcolour,alfa,,,91,27,M,R,
366,114,30,8,2,33,47,750,['n'],1,right,['0'],6,255,[-0.15189881],94,47,medium,minus,dotcolour,alfa,,,91,27,M,R,
367,115,31,8,2,33,47,734,['n'],1,right,['9'],5,441,[0.06104687],30,47,medium,minus,dotcolour,alfa,,,91,27,M,R,
368,116,32,8,2,47,33,767,['c'],1,left,['9'],5,153,[0.09186038],89,47,medium,minus,dotcolour,alfa,,,91,27,M,R,
369,117,33,8,2,33,47,1033,['n'],1,right,['0'],6,155,[-0.10932907],92,47,medium,minus,dotcolour,alfa,,,91,27,M,R,
370,118,34,8,2,36,44,784,['n'],1,right,['9'],5,263,[-0.00982023],54,44,hard,minus,dotcolour,alfa,,,91,27,M,R,
371,119,35,8,2,44,36,649,['c'],1,left,['9'],5,164,[0.1500088],97,44,hard,minus,dotcolour,alfa,,,91,27,M,R,
372,120,36,8,2,47,33,750,['c'],1,left,['9'],5,153,[0.05904061],80,47,medium,minus,dotcolour,alfa,,,91,27,M,R,
373,121,37,8,2,53,27,717,['c'],1,left,['9'],5,215,[0.08557671],84,53,easy,minus,dotcolour,alfa,,,91,27,M,R,
374,122,38,8,2,53,27,584,['c'],1,left,['0'],6,177,[0.13104901],94,53,easy,minus,dotcolour,alfa,,,91,27,M,R,
375,123,39,8,2,36,44,1135,['c'],0,right,['9'],5,318,[0.01127771],54,44,hard,minus,dotcolour,alfa,,,91,27,M,R,
376,124,40,8,2,33,47,717,['n'],1,right,['9'],5,222,[-0.0742901],81,47,medium,minus,dotcolour,alfa,,,91,27,M,R,
377,125,41,8,2,27,53,584,['n'],1,right,['0'],6,359,[-0.18986401],95,53,easy,minus,dotcolour,alfa,,,91,27,M,R,
378,0,0,9,3,47,33,1584,['n'],0,left,['9'],5,233,[-0.01594528],77,47,medium,plus,dotcolour,alfa,,,91,27,M,R,
379,1,1,9,3,33,47,616,['n'],1,right,['0'],6,248,[-0.05063277],97,47,medium,plus,dotcolour,alfa,,,91,27,M,R,
380,2,2,9,3,47,33,701,['c'],1,left,['9'],5,212,[0.13369949],100,47,medium,plus,dotcolour,alfa,,,91,27,M,R,
381,3,3,9,3,27,53,1117,['n'],1,right,['0'],6,176,[-0.05685753],99,53,easy,plus,dotcolour,alfa,,,91,27,M,R,
382,4,4,9,3,33,47,683,['n'],1,right,['0'],6,143,[-0.13723226],100,47,medium,plus,dotcolour,alfa,,,91,27,M,R,
383,5,5,9,3,27,53,533,['n'],1,right,['0'],6,133,[-0.02692016],93,53,easy,plus,dotcolour,alfa,,,91,27,M,R,
384,6,6,9,3,27,53,683,['n'],1,right,['0'],6,93,[-0.08611332],100,53,easy,plus,dotcolour,alfa,,,91,27,M,R,
385,7,7,9,3,36,44,651,['n'],1,right,['9'],5,305,[-0.16092904],100,44,hard,plus,dotcolour,alfa,,,91,27,M,R,
386,8,8,9,3,27,53,534,['n'],1,right,['0'],6,152,[-0.09435137],100,53,easy,plus,dotcolour,alfa,,,91,27,M,R,
387,9,9,9,3,47,33,733,['c'],1,left,['9'],5,183,[0.06516131],100,47,medium,plus,dotcolour,alfa,,,91,27,M,R,
388,10,10,9,3,53,27,850,['c'],1,left,['9'],5,167,[0.06520968],100,53,easy,plus,dotcolour,alfa,,,91,27,M,R,
389,11,11,9,3,53,27,800,['c'],1,left,['9'],5,297,[0.08909147],100,53,easy,plus,dotcolour,alfa,,,91,27,M,R,
390,12,12,9,3,53,27,783,['c'],1,left,['9'],5,263,[0.0909145],100,53,easy,plus,dotcolour,alfa,,,91,27,M,R,
391,13,13,9,3,53,27,733,['c'],1,left,['0'],6,194,[0.0482863],98,53,easy,plus,dotcolour,alfa,,,91,27,M,R,
392,14,14,9,3,53,27,749,['c'],1,left,['0'],6,117,[0.04496009],99,53,easy,plus,dotcolour,alfa,,,91,27,M,R,
393,15,15,9,3,33,47,683,['n'],1,right,['0'],6,157,[-0.06212611],100,47,medium,plus,dotcolour,alfa,,,91,27,M,R,
394,16,16,9,3,27,53,651,['n'],1,right,['0'],6,102,[-0.12034946],100,53,easy,plus,dotcolour,alfa,,,91,27,M,R,
395,17,17,9,3,53,27,635,['c'],1,left,['9'],5,202,[0.11866193],100,53,easy,plus,dotcolour,alfa,,,91,27,M,R,
396,18,18,9,3,33,47,666,['c'],0,right,['1'],1,1153,[-0.05516893],14,47,medium,plus,dotcolour,alfa,,,91,27,M,R,
397,19,19,9,3,44,36,2850,['c'],1,left,['2'],2,258,[0.12797476],100,44,hard,plus,dotcolour,alfa,,,91,27,M,R,
398,20,20,9,3,47,33,450,['n'],0,left,['0'],6,166,[-0.10065641],100,47,medium,plus,dotcolour,alfa,,,91,27,M,R,
399,21,21,9,3,53,27,1067,['c'],1,left,['0'],6,518,[0.21256216],100,53,easy,plus,dotcolour,alfa,,,91,27,M,R,
400,22,22,9,3,44,36,1683,['n'],0,left,['9'],5,816,[0.00721093],43,44,hard,plus,dotcolour,alfa,,,91,27,M,R,
401,23,23,9,3,27,53,651,['n'],1,right,['0'],6,343,[-0.11609054],100,53,easy,plus,dotcolour,alfa,,,91,27,M,R,
402,24,24,9,3,36,44,650,['n'],1,right,['0'],6,472,[-0.14572807],100,44,hard,plus,dotcolour,alfa,,,91,27,M,R,
403,25,25,9,3,36,44,950,['n'],1,right,['0'],6,72,[-0.05412467],100,44,hard,plus,dotcolour,alfa,,,91,27,M,R,
404,26,26,9,3,47,33,684,['c'],1,left,['9'],5,139,[0.05105263],99,47,medium,plus,dotcolour,alfa,,,91,27,M,R,
405,27,27,9,3,27,53,766,['n'],1,right,['0'],6,73,[-0.03059675],98,53,easy,plus,dotcolour,alfa,,,91,27,M,R,
406,28,28,9,3,44,36,12884,['n'],0,left,['9'],5,508,[-0.0197369],73,44,hard,plus,dotcolour,alfa,,,91,27,M,R,
407,29,29,9,3,36,44,999,['n'],1,right,['9'],5,225,[-0.06264006],99,44,hard,plus,dotcolour,alfa,,,91,27,M,R,
408,30,30,9,3,36,44,600,['n'],1,right,['9'],5,104,[-0.09404614],100,44,hard,plus,dotcolour,alfa,,,91,27,M,R,
409,31,31,9,3,47,33,667,['c'],1,left,['0'],6,427,[0.02154292],77,47,medium,plus,dotcolour,alfa,,,91,27,M,R,
410,32,32,9,3,44,36,749,['c'],1,left,['9'],5,173,[0.13297146],100,44,hard,plus,dotcolour,alfa,,,91,27,M,R,
411,33,33,9,3,36,44,600,['n'],1,right,['0'],6,336,[-0.05587204],97,44,hard,plus,dotcolour,alfa,,,91,27,M,R,
412,34,34,9,3,33,47,567,['n'],1,right,['9'],5,189,[-0.11566449],100,47,medium,plus,dotcolour,alfa,,,91,27,M,R,
413,35,35,9,3,33,47,884,['n'],1,right,['9'],5,251,[-0.14920189],100,47,medium,plus,dotcolour,alfa,,,91,27,M,R,
414,36,36,9,3,47,33,1084,['c'],1,left,['9'],5,183,[0.10011161],100,47,medium,plus,dotcolour,alfa,,,91,27,M,R,
415,37,37,9,3,44,36,834,['n'],0,left,['9'],5,321,[0.01616969],26,44,hard,plus,dotcolour,alfa,,,91,27,M,R,
416,38,38,9,3,33,47,1033,['c'],0,right,['8'],4,427,[0.09128019],99,47,medium,plus,dotcolour,alfa,,,91,27,M,R,
417,39,39,9,3,44,36,700,['c'],1,left,['8'],4,183,[0.11751053],100,44,hard,plus,dotcolour,alfa,,,91,27,M,R,
418,40,40,9,3,44,36,1484,['c'],1,left,['3'],3,151,[0.03242003],95,44,hard,plus,dotcolour,alfa,,,91,27,M,R,
419,41,41,9,3,36,44,484,['c'],0,right,['3'],3,575,[0.14179444],100,44,hard,plus,dotcolour,alfa,,,91,27,M,R,
420,42,0,10,3,47,33,267,['n'],0,left,['8'],4,61,[-0.07702907],100,47,medium,plus,dotcolour,alfa,,,91,27,M,R,
421,43,1,10,3,36,44,317,['c'],0,right,['3'],3,7,[0.07029043],100,44,hard,plus,dotcolour,alfa,,,91,27,M,R,
422,44,2,10,3,44,36,400,['n'],0,left,['8'],4,113,[-0.0691995],100,44,hard,plus,dotcolour,alfa,,,91,27,M,R,
423,45,3,10,3,27,53,384,['c'],0,right,['9'],5,398,[0.03797123],90,53,easy,plus,dotcolour,alfa,,,91,27,M,R,
424,46,4,10,3,53,27,268,['c'],1,left,['2'],2,100,[0.05053634],100,53,easy,plus,dotcolour,alfa,,,91,27,M,R,
425,47,5,10,3,44,36,367,['c'],1,left,['9'],5,347,[0.146688],100,44,hard,plus,dotcolour,alfa,,,91,27,M,R,
426,48,6,10,3,27,53,299,['c'],0,right,['9'],5,266,[0.14527086],100,53,easy,plus,dotcolour,alfa,,,91,27,M,R,
427,49,7,10,3,47,33,301,['c'],1,left,['0'],6,445,[0.16413487],100,47,medium,plus,dotcolour,alfa,,,91,27,M,R,
428,50,8,10,3,33,47,1216,['n'],1,right,['9'],5,164,[-0.15183438],100,47,medium,plus,dotcolour,alfa,,,91,27,M,R,
429,51,9,10,3,33,47,550,['n'],1,right,['0'],6,448,[-0.04777297],93,47,medium,plus,dotcolour,alfa,,,91,27,M,R,
430,52,10,10,3,47,33,766,['c'],1,left,['3'],3,1313,[0.16830684],99,47,medium,plus,dotcolour,alfa,,,91,27,M,R,
431,53,11,10,3,36,44,567,['n'],1,right,['9'],5,207,[-0.11620466],100,44,hard,plus,dotcolour,alfa,,,91,27,M,R,
432,54,12,10,3,47,33,1067,['c'],1,left,['9'],5,141,[0.08244202],100,47,medium,plus,dotcolour,alfa,,,91,27,M,R,
433,55,13,10,3,44,36,1133,['c'],1,left,['0'],6,131,[0.04783138],99,44,hard,plus,dotcolour,alfa,,,91,27,M,R,
434,56,14,10,3,44,36,950,['c'],1,left,['8'],4,521,[0.04495693],90,44,hard,plus,dotcolour,alfa,,,91,27,M,R,
435,57,15,10,3,27,53,1250,['n'],1,right,['0'],6,275,[-0.02254949],82,53,easy,plus,dotcolour,alfa,,,91,27,M,R,
436,58,16,10,3,53,27,1000,['c'],1,left,['0'],6,122,[0.13698181],100,53,easy,plus,dotcolour,alfa,,,91,27,M,R,
437,59,17,10,3,36,44,717,['n'],1,right,['0'],6,537,[-0.095469],99,44,hard,plus,dotcolour,alfa,,,91,27,M,R,
438,60,18,10,3,53,27,651,['n'],0,left,['1'],1,1075,[0.24123197],0,53,easy,plus,dotcolour,alfa,,,91,27,M,R,
439,61,19,10,3,36,44,899,['n'],1,right,['1'],1,397,[-0.12335069],100,44,hard,plus,dotcolour,alfa,,,91,27,M,R,
440,62,20,10,3,44,36,1767,['c'],1,left,['0'],6,199,[0.09376246],100,44,hard,plus,dotcolour,alfa,,,91,27,M,R,
441,63,21,10,3,36,44,666,['n'],1,right,['0'],6,94,[-0.10391103],100,44,hard,plus,dotcolour,alfa,,,91,27,M,R,
442,64,22,10,3,27,53,601,['n'],1,right,['0'],6,147,[-0.03066941],95,53,easy,plus,dotcolour,alfa,,,91,27,M,R,
443,65,23,10,3,47,33,783,['n'],0,left,['0'],6,87,[-0.05020092],100,47,medium,plus,dotcolour,alfa,,,91,27,M,R,
444,66,24,10,3,36,44,734,['n'],1,right,['9'],5,184,[-0.12793456],100,44,hard,plus,dotcolour,alfa,,,91,27,M,R,
445,67,25,10,3,47,33,916,['c'],1,left,['0'],6,173,[0.10685386],100,47,medium,plus,dotcolour,alfa,,,91,27,M,R,
446,68,26,10,3,44,36,717,['c'],1,left,['9'],5,267,[0.12256374],100,44,hard,plus,dotcolour,alfa,,,91,27,M,R,
447,69,27,10,3,33,47,767,['n'],1,right,['0'],6,147,[-0.1715294],100,47,medium,plus,dotcolour,alfa,,,91,27,M,R,
448,70,28,10,3,33,47,616,['n'],1,right,['0'],6,142,[-0.05001994],99,47,medium,plus,dotcolour,alfa,,,91,27,M,R,
449,71,29,10,3,53,27,617,['c'],1,left,['0'],6,208,[0.05044396],98,53,easy,plus,dotcolour,alfa,,,91,27,M,R,
450,72,30,10,3,36,44,750,['c'],0,right,['0'],6,251,[0.03722124],94,44,hard,plus,dotcolour,alfa,,,91,27,M,R,
451,73,31,10,3,53,27,717,['c'],1,left,['0'],6,117,[0.0333896],97,53,easy,plus,dotcolour,alfa,,,91,27,M,R,
452,74,32,10,3,33,47,717,['c'],0,right,['0'],6,182,[0.00946771],69,47,medium,plus,dotcolour,alfa,,,91,27,M,R,
453,75,33,10,3,33,47,867,['n'],1,right,['9'],5,213,[-0.1622228],100,47,medium,plus,dotcolour,alfa,,,91,27,M,R,
454,76,34,10,3,53,27,1300,['c'],1,left,['0'],6,225,[0.12242888],100,53,easy,plus,dotcolour,alfa,,,91,27,M,R,
455,77,35,10,3,47,33,633,['c'],1,left,['0'],6,112,[0.12719607],100,47,medium,plus,dotcolour,alfa,,,91,27,M,R,
456,78,36,10,3,33,47,900,['n'],1,right,['9'],5,297,[-0.10481075],100,47,medium,plus,dotcolour,alfa,,,91,27,M,R,
457,79,37,10,3,27,53,1300,['n'],1,right,['9'],5,354,[-0.11066338],100,53,easy,plus,dotcolour,alfa,,,91,27,M,R,
458,80,38,10,3,53,27,701,['c'],1,left,['0'],6,513,[0.1076821],100,53,easy,plus,dotcolour,alfa,,,91,27,M,R,
459,81,39,10,3,27,53,767,['n'],1,right,['0'],6,312,[-0.13647167],100,53,easy,plus,dotcolour,alfa,,,91,27,M,R,
460,82,40,10,3,27,53,1116,['n'],1,right,['0'],6,264,[-0.09094103],100,53,easy,plus,dotcolour,alfa,,,91,27,M,R,
461,83,41,10,3,44,36,767,['n'],0,left,['0'],6,256,[-0.05277166],98,44,hard,plus,dotcolour,alfa,,,91,27,M,R,
462,84,0,11,3,53,27,951,['c'],1,left,['9'],5,180,[0.07715261],100,53,easy,plus,dotcolour,alfa,,,91,27,M,R,
463,85,1,11,3,33,47,717,['n'],1,right,['9'],5,305,[-0.0995718],100,47,medium,plus,dotcolour,alfa,,,91,27,M,R,
464,86,2,11,3,47,33,650,['c'],1,left,['9'],5,340,[0.03385757],89,47,medium,plus,dotcolour,alfa,,,91,27,M,R,
465,87,3,11,3,27,53,716,['n'],1,right,['9'],5,163,[-0.14072191],100,53,easy,plus,dotcolour,alfa,,,91,27,M,R,
466,88,4,11,3,44,36,616,['c'],1,left,['9'],5,245,[0.11660936],100,44,hard,plus,dotcolour,alfa,,,91,27,M,R,
467,89,5,11,3,36,44,633,['c'],0,right,['0'],6,138,[0.02526929],92,44,hard,plus,dotcolour,alfa,,,91,27,M,R,
468,90,6,11,3,47,33,633,['c'],1,left,['9'],5,109,[0.11924009],100,47,medium,plus,dotcolour,alfa,,,91,27,M,R,
469,91,7,11,3,53,27,700,['n'],0,left,['9'],5,502,[0.02580412],21,53,easy,plus,dotcolour,alfa,,,91,27,M,R,
470,92,8,11,3,47,33,716,['c'],1,left,['9'],5,159,[0.11447668],100,47,medium,plus,dotcolour,alfa,,,91,27,M,R,
471,93,9,11,3,33,47,650,['n'],1,right,['9'],5,544,[-0.23212661],100,47,medium,plus,dotcolour,alfa,,,91,27,M,R,
472,94,10,11,3,36,44,600,['n'],1,right,['8'],4,475,[0.06771188],3,44,hard,plus,dotcolour,alfa,,,91,27,M,R,
473,95,11,11,3,53,27,933,['c'],1,left,['9'],5,363,[0.11005191],100,53,easy,plus,dotcolour,alfa,,,91,27,M,R,
474,96,12,11,3,27,53,1283,['c'],0,right,['8'],4,419,[0.07538415],99,53,easy,plus,dotcolour,alfa,,,91,27,M,R,
475,97,13,11,3,36,44,1016,['n'],1,right,['9'],5,235,[-0.09121523],100,44,hard,plus,dotcolour,alfa,,,91,27,M,R,
476,98,14,11,3,33,47,618,['n'],1,right,['9'],5,226,[-0.12038288],100,47,medium,plus,dotcolour,alfa,,,91,27,M,R,
477,99,15,11,3,53,27,751,['c'],1,left,['0'],6,380,[0.15958596],100,53,easy,plus,dotcolour,alfa,,,91,27,M,R,
478,100,16,11,3,47,33,917,['c'],1,left,['9'],5,177,[0.10512888],100,47,medium,plus,dotcolour,alfa,,,91,27,M,R,
479,101,17,11,3,44,36,1050,['n'],0,left,['8'],4,770,[-0.05075112],89,44,hard,plus,dotcolour,alfa,,,91,27,M,R,
480,102,18,11,3,27,53,1017,['n'],1,right,['8'],4,363,[-0.13983068],100,53,easy,plus,dotcolour,alfa,,,91,27,M,R,
481,103,19,11,3,53,27,1033,['c'],1,left,['0'],6,140,[0.08532161],100,53,easy,plus,dotcolour,alfa,,,91,27,M,R,
482,104,20,11,3,36,44,617,['n'],1,right,['9'],5,215,[-0.10539986],100,44,hard,plus,dotcolour,alfa,,,91,27,M,R,
483,105,21,11,3,44,36,667,['c'],1,left,['9'],5,157,[0.11315948],100,44,hard,plus,dotcolour,alfa,,,91,27,M,R,
484,106,22,11,3,44,36,816,['c'],1,left,['9'],5,807,[0.20819867],100,44,hard,plus,dotcolour,alfa,,,91,27,M,R,
485,107,23,11,3,36,44,633,['n'],1,right,['0'],6,350,[-0.05684552],97,44,hard,plus,dotcolour,alfa,,,91,27,M,R,
486,108,24,11,3,53,27,1233,['c'],1,left,['0'],6,208,[0.02297795],86,53,easy,plus,dotcolour,alfa,,,91,27,M,R,
487,109,25,11,3,33,47,867,['n'],1,right,['9'],5,254,[-0.11867102],100,47,medium,plus,dotcolour,alfa,,,91,27,M,R,
488,110,26,11,3,44,36,1216,['c'],1,left,['0'],6,277,[0.02646431],86,44,hard,plus,dotcolour,alfa,,,91,27,M,R,
489,111,27,11,3,27,53,1133,['n'],1,right,['0'],6,358,[-0.08200498],99,53,easy,plus,dotcolour,alfa,,,91,27,M,R,
490,112,28,11,3,47,33,701,['c'],1,left,['9'],5,237,[0.08328595],100,47,medium,plus,dotcolour,alfa,,,91,27,M,R,
491,113,29,11,3,27,53,801,['c'],0,right,['1'],1,845,[-0.14072292],0,53,easy,plus,dotcolour,alfa,,,91,27,M,R,
492,114,30,11,3,33,47,1149,['c'],0,right,['1'],1,622,[-0.02434217],25,47,medium,plus,dotcolour,alfa,,,91,27,M,R,
493,115,31,11,3,33,47,766,['n'],1,right,['0'],6,207,[-0.14862758],100,47,medium,plus,dotcolour,alfa,,,91,27,M,R,
494,116,32,11,3,47,33,2232,['c'],1,left,['9'],5,231,[0.08932834],100,47,medium,plus,dotcolour,alfa,,,91,27,M,R,
495,117,33,11,3,36,44,966,['n'],1,right,['9'],5,136,[-0.03706013],97,44,hard,plus,dotcolour,alfa,,,91,27,M,R,
496,118,34,11,3,27,53,1183,['n'],1,right,['0'],6,69,[-0.09166225],100,53,easy,plus,dotcolour,alfa,,,91,27,M,R,
497,119,35,11,3,47,33,867,['c'],1,left,['0'],6,393,[0.04371608],92,47,medium,plus,dotcolour,alfa,,,91,27,M,R,
498,120,36,11,3,33,47,733,['n'],1,right,['9'],5,149,[-0.11132856],100,47,medium,plus,dotcolour,alfa,,,91,27,M,R,
499,121,37,11,3,27,53,715,['n'],1,right,['0'],6,227,[-0.12847873],100,53,easy,plus,dotcolour,alfa,,,91,27,M,R,
500,122,38,11,3,44,36,750,['c'],1,left,['9'],5,214,[0.11259431],100,44,hard,plus,dotcolour,alfa,,,91,27,M,R,
501,123,39,11,3,36,44,899,['c'],0,right,['3'],3,1330,[0.06080896],87,44,hard,plus,dotcolour,alfa,,,91,27,M,R,
502,124,40,11,3,53,27,917,['c'],1,left,['0'],6,89,[0.08265222],100,53,easy,plus,dotcolour,alfa,,,91,27,M,R,
503,125,41,11,3,44,36,684,['c'],1,left,['0'],6,117,[0.09418967],100,44,hard,plus,dotcolour,alfa,,,91,27,M,R,
504,0,0,12,4,47,33,1300,['c'],1,left,['9'],5,93,[0.10684636],96,47,medium,minus,dotcolour,alfa,,,91,27,M,R,
505,1,1,12,4,27,53,617,['n'],1,right,['0'],6,226,[-0.10496424],88,53,easy,minus,dotcolour,alfa,,,91,27,M,R,
506,2,2,12,4,27,53,551,['n'],1,right,['0'],6,139,[-0.07996576],87,53,easy,minus,dotcolour,alfa,,,91,27,M,R,
507,3,3,12,4,44,36,600,['c'],1,left,['0'],6,383,[0.17194736],92,44,hard,minus,dotcolour,alfa,,,91,27,M,R,
508,4,4,12,4,33,47,800,['n'],1,right,['0'],6,129,[-0.15772318],98,47,medium,minus,dotcolour,alfa,,,91,27,M,R,
509,5,5,12,4,47,33,550,['c'],1,left,['0'],6,127,[0.14022467],97,47,medium,minus,dotcolour,alfa,,,91,27,M,R,
510,6,6,12,4,33,47,867,['n'],1,right,['9'],5,297,[-0.00196066],51,47,medium,minus,dotcolour,alfa,,,91,27,M,R,
511,7,7,12,4,36,44,717,['n'],1,right,['9'],5,466,[-0.04110525],63,44,hard,minus,dotcolour,alfa,,,91,27,M,R,
512,8,8,12,4,36,44,817,['n'],1,right,['0'],6,247,[-0.07976021],81,44,hard,minus,dotcolour,alfa,,,91,27,M,R,
513,9,9,12,4,36,44,751,['n'],1,right,['0'],6,144,[-0.05490559],79,44,hard,minus,dotcolour,alfa,,,91,27,M,R,
514,10,10,12,4,53,27,617,['c'],1,left,['0'],6,131,[0.07676957],87,53,easy,minus,dotcolour,alfa,,,91,27,M,R,
515,11,11,12,4,27,53,833,['n'],1,right,['9'],5,494,[-0.11846112],82,53,easy,minus,dotcolour,alfa,,,91,27,M,R,
516,12,12,12,4,27,53,800,['n'],1,right,['0'],6,123,[-0.09742719],92,53,easy,minus,dotcolour,alfa,,,91,27,M,R,
517,13,13,12,4,47,33,901,['c'],1,left,['9'],5,307,[0.13793731],90,47,medium,minus,dotcolour,alfa,,,91,27,M,R,
518,14,14,12,4,27,53,633,['n'],1,right,['0'],6,102,[-0.09268817],93,53,easy,minus,dotcolour,alfa,,,91,27,M,R,
519,15,15,12,4,53,27,867,['c'],1,left,['0'],6,81,[0.12013132],98,53,easy,minus,dotcolour,alfa,,,91,27,M,R,
520,16,16,12,4,27,53,867,['n'],1,right,['0'],6,21,[-0.07760736],99,53,easy,minus,dotcolour,alfa,,,91,27,M,R,
521,17,17,12,4,33,47,701,['n'],1,right,['0'],6,81,[-0.16287871],99,47,medium,minus,dotcolour,alfa,,,91,27,M,R,
522,18,18,12,4,36,44,767,['n'],1,right,['9'],5,129,[-0.1058612],93,44,hard,minus,dotcolour,alfa,,,91,27,M,R,
523,19,19,12,4,44,36,666,['n'],0,left,['9'],5,146,[0.02309736],37,44,hard,minus,dotcolour,alfa,,,91,27,M,R,
524,20,20,12,4,33,47,667,['c'],0,right,['0'],6,115,[0.04278309],76,47,medium,minus,dotcolour,alfa,,,91,27,M,R,
525,21,21,12,4,44,36,1467,['c'],1,left,['9'],5,149,[0.03659564],70,44,hard,minus,dotcolour,alfa,,,91,27,M,R,
526,22,22,12,4,36,44,933,['c'],0,right,['9'],5,339,[0.13562966],89,44,hard,minus,dotcolour,alfa,,,91,27,M,R,
527,23,23,12,4,47,33,1067,['c'],1,left,['9'],5,276,[0.13870103],91,47,medium,minus,dotcolour,alfa,,,91,27,M,R,
528,24,24,12,4,36,44,782,['c'],0,right,['9'],5,122,[0.08026642],89,44,hard,minus,dotcolour,alfa,,,91,27,M,R,
529,25,25,12,4,47,33,2068,['n'],0,left,['8'],4,780,[-0.03151499],58,47,medium,minus,dotcolour,alfa,,,91,27,M,R,
530,26,26,12,4,33,47,950,['n'],1,right,['0'],6,176,[-0.11958645],93,47,medium,minus,dotcolour,alfa,,,91,27,M,R,
531,27,27,12,4,44,36,950,['c'],1,left,['9'],5,148,[0.04735472],75,44,hard,minus,dotcolour,alfa,,,91,27,M,R,
532,28,28,12,4,53,27,1117,['c'],1,left,['0'],6,179,[0.0924788],88,53,easy,minus,dotcolour,alfa,,,91,27,M,R,
533,29,29,12,4,53,27,632,['n'],0,left,['1'],1,1427,[0.11747129],29,53,easy,minus,dotcolour,alfa,,,91,27,M,R,
534,30,30,12,4,44,36,1783,['c'],1,left,['8'],4,924,[0.04687591],61,44,hard,minus,dotcolour,alfa,,,91,27,M,R,
535,31,31,12,4,53,27,900,['c'],1,left,['0'],6,36,[0.05665287],94,53,easy,minus,dotcolour,alfa,,,91,27,M,R,
536,32,32,12,4,44,36,1333,['c'],1,left,['9'],5,159,[0.1060314],92,44,hard,minus,dotcolour,alfa,,,91,27,M,R,
537,33,33,12,4,36,44,917,['n'],1,right,['0'],6,189,[-0.17578855],97,44,hard,minus,dotcolour,alfa,,,91,27,M,R,
538,34,34,12,4,33,47,767,['c'],0,right,['9'],5,160,[0.08037862],86,47,medium,minus,dotcolour,alfa,,,91,27,M,R,
539,35,35,12,4,44,36,700,['c'],1,left,['9'],5,118,[0.04698909],77,44,hard,minus,dotcolour,alfa,,,91,27,M,R,
540,36,36,12,4,33,47,750,['c'],0,right,['8'],4,333,[0.04463649],67,47,medium,minus,dotcolour,alfa,,,91,27,M,R,
541,37,37,12,4,53,27,951,['c'],1,left,['0'],6,1419,[0.34988969],93,53,easy,minus,dotcolour,alfa,,,91,27,M,R,
542,38,38,12,4,53,27,1317,['c'],1,left,['8'],4,1030,[0.04469804],60,53,easy,minus,dotcolour,alfa,,,91,27,M,R,
543,39,39,12,4,47,33,883,['c'],1,left,['9'],5,236,[0.10206528],87,47,medium,minus,dotcolour,alfa,,,91,27,M,R,
544,40,40,12,4,27,53,967,['n'],1,right,['9'],5,252,[-0.14834448],93,53,easy,minus,dotcolour,alfa,,,91,27,M,R,
545,41,41,12,4,47,33,917,['c'],1,left,['8'],4,735,[-0.00638564],48,47,medium,minus,dotcolour,alfa,,,91,27,M,R,
546,42,0,13,4,47,33,751,['c'],1,left,['9'],5,319,[-0.0749584],23,47,medium,minus,dotcolour,alfa,,,91,27,M,R,
547,43,1,13,4,47,33,800,['c'],1,left,['9'],5,132,[0.09096081],90,47,medium,minus,dotcolour,alfa,,,91,27,M,R,
548,44,2,13,4,27,53,1117,['n'],1,right,['0'],6,83,[-0.10602727],96,53,easy,minus,dotcolour,alfa,,,91,27,M,R,
549,45,3,13,4,53,27,883,['c'],1,left,['0'],6,86,[0.09992439],96,53,easy,minus,dotcolour,alfa,,,91,27,M,R,
550,46,4,13,4,36,44,850,['c'],0,right,['8'],4,290,[0.13028793],90,44,hard,minus,dotcolour,alfa,,,91,27,M,R,
551,47,5,13,4,47,33,783,['c'],1,left,['0'],6,95,[0.02353069],67,47,medium,minus,dotcolour,alfa,,,91,27,M,R,
552,48,6,13,4,33,47,800,['c'],0,right,['0'],6,21,[0.06083953],98,47,medium,minus,dotcolour,alfa,,,91,27,M,R,
553,49,7,13,4,36,44,783,['c'],0,right,['9'],5,126,[0.08487044],90,44,hard,minus,dotcolour,alfa,,,91,27,M,R,
554,50,8,13,4,44,36,667,['c'],1,left,['0'],6,248,[0.05244953],72,44,hard,minus,dotcolour,alfa,,,91,27,M,R,
555,51,9,13,4,33,47,1217,['c'],0,right,['9'],5,310,[-0.05723984],28,47,medium,minus,dotcolour,alfa,,,91,27,M,R,
556,52,10,13,4,36,44,866,['n'],1,right,['9'],5,136,[-0.0788782],87,44,hard,minus,dotcolour,alfa,,,91,27,M,R,
557,53,11,13,4,47,33,1333,['c'],1,left,['0'],6,119,[0.09512006],92,47,medium,minus,dotcolour,alfa,,,91,27,M,R,
558,54,12,13,4,33,47,1167,['n'],1,right,['9'],5,157,[-0.07839971],86,47,medium,minus,dotcolour,alfa,,,91,27,M,R,
559,55,13,13,4,47,33,817,['c'],1,left,['9'],5,167,[0.10759481],91,47,medium,minus,dotcolour,alfa,,,91,27,M,R,
560,56,14,13,4,27,53,2417,['c'],0,right,['1'],1,1121,[-0.13248843],24,53,easy,minus,dotcolour,alfa,,,91,27,M,R,
561,57,15,13,4,44,36,1317,['c'],1,left,['0'],6,104,[0.08595701],92,44,hard,minus,dotcolour,alfa,,,91,27,M,R,
562,58,16,13,4,33,47,1050,['n'],1,right,['0'],6,139,[-0.14601663],97,47,medium,minus,dotcolour,alfa,,,91,27,M,R,
563,59,17,13,4,44,36,1350,['c'],1,left,['9'],5,386,[0.08515334],77,44,hard,minus,dotcolour,alfa,,,91,27,M,R,
564,60,18,13,4,47,33,1133,['c'],1,left,['8'],4,358,[-0.04129123],35,47,medium,minus,dotcolour,alfa,,,91,27,M,R,
565,61,19,13,4,33,47,1050,['n'],1,right,['0'],6,367,[-0.11611403],85,47,medium,minus,dotcolour,alfa,,,91,27,M,R,
566,62,20,13,4,44,36,1050,['n'],0,left,['8'],4,744,[0.05728651],35,44,hard,minus,dotcolour,alfa,,,91,27,M,R,
567,63,21,13,4,33,47,750,['n'],1,right,['9'],5,470,[-0.13826855],86,47,medium,minus,dotcolour,alfa,,,91,27,M,R,
568,64,22,13,4,27,53,1068,['n'],1,right,['0'],6,1057,[-0.13768847],77,53,easy,minus,dotcolour,alfa,,,91,27,M,R,
569,65,23,13,4,27,53,716,['n'],1,right,['0'],6,107,[-0.0786239],90,53,easy,minus,dotcolour,alfa,,,91,27,M,R,
570,66,24,13,4,36,44,717,['n'],1,right,['0'],6,155,[-0.07895247],86,44,hard,minus,dotcolour,alfa,,,91,27,M,R,
571,67,25,13,4,27,53,750,['n'],1,right,['0'],6,360,[-0.11184614],84,53,easy,minus,dotcolour,alfa,,,91,27,M,R,
572,68,26,13,4,47,33,767,['c'],1,left,['0'],6,124,[0.04462738],76,47,medium,minus,dotcolour,alfa,,,91,27,M,R,
573,69,27,13,4,44,36,934,['c'],1,left,['9'],5,179,[0.08828974],87,44,hard,minus,dotcolour,alfa,,,91,27,M,R,
574,70,28,13,4,44,36,716,['c'],1,left,['9'],5,401,[0.26733887],98,44,hard,minus,dotcolour,alfa,,,91,27,M,R,
575,71,29,13,4,53,27,734,['c'],1,left,['0'],6,116,[0.09628018],93,53,easy,minus,dotcolour,alfa,,,91,27,M,R,
576,72,30,13,4,44,36,733,['c'],1,left,['0'],6,172,[0.01116783],56,44,hard,minus,dotcolour,alfa,,,91,27,M,R,
577,73,31,13,4,53,27,617,['c'],1,left,['0'],6,62,[0.08812406],96,53,easy,minus,dotcolour,alfa,,,91,27,M,R,
578,74,32,13,4,27,53,1084,['n'],1,right,['9'],5,169,[-0.12979402],94,53,easy,minus,dotcolour,alfa,,,91,27,M,R,
579,75,33,13,4,53,27,833,['c'],1,left,['9'],5,435,[0.06006068],69,53,easy,minus,dotcolour,alfa,,,91,27,M,R,
580,76,34,13,4,36,44,1617,['c'],0,right,['8'],4,706,[0.01366939],54,44,hard,minus,dotcolour,alfa,,,91,27,M,R,
581,77,35,13,4,53,27,800,['c'],1,left,['0'],6,62,[0.03399669],77,53,easy,minus,dotcolour,alfa,,,91,27,M,R,
582,78,36,13,4,27,53,767,['n'],1,right,['0'],6,119,[-0.11800084],96,53,easy,minus,dotcolour,alfa,,,91,27,M,R,
583,79,37,13,4,53,27,700,['c'],1,left,['0'],6,55,[0.07574763],95,53,easy,minus,dotcolour,alfa,,,91,27,M,R,
584,80,38,13,4,53,27,733,['c'],1,left,['0'],6,81,[0.05686065],86,53,easy,minus,dotcolour,alfa,,,91,27,M,R,
585,81,39,13,4,33,47,934,['n'],1,right,['0'],6,122,[-0.11297133],95,47,medium,minus,dotcolour,alfa,,,91,27,M,R,
586,82,40,13,4,36,44,883,['n'],1,right,['9'],5,307,[-0.04025303],66,44,hard,minus,dotcolour,alfa,,,91,27,M,R,
587,83,41,13,4,36,44,733,['c'],0,right,['3'],3,1059,[0.08772416],68,44,hard,minus,dotcolour,alfa,,,91,27,M,R,
588,84,0,14,4,44,36,1018,['n'],0,left,['9'],5,418,[-0.08960224],78,44,hard,minus,dotcolour,alfa,,,91,27,M,R,
589,85,1,14,4,33,47,916,['n'],1,right,['9'],5,341,[-0.09539317],81,47,medium,minus,dotcolour,alfa,,,91,27,M,R,
590,86,2,14,4,36,44,883,['n'],1,right,['9'],5,262,[-0.17889771],96,44,hard,minus,dotcolour,alfa,,,91,27,M,R,
591,87,3,14,4,33,47,667,['n'],1,right,['0'],6,378,[-0.11237351],84,47,medium,minus,dotcolour,alfa,,,91,27,M,R,
592,88,4,14,4,36,44,616,['n'],1,right,['0'],6,243,[-0.04151608],68,44,hard,minus,dotcolour,alfa,,,91,27,M,R,
593,89,5,14,4,47,33,784,['c'],1,left,['9'],5,260,[0.13276035],91,47,medium,minus,dotcolour,alfa,,,91,27,M,R,
594,90,6,14,4,44,36,767,['c'],1,left,['9'],5,226,[0.14610321],94,44,hard,minus,dotcolour,alfa,,,91,27,M,R,
595,91,7,14,4,27,53,500,['n'],1,right,['0'],6,175,[-0.12864179],94,53,easy,minus,dotcolour,alfa,,,91,27,M,R,
596,92,8,14,4,44,36,684,['n'],0,left,['8'],4,318,[-0.00256303],51,44,hard,minus,dotcolour,alfa,,,91,27,M,R,
597,93,9,14,4,36,44,783,['c'],0,right,['2'],2,1547,[0.10023107],67,44,hard,minus,dotcolour,alfa,,,91,27,M,R,
598,94,10,14,4,44,36,783,['n'],0,left,['9'],5,430,[-0.12461028],85,44,hard,minus,dotcolour,alfa,,,91,27,M,R,
599,95,11,14,4,47,33,766,['c'],1,left,['9'],5,136,[0.15837529],98,47,medium,minus,dotcolour,alfa,,,91,27,M,R,
600,96,12,14,4,47,33,799,['c'],1,left,['9'],5,133,[0.12228319],95,47,medium,minus,dotcolour,alfa,,,91,27,M,R,
601,97,13,14,4,44,36,768,['n'],0,left,['9'],5,161,[-0.04723479],74,44,hard,minus,dotcolour,alfa,,,91,27,M,R,
602,98,14,14,4,27,53,1050,['n'],1,right,['0'],6,186,[-0.14924792],96,53,easy,minus,dotcolour,alfa,,,91,27,M,R,
603,99,15,14,4,36,44,750,['c'],0,right,['8'],4,294,[0.06870891],76,44,hard,minus,dotcolour,alfa,,,91,27,M,R,
604,100,16,14,4,27,53,634,['c'],0,right,['0'],6,162,[0.01507062],58,53,easy,minus,dotcolour,alfa,,,91,27,M,R,
605,101,17,14,4,44,36,1434,['n'],0,left,['9'],5,475,[-0.03032325],60,44,hard,minus,dotcolour,alfa,,,91,27,M,R,
606,102,18,14,4,33,47,684,['n'],1,right,['9'],5,254,[-0.14490643],93,47,medium,minus,dotcolour,alfa,,,91,27,M,R,
607,103,19,14,4,33,47,1167,['n'],1,right,['0'],6,207,[-0.08613583],85,47,medium,minus,dotcolour,alfa,,,91,27,M,R,
608,104,20,14,4,47,33,984,['c'],1,left,['9'],5,256,[0.09100561],83,47,medium,minus,dotcolour,alfa,,,91,27,M,R,
609,105,21,14,4,36,44,1284,['n'],1,right,['9'],5,195,[-0.0836318],85,44,hard,minus,dotcolour,alfa,,,91,27,M,R,
610,106,22,14,4,27,53,617,['n'],1,right,['0'],6,476,[-0.11489075],82,53,easy,minus,dotcolour,alfa,,,91,27,M,R,
611,107,23,14,4,33,47,583,['n'],1,right,['0'],6,243,[-0.11935964],90,47,medium,minus,dotcolour,alfa,,,91,27,M,R,
612,108,24,14,4,53,27,700,['c'],1,left,['0'],6,766,[0.27619385],94,53,easy,minus,dotcolour,alfa,,,91,27,M,R,
613,109,25,14,4,47,33,916,['c'],1,left,['9'],5,332,[0.13131931],89,47,medium,minus,dotcolour,alfa,,,91,27,M,R,
614,110,26,14,4,47,33,966,['c'],1,left,['0'],6,153,[0.09557532],90,47,medium,minus,dotcolour,alfa,,,91,27,M,R,
615,111,27,14,4,47,33,733,['c'],1,left,['0'],6,599,[0.19718146],91,47,medium,minus,dotcolour,alfa,,,91,27,M,R,
616,112,28,14,4,33,47,667,['n'],1,right,['9'],5,150,[-0.081383],87,47,medium,minus,dotcolour,alfa,,,91,27,M,R,
617,113,29,14,4,36,44,683,['n'],1,right,['9'],5,110,[-0.10990956],95,44,hard,minus,dotcolour,alfa,,,91,27,M,R,
618,114,30,14,4,27,53,634,['n'],1,right,['9'],5,145,[-0.1538211],97,53,easy,minus,dotcolour,alfa,,,91,27,M,R,
619,115,31,14,4,53,27,700,['c'],1,left,['9'],5,121,[0.05980942],82,53,easy,minus,dotcolour,alfa,,,91,27,M,R,
620,116,32,14,4,53,27,834,['c'],1,left,['9'],5,260,[0.07641538],79,53,easy,minus,dotcolour,alfa,,,91,27,M,R,
621,117,33,14,4,53,27,699,['c'],1,left,['0'],6,119,[0.09968023],93,53,easy,minus,dotcolour,alfa,,,91,27,M,R,
622,118,34,14,4,44,36,634,['c'],1,left,['0'],6,322,[0.05761408],71,44,hard,minus,dotcolour,alfa,,,91,27,M,R,
623,119,35,14,4,53,27,800,['c'],1,left,['0'],6,110,[0.1111773],95,53,easy,minus,dotcolour,alfa,,,91,27,M,R,
624,120,36,14,4,27,53,883,['n'],1,right,['0'],6,448,[-0.16862554],91,53,easy,minus,dotcolour,alfa,,,91,27,M,R,
625,121,37,14,4,53,27,783,['c'],1,left,['0'],6,176,[0.07018911],82,53,easy,minus,dotcolour,alfa,,,91,27,M,R,
626,122,38,14,4,53,27,867,['c'],1,left,['0'],6,263,[0.16720739],95,53,easy,minus,dotcolour,alfa,,,91,27,M,R,
627,123,39,14,4,33,47,984,['c'],0,right,['9'],5,295,[0.09799646],84,47,medium,minus,dotcolour,alfa,,,91,27,M,R,
628,124,40,14,4,27,53,750,['n'],1,right,['0'],6,326,[-0.05263851],70,53,easy,minus,dotcolour,alfa,,,91,27,M,R,
629,125,41,14,4,36,44,700,['c'],0,right,['9'],5,214,[0.05700865],75,44,hard,minus,dotcolour,alfa,,,91,27,M,R,
630,0,0,15,5,47,33,851,['c'],1,left,['9'],5,407,[0.16098108],100,47,medium,plus,dotcolour,alfa,,,91,27,M,R,
631,1,1,15,5,36,44,850,['n'],1,right,['9'],5,190,[-0.11819727],100,44,hard,plus,dotcolour,alfa,,,91,27,M,R,
632,2,2,15,5,53,27,784,['c'],1,left,['8'],4,360,[0.28474838],100,53,easy,plus,dotcolour,alfa,,,91,27,M,R,
633,3,3,15,5,47,33,683,['c'],1,left,['9'],5,216,[0.06641575],99,47,medium,plus,dotcolour,alfa,,,91,27,M,R,
634,4,4,15,5,27,53,1167,['n'],1,right,['9'],5,81,[-0.07936235],100,53,easy,plus,dotcolour,alfa,,,91,27,M,R,
635,5,5,15,5,36,44,599,['n'],1,right,['9'],5,111,[-0.07950796],100,44,hard,plus,dotcolour,alfa,,,91,27,M,R,
636,6,6,15,5,44,36,684,['c'],1,left,['9'],5,201,[0.15207788],100,44,hard,plus,dotcolour,alfa,,,91,27,M,R,
637,7,7,15,5,36,44,934,['n'],1,right,['9'],5,204,[-0.05854479],99,44,hard,plus,dotcolour,alfa,,,91,27,M,R,
638,8,8,15,5,44,36,1117,['n'],0,left,['8'],4,649,[-0.07356934],96,44,hard,plus,dotcolour,alfa,,,91,27,M,R,
639,9,9,15,5,53,27,750,['c'],1,left,['9'],5,667,[0.18227622],100,53,easy,plus,dotcolour,alfa,,,91,27,M,R,
640,10,10,15,5,44,36,767,['n'],0,left,['1'],1,1315,[0.28510313],0,44,hard,plus,dotcolour,alfa,,,91,27,M,R,
641,11,11,15,5,27,53,1167,['c'],0,right,['1'],1,376,[0.05282225],96,53,easy,plus,dotcolour,alfa,,,91,27,M,R,
642,12,12,15,5,53,27,1483,['c'],1,left,['0'],6,111,[0.05367713],100,53,easy,plus,dotcolour,alfa,,,91,27,M,R,
643,13,13,15,5,53,27,2083,['c'],1,left,['3'],3,440,[0.17149884],100,53,easy,plus,dotcolour,alfa,,,91,27,M,R,
644,14,14,15,5,44,36,800,['n'],0,left,['8'],4,167,[-0.09758812],100,44,hard,plus,dotcolour,alfa,,,91,27,M,R,
645,15,15,15,5,33,47,650,['n'],1,right,['9'],5,264,[-0.04838849],97,47,medium,plus,dotcolour,alfa,,,91,27,M,R,
646,16,16,15,5,33,47,634,['n'],1,right,['9'],5,157,[-0.05321848],99,47,medium,plus,dotcolour,alfa,,,91,27,M,R,
647,17,17,15,5,47,33,650,['n'],0,left,['9'],5,142,[-0.112602],100,47,medium,plus,dotcolour,alfa,,,91,27,M,R,
648,18,18,15,5,27,53,617,['n'],1,right,['0'],6,449,[-0.10853438],100,53,easy,plus,dotcolour,alfa,,,91,27,M,R,
649,19,19,15,5,44,36,634,['n'],0,left,['9'],5,439,[-0.01891223],74,44,hard,plus,dotcolour,alfa,,,91,27,M,R,
650,20,20,15,5,36,44,550,['n'],1,right,['0'],6,305,[0.00683447],39,44,hard,plus,dotcolour,alfa,,,91,27,M,R,
651,21,21,15,5,27,53,617,['n'],1,right,['0'],6,205,[-0.10215057],100,53,easy,plus,dotcolour,alfa,,,91,27,M,R,
652,22,22,15,5,53,27,716,['c'],1,left,['0'],6,306,[0.23093852],100,53,easy,plus,dotcolour,alfa,,,91,27,M,R,
653,23,23,15,5,36,44,1167,['n'],1,right,['0'],6,216,[-0.1217935],100,44,hard,plus,dotcolour,alfa,,,91,27,M,R,
654,24,24,15,5,27,53,600,['n'],1,right,['0'],6,201,[-0.16190277],100,53,easy,plus,dotcolour,alfa,,,91,27,M,R,
655,25,25,15,5,44,36,616,['c'],1,left,['9'],5,185,[0.16833303],100,44,hard,plus,dotcolour,alfa,,,91,27,M,R,
656,26,26,15,5,33,47,950,['c'],0,right,['9'],5,157,[0.06667076],100,47,medium,plus,dotcolour,alfa,,,91,27,M,R,
657,27,27,15,5,47,33,750,['c'],1,left,['0'],6,194,[0.05820661],99,47,medium,plus,dotcolour,alfa,,,91,27,M,R,
658,28,28,15,5,27,53,916,['n'],1,right,['0'],6,207,[-0.11332691],100,53,easy,plus,dotcolour,alfa,,,91,27,M,R,
659,29,29,15,5,53,27,666,['c'],1,left,['9'],5,597,[0.15482795],100,53,easy,plus,dotcolour,alfa,,,91,27,M,R,
660,30,30,15,5,33,47,617,['n'],1,right,['9'],5,221,[-0.00848735],66,47,medium,plus,dotcolour,alfa,,,91,27,M,R,
661,31,31,15,5,33,47,699,['n'],1,right,['0'],6,170,[-0.04864846],99,47,medium,plus,dotcolour,alfa,,,91,27,M,R,
662,32,32,15,5,33,47,950,['n'],1,right,['0'],6,134,[-0.08711527],100,47,medium,plus,dotcolour,alfa,,,91,27,M,R,
663,33,33,15,5,47,33,1250,['n'],0,left,['8'],4,601,[-0.09203708],99,47,medium,plus,dotcolour,alfa,,,91,27,M,R,
664,34,34,15,5,47,33,1151,['n'],0,left,['8'],4,252,[-0.06186519],99,47,medium,plus,dotcolour,alfa,,,91,27,M,R,
665,35,35,15,5,36,44,834,['n'],1,right,['9'],5,450,[-0.03347298],86,44,hard,plus,dotcolour,alfa,,,91,27,M,R,
666,36,36,15,5,33,47,684,['n'],1,right,['9'],5,215,[-0.02850548],90,47,medium,plus,dotcolour,alfa,,,91,27,M,R,
667,37,37,15,5,27,53,550,['n'],1,right,['0'],6,561,[0.04019284],13,53,easy,plus,dotcolour,alfa,,,91,27,M,R,
668,38,38,15,5,47,33,1000,['n'],0,left,['9'],5,836,[0.06054022],8,47,medium,plus,dotcolour,alfa,,,91,27,M,R,
669,39,39,15,5,36,44,1000,['n'],1,right,['9'],5,563,[-0.08788666],99,44,hard,plus,dotcolour,alfa,,,91,27,M,R,
670,40,40,15,5,44,36,650,['n'],0,left,['8'],4,1116,[-0.19558886],100,44,hard,plus,dotcolour,alfa,,,91,27,M,R,
671,41,41,15,5,53,27,900,['c'],1,left,['9'],5,307,[0.08732494],100,53,easy,plus,dotcolour,alfa,,,91,27,M,R,
672,42,0,16,5,44,36,1351,['n'],0,left,['9'],5,102,[-0.088675],100,44,hard,plus,dotcolour,alfa,,,91,27,M,R,
673,43,1,16,5,53,27,1000,['c'],1,left,['9'],5,130,[0.09187717],100,53,easy,plus,dotcolour,alfa,,,91,27,M,R,
674,44,2,16,5,27,53,767,['n'],1,right,['9'],5,136,[-0.0191016],87,53,easy,plus,dotcolour,alfa,,,91,27,M,R,
675,45,3,16,5,36,44,933,['n'],1,right,['9'],5,302,[-0.10021491],100,44,hard,plus,dotcolour,alfa,,,91,27,M,R,
676,46,4,16,5,36,44,1033,['c'],0,right,['9'],5,122,[0.11322023],100,44,hard,plus,dotcolour,alfa,,,91,27,M,R,
677,47,5,16,5,47,33,867,['c'],1,left,['9'],5,109,[0.09909878],100,47,medium,plus,dotcolour,alfa,,,91,27,M,R,
678,48,6,16,5,27,53,617,['n'],1,right,['9'],5,128,[-0.09869371],100,53,easy,plus,dotcolour,alfa,,,91,27,M,R,
679,49,7,16,5,47,33,718,['c'],1,left,['9'],5,192,[0.04016343],96,47,medium,plus,dotcolour,alfa,,,91,27,M,R,
680,50,8,16,5,47,33,617,['c'],1,left,['8'],4,416,[0.09466531],99,47,medium,plus,dotcolour,alfa,,,91,27,M,R,
681,51,9,16,5,33,47,999,['n'],1,right,['0'],6,281,[-0.10585142],100,47,medium,plus,dotcolour,alfa,,,91,27,M,R,
682,52,10,16,5,53,27,684,['c'],1,left,['0'],6,188,[0.12553855],100,53,easy,plus,dotcolour,alfa,,,91,27,M,R,
683,53,11,16,5,53,27,833,['n'],0,left,['0'],6,229,[-0.05197216],98,53,easy,plus,dotcolour,alfa,,,91,27,M,R,
684,54,12,16,5,36,44,983,['n'],1,right,['9'],5,541,[-0.12106479],100,44,hard,plus,dotcolour,alfa,,,91,27,M,R,
685,55,13,16,5,33,47,600,['n'],1,right,['0'],6,201,[-0.00190707],54,47,medium,plus,dotcolour,alfa,,,91,27,M,R,
686,56,14,16,5,47,33,951,['c'],1,left,['0'],6,93,[0.03777293],99,47,medium,plus,dotcolour,alfa,,,91,27,M,R,
687,57,15,16,5,36,44,2317,['n'],1,right,['8'],4,373,[-0.05353596],96,44,hard,plus,dotcolour,alfa,,,91,27,M,R,
688,58,16,16,5,27,53,700,['n'],1,right,['0'],6,99,[-0.06735686],100,53,easy,plus,dotcolour,alfa,,,91,27,M,R,
689,59,17,16,5,47,33,717,['c'],1,left,['0'],6,284,[0.060708],98,47,medium,plus,dotcolour,alfa,,,91,27,M,R,
690,60,18,16,5,53,27,651,['c'],1,left,['0'],6,208,[0.11947117],100,53,easy,plus,dotcolour,alfa,,,91,27,M,R,
691,61,19,16,5,33,47,884,['n'],1,right,['0'],6,77,[-0.06659198],100,47,medium,plus,dotcolour,alfa,,,91,27,M,R,
692,62,20,16,5,47,33,766,['c'],1,left,['9'],5,205,[0.12485796],100,47,medium,plus,dotcolour,alfa,,,91,27,M,R,
693,63,21,16,5,44,36,833,['c'],1,left,['9'],5,84,[0.11396884],100,44,hard,plus,dotcolour,alfa,,,91,27,M,R,
694,64,22,16,5,27,53,783,['n'],1,right,['9'],5,115,[-0.0601529],100,53,easy,plus,dotcolour,alfa,,,91,27,M,R,
695,65,23,16,5,33,47,651,['n'],1,right,['0'],6,317,[-0.13667858],100,47,medium,plus,dotcolour,alfa,,,91,27,M,R,
696,66,24,16,5,44,36,683,['n'],0,left,['9'],5,175,[-0.03195007],94,44,hard,plus,dotcolour,alfa,,,91,27,M,R,
697,67,25,16,5,33,47,651,['n'],1,right,['9'],5,303,[-0.10657518],100,47,medium,plus,dotcolour,alfa,,,91,27,M,R,
698,68,26,16,5,44,36,766,['c'],1,left,['9'],5,213,[0.10566981],100,44,hard,plus,dotcolour,alfa,,,91,27,M,R,
699,69,27,16,5,36,44,867,['n'],1,right,['8'],4,308,[0.02071229],21,44,hard,plus,dotcolour,alfa,,,91,27,M,R,
700,70,28,16,5,27,53,616,['n'],1,right,['0'],6,232,[-0.17248225],100,53,easy,plus,dotcolour,alfa,,,91,27,M,R,
701,71,29,16,5,53,27,650,['c'],1,left,['9'],5,422,[0.14020028],100,53,easy,plus,dotcolour,alfa,,,91,27,M,R,
702,72,30,16,5,44,36,683,['c'],1,left,['9'],5,170,[0.07037345],100,44,hard,plus,dotcolour,alfa,,,91,27,M,R,
703,73,31,16,5,44,36,718,['c'],1,left,['9'],5,184,[0.12075924],100,44,hard,plus,dotcolour,alfa,,,91,27,M,R,
704,74,32,16,5,53,27,751,['c'],1,left,['0'],6,132,[0.07930137],100,53,easy,plus,dotcolour,alfa,,,91,27,M,R,
705,75,33,16,5,36,44,1117,['n'],1,right,['9'],5,324,[-0.12219741],100,44,hard,plus,dotcolour,alfa,,,91,27,M,R,
706,76,34,16,5,33,47,667,['n'],1,right,['0'],6,181,[-0.04801796],98,47,medium,plus,dotcolour,alfa,,,91,27,M,R,
707,77,35,16,5,27,53,1350,['n'],1,right,['0'],6,129,[-0.13507342],100,53,easy,plus,dotcolour,alfa,,,91,27,M,R,
708,78,36,16,5,47,33,883,['c'],1,left,['9'],5,202,[0.10998818],100,47,medium,plus,dotcolour,alfa,,,91,27,M,R,
709,79,37,16,5,33,47,734,['n'],1,right,['9'],5,366,[-0.04029699],92,47,medium,plus,dotcolour,alfa,,,91,27,M,R,
710,80,38,16,5,53,27,1250,['c'],1,left,['9'],5,230,[0.05558295],98,53,easy,plus,dotcolour,alfa,,,91,27,M,R,
711,81,39,16,5,36,44,1100,['n'],1,right,['0'],6,274,[-0.10272308],100,44,hard,plus,dotcolour,alfa,,,91,27,M,R,
712,82,40,16,5,44,36,784,['n'],0,left,['9'],5,361,[-0.10848927],100,44,hard,plus,dotcolour,alfa,,,91,27,M,R,
713,83,41,16,5,27,53,616,['n'],1,right,['0'],6,180,[-0.0808356],100,53,easy,plus,dotcolour,alfa,,,91,27,M,R,
714,84,0,17,5,36,44,1701,['c'],0,right,['3'],3,526,[0.04816354],92,44,hard,plus,dotcolour,alfa,,,91,27,M,R,
715,85,1,17,5,27,53,2134,['n'],1,right,['0'],6,238,[-0.11193913],100,53,easy,plus,dotcolour,alfa,,,91,27,M,R,
716,86,2,17,5,36,44,1367,['n'],1,right,['0'],6,126,[-0.06190862],100,44,hard,plus,dotcolour,alfa,,,91,27,M,R,
717,87,3,17,5,53,27,1833,['n'],0,left,['8'],4,257,[0.00095317],48,53,easy,plus,dotcolour,alfa,,,91,27,M,R,
718,88,4,17,5,44,36,933,['c'],1,left,['8'],4,82,[0.10291809],100,44,hard,plus,dotcolour,alfa,,,91,27,M,R,
719,89,5,17,5,44,36,1433,['n'],0,left,['9'],5,303,[-0.09976576],100,44,hard,plus,dotcolour,alfa,,,91,27,M,R,
720,90,6,17,5,27,53,584,['n'],1,right,['0'],6,189,[-0.12319771],100,53,easy,plus,dotcolour,alfa,,,91,27,M,R,
721,91,7,17,5,27,53,617,['n'],1,right,['0'],6,110,[-0.09749057],100,53,easy,plus,dotcolour,alfa,,,91,27,M,R,
722,92,8,17,5,36,44,900,['n'],1,right,['9'],5,200,[-0.1149837],100,44,hard,plus,dotcolour,alfa,,,91,27,M,R,
723,93,9,17,5,53,27,1016,['c'],1,left,['9'],5,232,[-0.00371817],43,53,easy,plus,dotcolour,alfa,,,91,27,M,R,
724,94,10,17,5,47,33,1218,['c'],1,left,['9'],5,207,[0.1542797],100,47,medium,plus,dotcolour,alfa,,,91,27,M,R,
725,95,11,17,5,27,53,832,['n'],1,right,['0'],6,191,[-0.15480022],100,53,easy,plus,dotcolour,alfa,,,91,27,M,R,
726,96,12,17,5,47,33,683,['c'],1,left,['0'],6,109,[0.09093663],100,47,medium,plus,dotcolour,alfa,,,91,27,M,R,
727,97,13,17,5,27,53,817,['n'],1,right,['0'],6,105,[-0.14335094],100,53,easy,plus,dotcolour,alfa,,,91,27,M,R,
728,98,14,17,5,47,33,666,['c'],1,left,['0'],6,83,[0.06141564],100,47,medium,plus,dotcolour,alfa,,,91,27,M,R,
729,99,15,17,5,44,36,1283,['n'],0,left,['0'],6,182,[-0.03471604],95,44,hard,plus,dotcolour,alfa,,,91,27,M,R,
730,100,16,17,5,33,47,617,['n'],1,right,['0'],6,112,[-0.05830812],100,47,medium,plus,dotcolour,alfa,,,91,27,M,R,
731,101,17,17,5,53,27,733,['c'],1,left,['9'],5,127,[0.11642204],100,53,easy,plus,dotcolour,alfa,,,91,27,M,R,
732,102,18,17,5,47,33,883,['c'],1,left,['9'],5,128,[0.11652778],100,47,medium,plus,dotcolour,alfa,,,91,27,M,R,
733,103,19,17,5,33,47,667,['n'],1,right,['9'],5,241,[-0.08381652],100,47,medium,plus,dotcolour,alfa,,,91,27,M,R,
734,104,20,17,5,47,33,900,['c'],1,left,['0'],6,221,[0.14512722],100,47,medium,plus,dotcolour,alfa,,,91,27,M,R,
735,105,21,17,5,44,36,1217,['c'],1,left,['0'],6,140,[0.09507849],100,44,hard,plus,dotcolour,alfa,,,91,27,M,R,
736,106,22,17,5,53,27,716,['c'],1,left,['0'],6,139,[0.07429887],100,53,easy,plus,dotcolour,alfa,,,91,27,M,R,
737,107,23,17,5,33,47,1368,['n'],1,right,['9'],5,249,[-0.1975156],100,47,medium,plus,dotcolour,alfa,,,91,27,M,R,
738,108,24,17,5,36,44,900,['n'],1,right,['3'],3,1836,[-0.06097217],83,44,hard,plus,dotcolour,alfa,,,91,27,M,R,
739,109,25,17,5,33,47,767,['n'],1,right,['9'],5,461,[0.03763757],12,47,medium,plus,dotcolour,alfa,,,91,27,M,R,
740,110,26,17,5,36,44,966,['n'],1,right,['9'],5,445,[-0.01715374],72,44,hard,plus,dotcolour,alfa,,,91,27,M,R,
741,111,27,17,5,44,36,1300,['c'],1,left,['9'],5,96,[0.08935033],100,44,hard,plus,dotcolour,alfa,,,91,27,M,R,
742,112,28,17,5,47,33,666,['c'],1,left,['9'],5,42,[0.06843004],100,47,medium,plus,dotcolour,alfa,,,91,27,M,R,
743,113,29,17,5,33,47,634,['n'],1,right,['9'],5,128,[-0.07839783],100,47,medium,plus,dotcolour,alfa,,,91,27,M,R,
744,114,30,17,5,53,27,1251,['c'],1,left,['9'],5,195,[0.05561732],99,53,easy,plus,dotcolour,alfa,,,91,27,M,R,
745,115,31,17,5,36,44,666,['c'],0,right,['9'],5,89,[0.05816113],100,44,hard,plus,dotcolour,alfa,,,91,27,M,R,
746,116,32,17,5,27,53,867,['n'],1,right,['9'],5,597,[-0.08820666],98,53,easy,plus,dotcolour,alfa,,,91,27,M,R,
747,117,33,17,5,33,47,916,['c'],0,right,['9'],5,201,[-0.00799813],34,47,medium,plus,dotcolour,alfa,,,91,27,M,R,
748,118,34,17,5,33,47,816,['n'],1,right,['9'],5,314,[-0.14515996],100,47,medium,plus,dotcolour,alfa,,,91,27,M,R,
749,119,35,17,5,27,53,716,['n'],1,right,['0'],6,418,[-0.05712224],96,53,easy,plus,dotcolour,alfa,,,91,27,M,R,
750,120,36,17,5,44,36,801,['c'],1,left,['9'],5,131,[0.15094863],100,44,hard,plus,dotcolour,alfa,,,91,27,M,R,
751,121,37,17,5,53,27,934,['c'],1,left,['0'],6,185,[0.08876215],100,53,easy,plus,dotcolour,alfa,,,91,27,M,R,
752,122,38,17,5,53,27,650,['c'],1,left,['0'],6,137,[0.01014984],73,53,easy,plus,dotcolour,alfa,,,91,27,M,R,
753,123,39,17,5,47,33,633,['c'],1,left,['9'],5,68,[0.12198075],100,47,medium,plus,dotcolour,alfa,,,91,27,M,R,
754,124,40,17,5,36,44,683,['n'],1,right,['0'],6,239,[-0.05133508],98,44,hard,plus,dotcolour,alfa,,,91,27,M,R,
755,125,41,17,5,44,36,684,['c'],1,left,['9'],5,236,[0.03728587],94,44,hard,plus,dotcolour,alfa,,,91,27,M,R,
,,,,,,,,,,,,,,,,,,,,,1,,91,27,M,R,
,,,,,,,,,,,,,,,,,,,,,2,['f'],91,27,M,R,
,,,,,,,,,,,,,,,,,,,,,3,['f'],91,27,M,R,
,,,,,,,,,,,,,,,,,,,,,5,['5'],91,27,M,R,
