trial,withinphasetrial,withinblocktrial,block,phase,dotsLeft,dotsRight,rt,resp,cor,cresp,conf_press,cj,RTconf,ev,fb,diff,difflevel,condition,task,manip,questionID,questionResp,sub,age,gender,handedness,
0,0,0,0,0,33,47,1183,['n'],1,right,['2'],5,1834,[-0.19811776],87,47,medium,minus,dotcolour,beta,,,9,19,V,R,
1,1,1,0,0,53,27,917,['c'],1,left,['1'],6,1405,[0.29815589],98,53,easy,minus,dotcolour,beta,,,9,19,V,R,
2,2,2,0,0,53,27,900,['c'],1,left,['2'],5,849,[0.15489952],87,53,easy,minus,dotcolour,beta,,,9,19,V,R,
3,3,3,0,0,47,33,883,['c'],1,left,['2'],5,653,[0.11775412],80,47,medium,minus,dotcolour,beta,,,9,19,V,R,
4,4,4,0,0,53,27,916,['c'],1,left,['2'],5,439,[0.04701432],44,53,easy,minus,dotcolour,beta,,,9,19,V,R,
5,5,5,0,0,44,36,883,['n'],0,left,['2'],5,460,[-0.01814123],27,44,hard,minus,dotcolour,beta,,,9,19,V,R,
6,6,6,0,0,47,33,2183,['c'],1,left,['3'],4,1019,[0.21428119],94,47,medium,minus,dotcolour,beta,,,9,19,V,R,
7,7,7,0,0,47,33,2384,['c'],1,left,['2'],5,652,[0.18961909],95,47,medium,minus,dotcolour,beta,,,9,19,V,R,
8,8,8,0,0,33,47,883,['n'],1,right,['8'],3,544,[-0.1357146],88,47,medium,minus,dotcolour,beta,,,9,19,V,R,
9,9,9,0,0,53,27,1017,['c'],1,left,['2'],5,346,[0.13525202],92,53,easy,minus,dotcolour,beta,,,9,19,V,R,
10,10,10,0,0,36,44,983,['c'],0,right,['2'],5,350,[0.08490623],71,44,hard,minus,dotcolour,beta,,,9,19,V,R,
11,11,11,0,0,47,33,1049,['n'],0,left,['2'],5,344,[-0.02124699],26,47,medium,minus,dotcolour,beta,,,9,19,V,R,
12,12,12,0,0,27,53,833,['n'],1,right,['2'],5,258,[-0.07087367],63,53,easy,minus,dotcolour,beta,,,9,19,V,R,
13,13,13,0,0,44,36,716,['c'],1,left,['2'],5,300,[0.06938643],61,44,hard,minus,dotcolour,beta,,,9,19,V,R,
14,14,14,0,0,47,33,766,['c'],1,left,['2'],5,258,[0.08932364],77,47,medium,minus,dotcolour,beta,,,9,19,V,R,
15,15,15,0,0,44,36,1500,['c'],1,left,['2'],5,405,[0.03491065],36,44,hard,minus,dotcolour,beta,,,9,19,V,R,
16,16,16,0,0,44,36,1833,['c'],1,left,['2'],5,541,[0.0052056],23,44,hard,minus,dotcolour,beta,,,9,19,V,R,
17,17,17,0,0,27,53,934,['n'],1,right,['3'],4,715,[-0.32405666],100,53,easy,minus,dotcolour,beta,,,9,19,V,R,
18,18,18,0,0,53,27,1150,['c'],1,left,['2'],5,626,[0.08009596],64,53,easy,minus,dotcolour,beta,,,9,19,V,R,
19,19,19,0,0,33,47,783,['c'],0,right,['2'],5,451,[0.02424525],30,47,medium,minus,dotcolour,beta,,,9,19,V,R,
20,20,20,0,0,44,36,833,['c'],1,left,['3'],4,537,[-0.00294914],19,44,hard,minus,dotcolour,beta,,,9,19,V,R,
21,21,21,0,0,27,53,917,['n'],1,right,['2'],5,1319,[-0.13518008],78,53,easy,minus,dotcolour,beta,,,9,19,V,R,
22,22,22,0,0,44,36,833,['c'],1,left,['8'],3,282,[0.08335346],72,44,hard,minus,dotcolour,beta,,,9,19,V,R,
23,23,23,0,0,27,53,633,['c'],0,right,['2'],5,303,[0.07614213],66,53,easy,minus,dotcolour,beta,,,9,19,V,R,
24,24,24,0,0,36,44,667,['n'],1,right,['2'],5,321,[-0.1142039],87,44,hard,minus,dotcolour,beta,,,9,19,V,R,
25,25,25,0,0,47,33,1149,['n'],0,left,['2'],5,328,[0.04914216],4,47,medium,minus,dotcolour,beta,,,9,19,V,R,
26,26,26,0,0,36,44,834,['n'],1,right,['2'],5,323,[-0.10992986],85,44,hard,minus,dotcolour,beta,,,9,19,V,R,
27,27,27,0,0,27,53,667,['n'],1,right,['3'],4,236,[-0.08405408],74,53,easy,minus,dotcolour,beta,,,9,19,V,R,
28,28,28,0,0,33,47,900,['n'],1,right,['1'],6,176,[-0.13188905],96,47,medium,minus,dotcolour,beta,,,9,19,V,R,
29,29,29,0,0,33,47,882,['n'],1,right,['2'],5,511,[-0.03625177],38,47,medium,minus,dotcolour,beta,,,9,19,V,R,
30,30,30,0,0,47,33,916,['c'],1,left,['3'],4,615,[0.18285642],95,47,medium,minus,dotcolour,beta,,,9,19,V,R,
31,31,31,0,0,36,44,1233,['c'],0,right,['3'],4,350,[0.01274243],21,44,hard,minus,dotcolour,beta,,,9,19,V,R,
32,32,32,0,0,53,27,833,['c'],1,left,['2'],5,912,[0.16970734],90,53,easy,minus,dotcolour,beta,,,9,19,V,R,
33,33,33,0,0,27,53,1099,['n'],1,right,['2'],5,336,[-0.22840193],100,53,easy,minus,dotcolour,beta,,,9,19,V,R,
34,34,34,0,0,36,44,1083,['n'],1,right,['3'],4,496,[-0.11931748],84,44,hard,minus,dotcolour,beta,,,9,19,V,R,
35,35,35,0,0,44,36,766,['c'],1,left,['3'],4,399,[0.22590291],99,44,hard,minus,dotcolour,beta,,,9,19,V,R,
36,36,36,0,0,27,53,783,['n'],1,right,['3'],4,353,[-0.14706955],94,53,easy,minus,dotcolour,beta,,,9,19,V,R,
37,37,37,0,0,36,44,967,['n'],1,right,['3'],4,334,[-0.06757589],59,44,hard,minus,dotcolour,beta,,,9,19,V,R,
38,38,38,0,0,53,27,834,['c'],1,left,['2'],5,264,[0.155921],97,53,easy,minus,dotcolour,beta,,,9,19,V,R,
39,39,39,0,0,33,47,750,['n'],1,right,['2'],5,281,[-0.10111938],82,47,medium,minus,dotcolour,beta,,,9,19,V,R,
40,40,40,0,0,33,47,1467,['n'],1,right,['8'],3,1517,[-0.19215582],88,47,medium,minus,dotcolour,beta,,,9,19,V,R,
41,41,41,0,0,36,44,1283,['c'],0,right,['2'],5,277,[-0.032302],5,44,hard,minus,dotcolour,beta,,,9,19,V,R,
42,42,0,1,0,36,44,1767,['n'],1,right,['2'],5,795,[0.10915789],3,44,hard,minus,dotcolour,beta,,,9,19,V,R,
43,43,1,1,0,36,44,734,['n'],1,right,['2'],5,287,[-0.06533566],58,44,hard,minus,dotcolour,beta,,,9,19,V,R,
44,44,2,1,0,27,53,766,['n'],1,right,['2'],5,303,[-0.07677174],67,53,easy,minus,dotcolour,beta,,,9,19,V,R,
45,45,3,1,0,47,33,1417,['n'],0,left,['2'],5,195,[-0.00282419],10,47,medium,minus,dotcolour,beta,,,9,19,V,R,
46,46,4,1,0,53,27,984,['c'],1,left,['2'],5,325,[0.12786108],91,53,easy,minus,dotcolour,beta,,,9,19,V,R,
47,47,5,1,0,44,36,1284,['c'],1,left,['2'],5,358,[0.10699132],82,44,hard,minus,dotcolour,beta,,,9,19,V,R,
48,48,6,1,0,33,47,916,['n'],1,right,['2'],5,380,[-0.10098301],79,47,medium,minus,dotcolour,beta,,,9,19,V,R,
49,49,7,1,0,53,27,1501,['c'],1,left,['2'],5,242,[0.11907808],91,53,easy,minus,dotcolour,beta,,,9,19,V,R,
50,50,8,1,0,53,27,817,['c'],1,left,['2'],5,297,[0.05418251],49,53,easy,minus,dotcolour,beta,,,9,19,V,R,
51,51,9,1,0,36,44,950,['n'],1,right,['2'],5,280,[-0.04724992],43,44,hard,minus,dotcolour,beta,,,9,19,V,R,
52,52,10,1,0,33,47,816,['n'],1,right,['3'],4,221,[-0.09301835],81,47,medium,minus,dotcolour,beta,,,9,19,V,R,
53,53,11,1,0,44,36,1984,['c'],1,left,['2'],5,271,[0.07126869],63,44,hard,minus,dotcolour,beta,,,9,19,V,R,
54,54,12,1,0,44,36,750,['n'],0,left,['9'],2,752,[-0.10947073],75,44,hard,minus,dotcolour,beta,,,9,19,V,R,
55,55,13,1,0,33,47,7350,['c'],0,right,['3'],4,516,[-0.05580105],6,47,medium,minus,dotcolour,beta,,,9,19,V,R,
56,56,14,1,0,36,44,551,['n'],1,right,['2'],5,371,[0.01012461],13,44,hard,minus,dotcolour,beta,,,9,19,V,R,
57,57,15,1,0,53,27,816,['c'],1,left,['2'],5,357,[0.08147898],69,53,easy,minus,dotcolour,beta,,,9,19,V,R,
58,58,16,1,0,33,47,3033,['n'],1,right,['3'],4,390,[-0.09120326],74,47,medium,minus,dotcolour,beta,,,9,19,V,R,
59,59,17,1,0,44,36,582,['n'],0,left,['9'],2,225,[-0.00398364],12,44,hard,minus,dotcolour,beta,,,9,19,V,R,
60,60,18,1,0,27,53,667,['n'],1,right,['2'],5,270,[-0.07493427],66,53,easy,minus,dotcolour,beta,,,9,19,V,R,
61,61,19,1,0,53,27,833,['c'],1,left,['2'],5,235,[0.21308968],100,53,easy,minus,dotcolour,beta,,,9,19,V,R,
62,62,20,1,0,27,53,650,['n'],1,right,['2'],5,169,[-0.08843319],81,53,easy,minus,dotcolour,beta,,,9,19,V,R,
63,63,21,1,0,47,33,567,['n'],0,left,['2'],5,181,[-0.03510752],30,47,medium,minus,dotcolour,beta,,,9,19,V,R,
64,64,22,1,0,47,33,283,['c'],1,left,['2'],5,260,[0.0687353],61,47,medium,minus,dotcolour,beta,,,9,19,V,R,
65,65,23,1,0,47,33,266,['n'],0,left,['2'],5,184,[-0.06667876],61,47,medium,minus,dotcolour,beta,,,9,19,V,R,
66,66,24,1,0,33,47,1084,['n'],1,right,['2'],5,263,[-0.09357246],79,47,medium,minus,dotcolour,beta,,,9,19,V,R,
67,67,25,1,0,33,47,650,['n'],1,right,['2'],5,219,[-0.08531899],76,47,medium,minus,dotcolour,beta,,,9,19,V,R,
68,68,26,1,0,27,53,550,['n'],1,right,['2'],5,190,[-0.12595202],95,53,easy,minus,dotcolour,beta,,,9,19,V,R,
69,69,27,1,0,47,33,600,['c'],1,left,['2'],5,216,[0.10934481],89,47,medium,minus,dotcolour,beta,,,9,19,V,R,
70,70,28,1,0,27,53,550,['n'],1,right,['2'],5,195,[-0.09440773],83,53,easy,minus,dotcolour,beta,,,9,19,V,R,
71,71,29,1,0,47,33,516,['c'],1,left,['2'],5,223,[0.09012346],79,47,medium,minus,dotcolour,beta,,,9,19,V,R,
72,72,30,1,0,36,44,799,['n'],1,right,['2'],5,151,[0.02086716],3,44,hard,minus,dotcolour,beta,,,9,19,V,R,
73,73,31,1,0,47,33,866,['c'],1,left,['2'],5,240,[0.1150073],90,47,medium,minus,dotcolour,beta,,,9,19,V,R,
74,74,32,1,0,44,36,718,['c'],1,left,['2'],5,243,[0.05950631],54,44,hard,minus,dotcolour,beta,,,9,19,V,R,
75,75,33,1,0,27,53,550,['n'],1,right,['2'],5,156,[-0.09004056],83,53,easy,minus,dotcolour,beta,,,9,19,V,R,
76,76,34,1,0,53,27,550,['c'],1,left,['2'],5,241,[0.05905554],53,53,easy,minus,dotcolour,beta,,,9,19,V,R,
77,77,35,1,0,27,53,334,['n'],1,right,['2'],5,299,[-0.06883982],61,53,easy,minus,dotcolour,beta,,,9,19,V,R,
78,78,36,1,0,36,44,616,['n'],1,right,['2'],5,160,[-0.00321048],9,44,hard,minus,dotcolour,beta,,,9,19,V,R,
79,79,37,1,0,44,36,534,['n'],0,left,['2'],5,165,[-0.09759978],87,44,hard,minus,dotcolour,beta,,,9,19,V,R,
80,80,38,1,0,44,36,568,['n'],0,left,['2'],5,201,[-0.10760059],89,44,hard,minus,dotcolour,beta,,,9,19,V,R,
81,81,39,1,0,36,44,483,['n'],1,right,['2'],5,143,[-0.0781809],75,44,hard,minus,dotcolour,beta,,,9,19,V,R,
82,82,40,1,0,33,47,617,['n'],1,right,['2'],5,162,[-0.09015177],82,47,medium,minus,dotcolour,beta,,,9,19,V,R,
83,83,41,1,0,53,27,733,['c'],1,left,['2'],5,263,[0.07184045],64,53,easy,minus,dotcolour,beta,,,9,19,V,R,
84,84,0,2,0,47,33,750,['c'],1,left,['2'],5,236,[0.04948071],44,47,medium,minus,dotcolour,beta,,,9,19,V,R,
85,85,1,2,0,27,53,683,['n'],1,right,['2'],5,153,[-0.08591774],80,53,easy,minus,dotcolour,beta,,,9,19,V,R,
86,86,2,2,0,44,36,633,['c'],1,left,['2'],5,235,[0.12897817],94,44,hard,minus,dotcolour,beta,,,9,19,V,R,
87,87,3,2,0,27,53,550,['c'],0,right,['9'],2,820,[0.0031956],26,53,easy,minus,dotcolour,beta,,,9,19,V,R,
88,88,4,2,0,27,53,684,['n'],1,right,['2'],5,161,[-0.0123066],13,53,easy,minus,dotcolour,beta,,,9,19,V,R,
89,89,5,2,0,33,47,617,['n'],1,right,['2'],5,115,[-0.06307276],60,47,medium,minus,dotcolour,beta,,,9,19,V,R,
90,90,6,2,0,27,53,500,['n'],1,right,['2'],5,172,[-0.08353603],77,53,easy,minus,dotcolour,beta,,,9,19,V,R,
91,91,7,2,0,44,36,633,['n'],0,left,['2'],5,149,[0.03868471],1,44,hard,minus,dotcolour,beta,,,9,19,V,R,
92,92,8,2,0,36,44,550,['n'],1,right,['2'],5,131,[-0.06314577],59,44,hard,minus,dotcolour,beta,,,9,19,V,R,
93,93,9,2,0,36,44,383,['n'],1,right,['2'],5,175,[-0.14249032],98,44,hard,minus,dotcolour,beta,,,9,19,V,R,
94,94,10,2,0,33,47,416,['n'],1,right,['2'],5,137,[-0.01651061],13,47,medium,minus,dotcolour,beta,,,9,19,V,R,
95,95,11,2,0,44,36,682,['c'],1,left,['2'],5,169,[0.01634295],15,44,hard,minus,dotcolour,beta,,,9,19,V,R,
96,96,12,2,0,33,47,417,['n'],1,right,['2'],5,163,[-0.09311614],84,47,medium,minus,dotcolour,beta,,,9,19,V,R,
97,97,13,2,0,53,27,633,['c'],1,left,['2'],5,205,[0.13644758],96,53,easy,minus,dotcolour,beta,,,9,19,V,R,
98,98,14,2,0,44,36,450,['n'],0,left,['2'],5,188,[-0.09667109],85,44,hard,minus,dotcolour,beta,,,9,19,V,R,
99,99,15,2,0,53,27,650,['c'],1,left,['2'],5,196,[0.07796318],71,53,easy,minus,dotcolour,beta,,,9,19,V,R,
100,100,16,2,0,36,44,767,['n'],1,right,['2'],5,135,[-0.04318094],35,44,hard,minus,dotcolour,beta,,,9,19,V,R,
101,101,17,2,0,44,36,733,['c'],1,left,['2'],5,174,[0.14648026],98,44,hard,minus,dotcolour,beta,,,9,19,V,R,
102,102,18,2,0,33,47,400,['n'],1,right,['2'],5,175,[-0.03899382],33,47,medium,minus,dotcolour,beta,,,9,19,V,R,
103,103,19,2,0,44,36,599,['n'],0,left,['2'],5,169,[-0.08350741],77,44,hard,minus,dotcolour,beta,,,9,19,V,R,
104,104,20,2,0,36,44,517,['n'],1,right,['2'],5,152,[-0.12156826],95,44,hard,minus,dotcolour,beta,,,9,19,V,R,
105,105,21,2,0,36,44,517,['n'],1,right,['2'],5,166,[-0.06948265],65,44,hard,minus,dotcolour,beta,,,9,19,V,R,
106,106,22,2,0,47,33,550,['n'],0,left,['2'],5,259,[-0.00351192],14,47,medium,minus,dotcolour,beta,,,9,19,V,R,
107,107,23,2,0,47,33,533,['n'],0,left,['2'],5,148,[0.00190249],6,47,medium,minus,dotcolour,beta,,,9,19,V,R,
108,108,24,2,0,33,47,450,['n'],1,right,['2'],5,166,[-0.0135245],14,47,medium,minus,dotcolour,beta,,,9,19,V,R,
109,109,25,2,0,44,36,633,['c'],1,left,['2'],5,183,[0.1054845],89,44,hard,minus,dotcolour,beta,,,9,19,V,R,
110,110,26,2,0,33,47,650,['c'],0,right,['2'],5,663,[-0.04258027],10,47,medium,minus,dotcolour,beta,,,9,19,V,R,
111,111,27,2,0,53,27,800,['c'],1,left,['2'],5,230,[0.11044884],89,53,easy,minus,dotcolour,beta,,,9,19,V,R,
112,112,28,2,0,36,44,617,['n'],1,right,['2'],5,197,[-0.10098887],86,44,hard,minus,dotcolour,beta,,,9,19,V,R,
113,113,29,2,0,47,33,633,['c'],1,left,['2'],5,213,[0.14401814],97,47,medium,minus,dotcolour,beta,,,9,19,V,R,
114,114,30,2,0,53,27,716,['c'],1,left,['2'],5,193,[0.12868727],95,53,easy,minus,dotcolour,beta,,,9,19,V,R,
115,115,31,2,0,27,53,733,['n'],1,right,['2'],5,141,[-0.10508318],91,53,easy,minus,dotcolour,beta,,,9,19,V,R,
116,116,32,2,0,53,27,650,['c'],1,left,['2'],5,143,[0.15651958],99,53,easy,minus,dotcolour,beta,,,9,19,V,R,
117,117,33,2,0,47,33,883,['c'],1,left,['2'],5,175,[0.15303978],99,47,medium,minus,dotcolour,beta,,,9,19,V,R,
118,118,34,2,0,53,27,767,['c'],1,left,['2'],5,274,[0.08877771],76,53,easy,minus,dotcolour,beta,,,9,19,V,R,
119,119,35,2,0,47,33,634,['c'],1,left,['2'],5,223,[0.05851191],53,47,medium,minus,dotcolour,beta,,,9,19,V,R,
120,120,36,2,0,53,27,584,['c'],1,left,['2'],5,223,[0.09008803],79,53,easy,minus,dotcolour,beta,,,9,19,V,R,
121,121,37,2,0,27,53,633,['n'],1,right,['2'],5,167,[-0.10111406],88,53,easy,minus,dotcolour,beta,,,9,19,V,R,
122,122,38,2,0,47,33,666,['c'],1,left,['2'],5,223,[0.07059646],64,47,medium,minus,dotcolour,beta,,,9,19,V,R,
123,123,39,2,0,33,47,817,['c'],0,right,['2'],5,151,[0.04086257],34,47,medium,minus,dotcolour,beta,,,9,19,V,R,
124,124,40,2,0,36,44,817,['c'],0,right,['2'],5,233,[0.11806246],91,44,hard,minus,dotcolour,beta,,,9,19,V,R,
125,125,41,2,0,27,53,1916,['n'],1,right,['2'],5,133,[-0.10677116],93,53,easy,minus,dotcolour,beta,,,9,19,V,R,
126,0,0,3,1,53,27,949,['c'],1,left,['2'],5,196,[0.20796182],100,53,easy,plus,dotcolour,beta,,,9,19,V,R,
127,1,1,3,1,53,27,684,['c'],1,left,['2'],5,210,[0.16348532],100,53,easy,plus,dotcolour,beta,,,9,19,V,R,
128,2,2,3,1,27,53,1784,['c'],0,right,['2'],5,643,[0.15166639],99,53,easy,plus,dotcolour,beta,,,9,19,V,R,
129,3,3,3,1,33,47,850,['n'],1,right,['2'],5,152,[-0.1275652],100,47,medium,plus,dotcolour,beta,,,9,19,V,R,
130,4,4,3,1,27,53,699,['n'],1,right,['2'],5,144,[-0.08246756],100,53,easy,plus,dotcolour,beta,,,9,19,V,R,
131,5,5,3,1,53,27,633,['c'],1,left,['2'],5,145,[0.0284421],98,53,easy,plus,dotcolour,beta,,,9,19,V,R,
132,6,6,3,1,36,44,650,['n'],1,right,['2'],5,211,[-0.11186775],100,44,hard,plus,dotcolour,beta,,,9,19,V,R,
133,7,7,3,1,44,36,599,['c'],1,left,['2'],5,140,[0.10727547],100,44,hard,plus,dotcolour,beta,,,9,19,V,R,
134,8,8,3,1,27,53,717,['n'],1,right,['2'],5,123,[-0.10797402],100,53,easy,plus,dotcolour,beta,,,9,19,V,R,
135,9,9,3,1,47,33,617,['n'],0,left,['2'],5,198,[-0.09404693],100,47,medium,plus,dotcolour,beta,,,9,19,V,R,
136,10,10,3,1,33,47,599,['c'],0,right,['2'],5,128,[0.07675602],100,47,medium,plus,dotcolour,beta,,,9,19,V,R,
137,11,11,3,1,36,44,516,['n'],1,right,['2'],5,167,[-0.01137715],95,44,hard,plus,dotcolour,beta,,,9,19,V,R,
138,12,12,3,1,47,33,616,['c'],1,left,['2'],5,153,[0.16661356],100,47,medium,plus,dotcolour,beta,,,9,19,V,R,
139,13,13,3,1,53,27,716,['n'],0,left,['2'],5,160,[-0.11210731],100,53,easy,plus,dotcolour,beta,,,9,19,V,R,
140,14,14,3,1,27,53,767,['n'],1,right,['2'],5,124,[-0.1124274],100,53,easy,plus,dotcolour,beta,,,9,19,V,R,
141,15,15,3,1,27,53,1282,['n'],1,right,['2'],5,173,[-0.10402594],100,53,easy,plus,dotcolour,beta,,,9,19,V,R,
142,16,16,3,1,44,36,350,['c'],1,left,['2'],5,154,[0.09651334],100,44,hard,plus,dotcolour,beta,,,9,19,V,R,
143,17,17,3,1,47,33,283,['n'],0,left,['2'],5,369,[-0.09210071],99,47,medium,plus,dotcolour,beta,,,9,19,V,R,
144,18,18,3,1,27,53,44,['c'],0,right,['2'],5,36,[0.08238718],100,53,easy,plus,dotcolour,beta,,,9,19,V,R,
145,19,19,3,1,33,47,149,['n'],1,right,['2'],5,116,[0.02165062],86,47,medium,plus,dotcolour,beta,,,9,19,V,R,
146,20,20,3,1,53,27,482,['c'],1,left,['2'],5,205,[0.11647106],100,53,easy,plus,dotcolour,beta,,,9,19,V,R,
147,21,21,3,1,33,47,583,['n'],1,right,['2'],5,151,[-0.08030939],100,47,medium,plus,dotcolour,beta,,,9,19,V,R,
148,22,22,3,1,44,36,567,['c'],1,left,['2'],5,227,[0.06937693],99,44,hard,plus,dotcolour,beta,,,9,19,V,R,
149,23,23,3,1,47,33,417,['n'],0,left,['2'],5,283,[-0.09448238],99,47,medium,plus,dotcolour,beta,,,9,19,V,R,
150,24,24,3,1,33,47,500,['c'],0,right,['2'],5,237,[0.06049995],99,47,medium,plus,dotcolour,beta,,,9,19,V,R,
151,25,25,3,1,47,33,500,['n'],0,left,['2'],5,209,[-0.04267405],98,47,medium,plus,dotcolour,beta,,,9,19,V,R,
152,26,26,3,1,36,44,367,['n'],1,right,['2'],5,203,[-0.02423577],96,44,hard,plus,dotcolour,beta,,,9,19,V,R,
153,27,27,3,1,36,44,484,['c'],0,right,['2'],5,345,[-0.00520373],82,44,hard,plus,dotcolour,beta,,,9,19,V,R,
154,28,28,3,1,44,36,768,['n'],0,left,['2'],5,222,[-0.11099446],100,44,hard,plus,dotcolour,beta,,,9,19,V,R,
155,29,29,3,1,33,47,716,['c'],0,right,['2'],5,185,[0.13137512],100,47,medium,plus,dotcolour,beta,,,9,19,V,R,
156,30,30,3,1,53,27,366,['n'],0,left,['2'],5,189,[-0.05542626],99,53,easy,plus,dotcolour,beta,,,9,19,V,R,
157,31,31,3,1,33,47,467,['c'],0,right,['2'],5,212,[-0.02511425],77,47,medium,plus,dotcolour,beta,,,9,19,V,R,
158,32,32,3,1,47,33,617,['n'],0,left,['2'],5,220,[-0.05908239],99,47,medium,plus,dotcolour,beta,,,9,19,V,R,
159,33,33,3,1,27,53,566,['n'],1,right,['2'],5,198,[-0.11511896],100,53,easy,plus,dotcolour,beta,,,9,19,V,R,
160,34,34,3,1,47,33,467,['c'],1,left,['2'],5,236,[0.11093956],100,47,medium,plus,dotcolour,beta,,,9,19,V,R,
161,35,35,3,1,44,36,800,['c'],1,left,['2'],5,156,[0.06335598],100,44,hard,plus,dotcolour,beta,,,9,19,V,R,
162,36,36,3,1,44,36,533,['n'],0,left,['2'],5,194,[-0.06625537],99,44,hard,plus,dotcolour,beta,,,9,19,V,R,
163,37,37,3,1,36,44,667,['n'],1,right,['2'],5,160,[-0.05225418],99,44,hard,plus,dotcolour,beta,,,9,19,V,R,
164,38,38,3,1,44,36,700,['c'],1,left,['2'],5,183,[0.08692575],100,44,hard,plus,dotcolour,beta,,,9,19,V,R,
165,39,39,3,1,36,44,733,['c'],0,right,['2'],5,180,[0.07704717],100,44,hard,plus,dotcolour,beta,,,9,19,V,R,
166,40,40,3,1,36,44,683,['n'],1,right,['2'],5,170,[-0.01646019],96,44,hard,plus,dotcolour,beta,,,9,19,V,R,
167,41,41,3,1,53,27,633,['c'],1,left,['2'],5,220,[0.04838046],98,53,easy,plus,dotcolour,beta,,,9,19,V,R,
168,42,0,4,1,36,44,600,['c'],0,right,['2'],5,202,[-0.00705225],87,44,hard,plus,dotcolour,beta,,,9,19,V,R,
169,43,1,4,1,47,33,684,['c'],1,left,['2'],5,231,[0.09210914],100,47,medium,plus,dotcolour,beta,,,9,19,V,R,
170,44,2,4,1,36,44,566,['c'],0,right,['2'],5,401,[0.11481611],99,44,hard,plus,dotcolour,beta,,,9,19,V,R,
171,45,3,4,1,47,33,617,['n'],0,left,['2'],5,369,[0.07822246],34,47,medium,plus,dotcolour,beta,,,9,19,V,R,
172,46,4,4,1,47,33,566,['c'],1,left,['2'],5,141,[0.11198342],100,47,medium,plus,dotcolour,beta,,,9,19,V,R,
173,47,5,4,1,33,47,600,['n'],1,right,['2'],5,104,[-0.07786353],100,47,medium,plus,dotcolour,beta,,,9,19,V,R,
174,48,6,4,1,33,47,716,['n'],1,right,['2'],5,121,[-0.02477454],98,47,medium,plus,dotcolour,beta,,,9,19,V,R,
175,49,7,4,1,33,47,516,['n'],1,right,['2'],5,129,[-0.12774971],100,47,medium,plus,dotcolour,beta,,,9,19,V,R,
176,50,8,4,1,33,47,666,['n'],1,right,['2'],5,155,[-0.06262079],100,47,medium,plus,dotcolour,beta,,,9,19,V,R,
177,51,9,4,1,44,36,1001,['c'],1,left,['2'],5,198,[0.02919097],97,44,hard,plus,dotcolour,beta,,,9,19,V,R,
178,52,10,4,1,44,36,1217,['n'],0,left,['2'],5,95,[-0.06586385],100,44,hard,plus,dotcolour,beta,,,9,19,V,R,
179,53,11,4,1,36,44,1184,['n'],1,right,['2'],5,461,[0.02501484],69,44,hard,plus,dotcolour,beta,,,9,19,V,R,
180,54,12,4,1,27,53,650,['n'],1,right,['2'],5,233,[-0.05559762],98,53,easy,plus,dotcolour,beta,,,9,19,V,R,
181,55,13,4,1,36,44,866,['n'],1,right,['2'],5,174,[-0.12347079],100,44,hard,plus,dotcolour,beta,,,9,19,V,R,
182,56,14,4,1,53,27,734,['n'],0,left,['2'],5,98,[-0.06770188],100,53,easy,plus,dotcolour,beta,,,9,19,V,R,
183,57,15,4,1,47,33,816,['c'],1,left,['2'],5,151,[0.0855046],100,47,medium,plus,dotcolour,beta,,,9,19,V,R,
184,58,16,4,1,53,27,634,['c'],1,left,['2'],5,194,[0.14180942],100,53,easy,plus,dotcolour,beta,,,9,19,V,R,
185,59,17,4,1,36,44,550,['n'],1,right,['2'],5,157,[-0.05395032],99,44,hard,plus,dotcolour,beta,,,9,19,V,R,
186,60,18,4,1,33,47,217,['c'],0,right,['2'],5,287,[0.02280199],93,47,medium,plus,dotcolour,beta,,,9,19,V,R,
187,61,19,4,1,47,33,433,['n'],0,left,['2'],5,180,[-0.12424137],100,47,medium,plus,dotcolour,beta,,,9,19,V,R,
188,62,20,4,1,44,36,434,['c'],1,left,['2'],5,332,[0.17607793],100,44,hard,plus,dotcolour,beta,,,9,19,V,R,
189,63,21,4,1,27,53,416,['n'],1,right,['2'],5,192,[-0.11433689],100,53,easy,plus,dotcolour,beta,,,9,19,V,R,
190,64,22,4,1,36,44,567,['n'],1,right,['2'],5,154,[-0.10261771],100,44,hard,plus,dotcolour,beta,,,9,19,V,R,
191,65,23,4,1,27,53,333,['c'],0,right,['2'],5,184,[0.09076673],100,53,easy,plus,dotcolour,beta,,,9,19,V,R,
192,66,24,4,1,33,47,233,['n'],1,right,['2'],5,121,[-0.06138117],100,47,medium,plus,dotcolour,beta,,,9,19,V,R,
193,67,25,4,1,27,53,191,['n'],1,right,['2'],5,54,[-0.08845498],100,53,easy,plus,dotcolour,beta,,,9,19,V,R,
194,68,26,4,1,33,47,198,['n'],1,right,['2'],5,181,[-0.05847659],99,47,medium,plus,dotcolour,beta,,,9,19,V,R,
195,69,27,4,1,27,53,192,['c'],0,right,['2'],5,159,[0.08249064],100,53,easy,plus,dotcolour,beta,,,9,19,V,R,
196,70,28,4,1,53,27,131,['n'],0,left,['2'],5,98,[-0.06540553],100,53,easy,plus,dotcolour,beta,,,9,19,V,R,
197,71,29,4,1,47,33,417,['c'],1,left,['2'],5,263,[0.05472856],98,47,medium,plus,dotcolour,beta,,,9,19,V,R,
198,72,30,4,1,44,36,817,['n'],0,left,['2'],5,132,[-0.06779428],100,44,hard,plus,dotcolour,beta,,,9,19,V,R,
199,73,31,4,1,36,44,154,['c'],0,right,['2'],5,184,[0.01142891],94,44,hard,plus,dotcolour,beta,,,9,19,V,R,
200,74,32,4,1,27,53,300,['n'],1,right,['2'],5,318,[-0.14966473],100,53,easy,plus,dotcolour,beta,,,9,19,V,R,
201,75,33,4,1,53,27,36,['c'],1,left,['2'],5,11,[0.06618552],100,53,easy,plus,dotcolour,beta,,,9,19,V,R,
202,76,34,4,1,27,53,17,['n'],1,right,['2'],5,76,[-0.05537554],100,53,easy,plus,dotcolour,beta,,,9,19,V,R,
203,77,35,4,1,44,36,43,['c'],1,left,['2'],5,202,[0.05745078],99,44,hard,plus,dotcolour,beta,,,9,19,V,R,
204,78,36,4,1,44,36,68,['n'],0,left,['2'],5,427,[-0.06882454],97,44,hard,plus,dotcolour,beta,,,9,19,V,R,
205,79,37,4,1,53,27,733,['c'],1,left,['2'],5,166,[0.13911962],100,53,easy,plus,dotcolour,beta,,,9,19,V,R,
206,80,38,4,1,53,27,1934,['c'],1,left,['2'],5,195,[0.12721804],100,53,easy,plus,dotcolour,beta,,,9,19,V,R,
207,81,39,4,1,44,36,166,['n'],0,left,['2'],5,124,[-0.0628961],100,44,hard,plus,dotcolour,beta,,,9,19,V,R,
208,82,40,4,1,47,33,3217,['n'],0,left,['2'],5,160,[-0.06044506],99,47,medium,plus,dotcolour,beta,,,9,19,V,R,
209,83,41,4,1,53,27,367,['c'],1,left,['2'],5,372,[0.12562024],100,53,easy,plus,dotcolour,beta,,,9,19,V,R,
210,84,0,5,1,27,53,2266,['n'],1,right,['2'],5,94,[-0.10056642],100,53,easy,plus,dotcolour,beta,,,9,19,V,R,
211,85,1,5,1,27,53,866,['n'],1,right,['2'],5,353,[-0.10913023],99,53,easy,plus,dotcolour,beta,,,9,19,V,R,
212,86,2,5,1,44,36,583,['c'],1,left,['2'],5,165,[0.03009956],98,44,hard,plus,dotcolour,beta,,,9,19,V,R,
213,87,3,5,1,27,53,700,['n'],1,right,['2'],5,228,[-0.02180403],95,53,easy,plus,dotcolour,beta,,,9,19,V,R,
214,88,4,5,1,47,33,716,['c'],1,left,['2'],5,231,[0.09357869],100,47,medium,plus,dotcolour,beta,,,9,19,V,R,
215,89,5,5,1,47,33,600,['n'],0,left,['2'],5,199,[-0.00061045],91,47,medium,plus,dotcolour,beta,,,9,19,V,R,
216,90,6,5,1,36,44,516,['n'],1,right,['2'],5,123,[-0.07751598],100,44,hard,plus,dotcolour,beta,,,9,19,V,R,
217,91,7,5,1,47,33,517,['n'],0,left,['2'],5,116,[-0.06338455],100,47,medium,plus,dotcolour,beta,,,9,19,V,R,
218,92,8,5,1,36,44,633,['n'],1,right,['2'],5,191,[-0.11462204],100,44,hard,plus,dotcolour,beta,,,9,19,V,R,
219,93,9,5,1,44,36,400,['c'],1,left,['2'],5,200,[0.05925445],99,44,hard,plus,dotcolour,beta,,,9,19,V,R,
220,94,10,5,1,36,44,601,['n'],1,right,['2'],5,258,[-0.12573053],100,44,hard,plus,dotcolour,beta,,,9,19,V,R,
221,95,11,5,1,33,47,700,['n'],1,right,['2'],5,156,[-0.0529658],99,47,medium,plus,dotcolour,beta,,,9,19,V,R,
222,96,12,5,1,33,47,533,['n'],1,right,['2'],5,162,[-0.1111442],100,47,medium,plus,dotcolour,beta,,,9,19,V,R,
223,97,13,5,1,33,47,283,['c'],0,right,['2'],5,202,[0.0853592],100,47,medium,plus,dotcolour,beta,,,9,19,V,R,
224,98,14,5,1,53,27,567,['n'],0,left,['8'],3,164,[-0.03915878],99,53,easy,plus,dotcolour,beta,,,9,19,V,R,
225,99,15,5,1,47,33,918,['c'],1,left,['2'],5,202,[0.14726244],100,47,medium,plus,dotcolour,beta,,,9,19,V,R,
226,100,16,5,1,53,27,966,['n'],0,left,['2'],5,237,[-0.02702113],95,53,easy,plus,dotcolour,beta,,,9,19,V,R,
227,101,17,5,1,47,33,783,['c'],1,left,['2'],5,158,[0.10512462],100,47,medium,plus,dotcolour,beta,,,9,19,V,R,
228,102,18,5,1,27,53,699,['n'],1,right,['2'],5,149,[-0.08356992],100,53,easy,plus,dotcolour,beta,,,9,19,V,R,
229,103,19,5,1,36,44,650,['n'],1,right,['2'],5,166,[-0.11208747],100,44,hard,plus,dotcolour,beta,,,9,19,V,R,
230,104,20,5,1,53,27,667,['c'],1,left,['2'],5,198,[0.02543192],96,53,easy,plus,dotcolour,beta,,,9,19,V,R,
231,105,21,5,1,27,53,517,['n'],1,right,['2'],5,139,[-0.14233928],100,53,easy,plus,dotcolour,beta,,,9,19,V,R,
232,106,22,5,1,33,47,367,['n'],1,right,['2'],5,216,[-0.06706083],99,47,medium,plus,dotcolour,beta,,,9,19,V,R,
233,107,23,5,1,44,36,483,['n'],0,left,['2'],5,141,[-0.0786356],100,44,hard,plus,dotcolour,beta,,,9,19,V,R,
234,108,24,5,1,44,36,350,['c'],1,left,['2'],5,1659,[0.24899271],99,44,hard,plus,dotcolour,beta,,,9,19,V,R,
235,109,25,5,1,53,27,667,['c'],1,left,['2'],5,223,[0.14462188],100,53,easy,plus,dotcolour,beta,,,9,19,V,R,
236,110,26,5,1,53,27,866,['c'],1,left,['2'],5,653,[0.23519339],100,53,easy,plus,dotcolour,beta,,,9,19,V,R,
237,111,27,5,1,33,47,383,['n'],1,right,['2'],5,1173,[-0.16233872],97,47,medium,plus,dotcolour,beta,,,9,19,V,R,
238,112,28,5,1,44,36,1983,['c'],1,left,['2'],5,191,[0.09436214],100,44,hard,plus,dotcolour,beta,,,9,19,V,R,
239,113,29,5,1,27,53,917,['n'],1,right,['8'],3,76,[-0.05446125],100,53,easy,plus,dotcolour,beta,,,9,19,V,R,
240,114,30,5,1,27,53,800,['n'],1,right,['2'],5,154,[-0.15172202],100,53,easy,plus,dotcolour,beta,,,9,19,V,R,
241,115,31,5,1,36,44,617,['n'],1,right,['2'],5,205,[-0.04689207],98,44,hard,plus,dotcolour,beta,,,9,19,V,R,
242,116,32,5,1,44,36,383,['c'],1,left,['2'],5,343,[0.12954911],100,44,hard,plus,dotcolour,beta,,,9,19,V,R,
243,117,33,5,1,53,27,800,['c'],1,left,['2'],5,186,[0.14513731],100,53,easy,plus,dotcolour,beta,,,9,19,V,R,
244,118,34,5,1,33,47,550,['n'],1,right,['2'],5,158,[-0.07805596],100,47,medium,plus,dotcolour,beta,,,9,19,V,R,
245,119,35,5,1,53,27,766,['c'],1,left,['2'],5,130,[0.03425544],99,53,easy,plus,dotcolour,beta,,,9,19,V,R,
246,120,36,5,1,47,33,534,['n'],0,left,['2'],5,137,[-0.07969387],100,47,medium,plus,dotcolour,beta,,,9,19,V,R,
247,121,37,5,1,36,44,649,['n'],1,right,['2'],5,170,[-0.05139757],99,44,hard,plus,dotcolour,beta,,,9,19,V,R,
248,122,38,5,1,33,47,550,['n'],1,right,['2'],5,142,[-0.09972522],100,47,medium,plus,dotcolour,beta,,,9,19,V,R,
249,123,39,5,1,44,36,700,['c'],1,left,['2'],5,662,[0.0457153],90,44,hard,plus,dotcolour,beta,,,9,19,V,R,
250,124,40,5,1,47,33,933,['c'],1,left,['2'],5,567,[0.04438928],92,47,medium,plus,dotcolour,beta,,,9,19,V,R,
251,125,41,5,1,36,44,766,['c'],0,right,['2'],5,219,[0.09657159],100,44,hard,plus,dotcolour,beta,,,9,19,V,R,
252,0,0,6,2,44,36,767,['c'],1,left,['2'],5,231,[0.10643386],87,44,hard,minus,dotcolour,beta,,,9,19,V,R,
253,1,1,6,2,36,44,717,['n'],1,right,['2'],5,115,[-0.06973322],68,44,hard,minus,dotcolour,beta,,,9,19,V,R,
254,2,2,6,2,47,33,767,['c'],1,left,['2'],5,288,[0.00916763],17,47,medium,minus,dotcolour,beta,,,9,19,V,R,
255,3,3,6,2,36,44,567,['n'],1,right,['2'],5,160,[-0.02948103],24,44,hard,minus,dotcolour,beta,,,9,19,V,R,
256,4,4,6,2,47,33,583,['c'],1,left,['2'],5,211,[0.14118596],97,47,medium,minus,dotcolour,beta,,,9,19,V,R,
257,5,5,6,2,27,53,651,['n'],1,right,['2'],5,162,[-0.09994038],88,53,easy,minus,dotcolour,beta,,,9,19,V,R,
258,6,6,6,2,33,47,617,['n'],1,right,['2'],5,148,[-0.06754784],64,47,medium,minus,dotcolour,beta,,,9,19,V,R,
259,7,7,6,2,36,44,417,['n'],1,right,['2'],5,199,[-0.15561237],98,44,hard,minus,dotcolour,beta,,,9,19,V,R,
260,8,8,6,2,27,53,300,['n'],1,right,['2'],5,156,[-0.15997446],99,53,easy,minus,dotcolour,beta,,,9,19,V,R,
261,9,9,6,2,47,33,416,['n'],0,left,['2'],5,135,[-0.11661151],95,47,medium,minus,dotcolour,beta,,,9,19,V,R,
262,10,10,6,2,53,27,601,['c'],1,left,['2'],5,155,[0.01810937],15,53,easy,minus,dotcolour,beta,,,9,19,V,R,
263,11,11,6,2,27,53,118,['n'],1,right,['2'],5,238,[-0.14497197],96,53,easy,minus,dotcolour,beta,,,9,19,V,R,
264,12,12,6,2,27,53,516,['n'],1,right,['2'],5,121,[-0.11320432],95,53,easy,minus,dotcolour,beta,,,9,19,V,R,
265,13,13,6,2,33,47,532,['n'],1,right,['2'],5,104,[-0.07954931],79,47,medium,minus,dotcolour,beta,,,9,19,V,R,
266,14,14,6,2,53,27,584,['c'],1,left,['2'],5,182,[0.09514164],84,53,easy,minus,dotcolour,beta,,,9,19,V,R,
267,15,15,6,2,53,27,550,['c'],1,left,['2'],5,202,[0.11958368],93,53,easy,minus,dotcolour,beta,,,9,19,V,R,
268,16,16,6,2,36,44,517,['n'],1,right,['2'],5,151,[-0.02792525],22,44,hard,minus,dotcolour,beta,,,9,19,V,R,
269,17,17,6,2,33,47,700,['n'],1,right,['2'],5,110,[-0.12415387],98,47,medium,minus,dotcolour,beta,,,9,19,V,R,
270,18,18,6,2,53,27,650,['c'],1,left,['2'],5,217,[0.08244018],74,53,easy,minus,dotcolour,beta,,,9,19,V,R,
271,19,19,6,2,33,47,716,['n'],1,right,['2'],5,125,[-0.05336195],47,47,medium,minus,dotcolour,beta,,,9,19,V,R,
272,20,20,6,2,27,53,683,['n'],1,right,['2'],5,182,[-0.10176159],88,53,easy,minus,dotcolour,beta,,,9,19,V,R,
273,21,21,6,2,44,36,433,['n'],0,left,['2'],5,134,[-0.06039377],56,44,hard,minus,dotcolour,beta,,,9,19,V,R,
274,22,22,6,2,33,47,550,['n'],1,right,['2'],5,148,[-0.14771877],99,47,medium,minus,dotcolour,beta,,,9,19,V,R,
275,23,23,6,2,53,27,684,['c'],1,left,['2'],5,204,[0.09333572],82,53,easy,minus,dotcolour,beta,,,9,19,V,R,
276,24,24,6,2,33,47,517,['n'],1,right,['2'],5,168,[-0.10509912],90,47,medium,minus,dotcolour,beta,,,9,19,V,R,
277,25,25,6,2,47,33,817,['c'],1,left,['2'],5,218,[0.04291189],38,47,medium,minus,dotcolour,beta,,,9,19,V,R,
278,26,26,6,2,27,53,91,['n'],1,right,['2'],5,115,[-0.14580496],99,53,easy,minus,dotcolour,beta,,,9,19,V,R,
279,27,27,6,2,36,44,334,['n'],1,right,['2'],5,178,[-0.06911129],64,44,hard,minus,dotcolour,beta,,,9,19,V,R,
280,28,28,6,2,47,33,500,['n'],0,left,['2'],5,328,[-0.05486964],49,47,medium,minus,dotcolour,beta,,,9,19,V,R,
281,29,29,6,2,36,44,2016,['n'],1,right,['2'],5,68,[-0.10161604],96,44,hard,minus,dotcolour,beta,,,9,19,V,R,
282,30,30,6,2,27,53,700,['n'],1,right,['2'],5,190,[-0.0368418],32,53,easy,minus,dotcolour,beta,,,9,19,V,R,
283,31,31,6,2,44,36,4084,['c'],1,left,['8'],3,269,[0.06822466],61,44,hard,minus,dotcolour,beta,,,9,19,V,R,
284,32,32,6,2,53,27,700,['c'],1,left,['2'],5,231,[0.24387985],100,53,easy,minus,dotcolour,beta,,,9,19,V,R,
285,33,33,6,2,44,36,1399,['c'],1,left,['2'],5,535,[0.15029168],91,44,hard,minus,dotcolour,beta,,,9,19,V,R,
286,34,34,6,2,44,36,683,['c'],1,left,['2'],5,168,[0.17600004],99,44,hard,minus,dotcolour,beta,,,9,19,V,R,
287,35,35,6,2,33,47,866,['c'],0,right,['2'],5,160,[0.12021331],95,47,medium,minus,dotcolour,beta,,,9,19,V,R,
288,36,36,6,2,44,36,1300,['c'],1,left,['2'],5,215,[0.12260583],93,44,hard,minus,dotcolour,beta,,,9,19,V,R,
289,37,37,6,2,44,36,1750,['n'],0,left,['2'],5,129,[-0.12539075],97,44,hard,minus,dotcolour,beta,,,9,19,V,R,
290,38,38,6,2,47,33,534,['n'],0,left,['2'],5,136,[-0.077092],74,47,medium,minus,dotcolour,beta,,,9,19,V,R,
291,39,39,6,2,47,33,400,['n'],0,left,['2'],5,244,[-0.0576647],52,47,medium,minus,dotcolour,beta,,,9,19,V,R,
292,40,40,6,2,53,27,768,['c'],1,left,['2'],5,149,[0.09576773],87,53,easy,minus,dotcolour,beta,,,9,19,V,R,
293,41,41,6,2,36,44,617,['n'],1,right,['2'],5,159,[-0.16630342],99,44,hard,minus,dotcolour,beta,,,9,19,V,R,
294,42,0,7,2,47,33,950,['n'],0,left,['2'],5,198,[-0.01293125],15,47,medium,minus,dotcolour,beta,,,9,19,V,R,
295,43,1,7,2,27,53,750,['n'],1,right,['2'],5,121,[-0.13573769],98,53,easy,minus,dotcolour,beta,,,9,19,V,R,
296,44,2,7,2,47,33,1150,['c'],1,left,['2'],5,135,[0.1313389],98,47,medium,minus,dotcolour,beta,,,9,19,V,R,
297,45,3,7,2,27,53,750,['n'],1,right,['2'],5,150,[-0.12419613],96,53,easy,minus,dotcolour,beta,,,9,19,V,R,
298,46,4,7,2,47,33,550,['c'],1,left,['2'],5,299,[0.08377784],72,47,medium,minus,dotcolour,beta,,,9,19,V,R,
299,47,5,7,2,53,27,284,['c'],1,left,['2'],5,269,[0.12547511],92,53,easy,minus,dotcolour,beta,,,9,19,V,R,
300,48,6,7,2,44,36,233,['n'],0,left,['2'],5,138,[-0.09232099],86,44,hard,minus,dotcolour,beta,,,9,19,V,R,
301,49,7,7,2,47,33,333,['c'],1,left,['2'],5,345,[0.19506246],99,47,medium,minus,dotcolour,beta,,,9,19,V,R,
302,50,8,7,2,27,53,350,['n'],1,right,['2'],5,174,[-0.1212626],94,53,easy,minus,dotcolour,beta,,,9,19,V,R,
303,51,9,7,2,53,27,433,['c'],1,left,['2'],5,190,[0.0440259],38,53,easy,minus,dotcolour,beta,,,9,19,V,R,
304,52,10,7,2,53,27,250,['n'],0,left,['2'],5,214,[-0.04670119],41,53,easy,minus,dotcolour,beta,,,9,19,V,R,
305,53,11,7,2,36,44,217,['c'],0,right,['2'],5,214,[0.06894731],63,44,hard,minus,dotcolour,beta,,,9,19,V,R,
306,54,12,7,2,53,27,449,['n'],0,left,['2'],5,836,[0.13794812],2,53,easy,minus,dotcolour,beta,,,9,19,V,R,
307,55,13,7,2,47,33,583,['c'],1,left,['2'],5,173,[0.06695041],62,47,medium,minus,dotcolour,beta,,,9,19,V,R,
308,56,14,7,2,44,36,266,['n'],0,left,['2'],5,204,[-0.08677253],78,44,hard,minus,dotcolour,beta,,,9,19,V,R,
309,57,15,7,2,33,47,233,['c'],0,right,['2'],5,196,[0.04469444],39,47,medium,minus,dotcolour,beta,,,9,19,V,R,
310,58,16,7,2,47,33,217,['n'],0,left,['2'],5,284,[-0.09756707],81,47,medium,minus,dotcolour,beta,,,9,19,V,R,
311,59,17,7,2,44,36,108,['c'],1,left,['2'],5,138,[0.12083425],96,44,hard,minus,dotcolour,beta,,,9,19,V,R,
312,60,18,7,2,33,47,683,['n'],1,right,['2'],5,202,[-0.05505382],49,47,medium,minus,dotcolour,beta,,,9,19,V,R,
313,61,19,7,2,44,36,44,['n'],0,left,['2'],5,84,[-0.08361634],85,44,hard,minus,dotcolour,beta,,,9,19,V,R,
314,62,20,7,2,33,47,300,['c'],0,right,['2'],5,206,[0.01447401],16,47,medium,minus,dotcolour,beta,,,9,19,V,R,
315,63,21,7,2,36,44,200,['n'],1,right,['2'],5,294,[-0.0509383],46,44,hard,minus,dotcolour,beta,,,9,19,V,R,
316,64,22,7,2,33,47,267,['c'],0,right,['2'],5,193,[0.03647476],31,47,medium,minus,dotcolour,beta,,,9,19,V,R,
317,65,23,7,2,27,53,99,['n'],1,right,['2'],5,147,[-0.03904223],32,53,easy,minus,dotcolour,beta,,,9,19,V,R,
318,66,24,7,2,33,47,71,['n'],1,right,['2'],5,22,[-0.0862486],98,47,medium,minus,dotcolour,beta,,,9,19,V,R,
319,67,25,7,2,44,36,316,['c'],1,left,['2'],5,362,[0.03977785],38,44,hard,minus,dotcolour,beta,,,9,19,V,R,
320,68,26,7,2,27,53,583,['n'],1,right,['2'],5,278,[-0.01225547],19,53,easy,minus,dotcolour,beta,,,9,19,V,R,
321,69,27,7,2,27,53,101,['c'],0,right,['2'],5,267,[0.1182194],90,53,easy,minus,dotcolour,beta,,,9,19,V,R,
322,70,28,7,2,27,53,2051,['n'],1,right,['2'],5,736,[-0.09513866],70,53,easy,minus,dotcolour,beta,,,9,19,V,R,
323,71,29,7,2,33,47,233,['n'],1,right,['2'],5,235,[-0.11295192],89,47,medium,minus,dotcolour,beta,,,9,19,V,R,
324,72,30,7,2,36,44,300,['c'],0,right,['2'],5,215,[0.08641978],77,44,hard,minus,dotcolour,beta,,,9,19,V,R,
325,73,31,7,2,36,44,383,['c'],0,right,['2'],5,256,[0.04067831],37,44,hard,minus,dotcolour,beta,,,9,19,V,R,
326,74,32,7,2,36,44,267,['n'],1,right,['2'],5,277,[-0.10462405],84,44,hard,minus,dotcolour,beta,,,9,19,V,R,
327,75,33,7,2,47,33,124,['n'],0,left,['2'],5,123,[-0.03304066],24,47,medium,minus,dotcolour,beta,,,9,19,V,R,
328,76,34,7,2,53,27,300,['n'],0,left,['2'],5,235,[-0.06241724],56,53,easy,minus,dotcolour,beta,,,9,19,V,R,
329,77,35,7,2,44,36,383,['n'],0,left,['2'],5,220,[-0.07274026],66,44,hard,minus,dotcolour,beta,,,9,19,V,R,
330,78,36,7,2,36,44,78,['c'],0,right,['2'],5,317,[0.04298036],40,44,hard,minus,dotcolour,beta,,,9,19,V,R,
331,79,37,7,2,53,27,216,['n'],0,left,['2'],5,361,[0.00355324],15,53,easy,minus,dotcolour,beta,,,9,19,V,R,
332,80,38,7,2,36,44,317,['c'],0,right,['2'],5,447,[0.16570946],95,44,hard,minus,dotcolour,beta,,,9,19,V,R,
333,81,39,7,2,33,47,3766,['c'],0,right,['2'],5,184,[0.05594348],50,47,medium,minus,dotcolour,beta,,,9,19,V,R,
334,82,40,7,2,53,27,333,['n'],0,left,['2'],5,485,[0.00570325],17,53,easy,minus,dotcolour,beta,,,9,19,V,R,
335,83,41,7,2,44,36,76,['n'],0,left,['2'],5,402,[-0.04278114],41,44,hard,minus,dotcolour,beta,,,9,19,V,R,
336,84,0,8,2,53,27,2033,['n'],0,left,['2'],5,184,[-0.02152479],19,53,easy,minus,dotcolour,beta,,,9,19,V,R,
337,85,1,8,2,33,47,300,['c'],0,right,['2'],5,230,[-0.02173684],5,47,medium,minus,dotcolour,beta,,,9,19,V,R,
338,86,2,8,2,33,47,55,['n'],1,right,['2'],5,270,[-0.10552326],85,47,medium,minus,dotcolour,beta,,,9,19,V,R,
339,87,3,8,2,36,44,583,['n'],1,right,['2'],5,237,[-0.05974232],54,44,hard,minus,dotcolour,beta,,,9,19,V,R,
340,88,4,8,2,47,33,433,['n'],0,left,['2'],5,172,[-0.03786862],32,47,medium,minus,dotcolour,beta,,,9,19,V,R,
341,89,5,8,2,27,53,366,['n'],1,right,['2'],5,208,[-0.0564344],51,53,easy,minus,dotcolour,beta,,,9,19,V,R,
342,90,6,8,2,44,36,533,['n'],0,left,['2'],5,99,[-0.07637457],77,44,hard,minus,dotcolour,beta,,,9,19,V,R,
343,91,7,8,2,44,36,283,['n'],0,left,['2'],5,205,[-0.05638075],51,44,hard,minus,dotcolour,beta,,,9,19,V,R,
344,92,8,8,2,33,47,119,['n'],1,right,['2'],5,38,[-0.12040164],100,47,medium,minus,dotcolour,beta,,,9,19,V,R,
345,93,9,8,2,47,33,136,['n'],0,left,['2'],5,54,[-0.07603448],83,47,medium,minus,dotcolour,beta,,,9,19,V,R,
346,94,10,8,2,27,53,266,['n'],1,right,['2'],5,258,[-0.15829935],97,53,easy,minus,dotcolour,beta,,,9,19,V,R,
347,95,11,8,2,44,36,884,['c'],1,left,['2'],5,157,[-0.00013136],7,44,hard,minus,dotcolour,beta,,,9,19,V,R,
348,96,12,8,2,47,33,567,['n'],0,left,['2'],5,273,[-0.03266619],31,47,medium,minus,dotcolour,beta,,,9,19,V,R,
349,97,13,8,2,53,27,967,['c'],1,left,['2'],5,217,[0.12059854],93,53,easy,minus,dotcolour,beta,,,9,19,V,R,
350,98,14,8,2,47,33,91,['n'],0,left,['2'],5,121,[-0.06844844],66,47,medium,minus,dotcolour,beta,,,9,19,V,R,
351,99,15,8,2,44,36,516,['n'],0,left,['2'],5,193,[-0.1113774],91,44,hard,minus,dotcolour,beta,,,9,19,V,R,
352,100,16,8,2,36,44,1033,['n'],1,right,['2'],5,129,[-0.09890981],90,44,hard,minus,dotcolour,beta,,,9,19,V,R,
353,101,17,8,2,53,27,933,['c'],1,left,['2'],5,160,[0.11423435],93,53,easy,minus,dotcolour,beta,,,9,19,V,R,
354,102,18,8,2,44,36,667,['n'],0,left,['2'],5,256,[-0.09963583],83,44,hard,minus,dotcolour,beta,,,9,19,V,R,
355,103,19,8,2,36,44,1050,['c'],0,right,['2'],5,270,[0.0792432],69,44,hard,minus,dotcolour,beta,,,9,19,V,R,
356,104,20,8,2,27,53,1116,['n'],1,right,['2'],5,192,[-0.13975697],97,53,easy,minus,dotcolour,beta,,,9,19,V,R,
357,105,21,8,2,27,53,697,['n'],1,right,['2'],5,157,[-0.0859842],80,53,easy,minus,dotcolour,beta,,,9,19,V,R,
358,106,22,8,2,47,33,915,['n'],0,left,['2'],5,187,[-0.00080043],9,47,medium,minus,dotcolour,beta,,,9,19,V,R,
359,107,23,8,2,47,33,815,['c'],1,left,['2'],5,172,[0.14570431],98,47,medium,minus,dotcolour,beta,,,9,19,V,R,
360,108,24,8,2,53,27,666,['c'],1,left,['2'],5,436,[0.16407066],95,53,easy,minus,dotcolour,beta,,,9,19,V,R,
361,109,25,8,2,27,53,681,['n'],1,right,['2'],5,184,[-0.08292942],76,53,easy,minus,dotcolour,beta,,,9,19,V,R,
362,110,26,8,2,36,44,1364,['c'],0,right,['2'],5,203,[0.02417766],22,44,hard,minus,dotcolour,beta,,,9,19,V,R,
363,111,27,8,2,53,27,715,['c'],1,left,['2'],5,144,[0.07547823],72,53,easy,minus,dotcolour,beta,,,9,19,V,R,
364,112,28,8,2,36,44,682,['n'],1,right,['2'],5,216,[-0.12977493],95,44,hard,minus,dotcolour,beta,,,9,19,V,R,
365,113,29,8,2,44,36,916,['c'],1,left,['2'],5,228,[0.08622565],76,44,hard,minus,dotcolour,beta,,,9,19,V,R,
366,114,30,8,2,36,44,632,['n'],1,right,['2'],5,178,[-0.0914944],82,44,hard,minus,dotcolour,beta,,,9,19,V,R,
367,115,31,8,2,53,27,915,['c'],1,left,['2'],5,224,[0.01931604],20,53,easy,minus,dotcolour,beta,,,9,19,V,R,
368,116,32,8,2,47,33,765,['c'],1,left,['2'],5,202,[0.09760355],84,47,medium,minus,dotcolour,beta,,,9,19,V,R,
369,117,33,8,2,27,53,683,['n'],1,right,['2'],5,240,[-0.12250601],92,53,easy,minus,dotcolour,beta,,,9,19,V,R,
370,118,34,8,2,33,47,800,['c'],0,right,['2'],5,151,[0.1101186],93,47,medium,minus,dotcolour,beta,,,9,19,V,R,
371,119,35,8,2,33,47,1200,['c'],0,right,['2'],5,251,[0.08252672],72,47,medium,minus,dotcolour,beta,,,9,19,V,R,
372,120,36,8,2,53,27,766,['c'],1,left,['2'],5,251,[0.1151849],89,53,easy,minus,dotcolour,beta,,,9,19,V,R,
373,121,37,8,2,33,47,399,['n'],1,right,['2'],5,282,[-0.12931621],92,47,medium,minus,dotcolour,beta,,,9,19,V,R,
374,122,38,8,2,36,44,315,['c'],0,right,['2'],5,228,[0.0052309],13,44,hard,minus,dotcolour,beta,,,9,19,V,R,
375,123,39,8,2,44,36,156,['n'],0,left,['2'],5,187,[-0.09171101],82,44,hard,minus,dotcolour,beta,,,9,19,V,R,
376,124,40,8,2,33,47,582,['n'],1,right,['2'],5,118,[-0.14392032],99,47,medium,minus,dotcolour,beta,,,9,19,V,R,
377,125,41,8,2,27,53,282,['n'],1,right,['2'],5,215,[-0.17426394],99,53,easy,minus,dotcolour,beta,,,9,19,V,R,
378,0,0,9,3,47,33,633,['n'],0,left,['2'],5,158,[-0.01312984],96,47,medium,plus,dotcolour,beta,,,9,19,V,R,
379,1,1,9,3,53,27,248,['c'],1,left,['2'],5,183,[0.06781163],99,53,easy,plus,dotcolour,beta,,,9,19,V,R,
380,2,2,9,3,53,27,160,['n'],0,left,['2'],5,145,[-0.0550509],99,53,easy,plus,dotcolour,beta,,,9,19,V,R,
381,3,3,9,3,53,27,216,['c'],1,left,['2'],5,356,[0.08987376],99,53,easy,plus,dotcolour,beta,,,9,19,V,R,
382,4,4,9,3,44,36,315,['n'],0,left,['2'],5,321,[-0.1559629],100,44,hard,plus,dotcolour,beta,,,9,19,V,R,
383,5,5,9,3,27,53,314,['n'],1,right,['2'],5,457,[-0.17862984],100,53,easy,plus,dotcolour,beta,,,9,19,V,R,
384,6,6,9,3,33,47,331,['c'],0,right,['2'],5,435,[0.03108388],91,47,medium,plus,dotcolour,beta,,,9,19,V,R,
385,7,7,9,3,47,33,334,['n'],0,left,['2'],5,422,[-0.00945923],86,47,medium,plus,dotcolour,beta,,,9,19,V,R,
386,8,8,9,3,33,47,966,['n'],1,right,['2'],5,271,[-0.07637433],99,47,medium,plus,dotcolour,beta,,,9,19,V,R,
387,9,9,9,3,47,33,298,['c'],1,left,['2'],5,242,[0.09566215],100,47,medium,plus,dotcolour,beta,,,9,19,V,R,
388,10,10,9,3,44,36,1131,['c'],1,left,['2'],5,211,[0.03198895],97,44,hard,plus,dotcolour,beta,,,9,19,V,R,
389,11,11,9,3,33,47,1133,['n'],1,right,['2'],5,167,[-0.07319349],100,47,medium,plus,dotcolour,beta,,,9,19,V,R,
390,12,12,9,3,36,44,798,['n'],1,right,['2'],5,146,[-0.12145545],100,44,hard,plus,dotcolour,beta,,,9,19,V,R,
391,13,13,9,3,44,36,531,['n'],0,left,['2'],5,160,[-0.07150097],100,44,hard,plus,dotcolour,beta,,,9,19,V,R,
392,14,14,9,3,36,44,382,['n'],1,right,['2'],5,139,[-0.05064546],99,44,hard,plus,dotcolour,beta,,,9,19,V,R,
393,15,15,9,3,53,27,549,['c'],1,left,['2'],5,161,[0.10090432],100,53,easy,plus,dotcolour,beta,,,9,19,V,R,
394,16,16,9,3,44,36,231,['n'],0,left,['2'],5,114,[-0.01997473],98,44,hard,plus,dotcolour,beta,,,9,19,V,R,
395,17,17,9,3,36,44,54,['c'],0,right,['2'],5,14,[0.07904421],100,44,hard,plus,dotcolour,beta,,,9,19,V,R,
396,18,18,9,3,27,53,717,['n'],1,right,['2'],5,163,[-0.04916475],99,53,easy,plus,dotcolour,beta,,,9,19,V,R,
397,19,19,9,3,47,33,249,['c'],1,left,['2'],5,195,[0.05318056],99,47,medium,plus,dotcolour,beta,,,9,19,V,R,
398,20,20,9,3,27,53,300,['n'],1,right,['2'],5,280,[-0.07969045],99,53,easy,plus,dotcolour,beta,,,9,19,V,R,
399,21,21,9,3,47,33,414,['c'],1,left,['2'],5,182,[0.03827447],98,47,medium,plus,dotcolour,beta,,,9,19,V,R,
400,22,22,9,3,44,36,317,['n'],0,left,['2'],5,204,[-0.1211945],100,44,hard,plus,dotcolour,beta,,,9,19,V,R,
401,23,23,9,3,36,44,331,['c'],0,right,['2'],5,199,[-0.02915694],74,44,hard,plus,dotcolour,beta,,,9,19,V,R,
402,24,24,9,3,47,33,265,['n'],0,left,['2'],5,214,[0.03514064],69,47,medium,plus,dotcolour,beta,,,9,19,V,R,
403,25,25,9,3,27,53,174,['n'],1,right,['2'],5,150,[-0.1076072],100,53,easy,plus,dotcolour,beta,,,9,19,V,R,
404,26,26,9,3,27,53,298,['n'],1,right,['2'],5,149,[-0.10601701],100,53,easy,plus,dotcolour,beta,,,9,19,V,R,
405,27,27,9,3,27,53,265,['n'],1,right,['2'],5,150,[-0.06009795],100,53,easy,plus,dotcolour,beta,,,9,19,V,R,
406,28,28,9,3,33,47,1081,['n'],1,right,['2'],5,166,[-0.04290655],99,47,medium,plus,dotcolour,beta,,,9,19,V,R,
407,29,29,9,3,33,47,564,['c'],0,right,['2'],5,218,[-0.00880174],86,47,medium,plus,dotcolour,beta,,,9,19,V,R,
408,30,30,9,3,27,53,681,['n'],1,right,['8'],3,335,[-0.14868995],100,53,easy,plus,dotcolour,beta,,,9,19,V,R,
409,31,31,9,3,36,44,346,['n'],1,right,['2'],5,117,[-0.11468414],100,44,hard,plus,dotcolour,beta,,,9,19,V,R,
410,32,32,9,3,33,47,249,['n'],1,right,['2'],5,208,[-0.08467915],100,47,medium,plus,dotcolour,beta,,,9,19,V,R,
411,33,33,9,3,33,47,348,['n'],1,right,['2'],5,147,[-0.07712007],100,47,medium,plus,dotcolour,beta,,,9,19,V,R,
412,34,34,9,3,36,44,365,['n'],1,right,['2'],5,119,[-0.10995589],100,44,hard,plus,dotcolour,beta,,,9,19,V,R,
413,35,35,9,3,53,27,215,['n'],0,left,['2'],5,132,[-0.0944053],100,53,easy,plus,dotcolour,beta,,,9,19,V,R,
414,36,36,9,3,53,27,897,['c'],1,left,['2'],5,139,[0.07564713],100,53,easy,plus,dotcolour,beta,,,9,19,V,R,
415,37,37,9,3,44,36,297,['n'],0,left,['2'],5,235,[-0.11919543],100,44,hard,plus,dotcolour,beta,,,9,19,V,R,
416,38,38,9,3,44,36,300,['n'],0,left,['2'],5,231,[-0.0414854],97,44,hard,plus,dotcolour,beta,,,9,19,V,R,
417,39,39,9,3,53,27,232,['c'],1,left,['2'],5,261,[0.2179817],100,53,easy,plus,dotcolour,beta,,,9,19,V,R,
418,40,40,9,3,47,33,265,['n'],0,left,['2'],5,233,[-0.00091619],89,47,medium,plus,dotcolour,beta,,,9,19,V,R,
419,41,41,9,3,36,44,88,['n'],1,right,['2'],5,114,[-0.07223751],100,44,hard,plus,dotcolour,beta,,,9,19,V,R,
420,42,0,10,3,33,47,717,['n'],1,right,['2'],5,185,[-0.0695765],99,47,medium,plus,dotcolour,beta,,,9,19,V,R,
421,43,1,10,3,33,47,214,['n'],1,right,['2'],5,122,[-0.08489156],100,47,medium,plus,dotcolour,beta,,,9,19,V,R,
422,44,2,10,3,27,53,331,['c'],0,right,['2'],5,314,[0.08929925],99,53,easy,plus,dotcolour,beta,,,9,19,V,R,
423,45,3,10,3,36,44,249,['n'],1,right,['2'],5,332,[-0.07066083],98,44,hard,plus,dotcolour,beta,,,9,19,V,R,
424,46,4,10,3,33,47,314,['n'],1,right,['2'],5,388,[-0.1323552],100,47,medium,plus,dotcolour,beta,,,9,19,V,R,
425,47,5,10,3,27,53,216,['n'],1,right,['2'],5,269,[-0.02109624],93,53,easy,plus,dotcolour,beta,,,9,19,V,R,
426,48,6,10,3,47,33,214,['c'],1,left,['2'],5,483,[0.03351973],91,47,medium,plus,dotcolour,beta,,,9,19,V,R,
427,49,7,10,3,53,27,350,['n'],0,left,['2'],5,267,[-0.03475555],96,53,easy,plus,dotcolour,beta,,,9,19,V,R,
428,50,8,10,3,53,27,1217,['c'],1,left,['2'],5,217,[0.07627648],99,53,easy,plus,dotcolour,beta,,,9,19,V,R,
429,51,9,10,3,36,44,298,['n'],1,right,['2'],5,230,[-0.01418722],93,44,hard,plus,dotcolour,beta,,,9,19,V,R,
430,52,10,10,3,47,33,349,['n'],0,left,['2'],5,224,[0.02071965],79,47,medium,plus,dotcolour,beta,,,9,19,V,R,
431,53,11,10,3,53,27,300,['n'],0,left,['2'],5,148,[-0.10281155],100,53,easy,plus,dotcolour,beta,,,9,19,V,R,
432,54,12,10,3,36,44,250,['c'],0,right,['2'],5,125,[0.04980676],100,44,hard,plus,dotcolour,beta,,,9,19,V,R,
433,55,13,10,3,44,36,418,['n'],0,left,['2'],5,249,[-0.04097898],97,44,hard,plus,dotcolour,beta,,,9,19,V,R,
434,56,14,10,3,33,47,233,['c'],0,right,['2'],5,183,[0.02782013],97,47,medium,plus,dotcolour,beta,,,9,19,V,R,
435,57,15,10,3,47,33,783,['c'],1,left,['2'],5,218,[0.21191315],100,47,medium,plus,dotcolour,beta,,,9,19,V,R,
436,58,16,10,3,36,44,333,['n'],1,right,['2'],5,597,[-0.08123158],96,44,hard,plus,dotcolour,beta,,,9,19,V,R,
437,59,17,10,3,44,36,483,['c'],1,left,['2'],5,275,[0.09408221],99,44,hard,plus,dotcolour,beta,,,9,19,V,R,
438,60,18,10,3,53,27,883,['c'],1,left,['2'],5,389,[0.07060006],97,53,easy,plus,dotcolour,beta,,,9,19,V,R,
439,61,19,10,3,53,27,282,['n'],0,left,['2'],5,243,[-0.05275625],98,53,easy,plus,dotcolour,beta,,,9,19,V,R,
440,62,20,10,3,44,36,250,['c'],1,left,['2'],5,169,[0.12411951],100,44,hard,plus,dotcolour,beta,,,9,19,V,R,
441,63,21,10,3,36,44,633,['n'],1,right,['2'],5,186,[-0.07727817],100,44,hard,plus,dotcolour,beta,,,9,19,V,R,
442,64,22,10,3,47,33,315,['c'],1,left,['2'],5,191,[0.08801358],100,47,medium,plus,dotcolour,beta,,,9,19,V,R,
443,65,23,10,3,27,53,80,['n'],1,right,['2'],5,89,[-0.14656595],100,53,easy,plus,dotcolour,beta,,,9,19,V,R,
444,66,24,10,3,27,53,247,['c'],0,right,['2'],5,157,[-0.01526478],86,53,easy,plus,dotcolour,beta,,,9,19,V,R,
445,67,25,10,3,47,33,65,['n'],0,left,['2'],5,40,[-0.07000132],100,47,medium,plus,dotcolour,beta,,,9,19,V,R,
446,68,26,10,3,44,36,216,['c'],1,left,['2'],5,247,[0.11526796],100,44,hard,plus,dotcolour,beta,,,9,19,V,R,
447,69,27,10,3,36,44,266,['n'],1,right,['2'],5,132,[-0.09739881],100,44,hard,plus,dotcolour,beta,,,9,19,V,R,
448,70,28,10,3,33,47,234,['n'],1,right,['2'],5,151,[-0.09265341],100,47,medium,plus,dotcolour,beta,,,9,19,V,R,
449,71,29,10,3,27,53,169,['c'],0,right,['2'],5,50,[0.04891078],100,53,easy,plus,dotcolour,beta,,,9,19,V,R,
450,72,30,10,3,47,33,169,['n'],0,left,['2'],5,345,[-0.07964775],98,47,medium,plus,dotcolour,beta,,,9,19,V,R,
451,73,31,10,3,53,27,78,['c'],1,left,['2'],5,52,[0.08707639],100,53,easy,plus,dotcolour,beta,,,9,19,V,R,
452,74,32,10,3,33,47,1532,['n'],1,right,['2'],5,238,[-0.12733468],100,47,medium,plus,dotcolour,beta,,,9,19,V,R,
453,75,33,10,3,47,33,665,['c'],1,left,['2'],5,228,[0.11175894],100,47,medium,plus,dotcolour,beta,,,9,19,V,R,
454,76,34,10,3,53,27,315,['c'],1,left,['2'],5,263,[0.09671128],100,53,easy,plus,dotcolour,beta,,,9,19,V,R,
455,77,35,10,3,27,53,365,['c'],0,right,['2'],5,167,[0.00723716],94,53,easy,plus,dotcolour,beta,,,9,19,V,R,
456,78,36,10,3,44,36,1615,['c'],1,left,['2'],5,193,[0.06559162],99,44,hard,plus,dotcolour,beta,,,9,19,V,R,
457,79,37,10,3,27,53,1267,['c'],0,right,['2'],5,328,[0.01904471],91,53,easy,plus,dotcolour,beta,,,9,19,V,R,
458,80,38,10,3,44,36,282,['c'],1,left,['2'],5,168,[0.1098878],100,44,hard,plus,dotcolour,beta,,,9,19,V,R,
459,81,39,10,3,33,47,282,['c'],0,right,['2'],5,384,[0.11938863],99,47,medium,plus,dotcolour,beta,,,9,19,V,R,
460,82,40,10,3,44,36,283,['n'],0,left,['2'],5,310,[-0.1523387],100,44,hard,plus,dotcolour,beta,,,9,19,V,R,
461,83,41,10,3,36,44,17,['n'],1,right,['2'],5,2867,[-0.22034431],95,44,hard,plus,dotcolour,beta,,,9,19,V,R,
462,84,0,11,3,47,33,1165,['c'],1,left,['2'],5,272,[0.130544],100,47,medium,plus,dotcolour,beta,,,9,19,V,R,
463,85,1,11,3,33,47,14,['n'],1,right,['9'],2,439,[-0.14810689],100,47,medium,plus,dotcolour,beta,,,9,19,V,R,
464,86,2,11,3,33,47,732,['c'],0,right,['2'],5,232,[0.07712098],99,47,medium,plus,dotcolour,beta,,,9,19,V,R,
465,87,3,11,3,27,53,266,['n'],1,right,['9'],2,438,[-0.10669359],99,53,easy,plus,dotcolour,beta,,,9,19,V,R,
466,88,4,11,3,33,47,265,['n'],1,right,['2'],5,292,[-0.09526692],99,47,medium,plus,dotcolour,beta,,,9,19,V,R,
467,89,5,11,3,27,53,266,['c'],0,right,['2'],5,654,[-0.0886596],32,53,easy,plus,dotcolour,beta,,,9,19,V,R,
468,90,6,11,3,36,44,449,['n'],1,right,['2'],5,299,[-0.18437888],100,44,hard,plus,dotcolour,beta,,,9,19,V,R,
469,91,7,11,3,27,53,248,['c'],0,right,['2'],5,182,[0.02944738],97,53,easy,plus,dotcolour,beta,,,9,19,V,R,
470,92,8,11,3,44,36,232,['n'],0,left,['2'],5,143,[-0.07495184],100,44,hard,plus,dotcolour,beta,,,9,19,V,R,
471,93,9,11,3,53,27,232,['c'],1,left,['2'],5,137,[0.07363312],100,53,easy,plus,dotcolour,beta,,,9,19,V,R,
472,94,10,11,3,27,53,45,['n'],1,right,['2'],5,52,[-0.06542755],100,53,easy,plus,dotcolour,beta,,,9,19,V,R,
473,95,11,11,3,53,27,264,['c'],1,left,['2'],5,105,[0.10816449],100,53,easy,plus,dotcolour,beta,,,9,19,V,R,
474,96,12,11,3,44,36,214,['n'],0,left,['2'],5,173,[-0.05417744],99,44,hard,plus,dotcolour,beta,,,9,19,V,R,
475,97,13,11,3,53,27,134,['n'],0,left,['2'],5,103,[-0.06828289],100,53,easy,plus,dotcolour,beta,,,9,19,V,R,
476,98,14,11,3,47,33,109,['n'],0,left,['2'],5,44,[-0.05254259],100,47,medium,plus,dotcolour,beta,,,9,19,V,R,
477,99,15,11,3,36,44,195,['n'],1,right,['2'],5,212,[-0.09825724],100,44,hard,plus,dotcolour,beta,,,9,19,V,R,
478,100,16,11,3,33,47,265,['n'],1,right,['2'],5,161,[-0.10083439],100,47,medium,plus,dotcolour,beta,,,9,19,V,R,
479,101,17,11,3,44,36,250,['n'],0,left,['2'],5,154,[-0.11670897],100,44,hard,plus,dotcolour,beta,,,9,19,V,R,
480,102,18,11,3,33,47,297,['n'],1,right,['2'],5,186,[0.01990255],82,47,medium,plus,dotcolour,beta,,,9,19,V,R,
481,103,19,11,3,53,27,2198,['n'],0,left,['2'],5,180,[-0.02664452],97,53,easy,plus,dotcolour,beta,,,9,19,V,R,
482,104,20,11,3,47,33,748,['n'],0,left,['2'],5,248,[-0.14098555],100,47,medium,plus,dotcolour,beta,,,9,19,V,R,
483,105,21,11,3,47,33,550,['n'],0,left,['2'],5,185,[-0.07107786],100,47,medium,plus,dotcolour,beta,,,9,19,V,R,
484,106,22,11,3,33,47,109,['n'],1,right,['2'],5,187,[-0.07034423],99,47,medium,plus,dotcolour,beta,,,9,19,V,R,
485,107,23,11,3,44,36,182,['n'],0,left,['2'],5,685,[0.06486757],45,44,hard,plus,dotcolour,beta,,,9,19,V,R,
486,108,24,11,3,44,36,883,['n'],0,left,['2'],5,175,[-0.00517475],93,44,hard,plus,dotcolour,beta,,,9,19,V,R,
487,109,25,11,3,53,27,216,['n'],0,left,['2'],5,160,[-0.04272075],99,53,easy,plus,dotcolour,beta,,,9,19,V,R,
488,110,26,11,3,36,44,583,['n'],1,right,['2'],5,172,[-0.0557417],99,44,hard,plus,dotcolour,beta,,,9,19,V,R,
489,111,27,11,3,47,33,234,['n'],0,left,['2'],5,180,[-0.08043833],100,47,medium,plus,dotcolour,beta,,,9,19,V,R,
490,112,28,11,3,36,44,250,['n'],1,right,['2'],5,164,[-0.13116853],100,44,hard,plus,dotcolour,beta,,,9,19,V,R,
491,113,29,11,3,44,36,247,['n'],0,left,['2'],5,133,[-0.03169807],99,44,hard,plus,dotcolour,beta,,,9,19,V,R,
492,114,30,11,3,53,27,266,['n'],0,left,['2'],5,134,[-0.09407769],100,53,easy,plus,dotcolour,beta,,,9,19,V,R,
493,115,31,11,3,44,36,132,['n'],0,left,['2'],5,162,[-0.00792981],94,44,hard,plus,dotcolour,beta,,,9,19,V,R,
494,116,32,11,3,27,53,133,['n'],1,right,['2'],5,77,[-0.08751474],100,53,easy,plus,dotcolour,beta,,,9,19,V,R,
495,117,33,11,3,53,27,27,['n'],0,left,['2'],5,995,[0.31731431],1,53,easy,plus,dotcolour,beta,,,9,19,V,R,
496,118,34,11,3,33,47,249,['n'],1,right,['2'],5,146,[-0.11446129],100,47,medium,plus,dotcolour,beta,,,9,19,V,R,
497,119,35,11,3,27,53,248,['n'],1,right,['2'],5,147,[-0.06421598],100,53,easy,plus,dotcolour,beta,,,9,19,V,R,
498,120,36,11,3,27,53,233,['n'],1,right,['2'],5,85,[-0.09975935],100,53,easy,plus,dotcolour,beta,,,9,19,V,R,
499,121,37,11,3,36,44,299,['c'],0,right,['2'],5,15,[0.06166371],100,44,hard,plus,dotcolour,beta,,,9,19,V,R,
500,122,38,11,3,47,33,264,['n'],0,left,['2'],5,133,[-0.03773091],99,47,medium,plus,dotcolour,beta,,,9,19,V,R,
501,123,39,11,3,36,44,169,['n'],1,right,['2'],5,65,[-0.07782836],100,44,hard,plus,dotcolour,beta,,,9,19,V,R,
502,124,40,11,3,47,33,348,['n'],0,left,['2'],5,130,[-0.02894509],99,47,medium,plus,dotcolour,beta,,,9,19,V,R,
503,125,41,11,3,36,44,174,['c'],0,right,['2'],5,182,[0.06849612],99,44,hard,plus,dotcolour,beta,,,9,19,V,R,
504,0,0,12,4,53,27,682,['n'],0,left,['2'],5,237,[-0.02301518],23,53,easy,minus,dotcolour,beta,,,9,19,V,R,
505,1,1,12,4,47,33,331,['c'],1,left,['2'],5,975,[0.31822538],99,47,medium,minus,dotcolour,beta,,,9,19,V,R,
506,2,2,12,4,44,36,351,['n'],0,left,['2'],5,267,[-0.04455898],41,44,hard,minus,dotcolour,beta,,,9,19,V,R,
507,3,3,12,4,44,36,532,['c'],1,left,['2'],5,381,[0.18316236],98,44,hard,minus,dotcolour,beta,,,9,19,V,R,
508,4,4,12,4,47,33,1314,['c'],1,left,['2'],5,394,[0.1144836],84,47,medium,minus,dotcolour,beta,,,9,19,V,R,
509,5,5,12,4,53,27,1600,['n'],0,left,['2'],5,516,[-0.0720792],60,53,easy,minus,dotcolour,beta,,,9,19,V,R,
510,6,6,12,4,27,53,730,['n'],1,right,['2'],5,346,[-0.07591272],65,53,easy,minus,dotcolour,beta,,,9,19,V,R,
511,7,7,12,4,36,44,331,['n'],1,right,['2'],5,224,[-0.08778255],77,44,hard,minus,dotcolour,beta,,,9,19,V,R,
512,8,8,12,4,36,44,1115,['c'],0,right,['2'],5,188,[0.09671932],85,44,hard,minus,dotcolour,beta,,,9,19,V,R,
513,9,9,12,4,27,53,633,['n'],1,right,['2'],5,124,[-0.02161268],15,53,easy,minus,dotcolour,beta,,,9,19,V,R,
514,10,10,12,4,33,47,1500,['c'],0,right,['2'],5,388,[-0.01979297],10,47,medium,minus,dotcolour,beta,,,9,19,V,R,
515,11,11,12,4,47,33,1182,['n'],0,left,['9'],2,622,[-0.02264812],32,47,medium,minus,dotcolour,beta,,,9,19,V,R,
516,12,12,12,4,53,27,681,['c'],1,left,['2'],5,755,[0.20455816],96,53,easy,minus,dotcolour,beta,,,9,19,V,R,
517,13,13,12,4,47,33,86,['n'],0,left,['9'],2,1182,[0.02640022],20,47,medium,minus,dotcolour,beta,,,9,19,V,R,
518,14,14,12,4,33,47,17,['n'],1,right,['2'],5,951,[-0.17300868],90,47,medium,minus,dotcolour,beta,,,9,19,V,R,
519,15,15,12,4,27,53,1482,['c'],0,right,['2'],5,366,[0.06337433],56,53,easy,minus,dotcolour,beta,,,9,19,V,R,
520,16,16,12,4,44,36,833,['n'],0,left,['2'],5,1184,[-0.08563912],62,44,hard,minus,dotcolour,beta,,,9,19,V,R,
521,17,17,12,4,53,27,1148,['c'],1,left,['2'],5,1123,[0.28535425],98,53,easy,minus,dotcolour,beta,,,9,19,V,R,
522,18,18,12,4,36,44,231,['n'],1,right,['2'],5,542,[-0.0038312],22,44,hard,minus,dotcolour,beta,,,9,19,V,R,
523,19,19,12,4,44,36,315,['c'],1,left,['2'],5,596,[0.08636216],67,44,hard,minus,dotcolour,beta,,,9,19,V,R,
524,20,20,12,4,33,47,53,['n'],1,right,['2'],5,397,[-0.246389],100,47,medium,minus,dotcolour,beta,,,9,19,V,R,
525,21,21,12,4,47,33,1431,['c'],1,left,['2'],5,365,[0.07822897],66,47,medium,minus,dotcolour,beta,,,9,19,V,R,
526,22,22,12,4,44,36,465,['n'],0,left,['2'],5,373,[-0.03164527],33,44,hard,minus,dotcolour,beta,,,9,19,V,R,
527,23,23,12,4,27,53,231,['n'],1,right,['2'],5,510,[-0.24896628],99,53,easy,minus,dotcolour,beta,,,9,19,V,R,
528,24,24,12,4,36,44,648,['c'],0,right,['2'],5,297,[0.01439468],20,44,hard,minus,dotcolour,beta,,,9,19,V,R,
529,25,25,12,4,27,53,582,['n'],1,right,['2'],5,231,[-0.11999811],92,53,easy,minus,dotcolour,beta,,,9,19,V,R,
530,26,26,12,4,44,36,383,['n'],0,left,['2'],5,287,[-0.09279257],78,44,hard,minus,dotcolour,beta,,,9,19,V,R,
531,27,27,12,4,47,33,448,['n'],0,left,['2'],5,483,[-0.0041373],21,47,medium,minus,dotcolour,beta,,,9,19,V,R,
532,28,28,12,4,33,47,416,['c'],0,right,['2'],5,175,[0.00495112],10,47,medium,minus,dotcolour,beta,,,9,19,V,R,
533,29,29,12,4,27,53,565,['n'],1,right,['2'],5,275,[-0.06048649],54,53,easy,minus,dotcolour,beta,,,9,19,V,R,
534,30,30,12,4,44,36,330,['c'],1,left,['2'],5,299,[0.07245195],64,44,hard,minus,dotcolour,beta,,,9,19,V,R,
535,31,31,12,4,36,44,296,['n'],1,right,['2'],5,340,[-0.16769117],97,44,hard,minus,dotcolour,beta,,,9,19,V,R,
536,32,32,12,4,53,27,882,['n'],0,left,['2'],5,229,[0.0206157],5,53,easy,minus,dotcolour,beta,,,9,19,V,R,
537,33,33,12,4,47,33,448,['c'],1,left,['2'],5,259,[0.09167172],78,47,medium,minus,dotcolour,beta,,,9,19,V,R,
538,34,34,12,4,33,47,317,['n'],1,right,['2'],5,221,[-0.15075115],97,47,medium,minus,dotcolour,beta,,,9,19,V,R,
539,35,35,12,4,53,27,383,['n'],0,left,['2'],5,198,[-0.01810774],18,53,easy,minus,dotcolour,beta,,,9,19,V,R,
540,36,36,12,4,33,47,215,['c'],0,right,['2'],5,215,[0.14563797],97,47,medium,minus,dotcolour,beta,,,9,19,V,R,
541,37,37,12,4,27,53,548,['n'],1,right,['2'],5,217,[-0.22892002],100,53,easy,minus,dotcolour,beta,,,9,19,V,R,
542,38,38,12,4,53,27,680,['n'],0,left,['2'],5,511,[-0.03623493],38,53,easy,minus,dotcolour,beta,,,9,19,V,R,
543,39,39,12,4,36,44,282,['c'],0,right,['2'],5,376,[0.12254351],88,44,hard,minus,dotcolour,beta,,,9,19,V,R,
544,40,40,12,4,33,47,83,['n'],1,right,['2'],5,98,[-0.10995678],96,47,medium,minus,dotcolour,beta,,,9,19,V,R,
545,41,41,12,4,36,44,232,['c'],0,right,['2'],5,174,[0.05902131],54,44,hard,minus,dotcolour,beta,,,9,19,V,R,
546,42,0,13,4,33,47,1484,['c'],0,right,['2'],5,212,[0.16011158],98,47,medium,minus,dotcolour,beta,,,9,19,V,R,
547,43,1,13,4,27,53,1566,['n'],1,right,['2'],5,182,[-0.16885669],99,53,easy,minus,dotcolour,beta,,,9,19,V,R,
548,44,2,13,4,27,53,615,['n'],1,right,['2'],5,215,[-0.16710797],99,53,easy,minus,dotcolour,beta,,,9,19,V,R,
549,45,3,13,4,33,47,448,['n'],1,right,['2'],5,150,[-0.09642204],87,47,medium,minus,dotcolour,beta,,,9,19,V,R,
550,46,4,13,4,44,36,366,['n'],0,left,['2'],5,210,[-0.05034344],45,44,hard,minus,dotcolour,beta,,,9,19,V,R,
551,47,5,13,4,47,33,433,['c'],1,left,['2'],5,218,[0.04978489],44,47,medium,minus,dotcolour,beta,,,9,19,V,R,
552,48,6,13,4,27,53,267,['n'],1,right,['2'],5,200,[-0.14540759],97,53,easy,minus,dotcolour,beta,,,9,19,V,R,
553,49,7,13,4,44,36,463,['n'],0,left,['2'],5,175,[-0.0765291],71,44,hard,minus,dotcolour,beta,,,9,19,V,R,
554,50,8,13,4,27,53,348,['n'],1,right,['2'],5,314,[-0.16079212],97,53,easy,minus,dotcolour,beta,,,9,19,V,R,
555,51,9,13,4,53,27,815,['c'],1,left,['2'],5,214,[0.07190622],65,53,easy,minus,dotcolour,beta,,,9,19,V,R,
556,52,10,13,4,53,27,699,['c'],1,left,['2'],5,491,[-0.01358289],14,53,easy,minus,dotcolour,beta,,,9,19,V,R,
557,53,11,13,4,27,53,281,['n'],1,right,['2'],5,165,[-0.09618755],86,53,easy,minus,dotcolour,beta,,,9,19,V,R,
558,54,12,13,4,33,47,1299,['n'],1,right,['2'],5,124,[-0.07401335],72,47,medium,minus,dotcolour,beta,,,9,19,V,R,
559,55,13,13,4,47,33,217,['n'],0,left,['2'],5,168,[0.0153688],4,47,medium,minus,dotcolour,beta,,,9,19,V,R,
560,56,14,13,4,27,53,59,['n'],1,right,['2'],5,51,[-0.04272761],26,53,easy,minus,dotcolour,beta,,,9,19,V,R,
561,57,15,13,4,44,36,130,['n'],0,left,['2'],5,146,[-0.07799437],74,44,hard,minus,dotcolour,beta,,,9,19,V,R,
562,58,16,13,4,36,44,498,['n'],1,right,['2'],5,145,[-0.12884491],97,44,hard,minus,dotcolour,beta,,,9,19,V,R,
563,59,17,13,4,36,44,215,['c'],0,right,['2'],5,204,[0.07266219],66,44,hard,minus,dotcolour,beta,,,9,19,V,R,
564,60,18,13,4,44,36,1266,['n'],0,left,['9'],2,386,[-0.02459237],29,44,hard,minus,dotcolour,beta,,,9,19,V,R,
565,61,19,13,4,47,33,532,['c'],1,left,['2'],5,271,[0.16933977],98,47,medium,minus,dotcolour,beta,,,9,19,V,R,
566,62,20,13,4,44,36,617,['n'],0,left,['2'],5,260,[-0.10932147],87,44,hard,minus,dotcolour,beta,,,9,19,V,R,
567,63,21,13,4,53,27,1250,['c'],1,left,['2'],5,273,[0.09323146],79,53,easy,minus,dotcolour,beta,,,9,19,V,R,
568,64,22,13,4,47,33,566,['n'],0,left,['2'],5,233,[-0.03115041],29,47,medium,minus,dotcolour,beta,,,9,19,V,R,
569,65,23,13,4,47,33,766,['c'],1,left,['2'],5,243,[0.07996089],71,47,medium,minus,dotcolour,beta,,,9,19,V,R,
570,66,24,13,4,53,27,930,['c'],1,left,['2'],5,212,[0.07616149],69,53,easy,minus,dotcolour,beta,,,9,19,V,R,
571,67,25,13,4,36,44,615,['n'],1,right,['2'],5,204,[-0.08776625],78,44,hard,minus,dotcolour,beta,,,9,19,V,R,
572,68,26,13,4,36,44,550,['c'],0,right,['2'],5,264,[0.06936764],62,44,hard,minus,dotcolour,beta,,,9,19,V,R,
573,69,27,13,4,33,47,127,['n'],1,right,['2'],5,230,[-0.0578146],52,47,medium,minus,dotcolour,beta,,,9,19,V,R,
574,70,28,13,4,47,33,283,['c'],1,left,['2'],5,155,[0.08707789],81,47,medium,minus,dotcolour,beta,,,9,19,V,R,
575,71,29,13,4,33,47,383,['c'],0,right,['2'],5,127,[0.08382717],81,47,medium,minus,dotcolour,beta,,,9,19,V,R,
576,72,30,13,4,36,44,156,['n'],1,right,['2'],5,67,[-0.11290489],98,44,hard,minus,dotcolour,beta,,,9,19,V,R,
577,73,31,13,4,47,33,137,['c'],1,left,['2'],5,114,[0.1328997],98,47,medium,minus,dotcolour,beta,,,9,19,V,R,
578,74,32,13,4,53,27,22,['n'],0,left,['2'],5,166,[-0.04738397],41,53,easy,minus,dotcolour,beta,,,9,19,V,R,
579,75,33,13,4,44,36,264,['c'],1,left,['2'],5,302,[0.10655709],84,44,hard,minus,dotcolour,beta,,,9,19,V,R,
580,76,34,13,4,33,47,27,['n'],1,right,['2'],5,427,[-0.05884823],52,47,medium,minus,dotcolour,beta,,,9,19,V,R,
581,77,35,13,4,33,47,265,['c'],0,right,['2'],5,184,[0.16168582],99,47,medium,minus,dotcolour,beta,,,9,19,V,R,
582,78,36,13,4,36,44,113,['c'],0,right,['2'],5,363,[0.13281137],91,44,hard,minus,dotcolour,beta,,,9,19,V,R,
583,79,37,13,4,44,36,232,['n'],0,left,['3'],4,604,[-0.01858703],30,44,hard,minus,dotcolour,beta,,,9,19,V,R,
584,80,38,13,4,53,27,348,['n'],0,left,['2'],5,199,[-0.08403211],76,53,easy,minus,dotcolour,beta,,,9,19,V,R,
585,81,39,13,4,36,44,95,['c'],0,right,['2'],5,192,[0.08931546],80,44,hard,minus,dotcolour,beta,,,9,19,V,R,
586,82,40,13,4,27,53,41,['n'],1,right,['2'],5,106,[-0.0403002],30,53,easy,minus,dotcolour,beta,,,9,19,V,R,
587,83,41,13,4,53,27,47,['c'],1,left,['2'],5,206,[0.11356731],91,53,easy,minus,dotcolour,beta,,,9,19,V,R,
588,84,0,14,4,33,47,1867,['n'],1,right,['9'],2,454,[-0.09273005],73,47,medium,minus,dotcolour,beta,,,9,19,V,R,
589,85,1,14,4,47,33,67,['c'],1,left,['2'],5,197,[0.1509512],98,47,medium,minus,dotcolour,beta,,,9,19,V,R,
590,86,2,14,4,27,53,3015,['n'],1,right,['2'],5,253,[-0.14001539],95,53,easy,minus,dotcolour,beta,,,9,19,V,R,
591,87,3,14,4,44,36,548,['n'],0,left,['2'],5,191,[-0.12069344],94,44,hard,minus,dotcolour,beta,,,9,19,V,R,
592,88,4,14,4,33,47,382,['n'],1,right,['2'],5,249,[-0.13354259],94,47,medium,minus,dotcolour,beta,,,9,19,V,R,
593,89,5,14,4,53,27,383,['n'],0,left,['2'],5,289,[-0.07356676],65,53,easy,minus,dotcolour,beta,,,9,19,V,R,
594,90,6,14,4,53,27,632,['c'],1,left,['2'],5,149,[0.1507137],99,53,easy,minus,dotcolour,beta,,,9,19,V,R,
595,91,7,14,4,33,47,599,['n'],1,right,['2'],5,184,[-0.04268228],37,47,medium,minus,dotcolour,beta,,,9,19,V,R,
596,92,8,14,4,33,47,584,['n'],1,right,['2'],5,139,[-0.09072048],85,47,medium,minus,dotcolour,beta,,,9,19,V,R,
597,93,9,14,4,36,44,484,['n'],1,right,['2'],5,172,[-0.0732027],68,44,hard,minus,dotcolour,beta,,,9,19,V,R,
598,94,10,14,4,27,53,766,['n'],1,right,['2'],5,135,[-0.12697117],97,53,easy,minus,dotcolour,beta,,,9,19,V,R,
599,95,11,14,4,53,27,680,['c'],1,left,['2'],5,104,[0.12225184],98,53,easy,minus,dotcolour,beta,,,9,19,V,R,
600,96,12,14,4,36,44,565,['n'],1,right,['2'],5,222,[-0.06595572],60,44,hard,minus,dotcolour,beta,,,9,19,V,R,
601,97,13,14,4,44,36,248,['n'],0,left,['2'],5,117,[-0.08613185],83,44,hard,minus,dotcolour,beta,,,9,19,V,R,
602,98,14,14,4,47,33,122,['n'],0,left,['2'],5,33,[-0.06744409],76,47,medium,minus,dotcolour,beta,,,9,19,V,R,
603,99,15,14,4,36,44,250,['n'],1,right,['2'],5,127,[-0.08766177],84,44,hard,minus,dotcolour,beta,,,9,19,V,R,
604,100,16,14,4,53,27,300,['n'],0,left,['2'],5,167,[-0.07780382],73,53,easy,minus,dotcolour,beta,,,9,19,V,R,
605,101,17,14,4,47,33,414,['n'],0,left,['2'],5,753,[-0.11844403],79,47,medium,minus,dotcolour,beta,,,9,19,V,R,
606,102,18,14,4,47,33,131,['c'],1,left,['2'],5,43,[0.09634316],97,47,medium,minus,dotcolour,beta,,,9,19,V,R,
607,103,19,14,4,27,53,17,['n'],1,right,['2'],5,67,[-0.06395561],64,53,easy,minus,dotcolour,beta,,,9,19,V,R,
608,104,20,14,4,27,53,249,['c'],0,right,['2'],5,80,[0.10401339],96,53,easy,minus,dotcolour,beta,,,9,19,V,R,
609,105,21,14,4,27,53,248,['n'],1,right,['2'],5,84,[-0.13753363],99,53,easy,minus,dotcolour,beta,,,9,19,V,R,
610,106,22,14,4,36,44,482,['n'],1,right,['2'],5,94,[-0.07307032],74,44,hard,minus,dotcolour,beta,,,9,19,V,R,
611,107,23,14,4,47,33,332,['c'],1,left,['2'],5,47,[0.05927054],58,47,medium,minus,dotcolour,beta,,,9,19,V,R,
612,108,24,14,4,33,47,232,['n'],1,right,['2'],5,76,[-0.11243694],98,47,medium,minus,dotcolour,beta,,,9,19,V,R,
613,109,25,14,4,44,36,499,['c'],1,left,['2'],5,54,[0.06353124],65,44,hard,minus,dotcolour,beta,,,9,19,V,R,
614,110,26,14,4,36,44,1565,['n'],1,right,['2'],5,110,[-0.0593866],55,44,hard,minus,dotcolour,beta,,,9,19,V,R,
615,111,27,14,4,27,53,583,['n'],1,right,['2'],5,108,[-0.08864727],86,53,easy,minus,dotcolour,beta,,,9,19,V,R,
616,112,28,14,4,44,36,730,['c'],1,left,['2'],5,92,[0.06596084],65,44,hard,minus,dotcolour,beta,,,9,19,V,R,
617,113,29,14,4,47,33,548,['n'],0,left,['2'],5,131,[-0.03933907],31,47,medium,minus,dotcolour,beta,,,9,19,V,R,
618,114,30,14,4,53,27,616,['c'],1,left,['2'],5,79,[0.04449737],33,53,easy,minus,dotcolour,beta,,,9,19,V,R,
619,115,31,14,4,47,33,699,['n'],0,left,['2'],5,120,[-0.12038468],97,47,medium,minus,dotcolour,beta,,,9,19,V,R,
620,116,32,14,4,36,44,682,['n'],1,right,['2'],5,138,[-0.05864204],54,44,hard,minus,dotcolour,beta,,,9,19,V,R,
621,117,33,14,4,33,47,365,['n'],1,right,['2'],5,159,[-0.05062401],44,47,medium,minus,dotcolour,beta,,,9,19,V,R,
622,118,34,14,4,33,47,315,['n'],1,right,['2'],5,85,[-0.08145146],83,47,medium,minus,dotcolour,beta,,,9,19,V,R,
623,119,35,14,4,36,44,684,['n'],1,right,['2'],5,407,[-0.06227952],55,44,hard,minus,dotcolour,beta,,,9,19,V,R,
624,120,36,14,4,44,36,983,['n'],0,left,['2'],5,209,[-0.03791689],33,44,hard,minus,dotcolour,beta,,,9,19,V,R,
625,121,37,14,4,53,27,865,['n'],0,left,['2'],5,151,[0.01133385],4,53,easy,minus,dotcolour,beta,,,9,19,V,R,
626,122,38,14,4,27,53,499,['n'],1,right,['2'],5,118,[-0.09369506],88,53,easy,minus,dotcolour,beta,,,9,19,V,R,
627,123,39,14,4,44,36,514,['n'],0,left,['2'],5,134,[-0.0349448],27,44,hard,minus,dotcolour,beta,,,9,19,V,R,
628,124,40,14,4,53,27,665,['c'],1,left,['2'],5,95,[0.07309787],74,53,easy,minus,dotcolour,beta,,,9,19,V,R,
629,125,41,14,4,44,36,483,['n'],0,left,['2'],5,129,[-0.08312492],80,44,hard,minus,dotcolour,beta,,,9,19,V,R,
630,0,0,15,5,27,53,883,['n'],1,right,['3'],4,106,[-0.11417562],100,53,easy,plus,dotcolour,beta,,,9,19,V,R,
631,1,1,15,5,33,47,832,['n'],1,right,['2'],5,149,[-0.12054586],100,47,medium,plus,dotcolour,beta,,,9,19,V,R,
632,2,2,15,5,44,36,613,['c'],1,left,['2'],5,167,[0.082943],100,44,hard,plus,dotcolour,beta,,,9,19,V,R,
633,3,3,15,5,47,33,299,['n'],0,left,['2'],5,102,[-0.05431832],100,47,medium,plus,dotcolour,beta,,,9,19,V,R,
634,4,4,15,5,44,36,749,['n'],0,left,['2'],5,174,[-0.01725275],96,44,hard,plus,dotcolour,beta,,,9,19,V,R,
635,5,5,15,5,47,33,349,['c'],1,left,['2'],5,154,[0.15430384],100,47,medium,plus,dotcolour,beta,,,9,19,V,R,
636,6,6,15,5,44,36,315,['n'],0,left,['2'],5,184,[-0.01382436],95,44,hard,plus,dotcolour,beta,,,9,19,V,R,
637,7,7,15,5,33,47,1165,['c'],0,right,['2'],5,251,[0.06938413],99,47,medium,plus,dotcolour,beta,,,9,19,V,R,
638,8,8,15,5,53,27,350,['n'],0,left,['2'],5,140,[-0.04726593],99,53,easy,plus,dotcolour,beta,,,9,19,V,R,
639,9,9,15,5,44,36,282,['c'],1,left,['2'],5,204,[0.05633385],99,44,hard,plus,dotcolour,beta,,,9,19,V,R,
640,10,10,15,5,36,44,281,['n'],1,right,['2'],5,122,[-0.14245365],100,44,hard,plus,dotcolour,beta,,,9,19,V,R,
641,11,11,15,5,36,44,549,['c'],0,right,['2'],5,177,[0.05190401],99,44,hard,plus,dotcolour,beta,,,9,19,V,R,
642,12,12,15,5,53,27,415,['n'],0,left,['2'],5,170,[-0.13842347],100,53,easy,plus,dotcolour,beta,,,9,19,V,R,
643,13,13,15,5,36,44,783,['c'],0,right,['2'],5,134,[0.07567533],100,44,hard,plus,dotcolour,beta,,,9,19,V,R,
644,14,14,15,5,44,36,299,['n'],0,left,['2'],5,229,[-0.03424297],97,44,hard,plus,dotcolour,beta,,,9,19,V,R,
645,15,15,15,5,27,53,516,['n'],1,right,['2'],5,129,[-0.0759497],100,53,easy,plus,dotcolour,beta,,,9,19,V,R,
646,16,16,15,5,47,33,332,['n'],0,left,['2'],5,127,[-0.05762492],100,47,medium,plus,dotcolour,beta,,,9,19,V,R,
647,17,17,15,5,36,44,616,['n'],1,right,['2'],5,131,[-0.02688177],98,44,hard,plus,dotcolour,beta,,,9,19,V,R,
648,18,18,15,5,53,27,483,['c'],1,left,['2'],5,172,[0.05083091],99,53,easy,plus,dotcolour,beta,,,9,19,V,R,
649,19,19,15,5,36,44,599,['n'],1,right,['2'],5,317,[-0.06489368],98,44,hard,plus,dotcolour,beta,,,9,19,V,R,
650,20,20,15,5,33,47,565,['n'],1,right,['2'],5,154,[-0.09209642],100,47,medium,plus,dotcolour,beta,,,9,19,V,R,
651,21,21,15,5,47,33,1198,['n'],0,left,['2'],5,182,[-0.08116776],100,47,medium,plus,dotcolour,beta,,,9,19,V,R,
652,22,22,15,5,53,27,599,['c'],1,left,['2'],5,160,[0.12033298],100,53,easy,plus,dotcolour,beta,,,9,19,V,R,
653,23,23,15,5,47,33,231,['n'],0,left,['2'],5,113,[-0.10501006],100,47,medium,plus,dotcolour,beta,,,9,19,V,R,
654,24,24,15,5,27,53,349,['n'],1,right,['2'],5,120,[-0.10795782],100,53,easy,plus,dotcolour,beta,,,9,19,V,R,
655,25,25,15,5,47,33,248,['c'],1,left,['2'],5,194,[0.10576357],100,47,medium,plus,dotcolour,beta,,,9,19,V,R,
656,26,26,15,5,27,53,282,['n'],1,right,['2'],5,160,[-0.07042969],100,53,easy,plus,dotcolour,beta,,,9,19,V,R,
657,27,27,15,5,53,27,698,['c'],1,left,['2'],5,247,[0.00556988],90,53,easy,plus,dotcolour,beta,,,9,19,V,R,
658,28,28,15,5,33,47,682,['n'],1,right,['2'],5,154,[-0.09660382],100,47,medium,plus,dotcolour,beta,,,9,19,V,R,
659,29,29,15,5,27,53,715,['n'],1,right,['2'],5,121,[-0.11469415],100,53,easy,plus,dotcolour,beta,,,9,19,V,R,
660,30,30,15,5,33,47,449,['n'],1,right,['2'],5,131,[-0.05746458],100,47,medium,plus,dotcolour,beta,,,9,19,V,R,
661,31,31,15,5,27,53,649,['n'],1,right,['2'],5,109,[-0.12983136],100,53,easy,plus,dotcolour,beta,,,9,19,V,R,
662,32,32,15,5,36,44,717,['c'],0,right,['2'],5,125,[0.11597635],100,44,hard,plus,dotcolour,beta,,,9,19,V,R,
663,33,33,15,5,44,36,565,['n'],0,left,['2'],5,186,[-0.0904186],100,44,hard,plus,dotcolour,beta,,,9,19,V,R,
664,34,34,15,5,33,47,548,['n'],1,right,['2'],5,142,[-0.07844784],100,47,medium,plus,dotcolour,beta,,,9,19,V,R,
665,35,35,15,5,53,27,632,['c'],1,left,['2'],5,232,[0.09465269],100,53,easy,plus,dotcolour,beta,,,9,19,V,R,
666,36,36,15,5,44,36,580,['n'],0,left,['2'],5,121,[-0.04872376],100,44,hard,plus,dotcolour,beta,,,9,19,V,R,
667,37,37,15,5,47,33,782,['c'],1,left,['2'],5,110,[0.13214665],100,47,medium,plus,dotcolour,beta,,,9,19,V,R,
668,38,38,15,5,27,53,665,['n'],1,right,['2'],5,136,[-0.07029444],100,53,easy,plus,dotcolour,beta,,,9,19,V,R,
669,39,39,15,5,53,27,666,['c'],1,left,['2'],5,177,[0.06137407],99,53,easy,plus,dotcolour,beta,,,9,19,V,R,
670,40,40,15,5,36,44,829,['n'],1,right,['2'],5,257,[-0.0867528],99,44,hard,plus,dotcolour,beta,,,9,19,V,R,
671,41,41,15,5,33,47,982,['n'],1,right,['2'],5,144,[-0.12122176],100,47,medium,plus,dotcolour,beta,,,9,19,V,R,
672,42,0,16,5,36,44,616,['n'],1,right,['2'],5,114,[-0.11364427],100,44,hard,plus,dotcolour,beta,,,9,19,V,R,
673,43,1,16,5,27,53,551,['n'],1,right,['2'],5,193,[-0.08939045],100,53,easy,plus,dotcolour,beta,,,9,19,V,R,
674,44,2,16,5,27,53,598,['n'],1,right,['2'],5,138,[-0.08793432],100,53,easy,plus,dotcolour,beta,,,9,19,V,R,
675,45,3,16,5,33,47,865,['n'],1,right,['2'],5,196,[0.00704482],88,47,medium,plus,dotcolour,beta,,,9,19,V,R,
676,46,4,16,5,53,27,983,['n'],0,left,['2'],5,134,[-0.12271666],100,53,easy,plus,dotcolour,beta,,,9,19,V,R,
677,47,5,16,5,47,33,731,['c'],1,left,['2'],5,156,[0.11066101],100,47,medium,plus,dotcolour,beta,,,9,19,V,R,
678,48,6,16,5,44,36,298,['n'],0,left,['2'],5,227,[0.01925378],80,44,hard,plus,dotcolour,beta,,,9,19,V,R,
679,49,7,16,5,33,47,1065,['c'],0,right,['2'],5,145,[0.06478208],100,47,medium,plus,dotcolour,beta,,,9,19,V,R,
680,50,8,16,5,47,33,449,['n'],0,left,['2'],5,138,[-0.06376696],100,47,medium,plus,dotcolour,beta,,,9,19,V,R,
681,51,9,16,5,53,27,897,['c'],1,left,['2'],5,129,[0.04470451],99,53,easy,plus,dotcolour,beta,,,9,19,V,R,
682,52,10,16,5,47,33,548,['n'],0,left,['2'],5,199,[-0.02868224],97,47,medium,plus,dotcolour,beta,,,9,19,V,R,
683,53,11,16,5,27,53,947,['n'],1,right,['2'],5,202,[-0.11918534],100,53,easy,plus,dotcolour,beta,,,9,19,V,R,
684,54,12,16,5,33,47,298,['c'],0,right,['2'],5,200,[0.08229243],100,47,medium,plus,dotcolour,beta,,,9,19,V,R,
685,55,13,16,5,36,44,18,['n'],1,right,['2'],5,274,[-0.00777792],90,44,hard,plus,dotcolour,beta,,,9,19,V,R,
686,56,14,16,5,44,36,216,['n'],0,left,['2'],5,167,[-0.0536111],99,44,hard,plus,dotcolour,beta,,,9,19,V,R,
687,57,15,16,5,44,36,267,['c'],1,left,['2'],5,383,[0.09915272],99,44,hard,plus,dotcolour,beta,,,9,19,V,R,
688,58,16,16,5,27,53,96,['n'],1,right,['2'],5,337,[-0.17658506],100,53,easy,plus,dotcolour,beta,,,9,19,V,R,
689,59,17,16,5,53,27,366,['n'],0,left,['2'],5,350,[0.0084969],81,53,easy,plus,dotcolour,beta,,,9,19,V,R,
690,60,18,16,5,33,47,415,['n'],1,right,['2'],5,280,[-0.04793239],97,47,medium,plus,dotcolour,beta,,,9,19,V,R,
691,61,19,16,5,44,36,583,['n'],0,left,['2'],5,143,[-0.00288963],94,44,hard,plus,dotcolour,beta,,,9,19,V,R,
692,62,20,16,5,27,53,632,['n'],1,right,['2'],5,209,[-0.14349534],100,53,easy,plus,dotcolour,beta,,,9,19,V,R,
693,63,21,16,5,33,47,129,['n'],1,right,['2'],5,98,[-0.11908966],100,47,medium,plus,dotcolour,beta,,,9,19,V,R,
694,64,22,16,5,27,53,189,['n'],1,right,['2'],5,119,[-0.06223333],100,53,easy,plus,dotcolour,beta,,,9,19,V,R,
695,65,23,16,5,44,36,156,['c'],1,left,['2'],5,203,[0.06211825],99,44,hard,plus,dotcolour,beta,,,9,19,V,R,
696,66,24,16,5,47,33,46,['n'],0,left,['2'],5,309,[0.02013942],76,47,medium,plus,dotcolour,beta,,,9,19,V,R,
697,67,25,16,5,47,33,82,['n'],0,left,['2'],5,97,[-0.11111667],100,47,medium,plus,dotcolour,beta,,,9,19,V,R,
698,68,26,16,5,47,33,32,['c'],1,left,['2'],5,87,[0.04635592],100,47,medium,plus,dotcolour,beta,,,9,19,V,R,
699,69,27,16,5,53,27,282,['n'],0,left,['2'],5,161,[-0.08286436],100,53,easy,plus,dotcolour,beta,,,9,19,V,R,
700,70,28,16,5,36,44,1033,['n'],1,right,['2'],5,146,[-0.11335817],100,44,hard,plus,dotcolour,beta,,,9,19,V,R,
701,71,29,16,5,36,44,267,['n'],1,right,['2'],5,163,[-0.10697692],100,44,hard,plus,dotcolour,beta,,,9,19,V,R,
702,72,30,16,5,36,44,110,['n'],1,right,['2'],5,94,[-0.1116274],100,44,hard,plus,dotcolour,beta,,,9,19,V,R,
703,73,31,16,5,53,27,267,['c'],1,left,['2'],5,168,[0.10936124],100,53,easy,plus,dotcolour,beta,,,9,19,V,R,
704,74,32,16,5,47,33,17,['n'],0,left,['2'],5,35,[-0.05457187],100,47,medium,plus,dotcolour,beta,,,9,19,V,R,
705,75,33,16,5,36,44,1730,['c'],0,right,['2'],5,222,[0.01619781],94,44,hard,plus,dotcolour,beta,,,9,19,V,R,
706,76,34,16,5,53,27,265,['n'],0,left,['2'],5,204,[-0.01728164],95,53,easy,plus,dotcolour,beta,,,9,19,V,R,
707,77,35,16,5,33,47,298,['c'],0,right,['2'],5,209,[0.12112744],100,47,medium,plus,dotcolour,beta,,,9,19,V,R,
708,78,36,16,5,27,53,247,['n'],1,right,['2'],5,391,[-0.15469183],100,53,easy,plus,dotcolour,beta,,,9,19,V,R,
709,79,37,16,5,53,27,281,['n'],0,left,['2'],5,213,[-0.07363742],99,53,easy,plus,dotcolour,beta,,,9,19,V,R,
710,80,38,16,5,33,47,231,['c'],0,right,['2'],5,125,[0.1018387],100,47,medium,plus,dotcolour,beta,,,9,19,V,R,
711,81,39,16,5,44,36,266,['n'],0,left,['2'],5,110,[-0.06732842],100,44,hard,plus,dotcolour,beta,,,9,19,V,R,
712,82,40,16,5,36,44,74,['c'],0,right,['2'],5,2,[0.07155847],100,44,hard,plus,dotcolour,beta,,,9,19,V,R,
713,83,41,16,5,44,36,140,['n'],0,left,['9'],2,172,[-0.01664568],96,44,hard,plus,dotcolour,beta,,,9,19,V,R,
714,84,0,17,5,27,53,1717,['n'],1,right,['2'],5,265,[-0.12801135],100,53,easy,plus,dotcolour,beta,,,9,19,V,R,
715,85,1,17,5,47,33,798,['c'],1,left,['2'],5,231,[0.1103896],100,47,medium,plus,dotcolour,beta,,,9,19,V,R,
716,86,2,17,5,47,33,365,['c'],1,left,['2'],5,169,[0.143774],100,47,medium,plus,dotcolour,beta,,,9,19,V,R,
717,87,3,17,5,27,53,84,['n'],1,right,['2'],5,291,[-0.10029426],99,53,easy,plus,dotcolour,beta,,,9,19,V,R,
718,88,4,17,5,44,36,200,['c'],1,left,['2'],5,417,[0.09765772],99,44,hard,plus,dotcolour,beta,,,9,19,V,R,
719,89,5,17,5,44,36,265,['c'],1,left,['2'],5,270,[0.16326594],100,44,hard,plus,dotcolour,beta,,,9,19,V,R,
720,90,6,17,5,27,53,331,['c'],0,right,['2'],5,279,[0.08256787],99,53,easy,plus,dotcolour,beta,,,9,19,V,R,
721,91,7,17,5,53,27,431,['n'],0,left,['2'],5,195,[-0.11293164],100,53,easy,plus,dotcolour,beta,,,9,19,V,R,
722,92,8,17,5,44,36,497,['c'],1,left,['2'],5,297,[0.10175807],99,44,hard,plus,dotcolour,beta,,,9,19,V,R,
723,93,9,17,5,47,33,784,['n'],0,left,['2'],5,559,[-0.01103967],83,47,medium,plus,dotcolour,beta,,,9,19,V,R,
724,94,10,17,5,44,36,749,['c'],1,left,['2'],5,1012,[0.02952905],82,44,hard,plus,dotcolour,beta,,,9,19,V,R,
725,95,11,17,5,53,27,832,['c'],1,left,['2'],5,179,[0.11186821],100,53,easy,plus,dotcolour,beta,,,9,19,V,R,
726,96,12,17,5,33,47,598,['n'],1,right,['2'],5,221,[-0.0688314],99,47,medium,plus,dotcolour,beta,,,9,19,V,R,
727,97,13,17,5,36,44,566,['n'],1,right,['2'],5,175,[-0.09709172],100,44,hard,plus,dotcolour,beta,,,9,19,V,R,
728,98,14,17,5,33,47,850,['n'],1,right,['2'],5,134,[-0.09260312],100,47,medium,plus,dotcolour,beta,,,9,19,V,R,
729,99,15,17,5,53,27,580,['c'],1,left,['2'],5,147,[0.12650618],100,53,easy,plus,dotcolour,beta,,,9,19,V,R,
730,100,16,17,5,36,44,1232,['c'],0,right,['2'],5,405,[0.06296131],97,44,hard,plus,dotcolour,beta,,,9,19,V,R,
731,101,17,17,5,33,47,631,['n'],1,right,['2'],5,398,[-0.14647177],100,47,medium,plus,dotcolour,beta,,,9,19,V,R,
732,102,18,17,5,47,33,732,['n'],0,left,['2'],5,137,[-0.1274621],100,47,medium,plus,dotcolour,beta,,,9,19,V,R,
733,103,19,17,5,27,53,565,['n'],1,right,['2'],5,110,[-0.14729005],100,53,easy,plus,dotcolour,beta,,,9,19,V,R,
734,104,20,17,5,36,44,614,['n'],1,right,['2'],5,106,[-0.06377059],100,44,hard,plus,dotcolour,beta,,,9,19,V,R,
735,105,21,17,5,47,33,731,['c'],1,left,['2'],5,194,[0.1135567],100,47,medium,plus,dotcolour,beta,,,9,19,V,R,
736,106,22,17,5,44,36,314,['n'],0,left,['2'],5,135,[-0.09365449],100,44,hard,plus,dotcolour,beta,,,9,19,V,R,
737,107,23,17,5,53,27,1032,['c'],1,left,['2'],5,185,[0.06980353],99,53,easy,plus,dotcolour,beta,,,9,19,V,R,
738,108,24,17,5,27,53,698,['n'],1,right,['2'],5,215,[-0.13952723],100,53,easy,plus,dotcolour,beta,,,9,19,V,R,
739,109,25,17,5,53,27,564,['n'],0,left,['2'],5,121,[-0.02351225],98,53,easy,plus,dotcolour,beta,,,9,19,V,R,
740,110,26,17,5,47,33,732,['c'],1,left,['2'],5,168,[-0.03507784],71,47,medium,plus,dotcolour,beta,,,9,19,V,R,
741,111,27,17,5,33,47,564,['n'],1,right,['2'],5,164,[-0.05787095],99,47,medium,plus,dotcolour,beta,,,9,19,V,R,
742,112,28,17,5,44,36,932,['n'],0,left,['2'],5,162,[-0.05840125],99,44,hard,plus,dotcolour,beta,,,9,19,V,R,
743,113,29,17,5,47,33,714,['c'],1,left,['2'],5,136,[0.09625084],100,47,medium,plus,dotcolour,beta,,,9,19,V,R,
744,114,30,17,5,53,27,831,['n'],0,left,['2'],5,186,[-0.04768359],99,53,easy,plus,dotcolour,beta,,,9,19,V,R,
745,115,31,17,5,33,47,699,['n'],1,right,['2'],5,144,[-0.08588392],100,47,medium,plus,dotcolour,beta,,,9,19,V,R,
746,116,32,17,5,44,36,798,['n'],0,left,['2'],5,148,[-0.1485386],100,44,hard,plus,dotcolour,beta,,,9,19,V,R,
747,117,33,17,5,27,53,581,['c'],0,right,['2'],5,191,[0.04030658],98,53,easy,plus,dotcolour,beta,,,9,19,V,R,
748,118,34,17,5,33,47,581,['n'],1,right,['2'],5,193,[-0.09427344],100,47,medium,plus,dotcolour,beta,,,9,19,V,R,
749,119,35,17,5,27,53,532,['n'],1,right,['2'],5,205,[-0.03848044],98,53,easy,plus,dotcolour,beta,,,9,19,V,R,
750,120,36,17,5,36,44,266,['n'],1,right,['2'],5,163,[-0.06899968],100,44,hard,plus,dotcolour,beta,,,9,19,V,R,
751,121,37,17,5,36,44,350,['n'],1,right,['2'],5,184,[-0.16137199],100,44,hard,plus,dotcolour,beta,,,9,19,V,R,
752,122,38,17,5,33,47,532,['n'],1,right,['2'],5,141,[-0.18678513],100,47,medium,plus,dotcolour,beta,,,9,19,V,R,
753,123,39,17,5,36,44,581,['n'],1,right,['2'],5,202,[-0.13673894],100,44,hard,plus,dotcolour,beta,,,9,19,V,R,
754,124,40,17,5,36,44,300,['n'],1,right,['2'],5,183,[-0.0689353],99,44,hard,plus,dotcolour,beta,,,9,19,V,R,
755,125,41,17,5,53,27,798,['n'],0,left,['2'],5,137,[-0.12443713],100,53,easy,plus,dotcolour,beta,,,9,19,V,R,
,,,,,,,,,,,,,,,,,,,,,1,nooit 50 procent kans,9,19,V,R,
,,,,,,,,,,,,,,,,,,,,,2,['h'],9,19,V,R,
,,,,,,,,,,,,,,,,,,,,,3,['g'],9,19,V,R,
,,,,,,,,,,,,,,,,,,,,,5,['5'],9,19,V,R,
