trial,withinphasetrial,withinblocktrial,block,phase,dotsLeft,dotsRight,rt,resp,cor,cresp,conf_press,cj,RTconf,ev,fb,diff,difflevel,condition,task,manip,questionID,questionResp,sub,age,gender,handedness,
0,0,0,0,0,53,27,1417,['c'],1,left,['9'],5,2205,[0.44527917],100,53,easy,plus,dotcolour,beta,,,30,19,M,R,
1,1,1,0,0,27,53,1284,['n'],1,right,['0'],6,1442,[-0.42234399],100,53,easy,plus,dotcolour,beta,,,30,19,M,R,
2,2,2,0,0,53,27,1233,['c'],1,left,['0'],6,879,[0.36211119],100,53,easy,plus,dotcolour,beta,,,30,19,M,R,
3,3,3,0,0,27,53,1167,['n'],1,right,['0'],6,1167,[-0.22545256],99,53,easy,plus,dotcolour,beta,,,30,19,M,R,
4,4,4,0,0,53,27,1150,['c'],1,left,['0'],6,459,[0.14195207],99,53,easy,plus,dotcolour,beta,,,30,19,M,R,
5,5,5,0,0,44,36,1167,['n'],0,left,['9'],5,723,[0.02776385],64,44,hard,plus,dotcolour,beta,,,30,19,M,R,
6,6,6,0,0,36,44,2067,['c'],0,right,['8'],4,829,[-0.14687689],14,44,hard,plus,dotcolour,beta,,,30,19,M,R,
7,7,7,0,0,33,47,3017,['n'],1,right,['0'],6,700,[-0.18464869],99,47,medium,plus,dotcolour,beta,,,30,19,M,R,
8,8,8,0,0,47,33,1650,['c'],1,left,['3'],3,1471,[0.28008609],99,47,medium,plus,dotcolour,beta,,,30,19,M,R,
9,9,9,0,0,27,53,1200,['n'],1,right,['9'],5,701,[-0.01548988],82,53,easy,plus,dotcolour,beta,,,30,19,M,R,
10,10,10,0,0,53,27,934,['c'],1,left,['0'],6,372,[0.06618702],97,53,easy,plus,dotcolour,beta,,,30,19,M,R,
11,11,11,0,0,33,47,1717,['n'],1,right,['8'],4,978,[-0.0963564],94,47,medium,plus,dotcolour,beta,,,30,19,M,R,
12,12,12,0,0,33,47,1067,['n'],1,right,['9'],5,417,[-0.13628259],100,47,medium,plus,dotcolour,beta,,,30,19,M,R,
13,13,13,0,0,44,36,1184,['c'],1,left,['2'],2,843,[0.21333288],99,44,hard,plus,dotcolour,beta,,,30,19,M,R,
14,14,14,0,0,53,27,1133,['c'],1,left,['0'],6,788,[0.36488302],100,53,easy,plus,dotcolour,beta,,,30,19,M,R,
15,15,15,0,0,53,27,1101,['c'],1,left,['0'],6,274,[0.01326076],91,53,easy,plus,dotcolour,beta,,,30,19,M,R,
16,16,16,0,0,27,53,950,['n'],1,right,['0'],6,650,[-0.43587448],100,53,easy,plus,dotcolour,beta,,,30,19,M,R,
17,17,17,0,0,44,36,1750,['c'],1,left,['9'],5,595,[0.16830221],99,44,hard,plus,dotcolour,beta,,,30,19,M,R,
18,18,18,0,0,36,44,1000,['n'],1,right,['9'],5,1125,[-0.29236145],100,44,hard,plus,dotcolour,beta,,,30,19,M,R,
19,19,19,0,0,47,33,1301,['c'],1,left,['9'],5,468,[0.22976002],100,47,medium,plus,dotcolour,beta,,,30,19,M,R,
20,20,20,0,0,27,53,1617,['n'],1,right,['9'],5,459,[-0.05350915],95,53,easy,plus,dotcolour,beta,,,30,19,M,R,
21,21,21,0,0,44,36,1350,['c'],1,left,['9'],5,475,[0.14766004],100,44,hard,plus,dotcolour,beta,,,30,19,M,R,
22,22,22,0,0,36,44,2267,['c'],0,right,['9'],5,438,[0.00175736],83,44,hard,plus,dotcolour,beta,,,30,19,M,R,
23,23,23,0,0,47,33,1268,['c'],1,left,['0'],6,555,[0.07715857],96,47,medium,plus,dotcolour,beta,,,30,19,M,R,
24,24,24,0,0,33,47,950,['n'],1,right,['8'],4,760,[-0.28880209],100,47,medium,plus,dotcolour,beta,,,30,19,M,R,
25,25,25,0,0,33,47,917,['n'],1,right,['8'],4,502,[-0.20979511],100,47,medium,plus,dotcolour,beta,,,30,19,M,R,
26,26,26,0,0,44,36,966,['c'],1,left,['9'],5,428,[-0.00172362],81,44,hard,plus,dotcolour,beta,,,30,19,M,R,
27,27,27,0,0,47,33,985,['n'],0,left,['8'],4,997,[0.0191685],66,47,medium,plus,dotcolour,beta,,,30,19,M,R,
28,28,28,0,0,36,44,1967,['n'],1,right,['0'],6,368,[-0.13728846],100,44,hard,plus,dotcolour,beta,,,30,19,M,R,
29,29,29,0,0,44,36,2100,['c'],1,left,['8'],4,559,[0.00382941],81,44,hard,plus,dotcolour,beta,,,30,19,M,R,
30,30,30,0,0,33,47,1217,['n'],1,right,['0'],6,290,[-0.10738362],100,47,medium,plus,dotcolour,beta,,,30,19,M,R,
31,31,31,0,0,47,33,1283,['c'],1,left,['8'],4,331,[0.10717177],99,47,medium,plus,dotcolour,beta,,,30,19,M,R,
32,32,32,0,0,36,44,1083,['n'],1,right,['8'],4,372,[-0.04451889],95,44,hard,plus,dotcolour,beta,,,30,19,M,R,
33,33,33,0,0,44,36,1433,['c'],1,left,['3'],3,404,[0.1326128],100,44,hard,plus,dotcolour,beta,,,30,19,M,R,
34,34,34,0,0,27,53,867,['n'],1,right,['0'],6,314,[-0.20716578],100,53,easy,plus,dotcolour,beta,,,30,19,M,R,
35,35,35,0,0,36,44,1850,['n'],1,right,['8'],4,397,[0.01613704],76,44,hard,plus,dotcolour,beta,,,30,19,M,R,
36,36,36,0,0,53,27,984,['c'],1,left,['0'],6,206,[0.09857271],100,53,easy,plus,dotcolour,beta,,,30,19,M,R,
37,37,37,0,0,47,33,2233,['c'],1,left,['8'],4,446,[0.0803296],97,47,medium,plus,dotcolour,beta,,,30,19,M,R,
38,38,38,0,0,47,33,1567,['c'],1,left,['8'],4,223,[0.08345667],100,47,medium,plus,dotcolour,beta,,,30,19,M,R,
39,39,39,0,0,27,53,1084,['n'],1,right,['0'],6,379,[-0.15544542],100,53,easy,plus,dotcolour,beta,,,30,19,M,R,
40,40,40,0,0,33,47,967,['n'],1,right,['0'],6,207,[-0.07906547],100,47,medium,plus,dotcolour,beta,,,30,19,M,R,
41,41,41,0,0,36,44,767,['n'],1,right,['0'],6,249,[-0.06651573],99,44,hard,plus,dotcolour,beta,,,30,19,M,R,
42,42,0,1,0,53,27,918,['c'],1,left,['0'],6,206,[0.15076607],100,53,easy,plus,dotcolour,beta,,,30,19,M,R,
43,43,1,1,0,47,33,1350,['c'],1,left,['8'],4,305,[0.06317512],98,47,medium,plus,dotcolour,beta,,,30,19,M,R,
44,44,2,1,0,47,33,967,['c'],1,left,['8'],4,344,[0.13939637],100,47,medium,plus,dotcolour,beta,,,30,19,M,R,
45,45,3,1,0,53,27,783,['c'],1,left,['0'],6,252,[0.01685171],93,53,easy,plus,dotcolour,beta,,,30,19,M,R,
46,46,4,1,0,44,36,1700,['n'],0,left,['8'],4,359,[-0.05875327],97,44,hard,plus,dotcolour,beta,,,30,19,M,R,
47,47,5,1,0,53,27,933,['c'],1,left,['0'],6,220,[0.1718919],100,53,easy,plus,dotcolour,beta,,,30,19,M,R,
48,48,6,1,0,53,27,849,['c'],1,left,['9'],5,404,[0.15890739],100,53,easy,plus,dotcolour,beta,,,30,19,M,R,
49,49,7,1,0,44,36,1668,['c'],1,left,['8'],4,169,[0.04737286],99,44,hard,plus,dotcolour,beta,,,30,19,M,R,
50,50,8,1,0,47,33,1201,['c'],1,left,['0'],6,227,[0.14911372],100,47,medium,plus,dotcolour,beta,,,30,19,M,R,
51,51,9,1,0,36,44,1201,['n'],1,right,['8'],4,1012,[-0.04512591],86,44,hard,plus,dotcolour,beta,,,30,19,M,R,
52,52,10,1,0,33,47,1067,['n'],1,right,['9'],5,602,[-0.10387333],98,47,medium,plus,dotcolour,beta,,,30,19,M,R,
53,53,11,1,0,47,33,1433,['c'],1,left,['0'],6,202,[0.08984187],100,47,medium,plus,dotcolour,beta,,,30,19,M,R,
54,54,12,1,0,33,47,3301,['n'],1,right,['8'],4,454,[-0.18455479],100,47,medium,plus,dotcolour,beta,,,30,19,M,R,
55,55,13,1,0,33,47,833,['n'],1,right,['0'],6,228,[-0.17762315],100,47,medium,plus,dotcolour,beta,,,30,19,M,R,
56,56,14,1,0,36,44,1783,['n'],1,right,['8'],4,292,[-0.18120095],100,44,hard,plus,dotcolour,beta,,,30,19,M,R,
57,57,15,1,0,27,53,966,['n'],1,right,['9'],5,388,[-0.00597753],86,53,easy,plus,dotcolour,beta,,,30,19,M,R,
58,58,16,1,0,53,27,1384,['c'],1,left,['0'],6,214,[0.02427046],96,53,easy,plus,dotcolour,beta,,,30,19,M,R,
59,59,17,1,0,44,36,1251,['c'],1,left,['0'],6,188,[0.06213708],99,44,hard,plus,dotcolour,beta,,,30,19,M,R,
60,60,18,1,0,36,44,1617,['n'],1,right,['8'],4,285,[-0.09482869],99,44,hard,plus,dotcolour,beta,,,30,19,M,R,
61,61,19,1,0,47,33,1051,['c'],1,left,['9'],5,201,[0.10090161],100,47,medium,plus,dotcolour,beta,,,30,19,M,R,
62,62,20,1,0,36,44,1100,['n'],1,right,['9'],5,959,[-0.07309536],91,44,hard,plus,dotcolour,beta,,,30,19,M,R,
63,63,21,1,0,27,53,1000,['n'],1,right,['0'],6,177,[-0.1763345],100,53,easy,plus,dotcolour,beta,,,30,19,M,R,
64,64,22,1,0,33,47,1116,['n'],1,right,['0'],6,262,[-0.14542227],100,47,medium,plus,dotcolour,beta,,,30,19,M,R,
65,65,23,1,0,33,47,1800,['n'],1,right,['3'],3,574,[-0.10167928],98,47,medium,plus,dotcolour,beta,,,30,19,M,R,
66,66,24,1,0,44,36,1833,['c'],1,left,['9'],5,414,[0.08807375],98,44,hard,plus,dotcolour,beta,,,30,19,M,R,
67,67,25,1,0,27,53,867,['n'],1,right,['9'],5,268,[-0.06954426],99,53,easy,plus,dotcolour,beta,,,30,19,M,R,
68,68,26,1,0,27,53,801,['n'],1,right,['0'],6,218,[-0.15449864],100,53,easy,plus,dotcolour,beta,,,30,19,M,R,
69,69,27,1,0,47,33,1434,['c'],1,left,['0'],6,226,[0.13791184],100,47,medium,plus,dotcolour,beta,,,30,19,M,R,
70,70,28,1,0,36,44,1366,['n'],1,right,['8'],4,267,[-0.04408105],97,44,hard,plus,dotcolour,beta,,,30,19,M,R,
71,71,29,1,0,44,36,1233,['c'],1,left,['0'],6,265,[0.02150671],94,44,hard,plus,dotcolour,beta,,,30,19,M,R,
72,72,30,1,0,33,47,1533,['c'],0,right,['9'],5,194,[0.05235812],99,47,medium,plus,dotcolour,beta,,,30,19,M,R,
73,73,31,1,0,47,33,1116,['c'],1,left,['0'],6,183,[0.21012422],100,47,medium,plus,dotcolour,beta,,,30,19,M,R,
74,74,32,1,0,27,53,884,['n'],1,right,['0'],6,221,[-0.11080985],100,53,easy,plus,dotcolour,beta,,,30,19,M,R,
75,75,33,1,0,36,44,1049,['n'],1,right,['9'],5,628,[-0.12443101],98,44,hard,plus,dotcolour,beta,,,30,19,M,R,
76,76,34,1,0,33,47,1283,['n'],1,right,['0'],6,328,[0.01261167],79,47,medium,plus,dotcolour,beta,,,30,19,M,R,
77,77,35,1,0,27,53,917,['n'],1,right,['8'],4,424,[-0.12390627],99,53,easy,plus,dotcolour,beta,,,30,19,M,R,
78,78,36,1,0,44,36,1583,['c'],1,left,['8'],4,560,[0.17392987],100,44,hard,plus,dotcolour,beta,,,30,19,M,R,
79,79,37,1,0,44,36,1784,['n'],0,left,['9'],5,340,[-0.09270614],99,44,hard,plus,dotcolour,beta,,,30,19,M,R,
80,80,38,1,0,36,44,1167,['n'],1,right,['8'],4,329,[-0.10565533],99,44,hard,plus,dotcolour,beta,,,30,19,M,R,
81,81,39,1,0,53,27,901,['c'],1,left,['0'],6,176,[0.06770268],99,53,easy,plus,dotcolour,beta,,,30,19,M,R,
82,82,40,1,0,53,27,1034,['c'],1,left,['0'],6,177,[0.08085791],100,53,easy,plus,dotcolour,beta,,,30,19,M,R,
83,83,41,1,0,27,53,733,['n'],1,right,['0'],6,222,[-0.11327112],100,53,easy,plus,dotcolour,beta,,,30,19,M,R,
84,84,0,2,0,44,36,1251,['c'],1,left,['9'],5,480,[0.05213781],94,44,hard,plus,dotcolour,beta,,,30,19,M,R,
85,85,1,2,0,44,36,1183,['c'],1,left,['9'],5,711,[0.13356911],98,44,hard,plus,dotcolour,beta,,,30,19,M,R,
86,86,2,2,0,27,53,750,['n'],1,right,['0'],6,189,[-0.14078179],100,53,easy,plus,dotcolour,beta,,,30,19,M,R,
87,87,3,2,0,47,33,1033,['c'],1,left,['0'],6,173,[0.13392924],100,47,medium,plus,dotcolour,beta,,,30,19,M,R,
88,88,4,2,0,27,53,733,['n'],1,right,['9'],5,234,[-0.07118627],99,53,easy,plus,dotcolour,beta,,,30,19,M,R,
89,89,5,2,0,36,44,1283,['c'],0,right,['0'],6,207,[0.03104396],97,44,hard,plus,dotcolour,beta,,,30,19,M,R,
90,90,6,2,0,36,44,1434,['n'],1,right,['8'],4,334,[-0.03011054],94,44,hard,plus,dotcolour,beta,,,30,19,M,R,
91,91,7,2,0,47,33,833,['c'],1,left,['0'],6,193,[0.134302],100,47,medium,plus,dotcolour,beta,,,30,19,M,R,
92,92,8,2,0,53,27,983,['c'],1,left,['0'],6,154,[0.06204692],100,53,easy,plus,dotcolour,beta,,,30,19,M,R,
93,93,9,2,0,33,47,1783,['n'],1,right,['8'],4,231,[-0.08366292],99,47,medium,plus,dotcolour,beta,,,30,19,M,R,
94,94,10,2,0,36,44,1001,['n'],1,right,['8'],4,919,[-0.14929689],98,44,hard,plus,dotcolour,beta,,,30,19,M,R,
95,95,11,2,0,33,47,1500,['n'],1,right,['9'],5,239,[-0.11077068],100,47,medium,plus,dotcolour,beta,,,30,19,M,R,
96,96,12,2,0,47,33,1083,['c'],1,left,['0'],6,539,[0.13605552],99,47,medium,plus,dotcolour,beta,,,30,19,M,R,
97,97,13,2,0,27,53,1549,['n'],1,right,['8'],4,432,[-0.26294159],100,53,easy,plus,dotcolour,beta,,,30,19,M,R,
98,98,14,2,0,44,36,951,['c'],1,left,['8'],4,290,[0.12888026],100,44,hard,plus,dotcolour,beta,,,30,19,M,R,
99,99,15,2,0,44,36,1317,['c'],1,left,['9'],5,211,[0.02783904],96,44,hard,plus,dotcolour,beta,,,30,19,M,R,
100,100,16,2,0,33,47,967,['n'],1,right,['0'],6,469,[-0.08934726],98,47,medium,plus,dotcolour,beta,,,30,19,M,R,
101,101,17,2,0,27,53,916,['n'],1,right,['0'],6,175,[-0.11704768],100,53,easy,plus,dotcolour,beta,,,30,19,M,R,
102,102,18,2,0,53,27,884,['c'],1,left,['0'],6,189,[0.11456048],100,53,easy,plus,dotcolour,beta,,,30,19,M,R,
103,103,19,2,0,36,44,1650,['n'],1,right,['8'],4,293,[-0.08697807],99,44,hard,plus,dotcolour,beta,,,30,19,M,R,
104,104,20,2,0,33,47,850,['n'],1,right,['9'],5,376,[-0.13574473],100,47,medium,plus,dotcolour,beta,,,30,19,M,R,
105,105,21,2,0,53,27,883,['c'],1,left,['0'],6,175,[0.09813896],100,53,easy,plus,dotcolour,beta,,,30,19,M,R,
106,106,22,2,0,27,53,683,['n'],1,right,['0'],6,221,[-0.08427257],100,53,easy,plus,dotcolour,beta,,,30,19,M,R,
107,107,23,2,0,53,27,800,['c'],1,left,['0'],6,182,[0.11085582],100,53,easy,plus,dotcolour,beta,,,30,19,M,R,
108,108,24,2,0,36,44,1433,['n'],1,right,['8'],4,647,[-0.05879638],93,44,hard,plus,dotcolour,beta,,,30,19,M,R,
109,109,25,2,0,33,47,1883,['n'],1,right,['3'],3,531,[-0.16029987],100,47,medium,plus,dotcolour,beta,,,30,19,M,R,
110,110,26,2,0,53,27,817,['c'],1,left,['0'],6,167,[0.12054306],100,53,easy,plus,dotcolour,beta,,,30,19,M,R,
111,111,27,2,0,33,47,984,['n'],1,right,['0'],6,217,[-0.15452354],100,47,medium,plus,dotcolour,beta,,,30,19,M,R,
112,112,28,2,0,47,33,949,['c'],1,left,['0'],6,109,[0.07305454],100,47,medium,plus,dotcolour,beta,,,30,19,M,R,
113,113,29,2,0,36,44,1566,['c'],0,right,['9'],5,211,[0.07853182],99,44,hard,plus,dotcolour,beta,,,30,19,M,R,
114,114,30,2,0,47,33,966,['c'],1,left,['0'],6,165,[0.08191034],100,47,medium,plus,dotcolour,beta,,,30,19,M,R,
115,115,31,2,0,44,36,1284,['c'],1,left,['0'],6,107,[0.09851913],100,44,hard,plus,dotcolour,beta,,,30,19,M,R,
116,116,32,2,0,27,53,785,['n'],1,right,['0'],6,465,[-0.11336057],99,53,easy,plus,dotcolour,beta,,,30,19,M,R,
117,117,33,2,0,53,27,900,['c'],1,left,['0'],6,228,[0.11606901],100,53,easy,plus,dotcolour,beta,,,30,19,M,R,
118,118,34,2,0,44,36,1700,['c'],1,left,['8'],4,416,[0.12735782],99,44,hard,plus,dotcolour,beta,,,30,19,M,R,
119,119,35,2,0,33,47,1001,['n'],1,right,['8'],4,248,[-0.09335878],100,47,medium,plus,dotcolour,beta,,,30,19,M,R,
120,120,36,2,0,27,53,1316,['n'],1,right,['9'],5,211,[-0.11982793],100,53,easy,plus,dotcolour,beta,,,30,19,M,R,
121,121,37,2,0,36,44,1000,['c'],0,right,['9'],5,292,[0.1165528],100,44,hard,plus,dotcolour,beta,,,30,19,M,R,
122,122,38,2,0,53,27,684,['c'],1,left,['0'],6,334,[0.14501516],100,53,easy,plus,dotcolour,beta,,,30,19,M,R,
123,123,39,2,0,44,36,1083,['n'],0,left,['3'],3,854,[0.09156669],33,44,hard,plus,dotcolour,beta,,,30,19,M,R,
124,124,40,2,0,47,33,717,['c'],1,left,['0'],6,177,[0.14218204],100,47,medium,plus,dotcolour,beta,,,30,19,M,R,
125,125,41,2,0,47,33,734,['c'],1,left,['0'],6,149,[0.11427948],100,47,medium,plus,dotcolour,beta,,,30,19,M,R,
126,0,0,3,1,27,53,768,['n'],1,right,['0'],6,193,[-0.09403656],83,53,easy,minus,dotcolour,beta,,,30,19,M,R,
127,1,1,3,1,53,27,783,['c'],1,left,['0'],6,378,[0.20587572],99,53,easy,minus,dotcolour,beta,,,30,19,M,R,
128,2,2,3,1,36,44,751,['n'],1,right,['0'],6,215,[-0.06628931],60,44,hard,minus,dotcolour,beta,,,30,19,M,R,
129,3,3,3,1,36,44,800,['n'],1,right,['0'],6,223,[-0.12628414],94,44,hard,minus,dotcolour,beta,,,30,19,M,R,
130,4,4,3,1,47,33,683,['c'],1,left,['0'],6,180,[0.16506456],99,47,medium,minus,dotcolour,beta,,,30,19,M,R,
131,5,5,3,1,27,53,583,['n'],1,right,['0'],6,198,[-0.02757105],24,53,easy,minus,dotcolour,beta,,,30,19,M,R,
132,6,6,3,1,47,33,900,['c'],1,left,['9'],5,788,[0.12388762],80,47,medium,minus,dotcolour,beta,,,30,19,M,R,
133,7,7,3,1,36,44,1367,['n'],1,right,['8'],4,263,[-0.05324838],48,44,hard,minus,dotcolour,beta,,,30,19,M,R,
134,8,8,3,1,47,33,666,['c'],1,left,['0'],6,203,[0.06969115],64,47,medium,minus,dotcolour,beta,,,30,19,M,R,
135,9,9,3,1,33,47,1150,['n'],1,right,['8'],4,406,[-0.21552818],99,47,medium,minus,dotcolour,beta,,,30,19,M,R,
136,10,10,3,1,27,53,700,['n'],1,right,['0'],6,266,[-0.09295808],79,53,easy,minus,dotcolour,beta,,,30,19,M,R,
137,11,11,3,1,44,36,1300,['c'],1,left,['9'],5,326,[0.08045748],69,44,hard,minus,dotcolour,beta,,,30,19,M,R,
138,12,12,3,1,27,53,835,['n'],1,right,['0'],6,232,[-0.16421677],98,53,easy,minus,dotcolour,beta,,,30,19,M,R,
139,13,13,3,1,44,36,984,['c'],1,left,['9'],5,321,[0.07172527],63,44,hard,minus,dotcolour,beta,,,30,19,M,R,
140,14,14,3,1,53,27,784,['c'],1,left,['0'],6,214,[0.13565111],96,53,easy,minus,dotcolour,beta,,,30,19,M,R,
141,15,15,3,1,44,36,1167,['c'],1,left,['0'],6,128,[0.09941801],90,44,hard,minus,dotcolour,beta,,,30,19,M,R,
142,16,16,3,1,33,47,716,['n'],1,right,['0'],6,223,[-0.10998198],89,47,medium,minus,dotcolour,beta,,,30,19,M,R,
143,17,17,3,1,47,33,817,['c'],1,left,['9'],5,510,[0.244417],99,47,medium,minus,dotcolour,beta,,,30,19,M,R,
144,18,18,3,1,47,33,700,['c'],1,left,['0'],6,359,[0.14042745],93,47,medium,minus,dotcolour,beta,,,30,19,M,R,
145,19,19,3,1,36,44,1100,['n'],1,right,['9'],5,246,[-0.04723676],43,44,hard,minus,dotcolour,beta,,,30,19,M,R,
146,20,20,3,1,27,53,867,['n'],1,right,['9'],5,675,[-0.2491432],99,53,easy,minus,dotcolour,beta,,,30,19,M,R,
147,21,21,3,1,47,33,1384,['c'],1,left,['0'],6,137,[0.06579582],62,47,medium,minus,dotcolour,beta,,,30,19,M,R,
148,22,22,3,1,44,36,717,['c'],1,left,['9'],5,505,[0.18700773],97,44,hard,minus,dotcolour,beta,,,30,19,M,R,
149,23,23,3,1,44,36,934,['n'],0,left,['8'],4,384,[-0.15573452],95,44,hard,minus,dotcolour,beta,,,30,19,M,R,
150,24,24,3,1,36,44,1084,['c'],0,right,['9'],5,215,[-0.01518532],6,44,hard,minus,dotcolour,beta,,,30,19,M,R,
151,25,25,3,1,33,47,1200,['c'],0,right,['0'],6,215,[-0.00043864],10,47,medium,minus,dotcolour,beta,,,30,19,M,R,
152,26,26,3,1,53,27,684,['c'],1,left,['0'],6,156,[0.11643283],94,53,easy,minus,dotcolour,beta,,,30,19,M,R,
153,27,27,3,1,27,53,767,['n'],1,right,['0'],6,233,[-0.10273367],85,53,easy,minus,dotcolour,beta,,,30,19,M,R,
154,28,28,3,1,33,47,1400,['c'],0,right,['8'],4,160,[0.06867195],64,47,medium,minus,dotcolour,beta,,,30,19,M,R,
155,29,29,3,1,27,53,984,['n'],1,right,['9'],5,356,[-0.15285628],95,53,easy,minus,dotcolour,beta,,,30,19,M,R,
156,30,30,3,1,33,47,984,['n'],1,right,['9'],5,279,[-0.1405418],95,47,medium,minus,dotcolour,beta,,,30,19,M,R,
157,31,31,3,1,53,27,667,['c'],1,left,['0'],6,146,[0.10899905],93,53,easy,minus,dotcolour,beta,,,30,19,M,R,
158,32,32,3,1,47,33,1034,['c'],1,left,['9'],5,484,[0.18908467],97,47,medium,minus,dotcolour,beta,,,30,19,M,R,
159,33,33,3,1,53,27,833,['c'],1,left,['0'],6,145,[0.05916862],54,53,easy,minus,dotcolour,beta,,,30,19,M,R,
160,34,34,3,1,36,44,899,['n'],1,right,['0'],6,185,[-0.03849379],33,44,hard,minus,dotcolour,beta,,,30,19,M,R,
161,35,35,3,1,33,47,901,['n'],1,right,['0'],6,127,[-0.07303147],71,47,medium,minus,dotcolour,beta,,,30,19,M,R,
162,36,36,3,1,44,36,1349,['c'],1,left,['8'],4,485,[0.04918336],46,44,hard,minus,dotcolour,beta,,,30,19,M,R,
163,37,37,3,1,53,27,1100,['c'],1,left,['9'],5,223,[0.07094927],64,53,easy,minus,dotcolour,beta,,,30,19,M,R,
164,38,38,3,1,53,27,866,['c'],1,left,['0'],6,164,[0.03423234],28,53,easy,minus,dotcolour,beta,,,30,19,M,R,
165,39,39,3,1,36,44,1050,['n'],1,right,['0'],6,252,[-0.12303857],92,44,hard,minus,dotcolour,beta,,,30,19,M,R,
166,40,40,3,1,33,47,1085,['n'],1,right,['0'],6,241,[0.01356445],7,47,medium,minus,dotcolour,beta,,,30,19,M,R,
167,41,41,3,1,44,36,1384,['n'],0,left,['0'],6,457,[-0.10619948],79,44,hard,minus,dotcolour,beta,,,30,19,M,R,
168,42,0,4,1,53,27,868,['c'],1,left,['0'],6,146,[0.11622814],95,53,easy,minus,dotcolour,beta,,,30,19,M,R,
169,43,1,4,1,27,53,633,['n'],1,right,['0'],6,524,[-0.14337124],90,53,easy,minus,dotcolour,beta,,,30,19,M,R,
170,44,2,4,1,27,53,750,['n'],1,right,['0'],6,194,[-0.08842191],79,53,easy,minus,dotcolour,beta,,,30,19,M,R,
171,45,3,4,1,44,36,1017,['c'],1,left,['0'],6,179,[0.0877338],80,44,hard,minus,dotcolour,beta,,,30,19,M,R,
172,46,4,4,1,27,53,751,['n'],1,right,['0'],6,223,[-0.08042612],72,53,easy,minus,dotcolour,beta,,,30,19,M,R,
173,47,5,4,1,53,27,733,['c'],1,left,['0'],6,121,[0.11869692],96,53,easy,minus,dotcolour,beta,,,30,19,M,R,
174,48,6,4,1,33,47,1000,['n'],1,right,['8'],4,334,[-0.13960498],93,47,medium,minus,dotcolour,beta,,,30,19,M,R,
175,49,7,4,1,44,36,833,['c'],1,left,['9'],5,186,[0.07868997],72,44,hard,minus,dotcolour,beta,,,30,19,M,R,
176,50,8,4,1,33,47,650,['n'],1,right,['9'],5,361,[-0.12659117],89,47,medium,minus,dotcolour,beta,,,30,19,M,R,
177,51,9,4,1,27,53,700,['n'],1,right,['8'],4,319,[-0.05567132],50,53,easy,minus,dotcolour,beta,,,30,19,M,R,
178,52,10,4,1,53,27,650,['c'],1,left,['0'],6,154,[0.16487122],99,53,easy,minus,dotcolour,beta,,,30,19,M,R,
179,53,11,4,1,36,44,750,['n'],1,right,['8'],4,360,[-0.10490105],81,44,hard,minus,dotcolour,beta,,,30,19,M,R,
180,54,12,4,1,53,27,1583,['c'],1,left,['0'],6,67,[0.05032094],41,53,easy,minus,dotcolour,beta,,,30,19,M,R,
181,55,13,4,1,36,44,1184,['n'],1,right,['8'],4,250,[-0.04179089],38,44,hard,minus,dotcolour,beta,,,30,19,M,R,
182,56,14,4,1,33,47,967,['n'],1,right,['8'],4,323,[-0.1497905],95,47,medium,minus,dotcolour,beta,,,30,19,M,R,
183,57,15,4,1,33,47,816,['n'],1,right,['9'],5,327,[-0.00058852],15,47,medium,minus,dotcolour,beta,,,30,19,M,R,
184,58,16,4,1,44,36,983,['c'],1,left,['9'],5,228,[-0.01747261],6,44,hard,minus,dotcolour,beta,,,30,19,M,R,
185,59,17,4,1,33,47,767,['n'],1,right,['9'],5,332,[-0.08530906],72,47,medium,minus,dotcolour,beta,,,30,19,M,R,
186,60,18,4,1,27,53,600,['n'],1,right,['0'],6,416,[-0.12661576],88,53,easy,minus,dotcolour,beta,,,30,19,M,R,
187,61,19,4,1,47,33,1117,['c'],1,left,['8'],4,164,[0.08567895],79,47,medium,minus,dotcolour,beta,,,30,19,M,R,
188,62,20,4,1,36,44,701,['n'],1,right,['9'],5,235,[-0.06862459],62,44,hard,minus,dotcolour,beta,,,30,19,M,R,
189,63,21,4,1,47,33,984,['c'],1,left,['9'],5,163,[0.11976887],95,47,medium,minus,dotcolour,beta,,,30,19,M,R,
190,64,22,4,1,33,47,1051,['n'],1,right,['0'],6,348,[-0.10947873],84,47,medium,minus,dotcolour,beta,,,30,19,M,R,
191,65,23,4,1,36,44,1000,['c'],0,right,['9'],5,200,[0.13495797],96,44,hard,minus,dotcolour,beta,,,30,19,M,R,
192,66,24,4,1,47,33,951,['n'],0,left,['9'],5,251,[-0.01619976],20,47,medium,minus,dotcolour,beta,,,30,19,M,R,
193,67,25,4,1,36,44,650,['n'],1,right,['0'],6,208,[-0.05220081],47,44,hard,minus,dotcolour,beta,,,30,19,M,R,
194,68,26,4,1,44,36,1168,['c'],1,left,['9'],5,282,[0.07978641],69,44,hard,minus,dotcolour,beta,,,30,19,M,R,
195,69,27,4,1,53,27,850,['c'],1,left,['9'],5,270,[-0.02317604],6,53,easy,minus,dotcolour,beta,,,30,19,M,R,
196,70,28,4,1,27,53,817,['n'],1,right,['0'],6,180,[-0.07859642],73,53,easy,minus,dotcolour,beta,,,30,19,M,R,
197,71,29,4,1,36,44,1750,['n'],1,right,['8'],4,265,[-0.06099873],55,44,hard,minus,dotcolour,beta,,,30,19,M,R,
198,72,30,4,1,27,53,1217,['n'],1,right,['0'],6,303,[-0.13003308],92,53,easy,minus,dotcolour,beta,,,30,19,M,R,
199,73,31,4,1,44,36,1200,['c'],1,left,['0'],6,172,[0.06937986],65,44,hard,minus,dotcolour,beta,,,30,19,M,R,
200,74,32,4,1,44,36,733,['n'],0,left,['0'],6,233,[-0.00754283],14,44,hard,minus,dotcolour,beta,,,30,19,M,R,
201,75,33,4,1,53,27,717,['c'],1,left,['0'],6,156,[0.14502195],98,53,easy,minus,dotcolour,beta,,,30,19,M,R,
202,76,34,4,1,47,33,633,['c'],1,left,['0'],6,182,[0.07045517],65,47,medium,minus,dotcolour,beta,,,30,19,M,R,
203,77,35,4,1,36,44,1184,['n'],1,right,['8'],4,184,[-0.12804366],95,44,hard,minus,dotcolour,beta,,,30,19,M,R,
204,78,36,4,1,47,33,1167,['c'],1,left,['9'],5,308,[0.10535746],83,47,medium,minus,dotcolour,beta,,,30,19,M,R,
205,79,37,4,1,47,33,700,['c'],1,left,['0'],6,164,[0.08077538],75,47,medium,minus,dotcolour,beta,,,30,19,M,R,
206,80,38,4,1,53,27,717,['c'],1,left,['9'],5,307,[0.0188661],23,53,easy,minus,dotcolour,beta,,,30,19,M,R,
207,81,39,4,1,33,47,650,['n'],1,right,['0'],6,269,[-0.07923787],69,47,medium,minus,dotcolour,beta,,,30,19,M,R,
208,82,40,4,1,44,36,950,['c'],1,left,['9'],5,150,[0.02307406],18,44,hard,minus,dotcolour,beta,,,30,19,M,R,
209,83,41,4,1,47,33,817,['c'],1,left,['0'],6,305,[0.0838343],72,47,medium,minus,dotcolour,beta,,,30,19,M,R,
210,84,0,5,1,47,33,734,['c'],1,left,['0'],6,213,[0.05359641],48,47,medium,minus,dotcolour,beta,,,30,19,M,R,
211,85,1,5,1,47,33,766,['c'],1,left,['9'],5,151,[0.08636895],81,47,medium,minus,dotcolour,beta,,,30,19,M,R,
212,86,2,5,1,36,44,699,['n'],1,right,['9'],5,222,[-0.08563058],76,44,hard,minus,dotcolour,beta,,,30,19,M,R,
213,87,3,5,1,27,53,667,['n'],1,right,['0'],6,252,[-0.09781669],82,53,easy,minus,dotcolour,beta,,,30,19,M,R,
214,88,4,5,1,47,33,650,['c'],1,left,['9'],5,202,[0.13814452],96,47,medium,minus,dotcolour,beta,,,30,19,M,R,
215,89,5,5,1,33,47,932,['c'],0,right,['0'],6,198,[0.02604856],23,47,medium,minus,dotcolour,beta,,,30,19,M,R,
216,90,6,5,1,53,27,650,['n'],0,left,['1'],1,1437,[0.02874134],22,53,easy,minus,dotcolour,beta,,,30,19,M,R,
217,91,7,5,1,44,36,1668,['c'],1,left,['9'],5,409,[0.05357826],49,44,hard,minus,dotcolour,beta,,,30,19,M,R,
218,92,8,5,1,33,47,784,['n'],1,right,['0'],6,187,[-0.09320575],83,47,medium,minus,dotcolour,beta,,,30,19,M,R,
219,93,9,5,1,33,47,1184,['n'],1,right,['8'],4,405,[-0.06472916],56,47,medium,minus,dotcolour,beta,,,30,19,M,R,
220,94,10,5,1,36,44,784,['n'],1,right,['9'],5,175,[-0.10221619],88,44,hard,minus,dotcolour,beta,,,30,19,M,R,
221,95,11,5,1,53,27,1133,['c'],1,left,['0'],6,259,[0.1299126],93,53,easy,minus,dotcolour,beta,,,30,19,M,R,
222,96,12,5,1,44,36,900,['c'],1,left,['0'],6,214,[0.14822614],97,44,hard,minus,dotcolour,beta,,,30,19,M,R,
223,97,13,5,1,44,36,1300,['c'],1,left,['9'],5,179,[0.05033762],44,44,hard,minus,dotcolour,beta,,,30,19,M,R,
224,98,14,5,1,36,44,867,['n'],1,right,['9'],5,210,[-0.13688253],96,44,hard,minus,dotcolour,beta,,,30,19,M,R,
225,99,15,5,1,53,27,950,['c'],1,left,['9'],5,205,[0.11831029],92,53,easy,minus,dotcolour,beta,,,30,19,M,R,
226,100,16,5,1,44,36,1101,['n'],0,left,['9'],5,346,[-0.17537077],98,44,hard,minus,dotcolour,beta,,,30,19,M,R,
227,101,17,5,1,33,47,800,['n'],1,right,['8'],4,1278,[-0.25700423],96,47,medium,minus,dotcolour,beta,,,30,19,M,R,
228,102,18,5,1,27,53,885,['n'],1,right,['0'],6,136,[-0.05847851],54,53,easy,minus,dotcolour,beta,,,30,19,M,R,
229,103,19,5,1,47,33,1683,['n'],0,left,['3'],3,681,[-0.11931588],80,47,medium,minus,dotcolour,beta,,,30,19,M,R,
230,104,20,5,1,33,47,1001,['n'],1,right,['9'],5,214,[-0.03717228],33,47,medium,minus,dotcolour,beta,,,30,19,M,R,
231,105,21,5,1,36,44,2217,['c'],0,right,['8'],4,191,[-0.00427283],8,44,hard,minus,dotcolour,beta,,,30,19,M,R,
232,106,22,5,1,47,33,966,['c'],1,left,['0'],6,81,[0.0787808],81,47,medium,minus,dotcolour,beta,,,30,19,M,R,
233,107,23,5,1,36,44,1133,['n'],1,right,['9'],5,242,[-0.01828124],20,44,hard,minus,dotcolour,beta,,,30,19,M,R,
234,108,24,5,1,53,27,867,['c'],1,left,['0'],6,135,[0.13442834],98,53,easy,minus,dotcolour,beta,,,30,19,M,R,
235,109,25,5,1,47,33,749,['c'],1,left,['0'],6,101,[0.08999001],88,47,medium,minus,dotcolour,beta,,,30,19,M,R,
236,110,26,5,1,27,53,784,['n'],1,right,['0'],6,243,[-0.07822422],70,53,easy,minus,dotcolour,beta,,,30,19,M,R,
237,111,27,5,1,27,53,700,['n'],1,right,['0'],6,254,[-0.08134189],72,53,easy,minus,dotcolour,beta,,,30,19,M,R,
238,112,28,5,1,27,53,1316,['n'],1,right,['9'],5,593,[-0.16519527],93,53,easy,minus,dotcolour,beta,,,30,19,M,R,
239,113,29,5,1,44,36,783,['c'],1,left,['9'],5,211,[0.00137484],11,44,hard,minus,dotcolour,beta,,,30,19,M,R,
240,114,30,5,1,27,53,1033,['n'],1,right,['0'],6,355,[-0.12471297],89,53,easy,minus,dotcolour,beta,,,30,19,M,R,
241,115,31,5,1,33,47,734,['n'],1,right,['0'],6,232,[-0.05044361],45,47,medium,minus,dotcolour,beta,,,30,19,M,R,
242,116,32,5,1,44,36,1067,['c'],1,left,['8'],4,261,[0.02218147],24,44,hard,minus,dotcolour,beta,,,30,19,M,R,
243,117,33,5,1,53,27,933,['c'],1,left,['9'],5,151,[0.11495321],94,53,easy,minus,dotcolour,beta,,,30,19,M,R,
244,118,34,5,1,47,33,1100,['c'],1,left,['8'],4,206,[0.03629422],32,47,medium,minus,dotcolour,beta,,,30,19,M,R,
245,119,35,5,1,53,27,867,['c'],1,left,['0'],6,140,[0.08565496],81,53,easy,minus,dotcolour,beta,,,30,19,M,R,
246,120,36,5,1,36,44,800,['n'],1,right,['8'],4,184,[-0.08759158],79,44,hard,minus,dotcolour,beta,,,30,19,M,R,
247,121,37,5,1,36,44,833,['n'],1,right,['9'],5,144,[-0.10839726],92,44,hard,minus,dotcolour,beta,,,30,19,M,R,
248,122,38,5,1,44,36,1000,['n'],0,left,['9'],5,219,[-0.04422801],39,44,hard,minus,dotcolour,beta,,,30,19,M,R,
249,123,39,5,1,27,53,1717,['n'],1,right,['8'],4,360,[-0.17141103],97,53,easy,minus,dotcolour,beta,,,30,19,M,R,
250,124,40,5,1,33,47,884,['n'],1,right,['9'],5,263,[-0.11086721],87,47,medium,minus,dotcolour,beta,,,30,19,M,R,
251,125,41,5,1,53,27,617,['c'],1,left,['0'],6,205,[0.08994481],80,53,easy,minus,dotcolour,beta,,,30,19,M,R,
252,0,0,6,2,53,27,850,['c'],1,left,['0'],6,206,[0.11337202],100,53,easy,plus,dotcolour,beta,,,30,19,M,R,
253,1,1,6,2,44,36,649,['c'],1,left,['0'],6,125,[0.15216237],100,44,hard,plus,dotcolour,beta,,,30,19,M,R,
254,2,2,6,2,44,36,899,['n'],0,left,['8'],4,197,[-0.01700213],95,44,hard,plus,dotcolour,beta,,,30,19,M,R,
255,3,3,6,2,47,33,1133,['c'],1,left,['9'],5,169,[0.13768796],100,47,medium,plus,dotcolour,beta,,,30,19,M,R,
256,4,4,6,2,27,53,650,['n'],1,right,['0'],6,194,[-0.16317784],100,53,easy,plus,dotcolour,beta,,,30,19,M,R,
257,5,5,6,2,36,44,1083,['c'],0,right,['9'],5,168,[0.07610957],100,44,hard,plus,dotcolour,beta,,,30,19,M,R,
258,6,6,6,2,53,27,834,['c'],1,left,['0'],6,105,[0.10282386],100,53,easy,plus,dotcolour,beta,,,30,19,M,R,
259,7,7,6,2,33,47,800,['n'],1,right,['0'],6,158,[-0.10150468],100,47,medium,plus,dotcolour,beta,,,30,19,M,R,
260,8,8,6,2,47,33,1102,['c'],1,left,['9'],5,165,[0.15494846],100,47,medium,plus,dotcolour,beta,,,30,19,M,R,
261,9,9,6,2,44,36,1250,['c'],1,left,['9'],5,222,[0.06953584],99,44,hard,plus,dotcolour,beta,,,30,19,M,R,
262,10,10,6,2,33,47,717,['n'],1,right,['0'],6,162,[-0.08105869],100,47,medium,plus,dotcolour,beta,,,30,19,M,R,
263,11,11,6,2,33,47,850,['n'],1,right,['9'],5,178,[-0.05001398],99,47,medium,plus,dotcolour,beta,,,30,19,M,R,
264,12,12,6,2,44,36,1267,['c'],1,left,['8'],4,146,[0.14761036],100,44,hard,plus,dotcolour,beta,,,30,19,M,R,
265,13,13,6,2,44,36,867,['c'],1,left,['8'],4,146,[0.04392565],99,44,hard,plus,dotcolour,beta,,,30,19,M,R,
266,14,14,6,2,53,27,767,['c'],1,left,['8'],4,368,[0.04958482],96,53,easy,plus,dotcolour,beta,,,30,19,M,R,
267,15,15,6,2,53,27,634,['c'],1,left,['0'],6,136,[0.06812206],100,53,easy,plus,dotcolour,beta,,,30,19,M,R,
268,16,16,6,2,36,44,684,['n'],1,right,['0'],6,185,[-0.06661787],99,44,hard,plus,dotcolour,beta,,,30,19,M,R,
269,17,17,6,2,36,44,1133,['c'],0,right,['9'],5,182,[0.06178548],99,44,hard,plus,dotcolour,beta,,,30,19,M,R,
270,18,18,6,2,33,47,734,['n'],1,right,['0'],6,466,[-0.15871982],100,47,medium,plus,dotcolour,beta,,,30,19,M,R,
271,19,19,6,2,33,47,1101,['n'],1,right,['8'],4,661,[-0.0533208],92,47,medium,plus,dotcolour,beta,,,30,19,M,R,
272,20,20,6,2,53,27,667,['c'],1,left,['0'],6,130,[0.15393957],100,53,easy,plus,dotcolour,beta,,,30,19,M,R,
273,21,21,6,2,27,53,900,['n'],1,right,['0'],6,185,[-0.09937767],100,53,easy,plus,dotcolour,beta,,,30,19,M,R,
274,22,22,6,2,36,44,801,['n'],1,right,['8'],4,227,[0.0030273],88,44,hard,plus,dotcolour,beta,,,30,19,M,R,
275,23,23,6,2,47,33,849,['c'],1,left,['0'],6,138,[0.11047302],100,47,medium,plus,dotcolour,beta,,,30,19,M,R,
276,24,24,6,2,36,44,666,['n'],1,right,['8'],4,299,[-0.07825955],99,44,hard,plus,dotcolour,beta,,,30,19,M,R,
277,25,25,6,2,27,53,701,['n'],1,right,['0'],6,348,[-0.13941647],100,53,easy,plus,dotcolour,beta,,,30,19,M,R,
278,26,26,6,2,27,53,817,['n'],1,right,['0'],6,254,[-0.05736268],98,53,easy,plus,dotcolour,beta,,,30,19,M,R,
279,27,27,6,2,47,33,783,['c'],1,left,['0'],6,94,[0.0580684],100,47,medium,plus,dotcolour,beta,,,30,19,M,R,
280,28,28,6,2,33,47,1533,['n'],1,right,['8'],4,239,[-0.11721883],100,47,medium,plus,dotcolour,beta,,,30,19,M,R,
281,29,29,6,2,44,36,1484,['n'],0,left,['8'],4,195,[-0.03288846],97,44,hard,plus,dotcolour,beta,,,30,19,M,R,
282,30,30,6,2,36,44,2134,['c'],0,right,['8'],4,559,[0.02902584],88,44,hard,plus,dotcolour,beta,,,30,19,M,R,
283,31,31,6,2,53,27,801,['c'],1,left,['0'],6,202,[0.07079772],99,53,easy,plus,dotcolour,beta,,,30,19,M,R,
284,32,32,6,2,44,36,667,['n'],0,left,['0'],6,216,[0.00787093],86,44,hard,plus,dotcolour,beta,,,30,19,M,R,
285,33,33,6,2,47,33,884,['c'],1,left,['0'],6,126,[0.10496008],100,47,medium,plus,dotcolour,beta,,,30,19,M,R,
286,34,34,6,2,47,33,984,['n'],0,left,['0'],6,538,[-0.08248086],97,47,medium,plus,dotcolour,beta,,,30,19,M,R,
287,35,35,6,2,53,27,734,['c'],1,left,['9'],5,289,[0.07331305],99,53,easy,plus,dotcolour,beta,,,30,19,M,R,
288,36,36,6,2,27,53,1600,['n'],1,right,['0'],6,294,[-0.19174497],100,53,easy,plus,dotcolour,beta,,,30,19,M,R,
289,37,37,6,2,33,47,984,['n'],1,right,['8'],4,340,[-0.15214946],100,47,medium,plus,dotcolour,beta,,,30,19,M,R,
290,38,38,6,2,27,53,733,['n'],1,right,['9'],5,210,[-0.19214526],100,53,easy,plus,dotcolour,beta,,,30,19,M,R,
291,39,39,6,2,47,33,967,['c'],1,left,['0'],6,108,[0.10635499],100,47,medium,plus,dotcolour,beta,,,30,19,M,R,
292,40,40,6,2,36,44,1067,['n'],1,right,['8'],4,270,[-0.07364227],99,44,hard,plus,dotcolour,beta,,,30,19,M,R,
293,41,41,6,2,27,53,950,['n'],1,right,['0'],6,223,[-0.05094783],98,53,easy,plus,dotcolour,beta,,,30,19,M,R,
294,42,0,7,2,47,33,867,['c'],1,left,['0'],6,155,[0.04011252],99,47,medium,plus,dotcolour,beta,,,30,19,M,R,
295,43,1,7,2,36,44,1267,['n'],1,right,['8'],4,228,[-0.06737254],99,44,hard,plus,dotcolour,beta,,,30,19,M,R,
296,44,2,7,2,33,47,932,['n'],1,right,['8'],4,231,[-0.1621879],100,47,medium,plus,dotcolour,beta,,,30,19,M,R,
297,45,3,7,2,33,47,784,['n'],1,right,['0'],6,143,[-0.12931435],100,47,medium,plus,dotcolour,beta,,,30,19,M,R,
298,46,4,7,2,47,33,850,['c'],1,left,['0'],6,81,[0.07227426],100,47,medium,plus,dotcolour,beta,,,30,19,M,R,
299,47,5,7,2,27,53,800,['n'],1,right,['0'],6,231,[-0.0729288],99,53,easy,plus,dotcolour,beta,,,30,19,M,R,
300,48,6,7,2,33,47,2600,['n'],1,right,['8'],4,287,[-0.07259892],99,47,medium,plus,dotcolour,beta,,,30,19,M,R,
301,49,7,7,2,27,53,766,['n'],1,right,['0'],6,246,[-0.16916252],100,53,easy,plus,dotcolour,beta,,,30,19,M,R,
302,50,8,7,2,44,36,917,['c'],1,left,['0'],6,121,[0.04446873],99,44,hard,plus,dotcolour,beta,,,30,19,M,R,
303,51,9,7,2,53,27,766,['c'],1,left,['0'],6,167,[0.14124335],100,53,easy,plus,dotcolour,beta,,,30,19,M,R,
304,52,10,7,2,47,33,1016,['c'],1,left,['9'],5,113,[0.10646753],100,47,medium,plus,dotcolour,beta,,,30,19,M,R,
305,53,11,7,2,36,44,916,['n'],1,right,['0'],6,137,[-0.0833676],100,44,hard,plus,dotcolour,beta,,,30,19,M,R,
306,54,12,7,2,53,27,684,['c'],1,left,['0'],6,129,[0.11368856],100,53,easy,plus,dotcolour,beta,,,30,19,M,R,
307,55,13,7,2,47,33,800,['c'],1,left,['0'],6,109,[0.10757707],100,47,medium,plus,dotcolour,beta,,,30,19,M,R,
308,56,14,7,2,44,36,817,['c'],1,left,['0'],6,129,[0.1001819],100,44,hard,plus,dotcolour,beta,,,30,19,M,R,
309,57,15,7,2,27,53,750,['n'],1,right,['8'],4,224,[-0.06212459],99,53,easy,plus,dotcolour,beta,,,30,19,M,R,
310,58,16,7,2,47,33,700,['c'],1,left,['0'],6,140,[0.05003974],99,47,medium,plus,dotcolour,beta,,,30,19,M,R,
311,59,17,7,2,27,53,750,['n'],1,right,['0'],6,193,[-0.08225234],100,53,easy,plus,dotcolour,beta,,,30,19,M,R,
312,60,18,7,2,53,27,850,['c'],1,left,['0'],6,128,[0.04927109],99,53,easy,plus,dotcolour,beta,,,30,19,M,R,
313,61,19,7,2,36,44,2284,['c'],0,right,['8'],4,225,[0.04765727],98,44,hard,plus,dotcolour,beta,,,30,19,M,R,
314,62,20,7,2,27,53,734,['n'],1,right,['0'],6,227,[-0.14729272],100,53,easy,plus,dotcolour,beta,,,30,19,M,R,
315,63,21,7,2,33,47,1216,['n'],1,right,['9'],5,267,[-0.09627546],99,47,medium,plus,dotcolour,beta,,,30,19,M,R,
316,64,22,7,2,33,47,534,['n'],1,right,['0'],6,156,[-0.09690807],100,47,medium,plus,dotcolour,beta,,,30,19,M,R,
317,65,23,7,2,53,27,650,['c'],1,left,['0'],6,109,[0.10090427],100,53,easy,plus,dotcolour,beta,,,30,19,M,R,
318,66,24,7,2,53,27,767,['c'],1,left,['0'],6,27,[0.05629277],100,53,easy,plus,dotcolour,beta,,,30,19,M,R,
319,67,25,7,2,53,27,700,['c'],1,left,['0'],6,111,[0.07027282],100,53,easy,plus,dotcolour,beta,,,30,19,M,R,
320,68,26,7,2,44,36,1735,['c'],1,left,['3'],3,215,[0.1301459],100,44,hard,plus,dotcolour,beta,,,30,19,M,R,
321,69,27,7,2,44,36,650,['n'],0,left,['2'],2,1205,[0.11499582],27,44,hard,plus,dotcolour,beta,,,30,19,M,R,
322,70,28,7,2,36,44,1017,['n'],1,right,['0'],6,197,[-0.01030253],94,44,hard,plus,dotcolour,beta,,,30,19,M,R,
323,71,29,7,2,36,44,883,['n'],1,right,['9'],5,211,[-0.06843623],99,44,hard,plus,dotcolour,beta,,,30,19,M,R,
324,72,30,7,2,27,53,917,['n'],1,right,['0'],6,191,[-0.00794401],93,53,easy,plus,dotcolour,beta,,,30,19,M,R,
325,73,31,7,2,44,36,1067,['c'],1,left,['0'],6,110,[0.1382955],100,44,hard,plus,dotcolour,beta,,,30,19,M,R,
326,74,32,7,2,33,47,850,['n'],1,right,['9'],5,256,[-0.1265869],100,47,medium,plus,dotcolour,beta,,,30,19,M,R,
327,75,33,7,2,36,44,866,['n'],1,right,['0'],6,148,[-0.11615541],100,44,hard,plus,dotcolour,beta,,,30,19,M,R,
328,76,34,7,2,47,33,850,['c'],1,left,['0'],6,86,[0.01405355],99,47,medium,plus,dotcolour,beta,,,30,19,M,R,
329,77,35,7,2,33,47,1016,['n'],1,right,['8'],4,515,[-0.1554877],100,47,medium,plus,dotcolour,beta,,,30,19,M,R,
330,78,36,7,2,53,27,1650,['c'],1,left,['0'],6,174,[0.09908442],100,53,easy,plus,dotcolour,beta,,,30,19,M,R,
331,79,37,7,2,44,36,1134,['n'],0,left,['0'],6,282,[-0.0360367],96,44,hard,plus,dotcolour,beta,,,30,19,M,R,
332,80,38,7,2,36,44,1017,['n'],1,right,['8'],4,223,[-0.04907498],98,44,hard,plus,dotcolour,beta,,,30,19,M,R,
333,81,39,7,2,27,53,750,['n'],1,right,['0'],6,145,[-0.12946894],100,53,easy,plus,dotcolour,beta,,,30,19,M,R,
334,82,40,7,2,47,33,750,['c'],1,left,['0'],6,159,[0.12042644],100,47,medium,plus,dotcolour,beta,,,30,19,M,R,
335,83,41,7,2,44,36,766,['c'],1,left,['0'],6,99,[0.05437364],100,44,hard,plus,dotcolour,beta,,,30,19,M,R,
336,84,0,8,2,44,36,984,['n'],0,left,['8'],4,176,[-0.07545448],100,44,hard,plus,dotcolour,beta,,,30,19,M,R,
337,85,1,8,2,47,33,1083,['c'],1,left,['8'],4,230,[0.08867698],100,47,medium,plus,dotcolour,beta,,,30,19,M,R,
338,86,2,8,2,36,44,1267,['n'],1,right,['9'],5,228,[-0.12615052],100,44,hard,plus,dotcolour,beta,,,30,19,M,R,
339,87,3,8,2,47,33,1351,['n'],0,left,['8'],4,302,[-0.09685028],99,47,medium,plus,dotcolour,beta,,,30,19,M,R,
340,88,4,8,2,44,36,1650,['n'],0,left,['1'],1,433,[0.09085376],28,44,hard,plus,dotcolour,beta,,,30,19,M,R,
341,89,5,8,2,47,33,1000,['c'],1,left,['9'],5,161,[0.04782776],99,47,medium,plus,dotcolour,beta,,,30,19,M,R,
342,90,6,8,2,53,27,800,['c'],1,left,['0'],6,100,[0.11626401],100,53,easy,plus,dotcolour,beta,,,30,19,M,R,
343,91,7,8,2,27,53,1267,['n'],1,right,['8'],4,230,[-0.14643281],100,53,easy,plus,dotcolour,beta,,,30,19,M,R,
344,92,8,8,2,27,53,733,['n'],1,right,['9'],5,225,[-0.11029699],100,53,easy,plus,dotcolour,beta,,,30,19,M,R,
345,93,9,8,2,53,27,916,['c'],1,left,['0'],6,132,[0.06836561],100,53,easy,plus,dotcolour,beta,,,30,19,M,R,
346,94,10,8,2,36,44,917,['n'],1,right,['8'],4,180,[-0.14278393],100,44,hard,plus,dotcolour,beta,,,30,19,M,R,
347,95,11,8,2,53,27,717,['c'],1,left,['0'],6,169,[0.05083003],99,53,easy,plus,dotcolour,beta,,,30,19,M,R,
348,96,12,8,2,47,33,767,['c'],1,left,['0'],6,117,[0.0441798],99,47,medium,plus,dotcolour,beta,,,30,19,M,R,
349,97,13,8,2,44,36,867,['c'],1,left,['0'],6,183,[0.097603],100,44,hard,plus,dotcolour,beta,,,30,19,M,R,
350,98,14,8,2,53,27,650,['c'],1,left,['0'],6,143,[0.13132946],100,53,easy,plus,dotcolour,beta,,,30,19,M,R,
351,99,15,8,2,27,53,966,['n'],1,right,['9'],5,492,[-0.18237351],100,53,easy,plus,dotcolour,beta,,,30,19,M,R,
352,100,16,8,2,27,53,800,['n'],1,right,['9'],5,201,[-0.04377143],98,53,easy,plus,dotcolour,beta,,,30,19,M,R,
353,101,17,8,2,44,36,850,['c'],1,left,['0'],6,145,[0.09220716],100,44,hard,plus,dotcolour,beta,,,30,19,M,R,
354,102,18,8,2,53,27,650,['c'],1,left,['0'],6,130,[0.10253968],100,53,easy,plus,dotcolour,beta,,,30,19,M,R,
355,103,19,8,2,44,36,600,['c'],1,left,['0'],6,126,[0.01040469],97,44,hard,plus,dotcolour,beta,,,30,19,M,R,
356,104,20,8,2,36,44,750,['n'],1,right,['0'],6,204,[-0.16458251],100,44,hard,plus,dotcolour,beta,,,30,19,M,R,
357,105,21,8,2,27,53,1383,['n'],1,right,['8'],4,190,[-0.05668613],99,53,easy,plus,dotcolour,beta,,,30,19,M,R,
358,106,22,8,2,33,47,633,['n'],1,right,['9'],5,198,[-0.10210218],100,47,medium,plus,dotcolour,beta,,,30,19,M,R,
359,107,23,8,2,27,53,749,['n'],1,right,['8'],4,234,[-0.16034889],100,53,easy,plus,dotcolour,beta,,,30,19,M,R,
360,108,24,8,2,53,27,667,['c'],1,left,['0'],6,191,[0.05635216],99,53,easy,plus,dotcolour,beta,,,30,19,M,R,
361,109,25,8,2,33,47,700,['n'],1,right,['8'],4,188,[-0.12158132],100,47,medium,plus,dotcolour,beta,,,30,19,M,R,
362,110,26,8,2,27,53,684,['n'],1,right,['0'],6,179,[-0.12691938],100,53,easy,plus,dotcolour,beta,,,30,19,M,R,
363,111,27,8,2,53,27,633,['c'],1,left,['0'],6,179,[0.0927996],100,53,easy,plus,dotcolour,beta,,,30,19,M,R,
364,112,28,8,2,36,44,600,['n'],1,right,['0'],6,182,[-0.07693469],100,44,hard,plus,dotcolour,beta,,,30,19,M,R,
365,113,29,8,2,44,36,2432,['n'],0,left,['8'],4,167,[-0.02817287],98,44,hard,plus,dotcolour,beta,,,30,19,M,R,
366,114,30,8,2,36,44,985,['c'],0,right,['0'],6,97,[0.12472275],100,44,hard,plus,dotcolour,beta,,,30,19,M,R,
367,115,31,8,2,33,47,633,['n'],1,right,['9'],5,341,[-0.00765717],88,47,medium,plus,dotcolour,beta,,,30,19,M,R,
368,116,32,8,2,47,33,950,['c'],1,left,['0'],6,90,[0.08417654],100,47,medium,plus,dotcolour,beta,,,30,19,M,R,
369,117,33,8,2,36,44,951,['n'],1,right,['8'],4,258,[-0.13630157],100,44,hard,plus,dotcolour,beta,,,30,19,M,R,
370,118,34,8,2,33,47,1267,['n'],1,right,['9'],5,678,[-0.13518404],98,47,medium,plus,dotcolour,beta,,,30,19,M,R,
371,119,35,8,2,47,33,800,['c'],1,left,['0'],6,108,[-0.00487945],94,47,medium,plus,dotcolour,beta,,,30,19,M,R,
372,120,36,8,2,33,47,984,['n'],1,right,['8'],4,258,[-0.13142998],100,47,medium,plus,dotcolour,beta,,,30,19,M,R,
373,121,37,8,2,33,47,1184,['n'],1,right,['8'],4,185,[-0.01062609],94,47,medium,plus,dotcolour,beta,,,30,19,M,R,
374,122,38,8,2,36,44,1084,['c'],0,right,['3'],3,583,[-0.02917609],65,44,hard,plus,dotcolour,beta,,,30,19,M,R,
375,123,39,8,2,33,47,734,['n'],1,right,['9'],5,220,[-0.10337032],100,47,medium,plus,dotcolour,beta,,,30,19,M,R,
376,124,40,8,2,47,33,1067,['c'],1,left,['0'],6,154,[0.07761921],100,47,medium,plus,dotcolour,beta,,,30,19,M,R,
377,125,41,8,2,44,36,684,['c'],1,left,['0'],6,106,[0.02516944],99,44,hard,plus,dotcolour,beta,,,30,19,M,R,
378,0,0,9,3,44,36,851,['c'],1,left,['0'],6,165,[0.09412624],85,44,hard,minus,dotcolour,beta,,,30,19,M,R,
379,1,1,9,3,44,36,800,['c'],1,left,['0'],6,231,[0.12684716],94,44,hard,minus,dotcolour,beta,,,30,19,M,R,
380,2,2,9,3,36,44,917,['n'],1,right,['8'],4,195,[-0.09683187],84,44,hard,minus,dotcolour,beta,,,30,19,M,R,
381,3,3,9,3,53,27,700,['c'],1,left,['0'],6,144,[0.06192542],57,53,easy,minus,dotcolour,beta,,,30,19,M,R,
382,4,4,9,3,33,47,749,['n'],1,right,['8'],4,141,[-0.14416617],99,47,medium,minus,dotcolour,beta,,,30,19,M,R,
383,5,5,9,3,27,53,816,['n'],1,right,['8'],4,208,[0.01634958],6,53,easy,minus,dotcolour,beta,,,30,19,M,R,
384,6,6,9,3,44,36,734,['c'],1,left,['0'],6,131,[0.06222537],58,44,hard,minus,dotcolour,beta,,,30,19,M,R,
385,7,7,9,3,47,33,534,['c'],1,left,['0'],6,114,[0.08078049],79,47,medium,minus,dotcolour,beta,,,30,19,M,R,
386,8,8,9,3,47,33,1182,['n'],0,left,['8'],4,160,[-0.08125581],76,47,medium,minus,dotcolour,beta,,,30,19,M,R,
387,9,9,9,3,53,27,683,['c'],1,left,['0'],6,119,[0.1310173],98,53,easy,minus,dotcolour,beta,,,30,19,M,R,
388,10,10,9,3,47,33,683,['c'],1,left,['0'],6,80,[0.05759548],53,47,medium,minus,dotcolour,beta,,,30,19,M,R,
389,11,11,9,3,44,36,700,['c'],1,left,['0'],6,122,[0.09592614],89,44,hard,minus,dotcolour,beta,,,30,19,M,R,
390,12,12,9,3,44,36,717,['c'],1,left,['0'],6,122,[0.15154121],99,44,hard,minus,dotcolour,beta,,,30,19,M,R,
391,13,13,9,3,27,53,867,['n'],1,right,['9'],5,444,[-0.26000105],100,53,easy,minus,dotcolour,beta,,,30,19,M,R,
392,14,14,9,3,27,53,1150,['n'],1,right,['8'],4,213,[-0.06143493],56,53,easy,minus,dotcolour,beta,,,30,19,M,R,
393,15,15,9,3,53,27,684,['c'],1,left,['0'],6,43,[0.0662857],72,53,easy,minus,dotcolour,beta,,,30,19,M,R,
394,16,16,9,3,44,36,682,['c'],1,left,['9'],5,231,[0.00782993],14,44,hard,minus,dotcolour,beta,,,30,19,M,R,
395,17,17,9,3,47,33,700,['c'],1,left,['0'],6,122,[0.08538657],82,47,medium,minus,dotcolour,beta,,,30,19,M,R,
396,18,18,9,3,36,44,800,['n'],1,right,['0'],6,255,[-0.12074669],91,44,hard,minus,dotcolour,beta,,,30,19,M,R,
397,19,19,9,3,33,47,1216,['n'],1,right,['9'],5,421,[-0.10428479],79,47,medium,minus,dotcolour,beta,,,30,19,M,R,
398,20,20,9,3,33,47,600,['n'],1,right,['0'],6,157,[-0.06939961],65,47,medium,minus,dotcolour,beta,,,30,19,M,R,
399,21,21,9,3,27,53,666,['n'],1,right,['0'],6,165,[-0.05888629],54,53,easy,minus,dotcolour,beta,,,30,19,M,R,
400,22,22,9,3,33,47,683,['n'],1,right,['8'],4,196,[-0.16484038],99,47,medium,minus,dotcolour,beta,,,30,19,M,R,
401,23,23,9,3,53,27,632,['c'],1,left,['0'],6,116,[0.15504992],99,53,easy,minus,dotcolour,beta,,,30,19,M,R,
402,24,24,9,3,53,27,550,['c'],1,left,['0'],6,187,[0.16158006],99,53,easy,minus,dotcolour,beta,,,30,19,M,R,
403,25,25,9,3,53,27,650,['c'],1,left,['0'],6,147,[0.0884079],82,53,easy,minus,dotcolour,beta,,,30,19,M,R,
404,26,26,9,3,53,27,600,['c'],1,left,['0'],6,174,[0.17266897],99,53,easy,minus,dotcolour,beta,,,30,19,M,R,
405,27,27,9,3,44,36,801,['c'],1,left,['0'],6,136,[0.13232696],98,44,hard,minus,dotcolour,beta,,,30,19,M,R,
406,28,28,9,3,36,44,434,['n'],1,right,['0'],6,171,[-0.1256206],95,44,hard,minus,dotcolour,beta,,,30,19,M,R,
407,29,29,9,3,36,44,833,['n'],1,right,['8'],4,452,[-0.12741157],87,44,hard,minus,dotcolour,beta,,,30,19,M,R,
408,30,30,9,3,27,53,568,['n'],1,right,['0'],6,214,[-0.12752424],94,53,easy,minus,dotcolour,beta,,,30,19,M,R,
409,31,31,9,3,36,44,884,['n'],1,right,['9'],5,290,[-0.0914747],77,44,hard,minus,dotcolour,beta,,,30,19,M,R,
410,32,32,9,3,47,33,650,['c'],1,left,['0'],6,190,[0.1656106],99,47,medium,minus,dotcolour,beta,,,30,19,M,R,
411,33,33,9,3,27,53,884,['n'],1,right,['0'],6,164,[-0.10138251],88,53,easy,minus,dotcolour,beta,,,30,19,M,R,
412,34,34,9,3,47,33,1000,['n'],0,left,['8'],4,183,[-0.06356195],58,47,medium,minus,dotcolour,beta,,,30,19,M,R,
413,35,35,9,3,33,47,701,['n'],1,right,['9'],5,261,[-0.08619602],75,47,medium,minus,dotcolour,beta,,,30,19,M,R,
414,36,36,9,3,33,47,600,['n'],1,right,['0'],6,147,[-0.12791672],97,47,medium,minus,dotcolour,beta,,,30,19,M,R,
415,37,37,9,3,36,44,800,['c'],0,right,['0'],6,142,[0.09511754],87,44,hard,minus,dotcolour,beta,,,30,19,M,R,
416,38,38,9,3,27,53,699,['n'],1,right,['0'],6,246,[-0.15289951],97,53,easy,minus,dotcolour,beta,,,30,19,M,R,
417,39,39,9,3,33,47,817,['n'],1,right,['9'],5,341,[-0.18317292],98,47,medium,minus,dotcolour,beta,,,30,19,M,R,
418,40,40,9,3,36,44,950,['n'],1,right,['0'],6,226,[-0.05161778],46,44,hard,minus,dotcolour,beta,,,30,19,M,R,
419,41,41,9,3,47,33,833,['c'],1,left,['0'],6,80,[0.07651443],79,47,medium,minus,dotcolour,beta,,,30,19,M,R,
420,42,0,10,3,33,47,666,['n'],1,right,['0'],6,174,[-0.0795747],74,47,medium,minus,dotcolour,beta,,,30,19,M,R,
421,43,1,10,3,53,27,683,['c'],1,left,['0'],6,101,[0.06865488],68,53,easy,minus,dotcolour,beta,,,30,19,M,R,
422,44,2,10,3,36,44,601,['n'],1,right,['9'],5,306,[-0.07724158],67,44,hard,minus,dotcolour,beta,,,30,19,M,R,
423,45,3,10,3,27,53,666,['n'],1,right,['0'],6,172,[-0.12385533],95,53,easy,minus,dotcolour,beta,,,30,19,M,R,
424,46,4,10,3,47,33,650,['c'],1,left,['0'],6,125,[0.10404383],92,47,medium,minus,dotcolour,beta,,,30,19,M,R,
425,47,5,10,3,53,27,667,['c'],1,left,['0'],6,102,[0.08959114],87,53,easy,minus,dotcolour,beta,,,30,19,M,R,
426,48,6,10,3,47,33,600,['n'],0,left,['1'],1,1139,[0.22690312],1,47,medium,minus,dotcolour,beta,,,30,19,M,R,
427,49,7,10,3,44,36,1267,['c'],1,left,['9'],5,44,[0.07992664],89,44,hard,minus,dotcolour,beta,,,30,19,M,R,
428,50,8,10,3,33,47,984,['n'],1,right,['8'],4,316,[-0.11918066],88,47,medium,minus,dotcolour,beta,,,30,19,M,R,
429,51,9,10,3,36,44,1117,['n'],1,right,['9'],5,444,[-0.19121529],98,44,hard,minus,dotcolour,beta,,,30,19,M,R,
430,52,10,10,3,47,33,1350,['c'],1,left,['0'],6,14,[0.07311869],94,47,medium,minus,dotcolour,beta,,,30,19,M,R,
431,53,11,10,3,47,33,767,['c'],1,left,['0'],6,31,[0.09026182],97,47,medium,minus,dotcolour,beta,,,30,19,M,R,
432,54,12,10,3,47,33,767,['c'],1,left,['9'],5,176,[0.16555718],99,47,medium,minus,dotcolour,beta,,,30,19,M,R,
433,55,13,10,3,27,53,917,['n'],1,right,['0'],6,246,[-0.11921976],91,53,easy,minus,dotcolour,beta,,,30,19,M,R,
434,56,14,10,3,53,27,633,['c'],1,left,['0'],6,156,[0.1388363],98,53,easy,minus,dotcolour,beta,,,30,19,M,R,
435,57,15,10,3,53,27,782,['c'],1,left,['0'],6,152,[0.13348047],97,53,easy,minus,dotcolour,beta,,,30,19,M,R,
436,58,16,10,3,27,53,750,['n'],1,right,['8'],4,685,[-0.23653962],98,53,easy,minus,dotcolour,beta,,,30,19,M,R,
437,59,17,10,3,47,33,785,['c'],1,left,['0'],6,971,[0.1775559],90,47,medium,minus,dotcolour,beta,,,30,19,M,R,
438,60,18,10,3,47,33,950,['c'],1,left,['0'],6,120,[0.09277122],87,47,medium,minus,dotcolour,beta,,,30,19,M,R,
439,61,19,10,3,36,44,1233,['n'],1,right,['8'],4,307,[-0.1196842],89,44,hard,minus,dotcolour,beta,,,30,19,M,R,
440,62,20,10,3,33,47,1501,['n'],1,right,['8'],4,299,[-0.12593962],91,47,medium,minus,dotcolour,beta,,,30,19,M,R,
441,63,21,10,3,27,53,885,['n'],1,right,['0'],6,85,[-0.07045662],72,53,easy,minus,dotcolour,beta,,,30,19,M,R,
442,64,22,10,3,36,44,1250,['n'],1,right,['9'],5,281,[-0.07176684],63,44,hard,minus,dotcolour,beta,,,30,19,M,R,
443,65,23,10,3,44,36,783,['c'],1,left,['0'],6,88,[0.05366025],47,44,hard,minus,dotcolour,beta,,,30,19,M,R,
444,66,24,10,3,36,44,967,['n'],1,right,['9'],5,207,[-0.10191682],86,44,hard,minus,dotcolour,beta,,,30,19,M,R,
445,67,25,10,3,27,53,650,['n'],1,right,['9'],5,207,[-0.06347243],58,53,easy,minus,dotcolour,beta,,,30,19,M,R,
446,68,26,10,3,53,27,667,['c'],1,left,['0'],6,108,[0.04768867],39,53,easy,minus,dotcolour,beta,,,30,19,M,R,
447,69,27,10,3,33,47,1483,['n'],1,right,['9'],5,189,[-0.0615478],56,47,medium,minus,dotcolour,beta,,,30,19,M,R,
448,70,28,10,3,27,53,800,['n'],1,right,['0'],6,183,[-0.04523014],39,53,easy,minus,dotcolour,beta,,,30,19,M,R,
449,71,29,10,3,53,27,633,['c'],1,left,['0'],6,127,[0.11132306],94,53,easy,minus,dotcolour,beta,,,30,19,M,R,
450,72,30,10,3,44,36,900,['n'],0,left,['8'],4,151,[-0.08824733],82,44,hard,minus,dotcolour,beta,,,30,19,M,R,
451,73,31,10,3,53,27,1451,['c'],1,left,['0'],6,105,[0.06344445],61,53,easy,minus,dotcolour,beta,,,30,19,M,R,
452,74,32,10,3,33,47,817,['n'],1,right,['8'],4,94,[-0.03769565],26,47,medium,minus,dotcolour,beta,,,30,19,M,R,
453,75,33,10,3,33,47,917,['n'],1,right,['8'],4,278,[-0.02919307],29,47,medium,minus,dotcolour,beta,,,30,19,M,R,
454,76,34,10,3,44,36,800,['c'],1,left,['0'],6,148,[0.08326921],79,44,hard,minus,dotcolour,beta,,,30,19,M,R,
455,77,35,10,3,27,53,551,['n'],1,right,['0'],6,178,[-0.05479672],49,53,easy,minus,dotcolour,beta,,,30,19,M,R,
456,78,36,10,3,36,44,667,['n'],1,right,['9'],5,161,[-0.02356556],19,44,hard,minus,dotcolour,beta,,,30,19,M,R,
457,79,37,10,3,33,47,766,['c'],0,right,['0'],6,141,[0.08963235],84,47,medium,minus,dotcolour,beta,,,30,19,M,R,
458,80,38,10,3,36,44,716,['n'],1,right,['8'],4,236,[-0.04950724],44,44,hard,minus,dotcolour,beta,,,30,19,M,R,
459,81,39,10,3,44,36,799,['c'],1,left,['0'],6,108,[0.04962145],42,44,hard,minus,dotcolour,beta,,,30,19,M,R,
460,82,40,10,3,44,36,1016,['c'],1,left,['9'],5,231,[0.08202134],73,44,hard,minus,dotcolour,beta,,,30,19,M,R,
461,83,41,10,3,44,36,950,['c'],1,left,['9'],5,282,[0.1265257],92,44,hard,minus,dotcolour,beta,,,30,19,M,R,
462,84,0,11,3,27,53,768,['n'],1,right,['9'],5,116,[-0.10026187],91,53,easy,minus,dotcolour,beta,,,30,19,M,R,
463,85,1,11,3,27,53,533,['n'],1,right,['9'],5,147,[-0.07308678],69,53,easy,minus,dotcolour,beta,,,30,19,M,R,
464,86,2,11,3,36,44,999,['c'],0,right,['0'],6,143,[-0.00118235],6,44,hard,minus,dotcolour,beta,,,30,19,M,R,
465,87,3,11,3,44,36,784,['c'],1,left,['0'],6,210,[0.09121558],80,44,hard,minus,dotcolour,beta,,,30,19,M,R,
466,88,4,11,3,44,36,733,['c'],1,left,['9'],5,110,[0.05594202],51,44,hard,minus,dotcolour,beta,,,30,19,M,R,
467,89,5,11,3,47,33,733,['c'],1,left,['9'],5,213,[0.19638974],100,47,medium,minus,dotcolour,beta,,,30,19,M,R,
468,90,6,11,3,53,27,616,['c'],1,left,['0'],6,149,[0.12406929],96,53,easy,minus,dotcolour,beta,,,30,19,M,R,
469,91,7,11,3,33,47,1166,['n'],1,right,['9'],5,130,[-0.1075465],93,47,medium,minus,dotcolour,beta,,,30,19,M,R,
470,92,8,11,3,47,33,450,['c'],1,left,['0'],6,236,[0.0902401],78,47,medium,minus,dotcolour,beta,,,30,19,M,R,
471,93,9,11,3,33,47,717,['n'],1,right,['9'],5,183,[-0.0968557],85,47,medium,minus,dotcolour,beta,,,30,19,M,R,
472,94,10,11,3,27,53,684,['n'],1,right,['8'],4,206,[-0.1010577],86,53,easy,minus,dotcolour,beta,,,30,19,M,R,
473,95,11,11,3,33,47,934,['n'],1,right,['8'],4,273,[-0.03532921],33,47,medium,minus,dotcolour,beta,,,30,19,M,R,
474,96,12,11,3,36,44,900,['c'],0,right,['9'],5,275,[0.07892908],69,44,hard,minus,dotcolour,beta,,,30,19,M,R,
475,97,13,11,3,47,33,683,['c'],1,left,['9'],5,206,[0.05328085],48,47,medium,minus,dotcolour,beta,,,30,19,M,R,
476,98,14,11,3,47,33,834,['c'],1,left,['8'],4,141,[0.07825587],75,47,medium,minus,dotcolour,beta,,,30,19,M,R,
477,99,15,11,3,36,44,951,['c'],0,right,['8'],4,155,[0.04936955],43,44,hard,minus,dotcolour,beta,,,30,19,M,R,
478,100,16,11,3,27,53,867,['n'],1,right,['0'],6,211,[-0.11017276],89,53,easy,minus,dotcolour,beta,,,30,19,M,R,
479,101,17,11,3,33,47,750,['n'],1,right,['0'],6,222,[-0.13902949],96,47,medium,minus,dotcolour,beta,,,30,19,M,R,
480,102,18,11,3,27,53,783,['n'],1,right,['9'],5,199,[-0.2112615],100,53,easy,minus,dotcolour,beta,,,30,19,M,R,
481,103,19,11,3,44,36,966,['c'],1,left,['9'],5,146,[0.01884926],15,44,hard,minus,dotcolour,beta,,,30,19,M,R,
482,104,20,11,3,27,53,867,['n'],1,right,['9'],5,179,[-0.14722595],98,53,easy,minus,dotcolour,beta,,,30,19,M,R,
483,105,21,11,3,47,33,783,['c'],1,left,['0'],6,109,[0.16574064],100,47,medium,minus,dotcolour,beta,,,30,19,M,R,
484,106,22,11,3,33,47,817,['n'],1,right,['8'],4,793,[-0.17959609],92,47,medium,minus,dotcolour,beta,,,30,19,M,R,
485,107,23,11,3,44,36,600,['c'],1,left,['0'],6,210,[0.09014642],80,44,hard,minus,dotcolour,beta,,,30,19,M,R,
486,108,24,11,3,53,27,634,['c'],1,left,['0'],6,146,[0.04016544],33,53,easy,minus,dotcolour,beta,,,30,19,M,R,
487,109,25,11,3,36,44,750,['n'],1,right,['0'],6,167,[-0.06871398],64,44,hard,minus,dotcolour,beta,,,30,19,M,R,
488,110,26,11,3,27,53,1133,['n'],1,right,['0'],6,132,[-0.12278164],97,53,easy,minus,dotcolour,beta,,,30,19,M,R,
489,111,27,11,3,53,27,649,['c'],1,left,['0'],6,142,[0.16704712],100,53,easy,minus,dotcolour,beta,,,30,19,M,R,
490,112,28,11,3,44,36,934,['c'],1,left,['9'],5,220,[0.05108784],46,44,hard,minus,dotcolour,beta,,,30,19,M,R,
491,113,29,11,3,36,44,1200,['n'],1,right,['9'],5,141,[-0.10897865],93,44,hard,minus,dotcolour,beta,,,30,19,M,R,
492,114,30,11,3,36,44,1083,['n'],1,right,['3'],3,862,[-0.24508607],98,44,hard,minus,dotcolour,beta,,,30,19,M,R,
493,115,31,11,3,47,33,767,['c'],1,left,['9'],5,125,[0.07592696],74,47,medium,minus,dotcolour,beta,,,30,19,M,R,
494,116,32,11,3,53,27,617,['c'],1,left,['0'],6,201,[0.13701125],96,53,easy,minus,dotcolour,beta,,,30,19,M,R,
495,117,33,11,3,36,44,784,['n'],1,right,['8'],4,170,[0.00052792],8,44,hard,minus,dotcolour,beta,,,30,19,M,R,
496,118,34,11,3,53,27,700,['c'],1,left,['0'],6,129,[0.07245328],70,53,easy,minus,dotcolour,beta,,,30,19,M,R,
497,119,35,11,3,33,47,1100,['n'],1,right,['9'],5,385,[-0.11792767],86,47,medium,minus,dotcolour,beta,,,30,19,M,R,
498,120,36,11,3,53,27,617,['c'],1,left,['0'],6,162,[0.03519085],29,53,easy,minus,dotcolour,beta,,,30,19,M,R,
499,121,37,11,3,53,27,750,['c'],1,left,['0'],6,143,[0.09617931],87,53,easy,minus,dotcolour,beta,,,30,19,M,R,
500,122,38,11,3,33,47,967,['n'],1,right,['8'],4,308,[-0.02573239],28,47,medium,minus,dotcolour,beta,,,30,19,M,R,
501,123,39,11,3,44,36,867,['c'],1,left,['9'],5,134,[0.10079216],90,44,hard,minus,dotcolour,beta,,,30,19,M,R,
502,124,40,11,3,44,36,784,['c'],1,left,['9'],5,146,[0.10357945],91,44,hard,minus,dotcolour,beta,,,30,19,M,R,
503,125,41,11,3,47,33,699,['c'],1,left,['0'],6,146,[0.02893202],22,47,medium,minus,dotcolour,beta,,,30,19,M,R,
504,0,0,12,4,33,47,618,['n'],1,right,['9'],5,209,[-0.00384857],91,47,medium,plus,dotcolour,beta,,,30,19,M,R,
505,1,1,12,4,47,33,717,['c'],1,left,['0'],6,173,[0.06826233],100,47,medium,plus,dotcolour,beta,,,30,19,M,R,
506,2,2,12,4,53,27,550,['c'],1,left,['0'],6,152,[0.04530164],99,53,easy,plus,dotcolour,beta,,,30,19,M,R,
507,3,3,12,4,47,33,633,['c'],1,left,['0'],6,98,[0.08923274],100,47,medium,plus,dotcolour,beta,,,30,19,M,R,
508,4,4,12,4,27,53,666,['n'],1,right,['9'],5,262,[-0.07651415],99,53,easy,plus,dotcolour,beta,,,30,19,M,R,
509,5,5,12,4,27,53,734,['n'],1,right,['8'],4,183,[-0.08139002],100,53,easy,plus,dotcolour,beta,,,30,19,M,R,
510,6,6,12,4,53,27,750,['c'],1,left,['0'],6,195,[0.04846999],99,53,easy,plus,dotcolour,beta,,,30,19,M,R,
511,7,7,12,4,36,44,900,['n'],1,right,['8'],4,392,[-0.19379674],100,44,hard,plus,dotcolour,beta,,,30,19,M,R,
512,8,8,12,4,27,53,533,['n'],1,right,['9'],5,188,[-0.04855943],99,53,easy,plus,dotcolour,beta,,,30,19,M,R,
513,9,9,12,4,27,53,766,['n'],1,right,['9'],5,143,[-0.10067675],100,53,easy,plus,dotcolour,beta,,,30,19,M,R,
514,10,10,12,4,47,33,1117,['c'],1,left,['8'],4,118,[0.09651943],100,47,medium,plus,dotcolour,beta,,,30,19,M,R,
515,11,11,12,4,27,53,683,['n'],1,right,['8'],4,192,[-0.01141264],94,53,easy,plus,dotcolour,beta,,,30,19,M,R,
516,12,12,12,4,44,36,900,['c'],1,left,['9'],5,213,[0.11223239],100,44,hard,plus,dotcolour,beta,,,30,19,M,R,
517,13,13,12,4,36,44,1000,['n'],1,right,['9'],5,261,[-0.12380097],100,44,hard,plus,dotcolour,beta,,,30,19,M,R,
518,14,14,12,4,33,47,700,['n'],1,right,['8'],4,192,[-0.02203368],96,47,medium,plus,dotcolour,beta,,,30,19,M,R,
519,15,15,12,4,36,44,733,['n'],1,right,['8'],4,228,[-0.10740701],100,44,hard,plus,dotcolour,beta,,,30,19,M,R,
520,16,16,12,4,44,36,1050,['c'],1,left,['0'],6,418,[0.07504726],97,44,hard,plus,dotcolour,beta,,,30,19,M,R,
521,17,17,12,4,33,47,600,['n'],1,right,['9'],5,211,[-0.06734091],99,47,medium,plus,dotcolour,beta,,,30,19,M,R,
522,18,18,12,4,33,47,683,['n'],1,right,['9'],5,224,[-0.0198627],95,47,medium,plus,dotcolour,beta,,,30,19,M,R,
523,19,19,12,4,27,53,501,['n'],1,right,['8'],4,196,[-0.11044412],100,53,easy,plus,dotcolour,beta,,,30,19,M,R,
524,20,20,12,4,33,47,600,['n'],1,right,['9'],5,165,[-0.01323958],95,47,medium,plus,dotcolour,beta,,,30,19,M,R,
525,21,21,12,4,53,27,700,['c'],1,left,['0'],6,140,[0.09078401],100,53,easy,plus,dotcolour,beta,,,30,19,M,R,
526,22,22,12,4,53,27,750,['c'],1,left,['9'],5,153,[0.11651644],100,53,easy,plus,dotcolour,beta,,,30,19,M,R,
527,23,23,12,4,33,47,833,['n'],1,right,['8'],4,364,[-0.17854882],100,47,medium,plus,dotcolour,beta,,,30,19,M,R,
528,24,24,12,4,53,27,882,['c'],1,left,['0'],6,139,[0.07953488],100,53,easy,plus,dotcolour,beta,,,30,19,M,R,
529,25,25,12,4,47,33,700,['c'],1,left,['0'],6,107,[0.11020521],100,47,medium,plus,dotcolour,beta,,,30,19,M,R,
530,26,26,12,4,53,27,685,['c'],1,left,['0'],6,132,[0.0979192],100,53,easy,plus,dotcolour,beta,,,30,19,M,R,
531,27,27,12,4,47,33,818,['c'],1,left,['0'],6,616,[0.24644839],100,47,medium,plus,dotcolour,beta,,,30,19,M,R,
532,28,28,12,4,36,44,1050,['c'],0,right,['8'],4,1078,[-0.20618317],7,44,hard,plus,dotcolour,beta,,,30,19,M,R,
533,29,29,12,4,33,47,817,['n'],1,right,['9'],5,196,[-0.13639017],100,47,medium,plus,dotcolour,beta,,,30,19,M,R,
534,30,30,12,4,47,33,717,['c'],1,left,['0'],6,104,[0.081434],100,47,medium,plus,dotcolour,beta,,,30,19,M,R,
535,31,31,12,4,36,44,816,['n'],1,right,['9'],5,181,[-0.08249204],100,44,hard,plus,dotcolour,beta,,,30,19,M,R,
536,32,32,12,4,44,36,667,['c'],1,left,['0'],6,108,[0.07050612],100,44,hard,plus,dotcolour,beta,,,30,19,M,R,
537,33,33,12,4,47,33,1000,['n'],0,left,['9'],5,617,[-0.01611201],84,47,medium,plus,dotcolour,beta,,,30,19,M,R,
538,34,34,12,4,44,36,1084,['c'],1,left,['8'],4,174,[0.14638622],100,44,hard,plus,dotcolour,beta,,,30,19,M,R,
539,35,35,12,4,53,27,666,['c'],1,left,['0'],6,134,[0.05081547],99,53,easy,plus,dotcolour,beta,,,30,19,M,R,
540,36,36,12,4,44,36,650,['c'],1,left,['8'],4,240,[0.08326798],99,44,hard,plus,dotcolour,beta,,,30,19,M,R,
541,37,37,12,4,27,53,752,['n'],1,right,['8'],4,289,[-0.07116936],99,53,easy,plus,dotcolour,beta,,,30,19,M,R,
542,38,38,12,4,44,36,583,['c'],1,left,['9'],5,215,[0.09882759],100,44,hard,plus,dotcolour,beta,,,30,19,M,R,
543,39,39,12,4,36,44,684,['c'],0,right,['8'],4,284,[-0.03282136],68,44,hard,plus,dotcolour,beta,,,30,19,M,R,
544,40,40,12,4,36,44,1134,['n'],1,right,['8'],4,237,[-0.06682615],99,44,hard,plus,dotcolour,beta,,,30,19,M,R,
545,41,41,12,4,44,36,1067,['c'],1,left,['8'],4,674,[0.13168828],98,44,hard,plus,dotcolour,beta,,,30,19,M,R,
546,42,0,13,4,36,44,866,['c'],0,right,['8'],4,151,[0.06770925],100,44,hard,plus,dotcolour,beta,,,30,19,M,R,
547,43,1,13,4,44,36,634,['c'],1,left,['0'],6,128,[0.16186683],100,44,hard,plus,dotcolour,beta,,,30,19,M,R,
548,44,2,13,4,27,53,866,['n'],1,right,['8'],4,130,[-0.14997349],100,53,easy,plus,dotcolour,beta,,,30,19,M,R,
549,45,3,13,4,53,27,516,['c'],1,left,['0'],6,137,[0.18520777],100,53,easy,plus,dotcolour,beta,,,30,19,M,R,
550,46,4,13,4,47,33,567,['c'],1,left,['0'],6,142,[0.07618969],100,47,medium,plus,dotcolour,beta,,,30,19,M,R,
551,47,5,13,4,36,44,750,['n'],1,right,['8'],4,123,[-0.0780813],100,44,hard,plus,dotcolour,beta,,,30,19,M,R,
552,48,6,13,4,33,47,800,['n'],1,right,['8'],4,192,[-0.15637057],100,47,medium,plus,dotcolour,beta,,,30,19,M,R,
553,49,7,13,4,44,36,917,['n'],0,left,['8'],4,357,[-0.0863638],99,44,hard,plus,dotcolour,beta,,,30,19,M,R,
554,50,8,13,4,44,36,684,['c'],1,left,['0'],6,115,[0.05249551],100,44,hard,plus,dotcolour,beta,,,30,19,M,R,
555,51,9,13,4,47,33,633,['c'],1,left,['0'],6,55,[0.0871607],100,47,medium,plus,dotcolour,beta,,,30,19,M,R,
556,52,10,13,4,53,27,583,['c'],1,left,['0'],6,31,[0.08860132],100,53,easy,plus,dotcolour,beta,,,30,19,M,R,
557,53,11,13,4,53,27,668,['c'],1,left,['0'],6,100,[0.06877373],100,53,easy,plus,dotcolour,beta,,,30,19,M,R,
558,54,12,13,4,47,33,701,['c'],1,left,['0'],6,102,[0.1408347],100,47,medium,plus,dotcolour,beta,,,30,19,M,R,
559,55,13,13,4,33,47,716,['n'],1,right,['0'],6,118,[-0.08643966],100,47,medium,plus,dotcolour,beta,,,30,19,M,R,
560,56,14,13,4,27,53,833,['n'],1,right,['0'],6,82,[-0.04073298],100,53,easy,plus,dotcolour,beta,,,30,19,M,R,
561,57,15,13,4,47,33,517,['c'],1,left,['0'],6,83,[0.09385319],100,47,medium,plus,dotcolour,beta,,,30,19,M,R,
562,58,16,13,4,47,33,1250,['n'],0,left,['8'],4,87,[-0.11724402],100,47,medium,plus,dotcolour,beta,,,30,19,M,R,
563,59,17,13,4,36,44,916,['n'],1,right,['8'],4,97,[-0.07349375],100,44,hard,plus,dotcolour,beta,,,30,19,M,R,
564,60,18,13,4,33,47,967,['n'],1,right,['0'],6,135,[-0.07986467],100,47,medium,plus,dotcolour,beta,,,30,19,M,R,
565,61,19,13,4,53,27,700,['c'],1,left,['0'],6,72,[0.02211303],99,53,easy,plus,dotcolour,beta,,,30,19,M,R,
566,62,20,13,4,33,47,834,['n'],1,right,['9'],5,252,[-0.10007552],100,47,medium,plus,dotcolour,beta,,,30,19,M,R,
567,63,21,13,4,36,44,1034,['n'],1,right,['9'],5,218,[-0.04464421],98,44,hard,plus,dotcolour,beta,,,30,19,M,R,
568,64,22,13,4,27,53,633,['n'],1,right,['0'],6,170,[-0.06537516],99,53,easy,plus,dotcolour,beta,,,30,19,M,R,
569,65,23,13,4,44,36,584,['c'],1,left,['0'],6,133,[0.09516691],100,44,hard,plus,dotcolour,beta,,,30,19,M,R,
570,66,24,13,4,44,36,817,['n'],0,left,['9'],5,193,[-0.12635408],100,44,hard,plus,dotcolour,beta,,,30,19,M,R,
571,67,25,13,4,36,44,649,['n'],1,right,['0'],6,128,[-0.05117212],100,44,hard,plus,dotcolour,beta,,,30,19,M,R,
572,68,26,13,4,44,36,616,['c'],1,left,['0'],6,148,[0.08309667],100,44,hard,plus,dotcolour,beta,,,30,19,M,R,
573,69,27,13,4,27,53,1450,['n'],1,right,['8'],4,253,[-0.09328964],100,53,easy,plus,dotcolour,beta,,,30,19,M,R,
574,70,28,13,4,27,53,950,['n'],1,right,['0'],6,126,[-0.06638132],100,53,easy,plus,dotcolour,beta,,,30,19,M,R,
575,71,29,13,4,47,33,685,['c'],1,left,['0'],6,143,[0.15860816],100,47,medium,plus,dotcolour,beta,,,30,19,M,R,
576,72,30,13,4,44,36,716,['c'],1,left,['0'],6,133,[0.08202147],100,44,hard,plus,dotcolour,beta,,,30,19,M,R,
577,73,31,13,4,33,47,683,['c'],0,right,['9'],5,247,[0.03384855],96,47,medium,plus,dotcolour,beta,,,30,19,M,R,
578,74,32,13,4,27,53,667,['c'],0,right,['0'],6,106,[0.05435087],100,53,easy,plus,dotcolour,beta,,,30,19,M,R,
579,75,33,13,4,33,47,1067,['n'],1,right,['8'],4,245,[-0.02863072],96,47,medium,plus,dotcolour,beta,,,30,19,M,R,
580,76,34,13,4,27,53,867,['n'],1,right,['9'],5,193,[-0.03890756],98,53,easy,plus,dotcolour,beta,,,30,19,M,R,
581,77,35,13,4,53,27,667,['c'],1,left,['0'],6,112,[0.10204981],100,53,easy,plus,dotcolour,beta,,,30,19,M,R,
582,78,36,13,4,33,47,950,['n'],1,right,['8'],4,215,[0.06518812],41,47,medium,plus,dotcolour,beta,,,30,19,M,R,
583,79,37,13,4,47,33,766,['c'],1,left,['0'],6,113,[0.05320479],100,47,medium,plus,dotcolour,beta,,,30,19,M,R,
584,80,38,13,4,36,44,850,['n'],1,right,['8'],4,156,[-0.15050801],100,44,hard,plus,dotcolour,beta,,,30,19,M,R,
585,81,39,13,4,53,27,650,['c'],1,left,['0'],6,181,[0.02907361],97,53,easy,plus,dotcolour,beta,,,30,19,M,R,
586,82,40,13,4,53,27,633,['c'],1,left,['9'],5,205,[0.1387201],100,53,easy,plus,dotcolour,beta,,,30,19,M,R,
587,83,41,13,4,36,44,817,['n'],1,right,['8'],4,133,[-0.06192324],100,44,hard,plus,dotcolour,beta,,,30,19,M,R,
588,84,0,14,4,33,47,751,['n'],1,right,['9'],5,221,[0.00671884],87,47,medium,plus,dotcolour,beta,,,30,19,M,R,
589,85,1,14,4,33,47,600,['n'],1,right,['8'],4,133,[-0.10174513],100,47,medium,plus,dotcolour,beta,,,30,19,M,R,
590,86,2,14,4,47,33,617,['c'],1,left,['9'],5,145,[0.06642441],100,47,medium,plus,dotcolour,beta,,,30,19,M,R,
591,87,3,14,4,47,33,899,['c'],1,left,['9'],5,224,[0.06746662],99,47,medium,plus,dotcolour,beta,,,30,19,M,R,
592,88,4,14,4,53,27,1016,['c'],1,left,['8'],4,127,[0.01330539],97,53,easy,plus,dotcolour,beta,,,30,19,M,R,
593,89,5,14,4,47,33,817,['c'],1,left,['8'],4,227,[0.15734064],100,47,medium,plus,dotcolour,beta,,,30,19,M,R,
594,90,6,14,4,47,33,816,['c'],1,left,['0'],6,146,[0.16607012],100,47,medium,plus,dotcolour,beta,,,30,19,M,R,
595,91,7,14,4,53,27,766,['c'],1,left,['0'],6,94,[0.1032411],100,53,easy,plus,dotcolour,beta,,,30,19,M,R,
596,92,8,14,4,36,44,700,['n'],1,right,['9'],5,200,[-0.10571766],100,44,hard,plus,dotcolour,beta,,,30,19,M,R,
597,93,9,14,4,44,36,949,['c'],1,left,['9'],5,123,[0.04027503],99,44,hard,plus,dotcolour,beta,,,30,19,M,R,
598,94,10,14,4,33,47,1216,['n'],1,right,['8'],4,776,[-0.07355143],93,47,medium,plus,dotcolour,beta,,,30,19,M,R,
599,95,11,14,4,27,53,1050,['n'],1,right,['0'],6,183,[-0.12486641],100,53,easy,plus,dotcolour,beta,,,30,19,M,R,
600,96,12,14,4,27,53,667,['n'],1,right,['0'],6,206,[-0.0378457],98,53,easy,plus,dotcolour,beta,,,30,19,M,R,
601,97,13,14,4,36,44,750,['n'],1,right,['9'],5,241,[-0.07482149],99,44,hard,plus,dotcolour,beta,,,30,19,M,R,
602,98,14,14,4,47,33,966,['c'],1,left,['0'],6,161,[0.00325769],93,47,medium,plus,dotcolour,beta,,,30,19,M,R,
603,99,15,14,4,53,27,533,['c'],1,left,['0'],6,232,[0.2015869],100,53,easy,plus,dotcolour,beta,,,30,19,M,R,
604,100,16,14,4,53,27,1017,['c'],1,left,['0'],6,326,[0.11839882],100,53,easy,plus,dotcolour,beta,,,30,19,M,R,
605,101,17,14,4,44,36,900,['c'],1,left,['9'],5,166,[0.09729075],100,44,hard,plus,dotcolour,beta,,,30,19,M,R,
606,102,18,14,4,47,33,666,['c'],1,left,['9'],5,182,[0.11184215],100,47,medium,plus,dotcolour,beta,,,30,19,M,R,
607,103,19,14,4,36,44,850,['n'],1,right,['8'],4,222,[-0.11984505],100,44,hard,plus,dotcolour,beta,,,30,19,M,R,
608,104,20,14,4,33,47,767,['n'],1,right,['9'],5,232,[-0.11056162],100,47,medium,plus,dotcolour,beta,,,30,19,M,R,
609,105,21,14,4,33,47,633,['n'],1,right,['9'],5,198,[-0.07948505],100,47,medium,plus,dotcolour,beta,,,30,19,M,R,
610,106,22,14,4,47,33,585,['n'],0,left,['9'],5,304,[0.00363731],84,47,medium,plus,dotcolour,beta,,,30,19,M,R,
611,107,23,14,4,44,36,599,['c'],1,left,['9'],5,142,[0.02477268],98,44,hard,plus,dotcolour,beta,,,30,19,M,R,
612,108,24,14,4,36,44,767,['n'],1,right,['8'],4,186,[-0.12509452],100,44,hard,plus,dotcolour,beta,,,30,19,M,R,
613,109,25,14,4,27,53,950,['n'],1,right,['8'],4,246,[-0.08465987],99,53,easy,plus,dotcolour,beta,,,30,19,M,R,
614,110,26,14,4,36,44,1083,['c'],0,right,['9'],5,386,[0.04220863],94,44,hard,plus,dotcolour,beta,,,30,19,M,R,
615,111,27,14,4,36,44,700,['n'],1,right,['9'],5,264,[-0.10276127],100,44,hard,plus,dotcolour,beta,,,30,19,M,R,
616,112,28,14,4,44,36,1217,['n'],0,left,['8'],4,278,[-0.01369778],91,44,hard,plus,dotcolour,beta,,,30,19,M,R,
617,113,29,14,4,27,53,1066,['n'],1,right,['8'],4,498,[-0.16436613],100,53,easy,plus,dotcolour,beta,,,30,19,M,R,
618,114,30,14,4,27,53,801,['n'],1,right,['9'],5,255,[-0.10265175],100,53,easy,plus,dotcolour,beta,,,30,19,M,R,
619,115,31,14,4,44,36,816,['n'],0,left,['9'],5,261,[-0.02317911],94,44,hard,plus,dotcolour,beta,,,30,19,M,R,
620,116,32,14,4,44,36,984,['c'],1,left,['9'],5,164,[0.06869858],100,44,hard,plus,dotcolour,beta,,,30,19,M,R,
621,117,33,14,4,27,53,717,['n'],1,right,['0'],6,227,[-0.081626],99,53,easy,plus,dotcolour,beta,,,30,19,M,R,
622,118,34,14,4,53,27,667,['c'],1,left,['0'],6,128,[0.09587219],100,53,easy,plus,dotcolour,beta,,,30,19,M,R,
623,119,35,14,4,36,44,683,['n'],1,right,['9'],5,177,[-0.10545742],100,44,hard,plus,dotcolour,beta,,,30,19,M,R,
624,120,36,14,4,33,47,700,['n'],1,right,['9'],5,406,[-0.09190489],98,47,medium,plus,dotcolour,beta,,,30,19,M,R,
625,121,37,14,4,27,53,684,['n'],1,right,['0'],6,180,[-0.05022775],99,53,easy,plus,dotcolour,beta,,,30,19,M,R,
626,122,38,14,4,53,27,634,['c'],1,left,['0'],6,124,[0.12869653],100,53,easy,plus,dotcolour,beta,,,30,19,M,R,
627,123,39,14,4,33,47,484,['n'],1,right,['9'],5,189,[-0.11709354],100,47,medium,plus,dotcolour,beta,,,30,19,M,R,
628,124,40,14,4,53,27,767,['c'],1,left,['0'],6,40,[0.06031856],100,53,easy,plus,dotcolour,beta,,,30,19,M,R,
629,125,41,14,4,44,36,783,['c'],1,left,['0'],6,128,[0.07195889],100,44,hard,plus,dotcolour,beta,,,30,19,M,R,
630,0,0,15,5,27,53,601,['n'],1,right,['0'],6,154,[-0.08305718],78,53,easy,minus,dotcolour,beta,,,30,19,M,R,
631,1,1,15,5,33,47,717,['n'],1,right,['9'],5,368,[-0.17541163],97,47,medium,minus,dotcolour,beta,,,30,19,M,R,
632,2,2,15,5,27,53,667,['n'],1,right,['0'],6,144,[-0.1253727],96,53,easy,minus,dotcolour,beta,,,30,19,M,R,
633,3,3,15,5,33,47,567,['n'],1,right,['0'],6,149,[-0.12366417],96,47,medium,minus,dotcolour,beta,,,30,19,M,R,
634,4,4,15,5,44,36,800,['c'],1,left,['9'],5,264,[0.05622654],51,44,hard,minus,dotcolour,beta,,,30,19,M,R,
635,5,5,15,5,44,36,966,['n'],0,left,['0'],6,177,[-0.09838772],86,44,hard,minus,dotcolour,beta,,,30,19,M,R,
636,6,6,15,5,47,33,716,['c'],1,left,['9'],5,479,[0.2581819],99,47,medium,minus,dotcolour,beta,,,30,19,M,R,
637,7,7,15,5,44,36,916,['c'],1,left,['0'],6,135,[0.05002807],43,44,hard,minus,dotcolour,beta,,,30,19,M,R,
638,8,8,15,5,44,36,1167,['c'],1,left,['9'],5,149,[0.05427319],49,44,hard,minus,dotcolour,beta,,,30,19,M,R,
639,9,9,15,5,33,47,634,['n'],1,right,['8'],4,239,[-0.12211959],92,47,medium,minus,dotcolour,beta,,,30,19,M,R,
640,10,10,15,5,44,36,700,['c'],1,left,['9'],5,138,[0.1154793],95,44,hard,minus,dotcolour,beta,,,30,19,M,R,
641,11,11,15,5,36,44,668,['n'],1,right,['9'],5,203,[-0.14048454],97,44,hard,minus,dotcolour,beta,,,30,19,M,R,
642,12,12,15,5,47,33,650,['c'],1,left,['9'],5,155,[0.01481524],13,47,medium,minus,dotcolour,beta,,,30,19,M,R,
643,13,13,15,5,53,27,967,['c'],1,left,['0'],6,159,[0.11151774],93,53,easy,minus,dotcolour,beta,,,30,19,M,R,
644,14,14,15,5,47,33,733,['c'],1,left,['9'],5,189,[0.09679098],85,47,medium,minus,dotcolour,beta,,,30,19,M,R,
645,15,15,15,5,36,44,1050,['c'],0,right,['9'],5,228,[0.08397219],74,44,hard,minus,dotcolour,beta,,,30,19,M,R,
646,16,16,15,5,44,36,1151,['c'],1,left,['0'],6,174,[0.05432005],49,44,hard,minus,dotcolour,beta,,,30,19,M,R,
647,17,17,15,5,36,44,1818,['c'],0,right,['9'],5,2071,[0.00648049],35,44,hard,minus,dotcolour,beta,,,30,19,M,R,
648,18,18,15,5,36,44,617,['n'],1,right,['9'],5,181,[-0.0791013],73,44,hard,minus,dotcolour,beta,,,30,19,M,R,
649,19,19,15,5,47,33,617,['c'],1,left,['0'],6,150,[0.06736788],63,47,medium,minus,dotcolour,beta,,,30,19,M,R,
650,20,20,15,5,53,27,601,['c'],1,left,['0'],6,153,[0.10604895],91,53,easy,minus,dotcolour,beta,,,30,19,M,R,
651,21,21,15,5,44,36,983,['n'],0,left,['9'],5,206,[-0.07222545],66,44,hard,minus,dotcolour,beta,,,30,19,M,R,
652,22,22,15,5,27,53,566,['c'],0,right,['1'],1,1119,[-0.14681375],3,53,easy,minus,dotcolour,beta,,,30,19,M,R,
653,23,23,15,5,27,53,750,['n'],1,right,['9'],5,222,[-0.04628078],41,53,easy,minus,dotcolour,beta,,,30,19,M,R,
654,24,24,15,5,36,44,1066,['n'],1,right,['9'],5,227,[0.03620653],3,44,hard,minus,dotcolour,beta,,,30,19,M,R,
655,25,25,15,5,47,33,1034,['c'],1,left,['0'],6,362,[0.17876013],98,47,medium,minus,dotcolour,beta,,,30,19,M,R,
656,26,26,15,5,53,27,701,['c'],1,left,['0'],6,129,[0.13393912],98,53,easy,minus,dotcolour,beta,,,30,19,M,R,
657,27,27,15,5,27,53,750,['n'],1,right,['9'],5,223,[-0.14999053],97,53,easy,minus,dotcolour,beta,,,30,19,M,R,
658,28,28,15,5,53,27,767,['c'],1,left,['0'],6,160,[0.10412249],90,53,easy,minus,dotcolour,beta,,,30,19,M,R,
659,29,29,15,5,53,27,584,['c'],1,left,['0'],6,155,[0.11695139],94,53,easy,minus,dotcolour,beta,,,30,19,M,R,
660,30,30,15,5,47,33,983,['c'],1,left,['9'],5,223,[0.1128032],90,47,medium,minus,dotcolour,beta,,,30,19,M,R,
661,31,31,15,5,33,47,867,['n'],1,right,['8'],4,268,[-0.10421207],84,47,medium,minus,dotcolour,beta,,,30,19,M,R,
662,32,32,15,5,47,33,767,['c'],1,left,['9'],5,188,[0.02072874],19,47,medium,minus,dotcolour,beta,,,30,19,M,R,
663,33,33,15,5,53,27,868,['c'],1,left,['0'],6,164,[0.11761797],94,53,easy,minus,dotcolour,beta,,,30,19,M,R,
664,34,34,15,5,27,53,1383,['n'],1,right,['8'],4,439,[-0.11415566],83,53,easy,minus,dotcolour,beta,,,30,19,M,R,
665,35,35,15,5,36,44,1601,['n'],1,right,['9'],5,270,[-0.08056635],70,44,hard,minus,dotcolour,beta,,,30,19,M,R,
666,36,36,15,5,33,47,633,['n'],1,right,['9'],5,203,[-0.12633665],94,47,medium,minus,dotcolour,beta,,,30,19,M,R,
667,37,37,15,5,33,47,650,['n'],1,right,['9'],5,203,[-0.08204042],74,47,medium,minus,dotcolour,beta,,,30,19,M,R,
668,38,38,15,5,33,47,650,['n'],1,right,['9'],5,194,[-0.12017538],93,47,medium,minus,dotcolour,beta,,,30,19,M,R,
669,39,39,15,5,27,53,1134,['n'],1,right,['0'],6,207,[-0.12643634],94,53,easy,minus,dotcolour,beta,,,30,19,M,R,
670,40,40,15,5,53,27,1450,['c'],1,left,['8'],4,205,[0.04299282],38,53,easy,minus,dotcolour,beta,,,30,19,M,R,
671,41,41,15,5,36,44,733,['n'],1,right,['9'],5,225,[-0.14271371],96,44,hard,minus,dotcolour,beta,,,30,19,M,R,
672,42,0,16,5,53,27,984,['c'],1,left,['0'],6,178,[0.15657467],99,53,easy,minus,dotcolour,beta,,,30,19,M,R,
673,43,1,16,5,36,44,817,['n'],1,right,['9'],5,275,[-0.17728169],98,44,hard,minus,dotcolour,beta,,,30,19,M,R,
674,44,2,16,5,44,36,700,['c'],1,left,['0'],6,213,[0.08105092],73,44,hard,minus,dotcolour,beta,,,30,19,M,R,
675,45,3,16,5,36,44,1116,['n'],1,right,['9'],5,225,[-0.04183318],37,44,hard,minus,dotcolour,beta,,,30,19,M,R,
676,46,4,16,5,53,27,516,['c'],1,left,['0'],6,196,[0.16743402],99,53,easy,minus,dotcolour,beta,,,30,19,M,R,
677,47,5,16,5,44,36,667,['c'],1,left,['9'],5,179,[0.11270596],92,44,hard,minus,dotcolour,beta,,,30,19,M,R,
678,48,6,16,5,33,47,650,['n'],1,right,['8'],4,235,[-0.07761513],69,47,medium,minus,dotcolour,beta,,,30,19,M,R,
679,49,7,16,5,27,53,650,['n'],1,right,['9'],5,225,[-0.18783011],99,53,easy,minus,dotcolour,beta,,,30,19,M,R,
680,50,8,16,5,53,27,684,['c'],1,left,['0'],6,94,[0.11570755],97,53,easy,minus,dotcolour,beta,,,30,19,M,R,
681,51,9,16,5,33,47,850,['n'],1,right,['8'],4,329,[-0.0257357],28,47,medium,minus,dotcolour,beta,,,30,19,M,R,
682,52,10,16,5,53,27,634,['c'],1,left,['0'],6,212,[0.17863202],99,53,easy,minus,dotcolour,beta,,,30,19,M,R,
683,53,11,16,5,33,47,583,['n'],1,right,['8'],4,229,[-0.15630134],98,47,medium,minus,dotcolour,beta,,,30,19,M,R,
684,54,12,16,5,44,36,784,['c'],1,left,['0'],6,174,[0.09201745],83,44,hard,minus,dotcolour,beta,,,30,19,M,R,
685,55,13,16,5,27,53,734,['n'],1,right,['8'],4,170,[-0.12378593],95,53,easy,minus,dotcolour,beta,,,30,19,M,R,
686,56,14,16,5,36,44,683,['n'],1,right,['8'],4,122,[-0.05698848],52,44,hard,minus,dotcolour,beta,,,30,19,M,R,
687,57,15,16,5,47,33,834,['c'],1,left,['0'],6,125,[0.10566006],93,47,medium,minus,dotcolour,beta,,,30,19,M,R,
688,58,16,16,5,47,33,617,['c'],1,left,['0'],6,120,[0.05435511],48,47,medium,minus,dotcolour,beta,,,30,19,M,R,
689,59,17,16,5,53,27,917,['c'],1,left,['9'],5,145,[0.09399585],86,53,easy,minus,dotcolour,beta,,,30,19,M,R,
690,60,18,16,5,47,33,517,['c'],1,left,['9'],5,199,[0.0954665],83,47,medium,minus,dotcolour,beta,,,30,19,M,R,
691,61,19,16,5,44,36,784,['n'],0,left,['8'],4,233,[-0.10818499],88,44,hard,minus,dotcolour,beta,,,30,19,M,R,
692,62,20,16,5,27,53,499,['n'],1,right,['9'],5,206,[-0.1475121],97,53,easy,minus,dotcolour,beta,,,30,19,M,R,
693,63,21,16,5,33,47,950,['n'],1,right,['9'],5,168,[-0.05447721],49,47,medium,minus,dotcolour,beta,,,30,19,M,R,
694,64,22,16,5,33,47,850,['n'],1,right,['8'],4,49,[-0.07324103],81,47,medium,minus,dotcolour,beta,,,30,19,M,R,
695,65,23,16,5,47,33,717,['c'],1,left,['0'],6,124,[0.08357728],81,47,medium,minus,dotcolour,beta,,,30,19,M,R,
696,66,24,16,5,44,36,733,['n'],0,left,['8'],4,179,[-0.06185217],57,44,hard,minus,dotcolour,beta,,,30,19,M,R,
697,67,25,16,5,33,47,667,['n'],1,right,['9'],5,178,[-0.09214408],83,47,medium,minus,dotcolour,beta,,,30,19,M,R,
698,68,26,16,5,36,44,1200,['n'],1,right,['8'],4,260,[-0.07037509],63,44,hard,minus,dotcolour,beta,,,30,19,M,R,
699,69,27,16,5,36,44,750,['c'],0,right,['9'],5,156,[0.0813513],76,44,hard,minus,dotcolour,beta,,,30,19,M,R,
700,70,28,16,5,53,27,683,['c'],1,left,['0'],6,124,[0.14265334],99,53,easy,minus,dotcolour,beta,,,30,19,M,R,
701,71,29,16,5,44,36,1334,['c'],1,left,['9'],5,122,[0.10497364],93,44,hard,minus,dotcolour,beta,,,30,19,M,R,
702,72,30,16,5,47,33,1200,['c'],1,left,['0'],6,111,[0.06940699],68,47,medium,minus,dotcolour,beta,,,30,19,M,R,
703,73,31,16,5,36,44,818,['n'],1,right,['8'],4,147,[-0.05119388],45,44,hard,minus,dotcolour,beta,,,30,19,M,R,
704,74,32,16,5,36,44,684,['n'],1,right,['8'],4,195,[-0.02828566],25,44,hard,minus,dotcolour,beta,,,30,19,M,R,
705,75,33,16,5,27,53,732,['n'],1,right,['8'],4,751,[-0.07401795],59,53,easy,minus,dotcolour,beta,,,30,19,M,R,
706,76,34,16,5,27,53,684,['n'],1,right,['9'],5,190,[-0.04734],42,53,easy,minus,dotcolour,beta,,,30,19,M,R,
707,77,35,16,5,47,33,866,['c'],1,left,['0'],6,133,[0.04948576],43,47,medium,minus,dotcolour,beta,,,30,19,M,R,
708,78,36,16,5,53,27,1050,['c'],1,left,['9'],5,175,[0.09840666],86,53,easy,minus,dotcolour,beta,,,30,19,M,R,
709,79,37,16,5,27,53,601,['n'],1,right,['9'],5,169,[-0.11391072],93,53,easy,minus,dotcolour,beta,,,30,19,M,R,
710,80,38,16,5,47,33,834,['c'],1,left,['0'],6,114,[0.0615415],58,47,medium,minus,dotcolour,beta,,,30,19,M,R,
711,81,39,16,5,44,36,882,['n'],0,left,['8'],4,164,[-0.0989672],87,44,hard,minus,dotcolour,beta,,,30,19,M,R,
712,82,40,16,5,27,53,633,['n'],1,right,['9'],5,253,[-0.21127287],100,53,easy,minus,dotcolour,beta,,,30,19,M,R,
713,83,41,16,5,33,47,433,['n'],1,right,['9'],5,171,[-0.05457184],49,47,medium,minus,dotcolour,beta,,,30,19,M,R,
714,84,0,17,5,53,27,734,['c'],1,left,['0'],6,182,[0.13954568],97,53,easy,minus,dotcolour,beta,,,30,19,M,R,
715,85,1,17,5,33,47,550,['n'],1,right,['8'],4,162,[-0.11204271],93,47,medium,minus,dotcolour,beta,,,30,19,M,R,
716,86,2,17,5,44,36,734,['c'],1,left,['9'],5,111,[0.11761188],97,44,hard,minus,dotcolour,beta,,,30,19,M,R,
717,87,3,17,5,53,27,601,['c'],1,left,['0'],6,124,[0.08024411],78,53,easy,minus,dotcolour,beta,,,30,19,M,R,
718,88,4,17,5,47,33,684,['c'],1,left,['9'],5,212,[0.12833203],95,47,medium,minus,dotcolour,beta,,,30,19,M,R,
719,89,5,17,5,27,53,517,['n'],1,right,['8'],4,128,[-0.1001028],90,53,easy,minus,dotcolour,beta,,,30,19,M,R,
720,90,6,17,5,36,44,417,['n'],1,right,['9'],5,196,[-0.13096439],96,44,hard,minus,dotcolour,beta,,,30,19,M,R,
721,91,7,17,5,36,44,633,['n'],1,right,['9'],5,180,[-0.07741631],72,44,hard,minus,dotcolour,beta,,,30,19,M,R,
722,92,8,17,5,47,33,617,['c'],1,left,['0'],6,165,[0.09884853],87,47,medium,minus,dotcolour,beta,,,30,19,M,R,
723,93,9,17,5,27,53,617,['n'],1,right,['9'],5,167,[-0.01611547],15,53,easy,minus,dotcolour,beta,,,30,19,M,R,
724,94,10,17,5,44,36,716,['c'],1,left,['9'],5,125,[0.00286992],6,44,hard,minus,dotcolour,beta,,,30,19,M,R,
725,95,11,17,5,27,53,516,['n'],1,right,['9'],5,221,[-0.06334899],57,53,easy,minus,dotcolour,beta,,,30,19,M,R,
726,96,12,17,5,36,44,850,['n'],1,right,['9'],5,163,[-0.12165898],95,44,hard,minus,dotcolour,beta,,,30,19,M,R,
727,97,13,17,5,33,47,600,['n'],1,right,['0'],6,166,[-0.09070251],83,47,medium,minus,dotcolour,beta,,,30,19,M,R,
728,98,14,17,5,36,44,666,['n'],1,right,['9'],5,230,[-0.09620862],82,44,hard,minus,dotcolour,beta,,,30,19,M,R,
729,99,15,17,5,44,36,883,['c'],1,left,['8'],4,323,[0.1013796],81,44,hard,minus,dotcolour,beta,,,30,19,M,R,
730,100,16,17,5,27,53,684,['n'],1,right,['9'],5,188,[-0.18861669],100,53,easy,minus,dotcolour,beta,,,30,19,M,R,
731,101,17,17,5,33,47,968,['n'],1,right,['9'],5,183,[-0.07353165],68,47,medium,minus,dotcolour,beta,,,30,19,M,R,
732,102,18,17,5,44,36,617,['c'],1,left,['0'],6,176,[0.04448905],38,44,hard,minus,dotcolour,beta,,,30,19,M,R,
733,103,19,17,5,53,27,883,['c'],1,left,['0'],6,207,[0.11962802],93,53,easy,minus,dotcolour,beta,,,30,19,M,R,
734,104,20,17,5,47,33,751,['c'],1,left,['9'],5,338,[0.08638358],72,47,medium,minus,dotcolour,beta,,,30,19,M,R,
735,105,21,17,5,53,27,516,['c'],1,left,['0'],6,217,[0.08992211],79,53,easy,minus,dotcolour,beta,,,30,19,M,R,
736,106,22,17,5,36,44,668,['n'],1,right,['9'],5,175,[-0.08484281],78,44,hard,minus,dotcolour,beta,,,30,19,M,R,
737,107,23,17,5,36,44,634,['n'],1,right,['8'],4,143,[-0.09666274],88,44,hard,minus,dotcolour,beta,,,30,19,M,R,
738,108,24,17,5,36,44,600,['c'],0,right,['9'],5,163,[0.08600199],80,44,hard,minus,dotcolour,beta,,,30,19,M,R,
739,109,25,17,5,33,47,700,['n'],1,right,['8'],4,177,[0.02593973],3,47,medium,minus,dotcolour,beta,,,30,19,M,R,
740,110,26,17,5,33,47,533,['n'],1,right,['9'],5,150,[-0.08728412],81,47,medium,minus,dotcolour,beta,,,30,19,M,R,
741,111,27,17,5,47,33,700,['c'],1,left,['0'],6,150,[0.13095825],97,47,medium,minus,dotcolour,beta,,,30,19,M,R,
742,112,28,17,5,27,53,584,['n'],1,right,['9'],5,177,[-0.07803337],72,53,easy,minus,dotcolour,beta,,,30,19,M,R,
743,113,29,17,5,27,53,768,['n'],1,right,['8'],4,165,[-0.16854651],99,53,easy,minus,dotcolour,beta,,,30,19,M,R,
744,114,30,17,5,27,53,599,['n'],1,right,['8'],4,136,[-0.13396216],98,53,easy,minus,dotcolour,beta,,,30,19,M,R,
745,115,31,17,5,44,36,583,['c'],1,left,['0'],6,228,[0.09034929],79,44,hard,minus,dotcolour,beta,,,30,19,M,R,
746,116,32,17,5,33,47,434,['n'],1,right,['9'],5,227,[0.01377791],7,47,medium,minus,dotcolour,beta,,,30,19,M,R,
747,117,33,17,5,53,27,650,['c'],1,left,['0'],6,121,[0.09849556],90,53,easy,minus,dotcolour,beta,,,30,19,M,R,
748,118,34,17,5,44,36,649,['c'],1,left,['9'],5,124,[0.02175341],15,44,hard,minus,dotcolour,beta,,,30,19,M,R,
749,119,35,17,5,53,27,549,['c'],1,left,['0'],6,242,[0.11928906],91,53,easy,minus,dotcolour,beta,,,30,19,M,R,
750,120,36,17,5,33,47,450,['n'],1,right,['9'],5,135,[-0.05554101],50,47,medium,minus,dotcolour,beta,,,30,19,M,R,
751,121,37,17,5,47,33,367,['c'],1,left,['9'],5,188,[0.04705018],41,47,medium,minus,dotcolour,beta,,,30,19,M,R,
752,122,38,17,5,53,27,401,['n'],0,left,['1'],1,678,[0.09835374],3,53,easy,minus,dotcolour,beta,,,30,19,M,R,
753,123,39,17,5,47,33,1417,['c'],1,left,['0'],6,43,[0.08295559],92,47,medium,minus,dotcolour,beta,,,30,19,M,R,
754,124,40,17,5,47,33,650,['c'],1,left,['0'],6,89,[0.0739244],75,47,medium,minus,dotcolour,beta,,,30,19,M,R,
755,125,41,17,5,44,36,583,['c'],1,left,['3'],3,1320,[-0.0852808],10,44,hard,minus,dotcolour,beta,,,30,19,M,R,
,,,,,,,,,,,,,,,,,,,,,1," elke keer als je zeker fout drukte kwam er een heel laag percentage op het sch
erm",30,19,M,R,
,,,,,,,,,,,,,,,,,,,,,2,['f'],30,19,M,R,
,,,,,,,,,,,,,,,,,,,,,3,['g'],30,19,M,R,
,,,,,,,,,,,,,,,,,,,,,5,['3'],30,19,M,R,
