trial,withinphasetrial,withinblocktrial,block,phase,dotsLeft,dotsRight,rt,resp,cor,cresp,conf_press,cj,RTconf,ev,fb,diff,difflevel,condition,task,manip,questionID,questionResp,sub,age,gender,handedness,
0,0,0,0,0,53,27,2036,['c'],1,left,['2'],5,1751,[0.27242272],95,53,easy,minus,dotcolour,beta,,,69,19,V,R,
1,1,1,0,0,53,27,1818,['c'],1,left,['2'],5,1741,[0.48922684],100,53,easy,minus,dotcolour,beta,,,69,19,V,R,
2,2,2,0,0,53,27,1485,['c'],1,left,['2'],5,1367,[0.05729194],51,53,easy,minus,dotcolour,beta,,,69,19,V,R,
3,3,3,0,0,44,36,2133,['c'],1,left,['3'],4,736,[0.15940992],90,44,hard,minus,dotcolour,beta,,,69,19,V,R,
4,4,4,0,0,44,36,3334,['c'],1,left,['2'],5,353,[0.08309546],70,44,hard,minus,dotcolour,beta,,,69,19,V,R,
5,5,5,0,0,44,36,1903,['n'],0,left,['9'],2,309,[-0.01726221],22,44,hard,minus,dotcolour,beta,,,69,19,V,R,
6,6,6,0,0,47,33,1832,['n'],0,left,['8'],3,517,[-0.08063716],65,47,medium,minus,dotcolour,beta,,,69,19,V,R,
7,7,7,0,0,27,53,1133,['n'],1,right,['0'],1,465,[-0.27699437],100,53,easy,minus,dotcolour,beta,,,69,19,V,R,
8,8,8,0,0,33,47,1101,['n'],1,right,['3'],4,1121,[-0.19190494],91,47,medium,minus,dotcolour,beta,,,69,19,V,R,
9,9,9,0,0,33,47,1252,['n'],1,right,['1'],6,319,[-0.12198511],89,47,medium,minus,dotcolour,beta,,,69,19,V,R,
10,10,10,0,0,33,47,967,['n'],1,right,['2'],5,306,[0.00349215],13,47,medium,minus,dotcolour,beta,,,69,19,V,R,
11,11,11,0,0,47,33,1066,['c'],1,left,['2'],5,1097,[0.36689085],100,47,medium,minus,dotcolour,beta,,,69,19,V,R,
12,12,12,0,0,44,36,1384,['c'],1,left,['3'],4,764,[0.10852849],75,44,hard,minus,dotcolour,beta,,,69,19,V,R,
13,13,13,0,0,47,33,1767,['c'],1,left,['3'],4,445,[0.12957827],88,47,medium,minus,dotcolour,beta,,,69,19,V,R,
14,14,14,0,0,33,47,1233,['n'],1,right,['8'],3,319,[-0.18310526],98,47,medium,minus,dotcolour,beta,,,69,19,V,R,
15,15,15,0,0,36,44,1450,['n'],1,right,['1'],6,559,[-0.12683073],85,44,hard,minus,dotcolour,beta,,,69,19,V,R,
16,16,16,0,0,36,44,1017,['n'],1,right,['2'],5,334,[-0.02831161],30,44,hard,minus,dotcolour,beta,,,69,19,V,R,
17,17,17,0,0,44,36,1116,['n'],0,left,['3'],4,458,[-0.02094994],28,44,hard,minus,dotcolour,beta,,,69,19,V,R,
18,18,18,0,0,27,53,783,['n'],1,right,['1'],6,512,[-0.21171591],98,53,easy,minus,dotcolour,beta,,,69,19,V,R,
19,19,19,0,0,53,27,1469,['c'],1,left,['2'],5,351,[0.18611564],98,53,easy,minus,dotcolour,beta,,,69,19,V,R,
20,20,20,0,0,47,33,1251,['c'],1,left,['2'],5,388,[0.04155812],40,47,medium,minus,dotcolour,beta,,,69,19,V,R,
21,21,21,0,0,27,53,1251,['n'],1,right,['1'],6,625,[-0.05868561],52,53,easy,minus,dotcolour,beta,,,69,19,V,R,
22,22,22,0,0,27,53,966,['n'],1,right,['1'],6,200,[-0.12843056],95,53,easy,minus,dotcolour,beta,,,69,19,V,R,
23,23,23,0,0,36,44,1652,['n'],1,right,['2'],5,212,[0.01564429],6,44,hard,minus,dotcolour,beta,,,69,19,V,R,
24,24,24,0,0,47,33,867,['c'],1,left,['3'],4,480,[0.0907498],71,47,medium,minus,dotcolour,beta,,,69,19,V,R,
25,25,25,0,0,36,44,901,['n'],1,right,['3'],4,559,[-0.17144694],94,44,hard,minus,dotcolour,beta,,,69,19,V,R,
26,26,26,0,0,53,27,1017,['c'],1,left,['1'],6,1087,[0.38473993],100,53,easy,minus,dotcolour,beta,,,69,19,V,R,
27,27,27,0,0,33,47,850,['n'],1,right,['1'],6,415,[-0.12021233],86,47,medium,minus,dotcolour,beta,,,69,19,V,R,
28,28,28,0,0,44,36,1418,['c'],1,left,['3'],4,468,[0.05270502],48,44,hard,minus,dotcolour,beta,,,69,19,V,R,
29,29,29,0,0,36,44,917,['n'],1,right,['3'],4,243,[-0.1135161],89,44,hard,minus,dotcolour,beta,,,69,19,V,R,
30,30,30,0,0,47,33,1518,['c'],1,left,['2'],5,403,[0.24478645],100,47,medium,minus,dotcolour,beta,,,69,19,V,R,
31,31,31,0,0,27,53,1035,['n'],1,right,['3'],4,335,[-0.21194759],99,53,easy,minus,dotcolour,beta,,,69,19,V,R,
32,32,32,0,0,53,27,1000,['c'],1,left,['2'],5,289,[0.18829172],99,53,easy,minus,dotcolour,beta,,,69,19,V,R,
33,33,33,0,0,44,36,1100,['c'],1,left,['3'],4,320,[0.14941049],95,44,hard,minus,dotcolour,beta,,,69,19,V,R,
34,34,34,0,0,36,44,1166,['n'],1,right,['3'],4,274,[-0.09695798],81,44,hard,minus,dotcolour,beta,,,69,19,V,R,
35,35,35,0,0,33,47,949,['n'],1,right,['3'],4,256,[-0.11986404],91,47,medium,minus,dotcolour,beta,,,69,19,V,R,
36,36,36,0,0,53,27,783,['c'],1,left,['2'],5,357,[0.11908181],87,53,easy,minus,dotcolour,beta,,,69,19,V,R,
37,37,37,0,0,27,53,933,['n'],1,right,['3'],4,352,[-0.12094432],88,53,easy,minus,dotcolour,beta,,,69,19,V,R,
38,38,38,0,0,36,44,967,['c'],0,right,['2'],5,762,[-0.06832964],7,44,hard,minus,dotcolour,beta,,,69,19,V,R,
39,39,39,0,0,27,53,882,['n'],1,right,['3'],4,199,[-0.11314061],91,53,easy,minus,dotcolour,beta,,,69,19,V,R,
40,40,40,0,0,33,47,1817,['n'],1,right,['3'],4,413,[-0.16429043],95,47,medium,minus,dotcolour,beta,,,69,19,V,R,
41,41,41,0,0,47,33,900,['c'],1,left,['3'],4,262,[0.1202522],91,47,medium,minus,dotcolour,beta,,,69,19,V,R,
42,42,0,1,0,53,27,985,['c'],1,left,['3'],4,221,[0.10638137],88,53,easy,minus,dotcolour,beta,,,69,19,V,R,
43,43,1,1,0,44,36,1234,['c'],1,left,['3'],4,282,[0.04110796],38,44,hard,minus,dotcolour,beta,,,69,19,V,R,
44,44,2,1,0,53,27,899,['c'],1,left,['2'],5,330,[0.09894889],80,53,easy,minus,dotcolour,beta,,,69,19,V,R,
45,45,3,1,0,33,47,984,['n'],1,right,['3'],4,292,[-0.1735046],98,47,medium,minus,dotcolour,beta,,,69,19,V,R,
46,46,4,1,0,36,44,1050,['n'],1,right,['3'],4,237,[-0.04482003],40,44,hard,minus,dotcolour,beta,,,69,19,V,R,
47,47,5,1,0,27,53,816,['n'],1,right,['1'],6,682,[-0.18951399],95,53,easy,minus,dotcolour,beta,,,69,19,V,R,
48,48,6,1,0,44,36,1000,['c'],1,left,['3'],4,293,[0.11607281],88,44,hard,minus,dotcolour,beta,,,69,19,V,R,
49,49,7,1,0,36,44,3035,['c'],0,right,['3'],4,260,[0.01122222],17,44,hard,minus,dotcolour,beta,,,69,19,V,R,
50,50,8,1,0,53,27,1301,['c'],1,left,['3'],4,325,[0.00950432],19,53,easy,minus,dotcolour,beta,,,69,19,V,R,
51,51,9,1,0,53,27,784,['c'],1,left,['1'],6,567,[0.22674055],98,53,easy,minus,dotcolour,beta,,,69,19,V,R,
52,52,10,1,0,47,33,1000,['n'],0,left,['3'],4,159,[-0.0291113],23,47,medium,minus,dotcolour,beta,,,69,19,V,R,
53,53,11,1,0,33,47,1217,['n'],1,right,['3'],4,350,[-0.09493637],77,47,medium,minus,dotcolour,beta,,,69,19,V,R,
54,54,12,1,0,53,27,883,['c'],1,left,['1'],6,372,[0.04010328],39,53,easy,minus,dotcolour,beta,,,69,19,V,R,
55,55,13,1,0,53,27,1083,['c'],1,left,['3'],4,336,[0.16046032],96,53,easy,minus,dotcolour,beta,,,69,19,V,R,
56,56,14,1,0,44,36,933,['c'],1,left,['3'],4,260,[0.13708916],95,44,hard,minus,dotcolour,beta,,,69,19,V,R,
57,57,15,1,0,27,53,850,['n'],1,right,['3'],4,254,[-0.18165916],99,53,easy,minus,dotcolour,beta,,,69,19,V,R,
58,58,16,1,0,36,44,1468,['c'],0,right,['3'],4,281,[0.03532507],33,44,hard,minus,dotcolour,beta,,,69,19,V,R,
59,59,17,1,0,47,33,933,['c'],1,left,['3'],4,230,[0.05906744],53,47,medium,minus,dotcolour,beta,,,69,19,V,R,
60,60,18,1,0,44,36,985,['c'],1,left,['3'],4,597,[0.07185709],59,44,hard,minus,dotcolour,beta,,,69,19,V,R,
61,61,19,1,0,47,33,781,['c'],1,left,['3'],4,244,[0.07557127],67,47,medium,minus,dotcolour,beta,,,69,19,V,R,
62,62,20,1,0,36,44,1017,['c'],0,right,['3'],4,312,[0.09009975],75,44,hard,minus,dotcolour,beta,,,69,19,V,R,
63,63,21,1,0,27,53,1034,['n'],1,right,['3'],4,313,[-0.23423352],100,53,easy,minus,dotcolour,beta,,,69,19,V,R,
64,64,22,1,0,44,36,866,['c'],1,left,['2'],5,481,[0.13062942],88,44,hard,minus,dotcolour,beta,,,69,19,V,R,
65,65,23,1,0,44,36,1733,['c'],1,left,['2'],5,430,[0.07414312],62,44,hard,minus,dotcolour,beta,,,69,19,V,R,
66,66,24,1,0,36,44,1251,['c'],0,right,['2'],5,281,[0.01618064],21,44,hard,minus,dotcolour,beta,,,69,19,V,R,
67,67,25,1,0,36,44,1300,['n'],1,right,['3'],4,209,[-0.01204587],15,44,hard,minus,dotcolour,beta,,,69,19,V,R,
68,68,26,1,0,27,53,1250,['n'],1,right,['3'],4,413,[-0.09258092],74,53,easy,minus,dotcolour,beta,,,69,19,V,R,
69,69,27,1,0,36,44,1183,['c'],0,right,['3'],4,275,[0.07219282],64,44,hard,minus,dotcolour,beta,,,69,19,V,R,
70,70,28,1,0,44,36,1651,['c'],1,left,['2'],5,324,[-0.00699255],12,44,hard,minus,dotcolour,beta,,,69,19,V,R,
71,71,29,1,0,47,33,950,['c'],1,left,['3'],4,288,[0.06423045],57,47,medium,minus,dotcolour,beta,,,69,19,V,R,
72,72,30,1,0,33,47,1132,['n'],1,right,['3'],4,2975,[-0.42941169],98,47,medium,minus,dotcolour,beta,,,69,19,V,R,
73,73,31,1,0,53,27,850,['c'],1,left,['2'],5,329,[0.10296394],82,53,easy,minus,dotcolour,beta,,,69,19,V,R,
74,74,32,1,0,33,47,1418,['n'],1,right,['3'],4,289,[-0.11131514],87,47,medium,minus,dotcolour,beta,,,69,19,V,R,
75,75,33,1,0,27,53,916,['n'],1,right,['3'],4,159,[-0.10008482],88,53,easy,minus,dotcolour,beta,,,69,19,V,R,
76,76,34,1,0,27,53,818,['n'],1,right,['1'],6,399,[-0.03750177],37,53,easy,minus,dotcolour,beta,,,69,19,V,R,
77,77,35,1,0,47,33,833,['c'],1,left,['1'],6,612,[0.0736145],60,47,medium,minus,dotcolour,beta,,,69,19,V,R,
78,78,36,1,0,47,33,1999,['n'],0,left,['3'],4,233,[-0.0593044],53,47,medium,minus,dotcolour,beta,,,69,19,V,R,
79,79,37,1,0,27,53,867,['n'],1,right,['3'],4,252,[-0.06517069],59,53,easy,minus,dotcolour,beta,,,69,19,V,R,
80,80,38,1,0,33,47,1035,['n'],1,right,['1'],6,320,[-0.10189413],81,47,medium,minus,dotcolour,beta,,,69,19,V,R,
81,81,39,1,0,33,47,1035,['n'],1,right,['2'],5,408,[-0.16010248],95,47,medium,minus,dotcolour,beta,,,69,19,V,R,
82,82,40,1,0,33,47,867,['n'],1,right,['2'],5,476,[-0.08117715],66,47,medium,minus,dotcolour,beta,,,69,19,V,R,
83,83,41,1,0,47,33,1067,['c'],1,left,['2'],5,325,[0.11250582],86,47,medium,minus,dotcolour,beta,,,69,19,V,R,
84,84,0,2,0,44,36,1168,['c'],1,left,['3'],4,246,[-0.00196779],11,44,hard,minus,dotcolour,beta,,,69,19,V,R,
85,85,1,2,0,53,27,1051,['c'],1,left,['2'],5,328,[0.23682207],100,53,easy,minus,dotcolour,beta,,,69,19,V,R,
86,86,2,2,0,33,47,1701,['c'],0,right,['3'],4,221,[0.05489047],49,47,medium,minus,dotcolour,beta,,,69,19,V,R,
87,87,3,2,0,53,27,917,['c'],1,left,['2'],5,295,[0.14232498],95,53,easy,minus,dotcolour,beta,,,69,19,V,R,
88,88,4,2,0,33,47,1067,['n'],1,right,['3'],4,183,[-0.1130198],92,47,medium,minus,dotcolour,beta,,,69,19,V,R,
89,89,5,2,0,47,33,850,['c'],1,left,['1'],6,261,[0.14977934],97,47,medium,minus,dotcolour,beta,,,69,19,V,R,
90,90,6,2,0,44,36,850,['c'],1,left,['2'],5,239,[0.05234189],47,44,hard,minus,dotcolour,beta,,,69,19,V,R,
91,91,7,2,0,36,44,833,['n'],1,right,['2'],5,355,[-0.11737685],87,44,hard,minus,dotcolour,beta,,,69,19,V,R,
92,92,8,2,0,33,47,934,['n'],1,right,['1'],6,246,[-0.04450707],40,47,medium,minus,dotcolour,beta,,,69,19,V,R,
93,93,9,2,0,27,53,1033,['n'],1,right,['2'],5,282,[-0.17580443],98,53,easy,minus,dotcolour,beta,,,69,19,V,R,
94,94,10,2,0,36,44,799,['n'],1,right,['2'],5,269,[-0.03539771],33,44,hard,minus,dotcolour,beta,,,69,19,V,R,
95,95,11,2,0,47,33,967,['c'],1,left,['1'],6,380,[0.12851961],89,47,medium,minus,dotcolour,beta,,,69,19,V,R,
96,96,12,2,0,53,27,867,['c'],1,left,['1'],6,224,[0.03595477],32,53,easy,minus,dotcolour,beta,,,69,19,V,R,
97,97,13,2,0,47,33,1069,['c'],1,left,['1'],6,227,[0.10563752],87,47,medium,minus,dotcolour,beta,,,69,19,V,R,
98,98,14,2,0,33,47,901,['n'],1,right,['3'],4,300,[-0.06434231],57,47,medium,minus,dotcolour,beta,,,69,19,V,R,
99,99,15,2,0,47,33,967,['n'],0,left,['3'],4,665,[-0.07311804],60,47,medium,minus,dotcolour,beta,,,69,19,V,R,
100,100,16,2,0,36,44,1001,['n'],1,right,['3'],4,396,[-0.06004505],53,44,hard,minus,dotcolour,beta,,,69,19,V,R,
101,101,17,2,0,36,44,902,['n'],1,right,['3'],4,263,[-0.10071109],83,44,hard,minus,dotcolour,beta,,,69,19,V,R,
102,102,18,2,0,27,53,749,['n'],1,right,['3'],4,230,[-0.09610049],82,53,easy,minus,dotcolour,beta,,,69,19,V,R,
103,103,19,2,0,44,36,815,['c'],1,left,['3'],4,322,[0.08064315],69,44,hard,minus,dotcolour,beta,,,69,19,V,R,
104,104,20,2,0,53,27,1217,['n'],0,left,['8'],3,1004,[0.07323156],9,53,easy,minus,dotcolour,beta,,,69,19,V,R,
105,105,21,2,0,33,47,1133,['n'],1,right,['1'],6,412,[-0.15152994],94,47,medium,minus,dotcolour,beta,,,69,19,V,R,
106,106,22,2,0,33,47,965,['n'],1,right,['1'],6,148,[-0.112007],93,47,medium,minus,dotcolour,beta,,,69,19,V,R,
107,107,23,2,0,44,36,1167,['c'],1,left,['3'],4,293,[0.06354463],57,44,hard,minus,dotcolour,beta,,,69,19,V,R,
108,108,24,2,0,53,27,850,['c'],1,left,['2'],5,815,[0.2109854],96,53,easy,minus,dotcolour,beta,,,69,19,V,R,
109,109,25,2,0,36,44,834,['n'],1,right,['1'],6,275,[0.01007986],10,44,hard,minus,dotcolour,beta,,,69,19,V,R,
110,110,26,2,0,27,53,766,['n'],1,right,['1'],6,200,[-0.12976432],95,53,easy,minus,dotcolour,beta,,,69,19,V,R,
111,111,27,2,0,36,44,1082,['n'],1,right,['1'],6,356,[-0.07330077],63,44,hard,minus,dotcolour,beta,,,69,19,V,R,
112,112,28,2,0,47,33,948,['c'],1,left,['2'],5,302,[0.03657765],35,47,medium,minus,dotcolour,beta,,,69,19,V,R,
113,113,29,2,0,44,36,967,['c'],1,left,['2'],5,258,[0.07958734],70,44,hard,minus,dotcolour,beta,,,69,19,V,R,
114,114,30,2,0,27,53,881,['n'],1,right,['1'],6,299,[-0.04949157],45,53,easy,minus,dotcolour,beta,,,69,19,V,R,
115,115,31,2,0,44,36,2419,['n'],0,left,['3'],4,268,[-0.03198744],31,44,hard,minus,dotcolour,beta,,,69,19,V,R,
116,116,32,2,0,27,53,1165,['n'],1,right,['2'],5,434,[-0.0610408],54,53,easy,minus,dotcolour,beta,,,69,19,V,R,
117,117,33,2,0,47,33,1035,['c'],1,left,['3'],4,245,[0.04952291],45,47,medium,minus,dotcolour,beta,,,69,19,V,R,
118,118,34,2,0,44,36,865,['c'],1,left,['3'],4,256,[0.10352892],85,44,hard,minus,dotcolour,beta,,,69,19,V,R,
119,119,35,2,0,47,33,933,['c'],1,left,['2'],5,735,[0.18563047],94,47,medium,minus,dotcolour,beta,,,69,19,V,R,
120,120,36,2,0,53,27,1050,['c'],1,left,['2'],5,549,[0.10187992],75,53,easy,minus,dotcolour,beta,,,69,19,V,R,
121,121,37,2,0,27,53,783,['n'],1,right,['1'],6,471,[-0.06167631],54,53,easy,minus,dotcolour,beta,,,69,19,V,R,
122,122,38,2,0,36,44,967,['n'],1,right,['2'],5,332,[-0.07623769],66,44,hard,minus,dotcolour,beta,,,69,19,V,R,
123,123,39,2,0,53,27,966,['c'],1,left,['1'],6,262,[0.01133981],17,53,easy,minus,dotcolour,beta,,,69,19,V,R,
124,124,40,2,0,33,47,1433,['n'],1,right,['3'],4,353,[-0.13232582],91,47,medium,minus,dotcolour,beta,,,69,19,V,R,
125,125,41,2,0,27,53,833,['n'],1,right,['2'],5,239,[-0.06489951],59,53,easy,minus,dotcolour,beta,,,69,19,V,R,
126,0,0,3,1,53,27,1035,['c'],1,left,['1'],6,273,[0.14492484],100,53,easy,plus,dotcolour,beta,,,69,19,V,R,
127,1,1,3,1,53,27,1135,['c'],1,left,['2'],5,175,[0.11259157],100,53,easy,plus,dotcolour,beta,,,69,19,V,R,
128,2,2,3,1,53,27,801,['c'],1,left,['1'],6,175,[0.16879091],100,53,easy,plus,dotcolour,beta,,,69,19,V,R,
129,3,3,3,1,47,33,1299,['c'],1,left,['2'],5,203,[0.12776125],100,47,medium,plus,dotcolour,beta,,,69,19,V,R,
130,4,4,3,1,36,44,850,['n'],1,right,['2'],5,360,[-0.06754314],98,44,hard,plus,dotcolour,beta,,,69,19,V,R,
131,5,5,3,1,44,36,950,['n'],0,left,['3'],4,682,[-0.03173489],87,44,hard,plus,dotcolour,beta,,,69,19,V,R,
132,6,6,3,1,33,47,750,['n'],1,right,['1'],6,383,[-0.13695753],100,47,medium,plus,dotcolour,beta,,,69,19,V,R,
133,7,7,3,1,53,27,949,['c'],1,left,['1'],6,177,[0.13881005],100,53,easy,plus,dotcolour,beta,,,69,19,V,R,
134,8,8,3,1,44,36,1402,['n'],0,left,['2'],5,384,[-0.04930141],95,44,hard,plus,dotcolour,beta,,,69,19,V,R,
135,9,9,3,1,27,53,1050,['n'],1,right,['2'],5,253,[-0.07792439],99,53,easy,plus,dotcolour,beta,,,69,19,V,R,
136,10,10,3,1,44,36,951,['n'],0,left,['2'],5,267,[0.01050869],83,44,hard,plus,dotcolour,beta,,,69,19,V,R,
137,11,11,3,1,36,44,1117,['c'],0,right,['3'],4,947,[0.10056093],95,44,hard,plus,dotcolour,beta,,,69,19,V,R,
138,12,12,3,1,27,53,616,['n'],1,right,['1'],6,595,[-0.21037246],100,53,easy,plus,dotcolour,beta,,,69,19,V,R,
139,13,13,3,1,33,47,934,['n'],1,right,['1'],6,292,[-0.12063637],100,47,medium,plus,dotcolour,beta,,,69,19,V,R,
140,14,14,3,1,47,33,866,['c'],1,left,['1'],6,309,[0.12977739],100,47,medium,plus,dotcolour,beta,,,69,19,V,R,
141,15,15,3,1,33,47,616,['n'],1,right,['1'],6,246,[-0.11535865],100,47,medium,plus,dotcolour,beta,,,69,19,V,R,
142,16,16,3,1,47,33,950,['c'],1,left,['1'],6,229,[-0.00803268],86,47,medium,plus,dotcolour,beta,,,69,19,V,R,
143,17,17,3,1,47,33,884,['c'],1,left,['1'],6,320,[0.18926661],100,47,medium,plus,dotcolour,beta,,,69,19,V,R,
144,18,18,3,1,27,53,751,['n'],1,right,['2'],5,445,[-0.11035189],99,53,easy,plus,dotcolour,beta,,,69,19,V,R,
145,19,19,3,1,44,36,1299,['n'],0,left,['3'],4,517,[0.03413915],63,44,hard,plus,dotcolour,beta,,,69,19,V,R,
146,20,20,3,1,36,44,850,['n'],1,right,['3'],4,444,[-0.02817344],91,44,hard,plus,dotcolour,beta,,,69,19,V,R,
147,21,21,3,1,33,47,766,['n'],1,right,['2'],5,914,[-0.1557984],98,47,medium,plus,dotcolour,beta,,,69,19,V,R,
148,22,22,3,1,44,36,1136,['c'],1,left,['3'],4,303,[-0.00836653],82,44,hard,plus,dotcolour,beta,,,69,19,V,R,
149,23,23,3,1,27,53,666,['n'],1,right,['1'],6,239,[-0.09486019],100,53,easy,plus,dotcolour,beta,,,69,19,V,R,
150,24,24,3,1,36,44,1133,['n'],1,right,['1'],6,271,[-0.17280681],100,44,hard,plus,dotcolour,beta,,,69,19,V,R,
151,25,25,3,1,33,47,1450,['c'],0,right,['3'],4,409,[0.0137777],88,47,medium,plus,dotcolour,beta,,,69,19,V,R,
152,26,26,3,1,53,27,1451,['c'],1,left,['2'],5,397,[0.11225161],99,53,easy,plus,dotcolour,beta,,,69,19,V,R,
153,27,27,3,1,53,27,783,['c'],1,left,['1'],6,252,[0.19303771],100,53,easy,plus,dotcolour,beta,,,69,19,V,R,
154,28,28,3,1,47,33,1601,['n'],0,left,['1'],6,232,[-0.14309554],100,47,medium,plus,dotcolour,beta,,,69,19,V,R,
155,29,29,3,1,27,53,683,['n'],1,right,['1'],6,187,[-0.09225546],100,53,easy,plus,dotcolour,beta,,,69,19,V,R,
156,30,30,3,1,36,44,718,['n'],1,right,['1'],6,197,[-0.06658275],99,44,hard,plus,dotcolour,beta,,,69,19,V,R,
157,31,31,3,1,33,47,950,['n'],1,right,['1'],6,174,[-0.10565327],100,47,medium,plus,dotcolour,beta,,,69,19,V,R,
158,32,32,3,1,36,44,1333,['n'],1,right,['3'],4,400,[-0.04131616],94,44,hard,plus,dotcolour,beta,,,69,19,V,R,
159,33,33,3,1,47,33,1202,['c'],1,left,['3'],4,463,[0.14387859],99,47,medium,plus,dotcolour,beta,,,69,19,V,R,
160,34,34,3,1,53,27,651,['c'],1,left,['1'],6,641,[0.22268928],100,53,easy,plus,dotcolour,beta,,,69,19,V,R,
161,35,35,3,1,44,36,1870,['c'],1,left,['2'],5,226,[-0.00388492],88,44,hard,plus,dotcolour,beta,,,69,19,V,R,
162,36,36,3,1,27,53,766,['n'],1,right,['1'],6,249,[-0.158176],100,53,easy,plus,dotcolour,beta,,,69,19,V,R,
163,37,37,3,1,36,44,649,['n'],1,right,['2'],5,564,[0.0628363],46,44,hard,plus,dotcolour,beta,,,69,19,V,R,
164,38,38,3,1,33,47,1402,['n'],1,right,['3'],4,372,[-0.07834803],98,47,medium,plus,dotcolour,beta,,,69,19,V,R,
165,39,39,3,1,27,53,833,['n'],1,right,['2'],5,362,[-0.00655615],87,53,easy,plus,dotcolour,beta,,,69,19,V,R,
166,40,40,3,1,47,33,1451,['c'],1,left,['1'],6,288,[0.0951122],99,47,medium,plus,dotcolour,beta,,,69,19,V,R,
167,41,41,3,1,44,36,1317,['c'],1,left,['2'],5,470,[0.05785503],95,44,hard,plus,dotcolour,beta,,,69,19,V,R,
168,42,0,4,1,27,53,884,['n'],1,right,['1'],6,223,[-0.08140501],99,53,easy,plus,dotcolour,beta,,,69,19,V,R,
169,43,1,4,1,47,33,852,['c'],1,left,['2'],5,283,[0.156357],100,47,medium,plus,dotcolour,beta,,,69,19,V,R,
170,44,2,4,1,36,44,666,['n'],1,right,['3'],4,276,[-0.06784373],99,44,hard,plus,dotcolour,beta,,,69,19,V,R,
171,45,3,4,1,27,53,882,['n'],1,right,['2'],5,228,[-0.2171113],100,53,easy,plus,dotcolour,beta,,,69,19,V,R,
172,46,4,4,1,36,44,965,['n'],1,right,['3'],4,467,[-0.02449392],89,44,hard,plus,dotcolour,beta,,,69,19,V,R,
173,47,5,4,1,44,36,1017,['n'],0,left,['2'],5,286,[-0.06445085],98,44,hard,plus,dotcolour,beta,,,69,19,V,R,
174,48,6,4,1,53,27,1268,['c'],1,left,['2'],5,263,[0.06283381],98,53,easy,plus,dotcolour,beta,,,69,19,V,R,
175,49,7,4,1,53,27,749,['c'],1,left,['2'],5,285,[0.1422432],100,53,easy,plus,dotcolour,beta,,,69,19,V,R,
176,50,8,4,1,27,53,616,['n'],1,right,['1'],6,240,[-0.10192218],100,53,easy,plus,dotcolour,beta,,,69,19,V,R,
177,51,9,4,1,47,33,1568,['c'],1,left,['3'],4,294,[0.06444161],98,47,medium,plus,dotcolour,beta,,,69,19,V,R,
178,52,10,4,1,47,33,1065,['n'],0,left,['8'],3,1030,[-0.02775847],81,47,medium,plus,dotcolour,beta,,,69,19,V,R,
179,53,11,4,1,36,44,765,['n'],1,right,['2'],5,268,[-0.04339623],97,44,hard,plus,dotcolour,beta,,,69,19,V,R,
180,54,12,4,1,53,27,950,['c'],1,left,['1'],6,162,[0.1325432],100,53,easy,plus,dotcolour,beta,,,69,19,V,R,
181,55,13,4,1,36,44,699,['n'],1,right,['1'],6,230,[-0.07145272],99,44,hard,plus,dotcolour,beta,,,69,19,V,R,
182,56,14,4,1,36,44,883,['n'],1,right,['2'],5,393,[-0.04897407],95,44,hard,plus,dotcolour,beta,,,69,19,V,R,
183,57,15,4,1,33,47,601,['n'],1,right,['1'],6,280,[-0.13189113],100,47,medium,plus,dotcolour,beta,,,69,19,V,R,
184,58,16,4,1,33,47,1434,['n'],1,right,['1'],6,250,[-0.05837161],98,47,medium,plus,dotcolour,beta,,,69,19,V,R,
185,59,17,4,1,33,47,933,['n'],1,right,['1'],6,329,[-0.16342194],100,47,medium,plus,dotcolour,beta,,,69,19,V,R,
186,60,18,4,1,44,36,1250,['c'],1,left,['2'],5,321,[0.12849666],100,44,hard,plus,dotcolour,beta,,,69,19,V,R,
187,61,19,4,1,33,47,833,['n'],1,right,['3'],4,337,[-0.0729583],98,47,medium,plus,dotcolour,beta,,,69,19,V,R,
188,62,20,4,1,44,36,1619,['c'],1,left,['3'],4,289,[0.08898918],99,44,hard,plus,dotcolour,beta,,,69,19,V,R,
189,63,21,4,1,53,27,1935,['c'],1,left,['3'],4,262,[0.05705121],98,53,easy,plus,dotcolour,beta,,,69,19,V,R,
190,64,22,4,1,47,33,2650,['c'],1,left,['3'],4,223,[0.12327094],100,47,medium,plus,dotcolour,beta,,,69,19,V,R,
191,65,23,4,1,36,44,1434,['n'],1,right,['3'],4,411,[-0.17756448],100,44,hard,plus,dotcolour,beta,,,69,19,V,R,
192,66,24,4,1,27,53,718,['n'],1,right,['2'],5,412,[-0.06096031],96,53,easy,plus,dotcolour,beta,,,69,19,V,R,
193,67,25,4,1,33,47,734,['n'],1,right,['1'],6,213,[-0.10534564],100,47,medium,plus,dotcolour,beta,,,69,19,V,R,
194,68,26,4,1,53,27,1303,['c'],1,left,['1'],6,255,[0.13603449],100,53,easy,plus,dotcolour,beta,,,69,19,V,R,
195,69,27,4,1,47,33,1169,['c'],1,left,['1'],6,205,[0.1116153],100,47,medium,plus,dotcolour,beta,,,69,19,V,R,
196,70,28,4,1,47,33,867,['c'],1,left,['1'],6,170,[0.13129922],100,47,medium,plus,dotcolour,beta,,,69,19,V,R,
197,71,29,4,1,44,36,1651,['n'],0,left,['3'],4,248,[-0.01402995],93,44,hard,plus,dotcolour,beta,,,69,19,V,R,
198,72,30,4,1,33,47,801,['n'],1,right,['2'],5,237,[-0.10463463],100,47,medium,plus,dotcolour,beta,,,69,19,V,R,
199,73,31,4,1,44,36,917,['c'],1,left,['1'],6,254,[0.10031904],100,44,hard,plus,dotcolour,beta,,,69,19,V,R,
200,74,32,4,1,36,44,1715,['n'],1,right,['3'],4,397,[-0.13961197],100,44,hard,plus,dotcolour,beta,,,69,19,V,R,
201,75,33,4,1,27,53,634,['n'],1,right,['2'],5,338,[-0.10457074],99,53,easy,plus,dotcolour,beta,,,69,19,V,R,
202,76,34,4,1,47,33,867,['c'],1,left,['1'],6,224,[0.11609496],100,47,medium,plus,dotcolour,beta,,,69,19,V,R,
203,77,35,4,1,27,53,835,['n'],1,right,['2'],5,221,[-0.04636566],98,53,easy,plus,dotcolour,beta,,,69,19,V,R,
204,78,36,4,1,53,27,799,['c'],1,left,['1'],6,308,[0.20840705],100,53,easy,plus,dotcolour,beta,,,69,19,V,R,
205,79,37,4,1,53,27,1134,['n'],0,left,['2'],5,424,[0.05877735],48,53,easy,plus,dotcolour,beta,,,69,19,V,R,
206,80,38,4,1,44,36,866,['n'],0,left,['8'],3,987,[-0.13693697],97,44,hard,plus,dotcolour,beta,,,69,19,V,R,
207,81,39,4,1,33,47,833,['n'],1,right,['1'],6,144,[-0.07905091],100,47,medium,plus,dotcolour,beta,,,69,19,V,R,
208,82,40,4,1,44,36,900,['c'],1,left,['1'],6,197,[0.14305245],100,44,hard,plus,dotcolour,beta,,,69,19,V,R,
209,83,41,4,1,27,53,1333,['n'],1,right,['1'],6,134,[-0.13730475],100,53,easy,plus,dotcolour,beta,,,69,19,V,R,
210,84,0,5,1,44,36,1103,['c'],1,left,['1'],6,221,[0.14938384],100,44,hard,plus,dotcolour,beta,,,69,19,V,R,
211,85,1,5,1,53,27,818,['c'],1,left,['1'],6,154,[0.05284885],99,53,easy,plus,dotcolour,beta,,,69,19,V,R,
212,86,2,5,1,47,33,684,['c'],1,left,['1'],6,176,[0.05024364],99,47,medium,plus,dotcolour,beta,,,69,19,V,R,
213,87,3,5,1,53,27,566,['c'],1,left,['1'],6,202,[0.10774093],100,53,easy,plus,dotcolour,beta,,,69,19,V,R,
214,88,4,5,1,27,53,733,['n'],1,right,['1'],6,195,[-0.16019731],100,53,easy,plus,dotcolour,beta,,,69,19,V,R,
215,89,5,5,1,36,44,650,['n'],1,right,['1'],6,145,[-0.08071247],100,44,hard,plus,dotcolour,beta,,,69,19,V,R,
216,90,6,5,1,33,47,667,['n'],1,right,['1'],6,247,[-0.18222931],100,47,medium,plus,dotcolour,beta,,,69,19,V,R,
217,91,7,5,1,44,36,766,['c'],1,left,['1'],6,174,[0.07389882],100,44,hard,plus,dotcolour,beta,,,69,19,V,R,
218,92,8,5,1,36,44,717,['n'],1,right,['1'],6,129,[-0.12959646],100,44,hard,plus,dotcolour,beta,,,69,19,V,R,
219,93,9,5,1,53,27,900,['c'],1,left,['1'],6,230,[0.08916417],100,53,easy,plus,dotcolour,beta,,,69,19,V,R,
220,94,10,5,1,44,36,751,['c'],1,left,['1'],6,191,[0.08485808],100,44,hard,plus,dotcolour,beta,,,69,19,V,R,
221,95,11,5,1,47,33,750,['c'],1,left,['1'],6,184,[0.0232407],96,47,medium,plus,dotcolour,beta,,,69,19,V,R,
222,96,12,5,1,53,27,734,['c'],1,left,['1'],6,178,[0.07270954],100,53,easy,plus,dotcolour,beta,,,69,19,V,R,
223,97,13,5,1,47,33,1033,['n'],0,left,['1'],6,681,[-0.09524326],96,47,medium,plus,dotcolour,beta,,,69,19,V,R,
224,98,14,5,1,33,47,616,['n'],1,right,['1'],6,156,[-0.08543162],100,47,medium,plus,dotcolour,beta,,,69,19,V,R,
225,99,15,5,1,47,33,934,['c'],1,left,['2'],5,390,[0.10237325],99,47,medium,plus,dotcolour,beta,,,69,19,V,R,
226,100,16,5,1,36,44,583,['n'],1,right,['1'],6,206,[-0.03259526],97,44,hard,plus,dotcolour,beta,,,69,19,V,R,
227,101,17,5,1,47,33,1099,['c'],1,left,['1'],6,233,[0.10068912],100,47,medium,plus,dotcolour,beta,,,69,19,V,R,
228,102,18,5,1,33,47,817,['n'],1,right,['3'],4,414,[-0.1378181],100,47,medium,plus,dotcolour,beta,,,69,19,V,R,
229,103,19,5,1,33,47,701,['n'],1,right,['3'],4,344,[0.00180954],84,47,medium,plus,dotcolour,beta,,,69,19,V,R,
230,104,20,5,1,36,44,1101,['n'],1,right,['3'],4,365,[-0.18038772],100,44,hard,plus,dotcolour,beta,,,69,19,V,R,
231,105,21,5,1,27,53,633,['n'],1,right,['2'],5,252,[-0.05949851],98,53,easy,plus,dotcolour,beta,,,69,19,V,R,
232,106,22,5,1,33,47,1767,['c'],0,right,['3'],4,201,[0.06689208],99,47,medium,plus,dotcolour,beta,,,69,19,V,R,
233,107,23,5,1,47,33,900,['c'],1,left,['1'],6,331,[0.05719212],97,47,medium,plus,dotcolour,beta,,,69,19,V,R,
234,108,24,5,1,27,53,683,['n'],1,right,['2'],5,138,[-0.09338469],100,53,easy,plus,dotcolour,beta,,,69,19,V,R,
235,109,25,5,1,27,53,668,['n'],1,right,['3'],4,249,[-0.04361767],97,53,easy,plus,dotcolour,beta,,,69,19,V,R,
236,110,26,5,1,27,53,800,['n'],1,right,['3'],4,222,[-0.11193358],100,53,easy,plus,dotcolour,beta,,,69,19,V,R,
237,111,27,5,1,27,53,1000,['n'],1,right,['3'],4,276,[-0.08199675],99,53,easy,plus,dotcolour,beta,,,69,19,V,R,
238,112,28,5,1,53,27,917,['c'],1,left,['2'],5,291,[0.13955474],100,53,easy,plus,dotcolour,beta,,,69,19,V,R,
239,113,29,5,1,44,36,983,['c'],1,left,['2'],5,183,[0.12110717],100,44,hard,plus,dotcolour,beta,,,69,19,V,R,
240,114,30,5,1,36,44,716,['n'],1,right,['2'],5,226,[-0.05630147],99,44,hard,plus,dotcolour,beta,,,69,19,V,R,
241,115,31,5,1,33,47,984,['n'],1,right,['2'],5,376,[-0.03729137],94,47,medium,plus,dotcolour,beta,,,69,19,V,R,
242,116,32,5,1,44,36,1033,['c'],1,left,['3'],4,310,[0.1222237],100,44,hard,plus,dotcolour,beta,,,69,19,V,R,
243,117,33,5,1,36,44,684,['n'],1,right,['3'],4,285,[-0.12142599],100,44,hard,plus,dotcolour,beta,,,69,19,V,R,
244,118,34,5,1,27,53,632,['n'],1,right,['3'],4,231,[-0.1067421],100,53,easy,plus,dotcolour,beta,,,69,19,V,R,
245,119,35,5,1,53,27,851,['c'],1,left,['2'],5,299,[0.17511547],100,53,easy,plus,dotcolour,beta,,,69,19,V,R,
246,120,36,5,1,44,36,766,['c'],1,left,['2'],5,247,[0.05608454],98,44,hard,plus,dotcolour,beta,,,69,19,V,R,
247,121,37,5,1,53,27,734,['c'],1,left,['1'],6,327,[0.17022122],100,53,easy,plus,dotcolour,beta,,,69,19,V,R,
248,122,38,5,1,44,36,1201,['c'],1,left,['3'],4,248,[0.1100276],100,44,hard,plus,dotcolour,beta,,,69,19,V,R,
249,123,39,5,1,36,44,700,['n'],1,right,['2'],5,321,[-0.06832677],98,44,hard,plus,dotcolour,beta,,,69,19,V,R,
250,124,40,5,1,47,33,635,['c'],1,left,['1'],6,195,[0.06075495],99,47,medium,plus,dotcolour,beta,,,69,19,V,R,
251,125,41,5,1,33,47,1536,['c'],0,right,['3'],4,372,[-0.07365067],37,47,medium,plus,dotcolour,beta,,,69,19,V,R,
252,0,0,6,2,44,36,1186,['n'],0,left,['2'],5,324,[-0.09722142],79,44,hard,minus,dotcolour,beta,,,69,19,V,R,
253,1,1,6,2,47,33,785,['c'],1,left,['2'],5,255,[0.08230054],72,47,medium,minus,dotcolour,beta,,,69,19,V,R,
254,2,2,6,2,33,47,702,['n'],1,right,['1'],6,248,[-0.0999828],83,47,medium,minus,dotcolour,beta,,,69,19,V,R,
255,3,3,6,2,47,33,751,['c'],1,left,['3'],4,591,[0.07938122],64,47,medium,minus,dotcolour,beta,,,69,19,V,R,
256,4,4,6,2,44,36,768,['c'],1,left,['2'],5,207,[0.15403977],98,44,hard,minus,dotcolour,beta,,,69,19,V,R,
257,5,5,6,2,47,33,935,['c'],1,left,['1'],6,225,[0.12110758],92,47,medium,minus,dotcolour,beta,,,69,19,V,R,
258,6,6,6,2,53,27,633,['c'],1,left,['1'],6,197,[0.05155784],46,53,easy,minus,dotcolour,beta,,,69,19,V,R,
259,7,7,6,2,36,44,601,['n'],1,right,['1'],6,205,[-0.16008575],98,44,hard,minus,dotcolour,beta,,,69,19,V,R,
260,8,8,6,2,47,33,752,['c'],1,left,['2'],5,429,[0.10751828],81,47,medium,minus,dotcolour,beta,,,69,19,V,R,
261,9,9,6,2,36,44,1116,['n'],1,right,['1'],6,214,[-0.12001516],92,44,hard,minus,dotcolour,beta,,,69,19,V,R,
262,10,10,6,2,36,44,665,['n'],1,right,['1'],6,145,[-0.1279271],97,44,hard,minus,dotcolour,beta,,,69,19,V,R,
263,11,11,6,2,53,27,683,['c'],1,left,['1'],6,191,[0.13136078],96,53,easy,minus,dotcolour,beta,,,69,19,V,R,
264,12,12,6,2,44,36,766,['n'],0,left,['1'],6,152,[-0.13016651],97,44,hard,minus,dotcolour,beta,,,69,19,V,R,
265,13,13,6,2,36,44,799,['n'],1,right,['1'],6,193,[-0.08815125],79,44,hard,minus,dotcolour,beta,,,69,19,V,R,
266,14,14,6,2,27,53,635,['c'],0,right,['8'],3,1279,[0.07409397],57,53,easy,minus,dotcolour,beta,,,69,19,V,R,
267,15,15,6,2,44,36,917,['c'],1,left,['1'],6,245,[0.02038419],22,44,hard,minus,dotcolour,beta,,,69,19,V,R,
268,16,16,6,2,47,33,1083,['c'],1,left,['2'],5,311,[0.13012269],92,47,medium,minus,dotcolour,beta,,,69,19,V,R,
269,17,17,6,2,47,33,1134,['c'],1,left,['2'],5,267,[0.04074982],37,47,medium,minus,dotcolour,beta,,,69,19,V,R,
270,18,18,6,2,36,44,633,['n'],1,right,['3'],4,358,[-0.07592709],65,44,hard,minus,dotcolour,beta,,,69,19,V,R,
271,19,19,6,2,53,27,816,['c'],1,left,['1'],6,422,[0.07573592],64,53,easy,minus,dotcolour,beta,,,69,19,V,R,
272,20,20,6,2,33,47,950,['n'],1,right,['2'],5,1174,[0.07271673],11,47,medium,minus,dotcolour,beta,,,69,19,V,R,
273,21,21,6,2,36,44,1467,['c'],0,right,['3'],4,457,[0.06151737],54,44,hard,minus,dotcolour,beta,,,69,19,V,R,
274,22,22,6,2,53,27,933,['c'],1,left,['2'],5,288,[0.12894996],92,53,easy,minus,dotcolour,beta,,,69,19,V,R,
275,23,23,6,2,53,27,1000,['c'],1,left,['1'],6,235,[0.10984024],88,53,easy,minus,dotcolour,beta,,,69,19,V,R,
276,24,24,6,2,27,53,716,['n'],1,right,['1'],6,205,[-0.05618974],51,53,easy,minus,dotcolour,beta,,,69,19,V,R,
277,25,25,6,2,33,47,732,['n'],1,right,['1'],6,174,[-0.12931664],96,47,medium,minus,dotcolour,beta,,,69,19,V,R,
278,26,26,6,2,33,47,783,['n'],1,right,['1'],6,127,[-0.09920817],90,47,medium,minus,dotcolour,beta,,,69,19,V,R,
279,27,27,6,2,44,36,1433,['n'],0,left,['3'],4,191,[-0.11451602],92,44,hard,minus,dotcolour,beta,,,69,19,V,R,
280,28,28,6,2,33,47,1533,['n'],1,right,['3'],4,304,[-0.01186384],19,47,medium,minus,dotcolour,beta,,,69,19,V,R,
281,29,29,6,2,27,53,799,['n'],1,right,['2'],5,234,[-0.08563237],75,53,easy,minus,dotcolour,beta,,,69,19,V,R,
282,30,30,6,2,27,53,951,['n'],1,right,['1'],6,282,[-0.10663218],85,53,easy,minus,dotcolour,beta,,,69,19,V,R,
283,31,31,6,2,27,53,667,['n'],1,right,['1'],6,203,[-0.11502629],91,53,easy,minus,dotcolour,beta,,,69,19,V,R,
284,32,32,6,2,27,53,700,['n'],1,right,['1'],6,166,[-0.0429095],36,53,easy,minus,dotcolour,beta,,,69,19,V,R,
285,33,33,6,2,47,33,1334,['c'],1,left,['3'],4,441,[0.15615245],94,47,medium,minus,dotcolour,beta,,,69,19,V,R,
286,34,34,6,2,36,44,650,['n'],1,right,['2'],5,612,[-0.12926013],84,44,hard,minus,dotcolour,beta,,,69,19,V,R,
287,35,35,6,2,27,53,633,['n'],1,right,['1'],6,201,[-0.14234714],97,53,easy,minus,dotcolour,beta,,,69,19,V,R,
288,36,36,6,2,33,47,1017,['n'],1,right,['1'],6,110,[-0.1227993],97,47,medium,minus,dotcolour,beta,,,69,19,V,R,
289,37,37,6,2,33,47,1067,['c'],0,right,['3'],4,270,[0.05031096],45,47,medium,minus,dotcolour,beta,,,69,19,V,R,
290,38,38,6,2,44,36,983,['n'],0,left,['3'],4,251,[-0.04656344],42,44,hard,minus,dotcolour,beta,,,69,19,V,R,
291,39,39,6,2,53,27,967,['c'],1,left,['1'],6,192,[0.03627797],31,53,easy,minus,dotcolour,beta,,,69,19,V,R,
292,40,40,6,2,53,27,800,['c'],1,left,['2'],5,296,[0.12105136],90,53,easy,minus,dotcolour,beta,,,69,19,V,R,
293,41,41,6,2,44,36,1186,['c'],1,left,['2'],5,154,[0.09144181],84,44,hard,minus,dotcolour,beta,,,69,19,V,R,
294,42,0,7,2,53,27,768,['c'],1,left,['1'],6,174,[0.12793514],96,53,easy,minus,dotcolour,beta,,,69,19,V,R,
295,43,1,7,2,53,27,648,['c'],1,left,['1'],6,164,[0.08785654],81,53,easy,minus,dotcolour,beta,,,69,19,V,R,
296,44,2,7,2,53,27,733,['c'],1,left,['1'],6,167,[0.1060712],90,53,easy,minus,dotcolour,beta,,,69,19,V,R,
297,45,3,7,2,44,36,549,['c'],1,left,['1'],6,170,[0.05404976],48,44,hard,minus,dotcolour,beta,,,69,19,V,R,
298,46,4,7,2,27,53,667,['n'],1,right,['1'],6,152,[-0.10885323],92,53,easy,minus,dotcolour,beta,,,69,19,V,R,
299,47,5,7,2,44,36,1085,['c'],1,left,['2'],5,414,[0.10076455],78,44,hard,minus,dotcolour,beta,,,69,19,V,R,
300,48,6,7,2,44,36,767,['n'],0,left,['2'],5,261,[0.01224985],8,44,hard,minus,dotcolour,beta,,,69,19,V,R,
301,49,7,7,2,53,27,634,['c'],1,left,['1'],6,200,[0.10946995],90,53,easy,minus,dotcolour,beta,,,69,19,V,R,
302,50,8,7,2,47,33,850,['c'],1,left,['1'],6,221,[0.08837931],78,47,medium,minus,dotcolour,beta,,,69,19,V,R,
303,51,9,7,2,44,36,1033,['n'],0,left,['1'],6,178,[-0.05852368],53,44,hard,minus,dotcolour,beta,,,69,19,V,R,
304,52,10,7,2,47,33,1115,['c'],1,left,['3'],4,204,[0.07771006],71,47,medium,minus,dotcolour,beta,,,69,19,V,R,
305,53,11,7,2,44,36,1818,['c'],1,left,['3'],4,411,[0.11723086],85,44,hard,minus,dotcolour,beta,,,69,19,V,R,
306,54,12,7,2,27,53,649,['n'],1,right,['2'],5,174,[-0.21318756],100,53,easy,minus,dotcolour,beta,,,69,19,V,R,
307,55,13,7,2,36,44,667,['n'],1,right,['1'],6,156,[-0.13331411],97,44,hard,minus,dotcolour,beta,,,69,19,V,R,
308,56,14,7,2,53,27,733,['c'],1,left,['2'],5,408,[0.11322823],84,53,easy,minus,dotcolour,beta,,,69,19,V,R,
309,57,15,7,2,47,33,1034,['c'],1,left,['1'],6,212,[0.131483],95,47,medium,minus,dotcolour,beta,,,69,19,V,R,
310,58,16,7,2,47,33,1534,['c'],1,left,['2'],5,565,[0.289581],100,47,medium,minus,dotcolour,beta,,,69,19,V,R,
311,59,17,7,2,33,47,950,['n'],1,right,['2'],5,151,[-0.09136198],84,47,medium,minus,dotcolour,beta,,,69,19,V,R,
312,60,18,7,2,47,33,1334,['c'],1,left,['3'],4,202,[0.11080407],90,47,medium,minus,dotcolour,beta,,,69,19,V,R,
313,61,19,7,2,27,53,1251,['n'],1,right,['3'],4,239,[-0.09457768],81,53,easy,minus,dotcolour,beta,,,69,19,V,R,
314,62,20,7,2,53,27,933,['c'],1,left,['2'],5,254,[0.0909959],78,53,easy,minus,dotcolour,beta,,,69,19,V,R,
315,63,21,7,2,36,44,685,['n'],1,right,['2'],5,233,[-0.07771759],70,44,hard,minus,dotcolour,beta,,,69,19,V,R,
316,64,22,7,2,47,33,817,['c'],1,left,['2'],5,245,[0.08428435],74,47,medium,minus,dotcolour,beta,,,69,19,V,R,
317,65,23,7,2,36,44,717,['n'],1,right,['2'],5,246,[-0.08862177],77,44,hard,minus,dotcolour,beta,,,69,19,V,R,
318,66,24,7,2,33,47,683,['n'],1,right,['1'],6,255,[-0.18941411],99,47,medium,minus,dotcolour,beta,,,69,19,V,R,
319,67,25,7,2,27,53,566,['n'],1,right,['1'],6,142,[-0.07358395],70,53,easy,minus,dotcolour,beta,,,69,19,V,R,
320,68,26,7,2,36,44,1134,['c'],0,right,['3'],4,162,[0.12845209],96,44,hard,minus,dotcolour,beta,,,69,19,V,R,
321,69,27,7,2,53,27,1050,['c'],1,left,['1'],6,224,[0.12176531],93,53,easy,minus,dotcolour,beta,,,69,19,V,R,
322,70,28,7,2,33,47,784,['n'],1,right,['1'],6,174,[-0.15154569],98,47,medium,minus,dotcolour,beta,,,69,19,V,R,
323,71,29,7,2,33,47,1233,['c'],0,right,['3'],4,180,[0.09116218],82,47,medium,minus,dotcolour,beta,,,69,19,V,R,
324,72,30,7,2,47,33,1134,['c'],1,left,['2'],5,223,[0.0310496],28,47,medium,minus,dotcolour,beta,,,69,19,V,R,
325,73,31,7,2,33,47,752,['n'],1,right,['1'],6,167,[-0.05117038],45,47,medium,minus,dotcolour,beta,,,69,19,V,R,
326,74,32,7,2,27,53,650,['n'],1,right,['1'],6,125,[-0.12613706],97,53,easy,minus,dotcolour,beta,,,69,19,V,R,
327,75,33,7,2,44,36,1200,['n'],0,left,['1'],6,143,[-0.07034334],67,44,hard,minus,dotcolour,beta,,,69,19,V,R,
328,76,34,7,2,44,36,868,['c'],1,left,['2'],5,189,[0.08511074],77,44,hard,minus,dotcolour,beta,,,69,19,V,R,
329,77,35,7,2,27,53,716,['n'],1,right,['2'],5,640,[-0.18524873],95,53,easy,minus,dotcolour,beta,,,69,19,V,R,
330,78,36,7,2,27,53,567,['n'],1,right,['1'],6,214,[-0.09365843],81,53,easy,minus,dotcolour,beta,,,69,19,V,R,
331,79,37,7,2,36,44,716,['n'],1,right,['1'],6,201,[-0.05973943],54,44,hard,minus,dotcolour,beta,,,69,19,V,R,
332,80,38,7,2,33,47,600,['n'],1,right,['1'],6,207,[-0.10179432],86,47,medium,minus,dotcolour,beta,,,69,19,V,R,
333,81,39,7,2,36,44,618,['n'],1,right,['1'],6,550,[-0.04967923],46,44,hard,minus,dotcolour,beta,,,69,19,V,R,
334,82,40,7,2,36,44,632,['n'],1,right,['1'],6,509,[-0.01655367],27,44,hard,minus,dotcolour,beta,,,69,19,V,R,
335,83,41,7,2,33,47,699,['n'],1,right,['1'],6,131,[-0.09513887],88,47,medium,minus,dotcolour,beta,,,69,19,V,R,
336,84,0,8,2,27,53,718,['n'],1,right,['2'],5,488,[-0.14104907],90,53,easy,minus,dotcolour,beta,,,69,19,V,R,
337,85,1,8,2,47,33,1098,['c'],1,left,['1'],6,206,[0.07183846],66,47,medium,minus,dotcolour,beta,,,69,19,V,R,
338,86,2,8,2,47,33,1082,['c'],1,left,['2'],5,161,[0.09358468],85,47,medium,minus,dotcolour,beta,,,69,19,V,R,
339,87,3,8,2,47,33,801,['n'],0,left,['2'],5,322,[-0.06039336],54,47,medium,minus,dotcolour,beta,,,69,19,V,R,
340,88,4,8,2,53,27,700,['c'],1,left,['2'],5,207,[0.05606312],51,53,easy,minus,dotcolour,beta,,,69,19,V,R,
341,89,5,8,2,47,33,1000,['c'],1,left,['2'],5,222,[0.01742727],19,47,medium,minus,dotcolour,beta,,,69,19,V,R,
342,90,6,8,2,53,27,749,['c'],1,left,['1'],6,214,[0.15019979],98,53,easy,minus,dotcolour,beta,,,69,19,V,R,
343,91,7,8,2,53,27,1167,['c'],1,left,['1'],6,238,[0.05269172],47,53,easy,minus,dotcolour,beta,,,69,19,V,R,
344,92,8,8,2,33,47,650,['n'],1,right,['2'],5,313,[-0.11856183],88,47,medium,minus,dotcolour,beta,,,69,19,V,R,
345,93,9,8,2,44,36,1116,['c'],1,left,['2'],5,263,[0.06444113],58,44,hard,minus,dotcolour,beta,,,69,19,V,R,
346,94,10,8,2,27,53,600,['n'],1,right,['3'],4,235,[-0.14757144],97,53,easy,minus,dotcolour,beta,,,69,19,V,R,
347,95,11,8,2,36,44,1232,['n'],1,right,['2'],5,128,[-0.06436424],61,44,hard,minus,dotcolour,beta,,,69,19,V,R,
348,96,12,8,2,44,36,1084,['c'],1,left,['3'],4,270,[0.09440722],79,44,hard,minus,dotcolour,beta,,,69,19,V,R,
349,97,13,8,2,33,47,900,['n'],1,right,['2'],5,302,[-0.12022157],89,47,medium,minus,dotcolour,beta,,,69,19,V,R,
350,98,14,8,2,44,36,867,['n'],0,left,['3'],4,399,[-0.03686991],37,44,hard,minus,dotcolour,beta,,,69,19,V,R,
351,99,15,8,2,44,36,716,['n'],0,left,['3'],4,217,[-0.03742735],33,44,hard,minus,dotcolour,beta,,,69,19,V,R,
352,100,16,8,2,53,27,717,['c'],1,left,['2'],5,234,[0.15529894],98,53,easy,minus,dotcolour,beta,,,69,19,V,R,
353,101,17,8,2,36,44,701,['n'],1,right,['1'],6,261,[-0.08075688],71,44,hard,minus,dotcolour,beta,,,69,19,V,R,
354,102,18,8,2,33,47,818,['n'],1,right,['2'],5,240,[-0.12308349],92,47,medium,minus,dotcolour,beta,,,69,19,V,R,
355,103,19,8,2,36,44,1234,['c'],0,right,['2'],5,283,[0.0187153],22,44,hard,minus,dotcolour,beta,,,69,19,V,R,
356,104,20,8,2,27,53,866,['n'],1,right,['2'],5,356,[-0.13965058],93,53,easy,minus,dotcolour,beta,,,69,19,V,R,
357,105,21,8,2,27,53,801,['n'],1,right,['1'],6,341,[-0.07948542],68,53,easy,minus,dotcolour,beta,,,69,19,V,R,
358,106,22,8,2,27,53,567,['n'],1,right,['1'],6,144,[-0.0892865],83,53,easy,minus,dotcolour,beta,,,69,19,V,R,
359,107,23,8,2,47,33,984,['c'],1,left,['2'],5,330,[0.06214602],55,47,medium,minus,dotcolour,beta,,,69,19,V,R,
360,108,24,8,2,44,36,699,['n'],0,left,['3'],4,807,[-0.17668679],92,44,hard,minus,dotcolour,beta,,,69,19,V,R,
361,109,25,8,2,36,44,649,['n'],1,right,['2'],5,299,[-0.06174051],55,44,hard,minus,dotcolour,beta,,,69,19,V,R,
362,110,26,8,2,33,47,1249,['c'],0,right,['3'],4,212,[0.09770538],84,47,medium,minus,dotcolour,beta,,,69,19,V,R,
363,111,27,8,2,33,47,783,['n'],1,right,['2'],5,163,[-0.06404284],59,47,medium,minus,dotcolour,beta,,,69,19,V,R,
364,112,28,8,2,44,36,1034,['c'],1,left,['3'],4,226,[0.13256564],95,44,hard,minus,dotcolour,beta,,,69,19,V,R,
365,113,29,8,2,53,27,783,['c'],1,left,['2'],5,176,[0.21402852],100,53,easy,minus,dotcolour,beta,,,69,19,V,R,
366,114,30,8,2,53,27,885,['c'],1,left,['1'],6,189,[0.06147633],56,53,easy,minus,dotcolour,beta,,,69,19,V,R,
367,115,31,8,2,44,36,850,['n'],0,left,['8'],3,1034,[0.05542282],12,44,hard,minus,dotcolour,beta,,,69,19,V,R,
368,116,32,8,2,53,27,850,['c'],1,left,['2'],5,220,[0.05517599],50,53,easy,minus,dotcolour,beta,,,69,19,V,R,
369,117,33,8,2,27,53,585,['n'],1,right,['1'],6,307,[-0.17168153],98,53,easy,minus,dotcolour,beta,,,69,19,V,R,
370,118,34,8,2,47,33,1149,['c'],1,left,['2'],5,199,[0.07947284],72,47,medium,minus,dotcolour,beta,,,69,19,V,R,
371,119,35,8,2,33,47,617,['n'],1,right,['2'],5,310,[-0.14306512],94,47,medium,minus,dotcolour,beta,,,69,19,V,R,
372,120,36,8,2,47,33,901,['c'],1,left,['3'],4,276,[0.11950648],90,47,medium,minus,dotcolour,beta,,,69,19,V,R,
373,121,37,8,2,36,44,1167,['n'],1,right,['2'],5,233,[-0.09907693],84,44,hard,minus,dotcolour,beta,,,69,19,V,R,
374,122,38,8,2,36,44,718,['n'],1,right,['2'],5,130,[-0.08354224],80,44,hard,minus,dotcolour,beta,,,69,19,V,R,
375,123,39,8,2,27,53,618,['n'],1,right,['1'],6,340,[-0.11222488],85,53,easy,minus,dotcolour,beta,,,69,19,V,R,
376,124,40,8,2,33,47,1250,['n'],1,right,['1'],6,122,[-0.08344791],81,47,medium,minus,dotcolour,beta,,,69,19,V,R,
377,125,41,8,2,36,44,1267,['c'],0,right,['3'],4,217,[0.07458339],68,44,hard,minus,dotcolour,beta,,,69,19,V,R,
378,0,0,9,3,47,33,1119,['c'],1,left,['3'],4,163,[0.12232054],100,47,medium,plus,dotcolour,beta,,,69,19,V,R,
379,1,1,9,3,33,47,899,['n'],1,right,['3'],4,256,[-0.07522904],99,47,medium,plus,dotcolour,beta,,,69,19,V,R,
380,2,2,9,3,44,36,883,['c'],1,left,['3'],4,250,[0.07060842],99,44,hard,plus,dotcolour,beta,,,69,19,V,R,
381,3,3,9,3,33,47,699,['n'],1,right,['1'],6,515,[-0.1025956],98,47,medium,plus,dotcolour,beta,,,69,19,V,R,
382,4,4,9,3,47,33,764,['c'],1,left,['2'],5,278,[0.06026847],98,47,medium,plus,dotcolour,beta,,,69,19,V,R,
383,5,5,9,3,53,27,934,['c'],1,left,['2'],5,261,[0.08685768],99,53,easy,plus,dotcolour,beta,,,69,19,V,R,
384,6,6,9,3,27,53,550,['n'],1,right,['1'],6,163,[-0.12043574],100,53,easy,plus,dotcolour,beta,,,69,19,V,R,
385,7,7,9,3,27,53,701,['n'],1,right,['1'],6,144,[-0.07325657],100,53,easy,plus,dotcolour,beta,,,69,19,V,R,
386,8,8,9,3,36,44,1235,['n'],1,right,['3'],4,151,[-0.08348126],100,44,hard,plus,dotcolour,beta,,,69,19,V,R,
387,9,9,9,3,53,27,850,['c'],1,left,['1'],6,238,[0.071107],99,53,easy,plus,dotcolour,beta,,,69,19,V,R,
388,10,10,9,3,27,53,551,['n'],1,right,['1'],6,142,[-0.15802493],100,53,easy,plus,dotcolour,beta,,,69,19,V,R,
389,11,11,9,3,27,53,616,['n'],1,right,['1'],6,127,[-0.11025645],100,53,easy,plus,dotcolour,beta,,,69,19,V,R,
390,12,12,9,3,27,53,1151,['n'],1,right,['1'],6,99,[-0.10817093],100,53,easy,plus,dotcolour,beta,,,69,19,V,R,
391,13,13,9,3,53,27,768,['c'],1,left,['1'],6,135,[0.13833939],100,53,easy,plus,dotcolour,beta,,,69,19,V,R,
392,14,14,9,3,33,47,651,['n'],1,right,['1'],6,95,[-0.13139829],100,47,medium,plus,dotcolour,beta,,,69,19,V,R,
393,15,15,9,3,36,44,651,['c'],0,right,['1'],6,272,[0.04924348],97,44,hard,plus,dotcolour,beta,,,69,19,V,R,
394,16,16,9,3,44,36,1069,['c'],1,left,['1'],6,122,[0.08765681],100,44,hard,plus,dotcolour,beta,,,69,19,V,R,
395,17,17,9,3,27,53,601,['n'],1,right,['1'],6,197,[-0.11694427],100,53,easy,plus,dotcolour,beta,,,69,19,V,R,
396,18,18,9,3,33,47,651,['n'],1,right,['1'],6,138,[-0.06915531],100,47,medium,plus,dotcolour,beta,,,69,19,V,R,
397,19,19,9,3,36,44,1069,['c'],0,right,['2'],5,169,[0.05186256],99,44,hard,plus,dotcolour,beta,,,69,19,V,R,
398,20,20,9,3,44,36,1052,['n'],0,left,['1'],6,367,[0.03040501],68,44,hard,plus,dotcolour,beta,,,69,19,V,R,
399,21,21,9,3,44,36,1052,['c'],1,left,['3'],4,197,[0.06870394],99,44,hard,plus,dotcolour,beta,,,69,19,V,R,
400,22,22,9,3,53,27,1235,['c'],1,left,['2'],5,170,[0.11962732],100,53,easy,plus,dotcolour,beta,,,69,19,V,R,
401,23,23,9,3,53,27,819,['c'],1,left,['1'],6,138,[0.01520295],97,53,easy,plus,dotcolour,beta,,,69,19,V,R,
402,24,24,9,3,53,27,634,['c'],1,left,['1'],6,155,[0.17644498],100,53,easy,plus,dotcolour,beta,,,69,19,V,R,
403,25,25,9,3,53,27,718,['c'],1,left,['2'],5,367,[0.06082329],97,53,easy,plus,dotcolour,beta,,,69,19,V,R,
404,26,26,9,3,47,33,1168,['c'],1,left,['2'],5,401,[-0.00636837],80,47,medium,plus,dotcolour,beta,,,69,19,V,R,
405,27,27,9,3,36,44,869,['n'],1,right,['1'],6,204,[-0.07866529],100,44,hard,plus,dotcolour,beta,,,69,19,V,R,
406,28,28,9,3,33,47,732,['c'],0,right,['2'],5,205,[0.05420142],99,47,medium,plus,dotcolour,beta,,,69,19,V,R,
407,29,29,9,3,27,53,617,['n'],1,right,['1'],6,188,[-0.14383689],100,53,easy,plus,dotcolour,beta,,,69,19,V,R,
408,30,30,9,3,44,36,1250,['c'],1,left,['3'],4,177,[-0.02044073],82,44,hard,plus,dotcolour,beta,,,69,19,V,R,
409,31,31,9,3,36,44,1417,['c'],0,right,['3'],4,192,[0.12089805],100,44,hard,plus,dotcolour,beta,,,69,19,V,R,
410,32,32,9,3,47,33,1202,['c'],1,left,['2'],5,175,[0.06352236],99,47,medium,plus,dotcolour,beta,,,69,19,V,R,
411,33,33,9,3,36,44,667,['n'],1,right,['1'],6,204,[0.05071251],55,44,hard,plus,dotcolour,beta,,,69,19,V,R,
412,34,34,9,3,47,33,699,['c'],1,left,['2'],5,167,[0.07665434],100,47,medium,plus,dotcolour,beta,,,69,19,V,R,
413,35,35,9,3,47,33,834,['c'],1,left,['1'],6,254,[0.12689096],100,47,medium,plus,dotcolour,beta,,,69,19,V,R,
414,36,36,9,3,33,47,833,['n'],1,right,['1'],6,377,[-0.05592332],96,47,medium,plus,dotcolour,beta,,,69,19,V,R,
415,37,37,9,3,36,44,850,['c'],0,right,['2'],5,231,[-0.0136577],83,44,hard,plus,dotcolour,beta,,,69,19,V,R,
416,38,38,9,3,44,36,1017,['c'],1,left,['1'],6,700,[0.07680543],95,44,hard,plus,dotcolour,beta,,,69,19,V,R,
417,39,39,9,3,33,47,816,['n'],1,right,['1'],6,438,[-0.12945187],99,47,medium,plus,dotcolour,beta,,,69,19,V,R,
418,40,40,9,3,44,36,1334,['c'],1,left,['3'],4,237,[0.24209166],100,44,hard,plus,dotcolour,beta,,,69,19,V,R,
419,41,41,9,3,47,33,1685,['c'],1,left,['3'],4,158,[0.0918041],100,47,medium,plus,dotcolour,beta,,,69,19,V,R,
420,42,0,10,3,53,27,817,['c'],1,left,['1'],6,204,[0.09138992],100,53,easy,plus,dotcolour,beta,,,69,19,V,R,
421,43,1,10,3,47,33,1267,['c'],1,left,['2'],5,233,[0.06728305],99,47,medium,plus,dotcolour,beta,,,69,19,V,R,
422,44,2,10,3,47,33,1551,['c'],1,left,['2'],5,240,[0.11624019],100,47,medium,plus,dotcolour,beta,,,69,19,V,R,
423,45,3,10,3,36,44,667,['n'],1,right,['1'],6,138,[-0.07680945],100,44,hard,plus,dotcolour,beta,,,69,19,V,R,
424,46,4,10,3,33,47,732,['n'],1,right,['1'],6,118,[-0.13390927],100,47,medium,plus,dotcolour,beta,,,69,19,V,R,
425,47,5,10,3,53,27,751,['c'],1,left,['1'],6,227,[0.12788599],100,53,easy,plus,dotcolour,beta,,,69,19,V,R,
426,48,6,10,3,27,53,683,['n'],1,right,['1'],6,142,[-0.01736884],97,53,easy,plus,dotcolour,beta,,,69,19,V,R,
427,49,7,10,3,53,27,799,['c'],1,left,['1'],6,183,[0.08938011],100,53,easy,plus,dotcolour,beta,,,69,19,V,R,
428,50,8,10,3,33,47,549,['n'],1,right,['1'],6,120,[-0.05706261],100,47,medium,plus,dotcolour,beta,,,69,19,V,R,
429,51,9,10,3,53,27,684,['c'],1,left,['1'],6,160,[0.0886884],100,53,easy,plus,dotcolour,beta,,,69,19,V,R,
430,52,10,10,3,33,47,600,['n'],1,right,['1'],6,185,[-0.08491927],100,47,medium,plus,dotcolour,beta,,,69,19,V,R,
431,53,11,10,3,53,27,1017,['c'],1,left,['1'],6,215,[0.15776255],100,53,easy,plus,dotcolour,beta,,,69,19,V,R,
432,54,12,10,3,36,44,700,['n'],1,right,['1'],6,194,[-0.02219117],96,44,hard,plus,dotcolour,beta,,,69,19,V,R,
433,55,13,10,3,44,36,1083,['n'],0,left,['1'],6,198,[-0.08635587],100,44,hard,plus,dotcolour,beta,,,69,19,V,R,
434,56,14,10,3,44,36,733,['c'],1,left,['1'],6,239,[0.11164495],100,44,hard,plus,dotcolour,beta,,,69,19,V,R,
435,57,15,10,3,44,36,566,['n'],0,left,['1'],6,159,[-0.09816337],100,44,hard,plus,dotcolour,beta,,,69,19,V,R,
436,58,16,10,3,44,36,1084,['c'],1,left,['3'],4,380,[0.21340495],100,44,hard,plus,dotcolour,beta,,,69,19,V,R,
437,59,17,10,3,36,44,649,['n'],1,right,['1'],6,281,[-0.08780149],99,44,hard,plus,dotcolour,beta,,,69,19,V,R,
438,60,18,10,3,36,44,633,['n'],1,right,['1'],6,132,[-0.02647432],98,44,hard,plus,dotcolour,beta,,,69,19,V,R,
439,61,19,10,3,36,44,801,['n'],1,right,['1'],6,134,[-0.14095184],100,44,hard,plus,dotcolour,beta,,,69,19,V,R,
440,62,20,10,3,47,33,817,['c'],1,left,['1'],6,175,[0.09037647],100,47,medium,plus,dotcolour,beta,,,69,19,V,R,
441,63,21,10,3,27,53,601,['n'],1,right,['1'],6,119,[-0.06477061],100,53,easy,plus,dotcolour,beta,,,69,19,V,R,
442,64,22,10,3,33,47,584,['n'],1,right,['1'],6,122,[-0.10555997],100,47,medium,plus,dotcolour,beta,,,69,19,V,R,
443,65,23,10,3,47,33,632,['c'],1,left,['1'],6,179,[0.10630843],100,47,medium,plus,dotcolour,beta,,,69,19,V,R,
444,66,24,10,3,47,33,800,['n'],0,left,['3'],4,851,[0.1695217],10,47,medium,plus,dotcolour,beta,,,69,19,V,R,
445,67,25,10,3,33,47,618,['n'],1,right,['1'],6,126,[-0.11542633],100,47,medium,plus,dotcolour,beta,,,69,19,V,R,
446,68,26,10,3,36,44,1185,['c'],0,right,['3'],4,176,[0.04281266],99,44,hard,plus,dotcolour,beta,,,69,19,V,R,
447,69,27,10,3,27,53,800,['n'],1,right,['1'],6,136,[-0.10258156],100,53,easy,plus,dotcolour,beta,,,69,19,V,R,
448,70,28,10,3,44,36,749,['n'],0,left,['2'],5,372,[-0.12557554],100,44,hard,plus,dotcolour,beta,,,69,19,V,R,
449,71,29,10,3,27,53,567,['n'],1,right,['1'],6,141,[-0.05020383],99,53,easy,plus,dotcolour,beta,,,69,19,V,R,
450,72,30,10,3,27,53,632,['n'],1,right,['1'],6,165,[-0.14160518],100,53,easy,plus,dotcolour,beta,,,69,19,V,R,
451,73,31,10,3,47,33,1033,['c'],1,left,['1'],6,428,[0.04882295],95,47,medium,plus,dotcolour,beta,,,69,19,V,R,
452,74,32,10,3,27,53,650,['n'],1,right,['1'],6,79,[-0.0366288],100,53,easy,plus,dotcolour,beta,,,69,19,V,R,
453,75,33,10,3,44,36,833,['c'],1,left,['1'],6,122,[0.09245589],100,44,hard,plus,dotcolour,beta,,,69,19,V,R,
454,76,34,10,3,27,53,517,['n'],1,right,['1'],6,112,[-0.07263188],100,53,easy,plus,dotcolour,beta,,,69,19,V,R,
455,77,35,10,3,53,27,666,['c'],1,left,['1'],6,136,[0.10021108],100,53,easy,plus,dotcolour,beta,,,69,19,V,R,
456,78,36,10,3,33,47,532,['n'],1,right,['1'],6,165,[-0.1446797],100,47,medium,plus,dotcolour,beta,,,69,19,V,R,
457,79,37,10,3,44,36,1133,['c'],1,left,['1'],6,135,[0.18461211],100,44,hard,plus,dotcolour,beta,,,69,19,V,R,
458,80,38,10,3,53,27,633,['c'],1,left,['1'],6,144,[0.14047155],100,53,easy,plus,dotcolour,beta,,,69,19,V,R,
459,81,39,10,3,33,47,566,['n'],1,right,['1'],6,107,[-0.11897987],100,47,medium,plus,dotcolour,beta,,,69,19,V,R,
460,82,40,10,3,36,44,1267,['c'],0,right,['3'],4,483,[0.04440012],93,44,hard,plus,dotcolour,beta,,,69,19,V,R,
461,83,41,10,3,47,33,1368,['c'],1,left,['2'],5,143,[0.1702072],100,47,medium,plus,dotcolour,beta,,,69,19,V,R,
462,84,0,11,3,33,47,635,['n'],1,right,['1'],6,139,[-0.10816801],100,47,medium,plus,dotcolour,beta,,,69,19,V,R,
463,85,1,11,3,27,53,616,['n'],1,right,['1'],6,140,[-0.07851621],100,53,easy,plus,dotcolour,beta,,,69,19,V,R,
464,86,2,11,3,27,53,882,['n'],1,right,['1'],6,249,[-0.13781789],100,53,easy,plus,dotcolour,beta,,,69,19,V,R,
465,87,3,11,3,44,36,882,['c'],1,left,['2'],5,379,[0.05633119],96,44,hard,plus,dotcolour,beta,,,69,19,V,R,
466,88,4,11,3,53,27,1036,['c'],1,left,['1'],6,625,[0.01661913],84,53,easy,plus,dotcolour,beta,,,69,19,V,R,
467,89,5,11,3,53,27,883,['c'],1,left,['1'],6,403,[0.1463919],100,53,easy,plus,dotcolour,beta,,,69,19,V,R,
468,90,6,11,3,47,33,1234,['c'],1,left,['1'],6,136,[0.114333],100,47,medium,plus,dotcolour,beta,,,69,19,V,R,
469,91,7,11,3,27,53,601,['n'],1,right,['1'],6,97,[-0.04341539],100,53,easy,plus,dotcolour,beta,,,69,19,V,R,
470,92,8,11,3,44,36,1017,['c'],1,left,['1'],6,171,[0.11332731],100,44,hard,plus,dotcolour,beta,,,69,19,V,R,
471,93,9,11,3,36,44,618,['n'],1,right,['1'],6,162,[-0.07944975],100,44,hard,plus,dotcolour,beta,,,69,19,V,R,
472,94,10,11,3,53,27,783,['c'],1,left,['1'],6,172,[0.05473302],99,53,easy,plus,dotcolour,beta,,,69,19,V,R,
473,95,11,11,3,33,47,1182,['n'],1,right,['2'],5,285,[-0.16128375],100,47,medium,plus,dotcolour,beta,,,69,19,V,R,
474,96,12,11,3,36,44,633,['n'],1,right,['2'],5,559,[-0.13825872],99,44,hard,plus,dotcolour,beta,,,69,19,V,R,
475,97,13,11,3,47,33,916,['c'],1,left,['1'],6,146,[0.09828732],100,47,medium,plus,dotcolour,beta,,,69,19,V,R,
476,98,14,11,3,33,47,783,['n'],1,right,['1'],6,212,[-0.09923027],100,47,medium,plus,dotcolour,beta,,,69,19,V,R,
477,99,15,11,3,36,44,1601,['c'],0,right,['1'],6,313,[0.04671708],96,44,hard,plus,dotcolour,beta,,,69,19,V,R,
478,100,16,11,3,27,53,534,['n'],1,right,['1'],6,143,[-0.09639805],100,53,easy,plus,dotcolour,beta,,,69,19,V,R,
479,101,17,11,3,53,27,1168,['c'],1,left,['1'],6,137,[0.09344827],100,53,easy,plus,dotcolour,beta,,,69,19,V,R,
480,102,18,11,3,47,33,1485,['n'],0,left,['8'],3,1063,[0.05583379],50,47,medium,plus,dotcolour,beta,,,69,19,V,R,
481,103,19,11,3,47,33,1283,['c'],1,left,['2'],5,382,[0.14166177],100,47,medium,plus,dotcolour,beta,,,69,19,V,R,
482,104,20,11,3,33,47,1117,['n'],1,right,['2'],5,249,[-0.0943798],100,47,medium,plus,dotcolour,beta,,,69,19,V,R,
483,105,21,11,3,44,36,1134,['c'],1,left,['1'],6,288,[0.11406195],100,44,hard,plus,dotcolour,beta,,,69,19,V,R,
484,106,22,11,3,47,33,1216,['c'],1,left,['2'],5,178,[0.08496197],100,47,medium,plus,dotcolour,beta,,,69,19,V,R,
485,107,23,11,3,36,44,1434,['c'],0,right,['3'],4,376,[0.10412685],99,44,hard,plus,dotcolour,beta,,,69,19,V,R,
486,108,24,11,3,27,53,616,['n'],1,right,['1'],6,159,[-0.12509594],100,53,easy,plus,dotcolour,beta,,,69,19,V,R,
487,109,25,11,3,27,53,634,['n'],1,right,['2'],5,182,[-0.11304731],100,53,easy,plus,dotcolour,beta,,,69,19,V,R,
488,110,26,11,3,44,36,884,['c'],1,left,['1'],6,171,[0.08805716],100,44,hard,plus,dotcolour,beta,,,69,19,V,R,
489,111,27,11,3,33,47,733,['c'],0,right,['0'],1,1614,[-0.15684225],19,47,medium,plus,dotcolour,beta,,,69,19,V,R,
490,112,28,11,3,33,47,866,['c'],0,right,['2'],5,281,[0.05450905],98,47,medium,plus,dotcolour,beta,,,69,19,V,R,
491,113,29,11,3,53,27,849,['c'],1,left,['1'],6,218,[0.09232956],100,53,easy,plus,dotcolour,beta,,,69,19,V,R,
492,114,30,11,3,27,53,833,['n'],1,right,['1'],6,135,[-0.05776732],100,53,easy,plus,dotcolour,beta,,,69,19,V,R,
493,115,31,11,3,53,27,1335,['c'],1,left,['2'],5,147,[0.15548314],100,53,easy,plus,dotcolour,beta,,,69,19,V,R,
494,116,32,11,3,36,44,651,['n'],1,right,['1'],6,130,[-0.08124117],100,44,hard,plus,dotcolour,beta,,,69,19,V,R,
495,117,33,11,3,36,44,650,['n'],1,right,['1'],6,122,[-0.06992316],100,44,hard,plus,dotcolour,beta,,,69,19,V,R,
496,118,34,11,3,47,33,766,['c'],1,left,['2'],5,157,[0.12419081],100,47,medium,plus,dotcolour,beta,,,69,19,V,R,
497,119,35,11,3,33,47,566,['n'],1,right,['1'],6,111,[-0.09214825],100,47,medium,plus,dotcolour,beta,,,69,19,V,R,
498,120,36,11,3,44,36,984,['c'],1,left,['2'],5,274,[0.15732689],100,44,hard,plus,dotcolour,beta,,,69,19,V,R,
499,121,37,11,3,44,36,967,['c'],1,left,['1'],6,127,[0.09176088],100,44,hard,plus,dotcolour,beta,,,69,19,V,R,
500,122,38,11,3,36,44,583,['n'],1,right,['1'],6,122,[-0.12504548],100,44,hard,plus,dotcolour,beta,,,69,19,V,R,
501,123,39,11,3,53,27,800,['c'],1,left,['1'],6,156,[0.14119106],100,53,easy,plus,dotcolour,beta,,,69,19,V,R,
502,124,40,11,3,47,33,1351,['c'],1,left,['2'],5,182,[0.09168964],100,47,medium,plus,dotcolour,beta,,,69,19,V,R,
503,125,41,11,3,44,36,934,['n'],0,left,['1'],6,185,[-0.03412413],98,44,hard,plus,dotcolour,beta,,,69,19,V,R,
504,0,0,12,4,33,47,634,['n'],1,right,['1'],6,149,[-0.08443025],79,47,medium,minus,dotcolour,beta,,,69,19,V,R,
505,1,1,12,4,33,47,1118,['c'],0,right,['2'],5,169,[0.13678424],97,47,medium,minus,dotcolour,beta,,,69,19,V,R,
506,2,2,12,4,47,33,650,['n'],0,left,['2'],5,192,[-0.1151426],92,47,medium,minus,dotcolour,beta,,,69,19,V,R,
507,3,3,12,4,53,27,783,['c'],1,left,['1'],6,215,[0.03906675],35,53,easy,minus,dotcolour,beta,,,69,19,V,R,
508,4,4,12,4,36,44,733,['n'],1,right,['1'],6,144,[-0.09090931],84,44,hard,minus,dotcolour,beta,,,69,19,V,R,
509,5,5,12,4,53,27,814,['n'],0,left,['1'],6,321,[-0.00247637],16,53,easy,minus,dotcolour,beta,,,69,19,V,R,
510,6,6,12,4,44,36,816,['c'],1,left,['2'],5,147,[0.14463564],98,44,hard,minus,dotcolour,beta,,,69,19,V,R,
511,7,7,12,4,33,47,533,['n'],1,right,['2'],5,295,[-0.06978713],62,47,medium,minus,dotcolour,beta,,,69,19,V,R,
512,8,8,12,4,36,44,733,['n'],1,right,['2'],5,204,[-0.1018092],86,44,hard,minus,dotcolour,beta,,,69,19,V,R,
513,9,9,12,4,47,33,983,['c'],1,left,['3'],4,196,[0.11148236],91,47,medium,minus,dotcolour,beta,,,69,19,V,R,
514,10,10,12,4,36,44,1384,['c'],0,right,['3'],4,396,[0.07110658],61,44,hard,minus,dotcolour,beta,,,69,19,V,R,
515,11,11,12,4,33,47,635,['n'],1,right,['2'],5,217,[-0.1323059],95,47,medium,minus,dotcolour,beta,,,69,19,V,R,
516,12,12,12,4,36,44,868,['n'],1,right,['1'],6,196,[-0.07379252],68,44,hard,minus,dotcolour,beta,,,69,19,V,R,
517,13,13,12,4,27,53,684,['n'],1,right,['1'],6,248,[-0.12486414],92,53,easy,minus,dotcolour,beta,,,69,19,V,R,
518,14,14,12,4,44,36,1369,['n'],0,left,['2'],5,318,[-0.02320249],26,44,hard,minus,dotcolour,beta,,,69,19,V,R,
519,15,15,12,4,47,33,867,['c'],1,left,['1'],6,206,[0.09037297],80,47,medium,minus,dotcolour,beta,,,69,19,V,R,
520,16,16,12,4,36,44,617,['n'],1,right,['2'],5,316,[-0.10316187],82,44,hard,minus,dotcolour,beta,,,69,19,V,R,
521,17,17,12,4,47,33,1017,['c'],1,left,['3'],4,197,[0.08970619],80,47,medium,minus,dotcolour,beta,,,69,19,V,R,
522,18,18,12,4,44,36,1718,['n'],0,left,['3'],4,255,[-0.05454317],49,44,hard,minus,dotcolour,beta,,,69,19,V,R,
523,19,19,12,4,53,27,898,['c'],1,left,['1'],6,303,[0.030965],31,53,easy,minus,dotcolour,beta,,,69,19,V,R,
524,20,20,12,4,27,53,932,['n'],1,right,['2'],5,180,[-0.12983837],96,53,easy,minus,dotcolour,beta,,,69,19,V,R,
525,21,21,12,4,27,53,633,['n'],1,right,['1'],6,387,[-0.10178152],79,53,easy,minus,dotcolour,beta,,,69,19,V,R,
526,22,22,12,4,27,53,682,['n'],1,right,['1'],6,159,[-0.17999857],100,53,easy,minus,dotcolour,beta,,,69,19,V,R,
527,23,23,12,4,36,44,849,['n'],1,right,['1'],6,69,[-0.05047397],41,44,hard,minus,dotcolour,beta,,,69,19,V,R,
528,24,24,12,4,53,27,1051,['c'],1,left,['3'],4,224,[0.14427681],97,53,easy,minus,dotcolour,beta,,,69,19,V,R,
529,25,25,12,4,33,47,717,['n'],1,right,['2'],5,185,[-0.08838324],80,47,medium,minus,dotcolour,beta,,,69,19,V,R,
530,26,26,12,4,33,47,633,['n'],1,right,['1'],6,176,[-0.07002108],65,47,medium,minus,dotcolour,beta,,,69,19,V,R,
531,27,27,12,4,44,36,881,['c'],1,left,['3'],4,156,[0.02624534],21,44,hard,minus,dotcolour,beta,,,69,19,V,R,
532,28,28,12,4,36,44,816,['n'],1,right,['2'],5,189,[-0.06801255],63,44,hard,minus,dotcolour,beta,,,69,19,V,R,
533,29,29,12,4,27,53,750,['n'],1,right,['2'],5,183,[-0.06387447],59,53,easy,minus,dotcolour,beta,,,69,19,V,R,
534,30,30,12,4,47,33,868,['n'],0,left,['2'],5,420,[-0.01475968],24,47,medium,minus,dotcolour,beta,,,69,19,V,R,
535,31,31,12,4,44,36,1201,['c'],1,left,['2'],5,186,[0.06810029],63,44,hard,minus,dotcolour,beta,,,69,19,V,R,
536,32,32,12,4,53,27,951,['c'],1,left,['2'],5,267,[0.03462834],33,53,easy,minus,dotcolour,beta,,,69,19,V,R,
537,33,33,12,4,44,36,734,['n'],0,left,['3'],4,283,[-0.03850767],36,44,hard,minus,dotcolour,beta,,,69,19,V,R,
538,34,34,12,4,27,53,982,['n'],1,right,['1'],6,47,[-0.11599538],99,53,easy,minus,dotcolour,beta,,,69,19,V,R,
539,35,35,12,4,44,36,868,['c'],1,left,['2'],5,137,[0.0526658],46,44,hard,minus,dotcolour,beta,,,69,19,V,R,
540,36,36,12,4,47,33,1318,['c'],1,left,['2'],5,198,[0.13301445],96,47,medium,minus,dotcolour,beta,,,69,19,V,R,
541,37,37,12,4,27,53,567,['n'],1,right,['1'],6,182,[-0.10706252],90,53,easy,minus,dotcolour,beta,,,69,19,V,R,
542,38,38,12,4,53,27,866,['c'],1,left,['1'],6,196,[0.0582694],53,53,easy,minus,dotcolour,beta,,,69,19,V,R,
543,39,39,12,4,33,47,668,['n'],1,right,['1'],6,144,[-0.07372391],70,47,medium,minus,dotcolour,beta,,,69,19,V,R,
544,40,40,12,4,53,27,848,['c'],1,left,['2'],5,183,[0.06684498],62,53,easy,minus,dotcolour,beta,,,69,19,V,R,
545,41,41,12,4,47,33,1100,['c'],1,left,['2'],5,139,[0.11795176],95,47,medium,minus,dotcolour,beta,,,69,19,V,R,
546,42,0,13,4,53,27,851,['c'],1,left,['2'],5,172,[0.06943184],65,53,easy,minus,dotcolour,beta,,,69,19,V,R,
547,43,1,13,4,33,47,732,['n'],1,right,['2'],5,135,[-0.07974162],77,47,medium,minus,dotcolour,beta,,,69,19,V,R,
548,44,2,13,4,53,27,1584,['n'],0,left,['2'],5,105,[-0.06666819],65,53,easy,minus,dotcolour,beta,,,69,19,V,R,
549,45,3,13,4,27,53,1184,['n'],1,right,['2'],5,109,[-0.05047465],43,53,easy,minus,dotcolour,beta,,,69,19,V,R,
550,46,4,13,4,36,44,915,['n'],1,right,['2'],5,163,[-0.07834378],73,44,hard,minus,dotcolour,beta,,,69,19,V,R,
551,47,5,13,4,44,36,999,['n'],0,left,['2'],5,443,[-0.05178634],47,44,hard,minus,dotcolour,beta,,,69,19,V,R,
552,48,6,13,4,53,27,766,['c'],1,left,['1'],6,209,[0.07429771],68,53,easy,minus,dotcolour,beta,,,69,19,V,R,
553,49,7,13,4,36,44,633,['n'],1,right,['1'],6,150,[-0.08457421],79,44,hard,minus,dotcolour,beta,,,69,19,V,R,
554,50,8,13,4,47,33,1218,['c'],1,left,['2'],5,222,[0.17590351],99,47,medium,minus,dotcolour,beta,,,69,19,V,R,
555,51,9,13,4,36,44,601,['n'],1,right,['1'],6,116,[-0.04605426],38,44,hard,minus,dotcolour,beta,,,69,19,V,R,
556,52,10,13,4,27,53,650,['n'],1,right,['1'],6,133,[-0.03490999],27,53,easy,minus,dotcolour,beta,,,69,19,V,R,
557,53,11,13,4,53,27,883,['c'],1,left,['1'],6,131,[0.07846133],76,53,easy,minus,dotcolour,beta,,,69,19,V,R,
558,54,12,13,4,53,27,785,['c'],1,left,['1'],6,382,[0.01532466],24,53,easy,minus,dotcolour,beta,,,69,19,V,R,
559,55,13,13,4,27,53,866,['n'],1,right,['1'],6,155,[-0.11731693],94,53,easy,minus,dotcolour,beta,,,69,19,V,R,
560,56,14,13,4,27,53,600,['n'],1,right,['1'],6,83,[-0.07423497],76,53,easy,minus,dotcolour,beta,,,69,19,V,R,
561,57,15,13,4,44,36,700,['n'],0,left,['1'],6,115,[-0.10543279],93,44,hard,minus,dotcolour,beta,,,69,19,V,R,
562,58,16,13,4,47,33,566,['n'],0,left,['1'],6,95,[-0.07715742],78,47,medium,minus,dotcolour,beta,,,69,19,V,R,
563,59,17,13,4,44,36,768,['n'],0,left,['1'],6,100,[-0.0609865],58,44,hard,minus,dotcolour,beta,,,69,19,V,R,
564,60,18,13,4,44,36,1085,['c'],1,left,['1'],6,164,[0.0758809],71,44,hard,minus,dotcolour,beta,,,69,19,V,R,
565,61,19,13,4,36,44,717,['n'],1,right,['2'],5,144,[-0.0470917],40,44,hard,minus,dotcolour,beta,,,69,19,V,R,
566,62,20,13,4,47,33,1218,['c'],1,left,['3'],4,191,[0.10698832],89,47,medium,minus,dotcolour,beta,,,69,19,V,R,
567,63,21,13,4,47,33,750,['n'],0,left,['3'],4,129,[-0.0941971],87,47,medium,minus,dotcolour,beta,,,69,19,V,R,
568,64,22,13,4,44,36,1116,['c'],1,left,['3'],4,149,[0.1041763],91,44,hard,minus,dotcolour,beta,,,69,19,V,R,
569,65,23,13,4,47,33,1117,['c'],1,left,['2'],5,314,[0.16399746],97,47,medium,minus,dotcolour,beta,,,69,19,V,R,
570,66,24,13,4,44,36,1084,['c'],1,left,['3'],4,265,[-0.00998013],9,44,hard,minus,dotcolour,beta,,,69,19,V,R,
571,67,25,13,4,27,53,584,['n'],1,right,['2'],5,206,[-0.07434026],68,53,easy,minus,dotcolour,beta,,,69,19,V,R,
572,68,26,13,4,33,47,835,['n'],1,right,['2'],5,132,[-0.10410456],92,47,medium,minus,dotcolour,beta,,,69,19,V,R,
573,69,27,13,4,33,47,734,['n'],1,right,['1'],6,497,[-0.10217862],77,47,medium,minus,dotcolour,beta,,,69,19,V,R,
574,70,28,13,4,47,33,934,['c'],1,left,['3'],4,190,[0.14475784],98,47,medium,minus,dotcolour,beta,,,69,19,V,R,
575,71,29,13,4,33,47,765,['n'],1,right,['3'],4,351,[-0.12473156],89,47,medium,minus,dotcolour,beta,,,69,19,V,R,
576,72,30,13,4,53,27,1201,['c'],1,left,['2'],5,175,[0.11709118],93,53,easy,minus,dotcolour,beta,,,69,19,V,R,
577,73,31,13,4,27,53,567,['n'],1,right,['1'],6,192,[-0.08938307],80,53,easy,minus,dotcolour,beta,,,69,19,V,R,
578,74,32,13,4,53,27,883,['c'],1,left,['1'],6,164,[0.14372856],98,53,easy,minus,dotcolour,beta,,,69,19,V,R,
579,75,33,13,4,33,47,583,['n'],1,right,['1'],6,109,[-0.06603118],64,47,medium,minus,dotcolour,beta,,,69,19,V,R,
580,76,34,13,4,33,47,532,['n'],1,right,['1'],6,179,[-0.17614524],99,47,medium,minus,dotcolour,beta,,,69,19,V,R,
581,77,35,13,4,47,33,900,['c'],1,left,['1'],6,230,[0.07420798],67,47,medium,minus,dotcolour,beta,,,69,19,V,R,
582,78,36,13,4,36,44,733,['n'],1,right,['2'],5,134,[-0.08330032],80,44,hard,minus,dotcolour,beta,,,69,19,V,R,
583,79,37,13,4,36,44,1418,['n'],1,right,['2'],5,79,[-0.07500218],78,44,hard,minus,dotcolour,beta,,,69,19,V,R,
584,80,38,13,4,44,36,850,['c'],1,left,['2'],5,225,[0.06934279],63,44,hard,minus,dotcolour,beta,,,69,19,V,R,
585,81,39,13,4,33,47,583,['n'],1,right,['1'],6,192,[-0.10119928],87,47,medium,minus,dotcolour,beta,,,69,19,V,R,
586,82,40,13,4,36,44,648,['n'],1,right,['1'],6,109,[-0.09226377],88,44,hard,minus,dotcolour,beta,,,69,19,V,R,
587,83,41,13,4,27,53,665,['n'],1,right,['1'],6,125,[-0.11410335],95,53,easy,minus,dotcolour,beta,,,69,19,V,R,
588,84,0,14,4,47,33,1068,['c'],1,left,['2'],5,206,[0.04026606],35,47,medium,minus,dotcolour,beta,,,69,19,V,R,
589,85,1,14,4,36,44,884,['n'],1,right,['2'],5,146,[-0.03779066],30,44,hard,minus,dotcolour,beta,,,69,19,V,R,
590,86,2,14,4,47,33,933,['c'],1,left,['2'],5,165,[0.10888284],91,47,medium,minus,dotcolour,beta,,,69,19,V,R,
591,87,3,14,4,53,27,1149,['c'],1,left,['3'],4,151,[0.08838264],82,53,easy,minus,dotcolour,beta,,,69,19,V,R,
592,88,4,14,4,47,33,1468,['c'],1,left,['3'],4,165,[0.06453573],60,47,medium,minus,dotcolour,beta,,,69,19,V,R,
593,89,5,14,4,47,33,1468,['n'],0,left,['2'],5,162,[-0.02854525],23,47,medium,minus,dotcolour,beta,,,69,19,V,R,
594,90,6,14,4,53,27,933,['c'],1,left,['1'],6,197,[0.03850737],33,53,easy,minus,dotcolour,beta,,,69,19,V,R,
595,91,7,14,4,27,53,651,['n'],1,right,['1'],6,243,[-0.05639362],51,53,easy,minus,dotcolour,beta,,,69,19,V,R,
596,92,8,14,4,36,44,683,['n'],1,right,['1'],6,125,[-0.02508897],17,44,hard,minus,dotcolour,beta,,,69,19,V,R,
597,93,9,14,4,53,27,782,['c'],1,left,['2'],5,135,[0.09345582],86,53,easy,minus,dotcolour,beta,,,69,19,V,R,
598,94,10,14,4,53,27,932,['c'],1,left,['3'],4,203,[0.15593198],98,53,easy,minus,dotcolour,beta,,,69,19,V,R,
599,95,11,14,4,33,47,801,['n'],1,right,['2'],5,274,[-0.09253874],78,47,medium,minus,dotcolour,beta,,,69,19,V,R,
600,96,12,14,4,27,53,633,['n'],1,right,['1'],6,133,[-0.10770237],93,53,easy,minus,dotcolour,beta,,,69,19,V,R,
601,97,13,14,4,33,47,717,['n'],1,right,['1'],6,98,[-0.0575487],53,47,medium,minus,dotcolour,beta,,,69,19,V,R,
602,98,14,14,4,27,53,583,['n'],1,right,['2'],5,150,[-0.09782684],88,53,easy,minus,dotcolour,beta,,,69,19,V,R,
603,99,15,14,4,33,47,683,['n'],1,right,['2'],5,116,[-0.09191421],87,47,medium,minus,dotcolour,beta,,,69,19,V,R,
604,100,16,14,4,36,44,598,['n'],1,right,['2'],5,103,[-0.04911214],41,44,hard,minus,dotcolour,beta,,,69,19,V,R,
605,101,17,14,4,36,44,1150,['n'],1,right,['3'],4,43,[-0.10408927],99,44,hard,minus,dotcolour,beta,,,69,19,V,R,
606,102,18,14,4,44,36,1184,['c'],1,left,['3'],4,129,[0.04638498],39,44,hard,minus,dotcolour,beta,,,69,19,V,R,
607,103,19,14,4,27,53,732,['n'],1,right,['3'],4,150,[-0.07235508],69,53,easy,minus,dotcolour,beta,,,69,19,V,R,
608,104,20,14,4,33,47,1383,['n'],1,right,['2'],5,23,[-0.05141193],38,47,medium,minus,dotcolour,beta,,,69,19,V,R,
609,105,21,14,4,27,53,566,['n'],1,right,['2'],5,103,[-0.11008422],96,53,easy,minus,dotcolour,beta,,,69,19,V,R,
610,106,22,14,4,53,27,883,['c'],1,left,['2'],5,151,[0.08152652],77,53,easy,minus,dotcolour,beta,,,69,19,V,R,
611,107,23,14,4,44,36,717,['n'],0,left,['2'],5,267,[-0.1026987],84,44,hard,minus,dotcolour,beta,,,69,19,V,R,
612,108,24,14,4,27,53,684,['n'],1,right,['2'],5,92,[-0.05866846],55,53,easy,minus,dotcolour,beta,,,69,19,V,R,
613,109,25,14,4,47,33,832,['c'],1,left,['2'],5,158,[0.08583939],80,47,medium,minus,dotcolour,beta,,,69,19,V,R,
614,110,26,14,4,33,47,651,['n'],1,right,['2'],5,149,[-0.03484827],28,47,medium,minus,dotcolour,beta,,,69,19,V,R,
615,111,27,14,4,47,33,851,['c'],1,left,['2'],5,132,[0.11915165],96,47,medium,minus,dotcolour,beta,,,69,19,V,R,
616,112,28,14,4,53,27,800,['n'],0,left,['2'],5,158,[-0.04269047],36,53,easy,minus,dotcolour,beta,,,69,19,V,R,
617,113,29,14,4,44,36,801,['c'],1,left,['2'],5,190,[0.16509476],99,44,hard,minus,dotcolour,beta,,,69,19,V,R,
618,114,30,14,4,44,36,834,['n'],0,left,['2'],5,172,[-0.08284023],77,44,hard,minus,dotcolour,beta,,,69,19,V,R,
619,115,31,14,4,27,53,600,['n'],1,right,['2'],5,108,[-0.09499337],90,53,easy,minus,dotcolour,beta,,,69,19,V,R,
620,116,32,14,4,36,44,616,['n'],1,right,['2'],5,142,[-0.03471546],27,44,hard,minus,dotcolour,beta,,,69,19,V,R,
621,117,33,14,4,44,36,733,['c'],1,left,['2'],5,138,[0.04180361],34,44,hard,minus,dotcolour,beta,,,69,19,V,R,
622,118,34,14,4,36,44,516,['n'],1,right,['3'],4,223,[-0.05647436],51,44,hard,minus,dotcolour,beta,,,69,19,V,R,
623,119,35,14,4,33,47,1269,['c'],0,right,['3'],4,138,[0.0895265],84,47,medium,minus,dotcolour,beta,,,69,19,V,R,
624,120,36,14,4,47,33,617,['n'],0,left,['3'],4,131,[-0.05267818],46,47,medium,minus,dotcolour,beta,,,69,19,V,R,
625,121,37,14,4,44,36,949,['c'],1,left,['3'],4,143,[0.12453999],96,44,hard,minus,dotcolour,beta,,,69,19,V,R,
626,122,38,14,4,53,27,749,['c'],1,left,['3'],4,154,[0.02783287],22,53,easy,minus,dotcolour,beta,,,69,19,V,R,
627,123,39,14,4,33,47,715,['n'],1,right,['2'],5,150,[-0.12742047],97,47,medium,minus,dotcolour,beta,,,69,19,V,R,
628,124,40,14,4,44,36,1033,['c'],1,left,['2'],5,125,[0.10210418],91,44,hard,minus,dotcolour,beta,,,69,19,V,R,
629,125,41,14,4,36,44,667,['n'],1,right,['2'],5,61,[-0.07516672],81,44,hard,minus,dotcolour,beta,,,69,19,V,R,
630,0,0,15,5,44,36,717,['n'],0,left,['2'],5,90,[-0.0418647],100,44,hard,plus,dotcolour,beta,,,69,19,V,R,
631,1,1,15,5,27,53,568,['n'],1,right,['2'],5,135,[-0.04262486],99,53,easy,plus,dotcolour,beta,,,69,19,V,R,
632,2,2,15,5,47,33,901,['c'],1,left,['1'],6,181,[0.13601081],100,47,medium,plus,dotcolour,beta,,,69,19,V,R,
633,3,3,15,5,53,27,548,['c'],1,left,['1'],6,166,[0.11327455],100,53,easy,plus,dotcolour,beta,,,69,19,V,R,
634,4,4,15,5,47,33,867,['c'],1,left,['1'],6,180,[0.08269188],100,47,medium,plus,dotcolour,beta,,,69,19,V,R,
635,5,5,15,5,27,53,565,['n'],1,right,['1'],6,118,[-0.07817662],100,53,easy,plus,dotcolour,beta,,,69,19,V,R,
636,6,6,15,5,36,44,966,['n'],1,right,['1'],6,56,[-0.08390237],100,44,hard,plus,dotcolour,beta,,,69,19,V,R,
637,7,7,15,5,53,27,750,['c'],1,left,['1'],6,128,[0.11506434],100,53,easy,plus,dotcolour,beta,,,69,19,V,R,
638,8,8,15,5,33,47,802,['c'],0,right,['1'],6,146,[0.04015345],99,47,medium,plus,dotcolour,beta,,,69,19,V,R,
639,9,9,15,5,36,44,581,['n'],1,right,['2'],5,284,[-0.05890335],98,44,hard,plus,dotcolour,beta,,,69,19,V,R,
640,10,10,15,5,47,33,784,['n'],0,left,['2'],5,152,[-0.05159763],99,47,medium,plus,dotcolour,beta,,,69,19,V,R,
641,11,11,15,5,47,33,899,['n'],0,left,['2'],5,109,[-0.07960917],100,47,medium,plus,dotcolour,beta,,,69,19,V,R,
642,12,12,15,5,27,53,531,['n'],1,right,['2'],5,114,[-0.05340846],100,53,easy,plus,dotcolour,beta,,,69,19,V,R,
643,13,13,15,5,44,36,950,['n'],0,left,['3'],4,239,[-0.1056811],100,44,hard,plus,dotcolour,beta,,,69,19,V,R,
644,14,14,15,5,53,27,1200,['c'],1,left,['2'],5,132,[0.11133465],100,53,easy,plus,dotcolour,beta,,,69,19,V,R,
645,15,15,15,5,33,47,716,['n'],1,right,['1'],6,113,[-0.11844683],100,47,medium,plus,dotcolour,beta,,,69,19,V,R,
646,16,16,15,5,44,36,1133,['n'],0,left,['1'],6,598,[-0.14677814],99,44,hard,plus,dotcolour,beta,,,69,19,V,R,
647,17,17,15,5,44,36,600,['n'],0,left,['1'],6,109,[-0.0570928],100,44,hard,plus,dotcolour,beta,,,69,19,V,R,
648,18,18,15,5,44,36,900,['c'],1,left,['3'],4,131,[0.07582952],100,44,hard,plus,dotcolour,beta,,,69,19,V,R,
649,19,19,15,5,33,47,549,['n'],1,right,['1'],6,127,[-0.11277884],100,47,medium,plus,dotcolour,beta,,,69,19,V,R,
650,20,20,15,5,47,33,1017,['c'],1,left,['2'],5,136,[0.07938088],100,47,medium,plus,dotcolour,beta,,,69,19,V,R,
651,21,21,15,5,33,47,1100,['n'],1,right,['2'],5,54,[-0.0948413],100,47,medium,plus,dotcolour,beta,,,69,19,V,R,
652,22,22,15,5,47,33,818,['c'],1,left,['1'],6,146,[0.11286459],100,47,medium,plus,dotcolour,beta,,,69,19,V,R,
653,23,23,15,5,36,44,632,['n'],1,right,['1'],6,82,[-0.04098512],100,44,hard,plus,dotcolour,beta,,,69,19,V,R,
654,24,24,15,5,36,44,767,['n'],1,right,['2'],5,240,[-0.02920855],96,44,hard,plus,dotcolour,beta,,,69,19,V,R,
655,25,25,15,5,27,53,600,['n'],1,right,['1'],6,109,[-0.1265777],100,53,easy,plus,dotcolour,beta,,,69,19,V,R,
656,26,26,15,5,36,44,617,['n'],1,right,['1'],6,143,[-0.05291165],99,44,hard,plus,dotcolour,beta,,,69,19,V,R,
657,27,27,15,5,36,44,1267,['n'],1,right,['1'],6,165,[-0.07584873],100,44,hard,plus,dotcolour,beta,,,69,19,V,R,
658,28,28,15,5,47,33,616,['n'],0,left,['2'],5,108,[-0.0583176],100,47,medium,plus,dotcolour,beta,,,69,19,V,R,
659,29,29,15,5,44,36,801,['n'],0,left,['2'],5,15,[-0.06645554],100,44,hard,plus,dotcolour,beta,,,69,19,V,R,
660,30,30,15,5,33,47,567,['n'],1,right,['2'],5,79,[-0.09956423],100,47,medium,plus,dotcolour,beta,,,69,19,V,R,
661,31,31,15,5,27,53,547,['n'],1,right,['2'],5,117,[-0.14949725],100,53,easy,plus,dotcolour,beta,,,69,19,V,R,
662,32,32,15,5,53,27,934,['c'],1,left,['1'],6,170,[0.12529244],100,53,easy,plus,dotcolour,beta,,,69,19,V,R,
663,33,33,15,5,33,47,1184,['n'],1,right,['1'],6,75,[-0.06211917],100,47,medium,plus,dotcolour,beta,,,69,19,V,R,
664,34,34,15,5,27,53,615,['n'],1,right,['1'],6,111,[-0.07286025],100,53,easy,plus,dotcolour,beta,,,69,19,V,R,
665,35,35,15,5,33,47,600,['n'],1,right,['1'],6,73,[-0.08546969],100,47,medium,plus,dotcolour,beta,,,69,19,V,R,
666,36,36,15,5,53,27,684,['c'],1,left,['1'],6,139,[0.10805398],100,53,easy,plus,dotcolour,beta,,,69,19,V,R,
667,37,37,15,5,53,27,684,['c'],1,left,['1'],6,128,[0.08117296],100,53,easy,plus,dotcolour,beta,,,69,19,V,R,
668,38,38,15,5,36,44,683,['n'],1,right,['1'],6,79,[-0.08985105],100,44,hard,plus,dotcolour,beta,,,69,19,V,R,
669,39,39,15,5,44,36,783,['c'],1,left,['1'],6,124,[0.13159644],100,44,hard,plus,dotcolour,beta,,,69,19,V,R,
670,40,40,15,5,53,27,651,['c'],1,left,['1'],6,108,[0.1033065],100,53,easy,plus,dotcolour,beta,,,69,19,V,R,
671,41,41,15,5,27,53,565,['n'],1,right,['1'],6,88,[-0.10147116],100,53,easy,plus,dotcolour,beta,,,69,19,V,R,
672,42,0,16,5,47,33,683,['c'],1,left,['1'],6,129,[0.09553471],100,47,medium,plus,dotcolour,beta,,,69,19,V,R,
673,43,1,16,5,33,47,481,['n'],1,right,['1'],6,112,[-0.16060736],100,47,medium,plus,dotcolour,beta,,,69,19,V,R,
674,44,2,16,5,47,33,567,['c'],1,left,['1'],6,116,[0.06236918],100,47,medium,plus,dotcolour,beta,,,69,19,V,R,
675,45,3,16,5,44,36,483,['n'],0,left,['1'],6,100,[-0.04537681],100,44,hard,plus,dotcolour,beta,,,69,19,V,R,
676,46,4,16,5,53,27,532,['c'],1,left,['1'],6,90,[0.1121388],100,53,easy,plus,dotcolour,beta,,,69,19,V,R,
677,47,5,16,5,53,27,582,['c'],1,left,['1'],6,79,[0.07057551],100,53,easy,plus,dotcolour,beta,,,69,19,V,R,
678,48,6,16,5,33,47,499,['n'],1,right,['1'],6,47,[-0.09493054],100,47,medium,plus,dotcolour,beta,,,69,19,V,R,
679,49,7,16,5,36,44,499,['n'],1,right,['1'],6,88,[-0.09861033],100,44,hard,plus,dotcolour,beta,,,69,19,V,R,
680,50,8,16,5,33,47,651,['n'],1,right,['1'],6,98,[-0.04781205],100,47,medium,plus,dotcolour,beta,,,69,19,V,R,
681,51,9,16,5,44,36,516,['n'],0,left,['1'],6,113,[-0.11877767],100,44,hard,plus,dotcolour,beta,,,69,19,V,R,
682,52,10,16,5,27,53,516,['n'],1,right,['1'],6,87,[-0.07606711],100,53,easy,plus,dotcolour,beta,,,69,19,V,R,
683,53,11,16,5,53,27,599,['c'],1,left,['1'],6,114,[0.1003535],100,53,easy,plus,dotcolour,beta,,,69,19,V,R,
684,54,12,16,5,36,44,500,['n'],1,right,['1'],6,89,[-0.0716612],100,44,hard,plus,dotcolour,beta,,,69,19,V,R,
685,55,13,16,5,36,44,634,['n'],1,right,['1'],6,92,[-0.02782059],99,44,hard,plus,dotcolour,beta,,,69,19,V,R,
686,56,14,16,5,44,36,916,['n'],0,left,['1'],6,66,[-0.09945102],100,44,hard,plus,dotcolour,beta,,,69,19,V,R,
687,57,15,16,5,44,36,1101,['c'],1,left,['2'],5,131,[0.07268929],100,44,hard,plus,dotcolour,beta,,,69,19,V,R,
688,58,16,16,5,33,47,616,['n'],1,right,['1'],6,76,[-0.01257758],99,47,medium,plus,dotcolour,beta,,,69,19,V,R,
689,59,17,16,5,53,27,633,['c'],1,left,['1'],6,71,[0.07205695],100,53,easy,plus,dotcolour,beta,,,69,19,V,R,
690,60,18,16,5,44,36,634,['n'],0,left,['1'],6,130,[-0.03313999],99,44,hard,plus,dotcolour,beta,,,69,19,V,R,
691,61,19,16,5,47,33,599,['n'],0,left,['1'],6,116,[-0.09080025],100,47,medium,plus,dotcolour,beta,,,69,19,V,R,
692,62,20,16,5,33,47,567,['n'],1,right,['1'],6,80,[-0.08254875],100,47,medium,plus,dotcolour,beta,,,69,19,V,R,
693,63,21,16,5,47,33,767,['n'],0,left,['0'],1,798,[-0.04859031],89,47,medium,plus,dotcolour,beta,,,69,19,V,R,
694,64,22,16,5,36,44,684,['n'],1,right,['1'],6,96,[-0.11500782],100,44,hard,plus,dotcolour,beta,,,69,19,V,R,
695,65,23,16,5,53,27,951,['c'],1,left,['1'],6,141,[0.09465078],100,53,easy,plus,dotcolour,beta,,,69,19,V,R,
696,66,24,16,5,33,47,599,['n'],1,right,['1'],6,247,[-0.04778844],98,47,medium,plus,dotcolour,beta,,,69,19,V,R,
697,67,25,16,5,36,44,533,['n'],1,right,['1'],6,78,[-0.04524573],100,44,hard,plus,dotcolour,beta,,,69,19,V,R,
698,68,26,16,5,44,36,917,['c'],1,left,['1'],6,189,[0.12278826],100,44,hard,plus,dotcolour,beta,,,69,19,V,R,
699,69,27,16,5,53,27,767,['c'],1,left,['1'],6,135,[0.08726981],100,53,easy,plus,dotcolour,beta,,,69,19,V,R,
700,70,28,16,5,47,33,733,['c'],1,left,['1'],6,123,[0.08390267],100,47,medium,plus,dotcolour,beta,,,69,19,V,R,
701,71,29,16,5,36,44,434,['n'],1,right,['1'],6,45,[-0.09518717],100,44,hard,plus,dotcolour,beta,,,69,19,V,R,
702,72,30,16,5,27,53,550,['n'],1,right,['1'],6,69,[-0.05309099],100,53,easy,plus,dotcolour,beta,,,69,19,V,R,
703,73,31,16,5,47,33,735,['n'],0,left,['1'],6,68,[-0.07928701],100,47,medium,plus,dotcolour,beta,,,69,19,V,R,
704,74,32,16,5,27,53,500,['n'],1,right,['1'],6,84,[-0.06182876],100,53,easy,plus,dotcolour,beta,,,69,19,V,R,
705,75,33,16,5,53,27,467,['c'],1,left,['1'],6,141,[0.14178686],100,53,easy,plus,dotcolour,beta,,,69,19,V,R,
706,76,34,16,5,47,33,550,['n'],0,left,['8'],3,801,[0.09861195],30,47,medium,plus,dotcolour,beta,,,69,19,V,R,
707,77,35,16,5,27,53,633,['n'],1,right,['1'],6,78,[-0.10263265],100,53,easy,plus,dotcolour,beta,,,69,19,V,R,
708,78,36,16,5,27,53,450,['n'],1,right,['1'],6,72,[-0.13569411],100,53,easy,plus,dotcolour,beta,,,69,19,V,R,
709,79,37,16,5,33,47,550,['n'],1,right,['1'],6,94,[-0.08378658],100,47,medium,plus,dotcolour,beta,,,69,19,V,R,
710,80,38,16,5,27,53,417,['n'],1,right,['1'],6,57,[-0.09284914],100,53,easy,plus,dotcolour,beta,,,69,19,V,R,
711,81,39,16,5,27,53,433,['n'],1,right,['1'],6,53,[-0.07792596],100,53,easy,plus,dotcolour,beta,,,69,19,V,R,
712,82,40,16,5,36,44,384,['n'],1,right,['1'],6,83,[-0.09667867],100,44,hard,plus,dotcolour,beta,,,69,19,V,R,
713,83,41,16,5,44,36,400,['n'],0,left,['1'],6,79,[-0.04971981],100,44,hard,plus,dotcolour,beta,,,69,19,V,R,
714,84,0,17,5,47,33,784,['c'],1,left,['1'],6,118,[0.09629207],100,47,medium,plus,dotcolour,beta,,,69,19,V,R,
715,85,1,17,5,44,36,483,['n'],0,left,['1'],6,94,[-0.08688446],100,44,hard,plus,dotcolour,beta,,,69,19,V,R,
716,86,2,17,5,27,53,399,['n'],1,right,['1'],6,89,[-0.10296782],100,53,easy,plus,dotcolour,beta,,,69,19,V,R,
717,87,3,17,5,33,47,400,['n'],1,right,['1'],6,53,[-0.09082056],100,47,medium,plus,dotcolour,beta,,,69,19,V,R,
718,88,4,17,5,53,27,366,['n'],0,left,['1'],6,100,[-0.07816427],100,53,easy,plus,dotcolour,beta,,,69,19,V,R,
719,89,5,17,5,36,44,400,['n'],1,right,['1'],6,79,[-0.10633264],100,44,hard,plus,dotcolour,beta,,,69,19,V,R,
720,90,6,17,5,47,33,566,['c'],1,left,['1'],6,133,[0.1159249],100,47,medium,plus,dotcolour,beta,,,69,19,V,R,
721,91,7,17,5,33,47,483,['n'],1,right,['1'],6,100,[-0.10646247],100,47,medium,plus,dotcolour,beta,,,69,19,V,R,
722,92,8,17,5,27,53,482,['n'],1,right,['1'],6,115,[-0.08560462],100,53,easy,plus,dotcolour,beta,,,69,19,V,R,
723,93,9,17,5,33,47,333,['n'],1,right,['1'],6,81,[-0.13270963],100,47,medium,plus,dotcolour,beta,,,69,19,V,R,
724,94,10,17,5,27,53,333,['n'],1,right,['1'],6,72,[-0.11761594],100,53,easy,plus,dotcolour,beta,,,69,19,V,R,
725,95,11,17,5,47,33,417,['n'],0,left,['1'],6,84,[-0.07566225],100,47,medium,plus,dotcolour,beta,,,69,19,V,R,
726,96,12,17,5,27,53,332,['n'],1,right,['1'],6,387,[-0.07308585],98,53,easy,plus,dotcolour,beta,,,69,19,V,R,
727,97,13,17,5,33,47,550,['n'],1,right,['1'],6,76,[-0.10032558],100,47,medium,plus,dotcolour,beta,,,69,19,V,R,
728,98,14,17,5,27,53,416,['n'],1,right,['1'],6,56,[-0.06174549],100,53,easy,plus,dotcolour,beta,,,69,19,V,R,
729,99,15,17,5,36,44,434,['n'],1,right,['1'],6,76,[-0.012579],99,44,hard,plus,dotcolour,beta,,,69,19,V,R,
730,100,16,17,5,36,44,365,['n'],1,right,['1'],6,90,[-0.09653105],100,44,hard,plus,dotcolour,beta,,,69,19,V,R,
731,101,17,17,5,44,36,498,['n'],0,left,['1'],6,49,[-0.09261642],100,44,hard,plus,dotcolour,beta,,,69,19,V,R,
732,102,18,17,5,33,47,415,['n'],1,right,['1'],6,78,[-0.09498085],100,47,medium,plus,dotcolour,beta,,,69,19,V,R,
733,103,19,17,5,47,33,414,['n'],0,left,['1'],6,194,[-0.0278442],97,47,medium,plus,dotcolour,beta,,,69,19,V,R,
734,104,20,17,5,33,47,433,['n'],1,right,['1'],6,48,[-0.05522874],100,47,medium,plus,dotcolour,beta,,,69,19,V,R,
735,105,21,17,5,27,53,566,['n'],1,right,['1'],6,94,[-0.09401746],100,53,easy,plus,dotcolour,beta,,,69,19,V,R,
736,106,22,17,5,36,44,417,['n'],1,right,['1'],6,81,[-0.0857729],100,44,hard,plus,dotcolour,beta,,,69,19,V,R,
737,107,23,17,5,53,27,784,['c'],1,left,['1'],6,102,[0.11078251],100,53,easy,plus,dotcolour,beta,,,69,19,V,R,
738,108,24,17,5,47,33,668,['n'],0,left,['1'],6,87,[-0.07799986],100,47,medium,plus,dotcolour,beta,,,69,19,V,R,
739,109,25,17,5,53,27,649,['n'],0,left,['8'],3,801,[0.13566476],17,53,easy,plus,dotcolour,beta,,,69,19,V,R,
740,110,26,17,5,44,36,1031,['c'],1,left,['2'],5,109,[0.04797741],100,44,hard,plus,dotcolour,beta,,,69,19,V,R,
741,111,27,17,5,53,27,516,['n'],0,left,['2'],5,260,[0.0629601],44,53,easy,plus,dotcolour,beta,,,69,19,V,R,
742,112,28,17,5,36,44,766,['n'],1,right,['2'],5,122,[-0.03846015],99,44,hard,plus,dotcolour,beta,,,69,19,V,R,
743,113,29,17,5,27,53,484,['n'],1,right,['2'],5,97,[-0.05784632],100,53,easy,plus,dotcolour,beta,,,69,19,V,R,
744,114,30,17,5,44,36,1283,['c'],1,left,['3'],4,129,[0.0785059],100,44,hard,plus,dotcolour,beta,,,69,19,V,R,
745,115,31,17,5,47,33,766,['n'],0,left,['2'],5,196,[-0.01675085],95,47,medium,plus,dotcolour,beta,,,69,19,V,R,
746,116,32,17,5,44,36,1049,['c'],1,left,['3'],4,488,[0.02192198],88,44,hard,plus,dotcolour,beta,,,69,19,V,R,
747,117,33,17,5,36,44,548,['n'],1,right,['2'],5,181,[-0.04543936],99,44,hard,plus,dotcolour,beta,,,69,19,V,R,
748,118,34,17,5,53,27,682,['c'],1,left,['2'],5,130,[0.06572371],100,53,easy,plus,dotcolour,beta,,,69,19,V,R,
749,119,35,17,5,53,27,683,['c'],1,left,['1'],6,153,[0.10149959],100,53,easy,plus,dotcolour,beta,,,69,19,V,R,
750,120,36,17,5,33,47,616,['n'],1,right,['1'],6,73,[-0.08845859],100,47,medium,plus,dotcolour,beta,,,69,19,V,R,
751,121,37,17,5,53,27,534,['n'],0,left,['1'],6,81,[-0.02525426],99,53,easy,plus,dotcolour,beta,,,69,19,V,R,
752,122,38,17,5,44,36,650,['c'],1,left,['1'],6,115,[0.01766605],98,44,hard,plus,dotcolour,beta,,,69,19,V,R,
753,123,39,17,5,36,44,666,['n'],1,right,['2'],5,155,[-0.06038827],100,44,hard,plus,dotcolour,beta,,,69,19,V,R,
754,124,40,17,5,44,36,949,['c'],1,left,['2'],5,157,[0.09089307],100,44,hard,plus,dotcolour,beta,,,69,19,V,R,
755,125,41,17,5,47,33,683,['n'],0,left,['1'],6,122,[-0.05034618],100,47,medium,plus,dotcolour,beta,,,69,19,V,R,
,,,,,,,,,,,,,,,,,,,,,1,,69,19,V,R,
,,,,,,,,,,,,,,,,,,,,,2,['h'],69,19,V,R,
,,,,,,,,,,,,,,,,,,,,,3,['h'],69,19,V,R,
,,,,,,,,,,,,,,,,,,,,,5,[],69,19,V,R,
