trial,withinphasetrial,withinblocktrial,block,phase,dotsLeft,dotsRight,rt,resp,cor,cresp,conf_press,cj,RTconf,ev,fb,diff,difflevel,condition,task,manip,questionID,questionResp,sub,age,gender,handedness,
0,0,0,0,0,47,33,9116,['n'],0,left,['8'],3,2135,[0.02174169],28,47,medium,minus,dotcolour,beta,,,5,18,V,R,
1,1,1,0,0,36,44,2547,['c'],0,right,['2'],5,2781,[0.11659264],66,44,hard,minus,dotcolour,beta,,,5,18,V,R,
2,2,2,0,0,36,44,3565,['c'],0,right,['3'],4,2144,[0.12088649],69,44,hard,minus,dotcolour,beta,,,5,18,V,R,
3,3,3,0,0,27,53,1814,['n'],1,right,['1'],6,5139,[-0.90068431],100,53,easy,minus,dotcolour,beta,,,5,18,V,R,
4,4,4,0,0,53,27,2583,['c'],1,left,['1'],6,2566,[0.59742597],100,53,easy,minus,dotcolour,beta,,,5,18,V,R,
5,5,5,0,0,47,33,1831,['n'],0,left,['2'],5,6191,[0.52627884],1,47,medium,minus,dotcolour,beta,,,5,18,V,R,
6,6,6,0,0,33,47,1096,['n'],1,right,['3'],4,900,[-0.05628626],50,47,medium,minus,dotcolour,beta,,,5,18,V,R,
7,7,7,0,0,27,53,1299,['n'],1,right,['1'],6,2829,[-0.41033483],98,53,easy,minus,dotcolour,beta,,,5,18,V,R,
8,8,8,0,0,47,33,1849,['c'],1,left,['2'],5,2539,[0.24735928],90,47,medium,minus,dotcolour,beta,,,5,18,V,R,
9,9,9,0,0,36,44,3548,['n'],1,right,['3'],4,2233,[-0.24162645],90,44,hard,minus,dotcolour,beta,,,5,18,V,R,
10,10,10,0,0,36,44,1449,['n'],1,right,['3'],4,711,[-0.05554234],50,44,hard,minus,dotcolour,beta,,,5,18,V,R,
11,11,11,0,0,44,36,1498,['c'],1,left,['2'],5,2064,[0.20078203],86,44,hard,minus,dotcolour,beta,,,5,18,V,R,
12,12,12,0,0,36,44,2015,['n'],1,right,['2'],5,1870,[-0.10996857],67,44,hard,minus,dotcolour,beta,,,5,18,V,R,
13,13,13,0,0,27,53,1432,['n'],1,right,['2'],5,379,[-0.03935961],38,53,easy,minus,dotcolour,beta,,,5,18,V,R,
14,14,14,0,0,53,27,1298,['c'],1,left,['2'],5,2738,[0.83205699],100,53,easy,minus,dotcolour,beta,,,5,18,V,R,
15,15,15,0,0,44,36,2082,['c'],1,left,['3'],4,874,[0.04044766],43,44,hard,minus,dotcolour,beta,,,5,18,V,R,
16,16,16,0,0,33,47,1384,['n'],1,right,['3'],4,1041,[0.06687224],10,47,medium,minus,dotcolour,beta,,,5,18,V,R,
17,17,17,0,0,44,36,3414,['c'],1,left,['3'],4,824,[0.1377941],84,44,hard,minus,dotcolour,beta,,,5,18,V,R,
18,18,18,0,0,53,27,5547,['n'],0,left,['8'],3,2508,[0.46430489],0,53,easy,minus,dotcolour,beta,,,5,18,V,R,
19,19,19,0,0,33,47,4247,['n'],1,right,['1'],6,943,[-0.23273447],96,47,medium,minus,dotcolour,beta,,,5,18,V,R,
20,20,20,0,0,44,36,1349,['c'],1,left,['1'],6,956,[0.16643237],89,44,hard,minus,dotcolour,beta,,,5,18,V,R,
21,21,21,0,0,53,27,3163,['c'],1,left,['2'],5,641,[0.10088506],73,53,easy,minus,dotcolour,beta,,,5,18,V,R,
22,22,22,0,0,33,47,1516,['n'],1,right,['3'],4,1444,[-0.23163812],93,47,medium,minus,dotcolour,beta,,,5,18,V,R,
23,23,23,0,0,53,27,1330,['c'],1,left,['3'],4,726,[0.08185276],64,53,easy,minus,dotcolour,beta,,,5,18,V,R,
24,24,24,0,0,27,53,1782,['n'],1,right,['1'],6,451,[-0.0254976],31,53,easy,minus,dotcolour,beta,,,5,18,V,R,
25,25,25,0,0,47,33,2431,['c'],1,left,['8'],3,2154,[0.32338873],96,47,medium,minus,dotcolour,beta,,,5,18,V,R,
26,26,26,0,0,36,44,2165,['n'],1,right,['1'],6,326,[0.0088456],12,44,hard,minus,dotcolour,beta,,,5,18,V,R,
27,27,27,0,0,47,33,4915,['c'],1,left,['8'],3,1183,[0.26697559],97,47,medium,minus,dotcolour,beta,,,5,18,V,R,
28,28,28,0,0,44,36,1832,['c'],1,left,['3'],4,1727,[0.12510182],72,44,hard,minus,dotcolour,beta,,,5,18,V,R,
29,29,29,0,0,27,53,1381,['n'],1,right,['1'],6,284,[-0.16663284],98,53,easy,minus,dotcolour,beta,,,5,18,V,R,
30,30,30,0,0,33,47,1265,['n'],1,right,['1'],6,543,[-0.19344841],97,47,medium,minus,dotcolour,beta,,,5,18,V,R,
31,31,31,0,0,47,33,1132,['c'],1,left,['1'],6,622,[0.05491891],50,47,medium,minus,dotcolour,beta,,,5,18,V,R,
32,32,32,0,0,36,44,1032,['n'],1,right,['2'],5,2110,[-0.21354113],88,44,hard,minus,dotcolour,beta,,,5,18,V,R,
33,33,33,0,0,27,53,999,['n'],1,right,['1'],6,321,[-0.12244261],89,53,easy,minus,dotcolour,beta,,,5,18,V,R,
34,34,34,0,0,27,53,1033,['n'],1,right,['1'],6,348,[-0.16027961],96,53,easy,minus,dotcolour,beta,,,5,18,V,R,
35,35,35,0,0,53,27,1114,['c'],1,left,['2'],5,947,[0.27126211],98,53,easy,minus,dotcolour,beta,,,5,18,V,R,
36,36,36,0,0,44,36,1715,['c'],1,left,['3'],4,1299,[0.29869937],98,44,hard,minus,dotcolour,beta,,,5,18,V,R,
37,37,37,0,0,33,47,1066,['n'],1,right,['1'],6,229,[-0.10448056],86,47,medium,minus,dotcolour,beta,,,5,18,V,R,
38,38,38,0,0,47,33,2399,['n'],0,left,['8'],3,1294,[0.11834645],6,47,medium,minus,dotcolour,beta,,,5,18,V,R,
39,39,39,0,0,33,47,1049,['n'],1,right,['2'],5,1817,[-0.28845533],96,47,medium,minus,dotcolour,beta,,,5,18,V,R,
40,40,40,0,0,53,27,1532,['c'],1,left,['2'],5,700,[0.2199143],97,53,easy,minus,dotcolour,beta,,,5,18,V,R,
41,41,41,0,0,44,36,999,['c'],1,left,['1'],6,745,[0.04713494],46,44,hard,minus,dotcolour,beta,,,5,18,V,R,
42,42,0,1,0,44,36,1516,['c'],1,left,['2'],5,748,[-0.00564374],22,44,hard,minus,dotcolour,beta,,,5,18,V,R,
43,43,1,1,0,36,44,1315,['n'],1,right,['1'],6,699,[-0.17289465],93,44,hard,minus,dotcolour,beta,,,5,18,V,R,
44,44,2,1,0,44,36,1699,['c'],1,left,['3'],4,1059,[0.19843989],92,44,hard,minus,dotcolour,beta,,,5,18,V,R,
45,45,3,1,0,53,27,2282,['c'],1,left,['3'],4,951,[0.21791645],95,53,easy,minus,dotcolour,beta,,,5,18,V,R,
46,46,4,1,0,36,44,2165,['n'],1,right,['3'],4,2227,[-0.29366713],95,44,hard,minus,dotcolour,beta,,,5,18,V,R,
47,47,5,1,0,36,44,1148,['n'],1,right,['2'],5,861,[-0.02401701],35,44,hard,minus,dotcolour,beta,,,5,18,V,R,
48,48,6,1,0,47,33,1499,['n'],0,left,['3'],4,2488,[0.08798008],16,47,medium,minus,dotcolour,beta,,,5,18,V,R,
49,49,7,1,0,36,44,1048,['n'],1,right,['1'],6,500,[-0.11356585],81,44,hard,minus,dotcolour,beta,,,5,18,V,R,
50,50,8,1,0,27,53,1050,['n'],1,right,['1'],6,967,[-0.41063571],100,53,easy,minus,dotcolour,beta,,,5,18,V,R,
51,51,9,1,0,33,47,2050,['n'],1,right,['2'],5,1520,[-0.21063176],91,47,medium,minus,dotcolour,beta,,,5,18,V,R,
52,52,10,1,0,44,36,2915,['n'],0,left,['8'],3,1161,[0.06131923],12,44,hard,minus,dotcolour,beta,,,5,18,V,R,
53,53,11,1,0,27,53,1048,['n'],1,right,['1'],6,417,[-0.06020081],53,53,easy,minus,dotcolour,beta,,,5,18,V,R,
54,54,12,1,0,33,47,1665,['n'],1,right,['1'],6,480,[-0.04432655],43,47,medium,minus,dotcolour,beta,,,5,18,V,R,
55,55,13,1,0,44,36,1315,['c'],1,left,['3'],4,442,[0.13249537],89,44,hard,minus,dotcolour,beta,,,5,18,V,R,
56,56,14,1,0,33,47,1665,['n'],1,right,['1'],6,879,[-0.03183773],39,47,medium,minus,dotcolour,beta,,,5,18,V,R,
57,57,15,1,0,44,36,1666,['c'],1,left,['3'],4,970,[0.06725157],55,44,hard,minus,dotcolour,beta,,,5,18,V,R,
58,58,16,1,0,27,53,1183,['n'],1,right,['2'],5,1838,[-0.52074068],100,53,easy,minus,dotcolour,beta,,,5,18,V,R,
59,59,17,1,0,36,44,2748,['n'],1,right,['3'],4,1176,[-0.09231619],65,44,hard,minus,dotcolour,beta,,,5,18,V,R,
60,60,18,1,0,27,53,966,['n'],1,right,['2'],5,411,[-0.02829494],32,53,easy,minus,dotcolour,beta,,,5,18,V,R,
61,61,19,1,0,44,36,1299,['c'],1,left,['2'],5,1353,[0.13460416],77,44,hard,minus,dotcolour,beta,,,5,18,V,R,
62,62,20,1,0,53,27,915,['c'],1,left,['2'],5,519,[0.14411176],90,53,easy,minus,dotcolour,beta,,,5,18,V,R,
63,63,21,1,0,27,53,1015,['n'],1,right,['3'],4,635,[-0.17296028],93,53,easy,minus,dotcolour,beta,,,5,18,V,R,
64,64,22,1,0,47,33,1265,['c'],1,left,['3'],4,1753,[0.46962999],100,47,medium,minus,dotcolour,beta,,,5,18,V,R,
65,65,23,1,0,33,47,982,['n'],1,right,['2'],5,389,[-0.26335687],100,47,medium,minus,dotcolour,beta,,,5,18,V,R,
66,66,24,1,0,27,53,981,['n'],1,right,['1'],6,304,[-0.04149761],39,53,easy,minus,dotcolour,beta,,,5,18,V,R,
67,67,25,1,0,53,27,1565,['c'],1,left,['1'],6,510,[0.17693939],96,53,easy,minus,dotcolour,beta,,,5,18,V,R,
68,68,26,1,0,47,33,2149,['c'],1,left,['2'],5,565,[0.21424846],98,47,medium,minus,dotcolour,beta,,,5,18,V,R,
69,69,27,1,0,53,27,1116,['c'],1,left,['1'],6,323,[0.10196896],81,53,easy,minus,dotcolour,beta,,,5,18,V,R,
70,70,28,1,0,47,33,2017,['n'],0,left,['3'],4,1255,[-0.11012006],71,47,medium,minus,dotcolour,beta,,,5,18,V,R,
71,71,29,1,0,53,27,1415,['c'],1,left,['1'],6,678,[0.34136076],100,53,easy,minus,dotcolour,beta,,,5,18,V,R,
72,72,30,1,0,36,44,1197,['n'],1,right,['1'],6,876,[-0.04098581],43,44,hard,minus,dotcolour,beta,,,5,18,V,R,
73,73,31,1,0,53,27,1084,['c'],1,left,['1'],6,239,[0.03308555],30,53,easy,minus,dotcolour,beta,,,5,18,V,R,
74,74,32,1,0,33,47,1666,['n'],1,right,['2'],5,1309,[-0.18763637],89,47,medium,minus,dotcolour,beta,,,5,18,V,R,
75,75,33,1,0,36,44,1433,['c'],0,right,['3'],4,4297,[-0.02026558],34,44,hard,minus,dotcolour,beta,,,5,18,V,R,
76,76,34,1,0,33,47,1050,['n'],1,right,['2'],5,3428,[-0.14040663],70,47,medium,minus,dotcolour,beta,,,5,18,V,R,
77,77,35,1,0,47,33,932,['c'],1,left,['3'],4,966,[0.31843222],99,47,medium,minus,dotcolour,beta,,,5,18,V,R,
78,78,36,1,0,33,47,982,['n'],1,right,['2'],5,1490,[-0.05226075],49,47,medium,minus,dotcolour,beta,,,5,18,V,R,
79,79,37,1,0,47,33,1298,['c'],1,left,['2'],5,452,[0.10437981],79,47,medium,minus,dotcolour,beta,,,5,18,V,R,
80,80,38,1,0,53,27,1049,['c'],1,left,['1'],6,506,[0.08416426],67,53,easy,minus,dotcolour,beta,,,5,18,V,R,
81,81,39,1,0,47,33,1399,['c'],1,left,['2'],5,591,[0.10660082],77,47,medium,minus,dotcolour,beta,,,5,18,V,R,
82,82,40,1,0,27,53,983,['n'],1,right,['1'],6,313,[-0.07140766],62,53,easy,minus,dotcolour,beta,,,5,18,V,R,
83,83,41,1,0,44,36,2016,['c'],1,left,['2'],5,1574,[0.19995752],89,44,hard,minus,dotcolour,beta,,,5,18,V,R,
84,84,0,2,0,36,44,3650,['n'],1,right,['2'],5,372,[-0.09652953],77,44,hard,minus,dotcolour,beta,,,5,18,V,R,
85,85,1,2,0,53,27,1266,['c'],1,left,['1'],6,604,[0.20695689],97,53,easy,minus,dotcolour,beta,,,5,18,V,R,
86,86,2,2,0,44,36,1481,['n'],0,left,['2'],5,473,[0.05797151],5,44,hard,minus,dotcolour,beta,,,5,18,V,R,
87,87,3,2,0,27,53,1766,['n'],1,right,['1'],6,369,[-0.06723205],59,53,easy,minus,dotcolour,beta,,,5,18,V,R,
88,88,4,2,0,44,36,1082,['c'],1,left,['2'],5,513,[0.2065874],98,44,hard,minus,dotcolour,beta,,,5,18,V,R,
89,89,5,2,0,27,53,1832,['n'],1,right,['1'],6,285,[-0.0706293],62,53,easy,minus,dotcolour,beta,,,5,18,V,R,
90,90,6,2,0,33,47,798,['n'],1,right,['1'],6,275,[-0.10156953],83,47,medium,minus,dotcolour,beta,,,5,18,V,R,
91,91,7,2,0,36,44,1450,['c'],0,right,['8'],3,1152,[-0.0113482],25,44,hard,minus,dotcolour,beta,,,5,18,V,R,
92,92,8,2,0,33,47,3082,['n'],1,right,['2'],5,344,[-0.02865731],30,47,medium,minus,dotcolour,beta,,,5,18,V,R,
93,93,9,2,0,47,33,1233,['c'],1,left,['8'],3,642,[0.16198756],92,47,medium,minus,dotcolour,beta,,,5,18,V,R,
94,94,10,2,0,53,27,1016,['c'],1,left,['8'],3,497,[0.15195505],92,53,easy,minus,dotcolour,beta,,,5,18,V,R,
95,95,11,2,0,47,33,1249,['c'],1,left,['8'],3,1893,[0.42908882],99,47,medium,minus,dotcolour,beta,,,5,18,V,R,
96,96,12,2,0,53,27,1783,['c'],1,left,['3'],4,1652,[0.28907147],96,53,easy,minus,dotcolour,beta,,,5,18,V,R,
97,97,13,2,0,33,47,1499,['n'],1,right,['2'],5,351,[-0.11525944],86,47,medium,minus,dotcolour,beta,,,5,18,V,R,
98,98,14,2,0,36,44,898,['n'],1,right,['2'],5,495,[-0.13981175],90,44,hard,minus,dotcolour,beta,,,5,18,V,R,
99,99,15,2,0,47,33,1915,['n'],0,left,['8'],3,696,[-0.09082961],68,47,medium,minus,dotcolour,beta,,,5,18,V,R,
100,100,16,2,0,36,44,1499,['n'],1,right,['3'],4,1106,[-0.14451422],82,44,hard,minus,dotcolour,beta,,,5,18,V,R,
101,101,17,2,0,36,44,1015,['n'],1,right,['3'],4,486,[-0.09917442],76,44,hard,minus,dotcolour,beta,,,5,18,V,R,
102,102,18,2,0,53,27,1148,['c'],1,left,['2'],5,1015,[0.10842123],72,53,easy,minus,dotcolour,beta,,,5,18,V,R,
103,103,19,2,0,33,47,999,['n'],1,right,['2'],5,303,[-0.05305013],48,47,medium,minus,dotcolour,beta,,,5,18,V,R,
104,104,20,2,0,33,47,666,['n'],1,right,['2'],5,298,[-0.11828998],89,47,medium,minus,dotcolour,beta,,,5,18,V,R,
105,105,21,2,0,27,53,850,['n'],1,right,['2'],5,518,[-0.05723252],51,53,easy,minus,dotcolour,beta,,,5,18,V,R,
106,106,22,2,0,33,47,3016,['c'],0,right,['8'],3,490,[-0.02715953],11,47,medium,minus,dotcolour,beta,,,5,18,V,R,
107,107,23,2,0,44,36,2766,['n'],0,left,['8'],3,1530,[0.03946067],20,44,hard,minus,dotcolour,beta,,,5,18,V,R,
108,108,24,2,0,33,47,4499,['n'],1,right,['3'],4,2370,[-0.25874762],91,47,medium,minus,dotcolour,beta,,,5,18,V,R,
109,109,25,2,0,27,53,531,['n'],1,right,['3'],4,287,[-0.16416124],97,53,easy,minus,dotcolour,beta,,,5,18,V,R,
110,110,26,2,0,27,53,498,['n'],1,right,['2'],5,1697,[-0.40584332],99,53,easy,minus,dotcolour,beta,,,5,18,V,R,
111,111,27,2,0,44,36,1249,['c'],1,left,['3'],4,949,[0.00745002],29,44,hard,minus,dotcolour,beta,,,5,18,V,R,
112,112,28,2,0,44,36,1147,['n'],0,left,['3'],4,466,[0.01990521],12,44,hard,minus,dotcolour,beta,,,5,18,V,R,
113,113,29,2,0,44,36,1682,['c'],1,left,['3'],4,982,[0.18158367],91,44,hard,minus,dotcolour,beta,,,5,18,V,R,
114,114,30,2,0,53,27,931,['c'],1,left,['2'],5,490,[0.15809851],93,53,easy,minus,dotcolour,beta,,,5,18,V,R,
115,115,31,2,0,47,33,1014,['c'],1,left,['2'],5,359,[0.07349077],63,47,medium,minus,dotcolour,beta,,,5,18,V,R,
116,116,32,2,0,36,44,914,['n'],1,right,['2'],5,606,[0.01149037],18,44,hard,minus,dotcolour,beta,,,5,18,V,R,
117,117,33,2,0,53,27,966,['c'],1,left,['1'],6,976,[0.07720196],60,53,easy,minus,dotcolour,beta,,,5,18,V,R,
118,118,34,2,0,27,53,1000,['n'],1,right,['2'],5,546,[-0.06910478],58,53,easy,minus,dotcolour,beta,,,5,18,V,R,
119,119,35,2,0,44,36,1849,['n'],0,left,['1'],6,540,[-0.02656852],33,44,hard,minus,dotcolour,beta,,,5,18,V,R,
120,120,36,2,0,27,53,965,['n'],1,right,['1'],6,345,[-0.11551919],86,53,easy,minus,dotcolour,beta,,,5,18,V,R,
121,121,37,2,0,47,33,1115,['c'],1,left,['3'],4,2704,[0.13445006],70,47,medium,minus,dotcolour,beta,,,5,18,V,R,
122,122,38,2,0,53,27,933,['c'],1,left,['3'],4,423,[0.21287111],99,53,easy,minus,dotcolour,beta,,,5,18,V,R,
123,123,39,2,0,47,33,2381,['c'],1,left,['8'],3,1577,[0.29536113],97,47,medium,minus,dotcolour,beta,,,5,18,V,R,
124,124,40,2,0,47,33,1050,['c'],1,left,['1'],6,1129,[0.39147591],100,47,medium,minus,dotcolour,beta,,,5,18,V,R,
125,125,41,2,0,36,44,933,['n'],1,right,['1'],6,263,[-0.04456379],40,44,hard,minus,dotcolour,beta,,,5,18,V,R,
126,0,0,3,1,27,53,1383,['n'],1,right,['1'],6,255,[-0.11641151],100,53,easy,plus,dotcolour,beta,,,5,18,V,R,
127,1,1,3,1,27,53,583,['n'],1,right,['1'],6,150,[-0.08216123],100,53,easy,plus,dotcolour,beta,,,5,18,V,R,
128,2,2,3,1,44,36,1148,['c'],1,left,['3'],4,772,[0.0181746],82,44,hard,plus,dotcolour,beta,,,5,18,V,R,
129,3,3,3,1,27,53,917,['n'],1,right,['1'],6,266,[-0.08129369],99,53,easy,plus,dotcolour,beta,,,5,18,V,R,
130,4,4,3,1,33,47,749,['n'],1,right,['1'],6,115,[-0.06943375],100,47,medium,plus,dotcolour,beta,,,5,18,V,R,
131,5,5,3,1,53,27,1050,['c'],1,left,['1'],6,454,[0.06716046],96,53,easy,plus,dotcolour,beta,,,5,18,V,R,
132,6,6,3,1,53,27,1083,['c'],1,left,['1'],6,442,[0.14604856],100,53,easy,plus,dotcolour,beta,,,5,18,V,R,
133,7,7,3,1,44,36,1565,['c'],1,left,['3'],4,450,[0.12565132],99,44,hard,plus,dotcolour,beta,,,5,18,V,R,
134,8,8,3,1,44,36,1233,['c'],1,left,['1'],6,417,[0.17789733],100,44,hard,plus,dotcolour,beta,,,5,18,V,R,
135,9,9,3,1,53,27,1215,['n'],0,left,['3'],4,2585,[0.4498249],1,53,easy,plus,dotcolour,beta,,,5,18,V,R,
136,10,10,3,1,47,33,1366,['n'],0,left,['3'],4,540,[-0.07661257],96,47,medium,plus,dotcolour,beta,,,5,18,V,R,
137,11,11,3,1,33,47,1048,['n'],1,right,['1'],6,606,[-0.08338637],96,47,medium,plus,dotcolour,beta,,,5,18,V,R,
138,12,12,3,1,36,44,1016,['n'],1,right,['2'],5,863,[-0.13025822],97,44,hard,plus,dotcolour,beta,,,5,18,V,R,
139,13,13,3,1,27,53,865,['n'],1,right,['1'],6,203,[-0.03898587],98,53,easy,plus,dotcolour,beta,,,5,18,V,R,
140,14,14,3,1,47,33,1048,['c'],1,left,['3'],4,458,[0.25074829],100,47,medium,plus,dotcolour,beta,,,5,18,V,R,
141,15,15,3,1,44,36,2032,['n'],0,left,['3'],4,320,[-0.05660668],97,44,hard,plus,dotcolour,beta,,,5,18,V,R,
142,16,16,3,1,33,47,1081,['n'],1,right,['2'],5,962,[-0.07816426],92,47,medium,plus,dotcolour,beta,,,5,18,V,R,
143,17,17,3,1,36,44,901,['n'],1,right,['1'],6,169,[-0.05743032],99,44,hard,plus,dotcolour,beta,,,5,18,V,R,
144,18,18,3,1,47,33,1316,['c'],1,left,['1'],6,383,[0.07497154],98,47,medium,plus,dotcolour,beta,,,5,18,V,R,
145,19,19,3,1,36,44,1115,['n'],1,right,['2'],5,413,[-0.12567248],99,44,hard,plus,dotcolour,beta,,,5,18,V,R,
146,20,20,3,1,44,36,1866,['c'],1,left,['2'],5,484,[0.19481905],100,44,hard,plus,dotcolour,beta,,,5,18,V,R,
147,21,21,3,1,53,27,867,['c'],1,left,['2'],5,415,[0.18014424],100,53,easy,plus,dotcolour,beta,,,5,18,V,R,
148,22,22,3,1,53,27,782,['c'],1,left,['1'],6,457,[0.15069708],100,53,easy,plus,dotcolour,beta,,,5,18,V,R,
149,23,23,3,1,27,53,900,['n'],1,right,['1'],6,236,[-0.11723701],100,53,easy,plus,dotcolour,beta,,,5,18,V,R,
150,24,24,3,1,33,47,884,['n'],1,right,['1'],6,193,[-0.02555321],97,47,medium,plus,dotcolour,beta,,,5,18,V,R,
151,25,25,3,1,47,33,967,['c'],1,left,['2'],5,467,[0.07301655],97,47,medium,plus,dotcolour,beta,,,5,18,V,R,
152,26,26,3,1,47,33,1900,['c'],1,left,['2'],5,543,[0.15527098],99,47,medium,plus,dotcolour,beta,,,5,18,V,R,
153,27,27,3,1,53,27,850,['c'],1,left,['2'],5,432,[0.08352772],98,53,easy,plus,dotcolour,beta,,,5,18,V,R,
154,28,28,3,1,47,33,1065,['c'],1,left,['2'],5,574,[0.03689581],90,47,medium,plus,dotcolour,beta,,,5,18,V,R,
155,29,29,3,1,27,53,1049,['n'],1,right,['1'],6,167,[-0.12192772],100,53,easy,plus,dotcolour,beta,,,5,18,V,R,
156,30,30,3,1,33,47,849,['n'],1,right,['1'],6,247,[-0.11948092],100,47,medium,plus,dotcolour,beta,,,5,18,V,R,
157,31,31,3,1,27,53,598,['n'],1,right,['1'],6,327,[-0.18768463],100,53,easy,plus,dotcolour,beta,,,5,18,V,R,
158,32,32,3,1,36,44,1181,['n'],1,right,['1'],6,468,[-0.11146648],99,44,hard,plus,dotcolour,beta,,,5,18,V,R,
159,33,33,3,1,47,33,1399,['c'],1,left,['2'],5,1620,[0.14667437],95,47,medium,plus,dotcolour,beta,,,5,18,V,R,
160,34,34,3,1,53,27,915,['c'],1,left,['2'],5,167,[0.08893469],100,53,easy,plus,dotcolour,beta,,,5,18,V,R,
161,35,35,3,1,44,36,1515,['c'],1,left,['3'],4,190,[0.03235416],97,44,hard,plus,dotcolour,beta,,,5,18,V,R,
162,36,36,3,1,44,36,897,['c'],1,left,['2'],5,179,[0.09455175],100,44,hard,plus,dotcolour,beta,,,5,18,V,R,
163,37,37,3,1,36,44,781,['n'],1,right,['2'],5,414,[-0.09406808],99,44,hard,plus,dotcolour,beta,,,5,18,V,R,
164,38,38,3,1,36,44,2984,['n'],1,right,['3'],4,208,[-0.03845789],98,44,hard,plus,dotcolour,beta,,,5,18,V,R,
165,39,39,3,1,36,44,1183,['n'],1,right,['3'],4,282,[-0.07591656],99,44,hard,plus,dotcolour,beta,,,5,18,V,R,
166,40,40,3,1,33,47,664,['n'],1,right,['3'],4,270,[-0.14320737],100,47,medium,plus,dotcolour,beta,,,5,18,V,R,
167,41,41,3,1,33,47,617,['n'],1,right,['2'],5,244,[-0.0745968],99,47,medium,plus,dotcolour,beta,,,5,18,V,R,
168,42,0,4,1,47,33,1167,['c'],1,left,['1'],6,424,[0.1547829],100,47,medium,plus,dotcolour,beta,,,5,18,V,R,
169,43,1,4,1,33,47,666,['n'],1,right,['2'],5,486,[-0.06461227],96,47,medium,plus,dotcolour,beta,,,5,18,V,R,
170,44,2,4,1,27,53,583,['n'],1,right,['2'],5,268,[-0.12359553],100,53,easy,plus,dotcolour,beta,,,5,18,V,R,
171,45,3,4,1,27,53,765,['n'],1,right,['1'],6,204,[-0.11606773],100,53,easy,plus,dotcolour,beta,,,5,18,V,R,
172,46,4,4,1,36,44,1316,['c'],0,right,['3'],4,482,[0.15803937],100,44,hard,plus,dotcolour,beta,,,5,18,V,R,
173,47,5,4,1,44,36,1199,['c'],1,left,['2'],5,368,[0.19470277],100,44,hard,plus,dotcolour,beta,,,5,18,V,R,
174,48,6,4,1,36,44,949,['n'],1,right,['2'],5,237,[-0.11603895],100,44,hard,plus,dotcolour,beta,,,5,18,V,R,
175,49,7,4,1,53,27,933,['c'],1,left,['1'],6,464,[0.21359024],100,53,easy,plus,dotcolour,beta,,,5,18,V,R,
176,50,8,4,1,44,36,1198,['n'],0,left,['3'],4,1216,[-0.04393486],84,44,hard,plus,dotcolour,beta,,,5,18,V,R,
177,51,9,4,1,53,27,2316,['c'],1,left,['1'],6,339,[0.11327952],99,53,easy,plus,dotcolour,beta,,,5,18,V,R,
178,52,10,4,1,53,27,1032,['c'],1,left,['1'],6,197,[0.11135842],100,53,easy,plus,dotcolour,beta,,,5,18,V,R,
179,53,11,4,1,47,33,900,['c'],1,left,['1'],6,179,[0.17183099],100,47,medium,plus,dotcolour,beta,,,5,18,V,R,
180,54,12,4,1,44,36,3013,['n'],0,left,['3'],4,989,[-0.11896508],96,44,hard,plus,dotcolour,beta,,,5,18,V,R,
181,55,13,4,1,47,33,1347,['c'],1,left,['2'],5,297,[0.07889273],99,47,medium,plus,dotcolour,beta,,,5,18,V,R,
182,56,14,4,1,36,44,1348,['n'],1,right,['2'],5,264,[-0.13390687],100,44,hard,plus,dotcolour,beta,,,5,18,V,R,
183,57,15,4,1,27,53,599,['n'],1,right,['2'],5,184,[-0.08181832],100,53,easy,plus,dotcolour,beta,,,5,18,V,R,
184,58,16,4,1,33,47,1431,['c'],0,right,['3'],4,497,[0.05730243],95,47,medium,plus,dotcolour,beta,,,5,18,V,R,
185,59,17,4,1,33,47,914,['n'],1,right,['3'],4,313,[-0.05757008],97,47,medium,plus,dotcolour,beta,,,5,18,V,R,
186,60,18,4,1,36,44,1000,['n'],1,right,['2'],5,743,[-0.07871528],94,44,hard,plus,dotcolour,beta,,,5,18,V,R,
187,61,19,4,1,53,27,1765,['c'],1,left,['2'],5,788,[0.21356264],100,53,easy,plus,dotcolour,beta,,,5,18,V,R,
188,62,20,4,1,33,47,950,['n'],1,right,['1'],6,816,[-0.06186155],91,47,medium,plus,dotcolour,beta,,,5,18,V,R,
189,63,21,4,1,47,33,1031,['n'],0,left,['1'],6,487,[0.16623862],5,47,medium,plus,dotcolour,beta,,,5,18,V,R,
190,64,22,4,1,27,53,1431,['n'],1,right,['2'],5,948,[-0.39435424],100,53,easy,plus,dotcolour,beta,,,5,18,V,R,
191,65,23,4,1,27,53,731,['n'],1,right,['1'],6,361,[-0.10978796],99,53,easy,plus,dotcolour,beta,,,5,18,V,R,
192,66,24,4,1,44,36,2031,['c'],1,left,['3'],4,884,[0.11776731],97,44,hard,plus,dotcolour,beta,,,5,18,V,R,
193,67,25,4,1,47,33,1766,['c'],1,left,['3'],4,2915,[0.17125745],92,47,medium,plus,dotcolour,beta,,,5,18,V,R,
194,68,26,4,1,27,53,2250,['n'],1,right,['1'],6,374,[-0.03220407],93,53,easy,plus,dotcolour,beta,,,5,18,V,R,
195,69,27,4,1,27,53,615,['n'],1,right,['1'],6,327,[-0.14617789],100,53,easy,plus,dotcolour,beta,,,5,18,V,R,
196,70,28,4,1,53,27,1881,['c'],1,left,['1'],6,472,[0.23085534],100,53,easy,plus,dotcolour,beta,,,5,18,V,R,
197,71,29,4,1,33,47,982,['n'],1,right,['2'],5,903,[-0.18897388],99,47,medium,plus,dotcolour,beta,,,5,18,V,R,
198,72,30,4,1,47,33,1050,['c'],1,left,['1'],6,498,[0.14440426],99,47,medium,plus,dotcolour,beta,,,5,18,V,R,
199,73,31,4,1,36,44,1832,['n'],1,right,['2'],5,271,[-0.06862341],99,44,hard,plus,dotcolour,beta,,,5,18,V,R,
200,74,32,4,1,44,36,999,['c'],1,left,['1'],6,517,[0.04912008],93,44,hard,plus,dotcolour,beta,,,5,18,V,R,
201,75,33,4,1,33,47,999,['c'],0,right,['1'],6,681,[-0.03445347],61,47,medium,plus,dotcolour,beta,,,5,18,V,R,
202,76,34,4,1,44,36,1932,['c'],1,left,['3'],4,1283,[0.41588417],100,44,hard,plus,dotcolour,beta,,,5,18,V,R,
203,77,35,4,1,36,44,931,['n'],1,right,['3'],4,395,[-0.04608756],95,44,hard,plus,dotcolour,beta,,,5,18,V,R,
204,78,36,4,1,33,47,865,['n'],1,right,['3'],4,410,[-0.12174888],99,47,medium,plus,dotcolour,beta,,,5,18,V,R,
205,79,37,4,1,36,44,1348,['n'],1,right,['2'],5,285,[-0.18390591],100,44,hard,plus,dotcolour,beta,,,5,18,V,R,
206,80,38,4,1,47,33,1482,['c'],1,left,['2'],5,432,[0.05751845],96,47,medium,plus,dotcolour,beta,,,5,18,V,R,
207,81,39,4,1,53,27,8632,['n'],0,left,['3'],4,3921,[0.77635676],0,53,easy,plus,dotcolour,beta,,,5,18,V,R,
208,82,40,4,1,44,36,1182,['c'],1,left,['3'],4,741,[0.01140228],80,44,hard,plus,dotcolour,beta,,,5,18,V,R,
209,83,41,4,1,53,27,1067,['c'],1,left,['2'],5,478,[0.0443009],93,53,easy,plus,dotcolour,beta,,,5,18,V,R,
210,84,0,5,1,47,33,6065,['n'],0,left,['1'],6,1987,[0.09203576],39,47,medium,plus,dotcolour,beta,,,5,18,V,R,
211,85,1,5,1,44,36,2565,['c'],1,left,['2'],5,430,[0.14106416],100,44,hard,plus,dotcolour,beta,,,5,18,V,R,
212,86,2,5,1,44,36,3798,['n'],0,left,['3'],4,311,[-0.05503178],97,44,hard,plus,dotcolour,beta,,,5,18,V,R,
213,87,3,5,1,53,27,1015,['c'],1,left,['3'],4,667,[0.10487484],97,53,easy,plus,dotcolour,beta,,,5,18,V,R,
214,88,4,5,1,44,36,1282,['n'],0,left,['3'],4,631,[-0.10583659],97,44,hard,plus,dotcolour,beta,,,5,18,V,R,
215,89,5,5,1,27,53,632,['n'],1,right,['3'],4,246,[-0.12649264],100,53,easy,plus,dotcolour,beta,,,5,18,V,R,
216,90,6,5,1,53,27,865,['c'],1,left,['1'],6,420,[0.14711187],100,53,easy,plus,dotcolour,beta,,,5,18,V,R,
217,91,7,5,1,27,53,799,['n'],1,right,['1'],6,363,[-0.12269134],100,53,easy,plus,dotcolour,beta,,,5,18,V,R,
218,92,8,5,1,53,27,1515,['n'],0,left,['3'],4,1210,[0.18570218],11,53,easy,plus,dotcolour,beta,,,5,18,V,R,
219,93,9,5,1,27,53,965,['n'],1,right,['2'],5,677,[-0.2295494],100,53,easy,plus,dotcolour,beta,,,5,18,V,R,
220,94,10,5,1,47,33,1197,['c'],1,left,['2'],5,371,[0.14138148],100,47,medium,plus,dotcolour,beta,,,5,18,V,R,
221,95,11,5,1,47,33,1047,['n'],0,left,['2'],5,284,[-0.15287898],100,47,medium,plus,dotcolour,beta,,,5,18,V,R,
222,96,12,5,1,33,47,798,['n'],1,right,['2'],5,185,[-0.08505472],100,47,medium,plus,dotcolour,beta,,,5,18,V,R,
223,97,13,5,1,44,36,3581,['c'],1,left,['3'],4,468,[0.19313893],100,44,hard,plus,dotcolour,beta,,,5,18,V,R,
224,98,14,5,1,36,44,1066,['n'],1,right,['2'],5,312,[-0.15309323],100,44,hard,plus,dotcolour,beta,,,5,18,V,R,
225,99,15,5,1,53,27,1364,['c'],1,left,['1'],6,351,[0.12243188],100,53,easy,plus,dotcolour,beta,,,5,18,V,R,
226,100,16,5,1,53,27,980,['c'],1,left,['1'],6,434,[0.22424111],100,53,easy,plus,dotcolour,beta,,,5,18,V,R,
227,101,17,5,1,47,33,1300,['c'],1,left,['2'],5,455,[-0.08202409],33,47,medium,plus,dotcolour,beta,,,5,18,V,R,
228,102,18,5,1,36,44,948,['n'],1,right,['2'],5,384,[-0.03071727],92,44,hard,plus,dotcolour,beta,,,5,18,V,R,
229,103,19,5,1,33,47,832,['n'],1,right,['2'],5,209,[-0.01622926],94,47,medium,plus,dotcolour,beta,,,5,18,V,R,
230,104,20,5,1,27,53,549,['n'],1,right,['2'],5,156,[-0.10833122],100,53,easy,plus,dotcolour,beta,,,5,18,V,R,
231,105,21,5,1,53,27,948,['c'],1,left,['1'],6,249,[0.04265508],97,53,easy,plus,dotcolour,beta,,,5,18,V,R,
232,106,22,5,1,27,53,833,['n'],1,right,['1'],6,247,[-0.12013215],100,53,easy,plus,dotcolour,beta,,,5,18,V,R,
233,107,23,5,1,47,33,2717,['c'],1,left,['2'],5,683,[0.193474],100,47,medium,plus,dotcolour,beta,,,5,18,V,R,
234,108,24,5,1,27,53,765,['n'],1,right,['2'],5,307,[-0.14096367],100,53,easy,plus,dotcolour,beta,,,5,18,V,R,
235,109,25,5,1,47,33,865,['c'],1,left,['2'],5,461,[0.11687745],99,47,medium,plus,dotcolour,beta,,,5,18,V,R,
236,110,26,5,1,36,44,783,['n'],1,right,['1'],6,1237,[-0.12493064],95,44,hard,plus,dotcolour,beta,,,5,18,V,R,
237,111,27,5,1,27,53,632,['n'],1,right,['2'],5,291,[-0.14598508],100,53,easy,plus,dotcolour,beta,,,5,18,V,R,
238,112,28,5,1,36,44,500,['n'],1,right,['2'],5,364,[-0.12541696],100,44,hard,plus,dotcolour,beta,,,5,18,V,R,
239,113,29,5,1,36,44,1432,['n'],1,right,['3'],4,190,[-0.13648413],100,44,hard,plus,dotcolour,beta,,,5,18,V,R,
240,114,30,5,1,33,47,514,['n'],1,right,['2'],5,443,[-0.0871364],98,47,medium,plus,dotcolour,beta,,,5,18,V,R,
241,115,31,5,1,44,36,1083,['c'],1,left,['2'],5,424,[0.13696231],100,44,hard,plus,dotcolour,beta,,,5,18,V,R,
242,116,32,5,1,44,36,1631,['c'],1,left,['2'],5,343,[0.07928931],98,44,hard,plus,dotcolour,beta,,,5,18,V,R,
243,117,33,5,1,33,47,565,['n'],1,right,['2'],5,628,[-0.06569843],94,47,medium,plus,dotcolour,beta,,,5,18,V,R,
244,118,34,5,1,44,36,933,['n'],0,left,['2'],5,207,[-0.10645135],100,44,hard,plus,dotcolour,beta,,,5,18,V,R,
245,119,35,5,1,36,44,566,['n'],1,right,['2'],5,201,[-0.08175252],100,44,hard,plus,dotcolour,beta,,,5,18,V,R,
246,120,36,5,1,36,44,847,['n'],1,right,['2'],5,160,[-0.13004119],100,44,hard,plus,dotcolour,beta,,,5,18,V,R,
247,121,37,5,1,53,27,1181,['c'],1,left,['1'],6,404,[0.19274633],100,53,easy,plus,dotcolour,beta,,,5,18,V,R,
248,122,38,5,1,33,47,715,['n'],1,right,['2'],5,208,[-0.1016625],100,47,medium,plus,dotcolour,beta,,,5,18,V,R,
249,123,39,5,1,33,47,533,['n'],1,right,['2'],5,204,[-0.07201024],99,47,medium,plus,dotcolour,beta,,,5,18,V,R,
250,124,40,5,1,33,47,516,['n'],1,right,['2'],5,162,[-0.15014593],100,47,medium,plus,dotcolour,beta,,,5,18,V,R,
251,125,41,5,1,47,33,1049,['c'],1,left,['2'],5,482,[0.07664057],97,47,medium,plus,dotcolour,beta,,,5,18,V,R,
252,0,0,6,2,44,36,1833,['n'],0,left,['3'],4,353,[-0.04134345],39,44,hard,minus,dotcolour,beta,,,5,18,V,R,
253,1,1,6,2,53,27,916,['c'],1,left,['1'],6,368,[0.07443279],64,53,easy,minus,dotcolour,beta,,,5,18,V,R,
254,2,2,6,2,33,47,965,['n'],1,right,['2'],5,276,[-0.02349601],25,47,medium,minus,dotcolour,beta,,,5,18,V,R,
255,3,3,6,2,33,47,715,['n'],1,right,['2'],5,246,[-0.11721253],90,47,medium,minus,dotcolour,beta,,,5,18,V,R,
256,4,4,6,2,47,33,1283,['c'],1,left,['2'],5,434,[0.13286243],89,47,medium,minus,dotcolour,beta,,,5,18,V,R,
257,5,5,6,2,47,33,866,['c'],1,left,['2'],5,328,[0.03321915],33,47,medium,minus,dotcolour,beta,,,5,18,V,R,
258,6,6,6,2,27,53,531,['n'],1,right,['2'],5,399,[-0.15562553],95,53,easy,minus,dotcolour,beta,,,5,18,V,R,
259,7,7,6,2,44,36,1049,['c'],1,left,['2'],5,510,[0.07190957],60,44,hard,minus,dotcolour,beta,,,5,18,V,R,
260,8,8,6,2,36,44,647,['n'],1,right,['2'],5,314,[-0.03962233],37,44,hard,minus,dotcolour,beta,,,5,18,V,R,
261,9,9,6,2,36,44,715,['n'],1,right,['2'],5,266,[-0.05079377],46,44,hard,minus,dotcolour,beta,,,5,18,V,R,
262,10,10,6,2,27,53,649,['n'],1,right,['2'],5,471,[-0.0775956],64,53,easy,minus,dotcolour,beta,,,5,18,V,R,
263,11,11,6,2,36,44,548,['n'],1,right,['2'],5,791,[-0.01275687],30,44,hard,minus,dotcolour,beta,,,5,18,V,R,
264,12,12,6,2,33,47,1166,['c'],0,right,['2'],5,434,[0.01050966],23,47,medium,minus,dotcolour,beta,,,5,18,V,R,
265,13,13,6,2,44,36,998,['c'],1,left,['1'],6,483,[0.0992153],76,44,hard,minus,dotcolour,beta,,,5,18,V,R,
266,14,14,6,2,44,36,1298,['n'],0,left,['2'],5,261,[-0.08179876],72,44,hard,minus,dotcolour,beta,,,5,18,V,R,
267,15,15,6,2,53,27,632,['n'],0,left,['2'],5,178,[-0.06190938],57,53,easy,minus,dotcolour,beta,,,5,18,V,R,
268,16,16,6,2,53,27,1266,['n'],0,left,['3'],4,322,[0.03959609],5,53,easy,minus,dotcolour,beta,,,5,18,V,R,
269,17,17,6,2,36,44,2134,['c'],0,right,['3'],4,394,[-0.05142555],4,44,hard,minus,dotcolour,beta,,,5,18,V,R,
270,18,18,6,2,36,44,1216,['n'],1,right,['3'],4,675,[-0.13595721],85,44,hard,minus,dotcolour,beta,,,5,18,V,R,
271,19,19,6,2,47,33,1249,['c'],1,left,['3'],4,623,[-0.13697818],1,47,medium,minus,dotcolour,beta,,,5,18,V,R,
272,20,20,6,2,27,53,763,['n'],1,right,['1'],6,529,[-0.18146037],96,53,easy,minus,dotcolour,beta,,,5,18,V,R,
273,21,21,6,2,27,53,516,['n'],1,right,['1'],6,177,[-0.12684849],95,53,easy,minus,dotcolour,beta,,,5,18,V,R,
274,22,22,6,2,44,36,1382,['c'],1,left,['2'],5,988,[0.28950886],99,44,hard,minus,dotcolour,beta,,,5,18,V,R,
275,23,23,6,2,33,47,699,['n'],1,right,['1'],6,690,[-0.18415612],94,47,medium,minus,dotcolour,beta,,,5,18,V,R,
276,24,24,6,2,44,36,1015,['c'],1,left,['2'],5,422,[0.10088356],78,44,hard,minus,dotcolour,beta,,,5,18,V,R,
277,25,25,6,2,33,47,948,['c'],0,right,['2'],5,409,[0.12989441],89,47,medium,minus,dotcolour,beta,,,5,18,V,R,
278,26,26,6,2,47,33,1566,['c'],1,left,['3'],4,443,[0.02830135],32,47,medium,minus,dotcolour,beta,,,5,18,V,R,
279,27,27,6,2,27,53,682,['n'],1,right,['1'],6,400,[-0.09315871],74,53,easy,minus,dotcolour,beta,,,5,18,V,R,
280,28,28,6,2,47,33,798,['c'],1,left,['1'],6,1082,[0.10619737],71,47,medium,minus,dotcolour,beta,,,5,18,V,R,
281,29,29,6,2,47,33,1049,['n'],0,left,['2'],5,422,[-0.01518252],25,47,medium,minus,dotcolour,beta,,,5,18,V,R,
282,30,30,6,2,53,27,1033,['c'],1,left,['1'],6,213,[0.13363727],95,53,easy,minus,dotcolour,beta,,,5,18,V,R,
283,31,31,6,2,33,47,632,['n'],1,right,['1'],6,332,[-0.04617594],43,47,medium,minus,dotcolour,beta,,,5,18,V,R,
284,32,32,6,2,27,53,499,['n'],1,right,['1'],6,133,[-0.07218524],69,53,easy,minus,dotcolour,beta,,,5,18,V,R,
285,33,33,6,2,53,27,965,['c'],1,left,['1'],6,130,[0.10847114],93,53,easy,minus,dotcolour,beta,,,5,18,V,R,
286,34,34,6,2,53,27,1382,['c'],1,left,['1'],6,408,[0.15435428],94,53,easy,minus,dotcolour,beta,,,5,18,V,R,
287,35,35,6,2,36,44,831,['n'],1,right,['1'],6,183,[-0.07522939],70,44,hard,minus,dotcolour,beta,,,5,18,V,R,
288,36,36,6,2,44,36,782,['n'],0,left,['1'],6,242,[-0.13851601],95,44,hard,minus,dotcolour,beta,,,5,18,V,R,
289,37,37,6,2,47,33,1098,['c'],1,left,['1'],6,174,[0.07123543],66,47,medium,minus,dotcolour,beta,,,5,18,V,R,
290,38,38,6,2,53,27,866,['c'],1,left,['1'],6,181,[0.13766071],97,53,easy,minus,dotcolour,beta,,,5,18,V,R,
291,39,39,6,2,33,47,1248,['n'],1,right,['1'],6,286,[-0.19005569],99,47,medium,minus,dotcolour,beta,,,5,18,V,R,
292,40,40,6,2,36,44,932,['n'],1,right,['1'],6,367,[-0.15853177],96,44,hard,minus,dotcolour,beta,,,5,18,V,R,
293,41,41,6,2,27,53,566,['n'],1,right,['1'],6,211,[-0.16342662],99,53,easy,minus,dotcolour,beta,,,5,18,V,R,
294,42,0,7,2,27,53,949,['n'],1,right,['1'],6,330,[-0.08573916],72,53,easy,minus,dotcolour,beta,,,5,18,V,R,
295,43,1,7,2,27,53,449,['n'],1,right,['1'],6,148,[-0.07073562],67,53,easy,minus,dotcolour,beta,,,5,18,V,R,
296,44,2,7,2,36,44,1948,['n'],1,right,['3'],4,98,[-0.03249001],21,44,hard,minus,dotcolour,beta,,,5,18,V,R,
297,45,3,7,2,47,33,2099,['c'],1,left,['2'],5,291,[0.05556223],50,47,medium,minus,dotcolour,beta,,,5,18,V,R,
298,46,4,7,2,33,47,916,['n'],1,right,['2'],5,293,[-0.07898776],69,47,medium,minus,dotcolour,beta,,,5,18,V,R,
299,47,5,7,2,53,27,1232,['c'],1,left,['2'],5,153,[0.11052876],93,53,easy,minus,dotcolour,beta,,,5,18,V,R,
300,48,6,7,2,44,36,1148,['c'],1,left,['2'],5,134,[0.06544625],62,44,hard,minus,dotcolour,beta,,,5,18,V,R,
301,49,7,7,2,33,47,1131,['c'],0,right,['3'],4,245,[0.09688377],82,47,medium,minus,dotcolour,beta,,,5,18,V,R,
302,50,8,7,2,36,44,965,['n'],1,right,['2'],5,351,[-0.14183766],93,44,hard,minus,dotcolour,beta,,,5,18,V,R,
303,51,9,7,2,47,33,614,['n'],0,left,['2'],5,177,[-0.05607312],51,47,medium,minus,dotcolour,beta,,,5,18,V,R,
304,52,10,7,2,53,27,931,['c'],1,left,['1'],6,287,[0.1078909],85,53,easy,minus,dotcolour,beta,,,5,18,V,R,
305,53,11,7,2,33,47,1149,['n'],1,right,['1'],6,270,[-0.06072869],54,47,medium,minus,dotcolour,beta,,,5,18,V,R,
306,54,12,7,2,44,36,1148,['c'],1,left,['2'],5,223,[0.12546077],93,44,hard,minus,dotcolour,beta,,,5,18,V,R,
307,55,13,7,2,27,53,914,['n'],1,right,['2'],5,595,[-0.23493821],99,53,easy,minus,dotcolour,beta,,,5,18,V,R,
308,56,14,7,2,33,47,782,['n'],1,right,['2'],5,141,[-0.08178479],78,47,medium,minus,dotcolour,beta,,,5,18,V,R,
309,57,15,7,2,36,44,1429,['c'],0,right,['3'],4,344,[0.04370068],41,44,hard,minus,dotcolour,beta,,,5,18,V,R,
310,58,16,7,2,44,36,1232,['c'],1,left,['3'],4,330,[0.17055529],97,44,hard,minus,dotcolour,beta,,,5,18,V,R,
311,59,17,7,2,53,27,948,['c'],1,left,['2'],5,216,[0.11812969],92,53,easy,minus,dotcolour,beta,,,5,18,V,R,
312,60,18,7,2,44,36,1231,['c'],1,left,['2'],5,208,[0.1602856],98,44,hard,minus,dotcolour,beta,,,5,18,V,R,
313,61,19,7,2,44,36,1098,['n'],0,left,['2'],5,189,[-0.08976324],80,44,hard,minus,dotcolour,beta,,,5,18,V,R,
314,62,20,7,2,27,53,715,['n'],1,right,['2'],5,202,[-0.01536297],17,53,easy,minus,dotcolour,beta,,,5,18,V,R,
315,63,21,7,2,53,27,1000,['c'],1,left,['1'],6,532,[0.26921142],99,53,easy,minus,dotcolour,beta,,,5,18,V,R,
316,64,22,7,2,53,27,833,['c'],1,left,['1'],6,151,[0.05729875],52,53,easy,minus,dotcolour,beta,,,5,18,V,R,
317,65,23,7,2,27,53,897,['n'],1,right,['1'],6,215,[-0.08107668],73,53,easy,minus,dotcolour,beta,,,5,18,V,R,
318,66,24,7,2,44,36,1114,['c'],1,left,['2'],5,187,[0.02040832],19,44,hard,minus,dotcolour,beta,,,5,18,V,R,
319,67,25,7,2,33,47,1482,['c'],0,right,['3'],4,682,[-0.11987888],2,47,medium,minus,dotcolour,beta,,,5,18,V,R,
320,68,26,7,2,47,33,647,['c'],1,left,['2'],5,950,[0.17594881],90,47,medium,minus,dotcolour,beta,,,5,18,V,R,
321,69,27,7,2,53,27,999,['c'],1,left,['2'],5,209,[0.10732379],88,53,easy,minus,dotcolour,beta,,,5,18,V,R,
322,70,28,7,2,47,33,932,['c'],1,left,['3'],4,708,[0.10947252],76,47,medium,minus,dotcolour,beta,,,5,18,V,R,
323,71,29,7,2,44,36,1199,['c'],1,left,['3'],4,281,[0.03287675],32,44,hard,minus,dotcolour,beta,,,5,18,V,R,
324,72,30,7,2,47,33,1200,['c'],1,left,['2'],5,232,[0.09641844],82,47,medium,minus,dotcolour,beta,,,5,18,V,R,
325,73,31,7,2,53,27,500,['c'],1,left,['1'],6,868,[0.26272167],98,53,easy,minus,dotcolour,beta,,,5,18,V,R,
326,74,32,7,2,36,44,1365,['n'],1,right,['2'],5,204,[-0.06650754],61,44,hard,minus,dotcolour,beta,,,5,18,V,R,
327,75,33,7,2,36,44,1499,['c'],0,right,['2'],5,154,[0.1253237],96,44,hard,minus,dotcolour,beta,,,5,18,V,R,
328,76,34,7,2,27,53,865,['n'],1,right,['1'],6,331,[-0.11770022],87,53,easy,minus,dotcolour,beta,,,5,18,V,R,
329,77,35,7,2,36,44,1850,['c'],0,right,['3'],4,909,[0.06471613],54,44,hard,minus,dotcolour,beta,,,5,18,V,R,
330,78,36,7,2,47,33,1149,['c'],1,left,['3'],4,236,[0.21152371],100,47,medium,minus,dotcolour,beta,,,5,18,V,R,
331,79,37,7,2,27,53,965,['n'],1,right,['2'],5,374,[-0.17534951],97,53,easy,minus,dotcolour,beta,,,5,18,V,R,
332,80,38,7,2,47,33,1514,['n'],0,left,['8'],3,1444,[0.0706877],13,47,medium,minus,dotcolour,beta,,,5,18,V,R,
333,81,39,7,2,33,47,1316,['n'],1,right,['3'],4,294,[-0.14121201],94,47,medium,minus,dotcolour,beta,,,5,18,V,R,
334,82,40,7,2,36,44,1950,['n'],1,right,['8'],3,1359,[-0.14855011],81,44,hard,minus,dotcolour,beta,,,5,18,V,R,
335,83,41,7,2,33,47,3333,['c'],0,right,['3'],4,3253,[0.01039968],39,47,medium,minus,dotcolour,beta,,,5,18,V,R,
336,84,0,8,2,47,33,1166,['c'],1,left,['1'],6,345,[0.12764599],90,47,medium,minus,dotcolour,beta,,,5,18,V,R,
337,85,1,8,2,44,36,949,['n'],0,left,['3'],4,535,[-0.1273763],85,44,hard,minus,dotcolour,beta,,,5,18,V,R,
338,86,2,8,2,33,47,515,['n'],1,right,['2'],5,695,[-0.07713524],61,47,medium,minus,dotcolour,beta,,,5,18,V,R,
339,87,3,8,2,36,44,548,['n'],1,right,['2'],5,134,[-0.10123175],90,44,hard,minus,dotcolour,beta,,,5,18,V,R,
340,88,4,8,2,27,53,482,['n'],1,right,['2'],5,135,[-0.0943128],87,53,easy,minus,dotcolour,beta,,,5,18,V,R,
341,89,5,8,2,33,47,466,['n'],1,right,['2'],5,183,[-0.05502759],49,47,medium,minus,dotcolour,beta,,,5,18,V,R,
342,90,6,8,2,53,27,1048,['c'],1,left,['1'],6,672,[0.14203288],87,53,easy,minus,dotcolour,beta,,,5,18,V,R,
343,91,7,8,2,53,27,1098,['c'],1,left,['2'],5,459,[0.14849395],92,53,easy,minus,dotcolour,beta,,,5,18,V,R,
344,92,8,8,2,33,47,1065,['n'],1,right,['2'],5,1872,[-0.2301585],91,47,medium,minus,dotcolour,beta,,,5,18,V,R,
345,93,9,8,2,44,36,1763,['n'],0,left,['3'],4,175,[-0.11129253],92,44,hard,minus,dotcolour,beta,,,5,18,V,R,
346,94,10,8,2,44,36,1583,['c'],1,left,['3'],4,282,[0.02630077],27,44,hard,minus,dotcolour,beta,,,5,18,V,R,
347,95,11,8,2,33,47,864,['n'],1,right,['3'],4,254,[-0.17576874],99,47,medium,minus,dotcolour,beta,,,5,18,V,R,
348,96,12,8,2,44,36,680,['n'],0,left,['3'],4,355,[0.04457231],5,44,hard,minus,dotcolour,beta,,,5,18,V,R,
349,97,13,8,2,53,27,1248,['c'],1,left,['2'],5,523,[0.13423851],88,53,easy,minus,dotcolour,beta,,,5,18,V,R,
350,98,14,8,2,33,47,916,['n'],1,right,['2'],5,1180,[-0.24170799],96,47,medium,minus,dotcolour,beta,,,5,18,V,R,
351,99,15,8,2,44,36,949,['n'],0,left,['1'],6,287,[-0.01021147],18,44,hard,minus,dotcolour,beta,,,5,18,V,R,
352,100,16,8,2,27,53,632,['n'],1,right,['2'],5,436,[-0.21147692],99,53,easy,minus,dotcolour,beta,,,5,18,V,R,
353,101,17,8,2,36,44,748,['n'],1,right,['2'],5,230,[-0.10616385],87,44,hard,minus,dotcolour,beta,,,5,18,V,R,
354,102,18,8,2,47,33,1267,['c'],1,left,['1'],6,397,[0.00563147],19,47,medium,minus,dotcolour,beta,,,5,18,V,R,
355,103,19,8,2,36,44,1148,['n'],1,right,['2'],5,392,[-0.11445418],84,44,hard,minus,dotcolour,beta,,,5,18,V,R,
356,104,20,8,2,27,53,632,['n'],1,right,['2'],5,200,[-0.08762289],78,53,easy,minus,dotcolour,beta,,,5,18,V,R,
357,105,21,8,2,47,33,1282,['c'],1,left,['2'],5,222,[0.07792789],70,47,medium,minus,dotcolour,beta,,,5,18,V,R,
358,106,22,8,2,36,44,1048,['n'],1,right,['2'],5,180,[-0.00135467],9,44,hard,minus,dotcolour,beta,,,5,18,V,R,
359,107,23,8,2,53,27,932,['c'],1,left,['1'],6,210,[0.09359385],82,53,easy,minus,dotcolour,beta,,,5,18,V,R,
360,108,24,8,2,47,33,1031,['c'],1,left,['1'],6,177,[0.07614648],71,47,medium,minus,dotcolour,beta,,,5,18,V,R,
361,109,25,8,2,33,47,898,['n'],1,right,['2'],5,440,[-0.14010922],91,47,medium,minus,dotcolour,beta,,,5,18,V,R,
362,110,26,8,2,33,47,566,['n'],1,right,['2'],5,185,[-0.08289298],76,47,medium,minus,dotcolour,beta,,,5,18,V,R,
363,111,27,8,2,47,33,1098,['c'],1,left,['1'],6,391,[0.0827527],69,47,medium,minus,dotcolour,beta,,,5,18,V,R,
364,112,28,8,2,53,27,1015,['c'],1,left,['2'],5,544,[0.17482146],95,53,easy,minus,dotcolour,beta,,,5,18,V,R,
365,113,29,8,2,47,33,848,['c'],1,left,['2'],5,242,[0.15788319],98,47,medium,minus,dotcolour,beta,,,5,18,V,R,
366,114,30,8,2,27,53,1048,['n'],1,right,['2'],5,296,[-0.13788282],94,53,easy,minus,dotcolour,beta,,,5,18,V,R,
367,115,31,8,2,47,33,915,['c'],1,left,['2'],5,385,[0.14485891],93,47,medium,minus,dotcolour,beta,,,5,18,V,R,
368,116,32,8,2,44,36,929,['c'],1,left,['3'],4,270,[0.08856822],76,44,hard,minus,dotcolour,beta,,,5,18,V,R,
369,117,33,8,2,36,44,915,['n'],1,right,['3'],4,216,[-0.09548574],82,44,hard,minus,dotcolour,beta,,,5,18,V,R,
370,118,34,8,2,53,27,1282,['c'],1,left,['2'],5,213,[0.06230172],57,53,easy,minus,dotcolour,beta,,,5,18,V,R,
371,119,35,8,2,27,53,897,['n'],1,right,['2'],5,218,[-0.10195698],86,53,easy,minus,dotcolour,beta,,,5,18,V,R,
372,120,36,8,2,36,44,1115,['n'],1,right,['3'],4,175,[-0.03959604],33,44,hard,minus,dotcolour,beta,,,5,18,V,R,
373,121,37,8,2,36,44,1716,['n'],1,right,['3'],4,172,[-0.12252756],95,44,hard,minus,dotcolour,beta,,,5,18,V,R,
374,122,38,8,2,44,36,1547,['c'],1,left,['3'],4,177,[0.09066041],82,44,hard,minus,dotcolour,beta,,,5,18,V,R,
375,123,39,8,2,27,53,1080,['n'],1,right,['2'],5,183,[-0.09052174],81,53,easy,minus,dotcolour,beta,,,5,18,V,R,
376,124,40,8,2,53,27,900,['c'],1,left,['1'],6,990,[0.34983227],100,53,easy,minus,dotcolour,beta,,,5,18,V,R,
377,125,41,8,2,27,53,1100,['n'],1,right,['1'],6,308,[-0.14297376],94,53,easy,minus,dotcolour,beta,,,5,18,V,R,
378,0,0,9,3,33,47,1050,['n'],1,right,['1'],6,164,[-0.10185227],100,47,medium,plus,dotcolour,beta,,,5,18,V,R,
379,1,1,9,3,47,33,1818,['c'],1,left,['2'],5,199,[0.0636171],99,47,medium,plus,dotcolour,beta,,,5,18,V,R,
380,2,2,9,3,53,27,984,['c'],1,left,['2'],5,289,[0.13970038],100,53,easy,plus,dotcolour,beta,,,5,18,V,R,
381,3,3,9,3,47,33,834,['c'],1,left,['2'],5,166,[0.00300309],93,47,medium,plus,dotcolour,beta,,,5,18,V,R,
382,4,4,9,3,27,53,734,['n'],1,right,['2'],5,235,[-0.07083488],99,53,easy,plus,dotcolour,beta,,,5,18,V,R,
383,5,5,9,3,27,53,534,['n'],1,right,['2'],5,150,[-0.09349448],100,53,easy,plus,dotcolour,beta,,,5,18,V,R,
384,6,6,9,3,27,53,483,['n'],1,right,['2'],5,182,[-0.0471962],99,53,easy,plus,dotcolour,beta,,,5,18,V,R,
385,7,7,9,3,53,27,817,['c'],1,left,['2'],5,216,[0.03332373],97,53,easy,plus,dotcolour,beta,,,5,18,V,R,
386,8,8,9,3,36,44,883,['n'],1,right,['2'],5,214,[-0.05716512],99,44,hard,plus,dotcolour,beta,,,5,18,V,R,
387,9,9,9,3,36,44,767,['n'],1,right,['2'],5,280,[-0.09989303],99,44,hard,plus,dotcolour,beta,,,5,18,V,R,
388,10,10,9,3,27,53,600,['n'],1,right,['2'],5,206,[-0.13099061],100,53,easy,plus,dotcolour,beta,,,5,18,V,R,
389,11,11,9,3,44,36,1034,['c'],1,left,['2'],5,279,[0.16878928],100,44,hard,plus,dotcolour,beta,,,5,18,V,R,
390,12,12,9,3,53,27,1017,['c'],1,left,['1'],6,252,[0.18314384],100,53,easy,plus,dotcolour,beta,,,5,18,V,R,
391,13,13,9,3,33,47,1117,['n'],1,right,['2'],5,183,[-0.04725114],99,47,medium,plus,dotcolour,beta,,,5,18,V,R,
392,14,14,9,3,44,36,1534,['n'],0,left,['3'],4,372,[-0.00233132],85,44,hard,plus,dotcolour,beta,,,5,18,V,R,
393,15,15,9,3,53,27,1651,['c'],1,left,['1'],6,165,[0.08606095],100,53,easy,plus,dotcolour,beta,,,5,18,V,R,
394,16,16,9,3,44,36,1250,['c'],1,left,['2'],5,182,[0.06571156],99,44,hard,plus,dotcolour,beta,,,5,18,V,R,
395,17,17,9,3,33,47,984,['n'],1,right,['1'],6,441,[-0.18627958],100,47,medium,plus,dotcolour,beta,,,5,18,V,R,
396,18,18,9,3,36,44,1067,['c'],0,right,['3'],4,414,[0.04287738],94,44,hard,plus,dotcolour,beta,,,5,18,V,R,
397,19,19,9,3,53,27,1001,['c'],1,left,['3'],4,143,[0.12013262],100,53,easy,plus,dotcolour,beta,,,5,18,V,R,
398,20,20,9,3,47,33,1168,['c'],1,left,['3'],4,172,[0.09034538],100,47,medium,plus,dotcolour,beta,,,5,18,V,R,
399,21,21,9,3,33,47,917,['n'],1,right,['2'],5,138,[-0.0404131],99,47,medium,plus,dotcolour,beta,,,5,18,V,R,
400,22,22,9,3,36,44,500,['n'],1,right,['2'],5,235,[-0.12683894],100,44,hard,plus,dotcolour,beta,,,5,18,V,R,
401,23,23,9,3,27,53,566,['n'],1,right,['2'],5,140,[-0.0705038],100,53,easy,plus,dotcolour,beta,,,5,18,V,R,
402,24,24,9,3,33,47,464,['n'],1,right,['2'],5,197,[-0.08982362],100,47,medium,plus,dotcolour,beta,,,5,18,V,R,
403,25,25,9,3,27,53,380,['n'],1,right,['2'],5,192,[-0.11235895],100,53,easy,plus,dotcolour,beta,,,5,18,V,R,
404,26,26,9,3,44,36,1815,['c'],1,left,['3'],4,449,[0.06439869],96,44,hard,plus,dotcolour,beta,,,5,18,V,R,
405,27,27,9,3,47,33,898,['c'],1,left,['2'],5,461,[0.11424889],99,47,medium,plus,dotcolour,beta,,,5,18,V,R,
406,28,28,9,3,44,36,482,['c'],1,left,['2'],5,144,[0.0773575],100,44,hard,plus,dotcolour,beta,,,5,18,V,R,
407,29,29,9,3,53,27,632,['c'],1,left,['1'],6,218,[0.14491006],100,53,easy,plus,dotcolour,beta,,,5,18,V,R,
408,30,30,9,3,36,44,1199,['n'],1,right,['2'],5,203,[-0.01989235],95,44,hard,plus,dotcolour,beta,,,5,18,V,R,
409,31,31,9,3,53,27,1082,['c'],1,left,['2'],5,162,[0.08656861],100,53,easy,plus,dotcolour,beta,,,5,18,V,R,
410,32,32,9,3,44,36,1232,['c'],1,left,['3'],4,283,[0.09347288],99,44,hard,plus,dotcolour,beta,,,5,18,V,R,
411,33,33,9,3,47,33,733,['c'],1,left,['3'],4,221,[0.02302239],95,47,medium,plus,dotcolour,beta,,,5,18,V,R,
412,34,34,9,3,33,47,1149,['n'],1,right,['2'],5,247,[-0.03964325],97,47,medium,plus,dotcolour,beta,,,5,18,V,R,
413,35,35,9,3,33,47,483,['n'],1,right,['2'],5,132,[-0.04514005],99,47,medium,plus,dotcolour,beta,,,5,18,V,R,
414,36,36,9,3,36,44,1114,['c'],0,right,['3'],4,195,[0.07859841],100,44,hard,plus,dotcolour,beta,,,5,18,V,R,
415,37,37,9,3,47,33,1032,['c'],1,left,['2'],5,171,[0.16032613],100,47,medium,plus,dotcolour,beta,,,5,18,V,R,
416,38,38,9,3,47,33,1016,['c'],1,left,['1'],6,382,[0.15325621],100,47,medium,plus,dotcolour,beta,,,5,18,V,R,
417,39,39,9,3,36,44,1616,['n'],1,right,['2'],5,184,[-0.12498172],100,44,hard,plus,dotcolour,beta,,,5,18,V,R,
418,40,40,9,3,44,36,865,['c'],1,left,['2'],5,159,[0.05999617],99,44,hard,plus,dotcolour,beta,,,5,18,V,R,
419,41,41,9,3,27,53,832,['n'],1,right,['2'],5,177,[-0.13131375],100,53,easy,plus,dotcolour,beta,,,5,18,V,R,
420,42,0,10,3,27,53,1567,['n'],1,right,['2'],5,238,[-0.13676929],100,53,easy,plus,dotcolour,beta,,,5,18,V,R,
421,43,1,10,3,53,27,1065,['c'],1,left,['1'],6,164,[0.10713691],100,53,easy,plus,dotcolour,beta,,,5,18,V,R,
422,44,2,10,3,53,27,865,['c'],1,left,['2'],5,228,[0.07831651],99,53,easy,plus,dotcolour,beta,,,5,18,V,R,
423,45,3,10,3,27,53,849,['n'],1,right,['2'],5,323,[-0.1565518],100,53,easy,plus,dotcolour,beta,,,5,18,V,R,
424,46,4,10,3,53,27,798,['c'],1,left,['1'],6,279,[0.09350097],99,53,easy,plus,dotcolour,beta,,,5,18,V,R,
425,47,5,10,3,44,36,849,['n'],0,left,['2'],5,251,[-0.00847295],91,44,hard,plus,dotcolour,beta,,,5,18,V,R,
426,48,6,10,3,33,47,582,['n'],1,right,['2'],5,172,[-0.03289633],98,47,medium,plus,dotcolour,beta,,,5,18,V,R,
427,49,7,10,3,27,53,565,['n'],1,right,['2'],5,216,[-0.08574211],100,53,easy,plus,dotcolour,beta,,,5,18,V,R,
428,50,8,10,3,27,53,548,['n'],1,right,['2'],5,147,[-0.09242774],100,53,easy,plus,dotcolour,beta,,,5,18,V,R,
429,51,9,10,3,47,33,1065,['c'],1,left,['2'],5,684,[0.08468408],95,47,medium,plus,dotcolour,beta,,,5,18,V,R,
430,52,10,10,3,36,44,866,['n'],1,right,['2'],5,247,[-0.05663195],98,44,hard,plus,dotcolour,beta,,,5,18,V,R,
431,53,11,10,3,47,33,697,['n'],0,left,['2'],5,131,[-0.01758839],97,47,medium,plus,dotcolour,beta,,,5,18,V,R,
432,54,12,10,3,36,44,633,['n'],1,right,['3'],4,726,[-0.07886877],94,44,hard,plus,dotcolour,beta,,,5,18,V,R,
433,55,13,10,3,36,44,2598,['n'],1,right,['3'],4,210,[-0.06283181],99,44,hard,plus,dotcolour,beta,,,5,18,V,R,
434,56,14,10,3,36,44,1148,['c'],0,right,['3'],4,654,[-0.07314672],40,44,hard,plus,dotcolour,beta,,,5,18,V,R,
435,57,15,10,3,36,44,1381,['n'],1,right,['2'],5,653,[-0.03140861],87,44,hard,plus,dotcolour,beta,,,5,18,V,R,
436,58,16,10,3,44,36,999,['c'],1,left,['2'],5,188,[0.08963849],100,44,hard,plus,dotcolour,beta,,,5,18,V,R,
437,59,17,10,3,47,33,899,['c'],1,left,['2'],5,130,[0.07698528],100,47,medium,plus,dotcolour,beta,,,5,18,V,R,
438,60,18,10,3,33,47,1032,['n'],1,right,['2'],5,245,[-0.06452914],99,47,medium,plus,dotcolour,beta,,,5,18,V,R,
439,61,19,10,3,53,27,883,['c'],1,left,['2'],5,217,[0.1439102],100,53,easy,plus,dotcolour,beta,,,5,18,V,R,
440,62,20,10,3,33,47,997,['n'],1,right,['2'],5,171,[-0.15997961],100,47,medium,plus,dotcolour,beta,,,5,18,V,R,
441,63,21,10,3,33,47,583,['n'],1,right,['2'],5,158,[-0.04358189],99,47,medium,plus,dotcolour,beta,,,5,18,V,R,
442,64,22,10,3,44,36,2666,['c'],1,left,['3'],4,375,[0.0767751],98,44,hard,plus,dotcolour,beta,,,5,18,V,R,
443,65,23,10,3,44,36,848,['c'],1,left,['2'],5,319,[-0.04347277],60,44,hard,plus,dotcolour,beta,,,5,18,V,R,
444,66,24,10,3,36,44,1264,['c'],0,right,['3'],4,345,[0.158877],100,44,hard,plus,dotcolour,beta,,,5,18,V,R,
445,67,25,10,3,44,36,982,['c'],1,left,['3'],4,333,[0.20324915],100,44,hard,plus,dotcolour,beta,,,5,18,V,R,
446,68,26,10,3,53,27,815,['c'],1,left,['2'],5,369,[0.20225313],100,53,easy,plus,dotcolour,beta,,,5,18,V,R,
447,69,27,10,3,27,53,850,['n'],1,right,['2'],5,162,[-0.05617913],99,53,easy,plus,dotcolour,beta,,,5,18,V,R,
448,70,28,10,3,47,33,882,['c'],1,left,['1'],6,322,[0.09319415],99,47,medium,plus,dotcolour,beta,,,5,18,V,R,
449,71,29,10,3,53,27,832,['c'],1,left,['1'],6,357,[0.22834888],100,53,easy,plus,dotcolour,beta,,,5,18,V,R,
450,72,30,10,3,33,47,647,['n'],1,right,['2'],5,350,[-0.06719274],98,47,medium,plus,dotcolour,beta,,,5,18,V,R,
451,73,31,10,3,33,47,548,['n'],1,right,['2'],5,291,[-0.1632813],100,47,medium,plus,dotcolour,beta,,,5,18,V,R,
452,74,32,10,3,33,47,582,['n'],1,right,['2'],5,346,[-0.03776072],95,47,medium,plus,dotcolour,beta,,,5,18,V,R,
453,75,33,10,3,36,44,498,['n'],1,right,['2'],5,209,[-0.11583302],100,44,hard,plus,dotcolour,beta,,,5,18,V,R,
454,76,34,10,3,27,53,748,['n'],1,right,['2'],5,205,[-0.0386732],98,53,easy,plus,dotcolour,beta,,,5,18,V,R,
455,77,35,10,3,47,33,1282,['c'],1,left,['2'],5,1131,[0.36367464],100,47,medium,plus,dotcolour,beta,,,5,18,V,R,
456,78,36,10,3,47,33,867,['c'],1,left,['2'],5,124,[0.03373105],99,47,medium,plus,dotcolour,beta,,,5,18,V,R,
457,79,37,10,3,53,27,1066,['c'],1,left,['1'],6,165,[0.03563248],98,53,easy,plus,dotcolour,beta,,,5,18,V,R,
458,80,38,10,3,27,53,916,['n'],1,right,['1'],6,211,[-0.08572883],100,53,easy,plus,dotcolour,beta,,,5,18,V,R,
459,81,39,10,3,47,33,1082,['c'],1,left,['1'],6,145,[0.1192639],100,47,medium,plus,dotcolour,beta,,,5,18,V,R,
460,82,40,10,3,44,36,1066,['n'],0,left,['1'],6,202,[-0.05069464],99,44,hard,plus,dotcolour,beta,,,5,18,V,R,
461,83,41,10,3,44,36,1849,['c'],1,left,['2'],5,265,[0.12722845],100,44,hard,plus,dotcolour,beta,,,5,18,V,R,
462,84,0,11,3,47,33,1400,['c'],1,left,['2'],5,318,[0.06806038],98,47,medium,plus,dotcolour,beta,,,5,18,V,R,
463,85,1,11,3,44,36,999,['n'],0,left,['3'],4,155,[-0.01153922],96,44,hard,plus,dotcolour,beta,,,5,18,V,R,
464,86,2,11,3,47,33,949,['c'],1,left,['2'],5,208,[0.08016396],100,47,medium,plus,dotcolour,beta,,,5,18,V,R,
465,87,3,11,3,47,33,1533,['c'],1,left,['2'],5,220,[0.12003788],100,47,medium,plus,dotcolour,beta,,,5,18,V,R,
466,88,4,11,3,33,47,766,['n'],1,right,['2'],5,358,[-0.18056735],100,47,medium,plus,dotcolour,beta,,,5,18,V,R,
467,89,5,11,3,53,27,914,['c'],1,left,['2'],5,189,[0.05593197],99,53,easy,plus,dotcolour,beta,,,5,18,V,R,
468,90,6,11,3,36,44,931,['n'],1,right,['2'],5,434,[-0.05119375],95,44,hard,plus,dotcolour,beta,,,5,18,V,R,
469,91,7,11,3,53,27,964,['c'],1,left,['1'],6,155,[0.09183636],100,53,easy,plus,dotcolour,beta,,,5,18,V,R,
470,92,8,11,3,27,53,1064,['n'],1,right,['2'],5,219,[-0.11051717],100,53,easy,plus,dotcolour,beta,,,5,18,V,R,
471,93,9,11,3,36,44,615,['n'],1,right,['2'],5,171,[-0.07138195],100,44,hard,plus,dotcolour,beta,,,5,18,V,R,
472,94,10,11,3,36,44,548,['n'],1,right,['2'],5,207,[-0.04639246],98,44,hard,plus,dotcolour,beta,,,5,18,V,R,
473,95,11,11,3,27,53,814,['n'],1,right,['2'],5,408,[-0.24991825],100,53,easy,plus,dotcolour,beta,,,5,18,V,R,
474,96,12,11,3,27,53,683,['n'],1,right,['2'],5,182,[-0.1322996],100,53,easy,plus,dotcolour,beta,,,5,18,V,R,
475,97,13,11,3,47,33,1066,['c'],1,left,['2'],5,213,[0.03333214],97,47,medium,plus,dotcolour,beta,,,5,18,V,R,
476,98,14,11,3,33,47,965,['n'],1,right,['2'],5,176,[-0.12825202],100,47,medium,plus,dotcolour,beta,,,5,18,V,R,
477,99,15,11,3,33,47,650,['n'],1,right,['2'],5,144,[-0.08685109],100,47,medium,plus,dotcolour,beta,,,5,18,V,R,
478,100,16,11,3,27,53,432,['n'],1,right,['2'],5,154,[-0.15210326],100,53,easy,plus,dotcolour,beta,,,5,18,V,R,
479,101,17,11,3,53,27,933,['c'],1,left,['2'],5,129,[0.13191697],100,53,easy,plus,dotcolour,beta,,,5,18,V,R,
480,102,18,11,3,36,44,864,['n'],1,right,['2'],5,90,[-0.0804568],100,44,hard,plus,dotcolour,beta,,,5,18,V,R,
481,103,19,11,3,44,36,866,['c'],1,left,['2'],5,381,[0.00988172],87,44,hard,plus,dotcolour,beta,,,5,18,V,R,
482,104,20,11,3,33,47,1298,['n'],1,right,['2'],5,132,[-0.11433358],100,47,medium,plus,dotcolour,beta,,,5,18,V,R,
483,105,21,11,3,36,44,548,['n'],1,right,['2'],5,106,[-0.05909308],100,44,hard,plus,dotcolour,beta,,,5,18,V,R,
484,106,22,11,3,53,27,915,['c'],1,left,['2'],5,283,[0.08653726],99,53,easy,plus,dotcolour,beta,,,5,18,V,R,
485,107,23,11,3,53,27,831,['c'],1,left,['2'],5,143,[0.12075562],100,53,easy,plus,dotcolour,beta,,,5,18,V,R,
486,108,24,11,3,44,36,1198,['n'],0,left,['3'],4,403,[-0.10937057],99,44,hard,plus,dotcolour,beta,,,5,18,V,R,
487,109,25,11,3,47,33,1000,['c'],1,left,['2'],5,252,[0.10964062],100,47,medium,plus,dotcolour,beta,,,5,18,V,R,
488,110,26,11,3,53,27,481,['c'],1,left,['2'],5,104,[0.07057024],100,53,easy,plus,dotcolour,beta,,,5,18,V,R,
489,111,27,11,3,44,36,898,['n'],0,left,['2'],5,137,[-0.12717639],100,44,hard,plus,dotcolour,beta,,,5,18,V,R,
490,112,28,11,3,36,44,715,['n'],1,right,['2'],5,184,[-0.07992743],100,44,hard,plus,dotcolour,beta,,,5,18,V,R,
491,113,29,11,3,27,53,548,['n'],1,right,['2'],5,292,[-0.0695429],98,53,easy,plus,dotcolour,beta,,,5,18,V,R,
492,114,30,11,3,33,47,598,['n'],1,right,['2'],5,170,[-0.03101778],98,47,medium,plus,dotcolour,beta,,,5,18,V,R,
493,115,31,11,3,27,53,1881,['n'],1,right,['2'],5,137,[-0.1295976],100,53,easy,plus,dotcolour,beta,,,5,18,V,R,
494,116,32,11,3,36,44,547,['n'],1,right,['2'],5,111,[-0.1144617],100,44,hard,plus,dotcolour,beta,,,5,18,V,R,
495,117,33,11,3,53,27,931,['c'],1,left,['2'],5,183,[0.12752949],100,53,easy,plus,dotcolour,beta,,,5,18,V,R,
496,118,34,11,3,47,33,798,['c'],1,left,['2'],5,128,[0.0155532],97,47,medium,plus,dotcolour,beta,,,5,18,V,R,
497,119,35,11,3,44,36,764,['c'],1,left,['2'],5,86,[0.10804277],100,44,hard,plus,dotcolour,beta,,,5,18,V,R,
498,120,36,11,3,33,47,1113,['n'],1,right,['2'],5,127,[-0.12639611],100,47,medium,plus,dotcolour,beta,,,5,18,V,R,
499,121,37,11,3,44,36,914,['c'],1,left,['2'],5,103,[0.07179097],100,44,hard,plus,dotcolour,beta,,,5,18,V,R,
500,122,38,11,3,44,36,882,['c'],1,left,['2'],5,145,[0.11899179],100,44,hard,plus,dotcolour,beta,,,5,18,V,R,
501,123,39,11,3,33,47,947,['n'],1,right,['2'],5,134,[0.01452126],88,47,medium,plus,dotcolour,beta,,,5,18,V,R,
502,124,40,11,3,47,33,864,['c'],1,left,['2'],5,127,[0.04757886],99,47,medium,plus,dotcolour,beta,,,5,18,V,R,
503,125,41,11,3,27,53,865,['n'],1,right,['2'],5,153,[-0.00742717],95,53,easy,plus,dotcolour,beta,,,5,18,V,R,
504,0,0,12,4,53,27,1099,['c'],1,left,['1'],6,705,[0.18567642],94,53,easy,minus,dotcolour,beta,,,5,18,V,R,
505,1,1,12,4,36,44,797,['n'],1,right,['2'],5,190,[-0.0982113],85,44,hard,minus,dotcolour,beta,,,5,18,V,R,
506,2,2,12,4,47,33,598,['n'],0,left,['3'],4,1272,[0.04732192],16,47,medium,minus,dotcolour,beta,,,5,18,V,R,
507,3,3,12,4,27,53,1665,['n'],1,right,['2'],5,188,[-0.10235625],87,53,easy,minus,dotcolour,beta,,,5,18,V,R,
508,4,4,12,4,27,53,682,['n'],1,right,['2'],5,122,[-0.02680078],19,53,easy,minus,dotcolour,beta,,,5,18,V,R,
509,5,5,12,4,47,33,666,['n'],0,left,['2'],5,125,[-0.05977866],55,47,medium,minus,dotcolour,beta,,,5,18,V,R,
510,6,6,12,4,33,47,583,['n'],1,right,['2'],5,194,[-0.0611325],56,47,medium,minus,dotcolour,beta,,,5,18,V,R,
511,7,7,12,4,44,36,2765,['n'],0,left,['3'],4,173,[-0.05181342],46,44,hard,minus,dotcolour,beta,,,5,18,V,R,
512,8,8,12,4,36,44,1399,['c'],0,right,['3'],4,383,[0.10616604],81,44,hard,minus,dotcolour,beta,,,5,18,V,R,
513,9,9,12,4,27,53,766,['n'],1,right,['2'],5,771,[-0.32831972],100,53,easy,minus,dotcolour,beta,,,5,18,V,R,
514,10,10,12,4,53,27,899,['c'],1,left,['2'],5,129,[0.0780013],75,53,easy,minus,dotcolour,beta,,,5,18,V,R,
515,11,11,12,4,27,53,815,['n'],1,right,['2'],5,116,[-0.10628304],94,53,easy,minus,dotcolour,beta,,,5,18,V,R,
516,12,12,12,4,53,27,832,['c'],1,left,['2'],5,128,[0.04482637],37,53,easy,minus,dotcolour,beta,,,5,18,V,R,
517,13,13,12,4,36,44,1115,['n'],1,right,['3'],4,400,[-0.15857914],95,44,hard,minus,dotcolour,beta,,,5,18,V,R,
518,14,14,12,4,53,27,899,['c'],1,left,['2'],5,237,[0.14993701],97,53,easy,minus,dotcolour,beta,,,5,18,V,R,
519,15,15,12,4,27,53,800,['n'],1,right,['2'],5,205,[-0.09492984],83,53,easy,minus,dotcolour,beta,,,5,18,V,R,
520,16,16,12,4,36,44,898,['n'],1,right,['2'],5,139,[-0.06758825],64,44,hard,minus,dotcolour,beta,,,5,18,V,R,
521,17,17,12,4,47,33,899,['c'],1,left,['2'],5,115,[0.05189176],45,47,medium,minus,dotcolour,beta,,,5,18,V,R,
522,18,18,12,4,36,44,848,['n'],1,right,['2'],5,118,[-0.10100945],92,44,hard,minus,dotcolour,beta,,,5,18,V,R,
523,19,19,12,4,33,47,500,['n'],1,right,['2'],5,142,[-0.08484388],80,47,medium,minus,dotcolour,beta,,,5,18,V,R,
524,20,20,12,4,44,36,900,['n'],0,left,['2'],5,142,[-0.09063395],84,44,hard,minus,dotcolour,beta,,,5,18,V,R,
525,21,21,12,4,36,44,649,['n'],1,right,['2'],5,152,[-0.04727201],41,44,hard,minus,dotcolour,beta,,,5,18,V,R,
526,22,22,12,4,44,36,1067,['c'],1,left,['1'],6,264,[-0.02667523],5,44,hard,minus,dotcolour,beta,,,5,18,V,R,
527,23,23,12,4,47,33,899,['c'],1,left,['1'],6,371,[0.26487402],100,47,medium,minus,dotcolour,beta,,,5,18,V,R,
528,24,24,12,4,44,36,516,['c'],1,left,['1'],6,169,[-0.00085251],8,44,hard,minus,dotcolour,beta,,,5,18,V,R,
529,25,25,12,4,44,36,1182,['c'],1,left,['3'],4,396,[0.07741279],65,44,hard,minus,dotcolour,beta,,,5,18,V,R,
530,26,26,12,4,53,27,799,['c'],1,left,['1'],6,142,[0.10228807],90,53,easy,minus,dotcolour,beta,,,5,18,V,R,
531,27,27,12,4,33,47,699,['c'],0,right,['2'],5,190,[0.03303188],28,47,medium,minus,dotcolour,beta,,,5,18,V,R,
532,28,28,12,4,47,33,532,['c'],1,left,['2'],5,282,[0.0926773],78,47,medium,minus,dotcolour,beta,,,5,18,V,R,
533,29,29,12,4,33,47,999,['n'],1,right,['2'],5,520,[-0.23010015],99,47,medium,minus,dotcolour,beta,,,5,18,V,R,
534,30,30,12,4,33,47,467,['n'],1,right,['2'],5,170,[-0.1586366],99,47,medium,minus,dotcolour,beta,,,5,18,V,R,
535,31,31,12,4,47,33,848,['c'],1,left,['2'],5,410,[0.08083031],67,47,medium,minus,dotcolour,beta,,,5,18,V,R,
536,32,32,12,4,47,33,866,['c'],1,left,['2'],5,144,[0.11481299],94,47,medium,minus,dotcolour,beta,,,5,18,V,R,
537,33,33,12,4,53,27,2714,['c'],1,left,['2'],5,432,[0.0967204],76,53,easy,minus,dotcolour,beta,,,5,18,V,R,
538,34,34,12,4,36,44,1030,['n'],1,right,['2'],5,183,[-0.12596624],95,44,hard,minus,dotcolour,beta,,,5,18,V,R,
539,35,35,12,4,27,53,516,['n'],1,right,['2'],5,117,[-0.06563849],63,53,easy,minus,dotcolour,beta,,,5,18,V,R,
540,36,36,12,4,44,36,1299,['c'],1,left,['3'],4,341,[0.10225729],81,44,hard,minus,dotcolour,beta,,,5,18,V,R,
541,37,37,12,4,27,53,1198,['n'],1,right,['2'],5,241,[-0.16043631],98,53,easy,minus,dotcolour,beta,,,5,18,V,R,
542,38,38,12,4,44,36,1716,['c'],1,left,['3'],4,156,[0.04853364],42,44,hard,minus,dotcolour,beta,,,5,18,V,R,
543,39,39,12,4,53,27,867,['c'],1,left,['2'],5,325,[0.13166308],92,53,easy,minus,dotcolour,beta,,,5,18,V,R,
544,40,40,12,4,33,47,966,['n'],1,right,['2'],5,186,[-0.1212606],94,47,medium,minus,dotcolour,beta,,,5,18,V,R,
545,41,41,12,4,33,47,699,['n'],1,right,['2'],5,193,[-0.07247057],67,47,medium,minus,dotcolour,beta,,,5,18,V,R,
546,42,0,13,4,47,33,1132,['c'],1,left,['2'],5,297,[0.09103862],76,47,medium,minus,dotcolour,beta,,,5,18,V,R,
547,43,1,13,4,33,47,732,['n'],1,right,['2'],5,154,[-0.08202196],77,47,medium,minus,dotcolour,beta,,,5,18,V,R,
548,44,2,13,4,53,27,832,['c'],1,left,['2'],5,236,[0.18757726],99,53,easy,minus,dotcolour,beta,,,5,18,V,R,
549,45,3,13,4,53,27,815,['c'],1,left,['2'],5,107,[0.11592485],97,53,easy,minus,dotcolour,beta,,,5,18,V,R,
550,46,4,13,4,36,44,849,['n'],1,right,['2'],5,159,[-0.05384095],48,44,hard,minus,dotcolour,beta,,,5,18,V,R,
551,47,5,13,4,27,53,648,['n'],1,right,['2'],5,151,[-0.12012373],95,53,easy,minus,dotcolour,beta,,,5,18,V,R,
552,48,6,13,4,44,36,1365,['c'],1,left,['3'],4,125,[0.13868468],99,44,hard,minus,dotcolour,beta,,,5,18,V,R,
553,49,7,13,4,27,53,863,['n'],1,right,['2'],5,207,[-0.05560825],50,53,easy,minus,dotcolour,beta,,,5,18,V,R,
554,50,8,13,4,47,33,1332,['n'],0,left,['3'],4,202,[-0.07423853],68,47,medium,minus,dotcolour,beta,,,5,18,V,R,
555,51,9,13,4,33,47,483,['n'],1,right,['2'],5,520,[-0.05043052],47,47,medium,minus,dotcolour,beta,,,5,18,V,R,
556,52,10,13,4,33,47,549,['n'],1,right,['2'],5,175,[-0.06267375],58,47,medium,minus,dotcolour,beta,,,5,18,V,R,
557,53,11,13,4,44,36,1215,['c'],1,left,['3'],4,385,[0.15209558],94,44,hard,minus,dotcolour,beta,,,5,18,V,R,
558,54,12,13,4,47,33,1680,['c'],1,left,['3'],4,703,[0.16050697],90,47,medium,minus,dotcolour,beta,,,5,18,V,R,
559,55,13,13,4,36,44,1048,['n'],1,right,['2'],5,226,[-0.06252762],57,44,hard,minus,dotcolour,beta,,,5,18,V,R,
560,56,14,13,4,36,44,998,['n'],1,right,['3'],4,930,[-0.34221784],100,44,hard,minus,dotcolour,beta,,,5,18,V,R,
561,57,15,13,4,44,36,1799,['n'],0,left,['3'],4,231,[-0.02390723],23,44,hard,minus,dotcolour,beta,,,5,18,V,R,
562,58,16,13,4,47,33,698,['n'],0,left,['3'],4,171,[-0.11746267],94,47,medium,minus,dotcolour,beta,,,5,18,V,R,
563,59,17,13,4,53,27,1114,['c'],1,left,['2'],5,417,[0.09632777],76,53,easy,minus,dotcolour,beta,,,5,18,V,R,
564,60,18,13,4,27,53,999,['n'],1,right,['2'],5,307,[-0.11064018],86,53,easy,minus,dotcolour,beta,,,5,18,V,R,
565,61,19,13,4,44,36,731,['n'],0,left,['3'],4,434,[0.00774346],15,44,hard,minus,dotcolour,beta,,,5,18,V,R,
566,62,20,13,4,36,44,847,['n'],1,right,['2'],5,529,[-0.084805],67,44,hard,minus,dotcolour,beta,,,5,18,V,R,
567,63,21,13,4,44,36,1016,['n'],0,left,['3'],4,244,[-0.01922054],21,44,hard,minus,dotcolour,beta,,,5,18,V,R,
568,64,22,13,4,27,53,898,['n'],1,right,['3'],4,1072,[-0.21134765],94,53,easy,minus,dotcolour,beta,,,5,18,V,R,
569,65,23,13,4,47,33,1149,['c'],1,left,['2'],5,184,[0.05863652],53,47,medium,minus,dotcolour,beta,,,5,18,V,R,
570,66,24,13,4,36,44,915,['n'],1,right,['2'],5,406,[-0.08255624],68,44,hard,minus,dotcolour,beta,,,5,18,V,R,
571,67,25,13,4,33,47,499,['n'],1,right,['2'],5,98,[-0.0331281],22,47,medium,minus,dotcolour,beta,,,5,18,V,R,
572,68,26,13,4,33,47,632,['n'],1,right,['2'],5,142,[-0.09029451],84,47,medium,minus,dotcolour,beta,,,5,18,V,R,
573,69,27,13,4,53,27,900,['c'],1,left,['1'],6,438,[0.12305445],86,53,easy,minus,dotcolour,beta,,,5,18,V,R,
574,70,28,13,4,36,44,916,['c'],0,right,['2'],5,202,[0.06872969],63,44,hard,minus,dotcolour,beta,,,5,18,V,R,
575,71,29,13,4,36,44,1082,['c'],0,right,['2'],5,136,[0.03654936],28,44,hard,minus,dotcolour,beta,,,5,18,V,R,
576,72,30,13,4,53,27,981,['c'],1,left,['2'],5,637,[0.10278546],74,53,easy,minus,dotcolour,beta,,,5,18,V,R,
577,73,31,13,4,27,53,780,['n'],1,right,['2'],5,174,[-0.06500541],60,53,easy,minus,dotcolour,beta,,,5,18,V,R,
578,74,32,13,4,27,53,450,['n'],1,right,['2'],5,159,[-0.07593019],71,53,easy,minus,dotcolour,beta,,,5,18,V,R,
579,75,33,13,4,44,36,597,['n'],0,left,['2'],5,138,[-0.09965064],89,44,hard,minus,dotcolour,beta,,,5,18,V,R,
580,76,34,13,4,53,27,1231,['c'],1,left,['2'],5,157,[0.15908994],99,53,easy,minus,dotcolour,beta,,,5,18,V,R,
581,77,35,13,4,47,33,1531,['c'],1,left,['3'],4,418,[0.10288162],79,47,medium,minus,dotcolour,beta,,,5,18,V,R,
582,78,36,13,4,53,27,898,['c'],1,left,['2'],5,287,[0.06867053],61,53,easy,minus,dotcolour,beta,,,5,18,V,R,
583,79,37,13,4,33,47,998,['n'],1,right,['1'],6,494,[-0.16801551],95,47,medium,minus,dotcolour,beta,,,5,18,V,R,
584,80,38,13,4,44,36,1316,['c'],1,left,['3'],4,583,[0.09123241],70,44,hard,minus,dotcolour,beta,,,5,18,V,R,
585,81,39,13,4,47,33,1148,['c'],1,left,['3'],4,226,[0.06306598],57,47,medium,minus,dotcolour,beta,,,5,18,V,R,
586,82,40,13,4,27,53,998,['c'],0,right,['3'],4,219,[0.03839315],34,53,easy,minus,dotcolour,beta,,,5,18,V,R,
587,83,41,13,4,33,47,1031,['n'],1,right,['3'],4,283,[-0.12220461],91,47,medium,minus,dotcolour,beta,,,5,18,V,R,
588,84,0,14,4,33,47,1883,['n'],1,right,['2'],5,182,[-0.09225221],82,47,medium,minus,dotcolour,beta,,,5,18,V,R,
589,85,1,14,4,27,53,448,['n'],1,right,['2'],5,102,[-0.08095387],81,53,easy,minus,dotcolour,beta,,,5,18,V,R,
590,86,2,14,4,47,33,932,['c'],1,left,['2'],5,222,[0.10487017],87,47,medium,minus,dotcolour,beta,,,5,18,V,R,
591,87,3,14,4,44,36,1367,['c'],1,left,['3'],4,224,[0.03584393],32,44,hard,minus,dotcolour,beta,,,5,18,V,R,
592,88,4,14,4,36,44,783,['n'],1,right,['2'],5,169,[-0.10557376],90,44,hard,minus,dotcolour,beta,,,5,18,V,R,
593,89,5,14,4,33,47,532,['n'],1,right,['2'],5,118,[-0.06994131],68,47,medium,minus,dotcolour,beta,,,5,18,V,R,
594,90,6,14,4,44,36,1199,['c'],1,left,['2'],5,202,[0.05584004],50,44,hard,minus,dotcolour,beta,,,5,18,V,R,
595,91,7,14,4,27,53,748,['n'],1,right,['2'],5,158,[-0.07159825],67,53,easy,minus,dotcolour,beta,,,5,18,V,R,
596,92,8,14,4,44,36,732,['n'],0,left,['3'],4,1219,[0.13813817],4,44,hard,minus,dotcolour,beta,,,5,18,V,R,
597,93,9,14,4,36,44,1265,['n'],1,right,['2'],5,425,[-0.09322268],74,44,hard,minus,dotcolour,beta,,,5,18,V,R,
598,94,10,14,4,33,47,447,['n'],1,right,['2'],5,199,[-0.08572095],77,47,medium,minus,dotcolour,beta,,,5,18,V,R,
599,95,11,14,4,36,44,683,['n'],1,right,['2'],5,158,[-0.05110329],45,44,hard,minus,dotcolour,beta,,,5,18,V,R,
600,96,12,14,4,36,44,450,['n'],1,right,['2'],5,167,[-0.0358826],30,44,hard,minus,dotcolour,beta,,,5,18,V,R,
601,97,13,14,4,53,27,1047,['c'],1,left,['2'],5,184,[0.06365026],58,53,easy,minus,dotcolour,beta,,,5,18,V,R,
602,98,14,14,4,53,27,782,['c'],1,left,['2'],5,155,[0.04820119],42,53,easy,minus,dotcolour,beta,,,5,18,V,R,
603,99,15,14,4,27,53,915,['n'],1,right,['2'],5,233,[-0.05300551],48,53,easy,minus,dotcolour,beta,,,5,18,V,R,
604,100,16,14,4,53,27,866,['c'],1,left,['2'],5,167,[0.13225025],97,53,easy,minus,dotcolour,beta,,,5,18,V,R,
605,101,17,14,4,36,44,1215,['c'],0,right,['3'],4,201,[0.09753003],84,44,hard,minus,dotcolour,beta,,,5,18,V,R,
606,102,18,14,4,53,27,449,['c'],1,left,['2'],5,1049,[0.19306592],92,53,easy,minus,dotcolour,beta,,,5,18,V,R,
607,103,19,14,4,44,36,1566,['c'],1,left,['2'],5,130,[0.09551555],88,44,hard,minus,dotcolour,beta,,,5,18,V,R,
608,104,20,14,4,33,47,832,['n'],1,right,['2'],5,173,[-0.12814257],96,47,medium,minus,dotcolour,beta,,,5,18,V,R,
609,105,21,14,4,44,36,1449,['n'],0,left,['2'],5,158,[-0.0120256],12,44,hard,minus,dotcolour,beta,,,5,18,V,R,
610,106,22,14,4,47,33,865,['c'],1,left,['2'],5,174,[0.01014526],12,47,medium,minus,dotcolour,beta,,,5,18,V,R,
611,107,23,14,4,44,36,1632,['n'],0,left,['2'],5,191,[-0.10754301],89,44,hard,minus,dotcolour,beta,,,5,18,V,R,
612,108,24,14,4,47,33,1116,['c'],1,left,['1'],6,317,[0.08914842],75,47,medium,minus,dotcolour,beta,,,5,18,V,R,
613,109,25,14,4,44,36,966,['n'],0,left,['2'],5,307,[-0.09750852],80,44,hard,minus,dotcolour,beta,,,5,18,V,R,
614,110,26,14,4,53,27,1047,['c'],1,left,['2'],5,214,[0.09354894],81,53,easy,minus,dotcolour,beta,,,5,18,V,R,
615,111,27,14,4,47,33,881,['c'],1,left,['2'],5,187,[0.08941642],80,47,medium,minus,dotcolour,beta,,,5,18,V,R,
616,112,28,14,4,27,53,931,['n'],1,right,['2'],5,192,[-0.08346413],76,53,easy,minus,dotcolour,beta,,,5,18,V,R,
617,113,29,14,4,27,53,665,['n'],1,right,['2'],5,327,[-0.07203439],63,53,easy,minus,dotcolour,beta,,,5,18,V,R,
618,114,30,14,4,53,27,832,['c'],1,left,['2'],5,202,[0.04648102],41,53,easy,minus,dotcolour,beta,,,5,18,V,R,
619,115,31,14,4,27,53,765,['n'],1,right,['2'],5,181,[-0.08739814],79,53,easy,minus,dotcolour,beta,,,5,18,V,R,
620,116,32,14,4,53,27,449,['n'],0,left,['2'],5,149,[-0.03683634],29,53,easy,minus,dotcolour,beta,,,5,18,V,R,
621,117,33,14,4,36,44,399,['n'],1,right,['2'],5,145,[-0.02979268],23,44,hard,minus,dotcolour,beta,,,5,18,V,R,
622,118,34,14,4,33,47,849,['n'],1,right,['2'],5,514,[-0.14645694],91,47,medium,minus,dotcolour,beta,,,5,18,V,R,
623,119,35,14,4,33,47,799,['n'],1,right,['2'],5,279,[-0.15493876],97,47,medium,minus,dotcolour,beta,,,5,18,V,R,
624,120,36,14,4,27,53,500,['n'],1,right,['2'],5,130,[-0.07696163],74,53,easy,minus,dotcolour,beta,,,5,18,V,R,
625,121,37,14,4,33,47,500,['n'],1,right,['2'],5,162,[-0.06052695],56,47,medium,minus,dotcolour,beta,,,5,18,V,R,
626,122,38,14,4,47,33,549,['n'],0,left,['2'],5,135,[-0.08029784],77,47,medium,minus,dotcolour,beta,,,5,18,V,R,
627,123,39,14,4,47,33,899,['c'],1,left,['2'],5,135,[0.10088955],90,47,medium,minus,dotcolour,beta,,,5,18,V,R,
628,124,40,14,4,47,33,1299,['c'],1,left,['3'],4,167,[0.12225708],95,47,medium,minus,dotcolour,beta,,,5,18,V,R,
629,125,41,14,4,36,44,764,['c'],0,right,['3'],4,139,[0.07293489],70,44,hard,minus,dotcolour,beta,,,5,18,V,R,
630,0,0,15,5,47,33,1033,['c'],1,left,['2'],5,321,[0.1017894],99,47,medium,plus,dotcolour,beta,,,5,18,V,R,
631,1,1,15,5,47,33,949,['c'],1,left,['2'],5,152,[0.11224901],100,47,medium,plus,dotcolour,beta,,,5,18,V,R,
632,2,2,15,5,27,53,1315,['n'],1,right,['2'],5,287,[-0.08008532],99,53,easy,plus,dotcolour,beta,,,5,18,V,R,
633,3,3,15,5,33,47,613,['n'],1,right,['2'],5,148,[-0.06799713],100,47,medium,plus,dotcolour,beta,,,5,18,V,R,
634,4,4,15,5,53,27,1099,['c'],1,left,['2'],5,147,[0.07747103],100,53,easy,plus,dotcolour,beta,,,5,18,V,R,
635,5,5,15,5,27,53,950,['n'],1,right,['2'],5,401,[-0.2017818],100,53,easy,plus,dotcolour,beta,,,5,18,V,R,
636,6,6,15,5,44,36,666,['n'],0,left,['2'],5,167,[-0.04441931],99,44,hard,plus,dotcolour,beta,,,5,18,V,R,
637,7,7,15,5,53,27,598,['n'],0,left,['9'],2,3243,[0.17237593],24,53,easy,plus,dotcolour,beta,,,5,18,V,R,
638,8,8,15,5,47,33,1782,['c'],1,left,['3'],4,442,[0.11550965],99,47,medium,plus,dotcolour,beta,,,5,18,V,R,
639,9,9,15,5,47,33,1016,['c'],1,left,['3'],4,185,[0.08614658],100,47,medium,plus,dotcolour,beta,,,5,18,V,R,
640,10,10,15,5,44,36,1215,['n'],0,left,['2'],5,186,[-0.12041484],100,44,hard,plus,dotcolour,beta,,,5,18,V,R,
641,11,11,15,5,44,36,646,['n'],0,left,['2'],5,146,[-0.07990431],100,44,hard,plus,dotcolour,beta,,,5,18,V,R,
642,12,12,15,5,36,44,515,['n'],1,right,['2'],5,249,[-0.14533855],100,44,hard,plus,dotcolour,beta,,,5,18,V,R,
643,13,13,15,5,44,36,516,['n'],0,left,['2'],5,108,[-0.06434045],100,44,hard,plus,dotcolour,beta,,,5,18,V,R,
644,14,14,15,5,44,36,482,['n'],0,left,['2'],5,125,[-0.01282139],97,44,hard,plus,dotcolour,beta,,,5,18,V,R,
645,15,15,15,5,27,53,447,['n'],1,right,['2'],5,168,[-0.03831132],98,53,easy,plus,dotcolour,beta,,,5,18,V,R,
646,16,16,15,5,33,47,1199,['n'],1,right,['1'],6,299,[-0.05826587],98,47,medium,plus,dotcolour,beta,,,5,18,V,R,
647,17,17,15,5,44,36,2017,['c'],1,left,['1'],6,328,[0.04456659],96,44,hard,plus,dotcolour,beta,,,5,18,V,R,
648,18,18,15,5,36,44,1032,['n'],1,right,['2'],5,179,[-0.03086448],98,44,hard,plus,dotcolour,beta,,,5,18,V,R,
649,19,19,15,5,33,47,566,['n'],1,right,['2'],5,103,[-0.03907891],100,47,medium,plus,dotcolour,beta,,,5,18,V,R,
650,20,20,15,5,47,33,965,['c'],1,left,['2'],5,206,[0.13730632],100,47,medium,plus,dotcolour,beta,,,5,18,V,R,
651,21,21,15,5,33,47,815,['n'],1,right,['2'],5,182,[-0.12309042],100,47,medium,plus,dotcolour,beta,,,5,18,V,R,
652,22,22,15,5,36,44,548,['n'],1,right,['2'],5,114,[-0.04890893],100,44,hard,plus,dotcolour,beta,,,5,18,V,R,
653,23,23,15,5,33,47,464,['n'],1,right,['2'],5,141,[-0.05997886],100,47,medium,plus,dotcolour,beta,,,5,18,V,R,
654,24,24,15,5,53,27,932,['c'],1,left,['2'],5,139,[0.11337811],100,53,easy,plus,dotcolour,beta,,,5,18,V,R,
655,25,25,15,5,27,53,749,['n'],1,right,['2'],5,153,[-0.03311732],98,53,easy,plus,dotcolour,beta,,,5,18,V,R,
656,26,26,15,5,27,53,449,['n'],1,right,['2'],5,147,[-0.04338639],99,53,easy,plus,dotcolour,beta,,,5,18,V,R,
657,27,27,15,5,36,44,516,['n'],1,right,['2'],5,146,[-0.04396391],99,44,hard,plus,dotcolour,beta,,,5,18,V,R,
658,28,28,15,5,44,36,849,['c'],1,left,['2'],5,92,[0.03151462],99,44,hard,plus,dotcolour,beta,,,5,18,V,R,
659,29,29,15,5,36,44,849,['n'],1,right,['2'],5,151,[-0.13430563],100,44,hard,plus,dotcolour,beta,,,5,18,V,R,
660,30,30,15,5,53,27,1765,['c'],1,left,['2'],5,140,[0.09194326],100,53,easy,plus,dotcolour,beta,,,5,18,V,R,
661,31,31,15,5,53,27,1582,['c'],1,left,['2'],5,145,[0.13089934],100,53,easy,plus,dotcolour,beta,,,5,18,V,R,
662,32,32,15,5,53,27,883,['n'],0,left,['2'],5,137,[-0.02064511],98,53,easy,plus,dotcolour,beta,,,5,18,V,R,
663,33,33,15,5,33,47,633,['n'],1,right,['2'],5,220,[-0.08869651],100,47,medium,plus,dotcolour,beta,,,5,18,V,R,
664,34,34,15,5,36,44,565,['n'],1,right,['2'],5,150,[-0.04070765],99,44,hard,plus,dotcolour,beta,,,5,18,V,R,
665,35,35,15,5,47,33,949,['c'],1,left,['2'],5,108,[0.08804851],100,47,medium,plus,dotcolour,beta,,,5,18,V,R,
666,36,36,15,5,27,53,832,['n'],1,right,['2'],5,96,[-0.11013248],100,53,easy,plus,dotcolour,beta,,,5,18,V,R,
667,37,37,15,5,47,33,1065,['c'],1,left,['2'],5,219,[0.10642079],100,47,medium,plus,dotcolour,beta,,,5,18,V,R,
668,38,38,15,5,33,47,814,['n'],1,right,['2'],5,147,[-0.09153247],100,47,medium,plus,dotcolour,beta,,,5,18,V,R,
669,39,39,15,5,27,53,1048,['n'],1,right,['2'],5,182,[-0.03034543],97,53,easy,plus,dotcolour,beta,,,5,18,V,R,
670,40,40,15,5,36,44,616,['n'],1,right,['1'],6,479,[-0.17022554],100,44,hard,plus,dotcolour,beta,,,5,18,V,R,
671,41,41,15,5,53,27,848,['c'],1,left,['2'],5,196,[0.08629519],100,53,easy,plus,dotcolour,beta,,,5,18,V,R,
672,42,0,16,5,44,36,1434,['c'],1,left,['2'],5,330,[0.14593423],100,44,hard,plus,dotcolour,beta,,,5,18,V,R,
673,43,1,16,5,27,53,783,['n'],1,right,['2'],5,151,[-0.075869],100,53,easy,plus,dotcolour,beta,,,5,18,V,R,
674,44,2,16,5,36,44,532,['n'],1,right,['2'],5,157,[-0.1046189],100,44,hard,plus,dotcolour,beta,,,5,18,V,R,
675,45,3,16,5,53,27,899,['c'],1,left,['2'],5,141,[0.02471146],98,53,easy,plus,dotcolour,beta,,,5,18,V,R,
676,46,4,16,5,36,44,1014,['n'],1,right,['2'],5,280,[-0.07746128],99,44,hard,plus,dotcolour,beta,,,5,18,V,R,
677,47,5,16,5,36,44,484,['n'],1,right,['2'],5,267,[-0.10273836],100,44,hard,plus,dotcolour,beta,,,5,18,V,R,
678,48,6,16,5,47,33,484,['n'],0,left,['2'],5,151,[-0.01975946],97,47,medium,plus,dotcolour,beta,,,5,18,V,R,
679,49,7,16,5,44,36,417,['n'],0,left,['2'],5,458,[0.09434159],26,44,hard,plus,dotcolour,beta,,,5,18,V,R,
680,50,8,16,5,36,44,516,['n'],1,right,['2'],5,132,[-0.08482438],100,44,hard,plus,dotcolour,beta,,,5,18,V,R,
681,51,9,16,5,44,36,1085,['n'],0,left,['2'],5,133,[-0.00515293],95,44,hard,plus,dotcolour,beta,,,5,18,V,R,
682,52,10,16,5,47,33,1184,['c'],1,left,['1'],6,2323,[0.3087639],99,47,medium,plus,dotcolour,beta,,,5,18,V,R,
683,53,11,16,5,44,36,866,['n'],0,left,['2'],5,148,[-0.05166008],99,44,hard,plus,dotcolour,beta,,,5,18,V,R,
684,54,12,16,5,53,27,934,['c'],1,left,['2'],5,154,[0.13256211],100,53,easy,plus,dotcolour,beta,,,5,18,V,R,
685,55,13,16,5,33,47,650,['n'],1,right,['2'],5,108,[-0.09522294],100,47,medium,plus,dotcolour,beta,,,5,18,V,R,
686,56,14,16,5,47,33,849,['c'],1,left,['2'],5,104,[0.08736594],100,47,medium,plus,dotcolour,beta,,,5,18,V,R,
687,57,15,16,5,33,47,749,['n'],1,right,['1'],6,214,[-0.02162913],95,47,medium,plus,dotcolour,beta,,,5,18,V,R,
688,58,16,16,5,27,53,600,['n'],1,right,['1'],6,279,[-0.13301573],100,53,easy,plus,dotcolour,beta,,,5,18,V,R,
689,59,17,16,5,27,53,417,['n'],1,right,['1'],6,141,[-0.05692805],100,53,easy,plus,dotcolour,beta,,,5,18,V,R,
690,60,18,16,5,33,47,266,['n'],1,right,['8'],3,2319,[-0.25046838],97,47,medium,plus,dotcolour,beta,,,5,18,V,R,
691,61,19,16,5,36,44,949,['n'],1,right,['2'],5,277,[-0.14201106],100,44,hard,plus,dotcolour,beta,,,5,18,V,R,
692,62,20,16,5,47,33,1001,['c'],1,left,['1'],6,355,[0.09329298],99,47,medium,plus,dotcolour,beta,,,5,18,V,R,
693,63,21,16,5,27,53,817,['n'],1,right,['2'],5,142,[-0.08680971],100,53,easy,plus,dotcolour,beta,,,5,18,V,R,
694,64,22,16,5,44,36,1216,['c'],1,left,['1'],6,161,[0.09523771],100,44,hard,plus,dotcolour,beta,,,5,18,V,R,
695,65,23,16,5,44,36,1533,['c'],1,left,['2'],5,150,[0.05348827],99,44,hard,plus,dotcolour,beta,,,5,18,V,R,
696,66,24,16,5,53,27,916,['c'],1,left,['2'],5,133,[0.06926353],100,53,easy,plus,dotcolour,beta,,,5,18,V,R,
697,67,25,16,5,33,47,984,['n'],1,right,['2'],5,154,[-0.07544158],100,47,medium,plus,dotcolour,beta,,,5,18,V,R,
698,68,26,16,5,36,44,849,['n'],1,right,['2'],5,164,[-0.10447576],100,44,hard,plus,dotcolour,beta,,,5,18,V,R,
699,69,27,16,5,53,27,1033,['c'],1,left,['2'],5,110,[0.07044617],100,53,easy,plus,dotcolour,beta,,,5,18,V,R,
700,70,28,16,5,53,27,749,['c'],1,left,['2'],5,157,[0.17009241],100,53,easy,plus,dotcolour,beta,,,5,18,V,R,
701,71,29,16,5,33,47,765,['n'],1,right,['2'],5,129,[-0.0738342],100,47,medium,plus,dotcolour,beta,,,5,18,V,R,
702,72,30,16,5,36,44,748,['n'],1,right,['2'],5,160,[-0.05015322],99,44,hard,plus,dotcolour,beta,,,5,18,V,R,
703,73,31,16,5,47,33,1099,['c'],1,left,['2'],5,95,[0.05664632],100,47,medium,plus,dotcolour,beta,,,5,18,V,R,
704,74,32,16,5,47,33,749,['c'],1,left,['2'],5,159,[0.10818271],100,47,medium,plus,dotcolour,beta,,,5,18,V,R,
705,75,33,16,5,27,53,782,['n'],1,right,['2'],5,170,[-0.01772796],96,53,easy,plus,dotcolour,beta,,,5,18,V,R,
706,76,34,16,5,44,36,412,['c'],1,left,['2'],5,324,[-0.0484178],56,44,hard,plus,dotcolour,beta,,,5,18,V,R,
707,77,35,16,5,27,53,380,['n'],1,right,['2'],5,97,[-0.07511663],100,53,easy,plus,dotcolour,beta,,,5,18,V,R,
708,78,36,16,5,53,27,1032,['c'],1,left,['2'],5,133,[0.12239093],100,53,easy,plus,dotcolour,beta,,,5,18,V,R,
709,79,37,16,5,53,27,748,['c'],1,left,['2'],5,140,[0.04991214],99,53,easy,plus,dotcolour,beta,,,5,18,V,R,
710,80,38,16,5,47,33,766,['c'],1,left,['2'],5,136,[0.11515465],100,47,medium,plus,dotcolour,beta,,,5,18,V,R,
711,81,39,16,5,33,47,1265,['n'],1,right,['2'],5,146,[-0.11759226],100,47,medium,plus,dotcolour,beta,,,5,18,V,R,
712,82,40,16,5,33,47,1097,['n'],1,right,['2'],5,121,[-0.11140629],100,47,medium,plus,dotcolour,beta,,,5,18,V,R,
713,83,41,16,5,27,53,498,['n'],1,right,['2'],5,113,[-0.15564588],100,53,easy,plus,dotcolour,beta,,,5,18,V,R,
714,84,0,17,5,53,27,933,['c'],1,left,['2'],5,119,[0.05015011],100,53,easy,plus,dotcolour,beta,,,5,18,V,R,
715,85,1,17,5,44,36,865,['c'],1,left,['2'],5,186,[0.1091651],100,44,hard,plus,dotcolour,beta,,,5,18,V,R,
716,86,2,17,5,47,33,514,['c'],1,left,['2'],5,110,[0.06889753],100,47,medium,plus,dotcolour,beta,,,5,18,V,R,
717,87,3,17,5,44,36,1281,['c'],1,left,['3'],4,945,[0.02995466],83,44,hard,plus,dotcolour,beta,,,5,18,V,R,
718,88,4,17,5,27,53,915,['n'],1,right,['2'],5,223,[-0.14388401],100,53,easy,plus,dotcolour,beta,,,5,18,V,R,
719,89,5,17,5,44,36,914,['c'],1,left,['1'],6,131,[0.07924976],100,44,hard,plus,dotcolour,beta,,,5,18,V,R,
720,90,6,17,5,44,36,1083,['n'],0,left,['1'],6,124,[-0.09513634],100,44,hard,plus,dotcolour,beta,,,5,18,V,R,
721,91,7,17,5,53,27,600,['n'],0,left,['1'],6,280,[-0.08217265],99,53,easy,plus,dotcolour,beta,,,5,18,V,R,
722,92,8,17,5,33,47,550,['n'],1,right,['1'],6,185,[-0.15373417],100,47,medium,plus,dotcolour,beta,,,5,18,V,R,
723,93,9,17,5,36,44,1283,['n'],1,right,['2'],5,184,[-0.15939093],100,44,hard,plus,dotcolour,beta,,,5,18,V,R,
724,94,10,17,5,36,44,516,['n'],1,right,['2'],5,197,[-0.11820478],100,44,hard,plus,dotcolour,beta,,,5,18,V,R,
725,95,11,17,5,47,33,1163,['c'],1,left,['2'],5,176,[0.13734948],100,47,medium,plus,dotcolour,beta,,,5,18,V,R,
726,96,12,17,5,27,53,696,['n'],1,right,['2'],5,110,[-0.12887313],100,53,easy,plus,dotcolour,beta,,,5,18,V,R,
727,97,13,17,5,36,44,732,['n'],1,right,['2'],5,118,[-0.07394534],100,44,hard,plus,dotcolour,beta,,,5,18,V,R,
728,98,14,17,5,27,53,483,['n'],1,right,['2'],5,104,[-0.04796199],100,53,easy,plus,dotcolour,beta,,,5,18,V,R,
729,99,15,17,5,47,33,798,['c'],1,left,['2'],5,133,[0.07372559],100,47,medium,plus,dotcolour,beta,,,5,18,V,R,
730,100,16,17,5,44,36,866,['c'],1,left,['2'],5,150,[0.15042128],100,44,hard,plus,dotcolour,beta,,,5,18,V,R,
731,101,17,17,5,33,47,1632,['n'],1,right,['2'],5,169,[-0.06672054],100,47,medium,plus,dotcolour,beta,,,5,18,V,R,
732,102,18,17,5,36,44,598,['n'],1,right,['2'],5,139,[-0.10697368],100,44,hard,plus,dotcolour,beta,,,5,18,V,R,
733,103,19,17,5,47,33,832,['c'],1,left,['2'],5,141,[0.11048634],100,47,medium,plus,dotcolour,beta,,,5,18,V,R,
734,104,20,17,5,27,53,733,['n'],1,right,['2'],5,148,[-0.10040189],100,53,easy,plus,dotcolour,beta,,,5,18,V,R,
735,105,21,17,5,47,33,965,['c'],1,left,['2'],5,106,[0.07874572],100,47,medium,plus,dotcolour,beta,,,5,18,V,R,
736,106,22,17,5,53,27,1116,['c'],1,left,['2'],5,153,[0.12573937],100,53,easy,plus,dotcolour,beta,,,5,18,V,R,
737,107,23,17,5,33,47,798,['n'],1,right,['2'],5,108,[-0.0447336],100,47,medium,plus,dotcolour,beta,,,5,18,V,R,
738,108,24,17,5,27,53,649,['n'],1,right,['2'],5,175,[-0.10475298],100,53,easy,plus,dotcolour,beta,,,5,18,V,R,
739,109,25,17,5,27,53,531,['n'],1,right,['2'],5,228,[-0.14441583],100,53,easy,plus,dotcolour,beta,,,5,18,V,R,
740,110,26,17,5,36,44,534,['n'],1,right,['1'],6,287,[-0.04622411],97,44,hard,plus,dotcolour,beta,,,5,18,V,R,
741,111,27,17,5,33,47,499,['n'],1,right,['1'],6,128,[-0.06782638],100,47,medium,plus,dotcolour,beta,,,5,18,V,R,
742,112,28,17,5,33,47,300,['n'],1,right,['1'],6,161,[-0.13169651],100,47,medium,plus,dotcolour,beta,,,5,18,V,R,
743,113,29,17,5,27,53,417,['n'],1,right,['1'],6,283,[-0.18857599],100,53,easy,plus,dotcolour,beta,,,5,18,V,R,
744,114,30,17,5,53,27,1033,['c'],1,left,['2'],5,128,[0.08548509],100,53,easy,plus,dotcolour,beta,,,5,18,V,R,
745,115,31,17,5,47,33,1100,['c'],1,left,['2'],5,145,[0.16049976],100,47,medium,plus,dotcolour,beta,,,5,18,V,R,
746,116,32,17,5,44,36,916,['c'],1,left,['2'],5,112,[0.10160268],100,44,hard,plus,dotcolour,beta,,,5,18,V,R,
747,117,33,17,5,47,33,899,['c'],1,left,['2'],5,104,[0.07541616],100,47,medium,plus,dotcolour,beta,,,5,18,V,R,
748,118,34,17,5,53,27,750,['c'],1,left,['2'],5,136,[0.05826876],100,53,easy,plus,dotcolour,beta,,,5,18,V,R,
749,119,35,17,5,36,44,1033,['n'],1,right,['2'],5,179,[-0.11931581],100,44,hard,plus,dotcolour,beta,,,5,18,V,R,
750,120,36,17,5,53,27,1149,['c'],1,left,['1'],6,128,[0.11470865],100,53,easy,plus,dotcolour,beta,,,5,18,V,R,
751,121,37,17,5,33,47,749,['n'],1,right,['2'],5,110,[-0.12222952],100,47,medium,plus,dotcolour,beta,,,5,18,V,R,
752,122,38,17,5,44,36,1965,['c'],1,left,['1'],6,876,[0.24956549],100,44,hard,plus,dotcolour,beta,,,5,18,V,R,
753,123,39,17,5,53,27,1149,['c'],1,left,['1'],6,269,[0.11170215],100,53,easy,plus,dotcolour,beta,,,5,18,V,R,
754,124,40,17,5,36,44,882,['n'],1,right,['2'],5,128,[-0.05840892],100,44,hard,plus,dotcolour,beta,,,5,18,V,R,
755,125,41,17,5,33,47,648,['n'],1,right,['2'],5,130,[-0.07024768],100,47,medium,plus,dotcolour,beta,,,5,18,V,R,
,,,,,,,,,,,,,,,,,,,,,1,de rocenten klopte niet altijd,5,18,V,R,
,,,,,,,,,,,,,,,,,,,,,2,['g'],5,18,V,R,
,,,,,,,,,,,,,,,,,,,,,3,['g'],5,18,V,R,
,,,,,,,,,,,,,,,,,,,,,5,['3'],5,18,V,R,
