trial,withinphasetrial,withinblocktrial,block,phase,dotsLeft,dotsRight,rt,resp,cor,cresp,conf_press,cj,RTconf,ev,fb,diff,difflevel,condition,task,manip,questionID,questionResp,sub,age,gender,handedness,
0,0,0,0,0,27,53,4383,['n'],1,right,['2'],5,3966,[-0.94211511],100,53,easy,plus,dotcolour,alfa,,,132,34,M,R,
1,1,1,0,0,33,47,1833,['n'],1,right,['2'],5,2141,[-0.4383865],100,47,medium,plus,dotcolour,alfa,,,132,34,M,R,
2,2,2,0,0,47,33,2817,['c'],1,left,['3'],4,3368,[0.42379429],100,47,medium,plus,dotcolour,alfa,,,132,34,M,R,
3,3,3,0,0,36,44,3218,['n'],1,right,['3'],4,1288,[-0.32603408],100,44,hard,plus,dotcolour,alfa,,,132,34,M,R,
4,4,4,0,0,27,53,2184,['n'],1,right,['1'],6,1055,[-0.19089094],100,53,easy,plus,dotcolour,alfa,,,132,34,M,R,
5,5,5,0,0,47,33,2934,['n'],0,left,['8'],3,1800,[0.24976481],0,47,medium,plus,dotcolour,alfa,,,132,34,M,R,
6,6,6,0,0,27,53,2050,['c'],0,right,['2'],5,1750,[-0.29746132],0,53,easy,plus,dotcolour,alfa,,,132,34,M,R,
7,7,7,0,0,53,27,2367,['c'],1,left,['2'],5,771,[0.24383916],100,53,easy,plus,dotcolour,alfa,,,132,34,M,R,
8,8,8,0,0,47,33,1350,['n'],0,left,['2'],5,887,[-0.02421438],72,47,medium,plus,dotcolour,alfa,,,132,34,M,R,
9,9,9,0,0,33,47,1733,['n'],1,right,['2'],5,518,[-0.18035866],100,47,medium,plus,dotcolour,alfa,,,132,34,M,R,
10,10,10,0,0,36,44,1718,['n'],1,right,['2'],5,518,[-0.26461799],100,44,hard,plus,dotcolour,alfa,,,132,34,M,R,
11,11,11,0,0,33,47,1416,['n'],1,right,['2'],5,747,[-0.08560556],97,47,medium,plus,dotcolour,alfa,,,132,34,M,R,
12,12,12,0,0,44,36,1784,['c'],1,left,['2'],5,415,[0.13920114],100,44,hard,plus,dotcolour,alfa,,,132,34,M,R,
13,13,13,0,0,44,36,1867,['n'],0,left,['2'],5,605,[0.09848771],1,44,hard,plus,dotcolour,alfa,,,132,34,M,R,
14,14,14,0,0,36,44,3583,['n'],1,right,['2'],5,439,[-0.09895136],100,44,hard,plus,dotcolour,alfa,,,132,34,M,R,
15,15,15,0,0,53,27,1967,['c'],1,left,['2'],5,856,[0.00767428],57,53,easy,plus,dotcolour,alfa,,,132,34,M,R,
16,16,16,0,0,27,53,1183,['n'],1,right,['2'],5,486,[-0.16209103],100,53,easy,plus,dotcolour,alfa,,,132,34,M,R,
17,17,17,0,0,44,36,1300,['c'],1,left,['2'],5,457,[0.04555683],92,44,hard,plus,dotcolour,alfa,,,132,34,M,R,
18,18,18,0,0,44,36,1684,['c'],1,left,['2'],5,484,[-0.00948233],38,44,hard,plus,dotcolour,alfa,,,132,34,M,R,
19,19,19,0,0,36,44,900,['n'],1,right,['2'],5,398,[-0.15583807],100,44,hard,plus,dotcolour,alfa,,,132,34,M,R,
20,20,20,0,0,27,53,2599,['c'],0,right,['2'],5,479,[0.02238634],76,53,easy,plus,dotcolour,alfa,,,132,34,M,R,
21,21,21,0,0,44,36,1117,['c'],1,left,['2'],5,313,[0.02975392],87,44,hard,plus,dotcolour,alfa,,,132,34,M,R,
22,22,22,0,0,53,27,1016,['c'],1,left,['2'],5,485,[0.16000771],100,53,easy,plus,dotcolour,alfa,,,132,34,M,R,
23,23,23,0,0,53,27,2033,['n'],0,left,['2'],5,425,[-0.08585934],99,53,easy,plus,dotcolour,alfa,,,132,34,M,R,
24,24,24,0,0,53,27,1149,['c'],1,left,['2'],5,371,[0.07541911],99,53,easy,plus,dotcolour,alfa,,,132,34,M,R,
25,25,25,0,0,36,44,1334,['n'],1,right,['2'],5,336,[-0.06723558],98,44,hard,plus,dotcolour,alfa,,,132,34,M,R,
26,26,26,0,0,36,44,950,['n'],1,right,['2'],5,295,[-0.12532405],100,44,hard,plus,dotcolour,alfa,,,132,34,M,R,
27,27,27,0,0,44,36,1233,['c'],1,left,['2'],5,322,[0.14647553],100,44,hard,plus,dotcolour,alfa,,,132,34,M,R,
28,28,28,0,0,47,33,2184,['c'],1,left,['1'],6,279,[0.03154964],90,47,medium,plus,dotcolour,alfa,,,132,34,M,R,
29,29,29,0,0,27,53,1267,['n'],1,right,['1'],6,370,[-0.07609317],99,53,easy,plus,dotcolour,alfa,,,132,34,M,R,
30,30,30,0,0,47,33,1266,['c'],1,left,['1'],6,298,[0.13976558],100,47,medium,plus,dotcolour,alfa,,,132,34,M,R,
31,31,31,0,0,47,33,901,['n'],0,left,['1'],6,260,[-0.15765986],100,47,medium,plus,dotcolour,alfa,,,132,34,M,R,
32,32,32,0,0,27,53,501,['c'],0,right,['0'],1,2391,[-0.34905188],0,53,easy,plus,dotcolour,alfa,,,132,34,M,R,
33,33,33,0,0,33,47,1650,['c'],0,right,['1'],6,517,[-0.00780699],40,47,medium,plus,dotcolour,alfa,,,132,34,M,R,
34,34,34,0,0,53,27,1501,['n'],0,left,['0'],1,622,[-0.06493902],95,53,easy,plus,dotcolour,alfa,,,132,34,M,R,
35,35,35,0,0,44,36,1617,['c'],1,left,['1'],6,701,[0.08852469],98,44,hard,plus,dotcolour,alfa,,,132,34,M,R,
36,36,36,0,0,47,33,1599,['c'],1,left,['1'],6,355,[0.18368243],100,47,medium,plus,dotcolour,alfa,,,132,34,M,R,
37,37,37,0,0,53,27,1250,['c'],1,left,['1'],6,331,[0.286095],100,53,easy,plus,dotcolour,alfa,,,132,34,M,R,
38,38,38,0,0,33,47,934,['n'],1,right,['1'],6,378,[-0.07049834],98,47,medium,plus,dotcolour,alfa,,,132,34,M,R,
39,39,39,0,0,33,47,1067,['c'],0,right,['1'],6,329,[-0.01451003],29,47,medium,plus,dotcolour,alfa,,,132,34,M,R,
40,40,40,0,0,33,47,951,['n'],1,right,['1'],6,287,[-0.09311374],100,47,medium,plus,dotcolour,alfa,,,132,34,M,R,
41,41,41,0,0,36,44,934,['c'],0,right,['1'],6,328,[0.11938558],100,44,hard,plus,dotcolour,alfa,,,132,34,M,R,
42,42,0,1,0,27,53,935,['n'],1,right,['1'],6,300,[-0.14648401],100,53,easy,plus,dotcolour,alfa,,,132,34,M,R,
43,43,1,1,0,47,33,1300,['c'],1,left,['2'],5,869,[0.21425379],100,47,medium,plus,dotcolour,alfa,,,132,34,M,R,
44,44,2,1,0,36,44,1800,['c'],0,right,['1'],6,259,[0.00156191],53,44,hard,plus,dotcolour,alfa,,,132,34,M,R,
45,45,3,1,0,47,33,1700,['n'],0,left,['1'],6,742,[0.09422792],2,47,medium,plus,dotcolour,alfa,,,132,34,M,R,
46,46,4,1,0,53,27,1499,['c'],1,left,['1'],6,421,[0.21413972],100,53,easy,plus,dotcolour,alfa,,,132,34,M,R,
47,47,5,1,0,47,33,1167,['c'],1,left,['1'],6,286,[0.19880214],100,47,medium,plus,dotcolour,alfa,,,132,34,M,R,
48,48,6,1,0,53,27,1084,['c'],1,left,['1'],6,257,[0.00192183],53,53,easy,plus,dotcolour,alfa,,,132,34,M,R,
49,49,7,1,0,36,44,1116,['n'],1,right,['1'],6,452,[0.12156544],0,44,hard,plus,dotcolour,alfa,,,132,34,M,R,
50,50,8,1,0,44,36,1100,['c'],1,left,['1'],6,295,[0.16159002],100,44,hard,plus,dotcolour,alfa,,,132,34,M,R,
51,51,9,1,0,47,33,849,['c'],1,left,['1'],6,259,[0.2116561],100,47,medium,plus,dotcolour,alfa,,,132,34,M,R,
52,52,10,1,0,53,27,800,['c'],1,left,['1'],6,273,[0.07970697],100,53,easy,plus,dotcolour,alfa,,,132,34,M,R,
53,53,11,1,0,36,44,2284,['c'],0,right,['1'],6,251,[0.06618405],99,44,hard,plus,dotcolour,alfa,,,132,34,M,R,
54,54,12,1,0,44,36,1550,['c'],1,left,['1'],6,277,[0.10144355],100,44,hard,plus,dotcolour,alfa,,,132,34,M,R,
55,55,13,1,0,47,33,1917,['n'],0,left,['1'],6,254,[-0.00581953],60,47,medium,plus,dotcolour,alfa,,,132,34,M,R,
56,56,14,1,0,53,27,1816,['c'],1,left,['1'],6,253,[0.15300189],100,53,easy,plus,dotcolour,alfa,,,132,34,M,R,
57,57,15,1,0,33,47,867,['n'],1,right,['1'],6,289,[-0.11790797],100,47,medium,plus,dotcolour,alfa,,,132,34,M,R,
58,58,16,1,0,27,53,734,['n'],1,right,['1'],6,194,[-0.14494012],100,53,easy,plus,dotcolour,alfa,,,132,34,M,R,
59,59,17,1,0,36,44,2034,['n'],1,right,['1'],6,202,[-0.00027198],51,44,hard,plus,dotcolour,alfa,,,132,34,M,R,
60,60,18,1,0,27,53,2816,['n'],1,right,['2'],5,283,[-0.1610702],100,53,easy,plus,dotcolour,alfa,,,132,34,M,R,
61,61,19,1,0,27,53,1749,['n'],1,right,['2'],5,275,[-0.12027856],100,53,easy,plus,dotcolour,alfa,,,132,34,M,R,
62,62,20,1,0,33,47,1433,['c'],0,right,['1'],6,247,[0.09361108],100,47,medium,plus,dotcolour,alfa,,,132,34,M,R,
63,63,21,1,0,27,53,867,['n'],1,right,['1'],6,180,[-0.11380784],100,53,easy,plus,dotcolour,alfa,,,132,34,M,R,
64,64,22,1,0,36,44,1351,['n'],1,right,['1'],6,176,[-0.02046493],85,44,hard,plus,dotcolour,alfa,,,132,34,M,R,
65,65,23,1,0,44,36,833,['c'],1,left,['1'],6,241,[0.10080087],100,44,hard,plus,dotcolour,alfa,,,132,34,M,R,
66,66,24,1,0,47,33,1034,['c'],1,left,['1'],6,591,[0.00394635],55,47,medium,plus,dotcolour,alfa,,,132,34,M,R,
67,67,25,1,0,27,53,850,['n'],1,right,['1'],6,135,[-0.06102488],100,53,easy,plus,dotcolour,alfa,,,132,34,M,R,
68,68,26,1,0,33,47,1983,['n'],1,right,['1'],6,227,[-0.14294064],100,47,medium,plus,dotcolour,alfa,,,132,34,M,R,
69,69,27,1,0,53,27,884,['c'],1,left,['1'],6,240,[0.09858822],100,53,easy,plus,dotcolour,alfa,,,132,34,M,R,
70,70,28,1,0,33,47,784,['n'],1,right,['1'],6,232,[-0.02110599],83,47,medium,plus,dotcolour,alfa,,,132,34,M,R,
71,71,29,1,0,33,47,1634,['n'],1,right,['1'],6,303,[-0.04709253],96,47,medium,plus,dotcolour,alfa,,,132,34,M,R,
72,72,30,1,0,33,47,817,['n'],1,right,['1'],6,211,[-0.03143289],92,47,medium,plus,dotcolour,alfa,,,132,34,M,R,
73,73,31,1,0,33,47,1016,['n'],1,right,['1'],6,267,[-0.02200151],82,47,medium,plus,dotcolour,alfa,,,132,34,M,R,
74,74,32,1,0,53,27,934,['c'],1,left,['1'],6,245,[0.09866133],100,53,easy,plus,dotcolour,alfa,,,132,34,M,R,
75,75,33,1,0,47,33,800,['n'],0,left,['1'],6,268,[-0.05733649],98,47,medium,plus,dotcolour,alfa,,,132,34,M,R,
76,76,34,1,0,44,36,984,['n'],0,left,['1'],6,220,[-0.09949739],100,44,hard,plus,dotcolour,alfa,,,132,34,M,R,
77,77,35,1,0,27,53,1350,['c'],0,right,['1'],6,902,[-0.05880087],10,53,easy,plus,dotcolour,alfa,,,132,34,M,R,
78,78,36,1,0,53,27,984,['c'],1,left,['1'],6,236,[0.05942275],99,53,easy,plus,dotcolour,alfa,,,132,34,M,R,
79,79,37,1,0,44,36,1484,['n'],0,left,['1'],6,296,[-0.04655328],96,44,hard,plus,dotcolour,alfa,,,132,34,M,R,
80,80,38,1,0,44,36,1167,['c'],1,left,['1'],6,495,[0.12083147],100,44,hard,plus,dotcolour,alfa,,,132,34,M,R,
81,81,39,1,0,44,36,968,['n'],0,left,['1'],6,246,[-0.02132521],82,44,hard,plus,dotcolour,alfa,,,132,34,M,R,
82,82,40,1,0,36,44,966,['c'],0,right,['1'],6,279,[-0.0081676],36,44,hard,plus,dotcolour,alfa,,,132,34,M,R,
83,83,41,1,0,36,44,784,['n'],1,right,['1'],6,197,[-0.08250923],100,44,hard,plus,dotcolour,alfa,,,132,34,M,R,
84,84,0,2,0,36,44,2583,['n'],1,right,['1'],6,368,[-0.1192271],100,44,hard,plus,dotcolour,alfa,,,132,34,M,R,
85,85,1,2,0,44,36,2566,['n'],0,left,['1'],6,468,[-0.06629657],97,44,hard,plus,dotcolour,alfa,,,132,34,M,R,
86,86,2,2,0,33,47,1316,['n'],1,right,['1'],6,294,[-0.0681269],99,47,medium,plus,dotcolour,alfa,,,132,34,M,R,
87,87,3,2,0,33,47,1934,['n'],1,right,['1'],6,494,[-0.15596415],100,47,medium,plus,dotcolour,alfa,,,132,34,M,R,
88,88,4,2,0,44,36,1182,['c'],1,left,['1'],6,300,[0.09233326],100,44,hard,plus,dotcolour,alfa,,,132,34,M,R,
89,89,5,2,0,33,47,1084,['n'],1,right,['1'],6,222,[-0.05449697],98,47,medium,plus,dotcolour,alfa,,,132,34,M,R,
90,90,6,2,0,44,36,1634,['n'],0,left,['1'],6,301,[-0.06869694],99,44,hard,plus,dotcolour,alfa,,,132,34,M,R,
91,91,7,2,0,53,27,983,['c'],1,left,['1'],6,268,[0.09339393],100,53,easy,plus,dotcolour,alfa,,,132,34,M,R,
92,92,8,2,0,44,36,1633,['c'],1,left,['1'],6,505,[0.00670867],58,44,hard,plus,dotcolour,alfa,,,132,34,M,R,
93,93,9,2,0,47,33,1983,['n'],0,left,['1'],6,295,[-0.00799932],63,47,medium,plus,dotcolour,alfa,,,132,34,M,R,
94,94,10,2,0,44,36,4468,['n'],0,left,['1'],6,305,[0.00663946],39,44,hard,plus,dotcolour,alfa,,,132,34,M,R,
95,95,11,2,0,53,27,817,['c'],1,left,['1'],6,1061,[0.23779812],100,53,easy,plus,dotcolour,alfa,,,132,34,M,R,
96,96,12,2,0,53,27,750,['c'],1,left,['1'],6,326,[0.15398828],100,53,easy,plus,dotcolour,alfa,,,132,34,M,R,
97,97,13,2,0,33,47,784,['n'],1,right,['1'],6,259,[-0.15469328],100,47,medium,plus,dotcolour,alfa,,,132,34,M,R,
98,98,14,2,0,36,44,1500,['n'],1,right,['1'],6,221,[0.00197704],46,44,hard,plus,dotcolour,alfa,,,132,34,M,R,
99,99,15,2,0,33,47,2234,['n'],1,right,['1'],6,221,[-0.12311287],100,47,medium,plus,dotcolour,alfa,,,132,34,M,R,
100,100,16,2,0,47,33,817,['c'],1,left,['1'],6,277,[0.09092691],100,47,medium,plus,dotcolour,alfa,,,132,34,M,R,
101,101,17,2,0,36,44,884,['n'],1,right,['1'],6,231,[0.03958045],5,44,hard,plus,dotcolour,alfa,,,132,34,M,R,
102,102,18,2,0,47,33,833,['c'],1,left,['1'],6,222,[0.14785336],100,47,medium,plus,dotcolour,alfa,,,132,34,M,R,
103,103,19,2,0,53,27,817,['c'],1,left,['1'],6,278,[0.1032614],100,53,easy,plus,dotcolour,alfa,,,132,34,M,R,
104,104,20,2,0,53,27,734,['c'],1,left,['1'],6,279,[0.13340117],100,53,easy,plus,dotcolour,alfa,,,132,34,M,R,
105,105,21,2,0,47,33,483,['c'],1,left,['1'],6,330,[0.08236682],99,47,medium,plus,dotcolour,alfa,,,132,34,M,R,
106,106,22,2,0,53,27,1334,['c'],1,left,['1'],6,312,[0.02377148],82,53,easy,plus,dotcolour,alfa,,,132,34,M,R,
107,107,23,2,0,36,44,3117,['n'],1,right,['1'],6,216,[-0.06486652],99,44,hard,plus,dotcolour,alfa,,,132,34,M,R,
108,108,24,2,0,44,36,1233,['c'],1,left,['1'],6,232,[0.00966274],67,44,hard,plus,dotcolour,alfa,,,132,34,M,R,
109,109,25,2,0,27,53,717,['n'],1,right,['1'],6,219,[-0.11258353],100,53,easy,plus,dotcolour,alfa,,,132,34,M,R,
110,110,26,2,0,33,47,3317,['n'],1,right,['1'],6,319,[-0.03148544],88,47,medium,plus,dotcolour,alfa,,,132,34,M,R,
111,111,27,2,0,47,33,2950,['n'],0,left,['1'],6,278,[-0.14245066],100,47,medium,plus,dotcolour,alfa,,,132,34,M,R,
112,112,28,2,0,27,53,2783,['n'],1,right,['1'],6,597,[-0.08076517],98,53,easy,plus,dotcolour,alfa,,,132,34,M,R,
113,113,29,2,0,27,53,1000,['n'],1,right,['1'],6,310,[-0.21097642],100,53,easy,plus,dotcolour,alfa,,,132,34,M,R,
114,114,30,2,0,47,33,1534,['c'],1,left,['1'],6,157,[0.16217761],100,47,medium,plus,dotcolour,alfa,,,132,34,M,R,
115,115,31,2,0,47,33,949,['c'],1,left,['1'],6,202,[0.09068369],100,47,medium,plus,dotcolour,alfa,,,132,34,M,R,
116,116,32,2,0,53,27,733,['c'],1,left,['1'],6,246,[0.12220348],100,53,easy,plus,dotcolour,alfa,,,132,34,M,R,
117,117,33,2,0,36,44,768,['n'],1,right,['1'],6,287,[-0.04900627],96,44,hard,plus,dotcolour,alfa,,,132,34,M,R,
118,118,34,2,0,44,36,851,['c'],1,left,['1'],6,202,[0.08615175],100,44,hard,plus,dotcolour,alfa,,,132,34,M,R,
119,119,35,2,0,27,53,618,['n'],1,right,['1'],6,163,[-0.00486981],61,53,easy,plus,dotcolour,alfa,,,132,34,M,R,
120,120,36,2,0,33,47,734,['n'],1,right,['1'],6,120,[-0.13034328],100,47,medium,plus,dotcolour,alfa,,,132,34,M,R,
121,121,37,2,0,36,44,1184,['c'],0,right,['1'],6,190,[0.10829532],100,44,hard,plus,dotcolour,alfa,,,132,34,M,R,
122,122,38,2,0,27,53,684,['n'],1,right,['1'],6,124,[-0.08356958],100,53,easy,plus,dotcolour,alfa,,,132,34,M,R,
123,123,39,2,0,27,53,967,['n'],1,right,['1'],6,145,[-0.07243121],100,53,easy,plus,dotcolour,alfa,,,132,34,M,R,
124,124,40,2,0,27,53,2416,['c'],0,right,['1'],6,220,[0.0528847],98,53,easy,plus,dotcolour,alfa,,,132,34,M,R,
125,125,41,2,0,36,44,767,['n'],1,right,['1'],6,134,[-0.10802033],100,44,hard,plus,dotcolour,alfa,,,132,34,M,R,
126,0,0,3,1,36,44,967,['n'],1,right,['1'],6,210,[-0.03483572],66,44,hard,minus,dotcolour,alfa,,,132,34,M,R,
127,1,1,3,1,33,47,833,['n'],1,right,['1'],6,104,[-0.04054979],76,47,medium,minus,dotcolour,alfa,,,132,34,M,R,
128,2,2,3,1,27,53,784,['n'],1,right,['1'],6,231,[-0.17935865],97,53,easy,minus,dotcolour,alfa,,,132,34,M,R,
129,3,3,3,1,44,36,1367,['c'],1,left,['1'],6,232,[0.05596731],74,44,hard,minus,dotcolour,alfa,,,132,34,M,R,
130,4,4,3,1,44,36,4867,['c'],1,left,['1'],6,269,[0.09214146],83,44,hard,minus,dotcolour,alfa,,,132,34,M,R,
131,5,5,3,1,53,27,1000,['n'],0,left,['1'],6,245,[-0.12219485],90,53,easy,minus,dotcolour,alfa,,,132,34,M,R,
132,6,6,3,1,44,36,1083,['c'],1,left,['1'],6,248,[0.11567774],89,44,hard,minus,dotcolour,alfa,,,132,34,M,R,
133,7,7,3,1,53,27,817,['c'],1,left,['1'],6,783,[0.10772927],75,53,easy,minus,dotcolour,alfa,,,132,34,M,R,
134,8,8,3,1,27,53,649,['n'],1,right,['1'],6,214,[-0.07932498],82,53,easy,minus,dotcolour,alfa,,,132,34,M,R,
135,9,9,3,1,47,33,3783,['c'],1,left,['1'],6,448,[0.06729606],71,47,medium,minus,dotcolour,alfa,,,132,34,M,R,
136,10,10,3,1,44,36,2184,['n'],0,left,['1'],6,656,[0.03862514],39,44,hard,minus,dotcolour,alfa,,,132,34,M,R,
137,11,11,3,1,53,27,4400,['c'],1,left,['1'],6,294,[-0.0270226],39,53,easy,minus,dotcolour,alfa,,,132,34,M,R,
138,12,12,3,1,36,44,1116,['c'],0,right,['1'],6,319,[0.02291527],59,44,hard,minus,dotcolour,alfa,,,132,34,M,R,
139,13,13,3,1,33,47,850,['n'],1,right,['1'],6,290,[-0.14379101],92,47,medium,minus,dotcolour,alfa,,,132,34,M,R,
140,14,14,3,1,33,47,883,['n'],1,right,['1'],6,300,[-0.01176398],55,47,medium,minus,dotcolour,alfa,,,132,34,M,R,
141,15,15,3,1,47,33,766,['n'],0,left,['1'],6,315,[-0.0500421],69,47,medium,minus,dotcolour,alfa,,,132,34,M,R,
142,16,16,3,1,27,53,4334,['c'],0,right,['1'],6,650,[-0.02330303],44,53,easy,minus,dotcolour,alfa,,,132,34,M,R,
143,17,17,3,1,27,53,3534,['n'],1,right,['2'],5,1164,[-0.32985236],94,53,easy,minus,dotcolour,alfa,,,132,34,M,R,
144,18,18,3,1,27,53,699,['n'],1,right,['1'],6,219,[-0.07027255],79,53,easy,minus,dotcolour,alfa,,,132,34,M,R,
145,19,19,3,1,27,53,834,['n'],1,right,['1'],6,242,[-0.09769042],86,53,easy,minus,dotcolour,alfa,,,132,34,M,R,
146,20,20,3,1,53,27,850,['c'],1,left,['1'],6,248,[0.10802298],88,53,easy,minus,dotcolour,alfa,,,132,34,M,R,
147,21,21,3,1,47,33,1701,['c'],1,left,['1'],6,243,[0.06209752],76,47,medium,minus,dotcolour,alfa,,,132,34,M,R,
148,22,22,3,1,53,27,767,['c'],1,left,['1'],6,308,[0.13130394],89,53,easy,minus,dotcolour,alfa,,,132,34,M,R,
149,23,23,3,1,44,36,518,['c'],1,left,['1'],6,339,[0.10612344],84,44,hard,minus,dotcolour,alfa,,,132,34,M,R,
150,24,24,3,1,36,44,3867,['n'],1,right,['1'],6,324,[-0.07013338],75,44,hard,minus,dotcolour,alfa,,,132,34,M,R,
151,25,25,3,1,33,47,734,['n'],1,right,['1'],6,267,[-0.04563143],69,47,medium,minus,dotcolour,alfa,,,132,34,M,R,
152,26,26,3,1,47,33,850,['n'],0,left,['1'],6,280,[-0.0783844],79,47,medium,minus,dotcolour,alfa,,,132,34,M,R,
153,27,27,3,1,53,27,850,['c'],1,left,['1'],6,316,[0.14119673],91,53,easy,minus,dotcolour,alfa,,,132,34,M,R,
154,28,28,3,1,53,27,833,['c'],1,left,['1'],6,4423,[1.10371057],99,53,easy,minus,dotcolour,alfa,,,132,34,M,R,
155,29,29,3,1,36,44,6133,['n'],1,right,['2'],5,4529,[-0.12103332],63,44,hard,minus,dotcolour,alfa,,,132,34,M,R,
156,30,30,3,1,33,47,1834,['c'],0,right,['1'],6,251,[0.04079697],68,47,medium,minus,dotcolour,alfa,,,132,34,M,R,
157,31,31,3,1,44,36,1983,['c'],1,left,['2'],5,635,[0.12468316],80,44,hard,minus,dotcolour,alfa,,,132,34,M,R,
158,32,32,3,1,47,33,1967,['c'],1,left,['1'],6,340,[0.24229883],98,47,medium,minus,dotcolour,alfa,,,132,34,M,R,
159,33,33,3,1,47,33,1450,['c'],1,left,['2'],5,526,[-0.02184351],43,47,medium,minus,dotcolour,alfa,,,132,34,M,R,
160,34,34,3,1,36,44,801,['n'],1,right,['2'],5,417,[-0.03947978],63,44,hard,minus,dotcolour,alfa,,,132,34,M,R,
161,35,35,3,1,33,47,1150,['n'],1,right,['2'],5,548,[-0.05530891],66,47,medium,minus,dotcolour,alfa,,,132,34,M,R,
162,36,36,3,1,36,44,6234,['n'],1,right,['9'],2,967,[0.04260131],40,44,hard,minus,dotcolour,alfa,,,132,34,M,R,
163,37,37,3,1,33,47,1183,['n'],1,right,['9'],2,226,[-0.12245486],91,47,medium,minus,dotcolour,alfa,,,132,34,M,R,
164,38,38,3,1,36,44,3135,['n'],1,right,['2'],5,597,[-0.024036],57,44,hard,minus,dotcolour,alfa,,,132,34,M,R,
165,39,39,3,1,44,36,3400,['c'],1,left,['2'],5,3142,[0.28066392],81,44,hard,minus,dotcolour,alfa,,,132,34,M,R,
166,40,40,3,1,47,33,4900,['c'],1,left,['2'],5,2685,[0.07411116],60,47,medium,minus,dotcolour,alfa,,,132,34,M,R,
167,41,41,3,1,27,53,817,['n'],1,right,['2'],5,321,[-0.16114164],93,53,easy,minus,dotcolour,alfa,,,132,34,M,R,
168,42,0,4,1,27,53,983,['n'],1,right,['1'],6,215,[-0.17291408],97,53,easy,minus,dotcolour,alfa,,,132,34,M,R,
169,43,1,4,1,47,33,1034,['n'],0,left,['2'],5,479,[-0.03933024],63,47,medium,minus,dotcolour,alfa,,,132,34,M,R,
170,44,2,4,1,53,27,900,['c'],1,left,['1'],6,472,[0.2458803],96,53,easy,minus,dotcolour,alfa,,,132,34,M,R,
171,45,3,4,1,27,53,766,['n'],1,right,['1'],6,272,[-0.05006825],70,53,easy,minus,dotcolour,alfa,,,132,34,M,R,
172,46,4,4,1,36,44,1034,['c'],0,right,['1'],6,237,[0.02022945],59,44,hard,minus,dotcolour,alfa,,,132,34,M,R,
173,47,5,4,1,36,44,767,['n'],1,right,['1'],6,270,[-0.05382659],72,44,hard,minus,dotcolour,alfa,,,132,34,M,R,
174,48,6,4,1,36,44,717,['n'],1,right,['1'],6,168,[-0.10922287],92,44,hard,minus,dotcolour,alfa,,,132,34,M,R,
175,49,7,4,1,33,47,650,['n'],1,right,['1'],6,144,[-0.14022457],97,47,medium,minus,dotcolour,alfa,,,132,34,M,R,
176,50,8,4,1,33,47,1234,['n'],1,right,['1'],6,674,[-0.15016593],84,47,medium,minus,dotcolour,alfa,,,132,34,M,R,
177,51,9,4,1,47,33,1184,['c'],1,left,['1'],6,241,[0.08323018],82,47,medium,minus,dotcolour,alfa,,,132,34,M,R,
178,52,10,4,1,53,27,852,['n'],0,left,['1'],6,223,[-0.05626098],75,53,easy,minus,dotcolour,alfa,,,132,34,M,R,
179,53,11,4,1,47,33,617,['c'],1,left,['1'],6,310,[0.17684252],95,47,medium,minus,dotcolour,alfa,,,132,34,M,R,
180,54,12,4,1,53,27,784,['c'],1,left,['1'],6,291,[0.0947794],83,53,easy,minus,dotcolour,alfa,,,132,34,M,R,
181,55,13,4,1,33,47,4034,['c'],0,right,['1'],6,607,[0.03125414],59,47,medium,minus,dotcolour,alfa,,,132,34,M,R,
182,56,14,4,1,53,27,3500,['n'],0,left,['1'],6,460,[-0.09319047],77,53,easy,minus,dotcolour,alfa,,,132,34,M,R,
183,57,15,4,1,44,36,1583,['n'],0,left,['1'],6,516,[-0.08554473],74,44,hard,minus,dotcolour,alfa,,,132,34,M,R,
184,58,16,4,1,47,33,1584,['c'],1,left,['1'],6,296,[0.11180505],86,47,medium,minus,dotcolour,alfa,,,132,34,M,R,
185,59,17,4,1,27,53,1334,['n'],1,right,['1'],6,513,[-0.21059869],93,53,easy,minus,dotcolour,alfa,,,132,34,M,R,
186,60,18,4,1,44,36,1200,['n'],0,left,['1'],6,309,[0.08928126],19,44,hard,minus,dotcolour,alfa,,,132,34,M,R,
187,61,19,4,1,53,27,1083,['c'],1,left,['1'],6,311,[0.10559392],85,53,easy,minus,dotcolour,alfa,,,132,34,M,R,
188,62,20,4,1,27,53,816,['n'],1,right,['1'],6,299,[-0.17990506],95,53,easy,minus,dotcolour,alfa,,,132,34,M,R,
189,63,21,4,1,36,44,1184,['c'],0,right,['1'],6,281,[0.02774574],62,44,hard,minus,dotcolour,alfa,,,132,34,M,R,
190,64,22,4,1,47,33,783,['n'],0,left,['1'],6,248,[-0.1239703],90,47,medium,minus,dotcolour,alfa,,,132,34,M,R,
191,65,23,4,1,33,47,1000,['n'],1,right,['1'],6,351,[-0.09111126],80,47,medium,minus,dotcolour,alfa,,,132,34,M,R,
192,66,24,4,1,44,36,1300,['c'],1,left,['1'],6,286,[0.08099419],80,44,hard,minus,dotcolour,alfa,,,132,34,M,R,
193,67,25,4,1,27,53,867,['n'],1,right,['1'],6,314,[-0.14704355],91,53,easy,minus,dotcolour,alfa,,,132,34,M,R,
194,68,26,4,1,44,36,2184,['n'],0,left,['1'],6,311,[-0.07256059],76,44,hard,minus,dotcolour,alfa,,,132,34,M,R,
195,69,27,4,1,53,27,1016,['c'],1,left,['1'],6,227,[0.18500764],97,53,easy,minus,dotcolour,alfa,,,132,34,M,R,
196,70,28,4,1,36,44,1100,['c'],0,right,['1'],6,279,[0.03499636],64,44,hard,minus,dotcolour,alfa,,,132,34,M,R,
197,71,29,4,1,44,36,866,['n'],0,left,['1'],6,251,[-0.06171662],75,44,hard,minus,dotcolour,alfa,,,132,34,M,R,
198,72,30,4,1,53,27,832,['c'],1,left,['1'],6,233,[0.09130619],85,53,easy,minus,dotcolour,alfa,,,132,34,M,R,
199,73,31,4,1,33,47,700,['n'],1,right,['1'],6,541,[-0.25134778],96,47,medium,minus,dotcolour,alfa,,,132,34,M,R,
200,74,32,4,1,27,53,933,['n'],1,right,['1'],6,243,[-0.19981492],97,53,easy,minus,dotcolour,alfa,,,132,34,M,R,
201,75,33,4,1,47,33,868,['c'],1,left,['1'],6,304,[0.1547128],93,47,medium,minus,dotcolour,alfa,,,132,34,M,R,
202,76,34,4,1,47,33,1983,['n'],0,left,['1'],6,302,[-0.04435368],67,47,medium,minus,dotcolour,alfa,,,132,34,M,R,
203,77,35,4,1,36,44,700,['n'],1,right,['1'],6,207,[-0.14081166],94,44,hard,minus,dotcolour,alfa,,,132,34,M,R,
204,78,36,4,1,27,53,700,['n'],1,right,['1'],6,252,[-0.12037656],90,53,easy,minus,dotcolour,alfa,,,132,34,M,R,
205,79,37,4,1,44,36,901,['c'],1,left,['1'],6,240,[0.05160045],72,44,hard,minus,dotcolour,alfa,,,132,34,M,R,
206,80,38,4,1,33,47,884,['n'],1,right,['1'],6,275,[-0.11071036],87,47,medium,minus,dotcolour,alfa,,,132,34,M,R,
207,81,39,4,1,33,47,1100,['n'],1,right,['2'],5,1549,[-0.21096557],82,47,medium,minus,dotcolour,alfa,,,132,34,M,R,
208,82,40,4,1,44,36,1734,['n'],0,left,['2'],5,547,[-0.12484085],82,44,hard,minus,dotcolour,alfa,,,132,34,M,R,
209,83,41,4,1,36,44,1150,['n'],1,right,['2'],5,352,[-0.05204719],69,44,hard,minus,dotcolour,alfa,,,132,34,M,R,
210,84,0,5,1,53,27,1001,['c'],1,left,['2'],5,278,[0.10191169],85,53,easy,minus,dotcolour,alfa,,,132,34,M,R,
211,85,1,5,1,47,33,1017,['c'],1,left,['2'],5,499,[0.09241222],76,47,medium,minus,dotcolour,alfa,,,132,34,M,R,
212,86,2,5,1,27,53,901,['n'],1,right,['2'],5,2541,[-0.38178307],90,53,easy,minus,dotcolour,alfa,,,132,34,M,R,
213,87,3,5,1,53,27,783,['c'],1,left,['2'],5,240,[0.10453769],87,53,easy,minus,dotcolour,alfa,,,132,34,M,R,
214,88,4,5,1,36,44,767,['n'],1,right,['1'],6,329,[-0.01417201],56,44,hard,minus,dotcolour,alfa,,,132,34,M,R,
215,89,5,5,1,36,44,849,['n'],1,right,['1'],6,227,[-0.10534521],88,44,hard,minus,dotcolour,alfa,,,132,34,M,R,
216,90,6,5,1,33,47,649,['n'],1,right,['1'],6,217,[-0.06978214],79,47,medium,minus,dotcolour,alfa,,,132,34,M,R,
217,91,7,5,1,44,36,2268,['n'],0,left,['2'],5,3223,[-0.07737638],60,44,hard,minus,dotcolour,alfa,,,132,34,M,R,
218,92,8,5,1,27,53,835,['n'],1,right,['1'],6,269,[-0.16887362],95,53,easy,minus,dotcolour,alfa,,,132,34,M,R,
219,93,9,5,1,33,47,834,['n'],1,right,['1'],6,194,[-0.01709446],59,47,medium,minus,dotcolour,alfa,,,132,34,M,R,
220,94,10,5,1,33,47,833,['n'],1,right,['1'],6,227,[-0.19116032],97,47,medium,minus,dotcolour,alfa,,,132,34,M,R,
221,95,11,5,1,27,53,566,['n'],1,right,['1'],6,236,[-0.14595744],94,53,easy,minus,dotcolour,alfa,,,132,34,M,R,
222,96,12,5,1,44,36,450,['n'],0,left,['1'],6,1554,[-0.21230216],82,44,hard,minus,dotcolour,alfa,,,132,34,M,R,
223,97,13,5,1,36,44,1733,['n'],1,right,['1'],6,255,[-0.03734567],66,44,hard,minus,dotcolour,alfa,,,132,34,M,R,
224,98,14,5,1,36,44,1151,['n'],1,right,['1'],6,248,[-0.13888514],92,44,hard,minus,dotcolour,alfa,,,132,34,M,R,
225,99,15,5,1,47,33,1083,['c'],1,left,['1'],6,261,[0.06439706],76,47,medium,minus,dotcolour,alfa,,,132,34,M,R,
226,100,16,5,1,44,36,1350,['c'],1,left,['1'],6,302,[0.02585927],60,44,hard,minus,dotcolour,alfa,,,132,34,M,R,
227,101,17,5,1,33,47,1051,['n'],1,right,['1'],6,345,[-0.06906108],74,47,medium,minus,dotcolour,alfa,,,132,34,M,R,
228,102,18,5,1,33,47,2350,['c'],0,right,['1'],6,318,[0.06032863],72,47,medium,minus,dotcolour,alfa,,,132,34,M,R,
229,103,19,5,1,44,36,2783,['n'],0,left,['1'],6,347,[-0.05184717],69,44,hard,minus,dotcolour,alfa,,,132,34,M,R,
230,104,20,5,1,27,53,800,['n'],1,right,['1'],6,231,[-0.12878106],92,53,easy,minus,dotcolour,alfa,,,132,34,M,R,
231,105,21,5,1,53,27,1201,['n'],0,left,['1'],6,319,[-0.01086323],54,53,easy,minus,dotcolour,alfa,,,132,34,M,R,
232,106,22,5,1,27,53,6050,['n'],1,right,['1'],6,954,[-0.22882855],89,53,easy,minus,dotcolour,alfa,,,132,34,M,R,
233,107,23,5,1,53,27,2233,['n'],0,left,['1'],6,323,[0.05729976],29,53,easy,minus,dotcolour,alfa,,,132,34,M,R,
234,108,24,5,1,47,33,4199,['c'],1,left,['1'],6,352,[0.11202997],85,47,medium,minus,dotcolour,alfa,,,132,34,M,R,
235,109,25,5,1,53,27,933,['c'],1,left,['1'],6,285,[0.11880735],88,53,easy,minus,dotcolour,alfa,,,132,34,M,R,
236,110,26,5,1,27,53,766,['n'],1,right,['1'],6,317,[-0.14404045],91,53,easy,minus,dotcolour,alfa,,,132,34,M,R,
237,111,27,5,1,47,33,12549,['c'],1,left,['3'],4,2179,[0.14264126],70,47,medium,minus,dotcolour,alfa,,,132,34,M,R,
238,112,28,5,1,53,27,4117,['n'],0,left,['1'],6,496,[0.12034923],18,53,easy,minus,dotcolour,alfa,,,132,34,M,R,
239,113,29,5,1,53,27,1317,['c'],1,left,['1'],6,257,[0.15120909],94,53,easy,minus,dotcolour,alfa,,,132,34,M,R,
240,114,30,5,1,44,36,849,['n'],0,left,['1'],6,245,[-0.01144407],55,44,hard,minus,dotcolour,alfa,,,132,34,M,R,
241,115,31,5,1,36,44,1100,['n'],1,right,['1'],6,297,[0.01127434],45,44,hard,minus,dotcolour,alfa,,,132,34,M,R,
242,116,32,5,1,27,53,734,['n'],1,right,['1'],6,249,[-0.12708145],91,53,easy,minus,dotcolour,alfa,,,132,34,M,R,
243,117,33,5,1,36,44,633,['n'],1,right,['1'],6,279,[0.02441666],40,44,hard,minus,dotcolour,alfa,,,132,34,M,R,
244,118,34,5,1,47,33,1684,['c'],1,left,['1'],6,2450,[0.41609566],92,47,medium,minus,dotcolour,alfa,,,132,34,M,R,
245,119,35,5,1,33,47,717,['n'],1,right,['1'],6,324,[-0.12354365],88,47,medium,minus,dotcolour,alfa,,,132,34,M,R,
246,120,36,5,1,47,33,816,['c'],1,left,['1'],6,207,[0.04139458],69,47,medium,minus,dotcolour,alfa,,,132,34,M,R,
247,121,37,5,1,44,36,967,['c'],1,left,['1'],6,265,[0.16344872],95,44,hard,minus,dotcolour,alfa,,,132,34,M,R,
248,122,38,5,1,44,36,767,['n'],0,left,['1'],6,249,[-0.03859858],67,44,hard,minus,dotcolour,alfa,,,132,34,M,R,
249,123,39,5,1,47,33,3400,['c'],1,left,['1'],6,417,[0.06329353],71,47,medium,minus,dotcolour,alfa,,,132,34,M,R,
250,124,40,5,1,33,47,1550,['n'],1,right,['2'],5,852,[-0.30020912],95,47,medium,minus,dotcolour,alfa,,,132,34,M,R,
251,125,41,5,1,36,44,1017,['n'],1,right,['2'],5,505,[-0.14720847],87,44,hard,minus,dotcolour,alfa,,,132,34,M,R,
252,0,0,6,2,33,47,2468,['c'],0,right,['3'],4,839,[0.04067839],83,47,medium,plus,dotcolour,alfa,,,132,34,M,R,
253,1,1,6,2,44,36,1216,['c'],1,left,['2'],5,390,[0.10752148],100,44,hard,plus,dotcolour,alfa,,,132,34,M,R,
254,2,2,6,2,44,36,1017,['c'],1,left,['2'],5,542,[0.13113321],100,44,hard,plus,dotcolour,alfa,,,132,34,M,R,
255,3,3,6,2,47,33,867,['c'],1,left,['1'],6,439,[0.15005015],100,47,medium,plus,dotcolour,alfa,,,132,34,M,R,
256,4,4,6,2,53,27,3517,['c'],1,left,['2'],5,298,[0.07954595],99,53,easy,plus,dotcolour,alfa,,,132,34,M,R,
257,5,5,6,2,27,53,1100,['n'],1,right,['1'],6,387,[-0.1331393],100,53,easy,plus,dotcolour,alfa,,,132,34,M,R,
258,6,6,6,2,53,27,1000,['c'],1,left,['1'],6,317,[0.09352764],100,53,easy,plus,dotcolour,alfa,,,132,34,M,R,
259,7,7,6,2,36,44,4467,['n'],1,right,['9'],2,1039,[-0.17299946],100,44,hard,plus,dotcolour,alfa,,,132,34,M,R,
260,8,8,6,2,36,44,3249,['c'],0,right,['3'],4,1837,[0.09208188],92,44,hard,plus,dotcolour,alfa,,,132,34,M,R,
261,9,9,6,2,44,36,1516,['n'],0,left,['1'],6,2816,[-0.01172339],56,44,hard,plus,dotcolour,alfa,,,132,34,M,R,
262,10,10,6,2,33,47,1467,['c'],0,right,['1'],6,413,[0.14829086],100,47,medium,plus,dotcolour,alfa,,,132,34,M,R,
263,11,11,6,2,47,33,12917,['c'],1,left,['1'],6,393,[0.21161212],100,47,medium,plus,dotcolour,alfa,,,132,34,M,R,
264,12,12,6,2,47,33,1017,['c'],1,left,['2'],5,474,[0.05053731],93,47,medium,plus,dotcolour,alfa,,,132,34,M,R,
265,13,13,6,2,27,53,800,['n'],1,right,['1'],6,296,[-0.05215937],97,53,easy,plus,dotcolour,alfa,,,132,34,M,R,
266,14,14,6,2,36,44,816,['n'],1,right,['1'],6,260,[-0.06689189],99,44,hard,plus,dotcolour,alfa,,,132,34,M,R,
267,15,15,6,2,27,53,750,['n'],1,right,['1'],6,157,[-0.0849159],100,53,easy,plus,dotcolour,alfa,,,132,34,M,R,
268,16,16,6,2,53,27,1052,['n'],0,left,['1'],6,206,[0.0499494],2,53,easy,plus,dotcolour,alfa,,,132,34,M,R,
269,17,17,6,2,27,53,1117,['n'],1,right,['1'],6,578,[-0.26347124],100,53,easy,plus,dotcolour,alfa,,,132,34,M,R,
270,18,18,6,2,44,36,2017,['c'],1,left,['2'],5,603,[-0.00662717],42,44,hard,plus,dotcolour,alfa,,,132,34,M,R,
271,19,19,6,2,27,53,899,['n'],1,right,['1'],6,272,[-0.15550062],100,53,easy,plus,dotcolour,alfa,,,132,34,M,R,
272,20,20,6,2,33,47,816,['n'],1,right,['1'],6,205,[-0.09253888],100,47,medium,plus,dotcolour,alfa,,,132,34,M,R,
273,21,21,6,2,33,47,666,['n'],1,right,['1'],6,244,[-0.11418699],100,47,medium,plus,dotcolour,alfa,,,132,34,M,R,
274,22,22,6,2,36,44,933,['n'],1,right,['1'],6,334,[-0.06910531],99,44,hard,plus,dotcolour,alfa,,,132,34,M,R,
275,23,23,6,2,44,36,1549,['c'],1,left,['2'],5,324,[0.16192476],100,44,hard,plus,dotcolour,alfa,,,132,34,M,R,
276,24,24,6,2,47,33,4450,['n'],0,left,['2'],5,6142,[0.53308817],0,47,medium,plus,dotcolour,alfa,,,132,34,M,R,
277,25,25,6,2,33,47,3667,['c'],0,right,['2'],5,534,[-0.08208247],2,47,medium,plus,dotcolour,alfa,,,132,34,M,R,
278,26,26,6,2,44,36,1266,['c'],1,left,['1'],6,607,[0.22103387],100,44,hard,plus,dotcolour,alfa,,,132,34,M,R,
279,27,27,6,2,33,47,1017,['n'],1,right,['1'],6,344,[-0.13021506],100,47,medium,plus,dotcolour,alfa,,,132,34,M,R,
280,28,28,6,2,36,44,4916,['n'],1,right,['2'],5,1486,[-0.1333559],98,44,hard,plus,dotcolour,alfa,,,132,34,M,R,
281,29,29,6,2,47,33,934,['c'],1,left,['2'],5,390,[0.10663591],100,47,medium,plus,dotcolour,alfa,,,132,34,M,R,
282,30,30,6,2,47,33,4099,['c'],1,left,['2'],5,396,[0.08914437],99,47,medium,plus,dotcolour,alfa,,,132,34,M,R,
283,31,31,6,2,27,53,716,['n'],1,right,['2'],5,552,[-0.12525003],100,53,easy,plus,dotcolour,alfa,,,132,34,M,R,
284,32,32,6,2,53,27,817,['c'],1,left,['2'],5,371,[0.14126722],100,53,easy,plus,dotcolour,alfa,,,132,34,M,R,
285,33,33,6,2,36,44,1183,['n'],1,right,['2'],5,318,[-0.15506656],100,44,hard,plus,dotcolour,alfa,,,132,34,M,R,
286,34,34,6,2,27,53,883,['n'],1,right,['2'],5,367,[-0.22650528],100,53,easy,plus,dotcolour,alfa,,,132,34,M,R,
287,35,35,6,2,53,27,1099,['c'],1,left,['2'],5,318,[0.20586508],100,53,easy,plus,dotcolour,alfa,,,132,34,M,R,
288,36,36,6,2,53,27,2500,['n'],0,left,['2'],5,3742,[0.3784776],0,53,easy,plus,dotcolour,alfa,,,132,34,M,R,
289,37,37,6,2,47,33,785,['c'],1,left,['2'],5,289,[-0.01730883],24,47,medium,plus,dotcolour,alfa,,,132,34,M,R,
290,38,38,6,2,36,44,1550,['c'],0,right,['3'],4,849,[0.05181818],88,44,hard,plus,dotcolour,alfa,,,132,34,M,R,
291,39,39,6,2,44,36,5450,['n'],0,left,['2'],5,326,[-0.05460622],97,44,hard,plus,dotcolour,alfa,,,132,34,M,R,
292,40,40,6,2,33,47,950,['n'],1,right,['1'],6,476,[-0.1879527],100,47,medium,plus,dotcolour,alfa,,,132,34,M,R,
293,41,41,6,2,53,27,784,['c'],1,left,['2'],5,211,[0.14064157],100,53,easy,plus,dotcolour,alfa,,,132,34,M,R,
294,42,0,7,2,44,36,1617,['n'],0,left,['2'],5,482,[-0.06086533],96,44,hard,plus,dotcolour,alfa,,,132,34,M,R,
295,43,1,7,2,53,27,850,['c'],1,left,['2'],5,278,[0.14072177],100,53,easy,plus,dotcolour,alfa,,,132,34,M,R,
296,44,2,7,2,47,33,783,['c'],1,left,['2'],5,253,[0.07079471],99,47,medium,plus,dotcolour,alfa,,,132,34,M,R,
297,45,3,7,2,33,47,734,['n'],1,right,['2'],5,271,[-0.06528753],99,47,medium,plus,dotcolour,alfa,,,132,34,M,R,
298,46,4,7,2,47,33,14416,['c'],1,left,['2'],5,333,[0.15792237],100,47,medium,plus,dotcolour,alfa,,,132,34,M,R,
299,47,5,7,2,44,36,916,['n'],0,left,['2'],5,381,[-0.00806213],62,44,hard,plus,dotcolour,alfa,,,132,34,M,R,
300,48,6,7,2,27,53,7666,['n'],1,right,['1'],6,1557,[-0.4050913],100,53,easy,plus,dotcolour,alfa,,,132,34,M,R,
301,49,7,7,2,33,47,2000,['n'],1,right,['2'],5,247,[-0.07551215],100,47,medium,plus,dotcolour,alfa,,,132,34,M,R,
302,50,8,7,2,33,47,783,['n'],1,right,['2'],5,191,[-0.04649127],98,47,medium,plus,dotcolour,alfa,,,132,34,M,R,
303,51,9,7,2,44,36,867,['c'],1,left,['1'],6,294,[0.12618003],100,44,hard,plus,dotcolour,alfa,,,132,34,M,R,
304,52,10,7,2,33,47,750,['n'],1,right,['1'],6,253,[-0.16430735],100,47,medium,plus,dotcolour,alfa,,,132,34,M,R,
305,53,11,7,2,44,36,1384,['c'],1,left,['1'],6,269,[0.0422205],95,44,hard,plus,dotcolour,alfa,,,132,34,M,R,
306,54,12,7,2,36,44,2633,['c'],0,right,['2'],5,451,[-0.00728872],40,44,hard,plus,dotcolour,alfa,,,132,34,M,R,
307,55,13,7,2,33,47,1883,['n'],1,right,['1'],6,167,[-0.09287213],100,47,medium,plus,dotcolour,alfa,,,132,34,M,R,
308,56,14,7,2,27,53,617,['n'],1,right,['1'],6,225,[-0.09189899],100,53,easy,plus,dotcolour,alfa,,,132,34,M,R,
309,57,15,7,2,36,44,833,['c'],0,right,['1'],6,247,[0.10217397],100,44,hard,plus,dotcolour,alfa,,,132,34,M,R,
310,58,16,7,2,47,33,2267,['c'],1,left,['1'],6,252,[0.1424429],100,47,medium,plus,dotcolour,alfa,,,132,34,M,R,
311,59,17,7,2,44,36,950,['c'],1,left,['1'],6,262,[0.0338781],92,44,hard,plus,dotcolour,alfa,,,132,34,M,R,
312,60,18,7,2,47,33,2999,['n'],0,left,['1'],6,340,[-0.04123052],93,47,medium,plus,dotcolour,alfa,,,132,34,M,R,
313,61,19,7,2,53,27,6450,['n'],0,left,['1'],6,486,[-0.0422129],90,53,easy,plus,dotcolour,alfa,,,132,34,M,R,
314,62,20,7,2,33,47,3600,['n'],1,right,['1'],6,883,[-0.12050936],99,47,medium,plus,dotcolour,alfa,,,132,34,M,R,
315,63,21,7,2,47,33,1084,['n'],0,left,['2'],5,221,[-0.1303767],100,47,medium,plus,dotcolour,alfa,,,132,34,M,R,
316,64,22,7,2,53,27,1167,['c'],1,left,['1'],6,263,[0.12206215],100,53,easy,plus,dotcolour,alfa,,,132,34,M,R,
317,65,23,7,2,36,44,850,['n'],1,right,['1'],6,276,[-0.13706355],100,44,hard,plus,dotcolour,alfa,,,132,34,M,R,
318,66,24,7,2,53,27,1168,['n'],0,left,['2'],5,7452,[1.03605668],0,53,easy,plus,dotcolour,alfa,,,132,34,M,R,
319,67,25,7,2,33,47,1067,['n'],1,right,['1'],6,255,[-0.08396089],100,47,medium,plus,dotcolour,alfa,,,132,34,M,R,
320,68,26,7,2,27,53,2183,['n'],1,right,['3'],4,367,[-0.07910979],99,53,easy,plus,dotcolour,alfa,,,132,34,M,R,
321,69,27,7,2,44,36,19100,['c'],1,left,['1'],6,814,[0.17016937],100,44,hard,plus,dotcolour,alfa,,,132,34,M,R,
322,70,28,7,2,44,36,4933,['n'],0,left,['1'],6,6785,[-0.00509419],52,44,hard,plus,dotcolour,alfa,,,132,34,M,R,
323,71,29,7,2,27,53,783,['n'],1,right,['1'],6,202,[-0.11334084],100,53,easy,plus,dotcolour,alfa,,,132,34,M,R,
324,72,30,7,2,53,27,1533,['c'],1,left,['2'],5,358,[0.16347508],100,53,easy,plus,dotcolour,alfa,,,132,34,M,R,
325,73,31,7,2,53,27,716,['c'],1,left,['1'],6,396,[0.11506342],100,53,easy,plus,dotcolour,alfa,,,132,34,M,R,
326,74,32,7,2,27,53,1334,['n'],1,right,['1'],6,696,[-0.21687064],100,53,easy,plus,dotcolour,alfa,,,132,34,M,R,
327,75,33,7,2,27,53,10416,['n'],1,right,['1'],6,9749,[-2.11001242],100,53,easy,plus,dotcolour,alfa,,,132,34,M,R,
328,76,34,7,2,53,27,833,['c'],1,left,['1'],6,708,[0.26421755],100,53,easy,plus,dotcolour,alfa,,,132,34,M,R,
329,77,35,7,2,36,44,14367,['c'],0,right,['2'],5,6890,[-0.06979008],28,44,hard,plus,dotcolour,alfa,,,132,34,M,R,
330,78,36,7,2,47,33,2566,['c'],1,left,['3'],4,296,[0.11474975],100,47,medium,plus,dotcolour,alfa,,,132,34,M,R,
331,79,37,7,2,27,53,2167,['n'],1,right,['1'],6,606,[-0.11570987],100,53,easy,plus,dotcolour,alfa,,,132,34,M,R,
332,80,38,7,2,47,33,1150,['c'],1,left,['1'],6,249,[0.09296194],100,47,medium,plus,dotcolour,alfa,,,132,34,M,R,
333,81,39,7,2,36,44,867,['n'],1,right,['1'],6,302,[-0.15794869],100,44,hard,plus,dotcolour,alfa,,,132,34,M,R,
334,82,40,7,2,36,44,933,['n'],1,right,['1'],6,325,[-0.10916783],100,44,hard,plus,dotcolour,alfa,,,132,34,M,R,
335,83,41,7,2,36,44,1332,['n'],1,right,['1'],6,196,[-0.12468945],100,44,hard,plus,dotcolour,alfa,,,132,34,M,R,
336,84,0,8,2,44,36,2333,['c'],1,left,['1'],6,676,[-0.04227541],14,44,hard,plus,dotcolour,alfa,,,132,34,M,R,
337,85,1,8,2,53,27,833,['c'],1,left,['1'],6,272,[0.14597701],100,53,easy,plus,dotcolour,alfa,,,132,34,M,R,
338,86,2,8,2,44,36,8718,['n'],0,left,['3'],4,1338,[0.01182918],41,44,hard,plus,dotcolour,alfa,,,132,34,M,R,
339,87,3,8,2,47,33,2833,['n'],0,left,['1'],6,372,[-0.12124402],100,47,medium,plus,dotcolour,alfa,,,132,34,M,R,
340,88,4,8,2,36,44,14601,['n'],1,right,['1'],6,390,[-0.25893482],100,44,hard,plus,dotcolour,alfa,,,132,34,M,R,
341,89,5,8,2,47,33,9367,['n'],0,left,['9'],2,961,[-0.05428795],88,47,medium,plus,dotcolour,alfa,,,132,34,M,R,
342,90,6,8,2,27,53,883,['c'],0,right,['1'],6,529,[0.0632424],96,53,easy,plus,dotcolour,alfa,,,132,34,M,R,
343,91,7,8,2,44,36,2466,['n'],0,left,['2'],5,658,[-0.1122199],99,44,hard,plus,dotcolour,alfa,,,132,34,M,R,
344,92,8,8,2,47,33,9300,['n'],0,left,['8'],3,876,[-0.02559234],73,47,medium,plus,dotcolour,alfa,,,132,34,M,R,
345,93,9,8,2,44,36,917,['n'],0,left,['1'],6,254,[-0.00758955],63,44,hard,plus,dotcolour,alfa,,,132,34,M,R,
346,94,10,8,2,36,44,783,['c'],0,right,['1'],6,342,[-0.01905209],24,44,hard,plus,dotcolour,alfa,,,132,34,M,R,
347,95,11,8,2,27,53,817,['n'],1,right,['1'],6,193,[-0.08252838],100,53,easy,plus,dotcolour,alfa,,,132,34,M,R,
348,96,12,8,2,27,53,1450,['n'],1,right,['1'],6,240,[-0.08651771],100,53,easy,plus,dotcolour,alfa,,,132,34,M,R,
349,97,13,8,2,33,47,884,['n'],1,right,['1'],6,172,[-0.07413749],100,47,medium,plus,dotcolour,alfa,,,132,34,M,R,
350,98,14,8,2,36,44,4182,['c'],0,right,['2'],5,815,[0.08354959],97,44,hard,plus,dotcolour,alfa,,,132,34,M,R,
351,99,15,8,2,44,36,1317,['n'],0,left,['2'],5,387,[-0.08197962],99,44,hard,plus,dotcolour,alfa,,,132,34,M,R,
352,100,16,8,2,53,27,8067,['n'],0,left,['2'],5,6610,[1.23893257],0,53,easy,plus,dotcolour,alfa,,,132,34,M,R,
353,101,17,8,2,53,27,1200,['c'],1,left,['1'],6,297,[0.04595243],95,53,easy,plus,dotcolour,alfa,,,132,34,M,R,
354,102,18,8,2,33,47,6733,['c'],0,right,['2'],5,6601,[-0.44409716],0,47,medium,plus,dotcolour,alfa,,,132,34,M,R,
355,103,19,8,2,53,27,1050,['c'],1,left,['2'],5,303,[0.07506001],99,53,easy,plus,dotcolour,alfa,,,132,34,M,R,
356,104,20,8,2,36,44,4050,['c'],0,right,['1'],6,21258,[-0.79587386],0,44,hard,plus,dotcolour,alfa,,,132,34,M,R,
357,105,21,8,2,44,36,1401,['c'],1,left,['1'],6,363,[0.08156955],99,44,hard,plus,dotcolour,alfa,,,132,34,M,R,
358,106,22,8,2,33,47,1799,['c'],0,right,['2'],5,766,[-0.03911211],17,47,medium,plus,dotcolour,alfa,,,132,34,M,R,
359,107,23,8,2,33,47,9216,['c'],0,right,['1'],6,3137,[-0.20922555],1,47,medium,plus,dotcolour,alfa,,,132,34,M,R,
360,108,24,8,2,36,44,817,['n'],1,right,['1'],6,282,[-0.10558249],100,44,hard,plus,dotcolour,alfa,,,132,34,M,R,
361,109,25,8,2,36,44,701,['n'],1,right,['1'],6,180,[-0.03585873],95,44,hard,plus,dotcolour,alfa,,,132,34,M,R,
362,110,26,8,2,53,27,883,['c'],1,left,['1'],6,275,[0.18762643],100,53,easy,plus,dotcolour,alfa,,,132,34,M,R,
363,111,27,8,2,47,33,816,['n'],0,left,['1'],6,200,[-0.02797937],90,47,medium,plus,dotcolour,alfa,,,132,34,M,R,
364,112,28,8,2,33,47,650,['n'],1,right,['1'],6,144,[-0.10980008],100,47,medium,plus,dotcolour,alfa,,,132,34,M,R,
365,113,29,8,2,36,44,616,['n'],1,right,['1'],6,218,[-0.09981396],100,44,hard,plus,dotcolour,alfa,,,132,34,M,R,
366,114,30,8,2,27,53,583,['n'],1,right,['1'],6,124,[-0.09492927],100,53,easy,plus,dotcolour,alfa,,,132,34,M,R,
367,115,31,8,2,27,53,433,['n'],1,right,['1'],6,158,[-0.07244291],100,53,easy,plus,dotcolour,alfa,,,132,34,M,R,
368,116,32,8,2,47,33,4049,['n'],0,left,['2'],5,167,[-0.05436673],99,47,medium,plus,dotcolour,alfa,,,132,34,M,R,
369,117,33,8,2,44,36,1334,['c'],1,left,['2'],5,332,[0.13415476],100,44,hard,plus,dotcolour,alfa,,,132,34,M,R,
370,118,34,8,2,27,53,684,['n'],1,right,['2'],5,253,[-0.08132486],100,53,easy,plus,dotcolour,alfa,,,132,34,M,R,
371,119,35,8,2,47,33,1167,['c'],1,left,['2'],5,301,[-0.04346122],5,47,medium,plus,dotcolour,alfa,,,132,34,M,R,
372,120,36,8,2,33,47,883,['n'],1,right,['1'],6,336,[-0.04573731],94,47,medium,plus,dotcolour,alfa,,,132,34,M,R,
373,121,37,8,2,33,47,1334,['n'],1,right,['1'],6,791,[0.03079005],22,47,medium,plus,dotcolour,alfa,,,132,34,M,R,
374,122,38,8,2,53,27,3249,['n'],0,left,['9'],2,3726,[0.39039974],0,53,easy,plus,dotcolour,alfa,,,132,34,M,R,
375,123,39,8,2,27,53,6051,['n'],1,right,['1'],6,1311,[-0.12897977],98,53,easy,plus,dotcolour,alfa,,,132,34,M,R,
376,124,40,8,2,53,27,1200,['c'],1,left,['1'],6,380,[0.11513173],100,53,easy,plus,dotcolour,alfa,,,132,34,M,R,
377,125,41,8,2,47,33,2082,['c'],1,left,['2'],5,275,[0.07234924],99,47,medium,plus,dotcolour,alfa,,,132,34,M,R,
378,0,0,9,3,53,27,1484,['c'],1,left,['2'],5,283,[0.19299872],96,53,easy,minus,dotcolour,alfa,,,132,34,M,R,
379,1,1,9,3,47,33,784,['n'],0,left,['1'],6,346,[-0.02775874],60,47,medium,minus,dotcolour,alfa,,,132,34,M,R,
380,2,2,9,3,44,36,1167,['c'],1,left,['1'],6,270,[0.05677346],73,44,hard,minus,dotcolour,alfa,,,132,34,M,R,
381,3,3,9,3,33,47,717,['n'],1,right,['1'],6,184,[0.00080068],50,47,medium,minus,dotcolour,alfa,,,132,34,M,R,
382,4,4,9,3,36,44,1967,['n'],1,right,['2'],5,188,[-0.1157952],92,44,hard,minus,dotcolour,alfa,,,132,34,M,R,
383,5,5,9,3,27,53,1183,['n'],1,right,['2'],5,286,[-0.05642551],72,53,easy,minus,dotcolour,alfa,,,132,34,M,R,
384,6,6,9,3,36,44,4217,['c'],0,right,['1'],6,180,[0.02365124],62,44,hard,minus,dotcolour,alfa,,,132,34,M,R,
385,7,7,9,3,36,44,1033,['n'],1,right,['2'],5,309,[-0.12353761],88,44,hard,minus,dotcolour,alfa,,,132,34,M,R,
386,8,8,9,3,47,33,4468,['c'],1,left,['2'],5,327,[0.21114714],97,47,medium,minus,dotcolour,alfa,,,132,34,M,R,
387,9,9,9,3,27,53,716,['n'],1,right,['2'],5,382,[-0.17387641],93,53,easy,minus,dotcolour,alfa,,,132,34,M,R,
388,10,10,9,3,47,33,1050,['c'],1,left,['2'],5,367,[0.12324127],86,47,medium,minus,dotcolour,alfa,,,132,34,M,R,
389,11,11,9,3,44,36,6250,['n'],0,left,['2'],5,8367,[0.35145099],25,44,hard,minus,dotcolour,alfa,,,132,34,M,R,
390,12,12,9,3,33,47,8132,['n'],1,right,['2'],5,811,[-0.02087905],55,47,medium,minus,dotcolour,alfa,,,132,34,M,R,
391,13,13,9,3,33,47,1083,['n'],1,right,['2'],5,207,[-0.04010803],69,47,medium,minus,dotcolour,alfa,,,132,34,M,R,
392,14,14,9,3,47,33,1367,['c'],1,left,['1'],6,297,[0.13829439],91,47,medium,minus,dotcolour,alfa,,,132,34,M,R,
393,15,15,9,3,53,27,950,['c'],1,left,['1'],6,305,[0.1433939],91,53,easy,minus,dotcolour,alfa,,,132,34,M,R,
394,16,16,9,3,36,44,1016,['n'],1,right,['1'],6,374,[-0.06429138],72,44,hard,minus,dotcolour,alfa,,,132,34,M,R,
395,17,17,9,3,53,27,700,['c'],1,left,['1'],6,299,[0.08164732],79,53,easy,minus,dotcolour,alfa,,,132,34,M,R,
396,18,18,9,3,27,53,600,['n'],1,right,['1'],6,217,[-0.06951294],79,53,easy,minus,dotcolour,alfa,,,132,34,M,R,
397,19,19,9,3,27,53,1283,['c'],0,right,['1'],6,302,[0.09158069],82,53,easy,minus,dotcolour,alfa,,,132,34,M,R,
398,20,20,9,3,33,47,3534,['n'],1,right,['2'],5,326,[-0.02146543],58,47,medium,minus,dotcolour,alfa,,,132,34,M,R,
399,21,21,9,3,53,27,783,['c'],1,left,['2'],5,332,[0.20605895],96,53,easy,minus,dotcolour,alfa,,,132,34,M,R,
400,22,22,9,3,27,53,617,['n'],1,right,['2'],5,246,[-0.09254434],84,53,easy,minus,dotcolour,alfa,,,132,34,M,R,
401,23,23,9,3,53,27,2400,['c'],1,left,['2'],5,341,[0.133953],89,53,easy,minus,dotcolour,alfa,,,132,34,M,R,
402,24,24,9,3,47,33,4950,['c'],1,left,['2'],5,403,[0.15403102],90,47,medium,minus,dotcolour,alfa,,,132,34,M,R,
403,25,25,9,3,44,36,1234,['c'],1,left,['2'],5,267,[0.02980598],63,44,hard,minus,dotcolour,alfa,,,132,34,M,R,
404,26,26,9,3,36,44,684,['n'],1,right,['2'],5,510,[-0.08596012],75,44,hard,minus,dotcolour,alfa,,,132,34,M,R,
405,27,27,9,3,44,36,2383,['c'],1,left,['2'],5,604,[0.06326945],68,44,hard,minus,dotcolour,alfa,,,132,34,M,R,
406,28,28,9,3,27,53,867,['n'],1,right,['2'],5,314,[-0.11006122],85,53,easy,minus,dotcolour,alfa,,,132,34,M,R,
407,29,29,9,3,44,36,4900,['c'],1,left,['2'],5,370,[0.17342714],93,44,hard,minus,dotcolour,alfa,,,132,34,M,R,
408,30,30,9,3,44,36,1133,['n'],0,left,['2'],5,337,[-0.07868947],77,44,hard,minus,dotcolour,alfa,,,132,34,M,R,
409,31,31,9,3,44,36,700,['c'],1,left,['2'],5,320,[0.04070078],66,44,hard,minus,dotcolour,alfa,,,132,34,M,R,
410,32,32,9,3,53,27,749,['c'],1,left,['2'],5,295,[0.15206197],93,53,easy,minus,dotcolour,alfa,,,132,34,M,R,
411,33,33,9,3,47,33,734,['c'],1,left,['2'],5,503,[0.13791916],85,47,medium,minus,dotcolour,alfa,,,132,34,M,R,
412,34,34,9,3,33,47,1716,['c'],0,right,['2'],5,279,[0.01100048],55,47,medium,minus,dotcolour,alfa,,,132,34,M,R,
413,35,35,9,3,53,27,867,['c'],1,left,['2'],5,259,[0.06267769],75,53,easy,minus,dotcolour,alfa,,,132,34,M,R,
414,36,36,9,3,36,44,950,['n'],1,right,['2'],5,307,[-0.07828261],78,44,hard,minus,dotcolour,alfa,,,132,34,M,R,
415,37,37,9,3,47,33,467,['c'],1,left,['2'],5,342,[0.09099426],80,47,medium,minus,dotcolour,alfa,,,132,34,M,R,
416,38,38,9,3,33,47,1017,['n'],1,right,['2'],5,7136,[-0.53434939],86,47,medium,minus,dotcolour,alfa,,,132,34,M,R,
417,39,39,9,3,36,44,717,['n'],1,right,['2'],5,173,[-0.11428025],92,44,hard,minus,dotcolour,alfa,,,132,34,M,R,
418,40,40,9,3,33,47,1150,['n'],1,right,['1'],6,217,[-0.05636096],75,47,medium,minus,dotcolour,alfa,,,132,34,M,R,
419,41,41,9,3,27,53,817,['n'],1,right,['1'],6,289,[-0.13337931],90,53,easy,minus,dotcolour,alfa,,,132,34,M,R,
420,42,0,10,3,36,44,1217,['n'],1,right,['3'],4,5347,[-0.47841717],87,44,hard,minus,dotcolour,alfa,,,132,34,M,R,
421,43,1,10,3,33,47,3367,['c'],0,right,['2'],5,550,[-0.05625001],34,47,medium,minus,dotcolour,alfa,,,132,34,M,R,
422,44,2,10,3,33,47,2617,['n'],1,right,['9'],2,401,[-0.0610856],70,47,medium,minus,dotcolour,alfa,,,132,34,M,R,
423,45,3,10,3,44,36,883,['n'],0,left,['1'],6,470,[-0.07082634],72,44,hard,minus,dotcolour,alfa,,,132,34,M,R,
424,46,4,10,3,36,44,1283,['n'],1,right,['1'],6,338,[-0.1421813],90,44,hard,minus,dotcolour,alfa,,,132,34,M,R,
425,47,5,10,3,47,33,8517,['c'],1,left,['2'],5,465,[0.18185979],92,47,medium,minus,dotcolour,alfa,,,132,34,M,R,
426,48,6,10,3,53,27,867,['c'],1,left,['1'],6,285,[0.03788421],65,53,easy,minus,dotcolour,alfa,,,132,34,M,R,
427,49,7,10,3,44,36,633,['n'],0,left,['1'],6,289,[-0.08603109],81,44,hard,minus,dotcolour,alfa,,,132,34,M,R,
428,50,8,10,3,47,33,800,['c'],1,left,['1'],6,215,[0.07739412],82,47,medium,minus,dotcolour,alfa,,,132,34,M,R,
429,51,9,10,3,33,47,767,['n'],1,right,['1'],6,297,[-0.06445694],74,47,medium,minus,dotcolour,alfa,,,132,34,M,R,
430,52,10,10,3,47,33,716,['c'],1,left,['1'],6,291,[0.07289505],77,47,medium,minus,dotcolour,alfa,,,132,34,M,R,
431,53,11,10,3,36,44,5000,['c'],0,right,['1'],6,311,[-0.03392763],37,44,hard,minus,dotcolour,alfa,,,132,34,M,R,
432,54,12,10,3,47,33,1000,['c'],1,left,['1'],6,252,[0.09874711],85,47,medium,minus,dotcolour,alfa,,,132,34,M,R,
433,55,13,10,3,27,53,400,['n'],1,right,['1'],6,299,[-0.14406988],91,53,easy,minus,dotcolour,alfa,,,132,34,M,R,
434,56,14,10,3,27,53,6068,['n'],1,right,['1'],6,646,[-0.16146228],86,53,easy,minus,dotcolour,alfa,,,132,34,M,R,
435,57,15,10,3,36,44,1616,['n'],1,right,['1'],6,309,[-0.11896009],87,44,hard,minus,dotcolour,alfa,,,132,34,M,R,
436,58,16,10,3,27,53,666,['n'],1,right,['1'],6,158,[-0.04511042],74,53,easy,minus,dotcolour,alfa,,,132,34,M,R,
437,59,17,10,3,27,53,467,['n'],1,right,['1'],6,246,[-0.02129602],60,53,easy,minus,dotcolour,alfa,,,132,34,M,R,
438,60,18,10,3,53,27,835,['c'],1,left,['1'],6,229,[0.13316156],92,53,easy,minus,dotcolour,alfa,,,132,34,M,R,
439,61,19,10,3,47,33,467,['c'],1,left,['1'],6,314,[0.05101804],69,47,medium,minus,dotcolour,alfa,,,132,34,M,R,
440,62,20,10,3,33,47,800,['n'],1,right,['1'],6,167,[-0.03566875],69,47,medium,minus,dotcolour,alfa,,,132,34,M,R,
441,63,21,10,3,36,44,616,['n'],1,right,['1'],6,153,[-0.08991377],89,44,hard,minus,dotcolour,alfa,,,132,34,M,R,
442,64,22,10,3,47,33,684,['c'],1,left,['1'],6,329,[0.07143063],75,47,medium,minus,dotcolour,alfa,,,132,34,M,R,
443,65,23,10,3,27,53,1750,['n'],1,right,['1'],6,671,[-0.18170195],88,53,easy,minus,dotcolour,alfa,,,132,34,M,R,
444,66,24,10,3,44,36,967,['c'],1,left,['1'],6,302,[-0.02104346],41,44,hard,minus,dotcolour,alfa,,,132,34,M,R,
445,67,25,10,3,27,53,2683,['c'],0,right,['1'],6,512,[-0.05829019],32,53,easy,minus,dotcolour,alfa,,,132,34,M,R,
446,68,26,10,3,33,47,583,['n'],1,right,['1'],6,278,[-0.11740947],88,47,medium,minus,dotcolour,alfa,,,132,34,M,R,
447,69,27,10,3,33,47,7483,['c'],0,right,['1'],6,265,[0.00266364],51,47,medium,minus,dotcolour,alfa,,,132,34,M,R,
448,70,28,10,3,44,36,984,['c'],1,left,['3'],4,472,[0.07149364],72,44,hard,minus,dotcolour,alfa,,,132,34,M,R,
449,71,29,10,3,53,27,750,['c'],1,left,['1'],6,280,[0.19064513],96,53,easy,minus,dotcolour,alfa,,,132,34,M,R,
450,72,30,10,3,53,27,750,['c'],1,left,['2'],5,328,[0.08591271],79,53,easy,minus,dotcolour,alfa,,,132,34,M,R,
451,73,31,10,3,36,44,1700,['c'],0,right,['1'],6,320,[0.01881672],57,44,hard,minus,dotcolour,alfa,,,132,34,M,R,
452,74,32,10,3,44,36,2383,['n'],0,left,['8'],3,398,[-0.08703983],78,44,hard,minus,dotcolour,alfa,,,132,34,M,R,
453,75,33,10,3,27,53,450,['n'],1,right,['8'],3,301,[-0.09014505],81,53,easy,minus,dotcolour,alfa,,,132,34,M,R,
454,76,34,10,3,47,33,884,['c'],1,left,['2'],5,295,[0.07934215],79,47,medium,minus,dotcolour,alfa,,,132,34,M,R,
455,77,35,10,3,53,27,1033,['c'],1,left,['2'],5,331,[0.15053053],91,53,easy,minus,dotcolour,alfa,,,132,34,M,R,
456,78,36,10,3,36,44,15067,['c'],0,right,['2'],5,628,[0.01454661],54,44,hard,minus,dotcolour,alfa,,,132,34,M,R,
457,79,37,10,3,44,36,950,['n'],0,left,['2'],5,774,[-0.15561605],83,44,hard,minus,dotcolour,alfa,,,132,34,M,R,
458,80,38,10,3,33,47,850,['n'],1,right,['1'],6,247,[-0.10738669],87,47,medium,minus,dotcolour,alfa,,,132,34,M,R,
459,81,39,10,3,53,27,8717,['n'],0,left,['1'],6,4706,[0.46815645],13,53,easy,minus,dotcolour,alfa,,,132,34,M,R,
460,82,40,10,3,44,36,1300,['c'],1,left,['1'],6,225,[0.11428582],90,44,hard,minus,dotcolour,alfa,,,132,34,M,R,
461,83,41,10,3,53,27,851,['c'],1,left,['1'],6,295,[0.03160591],63,53,easy,minus,dotcolour,alfa,,,132,34,M,R,
462,84,0,11,3,53,27,834,['c'],1,left,['1'],6,203,[0.19281592],98,53,easy,minus,dotcolour,alfa,,,132,34,M,R,
463,85,1,11,3,44,36,767,['n'],0,left,['1'],6,222,[0.06660184],22,44,hard,minus,dotcolour,alfa,,,132,34,M,R,
464,86,2,11,3,36,44,1133,['c'],0,right,['2'],5,361,[0.04014114],65,44,hard,minus,dotcolour,alfa,,,132,34,M,R,
465,87,3,11,3,44,36,1901,['c'],1,left,['2'],5,239,[0.02606295],62,44,hard,minus,dotcolour,alfa,,,132,34,M,R,
466,88,4,11,3,47,33,767,['n'],0,left,['2'],5,136,[-0.08200048],88,47,medium,minus,dotcolour,alfa,,,132,34,M,R,
467,89,5,11,3,27,53,650,['n'],1,right,['2'],5,138,[-0.06596718],83,53,easy,minus,dotcolour,alfa,,,132,34,M,R,
468,90,6,11,3,53,27,1150,['c'],1,left,['1'],6,161,[0.08390753],87,53,easy,minus,dotcolour,alfa,,,132,34,M,R,
469,91,7,11,3,33,47,749,['n'],1,right,['1'],6,133,[-0.11202004],94,47,medium,minus,dotcolour,alfa,,,132,34,M,R,
470,92,8,11,3,36,44,1083,['c'],0,right,['1'],6,158,[0.12131112],94,44,hard,minus,dotcolour,alfa,,,132,34,M,R,
471,93,9,11,3,53,27,1201,['c'],1,left,['1'],6,224,[0.08182675],83,53,easy,minus,dotcolour,alfa,,,132,34,M,R,
472,94,10,11,3,47,33,717,['c'],1,left,['1'],6,228,[0.06692219],78,47,medium,minus,dotcolour,alfa,,,132,34,M,R,
473,95,11,11,3,47,33,7316,['n'],0,left,['1'],6,535,[-0.03497289],61,47,medium,minus,dotcolour,alfa,,,132,34,M,R,
474,96,12,11,3,27,53,717,['n'],1,right,['1'],6,199,[-0.05650475],76,53,easy,minus,dotcolour,alfa,,,132,34,M,R,
475,97,13,11,3,27,53,599,['n'],1,right,['1'],6,185,[-0.00992565],55,53,easy,minus,dotcolour,alfa,,,132,34,M,R,
476,98,14,11,3,44,36,384,['n'],0,left,['1'],6,411,[-0.03178336],61,44,hard,minus,dotcolour,alfa,,,132,34,M,R,
477,99,15,11,3,53,27,767,['c'],1,left,['1'],6,237,[0.15985869],95,53,easy,minus,dotcolour,alfa,,,132,34,M,R,
478,100,16,11,3,27,53,667,['n'],1,right,['1'],6,226,[-0.05735919],75,53,easy,minus,dotcolour,alfa,,,132,34,M,R,
479,101,17,11,3,53,27,767,['c'],1,left,['1'],6,187,[0.07112022],81,53,easy,minus,dotcolour,alfa,,,132,34,M,R,
480,102,18,11,3,47,33,784,['n'],0,left,['1'],6,358,[0.0217936],42,47,medium,minus,dotcolour,alfa,,,132,34,M,R,
481,103,19,11,3,53,27,634,['c'],1,left,['1'],6,391,[0.1569634],91,53,easy,minus,dotcolour,alfa,,,132,34,M,R,
482,104,20,11,3,47,33,617,['c'],1,left,['1'],6,240,[0.09565596],85,47,medium,minus,dotcolour,alfa,,,132,34,M,R,
483,105,21,11,3,33,47,683,['c'],0,right,['1'],6,244,[0.04517751],69,47,medium,minus,dotcolour,alfa,,,132,34,M,R,
484,106,22,11,3,44,36,2833,['c'],1,left,['1'],6,338,[0.12788334],88,44,hard,minus,dotcolour,alfa,,,132,34,M,R,
485,107,23,11,3,47,33,716,['c'],1,left,['1'],6,201,[0.17111047],97,47,medium,minus,dotcolour,alfa,,,132,34,M,R,
486,108,24,11,3,44,36,933,['n'],0,left,['1'],6,341,[-0.00410081],52,44,hard,minus,dotcolour,alfa,,,132,34,M,R,
487,109,25,11,3,33,47,1467,['c'],0,right,['1'],6,5838,[-0.19034447],33,47,medium,minus,dotcolour,alfa,,,132,34,M,R,
488,110,26,11,3,36,44,4633,['c'],0,right,['1'],6,307,[0.01011435],54,44,hard,minus,dotcolour,alfa,,,132,34,M,R,
489,111,27,11,3,44,36,816,['c'],1,left,['1'],6,543,[0.04538061],64,44,hard,minus,dotcolour,alfa,,,132,34,M,R,
490,112,28,11,3,36,44,883,['n'],1,right,['1'],6,199,[-0.08463529],85,44,hard,minus,dotcolour,alfa,,,132,34,M,R,
491,113,29,11,3,36,44,517,['n'],1,right,['1'],6,2723,[-0.04638139],56,44,hard,minus,dotcolour,alfa,,,132,34,M,R,
492,114,30,11,3,27,53,1317,['c'],0,right,['1'],6,346,[-0.02500412],41,53,easy,minus,dotcolour,alfa,,,132,34,M,R,
493,115,31,11,3,44,36,799,['c'],1,left,['1'],6,325,[-0.04083238],34,44,hard,minus,dotcolour,alfa,,,132,34,M,R,
494,116,32,11,3,27,53,1016,['c'],0,right,['1'],6,378,[0.08511306],78,53,easy,minus,dotcolour,alfa,,,132,34,M,R,
495,117,33,11,3,33,47,434,['n'],1,right,['1'],6,273,[-0.09113652],83,47,medium,minus,dotcolour,alfa,,,132,34,M,R,
496,118,34,11,3,27,53,550,['n'],1,right,['1'],6,546,[-0.26161245],96,53,easy,minus,dotcolour,alfa,,,132,34,M,R,
497,119,35,11,3,36,44,1183,['n'],1,right,['1'],6,469,[-0.08017209],74,44,hard,minus,dotcolour,alfa,,,132,34,M,R,
498,120,36,11,3,33,47,734,['n'],1,right,['1'],6,183,[-0.05097742],75,47,medium,minus,dotcolour,alfa,,,132,34,M,R,
499,121,37,11,3,47,33,816,['c'],1,left,['1'],6,224,[0.03399482],66,47,medium,minus,dotcolour,alfa,,,132,34,M,R,
500,122,38,11,3,33,47,883,['c'],0,right,['1'],6,309,[0.09198195],82,47,medium,minus,dotcolour,alfa,,,132,34,M,R,
501,123,39,11,3,36,44,4084,['c'],0,right,['1'],6,310,[0.1095481],85,44,hard,minus,dotcolour,alfa,,,132,34,M,R,
502,124,40,11,3,33,47,733,['n'],1,right,['1'],6,462,[-0.19325677],93,47,medium,minus,dotcolour,alfa,,,132,34,M,R,
503,125,41,11,3,53,27,5917,['n'],0,left,['2'],5,632,[0.0679157],32,53,easy,minus,dotcolour,alfa,,,132,34,M,R,
504,0,0,12,4,44,36,967,['n'],0,left,['1'],6,230,[-0.11429893],100,44,hard,plus,dotcolour,alfa,,,132,34,M,R,
505,1,1,12,4,27,53,683,['n'],1,right,['1'],6,164,[-0.02903244],93,53,easy,plus,dotcolour,alfa,,,132,34,M,R,
506,2,2,12,4,33,47,1167,['c'],0,right,['1'],6,231,[0.09974664],100,47,medium,plus,dotcolour,alfa,,,132,34,M,R,
507,3,3,12,4,33,47,3983,['c'],0,right,['1'],6,240,[0.04004299],95,47,medium,plus,dotcolour,alfa,,,132,34,M,R,
508,4,4,12,4,33,47,734,['n'],1,right,['1'],6,154,[-0.09434283],100,47,medium,plus,dotcolour,alfa,,,132,34,M,R,
509,5,5,12,4,44,36,966,['c'],1,left,['1'],6,207,[0.02866623],91,44,hard,plus,dotcolour,alfa,,,132,34,M,R,
510,6,6,12,4,27,53,751,['n'],1,right,['1'],6,218,[-0.05320497],98,53,easy,plus,dotcolour,alfa,,,132,34,M,R,
511,7,7,12,4,53,27,734,['c'],1,left,['1'],6,197,[0.0462079],98,53,easy,plus,dotcolour,alfa,,,132,34,M,R,
512,8,8,12,4,44,36,1250,['c'],1,left,['1'],6,292,[0.22468205],100,44,hard,plus,dotcolour,alfa,,,132,34,M,R,
513,9,9,12,4,27,53,1250,['n'],1,right,['1'],6,160,[-0.07691987],100,53,easy,plus,dotcolour,alfa,,,132,34,M,R,
514,10,10,12,4,27,53,583,['n'],1,right,['1'],6,139,[-0.07759043],100,53,easy,plus,dotcolour,alfa,,,132,34,M,R,
515,11,11,12,4,33,47,818,['n'],1,right,['1'],6,166,[-0.09917325],100,47,medium,plus,dotcolour,alfa,,,132,34,M,R,
516,12,12,12,4,53,27,650,['c'],1,left,['1'],6,199,[0.12431291],100,53,easy,plus,dotcolour,alfa,,,132,34,M,R,
517,13,13,12,4,36,44,900,['n'],1,right,['1'],6,180,[-0.0242646],89,44,hard,plus,dotcolour,alfa,,,132,34,M,R,
518,14,14,12,4,33,47,716,['n'],1,right,['1'],6,130,[-0.10135947],100,47,medium,plus,dotcolour,alfa,,,132,34,M,R,
519,15,15,12,4,44,36,1349,['c'],1,left,['1'],6,176,[0.10103827],100,44,hard,plus,dotcolour,alfa,,,132,34,M,R,
520,16,16,12,4,47,33,499,['c'],1,left,['1'],6,190,[0.04365258],97,47,medium,plus,dotcolour,alfa,,,132,34,M,R,
521,17,17,12,4,53,27,616,['c'],1,left,['1'],6,166,[0.09624891],100,53,easy,plus,dotcolour,alfa,,,132,34,M,R,
522,18,18,12,4,27,53,551,['n'],1,right,['1'],6,163,[-0.11506462],100,53,easy,plus,dotcolour,alfa,,,132,34,M,R,
523,19,19,12,4,33,47,867,['n'],1,right,['1'],6,196,[-0.12882526],100,47,medium,plus,dotcolour,alfa,,,132,34,M,R,
524,20,20,12,4,36,44,851,['n'],1,right,['1'],6,195,[-0.1304771],100,44,hard,plus,dotcolour,alfa,,,132,34,M,R,
525,21,21,12,4,36,44,949,['n'],1,right,['1'],6,255,[-0.06278437],99,44,hard,plus,dotcolour,alfa,,,132,34,M,R,
526,22,22,12,4,47,33,1150,['n'],0,left,['1'],6,223,[-0.01104782],70,47,medium,plus,dotcolour,alfa,,,132,34,M,R,
527,23,23,12,4,47,33,6967,['c'],1,left,['1'],6,361,[0.18260433],100,47,medium,plus,dotcolour,alfa,,,132,34,M,R,
528,24,24,12,4,36,44,901,['c'],0,right,['1'],6,280,[0.06480183],99,44,hard,plus,dotcolour,alfa,,,132,34,M,R,
529,25,25,12,4,44,36,600,['n'],0,left,['1'],6,326,[-0.08709463],100,44,hard,plus,dotcolour,alfa,,,132,34,M,R,
530,26,26,12,4,27,53,550,['n'],1,right,['1'],6,220,[-0.14010799],100,53,easy,plus,dotcolour,alfa,,,132,34,M,R,
531,27,27,12,4,53,27,1134,['c'],1,left,['1'],6,232,[0.09286794],100,53,easy,plus,dotcolour,alfa,,,132,34,M,R,
532,28,28,12,4,36,44,666,['n'],1,right,['1'],6,196,[-0.07302103],100,44,hard,plus,dotcolour,alfa,,,132,34,M,R,
533,29,29,12,4,47,33,617,['c'],1,left,['1'],6,173,[0.06362029],100,47,medium,plus,dotcolour,alfa,,,132,34,M,R,
534,30,30,12,4,53,27,550,['c'],1,left,['1'],6,257,[0.08288541],100,53,easy,plus,dotcolour,alfa,,,132,34,M,R,
535,31,31,12,4,47,33,516,['c'],1,left,['1'],6,284,[0.09269251],100,47,medium,plus,dotcolour,alfa,,,132,34,M,R,
536,32,32,12,4,36,44,735,['n'],1,right,['1'],6,252,[-0.15035464],100,44,hard,plus,dotcolour,alfa,,,132,34,M,R,
537,33,33,12,4,27,53,651,['n'],1,right,['1'],6,289,[-0.18834658],100,53,easy,plus,dotcolour,alfa,,,132,34,M,R,
538,34,34,12,4,47,33,600,['c'],1,left,['1'],6,334,[0.0402675],92,47,medium,plus,dotcolour,alfa,,,132,34,M,R,
539,35,35,12,4,36,44,733,['c'],0,right,['1'],6,254,[0.12743015],100,44,hard,plus,dotcolour,alfa,,,132,34,M,R,
540,36,36,12,4,44,36,783,['c'],1,left,['1'],6,270,[0.07609193],99,44,hard,plus,dotcolour,alfa,,,132,34,M,R,
541,37,37,12,4,44,36,617,['c'],1,left,['1'],6,276,[0.07783235],100,44,hard,plus,dotcolour,alfa,,,132,34,M,R,
542,38,38,12,4,47,33,699,['c'],1,left,['1'],6,229,[0.1236001],100,47,medium,plus,dotcolour,alfa,,,132,34,M,R,
543,39,39,12,4,33,47,766,['n'],1,right,['1'],6,239,[-0.06246448],99,47,medium,plus,dotcolour,alfa,,,132,34,M,R,
544,40,40,12,4,53,27,583,['c'],1,left,['1'],6,192,[0.13073738],100,53,easy,plus,dotcolour,alfa,,,132,34,M,R,
545,41,41,12,4,53,27,667,['c'],1,left,['1'],6,174,[0.06723917],100,53,easy,plus,dotcolour,alfa,,,132,34,M,R,
546,42,0,13,4,44,36,1951,['c'],1,left,['1'],6,223,[0.10526552],100,44,hard,plus,dotcolour,alfa,,,132,34,M,R,
547,43,1,13,4,44,36,834,['n'],0,left,['1'],6,270,[0.00510593],41,44,hard,plus,dotcolour,alfa,,,132,34,M,R,
548,44,2,13,4,53,27,1133,['c'],1,left,['1'],6,591,[0.14592548],100,53,easy,plus,dotcolour,alfa,,,132,34,M,R,
549,45,3,13,4,36,44,2233,['n'],1,right,['1'],6,512,[-0.12266466],100,44,hard,plus,dotcolour,alfa,,,132,34,M,R,
550,46,4,13,4,36,44,650,['n'],1,right,['1'],6,154,[-0.06650281],100,44,hard,plus,dotcolour,alfa,,,132,34,M,R,
551,47,5,13,4,27,53,583,['n'],1,right,['1'],6,118,[-0.11250695],100,53,easy,plus,dotcolour,alfa,,,132,34,M,R,
552,48,6,13,4,47,33,817,['c'],1,left,['1'],6,202,[0.13699871],100,47,medium,plus,dotcolour,alfa,,,132,34,M,R,
553,49,7,13,4,33,47,717,['n'],1,right,['1'],6,143,[-0.02226494],89,47,medium,plus,dotcolour,alfa,,,132,34,M,R,
554,50,8,13,4,53,27,750,['c'],1,left,['1'],6,205,[0.15977516],100,53,easy,plus,dotcolour,alfa,,,132,34,M,R,
555,51,9,13,4,33,47,700,['n'],1,right,['1'],6,170,[-0.12814262],100,47,medium,plus,dotcolour,alfa,,,132,34,M,R,
556,52,10,13,4,36,44,917,['c'],0,right,['1'],6,216,[0.04862671],98,44,hard,plus,dotcolour,alfa,,,132,34,M,R,
557,53,11,13,4,47,33,934,['c'],1,left,['1'],6,219,[0.07613043],100,47,medium,plus,dotcolour,alfa,,,132,34,M,R,
558,54,12,13,4,44,36,867,['c'],1,left,['1'],6,217,[0.11124149],100,44,hard,plus,dotcolour,alfa,,,132,34,M,R,
559,55,13,13,4,44,36,616,['c'],1,left,['1'],6,186,[0.03708769],96,44,hard,plus,dotcolour,alfa,,,132,34,M,R,
560,56,14,13,4,36,44,2117,['c'],0,right,['1'],6,295,[0.09622942],100,44,hard,plus,dotcolour,alfa,,,132,34,M,R,
561,57,15,13,4,36,44,750,['c'],0,right,['1'],6,246,[0.01088785],69,44,hard,plus,dotcolour,alfa,,,132,34,M,R,
562,58,16,13,4,47,33,667,['c'],1,left,['1'],6,251,[0.11126115],100,47,medium,plus,dotcolour,alfa,,,132,34,M,R,
563,59,17,13,4,33,47,700,['n'],1,right,['1'],6,215,[-0.13969521],100,47,medium,plus,dotcolour,alfa,,,132,34,M,R,
564,60,18,13,4,47,33,817,['c'],1,left,['1'],6,230,[0.01886147],80,47,medium,plus,dotcolour,alfa,,,132,34,M,R,
565,61,19,13,4,33,47,666,['n'],1,right,['1'],6,220,[-0.12130185],100,47,medium,plus,dotcolour,alfa,,,132,34,M,R,
566,62,20,13,4,33,47,900,['c'],0,right,['1'],6,257,[0.02508416],86,47,medium,plus,dotcolour,alfa,,,132,34,M,R,
567,63,21,13,4,36,44,1300,['n'],1,right,['1'],6,243,[-0.00728827],63,44,hard,plus,dotcolour,alfa,,,132,34,M,R,
568,64,22,13,4,47,33,717,['c'],1,left,['1'],6,206,[0.08196499],100,47,medium,plus,dotcolour,alfa,,,132,34,M,R,
569,65,23,13,4,27,53,683,['n'],1,right,['1'],6,203,[-0.06750676],100,53,easy,plus,dotcolour,alfa,,,132,34,M,R,
570,66,24,13,4,53,27,400,['c'],1,left,['1'],6,204,[0.05583605],99,53,easy,plus,dotcolour,alfa,,,132,34,M,R,
571,67,25,13,4,47,33,717,['n'],0,left,['1'],6,201,[-0.05056661],98,47,medium,plus,dotcolour,alfa,,,132,34,M,R,
572,68,26,13,4,53,27,668,['c'],1,left,['1'],6,584,[0.19706075],100,53,easy,plus,dotcolour,alfa,,,132,34,M,R,
573,69,27,13,4,27,53,766,['n'],1,right,['1'],6,187,[-0.02583615],90,53,easy,plus,dotcolour,alfa,,,132,34,M,R,
574,70,28,13,4,33,47,484,['c'],0,right,['1'],6,650,[0.04845653],90,47,medium,plus,dotcolour,alfa,,,132,34,M,R,
575,71,29,13,4,44,36,650,['c'],1,left,['1'],6,215,[0.11027289],100,44,hard,plus,dotcolour,alfa,,,132,34,M,R,
576,72,30,13,4,33,47,2184,['n'],1,right,['1'],6,145,[-0.15517869],100,47,medium,plus,dotcolour,alfa,,,132,34,M,R,
577,73,31,13,4,27,53,651,['n'],1,right,['1'],6,170,[-0.0874426],100,53,easy,plus,dotcolour,alfa,,,132,34,M,R,
578,74,32,13,4,47,33,4067,['c'],1,left,['1'],6,2794,[0.42523033],100,47,medium,plus,dotcolour,alfa,,,132,34,M,R,
579,75,33,13,4,27,53,434,['n'],1,right,['1'],6,297,[-0.1638056],100,53,easy,plus,dotcolour,alfa,,,132,34,M,R,
580,76,34,13,4,53,27,684,['c'],1,left,['1'],6,227,[0.10421619],100,53,easy,plus,dotcolour,alfa,,,132,34,M,R,
581,77,35,13,4,53,27,717,['c'],1,left,['1'],6,231,[0.03895985],95,53,easy,plus,dotcolour,alfa,,,132,34,M,R,
582,78,36,13,4,27,53,617,['n'],1,right,['1'],6,198,[-0.04451346],97,53,easy,plus,dotcolour,alfa,,,132,34,M,R,
583,79,37,13,4,27,53,600,['n'],1,right,['1'],6,152,[-0.15742221],100,53,easy,plus,dotcolour,alfa,,,132,34,M,R,
584,80,38,13,4,36,44,518,['n'],1,right,['1'],6,247,[-0.10553746],100,44,hard,plus,dotcolour,alfa,,,132,34,M,R,
585,81,39,13,4,44,36,767,['c'],1,left,['1'],6,216,[0.03900888],95,44,hard,plus,dotcolour,alfa,,,132,34,M,R,
586,82,40,13,4,44,36,667,['n'],0,left,['1'],6,277,[-0.07750474],100,44,hard,plus,dotcolour,alfa,,,132,34,M,R,
587,83,41,13,4,53,27,751,['c'],1,left,['1'],6,205,[0.11137474],100,53,easy,plus,dotcolour,alfa,,,132,34,M,R,
588,84,0,14,4,27,53,701,['n'],1,right,['1'],6,166,[-0.04965933],99,53,easy,plus,dotcolour,alfa,,,132,34,M,R,
589,85,1,14,4,36,44,500,['n'],1,right,['1'],6,149,[-0.0993475],100,44,hard,plus,dotcolour,alfa,,,132,34,M,R,
590,86,2,14,4,36,44,801,['c'],0,right,['1'],6,185,[0.120058],100,44,hard,plus,dotcolour,alfa,,,132,34,M,R,
591,87,3,14,4,47,33,485,['c'],1,left,['1'],6,215,[0.11416191],100,47,medium,plus,dotcolour,alfa,,,132,34,M,R,
592,88,4,14,4,36,44,716,['n'],1,right,['1'],6,132,[-0.02052438],88,44,hard,plus,dotcolour,alfa,,,132,34,M,R,
593,89,5,14,4,27,53,617,['n'],1,right,['1'],6,191,[-0.14987443],100,53,easy,plus,dotcolour,alfa,,,132,34,M,R,
594,90,6,14,4,44,36,1333,['c'],1,left,['1'],6,195,[0.09550785],100,44,hard,plus,dotcolour,alfa,,,132,34,M,R,
595,91,7,14,4,53,27,834,['c'],1,left,['1'],6,195,[0.04225164],97,53,easy,plus,dotcolour,alfa,,,132,34,M,R,
596,92,8,14,4,33,47,583,['n'],1,right,['1'],6,213,[-0.09961609],100,47,medium,plus,dotcolour,alfa,,,132,34,M,R,
597,93,9,14,4,33,47,683,['c'],0,right,['1'],6,610,[-0.10767763],1,47,medium,plus,dotcolour,alfa,,,132,34,M,R,
598,94,10,14,4,33,47,1850,['c'],0,right,['1'],6,273,[0.09157491],100,47,medium,plus,dotcolour,alfa,,,132,34,M,R,
599,95,11,14,4,47,33,750,['c'],1,left,['1'],6,257,[-0.04032049],5,47,medium,plus,dotcolour,alfa,,,132,34,M,R,
600,96,12,14,4,47,33,901,['c'],1,left,['1'],6,220,[0.09084691],100,47,medium,plus,dotcolour,alfa,,,132,34,M,R,
601,97,13,14,4,33,47,4684,['n'],1,right,['8'],3,281,[-0.11156104],100,47,medium,plus,dotcolour,alfa,,,132,34,M,R,
602,98,14,14,4,33,47,2650,['n'],1,right,['1'],6,229,[-0.08753874],100,47,medium,plus,dotcolour,alfa,,,132,34,M,R,
603,99,15,14,4,27,53,1134,['n'],1,right,['1'],6,264,[-0.15670314],100,53,easy,plus,dotcolour,alfa,,,132,34,M,R,
604,100,16,14,4,53,27,4100,['c'],1,left,['1'],6,410,[0.23084711],100,53,easy,plus,dotcolour,alfa,,,132,34,M,R,
605,101,17,14,4,33,47,1318,['n'],1,right,['9'],2,1015,[-0.07677094],94,47,medium,plus,dotcolour,alfa,,,132,34,M,R,
606,102,18,14,4,27,53,1116,['c'],0,right,['1'],6,274,[0.0273576],87,53,easy,plus,dotcolour,alfa,,,132,34,M,R,
607,103,19,14,4,44,36,2866,['n'],0,left,['1'],6,494,[-0.10877353],100,44,hard,plus,dotcolour,alfa,,,132,34,M,R,
608,104,20,14,4,53,27,917,['c'],1,left,['1'],6,294,[0.12419987],100,53,easy,plus,dotcolour,alfa,,,132,34,M,R,
609,105,21,14,4,53,27,1433,['c'],1,left,['1'],6,291,[0.23011118],100,53,easy,plus,dotcolour,alfa,,,132,34,M,R,
610,106,22,14,4,36,44,734,['n'],1,right,['1'],6,363,[-0.11953825],100,44,hard,plus,dotcolour,alfa,,,132,34,M,R,
611,107,23,14,4,33,47,934,['n'],1,right,['1'],6,385,[-0.14973235],100,47,medium,plus,dotcolour,alfa,,,132,34,M,R,
612,108,24,14,4,53,27,716,['c'],1,left,['1'],6,206,[0.14709639],100,53,easy,plus,dotcolour,alfa,,,132,34,M,R,
613,109,25,14,4,27,53,650,['n'],1,right,['1'],6,262,[-0.13392154],100,53,easy,plus,dotcolour,alfa,,,132,34,M,R,
614,110,26,14,4,44,36,835,['c'],1,left,['1'],6,202,[0.1136791],100,44,hard,plus,dotcolour,alfa,,,132,34,M,R,
615,111,27,14,4,36,44,933,['n'],1,right,['1'],6,230,[-0.07895815],100,44,hard,plus,dotcolour,alfa,,,132,34,M,R,
616,112,28,14,4,47,33,783,['c'],1,left,['1'],6,199,[0.05237085],99,47,medium,plus,dotcolour,alfa,,,132,34,M,R,
617,113,29,14,4,47,33,783,['c'],1,left,['1'],6,201,[0.16794423],100,47,medium,plus,dotcolour,alfa,,,132,34,M,R,
618,114,30,14,4,44,36,899,['c'],1,left,['1'],6,606,[0.12344961],100,44,hard,plus,dotcolour,alfa,,,132,34,M,R,
619,115,31,14,4,53,27,735,['c'],1,left,['1'],6,346,[0.12109538],100,53,easy,plus,dotcolour,alfa,,,132,34,M,R,
620,116,32,14,4,53,27,3516,['c'],1,left,['1'],6,225,[0.1281032],100,53,easy,plus,dotcolour,alfa,,,132,34,M,R,
621,117,33,14,4,36,44,467,['n'],1,right,['1'],6,158,[-0.11764088],100,44,hard,plus,dotcolour,alfa,,,132,34,M,R,
622,118,34,14,4,36,44,1434,['n'],1,right,['1'],6,263,[-0.05002897],97,44,hard,plus,dotcolour,alfa,,,132,34,M,R,
623,119,35,14,4,44,36,1050,['n'],0,left,['1'],6,220,[-0.1643358],100,44,hard,plus,dotcolour,alfa,,,132,34,M,R,
624,120,36,14,4,27,53,2700,['c'],0,right,['1'],6,256,[0.09869504],100,53,easy,plus,dotcolour,alfa,,,132,34,M,R,
625,121,37,14,4,47,33,718,['n'],0,left,['1'],6,186,[-0.09053449],100,47,medium,plus,dotcolour,alfa,,,132,34,M,R,
626,122,38,14,4,27,53,602,['n'],1,right,['1'],6,180,[-0.09358456],100,53,easy,plus,dotcolour,alfa,,,132,34,M,R,
627,123,39,14,4,44,36,2084,['n'],0,left,['1'],6,4851,[0.08257101],21,44,hard,plus,dotcolour,alfa,,,132,34,M,R,
628,124,40,14,4,47,33,1200,['c'],1,left,['1'],6,370,[0.07545869],99,47,medium,plus,dotcolour,alfa,,,132,34,M,R,
629,125,41,14,4,44,36,817,['c'],1,left,['1'],6,388,[0.01659],72,44,hard,plus,dotcolour,alfa,,,132,34,M,R,
630,0,0,15,5,33,47,11084,['n'],1,right,['8'],3,554,[-0.05819283],67,47,medium,minus,dotcolour,alfa,,,132,34,M,R,
631,1,1,15,5,44,36,2167,['n'],0,left,['2'],5,686,[0.07984692],30,44,hard,minus,dotcolour,alfa,,,132,34,M,R,
632,2,2,15,5,33,47,8933,['c'],0,right,['2'],5,2638,[0.01001026],51,47,medium,minus,dotcolour,alfa,,,132,34,M,R,
633,3,3,15,5,53,27,1033,['c'],1,left,['1'],6,267,[0.14354685],92,53,easy,minus,dotcolour,alfa,,,132,34,M,R,
634,4,4,15,5,33,47,1084,['n'],1,right,['1'],6,279,[-0.12685458],90,47,medium,minus,dotcolour,alfa,,,132,34,M,R,
635,5,5,15,5,36,44,5066,['c'],0,right,['2'],5,426,[0.08727132],77,44,hard,minus,dotcolour,alfa,,,132,34,M,R,
636,6,6,15,5,27,53,2734,['c'],0,right,['2'],5,397,[0.00536169],52,53,easy,minus,dotcolour,alfa,,,132,34,M,R,
637,7,7,15,5,47,33,934,['c'],1,left,['2'],5,353,[0.1015594],82,47,medium,minus,dotcolour,alfa,,,132,34,M,R,
638,8,8,15,5,27,53,5317,['c'],0,right,['2'],5,520,[0.00022425],50,53,easy,minus,dotcolour,alfa,,,132,34,M,R,
639,9,9,15,5,47,33,783,['n'],0,left,['2'],5,221,[-0.09652093],86,47,medium,minus,dotcolour,alfa,,,132,34,M,R,
640,10,10,15,5,47,33,1401,['c'],1,left,['2'],5,230,[0.13446407],93,47,medium,minus,dotcolour,alfa,,,132,34,M,R,
641,11,11,15,5,33,47,633,['n'],1,right,['2'],5,172,[-0.114495],92,47,medium,minus,dotcolour,alfa,,,132,34,M,R,
642,12,12,15,5,47,33,1134,['c'],1,left,['2'],5,282,[0.16183151],94,47,medium,minus,dotcolour,alfa,,,132,34,M,R,
643,13,13,15,5,36,44,434,['n'],1,right,['2'],5,230,[-0.14676763],94,44,hard,minus,dotcolour,alfa,,,132,34,M,R,
644,14,14,15,5,33,47,584,['n'],1,right,['2'],5,214,[-0.03979114],68,47,medium,minus,dotcolour,alfa,,,132,34,M,R,
645,15,15,15,5,44,36,817,['c'],1,left,['2'],5,359,[0.11432266],85,44,hard,minus,dotcolour,alfa,,,132,34,M,R,
646,16,16,15,5,33,47,3900,['c'],0,right,['2'],5,301,[0.00431218],52,47,medium,minus,dotcolour,alfa,,,132,34,M,R,
647,17,17,15,5,33,47,567,['n'],1,right,['8'],3,2764,[-0.27016379],81,47,medium,minus,dotcolour,alfa,,,132,34,M,R,
648,18,18,15,5,53,27,12566,['c'],1,left,['2'],5,431,[0.12961645],86,53,easy,minus,dotcolour,alfa,,,132,34,M,R,
649,19,19,15,5,27,53,3316,['n'],1,right,['2'],5,1571,[-0.54180773],98,53,easy,minus,dotcolour,alfa,,,132,34,M,R,
650,20,20,15,5,47,33,900,['c'],1,left,['2'],5,297,[0.03996654],66,47,medium,minus,dotcolour,alfa,,,132,34,M,R,
651,21,21,15,5,53,27,6217,['n'],0,left,['2'],5,11901,[1.49072106],2,53,easy,minus,dotcolour,alfa,,,132,34,M,R,
652,22,22,15,5,53,27,850,['c'],1,left,['2'],5,246,[0.17139018],96,53,easy,minus,dotcolour,alfa,,,132,34,M,R,
653,23,23,15,5,53,27,733,['c'],1,left,['2'],5,152,[0.02024138],61,53,easy,minus,dotcolour,alfa,,,132,34,M,R,
654,24,24,15,5,36,44,1416,['c'],0,right,['2'],5,379,[0.01455672],55,44,hard,minus,dotcolour,alfa,,,132,34,M,R,
655,25,25,15,5,27,53,667,['n'],1,right,['2'],5,258,[-0.03935895],67,53,easy,minus,dotcolour,alfa,,,132,34,M,R,
656,26,26,15,5,53,27,883,['c'],1,left,['2'],5,197,[0.09984818],88,53,easy,minus,dotcolour,alfa,,,132,34,M,R,
657,27,27,15,5,44,36,666,['c'],1,left,['2'],5,220,[0.12916919],92,44,hard,minus,dotcolour,alfa,,,132,34,M,R,
658,28,28,15,5,36,44,1299,['c'],0,right,['2'],5,289,[0.08417866],80,44,hard,minus,dotcolour,alfa,,,132,34,M,R,
659,29,29,15,5,36,44,867,['c'],0,right,['2'],5,299,[0.00546479],52,44,hard,minus,dotcolour,alfa,,,132,34,M,R,
660,30,30,15,5,47,33,884,['c'],1,left,['2'],5,270,[0.19553079],97,47,medium,minus,dotcolour,alfa,,,132,34,M,R,
661,31,31,15,5,47,33,2916,['c'],1,left,['2'],5,407,[0.0863487],77,47,medium,minus,dotcolour,alfa,,,132,34,M,R,
662,32,32,15,5,27,53,632,['n'],1,right,['2'],5,319,[-0.14674078],91,53,easy,minus,dotcolour,alfa,,,132,34,M,R,
663,33,33,15,5,44,36,850,['c'],1,left,['2'],5,242,[0.08276558],82,44,hard,minus,dotcolour,alfa,,,132,34,M,R,
664,34,34,15,5,44,36,2452,['c'],1,left,['2'],5,255,[0.09122795],84,44,hard,minus,dotcolour,alfa,,,132,34,M,R,
665,35,35,15,5,27,53,684,['n'],1,right,['2'],5,195,[-0.10062576],89,53,easy,minus,dotcolour,alfa,,,132,34,M,R,
666,36,36,15,5,36,44,2833,['n'],1,right,['2'],5,7540,[-0.68336583],90,44,hard,minus,dotcolour,alfa,,,132,34,M,R,
667,37,37,15,5,36,44,784,['n'],1,right,['2'],5,453,[-0.10039425],79,44,hard,minus,dotcolour,alfa,,,132,34,M,R,
668,38,38,15,5,53,27,767,['c'],1,left,['2'],5,230,[0.06838821],78,53,easy,minus,dotcolour,alfa,,,132,34,M,R,
669,39,39,15,5,44,36,1049,['c'],1,left,['1'],6,204,[0.05781244],76,44,hard,minus,dotcolour,alfa,,,132,34,M,R,
670,40,40,15,5,27,53,784,['n'],1,right,['1'],6,271,[-0.19701959],97,53,easy,minus,dotcolour,alfa,,,132,34,M,R,
671,41,41,15,5,44,36,800,['c'],1,left,['1'],6,237,[0.09083628],84,44,hard,minus,dotcolour,alfa,,,132,34,M,R,
672,42,0,16,5,36,44,767,['n'],1,right,['1'],6,346,[-0.11775095],86,44,hard,minus,dotcolour,alfa,,,132,34,M,R,
673,43,1,16,5,27,53,1000,['n'],1,right,['2'],5,2038,[-0.6564657],98,53,easy,minus,dotcolour,alfa,,,132,34,M,R,
674,44,2,16,5,27,53,633,['n'],1,right,['2'],5,195,[-0.1543198],96,53,easy,minus,dotcolour,alfa,,,132,34,M,R,
675,45,3,16,5,36,44,1117,['c'],0,right,['2'],5,216,[0.1562965],95,44,hard,minus,dotcolour,alfa,,,132,34,M,R,
676,46,4,16,5,47,33,651,['n'],0,left,['2'],5,519,[0.04943569],35,47,medium,minus,dotcolour,alfa,,,132,34,M,R,
677,47,5,16,5,44,36,850,['c'],1,left,['1'],6,354,[0.03654492],63,44,hard,minus,dotcolour,alfa,,,132,34,M,R,
678,48,6,16,5,47,33,1384,['c'],1,left,['2'],5,518,[0.03130517],60,47,medium,minus,dotcolour,alfa,,,132,34,M,R,
679,49,7,16,5,27,53,484,['n'],1,right,['2'],5,271,[-0.10345073],86,53,easy,minus,dotcolour,alfa,,,132,34,M,R,
680,50,8,16,5,53,27,1483,['c'],1,left,['1'],6,1722,[0.27567959],87,53,easy,minus,dotcolour,alfa,,,132,34,M,R,
681,51,9,16,5,47,33,10233,['n'],0,left,['2'],5,1685,[0.09805701],34,47,medium,minus,dotcolour,alfa,,,132,34,M,R,
682,52,10,16,5,33,47,866,['c'],0,right,['2'],5,536,[0.01594811],55,47,medium,minus,dotcolour,alfa,,,132,34,M,R,
683,53,11,16,5,47,33,817,['c'],1,left,['1'],6,227,[0.10812665],89,47,medium,minus,dotcolour,alfa,,,132,34,M,R,
684,54,12,16,5,36,44,1067,['n'],1,right,['1'],6,409,[-0.13773685],87,44,hard,minus,dotcolour,alfa,,,132,34,M,R,
685,55,13,16,5,53,27,683,['c'],1,left,['2'],5,725,[0.11193596],77,53,easy,minus,dotcolour,alfa,,,132,34,M,R,
686,56,14,16,5,36,44,1200,['n'],1,right,['2'],5,218,[-0.07990297],82,44,hard,minus,dotcolour,alfa,,,132,34,M,R,
687,57,15,16,5,44,36,1000,['c'],1,left,['1'],6,226,[0.08792887],84,44,hard,minus,dotcolour,alfa,,,132,34,M,R,
688,58,16,16,5,36,44,1583,['n'],1,right,['1'],6,899,[-0.20401947],87,44,hard,minus,dotcolour,alfa,,,132,34,M,R,
689,59,17,16,5,44,36,1250,['c'],1,left,['1'],6,254,[-0.0231532],40,44,hard,minus,dotcolour,alfa,,,132,34,M,R,
690,60,18,16,5,53,27,651,['c'],1,left,['1'],6,180,[0.0434105],72,53,easy,minus,dotcolour,alfa,,,132,34,M,R,
691,61,19,16,5,53,27,650,['c'],1,left,['1'],6,308,[0.12385346],88,53,easy,minus,dotcolour,alfa,,,132,34,M,R,
692,62,20,16,5,33,47,850,['n'],1,right,['1'],6,350,[-0.03843235],64,47,medium,minus,dotcolour,alfa,,,132,34,M,R,
693,63,21,16,5,36,44,1567,['c'],0,right,['1'],6,179,[0.12337206],93,44,hard,minus,dotcolour,alfa,,,132,34,M,R,
694,64,22,16,5,47,33,768,['c'],1,left,['1'],6,254,[0.16801533],95,47,medium,minus,dotcolour,alfa,,,132,34,M,R,
695,65,23,16,5,27,53,700,['c'],0,right,['2'],5,378,[0.05276325],68,53,easy,minus,dotcolour,alfa,,,132,34,M,R,
696,66,24,16,5,27,53,1217,['n'],1,right,['1'],6,252,[-0.12536342],90,53,easy,minus,dotcolour,alfa,,,132,34,M,R,
697,67,25,16,5,27,53,600,['n'],1,right,['1'],6,339,[-0.07432551],76,53,easy,minus,dotcolour,alfa,,,132,34,M,R,
698,68,26,16,5,44,36,2700,['c'],1,left,['2'],5,298,[0.11646016],87,44,hard,minus,dotcolour,alfa,,,132,34,M,R,
699,69,27,16,5,33,47,1450,['c'],0,right,['2'],5,229,[0.08103954],82,47,medium,minus,dotcolour,alfa,,,132,34,M,R,
700,70,28,16,5,33,47,1516,['n'],1,right,['2'],5,593,[-0.03533513],60,47,medium,minus,dotcolour,alfa,,,132,34,M,R,
701,71,29,16,5,27,53,783,['n'],1,right,['2'],5,1019,[-0.14363524],78,53,easy,minus,dotcolour,alfa,,,132,34,M,R,
702,72,30,16,5,36,44,733,['n'],1,right,['2'],5,333,[-0.12454201],87,44,hard,minus,dotcolour,alfa,,,132,34,M,R,
703,73,31,16,5,33,47,767,['n'],1,right,['2'],5,299,[0.09095701],18,47,medium,minus,dotcolour,alfa,,,132,34,M,R,
704,74,32,16,5,44,36,3385,['c'],1,left,['2'],5,289,[0.05176288],70,44,hard,minus,dotcolour,alfa,,,132,34,M,R,
705,75,33,16,5,53,27,667,['n'],0,left,['2'],5,1100,[0.11795074],27,53,easy,minus,dotcolour,alfa,,,132,34,M,R,
706,76,34,16,5,44,36,717,['c'],1,left,['2'],5,396,[0.14757709],89,44,hard,minus,dotcolour,alfa,,,132,34,M,R,
707,77,35,16,5,53,27,1000,['c'],1,left,['2'],5,189,[0.08559518],85,53,easy,minus,dotcolour,alfa,,,132,34,M,R,
708,78,36,16,5,47,33,550,['c'],1,left,['2'],5,249,[0.12970309],91,47,medium,minus,dotcolour,alfa,,,132,34,M,R,
709,79,37,16,5,53,27,750,['c'],1,left,['2'],5,242,[0.20315158],98,53,easy,minus,dotcolour,alfa,,,132,34,M,R,
710,80,38,16,5,47,33,700,['c'],1,left,['2'],5,341,[0.13477202],89,47,medium,minus,dotcolour,alfa,,,132,34,M,R,
711,81,39,16,5,44,36,8433,['n'],0,left,['2'],5,375,[-0.00711135],53,44,hard,minus,dotcolour,alfa,,,132,34,M,R,
712,82,40,16,5,33,47,950,['n'],1,right,['2'],5,219,[-0.06100091],76,47,medium,minus,dotcolour,alfa,,,132,34,M,R,
713,83,41,16,5,33,47,700,['n'],1,right,['1'],6,200,[-0.1331326],94,47,medium,minus,dotcolour,alfa,,,132,34,M,R,
714,84,0,17,5,27,53,850,['n'],1,right,['2'],5,1317,[-0.15965561],78,53,easy,minus,dotcolour,alfa,,,132,34,M,R,
715,85,1,17,5,44,36,1583,['c'],1,left,['1'],6,266,[0.12081851],89,44,hard,minus,dotcolour,alfa,,,132,34,M,R,
716,86,2,17,5,33,47,716,['c'],0,right,['1'],6,211,[0.06122346],77,47,medium,minus,dotcolour,alfa,,,132,34,M,R,
717,87,3,17,5,47,33,633,['c'],1,left,['1'],6,251,[0.13117743],91,47,medium,minus,dotcolour,alfa,,,132,34,M,R,
718,88,4,17,5,33,47,1800,['n'],1,right,['1'],6,242,[-0.06594176],77,47,medium,minus,dotcolour,alfa,,,132,34,M,R,
719,89,5,17,5,47,33,650,['c'],1,left,['1'],6,216,[0.1057668],89,47,medium,minus,dotcolour,alfa,,,132,34,M,R,
720,90,6,17,5,36,44,884,['n'],1,right,['1'],6,725,[-0.10338864],75,44,hard,minus,dotcolour,alfa,,,132,34,M,R,
721,91,7,17,5,36,44,633,['c'],0,right,['1'],6,216,[-0.03078929],36,44,hard,minus,dotcolour,alfa,,,132,34,M,R,
722,92,8,17,5,36,44,717,['c'],0,right,['1'],6,220,[0.01227071],56,44,hard,minus,dotcolour,alfa,,,132,34,M,R,
723,93,9,17,5,53,27,583,['c'],1,left,['1'],6,213,[0.1587843],96,53,easy,minus,dotcolour,alfa,,,132,34,M,R,
724,94,10,17,5,36,44,467,['c'],0,right,['1'],6,339,[0.02395251],59,44,hard,minus,dotcolour,alfa,,,132,34,M,R,
725,95,11,17,5,44,36,450,['c'],1,left,['1'],6,325,[0.12518575],88,44,hard,minus,dotcolour,alfa,,,132,34,M,R,
726,96,12,17,5,47,33,901,['c'],1,left,['1'],6,197,[0.1947277],98,47,medium,minus,dotcolour,alfa,,,132,34,M,R,
727,97,13,17,5,53,27,533,['c'],1,left,['1'],6,241,[0.08812654],83,53,easy,minus,dotcolour,alfa,,,132,34,M,R,
728,98,14,17,5,44,36,467,['c'],1,left,['1'],6,285,[0.11895354],88,44,hard,minus,dotcolour,alfa,,,132,34,M,R,
729,99,15,17,5,47,33,484,['c'],1,left,['1'],6,296,[0.09376832],83,47,medium,minus,dotcolour,alfa,,,132,34,M,R,
730,100,16,17,5,36,44,1483,['c'],0,right,['2'],5,266,[0.06295759],75,44,hard,minus,dotcolour,alfa,,,132,34,M,R,
731,101,17,17,5,33,47,667,['n'],1,right,['2'],5,302,[-0.14302866],91,47,medium,minus,dotcolour,alfa,,,132,34,M,R,
732,102,18,17,5,53,27,417,['n'],0,left,['1'],6,379,[-0.01122204],54,53,easy,minus,dotcolour,alfa,,,132,34,M,R,
733,103,19,17,5,33,47,1750,['c'],0,right,['1'],6,327,[0.00170854],51,47,medium,minus,dotcolour,alfa,,,132,34,M,R,
734,104,20,17,5,47,33,483,['n'],0,left,['1'],6,416,[0.0738669],26,47,medium,minus,dotcolour,alfa,,,132,34,M,R,
735,105,21,17,5,33,47,3701,['n'],1,right,['2'],5,4029,[-0.1827474],69,47,medium,minus,dotcolour,alfa,,,132,34,M,R,
736,106,22,17,5,47,33,1151,['c'],1,left,['1'],6,373,[0.11874911],85,47,medium,minus,dotcolour,alfa,,,132,34,M,R,
737,107,23,17,5,44,36,850,['n'],0,left,['1'],6,317,[-0.01171883],55,44,hard,minus,dotcolour,alfa,,,132,34,M,R,
738,108,24,17,5,33,47,700,['n'],1,right,['1'],6,190,[-0.07437443],82,47,medium,minus,dotcolour,alfa,,,132,34,M,R,
739,109,25,17,5,27,53,567,['n'],1,right,['1'],6,240,[-0.1591422],95,53,easy,minus,dotcolour,alfa,,,132,34,M,R,
740,110,26,17,5,27,53,517,['n'],1,right,['1'],6,228,[-0.06478089],77,53,easy,minus,dotcolour,alfa,,,132,34,M,R,
741,111,27,17,5,27,53,434,['n'],1,right,['1'],6,226,[0.00135856],49,53,easy,minus,dotcolour,alfa,,,132,34,M,R,
742,112,28,17,5,47,33,817,['c'],1,left,['1'],6,361,[0.15672868],91,47,medium,minus,dotcolour,alfa,,,132,34,M,R,
743,113,29,17,5,44,36,5166,['c'],1,left,['1'],6,246,[0.0845453],82,44,hard,minus,dotcolour,alfa,,,132,34,M,R,
744,114,30,17,5,53,27,816,['c'],1,left,['1'],6,252,[0.15715658],94,53,easy,minus,dotcolour,alfa,,,132,34,M,R,
745,115,31,17,5,36,44,983,['n'],1,right,['1'],6,445,[-0.12041468],84,44,hard,minus,dotcolour,alfa,,,132,34,M,R,
746,116,32,17,5,27,53,717,['n'],1,right,['1'],6,167,[-0.12407661],94,53,easy,minus,dotcolour,alfa,,,132,34,M,R,
747,117,33,17,5,27,53,2733,['c'],0,right,['1'],6,260,[-0.01550568],43,53,easy,minus,dotcolour,alfa,,,132,34,M,R,
748,118,34,17,5,36,44,617,['n'],1,right,['1'],6,235,[-0.08222228],82,44,hard,minus,dotcolour,alfa,,,132,34,M,R,
749,119,35,17,5,44,36,717,['c'],1,left,['1'],6,245,[0.01742112],58,44,hard,minus,dotcolour,alfa,,,132,34,M,R,
750,120,36,17,5,53,27,667,['c'],1,left,['1'],6,1178,[0.11690886],72,53,easy,minus,dotcolour,alfa,,,132,34,M,R,
751,121,37,17,5,33,47,600,['n'],1,right,['1'],6,172,[-0.14970682],96,47,medium,minus,dotcolour,alfa,,,132,34,M,R,
752,122,38,17,5,27,53,1134,['c'],0,right,['1'],6,242,[0.06034373],75,53,easy,minus,dotcolour,alfa,,,132,34,M,R,
753,123,39,17,5,53,27,1816,['c'],1,left,['1'],6,313,[0.09822783],83,53,easy,minus,dotcolour,alfa,,,132,34,M,R,
754,124,40,17,5,44,36,550,['n'],0,left,['1'],6,311,[-0.06479662],74,44,hard,minus,dotcolour,alfa,,,132,34,M,R,
755,125,41,17,5,53,27,783,['c'],1,left,['1'],6,180,[0.12598541],94,53,easy,minus,dotcolour,alfa,,,132,34,M,R,
,,,,,,,,,,,,,,,,,,,,,1,bij sommige oefeningen gaf ik het correcte antwoord en correcte inschatting en ging het percentage naar beneden,132,34,M,R,
,,,,,,,,,,,,,,,,,,,,,2,['g'],132,34,M,R,
,,,,,,,,,,,,,,,,,,,,,3,['h'],132,34,M,R,
,,,,,,,,,,,,,,,,,,,,,5,[],132,34,M,R,
