trial,withinphasetrial,withinblocktrial,block,phase,dotsLeft,dotsRight,rt,resp,cor,cresp,conf_press,cj,RTconf,ev,fb,diff,difflevel,condition,task,manip,questionID,questionResp,sub,age,gender,handedness,
0,0,0,0,0,47,33,1134,['c'],1,left,['9'],5,1282,[0.00071913],51,47,medium,plus,dotcolour,alfa,,,118,18,V,R,
1,1,1,0,0,47,33,1084,['n'],0,left,['8'],4,1284,[0.02533205],31,47,medium,plus,dotcolour,alfa,,,118,18,V,R,
2,2,2,0,0,53,27,868,['c'],1,left,['0'],6,566,[0.21248289],100,53,easy,plus,dotcolour,alfa,,,118,18,V,R,
3,3,3,0,0,44,36,1650,['c'],1,left,['0'],6,407,[0.23267495],100,44,hard,plus,dotcolour,alfa,,,118,18,V,R,
4,4,4,0,0,36,44,768,['n'],1,right,['0'],6,569,[-0.0704326],97,44,hard,plus,dotcolour,alfa,,,118,18,V,R,
5,5,5,0,0,47,33,1384,['n'],0,left,['9'],5,379,[-0.0016788],52,47,medium,plus,dotcolour,alfa,,,118,18,V,R,
6,6,6,0,0,53,27,1184,['c'],1,left,['0'],6,486,[0.16433738],100,53,easy,plus,dotcolour,alfa,,,118,18,V,R,
7,7,7,0,0,47,33,1534,['n'],0,left,['8'],4,335,[0.02035323],22,47,medium,plus,dotcolour,alfa,,,118,18,V,R,
8,8,8,0,0,27,53,1400,['n'],1,right,['0'],6,427,[-0.07769031],99,53,easy,plus,dotcolour,alfa,,,118,18,V,R,
9,9,9,0,0,27,53,1367,['n'],1,right,['0'],6,364,[-0.02346152],80,53,easy,plus,dotcolour,alfa,,,118,18,V,R,
10,10,10,0,0,33,47,1100,['n'],1,right,['0'],6,443,[-0.12989808],100,47,medium,plus,dotcolour,alfa,,,118,18,V,R,
11,11,11,0,0,53,27,750,['c'],1,left,['9'],5,1164,[0.36075349],100,53,easy,plus,dotcolour,alfa,,,118,18,V,R,
12,12,12,0,0,47,33,1884,['n'],0,left,['8'],4,531,[0.15152628],0,47,medium,plus,dotcolour,alfa,,,118,18,V,R,
13,13,13,0,0,44,36,1151,['n'],0,left,['8'],4,561,[-0.09678321],99,44,hard,plus,dotcolour,alfa,,,118,18,V,R,
14,14,14,0,0,47,33,850,['c'],1,left,['8'],4,362,[0.1644455],100,47,medium,plus,dotcolour,alfa,,,118,18,V,R,
15,15,15,0,0,36,44,750,['n'],1,right,['8'],4,279,[-0.11936237],100,44,hard,plus,dotcolour,alfa,,,118,18,V,R,
16,16,16,0,0,33,47,1067,['n'],1,right,['9'],5,394,[-0.00317739],55,47,medium,plus,dotcolour,alfa,,,118,18,V,R,
17,17,17,0,0,44,36,1067,['n'],0,left,['8'],4,257,[-0.10020596],100,44,hard,plus,dotcolour,alfa,,,118,18,V,R,
18,18,18,0,0,44,36,1650,['c'],1,left,['3'],3,1029,[0.09212275],96,44,hard,plus,dotcolour,alfa,,,118,18,V,R,
19,19,19,0,0,27,53,834,['n'],1,right,['9'],5,948,[-0.15359447],100,53,easy,plus,dotcolour,alfa,,,118,18,V,R,
20,20,20,0,0,44,36,1034,['n'],0,left,['8'],4,486,[-0.05919067],96,44,hard,plus,dotcolour,alfa,,,118,18,V,R,
21,21,21,0,0,53,27,800,['c'],1,left,['9'],5,236,[0.12079833],100,53,easy,plus,dotcolour,alfa,,,118,18,V,R,
22,22,22,0,0,33,47,968,['n'],1,right,['0'],6,349,[-0.04783677],95,47,medium,plus,dotcolour,alfa,,,118,18,V,R,
23,23,23,0,0,27,53,700,['n'],1,right,['0'],6,397,[-0.06481107],98,53,easy,plus,dotcolour,alfa,,,118,18,V,R,
24,24,24,0,0,33,47,1017,['n'],1,right,['8'],4,605,[-0.14606634],100,47,medium,plus,dotcolour,alfa,,,118,18,V,R,
25,25,25,0,0,44,36,1017,['n'],0,left,['8'],4,325,[-0.00989106],65,44,hard,plus,dotcolour,alfa,,,118,18,V,R,
26,26,26,0,0,33,47,817,['n'],1,right,['9'],5,409,[-0.17412788],100,47,medium,plus,dotcolour,alfa,,,118,18,V,R,
27,27,27,0,0,27,53,901,['n'],1,right,['0'],6,309,[-0.13960059],100,53,easy,plus,dotcolour,alfa,,,118,18,V,R,
28,28,28,0,0,27,53,1001,['n'],1,right,['0'],6,274,[-0.01261592],70,53,easy,plus,dotcolour,alfa,,,118,18,V,R,
29,29,29,0,0,36,44,849,['n'],1,right,['8'],4,310,[-0.07487191],99,44,hard,plus,dotcolour,alfa,,,118,18,V,R,
30,30,30,0,0,27,53,1367,['c'],0,right,['3'],3,452,[-0.13182958],0,53,easy,plus,dotcolour,alfa,,,118,18,V,R,
31,31,31,0,0,36,44,1517,['n'],1,right,['0'],6,279,[-0.05275346],97,44,hard,plus,dotcolour,alfa,,,118,18,V,R,
32,32,32,0,0,44,36,2084,['n'],0,left,['8'],4,313,[-0.10065881],100,44,hard,plus,dotcolour,alfa,,,118,18,V,R,
33,33,33,0,0,53,27,684,['c'],1,left,['0'],6,267,[0.08813238],100,53,easy,plus,dotcolour,alfa,,,118,18,V,R,
34,34,34,0,0,33,47,1833,['c'],0,right,['9'],5,312,[0.0816586],99,47,medium,plus,dotcolour,alfa,,,118,18,V,R,
35,35,35,0,0,33,47,867,['c'],0,right,['0'],6,218,[0.07480681],100,47,medium,plus,dotcolour,alfa,,,118,18,V,R,
36,36,36,0,0,36,44,1700,['c'],0,right,['8'],4,343,[0.0244207],82,44,hard,plus,dotcolour,alfa,,,118,18,V,R,
37,37,37,0,0,53,27,983,['c'],1,left,['0'],6,530,[0.15669357],100,53,easy,plus,dotcolour,alfa,,,118,18,V,R,
38,38,38,0,0,53,27,566,['c'],1,left,['0'],6,248,[0.09558878],100,53,easy,plus,dotcolour,alfa,,,118,18,V,R,
39,39,39,0,0,47,33,964,['c'],1,left,['8'],4,216,[0.08780099],100,47,medium,plus,dotcolour,alfa,,,118,18,V,R,
40,40,40,0,0,36,44,1349,['n'],1,right,['8'],4,307,[-0.19091238],100,44,hard,plus,dotcolour,alfa,,,118,18,V,R,
41,41,41,0,0,36,44,1548,['c'],0,right,['8'],4,490,[0.14655061],100,44,hard,plus,dotcolour,alfa,,,118,18,V,R,
42,42,0,1,0,53,27,950,['c'],1,left,['9'],5,335,[0.04010224],92,53,easy,plus,dotcolour,alfa,,,118,18,V,R,
43,43,1,1,0,36,44,1148,['n'],1,right,['0'],6,285,[0.03384959],9,44,hard,plus,dotcolour,alfa,,,118,18,V,R,
44,44,2,1,0,44,36,848,['c'],1,left,['8'],4,249,[-0.01001661],33,44,hard,plus,dotcolour,alfa,,,118,18,V,R,
45,45,3,1,0,27,53,714,['n'],1,right,['0'],6,300,[-0.10602811],100,53,easy,plus,dotcolour,alfa,,,118,18,V,R,
46,46,4,1,0,27,53,900,['n'],1,right,['0'],6,293,[-0.10358697],100,53,easy,plus,dotcolour,alfa,,,118,18,V,R,
47,47,5,1,0,36,44,647,['n'],1,right,['0'],6,312,[-0.01553145],73,44,hard,plus,dotcolour,alfa,,,118,18,V,R,
48,48,6,1,0,36,44,1232,['n'],1,right,['0'],6,228,[-0.03827406],95,44,hard,plus,dotcolour,alfa,,,118,18,V,R,
49,49,7,1,0,53,27,782,['c'],1,left,['9'],5,228,[0.13958268],100,53,easy,plus,dotcolour,alfa,,,118,18,V,R,
50,50,8,1,0,44,36,981,['n'],0,left,['8'],4,285,[-0.05488147],98,44,hard,plus,dotcolour,alfa,,,118,18,V,R,
51,51,9,1,0,33,47,765,['c'],0,right,['8'],4,204,[-0.01576177],22,47,medium,plus,dotcolour,alfa,,,118,18,V,R,
52,52,10,1,0,27,53,965,['n'],1,right,['0'],6,301,[-0.1238279],100,53,easy,plus,dotcolour,alfa,,,118,18,V,R,
53,53,11,1,0,47,33,749,['c'],1,left,['8'],4,213,[0.01569798],77,47,medium,plus,dotcolour,alfa,,,118,18,V,R,
54,54,12,1,0,36,44,966,['n'],1,right,['0'],6,279,[-0.1347602],100,44,hard,plus,dotcolour,alfa,,,118,18,V,R,
55,55,13,1,0,47,33,865,['c'],1,left,['8'],4,154,[0.0638427],100,47,medium,plus,dotcolour,alfa,,,118,18,V,R,
56,56,14,1,0,36,44,867,['n'],1,right,['0'],6,258,[-0.08678483],100,44,hard,plus,dotcolour,alfa,,,118,18,V,R,
57,57,15,1,0,53,27,683,['c'],1,left,['8'],4,198,[0.1191432],100,53,easy,plus,dotcolour,alfa,,,118,18,V,R,
58,58,16,1,0,33,47,1165,['n'],1,right,['0'],6,249,[-0.13930238],100,47,medium,plus,dotcolour,alfa,,,118,18,V,R,
59,59,17,1,0,53,27,599,['c'],1,left,['0'],6,536,[0.1491074],100,53,easy,plus,dotcolour,alfa,,,118,18,V,R,
60,60,18,1,0,47,33,782,['c'],1,left,['9'],5,204,[0.05834312],99,47,medium,plus,dotcolour,alfa,,,118,18,V,R,
61,61,19,1,0,33,47,1114,['c'],0,right,['8'],4,185,[0.05283318],99,47,medium,plus,dotcolour,alfa,,,118,18,V,R,
62,62,20,1,0,47,33,750,['c'],1,left,['9'],5,197,[0.15701567],100,47,medium,plus,dotcolour,alfa,,,118,18,V,R,
63,63,21,1,0,27,53,982,['n'],1,right,['0'],6,310,[-0.17663301],100,53,easy,plus,dotcolour,alfa,,,118,18,V,R,
64,64,22,1,0,44,36,815,['n'],0,left,['0'],6,235,[-0.01909125],80,44,hard,plus,dotcolour,alfa,,,118,18,V,R,
65,65,23,1,0,33,47,931,['n'],1,right,['9'],5,286,[-0.1329592],100,47,medium,plus,dotcolour,alfa,,,118,18,V,R,
66,66,24,1,0,27,53,865,['n'],1,right,['9'],5,337,[-0.0448797],94,53,easy,plus,dotcolour,alfa,,,118,18,V,R,
67,67,25,1,0,47,33,582,['c'],1,left,['9'],5,190,[0.06860518],100,47,medium,plus,dotcolour,alfa,,,118,18,V,R,
68,68,26,1,0,33,47,683,['n'],1,right,['9'],5,244,[-0.2726458],100,47,medium,plus,dotcolour,alfa,,,118,18,V,R,
69,69,27,1,0,33,47,798,['c'],0,right,['8'],4,235,[0.09186264],100,47,medium,plus,dotcolour,alfa,,,118,18,V,R,
70,70,28,1,0,53,27,849,['c'],1,left,['0'],6,321,[0.16723848],100,53,easy,plus,dotcolour,alfa,,,118,18,V,R,
71,71,29,1,0,33,47,748,['n'],1,right,['0'],6,287,[-0.07553771],99,47,medium,plus,dotcolour,alfa,,,118,18,V,R,
72,72,30,1,0,36,44,833,['n'],1,right,['9'],5,243,[-0.13978542],100,44,hard,plus,dotcolour,alfa,,,118,18,V,R,
73,73,31,1,0,44,36,748,['c'],1,left,['9'],5,245,[0.11375955],100,44,hard,plus,dotcolour,alfa,,,118,18,V,R,
74,74,32,1,0,36,44,966,['c'],0,right,['1'],1,1373,[-0.12120525],2,44,hard,plus,dotcolour,alfa,,,118,18,V,R,
75,75,33,1,0,44,36,1330,['n'],0,left,['8'],4,274,[-0.0861373],100,44,hard,plus,dotcolour,alfa,,,118,18,V,R,
76,76,34,1,0,44,36,949,['c'],1,left,['9'],5,458,[0.01654417],71,44,hard,plus,dotcolour,alfa,,,118,18,V,R,
77,77,35,1,0,27,53,781,['n'],1,right,['0'],6,305,[-0.13915661],100,53,easy,plus,dotcolour,alfa,,,118,18,V,R,
78,78,36,1,0,47,33,682,['c'],1,left,['9'],5,266,[0.05453246],98,47,medium,plus,dotcolour,alfa,,,118,18,V,R,
79,79,37,1,0,44,36,598,['c'],1,left,['9'],5,329,[0.04352649],94,44,hard,plus,dotcolour,alfa,,,118,18,V,R,
80,80,38,1,0,53,27,633,['c'],1,left,['0'],6,404,[0.15109059],100,53,easy,plus,dotcolour,alfa,,,118,18,V,R,
81,81,39,1,0,53,27,665,['c'],1,left,['9'],5,290,[0.09436055],100,53,easy,plus,dotcolour,alfa,,,118,18,V,R,
82,82,40,1,0,27,53,599,['n'],1,right,['0'],6,271,[-0.15179653],100,53,easy,plus,dotcolour,alfa,,,118,18,V,R,
83,83,41,1,0,47,33,580,['c'],1,left,['9'],5,246,[0.10336277],100,47,medium,plus,dotcolour,alfa,,,118,18,V,R,
84,84,0,2,0,47,33,800,['c'],1,left,['9'],5,248,[0.04095789],95,47,medium,plus,dotcolour,alfa,,,118,18,V,R,
85,85,1,2,0,36,44,682,['n'],1,right,['0'],6,220,[-0.14386842],100,44,hard,plus,dotcolour,alfa,,,118,18,V,R,
86,86,2,2,0,44,36,815,['n'],0,left,['9'],5,653,[-0.12066447],100,44,hard,plus,dotcolour,alfa,,,118,18,V,R,
87,87,3,2,0,36,44,831,['c'],0,right,['9'],5,194,[0.00613447],62,44,hard,plus,dotcolour,alfa,,,118,18,V,R,
88,88,4,2,0,27,53,699,['n'],1,right,['9'],5,279,[-0.11529507],100,53,easy,plus,dotcolour,alfa,,,118,18,V,R,
89,89,5,2,0,44,36,765,['n'],0,left,['8'],4,294,[-0.00250867],54,44,hard,plus,dotcolour,alfa,,,118,18,V,R,
90,90,6,2,0,47,33,648,['c'],1,left,['9'],5,226,[0.06451623],99,47,medium,plus,dotcolour,alfa,,,118,18,V,R,
91,91,7,2,0,33,47,798,['n'],1,right,['8'],4,258,[-0.12134378],100,47,medium,plus,dotcolour,alfa,,,118,18,V,R,
92,92,8,2,0,33,47,1213,['n'],1,right,['9'],5,296,[-0.05685282],98,47,medium,plus,dotcolour,alfa,,,118,18,V,R,
93,93,9,2,0,53,27,515,['c'],1,left,['9'],5,296,[0.18714078],100,53,easy,plus,dotcolour,alfa,,,118,18,V,R,
94,94,10,2,0,27,53,980,['c'],0,right,['9'],5,270,[0.05250292],97,53,easy,plus,dotcolour,alfa,,,118,18,V,R,
95,95,11,2,0,33,47,948,['n'],1,right,['9'],5,182,[-0.10466301],100,47,medium,plus,dotcolour,alfa,,,118,18,V,R,
96,96,12,2,0,44,36,634,['c'],1,left,['9'],5,199,[0.10491065],100,44,hard,plus,dotcolour,alfa,,,118,18,V,R,
97,97,13,2,0,33,47,615,['c'],0,right,['9'],5,136,[-0.02341648],9,47,medium,plus,dotcolour,alfa,,,118,18,V,R,
98,98,14,2,0,53,27,716,['c'],1,left,['9'],5,223,[0.13695322],100,53,easy,plus,dotcolour,alfa,,,118,18,V,R,
99,99,15,2,0,36,44,765,['n'],1,right,['9'],5,208,[-0.03414913],94,44,hard,plus,dotcolour,alfa,,,118,18,V,R,
100,100,16,2,0,47,33,848,['c'],1,left,['8'],4,215,[0.0149225],76,47,medium,plus,dotcolour,alfa,,,118,18,V,R,
101,101,17,2,0,53,27,664,['c'],1,left,['9'],5,205,[0.01195966],72,53,easy,plus,dotcolour,alfa,,,118,18,V,R,
102,102,18,2,0,27,53,916,['n'],1,right,['9'],5,233,[-0.05789613],99,53,easy,plus,dotcolour,alfa,,,118,18,V,R,
103,103,19,2,0,33,47,583,['n'],1,right,['9'],5,241,[-0.05770308],99,47,medium,plus,dotcolour,alfa,,,118,18,V,R,
104,104,20,2,0,53,27,549,['c'],1,left,['9'],5,283,[0.16385348],100,53,easy,plus,dotcolour,alfa,,,118,18,V,R,
105,105,21,2,0,36,44,998,['n'],1,right,['8'],4,505,[-0.11594744],100,44,hard,plus,dotcolour,alfa,,,118,18,V,R,
106,106,22,2,0,53,27,615,['c'],1,left,['9'],5,181,[0.07743487],100,53,easy,plus,dotcolour,alfa,,,118,18,V,R,
107,107,23,2,0,33,47,733,['n'],1,right,['9'],5,529,[-0.15276787],100,47,medium,plus,dotcolour,alfa,,,118,18,V,R,
108,108,24,2,0,36,44,1381,['n'],1,right,['8'],4,310,[-0.102444],100,44,hard,plus,dotcolour,alfa,,,118,18,V,R,
109,109,25,2,0,27,53,1067,['n'],1,right,['0'],6,232,[-0.09144587],100,53,easy,plus,dotcolour,alfa,,,118,18,V,R,
110,110,26,2,0,44,36,581,['c'],1,left,['9'],5,233,[0.13262338],100,44,hard,plus,dotcolour,alfa,,,118,18,V,R,
111,111,27,2,0,36,44,715,['n'],1,right,['9'],5,284,[-0.03526962],92,44,hard,plus,dotcolour,alfa,,,118,18,V,R,
112,112,28,2,0,44,36,782,['c'],1,left,['9'],5,227,[0.05428299],98,44,hard,plus,dotcolour,alfa,,,118,18,V,R,
113,113,29,2,0,53,27,617,['c'],1,left,['0'],6,442,[0.15577777],100,53,easy,plus,dotcolour,alfa,,,118,18,V,R,
114,114,30,2,0,47,33,598,['n'],0,left,['1'],1,1049,[0.13813544],1,47,medium,plus,dotcolour,alfa,,,118,18,V,R,
115,115,31,2,0,27,53,649,['n'],1,right,['9'],5,215,[-0.03284991],93,53,easy,plus,dotcolour,alfa,,,118,18,V,R,
116,116,32,2,0,33,47,1065,['n'],1,right,['0'],6,309,[-0.09542614],100,47,medium,plus,dotcolour,alfa,,,118,18,V,R,
117,117,33,2,0,53,27,666,['c'],1,left,['9'],5,166,[0.16310327],100,53,easy,plus,dotcolour,alfa,,,118,18,V,R,
118,118,34,2,0,47,33,632,['c'],1,left,['9'],5,232,[0.07235846],100,47,medium,plus,dotcolour,alfa,,,118,18,V,R,
119,119,35,2,0,27,53,665,['n'],1,right,['0'],6,293,[-0.13665322],100,53,easy,plus,dotcolour,alfa,,,118,18,V,R,
120,120,36,2,0,44,36,566,['c'],1,left,['9'],5,228,[0.07236266],100,44,hard,plus,dotcolour,alfa,,,118,18,V,R,
121,121,37,2,0,27,53,932,['n'],1,right,['0'],6,191,[-0.12722673],100,53,easy,plus,dotcolour,alfa,,,118,18,V,R,
122,122,38,2,0,36,44,864,['n'],1,right,['9'],5,229,[-0.02242729],84,44,hard,plus,dotcolour,alfa,,,118,18,V,R,
123,123,39,2,0,44,36,748,['c'],1,left,['0'],6,639,[0.13122361],100,44,hard,plus,dotcolour,alfa,,,118,18,V,R,
124,124,40,2,0,47,33,749,['c'],1,left,['9'],5,201,[0.12370606],100,47,medium,plus,dotcolour,alfa,,,118,18,V,R,
125,125,41,2,0,47,33,632,['c'],1,left,['0'],6,272,[0.10153253],100,47,medium,plus,dotcolour,alfa,,,118,18,V,R,
126,0,0,3,1,53,27,983,['c'],1,left,['0'],6,245,[0.17811608],96,53,easy,minus,dotcolour,alfa,,,118,18,V,R,
127,1,1,3,1,44,36,666,['c'],1,left,['0'],6,305,[0.03529504],64,44,hard,minus,dotcolour,alfa,,,118,18,V,R,
128,2,2,3,1,47,33,648,['c'],1,left,['0'],6,308,[0.20753532],97,47,medium,minus,dotcolour,alfa,,,118,18,V,R,
129,3,3,3,1,36,44,1066,['n'],1,right,['0'],6,238,[-0.07606818],80,44,hard,minus,dotcolour,alfa,,,118,18,V,R,
130,4,4,3,1,44,36,698,['c'],1,left,['0'],6,210,[0.11228706],90,44,hard,minus,dotcolour,alfa,,,118,18,V,R,
131,5,5,3,1,53,27,500,['c'],1,left,['0'],6,350,[0.07562852],76,53,easy,minus,dotcolour,alfa,,,118,18,V,R,
132,6,6,3,1,44,36,615,['c'],1,left,['0'],6,368,[0.04376057],66,44,hard,minus,dotcolour,alfa,,,118,18,V,R,
133,7,7,3,1,33,47,1130,['n'],1,right,['0'],6,254,[-0.13755956],92,47,medium,minus,dotcolour,alfa,,,118,18,V,R,
134,8,8,3,1,33,47,883,['n'],1,right,['0'],6,249,[-0.15222157],94,47,medium,minus,dotcolour,alfa,,,118,18,V,R,
135,9,9,3,1,53,27,616,['c'],1,left,['0'],6,248,[0.17990718],96,53,easy,minus,dotcolour,alfa,,,118,18,V,R,
136,10,10,3,1,47,33,666,['n'],0,left,['9'],5,276,[-0.03513101],65,47,medium,minus,dotcolour,alfa,,,118,18,V,R,
137,11,11,3,1,36,44,582,['n'],1,right,['0'],6,251,[0.03506621],35,44,hard,minus,dotcolour,alfa,,,118,18,V,R,
138,12,12,3,1,33,47,1049,['n'],1,right,['0'],6,232,[-0.10749434],88,47,medium,minus,dotcolour,alfa,,,118,18,V,R,
139,13,13,3,1,47,33,716,['c'],1,left,['8'],4,180,[0.11272928],92,47,medium,minus,dotcolour,alfa,,,118,18,V,R,
140,14,14,3,1,36,44,865,['n'],1,right,['9'],5,227,[-0.11363905],90,44,hard,minus,dotcolour,alfa,,,118,18,V,R,
141,15,15,3,1,44,36,1015,['n'],0,left,['9'],5,282,[-0.06274613],74,44,hard,minus,dotcolour,alfa,,,118,18,V,R,
142,16,16,3,1,33,47,732,['n'],1,right,['0'],6,275,[-0.19136066],96,47,medium,minus,dotcolour,alfa,,,118,18,V,R,
143,17,17,3,1,53,27,616,['c'],1,left,['0'],6,960,[0.21654644],88,53,easy,minus,dotcolour,alfa,,,118,18,V,R,
144,18,18,3,1,53,27,649,['c'],1,left,['9'],5,209,[0.16021505],96,53,easy,minus,dotcolour,alfa,,,118,18,V,R,
145,19,19,3,1,27,53,631,['n'],1,right,['0'],6,200,[-0.15836628],96,53,easy,minus,dotcolour,alfa,,,118,18,V,R,
146,20,20,3,1,27,53,1015,['n'],1,right,['0'],6,225,[-0.08578773],84,53,easy,minus,dotcolour,alfa,,,118,18,V,R,
147,21,21,3,1,47,33,782,['c'],1,left,['0'],6,569,[0.18925733],91,47,medium,minus,dotcolour,alfa,,,118,18,V,R,
148,22,22,3,1,53,27,548,['c'],1,left,['0'],6,254,[0.12147546],90,53,easy,minus,dotcolour,alfa,,,118,18,V,R,
149,23,23,3,1,27,53,815,['n'],1,right,['0'],6,284,[-0.17645536],95,53,easy,minus,dotcolour,alfa,,,118,18,V,R,
150,24,24,3,1,36,44,1051,['n'],1,right,['0'],6,247,[-0.08395425],82,44,hard,minus,dotcolour,alfa,,,118,18,V,R,
151,25,25,3,1,27,53,532,['n'],1,right,['0'],6,257,[-0.14849278],93,53,easy,minus,dotcolour,alfa,,,118,18,V,R,
152,26,26,3,1,33,47,947,['n'],1,right,['0'],6,426,[-0.08373381],76,47,medium,minus,dotcolour,alfa,,,118,18,V,R,
153,27,27,3,1,27,53,580,['n'],1,right,['0'],6,251,[-0.05717079],74,53,easy,minus,dotcolour,alfa,,,118,18,V,R,
154,28,28,3,1,36,44,963,['c'],0,right,['9'],5,228,[-0.02881747],37,44,hard,minus,dotcolour,alfa,,,118,18,V,R,
155,29,29,3,1,33,47,681,['n'],1,right,['0'],6,232,[-0.05989239],75,47,medium,minus,dotcolour,alfa,,,118,18,V,R,
156,30,30,3,1,44,36,999,['n'],0,left,['9'],5,256,[-0.14229739],93,44,hard,minus,dotcolour,alfa,,,118,18,V,R,
157,31,31,3,1,36,44,715,['n'],1,right,['9'],5,242,[-0.07216543],79,44,hard,minus,dotcolour,alfa,,,118,18,V,R,
158,32,32,3,1,47,33,531,['c'],1,left,['0'],6,228,[0.09319847],85,47,medium,minus,dotcolour,alfa,,,118,18,V,R,
159,33,33,3,1,47,33,732,['c'],1,left,['9'],5,215,[0.0906032],85,47,medium,minus,dotcolour,alfa,,,118,18,V,R,
160,34,34,3,1,27,53,748,['n'],1,right,['0'],6,250,[-0.12775099],91,53,easy,minus,dotcolour,alfa,,,118,18,V,R,
161,35,35,3,1,33,47,631,['n'],1,right,['0'],6,319,[-0.17263955],94,47,medium,minus,dotcolour,alfa,,,118,18,V,R,
162,36,36,3,1,44,36,748,['c'],1,left,['9'],5,262,[0.12098181],89,44,hard,minus,dotcolour,alfa,,,118,18,V,R,
163,37,37,3,1,53,27,683,['c'],1,left,['0'],6,306,[0.14114889],91,53,easy,minus,dotcolour,alfa,,,118,18,V,R,
164,38,38,3,1,36,44,698,['n'],1,right,['0'],6,211,[-0.00935558],55,44,hard,minus,dotcolour,alfa,,,118,18,V,R,
165,39,39,3,1,27,53,665,['n'],1,right,['9'],5,200,[-0.10935302],90,53,easy,minus,dotcolour,alfa,,,118,18,V,R,
166,40,40,3,1,47,33,665,['c'],1,left,['9'],5,191,[0.04171805],70,47,medium,minus,dotcolour,alfa,,,118,18,V,R,
167,41,41,3,1,44,36,648,['c'],1,left,['8'],4,190,[0.06232599],78,44,hard,minus,dotcolour,alfa,,,118,18,V,R,
168,42,0,4,1,36,44,933,['n'],1,right,['0'],6,194,[-0.05915679],77,44,hard,minus,dotcolour,alfa,,,118,18,V,R,
169,43,1,4,1,53,27,515,['c'],1,left,['9'],5,223,[0.064024],77,53,easy,minus,dotcolour,alfa,,,118,18,V,R,
170,44,2,4,1,36,44,1715,['n'],1,right,['0'],6,274,[-0.12134331],89,44,hard,minus,dotcolour,alfa,,,118,18,V,R,
171,45,3,4,1,53,27,614,['c'],1,left,['9'],5,200,[0.0479349],72,53,easy,minus,dotcolour,alfa,,,118,18,V,R,
172,46,4,4,1,44,36,1849,['c'],1,left,['9'],5,254,[-0.00376792],48,44,hard,minus,dotcolour,alfa,,,118,18,V,R,
173,47,5,4,1,27,53,598,['n'],1,right,['9'],5,469,[-0.20441156],94,53,easy,minus,dotcolour,alfa,,,118,18,V,R,
174,48,6,4,1,44,36,1332,['c'],1,left,['0'],6,239,[0.12813106],91,44,hard,minus,dotcolour,alfa,,,118,18,V,R,
175,49,7,4,1,33,47,633,['n'],1,right,['0'],6,245,[-0.08001876],81,47,medium,minus,dotcolour,alfa,,,118,18,V,R,
176,50,8,4,1,27,53,883,['n'],1,right,['9'],5,241,[-0.03522783],66,53,easy,minus,dotcolour,alfa,,,118,18,V,R,
177,51,9,4,1,47,33,666,['c'],1,left,['9'],5,254,[0.10632983],87,47,medium,minus,dotcolour,alfa,,,118,18,V,R,
178,52,10,4,1,33,47,665,['n'],1,right,['1'],1,1187,[-0.33089649],94,47,medium,minus,dotcolour,alfa,,,118,18,V,R,
179,53,11,4,1,33,47,864,['n'],1,right,['0'],6,385,[-0.09933703],81,47,medium,minus,dotcolour,alfa,,,118,18,V,R,
180,54,12,4,1,53,27,898,['c'],1,left,['0'],6,271,[-0.00333593],49,53,easy,minus,dotcolour,alfa,,,118,18,V,R,
181,55,13,4,1,44,36,1298,['c'],1,left,['9'],5,586,[0.11100272],79,44,hard,minus,dotcolour,alfa,,,118,18,V,R,
182,56,14,4,1,27,53,597,['n'],1,right,['9'],5,259,[-0.11242634],88,53,easy,minus,dotcolour,alfa,,,118,18,V,R,
183,57,15,4,1,53,27,816,['c'],1,left,['0'],6,225,[0.07765724],81,53,easy,minus,dotcolour,alfa,,,118,18,V,R,
184,58,16,4,1,47,33,548,['c'],1,left,['0'],6,195,[0.02532837],63,47,medium,minus,dotcolour,alfa,,,118,18,V,R,
185,59,17,4,1,53,27,732,['c'],1,left,['0'],6,207,[0.02798151],63,53,easy,minus,dotcolour,alfa,,,118,18,V,R,
186,60,18,4,1,27,53,582,['n'],1,right,['0'],6,304,[-0.11254513],86,53,easy,minus,dotcolour,alfa,,,118,18,V,R,
187,61,19,4,1,27,53,999,['n'],1,right,['9'],5,437,[-0.19579654],93,53,easy,minus,dotcolour,alfa,,,118,18,V,R,
188,62,20,4,1,44,36,832,['c'],1,left,['0'],6,563,[0.08380832],73,44,hard,minus,dotcolour,alfa,,,118,18,V,R,
189,63,21,4,1,36,44,1649,['n'],1,right,['8'],4,628,[0.02413713],43,44,hard,minus,dotcolour,alfa,,,118,18,V,R,
190,64,22,4,1,27,53,781,['n'],1,right,['9'],5,292,[-0.02080223],59,53,easy,minus,dotcolour,alfa,,,118,18,V,R,
191,65,23,4,1,53,27,614,['c'],1,left,['8'],4,2689,[0.49835756],94,53,easy,minus,dotcolour,alfa,,,118,18,V,R,
192,66,24,4,1,47,33,632,['c'],1,left,['0'],6,285,[0.18867062],96,47,medium,minus,dotcolour,alfa,,,118,18,V,R,
193,67,25,4,1,36,44,849,['n'],1,right,['8'],4,248,[0.06688376],23,44,hard,minus,dotcolour,alfa,,,118,18,V,R,
194,68,26,4,1,33,47,1198,['c'],0,right,['9'],5,383,[-0.0345526],38,47,medium,minus,dotcolour,alfa,,,118,18,V,R,
195,69,27,4,1,36,44,998,['n'],1,right,['9'],5,313,[-0.1626009],93,44,hard,minus,dotcolour,alfa,,,118,18,V,R,
196,70,28,4,1,33,47,1249,['n'],1,right,['9'],5,364,[-0.09960441],82,47,medium,minus,dotcolour,alfa,,,118,18,V,R,
197,71,29,4,1,33,47,683,['n'],1,right,['9'],5,291,[-0.21683067],97,47,medium,minus,dotcolour,alfa,,,118,18,V,R,
198,72,30,4,1,47,33,615,['c'],1,left,['9'],5,215,[0.10092449],88,47,medium,minus,dotcolour,alfa,,,118,18,V,R,
199,73,31,4,1,36,44,1147,['n'],1,right,['9'],5,250,[-0.01677678],57,44,hard,minus,dotcolour,alfa,,,118,18,V,R,
200,74,32,4,1,47,33,867,['n'],0,left,['9'],5,223,[-0.05886518],75,47,medium,minus,dotcolour,alfa,,,118,18,V,R,
201,75,33,4,1,44,36,632,['n'],0,left,['9'],5,229,[-0.11815044],90,44,hard,minus,dotcolour,alfa,,,118,18,V,R,
202,76,34,4,1,47,33,914,['c'],1,left,['9'],5,193,[0.00868156],54,47,medium,minus,dotcolour,alfa,,,118,18,V,R,
203,77,35,4,1,36,44,615,['c'],0,right,['0'],6,322,[0.14380227],91,44,hard,minus,dotcolour,alfa,,,118,18,V,R,
204,78,36,4,1,27,53,898,['c'],0,right,['1'],1,809,[-0.12387361],22,53,easy,minus,dotcolour,alfa,,,118,18,V,R,
205,79,37,4,1,44,36,1332,['c'],1,left,['8'],4,429,[0.1371657],87,44,hard,minus,dotcolour,alfa,,,118,18,V,R,
206,80,38,4,1,53,27,665,['c'],1,left,['9'],5,330,[0.14972607],91,53,easy,minus,dotcolour,alfa,,,118,18,V,R,
207,81,39,4,1,47,33,615,['c'],1,left,['9'],5,278,[0.01928218],58,47,medium,minus,dotcolour,alfa,,,118,18,V,R,
208,82,40,4,1,44,36,731,['n'],0,left,['8'],4,502,[-0.12999028],84,44,hard,minus,dotcolour,alfa,,,118,18,V,R,
209,83,41,4,1,33,47,831,['n'],1,right,['9'],5,354,[-0.12344778],87,47,medium,minus,dotcolour,alfa,,,118,18,V,R,
210,84,0,5,1,44,36,1017,['n'],0,left,['8'],4,271,[-0.10036722],85,44,hard,minus,dotcolour,alfa,,,118,18,V,R,
211,85,1,5,1,33,47,666,['n'],1,right,['8'],4,218,[-0.06190125],77,47,medium,minus,dotcolour,alfa,,,118,18,V,R,
212,86,2,5,1,36,44,915,['n'],1,right,['0'],6,246,[-0.13707365],92,44,hard,minus,dotcolour,alfa,,,118,18,V,R,
213,87,3,5,1,27,53,647,['n'],1,right,['0'],6,211,[-0.07092736],80,53,easy,minus,dotcolour,alfa,,,118,18,V,R,
214,88,4,5,1,33,47,1232,['c'],0,right,['9'],5,227,[0.03905813],68,47,medium,minus,dotcolour,alfa,,,118,18,V,R,
215,89,5,5,1,27,53,817,['n'],1,right,['9'],5,386,[-0.09483384],80,53,easy,minus,dotcolour,alfa,,,118,18,V,R,
216,90,6,5,1,44,36,715,['c'],1,left,['9'],5,287,[0.09287259],83,44,hard,minus,dotcolour,alfa,,,118,18,V,R,
217,91,7,5,1,47,33,681,['c'],1,left,['9'],5,225,[0.11501367],90,47,medium,minus,dotcolour,alfa,,,118,18,V,R,
218,92,8,5,1,47,33,814,['n'],0,left,['9'],5,208,[-0.03273908],66,47,medium,minus,dotcolour,alfa,,,118,18,V,R,
219,93,9,5,1,53,27,650,['c'],1,left,['9'],5,191,[0.14119057],95,53,easy,minus,dotcolour,alfa,,,118,18,V,R,
220,94,10,5,1,33,47,749,['n'],1,right,['9'],5,242,[-0.07180413],79,47,medium,minus,dotcolour,alfa,,,118,18,V,R,
221,95,11,5,1,33,47,949,['n'],1,right,['9'],5,212,[-0.23287756],99,47,medium,minus,dotcolour,alfa,,,118,18,V,R,
222,96,12,5,1,47,33,582,['c'],1,left,['9'],5,205,[0.07054333],80,47,medium,minus,dotcolour,alfa,,,118,18,V,R,
223,97,13,5,1,27,53,664,['n'],1,right,['9'],5,235,[-0.09689748],86,53,easy,minus,dotcolour,alfa,,,118,18,V,R,
224,98,14,5,1,36,44,1081,['c'],0,right,['9'],5,208,[0.13093735],93,44,hard,minus,dotcolour,alfa,,,118,18,V,R,
225,99,15,5,1,27,53,515,['n'],1,right,['9'],5,292,[-0.16814732],94,53,easy,minus,dotcolour,alfa,,,118,18,V,R,
226,100,16,5,1,44,36,814,['c'],1,left,['9'],5,288,[0.08819544],81,44,hard,minus,dotcolour,alfa,,,118,18,V,R,
227,101,17,5,1,53,27,832,['c'],1,left,['9'],5,172,[0.10209493],90,53,easy,minus,dotcolour,alfa,,,118,18,V,R,
228,102,18,5,1,47,33,481,['c'],1,left,['9'],5,195,[0.02723201],64,47,medium,minus,dotcolour,alfa,,,118,18,V,R,
229,103,19,5,1,33,47,516,['n'],1,right,['9'],5,200,[-0.05758518],76,47,medium,minus,dotcolour,alfa,,,118,18,V,R,
230,104,20,5,1,44,36,531,['c'],1,left,['9'],5,196,[-0.0065954],47,44,hard,minus,dotcolour,alfa,,,118,18,V,R,
231,105,21,5,1,36,44,699,['c'],0,right,['9'],5,202,[-0.0414043],30,44,hard,minus,dotcolour,alfa,,,118,18,V,R,
232,106,22,5,1,53,27,616,['c'],1,left,['9'],5,217,[0.05363971],74,53,easy,minus,dotcolour,alfa,,,118,18,V,R,
233,107,23,5,1,36,44,1182,['n'],1,right,['0'],6,347,[-0.03344299],63,44,hard,minus,dotcolour,alfa,,,118,18,V,R,
234,108,24,5,1,33,47,765,['n'],1,right,['9'],5,256,[-0.1339075],92,47,medium,minus,dotcolour,alfa,,,118,18,V,R,
235,109,25,5,1,44,36,599,['c'],1,left,['9'],5,174,[0.14786701],96,44,hard,minus,dotcolour,alfa,,,118,18,V,R,
236,110,26,5,1,47,33,550,['c'],1,left,['9'],5,178,[0.02902378],65,47,medium,minus,dotcolour,alfa,,,118,18,V,R,
237,111,27,5,1,53,27,533,['c'],1,left,['0'],6,295,[0.11965151],88,53,easy,minus,dotcolour,alfa,,,118,18,V,R,
238,112,28,5,1,36,44,834,['n'],1,right,['9'],5,235,[-0.09924006],86,44,hard,minus,dotcolour,alfa,,,118,18,V,R,
239,113,29,5,1,36,44,783,['n'],1,right,['9'],5,243,[-0.09194815],84,44,hard,minus,dotcolour,alfa,,,118,18,V,R,
240,114,30,5,1,44,36,831,['c'],1,left,['9'],5,233,[0.06793518],78,44,hard,minus,dotcolour,alfa,,,118,18,V,R,
241,115,31,5,1,27,53,547,['n'],1,right,['0'],6,516,[-0.09730772],77,53,easy,minus,dotcolour,alfa,,,118,18,V,R,
242,116,32,5,1,53,27,600,['c'],1,left,['9'],5,264,[0.1153561],88,53,easy,minus,dotcolour,alfa,,,118,18,V,R,
243,117,33,5,1,44,36,716,['n'],0,left,['0'],6,290,[-0.17296914],95,44,hard,minus,dotcolour,alfa,,,118,18,V,R,
244,118,34,5,1,36,44,866,['n'],1,right,['0'],6,237,[-0.00279782],51,44,hard,minus,dotcolour,alfa,,,118,18,V,R,
245,119,35,5,1,33,47,650,['n'],1,right,['0'],6,970,[-0.19055048],85,47,medium,minus,dotcolour,alfa,,,118,18,V,R,
246,120,36,5,1,47,33,1598,['n'],0,left,['8'],4,276,[-0.16568185],94,47,medium,minus,dotcolour,alfa,,,118,18,V,R,
247,121,37,5,1,53,27,582,['c'],1,left,['0'],6,291,[0.12622381],89,53,easy,minus,dotcolour,alfa,,,118,18,V,R,
248,122,38,5,1,27,53,583,['n'],1,right,['9'],5,273,[-0.15998795],94,53,easy,minus,dotcolour,alfa,,,118,18,V,R,
249,123,39,5,1,47,33,747,['c'],1,left,['8'],4,249,[0.11829715],89,47,medium,minus,dotcolour,alfa,,,118,18,V,R,
250,124,40,5,1,53,27,748,['c'],1,left,['0'],6,322,[0.07742072],77,53,easy,minus,dotcolour,alfa,,,118,18,V,R,
251,125,41,5,1,27,53,615,['n'],1,right,['9'],5,246,[-0.19349807],97,53,easy,minus,dotcolour,alfa,,,118,18,V,R,
252,0,0,6,2,33,47,500,['n'],1,right,['0'],6,224,[-0.01524676],76,47,medium,plus,dotcolour,alfa,,,118,18,V,R,
253,1,1,6,2,44,36,513,['c'],1,left,['0'],6,236,[0.04070173],95,44,hard,plus,dotcolour,alfa,,,118,18,V,R,
254,2,2,6,2,44,36,1098,['n'],0,left,['8'],4,239,[-0.0267256],88,44,hard,plus,dotcolour,alfa,,,118,18,V,R,
255,3,3,6,2,36,44,799,['c'],0,right,['8'],4,438,[-0.0421358],9,44,hard,plus,dotcolour,alfa,,,118,18,V,R,
256,4,4,6,2,27,53,581,['n'],1,right,['9'],5,198,[-0.14281423],100,53,easy,plus,dotcolour,alfa,,,118,18,V,R,
257,5,5,6,2,47,33,781,['c'],1,left,['9'],5,168,[0.10969349],100,47,medium,plus,dotcolour,alfa,,,118,18,V,R,
258,6,6,6,2,27,53,515,['n'],1,right,['9'],5,198,[-0.14079977],100,53,easy,plus,dotcolour,alfa,,,118,18,V,R,
259,7,7,6,2,36,44,731,['n'],1,right,['9'],5,171,[-0.09443098],100,44,hard,plus,dotcolour,alfa,,,118,18,V,R,
260,8,8,6,2,36,44,949,['n'],1,right,['9'],5,183,[-0.06180914],99,44,hard,plus,dotcolour,alfa,,,118,18,V,R,
261,9,9,6,2,36,44,614,['n'],1,right,['9'],5,216,[-0.0240985],87,44,hard,plus,dotcolour,alfa,,,118,18,V,R,
262,10,10,6,2,44,36,1165,['c'],1,left,['8'],4,162,[0.10712055],100,44,hard,plus,dotcolour,alfa,,,118,18,V,R,
263,11,11,6,2,47,33,565,['n'],0,left,['1'],1,1015,[-0.12385921],99,47,medium,plus,dotcolour,alfa,,,118,18,V,R,
264,12,12,6,2,44,36,1232,['c'],1,left,['9'],5,222,[0.04161258],96,44,hard,plus,dotcolour,alfa,,,118,18,V,R,
265,13,13,6,2,44,36,1000,['c'],1,left,['8'],4,199,[0.06581612],100,44,hard,plus,dotcolour,alfa,,,118,18,V,R,
266,14,14,6,2,53,27,516,['c'],1,left,['9'],5,235,[0.15970838],100,53,easy,plus,dotcolour,alfa,,,118,18,V,R,
267,15,15,6,2,53,27,467,['c'],1,left,['9'],5,208,[0.13604094],100,53,easy,plus,dotcolour,alfa,,,118,18,V,R,
268,16,16,6,2,47,33,516,['c'],1,left,['9'],5,204,[0.09142921],100,47,medium,plus,dotcolour,alfa,,,118,18,V,R,
269,17,17,6,2,27,53,750,['n'],1,right,['9'],5,288,[-0.12514232],100,53,easy,plus,dotcolour,alfa,,,118,18,V,R,
270,18,18,6,2,27,53,615,['n'],1,right,['9'],5,228,[-0.10463809],100,53,easy,plus,dotcolour,alfa,,,118,18,V,R,
271,19,19,6,2,33,47,666,['n'],1,right,['9'],5,186,[-0.10870073],100,47,medium,plus,dotcolour,alfa,,,118,18,V,R,
272,20,20,6,2,53,27,499,['c'],1,left,['9'],5,168,[0.01243254],75,53,easy,plus,dotcolour,alfa,,,118,18,V,R,
273,21,21,6,2,47,33,548,['c'],1,left,['9'],5,196,[0.09970126],100,47,medium,plus,dotcolour,alfa,,,118,18,V,R,
274,22,22,6,2,53,27,682,['c'],1,left,['9'],5,146,[0.14257421],100,53,easy,plus,dotcolour,alfa,,,118,18,V,R,
275,23,23,6,2,27,53,515,['n'],1,right,['9'],5,241,[-0.11826819],100,53,easy,plus,dotcolour,alfa,,,118,18,V,R,
276,24,24,6,2,47,33,866,['c'],1,left,['9'],5,214,[0.05756421],99,47,medium,plus,dotcolour,alfa,,,118,18,V,R,
277,25,25,6,2,33,47,599,['n'],1,right,['9'],5,246,[-0.09798494],100,47,medium,plus,dotcolour,alfa,,,118,18,V,R,
278,26,26,6,2,33,47,682,['n'],1,right,['9'],5,266,[-0.07414978],99,47,medium,plus,dotcolour,alfa,,,118,18,V,R,
279,27,27,6,2,53,27,665,['c'],1,left,['9'],5,206,[0.04941602],98,53,easy,plus,dotcolour,alfa,,,118,18,V,R,
280,28,28,6,2,53,27,500,['c'],1,left,['9'],5,179,[0.08687764],100,53,easy,plus,dotcolour,alfa,,,118,18,V,R,
281,29,29,6,2,44,36,649,['n'],0,left,['9'],5,219,[-0.04240908],96,44,hard,plus,dotcolour,alfa,,,118,18,V,R,
282,30,30,6,2,36,44,664,['n'],1,right,['9'],5,209,[-0.0935785],100,44,hard,plus,dotcolour,alfa,,,118,18,V,R,
283,31,31,6,2,33,47,547,['c'],0,right,['9'],5,188,[0.03951535],96,47,medium,plus,dotcolour,alfa,,,118,18,V,R,
284,32,32,6,2,36,44,866,['n'],1,right,['9'],5,258,[-0.03625884],93,44,hard,plus,dotcolour,alfa,,,118,18,V,R,
285,33,33,6,2,27,53,548,['n'],1,right,['9'],5,227,[-0.041824],96,53,easy,plus,dotcolour,alfa,,,118,18,V,R,
286,34,34,6,2,36,44,765,['n'],1,right,['9'],5,221,[-0.07795222],100,44,hard,plus,dotcolour,alfa,,,118,18,V,R,
287,35,35,6,2,33,47,683,['n'],1,right,['9'],5,209,[-0.06152432],99,47,medium,plus,dotcolour,alfa,,,118,18,V,R,
288,36,36,6,2,33,47,666,['n'],1,right,['9'],5,216,[-0.12447993],100,47,medium,plus,dotcolour,alfa,,,118,18,V,R,
289,37,37,6,2,44,36,1365,['c'],1,left,['9'],5,258,[0.02362074],84,44,hard,plus,dotcolour,alfa,,,118,18,V,R,
290,38,38,6,2,47,33,450,['c'],1,left,['9'],5,198,[0.07870146],100,47,medium,plus,dotcolour,alfa,,,118,18,V,R,
291,39,39,6,2,27,53,532,['n'],1,right,['9'],5,242,[-0.12853341],100,53,easy,plus,dotcolour,alfa,,,118,18,V,R,
292,40,40,6,2,53,27,517,['c'],1,left,['9'],5,220,[0.07265491],100,53,easy,plus,dotcolour,alfa,,,118,18,V,R,
293,41,41,6,2,47,33,766,['c'],1,left,['9'],5,191,[0.01095699],71,47,medium,plus,dotcolour,alfa,,,118,18,V,R,
294,42,0,7,2,27,53,617,['n'],1,right,['9'],5,605,[-0.20033822],100,53,easy,plus,dotcolour,alfa,,,118,18,V,R,
295,43,1,7,2,33,47,866,['n'],1,right,['9'],5,187,[-0.11320754],100,47,medium,plus,dotcolour,alfa,,,118,18,V,R,
296,44,2,7,2,36,44,648,['n'],1,right,['0'],6,219,[-0.05049811],98,44,hard,plus,dotcolour,alfa,,,118,18,V,R,
297,45,3,7,2,47,33,765,['c'],1,left,['9'],5,213,[0.17301533],100,47,medium,plus,dotcolour,alfa,,,118,18,V,R,
298,46,4,7,2,44,36,700,['c'],1,left,['9'],5,169,[0.0601864],99,44,hard,plus,dotcolour,alfa,,,118,18,V,R,
299,47,5,7,2,47,33,783,['n'],0,left,['8'],4,188,[-0.0777796],100,47,medium,plus,dotcolour,alfa,,,118,18,V,R,
300,48,6,7,2,27,53,582,['n'],1,right,['9'],5,263,[-0.11049762],100,53,easy,plus,dotcolour,alfa,,,118,18,V,R,
301,49,7,7,2,47,33,899,['n'],0,left,['8'],4,194,[-0.06315793],99,47,medium,plus,dotcolour,alfa,,,118,18,V,R,
302,50,8,7,2,47,33,515,['c'],1,left,['9'],5,246,[0.09567582],100,47,medium,plus,dotcolour,alfa,,,118,18,V,R,
303,51,9,7,2,53,27,497,['c'],1,left,['9'],5,194,[0.03006877],92,53,easy,plus,dotcolour,alfa,,,118,18,V,R,
304,52,10,7,2,47,33,715,['n'],0,left,['9'],5,278,[-0.1460036],100,47,medium,plus,dotcolour,alfa,,,118,18,V,R,
305,53,11,7,2,27,53,481,['n'],1,right,['9'],5,353,[-0.11957981],100,53,easy,plus,dotcolour,alfa,,,118,18,V,R,
306,54,12,7,2,53,27,582,['c'],1,left,['0'],6,269,[0.12518819],100,53,easy,plus,dotcolour,alfa,,,118,18,V,R,
307,55,13,7,2,27,53,565,['n'],1,right,['0'],6,268,[-0.04173615],95,53,easy,plus,dotcolour,alfa,,,118,18,V,R,
308,56,14,7,2,33,47,648,['c'],0,right,['9'],5,250,[0.0230982],84,47,medium,plus,dotcolour,alfa,,,118,18,V,R,
309,57,15,7,2,44,36,564,['c'],1,left,['0'],6,386,[0.0682299],98,44,hard,plus,dotcolour,alfa,,,118,18,V,R,
310,58,16,7,2,44,36,564,['c'],1,left,['9'],5,237,[0.07654301],100,44,hard,plus,dotcolour,alfa,,,118,18,V,R,
311,59,17,7,2,27,53,649,['n'],1,right,['9'],5,419,[-0.03737239],89,53,easy,plus,dotcolour,alfa,,,118,18,V,R,
312,60,18,7,2,33,47,998,['c'],0,right,['9'],5,195,[0.06547382],100,47,medium,plus,dotcolour,alfa,,,118,18,V,R,
313,61,19,7,2,44,36,765,['c'],1,left,['0'],6,238,[-0.01245372],29,44,hard,plus,dotcolour,alfa,,,118,18,V,R,
314,62,20,7,2,44,36,582,['c'],1,left,['9'],5,262,[0.11394846],100,44,hard,plus,dotcolour,alfa,,,118,18,V,R,
315,63,21,7,2,47,33,398,['c'],1,left,['0'],6,365,[0.08014301],99,47,medium,plus,dotcolour,alfa,,,118,18,V,R,
316,64,22,7,2,27,53,682,['n'],1,right,['0'],6,236,[-0.11620884],100,53,easy,plus,dotcolour,alfa,,,118,18,V,R,
317,65,23,7,2,53,27,499,['c'],1,left,['0'],6,240,[0.15554299],100,53,easy,plus,dotcolour,alfa,,,118,18,V,R,
318,66,24,7,2,44,36,715,['c'],1,left,['9'],5,227,[0.06985656],99,44,hard,plus,dotcolour,alfa,,,118,18,V,R,
319,67,25,7,2,36,44,465,['c'],0,right,['9'],5,280,[0.00662616],61,44,hard,plus,dotcolour,alfa,,,118,18,V,R,
320,68,26,7,2,36,44,798,['n'],1,right,['0'],6,270,[-0.03938062],94,44,hard,plus,dotcolour,alfa,,,118,18,V,R,
321,69,27,7,2,44,36,649,['c'],1,left,['9'],5,203,[0.13885576],100,44,hard,plus,dotcolour,alfa,,,118,18,V,R,
322,70,28,7,2,36,44,614,['c'],0,right,['9'],5,178,[0.0751234],100,44,hard,plus,dotcolour,alfa,,,118,18,V,R,
323,71,29,7,2,53,27,548,['c'],1,left,['0'],6,478,[0.13493572],100,53,easy,plus,dotcolour,alfa,,,118,18,V,R,
324,72,30,7,2,33,47,932,['n'],1,right,['9'],5,207,[-0.08639373],100,47,medium,plus,dotcolour,alfa,,,118,18,V,R,
325,73,31,7,2,33,47,549,['n'],1,right,['0'],6,226,[-0.10127088],100,47,medium,plus,dotcolour,alfa,,,118,18,V,R,
326,74,32,7,2,53,27,865,['c'],1,left,['9'],5,191,[0.18136843],100,53,easy,plus,dotcolour,alfa,,,118,18,V,R,
327,75,33,7,2,36,44,583,['c'],0,right,['9'],5,145,[0.0841582],100,44,hard,plus,dotcolour,alfa,,,118,18,V,R,
328,76,34,7,2,33,47,632,['n'],1,right,['9'],5,227,[-0.05200031],98,47,medium,plus,dotcolour,alfa,,,118,18,V,R,
329,77,35,7,2,27,53,465,['n'],1,right,['0'],6,233,[-0.12188891],100,53,easy,plus,dotcolour,alfa,,,118,18,V,R,
330,78,36,7,2,53,27,548,['c'],1,left,['9'],5,210,[0.0405801],96,53,easy,plus,dotcolour,alfa,,,118,18,V,R,
331,79,37,7,2,47,33,546,['c'],1,left,['9'],5,197,[0.07722561],100,47,medium,plus,dotcolour,alfa,,,118,18,V,R,
332,80,38,7,2,53,27,515,['n'],0,left,['2'],2,1057,[0.06301484],10,53,easy,plus,dotcolour,alfa,,,118,18,V,R,
333,81,39,7,2,36,44,651,['c'],0,right,['0'],6,198,[0.05448659],99,44,hard,plus,dotcolour,alfa,,,118,18,V,R,
334,82,40,7,2,33,47,1266,['c'],0,right,['9'],5,389,[-0.02629088],18,47,medium,plus,dotcolour,alfa,,,118,18,V,R,
335,83,41,7,2,36,44,549,['c'],0,right,['0'],6,288,[0.08190849],100,44,hard,plus,dotcolour,alfa,,,118,18,V,R,
336,84,0,8,2,27,53,650,['n'],1,right,['0'],6,213,[-0.07997634],100,53,easy,plus,dotcolour,alfa,,,118,18,V,R,
337,85,1,8,2,33,47,1182,['c'],0,right,['0'],6,263,[0.07705599],100,47,medium,plus,dotcolour,alfa,,,118,18,V,R,
338,86,2,8,2,33,47,582,['n'],1,right,['0'],6,350,[-0.07023527],99,47,medium,plus,dotcolour,alfa,,,118,18,V,R,
339,87,3,8,2,44,36,515,['c'],1,left,['0'],6,173,[0.13314136],100,44,hard,plus,dotcolour,alfa,,,118,18,V,R,
340,88,4,8,2,53,27,466,['c'],1,left,['0'],6,164,[0.05815517],99,53,easy,plus,dotcolour,alfa,,,118,18,V,R,
341,89,5,8,2,33,47,516,['n'],1,right,['0'],6,194,[0.03925683],4,47,medium,plus,dotcolour,alfa,,,118,18,V,R,
342,90,6,8,2,36,44,1164,['n'],1,right,['9'],5,261,[-0.13401775],100,44,hard,plus,dotcolour,alfa,,,118,18,V,R,
343,91,7,8,2,36,44,666,['n'],1,right,['0'],6,257,[-0.04393357],96,44,hard,plus,dotcolour,alfa,,,118,18,V,R,
344,92,8,8,2,53,27,450,['n'],0,left,['1'],1,702,[0.07405007],4,53,easy,plus,dotcolour,alfa,,,118,18,V,R,
345,93,9,8,2,44,36,1731,['c'],1,left,['0'],6,236,[0.0721862],100,44,hard,plus,dotcolour,alfa,,,118,18,V,R,
346,94,10,8,2,33,47,1149,['c'],0,right,['9'],5,295,[0.06251693],98,47,medium,plus,dotcolour,alfa,,,118,18,V,R,
347,95,11,8,2,44,36,681,['c'],1,left,['0'],6,328,[0.0977813],100,44,hard,plus,dotcolour,alfa,,,118,18,V,R,
348,96,12,8,2,33,47,766,['n'],1,right,['8'],4,318,[-0.16522358],100,47,medium,plus,dotcolour,alfa,,,118,18,V,R,
349,97,13,8,2,44,36,916,['c'],1,left,['0'],6,182,[0.08164927],100,44,hard,plus,dotcolour,alfa,,,118,18,V,R,
350,98,14,8,2,53,27,548,['c'],1,left,['9'],5,202,[0.20059544],100,53,easy,plus,dotcolour,alfa,,,118,18,V,R,
351,99,15,8,2,27,53,899,['n'],1,right,['0'],6,222,[-0.09871763],100,53,easy,plus,dotcolour,alfa,,,118,18,V,R,
352,100,16,8,2,47,33,581,['c'],1,left,['9'],5,159,[0.03275832],95,47,medium,plus,dotcolour,alfa,,,118,18,V,R,
353,101,17,8,2,44,36,733,['n'],0,left,['9'],5,197,[-0.06733077],100,44,hard,plus,dotcolour,alfa,,,118,18,V,R,
354,102,18,8,2,47,33,1014,['n'],0,left,['0'],6,277,[-0.00702085],62,47,medium,plus,dotcolour,alfa,,,118,18,V,R,
355,103,19,8,2,33,47,632,['n'],1,right,['0'],6,234,[-0.0895448],100,47,medium,plus,dotcolour,alfa,,,118,18,V,R,
356,104,20,8,2,53,27,799,['c'],1,left,['9'],5,242,[0.06110263],99,53,easy,plus,dotcolour,alfa,,,118,18,V,R,
357,105,21,8,2,36,44,1247,['n'],1,right,['9'],5,327,[-0.2233239],100,44,hard,plus,dotcolour,alfa,,,118,18,V,R,
358,106,22,8,2,47,33,582,['c'],1,left,['0'],6,204,[0.13723793],100,47,medium,plus,dotcolour,alfa,,,118,18,V,R,
359,107,23,8,2,27,53,616,['n'],1,right,['0'],6,260,[0.00078121],49,53,easy,plus,dotcolour,alfa,,,118,18,V,R,
360,108,24,8,2,53,27,615,['c'],1,left,['9'],5,194,[0.09007973],100,53,easy,plus,dotcolour,alfa,,,118,18,V,R,
361,109,25,8,2,44,36,548,['c'],1,left,['9'],5,197,[0.071609],100,44,hard,plus,dotcolour,alfa,,,118,18,V,R,
362,110,26,8,2,47,33,465,['c'],1,left,['0'],6,556,[0.1791464],100,47,medium,plus,dotcolour,alfa,,,118,18,V,R,
363,111,27,8,2,27,53,599,['n'],1,right,['0'],6,263,[-0.12529391],100,53,easy,plus,dotcolour,alfa,,,118,18,V,R,
364,112,28,8,2,36,44,516,['c'],0,right,['9'],5,201,[0.0846331],100,44,hard,plus,dotcolour,alfa,,,118,18,V,R,
365,113,29,8,2,33,47,481,['c'],0,right,['1'],1,1263,[-0.1691499],0,47,medium,plus,dotcolour,alfa,,,118,18,V,R,
366,114,30,8,2,47,33,549,['c'],1,left,['9'],5,294,[0.12901715],100,47,medium,plus,dotcolour,alfa,,,118,18,V,R,
367,115,31,8,2,47,33,966,['n'],0,left,['0'],6,453,[0.07014539],2,47,medium,plus,dotcolour,alfa,,,118,18,V,R,
368,116,32,8,2,44,36,848,['c'],1,left,['9'],5,169,[0.11552624],100,44,hard,plus,dotcolour,alfa,,,118,18,V,R,
369,117,33,8,2,53,27,583,['c'],1,left,['0'],6,204,[0.1013573],100,53,easy,plus,dotcolour,alfa,,,118,18,V,R,
370,118,34,8,2,36,44,900,['n'],1,right,['9'],5,298,[-0.09132768],100,44,hard,plus,dotcolour,alfa,,,118,18,V,R,
371,119,35,8,2,27,53,514,['n'],1,right,['0'],6,482,[-0.10191335],99,53,easy,plus,dotcolour,alfa,,,118,18,V,R,
372,120,36,8,2,47,33,1197,['c'],1,left,['8'],4,128,[0.06413102],100,47,medium,plus,dotcolour,alfa,,,118,18,V,R,
373,121,37,8,2,36,44,980,['c'],0,right,['9'],5,189,[0.04160273],97,44,hard,plus,dotcolour,alfa,,,118,18,V,R,
374,122,38,8,2,53,27,615,['c'],1,left,['9'],5,278,[0.11492061],100,53,easy,plus,dotcolour,alfa,,,118,18,V,R,
375,123,39,8,2,27,53,498,['n'],1,right,['0'],6,224,[-0.0913996],100,53,easy,plus,dotcolour,alfa,,,118,18,V,R,
376,124,40,8,2,36,44,615,['n'],1,right,['0'],6,224,[-0.12625954],100,44,hard,plus,dotcolour,alfa,,,118,18,V,R,
377,125,41,8,2,27,53,665,['n'],1,right,['0'],6,197,[-0.20127647],100,53,easy,plus,dotcolour,alfa,,,118,18,V,R,
378,0,0,9,3,33,47,1033,['n'],1,right,['8'],4,223,[-0.17410405],97,47,medium,minus,dotcolour,alfa,,,118,18,V,R,
379,1,1,9,3,33,47,682,['n'],1,right,['9'],5,260,[-0.07507127],79,47,medium,minus,dotcolour,alfa,,,118,18,V,R,
380,2,2,9,3,44,36,749,['n'],0,left,['9'],5,229,[-0.10481714],88,44,hard,minus,dotcolour,alfa,,,118,18,V,R,
381,3,3,9,3,47,33,697,['c'],1,left,['8'],4,352,[0.13320613],88,47,medium,minus,dotcolour,alfa,,,118,18,V,R,
382,4,4,9,3,53,27,583,['c'],1,left,['9'],5,157,[0.11832797],94,53,easy,minus,dotcolour,alfa,,,118,18,V,R,
383,5,5,9,3,44,36,749,['c'],1,left,['9'],5,129,[0.0784705],88,44,hard,minus,dotcolour,alfa,,,118,18,V,R,
384,6,6,9,3,27,53,600,['n'],1,right,['0'],6,245,[-0.04180787],68,53,easy,minus,dotcolour,alfa,,,118,18,V,R,
385,7,7,9,3,36,44,1049,['c'],0,right,['9'],5,178,[0.04087526],71,44,hard,minus,dotcolour,alfa,,,118,18,V,R,
386,8,8,9,3,36,44,783,['n'],1,right,['0'],6,189,[-0.08816774],86,44,hard,minus,dotcolour,alfa,,,118,18,V,R,
387,9,9,9,3,36,44,1482,['n'],1,right,['0'],6,243,[-0.15063793],94,44,hard,minus,dotcolour,alfa,,,118,18,V,R,
388,10,10,9,3,53,27,415,['c'],1,left,['9'],5,210,[0.10411424],89,53,easy,minus,dotcolour,alfa,,,118,18,V,R,
389,11,11,9,3,47,33,465,['c'],1,left,['0'],6,152,[0.10613393],92,47,medium,minus,dotcolour,alfa,,,118,18,V,R,
390,12,12,9,3,44,36,548,['n'],0,left,['0'],6,253,[-0.04893654],71,44,hard,minus,dotcolour,alfa,,,118,18,V,R,
391,13,13,9,3,36,44,832,['n'],1,right,['9'],5,194,[-0.0695165],81,44,hard,minus,dotcolour,alfa,,,118,18,V,R,
392,14,14,9,3,33,47,732,['n'],1,right,['0'],6,174,[-0.10486099],91,47,medium,minus,dotcolour,alfa,,,118,18,V,R,
393,15,15,9,3,47,33,464,['c'],1,left,['0'],6,206,[0.10976262],90,47,medium,minus,dotcolour,alfa,,,118,18,V,R,
394,16,16,9,3,47,33,716,['n'],0,left,['0'],6,226,[-0.14177066],94,47,medium,minus,dotcolour,alfa,,,118,18,V,R,
395,17,17,9,3,36,44,598,['n'],1,right,['3'],3,1114,[-0.16311926],80,44,hard,minus,dotcolour,alfa,,,118,18,V,R,
396,18,18,9,3,44,36,899,['c'],1,left,['0'],6,178,[0.08180772],85,44,hard,minus,dotcolour,alfa,,,118,18,V,R,
397,19,19,9,3,27,53,498,['n'],1,right,['0'],6,241,[-0.1361103],92,53,easy,minus,dotcolour,alfa,,,118,18,V,R,
398,20,20,9,3,33,47,532,['n'],1,right,['0'],6,235,[-0.05114704],72,47,medium,minus,dotcolour,alfa,,,118,18,V,R,
399,21,21,9,3,33,47,498,['c'],0,right,['1'],1,1438,[-0.01137604],48,47,medium,minus,dotcolour,alfa,,,118,18,V,R,
400,22,22,9,3,53,27,783,['c'],1,left,['0'],6,238,[0.07645177],80,53,easy,minus,dotcolour,alfa,,,118,18,V,R,
401,23,23,9,3,44,36,1082,['c'],1,left,['0'],6,186,[0.08727681],86,44,hard,minus,dotcolour,alfa,,,118,18,V,R,
402,24,24,9,3,33,47,649,['c'],0,right,['9'],5,186,[0.01404412],57,47,medium,minus,dotcolour,alfa,,,118,18,V,R,
403,25,25,9,3,27,53,516,['c'],0,right,['0'],6,255,[0.01013286],55,53,easy,minus,dotcolour,alfa,,,118,18,V,R,
404,26,26,9,3,27,53,582,['c'],0,right,['1'],1,646,[-0.09878465],25,53,easy,minus,dotcolour,alfa,,,118,18,V,R,
405,27,27,9,3,47,33,831,['c'],1,left,['0'],6,236,[0.10765469],88,47,medium,minus,dotcolour,alfa,,,118,18,V,R,
406,28,28,9,3,27,53,715,['n'],1,right,['9'],5,279,[-0.04286549],67,53,easy,minus,dotcolour,alfa,,,118,18,V,R,
407,29,29,9,3,53,27,599,['c'],1,left,['0'],6,181,[0.09540972],88,53,easy,minus,dotcolour,alfa,,,118,18,V,R,
408,30,30,9,3,27,53,666,['n'],1,right,['9'],5,252,[-0.21751893],98,53,easy,minus,dotcolour,alfa,,,118,18,V,R,
409,31,31,9,3,44,36,783,['n'],0,left,['9'],5,292,[-0.02622994],61,44,hard,minus,dotcolour,alfa,,,118,18,V,R,
410,32,32,9,3,53,27,450,['c'],1,left,['9'],5,191,[0.04239538],71,53,easy,minus,dotcolour,alfa,,,118,18,V,R,
411,33,33,9,3,27,53,516,['n'],1,right,['0'],6,228,[-0.11194117],89,53,easy,minus,dotcolour,alfa,,,118,18,V,R,
412,34,34,9,3,44,36,599,['c'],1,left,['9'],5,188,[0.12592477],93,44,hard,minus,dotcolour,alfa,,,118,18,V,R,
413,35,35,9,3,53,27,565,['c'],1,left,['9'],5,208,[0.09904858],88,53,easy,minus,dotcolour,alfa,,,118,18,V,R,
414,36,36,9,3,53,27,599,['c'],1,left,['9'],5,160,[0.10435235],91,53,easy,minus,dotcolour,alfa,,,118,18,V,R,
415,37,37,9,3,33,47,765,['n'],1,right,['9'],5,332,[-0.05988225],72,47,medium,minus,dotcolour,alfa,,,118,18,V,R,
416,38,38,9,3,36,44,649,['n'],1,right,['9'],5,262,[-0.08390219],81,44,hard,minus,dotcolour,alfa,,,118,18,V,R,
417,39,39,9,3,47,33,433,['c'],1,left,['9'],5,219,[0.16255693],96,47,medium,minus,dotcolour,alfa,,,118,18,V,R,
418,40,40,9,3,47,33,516,['c'],1,left,['9'],5,167,[0.06572975],81,47,medium,minus,dotcolour,alfa,,,118,18,V,R,
419,41,41,9,3,36,44,765,['n'],1,right,['0'],6,251,[-0.02026363],59,44,hard,minus,dotcolour,alfa,,,118,18,V,R,
420,42,0,10,3,47,33,499,['c'],1,left,['9'],5,168,[0.0719426],83,47,medium,minus,dotcolour,alfa,,,118,18,V,R,
421,43,1,10,3,33,47,448,['n'],1,right,['9'],5,216,[-0.14070492],94,47,medium,minus,dotcolour,alfa,,,118,18,V,R,
422,44,2,10,3,36,44,681,['n'],1,right,['9'],5,150,[-0.07774626],86,44,hard,minus,dotcolour,alfa,,,118,18,V,R,
423,45,3,10,3,36,44,666,['c'],0,right,['9'],5,167,[0.05607307],77,44,hard,minus,dotcolour,alfa,,,118,18,V,R,
424,46,4,10,3,27,53,548,['n'],1,right,['0'],6,468,[-0.04976302],66,53,easy,minus,dotcolour,alfa,,,118,18,V,R,
425,47,5,10,3,53,27,615,['c'],1,left,['9'],5,129,[0.12169977],95,53,easy,minus,dotcolour,alfa,,,118,18,V,R,
426,48,6,10,3,47,33,564,['c'],1,left,['9'],5,159,[0.07479948],84,47,medium,minus,dotcolour,alfa,,,118,18,V,R,
427,49,7,10,3,44,36,583,['n'],0,left,['1'],1,634,[-0.06718003],68,44,hard,minus,dotcolour,alfa,,,118,18,V,R,
428,50,8,10,3,44,36,514,['c'],1,left,['9'],5,180,[0.08098158],85,44,hard,minus,dotcolour,alfa,,,118,18,V,R,
429,51,9,10,3,44,36,499,['n'],0,left,['9'],5,755,[-0.26383524],94,44,hard,minus,dotcolour,alfa,,,118,18,V,R,
430,52,10,10,3,47,33,916,['c'],1,left,['9'],5,168,[0.12121735],93,47,medium,minus,dotcolour,alfa,,,118,18,V,R,
431,53,11,10,3,33,47,583,['n'],1,right,['9'],5,203,[-0.13025557],93,47,medium,minus,dotcolour,alfa,,,118,18,V,R,
432,54,12,10,3,44,36,498,['c'],1,left,['9'],5,192,[0.15846697],96,44,hard,minus,dotcolour,alfa,,,118,18,V,R,
433,55,13,10,3,47,33,899,['c'],1,left,['9'],5,158,[0.07026951],83,47,medium,minus,dotcolour,alfa,,,118,18,V,R,
434,56,14,10,3,36,44,699,['c'],0,right,['9'],5,237,[0.08756115],83,44,hard,minus,dotcolour,alfa,,,118,18,V,R,
435,57,15,10,3,53,27,665,['c'],1,left,['9'],5,226,[0.09146129],85,53,easy,minus,dotcolour,alfa,,,118,18,V,R,
436,58,16,10,3,33,47,449,['n'],1,right,['9'],5,232,[-0.04233491],69,47,medium,minus,dotcolour,alfa,,,118,18,V,R,
437,59,17,10,3,53,27,633,['c'],1,left,['0'],6,175,[0.05100879],75,53,easy,minus,dotcolour,alfa,,,118,18,V,R,
438,60,18,10,3,36,44,532,['c'],0,right,['9'],5,331,[0.03421207],63,44,hard,minus,dotcolour,alfa,,,118,18,V,R,
439,61,19,10,3,47,33,447,['n'],0,left,['0'],6,253,[-0.12074493],90,47,medium,minus,dotcolour,alfa,,,118,18,V,R,
440,62,20,10,3,33,47,615,['c'],0,right,['1'],1,676,[-0.00613931],48,47,medium,minus,dotcolour,alfa,,,118,18,V,R,
441,63,21,10,3,53,27,1016,['c'],1,left,['0'],6,201,[0.09240482],86,53,easy,minus,dotcolour,alfa,,,118,18,V,R,
442,64,22,10,3,33,47,732,['n'],1,right,['0'],6,229,[-0.01223312],56,47,medium,minus,dotcolour,alfa,,,118,18,V,R,
443,65,23,10,3,44,36,581,['c'],1,left,['9'],5,342,[0.09614682],81,44,hard,minus,dotcolour,alfa,,,118,18,V,R,
444,66,24,10,3,27,53,664,['n'],1,right,['9'],5,278,[-0.22911915],98,53,easy,minus,dotcolour,alfa,,,118,18,V,R,
445,67,25,10,3,27,53,515,['n'],1,right,['0'],6,296,[-0.07590606],78,53,easy,minus,dotcolour,alfa,,,118,18,V,R,
446,68,26,10,3,33,47,615,['c'],0,right,['9'],5,221,[0.01725117],58,47,medium,minus,dotcolour,alfa,,,118,18,V,R,
447,69,27,10,3,47,33,516,['c'],1,left,['9'],5,289,[0.12306435],89,47,medium,minus,dotcolour,alfa,,,118,18,V,R,
448,70,28,10,3,53,27,632,['c'],1,left,['0'],6,188,[0.05357877],75,53,easy,minus,dotcolour,alfa,,,118,18,V,R,
449,71,29,10,3,44,36,599,['c'],1,left,['9'],5,182,[0.05168273],75,44,hard,minus,dotcolour,alfa,,,118,18,V,R,
450,72,30,10,3,44,36,766,['c'],1,left,['9'],5,218,[0.1172837],91,44,hard,minus,dotcolour,alfa,,,118,18,V,R,
451,73,31,10,3,27,53,566,['n'],1,right,['9'],5,275,[-0.20859357],97,53,easy,minus,dotcolour,alfa,,,118,18,V,R,
452,74,32,10,3,53,27,565,['c'],1,left,['9'],5,154,[0.10978748],93,53,easy,minus,dotcolour,alfa,,,118,18,V,R,
453,75,33,10,3,27,53,864,['n'],1,right,['0'],6,251,[-0.18253173],96,53,easy,minus,dotcolour,alfa,,,118,18,V,R,
454,76,34,10,3,53,27,748,['c'],1,left,['9'],5,140,[0.07590588],86,53,easy,minus,dotcolour,alfa,,,118,18,V,R,
455,77,35,10,3,47,33,832,['n'],0,left,['9'],5,207,[-0.08943195],85,47,medium,minus,dotcolour,alfa,,,118,18,V,R,
456,78,36,10,3,36,44,733,['n'],1,right,['9'],5,234,[-0.01894741],59,44,hard,minus,dotcolour,alfa,,,118,18,V,R,
457,79,37,10,3,36,44,767,['n'],1,right,['9'],5,172,[-0.11457025],92,44,hard,minus,dotcolour,alfa,,,118,18,V,R,
458,80,38,10,3,33,47,566,['n'],1,right,['9'],5,199,[-0.10692626],90,47,medium,minus,dotcolour,alfa,,,118,18,V,R,
459,81,39,10,3,27,53,499,['n'],1,right,['9'],5,244,[-0.13408155],92,53,easy,minus,dotcolour,alfa,,,118,18,V,R,
460,82,40,10,3,36,44,517,['c'],0,right,['9'],5,175,[0.05245234],76,44,hard,minus,dotcolour,alfa,,,118,18,V,R,
461,83,41,10,3,27,53,450,['n'],1,right,['0'],6,447,[-0.19555264],93,53,easy,minus,dotcolour,alfa,,,118,18,V,R,
462,84,0,11,3,53,27,700,['c'],1,left,['9'],5,159,[0.12706562],95,53,easy,minus,dotcolour,alfa,,,118,18,V,R,
463,85,1,11,3,27,53,631,['c'],0,right,['9'],5,152,[0.06851826],83,53,easy,minus,dotcolour,alfa,,,118,18,V,R,
464,86,2,11,3,53,27,500,['n'],0,left,['9'],5,271,[-0.15508126],94,53,easy,minus,dotcolour,alfa,,,118,18,V,R,
465,87,3,11,3,36,44,632,['n'],1,right,['9'],5,212,[-0.0737074],81,44,hard,minus,dotcolour,alfa,,,118,18,V,R,
466,88,4,11,3,44,36,515,['c'],1,left,['9'],5,184,[0.09152733],87,44,hard,minus,dotcolour,alfa,,,118,18,V,R,
467,89,5,11,3,33,47,582,['n'],1,right,['9'],5,283,[-0.11028312],87,47,medium,minus,dotcolour,alfa,,,118,18,V,R,
468,90,6,11,3,27,53,1098,['n'],1,right,['9'],5,301,[-0.15103864],92,53,easy,minus,dotcolour,alfa,,,118,18,V,R,
469,91,7,11,3,27,53,381,['n'],1,right,['0'],6,298,[-0.04434676],68,53,easy,minus,dotcolour,alfa,,,118,18,V,R,
470,92,8,11,3,33,47,498,['n'],1,right,['0'],6,332,[-0.04599774],67,47,medium,minus,dotcolour,alfa,,,118,18,V,R,
471,93,9,11,3,53,27,532,['c'],1,left,['9'],5,171,[0.13015556],94,53,easy,minus,dotcolour,alfa,,,118,18,V,R,
472,94,10,11,3,53,27,515,['c'],1,left,['9'],5,200,[0.10417813],89,53,easy,minus,dotcolour,alfa,,,118,18,V,R,
473,95,11,11,3,47,33,600,['c'],1,left,['9'],5,185,[0.10283508],90,47,medium,minus,dotcolour,alfa,,,118,18,V,R,
474,96,12,11,3,27,53,500,['c'],0,right,['1'],1,919,[0.0579046],63,53,easy,minus,dotcolour,alfa,,,118,18,V,R,
475,97,13,11,3,36,44,1017,['n'],1,right,['0'],6,218,[-0.10399079],88,44,hard,minus,dotcolour,alfa,,,118,18,V,R,
476,98,14,11,3,33,47,748,['n'],1,right,['9'],5,309,[-0.07409665],77,47,medium,minus,dotcolour,alfa,,,118,18,V,R,
477,99,15,11,3,44,36,581,['n'],0,left,['9'],5,338,[-0.04667815],67,44,hard,minus,dotcolour,alfa,,,118,18,V,R,
478,100,16,11,3,47,33,633,['c'],1,left,['9'],5,340,[0.02400848],59,47,medium,minus,dotcolour,alfa,,,118,18,V,R,
479,101,17,11,3,47,33,432,['c'],1,left,['0'],6,206,[0.03029157],65,47,medium,minus,dotcolour,alfa,,,118,18,V,R,
480,102,18,11,3,27,53,432,['c'],0,right,['9'],5,198,[0.07026021],81,53,easy,minus,dotcolour,alfa,,,118,18,V,R,
481,103,19,11,3,44,36,899,['c'],1,left,['9'],5,163,[0.09339248],89,44,hard,minus,dotcolour,alfa,,,118,18,V,R,
482,104,20,11,3,27,53,348,['n'],1,right,['0'],6,255,[-0.16155786],95,53,easy,minus,dotcolour,alfa,,,118,18,V,R,
483,105,21,11,3,53,27,549,['c'],1,left,['0'],6,168,[0.05630831],77,53,easy,minus,dotcolour,alfa,,,118,18,V,R,
484,106,22,11,3,36,44,999,['c'],0,right,['9'],5,163,[0.0203522],61,44,hard,minus,dotcolour,alfa,,,118,18,V,R,
485,107,23,11,3,36,44,964,['n'],1,right,['0'],6,199,[-0.08682719],85,44,hard,minus,dotcolour,alfa,,,118,18,V,R,
486,108,24,11,3,33,47,866,['c'],0,right,['9'],5,174,[0.08383751],86,47,medium,minus,dotcolour,alfa,,,118,18,V,R,
487,109,25,11,3,47,33,515,['c'],1,left,['9'],5,220,[0.17634296],97,47,medium,minus,dotcolour,alfa,,,118,18,V,R,
488,110,26,11,3,44,36,833,['c'],1,left,['8'],4,155,[0.09669661],90,44,hard,minus,dotcolour,alfa,,,118,18,V,R,
489,111,27,11,3,36,44,765,['c'],0,right,['0'],6,511,[0.01449321],55,44,hard,minus,dotcolour,alfa,,,118,18,V,R,
490,112,28,11,3,44,36,598,['c'],1,left,['9'],5,164,[0.05294437],76,44,hard,minus,dotcolour,alfa,,,118,18,V,R,
491,113,29,11,3,36,44,899,['n'],1,right,['9'],5,258,[-0.05813283],74,44,hard,minus,dotcolour,alfa,,,118,18,V,R,
492,114,30,11,3,53,27,782,['c'],1,left,['9'],5,194,[0.15300999],96,53,easy,minus,dotcolour,alfa,,,118,18,V,R,
493,115,31,11,3,33,47,548,['c'],0,right,['1'],1,621,[-0.16799901],13,47,medium,minus,dotcolour,alfa,,,118,18,V,R,
494,116,32,11,3,33,47,682,['c'],0,right,['9'],5,746,[0.00951594],52,47,medium,minus,dotcolour,alfa,,,118,18,V,R,
495,117,33,11,3,44,36,682,['n'],0,left,['0'],6,282,[-0.02839312],62,44,hard,minus,dotcolour,alfa,,,118,18,V,R,
496,118,34,11,3,47,33,1082,['c'],1,left,['9'],5,204,[0.16469411],96,47,medium,minus,dotcolour,alfa,,,118,18,V,R,
497,119,35,11,3,33,47,665,['c'],0,right,['9'],5,154,[0.02413296],63,47,medium,minus,dotcolour,alfa,,,118,18,V,R,
498,120,36,11,3,47,33,631,['n'],0,left,['1'],1,644,[0.11585911],21,47,medium,minus,dotcolour,alfa,,,118,18,V,R,
499,121,37,11,3,53,27,632,['c'],1,left,['9'],5,298,[0.09530223],83,53,easy,minus,dotcolour,alfa,,,118,18,V,R,
500,122,38,11,3,47,33,667,['n'],0,left,['9'],5,252,[0.00304681],49,47,medium,minus,dotcolour,alfa,,,118,18,V,R,
501,123,39,11,3,36,44,965,['c'],0,right,['9'],5,213,[0.06248102],77,44,hard,minus,dotcolour,alfa,,,118,18,V,R,
502,124,40,11,3,44,36,598,['n'],0,left,['9'],5,254,[-0.02215034],60,44,hard,minus,dotcolour,alfa,,,118,18,V,R,
503,125,41,11,3,27,53,548,['c'],0,right,['9'],5,334,[0.07172477],75,53,easy,minus,dotcolour,alfa,,,118,18,V,R,
504,0,0,12,4,36,44,5249,['n'],1,right,['9'],5,1482,[-0.30404409],100,44,hard,plus,dotcolour,alfa,,,118,18,V,R,
505,1,1,12,4,27,53,1332,['n'],1,right,['0'],6,2562,[-0.40613922],100,53,easy,plus,dotcolour,alfa,,,118,18,V,R,
506,2,2,12,4,33,47,931,['n'],1,right,['0'],6,318,[-0.0687547],99,47,medium,plus,dotcolour,alfa,,,118,18,V,R,
507,3,3,12,4,44,36,2133,['n'],0,left,['0'],6,301,[-0.07843598],99,44,hard,plus,dotcolour,alfa,,,118,18,V,R,
508,4,4,12,4,53,27,966,['c'],1,left,['0'],6,283,[0.16251047],100,53,easy,plus,dotcolour,alfa,,,118,18,V,R,
509,5,5,12,4,47,33,1581,['n'],0,left,['9'],5,666,[-0.05085833],90,47,medium,plus,dotcolour,alfa,,,118,18,V,R,
510,6,6,12,4,44,36,548,['n'],0,left,['9'],5,234,[-0.1013196],100,44,hard,plus,dotcolour,alfa,,,118,18,V,R,
511,7,7,12,4,27,53,731,['n'],1,right,['9'],5,309,[-0.11033361],100,53,easy,plus,dotcolour,alfa,,,118,18,V,R,
512,8,8,12,4,53,27,631,['c'],1,left,['0'],6,192,[0.00063912],51,53,easy,plus,dotcolour,alfa,,,118,18,V,R,
513,9,9,12,4,44,36,732,['c'],1,left,['0'],6,572,[0.05917119],94,44,hard,plus,dotcolour,alfa,,,118,18,V,R,
514,10,10,12,4,36,44,632,['n'],1,right,['9'],5,309,[-0.09004609],100,44,hard,plus,dotcolour,alfa,,,118,18,V,R,
515,11,11,12,4,36,44,632,['c'],0,right,['9'],5,184,[0.05275873],99,44,hard,plus,dotcolour,alfa,,,118,18,V,R,
516,12,12,12,4,44,36,532,['c'],1,left,['9'],5,341,[0.03068021],87,44,hard,plus,dotcolour,alfa,,,118,18,V,R,
517,13,13,12,4,47,33,665,['c'],1,left,['9'],5,213,[0.15799541],100,47,medium,plus,dotcolour,alfa,,,118,18,V,R,
518,14,14,12,4,53,27,432,['c'],1,left,['9'],5,164,[0.04080054],97,53,easy,plus,dotcolour,alfa,,,118,18,V,R,
519,15,15,12,4,44,36,568,['c'],1,left,['9'],5,145,[0.12124222],100,44,hard,plus,dotcolour,alfa,,,118,18,V,R,
520,16,16,12,4,47,33,467,['c'],1,left,['9'],5,169,[0.08388416],100,47,medium,plus,dotcolour,alfa,,,118,18,V,R,
521,17,17,12,4,33,47,517,['c'],0,right,['9'],5,279,[0.00315852],55,47,medium,plus,dotcolour,alfa,,,118,18,V,R,
522,18,18,12,4,33,47,634,['c'],0,right,['0'],6,156,[0.04987782],99,47,medium,plus,dotcolour,alfa,,,118,18,V,R,
523,19,19,12,4,53,27,734,['c'],1,left,['0'],6,217,[0.12254678],100,53,easy,plus,dotcolour,alfa,,,118,18,V,R,
524,20,20,12,4,53,27,399,['c'],1,left,['0'],6,186,[0.12685605],100,53,easy,plus,dotcolour,alfa,,,118,18,V,R,
525,21,21,12,4,27,53,415,['c'],0,right,['1'],1,987,[0.01963294],67,53,easy,plus,dotcolour,alfa,,,118,18,V,R,
526,22,22,12,4,47,33,716,['c'],1,left,['9'],5,175,[0.05506264],99,47,medium,plus,dotcolour,alfa,,,118,18,V,R,
527,23,23,12,4,44,36,599,['c'],1,left,['9'],5,137,[0.07187866],100,44,hard,plus,dotcolour,alfa,,,118,18,V,R,
528,24,24,12,4,44,36,849,['c'],1,left,['9'],5,219,[0.0492242],98,44,hard,plus,dotcolour,alfa,,,118,18,V,R,
529,25,25,12,4,53,27,465,['c'],1,left,['0'],6,185,[0.09476242],100,53,easy,plus,dotcolour,alfa,,,118,18,V,R,
530,26,26,12,4,33,47,382,['c'],0,right,['8'],4,1044,[-0.02415567],30,47,medium,plus,dotcolour,alfa,,,118,18,V,R,
531,27,27,12,4,36,44,615,['c'],0,right,['9'],5,179,[0.07445241],100,44,hard,plus,dotcolour,alfa,,,118,18,V,R,
532,28,28,12,4,53,27,632,['c'],1,left,['0'],6,195,[0.02700542],90,53,easy,plus,dotcolour,alfa,,,118,18,V,R,
533,29,29,12,4,27,53,533,['c'],0,right,['9'],5,215,[0.11547682],100,53,easy,plus,dotcolour,alfa,,,118,18,V,R,
534,30,30,12,4,36,44,616,['c'],0,right,['9'],5,207,[0.05801165],99,44,hard,plus,dotcolour,alfa,,,118,18,V,R,
535,31,31,12,4,33,47,549,['c'],0,right,['9'],5,169,[0.10155615],100,47,medium,plus,dotcolour,alfa,,,118,18,V,R,
536,32,32,12,4,47,33,482,['n'],0,left,['9'],5,337,[-0.07893569],99,47,medium,plus,dotcolour,alfa,,,118,18,V,R,
537,33,33,12,4,27,53,499,['n'],1,right,['0'],6,225,[-0.08076968],100,53,easy,plus,dotcolour,alfa,,,118,18,V,R,
538,34,34,12,4,33,47,1049,['n'],1,right,['0'],6,199,[-0.07080034],100,47,medium,plus,dotcolour,alfa,,,118,18,V,R,
539,35,35,12,4,27,53,482,['n'],1,right,['0'],6,189,[-0.10374476],100,53,easy,plus,dotcolour,alfa,,,118,18,V,R,
540,36,36,12,4,27,53,965,['n'],1,right,['9'],5,223,[-0.0983977],100,53,easy,plus,dotcolour,alfa,,,118,18,V,R,
541,37,37,12,4,33,47,482,['n'],1,right,['0'],6,245,[-0.11994586],100,47,medium,plus,dotcolour,alfa,,,118,18,V,R,
542,38,38,12,4,47,33,698,['c'],1,left,['0'],6,192,[0.06159036],99,47,medium,plus,dotcolour,alfa,,,118,18,V,R,
543,39,39,12,4,47,33,597,['c'],1,left,['9'],5,193,[0.08122401],100,47,medium,plus,dotcolour,alfa,,,118,18,V,R,
544,40,40,12,4,36,44,581,['c'],0,right,['9'],5,147,[-0.04656863],1,44,hard,plus,dotcolour,alfa,,,118,18,V,R,
545,41,41,12,4,36,44,581,['c'],0,right,['0'],6,136,[0.06243986],100,44,hard,plus,dotcolour,alfa,,,118,18,V,R,
546,42,0,13,4,36,44,549,['c'],0,right,['9'],5,183,[0.09089871],100,44,hard,plus,dotcolour,alfa,,,118,18,V,R,
547,43,1,13,4,33,47,566,['c'],0,right,['1'],1,658,[0.04970733],90,47,medium,plus,dotcolour,alfa,,,118,18,V,R,
548,44,2,13,4,33,47,564,['c'],0,right,['0'],6,162,[0.02946967],93,47,medium,plus,dotcolour,alfa,,,118,18,V,R,
549,45,3,13,4,47,33,498,['c'],1,left,['0'],6,329,[0.17582339],100,47,medium,plus,dotcolour,alfa,,,118,18,V,R,
550,46,4,13,4,53,27,415,['c'],1,left,['0'],6,164,[0.04356659],98,53,easy,plus,dotcolour,alfa,,,118,18,V,R,
551,47,5,13,4,33,47,683,['n'],1,right,['0'],6,195,[-0.11755071],100,47,medium,plus,dotcolour,alfa,,,118,18,V,R,
552,48,6,13,4,47,33,516,['c'],1,left,['0'],6,216,[0.06981903],100,47,medium,plus,dotcolour,alfa,,,118,18,V,R,
553,49,7,13,4,53,27,715,['c'],1,left,['0'],6,196,[0.1476697],100,53,easy,plus,dotcolour,alfa,,,118,18,V,R,
554,50,8,13,4,33,47,663,['n'],1,right,['9'],5,291,[-0.01692524],76,47,medium,plus,dotcolour,alfa,,,118,18,V,R,
555,51,9,13,4,33,47,465,['c'],0,right,['9'],5,237,[0.07277421],100,47,medium,plus,dotcolour,alfa,,,118,18,V,R,
556,52,10,13,4,36,44,698,['c'],0,right,['0'],6,377,[0.02390118],80,44,hard,plus,dotcolour,alfa,,,118,18,V,R,
557,53,11,13,4,53,27,533,['c'],1,left,['0'],6,214,[0.12785452],100,53,easy,plus,dotcolour,alfa,,,118,18,V,R,
558,54,12,13,4,33,47,548,['n'],1,right,['0'],6,272,[-0.13382131],100,47,medium,plus,dotcolour,alfa,,,118,18,V,R,
559,55,13,13,4,44,36,415,['c'],1,left,['0'],6,269,[0.2122172],100,44,hard,plus,dotcolour,alfa,,,118,18,V,R,
560,56,14,13,4,47,33,433,['c'],1,left,['9'],5,299,[0.06115284],98,47,medium,plus,dotcolour,alfa,,,118,18,V,R,
561,57,15,13,4,44,36,599,['c'],1,left,['9'],5,304,[0.10987915],100,44,hard,plus,dotcolour,alfa,,,118,18,V,R,
562,58,16,13,4,36,44,765,['n'],1,right,['9'],5,526,[-0.18053601],100,44,hard,plus,dotcolour,alfa,,,118,18,V,R,
563,59,17,13,4,27,53,550,['n'],1,right,['0'],6,524,[-0.10586599],99,53,easy,plus,dotcolour,alfa,,,118,18,V,R,
564,60,18,13,4,53,27,465,['c'],1,left,['9'],5,381,[0.13681303],100,53,easy,plus,dotcolour,alfa,,,118,18,V,R,
565,61,19,13,4,44,36,498,['c'],1,left,['9'],5,147,[0.0557248],99,44,hard,plus,dotcolour,alfa,,,118,18,V,R,
566,62,20,13,4,44,36,532,['c'],1,left,['9'],5,201,[0.02204486],85,44,hard,plus,dotcolour,alfa,,,118,18,V,R,
567,63,21,13,4,44,36,432,['c'],1,left,['0'],6,257,[0.12450845],100,44,hard,plus,dotcolour,alfa,,,118,18,V,R,
568,64,22,13,4,53,27,449,['n'],0,left,['1'],1,726,[-0.00541701],56,53,easy,plus,dotcolour,alfa,,,118,18,V,R,
569,65,23,13,4,27,53,533,['c'],0,right,['0'],6,212,[0.07875759],100,53,easy,plus,dotcolour,alfa,,,118,18,V,R,
570,66,24,13,4,27,53,530,['n'],1,right,['0'],6,232,[-0.1044264],100,53,easy,plus,dotcolour,alfa,,,118,18,V,R,
571,67,25,13,4,36,44,965,['c'],0,right,['9'],5,193,[0.02911954],92,44,hard,plus,dotcolour,alfa,,,118,18,V,R,
572,68,26,13,4,33,47,549,['c'],0,right,['9'],5,148,[0.07603563],100,47,medium,plus,dotcolour,alfa,,,118,18,V,R,
573,69,27,13,4,44,36,732,['n'],0,left,['0'],6,234,[-0.08083876],100,44,hard,plus,dotcolour,alfa,,,118,18,V,R,
574,70,28,13,4,47,33,499,['c'],1,left,['9'],5,198,[0.08908727],100,47,medium,plus,dotcolour,alfa,,,118,18,V,R,
575,71,29,13,4,47,33,448,['c'],1,left,['9'],5,190,[0.09141433],100,47,medium,plus,dotcolour,alfa,,,118,18,V,R,
576,72,30,13,4,27,53,814,['n'],1,right,['9'],5,239,[-0.12105733],100,53,easy,plus,dotcolour,alfa,,,118,18,V,R,
577,73,31,13,4,53,27,516,['c'],1,left,['0'],6,418,[0.05158025],95,53,easy,plus,dotcolour,alfa,,,118,18,V,R,
578,74,32,13,4,27,53,466,['n'],1,right,['0'],6,272,[-0.09384997],100,53,easy,plus,dotcolour,alfa,,,118,18,V,R,
579,75,33,13,4,44,36,515,['n'],0,left,['9'],5,329,[-0.08047281],99,44,hard,plus,dotcolour,alfa,,,118,18,V,R,
580,76,34,13,4,47,33,681,['c'],1,left,['9'],5,186,[0.07648925],100,47,medium,plus,dotcolour,alfa,,,118,18,V,R,
581,77,35,13,4,47,33,649,['c'],1,left,['0'],6,146,[0.03397263],96,47,medium,plus,dotcolour,alfa,,,118,18,V,R,
582,78,36,13,4,27,53,582,['n'],1,right,['0'],6,366,[-0.16712999],100,53,easy,plus,dotcolour,alfa,,,118,18,V,R,
583,79,37,13,4,36,44,799,['n'],1,right,['9'],5,209,[-0.01669135],79,44,hard,plus,dotcolour,alfa,,,118,18,V,R,
584,80,38,13,4,36,44,482,['c'],0,right,['9'],5,214,[0.06405944],99,44,hard,plus,dotcolour,alfa,,,118,18,V,R,
585,81,39,13,4,27,53,730,['c'],0,right,['9'],5,185,[0.02829761],91,53,easy,plus,dotcolour,alfa,,,118,18,V,R,
586,82,40,13,4,36,44,547,['n'],1,right,['0'],6,333,[-0.0890205],100,44,hard,plus,dotcolour,alfa,,,118,18,V,R,
587,83,41,13,4,53,27,533,['c'],1,left,['0'],6,324,[-0.01056247],34,53,easy,plus,dotcolour,alfa,,,118,18,V,R,
588,84,0,14,4,44,36,483,['c'],1,left,['9'],5,154,[0.09700189],100,44,hard,plus,dotcolour,alfa,,,118,18,V,R,
589,85,1,14,4,27,53,682,['n'],1,right,['0'],6,242,[-0.18386322],100,53,easy,plus,dotcolour,alfa,,,118,18,V,R,
590,86,2,14,4,47,33,632,['c'],1,left,['9'],5,272,[0.1161935],100,47,medium,plus,dotcolour,alfa,,,118,18,V,R,
591,87,3,14,4,44,36,416,['n'],0,left,['9'],5,334,[-0.00097147],52,44,hard,plus,dotcolour,alfa,,,118,18,V,R,
592,88,4,14,4,27,53,448,['n'],1,right,['0'],6,327,[-0.14912189],100,53,easy,plus,dotcolour,alfa,,,118,18,V,R,
593,89,5,14,4,33,47,881,['n'],1,right,['0'],6,272,[-0.04068421],94,47,medium,plus,dotcolour,alfa,,,118,18,V,R,
594,90,6,14,4,27,53,549,['n'],1,right,['9'],5,392,[-0.03824524],90,53,easy,plus,dotcolour,alfa,,,118,18,V,R,
595,91,7,14,4,36,44,465,['c'],0,right,['9'],5,175,[0.02057185],85,44,hard,plus,dotcolour,alfa,,,118,18,V,R,
596,92,8,14,4,53,27,448,['c'],1,left,['9'],5,183,[0.03143008],93,53,easy,plus,dotcolour,alfa,,,118,18,V,R,
597,93,9,14,4,53,27,330,['c'],1,left,['9'],5,195,[0.04122739],97,53,easy,plus,dotcolour,alfa,,,118,18,V,R,
598,94,10,14,4,36,44,913,['n'],1,right,['0'],6,272,[-0.10311493],100,44,hard,plus,dotcolour,alfa,,,118,18,V,R,
599,95,11,14,4,47,33,466,['n'],0,left,['0'],6,308,[-0.01634155],74,47,medium,plus,dotcolour,alfa,,,118,18,V,R,
600,96,12,14,4,47,33,432,['c'],1,left,['9'],5,207,[-0.00155867],47,47,medium,plus,dotcolour,alfa,,,118,18,V,R,
601,97,13,14,4,47,33,314,['c'],1,left,['9'],5,203,[0.05796894],99,47,medium,plus,dotcolour,alfa,,,118,18,V,R,
602,98,14,14,4,33,47,665,['n'],1,right,['9'],5,442,[-0.10995504],100,47,medium,plus,dotcolour,alfa,,,118,18,V,R,
603,99,15,14,4,33,47,865,['c'],0,right,['9'],5,182,[0.06978063],100,47,medium,plus,dotcolour,alfa,,,118,18,V,R,
604,100,16,14,4,44,36,482,['c'],1,left,['9'],5,277,[-0.00488806],42,44,hard,plus,dotcolour,alfa,,,118,18,V,R,
605,101,17,14,4,53,27,465,['c'],1,left,['9'],5,184,[0.06490265],100,53,easy,plus,dotcolour,alfa,,,118,18,V,R,
606,102,18,14,4,47,33,515,['c'],1,left,['9'],5,207,[0.0697173],100,47,medium,plus,dotcolour,alfa,,,118,18,V,R,
607,103,19,14,4,33,47,533,['c'],0,right,['9'],5,210,[0.0676921],100,47,medium,plus,dotcolour,alfa,,,118,18,V,R,
608,104,20,14,4,33,47,365,['c'],0,right,['9'],5,196,[0.10942969],100,47,medium,plus,dotcolour,alfa,,,118,18,V,R,
609,105,21,14,4,33,47,464,['c'],0,right,['9'],5,363,[0.01956489],76,47,medium,plus,dotcolour,alfa,,,118,18,V,R,
610,106,22,14,4,53,27,548,['c'],1,left,['9'],5,255,[0.16596636],100,53,easy,plus,dotcolour,alfa,,,118,18,V,R,
611,107,23,14,4,36,44,483,['c'],0,right,['9'],5,203,[0.04585046],97,44,hard,plus,dotcolour,alfa,,,118,18,V,R,
612,108,24,14,4,27,53,315,['c'],0,right,['9'],5,359,[-0.00377558],44,53,easy,plus,dotcolour,alfa,,,118,18,V,R,
613,109,25,14,4,44,36,817,['c'],1,left,['9'],5,657,[0.12000577],100,44,hard,plus,dotcolour,alfa,,,118,18,V,R,
614,110,26,14,4,44,36,630,['n'],0,left,['9'],5,415,[-0.02970973],84,44,hard,plus,dotcolour,alfa,,,118,18,V,R,
615,111,27,14,4,36,44,432,['c'],0,right,['9'],5,214,[0.05963325],99,44,hard,plus,dotcolour,alfa,,,118,18,V,R,
616,112,28,14,4,27,53,499,['c'],0,right,['9'],5,146,[0.03934642],98,53,easy,plus,dotcolour,alfa,,,118,18,V,R,
617,113,29,14,4,53,27,582,['n'],0,left,['1'],1,638,[0.11906402],0,53,easy,plus,dotcolour,alfa,,,118,18,V,R,
618,114,30,14,4,53,27,665,['c'],1,left,['9'],5,315,[0.1056538],100,53,easy,plus,dotcolour,alfa,,,118,18,V,R,
619,115,31,14,4,47,33,482,['c'],1,left,['9'],5,181,[0.06751278],100,47,medium,plus,dotcolour,alfa,,,118,18,V,R,
620,116,32,14,4,27,53,849,['n'],1,right,['0'],6,228,[-0.12730085],100,53,easy,plus,dotcolour,alfa,,,118,18,V,R,
621,117,33,14,4,36,44,551,['n'],1,right,['9'],5,750,[-0.08659035],97,44,hard,plus,dotcolour,alfa,,,118,18,V,R,
622,118,34,14,4,36,44,648,['c'],0,right,['9'],5,176,[0.02692101],91,44,hard,plus,dotcolour,alfa,,,118,18,V,R,
623,119,35,14,4,27,53,647,['c'],0,right,['0'],6,176,[0.08927888],100,53,easy,plus,dotcolour,alfa,,,118,18,V,R,
624,120,36,14,4,44,36,681,['c'],1,left,['0'],6,270,[0.08204578],100,44,hard,plus,dotcolour,alfa,,,118,18,V,R,
625,121,37,14,4,33,47,898,['n'],1,right,['0'],6,249,[-0.14221718],100,47,medium,plus,dotcolour,alfa,,,118,18,V,R,
626,122,38,14,4,53,27,430,['c'],1,left,['0'],6,191,[0.10677083],100,53,easy,plus,dotcolour,alfa,,,118,18,V,R,
627,123,39,14,4,47,33,565,['c'],1,left,['0'],6,226,[0.11095898],100,47,medium,plus,dotcolour,alfa,,,118,18,V,R,
628,124,40,14,4,36,44,448,['c'],0,right,['0'],6,184,[0.05063697],99,44,hard,plus,dotcolour,alfa,,,118,18,V,R,
629,125,41,14,4,44,36,699,['c'],1,left,['9'],5,190,[0.06460278],100,44,hard,plus,dotcolour,alfa,,,118,18,V,R,
630,0,0,15,5,44,36,533,['c'],1,left,['9'],5,192,[0.0647303],79,44,hard,minus,dotcolour,alfa,,,118,18,V,R,
631,1,1,15,5,27,53,448,['n'],1,right,['0'],6,272,[-0.17000617],95,53,easy,minus,dotcolour,alfa,,,118,18,V,R,
632,2,2,15,5,53,27,464,['c'],1,left,['9'],5,243,[0.03869779],67,53,easy,minus,dotcolour,alfa,,,118,18,V,R,
633,3,3,15,5,53,27,531,['c'],1,left,['9'],5,213,[0.07334615],81,53,easy,minus,dotcolour,alfa,,,118,18,V,R,
634,4,4,15,5,53,27,449,['c'],1,left,['9'],5,236,[0.09511859],85,53,easy,minus,dotcolour,alfa,,,118,18,V,R,
635,5,5,15,5,33,47,632,['n'],1,right,['0'],6,234,[-0.1270518],91,47,medium,minus,dotcolour,alfa,,,118,18,V,R,
636,6,6,15,5,47,33,1032,['c'],1,left,['9'],5,177,[0.14999396],96,47,medium,minus,dotcolour,alfa,,,118,18,V,R,
637,7,7,15,5,36,44,549,['n'],1,right,['0'],6,197,[0.0034075],48,44,hard,minus,dotcolour,alfa,,,118,18,V,R,
638,8,8,15,5,53,27,481,['c'],1,left,['9'],5,187,[0.07134892],82,53,easy,minus,dotcolour,alfa,,,118,18,V,R,
639,9,9,15,5,27,53,632,['n'],1,right,['0'],6,212,[-0.09171113],86,53,easy,minus,dotcolour,alfa,,,118,18,V,R,
640,10,10,15,5,36,44,1048,['n'],1,right,['9'],5,210,[0.00279845],49,44,hard,minus,dotcolour,alfa,,,118,18,V,R,
641,11,11,15,5,47,33,532,['c'],1,left,['9'],5,190,[0.11511901],92,47,medium,minus,dotcolour,alfa,,,118,18,V,R,
642,12,12,15,5,33,47,599,['n'],1,right,['0'],6,247,[-0.06732051],77,47,medium,minus,dotcolour,alfa,,,118,18,V,R,
643,13,13,15,5,33,47,650,['n'],1,right,['8'],4,364,[-0.03304107],62,47,medium,minus,dotcolour,alfa,,,118,18,V,R,
644,14,14,15,5,53,27,397,['c'],1,left,['9'],5,335,[0.19236738],95,53,easy,minus,dotcolour,alfa,,,118,18,V,R,
645,15,15,15,5,53,27,482,['c'],1,left,['9'],5,175,[0.10208412],90,53,easy,minus,dotcolour,alfa,,,118,18,V,R,
646,16,16,15,5,27,53,599,['c'],0,right,['1'],1,897,[-0.08675257],30,53,easy,minus,dotcolour,alfa,,,118,18,V,R,
647,17,17,15,5,33,47,715,['n'],1,right,['9'],5,234,[-0.04761105],71,47,medium,minus,dotcolour,alfa,,,118,18,V,R,
648,18,18,15,5,47,33,650,['n'],0,left,['1'],1,560,[-0.02984035],59,47,medium,minus,dotcolour,alfa,,,118,18,V,R,
649,19,19,15,5,36,44,599,['n'],1,right,['9'],5,267,[-0.03748448],66,44,hard,minus,dotcolour,alfa,,,118,18,V,R,
650,20,20,15,5,27,53,799,['n'],1,right,['9'],5,249,[-0.15851629],95,53,easy,minus,dotcolour,alfa,,,118,18,V,R,
651,21,21,15,5,36,44,946,['n'],1,right,['9'],5,211,[-0.08090765],83,44,hard,minus,dotcolour,alfa,,,118,18,V,R,
652,22,22,15,5,27,53,665,['c'],0,right,['8'],4,1129,[-0.08418341],33,53,easy,minus,dotcolour,alfa,,,118,18,V,R,
653,23,23,15,5,27,53,532,['n'],1,right,['0'],6,359,[-0.09842668],81,53,easy,minus,dotcolour,alfa,,,118,18,V,R,
654,24,24,15,5,44,36,665,['c'],1,left,['9'],5,175,[0.06046158],79,44,hard,minus,dotcolour,alfa,,,118,18,V,R,
655,25,25,15,5,47,33,681,['c'],1,left,['9'],5,158,[0.11126332],93,47,medium,minus,dotcolour,alfa,,,118,18,V,R,
656,26,26,15,5,53,27,532,['c'],1,left,['9'],5,227,[0.14407978],94,53,easy,minus,dotcolour,alfa,,,118,18,V,R,
657,27,27,15,5,36,44,683,['c'],0,right,['0'],6,296,[0.05190106],70,44,hard,minus,dotcolour,alfa,,,118,18,V,R,
658,28,28,15,5,27,53,497,['n'],1,right,['0'],6,225,[-0.15794008],95,53,easy,minus,dotcolour,alfa,,,118,18,V,R,
659,29,29,15,5,44,36,797,['c'],1,left,['9'],5,185,[0.08212459],85,44,hard,minus,dotcolour,alfa,,,118,18,V,R,
660,30,30,15,5,36,44,782,['n'],1,right,['0'],6,235,[-0.10160191],87,44,hard,minus,dotcolour,alfa,,,118,18,V,R,
661,31,31,15,5,33,47,498,['n'],1,right,['9'],5,191,[-0.11700033],92,47,medium,minus,dotcolour,alfa,,,118,18,V,R,
662,32,32,15,5,36,44,648,['c'],0,right,['9'],5,262,[0.03870659],66,44,hard,minus,dotcolour,alfa,,,118,18,V,R,
663,33,33,15,5,44,36,747,['n'],0,left,['9'],5,231,[-0.06220085],76,44,hard,minus,dotcolour,alfa,,,118,18,V,R,
664,34,34,15,5,33,47,614,['c'],0,right,['9'],5,374,[0.00234948],51,47,medium,minus,dotcolour,alfa,,,118,18,V,R,
665,35,35,15,5,44,36,598,['c'],1,left,['9'],5,184,[0.13095016],94,44,hard,minus,dotcolour,alfa,,,118,18,V,R,
666,36,36,15,5,47,33,830,['c'],1,left,['9'],5,161,[0.07924231],86,47,medium,minus,dotcolour,alfa,,,118,18,V,R,
667,37,37,15,5,47,33,532,['c'],1,left,['9'],5,174,[0.05349585],76,47,medium,minus,dotcolour,alfa,,,118,18,V,R,
668,38,38,15,5,44,36,766,['n'],0,left,['9'],5,226,[-0.19081661],97,44,hard,minus,dotcolour,alfa,,,118,18,V,R,
669,39,39,15,5,47,33,917,['n'],0,left,['9'],5,237,[-0.01341032],56,47,medium,minus,dotcolour,alfa,,,118,18,V,R,
670,40,40,15,5,33,47,548,['n'],1,right,['9'],5,559,[-0.2369363],95,47,medium,minus,dotcolour,alfa,,,118,18,V,R,
671,41,41,15,5,44,36,533,['c'],1,left,['9'],5,196,[0.10435512],89,44,hard,minus,dotcolour,alfa,,,118,18,V,R,
672,42,0,16,5,27,53,582,['n'],1,right,['9'],5,204,[-0.08587273],85,53,easy,minus,dotcolour,alfa,,,118,18,V,R,
673,43,1,16,5,33,47,499,['n'],1,right,['9'],5,258,[-0.18293384],96,47,medium,minus,dotcolour,alfa,,,118,18,V,R,
674,44,2,16,5,44,36,699,['n'],0,left,['9'],5,196,[-0.08681749],85,44,hard,minus,dotcolour,alfa,,,118,18,V,R,
675,45,3,16,5,53,27,399,['c'],1,left,['9'],5,150,[0.06601953],82,53,easy,minus,dotcolour,alfa,,,118,18,V,R,
676,46,4,16,5,27,53,614,['n'],1,right,['9'],5,152,[0.02165996],38,53,easy,minus,dotcolour,alfa,,,118,18,V,R,
677,47,5,16,5,47,33,1265,['c'],1,left,['9'],5,144,[0.16112638],98,47,medium,minus,dotcolour,alfa,,,118,18,V,R,
678,48,6,16,5,33,47,531,['n'],1,right,['9'],5,199,[-0.13545238],94,47,medium,minus,dotcolour,alfa,,,118,18,V,R,
679,49,7,16,5,33,47,1397,['c'],0,right,['9'],5,176,[0.11703651],92,47,medium,minus,dotcolour,alfa,,,118,18,V,R,
680,50,8,16,5,36,44,699,['n'],1,right,['9'],5,215,[-0.09771821],87,44,hard,minus,dotcolour,alfa,,,118,18,V,R,
681,51,9,16,5,53,27,481,['n'],0,left,['1'],1,659,[-0.03344728],59,53,easy,minus,dotcolour,alfa,,,118,18,V,R,
682,52,10,16,5,33,47,965,['c'],0,right,['9'],5,147,[0.02859053],66,47,medium,minus,dotcolour,alfa,,,118,18,V,R,
683,53,11,16,5,27,53,831,['n'],1,right,['0'],6,262,[-0.07147031],78,53,easy,minus,dotcolour,alfa,,,118,18,V,R,
684,54,12,16,5,36,44,883,['n'],1,right,['9'],5,248,[-0.14965525],94,44,hard,minus,dotcolour,alfa,,,118,18,V,R,
685,55,13,16,5,47,33,382,['n'],0,left,['9'],5,337,[-0.04826865],68,47,medium,minus,dotcolour,alfa,,,118,18,V,R,
686,56,14,16,5,44,36,833,['c'],1,left,['9'],5,179,[0.12194091],93,44,hard,minus,dotcolour,alfa,,,118,18,V,R,
687,57,15,16,5,36,44,1032,['n'],1,right,['0'],6,292,[-0.06811451],76,44,hard,minus,dotcolour,alfa,,,118,18,V,R,
688,58,16,16,5,44,36,548,['c'],1,left,['9'],5,203,[0.10831194],90,44,hard,minus,dotcolour,alfa,,,118,18,V,R,
689,59,17,16,5,36,44,564,['n'],1,right,['9'],5,262,[-0.11531577],88,44,hard,minus,dotcolour,alfa,,,118,18,V,R,
690,60,18,16,5,53,27,631,['c'],1,left,['9'],5,211,[0.09115972],86,53,easy,minus,dotcolour,alfa,,,118,18,V,R,
691,61,19,16,5,47,33,815,['c'],1,left,['0'],6,196,[0.02183014],61,47,medium,minus,dotcolour,alfa,,,118,18,V,R,
692,62,20,16,5,36,44,549,['c'],0,right,['9'],5,375,[0.08549989],78,44,hard,minus,dotcolour,alfa,,,118,18,V,R,
693,63,21,16,5,33,47,633,['n'],1,right,['9'],5,263,[-0.06214822],75,47,medium,minus,dotcolour,alfa,,,118,18,V,R,
694,64,22,16,5,33,47,549,['n'],1,right,['9'],5,256,[-0.01936939],59,47,medium,minus,dotcolour,alfa,,,118,18,V,R,
695,65,23,16,5,44,36,514,['c'],1,left,['9'],5,210,[0.06891564],79,44,hard,minus,dotcolour,alfa,,,118,18,V,R,
696,66,24,16,5,47,33,433,['c'],1,left,['9'],5,202,[0.09129421],86,47,medium,minus,dotcolour,alfa,,,118,18,V,R,
697,67,25,16,5,27,53,683,['n'],1,right,['9'],5,215,[-0.08576331],84,53,easy,minus,dotcolour,alfa,,,118,18,V,R,
698,68,26,16,5,27,53,749,['n'],1,right,['0'],6,210,[-0.03875745],68,53,easy,minus,dotcolour,alfa,,,118,18,V,R,
699,69,27,16,5,53,27,415,['c'],1,left,['9'],5,202,[0.08868088],86,53,easy,minus,dotcolour,alfa,,,118,18,V,R,
700,70,28,16,5,44,36,549,['n'],0,left,['9'],5,205,[-0.09325019],86,44,hard,minus,dotcolour,alfa,,,118,18,V,R,
701,71,29,16,5,33,47,449,['c'],0,right,['8'],4,1044,[0.09389791],70,47,medium,minus,dotcolour,alfa,,,118,18,V,R,
702,72,30,16,5,36,44,582,['c'],0,right,['8'],4,180,[0.09988754],89,44,hard,minus,dotcolour,alfa,,,118,18,V,R,
703,73,31,16,5,53,27,498,['c'],1,left,['9'],5,186,[0.0156721],58,53,easy,minus,dotcolour,alfa,,,118,18,V,R,
704,74,32,16,5,47,33,482,['c'],1,left,['9'],5,152,[0.07993171],86,47,medium,minus,dotcolour,alfa,,,118,18,V,R,
705,75,33,16,5,53,27,382,['c'],1,left,['9'],5,204,[0.12680539],93,53,easy,minus,dotcolour,alfa,,,118,18,V,R,
706,76,34,16,5,44,36,398,['c'],1,left,['9'],5,205,[0.0875397],85,44,hard,minus,dotcolour,alfa,,,118,18,V,R,
707,77,35,16,5,27,53,448,['c'],0,right,['9'],5,212,[0.12064844],91,53,easy,minus,dotcolour,alfa,,,118,18,V,R,
708,78,36,16,5,27,53,648,['c'],0,right,['9'],5,194,[0.01511052],58,53,easy,minus,dotcolour,alfa,,,118,18,V,R,
709,79,37,16,5,47,33,465,['c'],1,left,['9'],5,217,[-0.00067247],50,47,medium,minus,dotcolour,alfa,,,118,18,V,R,
710,80,38,16,5,53,27,632,['n'],0,left,['1'],1,641,[0.100292],24,53,easy,minus,dotcolour,alfa,,,118,18,V,R,
711,81,39,16,5,36,44,565,['c'],0,right,['9'],5,177,[0.07962492],85,44,hard,minus,dotcolour,alfa,,,118,18,V,R,
712,82,40,16,5,47,33,481,['n'],0,left,['9'],5,320,[-0.03860675],65,47,medium,minus,dotcolour,alfa,,,118,18,V,R,
713,83,41,16,5,44,36,665,['c'],1,left,['9'],5,193,[0.13041097],94,44,hard,minus,dotcolour,alfa,,,118,18,V,R,
714,84,0,17,5,27,53,767,['n'],1,right,['8'],4,297,[-0.13347505],90,53,easy,minus,dotcolour,alfa,,,118,18,V,R,
715,85,1,17,5,33,47,499,['n'],1,right,['9'],5,234,[-0.05101984],72,47,medium,minus,dotcolour,alfa,,,118,18,V,R,
716,86,2,17,5,53,27,450,['c'],1,left,['9'],5,224,[0.07086164],79,53,easy,minus,dotcolour,alfa,,,118,18,V,R,
717,87,3,17,5,53,27,298,['c'],1,left,['9'],5,196,[0.11112822],91,53,easy,minus,dotcolour,alfa,,,118,18,V,R,
718,88,4,17,5,44,36,381,['c'],1,left,['9'],5,158,[0.10522234],92,44,hard,minus,dotcolour,alfa,,,118,18,V,R,
719,89,5,17,5,36,44,399,['c'],0,right,['9'],5,153,[0.1289789],95,44,hard,minus,dotcolour,alfa,,,118,18,V,R,
720,90,6,17,5,33,47,450,['c'],0,right,['9'],5,162,[0.09399304],89,47,medium,minus,dotcolour,alfa,,,118,18,V,R,
721,91,7,17,5,44,36,533,['n'],0,left,['9'],5,215,[-0.04446244],70,44,hard,minus,dotcolour,alfa,,,118,18,V,R,
722,92,8,17,5,36,44,499,['c'],0,right,['9'],5,197,[0.10168949],89,44,hard,minus,dotcolour,alfa,,,118,18,V,R,
723,93,9,17,5,53,27,516,['n'],0,left,['1'],1,673,[-0.01795408],55,53,easy,minus,dotcolour,alfa,,,118,18,V,R,
724,94,10,17,5,44,36,514,['c'],1,left,['9'],5,154,[-0.0241047],37,44,hard,minus,dotcolour,alfa,,,118,18,V,R,
725,95,11,17,5,27,53,432,['c'],0,right,['1'],1,1596,[-0.05874718],40,53,easy,minus,dotcolour,alfa,,,118,18,V,R,
726,96,12,17,5,33,47,514,['c'],0,right,['9'],5,232,[-0.07771553],19,47,medium,minus,dotcolour,alfa,,,118,18,V,R,
727,97,13,17,5,33,47,748,['n'],1,right,['9'],5,267,[-0.11267497],88,47,medium,minus,dotcolour,alfa,,,118,18,V,R,
728,98,14,17,5,36,44,565,['c'],0,right,['9'],5,202,[0.09179759],86,44,hard,minus,dotcolour,alfa,,,118,18,V,R,
729,99,15,17,5,53,27,1399,['c'],1,left,['0'],6,274,[0.20080696],97,53,easy,minus,dotcolour,alfa,,,118,18,V,R,
730,100,16,17,5,27,53,699,['n'],1,right,['0'],6,181,[-0.0585002],78,53,easy,minus,dotcolour,alfa,,,118,18,V,R,
731,101,17,17,5,44,36,698,['c'],1,left,['9'],5,235,[0.10242824],87,44,hard,minus,dotcolour,alfa,,,118,18,V,R,
732,102,18,17,5,53,27,599,['c'],1,left,['0'],6,203,[0.1292173],93,53,easy,minus,dotcolour,alfa,,,118,18,V,R,
733,103,19,17,5,47,33,682,['c'],1,left,['0'],6,177,[0.1051262],90,47,medium,minus,dotcolour,alfa,,,118,18,V,R,
734,104,20,17,5,47,33,649,['c'],1,left,['0'],6,184,[0.01401074],57,47,medium,minus,dotcolour,alfa,,,118,18,V,R,
735,105,21,17,5,53,27,497,['c'],1,left,['9'],5,223,[0.1897139],97,53,easy,minus,dotcolour,alfa,,,118,18,V,R,
736,106,22,17,5,27,53,814,['n'],1,right,['9'],5,263,[-0.11040797],87,53,easy,minus,dotcolour,alfa,,,118,18,V,R,
737,107,23,17,5,36,44,582,['c'],0,right,['9'],5,302,[-0.05219508],30,44,hard,minus,dotcolour,alfa,,,118,18,V,R,
738,108,24,17,5,47,33,515,['c'],1,left,['9'],5,175,[0.06538852],80,47,medium,minus,dotcolour,alfa,,,118,18,V,R,
739,109,25,17,5,53,27,699,['c'],1,left,['9'],5,133,[0.06079208],82,53,easy,minus,dotcolour,alfa,,,118,18,V,R,
740,110,26,17,5,47,33,598,['c'],1,left,['9'],5,177,[0.01928909],60,47,medium,minus,dotcolour,alfa,,,118,18,V,R,
741,111,27,17,5,36,44,365,['n'],1,right,['9'],5,276,[-0.06112817],74,44,hard,minus,dotcolour,alfa,,,118,18,V,R,
742,112,28,17,5,44,36,515,['n'],0,left,['9'],5,885,[-0.23763637],91,44,hard,minus,dotcolour,alfa,,,118,18,V,R,
743,113,29,17,5,36,44,699,['n'],1,right,['9'],5,207,[-0.01180276],56,44,hard,minus,dotcolour,alfa,,,118,18,V,R,
744,114,30,17,5,27,53,499,['c'],0,right,['9'],5,260,[0.0290986],63,53,easy,minus,dotcolour,alfa,,,118,18,V,R,
745,115,31,17,5,36,44,515,['c'],0,right,['9'],5,190,[0.01847922],59,44,hard,minus,dotcolour,alfa,,,118,18,V,R,
746,116,32,17,5,33,47,632,['n'],1,right,['9'],5,223,[-0.11786625],90,47,medium,minus,dotcolour,alfa,,,118,18,V,R,
747,117,33,17,5,47,33,667,['c'],1,left,['9'],5,156,[0.09511776],90,47,medium,minus,dotcolour,alfa,,,118,18,V,R,
748,118,34,17,5,27,53,532,['c'],0,right,['9'],5,193,[0.13045693],94,53,easy,minus,dotcolour,alfa,,,118,18,V,R,
749,119,35,17,5,44,36,632,['c'],1,left,['9'],5,177,[0.05189583],75,44,hard,minus,dotcolour,alfa,,,118,18,V,R,
750,120,36,17,5,33,47,582,['n'],1,right,['9'],5,260,[-0.13094453],91,47,medium,minus,dotcolour,alfa,,,118,18,V,R,
751,121,37,17,5,27,53,550,['c'],0,right,['1'],1,852,[-0.0721931],33,53,easy,minus,dotcolour,alfa,,,118,18,V,R,
752,122,38,17,5,47,33,497,['c'],1,left,['9'],5,175,[0.07579065],84,47,medium,minus,dotcolour,alfa,,,118,18,V,R,
753,123,39,17,5,47,33,1299,['c'],1,left,['9'],5,157,[0.11039234],92,47,medium,minus,dotcolour,alfa,,,118,18,V,R,
754,124,40,17,5,44,36,749,['n'],0,left,['9'],5,210,[-0.09244813],86,44,hard,minus,dotcolour,alfa,,,118,18,V,R,
755,125,41,17,5,33,47,716,['c'],0,right,['9'],5,206,[0.11743402],91,47,medium,minus,dotcolour,alfa,,,118,18,V,R,
,,,,,,,,,,,,,,,,,,,,,1,dat ik soms de indruk had dat mijn antwoord fout was wanneer het juist was,118,18,V,R,
,,,,,,,,,,,,,,,,,,,,,2,['g'],118,18,V,R,
,,,,,,,,,,,,,,,,,,,,,3,['g'],118,18,V,R,
,,,,,,,,,,,,,,,,,,,,,5,['1'],118,18,V,R,
