trial,withinphasetrial,withinblocktrial,block,phase,dotsLeft,dotsRight,rt,resp,cor,cresp,conf_press,cj,RTconf,ev,fb,diff,difflevel,condition,task,manip,questionID,questionResp,sub,age,gender,handedness,
0,0,0,0,0,36,44,2733,['c'],0,right,['8'],4,2717,[-0.04836513],52,44,hard,plus,dotcolour,beta,,,58,18,V,L,
1,1,1,0,0,47,33,1017,['c'],1,left,['9'],5,1343,[0.07342358],88,47,medium,plus,dotcolour,beta,,,58,18,V,L,
2,2,2,0,0,44,36,1417,['c'],1,left,['8'],4,602,[0.10088013],97,44,hard,plus,dotcolour,beta,,,58,18,V,L,
3,3,3,0,0,47,33,467,['c'],1,left,['0'],6,1176,[0.22960887],99,47,medium,plus,dotcolour,beta,,,58,18,V,L,
4,4,4,0,0,33,47,684,['n'],1,right,['8'],4,1055,[-0.16192794],98,47,medium,plus,dotcolour,beta,,,58,18,V,L,
5,5,5,0,0,53,27,650,['c'],1,left,['9'],5,1043,[0.31061925],100,53,easy,plus,dotcolour,beta,,,58,18,V,L,
6,6,6,0,0,44,36,533,['c'],1,left,['0'],6,629,[0.06576323],94,44,hard,plus,dotcolour,beta,,,58,18,V,L,
7,7,7,0,0,53,27,467,['c'],1,left,['9'],5,763,[0.24526307],100,53,easy,plus,dotcolour,beta,,,58,18,V,L,
8,8,8,0,0,47,33,434,['c'],1,left,['3'],3,1084,[0.3081075],100,47,medium,plus,dotcolour,beta,,,58,18,V,L,
9,9,9,0,0,53,27,467,['c'],1,left,['9'],5,567,[0.30288804],100,53,easy,plus,dotcolour,beta,,,58,18,V,L,
10,10,10,0,0,36,44,383,['c'],0,right,['9'],5,706,[-0.09849683],28,44,hard,plus,dotcolour,beta,,,58,18,V,L,
11,11,11,0,0,33,47,449,['c'],0,right,['8'],4,821,[-0.14691397],14,47,medium,plus,dotcolour,beta,,,58,18,V,L,
12,12,12,0,0,27,53,600,['n'],1,right,['9'],5,1045,[-0.20409169],99,53,easy,plus,dotcolour,beta,,,58,18,V,L,
13,13,13,0,0,33,47,717,['c'],0,right,['9'],5,663,[-0.0235664],67,47,medium,plus,dotcolour,beta,,,58,18,V,L,
14,14,14,0,0,47,33,450,['c'],1,left,['8'],4,548,[0.21580845],100,47,medium,plus,dotcolour,beta,,,58,18,V,L,
15,15,15,0,0,27,53,500,['c'],0,right,['2'],2,1572,[-0.01897599],63,53,easy,plus,dotcolour,beta,,,58,18,V,L,
16,16,16,0,0,33,47,449,['c'],0,right,['8'],4,1995,[-0.12517467],29,47,medium,plus,dotcolour,beta,,,58,18,V,L,
17,17,17,0,0,53,27,567,['c'],1,left,['9'],5,877,[0.12987356],97,53,easy,plus,dotcolour,beta,,,58,18,V,L,
18,18,18,0,0,27,53,833,['n'],1,right,['9'],5,578,[-0.12002011],98,53,easy,plus,dotcolour,beta,,,58,18,V,L,
19,19,19,0,0,47,33,532,['c'],1,left,['8'],4,575,[0.21949236],100,47,medium,plus,dotcolour,beta,,,58,18,V,L,
20,20,20,0,0,36,44,434,['c'],0,right,['8'],4,592,[0.09671592],97,44,hard,plus,dotcolour,beta,,,58,18,V,L,
21,21,21,0,0,36,44,500,['c'],0,right,['9'],5,541,[-0.00038716],79,44,hard,plus,dotcolour,beta,,,58,18,V,L,
22,22,22,0,0,53,27,500,['c'],1,left,['0'],6,636,[0.12635019],98,53,easy,plus,dotcolour,beta,,,58,18,V,L,
23,23,23,0,0,27,53,717,['n'],1,right,['8'],4,663,[-0.17006801],99,53,easy,plus,dotcolour,beta,,,58,18,V,L,
24,24,24,0,0,44,36,617,['c'],1,left,['8'],4,525,[0.09040497],97,44,hard,plus,dotcolour,beta,,,58,18,V,L,
25,25,25,0,0,36,44,850,['n'],1,right,['8'],4,415,[-0.10082988],99,44,hard,plus,dotcolour,beta,,,58,18,V,L,
26,26,26,0,0,33,47,1033,['n'],1,right,['8'],4,446,[-0.09701089],98,47,medium,plus,dotcolour,beta,,,58,18,V,L,
27,27,27,0,0,33,47,1501,['n'],1,right,['8'],4,722,[-0.12845237],98,47,medium,plus,dotcolour,beta,,,58,18,V,L,
28,28,28,0,0,33,47,667,['c'],0,right,['8'],4,451,[0.11090176],99,47,medium,plus,dotcolour,beta,,,58,18,V,L,
29,29,29,0,0,27,53,650,['n'],1,right,['8'],4,432,[-0.07135363],97,53,easy,plus,dotcolour,beta,,,58,18,V,L,
30,30,30,0,0,44,36,501,['c'],1,left,['9'],5,421,[0.10022282],99,44,hard,plus,dotcolour,beta,,,58,18,V,L,
31,31,31,0,0,44,36,599,['c'],1,left,['9'],5,374,[0.12765687],100,44,hard,plus,dotcolour,beta,,,58,18,V,L,
32,32,32,0,0,44,36,433,['c'],1,left,['9'],5,422,[0.16874551],100,44,hard,plus,dotcolour,beta,,,58,18,V,L,
33,33,33,0,0,36,44,515,['c'],0,right,['9'],5,474,[0.03705059],92,44,hard,plus,dotcolour,beta,,,58,18,V,L,
34,34,34,0,0,47,33,466,['c'],1,left,['8'],4,509,[0.14789256],99,47,medium,plus,dotcolour,beta,,,58,18,V,L,
35,35,35,0,0,27,53,750,['c'],0,right,['9'],5,995,[-0.18126826],9,53,easy,plus,dotcolour,beta,,,58,18,V,L,
36,36,36,0,0,53,27,750,['c'],1,left,['8'],4,582,[0.00595945],81,53,easy,plus,dotcolour,beta,,,58,18,V,L,
37,37,37,0,0,53,27,483,['c'],1,left,['9'],5,437,[0.21178189],100,53,easy,plus,dotcolour,beta,,,58,18,V,L,
38,38,38,0,0,27,53,650,['n'],1,right,['9'],5,531,[-0.22988313],100,53,easy,plus,dotcolour,beta,,,58,18,V,L,
39,39,39,0,0,47,33,599,['c'],1,left,['9'],5,415,[0.14632308],100,47,medium,plus,dotcolour,beta,,,58,18,V,L,
40,40,40,0,0,44,36,500,['c'],1,left,['9'],5,436,[0.07750802],97,44,hard,plus,dotcolour,beta,,,58,18,V,L,
41,41,41,0,0,36,44,400,['c'],0,right,['3'],3,787,[0.09058339],95,44,hard,plus,dotcolour,beta,,,58,18,V,L,
42,42,0,1,0,53,27,766,['c'],1,left,['9'],5,1107,[0.11073507],94,53,easy,plus,dotcolour,beta,,,58,18,V,L,
43,43,1,1,0,44,36,933,['c'],1,left,['8'],4,1002,[0.11871076],96,44,hard,plus,dotcolour,beta,,,58,18,V,L,
44,44,2,1,0,53,27,434,['c'],1,left,['9'],5,562,[0.03421699],90,53,easy,plus,dotcolour,beta,,,58,18,V,L,
45,45,3,1,0,53,27,467,['c'],1,left,['9'],5,561,[-0.03591403],62,53,easy,plus,dotcolour,beta,,,58,18,V,L,
46,46,4,1,0,53,27,399,['c'],1,left,['9'],5,436,[0.07020198],97,53,easy,plus,dotcolour,beta,,,58,18,V,L,
47,47,5,1,0,27,53,917,['n'],1,right,['9'],5,631,[-0.17554736],99,53,easy,plus,dotcolour,beta,,,58,18,V,L,
48,48,6,1,0,36,44,617,['c'],0,right,['0'],6,622,[0.12209902],98,44,hard,plus,dotcolour,beta,,,58,18,V,L,
49,49,7,1,0,33,47,1450,['c'],0,right,['8'],4,749,[0.10099239],96,47,medium,plus,dotcolour,beta,,,58,18,V,L,
50,50,8,1,0,33,47,617,['n'],1,right,['8'],4,543,[-0.07073714],96,47,medium,plus,dotcolour,beta,,,58,18,V,L,
51,51,9,1,0,47,33,566,['c'],1,left,['9'],5,436,[0.07016316],97,47,medium,plus,dotcolour,beta,,,58,18,V,L,
52,52,10,1,0,36,44,666,['c'],0,right,['8'],4,433,[0.07842226],98,44,hard,plus,dotcolour,beta,,,58,18,V,L,
53,53,11,1,0,36,44,684,['c'],0,right,['3'],3,862,[0.08481672],94,44,hard,plus,dotcolour,beta,,,58,18,V,L,
54,54,12,1,0,53,27,617,['c'],1,left,['0'],6,708,[0.14496151],99,53,easy,plus,dotcolour,beta,,,58,18,V,L,
55,55,13,1,0,27,53,684,['n'],1,right,['9'],5,837,[-0.19325847],99,53,easy,plus,dotcolour,beta,,,58,18,V,L,
56,56,14,1,0,44,36,600,['c'],1,left,['8'],4,525,[0.06279356],95,44,hard,plus,dotcolour,beta,,,58,18,V,L,
57,57,15,1,0,47,33,683,['n'],0,left,['2'],2,1878,[0.30910339],3,47,medium,plus,dotcolour,beta,,,58,18,V,L,
58,58,16,1,0,47,33,650,['n'],0,left,['3'],3,1713,[0.01835472],63,47,medium,plus,dotcolour,beta,,,58,18,V,L,
59,59,17,1,0,44,36,501,['c'],1,left,['9'],5,761,[0.21105173],100,44,hard,plus,dotcolour,beta,,,58,18,V,L,
60,60,18,1,0,33,47,717,['n'],1,right,['8'],4,551,[-0.02998433],89,47,medium,plus,dotcolour,beta,,,58,18,V,L,
61,61,19,1,0,44,36,600,['c'],1,left,['8'],4,1154,[-0.03134719],60,44,hard,plus,dotcolour,beta,,,58,18,V,L,
62,62,20,1,0,36,44,567,['n'],1,right,['9'],5,494,[-0.10166212],98,44,hard,plus,dotcolour,beta,,,58,18,V,L,
63,63,21,1,0,27,53,633,['c'],0,right,['2'],2,1451,[-0.25513721],5,53,easy,plus,dotcolour,beta,,,58,18,V,L,
64,64,22,1,0,33,47,1600,['n'],1,right,['8'],4,457,[-0.10763153],99,47,medium,plus,dotcolour,beta,,,58,18,V,L,
65,65,23,1,0,47,33,1317,['n'],0,left,['8'],4,483,[-0.03847901],92,47,medium,plus,dotcolour,beta,,,58,18,V,L,
66,66,24,1,0,44,36,750,['c'],1,left,['9'],5,635,[0.14853844],99,44,hard,plus,dotcolour,beta,,,58,18,V,L,
67,67,25,1,0,47,33,884,['n'],0,left,['3'],3,888,[-0.04029211],86,47,medium,plus,dotcolour,beta,,,58,18,V,L,
68,68,26,1,0,27,53,700,['n'],1,right,['9'],5,513,[-0.06012979],95,53,easy,plus,dotcolour,beta,,,58,18,V,L,
69,69,27,1,0,33,47,1117,['c'],0,right,['9'],5,433,[0.06348447],96,47,medium,plus,dotcolour,beta,,,58,18,V,L,
70,70,28,1,0,47,33,784,['c'],1,left,['8'],4,498,[0.11737868],99,47,medium,plus,dotcolour,beta,,,58,18,V,L,
71,71,29,1,0,33,47,616,['n'],1,right,['8'],4,766,[-0.03872117],87,47,medium,plus,dotcolour,beta,,,58,18,V,L,
72,72,30,1,0,33,47,667,['c'],0,right,['3'],3,734,[0.20293881],100,47,medium,plus,dotcolour,beta,,,58,18,V,L,
73,73,31,1,0,36,44,734,['c'],0,right,['3'],3,501,[-0.01353977],74,44,hard,plus,dotcolour,beta,,,58,18,V,L,
74,74,32,1,0,53,27,733,['c'],1,left,['0'],6,621,[-0.06052193],47,53,easy,plus,dotcolour,beta,,,58,18,V,L,
75,75,33,1,0,44,36,784,['n'],0,left,['3'],3,950,[0.06184904],47,44,hard,plus,dotcolour,beta,,,58,18,V,L,
76,76,34,1,0,47,33,767,['c'],1,left,['8'],4,482,[0.25505381],100,47,medium,plus,dotcolour,beta,,,58,18,V,L,
77,77,35,1,0,27,53,833,['n'],1,right,['8'],4,439,[-0.12707271],99,53,easy,plus,dotcolour,beta,,,58,18,V,L,
78,78,36,1,0,53,27,650,['c'],1,left,['8'],4,364,[0.09434574],99,53,easy,plus,dotcolour,beta,,,58,18,V,L,
79,79,37,1,0,27,53,633,['n'],1,right,['9'],5,542,[-0.23147502],100,53,easy,plus,dotcolour,beta,,,58,18,V,L,
80,80,38,1,0,27,53,951,['n'],1,right,['0'],6,571,[-0.19950231],100,53,easy,plus,dotcolour,beta,,,58,18,V,L,
81,81,39,1,0,36,44,700,['c'],0,right,['3'],3,569,[0.1883674],100,44,hard,plus,dotcolour,beta,,,58,18,V,L,
82,82,40,1,0,44,36,883,['c'],1,left,['8'],4,424,[0.1273783],99,44,hard,plus,dotcolour,beta,,,58,18,V,L,
83,83,41,1,0,36,44,934,['n'],1,right,['9'],5,435,[-0.22287961],100,44,hard,plus,dotcolour,beta,,,58,18,V,L,
84,84,0,2,0,27,53,734,['n'],1,right,['9'],5,616,[-0.36827724],100,53,easy,plus,dotcolour,beta,,,58,18,V,L,
85,85,1,2,0,53,27,617,['c'],1,left,['8'],4,464,[0.091608],98,53,easy,plus,dotcolour,beta,,,58,18,V,L,
86,86,2,2,0,44,36,1167,['c'],1,left,['8'],4,368,[0.10366011],99,44,hard,plus,dotcolour,beta,,,58,18,V,L,
87,87,3,2,0,33,47,917,['n'],1,right,['8'],4,486,[-0.01841015],87,47,medium,plus,dotcolour,beta,,,58,18,V,L,
88,88,4,2,0,47,33,635,['c'],1,left,['8'],4,659,[0.20959307],100,47,medium,plus,dotcolour,beta,,,58,18,V,L,
89,89,5,2,0,44,36,683,['c'],1,left,['3'],3,622,[0.02589117],87,44,hard,plus,dotcolour,beta,,,58,18,V,L,
90,90,6,2,0,53,27,733,['c'],1,left,['9'],5,465,[0.20194881],100,53,easy,plus,dotcolour,beta,,,58,18,V,L,
91,91,7,2,0,36,44,634,['n'],1,right,['9'],5,670,[-0.15991263],99,44,hard,plus,dotcolour,beta,,,58,18,V,L,
92,92,8,2,0,27,53,683,['n'],1,right,['0'],6,561,[-0.16663893],100,53,easy,plus,dotcolour,beta,,,58,18,V,L,
93,93,9,2,0,27,53,1567,['n'],1,right,['8'],4,621,[-0.06240367],94,53,easy,plus,dotcolour,beta,,,58,18,V,L,
94,94,10,2,0,33,47,801,['n'],1,right,['3'],3,637,[-0.05068144],92,47,medium,plus,dotcolour,beta,,,58,18,V,L,
95,95,11,2,0,33,47,866,['n'],1,right,['3'],3,561,[-0.08696815],97,47,medium,plus,dotcolour,beta,,,58,18,V,L,
96,96,12,2,0,47,33,617,['c'],1,left,['8'],4,427,[-0.03411055],64,47,medium,plus,dotcolour,beta,,,58,18,V,L,
97,97,13,2,0,44,36,599,['n'],0,left,['3'],3,1036,[0.07483799],42,44,hard,plus,dotcolour,beta,,,58,18,V,L,
98,98,14,2,0,47,33,599,['c'],1,left,['0'],6,500,[0.13025861],99,47,medium,plus,dotcolour,beta,,,58,18,V,L,
99,99,15,2,0,47,33,1534,['c'],1,left,['9'],5,547,[0.23497218],100,47,medium,plus,dotcolour,beta,,,58,18,V,L,
100,100,16,2,0,44,36,1035,['c'],1,left,['8'],4,645,[0.09177859],96,44,hard,plus,dotcolour,beta,,,58,18,V,L,
101,101,17,2,0,53,27,800,['c'],1,left,['9'],5,428,[0.13491869],99,53,easy,plus,dotcolour,beta,,,58,18,V,L,
102,102,18,2,0,44,36,850,['c'],1,left,['9'],5,530,[0.17870774],100,44,hard,plus,dotcolour,beta,,,58,18,V,L,
103,103,19,2,0,53,27,583,['c'],1,left,['0'],6,911,[0.1313824],97,53,easy,plus,dotcolour,beta,,,58,18,V,L,
104,104,20,2,0,47,33,617,['c'],1,left,['9'],5,475,[0.21180114],100,47,medium,plus,dotcolour,beta,,,58,18,V,L,
105,105,21,2,0,33,47,633,['c'],0,right,['8'],4,608,[0.04764998],92,47,medium,plus,dotcolour,beta,,,58,18,V,L,
106,106,22,2,0,47,33,900,['c'],1,left,['8'],4,373,[0.11522047],99,47,medium,plus,dotcolour,beta,,,58,18,V,L,
107,107,23,2,0,47,33,683,['c'],1,left,['8'],4,451,[0.12175643],99,47,medium,plus,dotcolour,beta,,,58,18,V,L,
108,108,24,2,0,36,44,700,['n'],1,right,['8'],4,463,[0.1049684],21,44,hard,plus,dotcolour,beta,,,58,18,V,L,
109,109,25,2,0,33,47,1200,['c'],0,right,['8'],4,333,[0.0005084],85,47,medium,plus,dotcolour,beta,,,58,18,V,L,
110,110,26,2,0,36,44,967,['c'],0,right,['9'],5,554,[0.0476628],92,44,hard,plus,dotcolour,beta,,,58,18,V,L,
111,111,27,2,0,53,27,884,['c'],1,left,['9'],5,401,[0.20322715],100,53,easy,plus,dotcolour,beta,,,58,18,V,L,
112,112,28,2,0,27,53,634,['n'],1,right,['8'],4,433,[-0.09018828],98,53,easy,plus,dotcolour,beta,,,58,18,V,L,
113,113,29,2,0,36,44,634,['n'],1,right,['3'],3,680,[-0.06527731],93,44,hard,plus,dotcolour,beta,,,58,18,V,L,
114,114,30,2,0,36,44,683,['c'],0,right,['8'],4,620,[-0.00181284],77,44,hard,plus,dotcolour,beta,,,58,18,V,L,
115,115,31,2,0,36,44,1400,['n'],1,right,['8'],4,515,[-0.19748049],100,44,hard,plus,dotcolour,beta,,,58,18,V,L,
116,116,32,2,0,53,27,567,['n'],0,left,['2'],2,1049,[0.02523599],63,53,easy,plus,dotcolour,beta,,,58,18,V,L,
117,117,33,2,0,27,53,1184,['n'],1,right,['9'],5,905,[-0.12495673],97,53,easy,plus,dotcolour,beta,,,58,18,V,L,
118,118,34,2,0,33,47,1067,['n'],1,right,['9'],5,467,[-0.17784949],100,47,medium,plus,dotcolour,beta,,,58,18,V,L,
119,119,35,2,0,44,36,484,['n'],0,left,['9'],5,423,[-0.09599815],99,44,hard,plus,dotcolour,beta,,,58,18,V,L,
120,120,36,2,0,27,53,650,['n'],1,right,['8'],4,484,[-0.11203461],99,53,easy,plus,dotcolour,beta,,,58,18,V,L,
121,121,37,2,0,44,36,1434,['c'],1,left,['8'],4,434,[0.14577136],100,44,hard,plus,dotcolour,beta,,,58,18,V,L,
122,122,38,2,0,53,27,800,['c'],1,left,['9'],5,418,[0.19291879],100,53,easy,plus,dotcolour,beta,,,58,18,V,L,
123,123,39,2,0,36,44,1099,['c'],0,right,['8'],4,678,[-0.09696887],29,44,hard,plus,dotcolour,beta,,,58,18,V,L,
124,124,40,2,0,33,47,1583,['n'],1,right,['8'],4,357,[-0.07328422],98,47,medium,plus,dotcolour,beta,,,58,18,V,L,
125,125,41,2,0,27,53,850,['n'],1,right,['0'],6,598,[-0.14010844],99,53,easy,plus,dotcolour,beta,,,58,18,V,L,
126,0,0,3,1,44,36,1151,['n'],0,left,['8'],4,450,[-0.08523777],69,44,hard,minus,dotcolour,beta,,,58,18,V,L,
127,1,1,3,1,53,27,733,['c'],1,left,['9'],5,356,[0.11908068],87,53,easy,minus,dotcolour,beta,,,58,18,V,L,
128,2,2,3,1,36,44,583,['c'],0,right,['8'],4,455,[0.042166],41,44,hard,minus,dotcolour,beta,,,58,18,V,L,
129,3,3,3,1,53,27,850,['c'],1,left,['9'],5,428,[0.22276945],99,53,easy,minus,dotcolour,beta,,,58,18,V,L,
130,4,4,3,1,47,33,567,['c'],1,left,['8'],4,413,[0.12011991],86,47,medium,minus,dotcolour,beta,,,58,18,V,L,
131,5,5,3,1,44,36,950,['n'],0,left,['2'],2,1607,[0.06703919],15,44,hard,minus,dotcolour,beta,,,58,18,V,L,
132,6,6,3,1,36,44,800,['n'],1,right,['8'],4,521,[-0.15644464],93,44,hard,minus,dotcolour,beta,,,58,18,V,L,
133,7,7,3,1,47,33,750,['c'],1,left,['9'],5,438,[0.14606935],92,47,medium,minus,dotcolour,beta,,,58,18,V,L,
134,8,8,3,1,33,47,1583,['n'],1,right,['9'],5,439,[-0.06165512],54,47,medium,minus,dotcolour,beta,,,58,18,V,L,
135,9,9,3,1,47,33,734,['c'],1,left,['8'],4,352,[0.05790294],52,47,medium,minus,dotcolour,beta,,,58,18,V,L,
136,10,10,3,1,44,36,583,['c'],1,left,['8'],4,508,[0.1464598],91,44,hard,minus,dotcolour,beta,,,58,18,V,L,
137,11,11,3,1,27,53,650,['n'],1,right,['8'],4,391,[-0.18380019],98,53,easy,minus,dotcolour,beta,,,58,18,V,L,
138,12,12,3,1,27,53,615,['n'],1,right,['9'],5,376,[-0.27279241],100,53,easy,minus,dotcolour,beta,,,58,18,V,L,
139,13,13,3,1,44,36,667,['c'],1,left,['9'],5,327,[0.06803844],60,44,hard,minus,dotcolour,beta,,,58,18,V,L,
140,14,14,3,1,27,53,682,['n'],1,right,['8'],4,417,[-0.09994706],78,53,easy,minus,dotcolour,beta,,,58,18,V,L,
141,15,15,3,1,47,33,768,['c'],1,left,['8'],4,394,[0.0525475],48,47,medium,minus,dotcolour,beta,,,58,18,V,L,
142,16,16,3,1,36,44,618,['n'],1,right,['8'],4,578,[-0.04273817],42,44,hard,minus,dotcolour,beta,,,58,18,V,L,
143,17,17,3,1,33,47,817,['c'],0,right,['9'],5,516,[-0.0133401],15,47,medium,minus,dotcolour,beta,,,58,18,V,L,
144,18,18,3,1,44,36,2317,['c'],1,left,['8'],4,492,[0.11148205],81,44,hard,minus,dotcolour,beta,,,58,18,V,L,
145,19,19,3,1,27,53,733,['n'],1,right,['8'],4,364,[-0.1629015],96,53,easy,minus,dotcolour,beta,,,58,18,V,L,
146,20,20,3,1,27,53,1117,['n'],1,right,['9'],5,378,[-0.02587141],30,53,easy,minus,dotcolour,beta,,,58,18,V,L,
147,21,21,3,1,53,27,1016,['c'],1,left,['9'],5,563,[0.30870223],100,53,easy,minus,dotcolour,beta,,,58,18,V,L,
148,22,22,3,1,33,47,750,['n'],1,right,['9'],5,464,[0.07260436],3,47,medium,minus,dotcolour,beta,,,58,18,V,L,
149,23,23,3,1,53,27,601,['c'],1,left,['9'],5,623,[0.25024326],99,53,easy,minus,dotcolour,beta,,,58,18,V,L,
150,24,24,3,1,33,47,866,['n'],1,right,['8'],4,436,[-0.1127753],83,47,medium,minus,dotcolour,beta,,,58,18,V,L,
151,25,25,3,1,36,44,884,['n'],1,right,['9'],5,745,[-0.13972099],85,44,hard,minus,dotcolour,beta,,,58,18,V,L,
152,26,26,3,1,47,33,700,['c'],1,left,['0'],6,608,[0.1414824],88,47,medium,minus,dotcolour,beta,,,58,18,V,L,
153,27,27,3,1,53,27,635,['c'],1,left,['0'],6,439,[0.1585166],94,53,easy,minus,dotcolour,beta,,,58,18,V,L,
154,28,28,3,1,47,33,699,['c'],1,left,['0'],6,475,[0.12210682],85,47,medium,minus,dotcolour,beta,,,58,18,V,L,
155,29,29,3,1,33,47,651,['n'],1,right,['0'],6,423,[-0.11429623],84,47,medium,minus,dotcolour,beta,,,58,18,V,L,
156,30,30,3,1,44,36,999,['c'],1,left,['0'],6,359,[0.13642899],92,44,hard,minus,dotcolour,beta,,,58,18,V,L,
157,31,31,3,1,27,53,1151,['n'],1,right,['8'],4,939,[-0.39069441],100,53,easy,minus,dotcolour,beta,,,58,18,V,L,
158,32,32,3,1,53,27,750,['c'],1,left,['0'],6,361,[0.16650277],97,53,easy,minus,dotcolour,beta,,,58,18,V,L,
159,33,33,3,1,33,47,749,['n'],1,right,['9'],5,581,[-0.11554001],80,47,medium,minus,dotcolour,beta,,,58,18,V,L,
160,34,34,3,1,47,33,666,['c'],1,left,['8'],4,413,[0.15857419],95,47,medium,minus,dotcolour,beta,,,58,18,V,L,
161,35,35,3,1,36,44,716,['c'],0,right,['9'],5,697,[0.07917089],62,44,hard,minus,dotcolour,beta,,,58,18,V,L,
162,36,36,3,1,27,53,717,['n'],1,right,['0'],6,505,[-0.20520397],98,53,easy,minus,dotcolour,beta,,,58,18,V,L,
163,37,37,3,1,36,44,700,['n'],1,right,['9'],5,666,[-0.16915382],92,44,hard,minus,dotcolour,beta,,,58,18,V,L,
164,38,38,3,1,36,44,616,['c'],0,right,['8'],4,488,[0.08649407],69,44,hard,minus,dotcolour,beta,,,58,18,V,L,
165,39,39,3,1,33,47,800,['n'],1,right,['8'],4,373,[-0.14505426],93,47,medium,minus,dotcolour,beta,,,58,18,V,L,
166,40,40,3,1,53,27,684,['c'],1,left,['9'],5,452,[0.17331621],96,53,easy,minus,dotcolour,beta,,,58,18,V,L,
167,41,41,3,1,44,36,2182,['c'],1,left,['9'],5,404,[0.19251599],98,44,hard,minus,dotcolour,beta,,,58,18,V,L,
168,42,0,4,1,47,33,717,['c'],1,left,['0'],6,644,[0.32180184],100,47,medium,minus,dotcolour,beta,,,58,18,V,L,
169,43,1,4,1,33,47,600,['n'],1,right,['0'],6,436,[-0.13514978],90,47,medium,minus,dotcolour,beta,,,58,18,V,L,
170,44,2,4,1,27,53,1200,['n'],1,right,['0'],6,387,[-0.04398362],42,53,easy,minus,dotcolour,beta,,,58,18,V,L,
171,45,3,4,1,47,33,850,['c'],1,left,['8'],4,428,[0.14006182],91,47,medium,minus,dotcolour,beta,,,58,18,V,L,
172,46,4,4,1,53,27,1101,['c'],1,left,['9'],5,567,[0.15466113],91,53,easy,minus,dotcolour,beta,,,58,18,V,L,
173,47,5,4,1,47,33,716,['n'],0,left,['2'],2,1494,[0.09393849],10,47,medium,minus,dotcolour,beta,,,58,18,V,L,
174,48,6,4,1,53,27,734,['c'],1,left,['0'],6,470,[0.12800198],87,53,easy,minus,dotcolour,beta,,,58,18,V,L,
175,49,7,4,1,47,33,1534,['c'],1,left,['8'],4,455,[0.1372596],90,47,medium,minus,dotcolour,beta,,,58,18,V,L,
176,50,8,4,1,27,53,701,['n'],1,right,['9'],5,570,[-0.16318955],93,53,easy,minus,dotcolour,beta,,,58,18,V,L,
177,51,9,4,1,53,27,682,['c'],1,left,['9'],5,728,[0.07901281],62,53,easy,minus,dotcolour,beta,,,58,18,V,L,
178,52,10,4,1,27,53,634,['n'],1,right,['0'],6,475,[-0.18925726],97,53,easy,minus,dotcolour,beta,,,58,18,V,L,
179,53,11,4,1,36,44,1367,['c'],0,right,['8'],4,730,[-0.00018423],24,44,hard,minus,dotcolour,beta,,,58,18,V,L,
180,54,12,4,1,36,44,2317,['c'],0,right,['8'],4,378,[-0.00295719],15,44,hard,minus,dotcolour,beta,,,58,18,V,L,
181,55,13,4,1,36,44,1566,['c'],0,right,['8'],4,1821,[0.02667671],40,44,hard,minus,dotcolour,beta,,,58,18,V,L,
182,56,14,4,1,27,53,916,['n'],1,right,['9'],5,344,[-0.16298195],96,53,easy,minus,dotcolour,beta,,,58,18,V,L,
183,57,15,4,1,53,27,650,['c'],1,left,['0'],6,362,[0.19254053],98,53,easy,minus,dotcolour,beta,,,58,18,V,L,
184,58,16,4,1,27,53,718,['n'],1,right,['0'],6,376,[-0.05106778],47,53,easy,minus,dotcolour,beta,,,58,18,V,L,
185,59,17,4,1,53,27,866,['c'],1,left,['0'],6,327,[0.23632925],100,53,easy,minus,dotcolour,beta,,,58,18,V,L,
186,60,18,4,1,44,36,1050,['c'],1,left,['8'],4,385,[0.15022055],94,44,hard,minus,dotcolour,beta,,,58,18,V,L,
187,61,19,4,1,44,36,983,['c'],1,left,['8'],4,460,[0.00680148],22,44,hard,minus,dotcolour,beta,,,58,18,V,L,
188,62,20,4,1,47,33,666,['c'],1,left,['9'],5,1680,[0.2161508],90,47,medium,minus,dotcolour,beta,,,58,18,V,L,
189,63,21,4,1,44,36,750,['c'],1,left,['9'],5,511,[0.00938268],24,44,hard,minus,dotcolour,beta,,,58,18,V,L,
190,64,22,4,1,33,47,750,['n'],1,right,['8'],4,502,[-0.21256837],98,47,medium,minus,dotcolour,beta,,,58,18,V,L,
191,65,23,4,1,36,44,600,['c'],0,right,['8'],4,475,[0.07698253],64,44,hard,minus,dotcolour,beta,,,58,18,V,L,
192,66,24,4,1,47,33,634,['c'],1,left,['8'],4,472,[0.11730249],83,47,medium,minus,dotcolour,beta,,,58,18,V,L,
193,67,25,4,1,36,44,1917,['c'],0,right,['3'],3,1177,[0.03564332],42,44,hard,minus,dotcolour,beta,,,58,18,V,L,
194,68,26,4,1,33,47,1383,['n'],1,right,['8'],4,372,[-0.11888602],87,47,medium,minus,dotcolour,beta,,,58,18,V,L,
195,69,27,4,1,33,47,801,['n'],1,right,['8'],4,438,[-0.16207307],95,47,medium,minus,dotcolour,beta,,,58,18,V,L,
196,70,28,4,1,33,47,867,['n'],1,right,['8'],4,395,[-0.09375164],75,47,medium,minus,dotcolour,beta,,,58,18,V,L,
197,71,29,4,1,53,27,549,['c'],1,left,['9'],5,502,[0.18881146],97,53,easy,minus,dotcolour,beta,,,58,18,V,L,
198,72,30,4,1,44,36,550,['c'],1,left,['8'],4,501,[0.18509387],96,44,hard,minus,dotcolour,beta,,,58,18,V,L,
199,73,31,4,1,33,47,1333,['c'],0,right,['8'],4,414,[-0.06571862],3,47,medium,minus,dotcolour,beta,,,58,18,V,L,
200,74,32,4,1,27,53,901,['n'],1,right,['0'],6,434,[-0.18464349],97,53,easy,minus,dotcolour,beta,,,58,18,V,L,
201,75,33,4,1,47,33,1400,['c'],1,left,['8'],4,386,[0.08944358],73,47,medium,minus,dotcolour,beta,,,58,18,V,L,
202,76,34,4,1,44,36,833,['c'],1,left,['9'],5,459,[0.103183],78,44,hard,minus,dotcolour,beta,,,58,18,V,L,
203,77,35,4,1,53,27,884,['c'],1,left,['9'],5,550,[0.06579943],56,53,easy,minus,dotcolour,beta,,,58,18,V,L,
204,78,36,4,1,27,53,866,['n'],1,right,['9'],5,567,[-0.0891861],69,53,easy,minus,dotcolour,beta,,,58,18,V,L,
205,79,37,4,1,36,44,1399,['n'],1,right,['8'],4,754,[0.01312865],19,44,hard,minus,dotcolour,beta,,,58,18,V,L,
206,80,38,4,1,44,36,1651,['c'],1,left,['3'],3,666,[0.06363988],54,44,hard,minus,dotcolour,beta,,,58,18,V,L,
207,81,39,4,1,36,44,1334,['n'],1,right,['3'],3,571,[-0.19361352],96,44,hard,minus,dotcolour,beta,,,58,18,V,L,
208,82,40,4,1,33,47,1000,['n'],1,right,['8'],4,422,[-0.13355523],90,47,medium,minus,dotcolour,beta,,,58,18,V,L,
209,83,41,4,1,44,36,1567,['c'],1,left,['8'],4,503,[0.07218816],60,44,hard,minus,dotcolour,beta,,,58,18,V,L,
210,84,0,5,1,53,27,800,['c'],1,left,['9'],5,432,[0.16917151],96,53,easy,minus,dotcolour,beta,,,58,18,V,L,
211,85,1,5,1,33,47,667,['n'],1,right,['9'],5,396,[-0.04926974],46,47,medium,minus,dotcolour,beta,,,58,18,V,L,
212,86,2,5,1,44,36,600,['c'],1,left,['8'],4,510,[0.18207626],96,44,hard,minus,dotcolour,beta,,,58,18,V,L,
213,87,3,5,1,47,33,683,['n'],0,left,['8'],4,439,[0.06352184],4,47,medium,minus,dotcolour,beta,,,58,18,V,L,
214,88,4,5,1,36,44,1083,['n'],1,right,['8'],4,467,[0.01327347],14,44,hard,minus,dotcolour,beta,,,58,18,V,L,
215,89,5,5,1,27,53,700,['n'],1,right,['8'],4,765,[-0.11200941],76,53,easy,minus,dotcolour,beta,,,58,18,V,L,
216,90,6,5,1,53,27,1100,['c'],1,left,['9'],5,508,[0.04026164],40,53,easy,minus,dotcolour,beta,,,58,18,V,L,
217,91,7,5,1,47,33,767,['c'],1,left,['8'],4,403,[0.09505841],75,47,medium,minus,dotcolour,beta,,,58,18,V,L,
218,92,8,5,1,36,44,684,['n'],1,right,['8'],4,401,[-0.08998833],73,44,hard,minus,dotcolour,beta,,,58,18,V,L,
219,93,9,5,1,33,47,634,['c'],0,right,['8'],4,456,[-0.06299839],4,47,medium,minus,dotcolour,beta,,,58,18,V,L,
220,94,10,5,1,33,47,650,['n'],1,right,['3'],3,757,[-0.19178355],94,47,medium,minus,dotcolour,beta,,,58,18,V,L,
221,95,11,5,1,53,27,766,['n'],0,left,['3'],3,2193,[0.15761095],7,53,easy,minus,dotcolour,beta,,,58,18,V,L,
222,96,12,5,1,53,27,717,['c'],1,left,['8'],4,493,[0.15589413],93,53,easy,minus,dotcolour,beta,,,58,18,V,L,
223,97,13,5,1,36,44,1200,['n'],1,right,['8'],4,339,[-0.12738881],90,44,hard,minus,dotcolour,beta,,,58,18,V,L,
224,98,14,5,1,27,53,583,['n'],1,right,['8'],4,414,[-0.09924889],77,53,easy,minus,dotcolour,beta,,,58,18,V,L,
225,99,15,5,1,47,33,617,['c'],1,left,['8'],4,398,[0.07695624],65,47,medium,minus,dotcolour,beta,,,58,18,V,L,
226,100,16,5,1,27,53,650,['n'],1,right,['8'],4,421,[-0.13786927],91,53,easy,minus,dotcolour,beta,,,58,18,V,L,
227,101,17,5,1,36,44,884,['c'],0,right,['8'],4,403,[0.05512891],50,44,hard,minus,dotcolour,beta,,,58,18,V,L,
228,102,18,5,1,36,44,1766,['c'],0,right,['3'],3,493,[0.04475036],43,44,hard,minus,dotcolour,beta,,,58,18,V,L,
229,103,19,5,1,47,33,1451,['c'],1,left,['8'],4,368,[0.0929523],75,47,medium,minus,dotcolour,beta,,,58,18,V,L,
230,104,20,5,1,36,44,1317,['n'],1,right,['8'],4,414,[-0.14117583],92,44,hard,minus,dotcolour,beta,,,58,18,V,L,
231,105,21,5,1,36,44,1434,['n'],1,right,['8'],4,526,[-0.07363168],61,44,hard,minus,dotcolour,beta,,,58,18,V,L,
232,106,22,5,1,44,36,1317,['c'],1,left,['8'],4,349,[-0.04110394],5,44,hard,minus,dotcolour,beta,,,58,18,V,L,
233,107,23,5,1,53,27,767,['c'],1,left,['9'],5,482,[0.27523366],100,53,easy,minus,dotcolour,beta,,,58,18,V,L,
234,108,24,5,1,47,33,617,['c'],1,left,['8'],4,423,[0.18249795],97,47,medium,minus,dotcolour,beta,,,58,18,V,L,
235,109,25,5,1,47,33,1434,['c'],1,left,['8'],4,422,[0.03583419],37,47,medium,minus,dotcolour,beta,,,58,18,V,L,
236,110,26,5,1,44,36,783,['n'],0,left,['8'],4,479,[0.02564046],11,44,hard,minus,dotcolour,beta,,,58,18,V,L,
237,111,27,5,1,44,36,950,['c'],1,left,['8'],4,439,[0.14442168],92,44,hard,minus,dotcolour,beta,,,58,18,V,L,
238,112,28,5,1,44,36,817,['c'],1,left,['8'],4,445,[0.14714681],92,44,hard,minus,dotcolour,beta,,,58,18,V,L,
239,113,29,5,1,44,36,800,['c'],1,left,['9'],5,436,[0.01941624],27,44,hard,minus,dotcolour,beta,,,58,18,V,L,
240,114,30,5,1,27,53,717,['n'],1,right,['9'],5,768,[-0.27753632],99,53,easy,minus,dotcolour,beta,,,58,18,V,L,
241,115,31,5,1,33,47,1017,['c'],0,right,['3'],3,634,[-0.09987309],3,47,medium,minus,dotcolour,beta,,,58,18,V,L,
242,116,32,5,1,44,36,985,['c'],1,left,['8'],4,435,[0.06909553],59,44,hard,minus,dotcolour,beta,,,58,18,V,L,
243,117,33,5,1,47,33,900,['c'],1,left,['8'],4,447,[0.16127909],95,47,medium,minus,dotcolour,beta,,,58,18,V,L,
244,118,34,5,1,27,53,734,['n'],1,right,['9'],5,1033,[-0.16556089],88,53,easy,minus,dotcolour,beta,,,58,18,V,L,
245,119,35,5,1,33,47,834,['n'],1,right,['9'],5,366,[-0.02791088],31,47,medium,minus,dotcolour,beta,,,58,18,V,L,
246,120,36,5,1,53,27,734,['c'],1,left,['8'],4,628,[0.10195709],74,53,easy,minus,dotcolour,beta,,,58,18,V,L,
247,121,37,5,1,33,47,783,['n'],1,right,['8'],4,645,[-0.10442348],75,47,medium,minus,dotcolour,beta,,,58,18,V,L,
248,122,38,5,1,27,53,734,['n'],1,right,['9'],5,359,[-0.12402461],89,53,easy,minus,dotcolour,beta,,,58,18,V,L,
249,123,39,5,1,33,47,1149,['c'],0,right,['3'],3,1515,[-0.22614474],2,47,medium,minus,dotcolour,beta,,,58,18,V,L,
250,124,40,5,1,53,27,783,['c'],1,left,['9'],5,528,[0.1730709],95,53,easy,minus,dotcolour,beta,,,58,18,V,L,
251,125,41,5,1,27,53,834,['n'],1,right,['9'],5,411,[-0.04405594],42,53,easy,minus,dotcolour,beta,,,58,18,V,L,
252,0,0,6,2,36,44,801,['n'],1,right,['8'],4,621,[-0.07706148],95,44,hard,plus,dotcolour,beta,,,58,18,V,L,
253,1,1,6,2,47,33,600,['c'],1,left,['8'],4,509,[0.07210617],96,47,medium,plus,dotcolour,beta,,,58,18,V,L,
254,2,2,6,2,27,53,650,['n'],1,right,['8'],4,424,[-0.01839303],89,53,easy,plus,dotcolour,beta,,,58,18,V,L,
255,3,3,6,2,53,27,599,['n'],0,left,['2'],2,1704,[0.21149076],10,53,easy,plus,dotcolour,beta,,,58,18,V,L,
256,4,4,6,2,27,53,1050,['n'],1,right,['0'],6,1051,[-0.19927322],99,53,easy,plus,dotcolour,beta,,,58,18,V,L,
257,5,5,6,2,27,53,1184,['n'],1,right,['9'],5,506,[-0.11304028],99,53,easy,plus,dotcolour,beta,,,58,18,V,L,
258,6,6,6,2,33,47,1117,['n'],1,right,['9'],5,474,[-0.11457863],99,47,medium,plus,dotcolour,beta,,,58,18,V,L,
259,7,7,6,2,44,36,767,['c'],1,left,['8'],4,561,[0.17622142],100,44,hard,plus,dotcolour,beta,,,58,18,V,L,
260,8,8,6,2,36,44,1150,['n'],1,right,['8'],4,518,[-0.17193265],100,44,hard,plus,dotcolour,beta,,,58,18,V,L,
261,9,9,6,2,36,44,1483,['n'],1,right,['8'],4,432,[-0.20699141],100,44,hard,plus,dotcolour,beta,,,58,18,V,L,
262,10,10,6,2,53,27,766,['c'],1,left,['8'],4,480,[0.172138],100,53,easy,plus,dotcolour,beta,,,58,18,V,L,
263,11,11,6,2,53,27,883,['c'],1,left,['8'],4,460,[0.13243685],99,53,easy,plus,dotcolour,beta,,,58,18,V,L,
264,12,12,6,2,36,44,2267,['c'],0,right,['8'],4,424,[0.05884214],96,44,hard,plus,dotcolour,beta,,,58,18,V,L,
265,13,13,6,2,47,33,1534,['c'],1,left,['8'],4,474,[0.14517241],99,47,medium,plus,dotcolour,beta,,,58,18,V,L,
266,14,14,6,2,53,27,866,['c'],1,left,['9'],5,557,[0.15918813],99,53,easy,plus,dotcolour,beta,,,58,18,V,L,
267,15,15,6,2,36,44,983,['n'],1,right,['8'],4,473,[0.00211957],80,44,hard,plus,dotcolour,beta,,,58,18,V,L,
268,16,16,6,2,33,47,683,['c'],0,right,['8'],4,435,[-0.01059948],77,47,medium,plus,dotcolour,beta,,,58,18,V,L,
269,17,17,6,2,36,44,1551,['n'],1,right,['8'],4,734,[-0.11124842],97,44,hard,plus,dotcolour,beta,,,58,18,V,L,
270,18,18,6,2,47,33,1050,['c'],1,left,['8'],4,408,[0.24165472],100,47,medium,plus,dotcolour,beta,,,58,18,V,L,
271,19,19,6,2,44,36,1216,['c'],1,left,['9'],5,440,[0.22706846],100,44,hard,plus,dotcolour,beta,,,58,18,V,L,
272,20,20,6,2,27,53,900,['n'],1,right,['9'],5,403,[-0.0816061],98,53,easy,plus,dotcolour,beta,,,58,18,V,L,
273,21,21,6,2,44,36,834,['c'],1,left,['9'],5,619,[-0.07632577],38,44,hard,plus,dotcolour,beta,,,58,18,V,L,
274,22,22,6,2,33,47,1234,['c'],0,right,['3'],3,946,[0.08936679],94,47,medium,plus,dotcolour,beta,,,58,18,V,L,
275,23,23,6,2,53,27,834,['c'],1,left,['0'],6,508,[0.17710217],100,53,easy,plus,dotcolour,beta,,,58,18,V,L,
276,24,24,6,2,27,53,817,['n'],1,right,['0'],6,424,[-0.14995079],100,53,easy,plus,dotcolour,beta,,,58,18,V,L,
277,25,25,6,2,44,36,799,['c'],1,left,['0'],6,480,[0.18405807],100,44,hard,plus,dotcolour,beta,,,58,18,V,L,
278,26,26,6,2,36,44,1184,['n'],1,right,['9'],5,431,[0.04942014],54,44,hard,plus,dotcolour,beta,,,58,18,V,L,
279,27,27,6,2,33,47,1100,['n'],1,right,['9'],5,475,[-0.1667345],100,47,medium,plus,dotcolour,beta,,,58,18,V,L,
280,28,28,6,2,53,27,650,['c'],1,left,['9'],5,399,[0.13826475],100,53,easy,plus,dotcolour,beta,,,58,18,V,L,
281,29,29,6,2,47,33,617,['c'],1,left,['9'],5,368,[0.08594314],99,47,medium,plus,dotcolour,beta,,,58,18,V,L,
282,30,30,6,2,44,36,1284,['c'],1,left,['8'],4,423,[0.07453242],97,44,hard,plus,dotcolour,beta,,,58,18,V,L,
283,31,31,6,2,33,47,799,['n'],1,right,['9'],5,351,[-0.17120512],100,47,medium,plus,dotcolour,beta,,,58,18,V,L,
284,32,32,6,2,27,53,601,['c'],0,right,['2'],2,1362,[-0.07368504],43,53,easy,plus,dotcolour,beta,,,58,18,V,L,
285,33,33,6,2,44,36,1149,['c'],1,left,['9'],5,608,[0.09760449],97,44,hard,plus,dotcolour,beta,,,58,18,V,L,
286,34,34,6,2,44,36,784,['c'],1,left,['8'],4,633,[0.00224337],79,44,hard,plus,dotcolour,beta,,,58,18,V,L,
287,35,35,6,2,47,33,1083,['c'],1,left,['8'],4,526,[0.24083687],100,47,medium,plus,dotcolour,beta,,,58,18,V,L,
288,36,36,6,2,47,33,617,['c'],1,left,['8'],4,376,[0.14191488],100,47,medium,plus,dotcolour,beta,,,58,18,V,L,
289,37,37,6,2,33,47,700,['n'],1,right,['8'],4,438,[-0.24722652],100,47,medium,plus,dotcolour,beta,,,58,18,V,L,
290,38,38,6,2,47,33,1183,['c'],1,left,['8'],4,455,[0.09795616],98,47,medium,plus,dotcolour,beta,,,58,18,V,L,
291,39,39,6,2,53,27,617,['c'],1,left,['8'],4,469,[0.10918134],99,53,easy,plus,dotcolour,beta,,,58,18,V,L,
292,40,40,6,2,27,53,900,['n'],1,right,['8'],4,719,[-0.16469263],99,53,easy,plus,dotcolour,beta,,,58,18,V,L,
293,41,41,6,2,33,47,700,['n'],1,right,['8'],4,575,[-0.04541749],92,47,medium,plus,dotcolour,beta,,,58,18,V,L,
294,42,0,7,2,27,53,1117,['n'],1,right,['8'],4,828,[-0.0774573],93,53,easy,plus,dotcolour,beta,,,58,18,V,L,
295,43,1,7,2,27,53,967,['n'],1,right,['8'],4,469,[-0.14174781],99,53,easy,plus,dotcolour,beta,,,58,18,V,L,
296,44,2,7,2,36,44,834,['n'],1,right,['8'],4,379,[-0.2328937],100,44,hard,plus,dotcolour,beta,,,58,18,V,L,
297,45,3,7,2,27,53,567,['n'],1,right,['8'],4,390,[-0.09192493],99,53,easy,plus,dotcolour,beta,,,58,18,V,L,
298,46,4,7,2,44,36,650,['c'],1,left,['8'],4,390,[0.06240246],97,44,hard,plus,dotcolour,beta,,,58,18,V,L,
299,47,5,7,2,36,44,767,['c'],0,right,['8'],4,504,[-0.04906804],54,44,hard,plus,dotcolour,beta,,,58,18,V,L,
300,48,6,7,2,33,47,584,['c'],0,right,['2'],2,1062,[0.0539699],87,47,medium,plus,dotcolour,beta,,,58,18,V,L,
301,49,7,7,2,53,27,1234,['c'],1,left,['9'],5,362,[0.15825386],100,53,easy,plus,dotcolour,beta,,,58,18,V,L,
302,50,8,7,2,47,33,667,['c'],1,left,['9'],5,387,[0.05985072],97,47,medium,plus,dotcolour,beta,,,58,18,V,L,
303,51,9,7,2,36,44,800,['c'],0,right,['8'],4,485,[0.18403799],100,44,hard,plus,dotcolour,beta,,,58,18,V,L,
304,52,10,7,2,53,27,683,['c'],1,left,['8'],4,424,[0.10970402],99,53,easy,plus,dotcolour,beta,,,58,18,V,L,
305,53,11,7,2,47,33,817,['c'],1,left,['8'],4,543,[0.08080259],97,47,medium,plus,dotcolour,beta,,,58,18,V,L,
306,54,12,7,2,33,47,817,['n'],1,right,['9'],5,386,[-0.150262],100,47,medium,plus,dotcolour,beta,,,58,18,V,L,
307,55,13,7,2,27,53,917,['n'],1,right,['9'],5,487,[-0.06606289],96,53,easy,plus,dotcolour,beta,,,58,18,V,L,
308,56,14,7,2,53,27,684,['c'],1,left,['9'],5,338,[0.21923914],100,53,easy,plus,dotcolour,beta,,,58,18,V,L,
309,57,15,7,2,36,44,1167,['n'],1,right,['8'],4,519,[-0.13131189],99,44,hard,plus,dotcolour,beta,,,58,18,V,L,
310,58,16,7,2,47,33,1251,['c'],1,left,['8'],4,473,[0.08408687],97,47,medium,plus,dotcolour,beta,,,58,18,V,L,
311,59,17,7,2,44,36,3351,['c'],1,left,['3'],3,553,[0.11636283],98,44,hard,plus,dotcolour,beta,,,58,18,V,L,
312,60,18,7,2,44,36,1266,['c'],1,left,['3'],3,530,[0.09034055],97,44,hard,plus,dotcolour,beta,,,58,18,V,L,
313,61,19,7,2,44,36,1500,['c'],1,left,['8'],4,394,[0.02577801],91,44,hard,plus,dotcolour,beta,,,58,18,V,L,
314,62,20,7,2,27,53,817,['n'],1,right,['8'],4,482,[-0.18808162],100,53,easy,plus,dotcolour,beta,,,58,18,V,L,
315,63,21,7,2,27,53,850,['n'],1,right,['9'],5,382,[-0.18267753],100,53,easy,plus,dotcolour,beta,,,58,18,V,L,
316,64,22,7,2,47,33,850,['c'],1,left,['8'],4,398,[0.20689996],100,47,medium,plus,dotcolour,beta,,,58,18,V,L,
317,65,23,7,2,44,36,2017,['n'],0,left,['8'],4,407,[-0.12299217],99,44,hard,plus,dotcolour,beta,,,58,18,V,L,
318,66,24,7,2,33,47,1900,['c'],0,right,['8'],4,372,[0.11423502],99,47,medium,plus,dotcolour,beta,,,58,18,V,L,
319,67,25,7,2,44,36,1750,['c'],1,left,['8'],4,376,[0.10729179],99,44,hard,plus,dotcolour,beta,,,58,18,V,L,
320,68,26,7,2,53,27,1000,['c'],1,left,['9'],5,362,[0.16292869],100,53,easy,plus,dotcolour,beta,,,58,18,V,L,
321,69,27,7,2,47,33,849,['c'],1,left,['9'],5,354,[0.15425611],100,47,medium,plus,dotcolour,beta,,,58,18,V,L,
322,70,28,7,2,53,27,700,['c'],1,left,['9'],5,345,[0.12805414],100,53,easy,plus,dotcolour,beta,,,58,18,V,L,
323,71,29,7,2,33,47,1000,['n'],1,right,['8'],4,436,[-0.13845177],99,47,medium,plus,dotcolour,beta,,,58,18,V,L,
324,72,30,7,2,47,33,866,['c'],1,left,['8'],4,418,[0.12095847],99,47,medium,plus,dotcolour,beta,,,58,18,V,L,
325,73,31,7,2,33,47,1917,['n'],1,right,['8'],4,350,[-0.11239142],99,47,medium,plus,dotcolour,beta,,,58,18,V,L,
326,74,32,7,2,44,36,700,['c'],1,left,['9'],5,381,[0.13437719],100,44,hard,plus,dotcolour,beta,,,58,18,V,L,
327,75,33,7,2,53,27,750,['c'],1,left,['0'],6,721,[0.0948802],96,53,easy,plus,dotcolour,beta,,,58,18,V,L,
328,76,34,7,2,27,53,950,['n'],1,right,['9'],5,399,[-0.06205969],97,53,easy,plus,dotcolour,beta,,,58,18,V,L,
329,77,35,7,2,47,33,1116,['c'],1,left,['8'],4,380,[0.14289293],100,47,medium,plus,dotcolour,beta,,,58,18,V,L,
330,78,36,7,2,53,27,700,['c'],1,left,['9'],5,362,[0.18449148],100,53,easy,plus,dotcolour,beta,,,58,18,V,L,
331,79,37,7,2,33,47,684,['n'],1,right,['8'],4,521,[-0.05495998],94,47,medium,plus,dotcolour,beta,,,58,18,V,L,
332,80,38,7,2,36,44,967,['c'],0,right,['8'],4,374,[0.0867111],99,44,hard,plus,dotcolour,beta,,,58,18,V,L,
333,81,39,7,2,33,47,1217,['n'],1,right,['8'],4,408,[-0.14031613],100,47,medium,plus,dotcolour,beta,,,58,18,V,L,
334,82,40,7,2,36,44,968,['c'],0,right,['8'],4,386,[-0.06542149],43,44,hard,plus,dotcolour,beta,,,58,18,V,L,
335,83,41,7,2,36,44,983,['n'],1,right,['9'],5,693,[-0.0993292],97,44,hard,plus,dotcolour,beta,,,58,18,V,L,
336,84,0,8,2,33,47,1034,['n'],1,right,['8'],4,506,[-0.09126455],98,47,medium,plus,dotcolour,beta,,,58,18,V,L,
337,85,1,8,2,47,33,749,['c'],1,left,['8'],4,528,[0.10909421],98,47,medium,plus,dotcolour,beta,,,58,18,V,L,
338,86,2,8,2,53,27,650,['c'],1,left,['9'],5,338,[0.10356607],99,53,easy,plus,dotcolour,beta,,,58,18,V,L,
339,87,3,8,2,27,53,1000,['n'],1,right,['9'],5,438,[-0.13426141],99,53,easy,plus,dotcolour,beta,,,58,18,V,L,
340,88,4,8,2,36,44,884,['c'],0,right,['9'],5,426,[0.11354313],99,44,hard,plus,dotcolour,beta,,,58,18,V,L,
341,89,5,8,2,44,36,684,['c'],1,left,['9'],5,383,[0.08193103],98,44,hard,plus,dotcolour,beta,,,58,18,V,L,
342,90,6,8,2,27,53,633,['n'],1,right,['9'],5,407,[-0.0514742],95,53,easy,plus,dotcolour,beta,,,58,18,V,L,
343,91,7,8,2,44,36,1599,['n'],0,left,['3'],3,1088,[-0.00692364],75,44,hard,plus,dotcolour,beta,,,58,18,V,L,
344,92,8,8,2,36,44,1450,['n'],1,right,['8'],4,420,[-0.01480243],88,44,hard,plus,dotcolour,beta,,,58,18,V,L,
345,93,9,8,2,44,36,916,['n'],0,left,['8'],4,383,[0.06766321],41,44,hard,plus,dotcolour,beta,,,58,18,V,L,
346,94,10,8,2,47,33,917,['c'],1,left,['8'],4,549,[0.09261609],97,47,medium,plus,dotcolour,beta,,,58,18,V,L,
347,95,11,8,2,27,53,716,['n'],1,right,['8'],4,387,[-0.20387441],100,53,easy,plus,dotcolour,beta,,,58,18,V,L,
348,96,12,8,2,33,47,2017,['n'],1,right,['8'],4,404,[-0.12885849],99,47,medium,plus,dotcolour,beta,,,58,18,V,L,
349,97,13,8,2,27,53,665,['n'],1,right,['9'],5,427,[-0.19473118],100,53,easy,plus,dotcolour,beta,,,58,18,V,L,
350,98,14,8,2,53,27,633,['n'],0,left,['2'],2,1138,[0.02941465],61,53,easy,plus,dotcolour,beta,,,58,18,V,L,
351,99,15,8,2,33,47,1000,['n'],1,right,['9'],5,524,[-0.03502937],90,47,medium,plus,dotcolour,beta,,,58,18,V,L,
352,100,16,8,2,27,53,634,['n'],1,right,['0'],6,783,[-0.25154207],100,53,easy,plus,dotcolour,beta,,,58,18,V,L,
353,101,17,8,2,33,47,633,['n'],1,right,['8'],4,447,[-0.1784395],100,47,medium,plus,dotcolour,beta,,,58,18,V,L,
354,102,18,8,2,47,33,1633,['c'],1,left,['8'],4,1501,[0.13278998],94,47,medium,plus,dotcolour,beta,,,58,18,V,L,
355,103,19,8,2,53,27,2100,['n'],0,left,['3'],3,710,[0.03583504],60,53,easy,plus,dotcolour,beta,,,58,18,V,L,
356,104,20,8,2,53,27,1101,['c'],1,left,['9'],5,407,[0.05739916],96,53,easy,plus,dotcolour,beta,,,58,18,V,L,
357,105,21,8,2,44,36,884,['n'],0,left,['8'],4,620,[0.06295055],46,44,hard,plus,dotcolour,beta,,,58,18,V,L,
358,106,22,8,2,47,33,1034,['c'],1,left,['9'],5,459,[0.04920966],94,47,medium,plus,dotcolour,beta,,,58,18,V,L,
359,107,23,8,2,27,53,883,['n'],1,right,['9'],5,414,[-0.16461762],100,53,easy,plus,dotcolour,beta,,,58,18,V,L,
360,108,24,8,2,47,33,799,['c'],1,left,['8'],4,471,[0.10248604],98,47,medium,plus,dotcolour,beta,,,58,18,V,L,
361,109,25,8,2,33,47,2217,['n'],1,right,['8'],4,428,[-0.14538203],100,47,medium,plus,dotcolour,beta,,,58,18,V,L,
362,110,26,8,2,47,33,632,['c'],1,left,['8'],4,459,[0.18737554],100,47,medium,plus,dotcolour,beta,,,58,18,V,L,
363,111,27,8,2,27,53,617,['n'],1,right,['9'],5,385,[-0.12257025],99,53,easy,plus,dotcolour,beta,,,58,18,V,L,
364,112,28,8,2,53,27,1034,['c'],1,left,['0'],6,994,[0.0944935],94,53,easy,plus,dotcolour,beta,,,58,18,V,L,
365,113,29,8,2,53,27,783,['c'],1,left,['9'],5,404,[0.01255846],87,53,easy,plus,dotcolour,beta,,,58,18,V,L,
366,114,30,8,2,36,44,733,['n'],1,right,['8'],4,431,[-0.13398264],99,44,hard,plus,dotcolour,beta,,,58,18,V,L,
367,115,31,8,2,36,44,867,['n'],1,right,['9'],5,404,[-0.182711],100,44,hard,plus,dotcolour,beta,,,58,18,V,L,
368,116,32,8,2,53,27,733,['c'],1,left,['9'],5,319,[0.05017059],97,53,easy,plus,dotcolour,beta,,,58,18,V,L,
369,117,33,8,2,33,47,817,['n'],1,right,['9'],5,411,[-0.06976014],97,47,medium,plus,dotcolour,beta,,,58,18,V,L,
370,118,34,8,2,44,36,1400,['c'],1,left,['8'],4,404,[0.11206576],99,44,hard,plus,dotcolour,beta,,,58,18,V,L,
371,119,35,8,2,44,36,2199,['n'],0,left,['8'],4,621,[0.03139226],63,44,hard,plus,dotcolour,beta,,,58,18,V,L,
372,120,36,8,2,36,44,1601,['c'],0,right,['8'],4,437,[0.06840463],97,44,hard,plus,dotcolour,beta,,,58,18,V,L,
373,121,37,8,2,44,36,1116,['c'],1,left,['9'],5,424,[0.14966124],100,44,hard,plus,dotcolour,beta,,,58,18,V,L,
374,122,38,8,2,33,47,834,['n'],1,right,['8'],4,374,[-0.16880536],100,47,medium,plus,dotcolour,beta,,,58,18,V,L,
375,123,39,8,2,47,33,700,['c'],1,left,['9'],5,461,[0.22754974],100,47,medium,plus,dotcolour,beta,,,58,18,V,L,
376,124,40,8,2,36,44,3784,['n'],1,right,['3'],3,1652,[-0.31570432],99,44,hard,plus,dotcolour,beta,,,58,18,V,L,
377,125,41,8,2,36,44,1117,['n'],1,right,['8'],4,486,[-0.10584696],98,44,hard,plus,dotcolour,beta,,,58,18,V,L,
378,0,0,9,3,33,47,1251,['n'],1,right,['8'],4,484,[-0.17379035],96,47,medium,minus,dotcolour,beta,,,58,18,V,L,
379,1,1,9,3,44,36,717,['c'],1,left,['9'],5,534,[0.15368493],92,44,hard,minus,dotcolour,beta,,,58,18,V,L,
380,2,2,9,3,47,33,800,['c'],1,left,['9'],5,362,[-0.07058806],2,47,medium,minus,dotcolour,beta,,,58,18,V,L,
381,3,3,9,3,47,33,866,['c'],1,left,['9'],5,354,[0.08610278],72,47,medium,minus,dotcolour,beta,,,58,18,V,L,
382,4,4,9,3,33,47,650,['n'],1,right,['9'],5,308,[-0.10559522],84,47,medium,minus,dotcolour,beta,,,58,18,V,L,
383,5,5,9,3,27,53,750,['n'],1,right,['9'],5,426,[-0.11655489],84,53,easy,minus,dotcolour,beta,,,58,18,V,L,
384,6,6,9,3,44,36,817,['c'],1,left,['9'],5,322,[0.12623042],90,44,hard,minus,dotcolour,beta,,,58,18,V,L,
385,7,7,9,3,33,47,1183,['n'],1,right,['8'],4,374,[-0.06200042],55,47,medium,minus,dotcolour,beta,,,58,18,V,L,
386,8,8,9,3,53,27,599,['c'],1,left,['9'],5,344,[0.28949298],100,53,easy,minus,dotcolour,beta,,,58,18,V,L,
387,9,9,9,3,33,47,1216,['n'],1,right,['9'],5,371,[-0.09649018],77,47,medium,minus,dotcolour,beta,,,58,18,V,L,
388,10,10,9,3,36,44,984,['n'],1,right,['9'],5,382,[-0.10594454],81,44,hard,minus,dotcolour,beta,,,58,18,V,L,
389,11,11,9,3,44,36,983,['c'],1,left,['8'],4,369,[-0.00216932],15,44,hard,minus,dotcolour,beta,,,58,18,V,L,
390,12,12,9,3,44,36,1083,['c'],1,left,['8'],4,312,[0.09663696],79,44,hard,minus,dotcolour,beta,,,58,18,V,L,
391,13,13,9,3,47,33,950,['c'],1,left,['9'],5,319,[0.11189589],86,47,medium,minus,dotcolour,beta,,,58,18,V,L,
392,14,14,9,3,36,44,1084,['n'],1,right,['8'],4,472,[-0.05758834],51,44,hard,minus,dotcolour,beta,,,58,18,V,L,
393,15,15,9,3,27,53,600,['n'],1,right,['9'],5,406,[-0.07276666],62,53,easy,minus,dotcolour,beta,,,58,18,V,L,
394,16,16,9,3,53,27,666,['c'],1,left,['0'],6,333,[0.07067079],62,53,easy,minus,dotcolour,beta,,,58,18,V,L,
395,17,17,9,3,44,36,817,['c'],1,left,['9'],5,343,[0.06738289],59,44,hard,minus,dotcolour,beta,,,58,18,V,L,
396,18,18,9,3,47,33,717,['c'],1,left,['9'],5,318,[0.05194076],47,47,medium,minus,dotcolour,beta,,,58,18,V,L,
397,19,19,9,3,47,33,950,['c'],1,left,['8'],4,397,[0.02062117],27,47,medium,minus,dotcolour,beta,,,58,18,V,L,
398,20,20,9,3,47,33,717,['c'],1,left,['8'],4,465,[0.16822687],95,47,medium,minus,dotcolour,beta,,,58,18,V,L,
399,21,21,9,3,47,33,634,['c'],1,left,['9'],5,399,[0.0128816],23,47,medium,minus,dotcolour,beta,,,58,18,V,L,
400,22,22,9,3,53,27,634,['c'],1,left,['9'],5,591,[0.22970894],98,53,easy,minus,dotcolour,beta,,,58,18,V,L,
401,23,23,9,3,44,36,651,['c'],1,left,['8'],4,390,[0.09059562],73,44,hard,minus,dotcolour,beta,,,58,18,V,L,
402,24,24,9,3,53,27,600,['c'],1,left,['9'],5,528,[0.16100679],93,53,easy,minus,dotcolour,beta,,,58,18,V,L,
403,25,25,9,3,27,53,883,['n'],1,right,['9'],5,320,[-0.04933185],45,53,easy,minus,dotcolour,beta,,,58,18,V,L,
404,26,26,9,3,36,44,984,['n'],1,right,['8'],4,301,[-0.08713128],74,44,hard,minus,dotcolour,beta,,,58,18,V,L,
405,27,27,9,3,27,53,534,['n'],1,right,['8'],4,293,[-0.12805846],92,53,easy,minus,dotcolour,beta,,,58,18,V,L,
406,28,28,9,3,33,47,633,['n'],1,right,['8'],4,282,[-0.030654],30,47,medium,minus,dotcolour,beta,,,58,18,V,L,
407,29,29,9,3,36,44,866,['c'],0,right,['8'],4,285,[0.11326599],87,44,hard,minus,dotcolour,beta,,,58,18,V,L,
408,30,30,9,3,36,44,716,['n'],1,right,['8'],4,295,[-0.10753587],85,44,hard,minus,dotcolour,beta,,,58,18,V,L,
409,31,31,9,3,53,27,700,['c'],1,left,['8'],4,384,[0.13864936],92,53,easy,minus,dotcolour,beta,,,58,18,V,L,
410,32,32,9,3,36,44,634,['c'],0,right,['8'],4,337,[-0.00343889],14,44,hard,minus,dotcolour,beta,,,58,18,V,L,
411,33,33,9,3,33,47,667,['c'],0,right,['8'],4,394,[0.03710851],37,47,medium,minus,dotcolour,beta,,,58,18,V,L,
412,34,34,9,3,33,47,616,['c'],0,right,['8'],4,363,[0.02212704],27,47,medium,minus,dotcolour,beta,,,58,18,V,L,
413,35,35,9,3,27,53,866,['c'],0,right,['8'],4,306,[0.04059432],38,53,easy,minus,dotcolour,beta,,,58,18,V,L,
414,36,36,9,3,27,53,634,['n'],1,right,['8'],4,262,[-0.03976925],36,53,easy,minus,dotcolour,beta,,,58,18,V,L,
415,37,37,9,3,44,36,1883,['c'],1,left,['8'],4,289,[0.05385935],49,44,hard,minus,dotcolour,beta,,,58,18,V,L,
416,38,38,9,3,53,27,784,['c'],1,left,['9'],5,416,[0.13710857],91,53,easy,minus,dotcolour,beta,,,58,18,V,L,
417,39,39,9,3,36,44,735,['n'],1,right,['9'],5,330,[-0.14589217],94,44,hard,minus,dotcolour,beta,,,58,18,V,L,
418,40,40,9,3,27,53,717,['n'],1,right,['9'],5,290,[-0.0643872],57,53,easy,minus,dotcolour,beta,,,58,18,V,L,
419,41,41,9,3,53,27,750,['c'],1,left,['9'],5,289,[0.08413356],72,53,easy,minus,dotcolour,beta,,,58,18,V,L,
420,42,0,10,3,44,36,684,['c'],1,left,['9'],5,398,[0.11734031],85,44,hard,minus,dotcolour,beta,,,58,18,V,L,
421,43,1,10,3,47,33,566,['c'],1,left,['9'],5,392,[0.07065372],61,47,medium,minus,dotcolour,beta,,,58,18,V,L,
422,44,2,10,3,27,53,716,['n'],1,right,['9'],5,381,[-0.17865359],97,53,easy,minus,dotcolour,beta,,,58,18,V,L,
423,45,3,10,3,53,27,618,['c'],1,left,['9'],5,311,[0.09394718],78,53,easy,minus,dotcolour,beta,,,58,18,V,L,
424,46,4,10,3,47,33,583,['c'],1,left,['9'],5,332,[0.04838011],44,47,medium,minus,dotcolour,beta,,,58,18,V,L,
425,47,5,10,3,33,47,683,['n'],1,right,['8'],4,420,[-0.23740822],99,47,medium,minus,dotcolour,beta,,,58,18,V,L,
426,48,6,10,3,36,44,734,['c'],0,right,['8'],4,488,[-0.01240274],15,44,hard,minus,dotcolour,beta,,,58,18,V,L,
427,49,7,10,3,27,53,1251,['n'],1,right,['9'],5,443,[-0.27305524],100,53,easy,minus,dotcolour,beta,,,58,18,V,L,
428,50,8,10,3,53,27,917,['c'],1,left,['9'],5,334,[0.15154522],95,53,easy,minus,dotcolour,beta,,,58,18,V,L,
429,51,9,10,3,27,53,735,['n'],1,right,['9'],5,389,[-0.25882306],100,53,easy,minus,dotcolour,beta,,,58,18,V,L,
430,52,10,10,3,36,44,1066,['c'],0,right,['8'],4,347,[0.07163914],62,44,hard,minus,dotcolour,beta,,,58,18,V,L,
431,53,11,10,3,36,44,884,['c'],0,right,['8'],4,579,[0.02169805],31,44,hard,minus,dotcolour,beta,,,58,18,V,L,
432,54,12,10,3,36,44,1717,['c'],0,right,['8'],4,400,[0.10702285],81,44,hard,minus,dotcolour,beta,,,58,18,V,L,
433,55,13,10,3,47,33,1683,['c'],1,left,['8'],4,607,[0.20079949],97,47,medium,minus,dotcolour,beta,,,58,18,V,L,
434,56,14,10,3,53,27,634,['c'],1,left,['9'],5,462,[0.18368828],97,53,easy,minus,dotcolour,beta,,,58,18,V,L,
435,57,15,10,3,53,27,884,['c'],1,left,['8'],4,433,[0.17494072],96,53,easy,minus,dotcolour,beta,,,58,18,V,L,
436,58,16,10,3,33,47,784,['n'],1,right,['8'],4,458,[-0.07199032],61,47,medium,minus,dotcolour,beta,,,58,18,V,L,
437,59,17,10,3,53,27,667,['c'],1,left,['9'],5,430,[0.21180939],99,53,easy,minus,dotcolour,beta,,,58,18,V,L,
438,60,18,10,3,27,53,950,['n'],1,right,['8'],4,336,[-0.1886615],98,53,easy,minus,dotcolour,beta,,,58,18,V,L,
439,61,19,10,3,44,36,633,['c'],1,left,['8'],4,531,[0.17581092],95,44,hard,minus,dotcolour,beta,,,58,18,V,L,
440,62,20,10,3,53,27,1066,['c'],1,left,['8'],4,404,[0.15247093],94,53,easy,minus,dotcolour,beta,,,58,18,V,L,
441,63,21,10,3,47,33,1583,['c'],1,left,['9'],5,414,[0.01080071],22,47,medium,minus,dotcolour,beta,,,58,18,V,L,
442,64,22,10,3,53,27,1167,['c'],1,left,['9'],5,400,[0.07024725],60,53,easy,minus,dotcolour,beta,,,58,18,V,L,
443,65,23,10,3,27,53,750,['n'],1,right,['8'],4,803,[-0.33459064],100,53,easy,minus,dotcolour,beta,,,58,18,V,L,
444,66,24,10,3,44,36,733,['c'],1,left,['8'],4,495,[0.05901604],52,44,hard,minus,dotcolour,beta,,,58,18,V,L,
445,67,25,10,3,44,36,833,['n'],0,left,['3'],3,890,[-0.03664439],41,44,hard,minus,dotcolour,beta,,,58,18,V,L,
446,68,26,10,3,33,47,952,['n'],1,right,['9'],5,410,[-0.18560888],97,47,medium,minus,dotcolour,beta,,,58,18,V,L,
447,69,27,10,3,44,36,684,['c'],1,left,['9'],5,343,[0.15881563],96,44,hard,minus,dotcolour,beta,,,58,18,V,L,
448,70,28,10,3,33,47,701,['n'],1,right,['8'],4,495,[-0.12086533],84,47,medium,minus,dotcolour,beta,,,58,18,V,L,
449,71,29,10,3,36,44,1500,['n'],1,right,['8'],4,465,[-0.07727172],64,44,hard,minus,dotcolour,beta,,,58,18,V,L,
450,72,30,10,3,44,36,867,['c'],1,left,['8'],4,900,[-0.04451316],13,44,hard,minus,dotcolour,beta,,,58,18,V,L,
451,73,31,10,3,27,53,700,['n'],1,right,['9'],5,397,[-0.12898545],89,53,easy,minus,dotcolour,beta,,,58,18,V,L,
452,74,32,10,3,36,44,1200,['n'],1,right,['9'],5,415,[-0.04955167],46,44,hard,minus,dotcolour,beta,,,58,18,V,L,
453,75,33,10,3,33,47,950,['n'],1,right,['9'],5,457,[-0.00031677],19,47,medium,minus,dotcolour,beta,,,58,18,V,L,
454,76,34,10,3,27,53,1050,['c'],0,right,['3'],3,646,[-0.12604327],2,53,easy,minus,dotcolour,beta,,,58,18,V,L,
455,77,35,10,3,33,47,1135,['n'],1,right,['8'],4,489,[-0.00310585],21,47,medium,minus,dotcolour,beta,,,58,18,V,L,
456,78,36,10,3,47,33,733,['c'],1,left,['8'],4,400,[0.05136798],47,47,medium,minus,dotcolour,beta,,,58,18,V,L,
457,79,37,10,3,47,33,666,['c'],1,left,['9'],5,423,[0.08101742],67,47,medium,minus,dotcolour,beta,,,58,18,V,L,
458,80,38,10,3,36,44,716,['n'],1,right,['8'],4,402,[-0.15536503],94,44,hard,minus,dotcolour,beta,,,58,18,V,L,
459,81,39,10,3,33,47,1033,['n'],1,right,['8'],4,458,[-0.15103724],93,47,medium,minus,dotcolour,beta,,,58,18,V,L,
460,82,40,10,3,47,33,733,['n'],0,left,['8'],4,396,[-0.00159684],18,47,medium,minus,dotcolour,beta,,,58,18,V,L,
461,83,41,10,3,44,36,733,['c'],1,left,['8'],4,543,[0.0781465],63,44,hard,minus,dotcolour,beta,,,58,18,V,L,
462,84,0,11,3,36,44,901,['n'],1,right,['8'],4,631,[-0.08490095],66,44,hard,minus,dotcolour,beta,,,58,18,V,L,
463,85,1,11,3,44,36,767,['c'],1,left,['8'],4,401,[0.08794244],72,44,hard,minus,dotcolour,beta,,,58,18,V,L,
464,86,2,11,3,27,53,650,['n'],1,right,['8'],4,487,[-0.11991389],84,53,easy,minus,dotcolour,beta,,,58,18,V,L,
465,87,3,11,3,53,27,950,['c'],1,left,['9'],5,479,[0.10038184],76,53,easy,minus,dotcolour,beta,,,58,18,V,L,
466,88,4,11,3,36,44,650,['n'],1,right,['8'],4,339,[-0.16216219],96,44,hard,minus,dotcolour,beta,,,58,18,V,L,
467,89,5,11,3,47,33,1033,['c'],1,left,['8'],4,365,[0.15940992],96,47,medium,minus,dotcolour,beta,,,58,18,V,L,
468,90,6,11,3,33,47,734,['n'],1,right,['8'],4,386,[-0.08843483],72,47,medium,minus,dotcolour,beta,,,58,18,V,L,
469,91,7,11,3,44,36,734,['c'],1,left,['8'],4,423,[0.02011329],27,44,hard,minus,dotcolour,beta,,,58,18,V,L,
470,92,8,11,3,53,27,567,['c'],1,left,['8'],4,1040,[0.23161532],96,53,easy,minus,dotcolour,beta,,,58,18,V,L,
471,93,9,11,3,33,47,967,['n'],1,right,['8'],4,513,[-0.07196048],60,47,medium,minus,dotcolour,beta,,,58,18,V,L,
472,94,10,11,3,33,47,1583,['n'],1,right,['8'],4,358,[-0.10781569],83,47,medium,minus,dotcolour,beta,,,58,18,V,L,
473,95,11,11,3,47,33,1651,['c'],1,left,['8'],4,327,[0.25857935],100,47,medium,minus,dotcolour,beta,,,58,18,V,L,
474,96,12,11,3,53,27,683,['c'],1,left,['8'],4,360,[0.11856626],87,53,easy,minus,dotcolour,beta,,,58,18,V,L,
475,97,13,11,3,47,33,666,['c'],1,left,['8'],4,392,[0.15698121],95,47,medium,minus,dotcolour,beta,,,58,18,V,L,
476,98,14,11,3,44,36,917,['c'],1,left,['8'],4,557,[0.17882847],95,44,hard,minus,dotcolour,beta,,,58,18,V,L,
477,99,15,11,3,27,53,717,['n'],1,right,['9'],5,466,[-0.10041362],77,53,easy,minus,dotcolour,beta,,,58,18,V,L,
478,100,16,11,3,27,53,750,['n'],1,right,['9'],5,460,[-0.22308445],99,53,easy,minus,dotcolour,beta,,,58,18,V,L,
479,101,17,11,3,27,53,950,['n'],1,right,['9'],5,524,[-0.39427674],100,53,easy,minus,dotcolour,beta,,,58,18,V,L,
480,102,18,11,3,47,33,1200,['c'],1,left,['9'],5,383,[0.18603874],98,47,medium,minus,dotcolour,beta,,,58,18,V,L,
481,103,19,11,3,36,44,617,['n'],1,right,['9'],5,409,[-0.16468356],96,44,hard,minus,dotcolour,beta,,,58,18,V,L,
482,104,20,11,3,27,53,2551,['n'],1,right,['3'],3,612,[-0.01000988],26,53,easy,minus,dotcolour,beta,,,58,18,V,L,
483,105,21,11,3,27,53,800,['n'],1,right,['8'],4,444,[-0.18619356],97,53,easy,minus,dotcolour,beta,,,58,18,V,L,
484,106,22,11,3,44,36,750,['c'],1,left,['8'],4,486,[-0.01143345],15,44,hard,minus,dotcolour,beta,,,58,18,V,L,
485,107,23,11,3,44,36,867,['c'],1,left,['9'],5,569,[0.13805517],88,44,hard,minus,dotcolour,beta,,,58,18,V,L,
486,108,24,11,3,36,44,1517,['c'],0,right,['9'],5,559,[0.00691286],24,44,hard,minus,dotcolour,beta,,,58,18,V,L,
487,109,25,11,3,53,27,600,['c'],1,left,['9'],5,442,[0.03645742],37,53,easy,minus,dotcolour,beta,,,58,18,V,L,
488,110,26,11,3,33,47,1283,['n'],1,right,['8'],4,334,[-0.17919532],98,47,medium,minus,dotcolour,beta,,,58,18,V,L,
489,111,27,11,3,33,47,1684,['n'],1,right,['8'],4,351,[-0.10112156],80,47,medium,minus,dotcolour,beta,,,58,18,V,L,
490,112,28,11,3,36,44,884,['n'],1,right,['8'],4,510,[-0.09086948],71,44,hard,minus,dotcolour,beta,,,58,18,V,L,
491,113,29,11,3,47,33,999,['c'],1,left,['8'],4,492,[0.08418166],68,47,medium,minus,dotcolour,beta,,,58,18,V,L,
492,114,30,11,3,53,27,884,['c'],1,left,['9'],5,429,[0.16268915],95,53,easy,minus,dotcolour,beta,,,58,18,V,L,
493,115,31,11,3,33,47,767,['c'],0,right,['9'],5,391,[-0.00414123],15,47,medium,minus,dotcolour,beta,,,58,18,V,L,
494,116,32,11,3,27,53,900,['n'],1,right,['9'],5,460,[-0.22805052],99,53,easy,minus,dotcolour,beta,,,58,18,V,L,
495,117,33,11,3,53,27,734,['c'],1,left,['9'],5,381,[0.04522925],43,53,easy,minus,dotcolour,beta,,,58,18,V,L,
496,118,34,11,3,36,44,1467,['c'],0,right,['8'],4,413,[0.07731643],65,44,hard,minus,dotcolour,beta,,,58,18,V,L,
497,119,35,11,3,44,36,933,['c'],1,left,['8'],4,408,[0.07009383],60,44,hard,minus,dotcolour,beta,,,58,18,V,L,
498,120,36,11,3,53,27,550,['c'],1,left,['8'],4,387,[0.21617653],99,53,easy,minus,dotcolour,beta,,,58,18,V,L,
499,121,37,11,3,33,47,633,['n'],1,right,['8'],4,371,[-0.13097533],90,47,medium,minus,dotcolour,beta,,,58,18,V,L,
500,122,38,11,3,47,33,533,['n'],0,left,['3'],3,1136,[-0.11539442],73,47,medium,minus,dotcolour,beta,,,58,18,V,L,
501,123,39,11,3,44,36,800,['c'],1,left,['8'],4,491,[0.07303005],61,44,hard,minus,dotcolour,beta,,,58,18,V,L,
502,124,40,11,3,47,33,383,['n'],0,left,['8'],4,433,[0.01546146],13,47,medium,minus,dotcolour,beta,,,58,18,V,L,
503,125,41,11,3,36,44,449,['c'],0,right,['8'],4,311,[0.02397757],27,44,hard,minus,dotcolour,beta,,,58,18,V,L,
504,0,0,12,4,27,53,1300,['n'],1,right,['9'],5,838,[-0.30309974],100,53,easy,plus,dotcolour,beta,,,58,18,V,L,
505,1,1,12,4,27,53,650,['n'],1,right,['9'],5,379,[-0.12803782],100,53,easy,plus,dotcolour,beta,,,58,18,V,L,
506,2,2,12,4,36,44,800,['c'],0,right,['9'],5,397,[-0.0006414],83,44,hard,plus,dotcolour,beta,,,58,18,V,L,
507,3,3,12,4,53,27,733,['c'],1,left,['9'],5,289,[0.10965604],100,53,easy,plus,dotcolour,beta,,,58,18,V,L,
508,4,4,12,4,53,27,549,['c'],1,left,['0'],6,338,[0.12816279],100,53,easy,plus,dotcolour,beta,,,58,18,V,L,
509,5,5,12,4,36,44,784,['n'],1,right,['8'],4,374,[-0.01020839],87,44,hard,plus,dotcolour,beta,,,58,18,V,L,
510,6,6,12,4,47,33,734,['c'],1,left,['8'],4,386,[0.13693737],100,47,medium,plus,dotcolour,beta,,,58,18,V,L,
511,7,7,12,4,27,53,700,['n'],1,right,['8'],4,328,[-0.12681594],100,53,easy,plus,dotcolour,beta,,,58,18,V,L,
512,8,8,12,4,44,36,1000,['c'],1,left,['8'],4,372,[0.02209363],91,44,hard,plus,dotcolour,beta,,,58,18,V,L,
513,9,9,12,4,47,33,700,['c'],1,left,['8'],4,354,[0.16272267],100,47,medium,plus,dotcolour,beta,,,58,18,V,L,
514,10,10,12,4,44,36,567,['c'],1,left,['9'],5,383,[0.17305359],100,44,hard,plus,dotcolour,beta,,,58,18,V,L,
515,11,11,12,4,27,53,766,['n'],1,right,['8'],4,370,[-0.08620258],99,53,easy,plus,dotcolour,beta,,,58,18,V,L,
516,12,12,12,4,44,36,734,['c'],1,left,['8'],4,400,[0.06721371],97,44,hard,plus,dotcolour,beta,,,58,18,V,L,
517,13,13,12,4,27,53,867,['n'],1,right,['8'],4,334,[-0.12615324],100,53,easy,plus,dotcolour,beta,,,58,18,V,L,
518,14,14,12,4,47,33,916,['c'],1,left,['8'],4,365,[0.17520523],100,47,medium,plus,dotcolour,beta,,,58,18,V,L,
519,15,15,12,4,33,47,1583,['c'],0,right,['8'],4,361,[-0.05579055],50,47,medium,plus,dotcolour,beta,,,58,18,V,L,
520,16,16,12,4,33,47,900,['c'],0,right,['8'],4,360,[-0.00230164],83,47,medium,plus,dotcolour,beta,,,58,18,V,L,
521,17,17,12,4,53,27,684,['c'],1,left,['8'],4,415,[0.0379003],93,53,easy,plus,dotcolour,beta,,,58,18,V,L,
522,18,18,12,4,44,36,717,['c'],1,left,['9'],5,435,[0.1888879],100,44,hard,plus,dotcolour,beta,,,58,18,V,L,
523,19,19,12,4,33,47,767,['n'],1,right,['9'],5,492,[-0.19399509],100,47,medium,plus,dotcolour,beta,,,58,18,V,L,
524,20,20,12,4,44,36,850,['c'],1,left,['8'],4,272,[0.20098903],100,44,hard,plus,dotcolour,beta,,,58,18,V,L,
525,21,21,12,4,44,36,616,['c'],1,left,['8'],4,550,[0.07609255],96,44,hard,plus,dotcolour,beta,,,58,18,V,L,
526,22,22,12,4,33,47,867,['c'],0,right,['9'],5,262,[-0.00559865],85,47,medium,plus,dotcolour,beta,,,58,18,V,L,
527,23,23,12,4,53,27,617,['c'],1,left,['9'],5,316,[0.16922597],100,53,easy,plus,dotcolour,beta,,,58,18,V,L,
528,24,24,12,4,27,53,617,['n'],1,right,['9'],5,352,[-0.1701366],100,53,easy,plus,dotcolour,beta,,,58,18,V,L,
529,25,25,12,4,47,33,718,['c'],1,left,['0'],6,334,[0.11641927],100,47,medium,plus,dotcolour,beta,,,58,18,V,L,
530,26,26,12,4,44,36,1501,['c'],1,left,['8'],4,375,[0.04042415],94,44,hard,plus,dotcolour,beta,,,58,18,V,L,
531,27,27,12,4,47,33,817,['c'],1,left,['9'],5,464,[0.15981852],100,47,medium,plus,dotcolour,beta,,,58,18,V,L,
532,28,28,12,4,36,44,1083,['n'],1,right,['8'],4,403,[-0.13780572],100,44,hard,plus,dotcolour,beta,,,58,18,V,L,
533,29,29,12,4,36,44,750,['c'],0,right,['9'],5,399,[0.15762323],100,44,hard,plus,dotcolour,beta,,,58,18,V,L,
534,30,30,12,4,36,44,584,['c'],0,right,['9'],5,600,[0.03770843],90,44,hard,plus,dotcolour,beta,,,58,18,V,L,
535,31,31,12,4,36,44,966,['n'],1,right,['9'],5,419,[-0.08123514],98,44,hard,plus,dotcolour,beta,,,58,18,V,L,
536,32,32,12,4,36,44,733,['c'],0,right,['8'],4,391,[0.14910359],100,44,hard,plus,dotcolour,beta,,,58,18,V,L,
537,33,33,12,4,33,47,3418,['n'],1,right,['9'],5,479,[-0.07590887],97,47,medium,plus,dotcolour,beta,,,58,18,V,L,
538,34,34,12,4,47,33,883,['c'],1,left,['8'],4,346,[0.19161949],100,47,medium,plus,dotcolour,beta,,,58,18,V,L,
539,35,35,12,4,47,33,817,['c'],1,left,['8'],4,349,[0.13929516],100,47,medium,plus,dotcolour,beta,,,58,18,V,L,
540,36,36,12,4,53,27,700,['c'],1,left,['8'],4,364,[0.11173703],99,53,easy,plus,dotcolour,beta,,,58,18,V,L,
541,37,37,12,4,53,27,866,['c'],1,left,['8'],4,452,[0.0694484],97,53,easy,plus,dotcolour,beta,,,58,18,V,L,
542,38,38,12,4,33,47,1183,['n'],1,right,['8'],4,428,[-0.08006599],98,47,medium,plus,dotcolour,beta,,,58,18,V,L,
543,39,39,12,4,53,27,699,['c'],1,left,['9'],5,360,[0.12384327],100,53,easy,plus,dotcolour,beta,,,58,18,V,L,
544,40,40,12,4,33,47,817,['c'],0,right,['3'],3,1226,[0.1942512],98,47,medium,plus,dotcolour,beta,,,58,18,V,L,
545,41,41,12,4,27,53,683,['n'],1,right,['9'],5,302,[-0.03978888],96,53,easy,plus,dotcolour,beta,,,58,18,V,L,
546,42,0,13,4,53,27,667,['n'],0,left,['2'],2,860,[-0.08274796],94,53,easy,plus,dotcolour,beta,,,58,18,V,L,
547,43,1,13,4,27,53,783,['n'],1,right,['0'],6,1099,[-0.36104788],100,53,easy,plus,dotcolour,beta,,,58,18,V,L,
548,44,2,13,4,47,33,1268,['c'],1,left,['8'],4,357,[0.04434676],95,47,medium,plus,dotcolour,beta,,,58,18,V,L,
549,45,3,13,4,44,36,1316,['c'],1,left,['8'],4,363,[0.01214469],88,44,hard,plus,dotcolour,beta,,,58,18,V,L,
550,46,4,13,4,27,53,650,['n'],1,right,['9'],5,324,[-0.03272461],94,53,easy,plus,dotcolour,beta,,,58,18,V,L,
551,47,5,13,4,33,47,867,['c'],0,right,['8'],4,341,[0.05084592],96,47,medium,plus,dotcolour,beta,,,58,18,V,L,
552,48,6,13,4,33,47,751,['n'],1,right,['9'],5,307,[-0.142611],100,47,medium,plus,dotcolour,beta,,,58,18,V,L,
553,49,7,13,4,27,53,1083,['c'],0,right,['8'],4,940,[-0.18568928],8,53,easy,plus,dotcolour,beta,,,58,18,V,L,
554,50,8,13,4,44,36,850,['c'],1,left,['9'],5,373,[0.13785802],100,44,hard,plus,dotcolour,beta,,,58,18,V,L,
555,51,9,13,4,36,44,2068,['c'],0,right,['9'],5,509,[-0.0116657],75,44,hard,plus,dotcolour,beta,,,58,18,V,L,
556,52,10,13,4,53,27,734,['c'],1,left,['9'],5,388,[0.04291327],95,53,easy,plus,dotcolour,beta,,,58,18,V,L,
557,53,11,13,4,53,27,3883,['n'],0,left,['8'],4,459,[-0.05400523],95,53,easy,plus,dotcolour,beta,,,58,18,V,L,
558,54,12,13,4,47,33,717,['c'],1,left,['8'],4,421,[0.20919266],100,47,medium,plus,dotcolour,beta,,,58,18,V,L,
559,55,13,13,4,33,47,784,['n'],1,right,['8'],4,414,[-0.1083374],99,47,medium,plus,dotcolour,beta,,,58,18,V,L,
560,56,14,13,4,36,44,717,['n'],1,right,['8'],4,377,[-0.07969417],98,44,hard,plus,dotcolour,beta,,,58,18,V,L,
561,57,15,13,4,27,53,633,['n'],1,right,['8'],4,242,[-0.20474384],100,53,easy,plus,dotcolour,beta,,,58,18,V,L,
562,58,16,13,4,47,33,700,['c'],1,left,['9'],5,341,[0.07992385],98,47,medium,plus,dotcolour,beta,,,58,18,V,L,
563,59,17,13,4,27,53,766,['n'],1,right,['9'],5,347,[0.04124796],61,53,easy,plus,dotcolour,beta,,,58,18,V,L,
564,60,18,13,4,53,27,650,['n'],0,left,['2'],2,804,[0.12049173],21,53,easy,plus,dotcolour,beta,,,58,18,V,L,
565,61,19,13,4,53,27,550,['c'],1,left,['8'],4,406,[0.08535379],98,53,easy,plus,dotcolour,beta,,,58,18,V,L,
566,62,20,13,4,44,36,816,['n'],0,left,['8'],4,431,[-0.06782534],97,44,hard,plus,dotcolour,beta,,,58,18,V,L,
567,63,21,13,4,44,36,683,['c'],1,left,['8'],4,371,[0.07420407],98,44,hard,plus,dotcolour,beta,,,58,18,V,L,
568,64,22,13,4,44,36,800,['n'],0,left,['8'],4,469,[0.00782916],78,44,hard,plus,dotcolour,beta,,,58,18,V,L,
569,65,23,13,4,27,53,967,['n'],1,right,['8'],4,326,[-0.18359049],100,53,easy,plus,dotcolour,beta,,,58,18,V,L,
570,66,24,13,4,33,47,1067,['c'],0,right,['9'],5,407,[0.09241664],98,47,medium,plus,dotcolour,beta,,,58,18,V,L,
571,67,25,13,4,33,47,1285,['n'],1,right,['8'],4,579,[-0.04538344],92,47,medium,plus,dotcolour,beta,,,58,18,V,L,
572,68,26,13,4,44,36,634,['c'],1,left,['8'],4,340,[0.11365433],99,44,hard,plus,dotcolour,beta,,,58,18,V,L,
573,69,27,13,4,47,33,700,['n'],0,left,['8'],4,396,[-0.11460531],99,47,medium,plus,dotcolour,beta,,,58,18,V,L,
574,70,28,13,4,47,33,667,['c'],1,left,['8'],4,491,[0.11647242],99,47,medium,plus,dotcolour,beta,,,58,18,V,L,
575,71,29,13,4,53,27,617,['c'],1,left,['9'],5,431,[0.09105521],98,53,easy,plus,dotcolour,beta,,,58,18,V,L,
576,72,30,13,4,36,44,1133,['c'],0,right,['9'],5,410,[0.04624554],95,44,hard,plus,dotcolour,beta,,,58,18,V,L,
577,73,31,13,4,36,44,1399,['n'],1,right,['8'],4,499,[-0.13748553],99,44,hard,plus,dotcolour,beta,,,58,18,V,L,
578,74,32,13,4,33,47,1601,['n'],1,right,['3'],3,920,[-0.20888546],99,47,medium,plus,dotcolour,beta,,,58,18,V,L,
579,75,33,13,4,36,44,983,['c'],0,right,['8'],4,396,[-0.01904556],74,44,hard,plus,dotcolour,beta,,,58,18,V,L,
580,76,34,13,4,33,47,916,['c'],0,right,['9'],5,529,[-0.01190285],75,47,medium,plus,dotcolour,beta,,,58,18,V,L,
581,77,35,13,4,47,33,717,['c'],1,left,['8'],4,392,[0.19093047],100,47,medium,plus,dotcolour,beta,,,58,18,V,L,
582,78,36,13,4,27,53,733,['n'],1,right,['9'],5,340,[-0.13272222],100,53,easy,plus,dotcolour,beta,,,58,18,V,L,
583,79,37,13,4,36,44,884,['c'],0,right,['3'],3,860,[0.01911968],81,44,hard,plus,dotcolour,beta,,,58,18,V,L,
584,80,38,13,4,53,27,849,['c'],1,left,['9'],5,537,[0.11602939],99,53,easy,plus,dotcolour,beta,,,58,18,V,L,
585,81,39,13,4,47,33,650,['c'],1,left,['9'],5,354,[0.15492913],100,47,medium,plus,dotcolour,beta,,,58,18,V,L,
586,82,40,13,4,36,44,734,['n'],1,right,['8'],4,304,[-0.12259414],100,44,hard,plus,dotcolour,beta,,,58,18,V,L,
587,83,41,13,4,44,36,967,['c'],1,left,['8'],4,343,[0.09288766],99,44,hard,plus,dotcolour,beta,,,58,18,V,L,
588,84,0,14,4,47,33,651,['c'],1,left,['9'],5,366,[0.08401262],98,47,medium,plus,dotcolour,beta,,,58,18,V,L,
589,85,1,14,4,36,44,633,['n'],1,right,['8'],4,311,[-0.08996386],99,44,hard,plus,dotcolour,beta,,,58,18,V,L,
590,86,2,14,4,33,47,884,['c'],0,right,['8'],4,377,[0.05665927],96,47,medium,plus,dotcolour,beta,,,58,18,V,L,
591,87,3,14,4,36,44,2234,['n'],1,right,['3'],3,745,[-0.07154218],93,44,hard,plus,dotcolour,beta,,,58,18,V,L,
592,88,4,14,4,44,36,1117,['c'],1,left,['8'],4,768,[0.09592946],96,44,hard,plus,dotcolour,beta,,,58,18,V,L,
593,89,5,14,4,53,27,2750,['n'],0,left,['8'],4,404,[-0.10786991],99,53,easy,plus,dotcolour,beta,,,58,18,V,L,
594,90,6,14,4,36,44,933,['c'],0,right,['8'],4,336,[0.02265713],92,44,hard,plus,dotcolour,beta,,,58,18,V,L,
595,91,7,14,4,44,36,850,['c'],1,left,['8'],4,386,[0.10275157],99,44,hard,plus,dotcolour,beta,,,58,18,V,L,
596,92,8,14,4,44,36,817,['c'],1,left,['8'],4,347,[0.21119658],100,44,hard,plus,dotcolour,beta,,,58,18,V,L,
597,93,9,14,4,33,47,983,['n'],1,right,['8'],4,400,[-0.17025005],100,47,medium,plus,dotcolour,beta,,,58,18,V,L,
598,94,10,14,4,27,53,750,['n'],1,right,['8'],4,379,[-0.18966255],100,53,easy,plus,dotcolour,beta,,,58,18,V,L,
599,95,11,14,4,27,53,683,['n'],1,right,['9'],5,658,[-0.01412113],82,53,easy,plus,dotcolour,beta,,,58,18,V,L,
600,96,12,14,4,47,33,1483,['n'],0,left,['3'],3,781,[0.06064364],47,47,medium,plus,dotcolour,beta,,,58,18,V,L,
601,97,13,14,4,36,44,1016,['n'],1,right,['9'],5,414,[-0.03962855],93,44,hard,plus,dotcolour,beta,,,58,18,V,L,
602,98,14,14,4,27,53,867,['c'],0,right,['8'],4,620,[0.09066979],97,53,easy,plus,dotcolour,beta,,,58,18,V,L,
603,99,15,14,4,47,33,1599,['c'],1,left,['8'],4,509,[0.08779069],97,47,medium,plus,dotcolour,beta,,,58,18,V,L,
604,100,16,14,4,44,36,782,['c'],1,left,['8'],4,434,[0.01627712],88,44,hard,plus,dotcolour,beta,,,58,18,V,L,
605,101,17,14,4,36,44,700,['n'],1,right,['8'],4,437,[-0.20157436],100,44,hard,plus,dotcolour,beta,,,58,18,V,L,
606,102,18,14,4,27,53,632,['n'],1,right,['9'],5,380,[-0.20115607],100,53,easy,plus,dotcolour,beta,,,58,18,V,L,
607,103,19,14,4,47,33,883,['c'],1,left,['9'],5,362,[0.05258424],96,47,medium,plus,dotcolour,beta,,,58,18,V,L,
608,104,20,14,4,53,27,917,['c'],1,left,['9'],5,353,[0.20058146],100,53,easy,plus,dotcolour,beta,,,58,18,V,L,
609,105,21,14,4,33,47,667,['n'],1,right,['9'],5,393,[-0.2267618],100,47,medium,plus,dotcolour,beta,,,58,18,V,L,
610,106,22,14,4,33,47,617,['n'],1,right,['8'],4,386,[-0.24011125],100,47,medium,plus,dotcolour,beta,,,58,18,V,L,
611,107,23,14,4,53,27,667,['c'],1,left,['9'],5,505,[0.21902891],100,53,easy,plus,dotcolour,beta,,,58,18,V,L,
612,108,24,14,4,27,53,584,['n'],1,right,['9'],5,406,[-0.18495201],100,53,easy,plus,dotcolour,beta,,,58,18,V,L,
613,109,25,14,4,44,36,684,['c'],1,left,['9'],5,323,[0.05903673],97,44,hard,plus,dotcolour,beta,,,58,18,V,L,
614,110,26,14,4,53,27,616,['c'],1,left,['9'],5,311,[0.17412067],100,53,easy,plus,dotcolour,beta,,,58,18,V,L,
615,111,27,14,4,36,44,834,['c'],0,right,['8'],4,410,[0.16572832],100,44,hard,plus,dotcolour,beta,,,58,18,V,L,
616,112,28,14,4,33,47,917,['n'],1,right,['8'],4,350,[-0.01041981],88,47,medium,plus,dotcolour,beta,,,58,18,V,L,
617,113,29,14,4,53,27,567,['c'],1,left,['8'],4,347,[0.12338418],100,53,easy,plus,dotcolour,beta,,,58,18,V,L,
618,114,30,14,4,53,27,1217,['c'],1,left,['8'],4,422,[0.07761578],98,53,easy,plus,dotcolour,beta,,,58,18,V,L,
619,115,31,14,4,47,33,1766,['n'],0,left,['8'],4,431,[-0.02571721],90,47,medium,plus,dotcolour,beta,,,58,18,V,L,
620,116,32,14,4,53,27,716,['c'],1,left,['9'],5,250,[0.09720324],100,53,easy,plus,dotcolour,beta,,,58,18,V,L,
621,117,33,14,4,44,36,1000,['c'],1,left,['8'],4,497,[0.06070988],95,44,hard,plus,dotcolour,beta,,,58,18,V,L,
622,118,34,14,4,33,47,799,['n'],1,right,['8'],4,352,[-0.15551064],100,47,medium,plus,dotcolour,beta,,,58,18,V,L,
623,119,35,14,4,36,44,766,['n'],1,right,['8'],4,388,[-0.13808053],100,44,hard,plus,dotcolour,beta,,,58,18,V,L,
624,120,36,14,4,27,53,700,['n'],1,right,['2'],2,1489,[-0.17513599],97,53,easy,plus,dotcolour,beta,,,58,18,V,L,
625,121,37,14,4,27,53,901,['n'],1,right,['9'],5,370,[-0.2021712],100,53,easy,plus,dotcolour,beta,,,58,18,V,L,
626,122,38,14,4,44,36,1550,['c'],1,left,['8'],4,391,[0.10858389],99,44,hard,plus,dotcolour,beta,,,58,18,V,L,
627,123,39,14,4,47,33,617,['c'],1,left,['8'],4,384,[0.10029242],99,47,medium,plus,dotcolour,beta,,,58,18,V,L,
628,124,40,14,4,47,33,1283,['c'],1,left,['8'],4,390,[0.11069444],99,47,medium,plus,dotcolour,beta,,,58,18,V,L,
629,125,41,14,4,33,47,850,['n'],1,right,['8'],4,374,[-0.08615533],98,47,medium,plus,dotcolour,beta,,,58,18,V,L,
630,0,0,15,5,44,36,1001,['c'],1,left,['8'],4,422,[0.09011849],72,44,hard,minus,dotcolour,beta,,,58,18,V,L,
631,1,1,15,5,44,36,584,['c'],1,left,['9'],5,310,[0.180173],98,44,hard,minus,dotcolour,beta,,,58,18,V,L,
632,2,2,15,5,53,27,617,['c'],1,left,['9'],5,274,[0.13936387],95,53,easy,minus,dotcolour,beta,,,58,18,V,L,
633,3,3,15,5,44,36,583,['c'],1,left,['9'],5,296,[0.0841641],72,44,hard,minus,dotcolour,beta,,,58,18,V,L,
634,4,4,15,5,47,33,533,['c'],1,left,['8'],4,360,[0.06599295],58,47,medium,minus,dotcolour,beta,,,58,18,V,L,
635,5,5,15,5,47,33,517,['c'],1,left,['9'],5,326,[0.08104166],69,47,medium,minus,dotcolour,beta,,,58,18,V,L,
636,6,6,15,5,47,33,700,['c'],1,left,['9'],5,302,[0.03258062],32,47,medium,minus,dotcolour,beta,,,58,18,V,L,
637,7,7,15,5,53,27,550,['c'],1,left,['9'],5,342,[0.07768818],66,53,easy,minus,dotcolour,beta,,,58,18,V,L,
638,8,8,15,5,36,44,433,['c'],0,right,['3'],3,1032,[0.02852015],38,44,hard,minus,dotcolour,beta,,,58,18,V,L,
639,9,9,15,5,33,47,684,['c'],0,right,['9'],5,309,[0.01560424],22,47,medium,minus,dotcolour,beta,,,58,18,V,L,
640,10,10,15,5,33,47,667,['c'],0,right,['2'],2,1343,[-0.0192718],24,47,medium,minus,dotcolour,beta,,,58,18,V,L,
641,11,11,15,5,27,53,667,['c'],0,right,['8'],4,431,[0.02328047],29,53,easy,minus,dotcolour,beta,,,58,18,V,L,
642,12,12,15,5,53,27,566,['c'],1,left,['8'],4,321,[0.25838091],100,53,easy,minus,dotcolour,beta,,,58,18,V,L,
643,13,13,15,5,53,27,650,['c'],1,left,['9'],5,371,[0.1566964],95,53,easy,minus,dotcolour,beta,,,58,18,V,L,
644,14,14,15,5,47,33,617,['c'],1,left,['8'],4,669,[0.07666206],61,47,medium,minus,dotcolour,beta,,,58,18,V,L,
645,15,15,15,5,33,47,450,['c'],0,right,['3'],3,921,[-0.15151966],2,47,medium,minus,dotcolour,beta,,,58,18,V,L,
646,16,16,15,5,44,36,750,['c'],1,left,['3'],3,463,[0.12599096],87,44,hard,minus,dotcolour,beta,,,58,18,V,L,
647,17,17,15,5,33,47,1050,['c'],0,right,['8'],4,404,[0.0510716],47,47,medium,minus,dotcolour,beta,,,58,18,V,L,
648,18,18,15,5,47,33,1016,['c'],1,left,['8'],4,565,[0.16302512],93,47,medium,minus,dotcolour,beta,,,58,18,V,L,
649,19,19,15,5,44,36,983,['n'],0,left,['8'],4,472,[-0.06518319],56,44,hard,minus,dotcolour,beta,,,58,18,V,L,
650,20,20,15,5,27,53,1900,['n'],1,right,['8'],4,602,[-0.10272754],75,53,easy,minus,dotcolour,beta,,,58,18,V,L,
651,21,21,15,5,36,44,1017,['n'],1,right,['8'],4,954,[-0.28263925],99,44,hard,minus,dotcolour,beta,,,58,18,V,L,
652,22,22,15,5,47,33,767,['c'],1,left,['9'],5,495,[0.17864631],96,47,medium,minus,dotcolour,beta,,,58,18,V,L,
653,23,23,15,5,53,27,2500,['n'],0,left,['9'],5,760,[0.09187772],5,53,easy,minus,dotcolour,beta,,,58,18,V,L,
654,24,24,15,5,53,27,1283,['c'],1,left,['9'],5,384,[0.28649691],100,53,easy,minus,dotcolour,beta,,,58,18,V,L,
655,25,25,15,5,27,53,700,['n'],1,right,['9'],5,341,[-0.16943764],97,53,easy,minus,dotcolour,beta,,,58,18,V,L,
656,26,26,15,5,44,36,1216,['c'],1,left,['9'],5,584,[0.14721835],90,44,hard,minus,dotcolour,beta,,,58,18,V,L,
657,27,27,15,5,53,27,650,['c'],1,left,['9'],5,400,[0.08918373],72,53,easy,minus,dotcolour,beta,,,58,18,V,L,
658,28,28,15,5,36,44,1717,['n'],1,right,['8'],4,373,[-0.07888526],67,44,hard,minus,dotcolour,beta,,,58,18,V,L,
659,29,29,15,5,27,53,1084,['n'],1,right,['8'],4,299,[-0.12895971],92,53,easy,minus,dotcolour,beta,,,58,18,V,L,
660,30,30,15,5,27,53,1249,['n'],1,right,['8'],4,335,[-0.13618117],92,53,easy,minus,dotcolour,beta,,,58,18,V,L,
661,31,31,15,5,36,44,1133,['c'],0,right,['8'],4,301,[0.00207483],15,44,hard,minus,dotcolour,beta,,,58,18,V,L,
662,32,32,15,5,36,44,1216,['n'],1,right,['8'],4,418,[-0.03310935],35,44,hard,minus,dotcolour,beta,,,58,18,V,L,
663,33,33,15,5,33,47,851,['n'],1,right,['8'],4,457,[-0.16026438],94,47,medium,minus,dotcolour,beta,,,58,18,V,L,
664,34,34,15,5,33,47,2233,['c'],0,right,['8'],4,959,[0.09372193],67,47,medium,minus,dotcolour,beta,,,58,18,V,L,
665,35,35,15,5,27,53,833,['n'],1,right,['9'],5,616,[-0.16473684],92,53,easy,minus,dotcolour,beta,,,58,18,V,L,
666,36,36,15,5,36,44,718,['n'],1,right,['9'],5,395,[-0.03633556],37,44,hard,minus,dotcolour,beta,,,58,18,V,L,
667,37,37,15,5,36,44,1450,['c'],0,right,['9'],5,379,[0.18781182],98,44,hard,minus,dotcolour,beta,,,58,18,V,L,
668,38,38,15,5,33,47,634,['n'],1,right,['9'],5,531,[0.00704523],18,47,medium,minus,dotcolour,beta,,,58,18,V,L,
669,39,39,15,5,47,33,832,['c'],1,left,['8'],4,367,[0.11006845],83,47,medium,minus,dotcolour,beta,,,58,18,V,L,
670,40,40,15,5,44,36,867,['n'],0,left,['9'],5,583,[0.04965639],8,44,hard,minus,dotcolour,beta,,,58,18,V,L,
671,41,41,15,5,27,53,767,['n'],1,right,['8'],4,633,[-0.01676544],29,53,easy,minus,dotcolour,beta,,,58,18,V,L,
672,42,0,16,5,47,33,1051,['c'],1,left,['9'],5,339,[0.1027028],81,47,medium,minus,dotcolour,beta,,,58,18,V,L,
673,43,1,16,5,53,27,565,['c'],1,left,['8'],4,352,[0.22061444],99,53,easy,minus,dotcolour,beta,,,58,18,V,L,
674,44,2,16,5,53,27,551,['c'],1,left,['8'],4,446,[0.03320492],35,53,easy,minus,dotcolour,beta,,,58,18,V,L,
675,45,3,16,5,33,47,717,['n'],1,right,['9'],5,344,[-0.07912352],67,47,medium,minus,dotcolour,beta,,,58,18,V,L,
676,46,4,16,5,47,33,1152,['c'],1,left,['8'],4,422,[0.16040469],95,47,medium,minus,dotcolour,beta,,,58,18,V,L,
677,47,5,16,5,53,27,818,['c'],1,left,['8'],4,517,[0.0842251],67,53,easy,minus,dotcolour,beta,,,58,18,V,L,
678,48,6,16,5,27,53,633,['n'],1,right,['9'],5,424,[-0.09911236],77,53,easy,minus,dotcolour,beta,,,58,18,V,L,
679,49,7,16,5,44,36,767,['c'],1,left,['8'],4,585,[0.2218898],98,44,hard,minus,dotcolour,beta,,,58,18,V,L,
680,50,8,16,5,33,47,766,['n'],1,right,['9'],5,390,[-0.12231087],87,47,medium,minus,dotcolour,beta,,,58,18,V,L,
681,51,9,16,5,27,53,1167,['n'],1,right,['0'],6,480,[-0.25497535],99,53,easy,minus,dotcolour,beta,,,58,18,V,L,
682,52,10,16,5,33,47,1800,['n'],1,right,['8'],4,390,[-0.15242123],94,47,medium,minus,dotcolour,beta,,,58,18,V,L,
683,53,11,16,5,53,27,683,['c'],1,left,['0'],6,387,[0.06183432],55,53,easy,minus,dotcolour,beta,,,58,18,V,L,
684,54,12,16,5,44,36,684,['c'],1,left,['0'],6,314,[0.10901498],85,44,hard,minus,dotcolour,beta,,,58,18,V,L,
685,55,13,16,5,33,47,700,['n'],1,right,['9'],5,610,[-0.14204675],88,47,medium,minus,dotcolour,beta,,,58,18,V,L,
686,56,14,16,5,44,36,817,['c'],1,left,['9'],5,338,[0.13985291],93,44,hard,minus,dotcolour,beta,,,58,18,V,L,
687,57,15,16,5,53,27,749,['c'],1,left,['9'],5,425,[0.18456713],97,53,easy,minus,dotcolour,beta,,,58,18,V,L,
688,58,16,16,5,33,47,850,['n'],1,right,['8'],4,590,[-0.1363585],87,47,medium,minus,dotcolour,beta,,,58,18,V,L,
689,59,17,16,5,53,27,783,['c'],1,left,['8'],4,440,[0.11604769],84,53,easy,minus,dotcolour,beta,,,58,18,V,L,
690,60,18,16,5,36,44,933,['n'],1,right,['8'],4,346,[-0.06770791],59,44,hard,minus,dotcolour,beta,,,58,18,V,L,
691,61,19,16,5,27,53,700,['n'],1,right,['9'],5,377,[-0.18592668],98,53,easy,minus,dotcolour,beta,,,58,18,V,L,
692,62,20,16,5,47,33,700,['c'],1,left,['8'],4,408,[0.20593964],99,47,medium,minus,dotcolour,beta,,,58,18,V,L,
693,63,21,16,5,47,33,1018,['c'],1,left,['8'],4,367,[0.00979622],20,47,medium,minus,dotcolour,beta,,,58,18,V,L,
694,64,22,16,5,27,53,584,['n'],1,right,['9'],5,371,[-0.21567386],99,53,easy,minus,dotcolour,beta,,,58,18,V,L,
695,65,23,16,5,44,36,700,['c'],1,left,['8'],4,393,[0.0282664],31,44,hard,minus,dotcolour,beta,,,58,18,V,L,
696,66,24,16,5,36,44,684,['n'],1,right,['9'],5,399,[-0.09730529],77,44,hard,minus,dotcolour,beta,,,58,18,V,L,
697,67,25,16,5,27,53,684,['n'],1,right,['9'],5,382,[-0.19310654],98,53,easy,minus,dotcolour,beta,,,58,18,V,L,
698,68,26,16,5,36,44,799,['n'],1,right,['8'],4,384,[-0.00874121],20,44,hard,minus,dotcolour,beta,,,58,18,V,L,
699,69,27,16,5,36,44,833,['n'],1,right,['8'],4,648,[-0.18658878],95,44,hard,minus,dotcolour,beta,,,58,18,V,L,
700,70,28,16,5,36,44,917,['n'],1,right,['9'],5,339,[-0.02624448],29,44,hard,minus,dotcolour,beta,,,58,18,V,L,
701,71,29,16,5,36,44,749,['n'],1,right,['8'],4,464,[-0.11693647],84,44,hard,minus,dotcolour,beta,,,58,18,V,L,
702,72,30,16,5,47,33,600,['c'],1,left,['8'],4,359,[0.06531107],57,47,medium,minus,dotcolour,beta,,,58,18,V,L,
703,73,31,16,5,44,36,733,['c'],1,left,['8'],4,268,[0.11300902],88,44,hard,minus,dotcolour,beta,,,58,18,V,L,
704,74,32,16,5,27,53,817,['n'],1,right,['9'],5,402,[-0.15731234],95,53,easy,minus,dotcolour,beta,,,58,18,V,L,
705,75,33,16,5,36,44,916,['n'],1,right,['8'],4,382,[-0.15744693],95,44,hard,minus,dotcolour,beta,,,58,18,V,L,
706,76,34,16,5,47,33,650,['c'],1,left,['8'],4,359,[0.13279912],91,47,medium,minus,dotcolour,beta,,,58,18,V,L,
707,77,35,16,5,33,47,684,['n'],1,right,['8'],4,302,[-0.13536364],93,47,medium,minus,dotcolour,beta,,,58,18,V,L,
708,78,36,16,5,53,27,583,['c'],1,left,['8'],4,356,[0.10809472],83,53,easy,minus,dotcolour,beta,,,58,18,V,L,
709,79,37,16,5,33,47,1133,['n'],1,right,['8'],4,361,[-0.12098025],88,47,medium,minus,dotcolour,beta,,,58,18,V,L,
710,80,38,16,5,27,53,851,['n'],1,right,['9'],5,266,[-0.14954053],96,53,easy,minus,dotcolour,beta,,,58,18,V,L,
711,81,39,16,5,44,36,1318,['c'],1,left,['9'],5,572,[-0.01977129],14,44,hard,minus,dotcolour,beta,,,58,18,V,L,
712,82,40,16,5,47,33,1051,['c'],1,left,['9'],5,628,[0.10581114],76,47,medium,minus,dotcolour,beta,,,58,18,V,L,
713,83,41,16,5,44,36,850,['c'],1,left,['9'],5,522,[0.22823943],99,44,hard,minus,dotcolour,beta,,,58,18,V,L,
714,84,0,17,5,53,27,866,['c'],1,left,['9'],5,298,[0.09738316],80,53,easy,minus,dotcolour,beta,,,58,18,V,L,
715,85,1,17,5,53,27,600,['c'],1,left,['9'],5,439,[0.12318471],86,53,easy,minus,dotcolour,beta,,,58,18,V,L,
716,86,2,17,5,27,53,683,['n'],1,right,['9'],5,332,[-0.10422163],82,53,easy,minus,dotcolour,beta,,,58,18,V,L,
717,87,3,17,5,44,36,700,['c'],1,left,['0'],6,572,[0.23504725],99,44,hard,minus,dotcolour,beta,,,58,18,V,L,
718,88,4,17,5,53,27,733,['c'],1,left,['9'],5,344,[0.18252287],98,53,easy,minus,dotcolour,beta,,,58,18,V,L,
719,89,5,17,5,47,33,500,['c'],1,left,['9'],5,407,[0.09817648],77,47,medium,minus,dotcolour,beta,,,58,18,V,L,
720,90,6,17,5,27,53,750,['n'],1,right,['9'],5,362,[-0.15645255],95,53,easy,minus,dotcolour,beta,,,58,18,V,L,
721,91,7,17,5,44,36,800,['c'],1,left,['0'],6,365,[-0.03501841],6,44,hard,minus,dotcolour,beta,,,58,18,V,L,
722,92,8,17,5,36,44,1434,['n'],1,right,['9'],5,398,[-0.1016125],79,44,hard,minus,dotcolour,beta,,,58,18,V,L,
723,93,9,17,5,44,36,666,['c'],1,left,['9'],5,357,[0.07878268],67,44,hard,minus,dotcolour,beta,,,58,18,V,L,
724,94,10,17,5,44,36,1217,['c'],1,left,['8'],4,431,[0.26011252],100,44,hard,minus,dotcolour,beta,,,58,18,V,L,
725,95,11,17,5,36,44,1766,['n'],1,right,['8'],4,304,[-0.07019578],62,44,hard,minus,dotcolour,beta,,,58,18,V,L,
726,96,12,17,5,36,44,950,['n'],1,right,['8'],4,448,[-0.00423789],20,44,hard,minus,dotcolour,beta,,,58,18,V,L,
727,97,13,17,5,53,27,750,['c'],1,left,['9'],5,338,[0.18417551],98,53,easy,minus,dotcolour,beta,,,58,18,V,L,
728,98,14,17,5,36,44,1383,['c'],0,right,['8'],4,470,[0.06823076],58,44,hard,minus,dotcolour,beta,,,58,18,V,L,
729,99,15,17,5,47,33,850,['c'],1,left,['9'],5,354,[0.06103594],54,47,medium,minus,dotcolour,beta,,,58,18,V,L,
730,100,16,17,5,47,33,550,['c'],1,left,['9'],5,383,[0.07488256],64,47,medium,minus,dotcolour,beta,,,58,18,V,L,
731,101,17,17,5,53,27,516,['c'],1,left,['9'],5,469,[0.05717762],51,53,easy,minus,dotcolour,beta,,,58,18,V,L,
732,102,18,17,5,44,36,582,['c'],1,left,['9'],5,452,[0.08115038],66,44,hard,minus,dotcolour,beta,,,58,18,V,L,
733,103,19,17,5,33,47,1584,['n'],1,right,['9'],5,444,[-0.27839317],100,47,medium,minus,dotcolour,beta,,,58,18,V,L,
734,104,20,17,5,33,47,917,['n'],1,right,['9'],5,390,[-0.02214745],28,47,medium,minus,dotcolour,beta,,,58,18,V,L,
735,105,21,17,5,27,53,1134,['n'],1,right,['9'],5,386,[-0.10518873],81,53,easy,minus,dotcolour,beta,,,58,18,V,L,
736,106,22,17,5,33,47,816,['n'],1,right,['9'],5,396,[-0.1044422],80,47,medium,minus,dotcolour,beta,,,58,18,V,L,
737,107,23,17,5,33,47,750,['n'],1,right,['9'],5,423,[-0.11721168],85,47,medium,minus,dotcolour,beta,,,58,18,V,L,
738,108,24,17,5,36,44,933,['c'],0,right,['9'],5,393,[0.19310158],98,44,hard,minus,dotcolour,beta,,,58,18,V,L,
739,109,25,17,5,27,53,583,['n'],1,right,['9'],5,372,[-0.14653205],94,53,easy,minus,dotcolour,beta,,,58,18,V,L,
740,110,26,17,5,36,44,600,['n'],1,right,['9'],5,318,[-0.13504239],93,44,hard,minus,dotcolour,beta,,,58,18,V,L,
741,111,27,17,5,44,36,700,['c'],1,left,['9'],5,238,[0.08282944],73,44,hard,minus,dotcolour,beta,,,58,18,V,L,
742,112,28,17,5,53,27,783,['c'],1,left,['9'],5,247,[0.09524985],81,53,easy,minus,dotcolour,beta,,,58,18,V,L,
743,113,29,17,5,33,47,650,['n'],1,right,['9'],5,221,[-0.09675479],83,47,medium,minus,dotcolour,beta,,,58,18,V,L,
744,114,30,17,5,47,33,884,['c'],1,left,['9'],5,290,[0.04428094],41,47,medium,minus,dotcolour,beta,,,58,18,V,L,
745,115,31,17,5,27,53,718,['n'],1,right,['9'],5,290,[-0.12453963],91,53,easy,minus,dotcolour,beta,,,58,18,V,L,
746,116,32,17,5,47,33,617,['c'],1,left,['9'],5,335,[0.14444449],94,47,medium,minus,dotcolour,beta,,,58,18,V,L,
747,117,33,17,5,36,44,733,['c'],0,right,['8'],4,494,[-0.00414923],18,44,hard,minus,dotcolour,beta,,,58,18,V,L,
748,118,34,17,5,27,53,783,['c'],0,right,['9'],5,340,[0.00064467],16,53,easy,minus,dotcolour,beta,,,58,18,V,L,
749,119,35,17,5,27,53,984,['c'],0,right,['3'],3,936,[-0.03086473],17,53,easy,minus,dotcolour,beta,,,58,18,V,L,
750,120,36,17,5,33,47,767,['n'],1,right,['9'],5,396,[-0.14461194],93,47,medium,minus,dotcolour,beta,,,58,18,V,L,
751,121,37,17,5,33,47,1051,['n'],1,right,['8'],4,372,[-0.13692861],92,47,medium,minus,dotcolour,beta,,,58,18,V,L,
752,122,38,17,5,47,33,684,['c'],1,left,['8'],4,330,[0.02610462],28,47,medium,minus,dotcolour,beta,,,58,18,V,L,
753,123,39,17,5,53,27,751,['c'],1,left,['8'],4,361,[0.24587512],100,53,easy,minus,dotcolour,beta,,,58,18,V,L,
754,124,40,17,5,47,33,1199,['c'],1,left,['8'],4,395,[0.17274576],97,47,medium,minus,dotcolour,beta,,,58,18,V,L,
755,125,41,17,5,44,36,1084,['c'],1,left,['8'],4,377,[0.13498013],91,44,hard,minus,dotcolour,beta,,,58,18,V,L,
,,,,,,,,,,,,,,,,,,,,,1,"nee, er is mij niets opgevallen   ",58,18,V,L,
,,,,,,,,,,,,,,,,,,,,,2,['g'],58,18,V,L,
,,,,,,,,,,,,,,,,,,,,,3,['h'],58,18,V,L,
,,,,,,,,,,,,,,,,,,,,,5,"['5', '3', '1']",58,18,V,L,
