trial,withinphasetrial,withinblocktrial,block,phase,dotsLeft,dotsRight,rt,resp,cor,cresp,conf_press,cj,RTconf,ev,fb,diff,difflevel,condition,task,manip,questionID,questionResp,sub,age,gender,handedness,
0,0,0,0,0,47,33,3601,['n'],0,left,['8'],4,2729,[0.07744287],40,47,medium,minus,dotcolour,alfa,,,127,19,M,R,
1,1,1,0,0,53,27,2117,['c'],1,left,['0'],6,1527,[0.15908677],76,53,easy,minus,dotcolour,alfa,,,127,19,M,R,
2,2,2,0,0,53,27,2700,['c'],1,left,['8'],4,2295,[0.20308013],77,53,easy,minus,dotcolour,alfa,,,127,19,M,R,
3,3,3,0,0,36,44,1933,['n'],1,right,['9'],5,1694,[-0.16481585],76,44,hard,minus,dotcolour,alfa,,,127,19,M,R,
4,4,4,0,0,44,36,2900,['c'],1,left,['3'],3,3591,[0.06681556],58,44,hard,minus,dotcolour,alfa,,,127,19,M,R,
5,5,5,0,0,44,36,1600,['c'],1,left,['8'],4,1632,[0.31572124],90,44,hard,minus,dotcolour,alfa,,,127,19,M,R,
6,6,6,0,0,47,33,1817,['n'],0,left,['8'],4,1134,[0.0924418],31,47,medium,minus,dotcolour,alfa,,,127,19,M,R,
7,7,7,0,0,53,27,1567,['c'],1,left,['0'],6,723,[0.17698925],87,53,easy,minus,dotcolour,alfa,,,127,19,M,R,
8,8,8,0,0,33,47,1467,['n'],1,right,['0'],6,884,[-0.05173031],62,47,medium,minus,dotcolour,alfa,,,127,19,M,R,
9,9,9,0,0,27,53,1384,['n'],1,right,['9'],5,754,[-0.14139936],81,53,easy,minus,dotcolour,alfa,,,127,19,M,R,
10,10,10,0,0,33,47,1983,['n'],1,right,['9'],5,1022,[-0.29393386],93,47,medium,minus,dotcolour,alfa,,,127,19,M,R,
11,11,11,0,0,53,27,1283,['c'],1,left,['0'],6,995,[0.20715517],87,53,easy,minus,dotcolour,alfa,,,127,19,M,R,
12,12,12,0,0,36,44,1266,['n'],1,right,['9'],5,1073,[-0.10109273],71,44,hard,minus,dotcolour,alfa,,,127,19,M,R,
13,13,13,0,0,33,47,1268,['n'],1,right,['0'],6,685,[-0.24052029],93,47,medium,minus,dotcolour,alfa,,,127,19,M,R,
14,14,14,0,0,27,53,1050,['n'],1,right,['0'],6,360,[-0.13899656],89,53,easy,minus,dotcolour,alfa,,,127,19,M,R,
15,15,15,0,0,44,36,2067,['n'],0,left,['8'],4,897,[-0.07726236],68,44,hard,minus,dotcolour,alfa,,,127,19,M,R,
16,16,16,0,0,47,33,1384,['c'],1,left,['9'],5,1855,[0.15473697],74,47,medium,minus,dotcolour,alfa,,,127,19,M,R,
17,17,17,0,0,47,33,1766,['c'],1,left,['8'],4,935,[0.220782],89,47,medium,minus,dotcolour,alfa,,,127,19,M,R,
18,18,18,0,0,36,44,1650,['n'],1,right,['8'],4,1616,[-0.20373703],81,44,hard,minus,dotcolour,alfa,,,127,19,M,R,
19,19,19,0,0,53,27,1500,['c'],1,left,['0'],6,804,[0.22509796],91,53,easy,minus,dotcolour,alfa,,,127,19,M,R,
20,20,20,0,0,33,47,1250,['n'],1,right,['0'],6,363,[-0.09839612],81,47,medium,minus,dotcolour,alfa,,,127,19,M,R,
21,21,21,0,0,36,44,1934,['n'],1,right,['8'],4,816,[-0.05434537],63,44,hard,minus,dotcolour,alfa,,,127,19,M,R,
22,22,22,0,0,33,47,1383,['n'],1,right,['9'],5,530,[-0.10039201],78,47,medium,minus,dotcolour,alfa,,,127,19,M,R,
23,23,23,0,0,47,33,1584,['c'],1,left,['9'],5,614,[0.2677815],96,47,medium,minus,dotcolour,alfa,,,127,19,M,R,
24,24,24,0,0,44,36,1583,['c'],1,left,['8'],4,712,[0.0994244],74,44,hard,minus,dotcolour,alfa,,,127,19,M,R,
25,25,25,0,0,44,36,2000,['n'],0,left,['3'],3,900,[-0.0349756],58,44,hard,minus,dotcolour,alfa,,,127,19,M,R,
26,26,26,0,0,33,47,1383,['n'],1,right,['0'],6,1098,[-0.04908999],60,47,medium,minus,dotcolour,alfa,,,127,19,M,R,
27,27,27,0,0,36,44,3583,['c'],0,right,['8'],4,872,[0.07584186],68,44,hard,minus,dotcolour,alfa,,,127,19,M,R,
28,28,28,0,0,53,27,1200,['c'],1,left,['8'],4,366,[0.16213512],92,53,easy,minus,dotcolour,alfa,,,127,19,M,R,
29,29,29,0,0,36,44,1451,['n'],1,right,['8'],4,454,[-0.10152124],80,44,hard,minus,dotcolour,alfa,,,127,19,M,R,
30,30,30,0,0,27,53,1083,['n'],1,right,['9'],5,394,[-0.08619315],77,53,easy,minus,dotcolour,alfa,,,127,19,M,R,
31,31,31,0,0,27,53,1183,['n'],1,right,['0'],6,364,[-0.1140756],85,53,easy,minus,dotcolour,alfa,,,127,19,M,R,
32,32,32,0,0,27,53,983,['n'],1,right,['0'],6,287,[-0.14902364],92,53,easy,minus,dotcolour,alfa,,,127,19,M,R,
33,33,33,0,0,44,36,1601,['c'],1,left,['8'],4,413,[0.11528026],83,44,hard,minus,dotcolour,alfa,,,127,19,M,R,
34,34,34,0,0,47,33,1018,['c'],1,left,['9'],5,845,[0.11495804],76,47,medium,minus,dotcolour,alfa,,,127,19,M,R,
35,35,35,0,0,44,36,1284,['n'],0,left,['8'],4,377,[-0.0075701],53,44,hard,minus,dotcolour,alfa,,,127,19,M,R,
36,36,36,0,0,53,27,2349,['c'],1,left,['8'],4,1422,[0.2591924],88,53,easy,minus,dotcolour,alfa,,,127,19,M,R,
37,37,37,0,0,33,47,2033,['c'],0,right,['3'],3,468,[-0.02490638],42,47,medium,minus,dotcolour,alfa,,,127,19,M,R,
38,38,38,0,0,47,33,1817,['c'],1,left,['8'],4,506,[0.05035245],65,47,medium,minus,dotcolour,alfa,,,127,19,M,R,
39,39,39,0,0,27,53,1433,['n'],1,right,['9'],5,582,[-0.07823806],72,53,easy,minus,dotcolour,alfa,,,127,19,M,R,
40,40,40,0,0,36,44,933,['n'],1,right,['9'],5,386,[-0.06446329],72,44,hard,minus,dotcolour,alfa,,,127,19,M,R,
41,41,41,0,0,27,53,900,['n'],1,right,['0'],6,248,[-0.11740802],89,53,easy,minus,dotcolour,alfa,,,127,19,M,R,
42,42,0,1,0,36,44,2067,['c'],0,right,['8'],4,606,[-0.02516098],43,44,hard,minus,dotcolour,alfa,,,127,19,M,R,
43,43,1,1,0,53,27,1300,['c'],1,left,['0'],6,603,[0.11472179],79,53,easy,minus,dotcolour,alfa,,,127,19,M,R,
44,44,2,1,0,47,33,1316,['c'],1,left,['8'],4,895,[0.1971196],87,47,medium,minus,dotcolour,alfa,,,127,19,M,R,
45,45,3,1,0,27,53,1134,['n'],1,right,['0'],6,367,[-0.09856541],81,53,easy,minus,dotcolour,alfa,,,127,19,M,R,
46,46,4,1,0,53,27,1184,['c'],1,left,['0'],6,306,[0.08452546],80,53,easy,minus,dotcolour,alfa,,,127,19,M,R,
47,47,5,1,0,33,47,1183,['n'],1,right,['8'],4,536,[-0.06053331],68,47,medium,minus,dotcolour,alfa,,,127,19,M,R,
48,48,6,1,0,44,36,1684,['c'],1,left,['9'],5,1001,[0.05731138],63,44,hard,minus,dotcolour,alfa,,,127,19,M,R,
49,49,7,1,0,33,47,1801,['c'],0,right,['8'],4,713,[-0.05131701],37,47,medium,minus,dotcolour,alfa,,,127,19,M,R,
50,50,8,1,0,53,27,1067,['c'],1,left,['0'],6,420,[0.15633843],90,53,easy,minus,dotcolour,alfa,,,127,19,M,R,
51,51,9,1,0,44,36,1533,['c'],1,left,['8'],4,1855,[0.19508018],78,44,hard,minus,dotcolour,alfa,,,127,19,M,R,
52,52,10,1,0,53,27,1117,['c'],1,left,['8'],4,320,[0.04754701],68,53,easy,minus,dotcolour,alfa,,,127,19,M,R,
53,53,11,1,0,33,47,2083,['n'],1,right,['9'],5,674,[-0.07431166],69,47,medium,minus,dotcolour,alfa,,,127,19,M,R,
54,54,12,1,0,47,33,1233,['c'],1,left,['8'],4,343,[0.09797059],82,47,medium,minus,dotcolour,alfa,,,127,19,M,R,
55,55,13,1,0,36,44,1184,['n'],1,right,['8'],4,299,[-0.06627814],75,44,hard,minus,dotcolour,alfa,,,127,19,M,R,
56,56,14,1,0,33,47,2816,['c'],0,right,['3'],3,791,[0.07632935],68,47,medium,minus,dotcolour,alfa,,,127,19,M,R,
57,57,15,1,0,53,27,1050,['c'],1,left,['9'],5,383,[0.1690726],92,53,easy,minus,dotcolour,alfa,,,127,19,M,R,
58,58,16,1,0,36,44,1034,['n'],1,right,['9'],5,375,[-0.03039925],61,44,hard,minus,dotcolour,alfa,,,127,19,M,R,
59,59,17,1,0,47,33,1667,['c'],1,left,['9'],5,303,[0.12381854],88,47,medium,minus,dotcolour,alfa,,,127,19,M,R,
60,60,18,1,0,27,53,1050,['n'],1,right,['0'],6,1090,[-0.30120469],93,53,easy,minus,dotcolour,alfa,,,127,19,M,R,
61,61,19,1,0,44,36,2517,['c'],1,left,['9'],5,531,[0.15055061],87,44,hard,minus,dotcolour,alfa,,,127,19,M,R,
62,62,20,1,0,53,27,1116,['c'],1,left,['9'],5,290,[0.17201351],95,53,easy,minus,dotcolour,alfa,,,127,19,M,R,
63,63,21,1,0,27,53,1184,['n'],1,right,['0'],6,320,[-0.12813318],88,53,easy,minus,dotcolour,alfa,,,127,19,M,R,
64,64,22,1,0,27,53,783,['n'],1,right,['0'],6,293,[-0.10136167],84,53,easy,minus,dotcolour,alfa,,,127,19,M,R,
65,65,23,1,0,27,53,1117,['n'],1,right,['9'],5,342,[-0.17973422],94,53,easy,minus,dotcolour,alfa,,,127,19,M,R,
66,66,24,1,0,33,47,650,['n'],1,right,['9'],5,464,[-0.09888763],79,47,medium,minus,dotcolour,alfa,,,127,19,M,R,
67,67,25,1,0,36,44,816,['n'],1,right,['0'],6,750,[0.06903227],33,44,hard,minus,dotcolour,alfa,,,127,19,M,R,
68,68,26,1,0,33,47,1067,['n'],1,right,['8'],4,750,[-0.12435079],78,47,medium,minus,dotcolour,alfa,,,127,19,M,R,
69,69,27,1,0,44,36,1450,['c'],1,left,['8'],4,424,[0.07831353],75,44,hard,minus,dotcolour,alfa,,,127,19,M,R,
70,70,28,1,0,44,36,1934,['c'],1,left,['8'],4,378,[0.10568253],82,44,hard,minus,dotcolour,alfa,,,127,19,M,R,
71,71,29,1,0,47,33,783,['c'],1,left,['9'],5,405,[0.10971984],83,47,medium,minus,dotcolour,alfa,,,127,19,M,R,
72,72,30,1,0,36,44,1133,['n'],1,right,['9'],5,497,[-0.15302241],88,44,hard,minus,dotcolour,alfa,,,127,19,M,R,
73,73,31,1,0,47,33,950,['c'],1,left,['8'],4,680,[0.04280327],61,47,medium,minus,dotcolour,alfa,,,127,19,M,R,
74,74,32,1,0,53,27,933,['c'],1,left,['9'],5,297,[0.15133691],92,53,easy,minus,dotcolour,alfa,,,127,19,M,R,
75,75,33,1,0,36,44,1050,['n'],1,right,['8'],4,556,[-0.12647781],82,44,hard,minus,dotcolour,alfa,,,127,19,M,R,
76,76,34,1,0,44,36,1484,['c'],1,left,['8'],4,491,[0.02574384],58,44,hard,minus,dotcolour,alfa,,,127,19,M,R,
77,77,35,1,0,33,47,1201,['n'],1,right,['8'],4,569,[-0.04556868],63,47,medium,minus,dotcolour,alfa,,,127,19,M,R,
78,78,36,1,0,27,53,816,['n'],1,right,['9'],5,563,[-0.0532241],65,53,easy,minus,dotcolour,alfa,,,127,19,M,R,
79,79,37,1,0,44,36,950,['c'],1,left,['8'],4,287,[0.13304631],90,44,hard,minus,dotcolour,alfa,,,127,19,M,R,
80,80,38,1,0,47,33,967,['c'],1,left,['9'],5,310,[0.08220624],79,47,medium,minus,dotcolour,alfa,,,127,19,M,R,
81,81,39,1,0,27,53,767,['n'],1,right,['0'],6,917,[-0.09869961],72,53,easy,minus,dotcolour,alfa,,,127,19,M,R,
82,82,40,1,0,47,33,1067,['c'],1,left,['0'],6,310,[0.1052924],85,47,medium,minus,dotcolour,alfa,,,127,19,M,R,
83,83,41,1,0,36,44,1083,['n'],1,right,['8'],4,743,[-0.29505435],96,44,hard,minus,dotcolour,alfa,,,127,19,M,R,
84,84,0,2,0,33,47,817,['n'],1,right,['9'],5,588,[-0.07887795],72,47,medium,minus,dotcolour,alfa,,,127,19,M,R,
85,85,1,2,0,33,47,784,['n'],1,right,['8'],4,614,[-0.11932403],80,47,medium,minus,dotcolour,alfa,,,127,19,M,R,
86,86,2,2,0,27,53,883,['n'],1,right,['9'],5,300,[-0.15916738],93,53,easy,minus,dotcolour,alfa,,,127,19,M,R,
87,87,3,2,0,36,44,2483,['n'],1,right,['8'],4,294,[-0.04593188],68,44,hard,minus,dotcolour,alfa,,,127,19,M,R,
88,88,4,2,0,44,36,1150,['c'],1,left,['8'],4,541,[0.06830076],70,44,hard,minus,dotcolour,alfa,,,127,19,M,R,
89,89,5,2,0,36,44,1100,['n'],1,right,['8'],4,228,[-0.08363784],83,44,hard,minus,dotcolour,alfa,,,127,19,M,R,
90,90,6,2,0,27,53,716,['n'],1,right,['9'],5,480,[-0.10858619],80,53,easy,minus,dotcolour,alfa,,,127,19,M,R,
91,91,7,2,0,33,47,784,['n'],1,right,['8'],4,638,[-0.26915531],95,47,medium,minus,dotcolour,alfa,,,127,19,M,R,
92,92,8,2,0,53,27,1350,['c'],1,left,['8'],4,768,[0.18720422],87,53,easy,minus,dotcolour,alfa,,,127,19,M,R,
93,93,9,2,0,36,44,917,['n'],1,right,['8'],4,334,[-0.12234018],87,44,hard,minus,dotcolour,alfa,,,127,19,M,R,
94,94,10,2,0,53,27,1534,['c'],1,left,['9'],5,468,[-0.00336235],49,53,easy,minus,dotcolour,alfa,,,127,19,M,R,
95,95,11,2,0,44,36,1200,['n'],0,left,['8'],4,379,[-0.10654901],83,44,hard,minus,dotcolour,alfa,,,127,19,M,R,
96,96,12,2,0,44,36,1417,['c'],1,left,['9'],5,780,[-0.04782025],38,44,hard,minus,dotcolour,alfa,,,127,19,M,R,
97,97,13,2,0,33,47,1067,['n'],1,right,['8'],4,292,[0.00424933],48,47,medium,minus,dotcolour,alfa,,,127,19,M,R,
98,98,14,2,0,47,33,1400,['c'],1,left,['9'],5,265,[0.0872029],82,47,medium,minus,dotcolour,alfa,,,127,19,M,R,
99,99,15,2,0,53,27,800,['c'],1,left,['9'],5,392,[0.14596712],89,53,easy,minus,dotcolour,alfa,,,127,19,M,R,
100,100,16,2,0,53,27,700,['c'],1,left,['9'],5,302,[0.17930695],95,53,easy,minus,dotcolour,alfa,,,127,19,M,R,
101,101,17,2,0,53,27,651,['c'],1,left,['9'],5,224,[0.10738925],89,53,easy,minus,dotcolour,alfa,,,127,19,M,R,
102,102,18,2,0,47,33,1017,['c'],1,left,['9'],5,384,[0.13116395],87,47,medium,minus,dotcolour,alfa,,,127,19,M,R,
103,103,19,2,0,33,47,1267,['n'],1,right,['9'],5,312,[-0.04208846],66,47,medium,minus,dotcolour,alfa,,,127,19,M,R,
104,104,20,2,0,47,33,967,['c'],1,left,['8'],4,389,[0.1382085],88,47,medium,minus,dotcolour,alfa,,,127,19,M,R,
105,105,21,2,0,36,44,2384,['n'],1,right,['3'],3,903,[-0.06656857],65,44,hard,minus,dotcolour,alfa,,,127,19,M,R,
106,106,22,2,0,44,36,2367,['n'],0,left,['3'],3,3869,[0.05153269],44,44,hard,minus,dotcolour,alfa,,,127,19,M,R,
107,107,23,2,0,53,27,900,['c'],1,left,['8'],4,311,[0.12389056],88,53,easy,minus,dotcolour,alfa,,,127,19,M,R,
108,108,24,2,0,27,53,968,['n'],1,right,['9'],5,389,[-0.11214552],83,53,easy,minus,dotcolour,alfa,,,127,19,M,R,
109,109,25,2,0,44,36,883,['c'],1,left,['8'],4,283,[0.10312628],85,44,hard,minus,dotcolour,alfa,,,127,19,M,R,
110,110,26,2,0,27,53,1234,['n'],1,right,['9'],5,391,[-0.16607947],92,53,easy,minus,dotcolour,alfa,,,127,19,M,R,
111,111,27,2,0,44,36,1917,['c'],1,left,['8'],4,228,[-0.05198659],27,44,hard,minus,dotcolour,alfa,,,127,19,M,R,
112,112,28,2,0,36,44,1033,['n'],1,right,['8'],4,1091,[-0.22215116],87,44,hard,minus,dotcolour,alfa,,,127,19,M,R,
113,113,29,2,0,33,47,783,['n'],1,right,['9'],5,329,[-0.20483723],96,47,medium,minus,dotcolour,alfa,,,127,19,M,R,
114,114,30,2,0,33,47,818,['n'],1,right,['9'],5,244,[-0.17038792],96,47,medium,minus,dotcolour,alfa,,,127,19,M,R,
115,115,31,2,0,44,36,1301,['c'],1,left,['8'],4,256,[0.13769916],92,44,hard,minus,dotcolour,alfa,,,127,19,M,R,
116,116,32,2,0,47,33,1199,['c'],1,left,['0'],6,815,[0.25303013],93,47,medium,minus,dotcolour,alfa,,,127,19,M,R,
117,117,33,2,0,27,53,1017,['n'],1,right,['0'],6,398,[-0.09373883],79,53,easy,minus,dotcolour,alfa,,,127,19,M,R,
118,118,34,2,0,53,27,1217,['c'],1,left,['0'],6,287,[0.09193828],82,53,easy,minus,dotcolour,alfa,,,127,19,M,R,
119,119,35,2,0,47,33,2017,['n'],0,left,['8'],4,964,[-0.02105019],55,47,medium,minus,dotcolour,alfa,,,127,19,M,R,
120,120,36,2,0,47,33,1650,['c'],1,left,['8'],4,213,[0.12345969],92,47,medium,minus,dotcolour,alfa,,,127,19,M,R,
121,121,37,2,0,27,53,1017,['n'],1,right,['0'],6,333,[-0.06190458],72,53,easy,minus,dotcolour,alfa,,,127,19,M,R,
122,122,38,2,0,47,33,5400,['n'],0,left,['3'],3,1442,[0.28771666],10,47,medium,minus,dotcolour,alfa,,,127,19,M,R,
123,123,39,2,0,27,53,767,['n'],1,right,['0'],6,362,[-0.15604082],91,53,easy,minus,dotcolour,alfa,,,127,19,M,R,
124,124,40,2,0,36,44,1550,['c'],0,right,['8'],4,383,[0.11354694],84,44,hard,minus,dotcolour,alfa,,,127,19,M,R,
125,125,41,2,0,36,44,850,['n'],1,right,['9'],5,343,[-0.04787629],68,44,hard,minus,dotcolour,alfa,,,127,19,M,R,
126,0,0,3,1,27,53,885,['n'],1,right,['0'],6,389,[-0.14370818],100,53,easy,plus,dotcolour,alfa,,,127,19,M,R,
127,1,1,3,1,44,36,1216,['c'],1,left,['8'],4,1117,[0.11209534],98,44,hard,plus,dotcolour,alfa,,,127,19,M,R,
128,2,2,3,1,27,53,716,['n'],1,right,['0'],6,277,[-0.14302484],100,53,easy,plus,dotcolour,alfa,,,127,19,M,R,
129,3,3,3,1,44,36,1898,['c'],1,left,['8'],4,535,[0.13600016],100,44,hard,plus,dotcolour,alfa,,,127,19,M,R,
130,4,4,3,1,27,53,716,['n'],1,right,['0'],6,334,[-0.10605168],100,53,easy,plus,dotcolour,alfa,,,127,19,M,R,
131,5,5,3,1,47,33,1767,['c'],1,left,['8'],4,307,[0.06473142],99,47,medium,plus,dotcolour,alfa,,,127,19,M,R,
132,6,6,3,1,33,47,1000,['n'],1,right,['8'],4,312,[-0.06165596],98,47,medium,plus,dotcolour,alfa,,,127,19,M,R,
133,7,7,3,1,47,33,1000,['c'],1,left,['8'],4,333,[0.12559466],100,47,medium,plus,dotcolour,alfa,,,127,19,M,R,
134,8,8,3,1,44,36,1117,['c'],1,left,['8'],4,268,[0.08722505],100,44,hard,plus,dotcolour,alfa,,,127,19,M,R,
135,9,9,3,1,53,27,933,['c'],1,left,['0'],6,614,[-0.08323613],2,53,easy,plus,dotcolour,alfa,,,127,19,M,R,
136,10,10,3,1,44,36,1134,['n'],0,left,['8'],4,297,[-0.04332519],95,44,hard,plus,dotcolour,alfa,,,127,19,M,R,
137,11,11,3,1,44,36,1017,['n'],0,left,['8'],4,326,[0.00425229],43,44,hard,plus,dotcolour,alfa,,,127,19,M,R,
138,12,12,3,1,33,47,783,['n'],1,right,['8'],4,786,[-0.27797479],100,47,medium,plus,dotcolour,alfa,,,127,19,M,R,
139,13,13,3,1,47,33,917,['c'],1,left,['8'],4,215,[0.03916892],95,47,medium,plus,dotcolour,alfa,,,127,19,M,R,
140,14,14,3,1,36,44,817,['n'],1,right,['8'],4,271,[-0.03050135],89,44,hard,plus,dotcolour,alfa,,,127,19,M,R,
141,15,15,3,1,53,27,750,['c'],1,left,['9'],5,264,[0.06323855],99,53,easy,plus,dotcolour,alfa,,,127,19,M,R,
142,16,16,3,1,47,33,1067,['c'],1,left,['8'],4,508,[0.17289515],100,47,medium,plus,dotcolour,alfa,,,127,19,M,R,
143,17,17,3,1,27,53,700,['n'],1,right,['9'],5,324,[-0.0798122],99,53,easy,plus,dotcolour,alfa,,,127,19,M,R,
144,18,18,3,1,53,27,1116,['c'],1,left,['0'],6,380,[0.05759477],97,53,easy,plus,dotcolour,alfa,,,127,19,M,R,
145,19,19,3,1,36,44,867,['n'],1,right,['9'],5,900,[-0.05973884],91,44,hard,plus,dotcolour,alfa,,,127,19,M,R,
146,20,20,3,1,53,27,666,['c'],1,left,['0'],6,486,[0.18321572],100,53,easy,plus,dotcolour,alfa,,,127,19,M,R,
147,21,21,3,1,44,36,1334,['c'],1,left,['8'],4,294,[0.03377517],90,44,hard,plus,dotcolour,alfa,,,127,19,M,R,
148,22,22,3,1,53,27,650,['c'],1,left,['8'],4,322,[0.10152982],100,53,easy,plus,dotcolour,alfa,,,127,19,M,R,
149,23,23,3,1,53,27,834,['c'],1,left,['8'],4,276,[0.05661438],98,53,easy,plus,dotcolour,alfa,,,127,19,M,R,
150,24,24,3,1,47,33,1133,['c'],1,left,['8'],4,205,[0.17604506],100,47,medium,plus,dotcolour,alfa,,,127,19,M,R,
151,25,25,3,1,27,53,1150,['n'],1,right,['0'],6,1105,[-0.07691519],93,53,easy,plus,dotcolour,alfa,,,127,19,M,R,
152,26,26,3,1,33,47,1199,['n'],1,right,['9'],5,294,[-0.04860011],96,47,medium,plus,dotcolour,alfa,,,127,19,M,R,
153,27,27,3,1,44,36,934,['c'],1,left,['9'],5,221,[0.11849114],100,44,hard,plus,dotcolour,alfa,,,127,19,M,R,
154,28,28,3,1,36,44,950,['n'],1,right,['9'],5,384,[-0.12871435],100,44,hard,plus,dotcolour,alfa,,,127,19,M,R,
155,29,29,3,1,33,47,917,['c'],0,right,['8'],4,277,[0.14817598],100,47,medium,plus,dotcolour,alfa,,,127,19,M,R,
156,30,30,3,1,33,47,768,['n'],1,right,['9'],5,317,[-0.15132164],100,47,medium,plus,dotcolour,alfa,,,127,19,M,R,
157,31,31,3,1,47,33,833,['c'],1,left,['0'],6,320,[0.02078191],79,47,medium,plus,dotcolour,alfa,,,127,19,M,R,
158,32,32,3,1,36,44,966,['n'],1,right,['8'],4,295,[-0.15028363],100,44,hard,plus,dotcolour,alfa,,,127,19,M,R,
159,33,33,3,1,36,44,900,['n'],1,right,['8'],4,255,[-0.0367423],93,44,hard,plus,dotcolour,alfa,,,127,19,M,R,
160,34,34,3,1,33,47,734,['n'],1,right,['9'],5,377,[-0.17531726],100,47,medium,plus,dotcolour,alfa,,,127,19,M,R,
161,35,35,3,1,27,53,933,['n'],1,right,['0'],6,350,[-0.18010589],100,53,easy,plus,dotcolour,alfa,,,127,19,M,R,
162,36,36,3,1,33,47,1917,['n'],1,right,['8'],4,301,[-0.10802946],100,47,medium,plus,dotcolour,alfa,,,127,19,M,R,
163,37,37,3,1,27,53,1583,['n'],1,right,['8'],4,282,[-0.17973391],100,53,easy,plus,dotcolour,alfa,,,127,19,M,R,
164,38,38,3,1,36,44,1067,['c'],0,right,['8'],4,270,[0.11400368],100,44,hard,plus,dotcolour,alfa,,,127,19,M,R,
165,39,39,3,1,47,33,734,['c'],1,left,['9'],5,231,[0.100753],100,47,medium,plus,dotcolour,alfa,,,127,19,M,R,
166,40,40,3,1,36,44,1134,['n'],1,right,['8'],4,346,[-0.08538236],99,44,hard,plus,dotcolour,alfa,,,127,19,M,R,
167,41,41,3,1,53,27,800,['c'],1,left,['0'],6,461,[0.04353599],91,53,easy,plus,dotcolour,alfa,,,127,19,M,R,
168,42,0,4,1,33,47,1000,['n'],1,right,['9'],5,297,[-0.04520278],95,47,medium,plus,dotcolour,alfa,,,127,19,M,R,
169,43,1,4,1,36,44,1301,['c'],0,right,['8'],4,202,[0.03066939],92,44,hard,plus,dotcolour,alfa,,,127,19,M,R,
170,44,2,4,1,27,53,967,['n'],1,right,['9'],5,364,[-0.16310721],100,53,easy,plus,dotcolour,alfa,,,127,19,M,R,
171,45,3,4,1,27,53,1117,['n'],1,right,['9'],5,274,[-0.1395076],100,53,easy,plus,dotcolour,alfa,,,127,19,M,R,
172,46,4,4,1,44,36,801,['c'],1,left,['8'],4,312,[0.08220324],100,44,hard,plus,dotcolour,alfa,,,127,19,M,R,
173,47,5,4,1,33,47,850,['n'],1,right,['9'],5,515,[-0.20957077],100,47,medium,plus,dotcolour,alfa,,,127,19,M,R,
174,48,6,4,1,36,44,1468,['n'],1,right,['8'],4,253,[-0.06743625],99,44,hard,plus,dotcolour,alfa,,,127,19,M,R,
175,49,7,4,1,36,44,1383,['c'],0,right,['8'],4,277,[0.02012454],80,44,hard,plus,dotcolour,alfa,,,127,19,M,R,
176,50,8,4,1,36,44,1067,['n'],1,right,['8'],4,281,[-0.04632766],96,44,hard,plus,dotcolour,alfa,,,127,19,M,R,
177,51,9,4,1,53,27,883,['c'],1,left,['0'],6,259,[0.1086165],100,53,easy,plus,dotcolour,alfa,,,127,19,M,R,
178,52,10,4,1,53,27,867,['c'],1,left,['9'],5,255,[0.13057615],100,53,easy,plus,dotcolour,alfa,,,127,19,M,R,
179,53,11,4,1,27,53,817,['n'],1,right,['0'],6,605,[-0.27836608],100,53,easy,plus,dotcolour,alfa,,,127,19,M,R,
180,54,12,4,1,33,47,1465,['n'],1,right,['8'],4,555,[-0.13659918],100,47,medium,plus,dotcolour,alfa,,,127,19,M,R,
181,55,13,4,1,47,33,816,['c'],1,left,['9'],5,485,[0.15934751],100,47,medium,plus,dotcolour,alfa,,,127,19,M,R,
182,56,14,4,1,36,44,867,['n'],1,right,['8'],4,457,[-0.17896569],100,44,hard,plus,dotcolour,alfa,,,127,19,M,R,
183,57,15,4,1,33,47,917,['n'],1,right,['9'],5,555,[-0.24087536],100,47,medium,plus,dotcolour,alfa,,,127,19,M,R,
184,58,16,4,1,27,53,634,['n'],1,right,['9'],5,316,[-0.0817547],99,53,easy,plus,dotcolour,alfa,,,127,19,M,R,
185,59,17,4,1,44,36,817,['c'],1,left,['9'],5,304,[0.15522126],100,44,hard,plus,dotcolour,alfa,,,127,19,M,R,
186,60,18,4,1,27,53,750,['n'],1,right,['9'],5,295,[-0.07105221],99,53,easy,plus,dotcolour,alfa,,,127,19,M,R,
187,61,19,4,1,53,27,850,['c'],1,left,['0'],6,339,[0.10325889],100,53,easy,plus,dotcolour,alfa,,,127,19,M,R,
188,62,20,4,1,33,47,1116,['n'],1,right,['8'],4,777,[-0.14782936],100,47,medium,plus,dotcolour,alfa,,,127,19,M,R,
189,63,21,4,1,47,33,1017,['c'],1,left,['8'],4,307,[0.00013548],50,47,medium,plus,dotcolour,alfa,,,127,19,M,R,
190,64,22,4,1,44,36,817,['c'],1,left,['8'],4,303,[0.01861121],77,44,hard,plus,dotcolour,alfa,,,127,19,M,R,
191,65,23,4,1,33,47,1233,['n'],1,right,['9'],5,659,[-0.0755789],97,47,medium,plus,dotcolour,alfa,,,127,19,M,R,
192,66,24,4,1,47,33,767,['c'],1,left,['9'],5,467,[0.19363318],100,47,medium,plus,dotcolour,alfa,,,127,19,M,R,
193,67,25,4,1,53,27,834,['c'],1,left,['0'],6,296,[0.08575385],100,53,easy,plus,dotcolour,alfa,,,127,19,M,R,
194,68,26,4,1,44,36,1250,['c'],1,left,['8'],4,324,[0.19157343],100,44,hard,plus,dotcolour,alfa,,,127,19,M,R,
195,69,27,4,1,47,33,767,['c'],1,left,['9'],5,425,[0.14671808],100,47,medium,plus,dotcolour,alfa,,,127,19,M,R,
196,70,28,4,1,53,27,767,['c'],1,left,['9'],5,315,[0.11267226],100,53,easy,plus,dotcolour,alfa,,,127,19,M,R,
197,71,29,4,1,47,33,734,['c'],1,left,['9'],5,369,[0.17306074],100,47,medium,plus,dotcolour,alfa,,,127,19,M,R,
198,72,30,4,1,47,33,1034,['c'],1,left,['8'],4,307,[0.0963405],100,47,medium,plus,dotcolour,alfa,,,127,19,M,R,
199,73,31,4,1,53,27,869,['c'],1,left,['9'],5,269,[0.12054242],100,53,easy,plus,dotcolour,alfa,,,127,19,M,R,
200,74,32,4,1,27,53,900,['n'],1,right,['0'],6,296,[-0.10174053],100,53,easy,plus,dotcolour,alfa,,,127,19,M,R,
201,75,33,4,1,33,47,1167,['n'],1,right,['8'],4,622,[-0.21952594],100,47,medium,plus,dotcolour,alfa,,,127,19,M,R,
202,76,34,4,1,27,53,850,['n'],1,right,['9'],5,509,[-0.05842],95,53,easy,plus,dotcolour,alfa,,,127,19,M,R,
203,77,35,4,1,53,27,1267,['c'],1,left,['9'],5,423,[0.04541334],93,53,easy,plus,dotcolour,alfa,,,127,19,M,R,
204,78,36,4,1,47,33,800,['c'],1,left,['9'],5,335,[0.14835391],100,47,medium,plus,dotcolour,alfa,,,127,19,M,R,
205,79,37,4,1,44,36,933,['c'],1,left,['8'],4,253,[0.05370597],98,44,hard,plus,dotcolour,alfa,,,127,19,M,R,
206,80,38,4,1,36,44,816,['n'],1,right,['8'],4,308,[-0.03282396],89,44,hard,plus,dotcolour,alfa,,,127,19,M,R,
207,81,39,4,1,36,44,767,['n'],1,right,['8'],4,322,[-0.11112582],100,44,hard,plus,dotcolour,alfa,,,127,19,M,R,
208,82,40,4,1,44,36,884,['c'],1,left,['8'],4,267,[0.10549637],100,44,hard,plus,dotcolour,alfa,,,127,19,M,R,
209,83,41,4,1,44,36,901,['c'],1,left,['8'],4,301,[0.11958527],100,44,hard,plus,dotcolour,alfa,,,127,19,M,R,
210,84,0,5,1,27,53,1201,['n'],1,right,['0'],6,564,[-0.07341568],97,53,easy,plus,dotcolour,alfa,,,127,19,M,R,
211,85,1,5,1,33,47,867,['n'],1,right,['8'],4,323,[-0.10139775],100,47,medium,plus,dotcolour,alfa,,,127,19,M,R,
212,86,2,5,1,36,44,1301,['c'],0,right,['8'],4,283,[-0.007265],38,44,hard,plus,dotcolour,alfa,,,127,19,M,R,
213,87,3,5,1,33,47,783,['n'],1,right,['9'],5,577,[-0.2559289],100,47,medium,plus,dotcolour,alfa,,,127,19,M,R,
214,88,4,5,1,47,33,767,['c'],1,left,['9'],5,317,[0.11364585],100,47,medium,plus,dotcolour,alfa,,,127,19,M,R,
215,89,5,5,1,36,44,800,['n'],1,right,['9'],5,218,[-0.06118305],99,44,hard,plus,dotcolour,alfa,,,127,19,M,R,
216,90,6,5,1,27,53,616,['n'],1,right,['0'],6,201,[-0.02683414],90,53,easy,plus,dotcolour,alfa,,,127,19,M,R,
217,91,7,5,1,27,53,700,['n'],1,right,['0'],6,247,[-0.1850904],100,53,easy,plus,dotcolour,alfa,,,127,19,M,R,
218,92,8,5,1,36,44,901,['n'],1,right,['8'],4,266,[-0.13335929],100,44,hard,plus,dotcolour,alfa,,,127,19,M,R,
219,93,9,5,1,27,53,866,['n'],1,right,['9'],5,238,[-0.15434169],100,53,easy,plus,dotcolour,alfa,,,127,19,M,R,
220,94,10,5,1,44,36,982,['c'],1,left,['8'],4,207,[0.06927873],100,44,hard,plus,dotcolour,alfa,,,127,19,M,R,
221,95,11,5,1,33,47,800,['n'],1,right,['9'],5,232,[-0.10655215],100,47,medium,plus,dotcolour,alfa,,,127,19,M,R,
222,96,12,5,1,44,36,750,['c'],1,left,['9'],5,218,[0.03024115],91,44,hard,plus,dotcolour,alfa,,,127,19,M,R,
223,97,13,5,1,36,44,834,['c'],0,right,['8'],4,201,[0.04344506],97,44,hard,plus,dotcolour,alfa,,,127,19,M,R,
224,98,14,5,1,53,27,734,['c'],1,left,['0'],6,173,[0.03366368],95,53,easy,plus,dotcolour,alfa,,,127,19,M,R,
225,99,15,5,1,27,53,1067,['n'],1,right,['0'],6,204,[-0.09720298],100,53,easy,plus,dotcolour,alfa,,,127,19,M,R,
226,100,16,5,1,47,33,817,['c'],1,left,['0'],6,221,[0.07287773],100,47,medium,plus,dotcolour,alfa,,,127,19,M,R,
227,101,17,5,1,44,36,1267,['n'],0,left,['8'],4,227,[-0.09691865],100,44,hard,plus,dotcolour,alfa,,,127,19,M,R,
228,102,18,5,1,53,27,801,['c'],1,left,['0'],6,236,[0.08675882],100,53,easy,plus,dotcolour,alfa,,,127,19,M,R,
229,103,19,5,1,33,47,867,['n'],1,right,['9'],5,504,[-0.17786862],100,47,medium,plus,dotcolour,alfa,,,127,19,M,R,
230,104,20,5,1,44,36,767,['c'],1,left,['9'],5,222,[0.04115423],96,44,hard,plus,dotcolour,alfa,,,127,19,M,R,
231,105,21,5,1,44,36,1134,['c'],1,left,['9'],5,273,[0.09741266],100,44,hard,plus,dotcolour,alfa,,,127,19,M,R,
232,106,22,5,1,33,47,1268,['n'],1,right,['8'],4,277,[-0.19321606],100,47,medium,plus,dotcolour,alfa,,,127,19,M,R,
233,107,23,5,1,33,47,816,['c'],0,right,['8'],4,210,[0.06616937],99,47,medium,plus,dotcolour,alfa,,,127,19,M,R,
234,108,24,5,1,47,33,1133,['c'],1,left,['8'],4,198,[0.03805296],96,47,medium,plus,dotcolour,alfa,,,127,19,M,R,
235,109,25,5,1,53,27,867,['c'],1,left,['9'],5,220,[0.07789013],100,53,easy,plus,dotcolour,alfa,,,127,19,M,R,
236,110,26,5,1,47,33,734,['c'],1,left,['9'],5,191,[0.06313694],99,47,medium,plus,dotcolour,alfa,,,127,19,M,R,
237,111,27,5,1,36,44,983,['n'],1,right,['8'],4,361,[-0.0905735],100,44,hard,plus,dotcolour,alfa,,,127,19,M,R,
238,112,28,5,1,53,27,1068,['c'],1,left,['9'],5,201,[0.0406044],96,53,easy,plus,dotcolour,alfa,,,127,19,M,R,
239,113,29,5,1,27,53,1050,['n'],1,right,['9'],5,529,[-0.0282404],80,53,easy,plus,dotcolour,alfa,,,127,19,M,R,
240,114,30,5,1,47,33,734,['c'],1,left,['9'],5,263,[0.0827217],100,47,medium,plus,dotcolour,alfa,,,127,19,M,R,
241,115,31,5,1,27,53,900,['n'],1,right,['0'],6,242,[-0.09924551],100,53,easy,plus,dotcolour,alfa,,,127,19,M,R,
242,116,32,5,1,44,36,800,['c'],1,left,['8'],4,274,[-0.07056574],1,44,hard,plus,dotcolour,alfa,,,127,19,M,R,
243,117,33,5,1,53,27,1266,['c'],1,left,['9'],5,485,[0.06386501],96,53,easy,plus,dotcolour,alfa,,,127,19,M,R,
244,118,34,5,1,36,44,833,['n'],1,right,['8'],4,298,[-0.12602437],100,44,hard,plus,dotcolour,alfa,,,127,19,M,R,
245,119,35,5,1,47,33,983,['c'],1,left,['8'],4,167,[0.11350305],100,47,medium,plus,dotcolour,alfa,,,127,19,M,R,
246,120,36,5,1,36,44,867,['n'],1,right,['8'],4,183,[-0.11614211],100,44,hard,plus,dotcolour,alfa,,,127,19,M,R,
247,121,37,5,1,33,47,800,['n'],1,right,['9'],5,274,[-0.10936944],100,47,medium,plus,dotcolour,alfa,,,127,19,M,R,
248,122,38,5,1,47,33,816,['c'],1,left,['9'],5,407,[0.13487641],100,47,medium,plus,dotcolour,alfa,,,127,19,M,R,
249,123,39,5,1,53,27,833,['c'],1,left,['9'],5,358,[0.10656385],100,53,easy,plus,dotcolour,alfa,,,127,19,M,R,
250,124,40,5,1,44,36,816,['c'],1,left,['0'],6,200,[0.0955275],100,44,hard,plus,dotcolour,alfa,,,127,19,M,R,
251,125,41,5,1,53,27,717,['c'],1,left,['0'],6,237,[-0.00447519],42,53,easy,plus,dotcolour,alfa,,,127,19,M,R,
252,0,0,6,2,44,36,1534,['n'],0,left,['8'],4,278,[-0.04971765],70,44,hard,minus,dotcolour,alfa,,,127,19,M,R,
253,1,1,6,2,27,53,900,['n'],1,right,['9'],5,241,[-0.16135601],95,53,easy,minus,dotcolour,alfa,,,127,19,M,R,
254,2,2,6,2,36,44,949,['n'],1,right,['8'],4,378,[-0.14162222],89,44,hard,minus,dotcolour,alfa,,,127,19,M,R,
255,3,3,6,2,53,27,918,['c'],1,left,['0'],6,215,[0.10757335],89,53,easy,minus,dotcolour,alfa,,,127,19,M,R,
256,4,4,6,2,47,33,1066,['c'],1,left,['8'],4,197,[0.12272763],92,47,medium,minus,dotcolour,alfa,,,127,19,M,R,
257,5,5,6,2,27,53,783,['n'],1,right,['9'],5,391,[-0.15054806],90,53,easy,minus,dotcolour,alfa,,,127,19,M,R,
258,6,6,6,2,44,36,849,['c'],1,left,['8'],4,214,[0.08933881],85,44,hard,minus,dotcolour,alfa,,,127,19,M,R,
259,7,7,6,2,33,47,900,['n'],1,right,['8'],4,203,[-0.05359268],74,47,medium,minus,dotcolour,alfa,,,127,19,M,R,
260,8,8,6,2,53,27,733,['c'],1,left,['0'],6,287,[0.04541136],68,53,easy,minus,dotcolour,alfa,,,127,19,M,R,
261,9,9,6,2,47,33,766,['c'],1,left,['9'],5,335,[0.1551391],92,47,medium,minus,dotcolour,alfa,,,127,19,M,R,
262,10,10,6,2,33,47,883,['n'],1,right,['9'],5,287,[-0.20275181],97,47,medium,minus,dotcolour,alfa,,,127,19,M,R,
263,11,11,6,2,53,27,766,['c'],1,left,['0'],6,287,[0.08373782],80,53,easy,minus,dotcolour,alfa,,,127,19,M,R,
264,12,12,6,2,47,33,734,['c'],1,left,['9'],5,223,[0.0483489],72,47,medium,minus,dotcolour,alfa,,,127,19,M,R,
265,13,13,6,2,44,36,1300,['c'],1,left,['8'],4,371,[0.11997055],85,44,hard,minus,dotcolour,alfa,,,127,19,M,R,
266,14,14,6,2,36,44,1217,['n'],1,right,['8'],4,261,[-0.01892494],58,44,hard,minus,dotcolour,alfa,,,127,19,M,R,
267,15,15,6,2,33,47,1117,['n'],1,right,['8'],4,231,[-0.12491877],91,47,medium,minus,dotcolour,alfa,,,127,19,M,R,
268,16,16,6,2,33,47,1267,['n'],1,right,['8'],4,236,[-0.05819018],75,47,medium,minus,dotcolour,alfa,,,127,19,M,R,
269,17,17,6,2,33,47,884,['n'],1,right,['8'],4,249,[-0.12158148],90,47,medium,minus,dotcolour,alfa,,,127,19,M,R,
270,18,18,6,2,36,44,1050,['n'],1,right,['8'],4,207,[-0.20374742],98,44,hard,minus,dotcolour,alfa,,,127,19,M,R,
271,19,19,6,2,33,47,834,['n'],1,right,['8'],4,229,[-0.14307908],94,47,medium,minus,dotcolour,alfa,,,127,19,M,R,
272,20,20,6,2,36,44,1133,['n'],1,right,['8'],4,208,[-0.10819054],89,44,hard,minus,dotcolour,alfa,,,127,19,M,R,
273,21,21,6,2,44,36,767,['c'],1,left,['8'],4,170,[0.12479398],94,44,hard,minus,dotcolour,alfa,,,127,19,M,R,
274,22,22,6,2,27,53,767,['n'],1,right,['9'],5,486,[-0.07561155],73,53,easy,minus,dotcolour,alfa,,,127,19,M,R,
275,23,23,6,2,47,33,784,['c'],1,left,['9'],5,205,[0.11753164],91,47,medium,minus,dotcolour,alfa,,,127,19,M,R,
276,24,24,6,2,53,27,783,['c'],1,left,['0'],6,334,[0.19766292],96,53,easy,minus,dotcolour,alfa,,,127,19,M,R,
277,25,25,6,2,47,33,1300,['c'],1,left,['8'],4,383,[0.10603493],82,47,medium,minus,dotcolour,alfa,,,127,19,M,R,
278,26,26,6,2,27,53,1335,['n'],1,right,['9'],5,260,[0.02171126],41,53,easy,minus,dotcolour,alfa,,,127,19,M,R,
279,27,27,6,2,27,53,1050,['n'],1,right,['8'],4,272,[-0.08899581],82,53,easy,minus,dotcolour,alfa,,,127,19,M,R,
280,28,28,6,2,33,47,1400,['c'],0,right,['8'],4,263,[0.16884742],95,47,medium,minus,dotcolour,alfa,,,127,19,M,R,
281,29,29,6,2,36,44,1350,['c'],0,right,['8'],4,271,[0.02157597],59,44,hard,minus,dotcolour,alfa,,,127,19,M,R,
282,30,30,6,2,27,53,734,['n'],1,right,['9'],5,200,[-0.03110817],65,53,easy,minus,dotcolour,alfa,,,127,19,M,R,
283,31,31,6,2,53,27,716,['c'],1,left,['0'],6,237,[0.09810588],86,53,easy,minus,dotcolour,alfa,,,127,19,M,R,
284,32,32,6,2,47,33,800,['c'],1,left,['8'],4,205,[0.08896558],85,47,medium,minus,dotcolour,alfa,,,127,19,M,R,
285,33,33,6,2,44,36,1216,['c'],1,left,['8'],4,213,[0.14279266],94,44,hard,minus,dotcolour,alfa,,,127,19,M,R,
286,34,34,6,2,53,27,800,['c'],1,left,['0'],6,295,[0.10438006],85,53,easy,minus,dotcolour,alfa,,,127,19,M,R,
287,35,35,6,2,47,33,833,['c'],1,left,['9'],5,226,[0.16248786],96,47,medium,minus,dotcolour,alfa,,,127,19,M,R,
288,36,36,6,2,44,36,883,['c'],1,left,['8'],4,206,[0.02319369],61,44,hard,minus,dotcolour,alfa,,,127,19,M,R,
289,37,37,6,2,44,36,651,['c'],1,left,['8'],4,230,[0.10338972],87,44,hard,minus,dotcolour,alfa,,,127,19,M,R,
290,38,38,6,2,36,44,1100,['n'],1,right,['8'],4,377,[-0.10055468],81,44,hard,minus,dotcolour,alfa,,,127,19,M,R,
291,39,39,6,2,53,27,800,['c'],1,left,['9'],5,220,[0.18577479],97,53,easy,minus,dotcolour,alfa,,,127,19,M,R,
292,40,40,6,2,36,44,1033,['n'],1,right,['8'],4,307,[-0.05046319],69,44,hard,minus,dotcolour,alfa,,,127,19,M,R,
293,41,41,6,2,27,53,850,['n'],1,right,['9'],5,237,[-0.08898251],84,53,easy,minus,dotcolour,alfa,,,127,19,M,R,
294,42,0,7,2,47,33,2067,['c'],1,left,['8'],4,403,[0.1966666],94,47,medium,minus,dotcolour,alfa,,,127,19,M,R,
295,43,1,7,2,47,33,1317,['c'],1,left,['8'],4,175,[0.08072951],85,47,medium,minus,dotcolour,alfa,,,127,19,M,R,
296,44,2,7,2,33,47,2117,['n'],1,right,['3'],3,1021,[-0.095698],70,47,medium,minus,dotcolour,alfa,,,127,19,M,R,
297,45,3,7,2,33,47,933,['n'],1,right,['8'],4,439,[-0.12602966],85,47,medium,minus,dotcolour,alfa,,,127,19,M,R,
298,46,4,7,2,44,36,1199,['c'],1,left,['8'],4,311,[0.11184531],86,44,hard,minus,dotcolour,alfa,,,127,19,M,R,
299,47,5,7,2,53,27,767,['c'],1,left,['8'],4,277,[0.07273919],78,53,easy,minus,dotcolour,alfa,,,127,19,M,R,
300,48,6,7,2,27,53,900,['n'],1,right,['9'],5,303,[-0.15266274],92,53,easy,minus,dotcolour,alfa,,,127,19,M,R,
301,49,7,7,2,27,53,733,['n'],1,right,['9'],5,271,[-0.13657641],91,53,easy,minus,dotcolour,alfa,,,127,19,M,R,
302,50,8,7,2,53,27,1766,['c'],1,left,['0'],6,2095,[0.41122281],93,53,easy,minus,dotcolour,alfa,,,127,19,M,R,
303,51,9,7,2,33,47,867,['n'],1,right,['8'],4,305,[-0.14363801],91,47,medium,minus,dotcolour,alfa,,,127,19,M,R,
304,52,10,7,2,44,36,917,['c'],1,left,['8'],4,217,[0.04927382],72,44,hard,minus,dotcolour,alfa,,,127,19,M,R,
305,53,11,7,2,47,33,916,['c'],1,left,['9'],5,213,[0.04656218],71,47,medium,minus,dotcolour,alfa,,,127,19,M,R,
306,54,12,7,2,44,36,1250,['c'],1,left,['8'],4,220,[0.05613184],75,44,hard,minus,dotcolour,alfa,,,127,19,M,R,
307,55,13,7,2,44,36,834,['c'],1,left,['8'],4,228,[0.10433166],88,44,hard,minus,dotcolour,alfa,,,127,19,M,R,
308,56,14,7,2,36,44,984,['n'],1,right,['8'],4,229,[-0.11426538],90,44,hard,minus,dotcolour,alfa,,,127,19,M,R,
309,57,15,7,2,36,44,1834,['n'],1,right,['8'],4,274,[-0.02098318],59,44,hard,minus,dotcolour,alfa,,,127,19,M,R,
310,58,16,7,2,36,44,1200,['n'],1,right,['8'],4,224,[-0.07808902],82,44,hard,minus,dotcolour,alfa,,,127,19,M,R,
311,59,17,7,2,27,53,767,['n'],1,right,['8'],4,226,[-0.06167694],76,53,easy,minus,dotcolour,alfa,,,127,19,M,R,
312,60,18,7,2,33,47,834,['n'],1,right,['8'],4,232,[-0.12636163],91,47,medium,minus,dotcolour,alfa,,,127,19,M,R,
313,61,19,7,2,36,44,851,['c'],0,right,['8'],4,183,[0.09822091],89,44,hard,minus,dotcolour,alfa,,,127,19,M,R,
314,62,20,7,2,53,27,700,['c'],1,left,['9'],5,221,[0.01752591],58,53,easy,minus,dotcolour,alfa,,,127,19,M,R,
315,63,21,7,2,33,47,1032,['n'],1,right,['8'],4,220,[-0.05168658],73,47,medium,minus,dotcolour,alfa,,,127,19,M,R,
316,64,22,7,2,36,44,717,['n'],1,right,['8'],4,240,[-0.13417197],92,44,hard,minus,dotcolour,alfa,,,127,19,M,R,
317,65,23,7,2,44,36,766,['c'],1,left,['9'],5,201,[0.11284964],91,44,hard,minus,dotcolour,alfa,,,127,19,M,R,
318,66,24,7,2,33,47,866,['n'],1,right,['8'],4,415,[-0.14731156],89,47,medium,minus,dotcolour,alfa,,,127,19,M,R,
319,67,25,7,2,47,33,900,['c'],1,left,['9'],5,212,[0.10728583],89,47,medium,minus,dotcolour,alfa,,,127,19,M,R,
320,68,26,7,2,27,53,1267,['n'],1,right,['0'],6,186,[-0.09383718],88,53,easy,minus,dotcolour,alfa,,,127,19,M,R,
321,69,27,7,2,27,53,933,['n'],1,right,['9'],5,207,[-0.01324959],57,53,easy,minus,dotcolour,alfa,,,127,19,M,R,
322,70,28,7,2,36,44,916,['c'],0,right,['8'],4,219,[0.01281071],56,44,hard,minus,dotcolour,alfa,,,127,19,M,R,
323,71,29,7,2,53,27,850,['c'],1,left,['0'],6,185,[0.12170487],93,53,easy,minus,dotcolour,alfa,,,127,19,M,R,
324,72,30,7,2,47,33,683,['c'],1,left,['9'],5,200,[0.0799003],83,47,medium,minus,dotcolour,alfa,,,127,19,M,R,
325,73,31,7,2,27,53,950,['n'],1,right,['9'],5,196,[-0.12918537],93,53,easy,minus,dotcolour,alfa,,,127,19,M,R,
326,74,32,7,2,36,44,1000,['n'],1,right,['8'],4,269,[-0.09486699],84,44,hard,minus,dotcolour,alfa,,,127,19,M,R,
327,75,33,7,2,53,27,817,['c'],1,left,['8'],4,235,[0.04562245],70,53,easy,minus,dotcolour,alfa,,,127,19,M,R,
328,76,34,7,2,44,36,683,['c'],1,left,['8'],4,199,[0.12244941],92,44,hard,minus,dotcolour,alfa,,,127,19,M,R,
329,77,35,7,2,47,33,851,['c'],1,left,['8'],4,239,[0.08573272],83,47,medium,minus,dotcolour,alfa,,,127,19,M,R,
330,78,36,7,2,44,36,1200,['c'],1,left,['8'],4,206,[0.10333608],89,44,hard,minus,dotcolour,alfa,,,127,19,M,R,
331,79,37,7,2,33,47,1084,['n'],1,right,['8'],4,228,[-0.15408749],95,47,medium,minus,dotcolour,alfa,,,127,19,M,R,
332,80,38,7,2,27,53,817,['n'],1,right,['9'],5,227,[-0.13159431],92,53,easy,minus,dotcolour,alfa,,,127,19,M,R,
333,81,39,7,2,53,27,800,['c'],1,left,['0'],6,723,[0.12223283],78,53,easy,minus,dotcolour,alfa,,,127,19,M,R,
334,82,40,7,2,47,33,800,['c'],1,left,['8'],4,223,[0.10383505],88,47,medium,minus,dotcolour,alfa,,,127,19,M,R,
335,83,41,7,2,53,27,766,['c'],1,left,['9'],5,200,[0.09817106],88,53,easy,minus,dotcolour,alfa,,,127,19,M,R,
336,84,0,8,2,36,44,1084,['n'],1,right,['8'],4,255,[-0.09764924],85,44,hard,minus,dotcolour,alfa,,,127,19,M,R,
337,85,1,8,2,44,36,834,['c'],1,left,['8'],4,205,[0.1095318],90,44,hard,minus,dotcolour,alfa,,,127,19,M,R,
338,86,2,8,2,44,36,751,['c'],1,left,['8'],4,208,[0.05184343],74,44,hard,minus,dotcolour,alfa,,,127,19,M,R,
339,87,3,8,2,33,47,967,['n'],1,right,['9'],5,298,[-0.13286628],90,47,medium,minus,dotcolour,alfa,,,127,19,M,R,
340,88,4,8,2,33,47,1033,['n'],1,right,['9'],5,542,[-0.03280176],60,47,medium,minus,dotcolour,alfa,,,127,19,M,R,
341,89,5,8,2,27,53,967,['n'],1,right,['9'],5,226,[-0.12546377],91,53,easy,minus,dotcolour,alfa,,,127,19,M,R,
342,90,6,8,2,47,33,900,['c'],1,left,['9'],5,215,[0.04548588],71,47,medium,minus,dotcolour,alfa,,,127,19,M,R,
343,91,7,8,2,47,33,1133,['c'],1,left,['9'],5,202,[0.09481959],87,47,medium,minus,dotcolour,alfa,,,127,19,M,R,
344,92,8,8,2,44,36,1017,['c'],1,left,['8'],4,195,[0.0792568],83,44,hard,minus,dotcolour,alfa,,,127,19,M,R,
345,93,9,8,2,36,44,1099,['n'],1,right,['8'],4,168,[-0.04449138],73,44,hard,minus,dotcolour,alfa,,,127,19,M,R,
346,94,10,8,2,44,36,900,['c'],1,left,['9'],5,223,[0.07341703],80,44,hard,minus,dotcolour,alfa,,,127,19,M,R,
347,95,11,8,2,27,53,851,['n'],1,right,['9'],5,212,[-0.0984099],87,53,easy,minus,dotcolour,alfa,,,127,19,M,R,
348,96,12,8,2,36,44,1884,['n'],1,right,['8'],4,203,[-0.16819388],97,44,hard,minus,dotcolour,alfa,,,127,19,M,R,
349,97,13,8,2,44,36,783,['c'],1,left,['8'],4,204,[0.16401286],96,44,hard,minus,dotcolour,alfa,,,127,19,M,R,
350,98,14,8,2,36,44,1050,['n'],1,right,['9'],5,219,[-0.07716871],82,44,hard,minus,dotcolour,alfa,,,127,19,M,R,
351,99,15,8,2,27,53,1133,['n'],1,right,['9'],5,271,[-0.09029372],83,53,easy,minus,dotcolour,alfa,,,127,19,M,R,
352,100,16,8,2,53,27,1100,['c'],1,left,['0'],6,578,[0.32469729],98,53,easy,minus,dotcolour,alfa,,,127,19,M,R,
353,101,17,8,2,53,27,766,['c'],1,left,['0'],6,221,[0.07188478],80,53,easy,minus,dotcolour,alfa,,,127,19,M,R,
354,102,18,8,2,53,27,734,['c'],1,left,['0'],6,200,[0.07974552],83,53,easy,minus,dotcolour,alfa,,,127,19,M,R,
355,103,19,8,2,53,27,650,['c'],1,left,['0'],6,176,[0.07791255],84,53,easy,minus,dotcolour,alfa,,,127,19,M,R,
356,104,20,8,2,33,47,967,['n'],1,right,['8'],4,195,[-0.11849503],92,47,medium,minus,dotcolour,alfa,,,127,19,M,R,
357,105,21,8,2,36,44,2034,['c'],0,right,['8'],4,1491,[0.17637938],79,44,hard,minus,dotcolour,alfa,,,127,19,M,R,
358,106,22,8,2,33,47,834,['n'],1,right,['8'],4,311,[-0.0569492],71,47,medium,minus,dotcolour,alfa,,,127,19,M,R,
359,107,23,8,2,47,33,900,['c'],1,left,['9'],5,232,[0.20425165],98,47,medium,minus,dotcolour,alfa,,,127,19,M,R,
360,108,24,8,2,47,33,1183,['c'],1,left,['8'],4,200,[0.12876963],93,47,medium,minus,dotcolour,alfa,,,127,19,M,R,
361,109,25,8,2,44,36,1133,['c'],1,left,['8'],4,157,[0.13994977],96,44,hard,minus,dotcolour,alfa,,,127,19,M,R,
362,110,26,8,2,53,27,750,['c'],1,left,['0'],6,313,[0.04536085],67,53,easy,minus,dotcolour,alfa,,,127,19,M,R,
363,111,27,8,2,47,33,735,['c'],1,left,['8'],4,225,[0.12873018],92,47,medium,minus,dotcolour,alfa,,,127,19,M,R,
364,112,28,8,2,44,36,783,['c'],1,left,['8'],4,209,[0.0165155],58,44,hard,minus,dotcolour,alfa,,,127,19,M,R,
365,113,29,8,2,47,33,584,['c'],1,left,['8'],4,515,[0.09967008],78,47,medium,minus,dotcolour,alfa,,,127,19,M,R,
366,114,30,8,2,53,27,584,['c'],1,left,['9'],5,216,[0.10358155],88,53,easy,minus,dotcolour,alfa,,,127,19,M,R,
367,115,31,8,2,36,44,950,['n'],1,right,['9'],5,203,[-0.00517494],53,44,hard,minus,dotcolour,alfa,,,127,19,M,R,
368,116,32,8,2,27,53,634,['n'],1,right,['9'],5,226,[-0.06609856],78,53,easy,minus,dotcolour,alfa,,,127,19,M,R,
369,117,33,8,2,27,53,683,['n'],1,right,['9'],5,207,[-0.13715488],94,53,easy,minus,dotcolour,alfa,,,127,19,M,R,
370,118,34,8,2,33,47,1001,['n'],1,right,['8'],4,184,[-0.04493859],72,47,medium,minus,dotcolour,alfa,,,127,19,M,R,
371,119,35,8,2,36,44,1000,['c'],0,right,['8'],4,178,[0.01445169],58,44,hard,minus,dotcolour,alfa,,,127,19,M,R,
372,120,36,8,2,53,27,749,['c'],1,left,['9'],5,190,[0.08037442],84,53,easy,minus,dotcolour,alfa,,,127,19,M,R,
373,121,37,8,2,47,33,834,['c'],1,left,['9'],5,174,[0.10587873],91,47,medium,minus,dotcolour,alfa,,,127,19,M,R,
374,122,38,8,2,27,53,1116,['n'],1,right,['9'],5,203,[-0.12958392],93,53,easy,minus,dotcolour,alfa,,,127,19,M,R,
375,123,39,8,2,33,47,1600,['c'],0,right,['8'],4,197,[0.0752354],82,47,medium,minus,dotcolour,alfa,,,127,19,M,R,
376,124,40,8,2,33,47,1152,['c'],0,right,['8'],4,168,[0.10266466],91,47,medium,minus,dotcolour,alfa,,,127,19,M,R,
377,125,41,8,2,27,53,901,['n'],1,right,['9'],5,191,[-0.11973466],92,53,easy,minus,dotcolour,alfa,,,127,19,M,R,
378,0,0,9,3,36,44,1217,['c'],0,right,['8'],4,153,[0.09605186],100,44,hard,plus,dotcolour,alfa,,,127,19,M,R,
379,1,1,9,3,44,36,866,['c'],1,left,['8'],4,153,[0.05682236],99,44,hard,plus,dotcolour,alfa,,,127,19,M,R,
380,2,2,9,3,53,27,1067,['c'],1,left,['9'],5,258,[0.1123082],100,53,easy,plus,dotcolour,alfa,,,127,19,M,R,
381,3,3,9,3,36,44,933,['n'],1,right,['8'],4,179,[-0.03149674],94,44,hard,plus,dotcolour,alfa,,,127,19,M,R,
382,4,4,9,3,33,47,750,['n'],1,right,['8'],4,200,[-0.11907908],100,47,medium,plus,dotcolour,alfa,,,127,19,M,R,
383,5,5,9,3,36,44,916,['n'],1,right,['8'],4,452,[-0.06538998],97,44,hard,plus,dotcolour,alfa,,,127,19,M,R,
384,6,6,9,3,53,27,750,['c'],1,left,['9'],5,206,[0.19069282],100,53,easy,plus,dotcolour,alfa,,,127,19,M,R,
385,7,7,9,3,44,36,734,['c'],1,left,['8'],4,305,[0.01136785],68,44,hard,plus,dotcolour,alfa,,,127,19,M,R,
386,8,8,9,3,53,27,749,['c'],1,left,['9'],5,216,[0.14118803],100,53,easy,plus,dotcolour,alfa,,,127,19,M,R,
387,9,9,9,3,53,27,617,['c'],1,left,['0'],6,175,[0.06335539],100,53,easy,plus,dotcolour,alfa,,,127,19,M,R,
388,10,10,9,3,33,47,1283,['n'],1,right,['8'],4,190,[-0.11453827],100,47,medium,plus,dotcolour,alfa,,,127,19,M,R,
389,11,11,9,3,53,27,650,['c'],1,left,['9'],5,206,[0.09922156],100,53,easy,plus,dotcolour,alfa,,,127,19,M,R,
390,12,12,9,3,36,44,883,['c'],0,right,['8'],4,204,[-0.04213346],3,44,hard,plus,dotcolour,alfa,,,127,19,M,R,
391,13,13,9,3,33,47,800,['c'],0,right,['9'],5,445,[-0.02065972],25,47,medium,plus,dotcolour,alfa,,,127,19,M,R,
392,14,14,9,3,27,53,734,['c'],0,right,['9'],5,231,[0.03872826],95,53,easy,plus,dotcolour,alfa,,,127,19,M,R,
393,15,15,9,3,47,33,1149,['n'],0,left,['9'],5,256,[-0.07218052],99,47,medium,plus,dotcolour,alfa,,,127,19,M,R,
394,16,16,9,3,36,44,784,['c'],0,right,['8'],4,216,[0.08205643],100,44,hard,plus,dotcolour,alfa,,,127,19,M,R,
395,17,17,9,3,44,36,950,['c'],1,left,['8'],4,179,[0.05209462],99,44,hard,plus,dotcolour,alfa,,,127,19,M,R,
396,18,18,9,3,47,33,749,['c'],1,left,['9'],5,214,[0.12968909],100,47,medium,plus,dotcolour,alfa,,,127,19,M,R,
397,19,19,9,3,33,47,916,['n'],1,right,['8'],4,234,[-0.11578279],100,47,medium,plus,dotcolour,alfa,,,127,19,M,R,
398,20,20,9,3,27,53,767,['n'],1,right,['9'],5,244,[-0.09774047],100,53,easy,plus,dotcolour,alfa,,,127,19,M,R,
399,21,21,9,3,47,33,833,['c'],1,left,['9'],5,186,[0.16510102],100,47,medium,plus,dotcolour,alfa,,,127,19,M,R,
400,22,22,9,3,27,53,750,['n'],1,right,['0'],6,198,[-0.22461627],100,53,easy,plus,dotcolour,alfa,,,127,19,M,R,
401,23,23,9,3,27,53,833,['n'],1,right,['0'],6,174,[-0.09834927],100,53,easy,plus,dotcolour,alfa,,,127,19,M,R,
402,24,24,9,3,44,36,700,['c'],1,left,['0'],6,164,[0.02070323],86,44,hard,plus,dotcolour,alfa,,,127,19,M,R,
403,25,25,9,3,36,44,850,['n'],1,right,['9'],5,221,[-0.12172174],100,44,hard,plus,dotcolour,alfa,,,127,19,M,R,
404,26,26,9,3,53,27,617,['c'],1,left,['0'],6,205,[0.17570941],100,53,easy,plus,dotcolour,alfa,,,127,19,M,R,
405,27,27,9,3,33,47,717,['n'],1,right,['9'],5,417,[-0.07024855],98,47,medium,plus,dotcolour,alfa,,,127,19,M,R,
406,28,28,9,3,47,33,834,['c'],1,left,['8'],4,425,[-0.0494218],6,47,medium,plus,dotcolour,alfa,,,127,19,M,R,
407,29,29,9,3,44,36,817,['c'],1,left,['8'],4,176,[0.06553265],100,44,hard,plus,dotcolour,alfa,,,127,19,M,R,
408,30,30,9,3,53,27,684,['c'],1,left,['9'],5,199,[0.10179669],100,53,easy,plus,dotcolour,alfa,,,127,19,M,R,
409,31,31,9,3,33,47,784,['n'],1,right,['9'],5,202,[-0.06771691],100,47,medium,plus,dotcolour,alfa,,,127,19,M,R,
410,32,32,9,3,27,53,667,['n'],1,right,['0'],6,208,[-0.00973066],68,53,easy,plus,dotcolour,alfa,,,127,19,M,R,
411,33,33,9,3,44,36,683,['c'],1,left,['0'],6,189,[0.04491143],98,44,hard,plus,dotcolour,alfa,,,127,19,M,R,
412,34,34,9,3,27,53,766,['n'],1,right,['9'],5,192,[-0.08760205],100,53,easy,plus,dotcolour,alfa,,,127,19,M,R,
413,35,35,9,3,44,36,934,['c'],1,left,['8'],4,188,[0.14198684],100,44,hard,plus,dotcolour,alfa,,,127,19,M,R,
414,36,36,9,3,33,47,800,['n'],1,right,['8'],4,206,[-0.05170016],98,47,medium,plus,dotcolour,alfa,,,127,19,M,R,
415,37,37,9,3,47,33,799,['c'],1,left,['8'],4,144,[0.07322385],100,47,medium,plus,dotcolour,alfa,,,127,19,M,R,
416,38,38,9,3,47,33,868,['c'],1,left,['8'],4,159,[0.02878839],93,47,medium,plus,dotcolour,alfa,,,127,19,M,R,
417,39,39,9,3,47,33,585,['c'],1,left,['8'],4,171,[0.1210024],100,47,medium,plus,dotcolour,alfa,,,127,19,M,R,
418,40,40,9,3,27,53,949,['n'],1,right,['8'],4,208,[-0.04761736],98,53,easy,plus,dotcolour,alfa,,,127,19,M,R,
419,41,41,9,3,36,44,900,['n'],1,right,['8'],4,204,[-0.17728213],100,44,hard,plus,dotcolour,alfa,,,127,19,M,R,
420,42,0,10,3,47,33,818,['c'],1,left,['8'],4,188,[0.11485552],100,47,medium,plus,dotcolour,alfa,,,127,19,M,R,
421,43,1,10,3,47,33,801,['c'],1,left,['8'],4,143,[0.12589523],100,47,medium,plus,dotcolour,alfa,,,127,19,M,R,
422,44,2,10,3,36,44,1067,['c'],0,right,['8'],4,127,[0.11767952],100,44,hard,plus,dotcolour,alfa,,,127,19,M,R,
423,45,3,10,3,44,36,1317,['n'],0,left,['8'],4,198,[-0.10669717],100,44,hard,plus,dotcolour,alfa,,,127,19,M,R,
424,46,4,10,3,44,36,718,['c'],1,left,['8'],4,187,[0.09532192],100,44,hard,plus,dotcolour,alfa,,,127,19,M,R,
425,47,5,10,3,33,47,1000,['n'],1,right,['8'],4,206,[-0.02208233],85,47,medium,plus,dotcolour,alfa,,,127,19,M,R,
426,48,6,10,3,27,53,801,['n'],1,right,['9'],5,166,[-0.08405184],100,53,easy,plus,dotcolour,alfa,,,127,19,M,R,
427,49,7,10,3,27,53,584,['n'],1,right,['0'],6,297,[-0.14034893],100,53,easy,plus,dotcolour,alfa,,,127,19,M,R,
428,50,8,10,3,44,36,733,['c'],1,left,['9'],5,297,[0.05307801],97,44,hard,plus,dotcolour,alfa,,,127,19,M,R,
429,51,9,10,3,44,36,1033,['c'],1,left,['8'],4,181,[0.12959047],100,44,hard,plus,dotcolour,alfa,,,127,19,M,R,
430,52,10,10,3,27,53,1017,['n'],1,right,['9'],5,191,[-0.15612411],100,53,easy,plus,dotcolour,alfa,,,127,19,M,R,
431,53,11,10,3,47,33,634,['c'],1,left,['9'],5,199,[0.09521458],100,47,medium,plus,dotcolour,alfa,,,127,19,M,R,
432,54,12,10,3,33,47,750,['n'],1,right,['9'],5,219,[-0.11848078],100,47,medium,plus,dotcolour,alfa,,,127,19,M,R,
433,55,13,10,3,47,33,783,['c'],1,left,['0'],6,220,[0.10785125],100,47,medium,plus,dotcolour,alfa,,,127,19,M,R,
434,56,14,10,3,27,53,1051,['n'],1,right,['9'],5,202,[-0.07319138],100,53,easy,plus,dotcolour,alfa,,,127,19,M,R,
435,57,15,10,3,27,53,717,['n'],1,right,['9'],5,183,[-0.15163859],100,53,easy,plus,dotcolour,alfa,,,127,19,M,R,
436,58,16,10,3,47,33,850,['c'],1,left,['8'],4,231,[0.14691729],100,47,medium,plus,dotcolour,alfa,,,127,19,M,R,
437,59,17,10,3,53,27,666,['c'],1,left,['9'],5,236,[0.11276266],100,53,easy,plus,dotcolour,alfa,,,127,19,M,R,
438,60,18,10,3,53,27,667,['c'],1,left,['0'],6,193,[0.07398562],100,53,easy,plus,dotcolour,alfa,,,127,19,M,R,
439,61,19,10,3,33,47,1150,['n'],1,right,['8'],4,205,[0.01352283],25,47,medium,plus,dotcolour,alfa,,,127,19,M,R,
440,62,20,10,3,53,27,800,['c'],1,left,['0'],6,166,[0.11748518],100,53,easy,plus,dotcolour,alfa,,,127,19,M,R,
441,63,21,10,3,36,44,1967,['c'],0,right,['8'],4,138,[0.00680126],66,44,hard,plus,dotcolour,alfa,,,127,19,M,R,
442,64,22,10,3,53,27,783,['c'],1,left,['9'],5,223,[0.11118835],100,53,easy,plus,dotcolour,alfa,,,127,19,M,R,
443,65,23,10,3,47,33,666,['c'],1,left,['9'],5,181,[0.08886207],100,47,medium,plus,dotcolour,alfa,,,127,19,M,R,
444,66,24,10,3,36,44,816,['n'],1,right,['8'],4,221,[-0.11849947],100,44,hard,plus,dotcolour,alfa,,,127,19,M,R,
445,67,25,10,3,44,36,1167,['c'],1,left,['8'],4,159,[0.04706325],99,44,hard,plus,dotcolour,alfa,,,127,19,M,R,
446,68,26,10,3,36,44,1484,['c'],0,right,['8'],4,191,[0.06783454],100,44,hard,plus,dotcolour,alfa,,,127,19,M,R,
447,69,27,10,3,33,47,817,['n'],1,right,['8'],4,192,[-0.14857879],100,47,medium,plus,dotcolour,alfa,,,127,19,M,R,
448,70,28,10,3,53,27,800,['c'],1,left,['0'],6,145,[0.0750822],100,53,easy,plus,dotcolour,alfa,,,127,19,M,R,
449,71,29,10,3,33,47,850,['n'],1,right,['9'],5,218,[-0.10209243],100,47,medium,plus,dotcolour,alfa,,,127,19,M,R,
450,72,30,10,3,53,27,733,['c'],1,left,['0'],6,206,[0.13720182],100,53,easy,plus,dotcolour,alfa,,,127,19,M,R,
451,73,31,10,3,27,53,833,['n'],1,right,['0'],6,125,[-0.09842126],100,53,easy,plus,dotcolour,alfa,,,127,19,M,R,
452,74,32,10,3,36,44,2433,['n'],1,right,['8'],4,192,[-0.14569835],100,44,hard,plus,dotcolour,alfa,,,127,19,M,R,
453,75,33,10,3,53,27,733,['c'],1,left,['0'],6,180,[0.13127341],100,53,easy,plus,dotcolour,alfa,,,127,19,M,R,
454,76,34,10,3,33,47,934,['n'],1,right,['8'],4,184,[-0.09559328],100,47,medium,plus,dotcolour,alfa,,,127,19,M,R,
455,77,35,10,3,47,33,900,['c'],1,left,['0'],6,167,[0.10681552],100,47,medium,plus,dotcolour,alfa,,,127,19,M,R,
456,78,36,10,3,27,53,850,['n'],1,right,['9'],5,199,[-0.11917975],100,53,easy,plus,dotcolour,alfa,,,127,19,M,R,
457,79,37,10,3,36,44,950,['n'],1,right,['8'],4,250,[-0.109975],100,44,hard,plus,dotcolour,alfa,,,127,19,M,R,
458,80,38,10,3,44,36,733,['c'],1,left,['8'],4,197,[0.07364797],100,44,hard,plus,dotcolour,alfa,,,127,19,M,R,
459,81,39,10,3,36,44,835,['n'],1,right,['8'],4,172,[-0.05706262],99,44,hard,plus,dotcolour,alfa,,,127,19,M,R,
460,82,40,10,3,33,47,817,['n'],1,right,['8'],4,191,[-0.15117958],100,47,medium,plus,dotcolour,alfa,,,127,19,M,R,
461,83,41,10,3,44,36,717,['c'],1,left,['8'],4,179,[0.10667113],100,44,hard,plus,dotcolour,alfa,,,127,19,M,R,
462,84,0,11,3,44,36,717,['c'],1,left,['8'],4,182,[0.11696739],100,44,hard,plus,dotcolour,alfa,,,127,19,M,R,
463,85,1,11,3,27,53,983,['n'],1,right,['9'],5,209,[-0.14837308],100,53,easy,plus,dotcolour,alfa,,,127,19,M,R,
464,86,2,11,3,47,33,584,['c'],1,left,['8'],4,634,[0.15617975],100,47,medium,plus,dotcolour,alfa,,,127,19,M,R,
465,87,3,11,3,27,53,666,['n'],1,right,['9'],5,304,[-0.10138057],100,53,easy,plus,dotcolour,alfa,,,127,19,M,R,
466,88,4,11,3,36,44,767,['n'],1,right,['8'],4,166,[-0.04245351],98,44,hard,plus,dotcolour,alfa,,,127,19,M,R,
467,89,5,11,3,33,47,733,['n'],1,right,['8'],4,204,[-0.09480028],100,47,medium,plus,dotcolour,alfa,,,127,19,M,R,
468,90,6,11,3,44,36,851,['c'],1,left,['8'],4,163,[0.0938024],100,44,hard,plus,dotcolour,alfa,,,127,19,M,R,
469,91,7,11,3,36,44,1366,['n'],1,right,['8'],4,175,[-0.13080386],100,44,hard,plus,dotcolour,alfa,,,127,19,M,R,
470,92,8,11,3,27,53,917,['n'],1,right,['9'],5,196,[-0.06380798],99,53,easy,plus,dotcolour,alfa,,,127,19,M,R,
471,93,9,11,3,36,44,1100,['c'],0,right,['8'],4,169,[0.00225798],55,44,hard,plus,dotcolour,alfa,,,127,19,M,R,
472,94,10,11,3,33,47,800,['n'],1,right,['9'],5,172,[-0.00844892],68,47,medium,plus,dotcolour,alfa,,,127,19,M,R,
473,95,11,11,3,53,27,866,['c'],1,left,['9'],5,188,[0.13330982],100,53,easy,plus,dotcolour,alfa,,,127,19,M,R,
474,96,12,11,3,36,44,884,['n'],1,right,['8'],4,162,[-0.09121709],100,44,hard,plus,dotcolour,alfa,,,127,19,M,R,
475,97,13,11,3,36,44,1017,['c'],0,right,['8'],4,148,[0.04947888],99,44,hard,plus,dotcolour,alfa,,,127,19,M,R,
476,98,14,11,3,27,53,850,['n'],1,right,['9'],5,181,[-0.11045013],100,53,easy,plus,dotcolour,alfa,,,127,19,M,R,
477,99,15,11,3,36,44,1050,['n'],1,right,['9'],5,222,[-0.09622211],100,44,hard,plus,dotcolour,alfa,,,127,19,M,R,
478,100,16,11,3,47,33,734,['c'],1,left,['9'],5,177,[0.13564146],100,47,medium,plus,dotcolour,alfa,,,127,19,M,R,
479,101,17,11,3,44,36,983,['c'],1,left,['9'],5,300,[0.07197745],99,44,hard,plus,dotcolour,alfa,,,127,19,M,R,
480,102,18,11,3,53,27,700,['c'],1,left,['0'],6,197,[0.13764805],100,53,easy,plus,dotcolour,alfa,,,127,19,M,R,
481,103,19,11,3,53,27,633,['c'],1,left,['0'],6,189,[0.1367847],100,53,easy,plus,dotcolour,alfa,,,127,19,M,R,
482,104,20,11,3,33,47,983,['n'],1,right,['8'],4,200,[-0.08407206],100,47,medium,plus,dotcolour,alfa,,,127,19,M,R,
483,105,21,11,3,53,27,700,['c'],1,left,['9'],5,204,[0.07658352],100,53,easy,plus,dotcolour,alfa,,,127,19,M,R,
484,106,22,11,3,36,44,849,['n'],1,right,['9'],5,276,[-0.0932782],100,44,hard,plus,dotcolour,alfa,,,127,19,M,R,
485,107,23,11,3,33,47,1517,['n'],1,right,['8'],4,205,[-0.11244438],100,47,medium,plus,dotcolour,alfa,,,127,19,M,R,
486,108,24,11,3,33,47,918,['n'],1,right,['8'],4,193,[-0.06072296],99,47,medium,plus,dotcolour,alfa,,,127,19,M,R,
487,109,25,11,3,47,33,732,['c'],1,left,['9'],5,230,[0.1561214],100,47,medium,plus,dotcolour,alfa,,,127,19,M,R,
488,110,26,11,3,44,36,901,['n'],0,left,['8'],4,202,[-0.13934882],100,44,hard,plus,dotcolour,alfa,,,127,19,M,R,
489,111,27,11,3,47,33,850,['c'],1,left,['9'],5,177,[0.11363366],100,47,medium,plus,dotcolour,alfa,,,127,19,M,R,
490,112,28,11,3,44,36,850,['c'],1,left,['9'],5,169,[0.09066659],100,44,hard,plus,dotcolour,alfa,,,127,19,M,R,
491,113,29,11,3,27,53,884,['n'],1,right,['9'],5,200,[-0.09984369],100,53,easy,plus,dotcolour,alfa,,,127,19,M,R,
492,114,30,11,3,47,33,750,['c'],1,left,['0'],6,179,[0.02251235],87,47,medium,plus,dotcolour,alfa,,,127,19,M,R,
493,115,31,11,3,53,27,600,['c'],1,left,['0'],6,133,[0.07828605],100,53,easy,plus,dotcolour,alfa,,,127,19,M,R,
494,116,32,11,3,53,27,1117,['c'],1,left,['9'],5,213,[0.06160114],99,53,easy,plus,dotcolour,alfa,,,127,19,M,R,
495,117,33,11,3,27,53,983,['n'],1,right,['9'],5,190,[-0.12942492],100,53,easy,plus,dotcolour,alfa,,,127,19,M,R,
496,118,34,11,3,47,33,617,['c'],1,left,['9'],5,231,[0.1519869],100,47,medium,plus,dotcolour,alfa,,,127,19,M,R,
497,119,35,11,3,53,27,633,['c'],1,left,['0'],6,173,[0.05722157],99,53,easy,plus,dotcolour,alfa,,,127,19,M,R,
498,120,36,11,3,44,36,1216,['c'],1,left,['9'],5,135,[0.06920234],100,44,hard,plus,dotcolour,alfa,,,127,19,M,R,
499,121,37,11,3,47,33,651,['c'],1,left,['9'],5,201,[0.01578897],78,47,medium,plus,dotcolour,alfa,,,127,19,M,R,
500,122,38,11,3,27,53,799,['n'],1,right,['0'],6,194,[-0.12216164],100,53,easy,plus,dotcolour,alfa,,,127,19,M,R,
501,123,39,11,3,44,36,684,['c'],1,left,['9'],5,201,[0.08333611],100,44,hard,plus,dotcolour,alfa,,,127,19,M,R,
502,124,40,11,3,33,47,1034,['n'],1,right,['9'],5,240,[-0.06862946],99,47,medium,plus,dotcolour,alfa,,,127,19,M,R,
503,125,41,11,3,33,47,999,['n'],1,right,['8'],4,183,[-0.03220402],94,47,medium,plus,dotcolour,alfa,,,127,19,M,R,
504,0,0,12,4,33,47,701,['n'],1,right,['9'],5,264,[-0.02462532],61,47,medium,minus,dotcolour,alfa,,,127,19,M,R,
505,1,1,12,4,47,33,983,['c'],1,left,['8'],4,176,[0.06160324],79,47,medium,minus,dotcolour,alfa,,,127,19,M,R,
506,2,2,12,4,44,36,667,['c'],1,left,['8'],4,231,[0.06786529],78,44,hard,minus,dotcolour,alfa,,,127,19,M,R,
507,3,3,12,4,27,53,602,['n'],1,right,['9'],5,231,[-0.08792585],84,53,easy,minus,dotcolour,alfa,,,127,19,M,R,
508,4,4,12,4,27,53,634,['n'],1,right,['0'],6,222,[-0.09440415],86,53,easy,minus,dotcolour,alfa,,,127,19,M,R,
509,5,5,12,4,47,33,700,['c'],1,left,['9'],5,306,[0.02015943],58,47,medium,minus,dotcolour,alfa,,,127,19,M,R,
510,6,6,12,4,53,27,700,['c'],1,left,['9'],5,228,[0.10206306],87,53,easy,minus,dotcolour,alfa,,,127,19,M,R,
511,7,7,12,4,53,27,600,['c'],1,left,['0'],6,275,[0.11251875],87,53,easy,minus,dotcolour,alfa,,,127,19,M,R,
512,8,8,12,4,33,47,650,['n'],1,right,['0'],6,199,[-0.05328717],75,47,medium,minus,dotcolour,alfa,,,127,19,M,R,
513,9,9,12,4,47,33,634,['c'],1,left,['8'],4,631,[0.14935676],84,47,medium,minus,dotcolour,alfa,,,127,19,M,R,
514,10,10,12,4,47,33,634,['c'],1,left,['8'],4,222,[0.1120312],89,47,medium,minus,dotcolour,alfa,,,127,19,M,R,
515,11,11,12,4,44,36,782,['c'],1,left,['8'],4,255,[0.11226028],88,44,hard,minus,dotcolour,alfa,,,127,19,M,R,
516,12,12,12,4,47,33,716,['c'],1,left,['8'],4,218,[0.13862779],94,47,medium,minus,dotcolour,alfa,,,127,19,M,R,
517,13,13,12,4,36,44,800,['n'],1,right,['8'],4,186,[-0.14792272],96,44,hard,minus,dotcolour,alfa,,,127,19,M,R,
518,14,14,12,4,53,27,784,['c'],1,left,['9'],5,205,[0.1031884],89,53,easy,minus,dotcolour,alfa,,,127,19,M,R,
519,15,15,12,4,27,53,1001,['n'],1,right,['0'],6,198,[-0.07587092],82,53,easy,minus,dotcolour,alfa,,,127,19,M,R,
520,16,16,12,4,36,44,1067,['n'],1,right,['9'],5,237,[-0.12622567],91,44,hard,minus,dotcolour,alfa,,,127,19,M,R,
521,17,17,12,4,36,44,1234,['n'],1,right,['8'],4,187,[-0.04970719],74,44,hard,minus,dotcolour,alfa,,,127,19,M,R,
522,18,18,12,4,47,33,817,['c'],1,left,['9'],5,589,[0.25871638],95,47,medium,minus,dotcolour,alfa,,,127,19,M,R,
523,19,19,12,4,36,44,850,['n'],1,right,['8'],4,244,[-0.18292946],97,44,hard,minus,dotcolour,alfa,,,127,19,M,R,
524,20,20,12,4,33,47,800,['n'],1,right,['8'],4,243,[-0.12903987],91,47,medium,minus,dotcolour,alfa,,,127,19,M,R,
525,21,21,12,4,53,27,967,['c'],1,left,['0'],6,172,[0.11782662],93,53,easy,minus,dotcolour,alfa,,,127,19,M,R,
526,22,22,12,4,33,47,767,['n'],1,right,['8'],4,223,[-0.11943735],91,47,medium,minus,dotcolour,alfa,,,127,19,M,R,
527,23,23,12,4,44,36,800,['c'],1,left,['8'],4,183,[0.0418166],71,44,hard,minus,dotcolour,alfa,,,127,19,M,R,
528,24,24,12,4,36,44,966,['n'],1,right,['8'],4,204,[-0.06564239],79,44,hard,minus,dotcolour,alfa,,,127,19,M,R,
529,25,25,12,4,53,27,751,['c'],1,left,['9'],5,199,[0.15299888],96,53,easy,minus,dotcolour,alfa,,,127,19,M,R,
530,26,26,12,4,27,53,767,['n'],1,right,['9'],5,185,[-0.05188388],75,53,easy,minus,dotcolour,alfa,,,127,19,M,R,
531,27,27,12,4,27,53,732,['n'],1,right,['9'],5,230,[-0.04695524],71,53,easy,minus,dotcolour,alfa,,,127,19,M,R,
532,28,28,12,4,33,47,784,['n'],1,right,['8'],4,190,[-0.08703615],86,47,medium,minus,dotcolour,alfa,,,127,19,M,R,
533,29,29,12,4,44,36,933,['c'],1,left,['8'],4,242,[0.05072389],72,44,hard,minus,dotcolour,alfa,,,127,19,M,R,
534,30,30,12,4,47,33,784,['c'],1,left,['9'],5,338,[0.19896015],96,47,medium,minus,dotcolour,alfa,,,127,19,M,R,
535,31,31,12,4,33,47,918,['n'],1,right,['8'],4,273,[-0.05141475],71,47,medium,minus,dotcolour,alfa,,,127,19,M,R,
536,32,32,12,4,27,53,616,['n'],1,right,['9'],5,222,[-0.06717627],78,53,easy,minus,dotcolour,alfa,,,127,19,M,R,
537,33,33,12,4,53,27,849,['c'],1,left,['9'],5,188,[0.17747061],98,53,easy,minus,dotcolour,alfa,,,127,19,M,R,
538,34,34,12,4,44,36,1200,['c'],1,left,['8'],4,151,[0.07740786],86,44,hard,minus,dotcolour,alfa,,,127,19,M,R,
539,35,35,12,4,44,36,700,['c'],1,left,['8'],4,198,[0.07046807],81,44,hard,minus,dotcolour,alfa,,,127,19,M,R,
540,36,36,12,4,53,27,717,['c'],1,left,['9'],5,226,[0.08584341],84,53,easy,minus,dotcolour,alfa,,,127,19,M,R,
541,37,37,12,4,27,53,817,['n'],1,right,['9'],5,194,[-0.06441733],79,53,easy,minus,dotcolour,alfa,,,127,19,M,R,
542,38,38,12,4,33,47,900,['n'],1,right,['8'],4,216,[-0.11424426],90,47,medium,minus,dotcolour,alfa,,,127,19,M,R,
543,39,39,12,4,36,44,717,['n'],1,right,['8'],4,243,[-0.15317444],94,44,hard,minus,dotcolour,alfa,,,127,19,M,R,
544,40,40,12,4,44,36,816,['c'],1,left,['8'],4,178,[0.04837156],74,44,hard,minus,dotcolour,alfa,,,127,19,M,R,
545,41,41,12,4,36,44,900,['n'],1,right,['9'],5,192,[-0.09224618],87,44,hard,minus,dotcolour,alfa,,,127,19,M,R,
546,42,0,13,4,44,36,1117,['c'],1,left,['9'],5,178,[0.13510639],95,44,hard,minus,dotcolour,alfa,,,127,19,M,R,
547,43,1,13,4,33,47,634,['n'],1,right,['9'],5,179,[-0.14969017],96,47,medium,minus,dotcolour,alfa,,,127,19,M,R,
548,44,2,13,4,33,47,733,['n'],1,right,['8'],4,191,[-0.07367899],82,47,medium,minus,dotcolour,alfa,,,127,19,M,R,
549,45,3,13,4,27,53,734,['n'],1,right,['9'],5,211,[-0.05500106],75,53,easy,minus,dotcolour,alfa,,,127,19,M,R,
550,46,4,13,4,36,44,933,['n'],1,right,['8'],4,182,[-0.06725235],81,44,hard,minus,dotcolour,alfa,,,127,19,M,R,
551,47,5,13,4,27,53,734,['n'],1,right,['9'],5,260,[-0.13673402],92,53,easy,minus,dotcolour,alfa,,,127,19,M,R,
552,48,6,13,4,36,44,649,['n'],1,right,['8'],4,256,[-0.04836146],70,44,hard,minus,dotcolour,alfa,,,127,19,M,R,
553,49,7,13,4,53,27,1000,['c'],1,left,['0'],6,151,[0.14068095],96,53,easy,minus,dotcolour,alfa,,,127,19,M,R,
554,50,8,13,4,36,44,834,['n'],1,right,['8'],4,224,[-0.12290655],91,44,hard,minus,dotcolour,alfa,,,127,19,M,R,
555,51,9,13,4,44,36,1133,['c'],1,left,['8'],4,204,[0.16782555],97,44,hard,minus,dotcolour,alfa,,,127,19,M,R,
556,52,10,13,4,27,53,733,['n'],1,right,['9'],5,224,[-0.07209199],80,53,easy,minus,dotcolour,alfa,,,127,19,M,R,
557,53,11,13,4,36,44,1799,['c'],0,right,['8'],4,151,[0.10439011],92,44,hard,minus,dotcolour,alfa,,,127,19,M,R,
558,54,12,13,4,33,47,883,['n'],1,right,['9'],5,191,[-0.03442828],67,47,medium,minus,dotcolour,alfa,,,127,19,M,R,
559,55,13,13,4,47,33,649,['c'],1,left,['9'],5,191,[0.05878189],77,47,medium,minus,dotcolour,alfa,,,127,19,M,R,
560,56,14,13,4,36,44,849,['n'],1,right,['8'],4,190,[-0.10654623],90,44,hard,minus,dotcolour,alfa,,,127,19,M,R,
561,57,15,13,4,47,33,617,['c'],1,left,['9'],5,327,[0.07056078],75,47,medium,minus,dotcolour,alfa,,,127,19,M,R,
562,58,16,13,4,44,36,817,['c'],1,left,['8'],4,186,[0.13534919],94,44,hard,minus,dotcolour,alfa,,,127,19,M,R,
563,59,17,13,4,27,53,767,['n'],1,right,['9'],5,213,[-0.13923424],94,53,easy,minus,dotcolour,alfa,,,127,19,M,R,
564,60,18,13,4,44,36,1017,['c'],1,left,['9'],5,277,[-0.05243069],29,44,hard,minus,dotcolour,alfa,,,127,19,M,R,
565,61,19,13,4,53,27,717,['c'],1,left,['9'],5,159,[0.10158944],91,53,easy,minus,dotcolour,alfa,,,127,19,M,R,
566,62,20,13,4,36,44,833,['n'],1,right,['8'],4,376,[0.01476399],45,44,hard,minus,dotcolour,alfa,,,127,19,M,R,
567,63,21,13,4,33,47,600,['n'],1,right,['8'],4,226,[-0.16366021],96,47,medium,minus,dotcolour,alfa,,,127,19,M,R,
568,64,22,13,4,53,27,833,['c'],1,left,['9'],5,241,[0.0789254],81,53,easy,minus,dotcolour,alfa,,,127,19,M,R,
569,65,23,13,4,33,47,834,['n'],1,right,['8'],4,223,[-0.07652941],81,47,medium,minus,dotcolour,alfa,,,127,19,M,R,
570,66,24,13,4,27,53,1083,['n'],1,right,['9'],5,203,[-0.02341704],61,53,easy,minus,dotcolour,alfa,,,127,19,M,R,
571,67,25,13,4,53,27,767,['c'],1,left,['0'],6,238,[0.05619833],74,53,easy,minus,dotcolour,alfa,,,127,19,M,R,
572,68,26,13,4,53,27,800,['c'],1,left,['0'],6,206,[0.09497223],87,53,easy,minus,dotcolour,alfa,,,127,19,M,R,
573,69,27,13,4,44,36,916,['c'],1,left,['8'],4,194,[0.03571594],67,44,hard,minus,dotcolour,alfa,,,127,19,M,R,
574,70,28,13,4,27,53,683,['n'],1,right,['8'],4,200,[-0.12155513],92,53,easy,minus,dotcolour,alfa,,,127,19,M,R,
575,71,29,13,4,53,27,767,['c'],1,left,['9'],5,218,[0.09499447],86,53,easy,minus,dotcolour,alfa,,,127,19,M,R,
576,72,30,13,4,47,33,900,['c'],1,left,['8'],4,119,[0.06446974],84,47,medium,minus,dotcolour,alfa,,,127,19,M,R,
577,73,31,13,4,53,27,751,['c'],1,left,['9'],5,182,[0.10333853],90,53,easy,minus,dotcolour,alfa,,,127,19,M,R,
578,74,32,13,4,33,47,833,['n'],1,right,['8'],4,191,[-0.09815477],88,47,medium,minus,dotcolour,alfa,,,127,19,M,R,
579,75,33,13,4,47,33,651,['c'],1,left,['9'],5,207,[0.09644897],87,47,medium,minus,dotcolour,alfa,,,127,19,M,R,
580,76,34,13,4,33,47,800,['n'],1,right,['8'],4,167,[-0.1052251],91,47,medium,minus,dotcolour,alfa,,,127,19,M,R,
581,77,35,13,4,44,36,600,['c'],1,left,['8'],4,177,[0.09779993],89,44,hard,minus,dotcolour,alfa,,,127,19,M,R,
582,78,36,13,4,47,33,650,['c'],1,left,['8'],4,201,[0.10990723],90,47,medium,minus,dotcolour,alfa,,,127,19,M,R,
583,79,37,13,4,47,33,667,['c'],1,left,['8'],4,192,[0.07747939],83,47,medium,minus,dotcolour,alfa,,,127,19,M,R,
584,80,38,13,4,36,44,665,['n'],1,right,['8'],4,135,[-0.09490713],91,44,hard,minus,dotcolour,alfa,,,127,19,M,R,
585,81,39,13,4,47,33,567,['n'],0,left,['2'],2,3764,[0.50452504],9,47,medium,minus,dotcolour,alfa,,,127,19,M,R,
586,82,40,13,4,27,53,1150,['n'],1,right,['8'],4,575,[-0.19125775],91,53,easy,minus,dotcolour,alfa,,,127,19,M,R,
587,83,41,13,4,44,36,1200,['c'],1,left,['9'],5,233,[0.11953699],90,44,hard,minus,dotcolour,alfa,,,127,19,M,R,
588,84,0,14,4,33,47,1267,['n'],1,right,['8'],4,219,[-0.11519121],90,47,medium,minus,dotcolour,alfa,,,127,19,M,R,
589,85,1,14,4,36,44,717,['n'],1,right,['8'],4,215,[-0.09449307],86,44,hard,minus,dotcolour,alfa,,,127,19,M,R,
590,86,2,14,4,53,27,849,['c'],1,left,['9'],5,198,[0.1398966],94,53,easy,minus,dotcolour,alfa,,,127,19,M,R,
591,87,3,14,4,44,36,917,['c'],1,left,['8'],4,178,[0.1652869],97,44,hard,minus,dotcolour,alfa,,,127,19,M,R,
592,88,4,14,4,33,47,668,['n'],1,right,['8'],4,186,[-0.09592715],88,47,medium,minus,dotcolour,alfa,,,127,19,M,R,
593,89,5,14,4,53,27,1233,['c'],1,left,['9'],5,211,[0.16862868],96,53,easy,minus,dotcolour,alfa,,,127,19,M,R,
594,90,6,14,4,44,36,1417,['c'],1,left,['8'],4,234,[0.03722334],67,44,hard,minus,dotcolour,alfa,,,127,19,M,R,
595,91,7,14,4,27,53,817,['n'],1,right,['9'],5,234,[-0.10564979],88,53,easy,minus,dotcolour,alfa,,,127,19,M,R,
596,92,8,14,4,33,47,784,['n'],1,right,['9'],5,234,[-0.08138219],82,47,medium,minus,dotcolour,alfa,,,127,19,M,R,
597,93,9,14,4,53,27,801,['c'],1,left,['9'],5,210,[0.1114351],90,53,easy,minus,dotcolour,alfa,,,127,19,M,R,
598,94,10,14,4,44,36,650,['c'],1,left,['8'],4,201,[0.14386307],95,44,hard,minus,dotcolour,alfa,,,127,19,M,R,
599,95,11,14,4,36,44,617,['n'],1,right,['8'],4,250,[-0.1131939],88,44,hard,minus,dotcolour,alfa,,,127,19,M,R,
600,96,12,14,4,47,33,884,['c'],1,left,['9'],5,182,[0.09484529],88,47,medium,minus,dotcolour,alfa,,,127,19,M,R,
601,97,13,14,4,47,33,600,['c'],1,left,['8'],4,176,[0.05589357],77,47,medium,minus,dotcolour,alfa,,,127,19,M,R,
602,98,14,14,4,27,53,817,['n'],1,right,['8'],4,337,[-0.05286239],69,53,easy,minus,dotcolour,alfa,,,127,19,M,R,
603,99,15,14,4,44,36,783,['c'],1,left,['8'],4,150,[0.14120953],96,44,hard,minus,dotcolour,alfa,,,127,19,M,R,
604,100,16,14,4,36,44,1367,['c'],0,right,['8'],4,179,[0.07911292],84,44,hard,minus,dotcolour,alfa,,,127,19,M,R,
605,101,17,14,4,36,44,950,['c'],0,right,['8'],4,190,[0.11136656],91,44,hard,minus,dotcolour,alfa,,,127,19,M,R,
606,102,18,14,4,36,44,634,['n'],1,right,['8'],4,206,[-0.08688385],85,44,hard,minus,dotcolour,alfa,,,127,19,M,R,
607,103,19,14,4,44,36,700,['c'],1,left,['8'],4,203,[0.12871558],93,44,hard,minus,dotcolour,alfa,,,127,19,M,R,
608,104,20,14,4,53,27,2083,['c'],1,left,['0'],6,513,[0.24279884],95,53,easy,minus,dotcolour,alfa,,,127,19,M,R,
609,105,21,14,4,27,53,1933,['n'],1,right,['9'],5,624,[-0.18302751],89,53,easy,minus,dotcolour,alfa,,,127,19,M,R,
610,106,22,14,4,47,33,884,['c'],1,left,['9'],5,245,[0.10893026],88,47,medium,minus,dotcolour,alfa,,,127,19,M,R,
611,107,23,14,4,33,47,883,['n'],1,right,['8'],4,529,[-0.13458296],84,47,medium,minus,dotcolour,alfa,,,127,19,M,R,
612,108,24,14,4,33,47,684,['n'],1,right,['8'],4,202,[-0.12828606],93,47,medium,minus,dotcolour,alfa,,,127,19,M,R,
613,109,25,14,4,27,53,816,['n'],1,right,['9'],5,179,[-0.0982484],89,53,easy,minus,dotcolour,alfa,,,127,19,M,R,
614,110,26,14,4,44,36,767,['c'],1,left,['8'],4,190,[0.07655786],83,44,hard,minus,dotcolour,alfa,,,127,19,M,R,
615,111,27,14,4,33,47,950,['c'],0,right,['8'],4,161,[0.06631609],82,47,medium,minus,dotcolour,alfa,,,127,19,M,R,
616,112,28,14,4,53,27,717,['n'],0,left,['9'],5,592,[0.10952693],22,53,easy,minus,dotcolour,alfa,,,127,19,M,R,
617,113,29,14,4,47,33,2783,['c'],1,left,['9'],5,202,[0.07407798],82,47,medium,minus,dotcolour,alfa,,,127,19,M,R,
618,114,30,14,4,47,33,783,['c'],1,left,['9'],5,131,[0.05169939],78,47,medium,minus,dotcolour,alfa,,,127,19,M,R,
619,115,31,14,4,53,27,767,['c'],1,left,['9'],5,113,[0.11574244],96,53,easy,minus,dotcolour,alfa,,,127,19,M,R,
620,116,32,14,4,53,27,750,['c'],1,left,['9'],5,151,[0.02234457],63,53,easy,minus,dotcolour,alfa,,,127,19,M,R,
621,117,33,14,4,36,44,1484,['c'],0,right,['8'],4,160,[0.08623282],87,44,hard,minus,dotcolour,alfa,,,127,19,M,R,
622,118,34,14,4,44,36,667,['c'],1,left,['8'],4,224,[0.08094194],82,44,hard,minus,dotcolour,alfa,,,127,19,M,R,
623,119,35,14,4,27,53,834,['n'],1,right,['8'],4,206,[-0.09547076],87,53,easy,minus,dotcolour,alfa,,,127,19,M,R,
624,120,36,14,4,47,33,767,['c'],1,left,['9'],5,200,[0.08221374],84,47,medium,minus,dotcolour,alfa,,,127,19,M,R,
625,121,37,14,4,27,53,850,['n'],1,right,['8'],4,176,[-0.10540022],91,53,easy,minus,dotcolour,alfa,,,127,19,M,R,
626,122,38,14,4,33,47,716,['n'],1,right,['8'],4,198,[-0.09481822],87,47,medium,minus,dotcolour,alfa,,,127,19,M,R,
627,123,39,14,4,47,33,667,['c'],1,left,['9'],5,196,[0.08176298],84,47,medium,minus,dotcolour,alfa,,,127,19,M,R,
628,124,40,14,4,27,53,900,['n'],1,right,['9'],5,193,[-0.16404437],97,53,easy,minus,dotcolour,alfa,,,127,19,M,R,
629,125,41,14,4,36,44,850,['n'],1,right,['8'],4,225,[-0.04909429],72,44,hard,minus,dotcolour,alfa,,,127,19,M,R,
630,0,0,15,5,33,47,1035,['n'],1,right,['8'],4,202,[-0.155344],100,47,medium,plus,dotcolour,alfa,,,127,19,M,R,
631,1,1,15,5,33,47,1083,['n'],1,right,['8'],4,864,[-0.31648954],100,47,medium,plus,dotcolour,alfa,,,127,19,M,R,
632,2,2,15,5,27,53,700,['n'],1,right,['9'],5,195,[-0.13972697],100,53,easy,plus,dotcolour,alfa,,,127,19,M,R,
633,3,3,15,5,53,27,684,['c'],1,left,['0'],6,192,[-0.00632646],37,53,easy,plus,dotcolour,alfa,,,127,19,M,R,
634,4,4,15,5,44,36,817,['c'],1,left,['9'],5,169,[0.12911165],100,44,hard,plus,dotcolour,alfa,,,127,19,M,R,
635,5,5,15,5,36,44,1051,['n'],1,right,['8'],4,186,[-0.11184185],100,44,hard,plus,dotcolour,alfa,,,127,19,M,R,
636,6,6,15,5,36,44,750,['n'],1,right,['8'],4,182,[-0.06769235],100,44,hard,plus,dotcolour,alfa,,,127,19,M,R,
637,7,7,15,5,27,53,634,['n'],1,right,['9'],5,199,[-0.06754094],100,53,easy,plus,dotcolour,alfa,,,127,19,M,R,
638,8,8,15,5,47,33,783,['c'],1,left,['9'],5,169,[0.06015962],99,47,medium,plus,dotcolour,alfa,,,127,19,M,R,
639,9,9,15,5,36,44,1033,['c'],0,right,['8'],4,170,[0.04002003],97,44,hard,plus,dotcolour,alfa,,,127,19,M,R,
640,10,10,15,5,33,47,783,['n'],1,right,['8'],4,198,[-0.04471742],97,47,medium,plus,dotcolour,alfa,,,127,19,M,R,
641,11,11,15,5,53,27,767,['c'],1,left,['9'],5,208,[0.05116173],98,53,easy,plus,dotcolour,alfa,,,127,19,M,R,
642,12,12,15,5,33,47,833,['n'],1,right,['9'],5,184,[-0.10984359],100,47,medium,plus,dotcolour,alfa,,,127,19,M,R,
643,13,13,15,5,36,44,866,['n'],1,right,['8'],4,159,[-0.06376605],100,44,hard,plus,dotcolour,alfa,,,127,19,M,R,
644,14,14,15,5,44,36,684,['c'],1,left,['9'],5,198,[0.18699659],100,44,hard,plus,dotcolour,alfa,,,127,19,M,R,
645,15,15,15,5,33,47,1150,['c'],0,right,['8'],4,138,[0.03334237],96,47,medium,plus,dotcolour,alfa,,,127,19,M,R,
646,16,16,15,5,47,33,617,['c'],1,left,['8'],4,181,[0.09597915],100,47,medium,plus,dotcolour,alfa,,,127,19,M,R,
647,17,17,15,5,53,27,684,['c'],1,left,['9'],5,196,[0.04169402],97,53,easy,plus,dotcolour,alfa,,,127,19,M,R,
648,18,18,15,5,27,53,767,['n'],1,right,['9'],5,182,[-0.07857805],100,53,easy,plus,dotcolour,alfa,,,127,19,M,R,
649,19,19,15,5,44,36,700,['c'],1,left,['9'],5,196,[0.09779711],100,44,hard,plus,dotcolour,alfa,,,127,19,M,R,
650,20,20,15,5,44,36,733,['c'],1,left,['9'],5,200,[0.1219793],100,44,hard,plus,dotcolour,alfa,,,127,19,M,R,
651,21,21,15,5,36,44,966,['n'],1,right,['8'],4,188,[-0.0683797],100,44,hard,plus,dotcolour,alfa,,,127,19,M,R,
652,22,22,15,5,27,53,650,['n'],1,right,['9'],5,371,[-0.16444509],100,53,easy,plus,dotcolour,alfa,,,127,19,M,R,
653,23,23,15,5,27,53,617,['n'],1,right,['9'],5,236,[-0.15026393],100,53,easy,plus,dotcolour,alfa,,,127,19,M,R,
654,24,24,15,5,27,53,633,['n'],1,right,['9'],5,275,[-0.12894129],100,53,easy,plus,dotcolour,alfa,,,127,19,M,R,
655,25,25,15,5,27,53,635,['n'],1,right,['8'],4,344,[-0.0451066],94,53,easy,plus,dotcolour,alfa,,,127,19,M,R,
656,26,26,15,5,33,47,584,['n'],1,right,['8'],4,196,[-0.13698218],100,47,medium,plus,dotcolour,alfa,,,127,19,M,R,
657,27,27,15,5,47,33,967,['c'],1,left,['8'],4,118,[0.12159551],100,47,medium,plus,dotcolour,alfa,,,127,19,M,R,
658,28,28,15,5,53,27,717,['c'],1,left,['9'],5,318,[0.02795146],86,53,easy,plus,dotcolour,alfa,,,127,19,M,R,
659,29,29,15,5,47,33,800,['c'],1,left,['8'],4,211,[0.14025963],100,47,medium,plus,dotcolour,alfa,,,127,19,M,R,
660,30,30,15,5,44,36,917,['n'],0,left,['8'],4,175,[-0.09316652],100,44,hard,plus,dotcolour,alfa,,,127,19,M,R,
661,31,31,15,5,53,27,684,['c'],1,left,['9'],5,190,[0.13742775],100,53,easy,plus,dotcolour,alfa,,,127,19,M,R,
662,32,32,15,5,33,47,933,['n'],1,right,['8'],4,178,[-0.07525033],100,47,medium,plus,dotcolour,alfa,,,127,19,M,R,
663,33,33,15,5,44,36,750,['c'],1,left,['8'],4,318,[0.11188211],100,44,hard,plus,dotcolour,alfa,,,127,19,M,R,
664,34,34,15,5,47,33,717,['c'],1,left,['9'],5,334,[0.15170383],100,47,medium,plus,dotcolour,alfa,,,127,19,M,R,
665,35,35,15,5,53,27,584,['c'],1,left,['0'],6,307,[0.05684967],98,53,easy,plus,dotcolour,alfa,,,127,19,M,R,
666,36,36,15,5,36,44,817,['n'],1,right,['9'],5,287,[-0.11412715],100,44,hard,plus,dotcolour,alfa,,,127,19,M,R,
667,37,37,15,5,47,33,666,['c'],1,left,['9'],5,242,[0.08011685],100,47,medium,plus,dotcolour,alfa,,,127,19,M,R,
668,38,38,15,5,47,33,634,['c'],1,left,['8'],4,224,[0.03460276],93,47,medium,plus,dotcolour,alfa,,,127,19,M,R,
669,39,39,15,5,53,27,599,['c'],1,left,['8'],4,241,[0.11388348],100,53,easy,plus,dotcolour,alfa,,,127,19,M,R,
670,40,40,15,5,36,44,1568,['n'],1,right,['3'],3,616,[-0.20217553],100,44,hard,plus,dotcolour,alfa,,,127,19,M,R,
671,41,41,15,5,44,36,833,['c'],1,left,['8'],4,216,[-0.00296589],44,44,hard,plus,dotcolour,alfa,,,127,19,M,R,
672,42,0,16,5,53,27,1100,['c'],1,left,['8'],4,216,[0.1230229],100,53,easy,plus,dotcolour,alfa,,,127,19,M,R,
673,43,1,16,5,27,53,700,['n'],1,right,['9'],5,204,[-0.10723221],100,53,easy,plus,dotcolour,alfa,,,127,19,M,R,
674,44,2,16,5,47,33,818,['c'],1,left,['9'],5,149,[0.0490916],99,47,medium,plus,dotcolour,alfa,,,127,19,M,R,
675,45,3,16,5,47,33,750,['c'],1,left,['9'],5,146,[0.08246265],100,47,medium,plus,dotcolour,alfa,,,127,19,M,R,
676,46,4,16,5,36,44,984,['n'],1,right,['8'],4,182,[-0.06180988],99,44,hard,plus,dotcolour,alfa,,,127,19,M,R,
677,47,5,16,5,47,33,717,['c'],1,left,['8'],4,172,[0.10965228],100,47,medium,plus,dotcolour,alfa,,,127,19,M,R,
678,48,6,16,5,53,27,750,['c'],1,left,['9'],5,208,[0.14075417],100,53,easy,plus,dotcolour,alfa,,,127,19,M,R,
679,49,7,16,5,33,47,867,['n'],1,right,['8'],4,174,[-0.04421109],98,47,medium,plus,dotcolour,alfa,,,127,19,M,R,
680,50,8,16,5,44,36,2050,['c'],1,left,['8'],4,127,[0.07280351],100,44,hard,plus,dotcolour,alfa,,,127,19,M,R,
681,51,9,16,5,33,47,700,['n'],1,right,['8'],4,166,[-0.12669032],100,47,medium,plus,dotcolour,alfa,,,127,19,M,R,
682,52,10,16,5,27,53,717,['n'],1,right,['0'],6,381,[-0.12812678],100,53,easy,plus,dotcolour,alfa,,,127,19,M,R,
683,53,11,16,5,36,44,900,['n'],1,right,['8'],4,202,[-0.08103521],100,44,hard,plus,dotcolour,alfa,,,127,19,M,R,
684,54,12,16,5,47,33,950,['c'],1,left,['9'],5,214,[0.04688239],97,47,medium,plus,dotcolour,alfa,,,127,19,M,R,
685,55,13,16,5,44,36,983,['c'],1,left,['8'],4,232,[0.1760678],100,44,hard,plus,dotcolour,alfa,,,127,19,M,R,
686,56,14,16,5,27,53,834,['n'],1,right,['9'],5,198,[-0.08341497],100,53,easy,plus,dotcolour,alfa,,,127,19,M,R,
687,57,15,16,5,44,36,750,['c'],1,left,['9'],5,201,[0.09574794],100,44,hard,plus,dotcolour,alfa,,,127,19,M,R,
688,58,16,16,5,53,27,734,['c'],1,left,['0'],6,173,[0.12943323],100,53,easy,plus,dotcolour,alfa,,,127,19,M,R,
689,59,17,16,5,44,36,916,['c'],1,left,['8'],4,154,[0.01937446],86,44,hard,plus,dotcolour,alfa,,,127,19,M,R,
690,60,18,16,5,36,44,983,['n'],1,right,['8'],4,159,[-0.03306251],95,44,hard,plus,dotcolour,alfa,,,127,19,M,R,
691,61,19,16,5,47,33,750,['c'],1,left,['9'],5,267,[0.10752181],100,47,medium,plus,dotcolour,alfa,,,127,19,M,R,
692,62,20,16,5,33,47,866,['n'],1,right,['8'],4,167,[-0.09875054],100,47,medium,plus,dotcolour,alfa,,,127,19,M,R,
693,63,21,16,5,47,33,900,['c'],1,left,['0'],6,254,[0.05336035],98,47,medium,plus,dotcolour,alfa,,,127,19,M,R,
694,64,22,16,5,33,47,1116,['n'],1,right,['8'],4,193,[-0.04112388],97,47,medium,plus,dotcolour,alfa,,,127,19,M,R,
695,65,23,16,5,53,27,834,['c'],1,left,['0'],6,161,[0.10867842],100,53,easy,plus,dotcolour,alfa,,,127,19,M,R,
696,66,24,16,5,36,44,834,['n'],1,right,['9'],5,242,[-0.12524996],100,44,hard,plus,dotcolour,alfa,,,127,19,M,R,
697,67,25,16,5,27,53,1133,['n'],1,right,['0'],6,148,[-0.10927892],100,53,easy,plus,dotcolour,alfa,,,127,19,M,R,
698,68,26,16,5,47,33,783,['c'],1,left,['9'],5,256,[0.11565497],100,47,medium,plus,dotcolour,alfa,,,127,19,M,R,
699,69,27,16,5,33,47,801,['n'],1,right,['9'],5,223,[-0.13265353],100,47,medium,plus,dotcolour,alfa,,,127,19,M,R,
700,70,28,16,5,27,53,1033,['n'],1,right,['8'],4,198,[-0.13624084],100,53,easy,plus,dotcolour,alfa,,,127,19,M,R,
701,71,29,16,5,36,44,751,['c'],0,right,['8'],4,161,[0.09636369],100,44,hard,plus,dotcolour,alfa,,,127,19,M,R,
702,72,30,16,5,33,47,749,['n'],1,right,['8'],4,150,[-0.0079791],68,47,medium,plus,dotcolour,alfa,,,127,19,M,R,
703,73,31,16,5,44,36,900,['c'],1,left,['8'],4,165,[0.11881811],100,44,hard,plus,dotcolour,alfa,,,127,19,M,R,
704,74,32,16,5,27,53,683,['n'],1,right,['8'],4,300,[-0.18314147],100,53,easy,plus,dotcolour,alfa,,,127,19,M,R,
705,75,33,16,5,33,47,1017,['n'],1,right,['8'],4,225,[-0.11958743],100,47,medium,plus,dotcolour,alfa,,,127,19,M,R,
706,76,34,16,5,53,27,800,['c'],1,left,['9'],5,169,[0.13964938],100,53,easy,plus,dotcolour,alfa,,,127,19,M,R,
707,77,35,16,5,53,27,617,['c'],1,left,['0'],6,147,[0.1014099],100,53,easy,plus,dotcolour,alfa,,,127,19,M,R,
708,78,36,16,5,44,36,700,['c'],1,left,['9'],5,202,[0.03999403],96,44,hard,plus,dotcolour,alfa,,,127,19,M,R,
709,79,37,16,5,27,53,849,['n'],1,right,['8'],4,185,[-0.11707656],100,53,easy,plus,dotcolour,alfa,,,127,19,M,R,
710,80,38,16,5,36,44,883,['n'],1,right,['8'],4,168,[-0.06039834],100,44,hard,plus,dotcolour,alfa,,,127,19,M,R,
711,81,39,16,5,53,27,767,['c'],1,left,['9'],5,172,[0.07969666],100,53,easy,plus,dotcolour,alfa,,,127,19,M,R,
712,82,40,16,5,36,44,934,['n'],1,right,['8'],4,178,[-0.06612848],100,44,hard,plus,dotcolour,alfa,,,127,19,M,R,
713,83,41,16,5,44,36,700,['n'],0,left,['8'],4,119,[-0.0394108],98,44,hard,plus,dotcolour,alfa,,,127,19,M,R,
714,84,0,17,5,36,44,1350,['n'],1,right,['8'],4,340,[-0.09223363],100,44,hard,plus,dotcolour,alfa,,,127,19,M,R,
715,85,1,17,5,27,53,617,['n'],1,right,['9'],5,246,[-0.09097205],100,53,easy,plus,dotcolour,alfa,,,127,19,M,R,
716,86,2,17,5,44,36,767,['c'],1,left,['9'],5,191,[0.03549828],95,44,hard,plus,dotcolour,alfa,,,127,19,M,R,
717,87,3,17,5,47,33,633,['c'],1,left,['0'],6,295,[0.15608758],100,47,medium,plus,dotcolour,alfa,,,127,19,M,R,
718,88,4,17,5,44,36,750,['c'],1,left,['8'],4,167,[0.06434383],100,44,hard,plus,dotcolour,alfa,,,127,19,M,R,
719,89,5,17,5,27,53,717,['n'],1,right,['9'],5,205,[-0.16529031],100,53,easy,plus,dotcolour,alfa,,,127,19,M,R,
720,90,6,17,5,44,36,617,['c'],1,left,['9'],5,189,[0.05778487],99,44,hard,plus,dotcolour,alfa,,,127,19,M,R,
721,91,7,17,5,47,33,667,['c'],1,left,['8'],4,188,[0.16094643],100,47,medium,plus,dotcolour,alfa,,,127,19,M,R,
722,92,8,17,5,53,27,584,['c'],1,left,['9'],5,223,[0.05023976],98,53,easy,plus,dotcolour,alfa,,,127,19,M,R,
723,93,9,17,5,27,53,1084,['n'],1,right,['0'],6,180,[-0.06084936],99,53,easy,plus,dotcolour,alfa,,,127,19,M,R,
724,94,10,17,5,33,47,767,['n'],1,right,['8'],4,382,[-0.03409445],88,47,medium,plus,dotcolour,alfa,,,127,19,M,R,
725,95,11,17,5,53,27,1600,['c'],1,left,['9'],5,353,[0.12073531],100,53,easy,plus,dotcolour,alfa,,,127,19,M,R,
726,96,12,17,5,53,27,717,['c'],1,left,['9'],5,144,[0.05923406],100,53,easy,plus,dotcolour,alfa,,,127,19,M,R,
727,97,13,17,5,44,36,617,['c'],1,left,['9'],5,163,[0.05028878],99,44,hard,plus,dotcolour,alfa,,,127,19,M,R,
728,98,14,17,5,53,27,634,['c'],1,left,['0'],6,252,[0.1573175],100,53,easy,plus,dotcolour,alfa,,,127,19,M,R,
729,99,15,17,5,27,53,634,['n'],1,right,['0'],6,153,[-0.1657288],100,53,easy,plus,dotcolour,alfa,,,127,19,M,R,
730,100,16,17,5,53,27,750,['c'],1,left,['0'],6,167,[0.10491485],100,53,easy,plus,dotcolour,alfa,,,127,19,M,R,
731,101,17,17,5,53,27,834,['c'],1,left,['0'],6,136,[0.13000925],100,53,easy,plus,dotcolour,alfa,,,127,19,M,R,
732,102,18,17,5,33,47,884,['n'],1,right,['9'],5,121,[-0.12226556],100,47,medium,plus,dotcolour,alfa,,,127,19,M,R,
733,103,19,17,5,44,36,1433,['c'],1,left,['8'],4,108,[0.12211509],100,44,hard,plus,dotcolour,alfa,,,127,19,M,R,
734,104,20,17,5,47,33,599,['c'],1,left,['9'],5,226,[0.08247737],100,47,medium,plus,dotcolour,alfa,,,127,19,M,R,
735,105,21,17,5,33,47,883,['c'],0,right,['8'],4,166,[0.06816638],100,47,medium,plus,dotcolour,alfa,,,127,19,M,R,
736,106,22,17,5,44,36,750,['c'],1,left,['8'],4,154,[0.08937458],100,44,hard,plus,dotcolour,alfa,,,127,19,M,R,
737,107,23,17,5,47,33,633,['c'],1,left,['8'],4,204,[0.07485084],100,47,medium,plus,dotcolour,alfa,,,127,19,M,R,
738,108,24,17,5,36,44,967,['n'],1,right,['8'],4,215,[-0.05084832],98,44,hard,plus,dotcolour,alfa,,,127,19,M,R,
739,109,25,17,5,47,33,800,['n'],0,left,['8'],4,216,[-0.01132738],71,47,medium,plus,dotcolour,alfa,,,127,19,M,R,
740,110,26,17,5,47,33,916,['c'],1,left,['8'],4,188,[0.08222157],100,47,medium,plus,dotcolour,alfa,,,127,19,M,R,
741,111,27,17,5,36,44,700,['n'],1,right,['9'],5,210,[-0.06194525],99,44,hard,plus,dotcolour,alfa,,,127,19,M,R,
742,112,28,17,5,33,47,767,['n'],1,right,['8'],4,180,[0.00747015],35,47,medium,plus,dotcolour,alfa,,,127,19,M,R,
743,113,29,17,5,33,47,668,['n'],1,right,['8'],4,171,[-0.1105944],100,47,medium,plus,dotcolour,alfa,,,127,19,M,R,
744,114,30,17,5,36,44,734,['n'],1,right,['8'],4,193,[-0.04856382],98,44,hard,plus,dotcolour,alfa,,,127,19,M,R,
745,115,31,17,5,27,53,701,['n'],1,right,['8'],4,342,[-0.15357537],100,53,easy,plus,dotcolour,alfa,,,127,19,M,R,
746,116,32,17,5,36,44,800,['n'],1,right,['8'],4,145,[-0.10464839],100,44,hard,plus,dotcolour,alfa,,,127,19,M,R,
747,117,33,17,5,47,33,850,['c'],1,left,['9'],5,210,[0.08809441],100,47,medium,plus,dotcolour,alfa,,,127,19,M,R,
748,118,34,17,5,33,47,700,['n'],1,right,['8'],4,167,[0.00691469],35,47,medium,plus,dotcolour,alfa,,,127,19,M,R,
749,119,35,17,5,33,47,666,['n'],1,right,['9'],5,215,[-0.0976322],100,47,medium,plus,dotcolour,alfa,,,127,19,M,R,
750,120,36,17,5,27,53,734,['n'],1,right,['8'],4,154,[-0.13543546],100,53,easy,plus,dotcolour,alfa,,,127,19,M,R,
751,121,37,17,5,53,27,884,['c'],1,left,['0'],6,106,[0.10286125],100,53,easy,plus,dotcolour,alfa,,,127,19,M,R,
752,122,38,17,5,36,44,717,['n'],1,right,['8'],4,154,[-0.09259204],100,44,hard,plus,dotcolour,alfa,,,127,19,M,R,
753,123,39,17,5,36,44,1034,['n'],1,right,['8'],4,173,[-0.06232951],100,44,hard,plus,dotcolour,alfa,,,127,19,M,R,
754,124,40,17,5,44,36,867,['c'],1,left,['9'],5,124,[0.08366012],100,44,hard,plus,dotcolour,alfa,,,127,19,M,R,
755,125,41,17,5,27,53,884,['n'],1,right,['9'],5,181,[-0.09048488],100,53,easy,plus,dotcolour,alfa,,,127,19,M,R,
,,,,,,,,,,,,,,,,,,,,,1,nee,127,19,M,R,
,,,,,,,,,,,,,,,,,,,,,2,['h'],127,19,M,R,
,,,,,,,,,,,,,,,,,,,,,3,['g'],127,19,M,R,
,,,,,,,,,,,,,,,,,,,,,5,['5'],127,19,M,R,
