trial,withinphasetrial,withinblocktrial,block,phase,dotsLeft,dotsRight,rt,resp,cor,cresp,conf_press,cj,RTconf,ev,fb,diff,difflevel,condition,task,manip,questionID,questionResp,sub,age,gender,handedness,
0,0,0,0,0,44,36,1449,['n'],0,left,['9'],5,2511,[0.08292013],17,44,hard,minus,dotcolour,beta,,,27,18,V,R,
1,1,1,0,0,47,33,4682,['c'],1,left,['1'],1,1511,[-0.09043716],11,47,medium,minus,dotcolour,beta,,,27,18,V,R,
2,2,2,0,0,53,27,1597,['c'],1,left,['0'],6,563,[0.16379134],93,53,easy,minus,dotcolour,beta,,,27,18,V,R,
3,3,3,0,0,53,27,1282,['c'],1,left,['0'],6,547,[0.17933224],95,53,easy,minus,dotcolour,beta,,,27,18,V,R,
4,4,4,0,0,27,53,700,['n'],1,right,['0'],6,410,[-0.10189842],79,53,easy,minus,dotcolour,beta,,,27,18,V,R,
5,5,5,0,0,27,53,2348,['n'],1,right,['8'],4,604,[-0.21246265],97,53,easy,minus,dotcolour,beta,,,27,18,V,R,
6,6,6,0,0,33,47,716,['n'],1,right,['0'],6,344,[-0.04593681],43,47,medium,minus,dotcolour,beta,,,27,18,V,R,
7,7,7,0,0,53,27,797,['c'],1,left,['0'],6,668,[0.09832349],72,53,easy,minus,dotcolour,beta,,,27,18,V,R,
8,8,8,0,0,44,36,832,['c'],1,left,['0'],6,385,[0.23019704],99,44,hard,minus,dotcolour,beta,,,27,18,V,R,
9,9,9,0,0,33,47,2782,['c'],0,right,['3'],3,1267,[-0.12303796],5,47,medium,minus,dotcolour,beta,,,27,18,V,R,
10,10,10,0,0,36,44,1150,['n'],1,right,['9'],5,708,[-0.10351418],74,44,hard,minus,dotcolour,beta,,,27,18,V,R,
11,11,11,0,0,44,36,2132,['c'],1,left,['9'],5,323,[0.07810517],67,44,hard,minus,dotcolour,beta,,,27,18,V,R,
12,12,12,0,0,44,36,1066,['n'],0,left,['9'],5,308,[0.01640035],9,44,hard,minus,dotcolour,beta,,,27,18,V,R,
13,13,13,0,0,33,47,1948,['n'],1,right,['8'],4,451,[0.01526715],13,47,medium,minus,dotcolour,beta,,,27,18,V,R,
14,14,14,0,0,53,27,749,['c'],1,left,['0'],6,483,[0.247349],99,53,easy,minus,dotcolour,beta,,,27,18,V,R,
15,15,15,0,0,47,33,1163,['c'],1,left,['0'],6,203,[0.12018943],93,47,medium,minus,dotcolour,beta,,,27,18,V,R,
16,16,16,0,0,27,53,816,['n'],1,right,['0'],6,300,[-0.1643983],97,53,easy,minus,dotcolour,beta,,,27,18,V,R,
17,17,17,0,0,47,33,649,['c'],1,left,['0'],6,295,[0.06451524],57,47,medium,minus,dotcolour,beta,,,27,18,V,R,
18,18,18,0,0,33,47,1049,['c'],0,right,['3'],3,850,[-0.03532081],15,47,medium,minus,dotcolour,beta,,,27,18,V,R,
19,19,19,0,0,47,33,699,['n'],0,left,['0'],6,349,[0.02275561],8,47,medium,minus,dotcolour,beta,,,27,18,V,R,
20,20,20,0,0,36,44,1214,['n'],1,right,['0'],6,352,[-0.13368809],91,44,hard,minus,dotcolour,beta,,,27,18,V,R,
21,21,21,0,0,36,44,1664,['c'],0,right,['3'],3,473,[0.10222801],77,44,hard,minus,dotcolour,beta,,,27,18,V,R,
22,22,22,0,0,53,27,731,['c'],1,left,['0'],6,489,[0.10444291],78,53,easy,minus,dotcolour,beta,,,27,18,V,R,
23,23,23,0,0,36,44,1282,['c'],0,right,['9'],5,403,[-0.0353998],7,44,hard,minus,dotcolour,beta,,,27,18,V,R,
24,24,24,0,0,36,44,1382,['n'],1,right,['0'],6,405,[-0.11160149],83,44,hard,minus,dotcolour,beta,,,27,18,V,R,
25,25,25,0,0,47,33,766,['c'],1,left,['0'],6,336,[0.11962725],88,47,medium,minus,dotcolour,beta,,,27,18,V,R,
26,26,26,0,0,27,53,664,['n'],1,right,['0'],6,537,[-0.14635432],90,53,easy,minus,dotcolour,beta,,,27,18,V,R,
27,27,27,0,0,27,53,765,['n'],1,right,['0'],6,317,[-0.10559968],83,53,easy,minus,dotcolour,beta,,,27,18,V,R,
28,28,28,0,0,33,47,782,['n'],1,right,['0'],6,426,[-0.17209429],96,47,medium,minus,dotcolour,beta,,,27,18,V,R,
29,29,29,0,0,53,27,497,['c'],1,left,['0'],6,358,[0.16605953],97,53,easy,minus,dotcolour,beta,,,27,18,V,R,
30,30,30,0,0,36,44,1665,['n'],1,right,['3'],3,326,[-0.15926448],96,44,hard,minus,dotcolour,beta,,,27,18,V,R,
31,31,31,0,0,44,36,1317,['c'],1,left,['9'],5,502,[0.15012229],92,44,hard,minus,dotcolour,beta,,,27,18,V,R,
32,32,32,0,0,53,27,666,['n'],0,left,['1'],1,1128,[0.16323438],2,53,easy,minus,dotcolour,beta,,,27,18,V,R,
33,33,33,0,0,36,44,998,['c'],0,right,['9'],5,564,[-0.02943332],12,44,hard,minus,dotcolour,beta,,,27,18,V,R,
34,34,34,0,0,44,36,983,['c'],1,left,['9'],5,536,[0.00522219],22,44,hard,minus,dotcolour,beta,,,27,18,V,R,
35,35,35,0,0,27,53,782,['n'],1,right,['0'],6,315,[-0.08088072],69,53,easy,minus,dotcolour,beta,,,27,18,V,R,
36,36,36,0,0,47,33,866,['c'],1,left,['9'],5,270,[0.16152561],98,47,medium,minus,dotcolour,beta,,,27,18,V,R,
37,37,37,0,0,27,53,616,['n'],1,right,['0'],6,436,[-0.12908176],88,53,easy,minus,dotcolour,beta,,,27,18,V,R,
38,38,38,0,0,44,36,700,['c'],1,left,['0'],6,391,[0.07389974],63,44,hard,minus,dotcolour,beta,,,27,18,V,R,
39,39,39,0,0,33,47,681,['n'],1,right,['0'],6,342,[0.02697952],7,47,medium,minus,dotcolour,beta,,,27,18,V,R,
40,40,40,0,0,47,33,949,['c'],1,left,['0'],6,355,[0.13124425],91,47,medium,minus,dotcolour,beta,,,27,18,V,R,
41,41,41,0,0,33,47,848,['n'],1,right,['0'],6,332,[-0.11988512],88,47,medium,minus,dotcolour,beta,,,27,18,V,R,
42,42,0,1,0,27,53,633,['n'],1,right,['9'],5,407,[-0.11912769],86,53,easy,minus,dotcolour,beta,,,27,18,V,R,
43,43,1,1,0,27,53,566,['n'],1,right,['9'],5,321,[-0.07235933],63,53,easy,minus,dotcolour,beta,,,27,18,V,R,
44,44,2,1,0,53,27,515,['c'],1,left,['9'],5,425,[0.1778639],97,53,easy,minus,dotcolour,beta,,,27,18,V,R,
45,45,3,1,0,33,47,1966,['n'],1,right,['9'],5,322,[-0.16341563],97,47,medium,minus,dotcolour,beta,,,27,18,V,R,
46,46,4,1,0,47,33,564,['c'],1,left,['9'],5,296,[0.09169911],77,47,medium,minus,dotcolour,beta,,,27,18,V,R,
47,47,5,1,0,53,27,615,['c'],1,left,['0'],6,316,[0.09207839],76,53,easy,minus,dotcolour,beta,,,27,18,V,R,
48,48,6,1,0,36,44,1449,['c'],0,right,['8'],4,895,[-0.05472159],11,44,hard,minus,dotcolour,beta,,,27,18,V,R,
49,49,7,1,0,33,47,1098,['n'],1,right,['0'],6,400,[-0.09470224],75,47,medium,minus,dotcolour,beta,,,27,18,V,R,
50,50,8,1,0,44,36,798,['c'],1,left,['0'],6,322,[0.0689361],60,44,hard,minus,dotcolour,beta,,,27,18,V,R,
51,51,9,1,0,44,36,1115,['c'],1,left,['0'],6,241,[0.08652783],76,44,hard,minus,dotcolour,beta,,,27,18,V,R,
52,52,10,1,0,53,27,516,['n'],0,left,['0'],6,268,[-0.06859802],61,53,easy,minus,dotcolour,beta,,,27,18,V,R,
53,53,11,1,0,53,27,598,['n'],0,left,['1'],1,843,[0.0590498],10,53,easy,minus,dotcolour,beta,,,27,18,V,R,
54,54,12,1,0,44,36,1132,['c'],1,left,['2'],2,1028,[-0.01237333],23,44,hard,minus,dotcolour,beta,,,27,18,V,R,
55,55,13,1,0,53,27,798,['c'],1,left,['0'],6,389,[0.24687889],100,53,easy,minus,dotcolour,beta,,,27,18,V,R,
56,56,14,1,0,36,44,698,['n'],1,right,['0'],6,227,[-0.08197667],73,44,hard,minus,dotcolour,beta,,,27,18,V,R,
57,57,15,1,0,44,36,1549,['c'],1,left,['9'],5,388,[0.19334301],98,44,hard,minus,dotcolour,beta,,,27,18,V,R,
58,58,16,1,0,47,33,664,['n'],0,left,['1'],1,780,[0.01821875],18,47,medium,minus,dotcolour,beta,,,27,18,V,R,
59,59,17,1,0,27,53,1832,['c'],0,right,['8'],4,757,[0.00263432],25,53,easy,minus,dotcolour,beta,,,27,18,V,R,
60,60,18,1,0,44,36,2732,['c'],1,left,['0'],6,666,[0.06565099],56,44,hard,minus,dotcolour,beta,,,27,18,V,R,
61,61,19,1,0,36,44,2432,['n'],1,right,['9'],5,447,[-0.15164168],93,44,hard,minus,dotcolour,beta,,,27,18,V,R,
62,62,20,1,0,47,33,798,['c'],1,left,['9'],5,663,[0.14501529],88,47,medium,minus,dotcolour,beta,,,27,18,V,R,
63,63,21,1,0,36,44,1498,['c'],0,right,['9'],5,594,[-0.00855634],18,44,hard,minus,dotcolour,beta,,,27,18,V,R,
64,64,22,1,0,33,47,832,['c'],0,right,['2'],2,1905,[-0.07731432],15,47,medium,minus,dotcolour,beta,,,27,18,V,R,
65,65,23,1,0,44,36,964,['c'],1,left,['0'],6,398,[0.12849126],89,44,hard,minus,dotcolour,beta,,,27,18,V,R,
66,66,24,1,0,27,53,666,['n'],1,right,['0'],6,309,[-0.04697102],43,53,easy,minus,dotcolour,beta,,,27,18,V,R,
67,67,25,1,0,27,53,1098,['n'],1,right,['0'],6,350,[-0.111214],84,53,easy,minus,dotcolour,beta,,,27,18,V,R,
68,68,26,1,0,47,33,715,['c'],1,left,['0'],6,365,[0.00831255],20,47,medium,minus,dotcolour,beta,,,27,18,V,R,
69,69,27,1,0,53,27,1165,['c'],1,left,['0'],6,240,[0.16073823],98,53,easy,minus,dotcolour,beta,,,27,18,V,R,
70,70,28,1,0,33,47,1715,['n'],1,right,['0'],6,452,[0.01719892],12,47,medium,minus,dotcolour,beta,,,27,18,V,R,
71,71,29,1,0,36,44,1848,['c'],0,right,['8'],4,841,[0.09474592],68,44,hard,minus,dotcolour,beta,,,27,18,V,R,
72,72,30,1,0,33,47,1432,['n'],1,right,['8'],4,446,[-0.05415615],49,47,medium,minus,dotcolour,beta,,,27,18,V,R,
73,73,31,1,0,36,44,1232,['n'],1,right,['8'],4,380,[-0.04724246],44,44,hard,minus,dotcolour,beta,,,27,18,V,R,
74,74,32,1,0,36,44,914,['n'],1,right,['8'],4,338,[-0.05270845],48,44,hard,minus,dotcolour,beta,,,27,18,V,R,
75,75,33,1,0,47,33,1016,['c'],1,left,['0'],6,381,[0.03703665],37,47,medium,minus,dotcolour,beta,,,27,18,V,R,
76,76,34,1,0,33,47,999,['n'],1,right,['8'],4,351,[-0.187534],98,47,medium,minus,dotcolour,beta,,,27,18,V,R,
77,77,35,1,0,47,33,865,['c'],1,left,['8'],4,455,[0.0375371],38,47,medium,minus,dotcolour,beta,,,27,18,V,R,
78,78,36,1,0,44,36,900,['c'],1,left,['8'],4,1058,[0.0273696],38,44,hard,minus,dotcolour,beta,,,27,18,V,R,
79,79,37,1,0,53,27,882,['c'],1,left,['0'],6,229,[0.17191356],99,53,easy,minus,dotcolour,beta,,,27,18,V,R,
80,80,38,1,0,27,53,781,['n'],1,right,['0'],6,230,[-0.11909317],92,53,easy,minus,dotcolour,beta,,,27,18,V,R,
81,81,39,1,0,33,47,1266,['n'],1,right,['0'],6,268,[-0.12034153],90,47,medium,minus,dotcolour,beta,,,27,18,V,R,
82,82,40,1,0,47,33,731,['c'],1,left,['0'],6,261,[0.03120432],30,47,medium,minus,dotcolour,beta,,,27,18,V,R,
83,83,41,1,0,27,53,1265,['n'],1,right,['0'],6,257,[-0.1145566],89,53,easy,minus,dotcolour,beta,,,27,18,V,R,
84,84,0,2,0,27,53,716,['n'],1,right,['9'],5,815,[-0.31747359],99,53,easy,minus,dotcolour,beta,,,27,18,V,R,
85,85,1,2,0,47,33,699,['c'],1,left,['9'],5,380,[0.06439399],56,47,medium,minus,dotcolour,beta,,,27,18,V,R,
86,86,2,2,0,47,33,497,['c'],1,left,['9'],5,323,[0.13222796],92,47,medium,minus,dotcolour,beta,,,27,18,V,R,
87,87,3,2,0,44,36,1483,['c'],1,left,['9'],5,283,[0.13911669],94,44,hard,minus,dotcolour,beta,,,27,18,V,R,
88,88,4,2,0,47,33,967,['c'],1,left,['9'],5,226,[0.05465152],49,47,medium,minus,dotcolour,beta,,,27,18,V,R,
89,89,5,2,0,27,53,499,['n'],1,right,['0'],6,342,[-0.11480823],86,53,easy,minus,dotcolour,beta,,,27,18,V,R,
90,90,6,2,0,27,53,550,['n'],1,right,['0'],6,307,[-0.07693393],67,53,easy,minus,dotcolour,beta,,,27,18,V,R,
91,91,7,2,0,33,47,1199,['n'],1,right,['0'],6,200,[-0.08330924],75,47,medium,minus,dotcolour,beta,,,27,18,V,R,
92,92,8,2,0,27,53,834,['n'],1,right,['0'],6,264,[-0.10963691],87,53,easy,minus,dotcolour,beta,,,27,18,V,R,
93,93,9,2,0,53,27,816,['c'],1,left,['0'],6,174,[0.05751074],52,53,easy,minus,dotcolour,beta,,,27,18,V,R,
94,94,10,2,0,33,47,1082,['c'],0,right,['0'],6,189,[0.04931852],44,47,medium,minus,dotcolour,beta,,,27,18,V,R,
95,95,11,2,0,44,36,1931,['c'],1,left,['9'],5,530,[0.14164],89,44,hard,minus,dotcolour,beta,,,27,18,V,R,
96,96,12,2,0,36,44,1764,['c'],0,right,['9'],5,296,[0.08613477],73,44,hard,minus,dotcolour,beta,,,27,18,V,R,
97,97,13,2,0,36,44,999,['c'],0,right,['9'],5,172,[0.10985656],91,44,hard,minus,dotcolour,beta,,,27,18,V,R,
98,98,14,2,0,47,33,617,['c'],1,left,['9'],5,182,[0.09580018],85,47,medium,minus,dotcolour,beta,,,27,18,V,R,
99,99,15,2,0,53,27,616,['c'],1,left,['0'],6,271,[0.06140746],55,53,easy,minus,dotcolour,beta,,,27,18,V,R,
100,100,16,2,0,36,44,698,['n'],1,right,['0'],6,266,[-0.01429593],19,44,hard,minus,dotcolour,beta,,,27,18,V,R,
101,101,17,2,0,53,27,632,['c'],1,left,['9'],5,335,[0.11613701],87,53,easy,minus,dotcolour,beta,,,27,18,V,R,
102,102,18,2,0,44,36,632,['c'],1,left,['0'],6,378,[0.14533038],93,44,hard,minus,dotcolour,beta,,,27,18,V,R,
103,103,19,2,0,47,33,682,['n'],0,left,['0'],6,305,[-0.00301087],15,47,medium,minus,dotcolour,beta,,,27,18,V,R,
104,104,20,2,0,47,33,764,['c'],1,left,['0'],6,382,[0.15663422],95,47,medium,minus,dotcolour,beta,,,27,18,V,R,
105,105,21,2,0,36,44,766,['n'],1,right,['0'],6,273,[-0.0951068],80,44,hard,minus,dotcolour,beta,,,27,18,V,R,
106,106,22,2,0,27,53,781,['n'],1,right,['0'],6,304,[-0.14747842],95,53,easy,minus,dotcolour,beta,,,27,18,V,R,
107,107,23,2,0,53,27,599,['c'],1,left,['0'],6,357,[0.14661321],94,53,easy,minus,dotcolour,beta,,,27,18,V,R,
108,108,24,2,0,44,36,498,['c'],1,left,['0'],6,324,[0.07232568],63,44,hard,minus,dotcolour,beta,,,27,18,V,R,
109,109,25,2,0,44,36,598,['c'],1,left,['9'],5,328,[0.06936756],61,44,hard,minus,dotcolour,beta,,,27,18,V,R,
110,110,26,2,0,33,47,698,['n'],1,right,['0'],6,240,[-0.02045118],22,47,medium,minus,dotcolour,beta,,,27,18,V,R,
111,111,27,2,0,44,36,932,['c'],1,left,['9'],5,234,[0.13311842],95,44,hard,minus,dotcolour,beta,,,27,18,V,R,
112,112,28,2,0,33,47,715,['n'],1,right,['9'],5,350,[-0.0998383],79,47,medium,minus,dotcolour,beta,,,27,18,V,R,
113,113,29,2,0,36,44,581,['c'],0,right,['9'],5,218,[0.03800492],34,44,hard,minus,dotcolour,beta,,,27,18,V,R,
114,114,30,2,0,36,44,768,['c'],0,right,['9'],5,275,[0.01246555],19,44,hard,minus,dotcolour,beta,,,27,18,V,R,
115,115,31,2,0,36,44,883,['n'],1,right,['9'],5,254,[-0.0703171],63,44,hard,minus,dotcolour,beta,,,27,18,V,R,
116,116,32,2,0,53,27,530,['c'],1,left,['9'],5,200,[0.07843965],72,53,easy,minus,dotcolour,beta,,,27,18,V,R,
117,117,33,2,0,53,27,734,['c'],1,left,['9'],5,140,[0.0728982],70,53,easy,minus,dotcolour,beta,,,27,18,V,R,
118,118,34,2,0,27,53,783,['n'],1,right,['0'],6,152,[-0.11199716],93,53,easy,minus,dotcolour,beta,,,27,18,V,R,
119,119,35,2,0,53,27,564,['c'],1,left,['9'],5,245,[0.13868709],95,53,easy,minus,dotcolour,beta,,,27,18,V,R,
120,120,36,2,0,44,36,1116,['c'],1,left,['3'],3,119,[0.04835287],41,44,hard,minus,dotcolour,beta,,,27,18,V,R,
121,121,37,2,0,33,47,631,['n'],1,right,['9'],5,299,[-0.06498756],58,47,medium,minus,dotcolour,beta,,,27,18,V,R,
122,122,38,2,0,47,33,933,['c'],1,left,['9'],5,203,[0.11091517],90,47,medium,minus,dotcolour,beta,,,27,18,V,R,
123,123,39,2,0,33,47,683,['n'],1,right,['9'],5,169,[-0.08791682],80,47,medium,minus,dotcolour,beta,,,27,18,V,R,
124,124,40,2,0,27,53,600,['n'],1,right,['9'],5,219,[-0.13470026],95,53,easy,minus,dotcolour,beta,,,27,18,V,R,
125,125,41,2,0,33,47,498,['n'],1,right,['9'],5,144,[-0.1010204],90,47,medium,minus,dotcolour,beta,,,27,18,V,R,
126,0,0,3,1,36,44,815,['c'],0,right,['9'],5,294,[0.08996904],99,44,hard,plus,dotcolour,beta,,,27,18,V,R,
127,1,1,3,1,36,44,732,['n'],1,right,['1'],1,1142,[-0.24620309],99,44,hard,plus,dotcolour,beta,,,27,18,V,R,
128,2,2,3,1,44,36,1065,['n'],0,left,['0'],6,231,[-0.00415023],90,44,hard,plus,dotcolour,beta,,,27,18,V,R,
129,3,3,3,1,53,27,981,['c'],1,left,['0'],6,207,[0.16541446],100,53,easy,plus,dotcolour,beta,,,27,18,V,R,
130,4,4,3,1,44,36,647,['c'],1,left,['8'],4,1158,[0.24119581],99,44,hard,plus,dotcolour,beta,,,27,18,V,R,
131,5,5,3,1,53,27,815,['c'],1,left,['0'],6,752,[0.17201026],99,53,easy,plus,dotcolour,beta,,,27,18,V,R,
132,6,6,3,1,53,27,682,['c'],1,left,['0'],6,176,[0.0977619],100,53,easy,plus,dotcolour,beta,,,27,18,V,R,
133,7,7,3,1,44,36,933,['n'],0,left,['8'],4,381,[0.00458304],82,44,hard,plus,dotcolour,beta,,,27,18,V,R,
134,8,8,3,1,33,47,1283,['c'],0,right,['8'],4,404,[0.07075736],97,47,medium,plus,dotcolour,beta,,,27,18,V,R,
135,9,9,3,1,44,36,715,['c'],1,left,['9'],5,376,[0.14338145],100,44,hard,plus,dotcolour,beta,,,27,18,V,R,
136,10,10,3,1,47,33,599,['c'],1,left,['9'],5,209,[0.13375201],100,47,medium,plus,dotcolour,beta,,,27,18,V,R,
137,11,11,3,1,27,53,816,['n'],1,right,['0'],6,194,[-0.05337121],99,53,easy,plus,dotcolour,beta,,,27,18,V,R,
138,12,12,3,1,44,36,965,['c'],1,left,['8'],4,588,[0.17390476],100,44,hard,plus,dotcolour,beta,,,27,18,V,R,
139,13,13,3,1,33,47,916,['n'],1,right,['9'],5,417,[-0.11595909],99,47,medium,plus,dotcolour,beta,,,27,18,V,R,
140,14,14,3,1,36,44,1100,['n'],1,right,['0'],6,493,[-0.24293258],100,44,hard,plus,dotcolour,beta,,,27,18,V,R,
141,15,15,3,1,47,33,850,['c'],1,left,['0'],6,209,[0.09293449],100,47,medium,plus,dotcolour,beta,,,27,18,V,R,
142,16,16,3,1,47,33,1065,['c'],1,left,['9'],5,191,[0.09035591],100,47,medium,plus,dotcolour,beta,,,27,18,V,R,
143,17,17,3,1,44,36,1317,['c'],1,left,['9'],5,228,[0.06254329],99,44,hard,plus,dotcolour,beta,,,27,18,V,R,
144,18,18,3,1,27,53,798,['n'],1,right,['0'],6,204,[-0.06758357],99,53,easy,plus,dotcolour,beta,,,27,18,V,R,
145,19,19,3,1,36,44,799,['n'],1,right,['9'],5,269,[-0.04362613],97,44,hard,plus,dotcolour,beta,,,27,18,V,R,
146,20,20,3,1,47,33,665,['c'],1,left,['0'],6,249,[0.0207685],94,47,medium,plus,dotcolour,beta,,,27,18,V,R,
147,21,21,3,1,36,44,963,['c'],0,right,['8'],4,226,[0.03493186],97,44,hard,plus,dotcolour,beta,,,27,18,V,R,
148,22,22,3,1,27,53,565,['n'],1,right,['9'],5,203,[-0.02858698],97,53,easy,plus,dotcolour,beta,,,27,18,V,R,
149,23,23,3,1,33,47,714,['n'],1,right,['9'],5,319,[-0.09211972],99,47,medium,plus,dotcolour,beta,,,27,18,V,R,
150,24,24,3,1,33,47,1265,['n'],1,right,['9'],5,289,[-0.109508],100,47,medium,plus,dotcolour,beta,,,27,18,V,R,
151,25,25,3,1,27,53,1298,['c'],0,right,['9'],5,235,[0.04099944],97,53,easy,plus,dotcolour,beta,,,27,18,V,R,
152,26,26,3,1,27,53,582,['n'],1,right,['9'],5,220,[-0.16484519],100,53,easy,plus,dotcolour,beta,,,27,18,V,R,
153,27,27,3,1,33,47,1231,['n'],1,right,['0'],6,251,[-0.11214391],100,47,medium,plus,dotcolour,beta,,,27,18,V,R,
154,28,28,3,1,53,27,649,['c'],1,left,['0'],6,232,[0.08764667],100,53,easy,plus,dotcolour,beta,,,27,18,V,R,
155,29,29,3,1,47,33,765,['c'],1,left,['0'],6,185,[0.14319731],100,47,medium,plus,dotcolour,beta,,,27,18,V,R,
156,30,30,3,1,33,47,932,['n'],1,right,['0'],6,294,[-0.0735915],99,47,medium,plus,dotcolour,beta,,,27,18,V,R,
157,31,31,3,1,33,47,1016,['n'],1,right,['0'],6,122,[-0.09167935],100,47,medium,plus,dotcolour,beta,,,27,18,V,R,
158,32,32,3,1,47,33,1382,['c'],1,left,['0'],6,232,[0.04737377],98,47,medium,plus,dotcolour,beta,,,27,18,V,R,
159,33,33,3,1,53,27,550,['c'],1,left,['0'],6,178,[0.02591729],97,53,easy,plus,dotcolour,beta,,,27,18,V,R,
160,34,34,3,1,27,53,416,['n'],1,right,['0'],6,147,[-0.07929003],100,53,easy,plus,dotcolour,beta,,,27,18,V,R,
161,35,35,3,1,44,36,765,['c'],1,left,['0'],6,152,[0.05527349],99,44,hard,plus,dotcolour,beta,,,27,18,V,R,
162,36,36,3,1,47,33,764,['c'],1,left,['0'],6,196,[0.1476484],100,47,medium,plus,dotcolour,beta,,,27,18,V,R,
163,37,37,3,1,36,44,631,['n'],1,right,['0'],6,213,[-0.11060494],100,44,hard,plus,dotcolour,beta,,,27,18,V,R,
164,38,38,3,1,53,27,483,['c'],1,left,['0'],6,194,[0.11662101],100,53,easy,plus,dotcolour,beta,,,27,18,V,R,
165,39,39,3,1,36,44,750,['n'],1,right,['0'],6,197,[-0.11861831],100,44,hard,plus,dotcolour,beta,,,27,18,V,R,
166,40,40,3,1,27,53,499,['n'],1,right,['0'],6,267,[-0.10113092],100,53,easy,plus,dotcolour,beta,,,27,18,V,R,
167,41,41,3,1,53,27,497,['c'],1,left,['0'],6,237,[0.04720924],98,53,easy,plus,dotcolour,beta,,,27,18,V,R,
168,42,0,4,1,47,33,816,['c'],1,left,['0'],6,310,[0.09145058],99,47,medium,plus,dotcolour,beta,,,27,18,V,R,
169,43,1,4,1,33,47,583,['n'],1,right,['9'],5,220,[-0.14027536],100,47,medium,plus,dotcolour,beta,,,27,18,V,R,
170,44,2,4,1,27,53,548,['n'],1,right,['0'],6,262,[-0.01779364],93,53,easy,plus,dotcolour,beta,,,27,18,V,R,
171,45,3,4,1,33,47,532,['n'],1,right,['0'],6,199,[-0.01909659],95,47,medium,plus,dotcolour,beta,,,27,18,V,R,
172,46,4,4,1,33,47,448,['c'],0,right,['1'],1,1239,[-0.04288328],55,47,medium,plus,dotcolour,beta,,,27,18,V,R,
173,47,5,4,1,36,44,965,['n'],1,right,['0'],6,303,[-0.25498567],100,44,hard,plus,dotcolour,beta,,,27,18,V,R,
174,48,6,4,1,44,36,915,['c'],1,left,['0'],6,272,[0.08589764],99,44,hard,plus,dotcolour,beta,,,27,18,V,R,
175,49,7,4,1,53,27,798,['c'],1,left,['0'],6,327,[0.09529285],99,53,easy,plus,dotcolour,beta,,,27,18,V,R,
176,50,8,4,1,36,44,633,['n'],1,right,['0'],6,217,[-0.06283813],99,44,hard,plus,dotcolour,beta,,,27,18,V,R,
177,51,9,4,1,36,44,616,['n'],1,right,['0'],6,273,[-0.13177245],100,44,hard,plus,dotcolour,beta,,,27,18,V,R,
178,52,10,4,1,47,33,882,['c'],1,left,['0'],6,228,[0.06964265],99,47,medium,plus,dotcolour,beta,,,27,18,V,R,
179,53,11,4,1,27,53,365,['n'],1,right,['0'],6,301,[-0.19054636],100,53,easy,plus,dotcolour,beta,,,27,18,V,R,
180,54,12,4,1,53,27,533,['c'],1,left,['0'],6,196,[0.16940186],100,53,easy,plus,dotcolour,beta,,,27,18,V,R,
181,55,13,4,1,47,33,515,['n'],0,left,['1'],1,1153,[-0.03005898],81,47,medium,plus,dotcolour,beta,,,27,18,V,R,
182,56,14,4,1,33,47,899,['n'],1,right,['0'],6,168,[-0.08957185],100,47,medium,plus,dotcolour,beta,,,27,18,V,R,
183,57,15,4,1,47,33,666,['c'],1,left,['0'],6,288,[0.12093669],100,47,medium,plus,dotcolour,beta,,,27,18,V,R,
184,58,16,4,1,44,36,632,['c'],1,left,['9'],5,269,[0.16061853],100,44,hard,plus,dotcolour,beta,,,27,18,V,R,
185,59,17,4,1,44,36,699,['c'],1,left,['9'],5,271,[0.12867334],100,44,hard,plus,dotcolour,beta,,,27,18,V,R,
186,60,18,4,1,44,36,2015,['c'],1,left,['3'],3,2021,[0.15215667],93,44,hard,plus,dotcolour,beta,,,27,18,V,R,
187,61,19,4,1,27,53,863,['n'],1,right,['0'],6,226,[-0.1169431],100,53,easy,plus,dotcolour,beta,,,27,18,V,R,
188,62,20,4,1,36,44,1100,['n'],1,right,['9'],5,238,[-0.03578027],97,44,hard,plus,dotcolour,beta,,,27,18,V,R,
189,63,21,4,1,53,27,533,['c'],1,left,['0'],6,329,[0.17629224],100,53,easy,plus,dotcolour,beta,,,27,18,V,R,
190,64,22,4,1,36,44,1132,['c'],0,right,['9'],5,231,[0.131557],100,44,hard,plus,dotcolour,beta,,,27,18,V,R,
191,65,23,4,1,27,53,800,['n'],1,right,['0'],6,151,[-0.1619853],100,53,easy,plus,dotcolour,beta,,,27,18,V,R,
192,66,24,4,1,47,33,1149,['c'],1,left,['9'],5,293,[0.06507694],98,47,medium,plus,dotcolour,beta,,,27,18,V,R,
193,67,25,4,1,33,47,867,['n'],1,right,['9'],5,287,[-0.1272329],100,47,medium,plus,dotcolour,beta,,,27,18,V,R,
194,68,26,4,1,53,27,515,['c'],1,left,['9'],5,256,[0.03642706],96,53,easy,plus,dotcolour,beta,,,27,18,V,R,
195,69,27,4,1,27,53,832,['n'],1,right,['0'],6,230,[-0.02174606],95,53,easy,plus,dotcolour,beta,,,27,18,V,R,
196,70,28,4,1,53,27,501,['c'],1,left,['0'],6,218,[0.10028721],100,53,easy,plus,dotcolour,beta,,,27,18,V,R,
197,71,29,4,1,53,27,700,['c'],1,left,['0'],6,222,[0.11008127],100,53,easy,plus,dotcolour,beta,,,27,18,V,R,
198,72,30,4,1,27,53,616,['n'],1,right,['0'],6,294,[-0.05046973],97,53,easy,plus,dotcolour,beta,,,27,18,V,R,
199,73,31,4,1,47,33,915,['n'],0,left,['0'],6,271,[-0.02502943],94,47,medium,plus,dotcolour,beta,,,27,18,V,R,
200,74,32,4,1,36,44,598,['n'],1,right,['9'],5,253,[-0.11417144],100,44,hard,plus,dotcolour,beta,,,27,18,V,R,
201,75,33,4,1,44,36,467,['c'],1,left,['8'],4,714,[0.18995532],99,44,hard,plus,dotcolour,beta,,,27,18,V,R,
202,76,34,4,1,33,47,682,['n'],1,right,['9'],5,299,[-0.11666379],100,47,medium,plus,dotcolour,beta,,,27,18,V,R,
203,77,35,4,1,33,47,1049,['n'],1,right,['9'],5,263,[-0.1622234],100,47,medium,plus,dotcolour,beta,,,27,18,V,R,
204,78,36,4,1,27,53,648,['n'],1,right,['9'],5,332,[-0.07341829],98,53,easy,plus,dotcolour,beta,,,27,18,V,R,
205,79,37,4,1,47,33,547,['c'],1,left,['9'],5,305,[-0.00067144],86,47,medium,plus,dotcolour,beta,,,27,18,V,R,
206,80,38,4,1,44,36,1031,['n'],0,left,['9'],5,253,[-0.10320465],100,44,hard,plus,dotcolour,beta,,,27,18,V,R,
207,81,39,4,1,36,44,499,['c'],0,right,['8'],4,905,[0.06766616],91,44,hard,plus,dotcolour,beta,,,27,18,V,R,
208,82,40,4,1,53,27,866,['c'],1,left,['8'],4,218,[0.1407178],100,53,easy,plus,dotcolour,beta,,,27,18,V,R,
209,83,41,4,1,44,36,899,['c'],1,left,['9'],5,174,[0.09301375],100,44,hard,plus,dotcolour,beta,,,27,18,V,R,
210,84,0,5,1,27,53,1249,['n'],1,right,['0'],6,237,[-0.12973026],100,53,easy,plus,dotcolour,beta,,,27,18,V,R,
211,85,1,5,1,33,47,664,['n'],1,right,['0'],6,250,[-0.12891178],100,47,medium,plus,dotcolour,beta,,,27,18,V,R,
212,86,2,5,1,33,47,846,['n'],1,right,['0'],6,719,[-0.15126734],99,47,medium,plus,dotcolour,beta,,,27,18,V,R,
213,87,3,5,1,47,33,549,['c'],1,left,['9'],5,294,[0.0944938],99,47,medium,plus,dotcolour,beta,,,27,18,V,R,
214,88,4,5,1,33,47,882,['c'],0,right,['9'],5,280,[0.0464951],97,47,medium,plus,dotcolour,beta,,,27,18,V,R,
215,89,5,5,1,47,33,798,['c'],1,left,['9'],5,190,[0.04793139],99,47,medium,plus,dotcolour,beta,,,27,18,V,R,
216,90,6,5,1,47,33,596,['c'],1,left,['9'],5,136,[0.09601863],100,47,medium,plus,dotcolour,beta,,,27,18,V,R,
217,91,7,5,1,44,36,483,['c'],1,left,['9'],5,201,[0.12152215],100,44,hard,plus,dotcolour,beta,,,27,18,V,R,
218,92,8,5,1,47,33,1248,['c'],1,left,['9'],5,176,[0.09679386],100,47,medium,plus,dotcolour,beta,,,27,18,V,R,
219,93,9,5,1,36,44,849,['n'],1,right,['9'],5,168,[-0.14075389],100,44,hard,plus,dotcolour,beta,,,27,18,V,R,
220,94,10,5,1,36,44,1015,['n'],1,right,['9'],5,266,[-0.16009731],100,44,hard,plus,dotcolour,beta,,,27,18,V,R,
221,95,11,5,1,47,33,665,['c'],1,left,['9'],5,205,[0.18184219],100,47,medium,plus,dotcolour,beta,,,27,18,V,R,
222,96,12,5,1,44,36,1016,['c'],1,left,['9'],5,270,[0.12447497],100,44,hard,plus,dotcolour,beta,,,27,18,V,R,
223,97,13,5,1,27,53,731,['n'],1,right,['0'],6,271,[-0.10672453],100,53,easy,plus,dotcolour,beta,,,27,18,V,R,
224,98,14,5,1,36,44,7233,['n'],1,right,['9'],5,252,[-0.07357399],99,44,hard,plus,dotcolour,beta,,,27,18,V,R,
225,99,15,5,1,33,47,880,['n'],1,right,['9'],5,193,[-0.02438551],96,47,medium,plus,dotcolour,beta,,,27,18,V,R,
226,100,16,5,1,53,27,833,['c'],1,left,['9'],5,240,[0.09760629],100,53,easy,plus,dotcolour,beta,,,27,18,V,R,
227,101,17,5,1,53,27,831,['c'],1,left,['9'],5,342,[0.14624835],100,53,easy,plus,dotcolour,beta,,,27,18,V,R,
228,102,18,5,1,44,36,800,['c'],1,left,['9'],5,202,[0.11853525],100,44,hard,plus,dotcolour,beta,,,27,18,V,R,
229,103,19,5,1,53,27,583,['c'],1,left,['0'],6,308,[0.07317305],98,53,easy,plus,dotcolour,beta,,,27,18,V,R,
230,104,20,5,1,44,36,464,['c'],1,left,['9'],5,350,[0.07025027],98,44,hard,plus,dotcolour,beta,,,27,18,V,R,
231,105,21,5,1,36,44,598,['c'],0,right,['9'],5,185,[0.06454306],99,44,hard,plus,dotcolour,beta,,,27,18,V,R,
232,106,22,5,1,33,47,798,['n'],1,right,['0'],6,203,[-0.1624667],100,47,medium,plus,dotcolour,beta,,,27,18,V,R,
233,107,23,5,1,33,47,582,['c'],0,right,['9'],5,277,[-0.1066211],15,47,medium,plus,dotcolour,beta,,,27,18,V,R,
234,108,24,5,1,36,44,733,['c'],0,right,['9'],5,166,[0.09045529],100,44,hard,plus,dotcolour,beta,,,27,18,V,R,
235,109,25,5,1,27,53,499,['c'],0,right,['0'],6,237,[0.04843563],98,53,easy,plus,dotcolour,beta,,,27,18,V,R,
236,110,26,5,1,53,27,732,['c'],1,left,['0'],6,231,[0.12165427],100,53,easy,plus,dotcolour,beta,,,27,18,V,R,
237,111,27,5,1,27,53,765,['n'],1,right,['0'],6,168,[-0.13425841],100,53,easy,plus,dotcolour,beta,,,27,18,V,R,
238,112,28,5,1,47,33,531,['c'],1,left,['0'],6,245,[0.14081336],100,47,medium,plus,dotcolour,beta,,,27,18,V,R,
239,113,29,5,1,33,47,1016,['n'],1,right,['0'],6,484,[-0.21251099],100,47,medium,plus,dotcolour,beta,,,27,18,V,R,
240,114,30,5,1,44,36,566,['c'],1,left,['0'],6,195,[0.14083201],100,44,hard,plus,dotcolour,beta,,,27,18,V,R,
241,115,31,5,1,47,33,998,['n'],0,left,['0'],6,148,[-0.03437308],99,47,medium,plus,dotcolour,beta,,,27,18,V,R,
242,116,32,5,1,53,27,617,['c'],1,left,['0'],6,215,[0.0848133],100,53,easy,plus,dotcolour,beta,,,27,18,V,R,
243,117,33,5,1,27,53,697,['n'],1,right,['0'],6,148,[-0.07720485],100,53,easy,plus,dotcolour,beta,,,27,18,V,R,
244,118,34,5,1,53,27,632,['c'],1,left,['0'],6,197,[0.01936593],95,53,easy,plus,dotcolour,beta,,,27,18,V,R,
245,119,35,5,1,27,53,665,['n'],1,right,['0'],6,148,[-0.13162739],100,53,easy,plus,dotcolour,beta,,,27,18,V,R,
246,120,36,5,1,36,44,583,['n'],1,right,['0'],6,120,[-0.07114491],100,44,hard,plus,dotcolour,beta,,,27,18,V,R,
247,121,37,5,1,36,44,433,['n'],1,right,['0'],6,203,[-0.07699819],100,44,hard,plus,dotcolour,beta,,,27,18,V,R,
248,122,38,5,1,27,53,498,['n'],1,right,['0'],6,136,[-0.0953773],100,53,easy,plus,dotcolour,beta,,,27,18,V,R,
249,123,39,5,1,44,36,466,['c'],1,left,['2'],2,1002,[0.01167912],77,44,hard,plus,dotcolour,beta,,,27,18,V,R,
250,124,40,5,1,53,27,598,['c'],1,left,['0'],6,203,[0.09975328],100,53,easy,plus,dotcolour,beta,,,27,18,V,R,
251,125,41,5,1,44,36,582,['c'],1,left,['0'],6,261,[0.12931222],100,44,hard,plus,dotcolour,beta,,,27,18,V,R,
252,0,0,6,2,27,53,950,['n'],1,right,['0'],6,271,[-0.1375048],94,53,easy,minus,dotcolour,beta,,,27,18,V,R,
253,1,1,6,2,33,47,932,['n'],1,right,['0'],6,144,[-0.10862716],93,47,medium,minus,dotcolour,beta,,,27,18,V,R,
254,2,2,6,2,27,53,915,['n'],1,right,['0'],6,175,[-0.0484933],42,53,easy,minus,dotcolour,beta,,,27,18,V,R,
255,3,3,6,2,36,44,566,['c'],0,right,['0'],6,290,[-0.00025473],13,44,hard,minus,dotcolour,beta,,,27,18,V,R,
256,4,4,6,2,53,27,881,['c'],1,left,['0'],6,205,[0.09296382],82,53,easy,minus,dotcolour,beta,,,27,18,V,R,
257,5,5,6,2,53,27,464,['c'],1,left,['0'],6,267,[0.06292491],56,53,easy,minus,dotcolour,beta,,,27,18,V,R,
258,6,6,6,2,53,27,899,['c'],1,left,['0'],6,221,[0.1626693],98,53,easy,minus,dotcolour,beta,,,27,18,V,R,
259,7,7,6,2,47,33,632,['c'],1,left,['0'],6,213,[0.08386657],75,47,medium,minus,dotcolour,beta,,,27,18,V,R,
260,8,8,6,2,53,27,583,['c'],1,left,['0'],6,150,[0.10617336],91,53,easy,minus,dotcolour,beta,,,27,18,V,R,
261,9,9,6,2,47,33,3099,['n'],0,left,['8'],4,397,[-0.00945917],21,47,medium,minus,dotcolour,beta,,,27,18,V,R,
262,10,10,6,2,53,27,648,['c'],1,left,['9'],5,237,[-0.00765294],9,53,easy,minus,dotcolour,beta,,,27,18,V,R,
263,11,11,6,2,44,36,565,['c'],1,left,['9'],5,254,[0.04401441],40,44,hard,minus,dotcolour,beta,,,27,18,V,R,
264,12,12,6,2,33,47,1197,['n'],1,right,['9'],5,221,[-0.09213178],80,47,medium,minus,dotcolour,beta,,,27,18,V,R,
265,13,13,6,2,27,53,699,['n'],1,right,['9'],5,170,[-0.09974058],87,53,easy,minus,dotcolour,beta,,,27,18,V,R,
266,14,14,6,2,27,53,614,['n'],1,right,['0'],6,236,[-0.15111463],97,53,easy,minus,dotcolour,beta,,,27,18,V,R,
267,15,15,6,2,33,47,532,['n'],1,right,['0'],6,167,[-0.060458],55,47,medium,minus,dotcolour,beta,,,27,18,V,R,
268,16,16,6,2,47,33,633,['c'],1,left,['9'],5,352,[0.10856628],83,47,medium,minus,dotcolour,beta,,,27,18,V,R,
269,17,17,6,2,44,36,684,['n'],0,left,['1'],1,1304,[-0.02417638],38,44,hard,minus,dotcolour,beta,,,27,18,V,R,
270,18,18,6,2,27,53,649,['n'],1,right,['0'],6,218,[-0.097473],83,53,easy,minus,dotcolour,beta,,,27,18,V,R,
271,19,19,6,2,33,47,1132,['c'],0,right,['0'],6,206,[0.0339767],30,47,medium,minus,dotcolour,beta,,,27,18,V,R,
272,20,20,6,2,47,33,599,['c'],1,left,['0'],6,190,[0.13871337],97,47,medium,minus,dotcolour,beta,,,27,18,V,R,
273,21,21,6,2,47,33,615,['c'],1,left,['0'],6,391,[0.11662035],85,47,medium,minus,dotcolour,beta,,,27,18,V,R,
274,22,22,6,2,33,47,747,['n'],1,right,['0'],6,243,[-0.10905181],88,47,medium,minus,dotcolour,beta,,,27,18,V,R,
275,23,23,6,2,44,36,799,['c'],1,left,['0'],6,178,[0.10752832],90,44,hard,minus,dotcolour,beta,,,27,18,V,R,
276,24,24,6,2,36,44,1700,['c'],0,right,['8'],4,296,[0.01249491],19,44,hard,minus,dotcolour,beta,,,27,18,V,R,
277,25,25,6,2,44,36,998,['c'],1,left,['8'],4,285,[0.139886],94,44,hard,minus,dotcolour,beta,,,27,18,V,R,
278,26,26,6,2,44,36,1199,['c'],1,left,['8'],4,323,[0.02708644],29,44,hard,minus,dotcolour,beta,,,27,18,V,R,
279,27,27,6,2,53,27,615,['c'],1,left,['0'],6,192,[0.12171872],94,53,easy,minus,dotcolour,beta,,,27,18,V,R,
280,28,28,6,2,33,47,1398,['c'],0,right,['0'],6,192,[-0.01239523],6,47,medium,minus,dotcolour,beta,,,27,18,V,R,
281,29,29,6,2,33,47,982,['c'],0,right,['0'],6,626,[0.15484232],91,47,medium,minus,dotcolour,beta,,,27,18,V,R,
282,30,30,6,2,44,36,665,['c'],1,left,['8'],4,1896,[0.1914471],86,44,hard,minus,dotcolour,beta,,,27,18,V,R,
283,31,31,6,2,36,44,499,['n'],1,right,['8'],4,368,[-0.07093125],61,44,hard,minus,dotcolour,beta,,,27,18,V,R,
284,32,32,6,2,53,27,566,['c'],1,left,['9'],5,252,[0.15086358],97,53,easy,minus,dotcolour,beta,,,27,18,V,R,
285,33,33,6,2,44,36,1115,['n'],0,left,['8'],4,143,[-0.09403212],86,44,hard,minus,dotcolour,beta,,,27,18,V,R,
286,34,34,6,2,27,53,782,['n'],1,right,['0'],6,131,[-0.12309248],97,53,easy,minus,dotcolour,beta,,,27,18,V,R,
287,35,35,6,2,47,33,582,['c'],1,left,['0'],6,128,[0.09027259],85,47,medium,minus,dotcolour,beta,,,27,18,V,R,
288,36,36,6,2,36,44,1082,['c'],0,right,['0'],6,176,[0.06841272],63,44,hard,minus,dotcolour,beta,,,27,18,V,R,
289,37,37,6,2,27,53,681,['n'],1,right,['0'],6,151,[-0.09426279],86,53,easy,minus,dotcolour,beta,,,27,18,V,R,
290,38,38,6,2,36,44,948,['c'],0,right,['9'],5,164,[0.07760004],73,44,hard,minus,dotcolour,beta,,,27,18,V,R,
291,39,39,6,2,47,33,1132,['c'],1,left,['9'],5,185,[0.08807814],80,47,medium,minus,dotcolour,beta,,,27,18,V,R,
292,40,40,6,2,36,44,1166,['n'],1,right,['0'],6,300,[-0.04323485],40,44,hard,minus,dotcolour,beta,,,27,18,V,R,
293,41,41,6,2,36,44,682,['n'],1,right,['0'],6,214,[-0.04069217],36,44,hard,minus,dotcolour,beta,,,27,18,V,R,
294,42,0,7,2,33,47,1033,['n'],1,right,['0'],6,156,[-0.04965475],43,47,medium,minus,dotcolour,beta,,,27,18,V,R,
295,43,1,7,2,27,53,532,['n'],1,right,['9'],5,409,[-0.23203157],99,53,easy,minus,dotcolour,beta,,,27,18,V,R,
296,44,2,7,2,33,47,664,['n'],1,right,['9'],5,223,[-0.14280832],97,47,medium,minus,dotcolour,beta,,,27,18,V,R,
297,45,3,7,2,36,44,465,['n'],1,right,['9'],5,236,[-0.01878401],20,44,hard,minus,dotcolour,beta,,,27,18,V,R,
298,46,4,7,2,44,36,999,['c'],1,left,['9'],5,244,[0.11307434],89,44,hard,minus,dotcolour,beta,,,27,18,V,R,
299,47,5,7,2,53,27,666,['n'],0,left,['1'],1,865,[0.03362544],15,53,easy,minus,dotcolour,beta,,,27,18,V,R,
300,48,6,7,2,47,33,1281,['c'],1,left,['9'],5,212,[0.11467137],91,47,medium,minus,dotcolour,beta,,,27,18,V,R,
301,49,7,7,2,36,44,764,['c'],0,right,['9'],5,174,[0.10075324],88,44,hard,minus,dotcolour,beta,,,27,18,V,R,
302,50,8,7,2,33,47,832,['n'],1,right,['9'],5,135,[-0.00810261],9,47,medium,minus,dotcolour,beta,,,27,18,V,R,
303,51,9,7,2,47,33,1116,['c'],1,left,['9'],5,222,[0.07207954],65,47,medium,minus,dotcolour,beta,,,27,18,V,R,
304,52,10,7,2,33,47,999,['n'],1,right,['9'],5,303,[-0.00471032],16,47,medium,minus,dotcolour,beta,,,27,18,V,R,
305,53,11,7,2,36,44,1365,['n'],1,right,['9'],5,245,[-0.15812084],98,44,hard,minus,dotcolour,beta,,,27,18,V,R,
306,54,12,7,2,44,36,815,['c'],1,left,['9'],5,204,[0.09669783],84,44,hard,minus,dotcolour,beta,,,27,18,V,R,
307,55,13,7,2,47,33,715,['c'],1,left,['8'],4,264,[0.06351139],57,47,medium,minus,dotcolour,beta,,,27,18,V,R,
308,56,14,7,2,33,47,882,['n'],1,right,['8'],4,220,[-0.06982298],63,47,medium,minus,dotcolour,beta,,,27,18,V,R,
309,57,15,7,2,47,33,1315,['c'],1,left,['9'],5,183,[0.08288572],76,47,medium,minus,dotcolour,beta,,,27,18,V,R,
310,58,16,7,2,33,47,1382,['c'],0,right,['9'],5,193,[0.09296939],82,47,medium,minus,dotcolour,beta,,,27,18,V,R,
311,59,17,7,2,53,27,615,['c'],1,left,['9'],5,234,[0.02709044],26,53,easy,minus,dotcolour,beta,,,27,18,V,R,
312,60,18,7,2,36,44,1483,['n'],1,right,['8'],4,431,[-0.20026103],98,44,hard,minus,dotcolour,beta,,,27,18,V,R,
313,61,19,7,2,53,27,648,['c'],1,left,['9'],5,301,[0.11568318],88,53,easy,minus,dotcolour,beta,,,27,18,V,R,
314,62,20,7,2,47,33,682,['c'],1,left,['9'],5,471,[0.18640514],97,47,medium,minus,dotcolour,beta,,,27,18,V,R,
315,63,21,7,2,44,36,715,['c'],1,left,['9'],5,208,[0.05530482],50,44,hard,minus,dotcolour,beta,,,27,18,V,R,
316,64,22,7,2,44,36,564,['c'],1,left,['9'],5,194,[0.07665269],70,44,hard,minus,dotcolour,beta,,,27,18,V,R,
317,65,23,7,2,44,36,1097,['n'],0,left,['0'],6,144,[-0.13920979],98,44,hard,minus,dotcolour,beta,,,27,18,V,R,
318,66,24,7,2,44,36,481,['c'],1,left,['0'],6,192,[0.08578451],78,44,hard,minus,dotcolour,beta,,,27,18,V,R,
319,67,25,7,2,53,27,648,['c'],1,left,['0'],6,407,[0.09331542],74,53,easy,minus,dotcolour,beta,,,27,18,V,R,
320,68,26,7,2,27,53,666,['n'],1,right,['0'],6,133,[-0.04139306],33,53,easy,minus,dotcolour,beta,,,27,18,V,R,
321,69,27,7,2,27,53,714,['n'],1,right,['0'],6,157,[-0.13367703],97,53,easy,minus,dotcolour,beta,,,27,18,V,R,
322,70,28,7,2,27,53,632,['n'],1,right,['0'],6,166,[-0.08437794],78,53,easy,minus,dotcolour,beta,,,27,18,V,R,
323,71,29,7,2,36,44,567,['c'],0,right,['3'],3,1074,[0.33009001],99,44,hard,minus,dotcolour,beta,,,27,18,V,R,
324,72,30,7,2,44,36,633,['c'],1,left,['0'],6,247,[0.0533553],48,44,hard,minus,dotcolour,beta,,,27,18,V,R,
325,73,31,7,2,33,47,748,['c'],0,right,['1'],1,944,[-0.04614624],13,47,medium,minus,dotcolour,beta,,,27,18,V,R,
326,74,32,7,2,27,53,1013,['n'],1,right,['0'],6,258,[-0.20271486],99,53,easy,minus,dotcolour,beta,,,27,18,V,R,
327,75,33,7,2,27,53,782,['n'],1,right,['0'],6,114,[-0.09325755],88,53,easy,minus,dotcolour,beta,,,27,18,V,R,
328,76,34,7,2,47,33,932,['c'],1,left,['0'],6,137,[0.06019343],56,47,medium,minus,dotcolour,beta,,,27,18,V,R,
329,77,35,7,2,47,33,565,['c'],1,left,['0'],6,118,[0.11895989],97,47,medium,minus,dotcolour,beta,,,27,18,V,R,
330,78,36,7,2,36,44,615,['n'],1,right,['0'],6,138,[-0.07263806],70,44,hard,minus,dotcolour,beta,,,27,18,V,R,
331,79,37,7,2,27,53,600,['n'],1,right,['0'],6,174,[-0.05934312],54,53,easy,minus,dotcolour,beta,,,27,18,V,R,
332,80,38,7,2,53,27,581,['c'],1,left,['0'],6,145,[0.14460603],99,53,easy,minus,dotcolour,beta,,,27,18,V,R,
333,81,39,7,2,53,27,515,['c'],1,left,['0'],6,192,[0.01359674],15,53,easy,minus,dotcolour,beta,,,27,18,V,R,
334,82,40,7,2,53,27,598,['c'],1,left,['9'],5,305,[0.18722155],99,53,easy,minus,dotcolour,beta,,,27,18,V,R,
335,83,41,7,2,36,44,532,['c'],0,right,['9'],5,216,[0.04912901],44,44,hard,minus,dotcolour,beta,,,27,18,V,R,
336,84,0,8,2,33,47,1399,['n'],1,right,['9'],5,121,[-0.09348634],88,47,medium,minus,dotcolour,beta,,,27,18,V,R,
337,85,1,8,2,27,53,499,['n'],1,right,['9'],5,162,[-0.09315949],84,53,easy,minus,dotcolour,beta,,,27,18,V,R,
338,86,2,8,2,44,36,365,['n'],0,left,['2'],2,662,[0.11737673],2,44,hard,minus,dotcolour,beta,,,27,18,V,R,
339,87,3,8,2,47,33,831,['c'],1,left,['9'],5,299,[0.12177724],90,47,medium,minus,dotcolour,beta,,,27,18,V,R,
340,88,4,8,2,33,47,964,['n'],1,right,['9'],5,370,[-0.0869361],72,47,medium,minus,dotcolour,beta,,,27,18,V,R,
341,89,5,8,2,27,53,615,['n'],1,right,['9'],5,179,[-0.06185641],57,53,easy,minus,dotcolour,beta,,,27,18,V,R,
342,90,6,8,2,47,33,564,['c'],1,left,['9'],5,247,[0.09923043],83,47,medium,minus,dotcolour,beta,,,27,18,V,R,
343,91,7,8,2,53,27,1015,['c'],1,left,['9'],5,205,[0.12669566],94,53,easy,minus,dotcolour,beta,,,27,18,V,R,
344,92,8,8,2,53,27,647,['c'],1,left,['9'],5,149,[0.11988549],95,53,easy,minus,dotcolour,beta,,,27,18,V,R,
345,93,9,8,2,36,44,899,['n'],1,right,['9'],5,188,[-0.06827445],63,44,hard,minus,dotcolour,beta,,,27,18,V,R,
346,94,10,8,2,36,44,632,['n'],1,right,['9'],5,252,[-0.13313808],94,44,hard,minus,dotcolour,beta,,,27,18,V,R,
347,95,11,8,2,53,27,747,['c'],1,left,['9'],5,166,[0.04306474],37,53,easy,minus,dotcolour,beta,,,27,18,V,R,
348,96,12,8,2,44,36,815,['c'],1,left,['9'],5,184,[0.12372186],95,44,hard,minus,dotcolour,beta,,,27,18,V,R,
349,97,13,8,2,33,47,616,['n'],1,right,['9'],5,209,[-0.072396],66,47,medium,minus,dotcolour,beta,,,27,18,V,R,
350,98,14,8,2,33,47,732,['c'],0,right,['9'],5,172,[0.0478355],42,47,medium,minus,dotcolour,beta,,,27,18,V,R,
351,99,15,8,2,33,47,900,['c'],0,right,['8'],4,386,[0.05713465],51,47,medium,minus,dotcolour,beta,,,27,18,V,R,
352,100,16,8,2,53,27,482,['n'],0,left,['1'],1,945,[-0.09453117],67,53,easy,minus,dotcolour,beta,,,27,18,V,R,
353,101,17,8,2,53,27,931,['c'],1,left,['0'],6,135,[0.09585909],88,53,easy,minus,dotcolour,beta,,,27,18,V,R,
354,102,18,8,2,47,33,650,['c'],1,left,['9'],5,201,[0.03972459],35,47,medium,minus,dotcolour,beta,,,27,18,V,R,
355,103,19,8,2,44,36,599,['c'],1,left,['9'],5,154,[0.06955553],66,44,hard,minus,dotcolour,beta,,,27,18,V,R,
356,104,20,8,2,36,44,1464,['n'],1,right,['0'],6,355,[-0.13774607],92,44,hard,minus,dotcolour,beta,,,27,18,V,R,
357,105,21,8,2,27,53,782,['n'],1,right,['0'],6,167,[-0.17545647],99,53,easy,minus,dotcolour,beta,,,27,18,V,R,
358,106,22,8,2,44,36,683,['c'],1,left,['9'],5,334,[0.12286806],89,44,hard,minus,dotcolour,beta,,,27,18,V,R,
359,107,23,8,2,27,53,765,['n'],1,right,['0'],6,91,[-0.10045355],94,53,easy,minus,dotcolour,beta,,,27,18,V,R,
360,108,24,8,2,47,33,632,['c'],1,left,['9'],5,183,[0.18205587],100,47,medium,minus,dotcolour,beta,,,27,18,V,R,
361,109,25,8,2,47,33,498,['c'],1,left,['0'],6,205,[0.09386871],82,47,medium,minus,dotcolour,beta,,,27,18,V,R,
362,110,26,8,2,36,44,782,['n'],1,right,['0'],6,143,[-0.06851694],65,44,hard,minus,dotcolour,beta,,,27,18,V,R,
363,111,27,8,2,36,44,616,['c'],0,right,['8'],4,658,[0.05078956],47,44,hard,minus,dotcolour,beta,,,27,18,V,R,
364,112,28,8,2,36,44,632,['c'],0,right,['3'],3,1168,[0.1894522],90,44,hard,minus,dotcolour,beta,,,27,18,V,R,
365,113,29,8,2,47,33,914,['c'],1,left,['9'],5,437,[0.19409855],98,47,medium,minus,dotcolour,beta,,,27,18,V,R,
366,114,30,8,2,27,53,1049,['n'],1,right,['0'],6,739,[-0.18879565],94,53,easy,minus,dotcolour,beta,,,27,18,V,R,
367,115,31,8,2,44,36,933,['c'],1,left,['9'],5,273,[0.14162689],95,44,hard,minus,dotcolour,beta,,,27,18,V,R,
368,116,32,8,2,27,53,698,['n'],1,right,['0'],6,203,[-0.09381671],82,53,easy,minus,dotcolour,beta,,,27,18,V,R,
369,117,33,8,2,53,27,499,['c'],1,left,['0'],6,248,[0.0313321],29,53,easy,minus,dotcolour,beta,,,27,18,V,R,
370,118,34,8,2,44,36,651,['c'],1,left,['0'],6,294,[0.05009624],45,44,hard,minus,dotcolour,beta,,,27,18,V,R,
371,119,35,8,2,27,53,567,['n'],1,right,['0'],6,156,[-0.11878018],95,53,easy,minus,dotcolour,beta,,,27,18,V,R,
372,120,36,8,2,47,33,717,['c'],1,left,['0'],6,163,[0.07018331],66,47,medium,minus,dotcolour,beta,,,27,18,V,R,
373,121,37,8,2,36,44,799,['n'],1,right,['0'],6,158,[-0.04580141],39,44,hard,minus,dotcolour,beta,,,27,18,V,R,
374,122,38,8,2,44,36,1032,['c'],1,left,['0'],6,119,[0.04272886],34,44,hard,minus,dotcolour,beta,,,27,18,V,R,
375,123,39,8,2,33,47,616,['n'],1,right,['0'],6,204,[-0.08208551],74,47,medium,minus,dotcolour,beta,,,27,18,V,R,
376,124,40,8,2,33,47,532,['n'],1,right,['0'],6,231,[-0.09572515],82,47,medium,minus,dotcolour,beta,,,27,18,V,R,
377,125,41,8,2,53,27,564,['c'],1,left,['0'],6,177,[0.15361825],99,53,easy,minus,dotcolour,beta,,,27,18,V,R,
378,0,0,9,3,36,44,833,['n'],1,right,['0'],6,344,[0.00826867],81,44,hard,plus,dotcolour,beta,,,27,18,V,R,
379,1,1,9,3,44,36,831,['c'],1,left,['9'],5,250,[0.04236005],97,44,hard,plus,dotcolour,beta,,,27,18,V,R,
380,2,2,9,3,47,33,1214,['n'],0,left,['9'],5,289,[-0.07343195],99,47,medium,plus,dotcolour,beta,,,27,18,V,R,
381,3,3,9,3,27,53,682,['n'],1,right,['9'],5,235,[-0.09500456],100,53,easy,plus,dotcolour,beta,,,27,18,V,R,
382,4,4,9,3,27,53,565,['n'],1,right,['9'],5,148,[-0.14089253],100,53,easy,plus,dotcolour,beta,,,27,18,V,R,
383,5,5,9,3,36,44,599,['n'],1,right,['9'],5,152,[-0.07748724],100,44,hard,plus,dotcolour,beta,,,27,18,V,R,
384,6,6,9,3,36,44,482,['n'],1,right,['0'],6,208,[-0.09108563],100,44,hard,plus,dotcolour,beta,,,27,18,V,R,
385,7,7,9,3,36,44,399,['n'],1,right,['9'],5,256,[-0.07020442],99,44,hard,plus,dotcolour,beta,,,27,18,V,R,
386,8,8,9,3,33,47,514,['n'],1,right,['9'],5,155,[-0.12365659],100,47,medium,plus,dotcolour,beta,,,27,18,V,R,
387,9,9,9,3,27,53,449,['n'],1,right,['0'],6,180,[-0.08699789],100,53,easy,plus,dotcolour,beta,,,27,18,V,R,
388,10,10,9,3,53,27,298,['n'],0,left,['1'],1,922,[0.11193752],26,53,easy,plus,dotcolour,beta,,,27,18,V,R,
389,11,11,9,3,27,53,614,['n'],1,right,['0'],6,158,[-0.07475982],100,53,easy,plus,dotcolour,beta,,,27,18,V,R,
390,12,12,9,3,33,47,1216,['c'],0,right,['0'],6,168,[-0.00493225],90,47,medium,plus,dotcolour,beta,,,27,18,V,R,
391,13,13,9,3,47,33,1133,['c'],1,left,['0'],6,149,[0.07027472],100,47,medium,plus,dotcolour,beta,,,27,18,V,R,
392,14,14,9,3,36,44,715,['n'],1,right,['9'],5,292,[-0.04664933],97,44,hard,plus,dotcolour,beta,,,27,18,V,R,
393,15,15,9,3,53,27,648,['c'],1,left,['0'],6,183,[0.1476972],100,53,easy,plus,dotcolour,beta,,,27,18,V,R,
394,16,16,9,3,47,33,1116,['c'],1,left,['9'],5,212,[0.10389096],100,47,medium,plus,dotcolour,beta,,,27,18,V,R,
395,17,17,9,3,33,47,866,['n'],1,right,['9'],5,130,[-0.10373198],100,47,medium,plus,dotcolour,beta,,,27,18,V,R,
396,18,18,9,3,47,33,566,['c'],1,left,['9'],5,183,[0.11965384],100,47,medium,plus,dotcolour,beta,,,27,18,V,R,
397,19,19,9,3,53,27,500,['c'],1,left,['9'],5,174,[0.12798],100,53,easy,plus,dotcolour,beta,,,27,18,V,R,
398,20,20,9,3,33,47,616,['n'],1,right,['9'],5,144,[-0.06611591],100,47,medium,plus,dotcolour,beta,,,27,18,V,R,
399,21,21,9,3,33,47,815,['n'],1,right,['9'],5,186,[-0.05737803],99,47,medium,plus,dotcolour,beta,,,27,18,V,R,
400,22,22,9,3,27,53,584,['n'],1,right,['9'],5,172,[-0.10920808],100,53,easy,plus,dotcolour,beta,,,27,18,V,R,
401,23,23,9,3,44,36,632,['c'],1,left,['9'],5,173,[0.06613653],99,44,hard,plus,dotcolour,beta,,,27,18,V,R,
402,24,24,9,3,44,36,781,['c'],1,left,['9'],5,145,[0.01883145],97,44,hard,plus,dotcolour,beta,,,27,18,V,R,
403,25,25,9,3,53,27,597,['c'],1,left,['9'],5,148,[0.09434813],100,53,easy,plus,dotcolour,beta,,,27,18,V,R,
404,26,26,9,3,36,44,766,['n'],1,right,['9'],5,168,[-0.05299204],99,44,hard,plus,dotcolour,beta,,,27,18,V,R,
405,27,27,9,3,47,33,748,['c'],1,left,['0'],6,197,[0.08407042],100,47,medium,plus,dotcolour,beta,,,27,18,V,R,
406,28,28,9,3,44,36,1034,['c'],1,left,['0'],6,213,[0.08028395],100,44,hard,plus,dotcolour,beta,,,27,18,V,R,
407,29,29,9,3,44,36,584,['c'],1,left,['0'],6,270,[0.04655388],97,44,hard,plus,dotcolour,beta,,,27,18,V,R,
408,30,30,9,3,33,47,900,['n'],1,right,['0'],6,241,[-0.09615312],100,47,medium,plus,dotcolour,beta,,,27,18,V,R,
409,31,31,9,3,27,53,667,['n'],1,right,['9'],5,158,[-0.11025717],100,53,easy,plus,dotcolour,beta,,,27,18,V,R,
410,32,32,9,3,53,27,598,['c'],1,left,['0'],6,176,[0.19033183],100,53,easy,plus,dotcolour,beta,,,27,18,V,R,
411,33,33,9,3,47,33,748,['c'],1,left,['0'],6,180,[0.15059023],100,47,medium,plus,dotcolour,beta,,,27,18,V,R,
412,34,34,9,3,53,27,532,['c'],1,left,['0'],6,177,[0.10430478],100,53,easy,plus,dotcolour,beta,,,27,18,V,R,
413,35,35,9,3,53,27,832,['c'],1,left,['0'],6,210,[0.14530756],100,53,easy,plus,dotcolour,beta,,,27,18,V,R,
414,36,36,9,3,47,33,682,['c'],1,left,['0'],6,159,[0.07811001],100,47,medium,plus,dotcolour,beta,,,27,18,V,R,
415,37,37,9,3,33,47,999,['n'],1,right,['0'],6,226,[-0.07451926],99,47,medium,plus,dotcolour,beta,,,27,18,V,R,
416,38,38,9,3,36,44,2116,['c'],0,right,['8'],4,757,[-0.02345513],66,44,hard,plus,dotcolour,beta,,,27,18,V,R,
417,39,39,9,3,44,36,881,['c'],1,left,['9'],5,189,[0.05907848],99,44,hard,plus,dotcolour,beta,,,27,18,V,R,
418,40,40,9,3,44,36,798,['c'],1,left,['9'],5,183,[0.10699676],100,44,hard,plus,dotcolour,beta,,,27,18,V,R,
419,41,41,9,3,27,53,932,['n'],1,right,['9'],5,179,[-0.10341704],100,53,easy,plus,dotcolour,beta,,,27,18,V,R,
420,42,0,10,3,53,27,816,['c'],1,left,['9'],5,181,[0.11761801],100,53,easy,plus,dotcolour,beta,,,27,18,V,R,
421,43,1,10,3,53,27,432,['c'],1,left,['9'],5,125,[0.06506939],100,53,easy,plus,dotcolour,beta,,,27,18,V,R,
422,44,2,10,3,27,53,533,['n'],1,right,['9'],5,172,[-0.12057557],100,53,easy,plus,dotcolour,beta,,,27,18,V,R,
423,45,3,10,3,36,44,582,['n'],1,right,['9'],5,127,[-0.1130671],100,44,hard,plus,dotcolour,beta,,,27,18,V,R,
424,46,4,10,3,53,27,515,['c'],1,left,['9'],5,166,[-0.00186541],91,53,easy,plus,dotcolour,beta,,,27,18,V,R,
425,47,5,10,3,36,44,764,['n'],1,right,['9'],5,114,[-0.02821932],99,44,hard,plus,dotcolour,beta,,,27,18,V,R,
426,48,6,10,3,44,36,665,['n'],0,left,['9'],5,141,[-0.03061112],98,44,hard,plus,dotcolour,beta,,,27,18,V,R,
427,49,7,10,3,33,47,833,['n'],1,right,['9'],5,159,[-0.02807883],98,47,medium,plus,dotcolour,beta,,,27,18,V,R,
428,50,8,10,3,44,36,1065,['c'],1,left,['9'],5,151,[0.12889605],100,44,hard,plus,dotcolour,beta,,,27,18,V,R,
429,51,9,10,3,47,33,998,['c'],1,left,['9'],5,138,[0.02452884],98,47,medium,plus,dotcolour,beta,,,27,18,V,R,
430,52,10,10,3,53,27,949,['c'],1,left,['9'],5,192,[0.11795291],100,53,easy,plus,dotcolour,beta,,,27,18,V,R,
431,53,11,10,3,47,33,665,['n'],0,left,['9'],5,127,[-0.10935326],100,47,medium,plus,dotcolour,beta,,,27,18,V,R,
432,54,12,10,3,53,27,899,['c'],1,left,['9'],5,103,[0.09456403],100,53,easy,plus,dotcolour,beta,,,27,18,V,R,
433,55,13,10,3,33,47,799,['n'],1,right,['9'],5,236,[-0.10150403],100,47,medium,plus,dotcolour,beta,,,27,18,V,R,
434,56,14,10,3,33,47,699,['n'],1,right,['9'],5,256,[-0.14829612],100,47,medium,plus,dotcolour,beta,,,27,18,V,R,
435,57,15,10,3,47,33,680,['c'],1,left,['9'],5,107,[0.16962496],100,47,medium,plus,dotcolour,beta,,,27,18,V,R,
436,58,16,10,3,47,33,648,['c'],1,left,['9'],5,142,[0.13035635],100,47,medium,plus,dotcolour,beta,,,27,18,V,R,
437,59,17,10,3,36,44,732,['n'],1,right,['9'],5,124,[-0.14916162],100,44,hard,plus,dotcolour,beta,,,27,18,V,R,
438,60,18,10,3,27,53,449,['c'],0,right,['1'],1,871,[-0.08484659],36,53,easy,plus,dotcolour,beta,,,27,18,V,R,
439,61,19,10,3,47,33,1148,['c'],1,left,['9'],5,191,[0.06134315],99,47,medium,plus,dotcolour,beta,,,27,18,V,R,
440,62,20,10,3,33,47,780,['n'],1,right,['9'],5,265,[-0.01185631],91,47,medium,plus,dotcolour,beta,,,27,18,V,R,
441,63,21,10,3,33,47,516,['n'],1,right,['9'],5,163,[0.00883821],89,47,medium,plus,dotcolour,beta,,,27,18,V,R,
442,64,22,10,3,27,53,665,['n'],1,right,['0'],6,187,[-0.1771077],100,53,easy,plus,dotcolour,beta,,,27,18,V,R,
443,65,23,10,3,47,33,648,['c'],1,left,['0'],6,179,[0.06115245],99,47,medium,plus,dotcolour,beta,,,27,18,V,R,
444,66,24,10,3,36,44,915,['n'],1,right,['0'],6,192,[-0.08493307],100,44,hard,plus,dotcolour,beta,,,27,18,V,R,
445,67,25,10,3,27,53,731,['n'],1,right,['0'],6,260,[-0.15105416],100,53,easy,plus,dotcolour,beta,,,27,18,V,R,
446,68,26,10,3,36,44,650,['n'],1,right,['0'],6,104,[-0.07745109],100,44,hard,plus,dotcolour,beta,,,27,18,V,R,
447,69,27,10,3,33,47,683,['n'],1,right,['0'],6,3,[-0.06559744],100,47,medium,plus,dotcolour,beta,,,27,18,V,R,
448,70,28,10,3,53,27,832,['c'],1,left,['0'],6,171,[0.0925227],100,53,easy,plus,dotcolour,beta,,,27,18,V,R,
449,71,29,10,3,36,44,632,['n'],1,right,['0'],6,75,[-0.07874838],100,44,hard,plus,dotcolour,beta,,,27,18,V,R,
450,72,30,10,3,27,53,1015,['n'],1,right,['0'],6,33,[-0.0656523],100,53,easy,plus,dotcolour,beta,,,27,18,V,R,
451,73,31,10,3,44,36,1115,['c'],1,left,['0'],6,44,[0.08014625],100,44,hard,plus,dotcolour,beta,,,27,18,V,R,
452,74,32,10,3,27,53,497,['n'],1,right,['0'],6,87,[-0.12215049],100,53,easy,plus,dotcolour,beta,,,27,18,V,R,
453,75,33,10,3,44,36,548,['n'],0,left,['0'],6,56,[-0.05650697],100,44,hard,plus,dotcolour,beta,,,27,18,V,R,
454,76,34,10,3,27,53,465,['n'],1,right,['0'],6,60,[-0.08855553],100,53,easy,plus,dotcolour,beta,,,27,18,V,R,
455,77,35,10,3,44,36,399,['n'],0,left,['0'],6,67,[-0.07579957],100,44,hard,plus,dotcolour,beta,,,27,18,V,R,
456,78,36,10,3,44,36,832,['c'],1,left,['0'],6,80,[0.08234115],100,44,hard,plus,dotcolour,beta,,,27,18,V,R,
457,79,37,10,3,33,47,500,['n'],1,right,['0'],6,1595,[-0.05871711],84,47,medium,plus,dotcolour,beta,,,27,18,V,R,
458,80,38,10,3,44,36,799,['c'],1,left,['0'],6,52,[0.0461526],100,44,hard,plus,dotcolour,beta,,,27,18,V,R,
459,81,39,10,3,53,27,1316,['c'],1,left,['0'],6,1638,[0.29319951],99,53,easy,plus,dotcolour,beta,,,27,18,V,R,
460,82,40,10,3,36,44,915,['n'],1,right,['0'],6,9,[-0.07248739],100,44,hard,plus,dotcolour,beta,,,27,18,V,R,
461,83,41,10,3,47,33,715,['c'],1,left,['0'],6,61,[0.06963684],100,47,medium,plus,dotcolour,beta,,,27,18,V,R,
462,84,0,11,3,47,33,899,['c'],1,left,['0'],6,146,[0.13198268],100,47,medium,plus,dotcolour,beta,,,27,18,V,R,
463,85,1,11,3,44,36,749,['c'],1,left,['0'],6,120,[0.09959813],100,44,hard,plus,dotcolour,beta,,,27,18,V,R,
464,86,2,11,3,33,47,999,['n'],1,right,['8'],4,165,[-0.11035564],100,47,medium,plus,dotcolour,beta,,,27,18,V,R,
465,87,3,11,3,27,53,716,['n'],1,right,['8'],4,203,[-0.03541324],97,53,easy,plus,dotcolour,beta,,,27,18,V,R,
466,88,4,11,3,27,53,582,['n'],1,right,['8'],4,125,[-0.05743328],100,53,easy,plus,dotcolour,beta,,,27,18,V,R,
467,89,5,11,3,53,27,781,['c'],1,left,['0'],6,145,[0.05057602],99,53,easy,plus,dotcolour,beta,,,27,18,V,R,
468,90,6,11,3,33,47,599,['n'],1,right,['0'],6,109,[-0.07094557],100,47,medium,plus,dotcolour,beta,,,27,18,V,R,
469,91,7,11,3,53,27,548,['c'],1,left,['0'],6,179,[0.06120286],99,53,easy,plus,dotcolour,beta,,,27,18,V,R,
470,92,8,11,3,53,27,697,['c'],1,left,['0'],6,81,[0.10721496],100,53,easy,plus,dotcolour,beta,,,27,18,V,R,
471,93,9,11,3,36,44,798,['n'],1,right,['0'],6,111,[-0.08382165],100,44,hard,plus,dotcolour,beta,,,27,18,V,R,
472,94,10,11,3,27,53,649,['n'],1,right,['0'],6,121,[-0.18552541],100,53,easy,plus,dotcolour,beta,,,27,18,V,R,
473,95,11,11,3,27,53,948,['c'],0,right,['0'],6,145,[0.05586949],99,53,easy,plus,dotcolour,beta,,,27,18,V,R,
474,96,12,11,3,44,36,698,['n'],0,left,['0'],6,152,[-0.10123406],100,44,hard,plus,dotcolour,beta,,,27,18,V,R,
475,97,13,11,3,33,47,516,['n'],1,right,['0'],6,151,[-0.04861955],99,47,medium,plus,dotcolour,beta,,,27,18,V,R,
476,98,14,11,3,33,47,1432,['n'],1,right,['8'],4,105,[-0.08575425],100,47,medium,plus,dotcolour,beta,,,27,18,V,R,
477,99,15,11,3,47,33,566,['n'],0,left,['1'],1,1183,[0.25573875],4,47,medium,plus,dotcolour,beta,,,27,18,V,R,
478,100,16,11,3,33,47,1066,['n'],1,right,['0'],6,174,[-0.09184208],100,47,medium,plus,dotcolour,beta,,,27,18,V,R,
479,101,17,11,3,53,27,898,['c'],1,left,['0'],6,188,[0.1713669],100,53,easy,plus,dotcolour,beta,,,27,18,V,R,
480,102,18,11,3,27,53,282,['c'],0,right,['0'],6,227,[0.03882837],97,53,easy,plus,dotcolour,beta,,,27,18,V,R,
481,103,19,11,3,36,44,1182,['n'],1,right,['0'],6,315,[-0.09252674],99,44,hard,plus,dotcolour,beta,,,27,18,V,R,
482,104,20,11,3,36,44,200,['n'],1,right,['0'],6,216,[-0.11372329],100,44,hard,plus,dotcolour,beta,,,27,18,V,R,
483,105,21,11,3,47,33,71,['c'],1,left,['0'],6,105,[0.07231351],100,47,medium,plus,dotcolour,beta,,,27,18,V,R,
484,106,22,11,3,27,53,217,['c'],0,right,['0'],6,109,[0.04060216],99,53,easy,plus,dotcolour,beta,,,27,18,V,R,
485,107,23,11,3,36,44,450,['n'],1,right,['0'],6,128,[-0.08330458],100,44,hard,plus,dotcolour,beta,,,27,18,V,R,
486,108,24,11,3,44,36,300,['n'],0,left,['0'],6,104,[-0.05067695],100,44,hard,plus,dotcolour,beta,,,27,18,V,R,
487,109,25,11,3,53,27,366,['n'],0,left,['0'],6,71,[-0.07305831],100,53,easy,plus,dotcolour,beta,,,27,18,V,R,
488,110,26,11,3,44,36,383,['c'],1,left,['0'],6,110,[0.05021263],100,44,hard,plus,dotcolour,beta,,,27,18,V,R,
489,111,27,11,3,36,44,516,['c'],0,right,['0'],6,206,[0.08309304],100,44,hard,plus,dotcolour,beta,,,27,18,V,R,
490,112,28,11,3,27,53,1030,['n'],1,right,['0'],6,118,[-0.12417554],100,53,easy,plus,dotcolour,beta,,,27,18,V,R,
491,113,29,11,3,44,36,866,['c'],1,left,['0'],6,88,[0.12450573],100,44,hard,plus,dotcolour,beta,,,27,18,V,R,
492,114,30,11,3,36,44,465,['n'],1,right,['0'],6,107,[-0.09410334],100,44,hard,plus,dotcolour,beta,,,27,18,V,R,
493,115,31,11,3,47,33,316,['c'],1,left,['0'],6,140,[0.11302185],100,47,medium,plus,dotcolour,beta,,,27,18,V,R,
494,116,32,11,3,53,27,448,['c'],1,left,['0'],6,70,[0.09183748],100,53,easy,plus,dotcolour,beta,,,27,18,V,R,
495,117,33,11,3,33,47,416,['n'],1,right,['0'],6,60,[-0.07716562],100,47,medium,plus,dotcolour,beta,,,27,18,V,R,
496,118,34,11,3,44,36,332,['c'],1,left,['0'],6,77,[0.08640659],100,44,hard,plus,dotcolour,beta,,,27,18,V,R,
497,119,35,11,3,47,33,299,['n'],0,left,['0'],6,191,[-0.02462459],96,47,medium,plus,dotcolour,beta,,,27,18,V,R,
498,120,36,11,3,33,47,384,['n'],1,right,['0'],6,97,[-0.08800503],100,47,medium,plus,dotcolour,beta,,,27,18,V,R,
499,121,37,11,3,44,36,533,['c'],1,left,['0'],6,89,[0.10717031],100,44,hard,plus,dotcolour,beta,,,27,18,V,R,
500,122,38,11,3,53,27,215,['n'],0,left,['0'],6,103,[-0.0214613],99,53,easy,plus,dotcolour,beta,,,27,18,V,R,
501,123,39,11,3,47,33,832,['c'],1,left,['0'],6,115,[0.06237649],100,47,medium,plus,dotcolour,beta,,,27,18,V,R,
502,124,40,11,3,36,44,848,['c'],0,right,['0'],6,101,[0.05087117],100,44,hard,plus,dotcolour,beta,,,27,18,V,R,
503,125,41,11,3,47,33,1198,['c'],1,left,['0'],6,99,[0.04787272],100,47,medium,plus,dotcolour,beta,,,27,18,V,R,
504,0,0,12,4,44,36,765,['c'],1,left,['0'],6,107,[0.01750843],11,44,hard,minus,dotcolour,beta,,,27,18,V,R,
505,1,1,12,4,33,47,1015,['n'],1,right,['0'],6,127,[-0.12902386],98,47,medium,minus,dotcolour,beta,,,27,18,V,R,
506,2,2,12,4,36,44,681,['n'],1,right,['0'],6,135,[-0.09295669],86,44,hard,minus,dotcolour,beta,,,27,18,V,R,
507,3,3,12,4,47,33,549,['c'],1,left,['0'],6,198,[0.02302741],21,47,medium,minus,dotcolour,beta,,,27,18,V,R,
508,4,4,12,4,47,33,699,['c'],1,left,['0'],6,147,[0.10452712],91,47,medium,minus,dotcolour,beta,,,27,18,V,R,
509,5,5,12,4,33,47,649,['n'],1,right,['0'],6,132,[-0.05069852],44,47,medium,minus,dotcolour,beta,,,27,18,V,R,
510,6,6,12,4,33,47,598,['n'],1,right,['0'],6,136,[-0.04689351],40,47,medium,minus,dotcolour,beta,,,27,18,V,R,
511,7,7,12,4,33,47,1449,['c'],0,right,['9'],5,178,[0.02303609],20,47,medium,minus,dotcolour,beta,,,27,18,V,R,
512,8,8,12,4,27,53,550,['n'],1,right,['0'],6,126,[-0.09410423],88,53,easy,minus,dotcolour,beta,,,27,18,V,R,
513,9,9,12,4,44,36,1883,['n'],0,left,['9'],5,143,[-0.04186026],34,44,hard,minus,dotcolour,beta,,,27,18,V,R,
514,10,10,12,4,47,33,632,['c'],1,left,['0'],6,145,[0.02694596],21,47,medium,minus,dotcolour,beta,,,27,18,V,R,
515,11,11,12,4,47,33,667,['c'],1,left,['9'],5,178,[0.12847177],96,47,medium,minus,dotcolour,beta,,,27,18,V,R,
516,12,12,12,4,36,44,716,['c'],0,right,['8'],4,775,[0.17424665],92,44,hard,minus,dotcolour,beta,,,27,18,V,R,
517,13,13,12,4,27,53,865,['n'],1,right,['0'],6,182,[-0.15292131],98,53,easy,minus,dotcolour,beta,,,27,18,V,R,
518,14,14,12,4,53,27,1064,['n'],0,left,['9'],5,198,[-0.0630151],57,53,easy,minus,dotcolour,beta,,,27,18,V,R,
519,15,15,12,4,44,36,799,['c'],1,left,['0'],6,167,[0.05526261],50,44,hard,minus,dotcolour,beta,,,27,18,V,R,
520,16,16,12,4,33,47,664,['n'],1,right,['9'],5,175,[-0.13167102],96,47,medium,minus,dotcolour,beta,,,27,18,V,R,
521,17,17,12,4,27,53,815,['n'],1,right,['9'],5,128,[-0.07403228],72,53,easy,minus,dotcolour,beta,,,27,18,V,R,
522,18,18,12,4,53,27,549,['c'],1,left,['9'],5,182,[0.17023252],99,53,easy,minus,dotcolour,beta,,,27,18,V,R,
523,19,19,12,4,36,44,748,['c'],0,right,['9'],5,154,[0.0887885],82,44,hard,minus,dotcolour,beta,,,27,18,V,R,
524,20,20,12,4,53,27,582,['c'],1,left,['9'],5,119,[0.08753531],84,53,easy,minus,dotcolour,beta,,,27,18,V,R,
525,21,21,12,4,53,27,582,['c'],1,left,['0'],6,292,[0.09295138],78,53,easy,minus,dotcolour,beta,,,27,18,V,R,
526,22,22,12,4,27,53,1266,['n'],1,right,['0'],6,158,[-0.10200462],89,53,easy,minus,dotcolour,beta,,,27,18,V,R,
527,23,23,12,4,36,44,549,['n'],1,right,['0'],6,291,[-0.14212606],95,44,hard,minus,dotcolour,beta,,,27,18,V,R,
528,24,24,12,4,47,33,483,['c'],1,left,['0'],6,149,[0.11520203],94,47,medium,minus,dotcolour,beta,,,27,18,V,R,
529,25,25,12,4,47,33,698,['c'],1,left,['0'],6,156,[0.13350433],97,47,medium,minus,dotcolour,beta,,,27,18,V,R,
530,26,26,12,4,36,44,782,['n'],1,right,['9'],5,193,[-0.10204122],87,44,hard,minus,dotcolour,beta,,,27,18,V,R,
531,27,27,12,4,27,53,782,['n'],1,right,['0'],6,178,[-0.06433888],59,53,easy,minus,dotcolour,beta,,,27,18,V,R,
532,28,28,12,4,44,36,600,['c'],1,left,['0'],6,180,[0.11474586],92,44,hard,minus,dotcolour,beta,,,27,18,V,R,
533,29,29,12,4,27,53,599,['n'],1,right,['0'],6,174,[-0.04794865],42,53,easy,minus,dotcolour,beta,,,27,18,V,R,
534,30,30,12,4,47,33,648,['c'],1,left,['0'],6,222,[0.03161743],29,47,medium,minus,dotcolour,beta,,,27,18,V,R,
535,31,31,12,4,53,27,749,['c'],1,left,['0'],6,145,[0.14400264],98,53,easy,minus,dotcolour,beta,,,27,18,V,R,
536,32,32,12,4,44,36,982,['c'],1,left,['9'],5,157,[0.11187483],93,44,hard,minus,dotcolour,beta,,,27,18,V,R,
537,33,33,12,4,27,53,483,['n'],1,right,['9'],5,229,[-0.11109074],89,53,easy,minus,dotcolour,beta,,,27,18,V,R,
538,34,34,12,4,53,27,1182,['c'],1,left,['9'],5,157,[0.09487395],86,53,easy,minus,dotcolour,beta,,,27,18,V,R,
539,35,35,12,4,44,36,731,['c'],1,left,['9'],5,115,[0.04519052],37,44,hard,minus,dotcolour,beta,,,27,18,V,R,
540,36,36,12,4,44,36,614,['n'],0,left,['9'],5,175,[-0.05502376],49,44,hard,minus,dotcolour,beta,,,27,18,V,R,
541,37,37,12,4,33,47,898,['n'],1,right,['9'],5,285,[-0.10168927],83,47,medium,minus,dotcolour,beta,,,27,18,V,R,
542,38,38,12,4,53,27,681,['c'],1,left,['9'],5,176,[0.09142392],82,53,easy,minus,dotcolour,beta,,,27,18,V,R,
543,39,39,12,4,36,44,632,['n'],1,right,['9'],5,208,[-0.12646018],94,44,hard,minus,dotcolour,beta,,,27,18,V,R,
544,40,40,12,4,33,47,665,['n'],1,right,['9'],5,119,[-0.06645083],64,47,medium,minus,dotcolour,beta,,,27,18,V,R,
545,41,41,12,4,36,44,616,['n'],1,right,['9'],5,154,[-0.11837342],95,44,hard,minus,dotcolour,beta,,,27,18,V,R,
546,42,0,13,4,53,27,650,['c'],1,left,['9'],5,162,[0.12095599],95,53,easy,minus,dotcolour,beta,,,27,18,V,R,
547,43,1,13,4,27,53,515,['n'],1,right,['9'],5,191,[-0.13952161],97,53,easy,minus,dotcolour,beta,,,27,18,V,R,
548,44,2,13,4,47,33,564,['c'],1,left,['9'],5,146,[0.09823587],88,47,medium,minus,dotcolour,beta,,,27,18,V,R,
549,45,3,13,4,44,36,433,['c'],1,left,['9'],5,180,[0.14440476],98,44,hard,minus,dotcolour,beta,,,27,18,V,R,
550,46,4,13,4,27,53,432,['n'],1,right,['9'],5,124,[-0.09400089],88,53,easy,minus,dotcolour,beta,,,27,18,V,R,
551,47,5,13,4,27,53,466,['c'],0,right,['9'],5,198,[0.02975286],26,53,easy,minus,dotcolour,beta,,,27,18,V,R,
552,48,6,13,4,27,53,415,['n'],1,right,['9'],5,134,[-0.0699511],67,53,easy,minus,dotcolour,beta,,,27,18,V,R,
553,49,7,13,4,44,36,698,['c'],1,left,['9'],5,119,[0.12641091],98,44,hard,minus,dotcolour,beta,,,27,18,V,R,
554,50,8,13,4,44,36,746,['c'],1,left,['9'],5,77,[0.08988629],90,44,hard,minus,dotcolour,beta,,,27,18,V,R,
555,51,9,13,4,47,33,799,['n'],0,left,['9'],5,91,[-0.05198434],45,47,medium,minus,dotcolour,beta,,,27,18,V,R,
556,52,10,13,4,36,44,1182,['n'],1,right,['8'],4,98,[-0.07882838],79,44,hard,minus,dotcolour,beta,,,27,18,V,R,
557,53,11,13,4,53,27,466,['c'],1,left,['9'],5,276,[0.09774145],81,53,easy,minus,dotcolour,beta,,,27,18,V,R,
558,54,12,13,4,36,44,600,['c'],0,right,['9'],5,291,[0.02396513],26,44,hard,minus,dotcolour,beta,,,27,18,V,R,
559,55,13,13,4,33,47,1281,['n'],1,right,['9'],5,325,[-0.1329595],92,47,medium,minus,dotcolour,beta,,,27,18,V,R,
560,56,14,13,4,44,36,648,['c'],1,left,['9'],5,135,[0.07566408],73,44,hard,minus,dotcolour,beta,,,27,18,V,R,
561,57,15,13,4,47,33,465,['c'],1,left,['9'],5,112,[0.08962733],86,47,medium,minus,dotcolour,beta,,,27,18,V,R,
562,58,16,13,4,36,44,1749,['c'],0,right,['9'],5,183,[0.07291524],67,44,hard,minus,dotcolour,beta,,,27,18,V,R,
563,59,17,13,4,53,27,833,['c'],1,left,['9'],5,160,[0.11447205],93,53,easy,minus,dotcolour,beta,,,27,18,V,R,
564,60,18,13,4,44,36,683,['n'],0,left,['8'],4,191,[0.01032706],6,44,hard,minus,dotcolour,beta,,,27,18,V,R,
565,61,19,13,4,36,44,582,['c'],0,right,['9'],5,121,[0.05999815],56,44,hard,minus,dotcolour,beta,,,27,18,V,R,
566,62,20,13,4,33,47,1032,['n'],1,right,['8'],4,52,[-0.09626309],96,47,medium,minus,dotcolour,beta,,,27,18,V,R,
567,63,21,13,4,33,47,881,['c'],0,right,['8'],4,136,[0.02217726],16,47,medium,minus,dotcolour,beta,,,27,18,V,R,
568,64,22,13,4,44,36,648,['c'],1,left,['8'],4,146,[0.06060234],56,44,hard,minus,dotcolour,beta,,,27,18,V,R,
569,65,23,13,4,44,36,947,['n'],0,left,['8'],4,120,[-0.01800043],12,44,hard,minus,dotcolour,beta,,,27,18,V,R,
570,66,24,13,4,36,44,631,['n'],1,right,['9'],5,195,[-0.06752707],62,44,hard,minus,dotcolour,beta,,,27,18,V,R,
571,67,25,13,4,27,53,615,['n'],1,right,['0'],6,163,[-0.03924908],33,53,easy,minus,dotcolour,beta,,,27,18,V,R,
572,68,26,13,4,33,47,565,['n'],1,right,['0'],6,151,[-0.05488953],49,47,medium,minus,dotcolour,beta,,,27,18,V,R,
573,69,27,13,4,27,53,448,['n'],1,right,['9'],5,144,[-0.06486469],61,53,easy,minus,dotcolour,beta,,,27,18,V,R,
574,70,28,13,4,36,44,599,['n'],1,right,['3'],3,908,[-0.24282752],97,44,hard,minus,dotcolour,beta,,,27,18,V,R,
575,71,29,13,4,47,33,983,['c'],1,left,['9'],5,201,[0.10112515],86,47,medium,minus,dotcolour,beta,,,27,18,V,R,
576,72,30,13,4,33,47,931,['n'],1,right,['0'],6,134,[-0.08323385],80,47,medium,minus,dotcolour,beta,,,27,18,V,R,
577,73,31,13,4,53,27,664,['c'],1,left,['0'],6,223,[0.12941822],94,53,easy,minus,dotcolour,beta,,,27,18,V,R,
578,74,32,13,4,53,27,532,['c'],1,left,['0'],6,370,[0.19702026],99,53,easy,minus,dotcolour,beta,,,27,18,V,R,
579,75,33,13,4,53,27,981,['c'],1,left,['0'],6,277,[0.07317323],65,53,easy,minus,dotcolour,beta,,,27,18,V,R,
580,76,34,13,4,47,33,613,['c'],1,left,['0'],6,154,[0.09461088],86,47,medium,minus,dotcolour,beta,,,27,18,V,R,
581,77,35,13,4,33,47,932,['n'],1,right,['0'],6,128,[-0.10902561],94,47,medium,minus,dotcolour,beta,,,27,18,V,R,
582,78,36,13,4,47,33,498,['c'],1,left,['0'],6,145,[0.11620003],95,47,medium,minus,dotcolour,beta,,,27,18,V,R,
583,79,37,13,4,53,27,516,['c'],1,left,['0'],6,303,[0.11658721],88,53,easy,minus,dotcolour,beta,,,27,18,V,R,
584,80,38,13,4,27,53,615,['n'],1,right,['0'],6,131,[-0.05691694],52,53,easy,minus,dotcolour,beta,,,27,18,V,R,
585,81,39,13,4,47,33,615,['c'],1,left,['0'],6,103,[0.06730266],66,47,medium,minus,dotcolour,beta,,,27,18,V,R,
586,82,40,13,4,33,47,600,['n'],1,right,['0'],6,148,[-0.05253193],46,47,medium,minus,dotcolour,beta,,,27,18,V,R,
587,83,41,13,4,36,44,965,['c'],0,right,['0'],6,145,[0.0707412],67,44,hard,minus,dotcolour,beta,,,27,18,V,R,
588,84,0,14,4,27,53,800,['n'],1,right,['0'],6,127,[-0.05855489],54,53,easy,minus,dotcolour,beta,,,27,18,V,R,
589,85,1,14,4,36,44,548,['n'],1,right,['0'],6,156,[-0.08323738],78,44,hard,minus,dotcolour,beta,,,27,18,V,R,
590,86,2,14,4,44,36,583,['c'],1,left,['0'],6,193,[0.12672716],95,44,hard,minus,dotcolour,beta,,,27,18,V,R,
591,87,3,14,4,36,44,648,['n'],1,right,['0'],6,168,[-0.07846352],73,44,hard,minus,dotcolour,beta,,,27,18,V,R,
592,88,4,14,4,33,47,500,['n'],1,right,['0'],6,126,[-0.06683426],64,47,medium,minus,dotcolour,beta,,,27,18,V,R,
593,89,5,14,4,44,36,514,['n'],0,left,['0'],6,118,[-0.10027383],91,44,hard,minus,dotcolour,beta,,,27,18,V,R,
594,90,6,14,4,33,47,399,['n'],1,right,['0'],6,121,[-0.10017073],91,47,medium,minus,dotcolour,beta,,,27,18,V,R,
595,91,7,14,4,53,27,315,['n'],0,left,['0'],6,113,[-0.10275195],93,53,easy,minus,dotcolour,beta,,,27,18,V,R,
596,92,8,14,4,47,33,448,['c'],1,left,['0'],6,204,[0.08705713],78,47,medium,minus,dotcolour,beta,,,27,18,V,R,
597,93,9,14,4,27,53,417,['n'],1,right,['0'],6,181,[-0.1749062],99,53,easy,minus,dotcolour,beta,,,27,18,V,R,
598,94,10,14,4,27,53,499,['n'],1,right,['0'],6,171,[-0.15320184],99,53,easy,minus,dotcolour,beta,,,27,18,V,R,
599,95,11,14,4,33,47,632,['c'],0,right,['9'],5,300,[0.01690906],22,47,medium,minus,dotcolour,beta,,,27,18,V,R,
600,96,12,14,4,53,27,932,['c'],1,left,['0'],6,155,[0.13310393],97,53,easy,minus,dotcolour,beta,,,27,18,V,R,
601,97,13,14,4,47,33,1549,['c'],1,left,['0'],6,161,[0.10130084],89,47,medium,minus,dotcolour,beta,,,27,18,V,R,
602,98,14,14,4,53,27,550,['c'],1,left,['0'],6,166,[-0.01466203],4,53,easy,minus,dotcolour,beta,,,27,18,V,R,
603,99,15,14,4,27,53,731,['n'],1,right,['0'],6,195,[-0.15642532],98,53,easy,minus,dotcolour,beta,,,27,18,V,R,
604,100,16,14,4,36,44,1731,['n'],1,right,['9'],5,191,[-0.08619105],78,44,hard,minus,dotcolour,beta,,,27,18,V,R,
605,101,17,14,4,53,27,751,['c'],1,left,['0'],6,274,[0.2455608],100,53,easy,minus,dotcolour,beta,,,27,18,V,R,
606,102,18,14,4,47,33,733,['c'],1,left,['0'],6,187,[0.15786832],99,47,medium,minus,dotcolour,beta,,,27,18,V,R,
607,103,19,14,4,44,36,915,['c'],1,left,['9'],5,120,[0.06698223],64,44,hard,minus,dotcolour,beta,,,27,18,V,R,
608,104,20,14,4,27,53,748,['n'],1,right,['0'],6,143,[-0.16092015],99,53,easy,minus,dotcolour,beta,,,27,18,V,R,
609,105,21,14,4,44,36,748,['c'],1,left,['9'],5,148,[0.10414881],91,44,hard,minus,dotcolour,beta,,,27,18,V,R,
610,106,22,14,4,44,36,633,['c'],1,left,['9'],5,102,[0.07572237],76,44,hard,minus,dotcolour,beta,,,27,18,V,R,
611,107,23,14,4,53,27,1331,['c'],1,left,['9'],5,134,[0.0392194],31,53,easy,minus,dotcolour,beta,,,27,18,V,R,
612,108,24,14,4,44,36,500,['c'],1,left,['9'],5,94,[0.14970615],100,44,hard,minus,dotcolour,beta,,,27,18,V,R,
613,109,25,14,4,27,53,998,['n'],1,right,['9'],5,683,[-0.14432959],87,53,easy,minus,dotcolour,beta,,,27,18,V,R,
614,110,26,14,4,27,53,548,['n'],1,right,['9'],5,99,[-0.06415365],62,53,easy,minus,dotcolour,beta,,,27,18,V,R,
615,111,27,14,4,47,33,564,['c'],1,left,['9'],5,146,[0.0743169],71,47,medium,minus,dotcolour,beta,,,27,18,V,R,
616,112,28,14,4,44,36,649,['c'],1,left,['9'],5,124,[0.05597592],51,44,hard,minus,dotcolour,beta,,,27,18,V,R,
617,113,29,14,4,47,33,465,['c'],1,left,['9'],5,109,[0.05515647],49,47,medium,minus,dotcolour,beta,,,27,18,V,R,
618,114,30,14,4,33,47,565,['n'],1,right,['9'],5,115,[-0.0446859],36,47,medium,minus,dotcolour,beta,,,27,18,V,R,
619,115,31,14,4,47,33,665,['c'],1,left,['9'],5,173,[0.09515438],85,47,medium,minus,dotcolour,beta,,,27,18,V,R,
620,116,32,14,4,33,47,732,['n'],1,right,['9'],5,170,[-0.06629476],62,47,medium,minus,dotcolour,beta,,,27,18,V,R,
621,117,33,14,4,33,47,681,['n'],1,right,['9'],5,105,[0.00089647],4,47,medium,minus,dotcolour,beta,,,27,18,V,R,
622,118,34,14,4,47,33,748,['c'],1,left,['9'],5,176,[0.14591388],98,47,medium,minus,dotcolour,beta,,,27,18,V,R,
623,119,35,14,4,53,27,466,['c'],1,left,['9'],5,247,[0.19979308],99,53,easy,minus,dotcolour,beta,,,27,18,V,R,
624,120,36,14,4,36,44,781,['c'],0,right,['9'],5,160,[0.07568639],71,44,hard,minus,dotcolour,beta,,,27,18,V,R,
625,121,37,14,4,53,27,882,['c'],1,left,['9'],5,127,[0.04841235],41,53,easy,minus,dotcolour,beta,,,27,18,V,R,
626,122,38,14,4,36,44,1148,['c'],0,right,['9'],5,221,[0.09262069],81,44,hard,minus,dotcolour,beta,,,27,18,V,R,
627,123,39,14,4,33,47,746,['n'],1,right,['9'],5,199,[-0.06469228],59,47,medium,minus,dotcolour,beta,,,27,18,V,R,
628,124,40,14,4,36,44,1216,['n'],1,right,['9'],5,104,[-0.10936216],95,44,hard,minus,dotcolour,beta,,,27,18,V,R,
629,125,41,14,4,36,44,699,['c'],0,right,['9'],5,97,[0.04379709],34,44,hard,minus,dotcolour,beta,,,27,18,V,R,
630,0,0,15,5,53,27,833,['c'],1,left,['9'],5,132,[0.12580344],100,53,easy,plus,dotcolour,beta,,,27,18,V,R,
631,1,1,15,5,44,36,733,['c'],1,left,['9'],5,10,[0.06663308],100,44,hard,plus,dotcolour,beta,,,27,18,V,R,
632,2,2,15,5,53,27,550,['c'],1,left,['9'],5,61,[0.0399359],100,53,easy,plus,dotcolour,beta,,,27,18,V,R,
633,3,3,15,5,33,47,532,['n'],1,right,['9'],5,86,[-0.05685776],100,47,medium,plus,dotcolour,beta,,,27,18,V,R,
634,4,4,15,5,27,53,366,['n'],1,right,['9'],5,149,[-0.12533327],100,53,easy,plus,dotcolour,beta,,,27,18,V,R,
635,5,5,15,5,36,44,348,['n'],1,right,['0'],6,115,[-0.03682394],99,44,hard,plus,dotcolour,beta,,,27,18,V,R,
636,6,6,15,5,27,53,497,['n'],1,right,['0'],6,115,[-0.11455344],100,53,easy,plus,dotcolour,beta,,,27,18,V,R,
637,7,7,15,5,33,47,249,['n'],1,right,['0'],6,30,[-0.08174492],100,47,medium,plus,dotcolour,beta,,,27,18,V,R,
638,8,8,15,5,27,53,173,['n'],1,right,['0'],6,854,[-0.14754167],98,53,easy,plus,dotcolour,beta,,,27,18,V,R,
639,9,9,15,5,44,36,433,['n'],0,left,['0'],6,52,[-0.01273573],100,44,hard,plus,dotcolour,beta,,,27,18,V,R,
640,10,10,15,5,53,27,333,['c'],1,left,['0'],6,501,[0.08134565],97,53,easy,plus,dotcolour,beta,,,27,18,V,R,
641,11,11,15,5,33,47,416,['n'],1,right,['0'],6,114,[-0.0692117],100,47,medium,plus,dotcolour,beta,,,27,18,V,R,
642,12,12,15,5,33,47,400,['n'],1,right,['0'],6,135,[-0.10415341],100,47,medium,plus,dotcolour,beta,,,27,18,V,R,
643,13,13,15,5,36,44,316,['n'],1,right,['0'],6,118,[-0.03903132],99,44,hard,plus,dotcolour,beta,,,27,18,V,R,
644,14,14,15,5,27,53,347,['n'],1,right,['0'],6,86,[-0.10393349],100,53,easy,plus,dotcolour,beta,,,27,18,V,R,
645,15,15,15,5,33,47,366,['n'],1,right,['0'],6,76,[-0.03905235],100,47,medium,plus,dotcolour,beta,,,27,18,V,R,
646,16,16,15,5,36,44,348,['n'],1,right,['0'],6,100,[-0.06668825],100,44,hard,plus,dotcolour,beta,,,27,18,V,R,
647,17,17,15,5,44,36,299,['n'],0,left,['0'],6,110,[-0.09827061],100,44,hard,plus,dotcolour,beta,,,27,18,V,R,
648,18,18,15,5,33,47,283,['c'],0,right,['0'],6,119,[0.07323381],100,47,medium,plus,dotcolour,beta,,,27,18,V,R,
649,19,19,15,5,53,27,107,['n'],0,left,['0'],6,11,[-0.05291314],100,53,easy,plus,dotcolour,beta,,,27,18,V,R,
650,20,20,15,5,47,33,333,['c'],1,left,['0'],6,46,[0.09662998],100,47,medium,plus,dotcolour,beta,,,27,18,V,R,
651,21,21,15,5,44,36,214,['c'],1,left,['0'],6,13,[0.07655028],100,44,hard,plus,dotcolour,beta,,,27,18,V,R,
652,22,22,15,5,53,27,746,['c'],1,left,['0'],6,64,[0.07589452],100,53,easy,plus,dotcolour,beta,,,27,18,V,R,
653,23,23,15,5,36,44,216,['c'],0,right,['0'],6,38,[0.10052177],100,44,hard,plus,dotcolour,beta,,,27,18,V,R,
654,24,24,15,5,44,36,63,['n'],0,left,['0'],6,1126,[-0.18820003],98,44,hard,plus,dotcolour,beta,,,27,18,V,R,
655,25,25,15,5,36,44,449,['n'],1,right,['0'],6,112,[-0.08104549],100,44,hard,plus,dotcolour,beta,,,27,18,V,R,
656,26,26,15,5,27,53,332,['c'],0,right,['0'],6,135,[0.02828533],98,53,easy,plus,dotcolour,beta,,,27,18,V,R,
657,27,27,15,5,27,53,433,['n'],1,right,['0'],6,97,[-0.10928186],100,53,easy,plus,dotcolour,beta,,,27,18,V,R,
658,28,28,15,5,44,36,330,['n'],0,left,['0'],6,113,[-0.04706221],100,44,hard,plus,dotcolour,beta,,,27,18,V,R,
659,29,29,15,5,47,33,531,['c'],1,left,['0'],6,120,[0.11863002],100,47,medium,plus,dotcolour,beta,,,27,18,V,R,
660,30,30,15,5,53,27,399,['n'],0,left,['0'],6,133,[-0.09661253],100,53,easy,plus,dotcolour,beta,,,27,18,V,R,
661,31,31,15,5,36,44,699,['n'],1,right,['0'],6,101,[-0.05677205],100,44,hard,plus,dotcolour,beta,,,27,18,V,R,
662,32,32,15,5,27,53,465,['c'],0,right,['0'],6,64,[0.07395815],100,53,easy,plus,dotcolour,beta,,,27,18,V,R,
663,33,33,15,5,47,33,733,['n'],0,left,['0'],6,97,[-0.06231377],100,47,medium,plus,dotcolour,beta,,,27,18,V,R,
664,34,34,15,5,33,47,633,['n'],1,right,['0'],6,117,[-0.07666768],100,47,medium,plus,dotcolour,beta,,,27,18,V,R,
665,35,35,15,5,47,33,465,['c'],1,left,['0'],6,111,[0.15315864],100,47,medium,plus,dotcolour,beta,,,27,18,V,R,
666,36,36,15,5,44,36,599,['c'],1,left,['0'],6,92,[0.03757368],100,44,hard,plus,dotcolour,beta,,,27,18,V,R,
667,37,37,15,5,53,27,615,['c'],1,left,['0'],6,120,[0.07468872],100,53,easy,plus,dotcolour,beta,,,27,18,V,R,
668,38,38,15,5,47,33,633,['c'],1,left,['0'],6,140,[0.07801361],100,47,medium,plus,dotcolour,beta,,,27,18,V,R,
669,39,39,15,5,47,33,882,['c'],1,left,['0'],6,132,[0.12216705],100,47,medium,plus,dotcolour,beta,,,27,18,V,R,
670,40,40,15,5,47,33,649,['c'],1,left,['0'],6,142,[0.13164737],100,47,medium,plus,dotcolour,beta,,,27,18,V,R,
671,41,41,15,5,36,44,665,['c'],0,right,['0'],6,39,[0.0823257],100,44,hard,plus,dotcolour,beta,,,27,18,V,R,
672,42,0,16,5,36,44,750,['n'],1,right,['0'],6,111,[-0.13983373],100,44,hard,plus,dotcolour,beta,,,27,18,V,R,
673,43,1,16,5,53,27,564,['c'],1,left,['0'],6,148,[0.10319641],100,53,easy,plus,dotcolour,beta,,,27,18,V,R,
674,44,2,16,5,47,33,515,['c'],1,left,['0'],6,107,[0.04209367],100,47,medium,plus,dotcolour,beta,,,27,18,V,R,
675,45,3,16,5,27,53,532,['n'],1,right,['0'],6,155,[-0.06541052],100,53,easy,plus,dotcolour,beta,,,27,18,V,R,
676,46,4,16,5,44,36,432,['c'],1,left,['0'],6,157,[0.10371052],100,44,hard,plus,dotcolour,beta,,,27,18,V,R,
677,47,5,16,5,27,53,330,['c'],0,right,['0'],6,211,[-0.01359492],84,53,easy,plus,dotcolour,beta,,,27,18,V,R,
678,48,6,16,5,27,53,399,['n'],1,right,['0'],6,124,[-0.06364857],100,53,easy,plus,dotcolour,beta,,,27,18,V,R,
679,49,7,16,5,53,27,601,['c'],1,left,['0'],6,152,[0.07603186],100,53,easy,plus,dotcolour,beta,,,27,18,V,R,
680,50,8,16,5,47,33,515,['c'],1,left,['0'],6,174,[0.09246516],100,47,medium,plus,dotcolour,beta,,,27,18,V,R,
681,51,9,16,5,53,27,448,['c'],1,left,['0'],6,159,[0.05122636],99,53,easy,plus,dotcolour,beta,,,27,18,V,R,
682,52,10,16,5,44,36,499,['c'],1,left,['0'],6,149,[0.0851191],100,44,hard,plus,dotcolour,beta,,,27,18,V,R,
683,53,11,16,5,33,47,699,['n'],1,right,['9'],5,133,[-0.08299451],100,47,medium,plus,dotcolour,beta,,,27,18,V,R,
684,54,12,16,5,36,44,465,['c'],0,right,['8'],4,654,[0.13306043],99,44,hard,plus,dotcolour,beta,,,27,18,V,R,
685,55,13,16,5,44,36,833,['c'],1,left,['9'],5,75,[0.058168],100,44,hard,plus,dotcolour,beta,,,27,18,V,R,
686,56,14,16,5,47,33,664,['c'],1,left,['9'],5,151,[0.15400033],100,47,medium,plus,dotcolour,beta,,,27,18,V,R,
687,57,15,16,5,36,44,599,['c'],0,right,['9'],5,130,[0.09833033],100,44,hard,plus,dotcolour,beta,,,27,18,V,R,
688,58,16,16,5,27,53,1065,['c'],0,right,['1'],1,1027,[-0.08367237],38,53,easy,plus,dotcolour,beta,,,27,18,V,R,
689,59,17,16,5,33,47,1084,['c'],0,right,['9'],5,208,[0.05244755],99,47,medium,plus,dotcolour,beta,,,27,18,V,R,
690,60,18,16,5,44,36,715,['c'],1,left,['9'],5,124,[0.104085],100,44,hard,plus,dotcolour,beta,,,27,18,V,R,
691,61,19,16,5,33,47,348,['c'],0,right,['9'],5,226,[0.14777013],100,47,medium,plus,dotcolour,beta,,,27,18,V,R,
692,62,20,16,5,53,27,348,['c'],1,left,['9'],5,261,[0.07760135],99,53,easy,plus,dotcolour,beta,,,27,18,V,R,
693,63,21,16,5,36,44,399,['c'],0,right,['9'],5,235,[0.07422202],99,44,hard,plus,dotcolour,beta,,,27,18,V,R,
694,64,22,16,5,33,47,382,['n'],1,right,['0'],6,163,[-0.02811626],98,47,medium,plus,dotcolour,beta,,,27,18,V,R,
695,65,23,16,5,27,53,249,['n'],1,right,['0'],6,140,[-0.0698739],100,53,easy,plus,dotcolour,beta,,,27,18,V,R,
696,66,24,16,5,36,44,89,['c'],0,right,['0'],6,688,[0.07266886],94,44,hard,plus,dotcolour,beta,,,27,18,V,R,
697,67,25,16,5,53,27,2415,['n'],0,left,['9'],5,557,[0.09675787],27,53,easy,plus,dotcolour,beta,,,27,18,V,R,
698,68,26,16,5,47,33,349,['n'],0,left,['9'],5,273,[-0.05511811],98,47,medium,plus,dotcolour,beta,,,27,18,V,R,
699,69,27,16,5,53,27,127,['n'],0,left,['9'],5,279,[-0.05397349],98,53,easy,plus,dotcolour,beta,,,27,18,V,R,
700,70,28,16,5,44,36,282,['c'],1,left,['9'],5,50,[0.08718102],100,44,hard,plus,dotcolour,beta,,,27,18,V,R,
701,71,29,16,5,33,47,232,['n'],1,right,['0'],6,104,[-0.12530317],100,47,medium,plus,dotcolour,beta,,,27,18,V,R,
702,72,30,16,5,27,53,1415,['c'],0,right,['0'],6,189,[0.1127742],100,53,easy,plus,dotcolour,beta,,,27,18,V,R,
703,73,31,16,5,53,27,119,['n'],0,left,['0'],6,55,[-0.077902],100,53,easy,plus,dotcolour,beta,,,27,18,V,R,
704,74,32,16,5,47,33,466,['c'],1,left,['0'],6,227,[0.10224022],100,47,medium,plus,dotcolour,beta,,,27,18,V,R,
705,75,33,16,5,44,36,398,['c'],1,left,['0'],6,171,[0.1032967],100,44,hard,plus,dotcolour,beta,,,27,18,V,R,
706,76,34,16,5,27,53,1132,['n'],1,right,['0'],6,168,[-0.07291889],100,53,easy,plus,dotcolour,beta,,,27,18,V,R,
707,77,35,16,5,33,47,482,['n'],1,right,['0'],6,111,[-0.02838245],99,47,medium,plus,dotcolour,beta,,,27,18,V,R,
708,78,36,16,5,36,44,348,['n'],1,right,['0'],6,94,[-0.11578291],100,44,hard,plus,dotcolour,beta,,,27,18,V,R,
709,79,37,16,5,33,47,649,['n'],1,right,['0'],6,82,[-0.07419424],100,47,medium,plus,dotcolour,beta,,,27,18,V,R,
710,80,38,16,5,44,36,449,['n'],0,left,"['9', '0']",5,142,[-0.08029455],100,44,hard,plus,dotcolour,beta,,,27,18,V,R,
711,81,39,16,5,47,33,599,['c'],1,left,['0'],6,153,[0.09505706],100,47,medium,plus,dotcolour,beta,,,27,18,V,R,
712,82,40,16,5,36,44,1032,['n'],1,right,['0'],6,115,[-0.09757808],100,44,hard,plus,dotcolour,beta,,,27,18,V,R,
713,83,41,16,5,47,33,349,['n'],0,left,['0'],6,129,[-0.0634833],100,47,medium,plus,dotcolour,beta,,,27,18,V,R,
714,84,0,17,5,53,27,800,['c'],1,left,['9'],5,122,[0.08582485],100,53,easy,plus,dotcolour,beta,,,27,18,V,R,
715,85,1,17,5,47,33,532,['c'],1,left,['9'],5,170,[0.10139393],100,47,medium,plus,dotcolour,beta,,,27,18,V,R,
716,86,2,17,5,27,53,599,['n'],1,right,['9'],5,108,[-0.10069866],100,53,easy,plus,dotcolour,beta,,,27,18,V,R,
717,87,3,17,5,47,33,982,['c'],1,left,['9'],5,234,[0.06990433],99,47,medium,plus,dotcolour,beta,,,27,18,V,R,
718,88,4,17,5,33,47,565,['n'],1,right,['9'],5,299,[-0.13759762],100,47,medium,plus,dotcolour,beta,,,27,18,V,R,
719,89,5,17,5,44,36,680,['c'],1,left,['9'],5,477,[0.15949095],100,44,hard,plus,dotcolour,beta,,,27,18,V,R,
720,90,6,17,5,36,44,549,['n'],1,right,['9'],5,149,[-0.03222371],98,44,hard,plus,dotcolour,beta,,,27,18,V,R,
721,91,7,17,5,33,47,648,['n'],1,right,['9'],5,159,[-0.07497734],100,47,medium,plus,dotcolour,beta,,,27,18,V,R,
722,92,8,17,5,53,27,1148,['c'],1,left,['9'],5,835,[0.27948917],100,53,easy,plus,dotcolour,beta,,,27,18,V,R,
723,93,9,17,5,47,33,1199,['n'],0,left,['0'],6,267,[-0.04920259],97,47,medium,plus,dotcolour,beta,,,27,18,V,R,
724,94,10,17,5,27,53,582,['n'],1,right,['0'],6,146,[-0.1001807],100,53,easy,plus,dotcolour,beta,,,27,18,V,R,
725,95,11,17,5,44,36,1013,['n'],0,left,['8'],4,133,[-0.05022712],99,44,hard,plus,dotcolour,beta,,,27,18,V,R,
726,96,12,17,5,33,47,565,['n'],1,right,['9'],5,131,[-0.12658764],100,47,medium,plus,dotcolour,beta,,,27,18,V,R,
727,97,13,17,5,47,33,681,['c'],1,left,['9'],5,123,[0.05779483],100,47,medium,plus,dotcolour,beta,,,27,18,V,R,
728,98,14,17,5,53,27,466,['c'],1,left,['9'],5,125,[0.07011047],100,53,easy,plus,dotcolour,beta,,,27,18,V,R,
729,99,15,17,5,44,36,548,['c'],1,left,['9'],5,171,[0.10315949],100,44,hard,plus,dotcolour,beta,,,27,18,V,R,
730,100,16,17,5,44,36,816,['c'],1,left,['8'],4,189,[0.11423028],100,44,hard,plus,dotcolour,beta,,,27,18,V,R,
731,101,17,17,5,44,36,598,['c'],1,left,['8'],4,166,[-0.00305576],91,44,hard,plus,dotcolour,beta,,,27,18,V,R,
732,102,18,17,5,36,44,749,['n'],1,right,['9'],5,171,[-0.05540024],99,44,hard,plus,dotcolour,beta,,,27,18,V,R,
733,103,19,17,5,36,44,732,['n'],1,right,['9'],5,183,[-0.10663541],100,44,hard,plus,dotcolour,beta,,,27,18,V,R,
734,104,20,17,5,36,44,516,['n'],1,right,['9'],5,125,[-0.10400729],100,44,hard,plus,dotcolour,beta,,,27,18,V,R,
735,105,21,17,5,33,47,783,['n'],1,right,['9'],5,162,[-0.09439436],100,47,medium,plus,dotcolour,beta,,,27,18,V,R,
736,106,22,17,5,47,33,1282,['c'],1,left,['8'],4,137,[0.13312459],100,47,medium,plus,dotcolour,beta,,,27,18,V,R,
737,107,23,17,5,27,53,932,['c'],0,right,['8'],4,136,[0.04037359],99,53,easy,plus,dotcolour,beta,,,27,18,V,R,
738,108,24,17,5,36,44,633,['n'],1,right,['9'],5,122,[-0.08578027],100,44,hard,plus,dotcolour,beta,,,27,18,V,R,
739,109,25,17,5,53,27,982,['c'],1,left,['8'],4,88,[0.090451],100,53,easy,plus,dotcolour,beta,,,27,18,V,R,
740,110,26,17,5,53,27,1282,['n'],0,left,['8'],4,67,[-0.04734462],100,53,easy,plus,dotcolour,beta,,,27,18,V,R,
741,111,27,17,5,33,47,732,['n'],1,right,['8'],4,44,[-0.07169244],100,47,medium,plus,dotcolour,beta,,,27,18,V,R,
742,112,28,17,5,44,36,783,['c'],1,left,['8'],4,92,[0.07171905],100,44,hard,plus,dotcolour,beta,,,27,18,V,R,
743,113,29,17,5,33,47,647,['n'],1,right,['8'],4,367,[-0.18041649],100,47,medium,plus,dotcolour,beta,,,27,18,V,R,
744,114,30,17,5,27,53,531,['n'],1,right,['8'],4,125,[-0.05346488],100,53,easy,plus,dotcolour,beta,,,27,18,V,R,
745,115,31,17,5,27,53,482,['n'],1,right,['8'],4,613,[-0.16489104],99,53,easy,plus,dotcolour,beta,,,27,18,V,R,
746,116,32,17,5,53,27,515,['c'],1,left,['8'],4,153,[0.09189258],100,53,easy,plus,dotcolour,beta,,,27,18,V,R,
747,117,33,17,5,44,36,748,['c'],1,left,['8'],4,471,[0.05221122],94,44,hard,plus,dotcolour,beta,,,27,18,V,R,
748,118,34,17,5,47,33,682,['c'],1,left,['8'],4,2,[0.07480413],100,47,medium,plus,dotcolour,beta,,,27,18,V,R,
749,119,35,17,5,27,53,532,['n'],1,right,['8'],4,102,[-0.13148494],100,53,easy,plus,dotcolour,beta,,,27,18,V,R,
750,120,36,17,5,53,27,582,['c'],1,left,['8'],4,124,[0.1220697],100,53,easy,plus,dotcolour,beta,,,27,18,V,R,
751,121,37,17,5,36,44,800,['c'],0,right,['8'],4,3897,[0.07654861],77,44,hard,plus,dotcolour,beta,,,27,18,V,R,
752,122,38,17,5,36,44,898,['n'],1,right,['9'],5,145,[-0.11104858],100,44,hard,plus,dotcolour,beta,,,27,18,V,R,
753,123,39,17,5,27,53,617,['n'],1,right,['9'],5,139,[-0.03334995],99,53,easy,plus,dotcolour,beta,,,27,18,V,R,
754,124,40,17,5,33,47,848,['c'],0,right,['9'],5,157,[-0.02550725],80,47,medium,plus,dotcolour,beta,,,27,18,V,R,
755,125,41,17,5,47,33,649,['c'],1,left,['9'],5,141,[0.08770578],100,47,medium,plus,dotcolour,beta,,,27,18,V,R,
,,,,,,,,,,,,,,,,,,,,,1,op bepaalde momenten had je erg hoge scores achter elkaar ookal wist je dat je de foute kleur had gekozen,27,18,V,R,
,,,,,,,,,,,,,,,,,,,,,2,['g'],27,18,V,R,
,,,,,,,,,,,,,,,,,,,,,3,['f'],27,18,V,R,
,,,,,,,,,,,,,,,,,,,,,5,[],27,18,V,R,
