trial,withinphasetrial,withinblocktrial,block,phase,dotsLeft,dotsRight,rt,resp,cor,cresp,conf_press,cj,RTconf,ev,fb,diff,difflevel,condition,task,manip,questionID,questionResp,sub,age,gender,handedness,
0,0,0,0,0,27,53,2683,['n'],1,right,['3'],4,1897,[-0.19932449],99,53,easy,plus,dotcolour,alfa,,,120,19,V,R,
1,1,1,0,0,33,47,1284,['n'],1,right,['3'],4,1642,[-0.03541648],73,47,medium,plus,dotcolour,alfa,,,120,19,V,R,
2,2,2,0,0,36,44,1200,['n'],1,right,['3'],4,3128,[0.03211783],34,44,hard,plus,dotcolour,alfa,,,120,19,V,R,
3,3,3,0,0,53,27,1283,['c'],1,left,['2'],5,2297,[0.42006498],100,53,easy,plus,dotcolour,alfa,,,120,19,V,R,
4,4,4,0,0,36,44,1467,['n'],1,right,['8'],3,1002,[-0.24452139],100,44,hard,plus,dotcolour,alfa,,,120,19,V,R,
5,5,5,0,0,44,36,2050,['c'],1,left,['2'],5,1801,[0.14043687],98,44,hard,plus,dotcolour,alfa,,,120,19,V,R,
6,6,6,0,0,36,44,1817,['c'],0,right,['2'],5,1377,[0.2006301],100,44,hard,plus,dotcolour,alfa,,,120,19,V,R,
7,7,7,0,0,44,36,1417,['n'],0,left,['8'],3,1075,[-0.07523691],93,44,hard,plus,dotcolour,alfa,,,120,19,V,R,
8,8,8,0,0,27,53,1067,['n'],1,right,['2'],5,1374,[-0.45112527],100,53,easy,plus,dotcolour,alfa,,,120,19,V,R,
9,9,9,0,0,27,53,1500,['n'],1,right,['2'],5,1300,[-0.30071309],100,53,easy,plus,dotcolour,alfa,,,120,19,V,R,
10,10,10,0,0,53,27,1234,['c'],1,left,['1'],6,591,[0.01341612],65,53,easy,plus,dotcolour,alfa,,,120,19,V,R,
11,11,11,0,0,33,47,800,['n'],1,right,['1'],6,896,[-0.31108799],100,47,medium,plus,dotcolour,alfa,,,120,19,V,R,
12,12,12,0,0,53,27,900,['c'],1,left,['1'],6,402,[0.11803873],100,53,easy,plus,dotcolour,alfa,,,120,19,V,R,
13,13,13,0,0,33,47,684,['n'],1,right,['1'],6,400,[-0.20877228],100,47,medium,plus,dotcolour,alfa,,,120,19,V,R,
14,14,14,0,0,44,36,750,['c'],1,left,['1'],6,331,[0.20739313],100,44,hard,plus,dotcolour,alfa,,,120,19,V,R,
15,15,15,0,0,33,47,767,['n'],1,right,['2'],5,520,[-0.177378],100,47,medium,plus,dotcolour,alfa,,,120,19,V,R,
16,16,16,0,0,47,33,1000,['c'],1,left,['2'],5,364,[0.08021365],99,47,medium,plus,dotcolour,alfa,,,120,19,V,R,
17,17,17,0,0,44,36,1317,['n'],0,left,['1'],6,362,[-0.0570323],97,44,hard,plus,dotcolour,alfa,,,120,19,V,R,
18,18,18,0,0,36,44,917,['c'],0,right,['1'],6,441,[0.05170495],94,44,hard,plus,dotcolour,alfa,,,120,19,V,R,
19,19,19,0,0,53,27,817,['c'],1,left,['1'],6,311,[0.05296192],97,53,easy,plus,dotcolour,alfa,,,120,19,V,R,
20,20,20,0,0,47,33,816,['c'],1,left,['1'],6,316,[0.03589506],91,47,medium,plus,dotcolour,alfa,,,120,19,V,R,
21,21,21,0,0,27,53,616,['n'],1,right,['1'],6,311,[-0.21877476],100,53,easy,plus,dotcolour,alfa,,,120,19,V,R,
22,22,22,0,0,47,33,1317,['c'],1,left,['2'],5,328,[0.19616035],100,47,medium,plus,dotcolour,alfa,,,120,19,V,R,
23,23,23,0,0,27,53,667,['n'],1,right,['1'],6,321,[0.0066855],40,53,easy,plus,dotcolour,alfa,,,120,19,V,R,
24,24,24,0,0,36,44,1449,['n'],1,right,['3'],4,2707,[-0.14610377],96,44,hard,plus,dotcolour,alfa,,,120,19,V,R,
25,25,25,0,0,44,36,1334,['n'],0,left,['8'],3,2386,[0.38061723],0,44,hard,plus,dotcolour,alfa,,,120,19,V,R,
26,26,26,0,0,53,27,1034,['c'],1,left,['2'],5,1226,[0.2553637],100,53,easy,plus,dotcolour,alfa,,,120,19,V,R,
27,27,27,0,0,53,27,1284,['c'],1,left,['3'],4,895,[0.23895585],100,53,easy,plus,dotcolour,alfa,,,120,19,V,R,
28,28,28,0,0,47,33,1549,['n'],0,left,['8'],3,1487,[-0.15243121],99,47,medium,plus,dotcolour,alfa,,,120,19,V,R,
29,29,29,0,0,47,33,816,['c'],1,left,['2'],5,484,[0.15164558],100,47,medium,plus,dotcolour,alfa,,,120,19,V,R,
30,30,30,0,0,47,33,1084,['c'],1,left,['2'],5,574,[0.11855967],100,47,medium,plus,dotcolour,alfa,,,120,19,V,R,
31,31,31,0,0,27,53,884,['n'],1,right,['2'],5,364,[-0.2121399],100,53,easy,plus,dotcolour,alfa,,,120,19,V,R,
32,32,32,0,0,27,53,667,['n'],1,right,['1'],6,636,[-0.18597327],100,53,easy,plus,dotcolour,alfa,,,120,19,V,R,
33,33,33,0,0,36,44,700,['n'],1,right,['2'],5,656,[-0.04996404],90,44,hard,plus,dotcolour,alfa,,,120,19,V,R,
34,34,34,0,0,36,44,634,['n'],1,right,['2'],5,333,[-0.18948972],100,44,hard,plus,dotcolour,alfa,,,120,19,V,R,
35,35,35,0,0,33,47,600,['n'],1,right,['1'],6,321,[-0.0502918],96,47,medium,plus,dotcolour,alfa,,,120,19,V,R,
36,36,36,0,0,33,47,483,['n'],1,right,['2'],5,291,[-0.03860813],93,47,medium,plus,dotcolour,alfa,,,120,19,V,R,
37,37,37,0,0,44,36,1034,['c'],1,left,['2'],5,1119,[0.2942702],100,44,hard,plus,dotcolour,alfa,,,120,19,V,R,
38,38,38,0,0,44,36,900,['c'],1,left,['1'],6,462,[0.11823091],100,44,hard,plus,dotcolour,alfa,,,120,19,V,R,
39,39,39,0,0,47,33,983,['c'],1,left,['2'],5,302,[0.10722266],100,47,medium,plus,dotcolour,alfa,,,120,19,V,R,
40,40,40,0,0,33,47,783,['n'],1,right,['2'],5,372,[-0.09552895],100,47,medium,plus,dotcolour,alfa,,,120,19,V,R,
41,41,41,0,0,53,27,1116,['c'],1,left,['1'],6,506,[0.03012618],82,53,easy,plus,dotcolour,alfa,,,120,19,V,R,
42,42,0,1,0,33,47,684,['n'],1,right,['3'],4,805,[-0.26570248],100,47,medium,plus,dotcolour,alfa,,,120,19,V,R,
43,43,1,1,0,53,27,733,['c'],1,left,['1'],6,576,[0.14984796],100,53,easy,plus,dotcolour,alfa,,,120,19,V,R,
44,44,2,1,0,33,47,800,['n'],1,right,['2'],5,706,[-0.35061826],100,47,medium,plus,dotcolour,alfa,,,120,19,V,R,
45,45,3,1,0,53,27,750,['c'],1,left,['2'],5,241,[0.11985041],100,53,easy,plus,dotcolour,alfa,,,120,19,V,R,
46,46,4,1,0,33,47,667,['n'],1,right,['3'],4,453,[-0.06510514],97,47,medium,plus,dotcolour,alfa,,,120,19,V,R,
47,47,5,1,0,53,27,717,['c'],1,left,['2'],5,400,[0.1255126],100,53,easy,plus,dotcolour,alfa,,,120,19,V,R,
48,48,6,1,0,44,36,1784,['c'],1,left,['2'],5,282,[0.14801862],100,44,hard,plus,dotcolour,alfa,,,120,19,V,R,
49,49,7,1,0,36,44,1049,['n'],1,right,['3'],4,486,[-0.11226335],100,44,hard,plus,dotcolour,alfa,,,120,19,V,R,
50,50,8,1,0,47,33,1118,['c'],1,left,['2'],5,288,[0.08025377],100,47,medium,plus,dotcolour,alfa,,,120,19,V,R,
51,51,9,1,0,27,53,650,['n'],1,right,['3'],4,476,[-0.13793898],100,53,easy,plus,dotcolour,alfa,,,120,19,V,R,
52,52,10,1,0,27,53,917,['n'],1,right,['3'],4,445,[-0.10381766],100,53,easy,plus,dotcolour,alfa,,,120,19,V,R,
53,53,11,1,0,36,44,933,['n'],1,right,['2'],5,327,[-0.08196572],99,44,hard,plus,dotcolour,alfa,,,120,19,V,R,
54,54,12,1,0,44,36,1267,['n'],0,left,['3'],4,241,[0.06356814],1,44,hard,plus,dotcolour,alfa,,,120,19,V,R,
55,55,13,1,0,33,47,850,['n'],1,right,['2'],5,302,[-0.07872187],99,47,medium,plus,dotcolour,alfa,,,120,19,V,R,
56,56,14,1,0,44,36,717,['n'],0,left,['1'],6,542,[-0.00883474],61,44,hard,plus,dotcolour,alfa,,,120,19,V,R,
57,57,15,1,0,47,33,1049,['c'],1,left,['2'],5,368,[-0.03892894],9,47,medium,plus,dotcolour,alfa,,,120,19,V,R,
58,58,16,1,0,44,36,850,['n'],0,left,['2'],5,297,[-0.16002944],100,44,hard,plus,dotcolour,alfa,,,120,19,V,R,
59,59,17,1,0,53,27,501,['c'],1,left,['1'],6,354,[0.24824471],100,53,easy,plus,dotcolour,alfa,,,120,19,V,R,
60,60,18,1,0,33,47,550,['n'],1,right,['2'],5,367,[-0.18088908],100,47,medium,plus,dotcolour,alfa,,,120,19,V,R,
61,61,19,1,0,27,53,632,['n'],1,right,['3'],4,281,[-0.25442153],100,53,easy,plus,dotcolour,alfa,,,120,19,V,R,
62,62,20,1,0,27,53,850,['n'],1,right,['1'],6,404,[-0.10058758],100,53,easy,plus,dotcolour,alfa,,,120,19,V,R,
63,63,21,1,0,44,36,416,['c'],1,left,['2'],5,717,[-0.04917198],11,44,hard,plus,dotcolour,alfa,,,120,19,V,R,
64,64,22,1,0,27,53,784,['n'],1,right,['3'],4,666,[-0.21196389],100,53,easy,plus,dotcolour,alfa,,,120,19,V,R,
65,65,23,1,0,44,36,866,['n'],0,left,['3'],4,1294,[0.08104254],7,44,hard,plus,dotcolour,alfa,,,120,19,V,R,
66,66,24,1,0,27,53,833,['n'],1,right,['1'],6,618,[-0.04585277],89,53,easy,plus,dotcolour,alfa,,,120,19,V,R,
67,67,25,1,0,27,53,567,['n'],1,right,['2'],5,588,[-0.24986508],100,53,easy,plus,dotcolour,alfa,,,120,19,V,R,
68,68,26,1,0,47,33,1133,['c'],1,left,['3'],4,336,[0.06565056],98,47,medium,plus,dotcolour,alfa,,,120,19,V,R,
69,69,27,1,0,36,44,801,['n'],1,right,['2'],5,660,[-0.11021209],99,44,hard,plus,dotcolour,alfa,,,120,19,V,R,
70,70,28,1,0,44,36,800,['n'],0,left,['3'],4,395,[-0.00437753],56,44,hard,plus,dotcolour,alfa,,,120,19,V,R,
71,71,29,1,0,47,33,1167,['c'],1,left,['2'],5,278,[0.12626366],100,47,medium,plus,dotcolour,alfa,,,120,19,V,R,
72,72,30,1,0,47,33,1133,['c'],1,left,['2'],5,286,[0.17277971],100,47,medium,plus,dotcolour,alfa,,,120,19,V,R,
73,73,31,1,0,53,27,600,['c'],1,left,['2'],5,388,[0.22758216],100,53,easy,plus,dotcolour,alfa,,,120,19,V,R,
74,74,32,1,0,47,33,517,['c'],1,left,['2'],5,313,[0.089243],100,47,medium,plus,dotcolour,alfa,,,120,19,V,R,
75,75,33,1,0,53,27,817,['c'],1,left,['1'],6,245,[0.104398],100,53,easy,plus,dotcolour,alfa,,,120,19,V,R,
76,76,34,1,0,36,44,400,['c'],0,right,['3'],4,804,[0.06496195],93,44,hard,plus,dotcolour,alfa,,,120,19,V,R,
77,77,35,1,0,36,44,700,['n'],1,right,['3'],4,505,[-0.02364578],77,44,hard,plus,dotcolour,alfa,,,120,19,V,R,
78,78,36,1,0,36,44,2117,['c'],0,right,['3'],4,241,[0.03586832],93,44,hard,plus,dotcolour,alfa,,,120,19,V,R,
79,79,37,1,0,53,27,751,['c'],1,left,['2'],5,394,[0.15688634],100,53,easy,plus,dotcolour,alfa,,,120,19,V,R,
80,80,38,1,0,47,33,1066,['n'],0,left,['8'],3,978,[0.02040887],32,47,medium,plus,dotcolour,alfa,,,120,19,V,R,
81,81,39,1,0,36,44,1183,['n'],1,right,['2'],5,396,[-0.02706964],82,44,hard,plus,dotcolour,alfa,,,120,19,V,R,
82,82,40,1,0,33,47,684,['n'],1,right,['9'],2,2034,[-0.35583264],100,47,medium,plus,dotcolour,alfa,,,120,19,V,R,
83,83,41,1,0,33,47,1834,['n'],1,right,['2'],5,272,[-0.04402573],95,47,medium,plus,dotcolour,alfa,,,120,19,V,R,
84,84,0,2,0,44,36,2217,['c'],1,left,['2'],5,293,[0.01429508],72,44,hard,plus,dotcolour,alfa,,,120,19,V,R,
85,85,1,2,0,36,44,1617,['n'],1,right,['2'],5,386,[-0.09290624],100,44,hard,plus,dotcolour,alfa,,,120,19,V,R,
86,86,2,2,0,36,44,650,['n'],1,right,['2'],5,354,[-0.15818944],100,44,hard,plus,dotcolour,alfa,,,120,19,V,R,
87,87,3,2,0,53,27,666,['c'],1,left,['1'],6,547,[0.22204974],100,53,easy,plus,dotcolour,alfa,,,120,19,V,R,
88,88,4,2,0,36,44,1516,['n'],1,right,['3'],4,809,[-0.11644119],99,44,hard,plus,dotcolour,alfa,,,120,19,V,R,
89,89,5,2,0,27,53,833,['n'],1,right,['2'],5,280,[-0.07677998],99,53,easy,plus,dotcolour,alfa,,,120,19,V,R,
90,90,6,2,0,27,53,600,['n'],1,right,['2'],5,231,[-0.11150392],100,53,easy,plus,dotcolour,alfa,,,120,19,V,R,
91,91,7,2,0,47,33,984,['c'],1,left,['2'],5,287,[0.10108432],100,47,medium,plus,dotcolour,alfa,,,120,19,V,R,
92,92,8,2,0,47,33,1016,['c'],1,left,['1'],6,293,[0.13178507],100,47,medium,plus,dotcolour,alfa,,,120,19,V,R,
93,93,9,2,0,36,44,834,['n'],1,right,['8'],3,1106,[-0.10579365],97,44,hard,plus,dotcolour,alfa,,,120,19,V,R,
94,94,10,2,0,44,36,699,['n'],0,left,['2'],5,249,[-0.02366131],85,44,hard,plus,dotcolour,alfa,,,120,19,V,R,
95,95,11,2,0,27,53,634,['n'],1,right,['1'],6,272,[-0.12186372],100,53,easy,plus,dotcolour,alfa,,,120,19,V,R,
96,96,12,2,0,53,27,351,['c'],1,left,['2'],5,217,[0.00151158],53,53,easy,plus,dotcolour,alfa,,,120,19,V,R,
97,97,13,2,0,44,36,584,['n'],0,left,['1'],6,217,[-0.05443466],99,44,hard,plus,dotcolour,alfa,,,120,19,V,R,
98,98,14,2,0,44,36,600,['n'],0,left,['1'],6,202,[-0.01851173],81,44,hard,plus,dotcolour,alfa,,,120,19,V,R,
99,99,15,2,0,33,47,450,['c'],0,right,['9'],2,1146,[-0.10600949],3,47,medium,plus,dotcolour,alfa,,,120,19,V,R,
100,100,16,2,0,36,44,5133,['n'],1,right,['2'],5,295,[-0.04623209],96,44,hard,plus,dotcolour,alfa,,,120,19,V,R,
101,101,17,2,0,36,44,750,['n'],1,right,['1'],6,223,[-0.0247075],87,44,hard,plus,dotcolour,alfa,,,120,19,V,R,
102,102,18,2,0,53,27,917,['c'],1,left,['2'],5,434,[0.23449482],100,53,easy,plus,dotcolour,alfa,,,120,19,V,R,
103,103,19,2,0,53,27,883,['c'],1,left,['2'],5,359,[0.11768468],100,53,easy,plus,dotcolour,alfa,,,120,19,V,R,
104,104,20,2,0,33,47,765,['n'],1,right,['2'],5,571,[-0.15010237],100,47,medium,plus,dotcolour,alfa,,,120,19,V,R,
105,105,21,2,0,27,53,917,['c'],0,right,['0'],1,1200,[-0.12063252],2,53,easy,plus,dotcolour,alfa,,,120,19,V,R,
106,106,22,2,0,47,33,1749,['n'],0,left,['2'],5,1548,[0.02627866],32,47,medium,plus,dotcolour,alfa,,,120,19,V,R,
107,107,23,2,0,53,27,1183,['c'],1,left,['2'],5,294,[0.04820373],96,53,easy,plus,dotcolour,alfa,,,120,19,V,R,
108,108,24,2,0,33,47,599,['c'],0,right,['2'],5,228,[0.06089482],99,47,medium,plus,dotcolour,alfa,,,120,19,V,R,
109,109,25,2,0,44,36,600,['c'],1,left,['2'],5,228,[0.11859981],100,44,hard,plus,dotcolour,alfa,,,120,19,V,R,
110,110,26,2,0,33,47,668,['n'],1,right,['2'],5,265,[-0.09486867],100,47,medium,plus,dotcolour,alfa,,,120,19,V,R,
111,111,27,2,0,53,27,700,['c'],1,left,['2'],5,188,[0.15690039],100,53,easy,plus,dotcolour,alfa,,,120,19,V,R,
112,112,28,2,0,47,33,683,['c'],1,left,['2'],5,234,[0.05846697],99,47,medium,plus,dotcolour,alfa,,,120,19,V,R,
113,113,29,2,0,27,53,701,['n'],1,right,['2'],5,207,[-0.10083284],100,53,easy,plus,dotcolour,alfa,,,120,19,V,R,
114,114,30,2,0,47,33,1384,['n'],0,left,['2'],5,168,[-0.08915626],100,47,medium,plus,dotcolour,alfa,,,120,19,V,R,
115,115,31,2,0,33,47,782,['c'],0,right,['2'],5,196,[0.10925596],100,47,medium,plus,dotcolour,alfa,,,120,19,V,R,
116,116,32,2,0,27,53,450,['n'],1,right,['2'],5,227,[-0.11819759],100,53,easy,plus,dotcolour,alfa,,,120,19,V,R,
117,117,33,2,0,44,36,567,['n'],0,left,['9'],2,964,[0.24036858],0,44,hard,plus,dotcolour,alfa,,,120,19,V,R,
118,118,34,2,0,27,53,1300,['n'],1,right,['2'],5,259,[-0.14858649],100,53,easy,plus,dotcolour,alfa,,,120,19,V,R,
119,119,35,2,0,33,47,901,['n'],1,right,['2'],5,230,[-0.05037154],98,47,medium,plus,dotcolour,alfa,,,120,19,V,R,
120,120,36,2,0,53,27,400,['c'],1,left,['2'],5,253,[0.05212631],98,53,easy,plus,dotcolour,alfa,,,120,19,V,R,
121,121,37,2,0,47,33,866,['c'],1,left,['3'],4,171,[0.07010555],100,47,medium,plus,dotcolour,alfa,,,120,19,V,R,
122,122,38,2,0,33,47,584,['n'],1,right,['3'],4,221,[-0.22283541],100,47,medium,plus,dotcolour,alfa,,,120,19,V,R,
123,123,39,2,0,47,33,650,['n'],0,left,['3'],4,229,[-0.07700532],100,47,medium,plus,dotcolour,alfa,,,120,19,V,R,
124,124,40,2,0,44,36,568,['n'],0,left,['3'],4,270,[-0.00154769],53,44,hard,plus,dotcolour,alfa,,,120,19,V,R,
125,125,41,2,0,36,44,867,['n'],1,right,['3'],4,6714,[-0.3284491],99,44,hard,plus,dotcolour,alfa,,,120,19,V,R,
126,0,0,3,1,44,36,1100,['c'],1,left,['3'],4,277,[0.09231223],83,44,hard,minus,dotcolour,alfa,,,120,19,V,R,
127,1,1,3,1,53,27,1700,['c'],1,left,['3'],4,2375,[0.6044636],97,53,easy,minus,dotcolour,alfa,,,120,19,V,R,
128,2,2,3,1,36,44,1350,['n'],1,right,['3'],4,682,[-0.18655735],88,44,hard,minus,dotcolour,alfa,,,120,19,V,R,
129,3,3,3,1,33,47,1333,['n'],1,right,['3'],4,195,[-0.09225896],87,47,medium,minus,dotcolour,alfa,,,120,19,V,R,
130,4,4,3,1,44,36,700,['c'],1,left,['3'],4,209,[0.07348192],81,44,hard,minus,dotcolour,alfa,,,120,19,V,R,
131,5,5,3,1,27,53,884,['n'],1,right,['3'],4,2078,[-0.36931953],91,53,easy,minus,dotcolour,alfa,,,120,19,V,R,
132,6,6,3,1,44,36,1784,['n'],0,left,['3'],4,244,[-0.05185375],72,44,hard,minus,dotcolour,alfa,,,120,19,V,R,
133,7,7,3,1,44,36,1150,['c'],1,left,['3'],4,213,[0.03401186],66,44,hard,minus,dotcolour,alfa,,,120,19,V,R,
134,8,8,3,1,47,33,1383,['c'],1,left,['3'],4,286,[-0.01914842],42,47,medium,minus,dotcolour,alfa,,,120,19,V,R,
135,9,9,3,1,36,44,1316,['n'],1,right,['3'],4,329,[-0.14905072],91,44,hard,minus,dotcolour,alfa,,,120,19,V,R,
136,10,10,3,1,53,27,800,['c'],1,left,['3'],4,236,[0.07983547],81,53,easy,minus,dotcolour,alfa,,,120,19,V,R,
137,11,11,3,1,36,44,800,['n'],1,right,['2'],5,644,[-0.20700242],91,44,hard,minus,dotcolour,alfa,,,120,19,V,R,
138,12,12,3,1,53,27,917,['c'],1,left,['2'],5,247,[0.09113813],84,53,easy,minus,dotcolour,alfa,,,120,19,V,R,
139,13,13,3,1,33,47,600,['n'],1,right,['2'],5,230,[-0.08028745],82,47,medium,minus,dotcolour,alfa,,,120,19,V,R,
140,14,14,3,1,44,36,1151,['c'],1,left,['1'],6,296,[0.09085336],82,44,hard,minus,dotcolour,alfa,,,120,19,V,R,
141,15,15,3,1,44,36,885,['n'],0,left,['3'],4,450,[-0.13793756],86,44,hard,minus,dotcolour,alfa,,,120,19,V,R,
142,16,16,3,1,33,47,850,['n'],1,right,['2'],5,311,[-0.01946844],58,47,medium,minus,dotcolour,alfa,,,120,19,V,R,
143,17,17,3,1,27,53,700,['n'],1,right,['1'],6,216,[-0.08753503],84,53,easy,minus,dotcolour,alfa,,,120,19,V,R,
144,18,18,3,1,47,33,884,['n'],0,left,['8'],3,918,[-0.08865357],70,47,medium,minus,dotcolour,alfa,,,120,19,V,R,
145,19,19,3,1,47,33,1100,['c'],1,left,['2'],5,213,[0.1009994],88,47,medium,minus,dotcolour,alfa,,,120,19,V,R,
146,20,20,3,1,33,47,584,['n'],1,right,['2'],5,479,[-0.13494395],85,47,medium,minus,dotcolour,alfa,,,120,19,V,R,
147,21,21,3,1,36,44,751,['n'],1,right,['2'],5,223,[-0.12255812],91,44,hard,minus,dotcolour,alfa,,,120,19,V,R,
148,22,22,3,1,44,36,1633,['n'],0,left,['8'],3,118,[-0.10524989],94,44,hard,minus,dotcolour,alfa,,,120,19,V,R,
149,23,23,3,1,36,44,650,['n'],1,right,['2'],5,208,[-0.10417567],89,44,hard,minus,dotcolour,alfa,,,120,19,V,R,
150,24,24,3,1,36,44,716,['n'],1,right,['2'],5,276,[-0.11108404],87,44,hard,minus,dotcolour,alfa,,,120,19,V,R,
151,25,25,3,1,53,27,450,['n'],0,left,['8'],3,1360,[0.18390885],19,53,easy,minus,dotcolour,alfa,,,120,19,V,R,
152,26,26,3,1,53,27,667,['n'],0,left,['2'],5,280,[-0.03465741],64,53,easy,minus,dotcolour,alfa,,,120,19,V,R,
153,27,27,3,1,47,33,817,['n'],0,left,['8'],3,743,[0.0666088],33,47,medium,minus,dotcolour,alfa,,,120,19,V,R,
154,28,28,3,1,27,53,600,['n'],1,right,['2'],5,777,[-0.1720291],85,53,easy,minus,dotcolour,alfa,,,120,19,V,R,
155,29,29,3,1,47,33,934,['c'],1,left,['2'],5,230,[0.08996609],84,47,medium,minus,dotcolour,alfa,,,120,19,V,R,
156,30,30,3,1,33,47,600,['n'],1,right,['3'],4,750,[-0.10963612],76,47,medium,minus,dotcolour,alfa,,,120,19,V,R,
157,31,31,3,1,47,33,1217,['c'],1,left,['2'],5,337,[0.22969249],97,47,medium,minus,dotcolour,alfa,,,120,19,V,R,
158,32,32,3,1,53,27,835,['n'],0,left,['1'],6,235,[-0.09308703],85,53,easy,minus,dotcolour,alfa,,,120,19,V,R,
159,33,33,3,1,27,53,650,['n'],1,right,['2'],5,625,[-0.21861089],92,53,easy,minus,dotcolour,alfa,,,120,19,V,R,
160,34,34,3,1,27,53,667,['n'],1,right,['1'],6,254,[-0.06279421],75,53,easy,minus,dotcolour,alfa,,,120,19,V,R,
161,35,35,3,1,27,53,650,['n'],1,right,['1'],6,220,[-0.14031222],94,53,easy,minus,dotcolour,alfa,,,120,19,V,R,
162,36,36,3,1,36,44,600,['n'],1,right,['2'],5,317,[-0.18834842],95,44,hard,minus,dotcolour,alfa,,,120,19,V,R,
163,37,37,3,1,33,47,450,['n'],1,right,['2'],5,175,[-0.08697429],87,47,medium,minus,dotcolour,alfa,,,120,19,V,R,
164,38,38,3,1,27,53,467,['n'],1,right,['2'],5,303,[-0.09256662],82,53,easy,minus,dotcolour,alfa,,,120,19,V,R,
165,39,39,3,1,33,47,416,['n'],1,right,['2'],5,276,[-0.05233794],71,47,medium,minus,dotcolour,alfa,,,120,19,V,R,
166,40,40,3,1,53,27,1317,['c'],1,left,['2'],5,453,[0.06512109],70,53,easy,minus,dotcolour,alfa,,,120,19,V,R,
167,41,41,3,1,47,33,749,['c'],1,left,['2'],5,190,[0.01860153],59,47,medium,minus,dotcolour,alfa,,,120,19,V,R,
168,42,0,4,1,27,53,600,['n'],1,right,['2'],5,154,[-0.13921869],96,53,easy,minus,dotcolour,alfa,,,120,19,V,R,
169,43,1,4,1,27,53,433,['n'],1,right,['1'],6,283,[0.01235374],45,53,easy,minus,dotcolour,alfa,,,120,19,V,R,
170,44,2,4,1,27,53,617,['n'],1,right,['1'],6,272,[-0.13890685],92,53,easy,minus,dotcolour,alfa,,,120,19,V,R,
171,45,3,4,1,47,33,466,['n'],0,left,['3'],4,1772,[0.27037096],14,47,medium,minus,dotcolour,alfa,,,120,19,V,R,
172,46,4,4,1,33,47,667,['n'],1,right,['2'],5,660,[-0.09030829],73,47,medium,minus,dotcolour,alfa,,,120,19,V,R,
173,47,5,4,1,33,47,499,['n'],1,right,['2'],5,335,[-0.13554588],89,47,medium,minus,dotcolour,alfa,,,120,19,V,R,
174,48,6,4,1,36,44,600,['n'],1,right,['1'],6,362,[-0.05872183],71,44,hard,minus,dotcolour,alfa,,,120,19,V,R,
175,49,7,4,1,44,36,533,['n'],0,left,['2'],5,536,[0.07270208],29,44,hard,minus,dotcolour,alfa,,,120,19,V,R,
176,50,8,4,1,44,36,667,['n'],0,left,['2'],5,233,[-0.01184709],55,44,hard,minus,dotcolour,alfa,,,120,19,V,R,
177,51,9,4,1,33,47,451,['n'],1,right,['2'],5,327,[-0.18406773],95,47,medium,minus,dotcolour,alfa,,,120,19,V,R,
178,52,10,4,1,27,53,432,['n'],1,right,['2'],5,362,[-0.11341229],85,53,easy,minus,dotcolour,alfa,,,120,19,V,R,
179,53,11,4,1,33,47,483,['n'],1,right,['2'],5,233,[-0.11895668],90,47,medium,minus,dotcolour,alfa,,,120,19,V,R,
180,54,12,4,1,36,44,484,['n'],1,right,['2'],5,398,[-0.20100318],95,44,hard,minus,dotcolour,alfa,,,120,19,V,R,
181,55,13,4,1,44,36,267,['n'],0,left,['2'],5,204,[-0.00252411],51,44,hard,minus,dotcolour,alfa,,,120,19,V,R,
182,56,14,4,1,44,36,300,['n'],0,left,['2'],5,259,[-0.1014319],86,44,hard,minus,dotcolour,alfa,,,120,19,V,R,
183,57,15,4,1,53,27,434,['c'],1,left,['2'],5,951,[0.29720802],94,53,easy,minus,dotcolour,alfa,,,120,19,V,R,
184,58,16,4,1,36,44,634,['c'],0,right,['8'],3,993,[-0.04090267],41,44,hard,minus,dotcolour,alfa,,,120,19,V,R,
185,59,17,4,1,44,36,885,['c'],1,left,['2'],5,502,[0.10386536],79,44,hard,minus,dotcolour,alfa,,,120,19,V,R,
186,60,18,4,1,36,44,366,['c'],0,right,['8'],3,653,[-0.0511528],36,44,hard,minus,dotcolour,alfa,,,120,19,V,R,
187,61,19,4,1,53,27,483,['c'],1,left,['2'],5,473,[0.16146079],89,53,easy,minus,dotcolour,alfa,,,120,19,V,R,
188,62,20,4,1,36,44,1400,['n'],1,right,['8'],3,287,[-0.00270269],51,44,hard,minus,dotcolour,alfa,,,120,19,V,R,
189,63,21,4,1,47,33,801,['c'],1,left,['2'],5,733,[0.30832868],96,47,medium,minus,dotcolour,alfa,,,120,19,V,R,
190,64,22,4,1,44,36,667,['c'],1,left,['2'],5,222,[0.03948161],68,44,hard,minus,dotcolour,alfa,,,120,19,V,R,
191,65,23,4,1,53,27,384,['c'],1,left,['1'],6,311,[0.07704997],78,53,easy,minus,dotcolour,alfa,,,120,19,V,R,
192,66,24,4,1,33,47,317,['c'],0,right,['8'],3,639,[0.00147699],50,47,medium,minus,dotcolour,alfa,,,120,19,V,R,
193,67,25,4,1,33,47,1083,['c'],0,right,['8'],3,332,[0.06196361],72,47,medium,minus,dotcolour,alfa,,,120,19,V,R,
194,68,26,4,1,33,47,417,['c'],0,right,['1'],6,359,[0.07067571],74,47,medium,minus,dotcolour,alfa,,,120,19,V,R,
195,69,27,4,1,47,33,567,['c'],1,left,['1'],6,347,[0.14436377],90,47,medium,minus,dotcolour,alfa,,,120,19,V,R,
196,70,28,4,1,53,27,351,['c'],1,left,['1'],6,288,[0.09285665],83,53,easy,minus,dotcolour,alfa,,,120,19,V,R,
197,71,29,4,1,27,53,700,['n'],1,right,['8'],3,186,[-0.13369895],94,53,easy,minus,dotcolour,alfa,,,120,19,V,R,
198,72,30,4,1,47,33,650,['c'],1,left,['1'],6,339,[0.12275613],87,47,medium,minus,dotcolour,alfa,,,120,19,V,R,
199,73,31,4,1,36,44,349,['c'],0,right,['8'],3,640,[0.00730601],52,44,hard,minus,dotcolour,alfa,,,120,19,V,R,
200,74,32,4,1,47,33,250,['c'],1,left,['1'],6,381,[0.05441396],69,47,medium,minus,dotcolour,alfa,,,120,19,V,R,
201,75,33,4,1,44,36,350,['c'],1,left,['1'],6,393,[0.07177517],74,44,hard,minus,dotcolour,alfa,,,120,19,V,R,
202,76,34,4,1,27,53,617,['n'],1,right,['1'],6,306,[-0.13175342],90,53,easy,minus,dotcolour,alfa,,,120,19,V,R,
203,77,35,4,1,47,33,500,['n'],0,left,['1'],6,306,[-0.11117278],86,47,medium,minus,dotcolour,alfa,,,120,19,V,R,
204,78,36,4,1,27,53,399,['c'],0,right,['8'],3,1168,[0.01305171],53,53,easy,minus,dotcolour,alfa,,,120,19,V,R,
205,79,37,4,1,53,27,984,['c'],1,left,['3'],4,1082,[0.30324024],93,53,easy,minus,dotcolour,alfa,,,120,19,V,R,
206,80,38,4,1,47,33,1200,['c'],1,left,['2'],5,496,[0.06295007],69,47,medium,minus,dotcolour,alfa,,,120,19,V,R,
207,81,39,4,1,53,27,450,['c'],1,left,['2'],5,499,[0.13060642],84,53,easy,minus,dotcolour,alfa,,,120,19,V,R,
208,82,40,4,1,53,27,383,['c'],1,left,['2'],5,265,[0.13272715],91,53,easy,minus,dotcolour,alfa,,,120,19,V,R,
209,83,41,4,1,36,44,266,['c'],0,right,['8'],3,758,[0.03476872],59,44,hard,minus,dotcolour,alfa,,,120,19,V,R,
210,84,0,5,1,53,27,1217,['n'],0,left,['2'],5,237,[-0.06870831],78,53,easy,minus,dotcolour,alfa,,,120,19,V,R,
211,85,1,5,1,36,44,383,['c'],0,right,['2'],5,541,[0.04255124],63,44,hard,minus,dotcolour,alfa,,,120,19,V,R,
212,86,2,5,1,44,36,517,['c'],1,left,['2'],5,156,[0.11925952],94,44,hard,minus,dotcolour,alfa,,,120,19,V,R,
213,87,3,5,1,53,27,734,['c'],1,left,['2'],5,201,[0.13350041],94,53,easy,minus,dotcolour,alfa,,,120,19,V,R,
214,88,4,5,1,53,27,550,['c'],1,left,['2'],5,253,[0.14985724],94,53,easy,minus,dotcolour,alfa,,,120,19,V,R,
215,89,5,5,1,33,47,584,['n'],1,right,['2'],5,213,[-0.11096469],90,47,medium,minus,dotcolour,alfa,,,120,19,V,R,
216,90,6,5,1,47,33,833,['c'],1,left,['2'],5,155,[0.1192222],94,47,medium,minus,dotcolour,alfa,,,120,19,V,R,
217,91,7,5,1,36,44,617,['c'],0,right,['1'],6,335,[-0.00285571],49,44,hard,minus,dotcolour,alfa,,,120,19,V,R,
218,92,8,5,1,36,44,650,['c'],0,right,['2'],5,361,[0.07744098],76,44,hard,minus,dotcolour,alfa,,,120,19,V,R,
219,93,9,5,1,47,33,501,['c'],1,left,['2'],5,543,[-0.00803121],48,47,medium,minus,dotcolour,alfa,,,120,19,V,R,
220,94,10,5,1,44,36,434,['c'],1,left,['2'],5,337,[0.04300277],66,44,hard,minus,dotcolour,alfa,,,120,19,V,R,
221,95,11,5,1,53,27,450,['c'],1,left,['2'],5,220,[0.10844681],89,53,easy,minus,dotcolour,alfa,,,120,19,V,R,
222,96,12,5,1,47,33,450,['c'],1,left,['2'],5,218,[0.06187937],77,47,medium,minus,dotcolour,alfa,,,120,19,V,R,
223,97,13,5,1,47,33,467,['c'],1,left,['3'],4,504,[0.12914688],84,47,medium,minus,dotcolour,alfa,,,120,19,V,R,
224,98,14,5,1,44,36,383,['c'],1,left,['2'],5,277,[0.1447048],92,44,hard,minus,dotcolour,alfa,,,120,19,V,R,
225,99,15,5,1,33,47,500,['c'],0,right,['3'],4,607,[-0.01732864],45,47,medium,minus,dotcolour,alfa,,,120,19,V,R,
226,100,16,5,1,27,53,434,['c'],0,right,['9'],2,1031,[0.04348149],60,53,easy,minus,dotcolour,alfa,,,120,19,V,R,
227,101,17,5,1,36,44,1533,['n'],1,right,['8'],3,225,[-0.08731204],84,44,hard,minus,dotcolour,alfa,,,120,19,V,R,
228,102,18,5,1,27,53,1084,['n'],1,right,['2'],5,663,[-0.21517661],92,53,easy,minus,dotcolour,alfa,,,120,19,V,R,
229,103,19,5,1,44,36,883,['n'],0,left,['2'],5,650,[-0.00614313],52,44,hard,minus,dotcolour,alfa,,,120,19,V,R,
230,104,20,5,1,36,44,450,['n'],1,right,['2'],5,959,[-0.05900627],63,44,hard,minus,dotcolour,alfa,,,120,19,V,R,
231,105,21,5,1,53,27,1300,['c'],1,left,['3'],4,870,[0.22145316],89,53,easy,minus,dotcolour,alfa,,,120,19,V,R,
232,106,22,5,1,33,47,850,['n'],1,right,['2'],5,306,[-0.09528814],82,47,medium,minus,dotcolour,alfa,,,120,19,V,R,
233,107,23,5,1,27,53,484,['n'],1,right,['1'],6,347,[-0.14399419],90,53,easy,minus,dotcolour,alfa,,,120,19,V,R,
234,108,24,5,1,33,47,468,['n'],1,right,['1'],6,212,[-0.13685748],94,47,medium,minus,dotcolour,alfa,,,120,19,V,R,
235,109,25,5,1,27,53,435,['n'],1,right,['1'],6,179,[-0.04341196],72,53,easy,minus,dotcolour,alfa,,,120,19,V,R,
236,110,26,5,1,27,53,384,['n'],1,right,['1'],6,190,[-0.10389522],90,53,easy,minus,dotcolour,alfa,,,120,19,V,R,
237,111,27,5,1,36,44,400,['n'],1,right,['1'],6,183,[0.03420439],33,44,hard,minus,dotcolour,alfa,,,120,19,V,R,
238,112,28,5,1,27,53,452,['n'],1,right,['1'],6,215,[-0.06946913],79,53,easy,minus,dotcolour,alfa,,,120,19,V,R,
239,113,29,5,1,53,27,400,['n'],0,left,['0'],1,1256,[0.08730477],33,53,easy,minus,dotcolour,alfa,,,120,19,V,R,
240,114,30,5,1,53,27,917,['c'],1,left,['0'],1,2394,[0.44986071],93,53,easy,minus,dotcolour,alfa,,,120,19,V,R,
241,115,31,5,1,44,36,934,['c'],1,left,['1'],6,285,[0.13017407],90,44,hard,minus,dotcolour,alfa,,,120,19,V,R,
242,116,32,5,1,47,33,617,['c'],1,left,['1'],6,82,[0.04277045],79,47,medium,minus,dotcolour,alfa,,,120,19,V,R,
243,117,33,5,1,36,44,450,['c'],0,right,['1'],6,183,[0.10328657],90,44,hard,minus,dotcolour,alfa,,,120,19,V,R,
244,118,34,5,1,44,36,501,['c'],1,left,['1'],6,173,[0.06652267],81,44,hard,minus,dotcolour,alfa,,,120,19,V,R,
245,119,35,5,1,27,53,718,['n'],1,right,['1'],6,170,[-0.00306881],52,53,easy,minus,dotcolour,alfa,,,120,19,V,R,
246,120,36,5,1,47,33,784,['n'],0,left,['0'],1,854,[0.1649488],17,47,medium,minus,dotcolour,alfa,,,120,19,V,R,
247,121,37,5,1,33,47,1234,['n'],1,right,['1'],6,147,[-0.08240466],87,47,medium,minus,dotcolour,alfa,,,120,19,V,R,
248,122,38,5,1,47,33,701,['c'],1,left,['1'],6,194,[0.18856951],98,47,medium,minus,dotcolour,alfa,,,120,19,V,R,
249,123,39,5,1,44,36,368,['c'],1,left,['1'],6,229,[0.11149044],89,44,hard,minus,dotcolour,alfa,,,120,19,V,R,
250,124,40,5,1,33,47,916,['n'],1,right,['1'],6,160,[-0.09216459],89,47,medium,minus,dotcolour,alfa,,,120,19,V,R,
251,125,41,5,1,33,47,900,['n'],1,right,['1'],6,175,[-0.08499117],86,47,medium,minus,dotcolour,alfa,,,120,19,V,R,
252,0,0,6,2,27,53,617,['n'],1,right,['1'],6,113,[-0.08667575],100,53,easy,plus,dotcolour,alfa,,,120,19,V,R,
253,1,1,6,2,33,47,433,['n'],1,right,['1'],6,189,[-0.17930483],100,47,medium,plus,dotcolour,alfa,,,120,19,V,R,
254,2,2,6,2,27,53,384,['n'],1,right,['1'],6,223,[-0.10371468],100,53,easy,plus,dotcolour,alfa,,,120,19,V,R,
255,3,3,6,2,44,36,467,['n'],0,left,['1'],6,292,[-0.0226517],82,44,hard,plus,dotcolour,alfa,,,120,19,V,R,
256,4,4,6,2,33,47,500,['n'],1,right,['2'],5,342,[-0.08552603],99,47,medium,plus,dotcolour,alfa,,,120,19,V,R,
257,5,5,6,2,53,27,1151,['n'],0,left,['2'],5,172,[-0.07310513],100,53,easy,plus,dotcolour,alfa,,,120,19,V,R,
258,6,6,6,2,36,44,482,['n'],1,right,['2'],5,163,[-0.06804009],100,44,hard,plus,dotcolour,alfa,,,120,19,V,R,
259,7,7,6,2,27,53,484,['n'],1,right,['2'],5,122,[-0.099352],100,53,easy,plus,dotcolour,alfa,,,120,19,V,R,
260,8,8,6,2,44,36,500,['n'],0,left,['1'],6,203,[0.01269787],27,44,hard,plus,dotcolour,alfa,,,120,19,V,R,
261,9,9,6,2,47,33,1518,['n'],0,left,['2'],5,303,[-0.05808844],98,47,medium,plus,dotcolour,alfa,,,120,19,V,R,
262,10,10,6,2,36,44,450,['n'],1,right,['2'],5,114,[-0.1018219],100,44,hard,plus,dotcolour,alfa,,,120,19,V,R,
263,11,11,6,2,47,33,367,['n'],0,left,['2'],5,144,[-0.07885827],100,47,medium,plus,dotcolour,alfa,,,120,19,V,R,
264,12,12,6,2,27,53,432,['n'],1,right,['2'],5,130,[-0.07788598],100,53,easy,plus,dotcolour,alfa,,,120,19,V,R,
265,13,13,6,2,47,33,600,['n'],0,left,['2'],5,142,[-0.09164108],100,47,medium,plus,dotcolour,alfa,,,120,19,V,R,
266,14,14,6,2,36,44,467,['n'],1,right,['2'],5,175,[-0.09957697],100,44,hard,plus,dotcolour,alfa,,,120,19,V,R,
267,15,15,6,2,44,36,400,['n'],0,left,['2'],5,225,[-0.13122505],100,44,hard,plus,dotcolour,alfa,,,120,19,V,R,
268,16,16,6,2,47,33,567,['n'],0,left,['2'],5,202,[-0.10222007],100,47,medium,plus,dotcolour,alfa,,,120,19,V,R,
269,17,17,6,2,33,47,416,['n'],1,right,['2'],5,219,[-0.02056033],83,47,medium,plus,dotcolour,alfa,,,120,19,V,R,
270,18,18,6,2,27,53,533,['n'],1,right,['2'],5,174,[-0.04922074],99,53,easy,plus,dotcolour,alfa,,,120,19,V,R,
271,19,19,6,2,53,27,500,['n'],0,left,['9'],2,2253,[0.33288817],0,53,easy,plus,dotcolour,alfa,,,120,19,V,R,
272,20,20,6,2,33,47,850,['n'],1,right,['2'],5,217,[-0.05412603],98,47,medium,plus,dotcolour,alfa,,,120,19,V,R,
273,21,21,6,2,36,44,449,['n'],1,right,['2'],5,168,[-0.01036816],71,44,hard,plus,dotcolour,alfa,,,120,19,V,R,
274,22,22,6,2,47,33,1800,['c'],1,left,['2'],5,851,[0.05625243],90,47,medium,plus,dotcolour,alfa,,,120,19,V,R,
275,23,23,6,2,33,47,600,['n'],1,right,['2'],5,233,[-0.10247185],100,47,medium,plus,dotcolour,alfa,,,120,19,V,R,
276,24,24,6,2,36,44,533,['n'],1,right,['9'],2,1876,[-0.24930247],100,44,hard,plus,dotcolour,alfa,,,120,19,V,R,
277,25,25,6,2,27,53,634,['n'],1,right,['2'],5,192,[-0.1763039],100,53,easy,plus,dotcolour,alfa,,,120,19,V,R,
278,26,26,6,2,36,44,416,['n'],1,right,['2'],5,369,[-0.09034494],100,44,hard,plus,dotcolour,alfa,,,120,19,V,R,
279,27,27,6,2,47,33,1118,['c'],1,left,['2'],5,967,[0.14747377],100,47,medium,plus,dotcolour,alfa,,,120,19,V,R,
280,28,28,6,2,53,27,666,['c'],1,left,['2'],5,326,[0.04792214],95,53,easy,plus,dotcolour,alfa,,,120,19,V,R,
281,29,29,6,2,33,47,2032,['n'],1,right,['3'],4,337,[0.0160829],27,47,medium,plus,dotcolour,alfa,,,120,19,V,R,
282,30,30,6,2,53,27,983,['c'],1,left,['2'],5,358,[0.18598084],100,53,easy,plus,dotcolour,alfa,,,120,19,V,R,
283,31,31,6,2,27,53,767,['n'],1,right,['2'],5,177,[-0.05304624],99,53,easy,plus,dotcolour,alfa,,,120,19,V,R,
284,32,32,6,2,36,44,651,['n'],1,right,['2'],5,186,[-0.07228843],100,44,hard,plus,dotcolour,alfa,,,120,19,V,R,
285,33,33,6,2,44,36,1134,['c'],1,left,['2'],5,254,[0.15427955],100,44,hard,plus,dotcolour,alfa,,,120,19,V,R,
286,34,34,6,2,44,36,1250,['n'],0,left,['2'],5,180,[-0.02283483],87,44,hard,plus,dotcolour,alfa,,,120,19,V,R,
287,35,35,6,2,53,27,900,['c'],1,left,['2'],5,282,[0.1283716],100,53,easy,plus,dotcolour,alfa,,,120,19,V,R,
288,36,36,6,2,44,36,684,['n'],0,left,['2'],5,181,[-0.14694294],100,44,hard,plus,dotcolour,alfa,,,120,19,V,R,
289,37,37,6,2,44,36,1283,['c'],1,left,['2'],5,195,[0.03282913],94,44,hard,plus,dotcolour,alfa,,,120,19,V,R,
290,38,38,6,2,53,27,800,['c'],1,left,['2'],5,236,[0.01485369],75,53,easy,plus,dotcolour,alfa,,,120,19,V,R,
291,39,39,6,2,53,27,666,['c'],1,left,['1'],6,979,[0.20368338],100,53,easy,plus,dotcolour,alfa,,,120,19,V,R,
292,40,40,6,2,47,33,584,['c'],1,left,['2'],5,212,[0.09283905],100,47,medium,plus,dotcolour,alfa,,,120,19,V,R,
293,41,41,6,2,33,47,749,['n'],1,right,['2'],5,175,[-0.13599639],100,47,medium,plus,dotcolour,alfa,,,120,19,V,R,
294,42,0,7,2,44,36,983,['c'],1,left,['2'],5,215,[0.15227842],100,44,hard,plus,dotcolour,alfa,,,120,19,V,R,
295,43,1,7,2,36,44,901,['n'],1,right,['2'],5,164,[-0.06026177],100,44,hard,plus,dotcolour,alfa,,,120,19,V,R,
296,44,2,7,2,47,33,950,['c'],1,left,['1'],6,224,[0.1258917],100,47,medium,plus,dotcolour,alfa,,,120,19,V,R,
297,45,3,7,2,27,53,616,['n'],1,right,['1'],6,296,[-0.13384212],100,53,easy,plus,dotcolour,alfa,,,120,19,V,R,
298,46,4,7,2,47,33,1115,['c'],1,left,['1'],6,241,[0.05890912],99,47,medium,plus,dotcolour,alfa,,,120,19,V,R,
299,47,5,7,2,33,47,717,['n'],1,right,['1'],6,155,[-0.06324536],100,47,medium,plus,dotcolour,alfa,,,120,19,V,R,
300,48,6,7,2,47,33,950,['c'],1,left,['1'],6,201,[0.09216419],100,47,medium,plus,dotcolour,alfa,,,120,19,V,R,
301,49,7,7,2,47,33,700,['n'],0,left,['3'],4,1286,[0.07016302],10,47,medium,plus,dotcolour,alfa,,,120,19,V,R,
302,50,8,7,2,33,47,832,['n'],1,right,['2'],5,1426,[-0.25773608],100,47,medium,plus,dotcolour,alfa,,,120,19,V,R,
303,51,9,7,2,33,47,899,['n'],1,right,['2'],5,230,[-0.11909626],100,47,medium,plus,dotcolour,alfa,,,120,19,V,R,
304,52,10,7,2,36,44,1366,['n'],1,right,['2'],5,232,[-0.12384389],100,44,hard,plus,dotcolour,alfa,,,120,19,V,R,
305,53,11,7,2,27,53,699,['n'],1,right,['2'],5,259,[-0.11796009],100,53,easy,plus,dotcolour,alfa,,,120,19,V,R,
306,54,12,7,2,36,44,700,['n'],1,right,['2'],5,271,[-0.02894035],88,44,hard,plus,dotcolour,alfa,,,120,19,V,R,
307,55,13,7,2,44,36,633,['n'],0,left,['2'],5,228,[-0.02546206],87,44,hard,plus,dotcolour,alfa,,,120,19,V,R,
308,56,14,7,2,27,53,617,['n'],1,right,['1'],6,299,[-0.17685597],100,53,easy,plus,dotcolour,alfa,,,120,19,V,R,
309,57,15,7,2,27,53,667,['n'],1,right,['1'],6,206,[-0.10093362],100,53,easy,plus,dotcolour,alfa,,,120,19,V,R,
310,58,16,7,2,47,33,601,['n'],0,left,['2'],5,655,[0.02876857],22,47,medium,plus,dotcolour,alfa,,,120,19,V,R,
311,59,17,7,2,33,47,649,['n'],1,right,['2'],5,971,[-0.12319821],99,47,medium,plus,dotcolour,alfa,,,120,19,V,R,
312,60,18,7,2,44,36,550,['n'],0,left,['2'],5,399,[0.02454345],20,44,hard,plus,dotcolour,alfa,,,120,19,V,R,
313,61,19,7,2,36,44,784,['n'],1,right,['2'],5,329,[-0.17138984],100,44,hard,plus,dotcolour,alfa,,,120,19,V,R,
314,62,20,7,2,36,44,467,['n'],1,right,['2'],5,210,[-0.1250815],100,44,hard,plus,dotcolour,alfa,,,120,19,V,R,
315,63,21,7,2,27,53,384,['n'],1,right,['2'],5,164,[-0.09779037],100,53,easy,plus,dotcolour,alfa,,,120,19,V,R,
316,64,22,7,2,27,53,384,['n'],1,right,['2'],5,287,[-0.15585531],100,53,easy,plus,dotcolour,alfa,,,120,19,V,R,
317,65,23,7,2,33,47,467,['n'],1,right,['2'],5,170,[-0.13325629],100,47,medium,plus,dotcolour,alfa,,,120,19,V,R,
318,66,24,7,2,53,27,500,['n'],0,left,['9'],2,1065,[0.10625501],2,53,easy,plus,dotcolour,alfa,,,120,19,V,R,
319,67,25,7,2,53,27,999,['c'],1,left,['2'],5,256,[0.17032887],100,53,easy,plus,dotcolour,alfa,,,120,19,V,R,
320,68,26,7,2,47,33,567,['c'],1,left,['2'],5,240,[0.1297719],100,47,medium,plus,dotcolour,alfa,,,120,19,V,R,
321,69,27,7,2,53,27,416,['c'],1,left,['2'],5,134,[0.16144178],100,53,easy,plus,dotcolour,alfa,,,120,19,V,R,
322,70,28,7,2,33,47,784,['n'],1,right,['2'],5,395,[-0.19174123],100,47,medium,plus,dotcolour,alfa,,,120,19,V,R,
323,71,29,7,2,53,27,517,['c'],1,left,['2'],5,176,[0.12966441],100,53,easy,plus,dotcolour,alfa,,,120,19,V,R,
324,72,30,7,2,44,36,584,['c'],1,left,['2'],5,131,[0.10812916],100,44,hard,plus,dotcolour,alfa,,,120,19,V,R,
325,73,31,7,2,44,36,599,['c'],1,left,['2'],5,199,[0.10774715],100,44,hard,plus,dotcolour,alfa,,,120,19,V,R,
326,74,32,7,2,33,47,733,['c'],0,right,['9'],2,803,[-0.0268109],25,47,medium,plus,dotcolour,alfa,,,120,19,V,R,
327,75,33,7,2,36,44,1717,['c'],0,right,['2'],5,759,[-0.04613084],13,44,hard,plus,dotcolour,alfa,,,120,19,V,R,
328,76,34,7,2,53,27,616,['n'],0,left,['9'],2,737,[0.02545907],26,53,easy,plus,dotcolour,alfa,,,120,19,V,R,
329,77,35,7,2,44,36,950,['c'],1,left,['2'],5,174,[0.07447497],100,44,hard,plus,dotcolour,alfa,,,120,19,V,R,
330,78,36,7,2,27,53,1483,['n'],1,right,['2'],5,581,[-0.0652987],96,53,easy,plus,dotcolour,alfa,,,120,19,V,R,
331,79,37,7,2,53,27,949,['c'],1,left,['2'],5,233,[0.08016685],100,53,easy,plus,dotcolour,alfa,,,120,19,V,R,
332,80,38,7,2,47,33,1218,['c'],1,left,['2'],5,161,[0.12793199],100,47,medium,plus,dotcolour,alfa,,,120,19,V,R,
333,81,39,7,2,53,27,984,['c'],1,left,['3'],4,179,[0.08654462],100,53,easy,plus,dotcolour,alfa,,,120,19,V,R,
334,82,40,7,2,44,36,716,['c'],1,left,['3'],4,201,[0.10564531],100,44,hard,plus,dotcolour,alfa,,,120,19,V,R,
335,83,41,7,2,36,44,1483,['n'],1,right,['3'],4,207,[-0.07704491],100,44,hard,plus,dotcolour,alfa,,,120,19,V,R,
336,84,0,8,2,33,47,701,['n'],1,right,['3'],4,143,[-0.12658716],100,47,medium,plus,dotcolour,alfa,,,120,19,V,R,
337,85,1,8,2,47,33,617,['n'],0,left,['3'],4,153,[-0.09987196],100,47,medium,plus,dotcolour,alfa,,,120,19,V,R,
338,86,2,8,2,36,44,1000,['n'],1,right,['8'],3,157,[-0.09647854],100,44,hard,plus,dotcolour,alfa,,,120,19,V,R,
339,87,3,8,2,53,27,982,['c'],1,left,['3'],4,168,[0.11746518],100,53,easy,plus,dotcolour,alfa,,,120,19,V,R,
340,88,4,8,2,33,47,484,['n'],1,right,['8'],3,207,[-0.07962733],100,47,medium,plus,dotcolour,alfa,,,120,19,V,R,
341,89,5,8,2,36,44,467,['c'],0,right,['3'],4,206,[0.10510242],100,44,hard,plus,dotcolour,alfa,,,120,19,V,R,
342,90,6,8,2,27,53,468,['n'],1,right,['8'],3,252,[-0.10693888],100,53,easy,plus,dotcolour,alfa,,,120,19,V,R,
343,91,7,8,2,33,47,383,['n'],1,right,['3'],4,196,[-0.11195013],100,47,medium,plus,dotcolour,alfa,,,120,19,V,R,
344,92,8,8,2,44,36,317,['c'],1,left,['8'],3,336,[0.05843094],97,44,hard,plus,dotcolour,alfa,,,120,19,V,R,
345,93,9,8,2,53,27,350,['n'],0,left,['3'],4,206,[-0.13121727],100,53,easy,plus,dotcolour,alfa,,,120,19,V,R,
346,94,10,8,2,27,53,334,['n'],1,right,['3'],4,202,[-0.1870662],100,53,easy,plus,dotcolour,alfa,,,120,19,V,R,
347,95,11,8,2,36,44,500,['n'],1,right,['3'],4,143,[-0.05536785],99,44,hard,plus,dotcolour,alfa,,,120,19,V,R,
348,96,12,8,2,27,53,551,['n'],1,right,['3'],4,1013,[-0.12396329],99,53,easy,plus,dotcolour,alfa,,,120,19,V,R,
349,97,13,8,2,36,44,433,['n'],1,right,['2'],5,172,[-0.03670163],96,44,hard,plus,dotcolour,alfa,,,120,19,V,R,
350,98,14,8,2,47,33,567,['n'],0,left,['2'],5,200,[-0.03148775],93,47,medium,plus,dotcolour,alfa,,,120,19,V,R,
351,99,15,8,2,44,36,584,['n'],0,left,['3'],4,194,[-0.15120962],100,44,hard,plus,dotcolour,alfa,,,120,19,V,R,
352,100,16,8,2,47,33,334,['c'],1,left,['3'],4,190,[0.0874304],100,47,medium,plus,dotcolour,alfa,,,120,19,V,R,
353,101,17,8,2,47,33,1267,['n'],0,left,['2'],5,445,[-0.0889467],99,47,medium,plus,dotcolour,alfa,,,120,19,V,R,
354,102,18,8,2,36,44,450,['n'],1,right,['2'],5,162,[-0.07453788],100,44,hard,plus,dotcolour,alfa,,,120,19,V,R,
355,103,19,8,2,44,36,400,['n'],0,left,['2'],5,277,[-0.11354259],100,44,hard,plus,dotcolour,alfa,,,120,19,V,R,
356,104,20,8,2,44,36,333,['n'],0,left,['2'],5,285,[-0.03604542],92,44,hard,plus,dotcolour,alfa,,,120,19,V,R,
357,105,21,8,2,33,47,683,['n'],1,right,['2'],5,217,[-0.06239326],99,47,medium,plus,dotcolour,alfa,,,120,19,V,R,
358,106,22,8,2,47,33,849,['c'],1,left,['2'],5,160,[0.09853549],100,47,medium,plus,dotcolour,alfa,,,120,19,V,R,
359,107,23,8,2,33,47,633,['n'],1,right,['2'],5,216,[-0.13189099],100,47,medium,plus,dotcolour,alfa,,,120,19,V,R,
360,108,24,8,2,47,33,883,['c'],1,left,['2'],5,174,[0.02947954],93,47,medium,plus,dotcolour,alfa,,,120,19,V,R,
361,109,25,8,2,33,47,584,['n'],1,right,['2'],5,256,[-0.15106889],100,47,medium,plus,dotcolour,alfa,,,120,19,V,R,
362,110,26,8,2,44,36,567,['n'],0,left,['2'],5,241,[-0.09647637],100,44,hard,plus,dotcolour,alfa,,,120,19,V,R,
363,111,27,8,2,27,53,583,['n'],1,right,['2'],5,168,[-0.13516686],100,53,easy,plus,dotcolour,alfa,,,120,19,V,R,
364,112,28,8,2,27,53,467,['n'],1,right,['2'],5,160,[-0.0912044],100,53,easy,plus,dotcolour,alfa,,,120,19,V,R,
365,113,29,8,2,36,44,1101,['n'],1,right,['2'],5,199,[-0.13784169],100,44,hard,plus,dotcolour,alfa,,,120,19,V,R,
366,114,30,8,2,53,27,533,['n'],0,left,['2'],5,147,[-0.15968764],100,53,easy,plus,dotcolour,alfa,,,120,19,V,R,
367,115,31,8,2,27,53,517,['n'],1,right,['2'],5,114,[-0.10405822],100,53,easy,plus,dotcolour,alfa,,,120,19,V,R,
368,116,32,8,2,44,36,650,['n'],0,left,['2'],5,188,[-0.13187887],100,44,hard,plus,dotcolour,alfa,,,120,19,V,R,
369,117,33,8,2,53,27,534,['n'],0,left,['2'],5,153,[-0.03338737],96,53,easy,plus,dotcolour,alfa,,,120,19,V,R,
370,118,34,8,2,44,36,501,['c'],1,left,['2'],5,120,[0.04311359],99,44,hard,plus,dotcolour,alfa,,,120,19,V,R,
371,119,35,8,2,53,27,633,['c'],1,left,['3'],4,179,[0.06779371],100,53,easy,plus,dotcolour,alfa,,,120,19,V,R,
372,120,36,8,2,53,27,1367,['c'],1,left,['2'],5,488,[0.11650675],100,53,easy,plus,dotcolour,alfa,,,120,19,V,R,
373,121,37,8,2,53,27,901,['c'],1,left,['2'],5,240,[0.11519609],100,53,easy,plus,dotcolour,alfa,,,120,19,V,R,
374,122,38,8,2,36,44,766,['c'],0,right,['2'],5,265,[0.00098935],52,44,hard,plus,dotcolour,alfa,,,120,19,V,R,
375,123,39,8,2,47,33,750,['c'],1,left,['2'],5,258,[0.0642845],99,47,medium,plus,dotcolour,alfa,,,120,19,V,R,
376,124,40,8,2,33,47,634,['n'],1,right,['2'],5,263,[-0.12256036],100,47,medium,plus,dotcolour,alfa,,,120,19,V,R,
377,125,41,8,2,27,53,450,['n'],1,right,['2'],5,188,[-0.01735014],81,53,easy,plus,dotcolour,alfa,,,120,19,V,R,
378,0,0,9,3,44,36,600,['n'],0,left,['2'],5,104,[0.02020371],36,44,hard,minus,dotcolour,alfa,,,120,19,V,R,
379,1,1,9,3,53,27,867,['c'],1,left,['2'],5,66,[0.06739933],91,53,easy,minus,dotcolour,alfa,,,120,19,V,R,
380,2,2,9,3,27,53,451,['n'],1,right,['2'],5,152,[-0.13726165],96,53,easy,minus,dotcolour,alfa,,,120,19,V,R,
381,3,3,9,3,27,53,350,['n'],1,right,['2'],5,165,[-0.09655283],89,53,easy,minus,dotcolour,alfa,,,120,19,V,R,
382,4,4,9,3,33,47,367,['n'],1,right,['2'],5,161,[-0.08132463],86,47,medium,minus,dotcolour,alfa,,,120,19,V,R,
383,5,5,9,3,47,33,483,['n'],0,left,['2'],5,112,[-0.04780904],78,47,medium,minus,dotcolour,alfa,,,120,19,V,R,
384,6,6,9,3,33,47,349,['n'],1,right,['2'],5,87,[-0.07327818],90,47,medium,minus,dotcolour,alfa,,,120,19,V,R,
385,7,7,9,3,53,27,851,['c'],1,left,['2'],5,107,[0.10119939],94,53,easy,minus,dotcolour,alfa,,,120,19,V,R,
386,8,8,9,3,47,33,1217,['n'],0,left,['3'],4,159,[-0.03219904],67,47,medium,minus,dotcolour,alfa,,,120,19,V,R,
387,9,9,9,3,47,33,500,['n'],0,left,['2'],5,182,[-0.09103873],87,47,medium,minus,dotcolour,alfa,,,120,19,V,R,
388,10,10,9,3,36,44,434,['n'],1,right,['2'],5,167,[-0.12096599],93,44,hard,minus,dotcolour,alfa,,,120,19,V,R,
389,11,11,9,3,27,53,334,['n'],1,right,['2'],5,188,[-0.13745235],95,53,easy,minus,dotcolour,alfa,,,120,19,V,R,
390,12,12,9,3,47,33,434,['n'],0,left,['1'],6,164,[-0.01988116],61,47,medium,minus,dotcolour,alfa,,,120,19,V,R,
391,13,13,9,3,47,33,334,['n'],0,left,['3'],4,138,[-0.00404662],52,47,medium,minus,dotcolour,alfa,,,120,19,V,R,
392,14,14,9,3,27,53,1000,['n'],1,right,['2'],5,278,[-0.07772049],79,53,easy,minus,dotcolour,alfa,,,120,19,V,R,
393,15,15,9,3,36,44,417,['n'],1,right,['2'],5,227,[-0.11174819],89,44,hard,minus,dotcolour,alfa,,,120,19,V,R,
394,16,16,9,3,36,44,367,['n'],1,right,['2'],5,205,[-0.08783746],85,44,hard,minus,dotcolour,alfa,,,120,19,V,R,
395,17,17,9,3,44,36,567,['n'],0,left,['2'],5,119,[-0.05130485],79,44,hard,minus,dotcolour,alfa,,,120,19,V,R,
396,18,18,9,3,27,53,189,['n'],1,right,['1'],6,253,[-0.0542317],73,53,easy,minus,dotcolour,alfa,,,120,19,V,R,
397,19,19,9,3,36,44,367,['n'],1,right,['2'],5,180,[-0.10728191],91,44,hard,minus,dotcolour,alfa,,,120,19,V,R,
398,20,20,9,3,33,47,250,['n'],1,right,['3'],4,220,[-0.07524906],81,47,medium,minus,dotcolour,alfa,,,120,19,V,R,
399,21,21,9,3,47,33,433,['n'],0,left,['8'],3,644,[-0.13074429],81,47,medium,minus,dotcolour,alfa,,,120,19,V,R,
400,22,22,9,3,33,47,801,['n'],1,right,['8'],3,195,[-0.06059748],77,47,medium,minus,dotcolour,alfa,,,120,19,V,R,
401,23,23,9,3,27,53,284,['n'],1,right,['3'],4,129,[-0.0524741],79,53,easy,minus,dotcolour,alfa,,,120,19,V,R,
402,24,24,9,3,53,27,266,['n'],0,left,['8'],3,1259,[0.02733748],45,53,easy,minus,dotcolour,alfa,,,120,19,V,R,
403,25,25,9,3,53,27,767,['c'],1,left,['3'],4,131,[0.06569873],84,53,easy,minus,dotcolour,alfa,,,120,19,V,R,
404,26,26,9,3,44,36,717,['c'],1,left,['3'],4,42,[0.05579847],92,44,hard,minus,dotcolour,alfa,,,120,19,V,R,
405,27,27,9,3,27,53,417,['c'],0,right,['8'],3,784,[-0.04043843],40,53,easy,minus,dotcolour,alfa,,,120,19,V,R,
406,28,28,9,3,33,47,750,['n'],1,right,['2'],5,213,[-0.12773085],92,47,medium,minus,dotcolour,alfa,,,120,19,V,R,
407,29,29,9,3,53,27,1067,['c'],1,left,['2'],5,202,[0.04863308],73,53,easy,minus,dotcolour,alfa,,,120,19,V,R,
408,30,30,9,3,53,27,450,['c'],1,left,['2'],5,147,[0.12619052],95,53,easy,minus,dotcolour,alfa,,,120,19,V,R,
409,31,31,9,3,47,33,967,['c'],1,left,['3'],4,167,[0.06426168],80,47,medium,minus,dotcolour,alfa,,,120,19,V,R,
410,32,32,9,3,36,44,700,['c'],0,right,['2'],5,429,[-0.03293532],39,44,hard,minus,dotcolour,alfa,,,120,19,V,R,
411,33,33,9,3,44,36,483,['n'],0,left,['2'],5,226,[-0.10064511],87,44,hard,minus,dotcolour,alfa,,,120,19,V,R,
412,34,34,9,3,33,47,449,['n'],1,right,['2'],5,192,[-0.13535187],94,47,medium,minus,dotcolour,alfa,,,120,19,V,R,
413,35,35,9,3,44,36,250,['n'],0,left,['2'],5,215,[-0.07119619],80,44,hard,minus,dotcolour,alfa,,,120,19,V,R,
414,36,36,9,3,53,27,602,['c'],1,left,['2'],5,112,[0.09274539],92,53,easy,minus,dotcolour,alfa,,,120,19,V,R,
415,37,37,9,3,44,36,550,['n'],0,left,['2'],5,183,[-0.02337865],62,44,hard,minus,dotcolour,alfa,,,120,19,V,R,
416,38,38,9,3,33,47,650,['n'],1,right,['2'],5,207,[-0.18048626],97,47,medium,minus,dotcolour,alfa,,,120,19,V,R,
417,39,39,9,3,36,44,951,['n'],1,right,['2'],5,145,[0.00678367],46,44,hard,minus,dotcolour,alfa,,,120,19,V,R,
418,40,40,9,3,36,44,783,['n'],1,right,['3'],4,181,[0.04191768],29,44,hard,minus,dotcolour,alfa,,,120,19,V,R,
419,41,41,9,3,44,36,1200,['c'],1,left,['2'],5,191,[0.03858504],69,44,hard,minus,dotcolour,alfa,,,120,19,V,R,
420,42,0,10,3,53,27,650,['n'],0,left,['2'],5,203,[-0.0676829],79,53,easy,minus,dotcolour,alfa,,,120,19,V,R,
421,43,1,10,3,27,53,601,['n'],1,right,['2'],5,132,[-0.12893478],96,53,easy,minus,dotcolour,alfa,,,120,19,V,R,
422,44,2,10,3,44,36,517,['n'],0,left,['2'],5,171,[-0.07415698],83,44,hard,minus,dotcolour,alfa,,,120,19,V,R,
423,45,3,10,3,53,27,667,['n'],0,left,['8'],3,1116,[0.11501182],27,53,easy,minus,dotcolour,alfa,,,120,19,V,R,
424,46,4,10,3,53,27,900,['c'],1,left,['3'],4,124,[0.05717225],81,53,easy,minus,dotcolour,alfa,,,120,19,V,R,
425,47,5,10,3,27,53,1067,['n'],1,right,['2'],5,126,[-0.06368388],83,53,easy,minus,dotcolour,alfa,,,120,19,V,R,
426,48,6,10,3,44,36,567,['n'],0,left,['2'],5,115,[-0.07146592],87,44,hard,minus,dotcolour,alfa,,,120,19,V,R,
427,49,7,10,3,27,53,550,['n'],1,right,['2'],5,146,[-0.07271481],85,53,easy,minus,dotcolour,alfa,,,120,19,V,R,
428,50,8,10,3,36,44,551,['n'],1,right,['2'],5,120,[-0.01740418],61,44,hard,minus,dotcolour,alfa,,,120,19,V,R,
429,51,9,10,3,33,47,600,['n'],1,right,['2'],5,316,[-0.11222736],86,47,medium,minus,dotcolour,alfa,,,120,19,V,R,
430,52,10,10,3,36,44,433,['n'],1,right,['2'],5,135,[-0.0589385],81,44,hard,minus,dotcolour,alfa,,,120,19,V,R,
431,53,11,10,3,44,36,400,['n'],0,left,['2'],5,139,[-0.07589269],86,44,hard,minus,dotcolour,alfa,,,120,19,V,R,
432,54,12,10,3,33,47,567,['n'],1,right,['2'],5,152,[-0.18352545],99,47,medium,minus,dotcolour,alfa,,,120,19,V,R,
433,55,13,10,3,47,33,433,['n'],0,left,['2'],5,251,[0.02507416],39,47,medium,minus,dotcolour,alfa,,,120,19,V,R,
434,56,14,10,3,53,27,450,['n'],0,left,['2'],5,224,[-0.08766927],84,53,easy,minus,dotcolour,alfa,,,120,19,V,R,
435,57,15,10,3,47,33,466,['n'],0,left,['2'],5,213,[-0.06401118],78,47,medium,minus,dotcolour,alfa,,,120,19,V,R,
436,58,16,10,3,36,44,467,['n'],1,right,['2'],5,172,[-0.0292481],65,44,hard,minus,dotcolour,alfa,,,120,19,V,R,
437,59,17,10,3,53,27,600,['n'],0,left,['3'],4,990,[0.08291806],32,53,easy,minus,dotcolour,alfa,,,120,19,V,R,
438,60,18,10,3,36,44,732,['n'],1,right,['2'],5,275,[-0.09842792],84,44,hard,minus,dotcolour,alfa,,,120,19,V,R,
439,61,19,10,3,44,36,550,['n'],0,left,['3'],4,274,[-0.0578034],73,44,hard,minus,dotcolour,alfa,,,120,19,V,R,
440,62,20,10,3,27,53,633,['n'],1,right,['2'],5,191,[-0.14893086],96,53,easy,minus,dotcolour,alfa,,,120,19,V,R,
441,63,21,10,3,33,47,517,['n'],1,right,['2'],5,243,[-0.12323873],90,47,medium,minus,dotcolour,alfa,,,120,19,V,R,
442,64,22,10,3,33,47,483,['n'],1,right,['2'],5,192,[-0.12644306],93,47,medium,minus,dotcolour,alfa,,,120,19,V,R,
443,65,23,10,3,36,44,450,['n'],1,right,['2'],5,183,[-0.14861452],96,44,hard,minus,dotcolour,alfa,,,120,19,V,R,
444,66,24,10,3,44,36,400,['n'],0,left,['2'],5,137,[-0.07025743],85,44,hard,minus,dotcolour,alfa,,,120,19,V,R,
445,67,25,10,3,53,27,1117,['c'],1,left,['3'],4,232,[0.10797222],88,53,easy,minus,dotcolour,alfa,,,120,19,V,R,
446,68,26,10,3,47,33,450,['n'],0,left,['2'],5,358,[-0.03398742],63,47,medium,minus,dotcolour,alfa,,,120,19,V,R,
447,69,27,10,3,44,36,551,['n'],0,left,['2'],5,155,[-0.08513378],88,44,hard,minus,dotcolour,alfa,,,120,19,V,R,
448,70,28,10,3,33,47,384,['n'],1,right,['2'],5,182,[-0.08104979],85,47,medium,minus,dotcolour,alfa,,,120,19,V,R,
449,71,29,10,3,36,44,750,['n'],1,right,['2'],5,139,[-0.08895984],90,44,hard,minus,dotcolour,alfa,,,120,19,V,R,
450,72,30,10,3,27,53,617,['n'],1,right,['2'],5,158,[-0.08631324],88,53,easy,minus,dotcolour,alfa,,,120,19,V,R,
451,73,31,10,3,47,33,567,['n'],0,left,['8'],3,1131,[0.16280914],20,47,medium,minus,dotcolour,alfa,,,120,19,V,R,
452,74,32,10,3,33,47,601,['n'],1,right,['2'],5,182,[-0.16036343],97,47,medium,minus,dotcolour,alfa,,,120,19,V,R,
453,75,33,10,3,27,53,683,['n'],1,right,['2'],5,205,[-0.12214233],92,53,easy,minus,dotcolour,alfa,,,120,19,V,R,
454,76,34,10,3,27,53,484,['n'],1,right,['2'],5,195,[-0.07131858],81,53,easy,minus,dotcolour,alfa,,,120,19,V,R,
455,77,35,10,3,47,33,783,['c'],1,left,['2'],5,181,[0.13847569],95,47,medium,minus,dotcolour,alfa,,,120,19,V,R,
456,78,36,10,3,47,33,465,['c'],1,left,['2'],5,300,[0.09100014],82,47,medium,minus,dotcolour,alfa,,,120,19,V,R,
457,79,37,10,3,53,27,468,['c'],1,left,['2'],5,135,[0.08720469],89,53,easy,minus,dotcolour,alfa,,,120,19,V,R,
458,80,38,10,3,36,44,266,['c'],0,right,['2'],5,129,[0.05469486],80,44,hard,minus,dotcolour,alfa,,,120,19,V,R,
459,81,39,10,3,33,47,367,['n'],1,right,['2'],5,102,[-0.05012794],80,47,medium,minus,dotcolour,alfa,,,120,19,V,R,
460,82,40,10,3,44,36,633,['n'],0,left,['2'],5,177,[-0.05009832],74,44,hard,minus,dotcolour,alfa,,,120,19,V,R,
461,83,41,10,3,47,33,350,['n'],0,left,['2'],5,118,[-0.07096127],87,47,medium,minus,dotcolour,alfa,,,120,19,V,R,
462,84,0,11,3,44,36,650,['n'],0,left,['2'],5,102,[-0.03620737],74,44,hard,minus,dotcolour,alfa,,,120,19,V,R,
463,85,1,11,3,53,27,350,['n'],0,left,['2'],5,133,[-0.0300285],68,53,easy,minus,dotcolour,alfa,,,120,19,V,R,
464,86,2,11,3,53,27,633,['n'],0,left,['2'],5,120,[-0.01942498],62,53,easy,minus,dotcolour,alfa,,,120,19,V,R,
465,87,3,11,3,36,44,600,['n'],1,right,['2'],5,132,[-0.06225651],82,44,hard,minus,dotcolour,alfa,,,120,19,V,R,
466,88,4,11,3,27,53,449,['n'],1,right,['2'],5,102,[-0.09462459],94,53,easy,minus,dotcolour,alfa,,,120,19,V,R,
467,89,5,11,3,47,33,333,['n'],0,left,['2'],5,135,[-0.0376954],72,47,medium,minus,dotcolour,alfa,,,120,19,V,R,
468,90,6,11,3,47,33,499,['n'],0,left,['2'],5,439,[-0.02816195],59,47,medium,minus,dotcolour,alfa,,,120,19,V,R,
469,91,7,11,3,47,33,733,['n'],0,left,['2'],5,185,[-0.07906561],84,47,medium,minus,dotcolour,alfa,,,120,19,V,R,
470,92,8,11,3,53,27,850,['c'],1,left,['3'],4,193,[0.15163032],96,53,easy,minus,dotcolour,alfa,,,120,19,V,R,
471,93,9,11,3,36,44,683,['n'],1,right,['2'],5,151,[-0.05658197],79,44,hard,minus,dotcolour,alfa,,,120,19,V,R,
472,94,10,11,3,27,53,867,['n'],1,right,['3'],4,239,[-0.13659932],93,53,easy,minus,dotcolour,alfa,,,120,19,V,R,
473,95,11,11,3,53,27,983,['c'],1,left,['2'],5,199,[0.06182646],78,53,easy,minus,dotcolour,alfa,,,120,19,V,R,
474,96,12,11,3,47,33,633,['c'],1,left,['2'],5,159,[0.137554],96,47,medium,minus,dotcolour,alfa,,,120,19,V,R,
475,97,13,11,3,27,53,600,['n'],1,right,['2'],5,170,[-0.06366719],80,53,easy,minus,dotcolour,alfa,,,120,19,V,R,
476,98,14,11,3,47,33,700,['c'],1,left,['2'],5,105,[0.05814185],83,47,medium,minus,dotcolour,alfa,,,120,19,V,R,
477,99,15,11,3,44,36,450,['n'],0,left,['2'],5,172,[-0.05221345],76,44,hard,minus,dotcolour,alfa,,,120,19,V,R,
478,100,16,11,3,33,47,383,['n'],1,right,['2'],5,111,[-0.0168494],61,47,medium,minus,dotcolour,alfa,,,120,19,V,R,
479,101,17,11,3,44,36,383,['n'],0,left,['2'],5,149,[-0.05442794],78,44,hard,minus,dotcolour,alfa,,,120,19,V,R,
480,102,18,11,3,36,44,550,['n'],1,right,['2'],5,114,[-0.0952116],93,44,hard,minus,dotcolour,alfa,,,120,19,V,R,
481,103,19,11,3,33,47,334,['n'],1,right,['2'],5,170,[-0.09476418],89,47,medium,minus,dotcolour,alfa,,,120,19,V,R,
482,104,20,11,3,27,53,284,['n'],1,right,['2'],5,137,[-0.01483642],59,53,easy,minus,dotcolour,alfa,,,120,19,V,R,
483,105,21,11,3,44,36,833,['c'],1,left,['2'],5,196,[0.05788817],76,44,hard,minus,dotcolour,alfa,,,120,19,V,R,
484,106,22,11,3,44,36,365,['n'],0,left,['2'],5,175,[-0.16171752],97,44,hard,minus,dotcolour,alfa,,,120,19,V,R,
485,107,23,11,3,44,36,350,['n'],0,left,['2'],5,171,[-0.10519974],91,44,hard,minus,dotcolour,alfa,,,120,19,V,R,
486,108,24,11,3,33,47,551,['n'],1,right,['2'],5,167,[-0.07235029],83,47,medium,minus,dotcolour,alfa,,,120,19,V,R,
487,109,25,11,3,27,53,400,['c'],0,right,['9'],2,1058,[0.01958458],54,53,easy,minus,dotcolour,alfa,,,120,19,V,R,
488,110,26,11,3,27,53,534,['n'],1,right,['2'],5,251,[-0.07960033],81,53,easy,minus,dotcolour,alfa,,,120,19,V,R,
489,111,27,11,3,36,44,416,['n'],1,right,['2'],5,153,[-0.09332858],90,44,hard,minus,dotcolour,alfa,,,120,19,V,R,
490,112,28,11,3,53,27,501,['c'],1,left,['2'],5,97,[0.08694166],93,53,easy,minus,dotcolour,alfa,,,120,19,V,R,
491,113,29,11,3,53,27,484,['c'],1,left,['1'],6,147,[0.14466339],97,53,easy,minus,dotcolour,alfa,,,120,19,V,R,
492,114,30,11,3,44,36,466,['c'],1,left,['1'],6,124,[0.10647464],94,44,hard,minus,dotcolour,alfa,,,120,19,V,R,
493,115,31,11,3,53,27,400,['c'],1,left,['2'],5,152,[0.13979665],96,53,easy,minus,dotcolour,alfa,,,120,19,V,R,
494,116,32,11,3,36,44,684,['n'],1,right,['2'],5,144,[0.0257786],35,44,hard,minus,dotcolour,alfa,,,120,19,V,R,
495,117,33,11,3,36,44,784,['n'],1,right,['2'],5,196,[-0.03875312],69,44,hard,minus,dotcolour,alfa,,,120,19,V,R,
496,118,34,11,3,33,47,467,['n'],1,right,['3'],4,771,[-0.18245366],87,47,medium,minus,dotcolour,alfa,,,120,19,V,R,
497,119,35,11,3,33,47,500,['n'],1,right,['2'],5,225,[-0.06829967],79,47,medium,minus,dotcolour,alfa,,,120,19,V,R,
498,120,36,11,3,33,47,367,['n'],1,right,['2'],5,178,[-0.04469577],72,47,medium,minus,dotcolour,alfa,,,120,19,V,R,
499,121,37,11,3,27,53,350,['n'],1,right,['2'],5,214,[-0.22264276],99,53,easy,minus,dotcolour,alfa,,,120,19,V,R,
500,122,38,11,3,47,33,417,['n'],0,left,['2'],5,230,[-0.13235884],92,47,medium,minus,dotcolour,alfa,,,120,19,V,R,
501,123,39,11,3,33,47,1002,['n'],1,right,['1'],6,710,[-0.07377004],69,47,medium,minus,dotcolour,alfa,,,120,19,V,R,
502,124,40,11,3,47,33,383,['n'],0,left,['2'],5,147,[-0.08325671],88,47,medium,minus,dotcolour,alfa,,,120,19,V,R,
503,125,41,11,3,36,44,335,['n'],1,right,['2'],5,273,[-0.06344875],75,44,hard,minus,dotcolour,alfa,,,120,19,V,R,
504,0,0,12,4,36,44,567,['n'],1,right,['2'],5,714,[-0.10639311],99,44,hard,plus,dotcolour,alfa,,,120,19,V,R,
505,1,1,12,4,33,47,350,['n'],1,right,['1'],6,232,[-0.11021403],100,47,medium,plus,dotcolour,alfa,,,120,19,V,R,
506,2,2,12,4,27,53,283,['n'],1,right,['1'],6,205,[-0.11756212],100,53,easy,plus,dotcolour,alfa,,,120,19,V,R,
507,3,3,12,4,53,27,317,['n'],0,left,['1'],6,225,[-0.00956482],67,53,easy,plus,dotcolour,alfa,,,120,19,V,R,
508,4,4,12,4,33,47,383,['n'],1,right,['1'],6,178,[-0.0976605],100,47,medium,plus,dotcolour,alfa,,,120,19,V,R,
509,5,5,12,4,36,44,317,['n'],1,right,['1'],6,215,[-0.04535211],97,44,hard,plus,dotcolour,alfa,,,120,19,V,R,
510,6,6,12,4,33,47,350,['n'],1,right,['1'],6,266,[-0.21162742],100,47,medium,plus,dotcolour,alfa,,,120,19,V,R,
511,7,7,12,4,47,33,317,['n'],0,left,['1'],6,148,[-0.07799139],100,47,medium,plus,dotcolour,alfa,,,120,19,V,R,
512,8,8,12,4,53,27,232,['n'],0,left,['1'],6,189,[-0.09131495],100,53,easy,plus,dotcolour,alfa,,,120,19,V,R,
513,9,9,12,4,47,33,316,['n'],0,left,['1'],6,219,[-0.13200116],100,47,medium,plus,dotcolour,alfa,,,120,19,V,R,
514,10,10,12,4,44,36,333,['n'],0,left,['1'],6,223,[-0.01151013],71,44,hard,plus,dotcolour,alfa,,,120,19,V,R,
515,11,11,12,4,44,36,350,['n'],0,left,['1'],6,336,[-0.07010131],99,44,hard,plus,dotcolour,alfa,,,120,19,V,R,
516,12,12,12,4,27,53,300,['n'],1,right,['2'],5,168,[-0.15428542],100,53,easy,plus,dotcolour,alfa,,,120,19,V,R,
517,13,13,12,4,33,47,317,['n'],1,right,['1'],6,254,[-0.21150461],100,47,medium,plus,dotcolour,alfa,,,120,19,V,R,
518,14,14,12,4,33,47,268,['n'],1,right,['1'],6,163,[-0.10445195],100,47,medium,plus,dotcolour,alfa,,,120,19,V,R,
519,15,15,12,4,36,44,249,['n'],1,right,['1'],6,171,[-0.08243714],100,44,hard,plus,dotcolour,alfa,,,120,19,V,R,
520,16,16,12,4,47,33,317,['n'],0,left,['1'],6,162,[-0.08622135],100,47,medium,plus,dotcolour,alfa,,,120,19,V,R,
521,17,17,12,4,44,36,550,['n'],0,left,['1'],6,366,[0.08788106],1,44,hard,plus,dotcolour,alfa,,,120,19,V,R,
522,18,18,12,4,36,44,750,['n'],1,right,['1'],6,436,[-0.03112381],85,44,hard,plus,dotcolour,alfa,,,120,19,V,R,
523,19,19,12,4,27,53,468,['n'],1,right,['1'],6,177,[-0.12323186],100,53,easy,plus,dotcolour,alfa,,,120,19,V,R,
524,20,20,12,4,44,36,250,['n'],0,left,['1'],6,248,[-0.07597123],100,44,hard,plus,dotcolour,alfa,,,120,19,V,R,
525,21,21,12,4,27,53,233,['n'],1,right,['1'],6,206,[-0.10451119],100,53,easy,plus,dotcolour,alfa,,,120,19,V,R,
526,22,22,12,4,47,33,217,['n'],0,left,['1'],6,279,[-0.10128448],100,47,medium,plus,dotcolour,alfa,,,120,19,V,R,
527,23,23,12,4,47,33,1234,['n'],0,left,['1'],6,443,[-0.03334554],86,47,medium,plus,dotcolour,alfa,,,120,19,V,R,
528,24,24,12,4,27,53,500,['n'],1,right,['2'],5,254,[-0.12899468],100,53,easy,plus,dotcolour,alfa,,,120,19,V,R,
529,25,25,12,4,53,27,1383,['n'],0,left,['2'],5,630,[-0.00034562],50,53,easy,plus,dotcolour,alfa,,,120,19,V,R,
530,26,26,12,4,53,27,2117,['c'],1,left,['2'],5,258,[0.03566539],93,53,easy,plus,dotcolour,alfa,,,120,19,V,R,
531,27,27,12,4,36,44,2184,['c'],0,right,['2'],5,234,[0.13336741],100,44,hard,plus,dotcolour,alfa,,,120,19,V,R,
532,28,28,12,4,36,44,1768,['c'],0,right,['3'],4,475,[0.06320094],96,44,hard,plus,dotcolour,alfa,,,120,19,V,R,
533,29,29,12,4,47,33,550,['n'],0,left,['2'],5,1204,[0.03737157],23,47,medium,plus,dotcolour,alfa,,,120,19,V,R,
534,30,30,12,4,44,36,834,['c'],1,left,['2'],5,650,[0.22690666],100,44,hard,plus,dotcolour,alfa,,,120,19,V,R,
535,31,31,12,4,44,36,1251,['c'],1,left,['3'],4,559,[0.14280612],100,44,hard,plus,dotcolour,alfa,,,120,19,V,R,
536,32,32,12,4,27,53,783,['n'],1,right,['3'],4,731,[-0.24618006],100,53,easy,plus,dotcolour,alfa,,,120,19,V,R,
537,33,33,12,4,27,53,617,['n'],1,right,['2'],5,958,[-0.22149283],100,53,easy,plus,dotcolour,alfa,,,120,19,V,R,
538,34,34,12,4,33,47,567,['n'],1,right,['2'],5,618,[-0.03079873],80,47,medium,plus,dotcolour,alfa,,,120,19,V,R,
539,35,35,12,4,53,27,351,['n'],0,left,['3'],4,1861,[0.28019745],0,53,easy,plus,dotcolour,alfa,,,120,19,V,R,
540,36,36,12,4,53,27,583,['n'],0,left,['2'],5,852,[0.0016904],48,53,easy,plus,dotcolour,alfa,,,120,19,V,R,
541,37,37,12,4,44,36,484,['n'],0,left,['2'],5,751,[-0.1173173],99,44,hard,plus,dotcolour,alfa,,,120,19,V,R,
542,38,38,12,4,33,47,834,['n'],1,right,['2'],5,673,[-0.06937052],95,47,medium,plus,dotcolour,alfa,,,120,19,V,R,
543,39,39,12,4,36,44,600,['n'],1,right,['2'],5,504,[-0.07071078],97,44,hard,plus,dotcolour,alfa,,,120,19,V,R,
544,40,40,12,4,53,27,633,['c'],1,left,['2'],5,475,[0.16251411],100,53,easy,plus,dotcolour,alfa,,,120,19,V,R,
545,41,41,12,4,47,33,434,['n'],0,left,['2'],5,672,[-0.07438152],96,47,medium,plus,dotcolour,alfa,,,120,19,V,R,
546,42,0,13,4,53,27,868,['c'],1,left,['2'],5,559,[-0.06117774],5,53,easy,plus,dotcolour,alfa,,,120,19,V,R,
547,43,1,13,4,44,36,883,['n'],0,left,['2'],5,486,[0.03340356],15,44,hard,plus,dotcolour,alfa,,,120,19,V,R,
548,44,2,13,4,47,33,684,['n'],0,left,['2'],5,417,[-0.13076145],100,47,medium,plus,dotcolour,alfa,,,120,19,V,R,
549,45,3,13,4,47,33,734,['n'],0,left,['3'],4,564,[-0.13532115],100,47,medium,plus,dotcolour,alfa,,,120,19,V,R,
550,46,4,13,4,27,53,500,['n'],1,right,['2'],5,675,[-0.21392227],100,53,easy,plus,dotcolour,alfa,,,120,19,V,R,
551,47,5,13,4,44,36,633,['n'],0,left,['2'],5,464,[0.05217736],6,44,hard,plus,dotcolour,alfa,,,120,19,V,R,
552,48,6,13,4,33,47,651,['n'],1,right,['2'],5,388,[-0.06592445],98,47,medium,plus,dotcolour,alfa,,,120,19,V,R,
553,49,7,13,4,27,53,766,['n'],1,right,['2'],5,359,[-0.11881934],100,53,easy,plus,dotcolour,alfa,,,120,19,V,R,
554,50,8,13,4,53,27,651,['n'],0,left,['2'],5,240,[-0.05347668],98,53,easy,plus,dotcolour,alfa,,,120,19,V,R,
555,51,9,13,4,36,44,450,['n'],1,right,['2'],5,253,[-0.13510475],100,44,hard,plus,dotcolour,alfa,,,120,19,V,R,
556,52,10,13,4,44,36,450,['n'],0,left,['2'],5,347,[-0.03210816],88,44,hard,plus,dotcolour,alfa,,,120,19,V,R,
557,53,11,13,4,27,53,384,['n'],1,right,['2'],5,295,[-0.10133771],100,53,easy,plus,dotcolour,alfa,,,120,19,V,R,
558,54,12,13,4,44,36,449,['n'],0,left,['2'],5,227,[-0.07187274],100,44,hard,plus,dotcolour,alfa,,,120,19,V,R,
559,55,13,13,4,47,33,484,['n'],0,left,['2'],5,279,[-0.05069701],97,47,medium,plus,dotcolour,alfa,,,120,19,V,R,
560,56,14,13,4,33,47,484,['n'],1,right,['2'],5,265,[-0.13514846],100,47,medium,plus,dotcolour,alfa,,,120,19,V,R,
561,57,15,13,4,47,33,501,['n'],0,left,['2'],5,404,[0.02625533],18,47,medium,plus,dotcolour,alfa,,,120,19,V,R,
562,58,16,13,4,36,44,633,['n'],1,right,['2'],5,293,[-0.05333381],97,44,hard,plus,dotcolour,alfa,,,120,19,V,R,
563,59,17,13,4,36,44,583,['n'],1,right,['2'],5,291,[0.01165317],31,44,hard,plus,dotcolour,alfa,,,120,19,V,R,
564,60,18,13,4,44,36,1317,['c'],1,left,['3'],4,291,[0.02848555],87,44,hard,plus,dotcolour,alfa,,,120,19,V,R,
565,61,19,13,4,33,47,567,['n'],1,right,['2'],5,473,[-0.18860885],100,47,medium,plus,dotcolour,alfa,,,120,19,V,R,
566,62,20,13,4,27,53,467,['n'],1,right,['2'],5,261,[-0.01453844],74,53,easy,plus,dotcolour,alfa,,,120,19,V,R,
567,63,21,13,4,47,33,650,['n'],0,left,['3'],4,618,[-0.0619733],94,47,medium,plus,dotcolour,alfa,,,120,19,V,R,
568,64,22,13,4,36,44,501,['n'],1,right,['2'],5,334,[0.01132823],33,44,hard,plus,dotcolour,alfa,,,120,19,V,R,
569,65,23,13,4,27,53,951,['n'],1,right,['2'],5,341,[-0.05398961],97,53,easy,plus,dotcolour,alfa,,,120,19,V,R,
570,66,24,13,4,27,53,567,['n'],1,right,['1'],6,409,[-0.15609116],100,53,easy,plus,dotcolour,alfa,,,120,19,V,R,
571,67,25,13,4,33,47,500,['n'],1,right,['1'],6,326,[-0.01896656],77,47,medium,plus,dotcolour,alfa,,,120,19,V,R,
572,68,26,13,4,36,44,451,['n'],1,right,['2'],5,264,[-0.13444383],100,44,hard,plus,dotcolour,alfa,,,120,19,V,R,
573,69,27,13,4,33,47,533,['n'],1,right,['1'],6,377,[-0.09480254],100,47,medium,plus,dotcolour,alfa,,,120,19,V,R,
574,70,28,13,4,44,36,400,['n'],0,left,['1'],6,267,[0.0164018],24,44,hard,plus,dotcolour,alfa,,,120,19,V,R,
575,71,29,13,4,36,44,500,['n'],1,right,['2'],5,566,[-0.05996698],95,44,hard,plus,dotcolour,alfa,,,120,19,V,R,
576,72,30,13,4,47,33,517,['n'],0,left,['8'],3,2764,[0.53881218],0,47,medium,plus,dotcolour,alfa,,,120,19,V,R,
577,73,31,13,4,33,47,417,['n'],1,right,['2'],5,293,[-0.00302246],55,47,medium,plus,dotcolour,alfa,,,120,19,V,R,
578,74,32,13,4,53,27,934,['n'],0,left,['2'],5,573,[0.01960947],28,53,easy,plus,dotcolour,alfa,,,120,19,V,R,
579,75,33,13,4,33,47,450,['n'],1,right,['1'],6,373,[0.03016733],14,47,medium,plus,dotcolour,alfa,,,120,19,V,R,
580,76,34,13,4,53,27,500,['n'],0,left,['2'],5,571,[0.12846943],0,53,easy,plus,dotcolour,alfa,,,120,19,V,R,
581,77,35,13,4,47,33,818,['n'],0,left,['2'],5,732,[-0.09048],98,47,medium,plus,dotcolour,alfa,,,120,19,V,R,
582,78,36,13,4,44,36,1250,['n'],0,left,['3'],4,798,[0.02322586],28,44,hard,plus,dotcolour,alfa,,,120,19,V,R,
583,79,37,13,4,53,27,1050,['c'],1,left,['3'],4,1046,[0.36919394],100,53,easy,plus,dotcolour,alfa,,,120,19,V,R,
584,80,38,13,4,53,27,866,['c'],1,left,['2'],5,419,[0.08033508],99,53,easy,plus,dotcolour,alfa,,,120,19,V,R,
585,81,39,13,4,36,44,1117,['n'],1,right,['2'],5,287,[-0.03786395],93,44,hard,plus,dotcolour,alfa,,,120,19,V,R,
586,82,40,13,4,53,27,767,['c'],1,left,['2'],5,358,[0.14984994],100,53,easy,plus,dotcolour,alfa,,,120,19,V,R,
587,83,41,13,4,27,53,534,['n'],1,right,['2'],5,299,[-0.08964284],100,53,easy,plus,dotcolour,alfa,,,120,19,V,R,
588,84,0,14,4,33,47,617,['n'],1,right,['2'],5,241,[-0.06884102],99,47,medium,plus,dotcolour,alfa,,,120,19,V,R,
589,85,1,14,4,27,53,433,['n'],1,right,['2'],5,311,[-0.07712886],99,53,easy,plus,dotcolour,alfa,,,120,19,V,R,
590,86,2,14,4,33,47,434,['n'],1,right,['2'],5,378,[-0.12624046],100,47,medium,plus,dotcolour,alfa,,,120,19,V,R,
591,87,3,14,4,36,44,433,['n'],1,right,['2'],5,331,[-0.03731892],91,44,hard,plus,dotcolour,alfa,,,120,19,V,R,
592,88,4,14,4,44,36,600,['n'],0,left,['2'],5,255,[-0.08211579],100,44,hard,plus,dotcolour,alfa,,,120,19,V,R,
593,89,5,14,4,53,27,1084,['c'],1,left,['2'],5,299,[0.01444811],72,53,easy,plus,dotcolour,alfa,,,120,19,V,R,
594,90,6,14,4,47,33,900,['c'],1,left,['2'],5,1036,[0.16222348],100,47,medium,plus,dotcolour,alfa,,,120,19,V,R,
595,91,7,14,4,53,27,767,['c'],1,left,['2'],5,341,[0.15934399],100,53,easy,plus,dotcolour,alfa,,,120,19,V,R,
596,92,8,14,4,44,36,999,['c'],1,left,['2'],5,432,[0.10786424],100,44,hard,plus,dotcolour,alfa,,,120,19,V,R,
597,93,9,14,4,44,36,516,['c'],1,left,['2'],5,356,[0.16938858],100,44,hard,plus,dotcolour,alfa,,,120,19,V,R,
598,94,10,14,4,53,27,451,['c'],1,left,['1'],6,420,[0.16807425],100,53,easy,plus,dotcolour,alfa,,,120,19,V,R,
599,95,11,14,4,33,47,1617,['n'],1,right,['3'],4,588,[-0.09205993],99,47,medium,plus,dotcolour,alfa,,,120,19,V,R,
600,96,12,14,4,47,33,583,['c'],1,left,['2'],5,494,[0.02523765],78,47,medium,plus,dotcolour,alfa,,,120,19,V,R,
601,97,13,14,4,33,47,983,['c'],0,right,['3'],4,476,[0.07001194],97,47,medium,plus,dotcolour,alfa,,,120,19,V,R,
602,98,14,14,4,36,44,666,['c'],0,right,['8'],3,768,[0.11930206],99,44,hard,plus,dotcolour,alfa,,,120,19,V,R,
603,99,15,14,4,27,53,750,['n'],1,right,['2'],5,308,[-0.1720589],100,53,easy,plus,dotcolour,alfa,,,120,19,V,R,
604,100,16,14,4,33,47,500,['n'],1,right,['2'],5,309,[-0.10786855],100,47,medium,plus,dotcolour,alfa,,,120,19,V,R,
605,101,17,14,4,33,47,785,['n'],1,right,['1'],6,251,[-0.11663503],100,47,medium,plus,dotcolour,alfa,,,120,19,V,R,
606,102,18,14,4,36,44,467,['n'],1,right,['1'],6,328,[-0.18635163],100,44,hard,plus,dotcolour,alfa,,,120,19,V,R,
607,103,19,14,4,47,33,633,['n'],0,left,['1'],6,274,[-0.00899743],65,47,medium,plus,dotcolour,alfa,,,120,19,V,R,
608,104,20,14,4,33,47,600,['n'],1,right,['2'],5,176,[-0.10662962],100,47,medium,plus,dotcolour,alfa,,,120,19,V,R,
609,105,21,14,4,44,36,749,['c'],1,left,['2'],5,253,[0.14753916],100,44,hard,plus,dotcolour,alfa,,,120,19,V,R,
610,106,22,14,4,47,33,766,['n'],0,left,['2'],5,269,[-0.00333559],56,47,medium,plus,dotcolour,alfa,,,120,19,V,R,
611,107,23,14,4,44,36,684,['c'],1,left,['2'],5,288,[0.08252735],100,44,hard,plus,dotcolour,alfa,,,120,19,V,R,
612,108,24,14,4,27,53,517,['n'],1,right,['2'],5,281,[-0.11904344],100,53,easy,plus,dotcolour,alfa,,,120,19,V,R,
613,109,25,14,4,36,44,568,['n'],1,right,['2'],5,289,[0.00814825],37,44,hard,plus,dotcolour,alfa,,,120,19,V,R,
614,110,26,14,4,47,33,684,['c'],1,left,['2'],5,243,[0.05292447],98,47,medium,plus,dotcolour,alfa,,,120,19,V,R,
615,111,27,14,4,44,36,583,['c'],1,left,['2'],5,235,[0.05194618],98,44,hard,plus,dotcolour,alfa,,,120,19,V,R,
616,112,28,14,4,27,53,700,['n'],1,right,['2'],5,287,[-0.06945021],99,53,easy,plus,dotcolour,alfa,,,120,19,V,R,
617,113,29,14,4,36,44,951,['n'],1,right,['2'],5,239,[-0.09735732],100,44,hard,plus,dotcolour,alfa,,,120,19,V,R,
618,114,30,14,4,53,27,934,['c'],1,left,['2'],5,185,[0.08443571],100,53,easy,plus,dotcolour,alfa,,,120,19,V,R,
619,115,31,14,4,53,27,766,['c'],1,left,['2'],5,237,[0.19753511],100,53,easy,plus,dotcolour,alfa,,,120,19,V,R,
620,116,32,14,4,27,53,550,['n'],1,right,['2'],5,326,[-0.15176801],100,53,easy,plus,dotcolour,alfa,,,120,19,V,R,
621,117,33,14,4,53,27,749,['c'],1,left,['2'],5,316,[0.18611898],100,53,easy,plus,dotcolour,alfa,,,120,19,V,R,
622,118,34,14,4,27,53,700,['n'],1,right,['2'],5,269,[-0.07240959],99,53,easy,plus,dotcolour,alfa,,,120,19,V,R,
623,119,35,14,4,47,33,684,['c'],1,left,['2'],5,224,[0.13796878],100,47,medium,plus,dotcolour,alfa,,,120,19,V,R,
624,120,36,14,4,47,33,850,['c'],1,left,['1'],6,278,[0.12087263],100,47,medium,plus,dotcolour,alfa,,,120,19,V,R,
625,121,37,14,4,36,44,584,['c'],0,right,['1'],6,333,[-0.00275226],46,44,hard,plus,dotcolour,alfa,,,120,19,V,R,
626,122,38,14,4,53,27,750,['c'],1,left,['1'],6,283,[0.07651206],99,53,easy,plus,dotcolour,alfa,,,120,19,V,R,
627,123,39,14,4,27,53,617,['n'],1,right,['1'],6,280,[-0.12791979],100,53,easy,plus,dotcolour,alfa,,,120,19,V,R,
628,124,40,14,4,44,36,667,['c'],1,left,['2'],5,300,[0.00842847],64,44,hard,plus,dotcolour,alfa,,,120,19,V,R,
629,125,41,14,4,36,44,567,['n'],1,right,['2'],5,314,[-0.03506766],90,44,hard,plus,dotcolour,alfa,,,120,19,V,R,
630,0,0,15,5,33,47,616,['n'],1,right,['2'],5,217,[-0.06583366],78,47,medium,minus,dotcolour,alfa,,,120,19,V,R,
631,1,1,15,5,33,47,517,['n'],1,right,['2'],5,293,[-0.09312411],82,47,medium,minus,dotcolour,alfa,,,120,19,V,R,
632,2,2,15,5,53,27,784,['c'],1,left,['2'],5,331,[0.10497145],84,53,easy,minus,dotcolour,alfa,,,120,19,V,R,
633,3,3,15,5,27,53,450,['n'],1,right,['2'],5,245,[-0.09574154],85,53,easy,minus,dotcolour,alfa,,,120,19,V,R,
634,4,4,15,5,36,44,467,['n'],1,right,['2'],5,346,[-0.07476656],76,44,hard,minus,dotcolour,alfa,,,120,19,V,R,
635,5,5,15,5,47,33,966,['c'],1,left,['2'],5,231,[0.11429683],89,47,medium,minus,dotcolour,alfa,,,120,19,V,R,
636,6,6,15,5,47,33,1468,['n'],0,left,['3'],4,340,[-0.07500433],76,47,medium,minus,dotcolour,alfa,,,120,19,V,R,
637,7,7,15,5,47,33,752,['c'],1,left,['2'],5,169,[0.12682644],94,47,medium,minus,dotcolour,alfa,,,120,19,V,R,
638,8,8,15,5,36,44,633,['n'],1,right,['2'],5,218,[-0.07514521],81,44,hard,minus,dotcolour,alfa,,,120,19,V,R,
639,9,9,15,5,53,27,568,['c'],1,left,['2'],5,301,[0.17826138],95,53,easy,minus,dotcolour,alfa,,,120,19,V,R,
640,10,10,15,5,53,27,701,['c'],1,left,['2'],5,254,[0.15203893],94,53,easy,minus,dotcolour,alfa,,,120,19,V,R,
641,11,11,15,5,27,53,750,['n'],1,right,['2'],5,199,[-0.11062737],90,53,easy,minus,dotcolour,alfa,,,120,19,V,R,
642,12,12,15,5,53,27,817,['n'],0,left,['8'],3,864,[-0.04081904],60,53,easy,minus,dotcolour,alfa,,,120,19,V,R,
643,13,13,15,5,33,47,849,['n'],1,right,['2'],5,213,[-0.10597424],89,47,medium,minus,dotcolour,alfa,,,120,19,V,R,
644,14,14,15,5,47,33,684,['c'],1,left,['2'],5,210,[0.06419134],78,47,medium,minus,dotcolour,alfa,,,120,19,V,R,
645,15,15,15,5,33,47,533,['n'],1,right,['2'],5,246,[-0.10556027],87,47,medium,minus,dotcolour,alfa,,,120,19,V,R,
646,16,16,15,5,27,53,433,['n'],1,right,['2'],5,315,[-0.21310971],97,53,easy,minus,dotcolour,alfa,,,120,19,V,R,
647,17,17,15,5,44,36,467,['n'],0,left,['2'],5,221,[-0.0859927],84,44,hard,minus,dotcolour,alfa,,,120,19,V,R,
648,18,18,15,5,33,47,516,['n'],1,right,['1'],6,257,[-0.09162737],84,47,medium,minus,dotcolour,alfa,,,120,19,V,R,
649,19,19,15,5,27,53,583,['n'],1,right,['2'],5,240,[-0.11181174],89,53,easy,minus,dotcolour,alfa,,,120,19,V,R,
650,20,20,15,5,33,47,367,['n'],1,right,['2'],5,217,[-0.07037268],80,47,medium,minus,dotcolour,alfa,,,120,19,V,R,
651,21,21,15,5,36,44,617,['n'],1,right,['2'],5,257,[-0.09958876],85,44,hard,minus,dotcolour,alfa,,,120,19,V,R,
652,22,22,15,5,44,36,567,['n'],0,left,['2'],5,185,[-0.02240213],62,44,hard,minus,dotcolour,alfa,,,120,19,V,R,
653,23,23,15,5,53,27,517,['n'],0,left,['9'],2,1158,[0.02438837],45,53,easy,minus,dotcolour,alfa,,,120,19,V,R,
654,24,24,15,5,44,36,833,['n'],0,left,['2'],5,352,[-0.09662457],81,44,hard,minus,dotcolour,alfa,,,120,19,V,R,
655,25,25,15,5,44,36,899,['n'],0,left,['2'],5,319,[0.0218857],41,44,hard,minus,dotcolour,alfa,,,120,19,V,R,
656,26,26,15,5,47,33,1017,['n'],0,left,['8'],3,451,[-0.00713462],52,47,medium,minus,dotcolour,alfa,,,120,19,V,R,
657,27,27,15,5,27,53,1251,['n'],1,right,['2'],5,272,[-0.04001439],67,53,easy,minus,dotcolour,alfa,,,120,19,V,R,
658,28,28,15,5,53,27,767,['c'],1,left,['2'],5,232,[0.15320805],95,53,easy,minus,dotcolour,alfa,,,120,19,V,R,
659,29,29,15,5,33,47,1300,['n'],1,right,['2'],5,180,[-0.0798028],84,47,medium,minus,dotcolour,alfa,,,120,19,V,R,
660,30,30,15,5,47,33,718,['c'],1,left,['2'],5,185,[0.10204445],89,47,medium,minus,dotcolour,alfa,,,120,19,V,R,
661,31,31,15,5,36,44,767,['c'],0,right,['2'],5,204,[-0.02540725],38,44,hard,minus,dotcolour,alfa,,,120,19,V,R,
662,32,32,15,5,53,27,949,['c'],1,left,['2'],5,168,[0.0952642],89,53,easy,minus,dotcolour,alfa,,,120,19,V,R,
663,33,33,15,5,44,36,916,['c'],1,left,['2'],5,150,[0.13405767],96,44,hard,minus,dotcolour,alfa,,,120,19,V,R,
664,34,34,15,5,44,36,818,['c'],1,left,['2'],5,169,[0.10225752],90,44,hard,minus,dotcolour,alfa,,,120,19,V,R,
665,35,35,15,5,44,36,600,['c'],1,left,['2'],5,139,[0.02732567],66,44,hard,minus,dotcolour,alfa,,,120,19,V,R,
666,36,36,15,5,36,44,700,['c'],0,right,['2'],5,163,[0.07849526],85,44,hard,minus,dotcolour,alfa,,,120,19,V,R,
667,37,37,15,5,36,44,1250,['n'],1,right,['2'],5,331,[-0.06524265],74,44,hard,minus,dotcolour,alfa,,,120,19,V,R,
668,38,38,15,5,47,33,617,['c'],1,left,['2'],5,159,[0.11212691],93,47,medium,minus,dotcolour,alfa,,,120,19,V,R,
669,39,39,15,5,36,44,766,['n'],1,right,['2'],5,187,[-0.08893712],86,44,hard,minus,dotcolour,alfa,,,120,19,V,R,
670,40,40,15,5,27,53,866,['n'],1,right,['2'],5,298,[-0.17432687],95,53,easy,minus,dotcolour,alfa,,,120,19,V,R,
671,41,41,15,5,27,53,717,['n'],1,right,['2'],5,147,[-0.16217771],98,53,easy,minus,dotcolour,alfa,,,120,19,V,R,
672,42,0,16,5,36,44,534,['n'],1,right,['2'],5,157,[-0.05891503],79,44,hard,minus,dotcolour,alfa,,,120,19,V,R,
673,43,1,16,5,36,44,534,['n'],1,right,['2'],5,194,[-0.17898405],97,44,hard,minus,dotcolour,alfa,,,120,19,V,R,
674,44,2,16,5,33,47,467,['n'],1,right,['2'],5,145,[-0.03379061],69,47,medium,minus,dotcolour,alfa,,,120,19,V,R,
675,45,3,16,5,44,36,683,['c'],1,left,['2'],5,152,[0.13416909],96,44,hard,minus,dotcolour,alfa,,,120,19,V,R,
676,46,4,16,5,27,53,817,['n'],1,right,['2'],5,187,[-0.09023743],87,53,easy,minus,dotcolour,alfa,,,120,19,V,R,
677,47,5,16,5,44,36,800,['c'],1,left,['2'],5,158,[0.0832914],87,44,hard,minus,dotcolour,alfa,,,120,19,V,R,
678,48,6,16,5,53,27,400,['n'],0,left,['2'],5,384,[-0.04593674],66,53,easy,minus,dotcolour,alfa,,,120,19,V,R,
679,49,7,16,5,36,44,816,['n'],1,right,['2'],5,153,[-0.11310166],93,44,hard,minus,dotcolour,alfa,,,120,19,V,R,
680,50,8,16,5,44,36,800,['c'],1,left,['2'],5,133,[0.11808969],95,44,hard,minus,dotcolour,alfa,,,120,19,V,R,
681,51,9,16,5,27,53,550,['n'],1,right,['2'],5,211,[-0.14317224],94,53,easy,minus,dotcolour,alfa,,,120,19,V,R,
682,52,10,16,5,33,47,583,['n'],1,right,['2'],5,124,[-0.06997372],86,47,medium,minus,dotcolour,alfa,,,120,19,V,R,
683,53,11,16,5,27,53,551,['n'],1,right,['2'],5,154,[-0.14806125],97,53,easy,minus,dotcolour,alfa,,,120,19,V,R,
684,54,12,16,5,53,27,734,['c'],1,left,['2'],5,152,[0.07734917],86,53,easy,minus,dotcolour,alfa,,,120,19,V,R,
685,55,13,16,5,27,53,933,['n'],1,right,['1'],6,135,[-0.13383257],96,53,easy,minus,dotcolour,alfa,,,120,19,V,R,
686,56,14,16,5,47,33,684,['n'],0,left,['9'],2,1023,[0.15662348],20,47,medium,minus,dotcolour,alfa,,,120,19,V,R,
687,57,15,16,5,27,53,700,['c'],0,right,['2'],5,123,[0.097961],93,53,easy,minus,dotcolour,alfa,,,120,19,V,R,
688,58,16,16,5,27,53,684,['n'],1,right,['2'],5,164,[-0.09574373],89,53,easy,minus,dotcolour,alfa,,,120,19,V,R,
689,59,17,16,5,47,33,700,['c'],1,left,['2'],5,147,[0.07265408],85,47,medium,minus,dotcolour,alfa,,,120,19,V,R,
690,60,18,16,5,47,33,784,['c'],1,left,['2'],5,183,[0.12043287],93,47,medium,minus,dotcolour,alfa,,,120,19,V,R,
691,61,19,16,5,47,33,866,['c'],1,left,['1'],6,254,[0.13331351],92,47,medium,minus,dotcolour,alfa,,,120,19,V,R,
692,62,20,16,5,33,47,584,['n'],1,right,['1'],6,214,[-0.01536605],57,47,medium,minus,dotcolour,alfa,,,120,19,V,R,
693,63,21,16,5,36,44,583,['n'],1,right,['2'],5,208,[-0.15264916],95,44,hard,minus,dotcolour,alfa,,,120,19,V,R,
694,64,22,16,5,53,27,467,['n'],0,left,['2'],5,494,[-0.13471825],85,53,easy,minus,dotcolour,alfa,,,120,19,V,R,
695,65,23,16,5,44,36,651,['c'],1,left,['8'],3,1369,[0.22139577],85,44,hard,minus,dotcolour,alfa,,,120,19,V,R,
696,66,24,16,5,33,47,784,['n'],1,right,['2'],5,156,[-0.03604849],69,47,medium,minus,dotcolour,alfa,,,120,19,V,R,
697,67,25,16,5,47,33,634,['n'],0,left,['1'],6,238,[0.00713672],47,47,medium,minus,dotcolour,alfa,,,120,19,V,R,
698,68,26,16,5,33,47,516,['n'],1,right,['8'],3,1626,[-0.16583402],76,47,medium,minus,dotcolour,alfa,,,120,19,V,R,
699,69,27,16,5,53,27,767,['n'],0,left,['8'],3,971,[0.16850136],18,53,easy,minus,dotcolour,alfa,,,120,19,V,R,
700,70,28,16,5,27,53,668,['n'],1,right,['2'],5,762,[-0.17970038],86,53,easy,minus,dotcolour,alfa,,,120,19,V,R,
701,71,29,16,5,36,44,600,['n'],1,right,['2'],5,213,[-0.07863123],82,44,hard,minus,dotcolour,alfa,,,120,19,V,R,
702,72,30,16,5,36,44,451,['n'],1,right,['2'],5,139,[-0.09423526],91,44,hard,minus,dotcolour,alfa,,,120,19,V,R,
703,73,31,16,5,47,33,400,['n'],0,left,['2'],5,159,[-0.12132349],94,47,medium,minus,dotcolour,alfa,,,120,19,V,R,
704,74,32,16,5,44,36,516,['n'],0,left,['2'],5,221,[-0.0074164],54,44,hard,minus,dotcolour,alfa,,,120,19,V,R,
705,75,33,16,5,53,27,900,['c'],1,left,['2'],5,218,[0.1197282],91,53,easy,minus,dotcolour,alfa,,,120,19,V,R,
706,76,34,16,5,33,47,700,['n'],1,right,['2'],5,174,[-0.08028051],85,47,medium,minus,dotcolour,alfa,,,120,19,V,R,
707,77,35,16,5,53,27,667,['c'],1,left,['2'],5,229,[0.15311296],95,53,easy,minus,dotcolour,alfa,,,120,19,V,R,
708,78,36,16,5,36,44,817,['n'],1,right,['2'],5,173,[-0.06423775],80,44,hard,minus,dotcolour,alfa,,,120,19,V,R,
709,79,37,16,5,33,47,617,['n'],1,right,['2'],5,151,[-0.19451712],99,47,medium,minus,dotcolour,alfa,,,120,19,V,R,
710,80,38,16,5,44,36,817,['c'],1,left,['2'],5,137,[0.13585622],96,44,hard,minus,dotcolour,alfa,,,120,19,V,R,
711,81,39,16,5,47,33,766,['n'],0,left,['2'],5,127,[-0.08049997],88,47,medium,minus,dotcolour,alfa,,,120,19,V,R,
712,82,40,16,5,44,36,1183,['c'],1,left,['3'],4,243,[0.09430268],85,44,hard,minus,dotcolour,alfa,,,120,19,V,R,
713,83,41,16,5,53,27,600,['c'],1,left,['2'],5,291,[0.10317103],85,53,easy,minus,dotcolour,alfa,,,120,19,V,R,
714,84,0,17,5,36,44,1050,['n'],1,right,['2'],5,864,[-0.10605176],74,44,hard,minus,dotcolour,alfa,,,120,19,V,R,
715,85,1,17,5,47,33,600,['c'],1,left,['2'],5,351,[0.08259396],78,47,medium,minus,dotcolour,alfa,,,120,19,V,R,
716,86,2,17,5,53,27,1584,['c'],1,left,['2'],5,331,[0.09580758],82,53,easy,minus,dotcolour,alfa,,,120,19,V,R,
717,87,3,17,5,27,53,650,['n'],1,right,['2'],5,358,[-0.15452981],91,53,easy,minus,dotcolour,alfa,,,120,19,V,R,
718,88,4,17,5,33,47,633,['n'],1,right,['2'],5,166,[-0.09684353],89,47,medium,minus,dotcolour,alfa,,,120,19,V,R,
719,89,5,17,5,44,36,567,['n'],0,left,['2'],5,299,[-0.11565585],87,44,hard,minus,dotcolour,alfa,,,120,19,V,R,
720,90,6,17,5,53,27,784,['c'],1,left,['1'],6,417,[0.1013157],80,53,easy,minus,dotcolour,alfa,,,120,19,V,R,
721,91,7,17,5,27,53,599,['n'],1,right,['2'],5,410,[-0.09442684],79,53,easy,minus,dotcolour,alfa,,,120,19,V,R,
722,92,8,17,5,47,33,834,['c'],1,left,['2'],5,305,[0.03268444],63,47,medium,minus,dotcolour,alfa,,,120,19,V,R,
723,93,9,17,5,44,36,733,['n'],0,left,['2'],5,256,[-0.05202742],72,44,hard,minus,dotcolour,alfa,,,120,19,V,R,
724,94,10,17,5,33,47,649,['n'],1,right,['2'],5,205,[-0.08793859],85,47,medium,minus,dotcolour,alfa,,,120,19,V,R,
725,95,11,17,5,53,27,751,['c'],1,left,['2'],5,241,[0.05141691],72,53,easy,minus,dotcolour,alfa,,,120,19,V,R,
726,96,12,17,5,27,53,616,['n'],1,right,['2'],5,640,[-0.2157069],92,53,easy,minus,dotcolour,alfa,,,120,19,V,R,
727,97,13,17,5,44,36,850,['c'],1,left,['2'],5,756,[-0.09183978],28,44,hard,minus,dotcolour,alfa,,,120,19,V,R,
728,98,14,17,5,44,36,801,['n'],0,left,['2'],5,487,[-0.08131288],74,44,hard,minus,dotcolour,alfa,,,120,19,V,R,
729,99,15,17,5,36,44,617,['n'],1,right,['2'],5,252,[-0.16573862],95,44,hard,minus,dotcolour,alfa,,,120,19,V,R,
730,100,16,17,5,33,47,534,['n'],1,right,['2'],5,230,[-0.1375531],93,47,medium,minus,dotcolour,alfa,,,120,19,V,R,
731,101,17,17,5,53,27,884,['c'],1,left,['2'],5,218,[0.0377436],67,53,easy,minus,dotcolour,alfa,,,120,19,V,R,
732,102,18,17,5,47,33,517,['n'],0,left,['2'],5,286,[-0.04773026],69,47,medium,minus,dotcolour,alfa,,,120,19,V,R,
733,103,19,17,5,33,47,616,['n'],1,right,['2'],5,220,[-0.02511856],62,47,medium,minus,dotcolour,alfa,,,120,19,V,R,
734,104,20,17,5,47,33,800,['c'],1,left,['2'],5,253,[-0.03305608],36,47,medium,minus,dotcolour,alfa,,,120,19,V,R,
735,105,21,17,5,36,44,734,['n'],1,right,['2'],5,238,[-0.14475371],94,44,hard,minus,dotcolour,alfa,,,120,19,V,R,
736,106,22,17,5,44,36,950,['n'],0,left,['2'],5,209,[-0.04357031],70,44,hard,minus,dotcolour,alfa,,,120,19,V,R,
737,107,23,17,5,47,33,800,['c'],1,left,['2'],5,337,[0.2006662],96,47,medium,minus,dotcolour,alfa,,,120,19,V,R,
738,108,24,17,5,53,27,883,['c'],1,left,['2'],5,394,[0.22363338],96,53,easy,minus,dotcolour,alfa,,,120,19,V,R,
739,109,25,17,5,53,27,500,['c'],1,left,['2'],5,247,[0.16205024],95,53,easy,minus,dotcolour,alfa,,,120,19,V,R,
740,110,26,17,5,36,44,667,['n'],1,right,['2'],5,260,[-0.14612606],93,44,hard,minus,dotcolour,alfa,,,120,19,V,R,
741,111,27,17,5,44,36,502,['n'],0,left,['2'],5,230,[-0.10321837],87,44,hard,minus,dotcolour,alfa,,,120,19,V,R,
742,112,28,17,5,47,33,600,['n'],0,left,['2'],5,359,[-0.04680671],67,47,medium,minus,dotcolour,alfa,,,120,19,V,R,
743,113,29,17,5,36,44,717,['n'],1,right,['2'],5,269,[-0.22296947],98,44,hard,minus,dotcolour,alfa,,,120,19,V,R,
744,114,30,17,5,53,27,884,['c'],1,left,['2'],5,216,[0.10983746],89,53,easy,minus,dotcolour,alfa,,,120,19,V,R,
745,115,31,17,5,33,47,567,['n'],1,right,['2'],5,170,[-0.09705948],89,47,medium,minus,dotcolour,alfa,,,120,19,V,R,
746,116,32,17,5,47,33,533,['n'],0,left,['2'],5,175,[-0.07479167],83,47,medium,minus,dotcolour,alfa,,,120,19,V,R,
747,117,33,17,5,36,44,583,['n'],1,right,['2'],5,250,[-0.15413735],94,44,hard,minus,dotcolour,alfa,,,120,19,V,R,
748,118,34,17,5,27,53,351,['n'],1,right,['2'],5,171,[-0.07281621],83,53,easy,minus,dotcolour,alfa,,,120,19,V,R,
749,119,35,17,5,33,47,1017,['n'],1,right,['2'],5,262,[-0.0994482],85,47,medium,minus,dotcolour,alfa,,,120,19,V,R,
750,120,36,17,5,27,53,500,['n'],1,right,['2'],5,144,[-0.08325512],88,53,easy,minus,dotcolour,alfa,,,120,19,V,R,
751,121,37,17,5,27,53,533,['n'],1,right,['2'],5,174,[-0.04582411],73,53,easy,minus,dotcolour,alfa,,,120,19,V,R,
752,122,38,17,5,36,44,500,['n'],1,right,['1'],6,348,[-0.09937757],82,44,hard,minus,dotcolour,alfa,,,120,19,V,R,
753,123,39,17,5,33,47,433,['n'],1,right,['1'],6,262,[-0.07300561],78,47,medium,minus,dotcolour,alfa,,,120,19,V,R,
754,124,40,17,5,27,53,417,['n'],1,right,['1'],6,204,[-0.06963038],80,53,easy,minus,dotcolour,alfa,,,120,19,V,R,
755,125,41,17,5,44,36,418,['n'],0,left,['1'],6,277,[-0.0377507],66,44,hard,minus,dotcolour,alfa,,,120,19,V,R,
,,,,,,,,,,,,,,,,,,,,,1,       ,120,19,V,R,
,,,,,,,,,,,,,,,,,,,,,2,['g'],120,19,V,R,
,,,,,,,,,,,,,,,,,,,,,3,['f'],120,19,V,R,
,,,,,,,,,,,,,,,,,,,,,5,['5'],120,19,V,R,
