trial,withinphasetrial,withinblocktrial,block,phase,dotsLeft,dotsRight,rt,resp,cor,cresp,conf_press,cj,RTconf,ev,fb,diff,difflevel,condition,task,manip,questionID,questionResp,sub,age,gender,handedness,
0,0,0,0,0,27,53,1517,['n'],1,right,['1'],6,1975,[-0.24181942],92,53,easy,minus,dotcolour,beta,,,37,18,M,R,
1,1,1,0,0,47,33,2383,['c'],1,left,['2'],5,1648,[0.13406219],75,47,medium,minus,dotcolour,beta,,,37,18,M,R,
2,2,2,0,0,44,36,2017,['n'],0,left,['8'],3,2094,[0.02862934],26,44,hard,minus,dotcolour,beta,,,37,18,M,R,
3,3,3,0,0,47,33,1432,['c'],1,left,['2'],5,1010,[0.10248452],70,47,medium,minus,dotcolour,beta,,,37,18,M,R,
4,4,4,0,0,33,47,1267,['n'],1,right,['2'],5,1240,[-0.28278844],98,47,medium,minus,dotcolour,beta,,,37,18,M,R,
5,5,5,0,0,36,44,2267,['n'],1,right,['3'],4,1820,[-0.13935046],75,44,hard,minus,dotcolour,beta,,,37,18,M,R,
6,6,6,0,0,36,44,1050,['n'],1,right,['2'],5,626,[-0.18905461],95,44,hard,minus,dotcolour,beta,,,37,18,M,R,
7,7,7,0,0,27,53,1017,['n'],1,right,['2'],5,602,[-0.20330913],97,53,easy,minus,dotcolour,beta,,,37,18,M,R,
8,8,8,0,0,44,36,2250,['n'],0,left,['8'],3,1841,[0.01968997],27,44,hard,minus,dotcolour,beta,,,37,18,M,R,
9,9,9,0,0,53,27,1350,['n'],0,left,['3'],4,755,[0.04935486],10,53,easy,minus,dotcolour,beta,,,37,18,M,R,
10,10,10,0,0,47,33,2217,['c'],1,left,['8'],3,444,[0.14261115],91,47,medium,minus,dotcolour,beta,,,37,18,M,R,
11,11,11,0,0,33,47,883,['n'],1,right,['1'],6,705,[-0.22664464],98,47,medium,minus,dotcolour,beta,,,37,18,M,R,
12,12,12,0,0,44,36,1050,['n'],0,left,['2'],5,571,[0.13249405],1,44,hard,minus,dotcolour,beta,,,37,18,M,R,
13,13,13,0,0,53,27,1749,['c'],1,left,['8'],3,551,[0.25756101],99,53,easy,minus,dotcolour,beta,,,37,18,M,R,
14,14,14,0,0,53,27,2434,['c'],1,left,['8'],3,905,[0.22562696],96,53,easy,minus,dotcolour,beta,,,37,18,M,R,
15,15,15,0,0,47,33,2016,['n'],0,left,['3'],4,646,[-0.12408585],82,47,medium,minus,dotcolour,beta,,,37,18,M,R,
16,16,16,0,0,33,47,1000,['n'],1,right,['3'],4,469,[-0.09273565],73,47,medium,minus,dotcolour,beta,,,37,18,M,R,
17,17,17,0,0,53,27,917,['c'],1,left,['8'],3,911,[0.12937407],80,53,easy,minus,dotcolour,beta,,,37,18,M,R,
18,18,18,0,0,47,33,1849,['c'],1,left,['3'],4,513,[0.23343228],99,47,medium,minus,dotcolour,beta,,,37,18,M,R,
19,19,19,0,0,44,36,1516,['n'],0,left,['2'],5,745,[-0.031924],38,44,hard,minus,dotcolour,beta,,,37,18,M,R,
20,20,20,0,0,53,27,1084,['c'],1,left,['2'],5,833,[0.08140453],62,53,easy,minus,dotcolour,beta,,,37,18,M,R,
21,21,21,0,0,36,44,900,['n'],1,right,['1'],6,381,[-0.15683039],95,44,hard,minus,dotcolour,beta,,,37,18,M,R,
22,22,22,0,0,33,47,884,['n'],1,right,['1'],6,324,[-0.01566759],22,47,medium,minus,dotcolour,beta,,,37,18,M,R,
23,23,23,0,0,27,53,1083,['n'],1,right,['2'],5,476,[-0.11994615],84,53,easy,minus,dotcolour,beta,,,37,18,M,R,
24,24,24,0,0,47,33,1601,['c'],1,left,['2'],5,730,[-0.03312702],13,47,medium,minus,dotcolour,beta,,,37,18,M,R,
25,25,25,0,0,36,44,984,['n'],1,right,['2'],5,999,[-0.1271649],78,44,hard,minus,dotcolour,beta,,,37,18,M,R,
26,26,26,0,0,36,44,967,['n'],1,right,['2'],5,306,[-0.02492506],27,44,hard,minus,dotcolour,beta,,,37,18,M,R,
27,27,27,0,0,53,27,1350,['c'],1,left,['8'],3,785,[0.09140635],67,53,easy,minus,dotcolour,beta,,,37,18,M,R,
28,28,28,0,0,47,33,933,['n'],0,left,['1'],6,716,[-0.06658044],56,47,medium,minus,dotcolour,beta,,,37,18,M,R,
29,29,29,0,0,36,44,950,['n'],1,right,['2'],5,499,[-0.11965098],84,44,hard,minus,dotcolour,beta,,,37,18,M,R,
30,30,30,0,0,27,53,750,['n'],1,right,['1'],6,355,[-0.1571818],96,53,easy,minus,dotcolour,beta,,,37,18,M,R,
31,31,31,0,0,33,47,783,['n'],1,right,['2'],5,398,[-0.145649],93,47,medium,minus,dotcolour,beta,,,37,18,M,R,
32,32,32,0,0,33,47,900,['n'],1,right,['3'],4,747,[-0.1476301],87,47,medium,minus,dotcolour,beta,,,37,18,M,R,
33,33,33,0,0,27,53,950,['n'],1,right,['1'],6,257,[-0.06785689],61,53,easy,minus,dotcolour,beta,,,37,18,M,R,
34,34,34,0,0,36,44,883,['n'],1,right,['1'],6,260,[-0.15805256],97,44,hard,minus,dotcolour,beta,,,37,18,M,R,
35,35,35,0,0,44,36,1567,['n'],0,left,['3'],4,556,[-0.09034172],70,44,hard,minus,dotcolour,beta,,,37,18,M,R,
36,36,36,0,0,53,27,1400,['c'],1,left,['3'],4,1199,[0.15450124],84,53,easy,minus,dotcolour,beta,,,37,18,M,R,
37,37,37,0,0,33,47,784,['n'],1,right,['1'],6,360,[-0.15002442],94,47,medium,minus,dotcolour,beta,,,37,18,M,R,
38,38,38,0,0,44,36,900,['n'],0,left,['3'],4,1143,[-0.12520746],76,44,hard,minus,dotcolour,beta,,,37,18,M,R,
39,39,39,0,0,27,53,835,['n'],1,right,['1'],6,200,[-0.05797466],52,53,easy,minus,dotcolour,beta,,,37,18,M,R,
40,40,40,0,0,44,36,1050,['c'],1,left,['2'],5,840,[0.1805653],92,44,hard,minus,dotcolour,beta,,,37,18,M,R,
41,41,41,0,0,27,53,950,['n'],1,right,['1'],6,297,[-0.09980473],81,53,easy,minus,dotcolour,beta,,,37,18,M,R,
42,42,0,1,0,44,36,1284,['n'],0,left,['3'],4,344,[-0.10651236],83,44,hard,minus,dotcolour,beta,,,37,18,M,R,
43,43,1,1,0,36,44,1683,['n'],1,right,['1'],6,223,[-0.13896205],96,44,hard,minus,dotcolour,beta,,,37,18,M,R,
44,44,2,1,0,53,27,1100,['c'],1,left,['1'],6,244,[0.20576564],100,53,easy,minus,dotcolour,beta,,,37,18,M,R,
45,45,3,1,0,47,33,1500,['c'],1,left,['2'],5,775,[0.13584464],84,47,medium,minus,dotcolour,beta,,,37,18,M,R,
46,46,4,1,0,36,44,867,['n'],1,right,['1'],6,430,[-0.12480526],87,44,hard,minus,dotcolour,beta,,,37,18,M,R,
47,47,5,1,0,47,33,966,['c'],1,left,['1'],6,264,[0.04926034],45,47,medium,minus,dotcolour,beta,,,37,18,M,R,
48,48,6,1,0,27,53,1117,['n'],1,right,['1'],6,714,[-0.01005894],28,53,easy,minus,dotcolour,beta,,,37,18,M,R,
49,49,7,1,0,44,36,2333,['c'],1,left,['8'],3,626,[0.09186658],70,44,hard,minus,dotcolour,beta,,,37,18,M,R,
50,50,8,1,0,33,47,1233,['n'],1,right,['2'],5,416,[-0.17046821],96,47,medium,minus,dotcolour,beta,,,37,18,M,R,
51,51,9,1,0,47,33,1117,['c'],1,left,['2'],5,388,[0.15136912],94,47,medium,minus,dotcolour,beta,,,37,18,M,R,
52,52,10,1,0,27,53,967,['n'],1,right,['1'],6,270,[-0.16641169],98,53,easy,minus,dotcolour,beta,,,37,18,M,R,
53,53,11,1,0,36,44,951,['n'],1,right,['2'],5,487,[-0.10109189],76,44,hard,minus,dotcolour,beta,,,37,18,M,R,
54,54,12,1,0,53,27,917,['c'],1,left,['2'],5,1640,[0.3133934],97,53,easy,minus,dotcolour,beta,,,37,18,M,R,
55,55,13,1,0,53,27,1017,['c'],1,left,['1'],6,246,[0.02587692],25,53,easy,minus,dotcolour,beta,,,37,18,M,R,
56,56,14,1,0,27,53,816,['n'],1,right,['1'],6,285,[-0.11067151],87,53,easy,minus,dotcolour,beta,,,37,18,M,R,
57,57,15,1,0,27,53,999,['n'],1,right,['1'],6,300,[-0.11410693],87,53,easy,minus,dotcolour,beta,,,37,18,M,R,
58,58,16,1,0,33,47,767,['n'],1,right,['1'],6,210,[-0.12528663],94,47,medium,minus,dotcolour,beta,,,37,18,M,R,
59,59,17,1,0,33,47,1833,['n'],1,right,['3'],4,802,[-0.08224233],63,47,medium,minus,dotcolour,beta,,,37,18,M,R,
60,60,18,1,0,53,27,1267,['c'],1,left,['3'],4,319,[0.15937412],96,53,easy,minus,dotcolour,beta,,,37,18,M,R,
61,61,19,1,0,44,36,2700,['n'],0,left,['8'],3,912,[-0.05849941],51,44,hard,minus,dotcolour,beta,,,37,18,M,R,
62,62,20,1,0,47,33,1351,['c'],1,left,['2'],5,367,[0.08539166],71,47,medium,minus,dotcolour,beta,,,37,18,M,R,
63,63,21,1,0,36,44,2200,['n'],1,right,['3'],4,401,[-0.06524081],57,44,hard,minus,dotcolour,beta,,,37,18,M,R,
64,64,22,1,0,44,36,1050,['n'],0,left,['3'],4,289,[-0.1096419],86,44,hard,minus,dotcolour,beta,,,37,18,M,R,
65,65,23,1,0,36,44,1783,['n'],1,right,['3'],4,295,[-0.13614292],94,44,hard,minus,dotcolour,beta,,,37,18,M,R,
66,66,24,1,0,33,47,950,['c'],0,right,['8'],3,1198,[0.06973794],56,47,medium,minus,dotcolour,beta,,,37,18,M,R,
67,67,25,1,0,27,53,783,['n'],1,right,['1'],6,248,[-0.07587312],68,53,easy,minus,dotcolour,beta,,,37,18,M,R,
68,68,26,1,0,44,36,1167,['c'],1,left,['2'],5,897,[0.13931334],83,44,hard,minus,dotcolour,beta,,,37,18,M,R,
69,69,27,1,0,44,36,983,['c'],1,left,['2'],5,303,[-0.00163782],13,44,hard,minus,dotcolour,beta,,,37,18,M,R,
70,70,28,1,0,27,53,950,['n'],1,right,['1'],6,238,[-0.19423572],99,53,easy,minus,dotcolour,beta,,,37,18,M,R,
71,71,29,1,0,47,33,934,['c'],1,left,['1'],6,209,[0.14595375],97,47,medium,minus,dotcolour,beta,,,37,18,M,R,
72,72,30,1,0,47,33,1334,['n'],0,left,['3'],4,652,[-0.02917499],36,47,medium,minus,dotcolour,beta,,,37,18,M,R,
73,73,31,1,0,53,27,1917,['n'],0,left,['8'],3,439,[-0.02160227],28,53,easy,minus,dotcolour,beta,,,37,18,M,R,
74,74,32,1,0,33,47,1066,['n'],1,right,['2'],5,236,[-0.1008417],84,47,medium,minus,dotcolour,beta,,,37,18,M,R,
75,75,33,1,0,53,27,900,['c'],1,left,['1'],6,175,[0.09318345],83,53,easy,minus,dotcolour,beta,,,37,18,M,R,
76,76,34,1,0,27,53,818,['n'],1,right,['1'],6,201,[-0.09163218],81,53,easy,minus,dotcolour,beta,,,37,18,M,R,
77,77,35,1,0,36,44,1283,['n'],1,right,['2'],5,230,[-0.10097324],85,44,hard,minus,dotcolour,beta,,,37,18,M,R,
78,78,36,1,0,33,47,784,['n'],1,right,['1'],6,279,[-0.04448908],41,47,medium,minus,dotcolour,beta,,,37,18,M,R,
79,79,37,1,0,36,44,1233,['n'],1,right,['3'],4,612,[-0.06006268],53,44,hard,minus,dotcolour,beta,,,37,18,M,R,
80,80,38,1,0,44,36,1233,['n'],0,left,['1'],6,379,[-0.03360181],34,44,hard,minus,dotcolour,beta,,,37,18,M,R,
81,81,39,1,0,33,47,1133,['n'],1,right,['2'],5,344,[-0.10453488],82,47,medium,minus,dotcolour,beta,,,37,18,M,R,
82,82,40,1,0,47,33,1183,['c'],1,left,['3'],4,268,[0.07096327],63,47,medium,minus,dotcolour,beta,,,37,18,M,R,
83,83,41,1,0,53,27,716,['c'],1,left,['2'],5,750,[0.10158808],72,53,easy,minus,dotcolour,beta,,,37,18,M,R,
84,84,0,2,0,27,53,1052,['n'],1,right,['1'],6,249,[-0.09155084],79,53,easy,minus,dotcolour,beta,,,37,18,M,R,
85,85,1,2,0,44,36,900,['c'],1,left,['2'],5,556,[0.08833751],69,44,hard,minus,dotcolour,beta,,,37,18,M,R,
86,86,2,2,0,53,27,1232,['c'],1,left,['1'],6,389,[0.16348018],96,53,easy,minus,dotcolour,beta,,,37,18,M,R,
87,87,3,2,0,36,44,1616,['n'],1,right,['3'],4,486,[-0.02723651],32,44,hard,minus,dotcolour,beta,,,37,18,M,R,
88,88,4,2,0,27,53,1083,['n'],1,right,['1'],6,313,[-0.07080299],62,53,easy,minus,dotcolour,beta,,,37,18,M,R,
89,89,5,2,0,27,53,751,['n'],1,right,['1'],6,295,[-0.16980221],98,53,easy,minus,dotcolour,beta,,,37,18,M,R,
90,90,6,2,0,47,33,1250,['c'],1,left,['2'],5,819,[0.21178659],96,47,medium,minus,dotcolour,beta,,,37,18,M,R,
91,91,7,2,0,53,27,1116,['c'],1,left,['1'],6,238,[0.07324154],66,53,easy,minus,dotcolour,beta,,,37,18,M,R,
92,92,8,2,0,36,44,1084,['n'],1,right,['1'],6,290,[-0.09816614],81,44,hard,minus,dotcolour,beta,,,37,18,M,R,
93,93,9,2,0,27,53,984,['n'],1,right,['1'],6,320,[-0.02925812],30,53,easy,minus,dotcolour,beta,,,37,18,M,R,
94,94,10,2,0,27,53,749,['n'],1,right,['1'],6,231,[-0.12760606],94,53,easy,minus,dotcolour,beta,,,37,18,M,R,
95,95,11,2,0,53,27,1083,['c'],1,left,['2'],5,283,[0.22184021],100,53,easy,minus,dotcolour,beta,,,37,18,M,R,
96,96,12,2,0,36,44,833,['n'],1,right,['1'],6,256,[-0.07265025],65,44,hard,minus,dotcolour,beta,,,37,18,M,R,
97,97,13,2,0,33,47,1033,['n'],1,right,['1'],6,254,[-0.05452946],49,47,medium,minus,dotcolour,beta,,,37,18,M,R,
98,98,14,2,0,47,33,1533,['n'],0,left,['2'],5,264,[0.11915354],0,47,medium,minus,dotcolour,beta,,,37,18,M,R,
99,99,15,2,0,44,36,1118,['n'],0,left,['3'],4,794,[-0.0625254],54,44,hard,minus,dotcolour,beta,,,37,18,M,R,
100,100,16,2,0,36,44,1298,['n'],1,right,['1'],6,255,[-0.14172312],96,44,hard,minus,dotcolour,beta,,,37,18,M,R,
101,101,17,2,0,33,47,1067,['n'],1,right,['1'],6,267,[-0.21949941],100,47,medium,minus,dotcolour,beta,,,37,18,M,R,
102,102,18,2,0,47,33,1267,['c'],1,left,['1'],6,335,[0.14079059],93,47,medium,minus,dotcolour,beta,,,37,18,M,R,
103,103,19,2,0,47,33,2649,['c'],1,left,['3'],4,545,[0.07505899],62,47,medium,minus,dotcolour,beta,,,37,18,M,R,
104,104,20,2,0,33,47,1033,['n'],1,right,['1'],6,251,[-0.13339643],94,47,medium,minus,dotcolour,beta,,,37,18,M,R,
105,105,21,2,0,53,27,734,['c'],1,left,['1'],6,173,[0.03804837],32,53,easy,minus,dotcolour,beta,,,37,18,M,R,
106,106,22,2,0,33,47,1084,['n'],1,right,['1'],6,187,[-0.09283929],83,47,medium,minus,dotcolour,beta,,,37,18,M,R,
107,107,23,2,0,27,53,783,['n'],1,right,['1'],6,174,[-0.19646324],100,53,easy,minus,dotcolour,beta,,,37,18,M,R,
108,108,24,2,0,53,27,716,['c'],1,left,['1'],6,172,[0.11695643],93,53,easy,minus,dotcolour,beta,,,37,18,M,R,
109,109,25,2,0,47,33,2567,['n'],0,left,['8'],3,544,[-0.12080675],83,47,medium,minus,dotcolour,beta,,,37,18,M,R,
110,110,26,2,0,53,27,2052,['c'],1,left,['1'],6,473,[0.21471533],98,53,easy,minus,dotcolour,beta,,,37,18,M,R,
111,111,27,2,0,36,44,1033,['n'],1,right,['2'],5,247,[-0.03683824],34,44,hard,minus,dotcolour,beta,,,37,18,M,R,
112,112,28,2,0,53,27,1401,['c'],1,left,['2'],5,573,[0.09923476],74,53,easy,minus,dotcolour,beta,,,37,18,M,R,
113,113,29,2,0,44,36,2750,['n'],0,left,['2'],5,418,[-0.08623588],70,44,hard,minus,dotcolour,beta,,,37,18,M,R,
114,114,30,2,0,33,47,967,['n'],1,right,['1'],6,236,[-0.14537103],97,47,medium,minus,dotcolour,beta,,,37,18,M,R,
115,115,31,2,0,36,44,2234,['n'],1,right,['3'],4,522,[-0.23098885],99,44,hard,minus,dotcolour,beta,,,37,18,M,R,
116,116,32,2,0,44,36,2300,['c'],1,left,['3'],4,394,[0.01441265],24,44,hard,minus,dotcolour,beta,,,37,18,M,R,
117,117,33,2,0,33,47,833,['n'],1,right,['3'],4,354,[-0.21052246],99,47,medium,minus,dotcolour,beta,,,37,18,M,R,
118,118,34,2,0,36,44,1400,['n'],1,right,['3'],4,238,[-0.10807053],87,44,hard,minus,dotcolour,beta,,,37,18,M,R,
119,119,35,2,0,27,53,834,['n'],1,right,['1'],6,236,[-0.16255904],98,53,easy,minus,dotcolour,beta,,,37,18,M,R,
120,120,36,2,0,47,33,1649,['n'],0,left,['3'],4,506,[0.10143689],2,47,medium,minus,dotcolour,beta,,,37,18,M,R,
121,121,37,2,0,44,36,1583,['n'],0,left,['8'],3,743,[0.0216063],17,44,hard,minus,dotcolour,beta,,,37,18,M,R,
122,122,38,2,0,47,33,1484,['c'],1,left,['3'],4,256,[0.1419499],96,47,medium,minus,dotcolour,beta,,,37,18,M,R,
123,123,39,2,0,33,47,2050,['n'],1,right,['2'],5,1044,[-0.2233885],95,47,medium,minus,dotcolour,beta,,,37,18,M,R,
124,124,40,2,0,44,36,1151,['n'],0,left,['2'],5,526,[-0.02886006],34,44,hard,minus,dotcolour,beta,,,37,18,M,R,
125,125,41,2,0,44,36,1333,['c'],1,left,['2'],5,244,[0.07277821],65,44,hard,minus,dotcolour,beta,,,37,18,M,R,
126,0,0,3,1,27,53,1450,['n'],1,right,['2'],5,1275,[-0.12811279],95,53,easy,plus,dotcolour,beta,,,37,18,M,R,
127,1,1,3,1,53,27,984,['c'],1,left,['2'],5,426,[0.20193123],100,53,easy,plus,dotcolour,beta,,,37,18,M,R,
128,2,2,3,1,36,44,967,['n'],1,right,['1'],6,315,[-0.08995169],99,44,hard,plus,dotcolour,beta,,,37,18,M,R,
129,3,3,3,1,27,53,734,['n'],1,right,['1'],6,258,[-0.11549888],100,53,easy,plus,dotcolour,beta,,,37,18,M,R,
130,4,4,3,1,27,53,684,['n'],1,right,['1'],6,262,[-0.16507237],100,53,easy,plus,dotcolour,beta,,,37,18,M,R,
131,5,5,3,1,27,53,633,['n'],1,right,['1'],6,235,[0.01659904],81,53,easy,plus,dotcolour,beta,,,37,18,M,R,
132,6,6,3,1,53,27,1000,['c'],1,left,['1'],6,635,[0.24569617],100,53,easy,plus,dotcolour,beta,,,37,18,M,R,
133,7,7,3,1,36,44,717,['n'],1,right,['1'],6,263,[-0.10616601],100,44,hard,plus,dotcolour,beta,,,37,18,M,R,
134,8,8,3,1,33,47,1634,['n'],1,right,['2'],5,276,[-0.12219109],100,47,medium,plus,dotcolour,beta,,,37,18,M,R,
135,9,9,3,1,47,33,984,['c'],1,left,['1'],6,275,[0.15062186],100,47,medium,plus,dotcolour,beta,,,37,18,M,R,
136,10,10,3,1,44,36,1333,['c'],1,left,['2'],5,371,[0.16047381],100,44,hard,plus,dotcolour,beta,,,37,18,M,R,
137,11,11,3,1,33,47,734,['n'],1,right,['1'],6,288,[-0.09278281],99,47,medium,plus,dotcolour,beta,,,37,18,M,R,
138,12,12,3,1,33,47,750,['n'],1,right,['1'],6,248,[-0.12564147],100,47,medium,plus,dotcolour,beta,,,37,18,M,R,
139,13,13,3,1,27,53,649,['n'],1,right,['2'],5,381,[-0.09560852],99,53,easy,plus,dotcolour,beta,,,37,18,M,R,
140,14,14,3,1,47,33,1015,['c'],1,left,['1'],6,239,[0.13317245],100,47,medium,plus,dotcolour,beta,,,37,18,M,R,
141,15,15,3,1,36,44,683,['n'],1,right,['1'],6,219,[-0.05650638],99,44,hard,plus,dotcolour,beta,,,37,18,M,R,
142,16,16,3,1,44,36,1083,['c'],1,left,['1'],6,232,[0.0493674],98,44,hard,plus,dotcolour,beta,,,37,18,M,R,
143,17,17,3,1,53,27,1117,['c'],1,left,['1'],6,203,[0.04011511],98,53,easy,plus,dotcolour,beta,,,37,18,M,R,
144,18,18,3,1,44,36,1034,['c'],1,left,['1'],6,291,[0.00960752],90,44,hard,plus,dotcolour,beta,,,37,18,M,R,
145,19,19,3,1,36,44,1934,['n'],1,right,['2'],5,475,[-0.08550296],98,44,hard,plus,dotcolour,beta,,,37,18,M,R,
146,20,20,3,1,36,44,734,['n'],1,right,['2'],5,220,[-0.07496848],99,44,hard,plus,dotcolour,beta,,,37,18,M,R,
147,21,21,3,1,53,27,800,['c'],1,left,['1'],6,189,[0.11092356],100,53,easy,plus,dotcolour,beta,,,37,18,M,R,
148,22,22,3,1,36,44,1699,['n'],1,right,['2'],5,211,[-0.05287804],99,44,hard,plus,dotcolour,beta,,,37,18,M,R,
149,23,23,3,1,53,27,1334,['c'],1,left,['2'],5,310,[0.05962384],98,53,easy,plus,dotcolour,beta,,,37,18,M,R,
150,24,24,3,1,36,44,1317,['c'],0,right,['2'],5,174,[0.00863629],94,44,hard,plus,dotcolour,beta,,,37,18,M,R,
151,25,25,3,1,47,33,1233,['c'],1,left,['2'],5,214,[0.12763362],100,47,medium,plus,dotcolour,beta,,,37,18,M,R,
152,26,26,3,1,47,33,1134,['c'],1,left,['1'],6,250,[0.14583884],100,47,medium,plus,dotcolour,beta,,,37,18,M,R,
153,27,27,3,1,47,33,1217,['c'],1,left,['2'],5,329,[0.19064244],100,47,medium,plus,dotcolour,beta,,,37,18,M,R,
154,28,28,3,1,47,33,1435,['c'],1,left,['2'],5,211,[0.10407147],100,47,medium,plus,dotcolour,beta,,,37,18,M,R,
155,29,29,3,1,53,27,917,['c'],1,left,['2'],5,191,[0.12863992],100,53,easy,plus,dotcolour,beta,,,37,18,M,R,
156,30,30,3,1,27,53,1083,['n'],1,right,['2'],5,278,[-0.12914014],100,53,easy,plus,dotcolour,beta,,,37,18,M,R,
157,31,31,3,1,44,36,933,['c'],1,left,['2'],5,174,[0.13809691],100,44,hard,plus,dotcolour,beta,,,37,18,M,R,
158,32,32,3,1,53,27,916,['c'],1,left,['2'],5,195,[0.05849997],99,53,easy,plus,dotcolour,beta,,,37,18,M,R,
159,33,33,3,1,33,47,816,['n'],1,right,['2'],5,180,[-0.1022326],100,47,medium,plus,dotcolour,beta,,,37,18,M,R,
160,34,34,3,1,44,36,1566,['c'],1,left,['2'],5,151,[0.11572728],100,44,hard,plus,dotcolour,beta,,,37,18,M,R,
161,35,35,3,1,33,47,2900,['c'],0,right,['2'],5,246,[-0.01074251],84,47,medium,plus,dotcolour,beta,,,37,18,M,R,
162,36,36,3,1,27,53,850,['n'],1,right,['2'],5,236,[-0.13697004],100,53,easy,plus,dotcolour,beta,,,37,18,M,R,
163,37,37,3,1,33,47,933,['n'],1,right,['1'],6,231,[-0.07620907],99,47,medium,plus,dotcolour,beta,,,37,18,M,R,
164,38,38,3,1,44,36,1100,['c'],1,left,['1'],6,234,[0.06724851],99,44,hard,plus,dotcolour,beta,,,37,18,M,R,
165,39,39,3,1,47,33,1133,['c'],1,left,['1'],6,253,[0.10333618],100,47,medium,plus,dotcolour,beta,,,37,18,M,R,
166,40,40,3,1,44,36,1716,['c'],1,left,['2'],5,328,[0.09746293],99,44,hard,plus,dotcolour,beta,,,37,18,M,R,
167,41,41,3,1,33,47,800,['n'],1,right,['1'],6,180,[-0.06666308],99,47,medium,plus,dotcolour,beta,,,37,18,M,R,
168,42,0,4,1,36,44,1034,['n'],1,right,['1'],6,215,[-0.1555705],100,44,hard,plus,dotcolour,beta,,,37,18,M,R,
169,43,1,4,1,47,33,817,['c'],1,left,['1'],6,247,[0.04854269],98,47,medium,plus,dotcolour,beta,,,37,18,M,R,
170,44,2,4,1,44,36,1167,['c'],1,left,['1'],6,231,[0.10365964],100,44,hard,plus,dotcolour,beta,,,37,18,M,R,
171,45,3,4,1,53,27,950,['c'],1,left,['1'],6,201,[0.04534525],98,53,easy,plus,dotcolour,beta,,,37,18,M,R,
172,46,4,4,1,47,33,1617,['c'],1,left,['1'],6,210,[-0.00999828],86,47,medium,plus,dotcolour,beta,,,37,18,M,R,
173,47,5,4,1,47,33,1334,['c'],1,left,['2'],5,254,[0.13307294],100,47,medium,plus,dotcolour,beta,,,37,18,M,R,
174,48,6,4,1,33,47,2301,['n'],1,right,['2'],5,233,[-0.05055048],98,47,medium,plus,dotcolour,beta,,,37,18,M,R,
175,49,7,4,1,47,33,1033,['c'],1,left,['1'],6,232,[0.12180829],100,47,medium,plus,dotcolour,beta,,,37,18,M,R,
176,50,8,4,1,44,36,984,['c'],1,left,['1'],6,217,[0.02631959],96,44,hard,plus,dotcolour,beta,,,37,18,M,R,
177,51,9,4,1,33,47,784,['n'],1,right,['1'],6,186,[-0.10354229],100,47,medium,plus,dotcolour,beta,,,37,18,M,R,
178,52,10,4,1,53,27,784,['c'],1,left,['1'],6,148,[0.15184229],100,53,easy,plus,dotcolour,beta,,,37,18,M,R,
179,53,11,4,1,44,36,1051,['c'],1,left,['1'],6,222,[0.17370765],100,44,hard,plus,dotcolour,beta,,,37,18,M,R,
180,54,12,4,1,27,53,783,['n'],1,right,['1'],6,207,[-0.08746213],100,53,easy,plus,dotcolour,beta,,,37,18,M,R,
181,55,13,4,1,33,47,917,['c'],0,right,['1'],6,163,[0.02487659],97,47,medium,plus,dotcolour,beta,,,37,18,M,R,
182,56,14,4,1,33,47,1467,['c'],0,right,['2'],5,443,[0.0760881],97,47,medium,plus,dotcolour,beta,,,37,18,M,R,
183,57,15,4,1,27,53,716,['n'],1,right,['1'],6,158,[-0.06553254],100,53,easy,plus,dotcolour,beta,,,37,18,M,R,
184,58,16,4,1,36,44,683,['n'],1,right,['1'],6,205,[-0.07488687],99,44,hard,plus,dotcolour,beta,,,37,18,M,R,
185,59,17,4,1,27,53,617,['n'],1,right,['1'],6,150,[-0.13411012],100,53,easy,plus,dotcolour,beta,,,37,18,M,R,
186,60,18,4,1,44,36,1001,['c'],1,left,['1'],6,169,[0.10942844],100,44,hard,plus,dotcolour,beta,,,37,18,M,R,
187,61,19,4,1,36,44,733,['n'],1,right,['1'],6,206,[-0.05829063],99,44,hard,plus,dotcolour,beta,,,37,18,M,R,
188,62,20,4,1,53,27,817,['c'],1,left,['1'],6,175,[0.11886344],100,53,easy,plus,dotcolour,beta,,,37,18,M,R,
189,63,21,4,1,27,53,1366,['n'],1,right,['1'],6,186,[-0.11179652],100,53,easy,plus,dotcolour,beta,,,37,18,M,R,
190,64,22,4,1,36,44,1699,['c'],0,right,['2'],5,240,[0.06412011],99,44,hard,plus,dotcolour,beta,,,37,18,M,R,
191,65,23,4,1,44,36,1168,['c'],1,left,['2'],5,201,[0.00877327],93,44,hard,plus,dotcolour,beta,,,37,18,M,R,
192,66,24,4,1,47,33,817,['c'],1,left,['2'],5,209,[0.12023972],100,47,medium,plus,dotcolour,beta,,,37,18,M,R,
193,67,25,4,1,53,27,967,['c'],1,left,['1'],6,307,[0.08619105],99,53,easy,plus,dotcolour,beta,,,37,18,M,R,
194,68,26,4,1,44,36,1050,['c'],1,left,['2'],5,174,[0.09301177],100,44,hard,plus,dotcolour,beta,,,37,18,M,R,
195,69,27,4,1,47,33,684,['c'],1,left,['2'],5,205,[0.08051488],100,47,medium,plus,dotcolour,beta,,,37,18,M,R,
196,70,28,4,1,53,27,1034,['c'],1,left,['2'],5,165,[0.08895425],100,53,easy,plus,dotcolour,beta,,,37,18,M,R,
197,71,29,4,1,36,44,800,['n'],1,right,['1'],6,255,[-0.01370517],92,44,hard,plus,dotcolour,beta,,,37,18,M,R,
198,72,30,4,1,53,27,983,['c'],1,left,['1'],6,183,[0.06033827],99,53,easy,plus,dotcolour,beta,,,37,18,M,R,
199,73,31,4,1,36,44,1983,['n'],1,right,['2'],5,322,[-0.16409661],100,44,hard,plus,dotcolour,beta,,,37,18,M,R,
200,74,32,4,1,27,53,1350,['n'],1,right,['2'],5,200,[-0.13964926],100,53,easy,plus,dotcolour,beta,,,37,18,M,R,
201,75,33,4,1,27,53,750,['n'],1,right,['1'],6,259,[-0.12787591],100,53,easy,plus,dotcolour,beta,,,37,18,M,R,
202,76,34,4,1,33,47,934,['n'],1,right,['1'],6,284,[-0.07986642],99,47,medium,plus,dotcolour,beta,,,37,18,M,R,
203,77,35,4,1,33,47,1067,['n'],1,right,['1'],6,248,[-0.10313986],100,47,medium,plus,dotcolour,beta,,,37,18,M,R,
204,78,36,4,1,33,47,1967,['c'],0,right,['2'],5,216,[0.03526324],97,47,medium,plus,dotcolour,beta,,,37,18,M,R,
205,79,37,4,1,53,27,900,['c'],1,left,['2'],5,213,[0.0229154],96,53,easy,plus,dotcolour,beta,,,37,18,M,R,
206,80,38,4,1,44,36,867,['c'],1,left,['2'],5,171,[0.06043417],99,44,hard,plus,dotcolour,beta,,,37,18,M,R,
207,81,39,4,1,27,53,901,['n'],1,right,['1'],6,306,[-0.09929406],99,53,easy,plus,dotcolour,beta,,,37,18,M,R,
208,82,40,4,1,47,33,933,['c'],1,left,['2'],5,233,[0.07867428],99,47,medium,plus,dotcolour,beta,,,37,18,M,R,
209,83,41,4,1,36,44,1466,['n'],1,right,['1'],6,215,[-0.10381973],100,44,hard,plus,dotcolour,beta,,,37,18,M,R,
210,84,0,5,1,53,27,851,['c'],1,left,['1'],6,158,[0.15964717],100,53,easy,plus,dotcolour,beta,,,37,18,M,R,
211,85,1,5,1,27,53,601,['n'],1,right,['1'],6,217,[-0.15852963],100,53,easy,plus,dotcolour,beta,,,37,18,M,R,
212,86,2,5,1,33,47,718,['n'],1,right,['1'],6,158,[-0.02016732],97,47,medium,plus,dotcolour,beta,,,37,18,M,R,
213,87,3,5,1,33,47,700,['c'],0,right,['1'],6,196,[-0.01377341],85,47,medium,plus,dotcolour,beta,,,37,18,M,R,
214,88,4,5,1,47,33,1667,['c'],1,left,['2'],5,218,[0.09638527],100,47,medium,plus,dotcolour,beta,,,37,18,M,R,
215,89,5,5,1,53,27,934,['c'],1,left,['2'],5,174,[0.10886231],100,53,easy,plus,dotcolour,beta,,,37,18,M,R,
216,90,6,5,1,53,27,933,['c'],1,left,['2'],5,187,[0.07162971],100,53,easy,plus,dotcolour,beta,,,37,18,M,R,
217,91,7,5,1,33,47,950,['n'],1,right,['1'],6,223,[-0.0724649],99,47,medium,plus,dotcolour,beta,,,37,18,M,R,
218,92,8,5,1,36,44,800,['n'],1,right,['1'],6,167,[-0.10029806],100,44,hard,plus,dotcolour,beta,,,37,18,M,R,
219,93,9,5,1,27,53,717,['n'],1,right,['1'],6,157,[-0.18095447],100,53,easy,plus,dotcolour,beta,,,37,18,M,R,
220,94,10,5,1,44,36,733,['c'],1,left,['1'],6,122,[-0.00799381],92,44,hard,plus,dotcolour,beta,,,37,18,M,R,
221,95,11,5,1,36,44,1399,['c'],0,right,['2'],5,215,[0.0484454],98,44,hard,plus,dotcolour,beta,,,37,18,M,R,
222,96,12,5,1,44,36,1267,['c'],1,left,['2'],5,198,[0.02021732],96,44,hard,plus,dotcolour,beta,,,37,18,M,R,
223,97,13,5,1,44,36,800,['c'],1,left,['2'],5,174,[0.1229104],100,44,hard,plus,dotcolour,beta,,,37,18,M,R,
224,98,14,5,1,36,44,1334,['c'],0,right,['2'],5,131,[0.0302941],99,44,hard,plus,dotcolour,beta,,,37,18,M,R,
225,99,15,5,1,53,27,1084,['c'],1,left,['1'],6,388,[0.14476461],100,53,easy,plus,dotcolour,beta,,,37,18,M,R,
226,100,16,5,1,44,36,1133,['c'],1,left,['1'],6,224,[0.1397435],100,44,hard,plus,dotcolour,beta,,,37,18,M,R,
227,101,17,5,1,33,47,1016,['n'],1,right,['1'],6,256,[-0.07034814],99,47,medium,plus,dotcolour,beta,,,37,18,M,R,
228,102,18,5,1,27,53,783,['n'],1,right,['1'],6,175,[0.01495552],85,53,easy,plus,dotcolour,beta,,,37,18,M,R,
229,103,19,5,1,47,33,900,['c'],1,left,['2'],5,309,[0.18089929],100,47,medium,plus,dotcolour,beta,,,37,18,M,R,
230,104,20,5,1,27,53,765,['n'],1,right,['1'],6,659,[-0.13403397],99,53,easy,plus,dotcolour,beta,,,37,18,M,R,
231,105,21,5,1,27,53,734,['n'],1,right,['1'],6,268,[-0.0877042],99,53,easy,plus,dotcolour,beta,,,37,18,M,R,
232,106,22,5,1,47,33,667,['c'],1,left,['1'],6,160,[0.1527585],100,47,medium,plus,dotcolour,beta,,,37,18,M,R,
233,107,23,5,1,27,53,1250,['n'],1,right,['2'],5,248,[-0.18814374],100,53,easy,plus,dotcolour,beta,,,37,18,M,R,
234,108,24,5,1,44,36,1717,['c'],1,left,['2'],5,164,[0.10647928],100,44,hard,plus,dotcolour,beta,,,37,18,M,R,
235,109,25,5,1,53,27,900,['c'],1,left,['1'],6,226,[0.09678297],100,53,easy,plus,dotcolour,beta,,,37,18,M,R,
236,110,26,5,1,36,44,2116,['n'],1,right,['2'],5,309,[-0.08052762],99,44,hard,plus,dotcolour,beta,,,37,18,M,R,
237,111,27,5,1,27,53,867,['n'],1,right,['1'],6,216,[-0.06993838],99,53,easy,plus,dotcolour,beta,,,37,18,M,R,
238,112,28,5,1,47,33,884,['c'],1,left,['1'],6,205,[0.08464339],100,47,medium,plus,dotcolour,beta,,,37,18,M,R,
239,113,29,5,1,47,33,984,['c'],1,left,['1'],6,198,[-0.00356367],89,47,medium,plus,dotcolour,beta,,,37,18,M,R,
240,114,30,5,1,33,47,1134,['n'],1,right,['1'],6,331,[-0.06935318],98,47,medium,plus,dotcolour,beta,,,37,18,M,R,
241,115,31,5,1,33,47,1000,['n'],1,right,['1'],6,183,[-0.02373274],97,47,medium,plus,dotcolour,beta,,,37,18,M,R,
242,116,32,5,1,53,27,801,['c'],1,left,['1'],6,201,[0.1750528],100,53,easy,plus,dotcolour,beta,,,37,18,M,R,
243,117,33,5,1,47,33,865,['c'],1,left,['1'],6,223,[0.12108442],100,47,medium,plus,dotcolour,beta,,,37,18,M,R,
244,118,34,5,1,36,44,3150,['c'],0,right,['2'],5,161,[0.02482969],97,44,hard,plus,dotcolour,beta,,,37,18,M,R,
245,119,35,5,1,36,44,817,['n'],1,right,['1'],6,211,[-0.0799776],100,44,hard,plus,dotcolour,beta,,,37,18,M,R,
246,120,36,5,1,44,36,750,['c'],1,left,['1'],6,150,[0.03215713],98,44,hard,plus,dotcolour,beta,,,37,18,M,R,
247,121,37,5,1,36,44,1801,['n'],1,right,['1'],6,161,[-0.11007222],100,44,hard,plus,dotcolour,beta,,,37,18,M,R,
248,122,38,5,1,53,27,749,['c'],1,left,['1'],6,191,[0.20961924],100,53,easy,plus,dotcolour,beta,,,37,18,M,R,
249,123,39,5,1,47,33,2334,['c'],1,left,['2'],5,274,[0.20621297],100,47,medium,plus,dotcolour,beta,,,37,18,M,R,
250,124,40,5,1,44,36,1834,['c'],1,left,['2'],5,303,[0.07897431],99,44,hard,plus,dotcolour,beta,,,37,18,M,R,
251,125,41,5,1,33,47,968,['n'],1,right,['2'],5,637,[-0.17792784],99,47,medium,plus,dotcolour,beta,,,37,18,M,R,
252,0,0,6,2,27,53,2150,['n'],1,right,['1'],6,393,[-0.23063094],99,53,easy,minus,dotcolour,beta,,,37,18,M,R,
253,1,1,6,2,47,33,1184,['c'],1,left,['2'],5,491,[0.21328952],98,47,medium,minus,dotcolour,beta,,,37,18,M,R,
254,2,2,6,2,53,27,917,['c'],1,left,['2'],5,244,[0.14909667],97,53,easy,minus,dotcolour,beta,,,37,18,M,R,
255,3,3,6,2,53,27,900,['c'],1,left,['2'],5,224,[0.06696257],61,53,easy,minus,dotcolour,beta,,,37,18,M,R,
256,4,4,6,2,53,27,916,['c'],1,left,['1'],6,195,[0.14087318],97,53,easy,minus,dotcolour,beta,,,37,18,M,R,
257,5,5,6,2,44,36,1000,['n'],0,left,['1'],6,237,[-0.0194056],21,44,hard,minus,dotcolour,beta,,,37,18,M,R,
258,6,6,6,2,44,36,1433,['n'],0,left,['3'],4,467,[-0.08275643],67,44,hard,minus,dotcolour,beta,,,37,18,M,R,
259,7,7,6,2,44,36,916,['n'],0,left,['1'],6,236,[-0.03816632],34,44,hard,minus,dotcolour,beta,,,37,18,M,R,
260,8,8,6,2,33,47,700,['n'],1,right,['1'],6,177,[-0.05564484],50,47,medium,minus,dotcolour,beta,,,37,18,M,R,
261,9,9,6,2,44,36,1050,['n'],0,left,['1'],6,312,[-0.10730886],84,44,hard,minus,dotcolour,beta,,,37,18,M,R,
262,10,10,6,2,44,36,933,['n'],0,left,['1'],6,176,[-0.05872201],53,44,hard,minus,dotcolour,beta,,,37,18,M,R,
263,11,11,6,2,27,53,951,['n'],1,right,['2'],5,236,[-0.17047231],99,53,easy,minus,dotcolour,beta,,,37,18,M,R,
264,12,12,6,2,33,47,800,['n'],1,right,['2'],5,220,[-0.19179579],99,47,medium,minus,dotcolour,beta,,,37,18,M,R,
265,13,13,6,2,44,36,1351,['c'],1,left,['2'],5,311,[0.14455667],95,44,hard,minus,dotcolour,beta,,,37,18,M,R,
266,14,14,6,2,33,47,1350,['n'],1,right,['2'],5,207,[-0.15188068],98,47,medium,minus,dotcolour,beta,,,37,18,M,R,
267,15,15,6,2,36,44,1100,['n'],1,right,['1'],6,331,[-0.06298259],56,44,hard,minus,dotcolour,beta,,,37,18,M,R,
268,16,16,6,2,33,47,967,['c'],0,right,['1'],6,264,[0.05533597],50,47,medium,minus,dotcolour,beta,,,37,18,M,R,
269,17,17,6,2,27,53,800,['n'],1,right,['1'],6,199,[-0.10819374],89,53,easy,minus,dotcolour,beta,,,37,18,M,R,
270,18,18,6,2,47,33,1333,['n'],0,left,['2'],5,170,[0.02002751],4,47,medium,minus,dotcolour,beta,,,37,18,M,R,
271,19,19,6,2,27,53,717,['n'],1,right,['1'],6,296,[-0.13572395],93,53,easy,minus,dotcolour,beta,,,37,18,M,R,
272,20,20,6,2,27,53,767,['n'],1,right,['1'],6,199,[-0.14117011],97,53,easy,minus,dotcolour,beta,,,37,18,M,R,
273,21,21,6,2,53,27,917,['c'],1,left,['1'],6,220,[0.1546946],98,53,easy,minus,dotcolour,beta,,,37,18,M,R,
274,22,22,6,2,33,47,900,['n'],1,right,['1'],6,169,[-0.05085317],45,47,medium,minus,dotcolour,beta,,,37,18,M,R,
275,23,23,6,2,33,47,1183,['n'],1,right,['3'],4,284,[0.06179302],2,47,medium,minus,dotcolour,beta,,,37,18,M,R,
276,24,24,6,2,36,44,1149,['c'],0,right,['3'],4,428,[0.07876692],65,44,hard,minus,dotcolour,beta,,,37,18,M,R,
277,25,25,6,2,33,47,867,['n'],1,right,['2'],5,305,[-0.09935046],81,47,medium,minus,dotcolour,beta,,,37,18,M,R,
278,26,26,6,2,53,27,1066,['c'],1,left,['1'],6,211,[0.1987172],100,53,easy,minus,dotcolour,beta,,,37,18,M,R,
279,27,27,6,2,36,44,1416,['c'],0,right,['2'],5,195,[0.08027257],73,44,hard,minus,dotcolour,beta,,,37,18,M,R,
280,28,28,6,2,36,44,884,['n'],1,right,['1'],6,161,[-0.07468488],70,44,hard,minus,dotcolour,beta,,,37,18,M,R,
281,29,29,6,2,27,53,850,['n'],1,right,['2'],5,298,[-0.01503459],21,53,easy,minus,dotcolour,beta,,,37,18,M,R,
282,30,30,6,2,36,44,1350,['c'],0,right,['2'],5,417,[0.01894235],26,44,hard,minus,dotcolour,beta,,,37,18,M,R,
283,31,31,6,2,47,33,1000,['c'],1,left,['2'],5,162,[0.03488834],28,47,medium,minus,dotcolour,beta,,,37,18,M,R,
284,32,32,6,2,47,33,1466,['c'],1,left,['2'],5,170,[0.1187296],94,47,medium,minus,dotcolour,beta,,,37,18,M,R,
285,33,33,6,2,36,44,1317,['c'],0,right,['3'],4,600,[0.06975832],58,44,hard,minus,dotcolour,beta,,,37,18,M,R,
286,34,34,6,2,44,36,1000,['c'],1,left,['2'],5,305,[0.20098948],99,44,hard,minus,dotcolour,beta,,,37,18,M,R,
287,35,35,6,2,27,53,766,['n'],1,right,['1'],6,208,[-0.08254915],74,53,easy,minus,dotcolour,beta,,,37,18,M,R,
288,36,36,6,2,47,33,899,['c'],1,left,['2'],5,196,[0.08896779],80,47,medium,minus,dotcolour,beta,,,37,18,M,R,
289,37,37,6,2,36,44,1400,['c'],0,right,['3'],4,238,[0.10454582],86,44,hard,minus,dotcolour,beta,,,37,18,M,R,
290,38,38,6,2,47,33,1000,['c'],1,left,['2'],5,198,[0.10834566],89,47,medium,minus,dotcolour,beta,,,37,18,M,R,
291,39,39,6,2,47,33,901,['c'],1,left,['2'],5,163,[0.09546105],86,47,medium,minus,dotcolour,beta,,,37,18,M,R,
292,40,40,6,2,53,27,733,['c'],1,left,['1'],6,224,[0.08119157],73,53,easy,minus,dotcolour,beta,,,37,18,M,R,
293,41,41,6,2,53,27,683,['c'],1,left,['1'],6,165,[0.17715745],100,53,easy,minus,dotcolour,beta,,,37,18,M,R,
294,42,0,7,2,44,36,2168,['c'],1,left,['3'],4,608,[0.14123417],88,44,hard,minus,dotcolour,beta,,,37,18,M,R,
295,43,1,7,2,47,33,916,['c'],1,left,['2'],5,228,[0.08217154],73,47,medium,minus,dotcolour,beta,,,37,18,M,R,
296,44,2,7,2,47,33,951,['c'],1,left,['1'],6,222,[0.07331729],66,47,medium,minus,dotcolour,beta,,,37,18,M,R,
297,45,3,7,2,53,27,716,['c'],1,left,['2'],5,274,[0.08715169],75,53,easy,minus,dotcolour,beta,,,37,18,M,R,
298,46,4,7,2,33,47,1034,['n'],1,right,['2'],5,270,[-0.10644844],85,47,medium,minus,dotcolour,beta,,,37,18,M,R,
299,47,5,7,2,47,33,918,['c'],1,left,['2'],5,192,[-0.03436705],2,47,medium,minus,dotcolour,beta,,,37,18,M,R,
300,48,6,7,2,27,53,1117,['n'],1,right,['2'],5,253,[-0.08898595],77,53,easy,minus,dotcolour,beta,,,37,18,M,R,
301,49,7,7,2,53,27,849,['c'],1,left,['2'],5,163,[0.13939654],98,53,easy,minus,dotcolour,beta,,,37,18,M,R,
302,50,8,7,2,27,53,1100,['n'],1,right,['2'],5,233,[-0.09403601],81,53,easy,minus,dotcolour,beta,,,37,18,M,R,
303,51,9,7,2,36,44,1916,['c'],0,right,['3'],4,293,[0.04832782],44,44,hard,minus,dotcolour,beta,,,37,18,M,R,
304,52,10,7,2,53,27,949,['c'],1,left,['2'],5,180,[0.11194505],92,53,easy,minus,dotcolour,beta,,,37,18,M,R,
305,53,11,7,2,33,47,1217,['c'],0,right,['2'],5,142,[0.08933497],83,47,medium,minus,dotcolour,beta,,,37,18,M,R,
306,54,12,7,2,36,44,1165,['c'],0,right,['8'],3,1019,[0.04747233],46,44,hard,minus,dotcolour,beta,,,37,18,M,R,
307,55,13,7,2,27,53,1283,['n'],1,right,['2'],5,391,[-0.20509887],99,53,easy,minus,dotcolour,beta,,,37,18,M,R,
308,56,14,7,2,44,36,1034,['c'],1,left,['2'],5,326,[0.04539848],42,44,hard,minus,dotcolour,beta,,,37,18,M,R,
309,57,15,7,2,47,33,1383,['c'],1,left,['2'],5,275,[0.08398103],73,47,medium,minus,dotcolour,beta,,,37,18,M,R,
310,58,16,7,2,36,44,833,['c'],0,right,['8'],3,873,[-0.0482308],12,44,hard,minus,dotcolour,beta,,,37,18,M,R,
311,59,17,7,2,44,36,2816,['c'],1,left,['3'],4,293,[0.01874294],23,44,hard,minus,dotcolour,beta,,,37,18,M,R,
312,60,18,7,2,27,53,899,['n'],1,right,['1'],6,215,[-0.08315441],74,53,easy,minus,dotcolour,beta,,,37,18,M,R,
313,61,19,7,2,27,53,767,['n'],1,right,['2'],5,930,[-0.31325722],99,53,easy,minus,dotcolour,beta,,,37,18,M,R,
314,62,20,7,2,44,36,1116,['c'],1,left,['2'],5,232,[0.05548045],50,44,hard,minus,dotcolour,beta,,,37,18,M,R,
315,63,21,7,2,53,27,884,['c'],1,left,['2'],5,245,[0.11477218],90,53,easy,minus,dotcolour,beta,,,37,18,M,R,
316,64,22,7,2,36,44,967,['n'],1,right,['2'],5,230,[-0.04907351],44,44,hard,minus,dotcolour,beta,,,37,18,M,R,
317,65,23,7,2,27,53,784,['n'],1,right,['2'],5,190,[-0.14272239],97,53,easy,minus,dotcolour,beta,,,37,18,M,R,
318,66,24,7,2,44,36,967,['c'],1,left,['2'],5,209,[0.01357743],16,44,hard,minus,dotcolour,beta,,,37,18,M,R,
319,67,25,7,2,36,44,1034,['n'],1,right,['3'],4,888,[0.00277657],25,44,hard,minus,dotcolour,beta,,,37,18,M,R,
320,68,26,7,2,33,47,1167,['c'],0,right,['3'],4,207,[-0.04908451],2,47,medium,minus,dotcolour,beta,,,37,18,M,R,
321,69,27,7,2,36,44,1500,['c'],0,right,['3'],4,236,[0.09671347],82,44,hard,minus,dotcolour,beta,,,37,18,M,R,
322,70,28,7,2,33,47,734,['n'],1,right,['1'],6,206,[-0.15539802],98,47,medium,minus,dotcolour,beta,,,37,18,M,R,
323,71,29,7,2,44,36,866,['c'],1,left,['2'],5,276,[0.09815327],81,44,hard,minus,dotcolour,beta,,,37,18,M,R,
324,72,30,7,2,47,33,1167,['c'],1,left,['1'],6,220,[0.09835197],84,47,medium,minus,dotcolour,beta,,,37,18,M,R,
325,73,31,7,2,53,27,617,['c'],1,left,['2'],5,348,[0.1918059],98,53,easy,minus,dotcolour,beta,,,37,18,M,R,
326,74,32,7,2,53,27,582,['c'],1,left,['1'],6,144,[0.02078141],16,53,easy,minus,dotcolour,beta,,,37,18,M,R,
327,75,33,7,2,53,27,884,['c'],1,left,['1'],6,208,[0.11406178],91,53,easy,minus,dotcolour,beta,,,37,18,M,R,
328,76,34,7,2,36,44,967,['n'],1,right,['2'],5,306,[-0.14875877],95,44,hard,minus,dotcolour,beta,,,37,18,M,R,
329,77,35,7,2,44,36,850,['c'],1,left,['2'],5,181,[0.13088045],96,44,hard,minus,dotcolour,beta,,,37,18,M,R,
330,78,36,7,2,33,47,733,['n'],1,right,['2'],5,209,[-0.11473232],91,47,medium,minus,dotcolour,beta,,,37,18,M,R,
331,79,37,7,2,33,47,917,['n'],1,right,['2'],5,229,[-0.09054267],79,47,medium,minus,dotcolour,beta,,,37,18,M,R,
332,80,38,7,2,47,33,933,['c'],1,left,['3'],4,208,[0.06632512],60,47,medium,minus,dotcolour,beta,,,37,18,M,R,
333,81,39,7,2,33,47,867,['n'],1,right,['2'],5,222,[-0.10943951],89,47,medium,minus,dotcolour,beta,,,37,18,M,R,
334,82,40,7,2,47,33,851,['c'],1,left,['2'],5,228,[0.07860275],70,47,medium,minus,dotcolour,beta,,,37,18,M,R,
335,83,41,7,2,27,53,899,['n'],1,right,['2'],5,192,[-0.07859478],72,53,easy,minus,dotcolour,beta,,,37,18,M,R,
336,84,0,8,2,47,33,1000,['c'],1,left,['3'],4,240,[0.02652499],26,47,medium,minus,dotcolour,beta,,,37,18,M,R,
337,85,1,8,2,44,36,1285,['c'],1,left,['2'],5,260,[0.10791254],86,44,hard,minus,dotcolour,beta,,,37,18,M,R,
338,86,2,8,2,33,47,717,['n'],1,right,['2'],5,261,[-0.06373083],57,47,medium,minus,dotcolour,beta,,,37,18,M,R,
339,87,3,8,2,53,27,800,['c'],1,left,['2'],5,196,[0.07174962],66,53,easy,minus,dotcolour,beta,,,37,18,M,R,
340,88,4,8,2,47,33,967,['c'],1,left,['3'],4,471,[0.16755964],95,47,medium,minus,dotcolour,beta,,,37,18,M,R,
341,89,5,8,2,27,53,700,['n'],1,right,['1'],6,625,[-0.11023701],78,53,easy,minus,dotcolour,beta,,,37,18,M,R,
342,90,6,8,2,27,53,867,['n'],1,right,['1'],6,214,[-0.17318672],99,53,easy,minus,dotcolour,beta,,,37,18,M,R,
343,91,7,8,2,36,44,934,['n'],1,right,['3'],4,370,[-0.05174542],47,44,hard,minus,dotcolour,beta,,,37,18,M,R,
344,92,8,8,2,44,36,800,['c'],1,left,['3'],4,180,[0.03288644],28,44,hard,minus,dotcolour,beta,,,37,18,M,R,
345,93,9,8,2,27,53,800,['n'],1,right,['2'],5,206,[-0.04614013],41,53,easy,minus,dotcolour,beta,,,37,18,M,R,
346,94,10,8,2,36,44,1050,['n'],1,right,['2'],5,221,[-0.07965596],72,44,hard,minus,dotcolour,beta,,,37,18,M,R,
347,95,11,8,2,47,33,883,['c'],1,left,['3'],4,378,[0.07404093],63,47,medium,minus,dotcolour,beta,,,37,18,M,R,
348,96,12,8,2,53,27,884,['c'],1,left,['3'],4,153,[0.06920115],65,53,easy,minus,dotcolour,beta,,,37,18,M,R,
349,97,13,8,2,36,44,1033,['c'],0,right,['3'],4,171,[0.10483947],90,44,hard,minus,dotcolour,beta,,,37,18,M,R,
350,98,14,8,2,36,44,1550,['n'],1,right,['3'],4,160,[-0.08285912],77,44,hard,minus,dotcolour,beta,,,37,18,M,R,
351,99,15,8,2,36,44,1434,['n'],1,right,['3'],4,217,[-0.07478021],68,44,hard,minus,dotcolour,beta,,,37,18,M,R,
352,100,16,8,2,27,53,766,['n'],1,right,['2'],5,211,[0.01416723],6,53,easy,minus,dotcolour,beta,,,37,18,M,R,
353,101,17,8,2,33,47,1100,['c'],0,right,['3'],4,199,[-0.01513796],5,47,medium,minus,dotcolour,beta,,,37,18,M,R,
354,102,18,8,2,27,53,716,['n'],1,right,['2'],5,245,[-0.14505235],96,53,easy,minus,dotcolour,beta,,,37,18,M,R,
355,103,19,8,2,47,33,984,['c'],1,left,['2'],5,204,[0.05821159],53,47,medium,minus,dotcolour,beta,,,37,18,M,R,
356,104,20,8,2,53,27,717,['c'],1,left,['2'],5,177,[0.1124313],92,53,easy,minus,dotcolour,beta,,,37,18,M,R,
357,105,21,8,2,44,36,2300,['c'],1,left,['3'],4,263,[0.04636911],42,44,hard,minus,dotcolour,beta,,,37,18,M,R,
358,106,22,8,2,33,47,750,['n'],1,right,['1'],6,216,[-0.00089099],11,47,medium,minus,dotcolour,beta,,,37,18,M,R,
359,107,23,8,2,36,44,1050,['n'],1,right,['2'],5,183,[-0.09654015],85,44,hard,minus,dotcolour,beta,,,37,18,M,R,
360,108,24,8,2,53,27,1367,['c'],1,left,['2'],5,170,[0.03306605],27,53,easy,minus,dotcolour,beta,,,37,18,M,R,
361,109,25,8,2,33,47,1201,['n'],1,right,['2'],5,213,[-0.05294465],47,47,medium,minus,dotcolour,beta,,,37,18,M,R,
362,110,26,8,2,33,47,1400,['c'],0,right,['3'],4,549,[0.02095264],30,47,medium,minus,dotcolour,beta,,,37,18,M,R,
363,111,27,8,2,44,36,1283,['n'],0,left,['2'],5,230,[-0.17833181],99,44,hard,minus,dotcolour,beta,,,37,18,M,R,
364,112,28,8,2,53,27,834,['c'],1,left,['2'],5,204,[0.14701499],97,53,easy,minus,dotcolour,beta,,,37,18,M,R,
365,113,29,8,2,27,53,684,['n'],1,right,['1'],6,234,[-0.18430644],99,53,easy,minus,dotcolour,beta,,,37,18,M,R,
366,114,30,8,2,33,47,1483,['n'],1,right,['1'],6,367,[-0.05302558],48,47,medium,minus,dotcolour,beta,,,37,18,M,R,
367,115,31,8,2,27,53,784,['n'],1,right,['1'],6,210,[-0.09880755],85,53,easy,minus,dotcolour,beta,,,37,18,M,R,
368,116,32,8,2,33,47,1817,['c'],0,right,['2'],5,434,[-0.09586349],2,47,medium,minus,dotcolour,beta,,,37,18,M,R,
369,117,33,8,2,47,33,1000,['c'],1,left,['1'],6,274,[0.06152514],55,47,medium,minus,dotcolour,beta,,,37,18,M,R,
370,118,34,8,2,53,27,817,['c'],1,left,['1'],6,223,[0.14453781],97,53,easy,minus,dotcolour,beta,,,37,18,M,R,
371,119,35,8,2,36,44,1016,['n'],1,right,['3'],4,344,[-0.13094404],91,44,hard,minus,dotcolour,beta,,,37,18,M,R,
372,120,36,8,2,53,27,850,['c'],1,left,['3'],4,697,[0.17082197],92,53,easy,minus,dotcolour,beta,,,37,18,M,R,
373,121,37,8,2,47,33,1901,['c'],1,left,['3'],4,169,[0.06719749],62,47,medium,minus,dotcolour,beta,,,37,18,M,R,
374,122,38,8,2,47,33,1083,['c'],1,left,['3'],4,153,[0.07465824],71,47,medium,minus,dotcolour,beta,,,37,18,M,R,
375,123,39,8,2,44,36,750,['c'],1,left,['3'],4,206,[0.09036507],80,44,hard,minus,dotcolour,beta,,,37,18,M,R,
376,124,40,8,2,44,36,2050,['c'],1,left,['3'],4,165,[0.06902153],64,44,hard,minus,dotcolour,beta,,,37,18,M,R,
377,125,41,8,2,44,36,1783,['n'],0,left,['3'],4,225,[0.00464027],9,44,hard,minus,dotcolour,beta,,,37,18,M,R,
378,0,0,9,3,47,33,1766,['c'],1,left,['3'],4,247,[0.09709195],100,47,medium,plus,dotcolour,beta,,,37,18,M,R,
379,1,1,9,3,53,27,816,['c'],1,left,['3'],4,125,[0.06665676],100,53,easy,plus,dotcolour,beta,,,37,18,M,R,
380,2,2,9,3,53,27,801,['c'],1,left,['2'],5,145,[0.0858624],100,53,easy,plus,dotcolour,beta,,,37,18,M,R,
381,3,3,9,3,36,44,667,['n'],1,right,['2'],5,138,[-0.09956267],100,44,hard,plus,dotcolour,beta,,,37,18,M,R,
382,4,4,9,3,44,36,700,['n'],0,left,['2'],5,130,[-0.12292684],100,44,hard,plus,dotcolour,beta,,,37,18,M,R,
383,5,5,9,3,33,47,617,['n'],1,right,['2'],5,85,[-0.06750142],100,47,medium,plus,dotcolour,beta,,,37,18,M,R,
384,6,6,9,3,36,44,700,['n'],1,right,['2'],5,1519,[-0.11648715],92,44,hard,plus,dotcolour,beta,,,37,18,M,R,
385,7,7,9,3,47,33,1317,['c'],1,left,['2'],5,111,[0.05774384],100,47,medium,plus,dotcolour,beta,,,37,18,M,R,
386,8,8,9,3,53,27,834,['c'],1,left,['2'],5,122,[0.06154056],100,53,easy,plus,dotcolour,beta,,,37,18,M,R,
387,9,9,9,3,36,44,1367,['c'],0,right,['1'],6,184,[0.06412923],99,44,hard,plus,dotcolour,beta,,,37,18,M,R,
388,10,10,9,3,33,47,666,['n'],1,right,['1'],6,127,[-0.12223013],100,47,medium,plus,dotcolour,beta,,,37,18,M,R,
389,11,11,9,3,47,33,617,['c'],1,left,['1'],6,99,[0.10076521],100,47,medium,plus,dotcolour,beta,,,37,18,M,R,
390,12,12,9,3,44,36,950,['n'],0,left,['1'],6,106,[-0.10227926],100,44,hard,plus,dotcolour,beta,,,37,18,M,R,
391,13,13,9,3,33,47,700,['n'],1,right,['1'],6,179,[-0.02274156],97,47,medium,plus,dotcolour,beta,,,37,18,M,R,
392,14,14,9,3,36,44,1418,['c'],0,right,['1'],6,141,[0.0467816],99,44,hard,plus,dotcolour,beta,,,37,18,M,R,
393,15,15,9,3,44,36,1449,['c'],1,left,['3'],4,215,[0.04949818],98,44,hard,plus,dotcolour,beta,,,37,18,M,R,
394,16,16,9,3,33,47,1400,['n'],1,right,['1'],6,183,[-0.03574909],98,47,medium,plus,dotcolour,beta,,,37,18,M,R,
395,17,17,9,3,53,27,1000,['c'],1,left,['1'],6,273,[0.14923274],100,53,easy,plus,dotcolour,beta,,,37,18,M,R,
396,18,18,9,3,47,33,1367,['c'],1,left,['3'],4,152,[0.10921656],100,47,medium,plus,dotcolour,beta,,,37,18,M,R,
397,19,19,9,3,44,36,917,['c'],1,left,['1'],6,287,[0.17889161],100,44,hard,plus,dotcolour,beta,,,37,18,M,R,
398,20,20,9,3,53,27,834,['c'],1,left,['1'],6,196,[0.10915199],100,53,easy,plus,dotcolour,beta,,,37,18,M,R,
399,21,21,9,3,27,53,983,['n'],1,right,['1'],6,158,[-0.04702828],99,53,easy,plus,dotcolour,beta,,,37,18,M,R,
400,22,22,9,3,47,33,850,['c'],1,left,['1'],6,151,[0.06583943],100,47,medium,plus,dotcolour,beta,,,37,18,M,R,
401,23,23,9,3,27,53,667,['n'],1,right,['1'],6,135,[-0.05521807],100,53,easy,plus,dotcolour,beta,,,37,18,M,R,
402,24,24,9,3,47,33,867,['c'],1,left,['1'],6,160,[0.11867098],100,47,medium,plus,dotcolour,beta,,,37,18,M,R,
403,25,25,9,3,47,33,783,['c'],1,left,['1'],6,140,[0.11619792],100,47,medium,plus,dotcolour,beta,,,37,18,M,R,
404,26,26,9,3,44,36,1117,['c'],1,left,['1'],6,146,[0.08482436],100,44,hard,plus,dotcolour,beta,,,37,18,M,R,
405,27,27,9,3,33,47,817,['n'],1,right,['1'],6,149,[-0.1036021],100,47,medium,plus,dotcolour,beta,,,37,18,M,R,
406,28,28,9,3,53,27,699,['c'],1,left,['1'],6,100,[0.07222876],100,53,easy,plus,dotcolour,beta,,,37,18,M,R,
407,29,29,9,3,27,53,833,['n'],1,right,['1'],6,144,[-0.10194984],100,53,easy,plus,dotcolour,beta,,,37,18,M,R,
408,30,30,9,3,27,53,683,['n'],1,right,['1'],6,96,[-0.09253894],100,53,easy,plus,dotcolour,beta,,,37,18,M,R,
409,31,31,9,3,44,36,1184,['c'],1,left,['1'],6,78,[0.11132557],100,44,hard,plus,dotcolour,beta,,,37,18,M,R,
410,32,32,9,3,53,27,817,['c'],1,left,['1'],6,92,[0.08603541],100,53,easy,plus,dotcolour,beta,,,37,18,M,R,
411,33,33,9,3,33,47,1117,['n'],1,right,['1'],6,77,[-0.07473491],100,47,medium,plus,dotcolour,beta,,,37,18,M,R,
412,34,34,9,3,27,53,716,['n'],1,right,['1'],6,102,[-0.03081612],99,53,easy,plus,dotcolour,beta,,,37,18,M,R,
413,35,35,9,3,44,36,784,['c'],1,left,['1'],6,76,[0.06224855],100,44,hard,plus,dotcolour,beta,,,37,18,M,R,
414,36,36,9,3,36,44,667,['c'],0,right,['1'],6,71,[0.06461615],100,44,hard,plus,dotcolour,beta,,,37,18,M,R,
415,37,37,9,3,27,53,634,['n'],1,right,['1'],6,61,[-0.07652496],100,53,easy,plus,dotcolour,beta,,,37,18,M,R,
416,38,38,9,3,33,47,617,['n'],1,right,['1'],6,59,[-0.09113532],100,47,medium,plus,dotcolour,beta,,,37,18,M,R,
417,39,39,9,3,36,44,983,['c'],0,right,['1'],6,82,[0.05499136],100,44,hard,plus,dotcolour,beta,,,37,18,M,R,
418,40,40,9,3,27,53,717,['n'],1,right,['1'],6,91,[-0.10425972],100,53,easy,plus,dotcolour,beta,,,37,18,M,R,
419,41,41,9,3,36,44,1000,['c'],0,right,['2'],5,129,[0.02461303],98,44,hard,plus,dotcolour,beta,,,37,18,M,R,
420,42,0,10,3,27,53,801,['n'],1,right,['1'],6,114,[-0.09051321],100,53,easy,plus,dotcolour,beta,,,37,18,M,R,
421,43,1,10,3,47,33,800,['c'],1,left,['1'],6,111,[0.1032748],100,47,medium,plus,dotcolour,beta,,,37,18,M,R,
422,44,2,10,3,27,53,700,['n'],1,right,['1'],6,95,[-0.07921078],100,53,easy,plus,dotcolour,beta,,,37,18,M,R,
423,45,3,10,3,44,36,716,['c'],1,left,['1'],6,72,[0.11173234],100,44,hard,plus,dotcolour,beta,,,37,18,M,R,
424,46,4,10,3,33,47,916,['n'],1,right,['1'],6,162,[-0.08927345],100,47,medium,plus,dotcolour,beta,,,37,18,M,R,
425,47,5,10,3,33,47,900,['n'],1,right,['1'],6,50,[-0.1240548],100,47,medium,plus,dotcolour,beta,,,37,18,M,R,
426,48,6,10,3,44,36,867,['c'],1,left,['1'],6,14,[0.07984333],100,44,hard,plus,dotcolour,beta,,,37,18,M,R,
427,49,7,10,3,36,44,851,['n'],1,right,['1'],6,108,[-0.11842603],100,44,hard,plus,dotcolour,beta,,,37,18,M,R,
428,50,8,10,3,53,27,749,['c'],1,left,['1'],6,107,[0.09466427],100,53,easy,plus,dotcolour,beta,,,37,18,M,R,
429,51,9,10,3,53,27,632,['c'],1,left,['1'],6,79,[0.08855614],100,53,easy,plus,dotcolour,beta,,,37,18,M,R,
430,52,10,10,3,53,27,700,['c'],1,left,['1'],6,73,[0.09438181],100,53,easy,plus,dotcolour,beta,,,37,18,M,R,
431,53,11,10,3,47,33,617,['c'],1,left,['1'],6,78,[0.16406961],100,47,medium,plus,dotcolour,beta,,,37,18,M,R,
432,54,12,10,3,27,53,751,['n'],1,right,['1'],6,150,[-0.07649637],100,53,easy,plus,dotcolour,beta,,,37,18,M,R,
433,55,13,10,3,33,47,834,['n'],1,right,['1'],6,96,[-0.08262962],100,47,medium,plus,dotcolour,beta,,,37,18,M,R,
434,56,14,10,3,33,47,983,['n'],1,right,['1'],6,126,[-0.1027862],100,47,medium,plus,dotcolour,beta,,,37,18,M,R,
435,57,15,10,3,47,33,767,['c'],1,left,['1'],6,19,[0.08610895],100,47,medium,plus,dotcolour,beta,,,37,18,M,R,
436,58,16,10,3,44,36,983,['n'],0,left,['1'],6,108,[-0.1468102],100,44,hard,plus,dotcolour,beta,,,37,18,M,R,
437,59,17,10,3,44,36,1033,['n'],0,left,['1'],6,96,[-0.05045617],100,44,hard,plus,dotcolour,beta,,,37,18,M,R,
438,60,18,10,3,53,27,733,['c'],1,left,['1'],6,87,[0.0684952],100,53,easy,plus,dotcolour,beta,,,37,18,M,R,
439,61,19,10,3,47,33,750,['c'],1,left,['1'],6,88,[0.0484868],100,47,medium,plus,dotcolour,beta,,,37,18,M,R,
440,62,20,10,3,36,44,750,['n'],1,right,['1'],6,176,[-0.14313602],100,44,hard,plus,dotcolour,beta,,,37,18,M,R,
441,63,21,10,3,36,44,933,['n'],1,right,['1'],6,77,[-0.12744741],100,44,hard,plus,dotcolour,beta,,,37,18,M,R,
442,64,22,10,3,53,27,801,['c'],1,left,['1'],6,34,[0.06182862],100,53,easy,plus,dotcolour,beta,,,37,18,M,R,
443,65,23,10,3,27,53,834,['n'],1,right,['1'],6,97,[-0.07234979],100,53,easy,plus,dotcolour,beta,,,37,18,M,R,
444,66,24,10,3,33,47,733,['n'],1,right,['1'],6,89,[-0.09579971],100,47,medium,plus,dotcolour,beta,,,37,18,M,R,
445,67,25,10,3,27,53,600,['n'],1,right,['1'],6,39,[-0.06081747],100,53,easy,plus,dotcolour,beta,,,37,18,M,R,
446,68,26,10,3,47,33,583,['c'],1,left,['1'],6,48,[0.07274135],100,47,medium,plus,dotcolour,beta,,,37,18,M,R,
447,69,27,10,3,36,44,1301,['c'],0,right,['1'],6,83,[0.03568097],100,44,hard,plus,dotcolour,beta,,,37,18,M,R,
448,70,28,10,3,53,27,867,['c'],1,left,['1'],6,54,[0.09332729],100,53,easy,plus,dotcolour,beta,,,37,18,M,R,
449,71,29,10,3,44,36,917,['n'],0,left,['1'],6,65,[-0.04575833],100,44,hard,plus,dotcolour,beta,,,37,18,M,R,
450,72,30,10,3,36,44,1100,['c'],0,right,['1'],6,92,[0.09685186],100,44,hard,plus,dotcolour,beta,,,37,18,M,R,
451,73,31,10,3,53,27,717,['c'],1,left,['1'],6,156,[0.09012699],100,53,easy,plus,dotcolour,beta,,,37,18,M,R,
452,74,32,10,3,44,36,1165,['c'],1,left,['1'],6,96,[0.12336238],100,44,hard,plus,dotcolour,beta,,,37,18,M,R,
453,75,33,10,3,27,53,1184,['c'],0,right,['1'],6,71,[0.05515282],100,53,easy,plus,dotcolour,beta,,,37,18,M,R,
454,76,34,10,3,36,44,899,['c'],0,right,['1'],6,82,[0.03646451],100,44,hard,plus,dotcolour,beta,,,37,18,M,R,
455,77,35,10,3,33,47,1066,['c'],0,right,['1'],6,117,[-0.00468187],94,47,medium,plus,dotcolour,beta,,,37,18,M,R,
456,78,36,10,3,36,44,1451,['c'],0,right,['1'],6,80,[0.02864106],100,44,hard,plus,dotcolour,beta,,,37,18,M,R,
457,79,37,10,3,47,33,817,['c'],1,left,['1'],6,78,[0.05236403],100,47,medium,plus,dotcolour,beta,,,37,18,M,R,
458,80,38,10,3,44,36,1016,['c'],1,left,['2'],5,155,[0.08396946],100,44,hard,plus,dotcolour,beta,,,37,18,M,R,
459,81,39,10,3,27,53,717,['n'],1,right,['1'],6,162,[-0.16835067],100,53,easy,plus,dotcolour,beta,,,37,18,M,R,
460,82,40,10,3,33,47,601,['n'],1,right,['1'],6,52,[-0.04541742],100,47,medium,plus,dotcolour,beta,,,37,18,M,R,
461,83,41,10,3,47,33,517,['c'],1,left,['1'],6,87,[0.02787628],99,47,medium,plus,dotcolour,beta,,,37,18,M,R,
462,84,0,11,3,53,27,851,['c'],1,left,['1'],6,58,[0.10878355],100,53,easy,plus,dotcolour,beta,,,37,18,M,R,
463,85,1,11,3,47,33,717,['c'],1,left,['1'],6,76,[0.04796761],100,47,medium,plus,dotcolour,beta,,,37,18,M,R,
464,86,2,11,3,44,36,684,['c'],1,left,['1'],6,70,[0.11703778],100,44,hard,plus,dotcolour,beta,,,37,18,M,R,
465,87,3,11,3,27,53,683,['n'],1,right,['1'],6,866,[-0.37116685],100,53,easy,plus,dotcolour,beta,,,37,18,M,R,
466,88,4,11,3,53,27,633,['c'],1,left,['1'],6,39,[0.04753881],100,53,easy,plus,dotcolour,beta,,,37,18,M,R,
467,89,5,11,3,36,44,667,['n'],1,right,['1'],6,52,[-0.01694578],100,44,hard,plus,dotcolour,beta,,,37,18,M,R,
468,90,6,11,3,44,36,634,['c'],1,left,['1'],6,10,[0.07727532],100,44,hard,plus,dotcolour,beta,,,37,18,M,R,
469,91,7,11,3,33,47,1115,['n'],1,right,['1'],6,119,[-0.13900798],100,47,medium,plus,dotcolour,beta,,,37,18,M,R,
470,92,8,11,3,36,44,801,['n'],1,right,['1'],6,171,[-0.17854411],100,44,hard,plus,dotcolour,beta,,,37,18,M,R,
471,93,9,11,3,44,36,800,['c'],1,left,['1'],6,46,[0.08379742],100,44,hard,plus,dotcolour,beta,,,37,18,M,R,
472,94,10,11,3,47,33,716,['c'],1,left,['1'],6,40,[0.07108273],100,47,medium,plus,dotcolour,beta,,,37,18,M,R,
473,95,11,11,3,27,53,600,['n'],1,right,['1'],6,65,[-0.06921109],100,53,easy,plus,dotcolour,beta,,,37,18,M,R,
474,96,12,11,3,47,33,550,['c'],1,left,['1'],6,81,[0.07205997],100,47,medium,plus,dotcolour,beta,,,37,18,M,R,
475,97,13,11,3,44,36,1167,['c'],1,left,['1'],6,88,[0.06450462],100,44,hard,plus,dotcolour,beta,,,37,18,M,R,
476,98,14,11,3,36,44,601,['n'],1,right,['1'],6,63,[-0.06172122],100,44,hard,plus,dotcolour,beta,,,37,18,M,R,
477,99,15,11,3,47,33,1167,['c'],1,left,['1'],6,847,[0.12142397],97,47,medium,plus,dotcolour,beta,,,37,18,M,R,
478,100,16,11,3,27,53,668,['n'],1,right,['1'],6,67,[-0.08910402],100,53,easy,plus,dotcolour,beta,,,37,18,M,R,
479,101,17,11,3,53,27,534,['c'],1,left,['1'],6,77,[0.07415019],100,53,easy,plus,dotcolour,beta,,,37,18,M,R,
480,102,18,11,3,36,44,950,['c'],0,right,['1'],6,21,[0.07391879],100,44,hard,plus,dotcolour,beta,,,37,18,M,R,
481,103,19,11,3,27,53,601,['n'],1,right,['1'],6,61,[-0.07104229],100,53,easy,plus,dotcolour,beta,,,37,18,M,R,
482,104,20,11,3,36,44,933,['c'],0,right,['1'],6,110,[0.0399455],99,44,hard,plus,dotcolour,beta,,,37,18,M,R,
483,105,21,11,3,33,47,617,['n'],1,right,['1'],6,42,[-0.07500353],100,47,medium,plus,dotcolour,beta,,,37,18,M,R,
484,106,22,11,3,44,36,834,['c'],1,left,['1'],6,40,[0.09835352],100,44,hard,plus,dotcolour,beta,,,37,18,M,R,
485,107,23,11,3,33,47,734,['n'],1,right,['1'],6,75,[-0.06500361],100,47,medium,plus,dotcolour,beta,,,37,18,M,R,
486,108,24,11,3,53,27,583,['c'],1,left,['1'],6,98,[0.06316722],100,53,easy,plus,dotcolour,beta,,,37,18,M,R,
487,109,25,11,3,47,33,966,['c'],1,left,['1'],6,48,[0.11641664],100,47,medium,plus,dotcolour,beta,,,37,18,M,R,
488,110,26,11,3,44,36,634,['c'],1,left,['1'],6,62,[0.08710448],100,44,hard,plus,dotcolour,beta,,,37,18,M,R,
489,111,27,11,3,53,27,984,['c'],1,left,['1'],6,94,[0.09558682],100,53,easy,plus,dotcolour,beta,,,37,18,M,R,
490,112,28,11,3,33,47,883,['n'],1,right,['1'],6,31,[-0.04325416],100,47,medium,plus,dotcolour,beta,,,37,18,M,R,
491,113,29,11,3,36,44,600,['c'],0,right,['1'],6,15,[0.08276138],100,44,hard,plus,dotcolour,beta,,,37,18,M,R,
492,114,30,11,3,36,44,1400,['n'],1,right,['1'],6,48,[-0.03360968],100,44,hard,plus,dotcolour,beta,,,37,18,M,R,
493,115,31,11,3,27,53,950,['n'],1,right,['1'],6,161,[-0.11740014],100,53,easy,plus,dotcolour,beta,,,37,18,M,R,
494,116,32,11,3,33,47,966,['n'],1,right,['1'],6,109,[-0.0388093],99,47,medium,plus,dotcolour,beta,,,37,18,M,R,
495,117,33,11,3,27,53,766,['n'],1,right,['1'],6,91,[-0.09347204],100,53,easy,plus,dotcolour,beta,,,37,18,M,R,
496,118,34,11,3,47,33,701,['c'],1,left,['1'],6,77,[0.10158416],100,47,medium,plus,dotcolour,beta,,,37,18,M,R,
497,119,35,11,3,33,47,867,['n'],1,right,['1'],6,64,[-0.08800652],100,47,medium,plus,dotcolour,beta,,,37,18,M,R,
498,120,36,11,3,27,53,699,['n'],1,right,['1'],6,67,[-0.12556533],100,53,easy,plus,dotcolour,beta,,,37,18,M,R,
499,121,37,11,3,44,36,784,['c'],1,left,['1'],6,66,[0.06669396],100,44,hard,plus,dotcolour,beta,,,37,18,M,R,
500,122,38,11,3,47,33,1250,['c'],1,left,['1'],6,55,[0.06143086],100,47,medium,plus,dotcolour,beta,,,37,18,M,R,
501,123,39,11,3,53,27,584,['c'],1,left,['1'],6,87,[0.15633885],100,53,easy,plus,dotcolour,beta,,,37,18,M,R,
502,124,40,11,3,33,47,768,['n'],1,right,['1'],6,118,[-0.1038437],100,47,medium,plus,dotcolour,beta,,,37,18,M,R,
503,125,41,11,3,53,27,817,['n'],0,left,['1'],6,66,[-0.07361895],100,53,easy,plus,dotcolour,beta,,,37,18,M,R,
504,0,0,12,4,27,53,601,['n'],1,right,['1'],6,50,[-0.09975181],97,53,easy,minus,dotcolour,beta,,,37,18,M,R,
505,1,1,12,4,36,44,650,['c'],0,right,['1'],6,64,[0.06999385],74,44,hard,minus,dotcolour,beta,,,37,18,M,R,
506,2,2,12,4,47,33,601,['c'],1,left,['1'],6,78,[0.06829109],69,47,medium,minus,dotcolour,beta,,,37,18,M,R,
507,3,3,12,4,47,33,550,['c'],1,left,['1'],6,86,[0.13851921],99,47,medium,minus,dotcolour,beta,,,37,18,M,R,
508,4,4,12,4,33,47,568,['n'],1,right,['1'],6,46,[-0.08671297],93,47,medium,minus,dotcolour,beta,,,37,18,M,R,
509,5,5,12,4,33,47,717,['n'],1,right,['1'],6,81,[-0.08438056],86,47,medium,minus,dotcolour,beta,,,37,18,M,R,
510,6,6,12,4,44,36,1300,['n'],0,left,['2'],5,251,[-0.02980035],28,44,hard,minus,dotcolour,beta,,,37,18,M,R,
511,7,7,12,4,44,36,834,['n'],0,left,['2'],5,73,[-0.07607607],80,44,hard,minus,dotcolour,beta,,,37,18,M,R,
512,8,8,12,4,36,44,766,['n'],1,right,['2'],5,48,[-0.08215531],90,44,hard,minus,dotcolour,beta,,,37,18,M,R,
513,9,9,12,4,53,27,900,['c'],1,left,['1'],6,44,[0.03162301],11,53,easy,minus,dotcolour,beta,,,37,18,M,R,
514,10,10,12,4,36,44,750,['n'],1,right,['2'],5,181,[-0.11236082],92,44,hard,minus,dotcolour,beta,,,37,18,M,R,
515,11,11,12,4,27,53,616,['n'],1,right,['1'],6,255,[-0.19028224],99,53,easy,minus,dotcolour,beta,,,37,18,M,R,
516,12,12,12,4,44,36,1083,['c'],1,left,['1'],6,82,[0.07996169],82,44,hard,minus,dotcolour,beta,,,37,18,M,R,
517,13,13,12,4,53,27,616,['c'],1,left,['1'],6,48,[0.07359001],81,53,easy,minus,dotcolour,beta,,,37,18,M,R,
518,14,14,12,4,33,47,834,['n'],1,right,['1'],6,62,[-0.08154223],87,47,medium,minus,dotcolour,beta,,,37,18,M,R,
519,15,15,12,4,53,27,749,['c'],1,left,['1'],6,95,[0.08956862],88,53,easy,minus,dotcolour,beta,,,37,18,M,R,
520,16,16,12,4,47,33,733,['c'],1,left,['1'],6,63,[0.08120474],86,47,medium,minus,dotcolour,beta,,,37,18,M,R,
521,17,17,12,4,27,53,816,['n'],1,right,['1'],6,77,[-0.10876365],97,53,easy,minus,dotcolour,beta,,,37,18,M,R,
522,18,18,12,4,36,44,1033,['c'],0,right,['1'],6,74,[0.05392013],47,44,hard,minus,dotcolour,beta,,,37,18,M,R,
523,19,19,12,4,53,27,1150,['c'],1,left,['1'],6,137,[0.09654424],88,53,easy,minus,dotcolour,beta,,,37,18,M,R,
524,20,20,12,4,27,53,701,['n'],1,right,['1'],6,113,[-0.11492182],96,53,easy,minus,dotcolour,beta,,,37,18,M,R,
525,21,21,12,4,27,53,601,['n'],1,right,['1'],6,150,[-0.05978516],55,53,easy,minus,dotcolour,beta,,,37,18,M,R,
526,22,22,12,4,36,44,2117,['c'],0,right,['3'],4,165,[0.10863112],91,44,hard,minus,dotcolour,beta,,,37,18,M,R,
527,23,23,12,4,47,33,1450,['c'],1,left,['3'],4,117,[0.0912548],87,47,medium,minus,dotcolour,beta,,,37,18,M,R,
528,24,24,12,4,27,53,800,['n'],1,right,['1'],6,194,[-0.0833844],76,53,easy,minus,dotcolour,beta,,,37,18,M,R,
529,25,25,12,4,47,33,817,['c'],1,left,['1'],6,155,[0.03909577],32,47,medium,minus,dotcolour,beta,,,37,18,M,R,
530,26,26,12,4,47,33,1534,['c'],1,left,['3'],4,154,[0.0901248],83,47,medium,minus,dotcolour,beta,,,37,18,M,R,
531,27,27,12,4,33,47,882,['n'],1,right,['3'],4,98,[-0.07917729],80,47,medium,minus,dotcolour,beta,,,37,18,M,R,
532,28,28,12,4,44,36,967,['c'],1,left,['2'],5,152,[0.11440365],94,44,hard,minus,dotcolour,beta,,,37,18,M,R,
533,29,29,12,4,33,47,1384,['c'],0,right,['2'],5,172,[0.0053048],10,47,medium,minus,dotcolour,beta,,,37,18,M,R,
534,30,30,12,4,36,44,950,['c'],0,right,['2'],5,153,[0.06138466],57,44,hard,minus,dotcolour,beta,,,37,18,M,R,
535,31,31,12,4,27,53,766,['n'],1,right,['1'],6,141,[-0.1179771],95,53,easy,minus,dotcolour,beta,,,37,18,M,R,
536,32,32,12,4,53,27,666,['c'],1,left,['1'],6,126,[0.15148051],99,53,easy,minus,dotcolour,beta,,,37,18,M,R,
537,33,33,12,4,44,36,699,['c'],1,left,['1'],6,78,[0.07946009],82,44,hard,minus,dotcolour,beta,,,37,18,M,R,
538,34,34,12,4,33,47,566,['n'],1,right,['1'],6,45,[-0.08886129],94,47,medium,minus,dotcolour,beta,,,37,18,M,R,
539,35,35,12,4,44,36,650,['c'],1,left,['1'],6,67,[0.02837156],13,44,hard,minus,dotcolour,beta,,,37,18,M,R,
540,36,36,12,4,36,44,1134,['c'],0,right,['1'],6,68,[0.02519386],11,44,hard,minus,dotcolour,beta,,,37,18,M,R,
541,37,37,12,4,53,27,549,['c'],1,left,['1'],6,108,[0.08510848],83,53,easy,minus,dotcolour,beta,,,37,18,M,R,
542,38,38,12,4,33,47,568,['n'],1,right,['1'],6,98,[-0.11191553],96,47,medium,minus,dotcolour,beta,,,37,18,M,R,
543,39,39,12,4,53,27,866,['c'],1,left,['1'],6,77,[0.10482382],96,53,easy,minus,dotcolour,beta,,,37,18,M,R,
544,40,40,12,4,47,33,617,['c'],1,left,['1'],6,115,[0.10471177],93,47,medium,minus,dotcolour,beta,,,37,18,M,R,
545,41,41,12,4,44,36,900,['c'],1,left,['1'],6,75,[0.05988909],57,44,hard,minus,dotcolour,beta,,,37,18,M,R,
546,42,0,13,4,33,47,918,['n'],1,right,['1'],6,34,[-0.06282806],67,47,medium,minus,dotcolour,beta,,,37,18,M,R,
547,43,1,13,4,36,44,901,['c'],0,right,['1'],6,14,[0.07318105],94,44,hard,minus,dotcolour,beta,,,37,18,M,R,
548,44,2,13,4,36,44,966,['c'],0,right,['1'],6,136,[0.07950909],76,44,hard,minus,dotcolour,beta,,,37,18,M,R,
549,45,3,13,4,27,53,800,['n'],1,right,['2'],5,76,[-0.06909414],71,53,easy,minus,dotcolour,beta,,,37,18,M,R,
550,46,4,13,4,27,53,666,['n'],1,right,['2'],5,103,[-0.07813054],78,53,easy,minus,dotcolour,beta,,,37,18,M,R,
551,47,5,13,4,53,27,599,['c'],1,left,['1'],6,61,[0.05893637],56,53,easy,minus,dotcolour,beta,,,37,18,M,R,
552,48,6,13,4,27,53,583,['n'],1,right,['1'],6,44,[-0.07846027],88,53,easy,minus,dotcolour,beta,,,37,18,M,R,
553,49,7,13,4,47,33,800,['c'],1,left,['1'],6,35,[0.06375155],69,47,medium,minus,dotcolour,beta,,,37,18,M,R,
554,50,8,13,4,53,27,1067,['c'],1,left,['2'],5,65,[0.06585802],67,53,easy,minus,dotcolour,beta,,,37,18,M,R,
555,51,9,13,4,44,36,1017,['c'],1,left,['2'],5,23,[0.0913812],99,44,hard,minus,dotcolour,beta,,,37,18,M,R,
556,52,10,13,4,53,27,734,['c'],1,left,['1'],6,66,[0.10479698],97,53,easy,minus,dotcolour,beta,,,37,18,M,R,
557,53,11,13,4,47,33,849,['c'],1,left,['1'],6,80,[0.10578565],96,47,medium,minus,dotcolour,beta,,,37,18,M,R,
558,54,12,13,4,36,44,1149,['c'],0,right,['1'],6,71,[0.06510196],66,44,hard,minus,dotcolour,beta,,,37,18,M,R,
559,55,13,13,4,44,36,883,['c'],1,left,['2'],5,98,[0.03423981],23,44,hard,minus,dotcolour,beta,,,37,18,M,R,
560,56,14,13,4,36,44,1166,['n'],1,right,['2'],5,114,[-0.0423587],33,44,hard,minus,dotcolour,beta,,,37,18,M,R,
561,57,15,13,4,53,27,600,['c'],1,left,['1'],6,93,[0.08574746],86,53,easy,minus,dotcolour,beta,,,37,18,M,R,
562,58,16,13,4,47,33,1000,['c'],1,left,['2'],5,83,[0.11982581],98,47,medium,minus,dotcolour,beta,,,37,18,M,R,
563,59,17,13,4,44,36,634,['c'],1,left,['2'],5,71,[0.08895097],91,44,hard,minus,dotcolour,beta,,,37,18,M,R,
564,60,18,13,4,27,53,1000,['n'],1,right,['2'],5,94,[-0.08918768],88,53,easy,minus,dotcolour,beta,,,37,18,M,R,
565,61,19,13,4,27,53,600,['n'],1,right,['1'],6,76,[-0.08971749],90,53,easy,minus,dotcolour,beta,,,37,18,M,R,
566,62,20,13,4,33,47,1084,['n'],1,right,['2'],5,103,[-0.0627349],60,47,medium,minus,dotcolour,beta,,,37,18,M,R,
567,63,21,13,4,44,36,634,['c'],1,left,['2'],5,98,[0.1275793],98,44,hard,minus,dotcolour,beta,,,37,18,M,R,
568,64,22,13,4,36,44,849,['n'],1,right,['1'],6,141,[-0.07047741],67,44,hard,minus,dotcolour,beta,,,37,18,M,R,
569,65,23,13,4,27,53,599,['n'],1,right,['1'],6,49,[-0.07697584],85,53,easy,minus,dotcolour,beta,,,37,18,M,R,
570,66,24,13,4,44,36,1016,['c'],1,left,['1'],6,56,[0.05331718],46,44,hard,minus,dotcolour,beta,,,37,18,M,R,
571,67,25,13,4,27,53,649,['n'],1,right,['1'],6,45,[-0.05240653],43,53,easy,minus,dotcolour,beta,,,37,18,M,R,
572,68,26,13,4,36,44,1117,['c'],0,right,['2'],5,120,[0.03794094],29,44,hard,minus,dotcolour,beta,,,37,18,M,R,
573,69,27,13,4,53,27,784,['c'],1,left,['1'],6,109,[0.0706972],70,53,easy,minus,dotcolour,beta,,,37,18,M,R,
574,70,28,13,4,47,33,817,['c'],1,left,['1'],6,201,[0.07215229],66,47,medium,minus,dotcolour,beta,,,37,18,M,R,
575,71,29,13,4,33,47,683,['n'],1,right,['1'],6,88,[-0.0300171],18,47,medium,minus,dotcolour,beta,,,37,18,M,R,
576,72,30,13,4,44,36,766,['c'],1,left,['2'],5,78,[0.1244284],99,44,hard,minus,dotcolour,beta,,,37,18,M,R,
577,73,31,13,4,33,47,551,['n'],1,right,['1'],6,78,[-0.09343898],92,47,medium,minus,dotcolour,beta,,,37,18,M,R,
578,74,32,13,4,36,44,1166,['c'],0,right,['2'],5,118,[0.10060561],91,44,hard,minus,dotcolour,beta,,,37,18,M,R,
579,75,33,13,4,53,27,519,['c'],1,left,['2'],5,54,[0.08717072],92,53,easy,minus,dotcolour,beta,,,37,18,M,R,
580,76,34,13,4,47,33,850,['c'],1,left,['2'],5,92,[0.08121641],82,47,medium,minus,dotcolour,beta,,,37,18,M,R,
581,77,35,13,4,44,36,1450,['c'],1,left,['3'],4,151,[0.09409116],86,44,hard,minus,dotcolour,beta,,,37,18,M,R,
582,78,36,13,4,53,27,967,['c'],1,left,['2'],5,84,[0.11077609],97,53,easy,minus,dotcolour,beta,,,37,18,M,R,
583,79,37,13,4,47,33,1250,['c'],1,left,['2'],5,47,[0.09536808],96,47,medium,minus,dotcolour,beta,,,37,18,M,R,
584,80,38,13,4,33,47,1084,['n'],1,right,['2'],5,35,[-0.09959971],99,47,medium,minus,dotcolour,beta,,,37,18,M,R,
585,81,39,13,4,33,47,1233,['n'],1,right,['2'],5,58,[-0.08647657],91,47,medium,minus,dotcolour,beta,,,37,18,M,R,
586,82,40,13,4,33,47,667,['n'],1,right,['1'],6,110,[-0.10752409],94,47,medium,minus,dotcolour,beta,,,37,18,M,R,
587,83,41,13,4,47,33,633,['c'],1,left,['2'],5,65,[0.06907347],72,47,medium,minus,dotcolour,beta,,,37,18,M,R,
588,84,0,14,4,47,33,1000,['n'],0,left,['2'],5,106,[-0.10126236],93,47,medium,minus,dotcolour,beta,,,37,18,M,R,
589,85,1,14,4,33,47,668,['n'],1,right,['2'],5,68,[-0.09715842],95,47,medium,minus,dotcolour,beta,,,37,18,M,R,
590,86,2,14,4,47,33,800,['c'],1,left,['2'],5,75,[0.03287276],18,47,medium,minus,dotcolour,beta,,,37,18,M,R,
591,87,3,14,4,47,33,1600,['c'],1,left,['2'],5,786,[0.20566872],95,47,medium,minus,dotcolour,beta,,,37,18,M,R,
592,88,4,14,4,33,47,1017,['n'],1,right,['2'],5,106,[-0.05778233],53,47,medium,minus,dotcolour,beta,,,37,18,M,R,
593,89,5,14,4,47,33,617,['c'],1,left,['2'],5,102,[0.06133681],58,47,medium,minus,dotcolour,beta,,,37,18,M,R,
594,90,6,14,4,33,47,616,['n'],1,right,['2'],5,83,[-0.06654627],67,47,medium,minus,dotcolour,beta,,,37,18,M,R,
595,91,7,14,4,27,53,617,['n'],1,right,['2'],5,80,[-0.04984481],41,53,easy,minus,dotcolour,beta,,,37,18,M,R,
596,92,8,14,4,36,44,1334,['c'],0,right,['2'],5,25,[0.07203913],87,44,hard,minus,dotcolour,beta,,,37,18,M,R,
597,93,9,14,4,44,36,800,['c'],1,left,['2'],5,41,[0.06716826],74,44,hard,minus,dotcolour,beta,,,37,18,M,R,
598,94,10,14,4,36,44,567,['n'],1,right,['2'],5,98,[-0.10380691],94,44,hard,minus,dotcolour,beta,,,37,18,M,R,
599,95,11,14,4,27,53,751,['n'],1,right,['1'],6,89,[-0.08742888],87,53,easy,minus,dotcolour,beta,,,37,18,M,R,
600,96,12,14,4,36,44,567,['n'],1,right,['1'],6,56,[-0.09865758],96,44,hard,minus,dotcolour,beta,,,37,18,M,R,
601,97,13,14,4,53,27,566,['c'],1,left,['1'],6,73,[0.04707929],36,53,easy,minus,dotcolour,beta,,,37,18,M,R,
602,98,14,14,4,36,44,833,['c'],0,right,['1'],6,87,[0.09298815],91,44,hard,minus,dotcolour,beta,,,37,18,M,R,
603,99,15,14,4,53,27,634,['c'],1,left,['1'],6,131,[0.07757494],75,53,easy,minus,dotcolour,beta,,,37,18,M,R,
604,100,16,14,4,33,47,917,['n'],1,right,['2'],5,107,[-0.07454981],74,47,medium,minus,dotcolour,beta,,,37,18,M,R,
605,101,17,14,4,44,36,800,['c'],1,left,['2'],5,87,[0.08656433],87,44,hard,minus,dotcolour,beta,,,37,18,M,R,
606,102,18,14,4,27,53,634,['n'],1,right,['2'],5,100,[-0.11871041],97,53,easy,minus,dotcolour,beta,,,37,18,M,R,
607,103,19,14,4,53,27,517,['c'],1,left,['2'],5,100,[0.08297125],83,53,easy,minus,dotcolour,beta,,,37,18,M,R,
608,104,20,14,4,44,36,967,['c'],1,left,['1'],6,180,[0.07451883],69,44,hard,minus,dotcolour,beta,,,37,18,M,R,
609,105,21,14,4,36,44,933,['c'],0,right,['1'],6,80,[0.11732491],98,44,hard,minus,dotcolour,beta,,,37,18,M,R,
610,106,22,14,4,27,53,684,['n'],1,right,['1'],6,90,[-0.08104515],82,53,easy,minus,dotcolour,beta,,,37,18,M,R,
611,107,23,14,4,53,27,949,['c'],1,left,['1'],6,106,[0.09753856],91,53,easy,minus,dotcolour,beta,,,37,18,M,R,
612,108,24,14,4,33,47,1134,['n'],1,right,['2'],5,89,[-0.02881693],17,47,medium,minus,dotcolour,beta,,,37,18,M,R,
613,109,25,14,4,36,44,916,['n'],1,right,['2'],5,123,[-0.094148],88,44,hard,minus,dotcolour,beta,,,37,18,M,R,
614,110,26,14,4,33,47,950,['n'],1,right,['2'],5,113,[-0.04630456],38,47,medium,minus,dotcolour,beta,,,37,18,M,R,
615,111,27,14,4,44,36,650,['c'],1,left,['2'],5,131,[0.07115237],68,44,hard,minus,dotcolour,beta,,,37,18,M,R,
616,112,28,14,4,47,33,1067,['c'],1,left,['2'],5,213,[0.16978039],99,47,medium,minus,dotcolour,beta,,,37,18,M,R,
617,113,29,14,4,53,27,633,['c'],1,left,['2'],5,69,[0.10601109],97,53,easy,minus,dotcolour,beta,,,37,18,M,R,
618,114,30,14,4,36,44,618,['n'],1,right,['2'],5,50,[-0.0871514],93,44,hard,minus,dotcolour,beta,,,37,18,M,R,
619,115,31,14,4,44,36,867,['c'],1,left,['2'],5,55,[0.07917235],86,44,hard,minus,dotcolour,beta,,,37,18,M,R,
620,116,32,14,4,33,47,749,['n'],1,right,['2'],5,48,[-0.07599763],84,47,medium,minus,dotcolour,beta,,,37,18,M,R,
621,117,33,14,4,47,33,766,['c'],1,left,['2'],5,25,[0.06458784],74,47,medium,minus,dotcolour,beta,,,37,18,M,R,
622,118,34,14,4,27,53,784,['n'],1,right,['2'],5,42,[-0.08044467],90,53,easy,minus,dotcolour,beta,,,37,18,M,R,
623,119,35,14,4,44,36,933,['c'],1,left,['2'],5,35,[0.05018628],37,44,hard,minus,dotcolour,beta,,,37,18,M,R,
624,120,36,14,4,44,36,650,['c'],1,left,['2'],5,97,[0.06194525],59,44,hard,minus,dotcolour,beta,,,37,18,M,R,
625,121,37,14,4,53,27,683,['c'],1,left,['2'],5,35,[0.05715764],54,53,easy,minus,dotcolour,beta,,,37,18,M,R,
626,122,38,14,4,53,27,717,['c'],1,left,['2'],5,47,[0.05304738],45,53,easy,minus,dotcolour,beta,,,37,18,M,R,
627,123,39,14,4,27,53,600,['n'],1,right,['1'],6,95,[-0.04181752],31,53,easy,minus,dotcolour,beta,,,37,18,M,R,
628,124,40,14,4,27,53,633,['n'],1,right,['1'],6,43,[-0.05528404],49,53,easy,minus,dotcolour,beta,,,37,18,M,R,
629,125,41,14,4,47,33,617,['c'],1,left,['1'],6,73,[0.10043266],95,47,medium,minus,dotcolour,beta,,,37,18,M,R,
630,0,0,15,5,44,36,984,['c'],1,left,['2'],5,92,[0.11097494],100,44,hard,plus,dotcolour,beta,,,37,18,M,R,
631,1,1,15,5,47,33,666,['c'],1,left,['2'],5,79,[0.11820985],100,47,medium,plus,dotcolour,beta,,,37,18,M,R,
632,2,2,15,5,53,27,683,['c'],1,left,['1'],6,50,[0.09586763],100,53,easy,plus,dotcolour,beta,,,37,18,M,R,
633,3,3,15,5,27,53,584,['n'],1,right,['1'],6,58,[-0.09096507],100,53,easy,plus,dotcolour,beta,,,37,18,M,R,
634,4,4,15,5,33,47,532,['n'],1,right,['1'],6,51,[-0.0536548],100,47,medium,plus,dotcolour,beta,,,37,18,M,R,
635,5,5,15,5,27,53,500,['n'],1,right,['1'],6,38,[-0.10769438],100,53,easy,plus,dotcolour,beta,,,37,18,M,R,
636,6,6,15,5,36,44,483,['n'],1,right,['1'],6,75,[-0.09892229],100,44,hard,plus,dotcolour,beta,,,37,18,M,R,
637,7,7,15,5,36,44,500,['n'],1,right,['1'],6,37,[-0.08218233],100,44,hard,plus,dotcolour,beta,,,37,18,M,R,
638,8,8,15,5,36,44,484,['n'],1,right,['1'],6,50,[-0.04756696],100,44,hard,plus,dotcolour,beta,,,37,18,M,R,
639,9,9,15,5,36,44,533,['n'],1,right,['1'],6,28,[-0.06230545],100,44,hard,plus,dotcolour,beta,,,37,18,M,R,
640,10,10,15,5,36,44,433,['n'],1,right,['1'],6,795,[-0.11495023],97,44,hard,plus,dotcolour,beta,,,37,18,M,R,
641,11,11,15,5,27,53,484,['n'],1,right,['1'],6,41,[-0.08583692],100,53,easy,plus,dotcolour,beta,,,37,18,M,R,
642,12,12,15,5,33,47,1551,['c'],0,right,['2'],5,642,[-0.00326528],76,47,medium,plus,dotcolour,beta,,,37,18,M,R,
643,13,13,15,5,47,33,799,['c'],1,left,['1'],6,66,[0.10920505],100,47,medium,plus,dotcolour,beta,,,37,18,M,R,
644,14,14,15,5,47,33,633,['c'],1,left,['1'],6,47,[0.08361233],100,47,medium,plus,dotcolour,beta,,,37,18,M,R,
645,15,15,15,5,53,27,550,['c'],1,left,['1'],6,88,[0.05288763],100,53,easy,plus,dotcolour,beta,,,37,18,M,R,
646,16,16,15,5,33,47,549,['n'],1,right,['1'],6,48,[-0.01215577],100,47,medium,plus,dotcolour,beta,,,37,18,M,R,
647,17,17,15,5,27,53,552,['n'],1,right,['1'],6,25,[-0.06412653],100,53,easy,plus,dotcolour,beta,,,37,18,M,R,
648,18,18,15,5,36,44,467,['n'],1,right,['1'],6,87,[-0.10717124],100,44,hard,plus,dotcolour,beta,,,37,18,M,R,
649,19,19,15,5,36,44,500,['n'],1,right,['1'],6,705,[-0.12553202],98,44,hard,plus,dotcolour,beta,,,37,18,M,R,
650,20,20,15,5,33,47,1001,['c'],0,right,['1'],6,118,[0.04432098],99,47,medium,plus,dotcolour,beta,,,37,18,M,R,
651,21,21,15,5,47,33,817,['c'],1,left,['2'],5,145,[0.06673952],100,47,medium,plus,dotcolour,beta,,,37,18,M,R,
652,22,22,15,5,44,36,1117,['c'],1,left,['2'],5,96,[0.1272113],100,44,hard,plus,dotcolour,beta,,,37,18,M,R,
653,23,23,15,5,44,36,534,['c'],1,left,['2'],5,104,[0.09548454],100,44,hard,plus,dotcolour,beta,,,37,18,M,R,
654,24,24,15,5,33,47,816,['c'],0,right,['2'],5,61,[0.07146691],100,47,medium,plus,dotcolour,beta,,,37,18,M,R,
655,25,25,15,5,44,36,783,['c'],1,left,['2'],5,44,[0.08694957],100,44,hard,plus,dotcolour,beta,,,37,18,M,R,
656,26,26,15,5,53,27,784,['c'],1,left,['1'],6,93,[0.07019038],100,53,easy,plus,dotcolour,beta,,,37,18,M,R,
657,27,27,15,5,53,27,1116,['c'],1,left,['1'],6,78,[0.12301856],100,53,easy,plus,dotcolour,beta,,,37,18,M,R,
658,28,28,15,5,47,33,633,['c'],1,left,['2'],5,75,[0.03784573],100,47,medium,plus,dotcolour,beta,,,37,18,M,R,
659,29,29,15,5,44,36,1384,['c'],1,left,['2'],5,33,[0.07058606],100,44,hard,plus,dotcolour,beta,,,37,18,M,R,
660,30,30,15,5,27,53,784,['n'],1,right,['1'],6,73,[-0.10880843],100,53,easy,plus,dotcolour,beta,,,37,18,M,R,
661,31,31,15,5,47,33,767,['c'],1,left,['1'],6,33,[0.06493462],100,47,medium,plus,dotcolour,beta,,,37,18,M,R,
662,32,32,15,5,53,27,751,['c'],1,left,['2'],5,67,[0.09895658],100,53,easy,plus,dotcolour,beta,,,37,18,M,R,
663,33,33,15,5,27,53,667,['n'],1,right,['1'],6,23,[-0.09046295],100,53,easy,plus,dotcolour,beta,,,37,18,M,R,
664,34,34,15,5,44,36,1067,['c'],1,left,['1'],6,45,[0.04021546],100,44,hard,plus,dotcolour,beta,,,37,18,M,R,
665,35,35,15,5,53,27,650,['c'],1,left,['1'],6,67,[0.09414763],100,53,easy,plus,dotcolour,beta,,,37,18,M,R,
666,36,36,15,5,47,33,550,['c'],1,left,['1'],6,52,[0.04334276],100,47,medium,plus,dotcolour,beta,,,37,18,M,R,
667,37,37,15,5,27,53,1218,['c'],0,right,['1'],6,10,[0.08657304],100,53,easy,plus,dotcolour,beta,,,37,18,M,R,
668,38,38,15,5,44,36,784,['c'],1,left,['1'],6,747,[0.10528824],97,44,hard,plus,dotcolour,beta,,,37,18,M,R,
669,39,39,15,5,33,47,1317,['n'],1,right,['1'],6,18,[-0.07638059],100,47,medium,plus,dotcolour,beta,,,37,18,M,R,
670,40,40,15,5,33,47,667,['n'],1,right,['1'],6,48,[-0.07569171],100,47,medium,plus,dotcolour,beta,,,37,18,M,R,
671,41,41,15,5,53,27,700,['c'],1,left,['1'],6,67,[0.07286481],100,53,easy,plus,dotcolour,beta,,,37,18,M,R,
672,42,0,16,5,33,47,883,['n'],1,right,['1'],6,82,[-0.0962469],100,47,medium,plus,dotcolour,beta,,,37,18,M,R,
673,43,1,16,5,53,27,650,['c'],1,left,['1'],6,54,[0.12769226],100,53,easy,plus,dotcolour,beta,,,37,18,M,R,
674,44,2,16,5,33,47,784,['n'],1,right,['1'],6,30,[-0.05184059],100,47,medium,plus,dotcolour,beta,,,37,18,M,R,
675,45,3,16,5,47,33,600,['c'],1,left,['1'],6,95,[0.08854685],100,47,medium,plus,dotcolour,beta,,,37,18,M,R,
676,46,4,16,5,36,44,1117,['n'],1,right,['1'],6,95,[-0.09982867],100,44,hard,plus,dotcolour,beta,,,37,18,M,R,
677,47,5,16,5,47,33,767,['c'],1,left,['1'],6,686,[0.22779673],100,47,medium,plus,dotcolour,beta,,,37,18,M,R,
678,48,6,16,5,53,27,684,['c'],1,left,['1'],6,104,[0.11692909],100,53,easy,plus,dotcolour,beta,,,37,18,M,R,
679,49,7,16,5,36,44,816,['n'],1,right,['1'],6,37,[-0.06247355],100,44,hard,plus,dotcolour,beta,,,37,18,M,R,
680,50,8,16,5,33,47,950,['n'],1,right,['1'],6,23,[-0.08984406],100,47,medium,plus,dotcolour,beta,,,37,18,M,R,
681,51,9,16,5,53,27,517,['c'],1,left,['1'],6,91,[0.05232692],100,53,easy,plus,dotcolour,beta,,,37,18,M,R,
682,52,10,16,5,27,53,517,['n'],1,right,['1'],6,91,[-0.08308168],100,53,easy,plus,dotcolour,beta,,,37,18,M,R,
683,53,11,16,5,33,47,683,['n'],1,right,['1'],6,69,[-0.08581274],100,47,medium,plus,dotcolour,beta,,,37,18,M,R,
684,54,12,16,5,33,47,584,['n'],1,right,['1'],6,189,[-0.11477046],100,47,medium,plus,dotcolour,beta,,,37,18,M,R,
685,55,13,16,5,27,53,968,['n'],1,right,['1'],6,32,[-0.08803371],100,53,easy,plus,dotcolour,beta,,,37,18,M,R,
686,56,14,16,5,47,33,667,['c'],1,left,['1'],6,53,[0.08992571],100,47,medium,plus,dotcolour,beta,,,37,18,M,R,
687,57,15,16,5,53,27,884,['c'],1,left,['1'],6,57,[0.09509283],100,53,easy,plus,dotcolour,beta,,,37,18,M,R,
688,58,16,16,5,36,44,800,['c'],0,right,['1'],6,88,[0.04215675],100,44,hard,plus,dotcolour,beta,,,37,18,M,R,
689,59,17,16,5,44,36,533,['c'],1,left,['1'],6,72,[0.05946819],100,44,hard,plus,dotcolour,beta,,,37,18,M,R,
690,60,18,16,5,47,33,667,['c'],1,left,['1'],6,60,[0.07503067],100,47,medium,plus,dotcolour,beta,,,37,18,M,R,
691,61,19,16,5,27,53,833,['n'],1,right,['1'],6,58,[-0.0774905],100,53,easy,plus,dotcolour,beta,,,37,18,M,R,
692,62,20,16,5,44,36,650,['c'],1,left,['1'],6,102,[0.04908647],100,44,hard,plus,dotcolour,beta,,,37,18,M,R,
693,63,21,16,5,36,44,767,['n'],1,right,['1'],6,77,[-0.06700086],100,44,hard,plus,dotcolour,beta,,,37,18,M,R,
694,64,22,16,5,33,47,1150,['c'],0,right,['1'],6,93,[0.05783611],100,47,medium,plus,dotcolour,beta,,,37,18,M,R,
695,65,23,16,5,53,27,683,['c'],1,left,['1'],6,32,[0.09755711],100,53,easy,plus,dotcolour,beta,,,37,18,M,R,
696,66,24,16,5,44,36,751,['c'],1,left,['1'],6,89,[0.09263191],100,44,hard,plus,dotcolour,beta,,,37,18,M,R,
697,67,25,16,5,47,33,717,['c'],1,left,['1'],6,59,[0.08582116],100,47,medium,plus,dotcolour,beta,,,37,18,M,R,
698,68,26,16,5,33,47,633,['n'],1,right,['1'],6,32,[-0.05431076],100,47,medium,plus,dotcolour,beta,,,37,18,M,R,
699,69,27,16,5,27,53,767,['n'],1,right,['1'],6,57,[-0.08078713],100,53,easy,plus,dotcolour,beta,,,37,18,M,R,
700,70,28,16,5,47,33,800,['c'],1,left,['1'],6,72,[0.07418101],100,47,medium,plus,dotcolour,beta,,,37,18,M,R,
701,71,29,16,5,36,44,900,['n'],1,right,['1'],6,34,[-0.05926799],100,44,hard,plus,dotcolour,beta,,,37,18,M,R,
702,72,30,16,5,36,44,1084,['n'],1,right,['1'],6,87,[-0.04787907],100,44,hard,plus,dotcolour,beta,,,37,18,M,R,
703,73,31,16,5,27,53,900,['n'],1,right,['1'],6,9,[-0.08257596],100,53,easy,plus,dotcolour,beta,,,37,18,M,R,
704,74,32,16,5,27,53,516,['n'],1,right,['1'],6,61,[-0.09405782],100,53,easy,plus,dotcolour,beta,,,37,18,M,R,
705,75,33,16,5,44,36,534,['c'],1,left,['1'],6,63,[0.02210799],100,44,hard,plus,dotcolour,beta,,,37,18,M,R,
706,76,34,16,5,47,33,617,['c'],1,left,['1'],6,45,[0.07731667],100,47,medium,plus,dotcolour,beta,,,37,18,M,R,
707,77,35,16,5,36,44,1384,['n'],1,right,['1'],6,36,[-0.05511222],100,44,hard,plus,dotcolour,beta,,,37,18,M,R,
708,78,36,16,5,53,27,600,['c'],1,left,['1'],6,36,[0.04978092],100,53,easy,plus,dotcolour,beta,,,37,18,M,R,
709,79,37,16,5,27,53,901,['n'],1,right,['1'],6,72,[-0.11082128],100,53,easy,plus,dotcolour,beta,,,37,18,M,R,
710,80,38,16,5,44,36,667,['c'],1,left,['1'],6,125,[0.04600106],99,44,hard,plus,dotcolour,beta,,,37,18,M,R,
711,81,39,16,5,53,27,568,['c'],1,left,['1'],6,74,[0.09829994],100,53,easy,plus,dotcolour,beta,,,37,18,M,R,
712,82,40,16,5,44,36,1533,['c'],1,left,['2'],5,91,[0.07541423],100,44,hard,plus,dotcolour,beta,,,37,18,M,R,
713,83,41,16,5,44,36,950,['c'],1,left,['2'],5,114,[0.13742206],100,44,hard,plus,dotcolour,beta,,,37,18,M,R,
714,84,0,17,5,33,47,600,['n'],1,right,['1'],6,77,[-0.02370862],99,47,medium,plus,dotcolour,beta,,,37,18,M,R,
715,85,1,17,5,44,36,683,['c'],1,left,['2'],5,55,[0.05606018],100,44,hard,plus,dotcolour,beta,,,37,18,M,R,
716,86,2,17,5,47,33,966,['c'],1,left,['2'],5,56,[0.03215371],100,47,medium,plus,dotcolour,beta,,,37,18,M,R,
717,87,3,17,5,33,47,552,['n'],1,right,['2'],5,57,[-0.07910329],100,47,medium,plus,dotcolour,beta,,,37,18,M,R,
718,88,4,17,5,44,36,517,['c'],1,left,['2'],5,43,[0.07569407],100,44,hard,plus,dotcolour,beta,,,37,18,M,R,
719,89,5,17,5,53,27,666,['c'],1,left,['1'],6,72,[0.04782881],100,53,easy,plus,dotcolour,beta,,,37,18,M,R,
720,90,6,17,5,47,33,784,['c'],1,left,['1'],6,47,[0.10259761],100,47,medium,plus,dotcolour,beta,,,37,18,M,R,
721,91,7,17,5,33,47,617,['n'],1,right,['1'],6,30,[-0.06946162],100,47,medium,plus,dotcolour,beta,,,37,18,M,R,
722,92,8,17,5,44,36,684,['c'],1,left,['1'],6,51,[0.09192251],100,44,hard,plus,dotcolour,beta,,,37,18,M,R,
723,93,9,17,5,27,53,600,['n'],1,right,['2'],5,122,[-0.04225042],99,53,easy,plus,dotcolour,beta,,,37,18,M,R,
724,94,10,17,5,47,33,666,['c'],1,left,['2'],5,60,[0.0326979],100,47,medium,plus,dotcolour,beta,,,37,18,M,R,
725,95,11,17,5,47,33,701,['c'],1,left,['2'],5,87,[0.12786888],100,47,medium,plus,dotcolour,beta,,,37,18,M,R,
726,96,12,17,5,27,53,617,['n'],1,right,['1'],6,116,[-0.07801224],100,53,easy,plus,dotcolour,beta,,,37,18,M,R,
727,97,13,17,5,53,27,850,['c'],1,left,['1'],6,31,[0.06793019],100,53,easy,plus,dotcolour,beta,,,37,18,M,R,
728,98,14,17,5,33,47,567,['n'],1,right,['1'],6,88,[-0.08999193],100,47,medium,plus,dotcolour,beta,,,37,18,M,R,
729,99,15,17,5,47,33,901,['c'],1,left,['1'],6,51,[0.05828622],100,47,medium,plus,dotcolour,beta,,,37,18,M,R,
730,100,16,17,5,44,36,834,['c'],1,left,['1'],6,104,[0.06653694],100,44,hard,plus,dotcolour,beta,,,37,18,M,R,
731,101,17,17,5,44,36,516,['c'],1,left,['1'],6,73,[0.04858659],100,44,hard,plus,dotcolour,beta,,,37,18,M,R,
732,102,18,17,5,27,53,667,['n'],1,right,['1'],6,45,[-0.07551113],100,53,easy,plus,dotcolour,beta,,,37,18,M,R,
733,103,19,17,5,36,44,984,['n'],1,right,['1'],6,29,[-0.07460462],100,44,hard,plus,dotcolour,beta,,,37,18,M,R,
734,104,20,17,5,36,44,551,['n'],1,right,['1'],6,103,[-0.03517512],99,44,hard,plus,dotcolour,beta,,,37,18,M,R,
735,105,21,17,5,36,44,734,['n'],1,right,['1'],6,23,[-0.06146155],100,44,hard,plus,dotcolour,beta,,,37,18,M,R,
736,106,22,17,5,53,27,567,['c'],1,left,['1'],6,88,[0.13759834],100,53,easy,plus,dotcolour,beta,,,37,18,M,R,
737,107,23,17,5,36,44,1017,['n'],1,right,['1'],6,78,[-0.03548047],100,44,hard,plus,dotcolour,beta,,,37,18,M,R,
738,108,24,17,5,53,27,516,['c'],1,left,['1'],6,88,[0.10381037],100,53,easy,plus,dotcolour,beta,,,37,18,M,R,
739,109,25,17,5,27,53,600,['c'],0,right,['1'],6,46,[0.06292012],100,53,easy,plus,dotcolour,beta,,,37,18,M,R,
740,110,26,17,5,36,44,800,['n'],1,right,['1'],6,149,[-0.1221811],100,44,hard,plus,dotcolour,beta,,,37,18,M,R,
741,111,27,17,5,27,53,600,['n'],1,right,['1'],6,24,[-0.05190444],100,53,easy,plus,dotcolour,beta,,,37,18,M,R,
742,112,28,17,5,53,27,634,['c'],1,left,['1'],6,750,[0.14177569],98,53,easy,plus,dotcolour,beta,,,37,18,M,R,
743,113,29,17,5,36,44,700,['n'],1,right,['1'],6,54,[-0.05258678],100,44,hard,plus,dotcolour,beta,,,37,18,M,R,
744,114,30,17,5,27,53,600,['n'],1,right,['1'],6,69,[-0.07793703],100,53,easy,plus,dotcolour,beta,,,37,18,M,R,
745,115,31,17,5,36,44,667,['c'],0,right,['1'],6,49,[0.07827554],100,44,hard,plus,dotcolour,beta,,,37,18,M,R,
746,116,32,17,5,33,47,750,['n'],1,right,['1'],6,99,[-0.01865498],99,47,medium,plus,dotcolour,beta,,,37,18,M,R,
747,117,33,17,5,53,27,650,['c'],1,left,['1'],6,23,[0.07751001],100,53,easy,plus,dotcolour,beta,,,37,18,M,R,
748,118,34,17,5,33,47,533,['n'],1,right,['1'],6,89,[-0.12987599],100,47,medium,plus,dotcolour,beta,,,37,18,M,R,
749,119,35,17,5,44,36,817,['c'],1,left,['1'],6,63,[0.04994637],100,44,hard,plus,dotcolour,beta,,,37,18,M,R,
750,120,36,17,5,53,27,784,['c'],1,left,['1'],6,62,[0.08655156],100,53,easy,plus,dotcolour,beta,,,37,18,M,R,
751,121,37,17,5,47,33,782,['c'],1,left,['1'],6,54,[0.09055411],100,47,medium,plus,dotcolour,beta,,,37,18,M,R,
752,122,38,17,5,44,36,582,['c'],1,left,['1'],6,85,[0.06291349],100,44,hard,plus,dotcolour,beta,,,37,18,M,R,
753,123,39,17,5,47,33,734,['c'],1,left,['1'],6,70,[0.0812888],100,47,medium,plus,dotcolour,beta,,,37,18,M,R,
754,124,40,17,5,33,47,634,['n'],1,right,['1'],6,36,[-0.06958456],100,47,medium,plus,dotcolour,beta,,,37,18,M,R,
755,125,41,17,5,27,53,517,['n'],1,right,['1'],6,71,[-0.07419144],100,53,easy,plus,dotcolour,beta,,,37,18,M,R,
,,,,,,,,,,,,,,,,,,,,,1,"in sommige reeksen was de feedback niet eerlijk, bijna altijd honderd procent, dit was onmogelijk in sommige andere reeksen",37,18,M,R,
,,,,,,,,,,,,,,,,,,,,,2,['f'],37,18,M,R,
,,,,,,,,,,,,,,,,,,,,,3,['g'],37,18,M,R,
,,,,,,,,,,,,,,,,,,,,,5,['5'],37,18,M,R,
