trial,withinphasetrial,withinblocktrial,block,phase,dotsLeft,dotsRight,rt,resp,cor,cresp,conf_press,cj,RTconf,ev,fb,diff,difflevel,condition,task,manip,questionID,questionResp,sub,age,gender,handedness,
0,0,0,0,0,53,27,2433,['n'],0,left,['9'],2,5162,[0.67999664],6,53,easy,minus,dotcolour,alfa,,,81,0,V,R,
1,1,1,0,0,47,33,2033,['c'],1,left,['1'],6,1449,[0.22316564],84,47,medium,minus,dotcolour,alfa,,,81,0,V,R,
2,2,2,0,0,27,53,3164,['n'],1,right,['1'],6,993,[-0.06995198],65,53,easy,minus,dotcolour,alfa,,,81,0,V,R,
3,3,3,0,0,36,44,4332,['n'],1,right,['1'],6,1725,[0.06612619],39,44,hard,minus,dotcolour,alfa,,,81,0,V,R,
4,4,4,0,0,36,44,2414,['n'],1,right,['2'],5,2063,[-0.32841022],89,44,hard,minus,dotcolour,alfa,,,81,0,V,R,
5,5,5,0,0,33,47,1781,['n'],1,right,['1'],6,1798,[-0.29928099],88,47,medium,minus,dotcolour,alfa,,,81,0,V,R,
6,6,6,0,0,47,33,1466,['c'],1,left,['1'],6,1460,[0.2646956],88,47,medium,minus,dotcolour,alfa,,,81,0,V,R,
7,7,7,0,0,27,53,1463,['n'],1,right,['1'],6,984,[-0.12565515],76,53,easy,minus,dotcolour,alfa,,,81,0,V,R,
8,8,8,0,0,33,47,1382,['n'],1,right,['2'],5,970,[-0.09676227],71,47,medium,minus,dotcolour,alfa,,,81,0,V,R,
9,9,9,0,0,33,47,1365,['n'],1,right,['1'],6,1301,[-0.22459499],85,47,medium,minus,dotcolour,alfa,,,81,0,V,R,
10,10,10,0,0,44,36,1949,['c'],1,left,['1'],6,996,[0.2064712],87,44,hard,minus,dotcolour,alfa,,,81,0,V,R,
11,11,11,0,0,36,44,4299,['n'],1,right,['9'],2,3074,[0.01142335],49,44,hard,minus,dotcolour,alfa,,,81,0,V,R,
12,12,12,0,0,44,36,1598,['n'],0,left,['2'],5,1151,[0.13827493],24,44,hard,minus,dotcolour,alfa,,,81,0,V,R,
13,13,13,0,0,53,27,2332,['c'],1,left,['1'],6,869,[0.19410282],87,53,easy,minus,dotcolour,alfa,,,81,0,V,R,
14,14,14,0,0,36,44,1133,['n'],1,right,['1'],6,782,[-0.09048556],72,44,hard,minus,dotcolour,alfa,,,81,0,V,R,
15,15,15,0,0,53,27,733,['c'],1,left,['1'],6,393,[0.06946355],73,53,easy,minus,dotcolour,alfa,,,81,0,V,R,
16,16,16,0,0,47,33,814,['c'],1,left,['1'],6,537,[0.05313569],66,47,medium,minus,dotcolour,alfa,,,81,0,V,R,
17,17,17,0,0,53,27,983,['c'],1,left,['1'],6,870,[0.31575652],95,53,easy,minus,dotcolour,alfa,,,81,0,V,R,
18,18,18,0,0,33,47,815,['n'],1,right,['1'],6,620,[-0.18359838],89,47,medium,minus,dotcolour,alfa,,,81,0,V,R,
19,19,19,0,0,47,33,882,['c'],1,left,['1'],6,417,[0.09631955],79,47,medium,minus,dotcolour,alfa,,,81,0,V,R,
20,20,20,0,0,53,27,915,['c'],1,left,['1'],6,653,[0.24407689],94,53,easy,minus,dotcolour,alfa,,,81,0,V,R,
21,21,21,0,0,44,36,1449,['c'],1,left,['1'],6,458,[0.09626302],78,44,hard,minus,dotcolour,alfa,,,81,0,V,R,
22,22,22,0,0,33,47,1265,['n'],1,right,['1'],6,886,[-0.09792664],72,47,medium,minus,dotcolour,alfa,,,81,0,V,R,
23,23,23,0,0,33,47,900,['n'],1,right,['1'],6,863,[-0.14564222],80,47,medium,minus,dotcolour,alfa,,,81,0,V,R,
24,24,24,0,0,36,44,732,['n'],1,right,['1'],6,569,[-0.11757095],80,44,hard,minus,dotcolour,alfa,,,81,0,V,R,
25,25,25,0,0,44,36,1182,['n'],0,left,['1'],6,419,[-0.00151734],51,44,hard,minus,dotcolour,alfa,,,81,0,V,R,
26,26,26,0,0,36,44,1131,['n'],1,right,['1'],6,446,[-0.1511341],88,44,hard,minus,dotcolour,alfa,,,81,0,V,R,
27,27,27,0,0,47,33,1147,['n'],0,left,['1'],6,527,[-0.05905461],68,47,medium,minus,dotcolour,alfa,,,81,0,V,R,
28,28,28,0,0,36,44,1098,['n'],1,right,['1'],6,271,[-0.08523045],81,44,hard,minus,dotcolour,alfa,,,81,0,V,R,
29,29,29,0,0,33,47,631,['n'],1,right,['1'],6,324,[-0.03302877],63,47,medium,minus,dotcolour,alfa,,,81,0,V,R,
30,30,30,0,0,47,33,1317,['c'],1,left,['1'],6,491,[0.12731297],84,47,medium,minus,dotcolour,alfa,,,81,0,V,R,
31,31,31,0,0,44,36,2430,['n'],0,left,['3'],4,2335,[0.0726837],39,44,hard,minus,dotcolour,alfa,,,81,0,V,R,
32,32,32,0,0,27,53,1667,['n'],1,right,['1'],6,464,[-0.06711515],71,53,easy,minus,dotcolour,alfa,,,81,0,V,R,
33,33,33,0,0,27,53,882,['n'],1,right,['1'],6,412,[-0.14557559],89,53,easy,minus,dotcolour,alfa,,,81,0,V,R,
34,34,34,0,0,47,33,1732,['c'],1,left,['2'],5,1167,[0.19350985],83,47,medium,minus,dotcolour,alfa,,,81,0,V,R,
35,35,35,0,0,27,53,1065,['n'],1,right,['1'],6,670,[-0.11742368],78,53,easy,minus,dotcolour,alfa,,,81,0,V,R,
36,36,36,0,0,53,27,883,['c'],1,left,['1'],6,568,[0.14829182],85,53,easy,minus,dotcolour,alfa,,,81,0,V,R,
37,37,37,0,0,27,53,917,['n'],1,right,['1'],6,455,[-0.09590035],78,53,easy,minus,dotcolour,alfa,,,81,0,V,R,
38,38,38,0,0,44,36,1615,['n'],0,left,['3'],4,1989,[-0.18918275],77,44,hard,minus,dotcolour,alfa,,,81,0,V,R,
39,39,39,0,0,44,36,1030,['n'],0,left,['1'],6,565,[0.04309776],37,44,hard,minus,dotcolour,alfa,,,81,0,V,R,
40,40,40,0,0,53,27,981,['c'],1,left,['1'],6,456,[0.11019024],81,53,easy,minus,dotcolour,alfa,,,81,0,V,R,
41,41,41,0,0,27,53,849,['n'],1,right,['1'],6,500,[-0.2680903],97,53,easy,minus,dotcolour,alfa,,,81,0,V,R,
42,42,0,1,0,36,44,2101,['c'],0,right,['3'],4,1502,[0.10103835],68,44,hard,minus,dotcolour,alfa,,,81,0,V,R,
43,43,1,1,0,33,47,1448,['n'],1,right,['1'],6,496,[-0.10278526],79,47,medium,minus,dotcolour,alfa,,,81,0,V,R,
44,44,2,1,0,44,36,1297,['c'],1,left,['1'],6,569,[0.16035522],87,44,hard,minus,dotcolour,alfa,,,81,0,V,R,
45,45,3,1,0,53,27,1447,['c'],1,left,['1'],6,377,[0.18996122],94,53,easy,minus,dotcolour,alfa,,,81,0,V,R,
46,46,4,1,0,53,27,1165,['c'],1,left,['1'],6,397,[0.21347348],95,53,easy,minus,dotcolour,alfa,,,81,0,V,R,
47,47,5,1,0,44,36,1230,['c'],1,left,['2'],5,709,[0.164464],85,44,hard,minus,dotcolour,alfa,,,81,0,V,R,
48,48,6,1,0,36,44,832,['n'],1,right,['1'],6,689,[-0.08920349],72,44,hard,minus,dotcolour,alfa,,,81,0,V,R,
49,49,7,1,0,27,53,865,['n'],1,right,['1'],6,323,[-0.15243659],92,53,easy,minus,dotcolour,alfa,,,81,0,V,R,
50,50,8,1,0,27,53,797,['n'],1,right,['1'],6,511,[-0.15597462],88,53,easy,minus,dotcolour,alfa,,,81,0,V,R,
51,51,9,1,0,44,36,1865,['n'],0,left,['3'],4,1026,[0.08004818],33,44,hard,minus,dotcolour,alfa,,,81,0,V,R,
52,52,10,1,0,33,47,965,['n'],1,right,['1'],6,379,[-0.11812011],85,47,medium,minus,dotcolour,alfa,,,81,0,V,R,
53,53,11,1,0,53,27,765,['c'],1,left,['1'],6,350,[0.16149348],92,53,easy,minus,dotcolour,alfa,,,81,0,V,R,
54,54,12,1,0,47,33,1533,['c'],1,left,['2'],5,1837,[0.15850025],74,47,medium,minus,dotcolour,alfa,,,81,0,V,R,
55,55,13,1,0,53,27,1116,['c'],1,left,['1'],6,295,[0.10426002],85,53,easy,minus,dotcolour,alfa,,,81,0,V,R,
56,56,14,1,0,47,33,1383,['c'],1,left,['3'],4,1117,[0.29874968],93,47,medium,minus,dotcolour,alfa,,,81,0,V,R,
57,57,15,1,0,36,44,1866,['c'],0,right,['1'],6,558,[-0.03611436],39,44,hard,minus,dotcolour,alfa,,,81,0,V,R,
58,58,16,1,0,27,53,3231,['c'],0,right,['3'],4,4112,[-0.40456165],14,53,easy,minus,dotcolour,alfa,,,81,0,V,R,
59,59,17,1,0,27,53,1765,['n'],1,right,['1'],6,317,[-0.13061539],89,53,easy,minus,dotcolour,alfa,,,81,0,V,R,
60,60,18,1,0,47,33,833,['c'],1,left,['1'],6,344,[0.08680648],79,47,medium,minus,dotcolour,alfa,,,81,0,V,R,
61,61,19,1,0,36,44,2916,['n'],1,right,['3'],4,823,[-0.14461361],81,44,hard,minus,dotcolour,alfa,,,81,0,V,R,
62,62,20,1,0,33,47,1999,['n'],1,right,['2'],5,599,[-0.11411674],79,47,medium,minus,dotcolour,alfa,,,81,0,V,R,
63,63,21,1,0,27,53,765,['n'],1,right,['1'],6,329,[-0.19811164],96,53,easy,minus,dotcolour,alfa,,,81,0,V,R,
64,64,22,1,0,33,47,1232,['n'],1,right,['3'],4,1203,[-0.23517164],87,47,medium,minus,dotcolour,alfa,,,81,0,V,R,
65,65,23,1,0,47,33,948,['c'],1,left,['1'],6,478,[0.22741139],95,47,medium,minus,dotcolour,alfa,,,81,0,V,R,
66,66,24,1,0,27,53,1499,['n'],1,right,['1'],6,480,[-0.10137385],79,53,easy,minus,dotcolour,alfa,,,81,0,V,R,
67,67,25,1,0,44,36,1783,['c'],1,left,['1'],6,375,[0.07137368],74,44,hard,minus,dotcolour,alfa,,,81,0,V,R,
68,68,26,1,0,53,27,2233,['c'],1,left,['3'],4,552,[0.22919013],94,53,easy,minus,dotcolour,alfa,,,81,0,V,R,
69,69,27,1,0,36,44,2498,['n'],1,right,['3'],4,982,[-0.27874894],93,44,hard,minus,dotcolour,alfa,,,81,0,V,R,
70,70,28,1,0,47,33,1731,['c'],1,left,['1'],6,803,[0.2170581],90,47,medium,minus,dotcolour,alfa,,,81,0,V,R,
71,71,29,1,0,47,33,1715,['c'],1,left,['3'],4,847,[0.32667054],96,47,medium,minus,dotcolour,alfa,,,81,0,V,R,
72,72,30,1,0,36,44,2167,['c'],0,right,['2'],5,576,[0.02278378],57,44,hard,minus,dotcolour,alfa,,,81,0,V,R,
73,73,31,1,0,27,53,1465,['n'],1,right,['1'],6,367,[-0.09805202],81,53,easy,minus,dotcolour,alfa,,,81,0,V,R,
74,74,32,1,0,33,47,782,['n'],1,right,['1'],6,323,[-0.11446281],86,47,medium,minus,dotcolour,alfa,,,81,0,V,R,
75,75,33,1,0,36,44,2415,['n'],1,right,['1'],6,222,[-0.09435625],86,44,hard,minus,dotcolour,alfa,,,81,0,V,R,
76,76,34,1,0,33,47,1132,['n'],1,right,['1'],6,217,[-0.0376762],67,47,medium,minus,dotcolour,alfa,,,81,0,V,R,
77,77,35,1,0,44,36,1248,['n'],0,left,['1'],6,392,[-0.10486687],82,44,hard,minus,dotcolour,alfa,,,81,0,V,R,
78,78,36,1,0,53,27,948,['c'],1,left,['1'],6,388,[0.12084876],85,53,easy,minus,dotcolour,alfa,,,81,0,V,R,
79,79,37,1,0,44,36,1949,['n'],0,left,['2'],5,343,[-0.05743671],71,44,hard,minus,dotcolour,alfa,,,81,0,V,R,
80,80,38,1,0,33,47,1065,['n'],1,right,['3'],4,336,[-0.20508485],96,47,medium,minus,dotcolour,alfa,,,81,0,V,R,
81,81,39,1,0,44,36,931,['n'],0,left,['3'],4,399,[0.02483987],41,44,hard,minus,dotcolour,alfa,,,81,0,V,R,
82,82,40,1,0,47,33,1483,['n'],0,left,['2'],5,484,[0.11991627],17,47,medium,minus,dotcolour,alfa,,,81,0,V,R,
83,83,41,1,0,53,27,2048,['c'],1,left,['1'],6,296,[0.10700332],85,53,easy,minus,dotcolour,alfa,,,81,0,V,R,
84,84,0,2,0,27,53,1283,['n'],1,right,['1'],6,586,[-0.26001768],96,53,easy,minus,dotcolour,alfa,,,81,0,V,R,
85,85,1,2,0,27,53,650,['n'],1,right,['1'],6,338,[-0.18083169],94,53,easy,minus,dotcolour,alfa,,,81,0,V,R,
86,86,2,2,0,33,47,517,['n'],1,right,['1'],6,394,[-0.08666193],78,47,medium,minus,dotcolour,alfa,,,81,0,V,R,
87,87,3,2,0,44,36,848,['c'],1,left,['1'],6,321,[0.0653546],74,44,hard,minus,dotcolour,alfa,,,81,0,V,R,
88,88,4,2,0,33,47,1148,['n'],1,right,['1'],6,519,[-0.10801626],79,47,medium,minus,dotcolour,alfa,,,81,0,V,R,
89,89,5,2,0,53,27,882,['c'],1,left,['1'],6,304,[0.16626854],94,53,easy,minus,dotcolour,alfa,,,81,0,V,R,
90,90,6,2,0,44,36,1898,['c'],1,left,['3'],4,664,[0.12903728],81,44,hard,minus,dotcolour,alfa,,,81,0,V,R,
91,91,7,2,0,44,36,1297,['n'],0,left,['2'],5,1019,[0.13733091],23,44,hard,minus,dotcolour,alfa,,,81,0,V,R,
92,92,8,2,0,36,44,1600,['c'],0,right,['3'],4,1155,[0.11185001],72,44,hard,minus,dotcolour,alfa,,,81,0,V,R,
93,93,9,2,0,36,44,2132,['c'],0,right,['3'],4,1000,[0.07997177],67,44,hard,minus,dotcolour,alfa,,,81,0,V,R,
94,94,10,2,0,33,47,2215,['n'],1,right,['3'],4,1376,[-0.19154716],81,47,medium,minus,dotcolour,alfa,,,81,0,V,R,
95,95,11,2,0,36,44,1366,['n'],1,right,['2'],5,739,[-0.18488966],87,44,hard,minus,dotcolour,alfa,,,81,0,V,R,
96,96,12,2,0,36,44,2549,['c'],0,right,['3'],4,1057,[-0.04682092],40,44,hard,minus,dotcolour,alfa,,,81,0,V,R,
97,97,13,2,0,47,33,1516,['n'],0,left,['8'],3,2347,[0.10725867],35,47,medium,minus,dotcolour,alfa,,,81,0,V,R,
98,98,14,2,0,47,33,1615,['c'],1,left,['2'],5,677,[0.17060264],87,47,medium,minus,dotcolour,alfa,,,81,0,V,R,
99,99,15,2,0,53,27,1182,['c'],1,left,['3'],4,835,[0.30595425],95,53,easy,minus,dotcolour,alfa,,,81,0,V,R,
100,100,16,2,0,44,36,1747,['n'],0,left,['2'],5,1325,[0.25870871],12,44,hard,minus,dotcolour,alfa,,,81,0,V,R,
101,101,17,2,0,53,27,2015,['c'],1,left,['1'],6,1552,[0.26269185],87,53,easy,minus,dotcolour,alfa,,,81,0,V,R,
102,102,18,2,0,33,47,1299,['n'],1,right,['1'],6,583,[-0.154834],86,47,medium,minus,dotcolour,alfa,,,81,0,V,R,
103,103,19,2,0,36,44,1166,['c'],0,right,['3'],4,1138,[-0.03565336],43,44,hard,minus,dotcolour,alfa,,,81,0,V,R,
104,104,20,2,0,27,53,1148,['n'],1,right,['2'],5,856,[-0.1369169],79,53,easy,minus,dotcolour,alfa,,,81,0,V,R,
105,105,21,2,0,27,53,881,['n'],1,right,['1'],6,419,[-0.19780935],94,53,easy,minus,dotcolour,alfa,,,81,0,V,R,
106,106,22,2,0,53,27,1015,['n'],0,left,['9'],2,2627,[0.37373529],11,53,easy,minus,dotcolour,alfa,,,81,0,V,R,
107,107,23,2,0,53,27,1049,['c'],1,left,['1'],6,384,[0.23750885],97,53,easy,minus,dotcolour,alfa,,,81,0,V,R,
108,108,24,2,0,47,33,1032,['c'],1,left,['3'],4,585,[0.22645681],93,47,medium,minus,dotcolour,alfa,,,81,0,V,R,
109,109,25,2,0,27,53,1115,['n'],1,right,['1'],6,382,[-0.16110457],91,53,easy,minus,dotcolour,alfa,,,81,0,V,R,
110,110,26,2,0,44,36,1115,['c'],1,left,['1'],6,275,[0.00945785],54,44,hard,minus,dotcolour,alfa,,,81,0,V,R,
111,111,27,2,0,47,33,1514,['n'],0,left,['3'],4,1372,[0.09788829],32,47,medium,minus,dotcolour,alfa,,,81,0,V,R,
112,112,28,2,0,36,44,1265,['n'],1,right,['2'],5,788,[-0.11226391],76,44,hard,minus,dotcolour,alfa,,,81,0,V,R,
113,113,29,2,0,53,27,1132,['c'],1,left,['1'],6,432,[0.15368286],89,53,easy,minus,dotcolour,alfa,,,81,0,V,R,
114,114,30,2,0,44,36,1999,['c'],1,left,['2'],5,648,[0.19868011],90,44,hard,minus,dotcolour,alfa,,,81,0,V,R,
115,115,31,2,0,27,53,915,['n'],1,right,['1'],6,378,[-0.19289667],94,53,easy,minus,dotcolour,alfa,,,81,0,V,R,
116,116,32,2,0,47,33,2632,['c'],1,left,['3'],4,3011,[0.21182789],75,47,medium,minus,dotcolour,alfa,,,81,0,V,R,
117,117,33,2,0,53,27,932,['c'],1,left,['1'],6,558,[0.05213614],65,53,easy,minus,dotcolour,alfa,,,81,0,V,R,
118,118,34,2,0,44,36,2948,['c'],1,left,['2'],5,626,[0.06542272],68,44,hard,minus,dotcolour,alfa,,,81,0,V,R,
119,119,35,2,0,33,47,1447,['n'],1,right,['3'],4,529,[-0.20165826],92,47,medium,minus,dotcolour,alfa,,,81,0,V,R,
120,120,36,2,0,36,44,1382,['n'],1,right,['3'],4,709,[-0.18439828],88,44,hard,minus,dotcolour,alfa,,,81,0,V,R,
121,121,37,2,0,47,33,1098,['n'],0,left,['3'],4,886,[-0.02137312],55,47,medium,minus,dotcolour,alfa,,,81,0,V,R,
122,122,38,2,0,33,47,1098,['c'],0,right,['3'],4,591,[-0.06742676],31,47,medium,minus,dotcolour,alfa,,,81,0,V,R,
123,123,39,2,0,33,47,914,['n'],1,right,['2'],5,796,[-0.05330626],63,47,medium,minus,dotcolour,alfa,,,81,0,V,R,
124,124,40,2,0,27,53,783,['n'],1,right,['1'],6,1286,[-0.23737458],87,53,easy,minus,dotcolour,alfa,,,81,0,V,R,
125,125,41,2,0,47,33,1765,['n'],0,left,['3'],4,389,[-0.13907971],88,47,medium,minus,dotcolour,alfa,,,81,0,V,R,
126,0,0,3,1,36,44,1350,['n'],1,right,['1'],6,623,[-0.06264187],95,44,hard,plus,dotcolour,alfa,,,81,0,V,R,
127,1,1,3,1,47,33,1865,['n'],0,left,['3'],4,412,[-0.11575301],100,47,medium,plus,dotcolour,alfa,,,81,0,V,R,
128,2,2,3,1,44,36,1931,['c'],1,left,['3'],4,943,[0.09196093],97,44,hard,plus,dotcolour,alfa,,,81,0,V,R,
129,3,3,3,1,44,36,1050,['n'],0,left,['1'],6,424,[-0.03418322],87,44,hard,plus,dotcolour,alfa,,,81,0,V,R,
130,4,4,3,1,47,33,1697,['c'],1,left,['3'],4,348,[0.04864965],95,47,medium,plus,dotcolour,alfa,,,81,0,V,R,
131,5,5,3,1,36,44,815,['n'],1,right,['1'],6,440,[-0.05392854],95,44,hard,plus,dotcolour,alfa,,,81,0,V,R,
132,6,6,3,1,27,53,765,['n'],1,right,['1'],6,344,[-0.08384699],99,53,easy,plus,dotcolour,alfa,,,81,0,V,R,
133,7,7,3,1,33,47,615,['n'],1,right,['1'],6,347,[-0.06824887],98,47,medium,plus,dotcolour,alfa,,,81,0,V,R,
134,8,8,3,1,33,47,565,['n'],1,right,['1'],6,247,[-0.12131564],100,47,medium,plus,dotcolour,alfa,,,81,0,V,R,
135,9,9,3,1,33,47,514,['n'],1,right,['1'],6,179,[-0.07757058],100,47,medium,plus,dotcolour,alfa,,,81,0,V,R,
136,10,10,3,1,53,27,732,['c'],1,left,['1'],6,239,[0.10042875],100,53,easy,plus,dotcolour,alfa,,,81,0,V,R,
137,11,11,3,1,44,36,933,['n'],0,left,['2'],5,505,[-0.02550761],78,44,hard,plus,dotcolour,alfa,,,81,0,V,R,
138,12,12,3,1,53,27,917,['c'],1,left,['1'],6,193,[0.12165353],100,53,easy,plus,dotcolour,alfa,,,81,0,V,R,
139,13,13,3,1,36,44,615,['n'],1,right,['1'],6,81,[-0.04974704],100,44,hard,plus,dotcolour,alfa,,,81,0,V,R,
140,14,14,3,1,53,27,582,['c'],1,left,['1'],6,80,[0.06373656],100,53,easy,plus,dotcolour,alfa,,,81,0,V,R,
141,15,15,3,1,33,47,598,['n'],1,right,['1'],6,174,[-0.14097825],100,47,medium,plus,dotcolour,alfa,,,81,0,V,R,
142,16,16,3,1,44,36,898,['c'],1,left,['1'],6,1444,[0.21403387],100,44,hard,plus,dotcolour,alfa,,,81,0,V,R,
143,17,17,3,1,47,33,815,['c'],1,left,['1'],6,307,[0.15831708],100,47,medium,plus,dotcolour,alfa,,,81,0,V,R,
144,18,18,3,1,27,53,565,['n'],1,right,['1'],6,625,[-0.18214255],100,53,easy,plus,dotcolour,alfa,,,81,0,V,R,
145,19,19,3,1,36,44,764,['n'],1,right,['1'],6,146,[-0.03254024],96,44,hard,plus,dotcolour,alfa,,,81,0,V,R,
146,20,20,3,1,27,53,666,['n'],1,right,['1'],6,195,[-0.09277629],100,53,easy,plus,dotcolour,alfa,,,81,0,V,R,
147,21,21,3,1,36,44,549,['n'],1,right,['1'],6,215,[-0.09904385],100,44,hard,plus,dotcolour,alfa,,,81,0,V,R,
148,22,22,3,1,33,47,481,['n'],1,right,['1'],6,179,[0.00943817],31,47,medium,plus,dotcolour,alfa,,,81,0,V,R,
149,23,23,3,1,53,27,882,['c'],1,left,['1'],6,242,[0.06891921],99,53,easy,plus,dotcolour,alfa,,,81,0,V,R,
150,24,24,3,1,33,47,466,['n'],1,right,['1'],6,231,[-0.12410691],100,47,medium,plus,dotcolour,alfa,,,81,0,V,R,
151,25,25,3,1,53,27,466,['n'],0,left,['9'],2,2196,[0.40742875],0,53,easy,plus,dotcolour,alfa,,,81,0,V,R,
152,26,26,3,1,44,36,931,['n'],0,left,['1'],6,183,[-0.0438795],98,44,hard,plus,dotcolour,alfa,,,81,0,V,R,
153,27,27,3,1,44,36,1381,['c'],1,left,['1'],6,1754,[0.3337594],100,44,hard,plus,dotcolour,alfa,,,81,0,V,R,
154,28,28,3,1,27,53,848,['n'],1,right,['1'],6,1154,[-0.26154981],100,53,easy,plus,dotcolour,alfa,,,81,0,V,R,
155,29,29,3,1,36,44,1182,['n'],1,right,['1'],6,438,[-0.23118633],100,44,hard,plus,dotcolour,alfa,,,81,0,V,R,
156,30,30,3,1,47,33,1449,['c'],1,left,['1'],6,196,[0.10234025],100,47,medium,plus,dotcolour,alfa,,,81,0,V,R,
157,31,31,3,1,53,27,848,['c'],1,left,['1'],6,259,[0.16825042],100,53,easy,plus,dotcolour,alfa,,,81,0,V,R,
158,32,32,3,1,27,53,598,['n'],1,right,['1'],6,186,[-0.04922572],98,53,easy,plus,dotcolour,alfa,,,81,0,V,R,
159,33,33,3,1,33,47,583,['n'],1,right,['1'],6,252,[-0.04718116],97,47,medium,plus,dotcolour,alfa,,,81,0,V,R,
160,34,34,3,1,44,36,682,['c'],1,left,['1'],6,232,[0.143097],100,44,hard,plus,dotcolour,alfa,,,81,0,V,R,
161,35,35,3,1,47,33,1433,['c'],1,left,['1'],6,191,[0.0708141],100,47,medium,plus,dotcolour,alfa,,,81,0,V,R,
162,36,36,3,1,27,53,599,['n'],1,right,['1'],6,145,[-0.03498987],96,53,easy,plus,dotcolour,alfa,,,81,0,V,R,
163,37,37,3,1,47,33,798,['c'],1,left,['1'],6,260,[0.07220656],99,47,medium,plus,dotcolour,alfa,,,81,0,V,R,
164,38,38,3,1,36,44,715,['n'],1,right,['1'],6,230,[-0.02235473],84,44,hard,plus,dotcolour,alfa,,,81,0,V,R,
165,39,39,3,1,53,27,549,['c'],1,left,['1'],6,272,[0.18177439],100,53,easy,plus,dotcolour,alfa,,,81,0,V,R,
166,40,40,3,1,47,33,832,['c'],1,left,['1'],6,229,[0.11864978],100,47,medium,plus,dotcolour,alfa,,,81,0,V,R,
167,41,41,3,1,27,53,615,['n'],1,right,['1'],6,180,[-0.10878307],100,53,easy,plus,dotcolour,alfa,,,81,0,V,R,
168,42,0,4,1,27,53,683,['n'],1,right,['1'],6,246,[-0.10342767],100,53,easy,plus,dotcolour,alfa,,,81,0,V,R,
169,43,1,4,1,53,27,714,['c'],1,left,['1'],6,226,[0.12401504],100,53,easy,plus,dotcolour,alfa,,,81,0,V,R,
170,44,2,4,1,53,27,681,['c'],1,left,['1'],6,366,[0.09816526],100,53,easy,plus,dotcolour,alfa,,,81,0,V,R,
171,45,3,4,1,33,47,665,['n'],1,right,['1'],6,262,[-0.10487416],100,47,medium,plus,dotcolour,alfa,,,81,0,V,R,
172,46,4,4,1,33,47,564,['n'],1,right,['1'],6,294,[-0.1222518],100,47,medium,plus,dotcolour,alfa,,,81,0,V,R,
173,47,5,4,1,47,33,1066,['n'],0,left,['1'],6,209,[0.00990203],31,47,medium,plus,dotcolour,alfa,,,81,0,V,R,
174,48,6,4,1,47,33,747,['c'],1,left,['1'],6,219,[0.07240264],100,47,medium,plus,dotcolour,alfa,,,81,0,V,R,
175,49,7,4,1,47,33,816,['c'],1,left,['1'],6,219,[0.10561412],100,47,medium,plus,dotcolour,alfa,,,81,0,V,R,
176,50,8,4,1,27,53,615,['n'],1,right,['1'],6,211,[-0.06349295],99,53,easy,plus,dotcolour,alfa,,,81,0,V,R,
177,51,9,4,1,36,44,799,['n'],1,right,['1'],6,212,[-0.06654028],99,44,hard,plus,dotcolour,alfa,,,81,0,V,R,
178,52,10,4,1,33,47,649,['n'],1,right,['1'],6,171,[-0.08420281],100,47,medium,plus,dotcolour,alfa,,,81,0,V,R,
179,53,11,4,1,36,44,766,['n'],1,right,['1'],6,199,[-0.03941133],96,44,hard,plus,dotcolour,alfa,,,81,0,V,R,
180,54,12,4,1,47,33,815,['c'],1,left,['1'],6,183,[0.08807084],100,47,medium,plus,dotcolour,alfa,,,81,0,V,R,
181,55,13,4,1,27,53,614,['c'],0,right,['9'],2,1785,[-0.04786569],22,53,easy,plus,dotcolour,alfa,,,81,0,V,R,
182,56,14,4,1,44,36,1198,['c'],1,left,['1'],6,234,[0.15551189],100,44,hard,plus,dotcolour,alfa,,,81,0,V,R,
183,57,15,4,1,33,47,666,['n'],1,right,['1'],6,135,[-0.07034672],100,47,medium,plus,dotcolour,alfa,,,81,0,V,R,
184,58,16,4,1,53,27,1249,['n'],0,left,['1'],6,177,[-0.05441624],99,53,easy,plus,dotcolour,alfa,,,81,0,V,R,
185,59,17,4,1,36,44,799,['n'],1,right,['1'],6,179,[-0.06777656],100,44,hard,plus,dotcolour,alfa,,,81,0,V,R,
186,60,18,4,1,47,33,566,['n'],0,left,['1'],6,262,[-0.04123911],95,47,medium,plus,dotcolour,alfa,,,81,0,V,R,
187,61,19,4,1,27,53,530,['n'],1,right,['1'],6,159,[-0.04991452],99,53,easy,plus,dotcolour,alfa,,,81,0,V,R,
188,62,20,4,1,27,53,533,['n'],1,right,['1'],6,309,[-0.07004027],99,53,easy,plus,dotcolour,alfa,,,81,0,V,R,
189,63,21,4,1,44,36,580,['n'],0,left,['1'],6,194,[-0.09855573],100,44,hard,plus,dotcolour,alfa,,,81,0,V,R,
190,64,22,4,1,36,44,532,['n'],1,right,['1'],6,110,[-0.12012679],100,44,hard,plus,dotcolour,alfa,,,81,0,V,R,
191,65,23,4,1,33,47,798,['n'],1,right,['1'],6,123,[-0.05379967],100,47,medium,plus,dotcolour,alfa,,,81,0,V,R,
192,66,24,4,1,33,47,632,['n'],1,right,['1'],6,174,[-0.10508693],100,47,medium,plus,dotcolour,alfa,,,81,0,V,R,
193,67,25,4,1,33,47,482,['n'],1,right,['1'],6,149,[-0.09689592],100,47,medium,plus,dotcolour,alfa,,,81,0,V,R,
194,68,26,4,1,27,53,466,['n'],1,right,['1'],6,142,[-0.14016635],100,53,easy,plus,dotcolour,alfa,,,81,0,V,R,
195,69,27,4,1,47,33,467,['n'],0,left,['1'],6,239,[-0.03620059],93,47,medium,plus,dotcolour,alfa,,,81,0,V,R,
196,70,28,4,1,36,44,632,['n'],1,right,['1'],6,541,[-0.06531411],96,44,hard,plus,dotcolour,alfa,,,81,0,V,R,
197,71,29,4,1,53,27,898,['c'],1,left,['1'],6,212,[0.08639802],100,53,easy,plus,dotcolour,alfa,,,81,0,V,R,
198,72,30,4,1,53,27,850,['c'],1,left,['1'],6,212,[0.10686126],100,53,easy,plus,dotcolour,alfa,,,81,0,V,R,
199,73,31,4,1,36,44,766,['n'],1,right,['1'],6,285,[-0.09713998],100,44,hard,plus,dotcolour,alfa,,,81,0,V,R,
200,74,32,4,1,44,36,849,['n'],0,left,['1'],6,329,[-0.08313574],99,44,hard,plus,dotcolour,alfa,,,81,0,V,R,
201,75,33,4,1,53,27,798,['c'],1,left,['1'],6,253,[-0.02183405],17,53,easy,plus,dotcolour,alfa,,,81,0,V,R,
202,76,34,4,1,53,27,832,['c'],1,left,['1'],6,235,[0.18161138],100,53,easy,plus,dotcolour,alfa,,,81,0,V,R,
203,77,35,4,1,44,36,664,['n'],0,left,['1'],6,136,[-0.06947724],100,44,hard,plus,dotcolour,alfa,,,81,0,V,R,
204,78,36,4,1,44,36,898,['n'],0,left,['1'],6,161,[-0.04812924],99,44,hard,plus,dotcolour,alfa,,,81,0,V,R,
205,79,37,4,1,44,36,780,['c'],1,left,['1'],6,156,[0.12937842],100,44,hard,plus,dotcolour,alfa,,,81,0,V,R,
206,80,38,4,1,27,53,515,['n'],1,right,['1'],6,130,[-0.09881435],100,53,easy,plus,dotcolour,alfa,,,81,0,V,R,
207,81,39,4,1,47,33,599,['c'],1,left,['1'],6,374,[0.07241636],99,47,medium,plus,dotcolour,alfa,,,81,0,V,R,
208,82,40,4,1,36,44,532,['n'],1,right,['1'],6,259,[-0.07554088],100,44,hard,plus,dotcolour,alfa,,,81,0,V,R,
209,83,41,4,1,44,36,582,['n'],0,left,['1'],6,186,[-0.08313235],100,44,hard,plus,dotcolour,alfa,,,81,0,V,R,
210,84,0,5,1,36,44,533,['n'],1,right,['1'],6,151,[-0.04824005],99,44,hard,plus,dotcolour,alfa,,,81,0,V,R,
211,85,1,5,1,44,36,599,['c'],1,left,['1'],6,186,[0.07447335],100,44,hard,plus,dotcolour,alfa,,,81,0,V,R,
212,86,2,5,1,27,53,383,['n'],1,right,['1'],6,205,[-0.04858082],98,53,easy,plus,dotcolour,alfa,,,81,0,V,R,
213,87,3,5,1,27,53,516,['n'],1,right,['1'],6,145,[-0.0835083],100,53,easy,plus,dotcolour,alfa,,,81,0,V,R,
214,88,4,5,1,27,53,467,['n'],1,right,['1'],6,138,[-0.02686457],93,53,easy,plus,dotcolour,alfa,,,81,0,V,R,
215,89,5,5,1,47,33,599,['c'],1,left,['1'],6,166,[0.10791497],100,47,medium,plus,dotcolour,alfa,,,81,0,V,R,
216,90,6,5,1,44,36,781,['c'],1,left,['1'],6,170,[0.07257746],100,44,hard,plus,dotcolour,alfa,,,81,0,V,R,
217,91,7,5,1,36,44,664,['c'],0,right,['1'],6,193,[0.1055953],100,44,hard,plus,dotcolour,alfa,,,81,0,V,R,
218,92,8,5,1,36,44,582,['n'],1,right,['1'],6,204,[-0.11590843],100,44,hard,plus,dotcolour,alfa,,,81,0,V,R,
219,93,9,5,1,27,53,447,['n'],1,right,['1'],6,139,[-0.07536507],100,53,easy,plus,dotcolour,alfa,,,81,0,V,R,
220,94,10,5,1,44,36,481,['n'],0,left,['1'],6,123,[-0.08327494],100,44,hard,plus,dotcolour,alfa,,,81,0,V,R,
221,95,11,5,1,53,27,399,['n'],0,left,['1'],6,152,[-0.09376373],100,53,easy,plus,dotcolour,alfa,,,81,0,V,R,
222,96,12,5,1,36,44,515,['n'],1,right,['1'],6,159,[-0.10159213],100,44,hard,plus,dotcolour,alfa,,,81,0,V,R,
223,97,13,5,1,33,47,414,['n'],1,right,['1'],6,160,[-0.07168231],100,47,medium,plus,dotcolour,alfa,,,81,0,V,R,
224,98,14,5,1,53,27,532,['n'],0,left,['2'],5,421,[-0.05763163],96,53,easy,plus,dotcolour,alfa,,,81,0,V,R,
225,99,15,5,1,27,53,399,['n'],1,right,['1'],6,166,[-0.10989565],100,53,easy,plus,dotcolour,alfa,,,81,0,V,R,
226,100,16,5,1,33,47,465,['n'],1,right,['1'],6,142,[-0.07500028],100,47,medium,plus,dotcolour,alfa,,,81,0,V,R,
227,101,17,5,1,33,47,365,['n'],1,right,['1'],6,235,[-0.08170907],100,47,medium,plus,dotcolour,alfa,,,81,0,V,R,
228,102,18,5,1,44,36,448,['n'],0,left,['1'],6,208,[-0.06851424],100,44,hard,plus,dotcolour,alfa,,,81,0,V,R,
229,103,19,5,1,47,33,482,['n'],0,left,['1'],6,541,[-0.03933472],87,47,medium,plus,dotcolour,alfa,,,81,0,V,R,
230,104,20,5,1,44,36,882,['n'],0,left,['1'],6,213,[-0.11273326],100,44,hard,plus,dotcolour,alfa,,,81,0,V,R,
231,105,21,5,1,33,47,515,['n'],1,right,['1'],6,193,[-0.1175873],100,47,medium,plus,dotcolour,alfa,,,81,0,V,R,
232,106,22,5,1,47,33,699,['n'],0,left,['2'],5,727,[0.00638203],43,47,medium,plus,dotcolour,alfa,,,81,0,V,R,
233,107,23,5,1,47,33,1063,['c'],1,left,['1'],6,176,[0.05245433],99,47,medium,plus,dotcolour,alfa,,,81,0,V,R,
234,108,24,5,1,47,33,713,['n'],0,left,['1'],6,221,[-0.10324131],100,47,medium,plus,dotcolour,alfa,,,81,0,V,R,
235,109,25,5,1,44,36,597,['c'],1,left,['1'],6,270,[0.16697339],100,44,hard,plus,dotcolour,alfa,,,81,0,V,R,
236,110,26,5,1,53,27,747,['c'],1,left,['1'],6,247,[0.1273188],100,53,easy,plus,dotcolour,alfa,,,81,0,V,R,
237,111,27,5,1,36,44,715,['n'],1,right,['1'],6,242,[-0.11498474],100,44,hard,plus,dotcolour,alfa,,,81,0,V,R,
238,112,28,5,1,53,27,797,['c'],1,left,['1'],6,281,[0.0914934],100,53,easy,plus,dotcolour,alfa,,,81,0,V,R,
239,113,29,5,1,33,47,615,['n'],1,right,['1'],6,238,[-0.12212999],100,47,medium,plus,dotcolour,alfa,,,81,0,V,R,
240,114,30,5,1,53,27,583,['c'],1,left,['1'],6,263,[0.20345011],100,53,easy,plus,dotcolour,alfa,,,81,0,V,R,
241,115,31,5,1,33,47,783,['n'],1,right,['1'],6,190,[-0.10428531],100,47,medium,plus,dotcolour,alfa,,,81,0,V,R,
242,116,32,5,1,53,27,599,['c'],1,left,['1'],6,248,[0.14079083],100,53,easy,plus,dotcolour,alfa,,,81,0,V,R,
243,117,33,5,1,27,53,649,['n'],1,right,['1'],6,205,[-0.09672402],100,53,easy,plus,dotcolour,alfa,,,81,0,V,R,
244,118,34,5,1,33,47,782,['n'],1,right,['1'],6,182,[-0.11130387],100,47,medium,plus,dotcolour,alfa,,,81,0,V,R,
245,119,35,5,1,36,44,600,['n'],1,right,['1'],6,200,[-0.08912271],100,44,hard,plus,dotcolour,alfa,,,81,0,V,R,
246,120,36,5,1,47,33,882,['c'],1,left,['1'],6,198,[0.09094257],100,47,medium,plus,dotcolour,alfa,,,81,0,V,R,
247,121,37,5,1,53,27,799,['c'],1,left,['1'],6,248,[0.0632027],99,53,easy,plus,dotcolour,alfa,,,81,0,V,R,
248,122,38,5,1,47,33,816,['c'],1,left,['1'],6,302,[0.06536946],99,47,medium,plus,dotcolour,alfa,,,81,0,V,R,
249,123,39,5,1,44,36,831,['c'],1,left,['1'],6,250,[0.08048918],100,44,hard,plus,dotcolour,alfa,,,81,0,V,R,
250,124,40,5,1,36,44,599,['n'],1,right,['1'],6,233,[-0.08928321],100,44,hard,plus,dotcolour,alfa,,,81,0,V,R,
251,125,41,5,1,27,53,566,['n'],1,right,['1'],6,138,[-0.10519135],100,53,easy,plus,dotcolour,alfa,,,81,0,V,R,
252,0,0,6,2,44,36,1250,['n'],0,left,['2'],5,681,[-0.05350525],64,44,hard,minus,dotcolour,alfa,,,81,0,V,R,
253,1,1,6,2,44,36,1031,['c'],1,left,['1'],6,222,[0.15436772],95,44,hard,minus,dotcolour,alfa,,,81,0,V,R,
254,2,2,6,2,44,36,632,['n'],0,left,['1'],6,181,[-0.04056488],70,44,hard,minus,dotcolour,alfa,,,81,0,V,R,
255,3,3,6,2,44,36,683,['n'],0,left,['9'],2,1595,[0.09886987],33,44,hard,minus,dotcolour,alfa,,,81,0,V,R,
256,4,4,6,2,47,33,1600,['c'],1,left,['1'],6,204,[0.12434092],92,47,medium,minus,dotcolour,alfa,,,81,0,V,R,
257,5,5,6,2,33,47,749,['n'],1,right,['1'],6,199,[-0.09586714],87,47,medium,minus,dotcolour,alfa,,,81,0,V,R,
258,6,6,6,2,53,27,666,['c'],1,left,['1'],6,230,[0.07533014],80,53,easy,minus,dotcolour,alfa,,,81,0,V,R,
259,7,7,6,2,53,27,948,['c'],1,left,['1'],6,200,[0.04731058],72,53,easy,minus,dotcolour,alfa,,,81,0,V,R,
260,8,8,6,2,36,44,699,['n'],1,right,['1'],6,149,[-0.14897195],97,44,hard,minus,dotcolour,alfa,,,81,0,V,R,
261,9,9,6,2,47,33,649,['n'],0,left,['1'],6,127,[-0.12295399],96,47,medium,minus,dotcolour,alfa,,,81,0,V,R,
262,10,10,6,2,47,33,581,['c'],1,left,['1'],6,131,[0.12567026],96,47,medium,minus,dotcolour,alfa,,,81,0,V,R,
263,11,11,6,2,53,27,933,['n'],0,left,['9'],2,810,[0.06883635],33,53,easy,minus,dotcolour,alfa,,,81,0,V,R,
264,12,12,6,2,27,53,849,['n'],1,right,['1'],6,393,[-0.0415825],64,53,easy,minus,dotcolour,alfa,,,81,0,V,R,
265,13,13,6,2,44,36,783,['c'],1,left,['1'],6,115,[0.03358469],71,44,hard,minus,dotcolour,alfa,,,81,0,V,R,
266,14,14,6,2,36,44,631,['n'],1,right,['1'],6,158,[-0.00906005],55,44,hard,minus,dotcolour,alfa,,,81,0,V,R,
267,15,15,6,2,33,47,665,['n'],1,right,['1'],6,86,[-0.05987512],86,47,medium,minus,dotcolour,alfa,,,81,0,V,R,
268,16,16,6,2,27,53,432,['n'],1,right,['1'],6,59,[-0.13720246],99,53,easy,minus,dotcolour,alfa,,,81,0,V,R,
269,17,17,6,2,36,44,383,['n'],1,right,['1'],6,170,[-0.08694789],87,44,hard,minus,dotcolour,alfa,,,81,0,V,R,
270,18,18,6,2,33,47,448,['n'],1,right,['1'],6,131,[-0.07258893],86,47,medium,minus,dotcolour,alfa,,,81,0,V,R,
271,19,19,6,2,33,47,466,['n'],1,right,['1'],6,188,[-0.08759567],86,47,medium,minus,dotcolour,alfa,,,81,0,V,R,
272,20,20,6,2,47,33,515,['n'],0,left,['1'],6,258,[0.02796426],38,47,medium,minus,dotcolour,alfa,,,81,0,V,R,
273,21,21,6,2,36,44,615,['n'],1,right,['1'],6,159,[-0.09151738],89,44,hard,minus,dotcolour,alfa,,,81,0,V,R,
274,22,22,6,2,33,47,566,['n'],1,right,['1'],6,123,[-0.06597805],84,47,medium,minus,dotcolour,alfa,,,81,0,V,R,
275,23,23,6,2,53,27,398,['n'],0,left,['9'],2,848,[-0.04163912],60,53,easy,minus,dotcolour,alfa,,,81,0,V,R,
276,24,24,6,2,33,47,1431,['c'],0,right,['1'],6,150,[0.05724013],79,47,medium,minus,dotcolour,alfa,,,81,0,V,R,
277,25,25,6,2,47,33,632,['n'],0,left,['1'],6,247,[-0.02331643],60,47,medium,minus,dotcolour,alfa,,,81,0,V,R,
278,26,26,6,2,36,44,1117,['c'],0,right,['1'],6,66,[0.07294895],93,44,hard,minus,dotcolour,alfa,,,81,0,V,R,
279,27,27,6,2,53,27,614,['c'],1,left,['1'],6,128,[0.00300188],52,53,easy,minus,dotcolour,alfa,,,81,0,V,R,
280,28,28,6,2,53,27,398,['c'],1,left,['1'],6,188,[0.05764446],77,53,easy,minus,dotcolour,alfa,,,81,0,V,R,
281,29,29,6,2,27,53,482,['n'],1,right,['1'],6,106,[-0.06784261],87,53,easy,minus,dotcolour,alfa,,,81,0,V,R,
282,30,30,6,2,47,33,680,['n'],0,left,['1'],6,140,[-0.06974225],84,47,medium,minus,dotcolour,alfa,,,81,0,V,R,
283,31,31,6,2,47,33,400,['n'],0,left,['1'],6,256,[-0.0552625],73,47,medium,minus,dotcolour,alfa,,,81,0,V,R,
284,32,32,6,2,33,47,465,['n'],1,right,['1'],6,125,[-0.13818312],97,47,medium,minus,dotcolour,alfa,,,81,0,V,R,
285,33,33,6,2,27,53,532,['n'],1,right,['1'],6,107,[-0.10029443],94,53,easy,minus,dotcolour,alfa,,,81,0,V,R,
286,34,34,6,2,36,44,964,['c'],0,right,['1'],6,1026,[-0.06612724],36,44,hard,minus,dotcolour,alfa,,,81,0,V,R,
287,35,35,6,2,53,27,680,['n'],0,left,['1'],6,150,[-0.04410975],74,53,easy,minus,dotcolour,alfa,,,81,0,V,R,
288,36,36,6,2,44,36,550,['c'],1,left,['1'],6,203,[0.15965983],96,44,hard,minus,dotcolour,alfa,,,81,0,V,R,
289,37,37,6,2,27,53,464,['n'],1,right,['1'],6,218,[-0.09428866],86,53,easy,minus,dotcolour,alfa,,,81,0,V,R,
290,38,38,6,2,27,53,500,['n'],1,right,['1'],6,198,[-0.08814667],86,53,easy,minus,dotcolour,alfa,,,81,0,V,R,
291,39,39,6,2,36,44,464,['n'],1,right,['1'],6,173,[-0.10530726],91,44,hard,minus,dotcolour,alfa,,,81,0,V,R,
292,40,40,6,2,27,53,399,['n'],1,right,['1'],6,168,[-0.07394826],84,53,easy,minus,dotcolour,alfa,,,81,0,V,R,
293,41,41,6,2,44,36,416,['n'],0,left,['1'],6,297,[-0.19482542],96,44,hard,minus,dotcolour,alfa,,,81,0,V,R,
294,42,0,7,2,47,33,1066,['n'],0,left,['1'],6,380,[-0.04321335],65,47,medium,minus,dotcolour,alfa,,,81,0,V,R,
295,43,1,7,2,36,44,498,['n'],1,right,['1'],6,130,[-0.12228064],95,44,hard,minus,dotcolour,alfa,,,81,0,V,R,
296,44,2,7,2,36,44,432,['n'],1,right,['1'],6,164,[-0.05153768],76,44,hard,minus,dotcolour,alfa,,,81,0,V,R,
297,45,3,7,2,53,27,1097,['c'],1,left,['1'],6,195,[0.08190888],84,53,easy,minus,dotcolour,alfa,,,81,0,V,R,
298,46,4,7,2,53,27,782,['n'],0,left,['1'],6,349,[-0.01633984],56,53,easy,minus,dotcolour,alfa,,,81,0,V,R,
299,47,5,7,2,33,47,615,['n'],1,right,['1'],6,152,[-0.09081296],89,47,medium,minus,dotcolour,alfa,,,81,0,V,R,
300,48,6,7,2,33,47,464,['n'],1,right,['1'],6,176,[-0.08419409],86,47,medium,minus,dotcolour,alfa,,,81,0,V,R,
301,49,7,7,2,47,33,349,['n'],0,left,['1'],6,436,[-0.12759012],85,47,medium,minus,dotcolour,alfa,,,81,0,V,R,
302,50,8,7,2,44,36,649,['c'],1,left,['1'],6,218,[0.11501575],90,44,hard,minus,dotcolour,alfa,,,81,0,V,R,
303,51,9,7,2,27,53,498,['n'],1,right,['1'],6,223,[-0.08085173],82,53,easy,minus,dotcolour,alfa,,,81,0,V,R,
304,52,10,7,2,53,27,615,['c'],1,left,['1'],6,175,[0.06365162],80,53,easy,minus,dotcolour,alfa,,,81,0,V,R,
305,53,11,7,2,27,53,365,['n'],1,right,['1'],6,170,[-0.11047413],92,53,easy,minus,dotcolour,alfa,,,81,0,V,R,
306,54,12,7,2,36,44,499,['n'],1,right,['1'],6,473,[-0.08130647],74,44,hard,minus,dotcolour,alfa,,,81,0,V,R,
307,55,13,7,2,36,44,548,['c'],0,right,['1'],6,337,[0.17232084],94,44,hard,minus,dotcolour,alfa,,,81,0,V,R,
308,56,14,7,2,53,27,348,['n'],0,left,['1'],6,295,[-0.01236507],55,53,easy,minus,dotcolour,alfa,,,81,0,V,R,
309,57,15,7,2,44,36,1616,['n'],0,left,['3'],4,1691,[0.01572392],47,44,hard,minus,dotcolour,alfa,,,81,0,V,R,
310,58,16,7,2,27,53,666,['n'],1,right,['1'],6,1022,[-0.24915583],90,53,easy,minus,dotcolour,alfa,,,81,0,V,R,
311,59,17,7,2,44,36,882,['c'],1,left,['1'],6,250,[0.0115492],55,44,hard,minus,dotcolour,alfa,,,81,0,V,R,
312,60,18,7,2,27,53,382,['n'],1,right,['1'],6,194,[-0.14410829],95,53,easy,minus,dotcolour,alfa,,,81,0,V,R,
313,61,19,7,2,44,36,599,['c'],1,left,['1'],6,228,[0.08930896],84,44,hard,minus,dotcolour,alfa,,,81,0,V,R,
314,62,20,7,2,27,53,416,['n'],1,right,['1'],6,155,[-0.08779308],88,53,easy,minus,dotcolour,alfa,,,81,0,V,R,
315,63,21,7,2,53,27,549,['c'],1,left,['1'],6,241,[0.10366691],87,53,easy,minus,dotcolour,alfa,,,81,0,V,R,
316,64,22,7,2,47,33,314,['n'],0,left,['1'],6,235,[-0.12350867],91,47,medium,minus,dotcolour,alfa,,,81,0,V,R,
317,65,23,7,2,27,53,415,['n'],1,right,['1'],6,163,[-0.11097755],92,53,easy,minus,dotcolour,alfa,,,81,0,V,R,
318,66,24,7,2,44,36,548,['n'],0,left,['1'],6,111,[-0.07742749],89,44,hard,minus,dotcolour,alfa,,,81,0,V,R,
319,67,25,7,2,36,44,432,['n'],1,right,['1'],6,171,[-0.11509996],92,44,hard,minus,dotcolour,alfa,,,81,0,V,R,
320,68,26,7,2,33,47,599,['n'],1,right,['1'],6,109,[-0.14194258],98,47,medium,minus,dotcolour,alfa,,,81,0,V,R,
321,69,27,7,2,53,27,331,['n'],0,left,['9'],2,700,[-0.11338459],77,53,easy,minus,dotcolour,alfa,,,81,0,V,R,
322,70,28,7,2,36,44,498,['n'],1,right,['1'],6,133,[-0.1303328],96,44,hard,minus,dotcolour,alfa,,,81,0,V,R,
323,71,29,7,2,47,33,314,['n'],0,left,['1'],6,397,[-0.13916548],88,47,medium,minus,dotcolour,alfa,,,81,0,V,R,
324,72,30,7,2,47,33,664,['c'],1,left,['1'],6,203,[0.15944658],96,47,medium,minus,dotcolour,alfa,,,81,0,V,R,
325,73,31,7,2,47,33,649,['n'],0,left,['2'],5,346,[-0.09253986],80,47,medium,minus,dotcolour,alfa,,,81,0,V,R,
326,74,32,7,2,53,27,615,['c'],1,left,['1'],6,213,[0.06780564],79,53,easy,minus,dotcolour,alfa,,,81,0,V,R,
327,75,33,7,2,44,36,698,['c'],1,left,['1'],6,201,[-0.00627663],47,44,hard,minus,dotcolour,alfa,,,81,0,V,R,
328,76,34,7,2,33,47,582,['n'],1,right,['1'],6,179,[-0.0738021],83,47,medium,minus,dotcolour,alfa,,,81,0,V,R,
329,77,35,7,2,33,47,432,['n'],1,right,['1'],6,180,[-0.11167148],91,47,medium,minus,dotcolour,alfa,,,81,0,V,R,
330,78,36,7,2,36,44,764,['n'],1,right,['1'],6,424,[-0.0615102],70,44,hard,minus,dotcolour,alfa,,,81,0,V,R,
331,79,37,7,2,33,47,532,['n'],1,right,['1'],6,411,[-0.12117885],85,47,medium,minus,dotcolour,alfa,,,81,0,V,R,
332,80,38,7,2,27,53,498,['n'],1,right,['1'],6,119,[-0.15325963],98,53,easy,minus,dotcolour,alfa,,,81,0,V,R,
333,81,39,7,2,47,33,1016,['c'],1,left,['1'],6,195,[0.04635207],72,47,medium,minus,dotcolour,alfa,,,81,0,V,R,
334,82,40,7,2,33,47,582,['n'],1,right,['1'],6,133,[-0.11082344],94,47,medium,minus,dotcolour,alfa,,,81,0,V,R,
335,83,41,7,2,44,36,415,['n'],0,left,['1'],6,152,[-0.0786453],86,44,hard,minus,dotcolour,alfa,,,81,0,V,R,
336,84,0,8,2,36,44,683,['n'],1,right,['1'],6,192,[-0.08287738],85,44,hard,minus,dotcolour,alfa,,,81,0,V,R,
337,85,1,8,2,44,36,432,['n'],0,left,['1'],6,129,[-0.06837399],85,44,hard,minus,dotcolour,alfa,,,81,0,V,R,
338,86,2,8,2,53,27,582,['c'],1,left,['1'],6,125,[0.0665855],84,53,easy,minus,dotcolour,alfa,,,81,0,V,R,
339,87,3,8,2,47,33,532,['n'],0,left,['1'],6,172,[-0.02360451],63,47,medium,minus,dotcolour,alfa,,,81,0,V,R,
340,88,4,8,2,27,53,549,['c'],0,right,['1'],6,464,[0.03399548],61,53,easy,minus,dotcolour,alfa,,,81,0,V,R,
341,89,5,8,2,47,33,798,['n'],0,left,['1'],6,479,[-0.02138078],57,47,medium,minus,dotcolour,alfa,,,81,0,V,R,
342,90,6,8,2,36,44,532,['n'],1,right,['1'],6,120,[-0.04695347],77,44,hard,minus,dotcolour,alfa,,,81,0,V,R,
343,91,7,8,2,44,36,698,['c'],1,left,['1'],6,153,[0.02094222],62,44,hard,minus,dotcolour,alfa,,,81,0,V,R,
344,92,8,8,2,44,36,665,['c'],1,left,['1'],6,137,[0.07926111],87,44,hard,minus,dotcolour,alfa,,,81,0,V,R,
345,93,9,8,2,44,36,883,['n'],0,left,['1'],6,98,[-0.06916988],88,44,hard,minus,dotcolour,alfa,,,81,0,V,R,
346,94,10,8,2,27,53,549,['n'],1,right,['1'],6,113,[-0.09673189],93,53,easy,minus,dotcolour,alfa,,,81,0,V,R,
347,95,11,8,2,53,27,599,['c'],1,left,['1'],6,110,[0.07203456],88,53,easy,minus,dotcolour,alfa,,,81,0,V,R,
348,96,12,8,2,36,44,481,['n'],1,right,['2'],5,839,[-0.06493765],65,44,hard,minus,dotcolour,alfa,,,81,0,V,R,
349,97,13,8,2,36,44,698,['n'],1,right,['1'],6,194,[-0.0711845],81,44,hard,minus,dotcolour,alfa,,,81,0,V,R,
350,98,14,8,2,47,33,733,['c'],1,left,['1'],6,174,[0.13010246],94,47,medium,minus,dotcolour,alfa,,,81,0,V,R,
351,99,15,8,2,33,47,647,['n'],1,right,['1'],6,182,[-0.13969205],95,47,medium,minus,dotcolour,alfa,,,81,0,V,R,
352,100,16,8,2,36,44,515,['n'],1,right,['1'],6,148,[-0.08688669],88,44,hard,minus,dotcolour,alfa,,,81,0,V,R,
353,101,17,8,2,27,53,465,['n'],1,right,['1'],6,381,[-0.11446143],84,53,easy,minus,dotcolour,alfa,,,81,0,V,R,
354,102,18,8,2,33,47,465,['n'],1,right,['1'],6,100,[-0.11254532],96,47,medium,minus,dotcolour,alfa,,,81,0,V,R,
355,103,19,8,2,53,27,733,['c'],1,left,['1'],6,108,[0.09675208],93,53,easy,minus,dotcolour,alfa,,,81,0,V,R,
356,104,20,8,2,33,47,348,['n'],1,right,['1'],6,115,[-0.06507278],85,47,medium,minus,dotcolour,alfa,,,81,0,V,R,
357,105,21,8,2,53,27,532,['n'],0,left,['1'],6,194,[0.01088383],44,53,easy,minus,dotcolour,alfa,,,81,0,V,R,
358,106,22,8,2,33,47,515,['n'],1,right,['1'],6,167,[-0.13228625],95,47,medium,minus,dotcolour,alfa,,,81,0,V,R,
359,107,23,8,2,44,36,465,['n'],0,left,['1'],6,303,[-0.04116534],66,44,hard,minus,dotcolour,alfa,,,81,0,V,R,
360,108,24,8,2,36,44,498,['n'],1,right,['1'],6,273,[-0.18116492],96,44,hard,minus,dotcolour,alfa,,,81,0,V,R,
361,109,25,8,2,53,27,632,['c'],1,left,['1'],6,237,[0.21246805],98,53,easy,minus,dotcolour,alfa,,,81,0,V,R,
362,110,26,8,2,36,44,499,['n'],1,right,['1'],6,185,[-0.09148944],87,44,hard,minus,dotcolour,alfa,,,81,0,V,R,
363,111,27,8,2,27,53,466,['n'],1,right,['1'],6,145,[-0.13061679],96,53,easy,minus,dotcolour,alfa,,,81,0,V,R,
364,112,28,8,2,47,33,748,['n'],0,left,['1'],6,294,[-0.05763788],72,47,medium,minus,dotcolour,alfa,,,81,0,V,R,
365,113,29,8,2,47,33,449,['n'],0,left,['1'],6,426,[-0.0356668],62,47,medium,minus,dotcolour,alfa,,,81,0,V,R,
366,114,30,8,2,44,36,483,['n'],0,left,['1'],6,126,[-0.09304553],91,44,hard,minus,dotcolour,alfa,,,81,0,V,R,
367,115,31,8,2,47,33,431,['n'],0,left,['2'],5,513,[-0.0240578],58,47,medium,minus,dotcolour,alfa,,,81,0,V,R,
368,116,32,8,2,27,53,500,['n'],1,right,['1'],6,153,[-0.0805033],86,53,easy,minus,dotcolour,alfa,,,81,0,V,R,
369,117,33,8,2,33,47,583,['n'],1,right,['1'],6,309,[-0.05471031],71,47,medium,minus,dotcolour,alfa,,,81,0,V,R,
370,118,34,8,2,27,53,482,['n'],1,right,['1'],6,126,[-0.09534357],92,53,easy,minus,dotcolour,alfa,,,81,0,V,R,
371,119,35,8,2,33,47,498,['n'],1,right,['1'],6,263,[-0.10131246],86,47,medium,minus,dotcolour,alfa,,,81,0,V,R,
372,120,36,8,2,53,27,1099,['c'],1,left,['1'],6,209,[0.17039321],97,53,easy,minus,dotcolour,alfa,,,81,0,V,R,
373,121,37,8,2,27,53,531,['n'],1,right,['1'],6,157,[-0.07161035],84,53,easy,minus,dotcolour,alfa,,,81,0,V,R,
374,122,38,8,2,44,36,882,['c'],1,left,['1'],6,165,[0.1166344],93,44,hard,minus,dotcolour,alfa,,,81,0,V,R,
375,123,39,8,2,53,27,649,['c'],1,left,['1'],6,181,[0.15564458],96,53,easy,minus,dotcolour,alfa,,,81,0,V,R,
376,124,40,8,2,47,33,881,['c'],1,left,['1'],6,148,[0.09067443],89,47,medium,minus,dotcolour,alfa,,,81,0,V,R,
377,125,41,8,2,33,47,564,['n'],1,right,['1'],6,257,[-0.0810538],81,47,medium,minus,dotcolour,alfa,,,81,0,V,R,
378,0,0,9,3,27,53,650,['n'],1,right,['1'],6,135,[-0.07636867],100,53,easy,plus,dotcolour,alfa,,,81,0,V,R,
379,1,1,9,3,33,47,498,['n'],1,right,['1'],6,159,[-0.10389031],100,47,medium,plus,dotcolour,alfa,,,81,0,V,R,
380,2,2,9,3,36,44,466,['n'],1,right,['1'],6,151,[-0.09986608],100,44,hard,plus,dotcolour,alfa,,,81,0,V,R,
381,3,3,9,3,47,33,682,['c'],1,left,['1'],6,175,[0.06618021],100,47,medium,plus,dotcolour,alfa,,,81,0,V,R,
382,4,4,9,3,33,47,448,['n'],1,right,['1'],6,95,[-0.0966677],100,47,medium,plus,dotcolour,alfa,,,81,0,V,R,
383,5,5,9,3,36,44,700,['n'],1,right,['1'],6,192,[-0.02982428],92,44,hard,plus,dotcolour,alfa,,,81,0,V,R,
384,6,6,9,3,44,36,615,['c'],1,left,['1'],6,145,[0.09359778],100,44,hard,plus,dotcolour,alfa,,,81,0,V,R,
385,7,7,9,3,27,53,516,['n'],1,right,['1'],6,152,[-0.12698041],100,53,easy,plus,dotcolour,alfa,,,81,0,V,R,
386,8,8,9,3,47,33,515,['c'],1,left,['1'],6,215,[0.08418212],100,47,medium,plus,dotcolour,alfa,,,81,0,V,R,
387,9,9,9,3,53,27,616,['c'],1,left,['1'],6,223,[0.169597],100,53,easy,plus,dotcolour,alfa,,,81,0,V,R,
388,10,10,9,3,33,47,515,['n'],1,right,['1'],6,250,[-0.07136222],99,47,medium,plus,dotcolour,alfa,,,81,0,V,R,
389,11,11,9,3,27,53,532,['n'],1,right,['1'],6,219,[-0.12360683],100,53,easy,plus,dotcolour,alfa,,,81,0,V,R,
390,12,12,9,3,53,27,733,['c'],1,left,['1'],6,239,[0.04900456],97,53,easy,plus,dotcolour,alfa,,,81,0,V,R,
391,13,13,9,3,27,53,598,['n'],1,right,['1'],6,191,[-0.09195984],100,53,easy,plus,dotcolour,alfa,,,81,0,V,R,
392,14,14,9,3,44,36,582,['n'],0,left,['1'],6,169,[-0.09982513],100,44,hard,plus,dotcolour,alfa,,,81,0,V,R,
393,15,15,9,3,47,33,882,['n'],0,left,['1'],6,280,[0.03168315],10,47,medium,plus,dotcolour,alfa,,,81,0,V,R,
394,16,16,9,3,47,33,1783,['n'],0,left,['1'],6,119,[-0.00929683],73,47,medium,plus,dotcolour,alfa,,,81,0,V,R,
395,17,17,9,3,33,47,566,['n'],1,right,['1'],6,157,[-0.09223384],100,47,medium,plus,dotcolour,alfa,,,81,0,V,R,
396,18,18,9,3,27,53,450,['n'],1,right,['1'],6,118,[-0.03119],96,53,easy,plus,dotcolour,alfa,,,81,0,V,R,
397,19,19,9,3,33,47,481,['n'],1,right,['1'],6,135,[-0.1125037],100,47,medium,plus,dotcolour,alfa,,,81,0,V,R,
398,20,20,9,3,27,53,383,['n'],1,right,['1'],6,131,[-0.07057222],100,53,easy,plus,dotcolour,alfa,,,81,0,V,R,
399,21,21,9,3,27,53,465,['n'],1,right,['1'],6,164,[-0.06080783],100,53,easy,plus,dotcolour,alfa,,,81,0,V,R,
400,22,22,9,3,53,27,832,['c'],1,left,['1'],6,230,[0.07077685],100,53,easy,plus,dotcolour,alfa,,,81,0,V,R,
401,23,23,9,3,47,33,516,['n'],0,left,['1'],6,313,[-0.09694195],100,47,medium,plus,dotcolour,alfa,,,81,0,V,R,
402,24,24,9,3,47,33,565,['n'],0,left,['1'],6,375,[-0.03068824],86,47,medium,plus,dotcolour,alfa,,,81,0,V,R,
403,25,25,9,3,33,47,399,['n'],1,right,['1'],6,201,[-0.1075155],100,47,medium,plus,dotcolour,alfa,,,81,0,V,R,
404,26,26,9,3,36,44,463,['n'],1,right,['1'],6,168,[-0.11383262],100,44,hard,plus,dotcolour,alfa,,,81,0,V,R,
405,27,27,9,3,53,27,549,['c'],1,left,['1'],6,228,[0.02746112],89,53,easy,plus,dotcolour,alfa,,,81,0,V,R,
406,28,28,9,3,33,47,481,['n'],1,right,['1'],6,201,[-0.14174144],100,47,medium,plus,dotcolour,alfa,,,81,0,V,R,
407,29,29,9,3,44,36,582,['c'],1,left,['1'],6,955,[-0.03853877],19,44,hard,plus,dotcolour,alfa,,,81,0,V,R,
408,30,30,9,3,47,33,1217,['c'],1,left,['1'],6,165,[0.11458644],100,47,medium,plus,dotcolour,alfa,,,81,0,V,R,
409,31,31,9,3,44,36,1549,['c'],1,left,['3'],4,826,[0.24034903],100,44,hard,plus,dotcolour,alfa,,,81,0,V,R,
410,32,32,9,3,36,44,599,['n'],1,right,['1'],6,178,[-0.05978594],99,44,hard,plus,dotcolour,alfa,,,81,0,V,R,
411,33,33,9,3,53,27,916,['c'],1,left,['1'],6,239,[0.14972433],100,53,easy,plus,dotcolour,alfa,,,81,0,V,R,
412,34,34,9,3,36,44,533,['n'],1,right,['1'],6,193,[-0.18685436],100,44,hard,plus,dotcolour,alfa,,,81,0,V,R,
413,35,35,9,3,44,36,532,['n'],0,left,['1'],6,198,[-0.09807482],100,44,hard,plus,dotcolour,alfa,,,81,0,V,R,
414,36,36,9,3,36,44,531,['n'],1,right,['2'],5,593,[-0.04805529],90,44,hard,plus,dotcolour,alfa,,,81,0,V,R,
415,37,37,9,3,44,36,865,['c'],1,left,['1'],6,152,[0.06090212],100,44,hard,plus,dotcolour,alfa,,,81,0,V,R,
416,38,38,9,3,53,27,648,['c'],1,left,['1'],6,194,[0.13661522],100,53,easy,plus,dotcolour,alfa,,,81,0,V,R,
417,39,39,9,3,36,44,565,['n'],1,right,['1'],6,204,[-0.06322747],99,44,hard,plus,dotcolour,alfa,,,81,0,V,R,
418,40,40,9,3,53,27,515,['c'],1,left,['1'],6,208,[0.1919963],100,53,easy,plus,dotcolour,alfa,,,81,0,V,R,
419,41,41,9,3,44,36,434,['n'],0,left,['1'],6,336,[-0.04549882],94,44,hard,plus,dotcolour,alfa,,,81,0,V,R,
420,42,0,10,3,27,53,583,['n'],1,right,['1'],6,125,[-0.06630553],100,53,easy,plus,dotcolour,alfa,,,81,0,V,R,
421,43,1,10,3,36,44,582,['c'],0,right,['1'],6,314,[-0.02936163],13,44,hard,plus,dotcolour,alfa,,,81,0,V,R,
422,44,2,10,3,27,53,383,['n'],1,right,['1'],6,127,[-0.11622553],100,53,easy,plus,dotcolour,alfa,,,81,0,V,R,
423,45,3,10,3,33,47,399,['n'],1,right,['1'],6,139,[-0.07408501],100,47,medium,plus,dotcolour,alfa,,,81,0,V,R,
424,46,4,10,3,47,33,799,['c'],1,left,['1'],6,150,[0.13376969],100,47,medium,plus,dotcolour,alfa,,,81,0,V,R,
425,47,5,10,3,27,53,383,['n'],1,right,['1'],6,106,[-0.08635706],100,53,easy,plus,dotcolour,alfa,,,81,0,V,R,
426,48,6,10,3,27,53,566,['n'],1,right,['1'],6,145,[-0.05926833],100,53,easy,plus,dotcolour,alfa,,,81,0,V,R,
427,49,7,10,3,44,36,465,['n'],0,left,['1'],6,98,[-0.02835297],96,44,hard,plus,dotcolour,alfa,,,81,0,V,R,
428,50,8,10,3,33,47,382,['n'],1,right,['1'],6,120,[-0.09533622],100,47,medium,plus,dotcolour,alfa,,,81,0,V,R,
429,51,9,10,3,53,27,366,['n'],0,left,['9'],2,1093,[0.14518345],1,53,easy,plus,dotcolour,alfa,,,81,0,V,R,
430,52,10,10,3,47,33,2882,['n'],0,left,['3'],4,423,[-0.00699605],60,47,medium,plus,dotcolour,alfa,,,81,0,V,R,
431,53,11,10,3,36,44,633,['n'],1,right,['1'],6,814,[-0.04721478],87,44,hard,plus,dotcolour,alfa,,,81,0,V,R,
432,54,12,10,3,44,36,915,['n'],0,left,['1'],6,305,[-0.13457254],100,44,hard,plus,dotcolour,alfa,,,81,0,V,R,
433,55,13,10,3,47,33,965,['c'],1,left,['1'],6,128,[0.0975479],100,47,medium,plus,dotcolour,alfa,,,81,0,V,R,
434,56,14,10,3,33,47,582,['n'],1,right,['1'],6,109,[-0.03654218],98,47,medium,plus,dotcolour,alfa,,,81,0,V,R,
435,57,15,10,3,44,36,580,['n'],0,left,['1'],6,954,[0.12687601],1,44,hard,plus,dotcolour,alfa,,,81,0,V,R,
436,58,16,10,3,53,27,616,['c'],1,left,['1'],6,132,[0.11574825],100,53,easy,plus,dotcolour,alfa,,,81,0,V,R,
437,59,17,10,3,47,33,615,['n'],0,left,['1'],6,144,[-0.03674555],97,47,medium,plus,dotcolour,alfa,,,81,0,V,R,
438,60,18,10,3,44,36,698,['c'],1,left,['1'],6,135,[0.04574331],99,44,hard,plus,dotcolour,alfa,,,81,0,V,R,
439,61,19,10,3,36,44,532,['n'],1,right,['1'],6,126,[-0.09875578],100,44,hard,plus,dotcolour,alfa,,,81,0,V,R,
440,62,20,10,3,36,44,599,['c'],0,right,['0'],1,1594,[0.0788068],90,44,hard,plus,dotcolour,alfa,,,81,0,V,R,
441,63,21,10,3,53,27,982,['c'],1,left,['1'],6,155,[0.04556811],98,53,easy,plus,dotcolour,alfa,,,81,0,V,R,
442,64,22,10,3,36,44,1232,['c'],0,right,['1'],6,180,[0.05711135],99,44,hard,plus,dotcolour,alfa,,,81,0,V,R,
443,65,23,10,3,33,47,598,['n'],1,right,['1'],6,294,[-0.10209889],100,47,medium,plus,dotcolour,alfa,,,81,0,V,R,
444,66,24,10,3,27,53,500,['n'],1,right,['1'],6,160,[-0.07476479],100,53,easy,plus,dotcolour,alfa,,,81,0,V,R,
445,67,25,10,3,44,36,466,['n'],0,left,['1'],6,208,[-0.07351783],100,44,hard,plus,dotcolour,alfa,,,81,0,V,R,
446,68,26,10,3,53,27,731,['c'],1,left,['1'],6,171,[0.1377932],100,53,easy,plus,dotcolour,alfa,,,81,0,V,R,
447,69,27,10,3,47,33,765,['n'],0,left,['1'],6,359,[-0.03278691],88,47,medium,plus,dotcolour,alfa,,,81,0,V,R,
448,70,28,10,3,44,36,1082,['n'],0,left,['1'],6,614,[-0.07185449],96,44,hard,plus,dotcolour,alfa,,,81,0,V,R,
449,71,29,10,3,33,47,532,['n'],1,right,['1'],6,90,[-0.05715215],100,47,medium,plus,dotcolour,alfa,,,81,0,V,R,
450,72,30,10,3,44,36,464,['n'],0,left,['1'],6,141,[-0.04571336],99,44,hard,plus,dotcolour,alfa,,,81,0,V,R,
451,73,31,10,3,27,53,514,['n'],1,right,['1'],6,124,[-0.05047233],99,53,easy,plus,dotcolour,alfa,,,81,0,V,R,
452,74,32,10,3,47,33,332,['n'],0,left,['0'],1,803,[0.01801828],33,47,medium,plus,dotcolour,alfa,,,81,0,V,R,
453,75,33,10,3,53,27,799,['c'],1,left,['1'],6,108,[0.07506987],100,53,easy,plus,dotcolour,alfa,,,81,0,V,R,
454,76,34,10,3,33,47,649,['c'],0,right,['0'],1,823,[0.01797894],67,47,medium,plus,dotcolour,alfa,,,81,0,V,R,
455,77,35,10,3,53,27,1332,['c'],1,left,['1'],6,90,[0.02429065],95,53,easy,plus,dotcolour,alfa,,,81,0,V,R,
456,78,36,10,3,47,33,1098,['n'],0,left,['1'],6,172,[-0.04224205],98,47,medium,plus,dotcolour,alfa,,,81,0,V,R,
457,79,37,10,3,36,44,1332,['n'],1,right,['1'],6,98,[-0.10463398],100,44,hard,plus,dotcolour,alfa,,,81,0,V,R,
458,80,38,10,3,53,27,715,['c'],1,left,['1'],6,154,[0.08258849],100,53,easy,plus,dotcolour,alfa,,,81,0,V,R,
459,81,39,10,3,27,53,765,['n'],1,right,['1'],6,127,[-0.13513366],100,53,easy,plus,dotcolour,alfa,,,81,0,V,R,
460,82,40,10,3,33,47,664,['n'],1,right,['1'],6,96,[-0.10338118],100,47,medium,plus,dotcolour,alfa,,,81,0,V,R,
461,83,41,10,3,36,44,416,['n'],1,right,['1'],6,109,[-0.09762606],100,44,hard,plus,dotcolour,alfa,,,81,0,V,R,
462,84,0,11,3,44,36,866,['n'],0,left,['1'],6,69,[-0.09589987],100,44,hard,plus,dotcolour,alfa,,,81,0,V,R,
463,85,1,11,3,53,27,482,['n'],0,left,['1'],6,216,[-0.00833415],66,53,easy,plus,dotcolour,alfa,,,81,0,V,R,
464,86,2,11,3,33,47,666,['n'],1,right,['1'],6,126,[-0.09610296],100,47,medium,plus,dotcolour,alfa,,,81,0,V,R,
465,87,3,11,3,47,33,782,['c'],1,left,['1'],6,131,[0.05477153],100,47,medium,plus,dotcolour,alfa,,,81,0,V,R,
466,88,4,11,3,36,44,831,['n'],1,right,['1'],6,118,[-0.0537619],100,44,hard,plus,dotcolour,alfa,,,81,0,V,R,
467,89,5,11,3,47,33,732,['c'],1,left,['1'],6,181,[0.0608961],99,47,medium,plus,dotcolour,alfa,,,81,0,V,R,
468,90,6,11,3,33,47,547,['n'],1,right,['1'],6,97,[-0.08661],100,47,medium,plus,dotcolour,alfa,,,81,0,V,R,
469,91,7,11,3,44,36,832,['c'],1,left,['1'],6,93,[0.09376347],100,44,hard,plus,dotcolour,alfa,,,81,0,V,R,
470,92,8,11,3,47,33,583,['n'],0,left,['1'],6,123,[-0.11009687],100,47,medium,plus,dotcolour,alfa,,,81,0,V,R,
471,93,9,11,3,27,53,517,['n'],1,right,['1'],6,146,[-0.07960118],100,53,easy,plus,dotcolour,alfa,,,81,0,V,R,
472,94,10,11,3,33,47,482,['n'],1,right,['1'],6,138,[-0.0961846],100,47,medium,plus,dotcolour,alfa,,,81,0,V,R,
473,95,11,11,3,53,27,581,['c'],1,left,['1'],6,95,[0.0908245],100,53,easy,plus,dotcolour,alfa,,,81,0,V,R,
474,96,12,11,3,53,27,515,['c'],1,left,['1'],6,120,[0.03069981],96,53,easy,plus,dotcolour,alfa,,,81,0,V,R,
475,97,13,11,3,44,36,649,['c'],1,left,['1'],6,203,[0.06994788],100,44,hard,plus,dotcolour,alfa,,,81,0,V,R,
476,98,14,11,3,47,33,481,['c'],1,left,['1'],6,208,[0.08202158],100,47,medium,plus,dotcolour,alfa,,,81,0,V,R,
477,99,15,11,3,27,53,549,['n'],1,right,['1'],6,91,[-0.0099592],77,53,easy,plus,dotcolour,alfa,,,81,0,V,R,
478,100,16,11,3,44,36,579,['c'],1,left,['1'],6,186,[0.06316048],99,44,hard,plus,dotcolour,alfa,,,81,0,V,R,
479,101,17,11,3,53,27,582,['c'],1,left,['1'],6,172,[0.05771977],99,53,easy,plus,dotcolour,alfa,,,81,0,V,R,
480,102,18,11,3,53,27,582,['c'],1,left,['1'],6,223,[0.05491124],99,53,easy,plus,dotcolour,alfa,,,81,0,V,R,
481,103,19,11,3,47,33,481,['c'],1,left,['1'],6,372,[0.20169829],100,47,medium,plus,dotcolour,alfa,,,81,0,V,R,
482,104,20,11,3,33,47,515,['n'],1,right,['1'],6,138,[-0.10553567],100,47,medium,plus,dotcolour,alfa,,,81,0,V,R,
483,105,21,11,3,33,47,732,['n'],1,right,['1'],6,192,[-0.00915491],68,47,medium,plus,dotcolour,alfa,,,81,0,V,R,
484,106,22,11,3,44,36,699,['c'],1,left,['1'],6,245,[0.08263467],100,44,hard,plus,dotcolour,alfa,,,81,0,V,R,
485,107,23,11,3,36,44,715,['n'],1,right,['1'],6,208,[-0.15164789],100,44,hard,plus,dotcolour,alfa,,,81,0,V,R,
486,108,24,11,3,53,27,614,['c'],1,left,['1'],6,160,[0.05485605],99,53,easy,plus,dotcolour,alfa,,,81,0,V,R,
487,109,25,11,3,27,53,463,['n'],1,right,['1'],6,152,[-0.04665117],99,53,easy,plus,dotcolour,alfa,,,81,0,V,R,
488,110,26,11,3,44,36,481,['n'],0,left,['1'],6,352,[-0.19220686],100,44,hard,plus,dotcolour,alfa,,,81,0,V,R,
489,111,27,11,3,27,53,467,['n'],1,right,['1'],6,249,[-0.12269994],100,53,easy,plus,dotcolour,alfa,,,81,0,V,R,
490,112,28,11,3,53,27,533,['c'],1,left,['1'],6,187,[0.06761475],100,53,easy,plus,dotcolour,alfa,,,81,0,V,R,
491,113,29,11,3,27,53,450,['n'],1,right,['1'],6,98,[-0.04723667],100,53,easy,plus,dotcolour,alfa,,,81,0,V,R,
492,114,30,11,3,47,33,549,['c'],1,left,['1'],6,202,[0.07887681],100,47,medium,plus,dotcolour,alfa,,,81,0,V,R,
493,115,31,11,3,27,53,448,['n'],1,right,['1'],6,265,[-0.06046306],99,53,easy,plus,dotcolour,alfa,,,81,0,V,R,
494,116,32,11,3,36,44,483,['n'],1,right,['1'],6,196,[-0.13711304],100,44,hard,plus,dotcolour,alfa,,,81,0,V,R,
495,117,33,11,3,36,44,650,['c'],0,right,['1'],6,171,[0.06214581],100,44,hard,plus,dotcolour,alfa,,,81,0,V,R,
496,118,34,11,3,47,33,515,['n'],0,left,['1'],6,161,[-0.00302172],57,47,medium,plus,dotcolour,alfa,,,81,0,V,R,
497,119,35,11,3,36,44,583,['n'],1,right,['1'],6,124,[-0.07000264],100,44,hard,plus,dotcolour,alfa,,,81,0,V,R,
498,120,36,11,3,36,44,600,['n'],1,right,['1'],6,120,[-0.04274577],99,44,hard,plus,dotcolour,alfa,,,81,0,V,R,
499,121,37,11,3,33,47,483,['n'],1,right,['1'],6,121,[-0.12145258],100,47,medium,plus,dotcolour,alfa,,,81,0,V,R,
500,122,38,11,3,33,47,534,['n'],1,right,['1'],6,97,[-0.05391281],100,47,medium,plus,dotcolour,alfa,,,81,0,V,R,
501,123,39,11,3,44,36,515,['c'],1,left,['1'],6,161,[0.04445252],98,44,hard,plus,dotcolour,alfa,,,81,0,V,R,
502,124,40,11,3,27,53,548,['n'],1,right,['1'],6,166,[-0.07502923],100,53,easy,plus,dotcolour,alfa,,,81,0,V,R,
503,125,41,11,3,36,44,599,['c'],0,right,['1'],6,152,[0.08221579],100,44,hard,plus,dotcolour,alfa,,,81,0,V,R,
504,0,0,12,4,27,53,700,['n'],1,right,['1'],6,819,[-0.08966129],71,53,easy,minus,dotcolour,alfa,,,81,0,V,R,
505,1,1,12,4,44,36,947,['c'],1,left,['1'],6,181,[0.07816003],84,44,hard,minus,dotcolour,alfa,,,81,0,V,R,
506,2,2,12,4,33,47,698,['c'],0,right,['0'],1,955,[0.05265059],62,47,medium,minus,dotcolour,alfa,,,81,0,V,R,
507,3,3,12,4,47,33,714,['c'],1,left,['1'],6,106,[0.05644902],83,47,medium,minus,dotcolour,alfa,,,81,0,V,R,
508,4,4,12,4,36,44,464,['n'],1,right,['1'],6,123,[-0.09112183],91,44,hard,minus,dotcolour,alfa,,,81,0,V,R,
509,5,5,12,4,44,36,615,['n'],0,left,['1'],6,103,[-0.13565542],98,44,hard,minus,dotcolour,alfa,,,81,0,V,R,
510,6,6,12,4,36,44,713,['c'],0,right,['1'],6,136,[-0.03098018],32,44,hard,minus,dotcolour,alfa,,,81,0,V,R,
511,7,7,12,4,53,27,665,['c'],1,left,['1'],6,81,[0.05377048],85,53,easy,minus,dotcolour,alfa,,,81,0,V,R,
512,8,8,12,4,33,47,498,['n'],1,right,['1'],6,84,[-0.03381162],74,47,medium,minus,dotcolour,alfa,,,81,0,V,R,
513,9,9,12,4,53,27,1000,['c'],1,left,['2'],5,417,[0.23198338],96,53,easy,minus,dotcolour,alfa,,,81,0,V,R,
514,10,10,12,4,53,27,915,['c'],1,left,['1'],6,150,[0.05830296],79,53,easy,minus,dotcolour,alfa,,,81,0,V,R,
515,11,11,12,4,36,44,799,['n'],1,right,['2'],5,401,[-0.0153028],55,44,hard,minus,dotcolour,alfa,,,81,0,V,R,
516,12,12,12,4,36,44,1114,['c'],0,right,['1'],6,277,[0.04981475],70,44,hard,minus,dotcolour,alfa,,,81,0,V,R,
517,13,13,12,4,47,33,1298,['n'],0,left,['2'],5,319,[-0.12673619],88,47,medium,minus,dotcolour,alfa,,,81,0,V,R,
518,14,14,12,4,36,44,599,['n'],1,right,['1'],6,236,[-0.01829879],58,44,hard,minus,dotcolour,alfa,,,81,0,V,R,
519,15,15,12,4,27,53,465,['n'],1,right,['1'],6,185,[-0.08530078],86,53,easy,minus,dotcolour,alfa,,,81,0,V,R,
520,16,16,12,4,33,47,465,['n'],1,right,['1'],6,129,[-0.00532044],53,47,medium,minus,dotcolour,alfa,,,81,0,V,R,
521,17,17,12,4,53,27,866,['c'],1,left,['1'],6,122,[0.1335166],97,53,easy,minus,dotcolour,alfa,,,81,0,V,R,
522,18,18,12,4,44,36,1597,['n'],0,left,['2'],5,319,[-0.01647714],57,44,hard,minus,dotcolour,alfa,,,81,0,V,R,
523,19,19,12,4,53,27,1432,['c'],1,left,['1'],6,122,[0.06665822],85,53,easy,minus,dotcolour,alfa,,,81,0,V,R,
524,20,20,12,4,33,47,633,['n'],1,right,['1'],6,157,[-0.10439205],91,47,medium,minus,dotcolour,alfa,,,81,0,V,R,
525,21,21,12,4,47,33,782,['c'],1,left,['1'],6,186,[0.08456143],85,47,medium,minus,dotcolour,alfa,,,81,0,V,R,
526,22,22,12,4,44,36,1513,['c'],1,left,['2'],5,206,[0.08592292],85,44,hard,minus,dotcolour,alfa,,,81,0,V,R,
527,23,23,12,4,53,27,1049,['c'],1,left,['1'],6,341,[0.12214039],87,53,easy,minus,dotcolour,alfa,,,81,0,V,R,
528,24,24,12,4,33,47,599,['n'],1,right,['1'],6,153,[-0.06183605],81,47,medium,minus,dotcolour,alfa,,,81,0,V,R,
529,25,25,12,4,33,47,797,['n'],1,right,['1'],6,132,[-0.06431478],83,47,medium,minus,dotcolour,alfa,,,81,0,V,R,
530,26,26,12,4,27,53,448,['n'],1,right,['1'],6,110,[-0.08807019],92,53,easy,minus,dotcolour,alfa,,,81,0,V,R,
531,27,27,12,4,33,47,449,['n'],1,right,['1'],6,97,[-0.04877541],80,47,medium,minus,dotcolour,alfa,,,81,0,V,R,
532,28,28,12,4,36,44,416,['n'],1,right,['1'],6,238,[-0.09195332],85,44,hard,minus,dotcolour,alfa,,,81,0,V,R,
533,29,29,12,4,27,53,348,['n'],1,right,['1'],6,127,[-0.17235011],99,53,easy,minus,dotcolour,alfa,,,81,0,V,R,
534,30,30,12,4,27,53,364,['n'],1,right,['1'],6,84,[-0.04945136],82,53,easy,minus,dotcolour,alfa,,,81,0,V,R,
535,31,31,12,4,27,53,282,['n'],1,right,['1'],6,263,[-0.06868835],77,53,easy,minus,dotcolour,alfa,,,81,0,V,R,
536,32,32,12,4,47,33,381,['n'],0,left,['1'],6,143,[0.01437786],42,47,medium,minus,dotcolour,alfa,,,81,0,V,R,
537,33,33,12,4,53,27,681,['n'],0,left,['1'],6,110,[-0.0625224],85,53,easy,minus,dotcolour,alfa,,,81,0,V,R,
538,34,34,12,4,36,44,498,['n'],1,right,['1'],6,87,[-0.11536248],97,44,hard,minus,dotcolour,alfa,,,81,0,V,R,
539,35,35,12,4,44,36,515,['n'],0,left,['1'],6,88,[-0.06404313],87,44,hard,minus,dotcolour,alfa,,,81,0,V,R,
540,36,36,12,4,44,36,399,['n'],0,left,['1'],6,159,[-0.01802721],60,44,hard,minus,dotcolour,alfa,,,81,0,V,R,
541,37,37,12,4,44,36,915,['n'],0,left,['1'],6,53,[-0.08209111],96,44,hard,minus,dotcolour,alfa,,,81,0,V,R,
542,38,38,12,4,27,53,416,['n'],1,right,['1'],6,83,[-0.05469502],85,53,easy,minus,dotcolour,alfa,,,81,0,V,R,
543,39,39,12,4,47,33,815,['c'],1,left,['1'],6,137,[0.10124061],92,47,medium,minus,dotcolour,alfa,,,81,0,V,R,
544,40,40,12,4,47,33,882,['c'],1,left,['1'],6,153,[0.04630536],74,47,medium,minus,dotcolour,alfa,,,81,0,V,R,
545,41,41,12,4,47,33,1199,['c'],1,left,['2'],5,284,[0.10687633],86,47,medium,minus,dotcolour,alfa,,,81,0,V,R,
546,42,0,13,4,53,27,751,['n'],0,left,['1'],6,49,[-0.05283463],90,53,easy,minus,dotcolour,alfa,,,81,0,V,R,
547,43,1,13,4,36,44,1249,['c'],0,right,['1'],6,47,[0.04264012],85,44,hard,minus,dotcolour,alfa,,,81,0,V,R,
548,44,2,13,4,33,47,782,['n'],1,right,['1'],6,87,[-0.11573408],97,47,medium,minus,dotcolour,alfa,,,81,0,V,R,
549,45,3,13,4,36,44,1082,['n'],1,right,['1'],6,73,[-0.05550783],86,44,hard,minus,dotcolour,alfa,,,81,0,V,R,
550,46,4,13,4,36,44,466,['n'],1,right,['1'],6,68,[-0.11191635],98,44,hard,minus,dotcolour,alfa,,,81,0,V,R,
551,47,5,13,4,47,33,466,['n'],0,left,['1'],6,97,[-0.10353226],95,47,medium,minus,dotcolour,alfa,,,81,0,V,R,
552,48,6,13,4,33,47,417,['n'],1,right,['1'],6,141,[-0.06338628],82,47,medium,minus,dotcolour,alfa,,,81,0,V,R,
553,49,7,13,4,44,36,531,['n'],0,left,['1'],6,348,[-0.10094769],82,44,hard,minus,dotcolour,alfa,,,81,0,V,R,
554,50,8,13,4,36,44,465,['n'],1,right,['1'],6,341,[-0.0221058],58,44,hard,minus,dotcolour,alfa,,,81,0,V,R,
555,51,9,13,4,27,53,401,['n'],1,right,['1'],6,136,[-0.08149522],88,53,easy,minus,dotcolour,alfa,,,81,0,V,R,
556,52,10,13,4,47,33,682,['n'],0,left,['2'],5,393,[-0.00067828],50,47,medium,minus,dotcolour,alfa,,,81,0,V,R,
557,53,11,13,4,44,36,632,['n'],0,left,['1'],6,280,[-0.09406674],83,44,hard,minus,dotcolour,alfa,,,81,0,V,R,
558,54,12,13,4,36,44,448,['n'],1,right,['1'],6,141,[-0.07949645],87,44,hard,minus,dotcolour,alfa,,,81,0,V,R,
559,55,13,13,4,44,36,965,['n'],0,left,['1'],6,161,[-0.01812254],60,44,hard,minus,dotcolour,alfa,,,81,0,V,R,
560,56,14,13,4,33,47,699,['n'],1,right,['2'],5,352,[-0.03418449],63,47,medium,minus,dotcolour,alfa,,,81,0,V,R,
561,57,15,13,4,27,53,530,['n'],1,right,['1'],6,126,[-0.12498992],96,53,easy,minus,dotcolour,alfa,,,81,0,V,R,
562,58,16,13,4,27,53,465,['n'],1,right,['1'],6,270,[-0.14533828],93,53,easy,minus,dotcolour,alfa,,,81,0,V,R,
563,59,17,13,4,47,33,1864,['n'],0,left,['3'],4,210,[0.00922955],45,47,medium,minus,dotcolour,alfa,,,81,0,V,R,
564,60,18,13,4,44,36,816,['n'],0,left,['2'],5,250,[-0.00796348],54,44,hard,minus,dotcolour,alfa,,,81,0,V,R,
565,61,19,13,4,33,47,465,['n'],1,right,['1'],6,455,[-0.18168861],92,47,medium,minus,dotcolour,alfa,,,81,0,V,R,
566,62,20,13,4,33,47,582,['n'],1,right,['1'],6,190,[-0.12207798],93,47,medium,minus,dotcolour,alfa,,,81,0,V,R,
567,63,21,13,4,47,33,948,['c'],1,left,['1'],6,217,[0.07727701],82,47,medium,minus,dotcolour,alfa,,,81,0,V,R,
568,64,22,13,4,44,36,832,['n'],0,left,['2'],5,545,[-0.06263577],68,44,hard,minus,dotcolour,alfa,,,81,0,V,R,
569,65,23,13,4,47,33,648,['n'],0,left,['2'],5,258,[-0.1513145],94,47,medium,minus,dotcolour,alfa,,,81,0,V,R,
570,66,24,13,4,27,53,447,['n'],1,right,['1'],6,295,[-0.13286667],90,53,easy,minus,dotcolour,alfa,,,81,0,V,R,
571,67,25,13,4,53,27,1032,['c'],1,left,['1'],6,147,[0.17128892],98,53,easy,minus,dotcolour,alfa,,,81,0,V,R,
572,68,26,13,4,53,27,1182,['c'],1,left,['1'],6,191,[0.14458047],95,53,easy,minus,dotcolour,alfa,,,81,0,V,R,
573,69,27,13,4,44,36,782,['n'],0,left,['1'],6,337,[-0.02750032],61,44,hard,minus,dotcolour,alfa,,,81,0,V,R,
574,70,28,13,4,27,53,548,['n'],1,right,['1'],6,399,[-0.25793423],98,53,easy,minus,dotcolour,alfa,,,81,0,V,R,
575,71,29,13,4,27,53,466,['n'],1,right,['1'],6,149,[-0.1096597],93,53,easy,minus,dotcolour,alfa,,,81,0,V,R,
576,72,30,13,4,47,33,632,['c'],1,left,['1'],6,159,[0.05361461],77,47,medium,minus,dotcolour,alfa,,,81,0,V,R,
577,73,31,13,4,33,47,449,['n'],1,right,['1'],6,152,[-0.0070916],54,47,medium,minus,dotcolour,alfa,,,81,0,V,R,
578,74,32,13,4,33,47,583,['n'],1,right,['1'],6,276,[-0.06588424],76,47,medium,minus,dotcolour,alfa,,,81,0,V,R,
579,75,33,13,4,36,44,483,['n'],1,right,['1'],6,167,[-0.05751462],78,44,hard,minus,dotcolour,alfa,,,81,0,V,R,
580,76,34,13,4,53,27,748,['c'],1,left,['1'],6,140,[0.12749811],96,53,easy,minus,dotcolour,alfa,,,81,0,V,R,
581,77,35,13,4,53,27,850,['c'],1,left,['1'],6,133,[0.15447056],98,53,easy,minus,dotcolour,alfa,,,81,0,V,R,
582,78,36,13,4,44,36,1149,['n'],0,left,['3'],4,1067,[-0.05167873],61,44,hard,minus,dotcolour,alfa,,,81,0,V,R,
583,79,37,13,4,27,53,582,['n'],1,right,['1'],6,106,[-0.13136568],97,53,easy,minus,dotcolour,alfa,,,81,0,V,R,
584,80,38,13,4,47,33,732,['c'],1,left,['1'],6,83,[0.03753346],76,47,medium,minus,dotcolour,alfa,,,81,0,V,R,
585,81,39,13,4,53,27,765,['c'],1,left,['1'],6,146,[0.07687535],86,53,easy,minus,dotcolour,alfa,,,81,0,V,R,
586,82,40,13,4,36,44,582,['n'],1,right,['2'],5,150,[-0.04566375],74,44,hard,minus,dotcolour,alfa,,,81,0,V,R,
587,83,41,13,4,53,27,783,['c'],1,left,['1'],6,178,[0.11760493],92,53,easy,minus,dotcolour,alfa,,,81,0,V,R,
588,84,0,14,4,47,33,683,['c'],1,left,['1'],6,286,[0.07083717],77,47,medium,minus,dotcolour,alfa,,,81,0,V,R,
589,85,1,14,4,33,47,649,['n'],1,right,['1'],6,170,[-0.10778671],91,47,medium,minus,dotcolour,alfa,,,81,0,V,R,
590,86,2,14,4,27,53,499,['n'],1,right,['1'],6,120,[-0.07522687],88,53,easy,minus,dotcolour,alfa,,,81,0,V,R,
591,87,3,14,4,53,27,566,['c'],1,left,['1'],6,158,[0.15526237],97,53,easy,minus,dotcolour,alfa,,,81,0,V,R,
592,88,4,14,4,36,44,598,['n'],1,right,['1'],6,130,[-0.07528398],87,44,hard,minus,dotcolour,alfa,,,81,0,V,R,
593,89,5,14,4,36,44,482,['n'],1,right,['1'],6,106,[-0.11232269],96,44,hard,minus,dotcolour,alfa,,,81,0,V,R,
594,90,6,14,4,27,53,399,['n'],1,right,['1'],6,127,[-0.10867005],94,53,easy,minus,dotcolour,alfa,,,81,0,V,R,
595,91,7,14,4,47,33,499,['c'],1,left,['1'],6,111,[0.05798802],83,47,medium,minus,dotcolour,alfa,,,81,0,V,R,
596,92,8,14,4,47,33,1132,['c'],1,left,['2'],5,375,[0.2079251],96,47,medium,minus,dotcolour,alfa,,,81,0,V,R,
597,93,9,14,4,47,33,982,['c'],1,left,['2'],5,201,[0.1139172],91,47,medium,minus,dotcolour,alfa,,,81,0,V,R,
598,94,10,14,4,44,36,1065,['n'],0,left,['1'],6,200,[-0.08385497],84,44,hard,minus,dotcolour,alfa,,,81,0,V,R,
599,95,11,14,4,36,44,565,['n'],1,right,['1'],6,411,[-0.15154198],89,44,hard,minus,dotcolour,alfa,,,81,0,V,R,
600,96,12,14,4,47,33,648,['c'],1,left,['1'],6,193,[0.03861175],69,47,medium,minus,dotcolour,alfa,,,81,0,V,R,
601,97,13,14,4,53,27,881,['c'],1,left,['1'],6,175,[0.07378033],83,53,easy,minus,dotcolour,alfa,,,81,0,V,R,
602,98,14,14,4,27,53,616,['n'],1,right,['1'],6,105,[-0.09222513],93,53,easy,minus,dotcolour,alfa,,,81,0,V,R,
603,99,15,14,4,44,36,850,['n'],0,left,['1'],6,236,[-0.03071468],64,44,hard,minus,dotcolour,alfa,,,81,0,V,R,
604,100,16,14,4,36,44,998,['n'],1,right,['1'],6,980,[0.00450029],49,44,hard,minus,dotcolour,alfa,,,81,0,V,R,
605,101,17,14,4,27,53,531,['n'],1,right,['1'],6,88,[-0.10262221],96,53,easy,minus,dotcolour,alfa,,,81,0,V,R,
606,102,18,14,4,53,27,599,['c'],1,left,['1'],6,126,[0.06293068],83,53,easy,minus,dotcolour,alfa,,,81,0,V,R,
607,103,19,14,4,33,47,448,['n'],1,right,['1'],6,111,[-0.13544373],97,47,medium,minus,dotcolour,alfa,,,81,0,V,R,
608,104,20,14,4,27,53,531,['n'],1,right,['1'],6,110,[-0.1480204],98,53,easy,minus,dotcolour,alfa,,,81,0,V,R,
609,105,21,14,4,33,47,448,['n'],1,right,['1'],6,97,[-0.10822235],96,47,medium,minus,dotcolour,alfa,,,81,0,V,R,
610,106,22,14,4,44,36,430,['n'],0,left,['1'],6,157,[-0.03113774],67,44,hard,minus,dotcolour,alfa,,,81,0,V,R,
611,107,23,14,4,44,36,448,['n'],0,left,['2'],5,727,[-0.03684237],60,44,hard,minus,dotcolour,alfa,,,81,0,V,R,
612,108,24,14,4,36,44,534,['n'],1,right,['3'],4,269,[-0.11229713],88,44,hard,minus,dotcolour,alfa,,,81,0,V,R,
613,109,25,14,4,36,44,532,['n'],1,right,['3'],4,151,[-0.05363202],78,44,hard,minus,dotcolour,alfa,,,81,0,V,R,
614,110,26,14,4,53,27,633,['c'],1,left,['1'],6,376,[0.07831812],76,53,easy,minus,dotcolour,alfa,,,81,0,V,R,
615,111,27,14,4,53,27,733,['c'],1,left,['1'],6,165,[0.1026055],91,53,easy,minus,dotcolour,alfa,,,81,0,V,R,
616,112,28,14,4,33,47,648,['n'],1,right,['1'],6,110,[-0.03928722],74,47,medium,minus,dotcolour,alfa,,,81,0,V,R,
617,113,29,14,4,27,53,549,['n'],1,right,['1'],6,244,[-0.00574849],53,53,easy,minus,dotcolour,alfa,,,81,0,V,R,
618,114,30,14,4,44,36,1598,['n'],0,left,['0'],1,1364,[0.21214124],16,44,hard,minus,dotcolour,alfa,,,81,0,V,R,
619,115,31,14,4,36,44,765,['n'],1,right,['1'],6,200,[-0.11328058],91,44,hard,minus,dotcolour,alfa,,,81,0,V,R,
620,116,32,14,4,27,53,815,['n'],1,right,['1'],6,97,[-0.06292825],86,53,easy,minus,dotcolour,alfa,,,81,0,V,R,
621,117,33,14,4,47,33,732,['c'],1,left,['1'],6,129,[0.10331227],93,47,medium,minus,dotcolour,alfa,,,81,0,V,R,
622,118,34,14,4,44,36,847,['n'],0,left,['1'],6,259,[-0.05068192],71,44,hard,minus,dotcolour,alfa,,,81,0,V,R,
623,119,35,14,4,33,47,464,['n'],1,right,['1'],6,111,[-0.13253402],97,47,medium,minus,dotcolour,alfa,,,81,0,V,R,
624,120,36,14,4,53,27,666,['c'],1,left,['1'],6,129,[0.13863533],97,53,easy,minus,dotcolour,alfa,,,81,0,V,R,
625,121,37,14,4,53,27,665,['n'],0,left,['0'],1,722,[0.05199984],37,53,easy,minus,dotcolour,alfa,,,81,0,V,R,
626,122,38,14,4,33,47,1099,['n'],1,right,['1'],6,290,[-0.11081546],86,47,medium,minus,dotcolour,alfa,,,81,0,V,R,
627,123,39,14,4,33,47,483,['n'],1,right,['1'],6,84,[-0.1234363],98,47,medium,minus,dotcolour,alfa,,,81,0,V,R,
628,124,40,14,4,44,36,583,['n'],0,left,['1'],6,123,[-0.09503193],92,44,hard,minus,dotcolour,alfa,,,81,0,V,R,
629,125,41,14,4,47,33,566,['c'],1,left,['1'],6,57,[0.06891643],93,47,medium,minus,dotcolour,alfa,,,81,0,V,R,
630,0,0,15,5,27,53,2049,['n'],1,right,['1'],6,660,[-0.137625],100,53,easy,plus,dotcolour,alfa,,,81,0,V,R,
631,1,1,15,5,27,53,532,['n'],1,right,['1'],6,277,[-0.09579467],100,53,easy,plus,dotcolour,alfa,,,81,0,V,R,
632,2,2,15,5,44,36,565,['n'],0,left,['1'],6,252,[-0.1360189],100,44,hard,plus,dotcolour,alfa,,,81,0,V,R,
633,3,3,15,5,44,36,664,['n'],0,left,['1'],6,297,[-0.0605352],98,44,hard,plus,dotcolour,alfa,,,81,0,V,R,
634,4,4,15,5,53,27,616,['c'],1,left,['1'],6,205,[0.15615772],100,53,easy,plus,dotcolour,alfa,,,81,0,V,R,
635,5,5,15,5,47,33,681,['n'],0,left,['1'],6,180,[0.0082106],33,47,medium,plus,dotcolour,alfa,,,81,0,V,R,
636,6,6,15,5,33,47,1115,['n'],1,right,['1'],6,169,[-0.04454313],98,47,medium,plus,dotcolour,alfa,,,81,0,V,R,
637,7,7,15,5,27,53,533,['n'],1,right,['1'],6,246,[-0.14078934],100,53,easy,plus,dotcolour,alfa,,,81,0,V,R,
638,8,8,15,5,27,53,498,['n'],1,right,['1'],6,153,[-0.14414533],100,53,easy,plus,dotcolour,alfa,,,81,0,V,R,
639,9,9,15,5,36,44,565,['n'],1,right,['1'],6,215,[0.00119917],48,44,hard,plus,dotcolour,alfa,,,81,0,V,R,
640,10,10,15,5,47,33,881,['n'],0,left,['1'],6,172,[-0.01557275],79,47,medium,plus,dotcolour,alfa,,,81,0,V,R,
641,11,11,15,5,53,27,798,['c'],1,left,['1'],6,223,[0.11966154],100,53,easy,plus,dotcolour,alfa,,,81,0,V,R,
642,12,12,15,5,33,47,648,['n'],1,right,['2'],5,228,[-0.03211716],92,47,medium,plus,dotcolour,alfa,,,81,0,V,R,
643,13,13,15,5,27,53,551,['n'],1,right,['1'],6,254,[-0.03371234],92,53,easy,plus,dotcolour,alfa,,,81,0,V,R,
644,14,14,15,5,36,44,464,['n'],1,right,['3'],4,995,[-0.17541822],100,44,hard,plus,dotcolour,alfa,,,81,0,V,R,
645,15,15,15,5,33,47,532,['n'],1,right,['2'],5,607,[-0.20041263],100,47,medium,plus,dotcolour,alfa,,,81,0,V,R,
646,16,16,15,5,44,36,2115,['c'],1,left,['1'],6,187,[0.04991277],98,44,hard,plus,dotcolour,alfa,,,81,0,V,R,
647,17,17,15,5,53,27,948,['c'],1,left,['1'],6,231,[0.07161032],100,53,easy,plus,dotcolour,alfa,,,81,0,V,R,
648,18,18,15,5,36,44,1198,['n'],1,right,['1'],6,672,[-0.01971512],70,44,hard,plus,dotcolour,alfa,,,81,0,V,R,
649,19,19,15,5,44,36,964,['n'],0,left,['3'],4,847,[0.04131504],17,44,hard,plus,dotcolour,alfa,,,81,0,V,R,
650,20,20,15,5,44,36,883,['c'],1,left,['1'],6,251,[0.11416474],100,44,hard,plus,dotcolour,alfa,,,81,0,V,R,
651,21,21,15,5,36,44,717,['n'],1,right,['1'],6,598,[-0.12266689],100,44,hard,plus,dotcolour,alfa,,,81,0,V,R,
652,22,22,15,5,47,33,865,['c'],1,left,['1'],6,196,[0.06696742],100,47,medium,plus,dotcolour,alfa,,,81,0,V,R,
653,23,23,15,5,47,33,1133,['c'],1,left,['2'],5,392,[0.20172072],100,47,medium,plus,dotcolour,alfa,,,81,0,V,R,
654,24,24,15,5,53,27,717,['c'],1,left,['1'],6,685,[0.16069849],100,53,easy,plus,dotcolour,alfa,,,81,0,V,R,
655,25,25,15,5,44,36,699,['n'],0,left,['1'],6,223,[-0.02169385],84,44,hard,plus,dotcolour,alfa,,,81,0,V,R,
656,26,26,15,5,36,44,1231,['n'],1,right,['2'],5,373,[-0.04124792],92,44,hard,plus,dotcolour,alfa,,,81,0,V,R,
657,27,27,15,5,53,27,734,['c'],1,left,['1'],6,250,[0.17281709],100,53,easy,plus,dotcolour,alfa,,,81,0,V,R,
658,28,28,15,5,47,33,781,['c'],1,left,['1'],6,226,[0.04122512],96,47,medium,plus,dotcolour,alfa,,,81,0,V,R,
659,29,29,15,5,27,53,683,['n'],1,right,['1'],6,215,[-0.09325562],100,53,easy,plus,dotcolour,alfa,,,81,0,V,R,
660,30,30,15,5,33,47,664,['n'],1,right,['1'],6,165,[-0.08621417],100,47,medium,plus,dotcolour,alfa,,,81,0,V,R,
661,31,31,15,5,44,36,516,['n'],0,left,['1'],6,187,[-0.07656895],100,44,hard,plus,dotcolour,alfa,,,81,0,V,R,
662,32,32,15,5,53,27,549,['c'],1,left,['1'],6,159,[0.08934579],100,53,easy,plus,dotcolour,alfa,,,81,0,V,R,
663,33,33,15,5,27,53,348,['n'],1,right,['1'],6,156,[-0.12804711],100,53,easy,plus,dotcolour,alfa,,,81,0,V,R,
664,34,34,15,5,33,47,449,['n'],1,right,['1'],6,133,[-0.10140899],100,47,medium,plus,dotcolour,alfa,,,81,0,V,R,
665,35,35,15,5,33,47,550,['n'],1,right,['1'],6,171,[-0.04653075],98,47,medium,plus,dotcolour,alfa,,,81,0,V,R,
666,36,36,15,5,53,27,666,['c'],1,left,['1'],6,131,[0.04781732],99,53,easy,plus,dotcolour,alfa,,,81,0,V,R,
667,37,37,15,5,47,33,514,['n'],0,left,['1'],6,234,[0.00837686],35,47,medium,plus,dotcolour,alfa,,,81,0,V,R,
668,38,38,15,5,33,47,515,['n'],1,right,['1'],6,118,[-0.05921857],100,47,medium,plus,dotcolour,alfa,,,81,0,V,R,
669,39,39,15,5,47,33,582,['c'],1,left,['1'],6,131,[0.14244503],100,47,medium,plus,dotcolour,alfa,,,81,0,V,R,
670,40,40,15,5,36,44,649,['n'],1,right,['1'],6,133,[-0.08055427],100,44,hard,plus,dotcolour,alfa,,,81,0,V,R,
671,41,41,15,5,36,44,482,['n'],1,right,['1'],6,149,[-0.09853973],100,44,hard,plus,dotcolour,alfa,,,81,0,V,R,
672,42,0,16,5,47,33,734,['n'],0,left,['1'],6,175,[-0.01416949],77,47,medium,plus,dotcolour,alfa,,,81,0,V,R,
673,43,1,16,5,53,27,732,['c'],1,left,['1'],6,155,[0.10123762],100,53,easy,plus,dotcolour,alfa,,,81,0,V,R,
674,44,2,16,5,44,36,898,['n'],0,left,['8'],3,2546,[0.10842443],8,44,hard,plus,dotcolour,alfa,,,81,0,V,R,
675,45,3,16,5,27,53,583,['n'],1,right,['1'],6,141,[-0.12475576],100,53,easy,plus,dotcolour,alfa,,,81,0,V,R,
676,46,4,16,5,33,47,499,['n'],1,right,['1'],6,869,[-0.18392699],100,47,medium,plus,dotcolour,alfa,,,81,0,V,R,
677,47,5,16,5,53,27,763,['c'],1,left,['1'],6,237,[0.02704446],88,53,easy,plus,dotcolour,alfa,,,81,0,V,R,
678,48,6,16,5,47,33,1816,['n'],0,left,['3'],4,315,[0.07886831],1,47,medium,plus,dotcolour,alfa,,,81,0,V,R,
679,49,7,16,5,44,36,682,['c'],1,left,['1'],6,173,[0.03622417],96,44,hard,plus,dotcolour,alfa,,,81,0,V,R,
680,50,8,16,5,53,27,683,['c'],1,left,['1'],6,204,[0.11380076],100,53,easy,plus,dotcolour,alfa,,,81,0,V,R,
681,51,9,16,5,36,44,648,['n'],1,right,['1'],6,138,[-0.06982574],100,44,hard,plus,dotcolour,alfa,,,81,0,V,R,
682,52,10,16,5,33,47,582,['n'],1,right,['1'],6,167,[-0.06141664],100,47,medium,plus,dotcolour,alfa,,,81,0,V,R,
683,53,11,16,5,33,47,449,['n'],1,right,['1'],6,199,[-0.13747202],100,47,medium,plus,dotcolour,alfa,,,81,0,V,R,
684,54,12,16,5,27,53,398,['n'],1,right,['1'],6,241,[-0.05237558],98,53,easy,plus,dotcolour,alfa,,,81,0,V,R,
685,55,13,16,5,36,44,582,['n'],1,right,['1'],6,201,[-0.04066841],96,44,hard,plus,dotcolour,alfa,,,81,0,V,R,
686,56,14,16,5,33,47,548,['n'],1,right,['2'],5,276,[-0.0970167],100,47,medium,plus,dotcolour,alfa,,,81,0,V,R,
687,57,15,16,5,36,44,483,['n'],1,right,['2'],5,287,[-0.12453326],100,44,hard,plus,dotcolour,alfa,,,81,0,V,R,
688,58,16,16,5,33,47,399,['n'],1,right,['1'],6,389,[-0.07358623],99,47,medium,plus,dotcolour,alfa,,,81,0,V,R,
689,59,17,16,5,47,33,548,['n'],0,left,['2'],5,177,[-0.07987553],100,47,medium,plus,dotcolour,alfa,,,81,0,V,R,
690,60,18,16,5,36,44,433,['n'],1,right,['2'],5,346,[-0.11511343],100,44,hard,plus,dotcolour,alfa,,,81,0,V,R,
691,61,19,16,5,53,27,766,['c'],1,left,['1'],6,158,[0.08500041],100,53,easy,plus,dotcolour,alfa,,,81,0,V,R,
692,62,20,16,5,27,53,500,['n'],1,right,['1'],6,165,[-0.0662058],100,53,easy,plus,dotcolour,alfa,,,81,0,V,R,
693,63,21,16,5,33,47,664,['n'],1,right,['1'],6,333,[-0.05193076],96,47,medium,plus,dotcolour,alfa,,,81,0,V,R,
694,64,22,16,5,27,53,415,['n'],1,right,['1'],6,352,[-0.21886312],100,53,easy,plus,dotcolour,alfa,,,81,0,V,R,
695,65,23,16,5,36,44,449,['n'],1,right,['1'],6,137,[-0.05989448],100,44,hard,plus,dotcolour,alfa,,,81,0,V,R,
696,66,24,16,5,27,53,365,['n'],1,right,['1'],6,111,[-0.0637165],100,53,easy,plus,dotcolour,alfa,,,81,0,V,R,
697,67,25,16,5,47,33,548,['n'],0,left,['1'],6,101,[-0.06502455],100,47,medium,plus,dotcolour,alfa,,,81,0,V,R,
698,68,26,16,5,33,47,499,['n'],1,right,['1'],6,119,[-0.08133104],100,47,medium,plus,dotcolour,alfa,,,81,0,V,R,
699,69,27,16,5,44,36,714,['c'],1,left,['1'],6,207,[0.11893711],100,44,hard,plus,dotcolour,alfa,,,81,0,V,R,
700,70,28,16,5,53,27,533,['c'],1,left,['1'],6,227,[0.13420812],100,53,easy,plus,dotcolour,alfa,,,81,0,V,R,
701,71,29,16,5,44,36,582,['n'],0,left,['2'],5,787,[0.00278297],47,44,hard,plus,dotcolour,alfa,,,81,0,V,R,
702,72,30,16,5,44,36,750,['c'],1,left,['1'],6,191,[0.05475078],99,44,hard,plus,dotcolour,alfa,,,81,0,V,R,
703,73,31,16,5,44,36,565,['c'],1,left,['1'],6,194,[0.11793436],100,44,hard,plus,dotcolour,alfa,,,81,0,V,R,
704,74,32,16,5,36,44,447,['n'],1,right,['1'],6,154,[-0.13858136],100,44,hard,plus,dotcolour,alfa,,,81,0,V,R,
705,75,33,16,5,36,44,398,['n'],1,right,['1'],6,148,[-0.07709298],100,44,hard,plus,dotcolour,alfa,,,81,0,V,R,
706,76,34,16,5,53,27,415,['n'],0,left,['1'],6,318,[0.00867414],36,53,easy,plus,dotcolour,alfa,,,81,0,V,R,
707,77,35,16,5,27,53,599,['n'],1,right,['1'],6,108,[-0.01350005],81,53,easy,plus,dotcolour,alfa,,,81,0,V,R,
708,78,36,16,5,53,27,581,['c'],1,left,['1'],6,121,[0.11680112],100,53,easy,plus,dotcolour,alfa,,,81,0,V,R,
709,79,37,16,5,47,33,515,['n'],0,left,['1'],6,89,[-0.03451019],98,47,medium,plus,dotcolour,alfa,,,81,0,V,R,
710,80,38,16,5,47,33,616,['c'],1,left,['1'],6,125,[0.112144],100,47,medium,plus,dotcolour,alfa,,,81,0,V,R,
711,81,39,16,5,47,33,364,['n'],0,left,['1'],6,171,[-0.07500482],100,47,medium,plus,dotcolour,alfa,,,81,0,V,R,
712,82,40,16,5,44,36,316,['n'],0,left,['1'],6,505,[-0.04747945],92,44,hard,plus,dotcolour,alfa,,,81,0,V,R,
713,83,41,16,5,27,53,548,['n'],1,right,['1'],6,112,[-0.04375768],99,53,easy,plus,dotcolour,alfa,,,81,0,V,R,
714,84,0,17,5,33,47,633,['n'],1,right,['1'],6,927,[-0.13096933],99,47,medium,plus,dotcolour,alfa,,,81,0,V,R,
715,85,1,17,5,53,27,550,['c'],1,left,['1'],6,190,[0.10011309],100,53,easy,plus,dotcolour,alfa,,,81,0,V,R,
716,86,2,17,5,27,53,464,['n'],1,right,['1'],6,172,[-0.04407763],98,53,easy,plus,dotcolour,alfa,,,81,0,V,R,
717,87,3,17,5,53,27,832,['n'],0,left,['2'],5,238,[0.04933104],3,53,easy,plus,dotcolour,alfa,,,81,0,V,R,
718,88,4,17,5,27,53,465,['n'],1,right,['1'],6,162,[-0.14627239],100,53,easy,plus,dotcolour,alfa,,,81,0,V,R,
719,89,5,17,5,53,27,465,['n'],0,left,['1'],6,234,[-0.01259709],72,53,easy,plus,dotcolour,alfa,,,81,0,V,R,
720,90,6,17,5,27,53,480,['n'],1,right,['1'],6,127,[-0.03237718],96,53,easy,plus,dotcolour,alfa,,,81,0,V,R,
721,91,7,17,5,33,47,415,['n'],1,right,['1'],6,114,[-0.14621619],100,47,medium,plus,dotcolour,alfa,,,81,0,V,R,
722,92,8,17,5,44,36,615,['c'],1,left,['3'],4,1166,[0.2166681],100,44,hard,plus,dotcolour,alfa,,,81,0,V,R,
723,93,9,17,5,33,47,450,['n'],1,right,['1'],6,150,[-0.13299613],100,47,medium,plus,dotcolour,alfa,,,81,0,V,R,
724,94,10,17,5,36,44,482,['n'],1,right,['1'],6,158,[-0.08786203],100,44,hard,plus,dotcolour,alfa,,,81,0,V,R,
725,95,11,17,5,47,33,748,['c'],1,left,['1'],6,194,[0.07562858],100,47,medium,plus,dotcolour,alfa,,,81,0,V,R,
726,96,12,17,5,53,27,533,['n'],0,left,['1'],6,390,[-0.01489865],70,53,easy,plus,dotcolour,alfa,,,81,0,V,R,
727,97,13,17,5,44,36,634,['n'],0,left,['2'],5,1103,[-0.12579477],99,44,hard,plus,dotcolour,alfa,,,81,0,V,R,
728,98,14,17,5,53,27,966,['c'],1,left,['1'],6,173,[0.14505545],100,53,easy,plus,dotcolour,alfa,,,81,0,V,R,
729,99,15,17,5,53,27,1282,['c'],1,left,['3'],4,996,[0.28503672],100,53,easy,plus,dotcolour,alfa,,,81,0,V,R,
730,100,16,17,5,47,33,1048,['c'],1,left,['1'],6,139,[0.08152409],100,47,medium,plus,dotcolour,alfa,,,81,0,V,R,
731,101,17,17,5,44,36,966,['c'],1,left,['1'],6,176,[0.13087903],100,44,hard,plus,dotcolour,alfa,,,81,0,V,R,
732,102,18,17,5,44,36,847,['n'],0,left,['3'],4,1016,[-0.04739618],84,44,hard,plus,dotcolour,alfa,,,81,0,V,R,
733,103,19,17,5,53,27,882,['c'],1,left,['1'],6,141,[0.1131133],100,53,easy,plus,dotcolour,alfa,,,81,0,V,R,
734,104,20,17,5,36,44,549,['n'],1,right,['1'],6,98,[-0.13983904],100,44,hard,plus,dotcolour,alfa,,,81,0,V,R,
735,105,21,17,5,47,33,500,['n'],0,left,['1'],6,475,[0.08148403],1,47,medium,plus,dotcolour,alfa,,,81,0,V,R,
736,106,22,17,5,33,47,616,['n'],1,right,['1'],6,105,[-0.07417411],100,47,medium,plus,dotcolour,alfa,,,81,0,V,R,
737,107,23,17,5,27,53,465,['n'],1,right,['1'],6,75,[-0.06047263],100,53,easy,plus,dotcolour,alfa,,,81,0,V,R,
738,108,24,17,5,44,36,781,['c'],1,left,['1'],6,138,[0.07522506],100,44,hard,plus,dotcolour,alfa,,,81,0,V,R,
739,109,25,17,5,44,36,466,['n'],0,left,['3'],4,987,[-0.06686593],92,44,hard,plus,dotcolour,alfa,,,81,0,V,R,
740,110,26,17,5,47,33,680,['c'],1,left,['1'],6,105,[0.05879935],100,47,medium,plus,dotcolour,alfa,,,81,0,V,R,
741,111,27,17,5,47,33,598,['c'],1,left,['1'],6,159,[0.09378235],100,47,medium,plus,dotcolour,alfa,,,81,0,V,R,
742,112,28,17,5,36,44,700,['n'],1,right,['1'],6,189,[-0.09058411],100,44,hard,plus,dotcolour,alfa,,,81,0,V,R,
743,113,29,17,5,27,53,516,['n'],1,right,['1'],6,139,[-0.03203522],96,53,easy,plus,dotcolour,alfa,,,81,0,V,R,
744,114,30,17,5,47,33,815,['c'],1,left,['1'],6,149,[0.05276649],99,47,medium,plus,dotcolour,alfa,,,81,0,V,R,
745,115,31,17,5,47,33,599,['n'],0,left,['1'],6,137,[-0.11029425],100,47,medium,plus,dotcolour,alfa,,,81,0,V,R,
746,116,32,17,5,27,53,399,['n'],1,right,['1'],6,196,[-0.15762174],100,53,easy,plus,dotcolour,alfa,,,81,0,V,R,
747,117,33,17,5,44,36,582,['c'],1,left,['1'],6,119,[0.10645252],100,44,hard,plus,dotcolour,alfa,,,81,0,V,R,
748,118,34,17,5,33,47,464,['n'],1,right,['1'],6,160,[-0.09537905],100,47,medium,plus,dotcolour,alfa,,,81,0,V,R,
749,119,35,17,5,36,44,413,['n'],1,right,['1'],6,179,[-0.07610383],100,44,hard,plus,dotcolour,alfa,,,81,0,V,R,
750,120,36,17,5,33,47,382,['n'],1,right,['1'],6,173,[-0.08761958],100,47,medium,plus,dotcolour,alfa,,,81,0,V,R,
751,121,37,17,5,36,44,549,['n'],1,right,['2'],5,378,[-0.18340665],100,44,hard,plus,dotcolour,alfa,,,81,0,V,R,
752,122,38,17,5,33,47,448,['n'],1,right,['1'],6,241,[-0.06912475],99,47,medium,plus,dotcolour,alfa,,,81,0,V,R,
753,123,39,17,5,36,44,667,['c'],0,right,['2'],5,302,[-0.00878083],36,44,hard,plus,dotcolour,alfa,,,81,0,V,R,
754,124,40,17,5,27,53,466,['n'],1,right,['1'],6,672,[-0.14493315],100,53,easy,plus,dotcolour,alfa,,,81,0,V,R,
755,125,41,17,5,36,44,964,['n'],1,right,['3'],4,271,[-0.19594755],100,44,hard,plus,dotcolour,alfa,,,81,0,V,R,
,,,,,,,,,,,,,,,,,,,,,1,   geen idee,81,0,V,R,
,,,,,,,,,,,,,,,,,,,,,2,['f'],81,0,V,R,
,,,,,,,,,,,,,,,,,,,,,3,['d'],81,0,V,R,
,,,,,,,,,,,,,,,,,,,,,5,['5'],81,0,V,R,
