trial,withinphasetrial,withinblocktrial,block,phase,dotsLeft,dotsRight,rt,resp,cor,cresp,conf_press,cj,RTconf,ev,fb,diff,difflevel,condition,task,manip,questionID,questionResp,sub,age,gender,handedness,
0,0,0,0,0,44,36,3702,['n'],0,left,['8'],4,1910,[0.06630403],39,44,hard,minus,dotcolour,alfa,,,107,18,V,L,
1,1,1,0,0,36,44,2466,['n'],1,right,['9'],5,2192,[-0.02856856],54,44,hard,minus,dotcolour,alfa,,,107,18,V,L,
2,2,2,0,0,47,33,1667,['c'],1,left,['3'],3,4221,[0.97934921],99,47,medium,minus,dotcolour,alfa,,,107,18,V,L,
3,3,3,0,0,53,27,1652,['c'],1,left,['8'],4,2034,[0.44088952],94,53,easy,minus,dotcolour,alfa,,,107,18,V,L,
4,4,4,0,0,53,27,1383,['c'],1,left,['9'],5,1899,[0.23841397],83,53,easy,minus,dotcolour,alfa,,,107,18,V,L,
5,5,5,0,0,47,33,968,['c'],1,left,['9'],5,1161,[0.23078136],87,47,medium,minus,dotcolour,alfa,,,107,18,V,L,
6,6,6,0,0,33,47,1367,['c'],0,right,['8'],4,1053,[0.00884305],52,47,medium,minus,dotcolour,alfa,,,107,18,V,L,
7,7,7,0,0,53,27,1318,['c'],1,left,['8'],4,886,[0.12072967],76,53,easy,minus,dotcolour,alfa,,,107,18,V,L,
8,8,8,0,0,47,33,867,['c'],1,left,['8'],4,849,[0.19666685],87,47,medium,minus,dotcolour,alfa,,,107,18,V,L,
9,9,9,0,0,33,47,3000,['n'],1,right,['8'],4,978,[-0.06467923],64,47,medium,minus,dotcolour,alfa,,,107,18,V,L,
10,10,10,0,0,44,36,867,['c'],1,left,['8'],4,672,[0.08960017],73,44,hard,minus,dotcolour,alfa,,,107,18,V,L,
11,11,11,0,0,36,44,784,['c'],0,right,['8'],4,567,[-0.04340764],37,44,hard,minus,dotcolour,alfa,,,107,18,V,L,
12,12,12,0,0,36,44,1049,['c'],0,right,['3'],3,1663,[-0.06487276],39,44,hard,minus,dotcolour,alfa,,,107,18,V,L,
13,13,13,0,0,47,33,768,['c'],1,left,['8'],4,1503,[0.28848394],89,47,medium,minus,dotcolour,alfa,,,107,18,V,L,
14,14,14,0,0,36,44,2467,['c'],0,right,['9'],5,2665,[-0.14962922],30,44,hard,minus,dotcolour,alfa,,,107,18,V,L,
15,15,15,0,0,53,27,1551,['c'],1,left,['8'],4,1121,[0.26917183],91,53,easy,minus,dotcolour,alfa,,,107,18,V,L,
16,16,16,0,0,36,44,1017,['c'],0,right,['9'],5,1948,[0.05034885],58,44,hard,minus,dotcolour,alfa,,,107,18,V,L,
17,17,17,0,0,44,36,934,['c'],1,left,['8'],4,593,[0.01952529],56,44,hard,minus,dotcolour,alfa,,,107,18,V,L,
18,18,18,0,0,36,44,866,['c'],0,right,['8'],4,537,[0.00196251],51,44,hard,minus,dotcolour,alfa,,,107,18,V,L,
19,19,19,0,0,47,33,884,['c'],1,left,['9'],5,698,[0.09269781],73,47,medium,minus,dotcolour,alfa,,,107,18,V,L,
20,20,20,0,0,27,53,1766,['n'],1,right,['9'],5,1336,[-0.46928774],97,53,easy,minus,dotcolour,alfa,,,107,18,V,L,
21,21,21,0,0,53,27,1683,['c'],1,left,['8'],4,832,[0.05506462],63,53,easy,minus,dotcolour,alfa,,,107,18,V,L,
22,22,22,0,0,44,36,1283,['c'],1,left,['3'],3,996,[-0.11573565],26,44,hard,minus,dotcolour,alfa,,,107,18,V,L,
23,23,23,0,0,44,36,1132,['c'],1,left,['3'],3,1248,[0.30090961],92,44,hard,minus,dotcolour,alfa,,,107,18,V,L,
24,24,24,0,0,36,44,1134,['n'],1,right,['8'],4,673,[-0.1718212],87,44,hard,minus,dotcolour,alfa,,,107,18,V,L,
25,25,25,0,0,33,47,1968,['c'],0,right,['3'],3,1169,[-0.04485355],41,47,medium,minus,dotcolour,alfa,,,107,18,V,L,
26,26,26,0,0,33,47,915,['c'],0,right,['8'],4,631,[0.12731516],81,47,medium,minus,dotcolour,alfa,,,107,18,V,L,
27,27,27,0,0,44,36,933,['c'],1,left,['8'],4,577,[0.19214085],91,44,hard,minus,dotcolour,alfa,,,107,18,V,L,
28,28,28,0,0,44,36,1250,['c'],1,left,['8'],4,457,[0.09018067],77,44,hard,minus,dotcolour,alfa,,,107,18,V,L,
29,29,29,0,0,27,53,1433,['n'],1,right,['8'],4,670,[-0.10410741],76,53,easy,minus,dotcolour,alfa,,,107,18,V,L,
30,30,30,0,0,27,53,949,['n'],1,right,['8'],4,679,[-0.30238756],96,53,easy,minus,dotcolour,alfa,,,107,18,V,L,
31,31,31,0,0,33,47,1150,['n'],1,right,['8'],4,614,[-0.07178158],70,47,medium,minus,dotcolour,alfa,,,107,18,V,L,
32,32,32,0,0,27,53,834,['n'],1,right,['8'],4,534,[-0.03308301],60,53,easy,minus,dotcolour,alfa,,,107,18,V,L,
33,33,33,0,0,53,27,1018,['c'],1,left,['8'],4,1625,[0.24101476],85,53,easy,minus,dotcolour,alfa,,,107,18,V,L,
34,34,34,0,0,27,53,1467,['n'],1,right,['8'],4,534,[-0.08652807],74,53,easy,minus,dotcolour,alfa,,,107,18,V,L,
35,35,35,0,0,53,27,916,['c'],1,left,['9'],5,998,[0.32693216],95,53,easy,minus,dotcolour,alfa,,,107,18,V,L,
36,36,36,0,0,47,33,1700,['c'],1,left,['9'],5,931,[0.36768905],97,47,medium,minus,dotcolour,alfa,,,107,18,V,L,
37,37,37,0,0,47,33,900,['c'],1,left,['9'],5,547,[0.27172371],96,47,medium,minus,dotcolour,alfa,,,107,18,V,L,
38,38,38,0,0,27,53,1034,['n'],1,right,['9'],5,1053,[-0.32229391],94,53,easy,minus,dotcolour,alfa,,,107,18,V,L,
39,39,39,0,0,33,47,1400,['c'],0,right,['3'],3,1308,[-0.0201267],46,47,medium,minus,dotcolour,alfa,,,107,18,V,L,
40,40,40,0,0,27,53,1384,['n'],1,right,['9'],5,873,[-0.25456121],92,53,easy,minus,dotcolour,alfa,,,107,18,V,L,
41,41,41,0,0,33,47,884,['n'],1,right,['8'],4,572,[-0.1060724],78,47,medium,minus,dotcolour,alfa,,,107,18,V,L,
42,42,0,1,0,47,33,1333,['c'],1,left,['8'],4,691,[0.14085152],82,47,medium,minus,dotcolour,alfa,,,107,18,V,L,
43,43,1,1,0,33,47,1100,['n'],1,right,['8'],4,516,[-0.14476269],86,47,medium,minus,dotcolour,alfa,,,107,18,V,L,
44,44,2,1,0,44,36,683,['c'],1,left,['8'],4,902,[-0.02488663],44,44,hard,minus,dotcolour,alfa,,,107,18,V,L,
45,45,3,1,0,44,36,817,['c'],1,left,['8'],4,394,[0.11148789],83,44,hard,minus,dotcolour,alfa,,,107,18,V,L,
46,46,4,1,0,53,27,833,['c'],1,left,['9'],5,601,[0.18116242],89,53,easy,minus,dotcolour,alfa,,,107,18,V,L,
47,47,5,1,0,53,27,967,['c'],1,left,['0'],6,284,[0.15704446],93,53,easy,minus,dotcolour,alfa,,,107,18,V,L,
48,48,6,1,0,27,53,984,['n'],1,right,['8'],4,1179,[-0.21961478],86,53,easy,minus,dotcolour,alfa,,,107,18,V,L,
49,49,7,1,0,33,47,932,['c'],0,right,['3'],3,456,[0.11359184],82,47,medium,minus,dotcolour,alfa,,,107,18,V,L,
50,50,8,1,0,36,44,733,['c'],0,right,['8'],4,528,[0.0128926],54,44,hard,minus,dotcolour,alfa,,,107,18,V,L,
51,51,9,1,0,47,33,784,['c'],1,left,['9'],5,510,[0.07959924],73,47,medium,minus,dotcolour,alfa,,,107,18,V,L,
52,52,10,1,0,27,53,600,['c'],0,right,['9'],5,482,[-0.06654633],30,53,easy,minus,dotcolour,alfa,,,107,18,V,L,
53,53,11,1,0,33,47,2350,['n'],1,right,['3'],3,1835,[-0.12466194],70,47,medium,minus,dotcolour,alfa,,,107,18,V,L,
54,54,12,1,0,53,27,782,['c'],1,left,['0'],6,314,[0.13507731],90,53,easy,minus,dotcolour,alfa,,,107,18,V,L,
55,55,13,1,0,47,33,783,['c'],1,left,['0'],6,336,[0.02812268],61,47,medium,minus,dotcolour,alfa,,,107,18,V,L,
56,56,14,1,0,27,53,1250,['n'],1,right,['8'],4,370,[-0.06602141],73,53,easy,minus,dotcolour,alfa,,,107,18,V,L,
57,57,15,1,0,44,36,750,['c'],1,left,['8'],4,286,[0.1342368],91,44,hard,minus,dotcolour,alfa,,,107,18,V,L,
58,58,16,1,0,36,44,1132,['c'],0,right,['8'],4,239,[0.03745477],67,44,hard,minus,dotcolour,alfa,,,107,18,V,L,
59,59,17,1,0,47,33,651,['c'],1,left,['8'],4,461,[0.15520052],89,47,medium,minus,dotcolour,alfa,,,107,18,V,L,
60,60,18,1,0,44,36,784,['c'],1,left,['9'],5,812,[0.14684882],81,44,hard,minus,dotcolour,alfa,,,107,18,V,L,
61,61,19,1,0,33,47,717,['c'],0,right,['9'],5,312,[0.01731074],57,47,medium,minus,dotcolour,alfa,,,107,18,V,L,
62,62,20,1,0,44,36,784,['c'],1,left,['9'],5,390,[0.08186324],76,44,hard,minus,dotcolour,alfa,,,107,18,V,L,
63,63,21,1,0,53,27,633,['c'],1,left,['9'],5,613,[0.22576066],93,53,easy,minus,dotcolour,alfa,,,107,18,V,L,
64,64,22,1,0,33,47,1167,['c'],0,right,['9'],5,536,[-0.06647832],31,47,medium,minus,dotcolour,alfa,,,107,18,V,L,
65,65,23,1,0,33,47,1732,['c'],0,right,['3'],3,918,[-0.00383887],49,47,medium,minus,dotcolour,alfa,,,107,18,V,L,
66,66,24,1,0,27,53,1285,['n'],1,right,['9'],5,590,[-0.2392836],94,53,easy,minus,dotcolour,alfa,,,107,18,V,L,
67,67,25,1,0,36,44,1333,['c'],0,right,['8'],4,1155,[-0.21887776],14,44,hard,minus,dotcolour,alfa,,,107,18,V,L,
68,68,26,1,0,27,53,1617,['n'],1,right,['3'],3,597,[-0.1751171],88,53,easy,minus,dotcolour,alfa,,,107,18,V,L,
69,69,27,1,0,47,33,883,['c'],1,left,['9'],5,491,[0.10411487],79,47,medium,minus,dotcolour,alfa,,,107,18,V,L,
70,70,28,1,0,47,33,817,['c'],1,left,['9'],5,407,[0.02917387],60,47,medium,minus,dotcolour,alfa,,,107,18,V,L,
71,71,29,1,0,27,53,1500,['n'],1,right,['8'],4,676,[-0.07777827],70,53,easy,minus,dotcolour,alfa,,,107,18,V,L,
72,72,30,1,0,47,33,716,['c'],1,left,['9'],5,605,[0.24026689],94,47,medium,minus,dotcolour,alfa,,,107,18,V,L,
73,73,31,1,0,33,47,768,['c'],0,right,['8'],4,335,[-0.02418388],41,47,medium,minus,dotcolour,alfa,,,107,18,V,L,
74,74,32,1,0,53,27,816,['c'],1,left,['8'],4,355,[0.16688948],93,53,easy,minus,dotcolour,alfa,,,107,18,V,L,
75,75,33,1,0,36,44,1400,['c'],0,right,['3'],3,294,[0.05109178],70,44,hard,minus,dotcolour,alfa,,,107,18,V,L,
76,76,34,1,0,36,44,800,['c'],0,right,['3'],3,451,[0.06703882],71,44,hard,minus,dotcolour,alfa,,,107,18,V,L,
77,77,35,1,0,36,44,1699,['c'],0,right,['3'],3,399,[0.15192391],90,44,hard,minus,dotcolour,alfa,,,107,18,V,L,
78,78,36,1,0,53,27,883,['c'],1,left,['9'],5,397,[0.1434735],89,53,easy,minus,dotcolour,alfa,,,107,18,V,L,
79,79,37,1,0,36,44,700,['c'],0,right,['8'],4,1274,[-0.09628956],32,44,hard,minus,dotcolour,alfa,,,107,18,V,L,
80,80,38,1,0,44,36,667,['c'],1,left,['9'],5,429,[0.10326503],81,44,hard,minus,dotcolour,alfa,,,107,18,V,L,
81,81,39,1,0,44,36,751,['c'],1,left,['9'],5,447,[-0.0140021],45,44,hard,minus,dotcolour,alfa,,,107,18,V,L,
82,82,40,1,0,53,27,701,['c'],1,left,['9'],5,427,[0.14005435],87,53,easy,minus,dotcolour,alfa,,,107,18,V,L,
83,83,41,1,0,27,53,1400,['n'],1,right,['9'],5,1004,[-0.08587449],68,53,easy,minus,dotcolour,alfa,,,107,18,V,L,
84,84,0,2,0,44,36,1067,['n'],0,left,['8'],4,405,[-0.07405935],74,44,hard,minus,dotcolour,alfa,,,107,18,V,L,
85,85,1,2,0,53,27,650,['c'],1,left,['8'],4,308,[0.09621973],83,53,easy,minus,dotcolour,alfa,,,107,18,V,L,
86,86,2,2,0,33,47,684,['n'],1,right,['8'],4,285,[-0.11889763],88,47,medium,minus,dotcolour,alfa,,,107,18,V,L,
87,87,3,2,0,36,44,801,['c'],0,right,['8'],4,227,[0.0826285],83,44,hard,minus,dotcolour,alfa,,,107,18,V,L,
88,88,4,2,0,44,36,683,['c'],1,left,['8'],4,296,[0.14147324],91,44,hard,minus,dotcolour,alfa,,,107,18,V,L,
89,89,5,2,0,53,27,751,['c'],1,left,['8'],4,223,[0.10909399],89,53,easy,minus,dotcolour,alfa,,,107,18,V,L,
90,90,6,2,0,27,53,667,['c'],0,right,['8'],4,285,[0.0647198],75,53,easy,minus,dotcolour,alfa,,,107,18,V,L,
91,91,7,2,0,36,44,1801,['n'],1,right,['8'],4,307,[-0.15553477],93,44,hard,minus,dotcolour,alfa,,,107,18,V,L,
92,92,8,2,0,44,36,918,['n'],0,left,['3'],3,427,[-0.08155476],75,44,hard,minus,dotcolour,alfa,,,107,18,V,L,
93,93,9,2,0,27,53,767,['c'],0,right,['3'],3,1644,[-0.25286567],14,53,easy,minus,dotcolour,alfa,,,107,18,V,L,
94,94,10,2,0,47,33,933,['c'],1,left,['8'],4,350,[0.16944668],93,47,medium,minus,dotcolour,alfa,,,107,18,V,L,
95,95,11,2,0,33,47,699,['n'],1,right,['8'],4,381,[-0.0632128],72,47,medium,minus,dotcolour,alfa,,,107,18,V,L,
96,96,12,2,0,44,36,851,['c'],1,left,['8'],4,334,[-0.03295203],37,44,hard,minus,dotcolour,alfa,,,107,18,V,L,
97,97,13,2,0,33,47,650,['n'],1,right,['8'],4,375,[-0.05960311],71,47,medium,minus,dotcolour,alfa,,,107,18,V,L,
98,98,14,2,0,53,27,967,['c'],1,left,['8'],4,363,[0.1655605],92,53,easy,minus,dotcolour,alfa,,,107,18,V,L,
99,99,15,2,0,47,33,1251,['c'],1,left,['8'],4,339,[0.09298571],81,47,medium,minus,dotcolour,alfa,,,107,18,V,L,
100,100,16,2,0,44,36,1350,['c'],1,left,['8'],4,361,[-0.0214408],42,44,hard,minus,dotcolour,alfa,,,107,18,V,L,
101,101,17,2,0,33,47,1566,['n'],1,right,['3'],3,701,[-0.13014164],80,47,medium,minus,dotcolour,alfa,,,107,18,V,L,
102,102,18,2,0,33,47,5917,['n'],1,right,['8'],4,366,[-0.05464039],69,47,medium,minus,dotcolour,alfa,,,107,18,V,L,
103,103,19,2,0,44,36,883,['c'],1,left,['8'],4,333,[0.01834971],57,44,hard,minus,dotcolour,alfa,,,107,18,V,L,
104,104,20,2,0,27,53,1267,['n'],1,right,['8'],4,847,[-0.26392802],93,53,easy,minus,dotcolour,alfa,,,107,18,V,L,
105,105,21,2,0,33,47,733,['c'],0,right,['3'],3,1080,[-0.20919924],14,47,medium,minus,dotcolour,alfa,,,107,18,V,L,
106,106,22,2,0,53,27,700,['c'],1,left,['8'],4,307,[0.00828973],53,53,easy,minus,dotcolour,alfa,,,107,18,V,L,
107,107,23,2,0,53,27,1216,['c'],1,left,['8'],4,295,[0.10292466],85,53,easy,minus,dotcolour,alfa,,,107,18,V,L,
108,108,24,2,0,36,44,1315,['c'],0,right,['8'],4,311,[0.05270389],70,44,hard,minus,dotcolour,alfa,,,107,18,V,L,
109,109,25,2,0,27,53,1418,['n'],1,right,['9'],5,1963,[-0.38240983],92,53,easy,minus,dotcolour,alfa,,,107,18,V,L,
110,110,26,2,0,53,27,1117,['n'],0,left,['0'],6,377,[-0.02401168],59,53,easy,minus,dotcolour,alfa,,,107,18,V,L,
111,111,27,2,0,44,36,933,['c'],1,left,['0'],6,285,[0.07988668],79,44,hard,minus,dotcolour,alfa,,,107,18,V,L,
112,112,28,2,0,27,53,767,['c'],0,right,['8'],4,900,[-0.15808317],18,53,easy,minus,dotcolour,alfa,,,107,18,V,L,
113,113,29,2,0,47,33,1049,['c'],1,left,['9'],5,496,[0.18302468],91,47,medium,minus,dotcolour,alfa,,,107,18,V,L,
114,114,30,2,0,47,33,1134,['c'],1,left,['0'],6,248,[0.16841448],95,47,medium,minus,dotcolour,alfa,,,107,18,V,L,
115,115,31,2,0,36,44,3483,['c'],0,right,['3'],3,492,[-0.00242707],49,44,hard,minus,dotcolour,alfa,,,107,18,V,L,
116,116,32,2,0,27,53,834,['c'],0,right,['8'],4,576,[0.0692475],69,53,easy,minus,dotcolour,alfa,,,107,18,V,L,
117,117,33,2,0,47,33,1184,['c'],1,left,['9'],5,403,[-0.00138665],50,47,medium,minus,dotcolour,alfa,,,107,18,V,L,
118,118,34,2,0,33,47,1217,['n'],1,right,['8'],4,371,[-0.08209691],77,47,medium,minus,dotcolour,alfa,,,107,18,V,L,
119,119,35,2,0,27,53,1834,['n'],1,right,['8'],4,244,[-0.17784081],96,53,easy,minus,dotcolour,alfa,,,107,18,V,L,
120,120,36,2,0,47,33,750,['c'],1,left,['8'],4,246,[0.11716883],89,47,medium,minus,dotcolour,alfa,,,107,18,V,L,
121,121,37,2,0,36,44,1116,['n'],1,right,['8'],4,208,[-0.06273372],78,44,hard,minus,dotcolour,alfa,,,107,18,V,L,
122,122,38,2,0,36,44,684,['c'],0,right,['8'],4,197,[0.07079956],81,44,hard,minus,dotcolour,alfa,,,107,18,V,L,
123,123,39,2,0,53,27,1066,['c'],1,left,['9'],5,580,[0.15051331],86,53,easy,minus,dotcolour,alfa,,,107,18,V,L,
124,124,40,2,0,47,33,1084,['c'],1,left,['9'],5,338,[0.12851151],88,47,medium,minus,dotcolour,alfa,,,107,18,V,L,
125,125,41,2,0,36,44,1734,['n'],1,right,['3'],3,1129,[-0.21472308],86,44,hard,minus,dotcolour,alfa,,,107,18,V,L,
126,0,0,3,1,53,27,917,['c'],1,left,['9'],5,399,[0.067972],98,53,easy,plus,dotcolour,alfa,,,107,18,V,L,
127,1,1,3,1,47,33,799,['c'],1,left,['0'],6,392,[0.04751229],94,47,medium,plus,dotcolour,alfa,,,107,18,V,L,
128,2,2,3,1,33,47,1417,['n'],1,right,['8'],4,1465,[-0.22843139],100,47,medium,plus,dotcolour,alfa,,,107,18,V,L,
129,3,3,3,1,53,27,816,['c'],1,left,['0'],6,335,[0.1742392],100,53,easy,plus,dotcolour,alfa,,,107,18,V,L,
130,4,4,3,1,44,36,949,['c'],1,left,['9'],5,629,[0.13508692],100,44,hard,plus,dotcolour,alfa,,,107,18,V,L,
131,5,5,3,1,27,53,1317,['c'],0,right,['8'],4,385,[0.06419943],98,53,easy,plus,dotcolour,alfa,,,107,18,V,L,
132,6,6,3,1,47,33,1533,['c'],1,left,['9'],5,429,[0.09945143],100,47,medium,plus,dotcolour,alfa,,,107,18,V,L,
133,7,7,3,1,44,36,851,['c'],1,left,['9'],5,379,[0.14647692],100,44,hard,plus,dotcolour,alfa,,,107,18,V,L,
134,8,8,3,1,47,33,749,['c'],1,left,['9'],5,335,[0.11347238],100,47,medium,plus,dotcolour,alfa,,,107,18,V,L,
135,9,9,3,1,36,44,1234,['n'],1,right,['8'],4,994,[-0.39267682],100,44,hard,plus,dotcolour,alfa,,,107,18,V,L,
136,10,10,3,1,36,44,1334,['n'],1,right,['8'],4,222,[-0.05132107],98,44,hard,plus,dotcolour,alfa,,,107,18,V,L,
137,11,11,3,1,36,44,1284,['n'],1,right,['8'],4,443,[-0.11311433],100,44,hard,plus,dotcolour,alfa,,,107,18,V,L,
138,12,12,3,1,33,47,734,['n'],1,right,['8'],4,397,[-0.12836246],100,47,medium,plus,dotcolour,alfa,,,107,18,V,L,
139,13,13,3,1,44,36,883,['n'],0,left,['9'],5,507,[0.05526059],6,44,hard,plus,dotcolour,alfa,,,107,18,V,L,
140,14,14,3,1,27,53,2366,['n'],1,right,['8'],4,393,[-0.06701021],98,53,easy,plus,dotcolour,alfa,,,107,18,V,L,
141,15,15,3,1,53,27,1715,['c'],1,left,['0'],6,285,[0.1362211],100,53,easy,plus,dotcolour,alfa,,,107,18,V,L,
142,16,16,3,1,33,47,967,['n'],1,right,['8'],4,364,[-0.14369923],100,47,medium,plus,dotcolour,alfa,,,107,18,V,L,
143,17,17,3,1,36,44,1533,['c'],0,right,['8'],4,426,[0.12273218],100,44,hard,plus,dotcolour,alfa,,,107,18,V,L,
144,18,18,3,1,36,44,968,['c'],0,right,['9'],5,323,[0.04338034],94,44,hard,plus,dotcolour,alfa,,,107,18,V,L,
145,19,19,3,1,53,27,934,['c'],1,left,['0'],6,418,[0.07397914],98,53,easy,plus,dotcolour,alfa,,,107,18,V,L,
146,20,20,3,1,33,47,1250,['n'],1,right,['8'],4,312,[-0.077688],99,47,medium,plus,dotcolour,alfa,,,107,18,V,L,
147,21,21,3,1,47,33,933,['c'],1,left,['8'],4,264,[0.04226966],95,47,medium,plus,dotcolour,alfa,,,107,18,V,L,
148,22,22,3,1,53,27,733,['c'],1,left,['9'],5,346,[0.06207401],98,53,easy,plus,dotcolour,alfa,,,107,18,V,L,
149,23,23,3,1,33,47,3151,['n'],1,right,['8'],4,422,[-0.32038741],100,47,medium,plus,dotcolour,alfa,,,107,18,V,L,
150,24,24,3,1,47,33,766,['c'],1,left,['8'],4,392,[0.03382608],87,47,medium,plus,dotcolour,alfa,,,107,18,V,L,
151,25,25,3,1,27,53,1083,['n'],1,right,['8'],4,254,[-0.10636914],100,53,easy,plus,dotcolour,alfa,,,107,18,V,L,
152,26,26,3,1,27,53,1016,['n'],1,right,['9'],5,365,[-0.25014966],100,53,easy,plus,dotcolour,alfa,,,107,18,V,L,
153,27,27,3,1,44,36,1967,['c'],1,left,['9'],5,377,[0.03023911],85,44,hard,plus,dotcolour,alfa,,,107,18,V,L,
154,28,28,3,1,33,47,952,['c'],0,right,['8'],4,508,[0.02184276],75,47,medium,plus,dotcolour,alfa,,,107,18,V,L,
155,29,29,3,1,47,33,984,['n'],0,left,['8'],4,730,[0.0510786],10,47,medium,plus,dotcolour,alfa,,,107,18,V,L,
156,30,30,3,1,27,53,3150,['n'],1,right,['9'],5,465,[-0.01232211],66,53,easy,plus,dotcolour,alfa,,,107,18,V,L,
157,31,31,3,1,44,36,817,['c'],1,left,['9'],5,487,[0.14067619],100,44,hard,plus,dotcolour,alfa,,,107,18,V,L,
158,32,32,3,1,27,53,1667,['n'],1,right,['9'],5,2002,[-0.49309102],100,53,easy,plus,dotcolour,alfa,,,107,18,V,L,
159,33,33,3,1,53,27,934,['c'],1,left,['9'],5,277,[0.22454635],100,53,easy,plus,dotcolour,alfa,,,107,18,V,L,
160,34,34,3,1,44,36,1050,['c'],1,left,['9'],5,289,[0.0264326],85,44,hard,plus,dotcolour,alfa,,,107,18,V,L,
161,35,35,3,1,44,36,1050,['c'],1,left,['9'],5,332,[0.05641072],97,44,hard,plus,dotcolour,alfa,,,107,18,V,L,
162,36,36,3,1,53,27,1650,['c'],1,left,['9'],5,342,[0.13303292],100,53,easy,plus,dotcolour,alfa,,,107,18,V,L,
163,37,37,3,1,33,47,1150,['n'],1,right,['9'],5,315,[-0.17617435],100,47,medium,plus,dotcolour,alfa,,,107,18,V,L,
164,38,38,3,1,36,44,2600,['c'],0,right,['9'],5,297,[-0.01103878],33,44,hard,plus,dotcolour,alfa,,,107,18,V,L,
165,39,39,3,1,47,33,718,['c'],1,left,['9'],5,177,[0.08422434],100,47,medium,plus,dotcolour,alfa,,,107,18,V,L,
166,40,40,3,1,27,53,816,['n'],1,right,['9'],5,195,[-0.02965638],92,53,easy,plus,dotcolour,alfa,,,107,18,V,L,
167,41,41,3,1,36,44,1217,['c'],0,right,['8'],4,466,[0.07130724],98,44,hard,plus,dotcolour,alfa,,,107,18,V,L,
168,42,0,4,1,36,44,1018,['n'],1,right,['8'],4,338,[-0.06629708],98,44,hard,plus,dotcolour,alfa,,,107,18,V,L,
169,43,1,4,1,27,53,867,['n'],1,right,['8'],4,283,[-0.12161581],100,53,easy,plus,dotcolour,alfa,,,107,18,V,L,
170,44,2,4,1,27,53,734,['n'],1,right,['8'],4,299,[-0.17016495],100,53,easy,plus,dotcolour,alfa,,,107,18,V,L,
171,45,3,4,1,33,47,766,['c'],0,right,['8'],4,235,[0.05802284],99,47,medium,plus,dotcolour,alfa,,,107,18,V,L,
172,46,4,4,1,44,36,550,['n'],0,left,['8'],4,253,[-0.0986837],100,44,hard,plus,dotcolour,alfa,,,107,18,V,L,
173,47,5,4,1,47,33,850,['c'],1,left,['9'],5,594,[0.00069158],51,47,medium,plus,dotcolour,alfa,,,107,18,V,L,
174,48,6,4,1,36,44,983,['c'],0,right,['8'],4,332,[0.02230577],80,44,hard,plus,dotcolour,alfa,,,107,18,V,L,
175,49,7,4,1,36,44,1150,['n'],1,right,['8'],4,218,[-0.16839006],100,44,hard,plus,dotcolour,alfa,,,107,18,V,L,
176,50,8,4,1,53,27,1168,['c'],1,left,['8'],4,252,[0.15577039],100,53,easy,plus,dotcolour,alfa,,,107,18,V,L,
177,51,9,4,1,53,27,1151,['c'],1,left,['8'],4,294,[0.10794905],100,53,easy,plus,dotcolour,alfa,,,107,18,V,L,
178,52,10,4,1,36,44,1333,['c'],0,right,['8'],4,253,[-0.02300951],16,44,hard,plus,dotcolour,alfa,,,107,18,V,L,
179,53,11,4,1,44,36,933,['c'],1,left,['8'],4,224,[0.07969348],100,44,hard,plus,dotcolour,alfa,,,107,18,V,L,
180,54,12,4,1,44,36,1334,['n'],0,left,['8'],4,290,[-0.04417825],95,44,hard,plus,dotcolour,alfa,,,107,18,V,L,
181,55,13,4,1,27,53,1549,['c'],0,right,['8'],4,306,[0.03052979],88,53,easy,plus,dotcolour,alfa,,,107,18,V,L,
182,56,14,4,1,27,53,799,['c'],0,right,['8'],4,318,[-0.02347218],18,53,easy,plus,dotcolour,alfa,,,107,18,V,L,
183,57,15,4,1,33,47,784,['c'],0,right,['8'],4,300,[0.02193002],81,47,medium,plus,dotcolour,alfa,,,107,18,V,L,
184,58,16,4,1,53,27,985,['c'],1,left,['9'],5,473,[-0.00640992],42,53,easy,plus,dotcolour,alfa,,,107,18,V,L,
185,59,17,4,1,33,47,1617,['n'],1,right,['8'],4,342,[-0.03264172],88,47,medium,plus,dotcolour,alfa,,,107,18,V,L,
186,60,18,4,1,36,44,2283,['c'],0,right,['8'],4,311,[0.20025853],100,44,hard,plus,dotcolour,alfa,,,107,18,V,L,
187,61,19,4,1,33,47,984,['n'],1,right,['8'],4,604,[-0.0465156],90,47,medium,plus,dotcolour,alfa,,,107,18,V,L,
188,62,20,4,1,44,36,1766,['c'],1,left,['8'],4,430,[0.03493791],87,44,hard,plus,dotcolour,alfa,,,107,18,V,L,
189,63,21,4,1,44,36,935,['c'],1,left,['8'],4,193,[0.099059],100,44,hard,plus,dotcolour,alfa,,,107,18,V,L,
190,64,22,4,1,47,33,667,['c'],1,left,['8'],4,192,[0.06607137],100,47,medium,plus,dotcolour,alfa,,,107,18,V,L,
191,65,23,4,1,53,27,717,['c'],1,left,['9'],5,500,[0.26289882],100,53,easy,plus,dotcolour,alfa,,,107,18,V,L,
192,66,24,4,1,44,36,1016,['c'],1,left,['8'],4,137,[0.09467513],100,44,hard,plus,dotcolour,alfa,,,107,18,V,L,
193,67,25,4,1,47,33,850,['c'],1,left,['8'],4,180,[0.09563706],100,47,medium,plus,dotcolour,alfa,,,107,18,V,L,
194,68,26,4,1,27,53,651,['n'],1,right,['9'],5,506,[-0.17617343],100,53,easy,plus,dotcolour,alfa,,,107,18,V,L,
195,69,27,4,1,47,33,767,['c'],1,left,['9'],5,297,[0.16702305],100,47,medium,plus,dotcolour,alfa,,,107,18,V,L,
196,70,28,4,1,53,27,684,['c'],1,left,['9'],5,291,[0.11368973],100,53,easy,plus,dotcolour,alfa,,,107,18,V,L,
197,71,29,4,1,36,44,1233,['c'],0,right,['9'],5,175,[0.06666953],100,44,hard,plus,dotcolour,alfa,,,107,18,V,L,
198,72,30,4,1,27,53,1166,['n'],1,right,['9'],5,306,[-0.18710699],100,53,easy,plus,dotcolour,alfa,,,107,18,V,L,
199,73,31,4,1,33,47,1483,['n'],1,right,['9'],5,348,[-0.06308019],98,47,medium,plus,dotcolour,alfa,,,107,18,V,L,
200,74,32,4,1,33,47,1251,['n'],1,right,['9'],5,245,[-0.02753979],88,47,medium,plus,dotcolour,alfa,,,107,18,V,L,
201,75,33,4,1,36,44,967,['c'],0,right,['8'],4,190,[0.2005635],100,44,hard,plus,dotcolour,alfa,,,107,18,V,L,
202,76,34,4,1,53,27,833,['c'],1,left,['8'],4,197,[0.08300011],100,53,easy,plus,dotcolour,alfa,,,107,18,V,L,
203,77,35,4,1,33,47,1232,['c'],0,right,['8'],4,293,[0.04918034],96,47,medium,plus,dotcolour,alfa,,,107,18,V,L,
204,78,36,4,1,47,33,717,['c'],1,left,['8'],4,510,[0.15863033],100,47,medium,plus,dotcolour,alfa,,,107,18,V,L,
205,79,37,4,1,27,53,716,['n'],1,right,['8'],4,262,[-0.00401587],57,53,easy,plus,dotcolour,alfa,,,107,18,V,L,
206,80,38,4,1,47,33,1150,['c'],1,left,['8'],4,159,[0.03955085],97,47,medium,plus,dotcolour,alfa,,,107,18,V,L,
207,81,39,4,1,47,33,1167,['c'],1,left,['8'],4,267,[0.14382038],100,47,medium,plus,dotcolour,alfa,,,107,18,V,L,
208,82,40,4,1,53,27,833,['c'],1,left,['8'],4,297,[0.06223562],98,53,easy,plus,dotcolour,alfa,,,107,18,V,L,
209,83,41,4,1,44,36,3283,['c'],1,left,['8'],4,443,[0.07614405],98,44,hard,plus,dotcolour,alfa,,,107,18,V,L,
210,84,0,5,1,36,44,1084,['n'],1,right,['8'],4,286,[-0.13696247],100,44,hard,plus,dotcolour,alfa,,,107,18,V,L,
211,85,1,5,1,36,44,750,['n'],1,right,['8'],4,262,[-0.12672035],100,44,hard,plus,dotcolour,alfa,,,107,18,V,L,
212,86,2,5,1,44,36,666,['c'],1,left,['8'],4,210,[0.08870296],100,44,hard,plus,dotcolour,alfa,,,107,18,V,L,
213,87,3,5,1,33,47,649,['c'],0,right,['8'],4,225,[0.01399496],74,47,medium,plus,dotcolour,alfa,,,107,18,V,L,
214,88,4,5,1,53,27,799,['n'],0,left,['8'],4,313,[-0.08807713],100,53,easy,plus,dotcolour,alfa,,,107,18,V,L,
215,89,5,5,1,33,47,1050,['n'],1,right,['8'],4,340,[-0.02080464],78,47,medium,plus,dotcolour,alfa,,,107,18,V,L,
216,90,6,5,1,33,47,883,['c'],0,right,['8'],4,308,[0.07440032],99,47,medium,plus,dotcolour,alfa,,,107,18,V,L,
217,91,7,5,1,36,44,1450,['n'],1,right,['8'],4,831,[-0.06914901],94,44,hard,plus,dotcolour,alfa,,,107,18,V,L,
218,92,8,5,1,53,27,934,['c'],1,left,['8'],4,281,[0.06555315],99,53,easy,plus,dotcolour,alfa,,,107,18,V,L,
219,93,9,5,1,27,53,816,['n'],1,right,['9'],5,390,[-0.02338979],79,53,easy,plus,dotcolour,alfa,,,107,18,V,L,
220,94,10,5,1,47,33,917,['c'],1,left,['8'],4,251,[0.09522847],100,47,medium,plus,dotcolour,alfa,,,107,18,V,L,
221,95,11,5,1,44,36,883,['c'],1,left,['8'],4,288,[0.09132693],100,44,hard,plus,dotcolour,alfa,,,107,18,V,L,
222,96,12,5,1,47,33,1234,['c'],1,left,['9'],5,292,[0.0712586],99,47,medium,plus,dotcolour,alfa,,,107,18,V,L,
223,97,13,5,1,33,47,983,['c'],0,right,['8'],4,770,[-0.08336092],3,47,medium,plus,dotcolour,alfa,,,107,18,V,L,
224,98,14,5,1,36,44,900,['c'],0,right,['8'],4,184,[0.01382652],76,44,hard,plus,dotcolour,alfa,,,107,18,V,L,
225,99,15,5,1,47,33,1166,['c'],1,left,['8'],4,283,[0.21534727],100,47,medium,plus,dotcolour,alfa,,,107,18,V,L,
226,100,16,5,1,44,36,800,['c'],1,left,['8'],4,177,[0.06131753],99,44,hard,plus,dotcolour,alfa,,,107,18,V,L,
227,101,17,5,1,53,27,784,['c'],1,left,['8'],4,212,[0.13687816],100,53,easy,plus,dotcolour,alfa,,,107,18,V,L,
228,102,18,5,1,53,27,750,['c'],1,left,['8'],4,183,[0.07602067],100,53,easy,plus,dotcolour,alfa,,,107,18,V,L,
229,103,19,5,1,53,27,850,['c'],1,left,['9'],5,375,[0.32667149],100,53,easy,plus,dotcolour,alfa,,,107,18,V,L,
230,104,20,5,1,47,33,667,['c'],1,left,['9'],5,351,[0.10712913],100,47,medium,plus,dotcolour,alfa,,,107,18,V,L,
231,105,21,5,1,27,53,1716,['n'],1,right,['8'],4,493,[-0.19504931],100,53,easy,plus,dotcolour,alfa,,,107,18,V,L,
232,106,22,5,1,36,44,2866,['c'],0,right,['3'],3,800,[-0.04242615],15,44,hard,plus,dotcolour,alfa,,,107,18,V,L,
233,107,23,5,1,27,53,1084,['n'],1,right,['9'],5,638,[-0.1933993],100,53,easy,plus,dotcolour,alfa,,,107,18,V,L,
234,108,24,5,1,27,53,834,['n'],1,right,['9'],5,284,[-0.05951531],98,53,easy,plus,dotcolour,alfa,,,107,18,V,L,
235,109,25,5,1,27,53,715,['n'],1,right,['8'],4,293,[-0.09899618],100,53,easy,plus,dotcolour,alfa,,,107,18,V,L,
236,110,26,5,1,44,36,1367,['c'],1,left,['0'],6,316,[0.09701121],100,44,hard,plus,dotcolour,alfa,,,107,18,V,L,
237,111,27,5,1,47,33,983,['c'],1,left,['0'],6,274,[0.16514132],100,47,medium,plus,dotcolour,alfa,,,107,18,V,L,
238,112,28,5,1,44,36,1417,['c'],1,left,['9'],5,727,[-0.04571276],13,44,hard,plus,dotcolour,alfa,,,107,18,V,L,
239,113,29,5,1,36,44,1000,['c'],0,right,['8'],4,203,[0.05259331],99,44,hard,plus,dotcolour,alfa,,,107,18,V,L,
240,114,30,5,1,53,27,951,['c'],1,left,['9'],5,702,[0.0307186],79,53,easy,plus,dotcolour,alfa,,,107,18,V,L,
241,115,31,5,1,27,53,1150,['n'],1,right,['8'],4,341,[-0.05246513],96,53,easy,plus,dotcolour,alfa,,,107,18,V,L,
242,116,32,5,1,47,33,1683,['c'],1,left,['8'],4,525,[0.03240046],83,47,medium,plus,dotcolour,alfa,,,107,18,V,L,
243,117,33,5,1,33,47,1184,['n'],1,right,['8'],4,266,[-0.12457849],100,47,medium,plus,dotcolour,alfa,,,107,18,V,L,
244,118,34,5,1,47,33,1117,['c'],1,left,['8'],4,308,[0.08836534],100,47,medium,plus,dotcolour,alfa,,,107,18,V,L,
245,119,35,5,1,36,44,1033,['c'],0,right,['8'],4,223,[0.04002148],95,44,hard,plus,dotcolour,alfa,,,107,18,V,L,
246,120,36,5,1,27,53,951,['n'],1,right,['8'],4,377,[-0.09533829],100,53,easy,plus,dotcolour,alfa,,,107,18,V,L,
247,121,37,5,1,53,27,1067,['c'],1,left,['0'],6,280,[0.13259095],100,53,easy,plus,dotcolour,alfa,,,107,18,V,L,
248,122,38,5,1,33,47,1650,['n'],1,right,['8'],4,309,[-0.05127915],97,47,medium,plus,dotcolour,alfa,,,107,18,V,L,
249,123,39,5,1,44,36,1434,['c'],1,left,['9'],5,424,[0.07770727],99,44,hard,plus,dotcolour,alfa,,,107,18,V,L,
250,124,40,5,1,44,36,1000,['c'],1,left,['9'],5,256,[0.10292257],100,44,hard,plus,dotcolour,alfa,,,107,18,V,L,
251,125,41,5,1,33,47,1384,['c'],0,right,['8'],4,271,[0.05739203],98,47,medium,plus,dotcolour,alfa,,,107,18,V,L,
252,0,0,6,2,36,44,751,['n'],1,right,['9'],5,416,[-0.09680753],79,44,hard,minus,dotcolour,alfa,,,107,18,V,L,
253,1,1,6,2,33,47,784,['n'],1,right,['9'],5,345,[-0.12855737],88,47,medium,minus,dotcolour,alfa,,,107,18,V,L,
254,2,2,6,2,44,36,751,['c'],1,left,['9'],5,255,[0.09802775],85,44,hard,minus,dotcolour,alfa,,,107,18,V,L,
255,3,3,6,2,47,33,966,['c'],1,left,['9'],5,295,[0.13959964],91,47,medium,minus,dotcolour,alfa,,,107,18,V,L,
256,4,4,6,2,44,36,533,['c'],1,left,['9'],5,143,[0.10302868],92,44,hard,minus,dotcolour,alfa,,,107,18,V,L,
257,5,5,6,2,27,53,1133,['n'],1,right,['9'],5,197,[-0.02775378],64,53,easy,minus,dotcolour,alfa,,,107,18,V,L,
258,6,6,6,2,33,47,783,['c'],0,right,['9'],5,231,[-0.02315066],39,47,medium,minus,dotcolour,alfa,,,107,18,V,L,
259,7,7,6,2,53,27,817,['c'],1,left,['9'],5,175,[0.09222835],88,53,easy,minus,dotcolour,alfa,,,107,18,V,L,
260,8,8,6,2,47,33,566,['c'],1,left,['9'],5,265,[0.1331811],91,47,medium,minus,dotcolour,alfa,,,107,18,V,L,
261,9,9,6,2,27,53,667,['n'],1,right,['9'],5,262,[-0.01259031],56,53,easy,minus,dotcolour,alfa,,,107,18,V,L,
262,10,10,6,2,33,47,950,['n'],1,right,['9'],5,310,[-0.00797863],53,47,medium,minus,dotcolour,alfa,,,107,18,V,L,
263,11,11,6,2,53,27,934,['c'],1,left,['0'],6,214,[0.09431548],86,53,easy,minus,dotcolour,alfa,,,107,18,V,L,
264,12,12,6,2,44,36,751,['c'],1,left,['9'],5,192,[-0.00087885],50,44,hard,minus,dotcolour,alfa,,,107,18,V,L,
265,13,13,6,2,53,27,750,['c'],1,left,['0'],6,171,[0.09131338],88,53,easy,minus,dotcolour,alfa,,,107,18,V,L,
266,14,14,6,2,44,36,633,['c'],1,left,['0'],6,189,[0.12606963],93,44,hard,minus,dotcolour,alfa,,,107,18,V,L,
267,15,15,6,2,36,44,867,['c'],0,right,['9'],5,212,[0.15941977],96,44,hard,minus,dotcolour,alfa,,,107,18,V,L,
268,16,16,6,2,33,47,800,['c'],0,right,['8'],4,173,[0.08014966],85,47,medium,minus,dotcolour,alfa,,,107,18,V,L,
269,17,17,6,2,44,36,734,['c'],1,left,['8'],4,242,[0.08364194],82,44,hard,minus,dotcolour,alfa,,,107,18,V,L,
270,18,18,6,2,53,27,4867,['c'],1,left,['8'],4,358,[0.13967187],89,53,easy,minus,dotcolour,alfa,,,107,18,V,L,
271,19,19,6,2,36,44,884,['c'],0,right,['0'],6,230,[0.00742204],53,44,hard,minus,dotcolour,alfa,,,107,18,V,L,
272,20,20,6,2,36,44,716,['c'],0,right,['8'],4,257,[0.10503746],87,44,hard,minus,dotcolour,alfa,,,107,18,V,L,
273,21,21,6,2,53,27,800,['c'],1,left,['0'],6,280,[0.19157708],96,53,easy,minus,dotcolour,alfa,,,107,18,V,L,
274,22,22,6,2,27,53,1083,['n'],1,right,['8'],4,331,[-0.09415549],81,53,easy,minus,dotcolour,alfa,,,107,18,V,L,
275,23,23,6,2,53,27,666,['c'],1,left,['0'],6,252,[0.12076539],90,53,easy,minus,dotcolour,alfa,,,107,18,V,L,
276,24,24,6,2,47,33,667,['c'],1,left,['9'],5,561,[0.14189653],85,47,medium,minus,dotcolour,alfa,,,107,18,V,L,
277,25,25,6,2,36,44,1184,['n'],1,right,['8'],4,292,[-0.0629844],74,44,hard,minus,dotcolour,alfa,,,107,18,V,L,
278,26,26,6,2,27,53,1300,['n'],1,right,['8'],4,269,[-0.07064001],77,53,easy,minus,dotcolour,alfa,,,107,18,V,L,
279,27,27,6,2,33,47,1650,['c'],0,right,['8'],4,546,[0.17146778],89,47,medium,minus,dotcolour,alfa,,,107,18,V,L,
280,28,28,6,2,47,33,1033,['c'],1,left,['9'],5,308,[0.05948764],72,47,medium,minus,dotcolour,alfa,,,107,18,V,L,
281,29,29,6,2,27,53,1000,['c'],0,right,['8'],4,313,[0.04749382],68,53,easy,minus,dotcolour,alfa,,,107,18,V,L,
282,30,30,6,2,47,33,683,['c'],1,left,['0'],6,314,[0.11718559],87,47,medium,minus,dotcolour,alfa,,,107,18,V,L,
283,31,31,6,2,47,33,683,['c'],1,left,['0'],6,211,[0.07447002],81,47,medium,minus,dotcolour,alfa,,,107,18,V,L,
284,32,32,6,2,33,47,1300,['n'],1,right,['8'],4,344,[-0.12465907],87,47,medium,minus,dotcolour,alfa,,,107,18,V,L,
285,33,33,6,2,44,36,833,['c'],1,left,['9'],5,258,[0.15420826],94,44,hard,minus,dotcolour,alfa,,,107,18,V,L,
286,34,34,6,2,44,36,684,['c'],1,left,['9'],5,269,[0.09609144],84,44,hard,minus,dotcolour,alfa,,,107,18,V,L,
287,35,35,6,2,36,44,684,['c'],0,right,['8'],4,337,[0.06720917],74,44,hard,minus,dotcolour,alfa,,,107,18,V,L,
288,36,36,6,2,47,33,582,['c'],1,left,['8'],4,254,[0.11411342],88,47,medium,minus,dotcolour,alfa,,,107,18,V,L,
289,37,37,6,2,27,53,684,['c'],0,right,['8'],4,305,[-0.01398164],44,53,easy,minus,dotcolour,alfa,,,107,18,V,L,
290,38,38,6,2,36,44,667,['c'],0,right,['8'],4,156,[0.03872407],71,44,hard,minus,dotcolour,alfa,,,107,18,V,L,
291,39,39,6,2,33,47,1017,['n'],1,right,['8'],4,206,[-0.11635149],91,47,medium,minus,dotcolour,alfa,,,107,18,V,L,
292,40,40,6,2,27,53,750,['n'],1,right,['8'],4,282,[-0.12689064],90,53,easy,minus,dotcolour,alfa,,,107,18,V,L,
293,41,41,6,2,53,27,900,['c'],1,left,['8'],4,252,[0.17176689],96,53,easy,minus,dotcolour,alfa,,,107,18,V,L,
294,42,0,7,2,47,33,1001,['c'],1,left,['8'],4,245,[0.1330232],92,47,medium,minus,dotcolour,alfa,,,107,18,V,L,
295,43,1,7,2,44,36,733,['c'],1,left,['8'],4,367,[0.06248736],72,44,hard,minus,dotcolour,alfa,,,107,18,V,L,
296,44,2,7,2,36,44,1184,['n'],1,right,['8'],4,298,[0.00115443],50,44,hard,minus,dotcolour,alfa,,,107,18,V,L,
297,45,3,7,2,33,47,834,['c'],0,right,['8'],4,142,[0.05810889],80,47,medium,minus,dotcolour,alfa,,,107,18,V,L,
298,46,4,7,2,44,36,766,['c'],1,left,['8'],4,179,[0.05592237],77,44,hard,minus,dotcolour,alfa,,,107,18,V,L,
299,47,5,7,2,53,27,966,['c'],1,left,['9'],5,239,[0.14415969],93,53,easy,minus,dotcolour,alfa,,,107,18,V,L,
300,48,6,7,2,33,47,550,['c'],0,right,['8'],4,176,[0.07115395],82,47,medium,minus,dotcolour,alfa,,,107,18,V,L,
301,49,7,7,2,44,36,435,['c'],1,left,['8'],4,216,[0.11284371],90,44,hard,minus,dotcolour,alfa,,,107,18,V,L,
302,50,8,7,2,44,36,500,['c'],1,left,['8'],4,181,[0.14006213],95,44,hard,minus,dotcolour,alfa,,,107,18,V,L,
303,51,9,7,2,36,44,1150,['n'],1,right,['3'],3,1113,[-0.25730599],90,44,hard,minus,dotcolour,alfa,,,107,18,V,L,
304,52,10,7,2,27,53,683,['c'],0,right,['2'],2,1610,[-0.18049769],22,53,easy,minus,dotcolour,alfa,,,107,18,V,L,
305,53,11,7,2,36,44,833,['c'],0,right,['2'],2,1378,[-0.11123426],30,44,hard,minus,dotcolour,alfa,,,107,18,V,L,
306,54,12,7,2,53,27,684,['c'],1,left,['8'],4,1353,[0.17406265],79,53,easy,minus,dotcolour,alfa,,,107,18,V,L,
307,55,13,7,2,47,33,1032,['c'],1,left,['9'],5,330,[0.01264049],55,47,medium,minus,dotcolour,alfa,,,107,18,V,L,
308,56,14,7,2,47,33,767,['c'],1,left,['8'],4,560,[-0.01049329],47,47,medium,minus,dotcolour,alfa,,,107,18,V,L,
309,57,15,7,2,47,33,701,['c'],1,left,['0'],6,814,[0.21804973],90,47,medium,minus,dotcolour,alfa,,,107,18,V,L,
310,58,16,7,2,53,27,684,['c'],1,left,['9'],5,300,[0.13695548],90,53,easy,minus,dotcolour,alfa,,,107,18,V,L,
311,59,17,7,2,33,47,1016,['n'],1,right,['9'],5,504,[-0.03583829],61,47,medium,minus,dotcolour,alfa,,,107,18,V,L,
312,60,18,7,2,44,36,766,['c'],1,left,['3'],3,799,[0.09859044],73,44,hard,minus,dotcolour,alfa,,,107,18,V,L,
313,61,19,7,2,27,53,1033,['n'],1,right,['9'],5,415,[-0.02957856],60,53,easy,minus,dotcolour,alfa,,,107,18,V,L,
314,62,20,7,2,47,33,1833,['c'],1,left,['9'],5,262,[0.09975696],85,47,medium,minus,dotcolour,alfa,,,107,18,V,L,
315,63,21,7,2,53,27,1083,['c'],1,left,['9'],5,305,[0.12726658],89,53,easy,minus,dotcolour,alfa,,,107,18,V,L,
316,64,22,7,2,36,44,1067,['c'],0,right,['9'],5,387,[0.1587434],91,44,hard,minus,dotcolour,alfa,,,107,18,V,L,
317,65,23,7,2,44,36,617,['c'],1,left,['9'],5,292,[-0.03199612],37,44,hard,minus,dotcolour,alfa,,,107,18,V,L,
318,66,24,7,2,53,27,751,['c'],1,left,['9'],5,340,[0.10569825],84,53,easy,minus,dotcolour,alfa,,,107,18,V,L,
319,67,25,7,2,33,47,1168,['n'],1,right,['8'],4,552,[0.06704057],31,47,medium,minus,dotcolour,alfa,,,107,18,V,L,
320,68,26,7,2,53,27,916,['c'],1,left,['9'],5,263,[0.01296234],56,53,easy,minus,dotcolour,alfa,,,107,18,V,L,
321,69,27,7,2,27,53,1717,['n'],1,right,['9'],5,401,[-0.09955409],80,53,easy,minus,dotcolour,alfa,,,107,18,V,L,
322,70,28,7,2,36,44,733,['n'],1,right,['8'],4,445,[-0.13165549],86,44,hard,minus,dotcolour,alfa,,,107,18,V,L,
323,71,29,7,2,36,44,1166,['c'],0,right,['8'],4,318,[0.09139265],81,44,hard,minus,dotcolour,alfa,,,107,18,V,L,
324,72,30,7,2,47,33,1016,['n'],0,left,['9'],5,298,[-0.03822644],65,47,medium,minus,dotcolour,alfa,,,107,18,V,L,
325,73,31,7,2,33,47,1550,['n'],1,right,['8'],4,305,[-0.09603753],83,47,medium,minus,dotcolour,alfa,,,107,18,V,L,
326,74,32,7,2,27,53,1349,['n'],1,right,['8'],4,336,[-0.08934167],80,53,easy,minus,dotcolour,alfa,,,107,18,V,L,
327,75,33,7,2,27,53,1051,['n'],1,right,['8'],4,226,[-0.11200919],89,53,easy,minus,dotcolour,alfa,,,107,18,V,L,
328,76,34,7,2,27,53,917,['n'],1,right,['8'],4,366,[-0.23533517],97,53,easy,minus,dotcolour,alfa,,,107,18,V,L,
329,77,35,7,2,36,44,1250,['c'],0,right,['8'],4,334,[0.00716471],53,44,hard,minus,dotcolour,alfa,,,107,18,V,L,
330,78,36,7,2,47,33,9483,['c'],1,left,['8'],4,575,[0.10554561],78,47,medium,minus,dotcolour,alfa,,,107,18,V,L,
331,79,37,7,2,33,47,1050,['n'],1,right,['9'],5,494,[-0.08938849],76,47,medium,minus,dotcolour,alfa,,,107,18,V,L,
332,80,38,7,2,33,47,4333,['c'],0,right,['3'],3,823,[0.02739588],57,47,medium,minus,dotcolour,alfa,,,107,18,V,L,
333,81,39,7,2,27,53,933,['n'],1,right,['8'],4,241,[-0.10350757],87,53,easy,minus,dotcolour,alfa,,,107,18,V,L,
334,82,40,7,2,53,27,1050,['c'],1,left,['8'],4,295,[0.04060543],66,53,easy,minus,dotcolour,alfa,,,107,18,V,L,
335,83,41,7,2,44,36,1033,['c'],1,left,['8'],4,267,[0.14672664],93,44,hard,minus,dotcolour,alfa,,,107,18,V,L,
336,84,0,8,2,36,44,3851,['c'],0,right,['8'],4,434,[0.05994402],69,44,hard,minus,dotcolour,alfa,,,107,18,V,L,
337,85,1,8,2,47,33,1333,['c'],1,left,['8'],4,197,[0.05240967],74,47,medium,minus,dotcolour,alfa,,,107,18,V,L,
338,86,2,8,2,47,33,833,['c'],1,left,['8'],4,293,[0.17205198],95,47,medium,minus,dotcolour,alfa,,,107,18,V,L,
339,87,3,8,2,33,47,1183,['n'],1,right,['8'],4,467,[-0.14456517],87,47,medium,minus,dotcolour,alfa,,,107,18,V,L,
340,88,4,8,2,47,33,750,['c'],1,left,['8'],4,276,[0.07237798],78,47,medium,minus,dotcolour,alfa,,,107,18,V,L,
341,89,5,8,2,44,36,1050,['c'],1,left,['8'],4,304,[0.06155386],73,44,hard,minus,dotcolour,alfa,,,107,18,V,L,
342,90,6,8,2,53,27,1133,['c'],1,left,['8'],4,231,[0.12856273],92,53,easy,minus,dotcolour,alfa,,,107,18,V,L,
343,91,7,8,2,47,33,700,['c'],1,left,['8'],4,356,[0.18062146],94,47,medium,minus,dotcolour,alfa,,,107,18,V,L,
344,92,8,8,2,44,36,633,['c'],1,left,['8'],4,229,[0.12793903],92,44,hard,minus,dotcolour,alfa,,,107,18,V,L,
345,93,9,8,2,27,53,782,['n'],1,right,['8'],4,294,[-0.14181972],91,53,easy,minus,dotcolour,alfa,,,107,18,V,L,
346,94,10,8,2,27,53,666,['c'],0,right,['9'],5,272,[-0.01181653],45,53,easy,minus,dotcolour,alfa,,,107,18,V,L,
347,95,11,8,2,36,44,1251,['c'],0,right,['8'],4,348,[0.13058151],88,44,hard,minus,dotcolour,alfa,,,107,18,V,L,
348,96,12,8,2,33,47,950,['n'],1,right,['9'],5,410,[-0.18995756],94,47,medium,minus,dotcolour,alfa,,,107,18,V,L,
349,97,13,8,2,53,27,1066,['n'],0,left,['9'],5,376,[-0.03815613],64,53,easy,minus,dotcolour,alfa,,,107,18,V,L,
350,98,14,8,2,44,36,1699,['c'],1,left,['9'],5,374,[0.05289426],69,44,hard,minus,dotcolour,alfa,,,107,18,V,L,
351,99,15,8,2,33,47,717,['c'],0,right,['9'],5,332,[0.04411507],67,47,medium,minus,dotcolour,alfa,,,107,18,V,L,
352,100,16,8,2,36,44,833,['c'],0,right,['8'],4,262,[0.06379736],75,44,hard,minus,dotcolour,alfa,,,107,18,V,L,
353,101,17,8,2,27,53,834,['c'],0,right,['8'],4,243,[-0.02643416],38,53,easy,minus,dotcolour,alfa,,,107,18,V,L,
354,102,18,8,2,27,53,4100,['c'],0,right,['8'],4,623,[-0.06193825],33,53,easy,minus,dotcolour,alfa,,,107,18,V,L,
355,103,19,8,2,44,36,700,['c'],1,left,['8'],4,322,[0.08106968],78,44,hard,minus,dotcolour,alfa,,,107,18,V,L,
356,104,20,8,2,27,53,983,['n'],1,right,['8'],4,231,[-0.12777228],92,53,easy,minus,dotcolour,alfa,,,107,18,V,L,
357,105,21,8,2,47,33,633,['n'],0,left,['8'],4,206,[-0.03061996],65,47,medium,minus,dotcolour,alfa,,,107,18,V,L,
358,106,22,8,2,44,36,767,['c'],1,left,['8'],4,208,[0.16074087],96,44,hard,minus,dotcolour,alfa,,,107,18,V,L,
359,107,23,8,2,36,44,650,['c'],0,right,['8'],4,263,[0.10370212],86,44,hard,minus,dotcolour,alfa,,,107,18,V,L,
360,108,24,8,2,53,27,800,['c'],1,left,['8'],4,237,[0.08206326],82,53,easy,minus,dotcolour,alfa,,,107,18,V,L,
361,109,25,8,2,33,47,750,['n'],1,right,['8'],4,151,[-0.14784386],97,47,medium,minus,dotcolour,alfa,,,107,18,V,L,
362,110,26,8,2,44,36,501,['c'],1,left,['8'],4,143,[0.07362334],85,44,hard,minus,dotcolour,alfa,,,107,18,V,L,
363,111,27,8,2,53,27,600,['c'],1,left,['8'],4,202,[0.13713216],94,53,easy,minus,dotcolour,alfa,,,107,18,V,L,
364,112,28,8,2,36,44,715,['c'],0,right,['8'],4,159,[0.00879945],55,44,hard,minus,dotcolour,alfa,,,107,18,V,L,
365,113,29,8,2,27,53,651,['c'],0,right,['8'],4,335,[0.05417277],70,53,easy,minus,dotcolour,alfa,,,107,18,V,L,
366,114,30,8,2,33,47,717,['c'],0,right,['8'],4,175,[-0.00023875],50,47,medium,minus,dotcolour,alfa,,,107,18,V,L,
367,115,31,8,2,33,47,699,['c'],0,right,['8'],4,213,[0.05251135],74,47,medium,minus,dotcolour,alfa,,,107,18,V,L,
368,116,32,8,2,44,36,782,['c'],1,left,['8'],4,158,[0.1611581],97,44,hard,minus,dotcolour,alfa,,,107,18,V,L,
369,117,33,8,2,36,44,750,['c'],0,right,['8'],4,219,[0.02313656],61,44,hard,minus,dotcolour,alfa,,,107,18,V,L,
370,118,34,8,2,33,47,751,['c'],0,right,['8'],4,206,[0.01460407],57,47,medium,minus,dotcolour,alfa,,,107,18,V,L,
371,119,35,8,2,47,33,750,['c'],1,left,['8'],4,177,[0.07813186],84,47,medium,minus,dotcolour,alfa,,,107,18,V,L,
372,120,36,8,2,36,44,766,['c'],0,right,['8'],4,189,[0.00285518],51,44,hard,minus,dotcolour,alfa,,,107,18,V,L,
373,121,37,8,2,53,27,784,['c'],1,left,['8'],4,263,[0.11839604],89,53,easy,minus,dotcolour,alfa,,,107,18,V,L,
374,122,38,8,2,27,53,783,['c'],0,right,['8'],4,278,[0.11574189],88,53,easy,minus,dotcolour,alfa,,,107,18,V,L,
375,123,39,8,2,47,33,550,['c'],1,left,['8'],4,214,[0.15066769],95,47,medium,minus,dotcolour,alfa,,,107,18,V,L,
376,124,40,8,2,53,27,617,['c'],1,left,['9'],5,934,[0.2020895],87,53,easy,minus,dotcolour,alfa,,,107,18,V,L,
377,125,41,8,2,53,27,667,['c'],1,left,['0'],6,311,[0.10096014],84,53,easy,minus,dotcolour,alfa,,,107,18,V,L,
378,0,0,9,3,27,53,1268,['n'],1,right,['8'],4,238,[-0.12675643],100,53,easy,plus,dotcolour,alfa,,,107,18,V,L,
379,1,1,9,3,44,36,650,['c'],1,left,['8'],4,148,[0.09321452],100,44,hard,plus,dotcolour,alfa,,,107,18,V,L,
380,2,2,9,3,47,33,651,['c'],1,left,['8'],4,101,[0.07814148],100,47,medium,plus,dotcolour,alfa,,,107,18,V,L,
381,3,3,9,3,53,27,518,['c'],1,left,['8'],4,118,[0.12417328],100,53,easy,plus,dotcolour,alfa,,,107,18,V,L,
382,4,4,9,3,27,53,750,['n'],1,right,['8'],4,140,[-0.03824716],98,53,easy,plus,dotcolour,alfa,,,107,18,V,L,
383,5,5,9,3,47,33,583,['c'],1,left,['8'],4,168,[0.13299144],100,47,medium,plus,dotcolour,alfa,,,107,18,V,L,
384,6,6,9,3,36,44,667,['c'],0,right,['8'],4,168,[0.10256261],100,44,hard,plus,dotcolour,alfa,,,107,18,V,L,
385,7,7,9,3,36,44,916,['n'],1,right,['8'],4,7,[-0.07700868],100,44,hard,plus,dotcolour,alfa,,,107,18,V,L,
386,8,8,9,3,33,47,617,['c'],0,right,['8'],4,159,[-0.02677516],8,47,medium,plus,dotcolour,alfa,,,107,18,V,L,
387,9,9,9,3,44,36,601,['c'],1,left,['8'],4,146,[0.06243719],100,44,hard,plus,dotcolour,alfa,,,107,18,V,L,
388,10,10,9,3,36,44,1332,['n'],1,right,['8'],4,168,[-0.13167547],100,44,hard,plus,dotcolour,alfa,,,107,18,V,L,
389,11,11,9,3,53,27,834,['c'],1,left,['0'],6,265,[0.04902569],97,53,easy,plus,dotcolour,alfa,,,107,18,V,L,
390,12,12,9,3,53,27,484,['c'],1,left,['0'],6,132,[0.09045586],100,53,easy,plus,dotcolour,alfa,,,107,18,V,L,
391,13,13,9,3,53,27,717,['c'],1,left,['0'],6,124,[0.03006071],96,53,easy,plus,dotcolour,alfa,,,107,18,V,L,
392,14,14,9,3,53,27,767,['c'],1,left,['0'],6,210,[0.04566391],97,53,easy,plus,dotcolour,alfa,,,107,18,V,L,
393,15,15,9,3,33,47,983,['c'],0,right,['8'],4,219,[0.0110469],70,47,medium,plus,dotcolour,alfa,,,107,18,V,L,
394,16,16,9,3,36,44,634,['c'],0,right,['8'],4,515,[-0.00251491],47,44,hard,plus,dotcolour,alfa,,,107,18,V,L,
395,17,17,9,3,47,33,534,['c'],1,left,['8'],4,145,[0.06748684],100,47,medium,plus,dotcolour,alfa,,,107,18,V,L,
396,18,18,9,3,44,36,550,['c'],1,left,['0'],6,343,[-0.01494032],29,44,hard,plus,dotcolour,alfa,,,107,18,V,L,
397,19,19,9,3,44,36,516,['c'],1,left,['0'],6,213,[0.06261547],99,44,hard,plus,dotcolour,alfa,,,107,18,V,L,
398,20,20,9,3,44,36,600,['c'],1,left,['9'],5,302,[0.12279247],100,44,hard,plus,dotcolour,alfa,,,107,18,V,L,
399,21,21,9,3,47,33,466,['c'],1,left,['0'],6,297,[0.19133013],100,47,medium,plus,dotcolour,alfa,,,107,18,V,L,
400,22,22,9,3,27,53,1317,['n'],1,right,['9'],5,530,[-0.1583184],100,53,easy,plus,dotcolour,alfa,,,107,18,V,L,
401,23,23,9,3,44,36,584,['c'],1,left,['8'],4,230,[0.09292056],100,44,hard,plus,dotcolour,alfa,,,107,18,V,L,
402,24,24,9,3,33,47,1684,['c'],0,right,['8'],4,1059,[-0.16039926],0,47,medium,plus,dotcolour,alfa,,,107,18,V,L,
403,25,25,9,3,47,33,400,['c'],1,left,['9'],5,313,[0.03095748],88,47,medium,plus,dotcolour,alfa,,,107,18,V,L,
404,26,26,9,3,53,27,401,['c'],1,left,['8'],4,462,[0.10556167],100,53,easy,plus,dotcolour,alfa,,,107,18,V,L,
405,27,27,9,3,33,47,1200,['c'],0,right,['8'],4,269,[0.10303343],100,47,medium,plus,dotcolour,alfa,,,107,18,V,L,
406,28,28,9,3,27,53,1666,['n'],1,right,['0'],6,329,[-0.121622],100,53,easy,plus,dotcolour,alfa,,,107,18,V,L,
407,29,29,9,3,47,33,850,['n'],0,left,['0'],6,267,[-0.08904184],100,47,medium,plus,dotcolour,alfa,,,107,18,V,L,
408,30,30,9,3,47,33,534,['c'],1,left,['0'],6,253,[0.03680195],93,47,medium,plus,dotcolour,alfa,,,107,18,V,L,
409,31,31,9,3,27,53,883,['n'],1,right,['8'],4,416,[-0.1190157],100,53,easy,plus,dotcolour,alfa,,,107,18,V,L,
410,32,32,9,3,33,47,550,['c'],0,right,['8'],4,307,[0.13195327],100,47,medium,plus,dotcolour,alfa,,,107,18,V,L,
411,33,33,9,3,33,47,766,['c'],0,right,['8'],4,242,[0.09791455],100,47,medium,plus,dotcolour,alfa,,,107,18,V,L,
412,34,34,9,3,27,53,901,['n'],1,right,['8'],4,220,[-0.15483666],100,53,easy,plus,dotcolour,alfa,,,107,18,V,L,
413,35,35,9,3,53,27,467,['c'],1,left,['8'],4,194,[0.12373042],100,53,easy,plus,dotcolour,alfa,,,107,18,V,L,
414,36,36,9,3,36,44,567,['c'],0,right,['8'],4,189,[0.09167138],100,44,hard,plus,dotcolour,alfa,,,107,18,V,L,
415,37,37,9,3,36,44,466,['c'],0,right,['8'],4,348,[0.0959208],100,44,hard,plus,dotcolour,alfa,,,107,18,V,L,
416,38,38,9,3,36,44,3700,['n'],1,right,['8'],4,643,[-0.10565434],99,44,hard,plus,dotcolour,alfa,,,107,18,V,L,
417,39,39,9,3,33,47,718,['n'],1,right,['8'],4,213,[-0.11054567],100,47,medium,plus,dotcolour,alfa,,,107,18,V,L,
418,40,40,9,3,44,36,1018,['c'],1,left,['8'],4,254,[0.11362875],100,44,hard,plus,dotcolour,alfa,,,107,18,V,L,
419,41,41,9,3,27,53,650,['c'],0,right,['8'],4,324,[-0.09116785],0,53,easy,plus,dotcolour,alfa,,,107,18,V,L,
420,42,0,10,3,33,47,1167,['c'],0,right,['2'],2,618,[-0.1119658],1,47,medium,plus,dotcolour,alfa,,,107,18,V,L,
421,43,1,10,3,47,33,850,['c'],1,left,['8'],4,297,[0.02062486],80,47,medium,plus,dotcolour,alfa,,,107,18,V,L,
422,44,2,10,3,33,47,783,['c'],0,right,['8'],4,447,[0.0045669],56,47,medium,plus,dotcolour,alfa,,,107,18,V,L,
423,45,3,10,3,27,53,816,['n'],1,right,['0'],6,229,[-0.10216831],100,53,easy,plus,dotcolour,alfa,,,107,18,V,L,
424,46,4,10,3,33,47,967,['c'],0,right,['8'],4,359,[-0.11678433],0,47,medium,plus,dotcolour,alfa,,,107,18,V,L,
425,47,5,10,3,44,36,667,['c'],1,left,['8'],4,215,[0.03574005],94,44,hard,plus,dotcolour,alfa,,,107,18,V,L,
426,48,6,10,3,53,27,1083,['c'],1,left,['9'],5,308,[0.0770685],99,53,easy,plus,dotcolour,alfa,,,107,18,V,L,
427,49,7,10,3,47,33,700,['c'],1,left,['8'],4,269,[0.12795768],100,47,medium,plus,dotcolour,alfa,,,107,18,V,L,
428,50,8,10,3,36,44,683,['c'],0,right,['8'],4,392,[0.07309509],99,44,hard,plus,dotcolour,alfa,,,107,18,V,L,
429,51,9,10,3,36,44,1335,['c'],0,right,['9'],5,324,[0.09622768],100,44,hard,plus,dotcolour,alfa,,,107,18,V,L,
430,52,10,10,3,53,27,1084,['c'],1,left,['9'],5,405,[0.1226517],100,53,easy,plus,dotcolour,alfa,,,107,18,V,L,
431,53,11,10,3,27,53,1150,['n'],1,right,['9'],5,391,[-0.17043498],100,53,easy,plus,dotcolour,alfa,,,107,18,V,L,
432,54,12,10,3,36,44,1250,['n'],1,right,['9'],5,279,[-0.09351932],100,44,hard,plus,dotcolour,alfa,,,107,18,V,L,
433,55,13,10,3,27,53,851,['n'],1,right,['9'],5,299,[-0.18286899],100,53,easy,plus,dotcolour,alfa,,,107,18,V,L,
434,56,14,10,3,47,33,883,['c'],1,left,['9'],5,269,[0.29973894],100,47,medium,plus,dotcolour,alfa,,,107,18,V,L,
435,57,15,10,3,53,27,717,['c'],1,left,['9'],5,207,[0.13245012],100,53,easy,plus,dotcolour,alfa,,,107,18,V,L,
436,58,16,10,3,33,47,734,['c'],0,right,['9'],5,298,[0.078521],99,47,medium,plus,dotcolour,alfa,,,107,18,V,L,
437,59,17,10,3,47,33,700,['c'],1,left,['9'],5,211,[0.10680244],100,47,medium,plus,dotcolour,alfa,,,107,18,V,L,
438,60,18,10,3,27,53,733,['n'],1,right,['9'],5,223,[-0.1827707],100,53,easy,plus,dotcolour,alfa,,,107,18,V,L,
439,61,19,10,3,53,27,751,['c'],1,left,['8'],4,217,[0.05607121],99,53,easy,plus,dotcolour,alfa,,,107,18,V,L,
440,62,20,10,3,33,47,966,['n'],1,right,['8'],4,204,[-0.10949609],100,47,medium,plus,dotcolour,alfa,,,107,18,V,L,
441,63,21,10,3,44,36,568,['c'],1,left,['8'],4,406,[0.12841342],100,44,hard,plus,dotcolour,alfa,,,107,18,V,L,
442,64,22,10,3,27,53,1018,['n'],1,right,['9'],5,254,[-0.08265431],100,53,easy,plus,dotcolour,alfa,,,107,18,V,L,
443,65,23,10,3,44,36,633,['c'],1,left,['9'],5,259,[0.15175662],100,44,hard,plus,dotcolour,alfa,,,107,18,V,L,
444,66,24,10,3,27,53,765,['c'],0,right,['9'],5,340,[0.10784159],100,53,easy,plus,dotcolour,alfa,,,107,18,V,L,
445,67,25,10,3,36,44,817,['c'],0,right,['8'],4,318,[0.0622596],98,44,hard,plus,dotcolour,alfa,,,107,18,V,L,
446,68,26,10,3,36,44,999,['n'],1,right,['8'],4,419,[-0.04421489],92,44,hard,plus,dotcolour,alfa,,,107,18,V,L,
447,69,27,10,3,47,33,950,['c'],1,left,['9'],5,326,[0.1476116],100,47,medium,plus,dotcolour,alfa,,,107,18,V,L,
448,70,28,10,3,47,33,684,['c'],1,left,['9'],5,342,[0.11588025],100,47,medium,plus,dotcolour,alfa,,,107,18,V,L,
449,71,29,10,3,36,44,749,['c'],0,right,['8'],4,276,[0.11364807],100,44,hard,plus,dotcolour,alfa,,,107,18,V,L,
450,72,30,10,3,53,27,550,['c'],1,left,['8'],4,204,[0.08622869],100,53,easy,plus,dotcolour,alfa,,,107,18,V,L,
451,73,31,10,3,33,47,1083,['n'],1,right,['0'],6,242,[-0.15101657],100,47,medium,plus,dotcolour,alfa,,,107,18,V,L,
452,74,32,10,3,44,36,617,['c'],1,left,['9'],5,337,[0.10843883],100,44,hard,plus,dotcolour,alfa,,,107,18,V,L,
453,75,33,10,3,36,44,800,['c'],0,right,['3'],3,1028,[0.1653269],100,44,hard,plus,dotcolour,alfa,,,107,18,V,L,
454,76,34,10,3,44,36,667,['c'],1,left,['8'],4,282,[0.04298582],95,44,hard,plus,dotcolour,alfa,,,107,18,V,L,
455,77,35,10,3,44,36,650,['c'],1,left,['8'],4,198,[0.0002522],51,44,hard,plus,dotcolour,alfa,,,107,18,V,L,
456,78,36,10,3,53,27,665,['c'],1,left,['8'],4,237,[0.09123022],100,53,easy,plus,dotcolour,alfa,,,107,18,V,L,
457,79,37,10,3,27,53,833,['c'],0,right,['9'],5,267,[0.0153245],74,53,easy,plus,dotcolour,alfa,,,107,18,V,L,
458,80,38,10,3,47,33,817,['c'],1,left,['8'],4,345,[0.02429378],82,47,medium,plus,dotcolour,alfa,,,107,18,V,L,
459,81,39,10,3,53,27,1000,['c'],1,left,['9'],5,213,[0.11137415],100,53,easy,plus,dotcolour,alfa,,,107,18,V,L,
460,82,40,10,3,33,47,850,['c'],0,right,['9'],5,307,[-0.07670946],1,47,medium,plus,dotcolour,alfa,,,107,18,V,L,
461,83,41,10,3,44,36,534,['c'],1,left,['8'],4,371,[0.09357649],100,44,hard,plus,dotcolour,alfa,,,107,18,V,L,
462,84,0,11,3,47,33,984,['c'],1,left,['8'],4,129,[0.07245979],100,47,medium,plus,dotcolour,alfa,,,107,18,V,L,
463,85,1,11,3,36,44,533,['c'],0,right,['8'],4,128,[0.06098855],100,44,hard,plus,dotcolour,alfa,,,107,18,V,L,
464,86,2,11,3,47,33,500,['c'],1,left,['8'],4,152,[0.0352227],96,47,medium,plus,dotcolour,alfa,,,107,18,V,L,
465,87,3,11,3,53,27,650,['c'],1,left,['8'],4,225,[0.08697862],100,53,easy,plus,dotcolour,alfa,,,107,18,V,L,
466,88,4,11,3,27,53,850,['n'],1,right,['8'],4,183,[-0.06330416],100,53,easy,plus,dotcolour,alfa,,,107,18,V,L,
467,89,5,11,3,53,27,601,['c'],1,left,['8'],4,217,[0.09882338],100,53,easy,plus,dotcolour,alfa,,,107,18,V,L,
468,90,6,11,3,44,36,817,['n'],0,left,['8'],4,241,[-0.07785345],100,44,hard,plus,dotcolour,alfa,,,107,18,V,L,
469,91,7,11,3,33,47,1050,['n'],1,right,['8'],4,263,[-0.01392439],73,47,medium,plus,dotcolour,alfa,,,107,18,V,L,
470,92,8,11,3,47,33,1017,['c'],1,left,['8'],4,293,[0.17763647],100,47,medium,plus,dotcolour,alfa,,,107,18,V,L,
471,93,9,11,3,36,44,800,['c'],0,right,['8'],4,290,[-0.02437638],16,44,hard,plus,dotcolour,alfa,,,107,18,V,L,
472,94,10,11,3,36,44,816,['c'],0,right,['8'],4,247,[0.02563119],86,44,hard,plus,dotcolour,alfa,,,107,18,V,L,
473,95,11,11,3,33,47,584,['c'],0,right,['8'],4,207,[0.00838193],66,47,medium,plus,dotcolour,alfa,,,107,18,V,L,
474,96,12,11,3,53,27,1017,['c'],1,left,['8'],4,263,[0.0743719],99,53,easy,plus,dotcolour,alfa,,,107,18,V,L,
475,97,13,11,3,44,36,734,['c'],1,left,['8'],4,240,[0.06710115],99,44,hard,plus,dotcolour,alfa,,,107,18,V,L,
476,98,14,11,3,36,44,1250,['n'],1,right,['8'],4,413,[-0.00247259],53,44,hard,plus,dotcolour,alfa,,,107,18,V,L,
477,99,15,11,3,53,27,1000,['c'],1,left,['8'],4,262,[0.02569895],86,53,easy,plus,dotcolour,alfa,,,107,18,V,L,
478,100,16,11,3,53,27,683,['c'],1,left,['8'],4,242,[0.10339839],100,53,easy,plus,dotcolour,alfa,,,107,18,V,L,
479,101,17,11,3,47,33,766,['c'],1,left,['8'],4,178,[0.08717191],100,47,medium,plus,dotcolour,alfa,,,107,18,V,L,
480,102,18,11,3,44,36,584,['c'],1,left,['8'],4,173,[0.10051177],100,44,hard,plus,dotcolour,alfa,,,107,18,V,L,
481,103,19,11,3,27,53,883,['n'],1,right,['8'],4,188,[-0.10238443],100,53,easy,plus,dotcolour,alfa,,,107,18,V,L,
482,104,20,11,3,27,53,1533,['n'],1,right,['8'],4,240,[-0.10570622],100,53,easy,plus,dotcolour,alfa,,,107,18,V,L,
483,105,21,11,3,44,36,900,['c'],1,left,['8'],4,180,[0.1385652],100,44,hard,plus,dotcolour,alfa,,,107,18,V,L,
484,106,22,11,3,36,44,1449,['n'],1,right,['8'],4,228,[-0.1186708],100,44,hard,plus,dotcolour,alfa,,,107,18,V,L,
485,107,23,11,3,27,53,1633,['c'],0,right,['8'],4,291,[0.14007356],100,53,easy,plus,dotcolour,alfa,,,107,18,V,L,
486,108,24,11,3,33,47,634,['c'],0,right,['8'],4,174,[0.03757111],96,47,medium,plus,dotcolour,alfa,,,107,18,V,L,
487,109,25,11,3,47,33,850,['c'],1,left,['8'],4,223,[0.06696864],99,47,medium,plus,dotcolour,alfa,,,107,18,V,L,
488,110,26,11,3,27,53,1001,['n'],1,right,['8'],4,215,[-0.17178075],100,53,easy,plus,dotcolour,alfa,,,107,18,V,L,
489,111,27,11,3,36,44,551,['c'],0,right,['8'],4,234,[0.02576897],87,44,hard,plus,dotcolour,alfa,,,107,18,V,L,
490,112,28,11,3,33,47,1233,['n'],1,right,['8'],4,257,[-0.05979954],99,47,medium,plus,dotcolour,alfa,,,107,18,V,L,
491,113,29,11,3,27,53,1117,['c'],0,right,['8'],4,170,[0.03414535],95,53,easy,plus,dotcolour,alfa,,,107,18,V,L,
492,114,30,11,3,44,36,3650,['c'],1,left,['8'],4,466,[0.12596637],100,44,hard,plus,dotcolour,alfa,,,107,18,V,L,
493,115,31,11,3,44,36,734,['c'],1,left,['8'],4,244,[0.11453502],100,44,hard,plus,dotcolour,alfa,,,107,18,V,L,
494,116,32,11,3,53,27,784,['c'],1,left,['8'],4,244,[0.09624126],100,53,easy,plus,dotcolour,alfa,,,107,18,V,L,
495,117,33,11,3,53,27,567,['c'],1,left,['8'],4,221,[0.16152355],100,53,easy,plus,dotcolour,alfa,,,107,18,V,L,
496,118,34,11,3,36,44,584,['c'],0,right,['8'],4,190,[0.07592024],100,44,hard,plus,dotcolour,alfa,,,107,18,V,L,
497,119,35,11,3,47,33,600,['c'],1,left,['8'],4,167,[0.05960181],99,47,medium,plus,dotcolour,alfa,,,107,18,V,L,
498,120,36,11,3,33,47,800,['c'],0,right,['9'],5,786,[-0.01297993],37,47,medium,plus,dotcolour,alfa,,,107,18,V,L,
499,121,37,11,3,33,47,700,['c'],0,right,['8'],4,360,[0.10669689],100,47,medium,plus,dotcolour,alfa,,,107,18,V,L,
500,122,38,11,3,27,53,1317,['n'],1,right,['9'],5,349,[-0.16660833],100,53,easy,plus,dotcolour,alfa,,,107,18,V,L,
501,123,39,11,3,33,47,1650,['c'],0,right,['8'],4,151,[0.06575348],100,47,medium,plus,dotcolour,alfa,,,107,18,V,L,
502,124,40,11,3,44,36,650,['c'],1,left,['9'],5,240,[-0.0268857],12,44,hard,plus,dotcolour,alfa,,,107,18,V,L,
503,125,41,11,3,47,33,533,['c'],1,left,['9'],5,242,[0.18024559],100,47,medium,plus,dotcolour,alfa,,,107,18,V,L,
504,0,0,12,4,33,47,817,['c'],0,right,['8'],4,244,[0.05537179],73,47,medium,minus,dotcolour,alfa,,,107,18,V,L,
505,1,1,12,4,44,36,651,['c'],1,left,['8'],4,138,[0.06278088],82,44,hard,minus,dotcolour,alfa,,,107,18,V,L,
506,2,2,12,4,33,47,650,['c'],0,right,['8'],4,475,[-0.04485858],36,47,medium,minus,dotcolour,alfa,,,107,18,V,L,
507,3,3,12,4,44,36,767,['c'],1,left,['9'],5,307,[0.08100565],79,44,hard,minus,dotcolour,alfa,,,107,18,V,L,
508,4,4,12,4,33,47,567,['c'],0,right,['8'],4,225,[0.01296648],56,47,medium,minus,dotcolour,alfa,,,107,18,V,L,
509,5,5,12,4,44,36,516,['c'],1,left,['8'],4,212,[0.06979379],80,44,hard,minus,dotcolour,alfa,,,107,18,V,L,
510,6,6,12,4,47,33,717,['c'],1,left,['9'],5,689,[0.13637442],81,47,medium,minus,dotcolour,alfa,,,107,18,V,L,
511,7,7,12,4,53,27,933,['c'],1,left,['9'],5,393,[0.09897486],81,53,easy,minus,dotcolour,alfa,,,107,18,V,L,
512,8,8,12,4,33,47,584,['c'],0,right,['8'],4,259,[0.1468495],93,47,medium,minus,dotcolour,alfa,,,107,18,V,L,
513,9,9,12,4,53,27,717,['c'],1,left,['9'],5,292,[0.21403937],97,53,easy,minus,dotcolour,alfa,,,107,18,V,L,
514,10,10,12,4,36,44,633,['c'],0,right,['8'],4,296,[0.10022582],84,44,hard,minus,dotcolour,alfa,,,107,18,V,L,
515,11,11,12,4,47,33,617,['c'],1,left,['8'],4,325,[0.1218744],87,47,medium,minus,dotcolour,alfa,,,107,18,V,L,
516,12,12,12,4,44,36,699,['c'],1,left,['8'],4,157,[0.03439294],69,44,hard,minus,dotcolour,alfa,,,107,18,V,L,
517,13,13,12,4,44,36,650,['c'],1,left,['8'],4,182,[0.10610677],90,44,hard,minus,dotcolour,alfa,,,107,18,V,L,
518,14,14,12,4,53,27,601,['c'],1,left,['9'],5,736,[0.17806396],87,53,easy,minus,dotcolour,alfa,,,107,18,V,L,
519,15,15,12,4,36,44,900,['c'],0,right,['9'],5,247,[0.01699252],58,44,hard,minus,dotcolour,alfa,,,107,18,V,L,
520,16,16,12,4,44,36,600,['c'],1,left,['9'],5,446,[0.19254316],93,44,hard,minus,dotcolour,alfa,,,107,18,V,L,
521,17,17,12,4,36,44,467,['c'],0,right,['8'],4,411,[0.03435863],62,44,hard,minus,dotcolour,alfa,,,107,18,V,L,
522,18,18,12,4,33,47,667,['c'],0,right,['9'],5,409,[-0.01035755],46,47,medium,minus,dotcolour,alfa,,,107,18,V,L,
523,19,19,12,4,53,27,750,['c'],1,left,['9'],5,556,[0.21273994],93,53,easy,minus,dotcolour,alfa,,,107,18,V,L,
524,20,20,12,4,33,47,799,['c'],0,right,['8'],4,615,[-0.13070127],18,47,medium,minus,dotcolour,alfa,,,107,18,V,L,
525,21,21,12,4,44,36,500,['c'],1,left,['8'],4,227,[0.12111199],91,44,hard,minus,dotcolour,alfa,,,107,18,V,L,
526,22,22,12,4,36,44,651,['c'],0,right,['8'],4,201,[0.10473464],89,44,hard,minus,dotcolour,alfa,,,107,18,V,L,
527,23,23,12,4,27,53,1417,['c'],0,right,['8'],4,418,[0.04035231],64,53,easy,minus,dotcolour,alfa,,,107,18,V,L,
528,24,24,12,4,47,33,717,['c'],1,left,['8'],4,254,[0.1985261],97,47,medium,minus,dotcolour,alfa,,,107,18,V,L,
529,25,25,12,4,27,53,634,['c'],0,right,['3'],3,1004,[-0.06044391],37,53,easy,minus,dotcolour,alfa,,,107,18,V,L,
530,26,26,12,4,47,33,800,['c'],1,left,['8'],4,308,[0.10064983],84,47,medium,minus,dotcolour,alfa,,,107,18,V,L,
531,27,27,12,4,53,27,566,['c'],1,left,['9'],5,450,[0.19800243],93,53,easy,minus,dotcolour,alfa,,,107,18,V,L,
532,28,28,12,4,36,44,900,['c'],0,right,['8'],4,358,[0.10327842],83,44,hard,minus,dotcolour,alfa,,,107,18,V,L,
533,29,29,12,4,53,27,601,['c'],1,left,['9'],5,369,[0.15887716],91,53,easy,minus,dotcolour,alfa,,,107,18,V,L,
534,30,30,12,4,36,44,617,['c'],0,right,['8'],4,291,[0.01609814],57,44,hard,minus,dotcolour,alfa,,,107,18,V,L,
535,31,31,12,4,47,33,467,['c'],1,left,['9'],5,365,[0.04337961],66,47,medium,minus,dotcolour,alfa,,,107,18,V,L,
536,32,32,12,4,27,53,1583,['n'],1,right,['8'],4,265,[-0.08358535],81,53,easy,minus,dotcolour,alfa,,,107,18,V,L,
537,33,33,12,4,27,53,767,['n'],1,right,['9'],5,289,[-0.11130259],87,53,easy,minus,dotcolour,alfa,,,107,18,V,L,
538,34,34,12,4,47,33,483,['c'],1,left,['9'],5,282,[0.13717516],91,47,medium,minus,dotcolour,alfa,,,107,18,V,L,
539,35,35,12,4,53,27,700,['c'],1,left,['8'],4,189,[0.09899891],89,53,easy,minus,dotcolour,alfa,,,107,18,V,L,
540,36,36,12,4,27,53,1050,['n'],1,right,['8'],4,381,[-0.19776016],95,53,easy,minus,dotcolour,alfa,,,107,18,V,L,
541,37,37,12,4,33,47,684,['c'],0,right,['8'],4,259,[0.10516325],87,47,medium,minus,dotcolour,alfa,,,107,18,V,L,
542,38,38,12,4,27,53,767,['n'],1,right,['8'],4,268,[-0.04217626],68,53,easy,minus,dotcolour,alfa,,,107,18,V,L,
543,39,39,12,4,36,44,750,['c'],0,right,['8'],4,301,[0.02254474],59,44,hard,minus,dotcolour,alfa,,,107,18,V,L,
544,40,40,12,4,47,33,1466,['c'],1,left,['8'],4,263,[0.00413624],52,47,medium,minus,dotcolour,alfa,,,107,18,V,L,
545,41,41,12,4,27,53,900,['n'],1,right,['8'],4,329,[-0.06612022],74,53,easy,minus,dotcolour,alfa,,,107,18,V,L,
546,42,0,13,4,33,47,884,['n'],1,right,['8'],4,197,[-0.05489395],75,47,medium,minus,dotcolour,alfa,,,107,18,V,L,
547,43,1,13,4,36,44,700,['c'],0,right,['8'],4,218,[0.1068877],89,44,hard,minus,dotcolour,alfa,,,107,18,V,L,
548,44,2,13,4,33,47,1500,['n'],1,right,['8'],4,399,[-0.16529415],91,47,medium,minus,dotcolour,alfa,,,107,18,V,L,
549,45,3,13,4,36,44,1616,['c'],0,right,['8'],4,503,[0.05129216],66,44,hard,minus,dotcolour,alfa,,,107,18,V,L,
550,46,4,13,4,44,36,1034,['n'],0,left,['8'],4,235,[-0.0227815],60,44,hard,minus,dotcolour,alfa,,,107,18,V,L,
551,47,5,13,4,47,33,800,['n'],0,left,['8'],4,244,[-0.07140022],79,47,medium,minus,dotcolour,alfa,,,107,18,V,L,
552,48,6,13,4,53,27,583,['c'],1,left,['8'],4,251,[0.10500713],87,53,easy,minus,dotcolour,alfa,,,107,18,V,L,
553,49,7,13,4,36,44,850,['n'],1,right,['8'],4,272,[-0.09848631],85,44,hard,minus,dotcolour,alfa,,,107,18,V,L,
554,50,8,13,4,44,36,801,['n'],0,left,['8'],4,263,[-0.0213867],59,44,hard,minus,dotcolour,alfa,,,107,18,V,L,
555,51,9,13,4,27,53,766,['n'],1,right,['8'],4,302,[-0.10349343],84,53,easy,minus,dotcolour,alfa,,,107,18,V,L,
556,52,10,13,4,33,47,766,['n'],1,right,['8'],4,237,[-0.05090258],72,47,medium,minus,dotcolour,alfa,,,107,18,V,L,
557,53,11,13,4,36,44,818,['c'],0,right,['8'],4,316,[0.06777699],75,44,hard,minus,dotcolour,alfa,,,107,18,V,L,
558,54,12,13,4,33,47,650,['c'],0,right,['8'],4,239,[0.03173362],64,47,medium,minus,dotcolour,alfa,,,107,18,V,L,
559,55,13,13,4,33,47,634,['c'],0,right,['8'],4,261,[-0.04202688],32,47,medium,minus,dotcolour,alfa,,,107,18,V,L,
560,56,14,13,4,44,36,769,['c'],1,left,['8'],4,189,[0.13639091],94,44,hard,minus,dotcolour,alfa,,,107,18,V,L,
561,57,15,13,4,53,27,567,['c'],1,left,['8'],4,192,[0.11207333],91,53,easy,minus,dotcolour,alfa,,,107,18,V,L,
562,58,16,13,4,53,27,867,['n'],0,left,['2'],2,1038,[0.24074629],11,53,easy,minus,dotcolour,alfa,,,107,18,V,L,
563,59,17,13,4,53,27,917,['c'],1,left,['8'],4,433,[0.22236709],95,53,easy,minus,dotcolour,alfa,,,107,18,V,L,
564,60,18,13,4,27,53,1200,['n'],1,right,['9'],5,537,[-0.21969543],94,53,easy,minus,dotcolour,alfa,,,107,18,V,L,
565,61,19,13,4,44,36,750,['c'],1,left,['9'],5,294,[0.14546521],92,44,hard,minus,dotcolour,alfa,,,107,18,V,L,
566,62,20,13,4,27,53,1050,['n'],1,right,['8'],4,274,[-0.02086212],59,53,easy,minus,dotcolour,alfa,,,107,18,V,L,
567,63,21,13,4,47,33,1150,['c'],1,left,['9'],5,218,[0.01902436],59,47,medium,minus,dotcolour,alfa,,,107,18,V,L,
568,64,22,13,4,47,33,1133,['c'],1,left,['9'],5,261,[0.16925885],95,47,medium,minus,dotcolour,alfa,,,107,18,V,L,
569,65,23,13,4,44,36,1583,['c'],1,left,['8'],4,285,[0.11765451],88,44,hard,minus,dotcolour,alfa,,,107,18,V,L,
570,66,24,13,4,47,33,667,['c'],1,left,['9'],5,312,[0.11170186],86,47,medium,minus,dotcolour,alfa,,,107,18,V,L,
571,67,25,13,4,44,36,817,['c'],1,left,['8'],4,204,[0.09257868],86,44,hard,minus,dotcolour,alfa,,,107,18,V,L,
572,68,26,13,4,53,27,1366,['c'],1,left,['8'],4,423,[0.11458952],83,53,easy,minus,dotcolour,alfa,,,107,18,V,L,
573,69,27,13,4,36,44,567,['c'],0,right,['8'],4,416,[0.06357753],71,44,hard,minus,dotcolour,alfa,,,107,18,V,L,
574,70,28,13,4,33,47,784,['c'],0,right,['8'],4,273,[0.06310498],75,47,medium,minus,dotcolour,alfa,,,107,18,V,L,
575,71,29,13,4,53,27,700,['c'],1,left,['8'],4,227,[0.0371571],67,53,easy,minus,dotcolour,alfa,,,107,18,V,L,
576,72,30,13,4,44,36,767,['c'],1,left,['8'],4,173,[0.04145945],71,44,hard,minus,dotcolour,alfa,,,107,18,V,L,
577,73,31,13,4,33,47,934,['n'],1,right,['8'],4,241,[-0.0821983],82,47,medium,minus,dotcolour,alfa,,,107,18,V,L,
578,74,32,13,4,36,44,1184,['c'],0,right,['8'],4,273,[-0.01196334],45,44,hard,minus,dotcolour,alfa,,,107,18,V,L,
579,75,33,13,4,47,33,534,['c'],1,left,['8'],4,195,[0.07463637],82,47,medium,minus,dotcolour,alfa,,,107,18,V,L,
580,76,34,13,4,27,53,884,['n'],1,right,['9'],5,248,[-0.06160048],75,53,easy,minus,dotcolour,alfa,,,107,18,V,L,
581,77,35,13,4,36,44,650,['c'],0,right,['8'],4,246,[0.1981484],97,44,hard,minus,dotcolour,alfa,,,107,18,V,L,
582,78,36,13,4,53,27,535,['c'],1,left,['9'],5,392,[0.00193061],51,53,easy,minus,dotcolour,alfa,,,107,18,V,L,
583,79,37,13,4,47,33,533,['c'],1,left,['8'],4,212,[0.02386837],61,47,medium,minus,dotcolour,alfa,,,107,18,V,L,
584,80,38,13,4,27,53,1834,['n'],1,right,['8'],4,371,[-0.07006436],74,53,easy,minus,dotcolour,alfa,,,107,18,V,L,
585,81,39,13,4,47,33,966,['c'],1,left,['8'],4,183,[0.15390939],96,47,medium,minus,dotcolour,alfa,,,107,18,V,L,
586,82,40,13,4,27,53,951,['n'],1,right,['8'],4,219,[-0.1302776],92,53,easy,minus,dotcolour,alfa,,,107,18,V,L,
587,83,41,13,4,27,53,866,['c'],0,right,['8'],4,225,[-0.00967869],45,53,easy,minus,dotcolour,alfa,,,107,18,V,L,
588,84,0,14,4,53,27,918,['c'],1,left,['8'],4,273,[0.13908817],92,53,easy,minus,dotcolour,alfa,,,107,18,V,L,
589,85,1,14,4,33,47,651,['c'],0,right,['8'],4,173,[0.08491593],86,47,medium,minus,dotcolour,alfa,,,107,18,V,L,
590,86,2,14,4,53,27,734,['c'],1,left,['8'],4,218,[0.091949],85,53,easy,minus,dotcolour,alfa,,,107,18,V,L,
591,87,3,14,4,44,36,718,['c'],1,left,['8'],4,286,[0.16754301],94,44,hard,minus,dotcolour,alfa,,,107,18,V,L,
592,88,4,14,4,27,53,1067,['n'],1,right,['8'],4,273,[-0.04852468],70,53,easy,minus,dotcolour,alfa,,,107,18,V,L,
593,89,5,14,4,27,53,567,['c'],0,right,['8'],4,281,[-0.05081541],30,53,easy,minus,dotcolour,alfa,,,107,18,V,L,
594,90,6,14,4,36,44,650,['c'],0,right,['8'],4,325,[0.06540177],74,44,hard,minus,dotcolour,alfa,,,107,18,V,L,
595,91,7,14,4,44,36,567,['c'],1,left,['8'],4,187,[0.17673574],98,44,hard,minus,dotcolour,alfa,,,107,18,V,L,
596,92,8,14,4,27,53,984,['c'],0,right,['9'],5,365,[-0.04569241],34,53,easy,minus,dotcolour,alfa,,,107,18,V,L,
597,93,9,14,4,27,53,1100,['n'],1,right,['9'],5,363,[0.03373467],38,53,easy,minus,dotcolour,alfa,,,107,18,V,L,
598,94,10,14,4,36,44,983,['c'],0,right,['8'],4,295,[0.00067262],50,44,hard,minus,dotcolour,alfa,,,107,18,V,L,
599,95,11,14,4,47,33,766,['c'],1,left,['8'],4,325,[0.16528181],93,47,medium,minus,dotcolour,alfa,,,107,18,V,L,
600,96,12,14,4,33,47,667,['c'],0,right,['9'],5,591,[0.09090835],74,47,medium,minus,dotcolour,alfa,,,107,18,V,L,
601,97,13,14,4,44,36,1450,['c'],1,left,['8'],4,326,[0.08023611],78,44,hard,minus,dotcolour,alfa,,,107,18,V,L,
602,98,14,14,4,53,27,817,['c'],1,left,['8'],4,449,[0.20867904],94,53,easy,minus,dotcolour,alfa,,,107,18,V,L,
603,99,15,14,4,36,44,667,['c'],0,right,['8'],4,198,[0.03113499],65,44,hard,minus,dotcolour,alfa,,,107,18,V,L,
604,100,16,14,4,27,53,817,['n'],1,right,['9'],5,375,[-0.09576485],80,53,easy,minus,dotcolour,alfa,,,107,18,V,L,
605,101,17,14,4,33,47,717,['n'],1,right,['9'],5,252,[-0.1181332],89,47,medium,minus,dotcolour,alfa,,,107,18,V,L,
606,102,18,14,4,36,44,700,['c'],0,right,['8'],4,223,[0.01560517],57,44,hard,minus,dotcolour,alfa,,,107,18,V,L,
607,103,19,14,4,33,47,684,['c'],0,right,['8'],4,188,[-0.00325838],48,47,medium,minus,dotcolour,alfa,,,107,18,V,L,
608,104,20,14,4,47,33,833,['c'],1,left,['8'],4,245,[0.09334375],85,47,medium,minus,dotcolour,alfa,,,107,18,V,L,
609,105,21,14,4,36,44,667,['c'],0,right,['8'],4,225,[0.09871983],87,44,hard,minus,dotcolour,alfa,,,107,18,V,L,
610,106,22,14,4,53,27,901,['c'],1,left,['8'],4,189,[0.04698381],73,53,easy,minus,dotcolour,alfa,,,107,18,V,L,
611,107,23,14,4,44,36,967,['c'],1,left,['8'],4,224,[0.12434527],91,44,hard,minus,dotcolour,alfa,,,107,18,V,L,
612,108,24,14,4,53,27,600,['c'],1,left,['8'],4,288,[0.07050296],77,53,easy,minus,dotcolour,alfa,,,107,18,V,L,
613,109,25,14,4,27,53,1101,['n'],1,right,['8'],4,194,[-0.16561407],97,53,easy,minus,dotcolour,alfa,,,107,18,V,L,
614,110,26,14,4,33,47,517,['c'],0,right,['8'],4,198,[0.07450123],82,47,medium,minus,dotcolour,alfa,,,107,18,V,L,
615,111,27,14,4,44,36,534,['c'],1,left,['8'],4,194,[0.13542736],94,44,hard,minus,dotcolour,alfa,,,107,18,V,L,
616,112,28,14,4,53,27,650,['c'],1,left,['8'],4,137,[0.11215599],94,53,easy,minus,dotcolour,alfa,,,107,18,V,L,
617,113,29,14,4,47,33,633,['c'],1,left,['8'],4,188,[0.11097555],91,47,medium,minus,dotcolour,alfa,,,107,18,V,L,
618,114,30,14,4,47,33,501,['c'],1,left,['8'],4,130,[0.08582626],89,47,medium,minus,dotcolour,alfa,,,107,18,V,L,
619,115,31,14,4,44,36,550,['c'],1,left,['8'],4,193,[0.06668579],80,44,hard,minus,dotcolour,alfa,,,107,18,V,L,
620,116,32,14,4,44,36,634,['c'],1,left,['8'],4,336,[0.10651864],84,44,hard,minus,dotcolour,alfa,,,107,18,V,L,
621,117,33,14,4,53,27,516,['c'],1,left,['8'],4,168,[0.08036147],85,53,easy,minus,dotcolour,alfa,,,107,18,V,L,
622,118,34,14,4,36,44,500,['c'],0,right,['8'],4,206,[0.08503914],84,44,hard,minus,dotcolour,alfa,,,107,18,V,L,
623,119,35,14,4,27,53,1018,['n'],1,right,['8'],4,230,[-0.01901601],59,53,easy,minus,dotcolour,alfa,,,107,18,V,L,
624,120,36,14,4,33,47,616,['c'],0,right,['8'],4,182,[0.03591016],68,47,medium,minus,dotcolour,alfa,,,107,18,V,L,
625,121,37,14,4,33,47,534,['c'],0,right,['8'],4,187,[0.04331914],71,47,medium,minus,dotcolour,alfa,,,107,18,V,L,
626,122,38,14,4,47,33,717,['c'],1,left,['8'],4,280,[0.11313692],87,47,medium,minus,dotcolour,alfa,,,107,18,V,L,
627,123,39,14,4,47,33,683,['c'],1,left,['8'],4,154,[0.14307417],96,47,medium,minus,dotcolour,alfa,,,107,18,V,L,
628,124,40,14,4,47,33,817,['c'],1,left,['8'],4,197,[0.05845181],77,47,medium,minus,dotcolour,alfa,,,107,18,V,L,
629,125,41,14,4,36,44,666,['c'],0,right,['8'],4,188,[0.05090193],74,44,hard,minus,dotcolour,alfa,,,107,18,V,L,
630,0,0,15,5,36,44,634,['c'],0,right,['8'],4,353,[0.05443314],96,44,hard,plus,dotcolour,alfa,,,107,18,V,L,
631,1,1,15,5,27,53,583,['c'],0,right,['8'],4,189,[0.00475882],60,53,easy,plus,dotcolour,alfa,,,107,18,V,L,
632,2,2,15,5,47,33,583,['c'],1,left,['8'],4,135,[0.06404473],100,47,medium,plus,dotcolour,alfa,,,107,18,V,L,
633,3,3,15,5,27,53,833,['n'],1,right,['8'],4,202,[-0.0637078],99,53,easy,plus,dotcolour,alfa,,,107,18,V,L,
634,4,4,15,5,47,33,767,['c'],1,left,['8'],4,213,[0.19297683],100,47,medium,plus,dotcolour,alfa,,,107,18,V,L,
635,5,5,15,5,44,36,584,['c'],1,left,['8'],4,158,[0.10092888],100,44,hard,plus,dotcolour,alfa,,,107,18,V,L,
636,6,6,15,5,33,47,933,['c'],0,right,['8'],4,307,[0.05784846],98,47,medium,plus,dotcolour,alfa,,,107,18,V,L,
637,7,7,15,5,36,44,766,['c'],0,right,['8'],4,201,[0.07555964],100,44,hard,plus,dotcolour,alfa,,,107,18,V,L,
638,8,8,15,5,33,47,2734,['c'],0,right,['8'],4,3429,[-0.34232837],0,47,medium,plus,dotcolour,alfa,,,107,18,V,L,
639,9,9,15,5,53,27,583,['c'],1,left,['8'],4,262,[0.08281166],100,53,easy,plus,dotcolour,alfa,,,107,18,V,L,
640,10,10,15,5,47,33,567,['c'],1,left,['8'],4,173,[0.11791873],100,47,medium,plus,dotcolour,alfa,,,107,18,V,L,
641,11,11,15,5,33,47,583,['c'],0,right,['8'],4,160,[0.09153508],100,47,medium,plus,dotcolour,alfa,,,107,18,V,L,
642,12,12,15,5,53,27,717,['c'],1,left,['8'],4,166,[0.13878855],100,53,easy,plus,dotcolour,alfa,,,107,18,V,L,
643,13,13,15,5,36,44,1018,['c'],0,right,['8'],4,272,[0.00531502],59,44,hard,plus,dotcolour,alfa,,,107,18,V,L,
644,14,14,15,5,33,47,535,['c'],0,right,['8'],4,305,[0.04421819],95,47,medium,plus,dotcolour,alfa,,,107,18,V,L,
645,15,15,15,5,53,27,1067,['c'],1,left,['8'],4,195,[0.1219289],100,53,easy,plus,dotcolour,alfa,,,107,18,V,L,
646,16,16,15,5,36,44,550,['c'],0,right,['8'],4,383,[0.08353585],99,44,hard,plus,dotcolour,alfa,,,107,18,V,L,
647,17,17,15,5,53,27,516,['c'],1,left,['8'],4,188,[0.06004074],99,53,easy,plus,dotcolour,alfa,,,107,18,V,L,
648,18,18,15,5,33,47,1167,['n'],1,right,['8'],4,463,[-0.14591507],100,47,medium,plus,dotcolour,alfa,,,107,18,V,L,
649,19,19,15,5,44,36,533,['c'],1,left,['8'],4,194,[0.01878063],82,44,hard,plus,dotcolour,alfa,,,107,18,V,L,
650,20,20,15,5,47,33,550,['c'],1,left,['8'],4,380,[0.09228475],100,47,medium,plus,dotcolour,alfa,,,107,18,V,L,
651,21,21,15,5,44,36,617,['c'],1,left,['9'],5,253,[0.09489806],100,44,hard,plus,dotcolour,alfa,,,107,18,V,L,
652,22,22,15,5,27,53,967,['n'],1,right,['9'],5,494,[-0.21932492],100,53,easy,plus,dotcolour,alfa,,,107,18,V,L,
653,23,23,15,5,36,44,866,['c'],0,right,['8'],4,210,[0.07474033],100,44,hard,plus,dotcolour,alfa,,,107,18,V,L,
654,24,24,15,5,27,53,1118,['n'],1,right,['8'],4,293,[-0.08607849],100,53,easy,plus,dotcolour,alfa,,,107,18,V,L,
655,25,25,15,5,53,27,767,['c'],1,left,['9'],5,348,[0.04781376],95,53,easy,plus,dotcolour,alfa,,,107,18,V,L,
656,26,26,15,5,44,36,983,['c'],1,left,['9'],5,288,[0.06350997],99,44,hard,plus,dotcolour,alfa,,,107,18,V,L,
657,27,27,15,5,47,33,683,['c'],1,left,['9'],5,299,[0.02702954],86,47,medium,plus,dotcolour,alfa,,,107,18,V,L,
658,28,28,15,5,44,36,534,['c'],1,left,['9'],5,211,[0.02573722],88,44,hard,plus,dotcolour,alfa,,,107,18,V,L,
659,29,29,15,5,47,33,433,['c'],1,left,['9'],5,194,[0.07289852],100,47,medium,plus,dotcolour,alfa,,,107,18,V,L,
660,30,30,15,5,36,44,1017,['n'],1,right,['9'],5,322,[-0.07756285],99,44,hard,plus,dotcolour,alfa,,,107,18,V,L,
661,31,31,15,5,27,53,734,['c'],0,right,['9'],5,481,[-0.0706225],2,53,easy,plus,dotcolour,alfa,,,107,18,V,L,
662,32,32,15,5,47,33,516,['c'],1,left,['9'],5,266,[0.12510115],100,47,medium,plus,dotcolour,alfa,,,107,18,V,L,
663,33,33,15,5,44,36,516,['c'],1,left,['9'],5,284,[0.15198907],100,44,hard,plus,dotcolour,alfa,,,107,18,V,L,
664,34,34,15,5,27,53,3099,['c'],0,right,['8'],4,342,[-0.02295849],20,53,easy,plus,dotcolour,alfa,,,107,18,V,L,
665,35,35,15,5,27,53,734,['c'],0,right,['3'],3,1244,[0.01958528],65,53,easy,plus,dotcolour,alfa,,,107,18,V,L,
666,36,36,15,5,53,27,617,['c'],1,left,['8'],4,219,[0.10356105],100,53,easy,plus,dotcolour,alfa,,,107,18,V,L,
667,37,37,15,5,33,47,633,['c'],0,right,['8'],4,274,[-0.06675393],1,47,medium,plus,dotcolour,alfa,,,107,18,V,L,
668,38,38,15,5,44,36,2316,['c'],1,left,['8'],4,508,[0.11098375],100,44,hard,plus,dotcolour,alfa,,,107,18,V,L,
669,39,39,15,5,33,47,567,['c'],0,right,['9'],5,315,[0.06105116],98,47,medium,plus,dotcolour,alfa,,,107,18,V,L,
670,40,40,15,5,36,44,601,['c'],0,right,['8'],4,151,[0.00810136],68,44,hard,plus,dotcolour,alfa,,,107,18,V,L,
671,41,41,15,5,53,27,683,['c'],1,left,['8'],4,151,[0.03776984],97,53,easy,plus,dotcolour,alfa,,,107,18,V,L,
672,42,0,16,5,36,44,1068,['n'],1,right,['8'],4,210,[-0.09475066],100,44,hard,plus,dotcolour,alfa,,,107,18,V,L,
673,43,1,16,5,53,27,600,['c'],1,left,['8'],4,170,[0.09841166],100,53,easy,plus,dotcolour,alfa,,,107,18,V,L,
674,44,2,16,5,36,44,750,['n'],1,right,['8'],4,167,[-0.06825385],100,44,hard,plus,dotcolour,alfa,,,107,18,V,L,
675,45,3,16,5,47,33,849,['c'],1,left,['8'],4,159,[0.14580294],100,47,medium,plus,dotcolour,alfa,,,107,18,V,L,
676,46,4,16,5,53,27,468,['c'],1,left,['8'],4,135,[0.09322364],100,53,easy,plus,dotcolour,alfa,,,107,18,V,L,
677,47,5,16,5,27,53,649,['c'],0,right,['8'],4,186,[0.13218472],100,53,easy,plus,dotcolour,alfa,,,107,18,V,L,
678,48,6,16,5,53,27,500,['c'],1,left,['8'],4,183,[0.09300657],100,53,easy,plus,dotcolour,alfa,,,107,18,V,L,
679,49,7,16,5,53,27,483,['c'],1,left,['8'],4,174,[0.16112902],100,53,easy,plus,dotcolour,alfa,,,107,18,V,L,
680,50,8,16,5,33,47,1100,['n'],1,right,['8'],4,412,[-0.19868997],100,47,medium,plus,dotcolour,alfa,,,107,18,V,L,
681,51,9,16,5,33,47,584,['c'],0,right,['8'],4,253,[0.03886555],94,47,medium,plus,dotcolour,alfa,,,107,18,V,L,
682,52,10,16,5,47,33,500,['c'],1,left,['8'],4,177,[0.05396382],99,47,medium,plus,dotcolour,alfa,,,107,18,V,L,
683,53,11,16,5,27,53,551,['c'],0,right,['8'],4,149,[-0.01115109],26,53,easy,plus,dotcolour,alfa,,,107,18,V,L,
684,54,12,16,5,44,36,700,['c'],1,left,['8'],4,164,[0.07320508],100,44,hard,plus,dotcolour,alfa,,,107,18,V,L,
685,55,13,16,5,44,36,634,['c'],1,left,['8'],4,166,[0.05511427],99,44,hard,plus,dotcolour,alfa,,,107,18,V,L,
686,56,14,16,5,33,47,567,['c'],0,right,['8'],4,145,[0.10307987],100,47,medium,plus,dotcolour,alfa,,,107,18,V,L,
687,57,15,16,5,36,44,517,['c'],0,right,['8'],4,144,[0.15034691],100,44,hard,plus,dotcolour,alfa,,,107,18,V,L,
688,58,16,16,5,53,27,350,['c'],1,left,['8'],4,150,[0.06814106],100,53,easy,plus,dotcolour,alfa,,,107,18,V,L,
689,59,17,16,5,36,44,934,['n'],1,right,['9'],5,252,[-0.00214604],54,44,hard,plus,dotcolour,alfa,,,107,18,V,L,
690,60,18,16,5,27,53,550,['c'],0,right,['8'],4,245,[-0.05754222],1,53,easy,plus,dotcolour,alfa,,,107,18,V,L,
691,61,19,16,5,27,53,500,['c'],0,right,['2'],2,1072,[0.01975789],67,53,easy,plus,dotcolour,alfa,,,107,18,V,L,
692,62,20,16,5,33,47,1000,['n'],1,right,['8'],4,294,[-0.14048878],100,47,medium,plus,dotcolour,alfa,,,107,18,V,L,
693,63,21,16,5,33,47,850,['c'],0,right,['8'],4,458,[-0.10833841],0,47,medium,plus,dotcolour,alfa,,,107,18,V,L,
694,64,22,16,5,27,53,617,['c'],0,right,['8'],4,208,[-0.09856129],0,53,easy,plus,dotcolour,alfa,,,107,18,V,L,
695,65,23,16,5,53,27,502,['c'],1,left,['8'],4,228,[0.12625016],100,53,easy,plus,dotcolour,alfa,,,107,18,V,L,
696,66,24,16,5,44,36,616,['c'],1,left,['8'],4,252,[0.01785247],78,44,hard,plus,dotcolour,alfa,,,107,18,V,L,
697,67,25,16,5,47,33,450,['c'],1,left,['8'],4,161,[0.08660847],100,47,medium,plus,dotcolour,alfa,,,107,18,V,L,
698,68,26,16,5,44,36,584,['c'],1,left,['8'],4,317,[0.07201861],99,44,hard,plus,dotcolour,alfa,,,107,18,V,L,
699,69,27,16,5,44,36,533,['c'],1,left,['8'],4,188,[0.09254321],100,44,hard,plus,dotcolour,alfa,,,107,18,V,L,
700,70,28,16,5,36,44,318,['c'],0,right,['8'],4,273,[0.07752374],100,44,hard,plus,dotcolour,alfa,,,107,18,V,L,
701,71,29,16,5,36,44,1067,['n'],1,right,['8'],4,517,[-0.18252272],100,44,hard,plus,dotcolour,alfa,,,107,18,V,L,
702,72,30,16,5,47,33,550,['c'],1,left,['8'],4,196,[0.21019853],100,47,medium,plus,dotcolour,alfa,,,107,18,V,L,
703,73,31,16,5,47,33,800,['c'],1,left,['8'],4,373,[0.23534293],100,47,medium,plus,dotcolour,alfa,,,107,18,V,L,
704,74,32,16,5,53,27,534,['c'],1,left,['9'],5,186,[0.11659982],100,53,easy,plus,dotcolour,alfa,,,107,18,V,L,
705,75,33,16,5,33,47,616,['c'],0,right,['8'],4,379,[0.10737793],100,47,medium,plus,dotcolour,alfa,,,107,18,V,L,
706,76,34,16,5,47,33,682,['c'],1,left,['9'],5,466,[0.13593948],100,47,medium,plus,dotcolour,alfa,,,107,18,V,L,
707,77,35,16,5,36,44,550,['c'],0,right,['9'],5,179,[0.08217677],100,44,hard,plus,dotcolour,alfa,,,107,18,V,L,
708,78,36,16,5,33,47,600,['c'],0,right,['8'],4,349,[0.0050154],58,47,medium,plus,dotcolour,alfa,,,107,18,V,L,
709,79,37,16,5,27,53,466,['c'],0,right,['3'],3,1189,[-0.03519814],24,53,easy,plus,dotcolour,alfa,,,107,18,V,L,
710,80,38,16,5,47,33,800,['c'],1,left,['8'],4,190,[0.02984214],92,47,medium,plus,dotcolour,alfa,,,107,18,V,L,
711,81,39,16,5,27,53,1400,['n'],1,right,['8'],4,239,[-0.14549436],100,53,easy,plus,dotcolour,alfa,,,107,18,V,L,
712,82,40,16,5,44,36,849,['n'],0,left,['3'],3,1381,[-0.22743519],100,44,hard,plus,dotcolour,alfa,,,107,18,V,L,
713,83,41,16,5,44,36,650,['c'],1,left,['8'],4,220,[0.06007276],99,44,hard,plus,dotcolour,alfa,,,107,18,V,L,
714,84,0,17,5,33,47,717,['c'],0,right,['8'],4,305,[0.01684706],75,47,medium,plus,dotcolour,alfa,,,107,18,V,L,
715,85,1,17,5,47,33,583,['c'],1,left,['8'],4,191,[0.0506833],98,47,medium,plus,dotcolour,alfa,,,107,18,V,L,
716,86,2,17,5,44,36,2783,['c'],1,left,['8'],4,273,[0.15682639],100,44,hard,plus,dotcolour,alfa,,,107,18,V,L,
717,87,3,17,5,27,53,767,['n'],1,right,['8'],4,208,[-0.1763824],100,53,easy,plus,dotcolour,alfa,,,107,18,V,L,
718,88,4,17,5,53,27,816,['c'],1,left,['8'],4,176,[0.0975429],100,53,easy,plus,dotcolour,alfa,,,107,18,V,L,
719,89,5,17,5,36,44,501,['c'],0,right,['8'],4,342,[0.09646316],100,44,hard,plus,dotcolour,alfa,,,107,18,V,L,
720,90,6,17,5,27,53,800,['n'],1,right,['9'],5,274,[-0.10412642],100,53,easy,plus,dotcolour,alfa,,,107,18,V,L,
721,91,7,17,5,44,36,466,['c'],1,left,['9'],5,245,[0.00792129],64,44,hard,plus,dotcolour,alfa,,,107,18,V,L,
722,92,8,17,5,27,53,900,['n'],1,right,['9'],5,232,[-0.09521234],100,53,easy,plus,dotcolour,alfa,,,107,18,V,L,
723,93,9,17,5,53,27,433,['c'],1,left,['9'],5,207,[0.09332007],100,53,easy,plus,dotcolour,alfa,,,107,18,V,L,
724,94,10,17,5,33,47,1283,['c'],0,right,['8'],4,180,[0.14556821],100,47,medium,plus,dotcolour,alfa,,,107,18,V,L,
725,95,11,17,5,44,36,667,['c'],1,left,['0'],6,587,[-0.01270911],35,44,hard,plus,dotcolour,alfa,,,107,18,V,L,
726,96,12,17,5,53,27,433,['c'],1,left,['0'],6,140,[0.1348606],100,53,easy,plus,dotcolour,alfa,,,107,18,V,L,
727,97,13,17,5,47,33,750,['c'],1,left,['9'],5,282,[0.10201421],100,47,medium,plus,dotcolour,alfa,,,107,18,V,L,
728,98,14,17,5,47,33,667,['c'],1,left,['9'],5,276,[0.05402766],98,47,medium,plus,dotcolour,alfa,,,107,18,V,L,
729,99,15,17,5,27,53,1167,['n'],1,right,['0'],6,244,[-0.1411925],100,53,easy,plus,dotcolour,alfa,,,107,18,V,L,
730,100,16,17,5,36,44,701,['c'],0,right,['8'],4,328,[-0.03526361],10,44,hard,plus,dotcolour,alfa,,,107,18,V,L,
731,101,17,17,5,33,47,583,['c'],0,right,['8'],4,156,[-0.00265533],44,47,medium,plus,dotcolour,alfa,,,107,18,V,L,
732,102,18,17,5,53,27,917,['c'],1,left,['9'],5,226,[0.16180147],100,53,easy,plus,dotcolour,alfa,,,107,18,V,L,
733,103,19,17,5,44,36,1233,['c'],1,left,['8'],4,216,[0.11043268],100,44,hard,plus,dotcolour,alfa,,,107,18,V,L,
734,104,20,17,5,33,47,933,['n'],1,right,['8'],4,204,[-0.03070637],92,47,medium,plus,dotcolour,alfa,,,107,18,V,L,
735,105,21,17,5,33,47,350,['c'],0,right,['8'],4,191,[0.03306533],94,47,medium,plus,dotcolour,alfa,,,107,18,V,L,
736,106,22,17,5,36,44,317,['c'],0,right,['8'],4,172,[0.0343167],95,44,hard,plus,dotcolour,alfa,,,107,18,V,L,
737,107,23,17,5,47,33,567,['c'],1,left,['8'],4,136,[0.11084719],100,47,medium,plus,dotcolour,alfa,,,107,18,V,L,
738,108,24,17,5,36,44,468,['c'],0,right,['8'],4,169,[0.09766087],100,44,hard,plus,dotcolour,alfa,,,107,18,V,L,
739,109,25,17,5,36,44,450,['c'],0,right,['8'],4,170,[0.07813135],100,44,hard,plus,dotcolour,alfa,,,107,18,V,L,
740,110,26,17,5,36,44,516,['c'],0,right,['8'],4,168,[0.03930479],97,44,hard,plus,dotcolour,alfa,,,107,18,V,L,
741,111,27,17,5,36,44,467,['c'],0,right,['8'],4,136,[0.01521001],82,44,hard,plus,dotcolour,alfa,,,107,18,V,L,
742,112,28,17,5,53,27,534,['c'],1,left,['8'],4,375,[0.03791976],90,53,easy,plus,dotcolour,alfa,,,107,18,V,L,
743,113,29,17,5,53,27,868,['c'],1,left,['9'],5,422,[0.16956884],100,53,easy,plus,dotcolour,alfa,,,107,18,V,L,
744,114,30,17,5,33,47,533,['c'],0,right,['9'],5,161,[0.10940384],100,47,medium,plus,dotcolour,alfa,,,107,18,V,L,
745,115,31,17,5,27,53,967,['n'],1,right,['8'],4,220,[-0.06512505],99,53,easy,plus,dotcolour,alfa,,,107,18,V,L,
746,116,32,17,5,47,33,800,['c'],1,left,['8'],4,157,[0.12164722],100,47,medium,plus,dotcolour,alfa,,,107,18,V,L,
747,117,33,17,5,53,27,683,['c'],1,left,['8'],4,205,[0.05405222],99,53,easy,plus,dotcolour,alfa,,,107,18,V,L,
748,118,34,17,5,44,36,550,['c'],1,left,['9'],5,329,[0.00342213],55,44,hard,plus,dotcolour,alfa,,,107,18,V,L,
749,119,35,17,5,44,36,466,['c'],1,left,['9'],5,225,[0.10502034],100,44,hard,plus,dotcolour,alfa,,,107,18,V,L,
750,120,36,17,5,33,47,934,['c'],0,right,['8'],4,180,[0.03856287],96,47,medium,plus,dotcolour,alfa,,,107,18,V,L,
751,121,37,17,5,47,33,516,['c'],1,left,['8'],4,177,[0.12194089],100,47,medium,plus,dotcolour,alfa,,,107,18,V,L,
752,122,38,17,5,27,53,1600,['n'],1,right,['8'],4,364,[-0.1947626],100,53,easy,plus,dotcolour,alfa,,,107,18,V,L,
753,123,39,17,5,27,53,750,['n'],1,right,['9'],5,320,[-0.10599423],100,53,easy,plus,dotcolour,alfa,,,107,18,V,L,
754,124,40,17,5,44,36,617,['c'],1,left,['8'],4,197,[0.04709026],98,44,hard,plus,dotcolour,alfa,,,107,18,V,L,
755,125,41,17,5,47,33,766,['c'],1,left,['9'],5,199,[0.12238099],100,47,medium,plus,dotcolour,alfa,,,107,18,V,L,
,,,,,,,,,,,,,,,,,,,,,1,,107,18,V,L,
,,,,,,,,,,,,,,,,,,,,,2,['g'],107,18,V,L,
,,,,,,,,,,,,,,,,,,,,,3,['g'],107,18,V,L,
,,,,,,,,,,,,,,,,,,,,,5,['5'],107,18,V,L,
