trial,withinphasetrial,withinblocktrial,block,phase,dotsLeft,dotsRight,rt,resp,cor,cresp,conf_press,cj,RTconf,ev,fb,diff,difflevel,condition,task,manip,questionID,questionResp,sub,age,gender,handedness,
0,0,0,0,0,33,47,4717,['n'],1,right,['8'],4,2745,[-0.2278641],99,47,medium,plus,dotcolour,alfa,,,82,18,V,R,
1,1,1,0,0,33,47,5999,['c'],0,right,['8'],4,4756,[-0.87335892],0,47,medium,plus,dotcolour,alfa,,,82,18,V,R,
2,2,2,0,0,33,47,3550,['c'],0,right,['9'],5,1583,[-0.14376328],2,47,medium,plus,dotcolour,alfa,,,82,18,V,R,
3,3,3,0,0,33,47,3200,['n'],1,right,['8'],4,856,[-0.09451924],98,47,medium,plus,dotcolour,alfa,,,82,18,V,R,
4,4,4,0,0,44,36,1817,['c'],1,left,['8'],4,1294,[0.2234792],100,44,hard,plus,dotcolour,alfa,,,82,18,V,R,
5,5,5,0,0,53,27,2034,['n'],0,left,['3'],3,1010,[0.15834655],0,53,easy,plus,dotcolour,alfa,,,82,18,V,R,
6,6,6,0,0,44,36,3316,['c'],1,left,['9'],5,1318,[0.22536861],100,44,hard,plus,dotcolour,alfa,,,82,18,V,R,
7,7,7,0,0,36,44,1515,['n'],1,right,['9'],5,1165,[-0.03745694],78,44,hard,plus,dotcolour,alfa,,,82,18,V,R,
8,8,8,0,0,47,33,1282,['c'],1,left,['9'],5,1516,[0.14074306],98,47,medium,plus,dotcolour,alfa,,,82,18,V,R,
9,9,9,0,0,53,27,1350,['c'],1,left,['0'],6,770,[-0.00440544],45,53,easy,plus,dotcolour,alfa,,,82,18,V,R,
10,10,10,0,0,53,27,1300,['c'],1,left,['9'],5,952,[0.32087624],100,53,easy,plus,dotcolour,alfa,,,82,18,V,R,
11,11,11,0,0,36,44,2481,['n'],1,right,['3'],3,544,[-0.08811251],99,44,hard,plus,dotcolour,alfa,,,82,18,V,R,
12,12,12,0,0,44,36,1833,['c'],1,left,['8'],4,1178,[0.21230437],100,44,hard,plus,dotcolour,alfa,,,82,18,V,R,
13,13,13,0,0,27,53,1518,['n'],1,right,['9'],5,855,[-0.27585661],100,53,easy,plus,dotcolour,alfa,,,82,18,V,R,
14,14,14,0,0,27,53,1098,['n'],1,right,['0'],6,521,[-0.14310621],100,53,easy,plus,dotcolour,alfa,,,82,18,V,R,
15,15,15,0,0,27,53,867,['n'],1,right,['0'],6,419,[-0.0624622],97,53,easy,plus,dotcolour,alfa,,,82,18,V,R,
16,16,16,0,0,27,53,666,['n'],1,right,['0'],6,296,[-0.05697599],98,53,easy,plus,dotcolour,alfa,,,82,18,V,R,
17,17,17,0,0,36,44,1199,['c'],0,right,['8'],4,1038,[-0.00440703],46,44,hard,plus,dotcolour,alfa,,,82,18,V,R,
18,18,18,0,0,44,36,2266,['c'],1,left,['8'],4,754,[0.02713036],75,44,hard,plus,dotcolour,alfa,,,82,18,V,R,
19,19,19,0,0,27,53,1767,['n'],1,right,['9'],5,1054,[-0.33268986],100,53,easy,plus,dotcolour,alfa,,,82,18,V,R,
20,20,20,0,0,27,53,866,['n'],1,right,['9'],5,482,[-0.17343402],100,53,easy,plus,dotcolour,alfa,,,82,18,V,R,
21,21,21,0,0,47,33,1033,['c'],1,left,['9'],5,487,[0.22272244],100,47,medium,plus,dotcolour,alfa,,,82,18,V,R,
22,22,22,0,0,36,44,2383,['n'],1,right,['3'],3,1709,[-0.31414556],100,44,hard,plus,dotcolour,alfa,,,82,18,V,R,
23,23,23,0,0,53,27,2100,['c'],1,left,['8'],4,686,[0.08511557],98,53,easy,plus,dotcolour,alfa,,,82,18,V,R,
24,24,24,0,0,33,47,1217,['n'],1,right,['0'],6,883,[-0.30574744],100,47,medium,plus,dotcolour,alfa,,,82,18,V,R,
25,25,25,0,0,27,53,766,['n'],1,right,['0'],6,225,[-0.08671566],100,53,easy,plus,dotcolour,alfa,,,82,18,V,R,
26,26,26,0,0,36,44,1264,['c'],0,right,['9'],5,575,[-0.15290343],0,44,hard,plus,dotcolour,alfa,,,82,18,V,R,
27,27,27,0,0,47,33,1150,['c'],1,left,['9'],5,739,[0.21354672],100,47,medium,plus,dotcolour,alfa,,,82,18,V,R,
28,28,28,0,0,33,47,1281,['n'],1,right,['0'],6,427,[0.07439064],2,47,medium,plus,dotcolour,alfa,,,82,18,V,R,
29,29,29,0,0,44,36,1401,['n'],0,left,['9'],5,459,[-0.08573001],99,44,hard,plus,dotcolour,alfa,,,82,18,V,R,
30,30,30,0,0,53,27,3100,['c'],1,left,['8'],4,1109,[0.35694583],100,53,easy,plus,dotcolour,alfa,,,82,18,V,R,
31,31,31,0,0,44,36,1100,['c'],1,left,['9'],5,886,[0.19445883],100,44,hard,plus,dotcolour,alfa,,,82,18,V,R,
32,32,32,0,0,33,47,1983,['c'],0,right,['8'],4,1540,[-0.06638407],13,47,medium,plus,dotcolour,alfa,,,82,18,V,R,
33,33,33,0,0,36,44,1083,['n'],1,right,['0'],6,252,[-0.08992327],100,44,hard,plus,dotcolour,alfa,,,82,18,V,R,
34,34,34,0,0,36,44,632,['n'],1,right,['0'],6,209,[-0.11079396],100,44,hard,plus,dotcolour,alfa,,,82,18,V,R,
35,35,35,0,0,53,27,751,['c'],1,left,['9'],5,1061,[0.23667396],100,53,easy,plus,dotcolour,alfa,,,82,18,V,R,
36,36,36,0,0,47,33,1634,['n'],0,left,['8'],4,690,[-0.00454451],55,47,medium,plus,dotcolour,alfa,,,82,18,V,R,
37,37,37,0,0,47,33,2383,['c'],1,left,['3'],3,1232,[0.07793424],93,47,medium,plus,dotcolour,alfa,,,82,18,V,R,
38,38,38,0,0,47,33,1765,['c'],1,left,['8'],4,640,[0.22662728],100,47,medium,plus,dotcolour,alfa,,,82,18,V,R,
39,39,39,0,0,44,36,2234,['c'],1,left,['9'],5,654,[0.2376026],100,44,hard,plus,dotcolour,alfa,,,82,18,V,R,
40,40,40,0,0,53,27,1950,['n'],0,left,['3'],3,1151,[0.1869444],0,53,easy,plus,dotcolour,alfa,,,82,18,V,R,
41,41,41,0,0,47,33,1150,['c'],1,left,['8'],4,1035,[0.1772428],100,47,medium,plus,dotcolour,alfa,,,82,18,V,R,
42,42,0,1,0,27,53,2200,['n'],1,right,['0'],6,601,[-0.04456754],89,53,easy,plus,dotcolour,alfa,,,82,18,V,R,
43,43,1,1,0,44,36,2564,['n'],0,left,['8'],4,1307,[0.13644124],1,44,hard,plus,dotcolour,alfa,,,82,18,V,R,
44,44,2,1,0,47,33,2267,['c'],1,left,['8'],4,894,[0.16223236],100,47,medium,plus,dotcolour,alfa,,,82,18,V,R,
45,45,3,1,0,36,44,1617,['n'],1,right,['8'],4,530,[0.02840973],20,44,hard,plus,dotcolour,alfa,,,82,18,V,R,
46,46,4,1,0,53,27,1550,['c'],1,left,['9'],5,1208,[0.14437843],99,53,easy,plus,dotcolour,alfa,,,82,18,V,R,
47,47,5,1,0,33,47,717,['n'],1,right,['0'],6,332,[-0.14735451],100,47,medium,plus,dotcolour,alfa,,,82,18,V,R,
48,48,6,1,0,36,44,733,['n'],1,right,['0'],6,299,[-0.08594482],100,44,hard,plus,dotcolour,alfa,,,82,18,V,R,
49,49,7,1,0,53,27,1182,['c'],1,left,['8'],4,369,[0.11350439],100,53,easy,plus,dotcolour,alfa,,,82,18,V,R,
50,50,8,1,0,27,53,765,['n'],1,right,['0'],6,317,[-0.14788591],100,53,easy,plus,dotcolour,alfa,,,82,18,V,R,
51,51,9,1,0,44,36,1149,['c'],1,left,['8'],4,675,[0.12517274],100,44,hard,plus,dotcolour,alfa,,,82,18,V,R,
52,52,10,1,0,33,47,667,['n'],1,right,['9'],5,583,[-0.0686572],96,47,medium,plus,dotcolour,alfa,,,82,18,V,R,
53,53,11,1,0,53,27,916,['c'],1,left,['0'],6,348,[0.10438792],100,53,easy,plus,dotcolour,alfa,,,82,18,V,R,
54,54,12,1,0,36,44,616,['n'],1,right,['0'],6,343,[-0.10645224],100,44,hard,plus,dotcolour,alfa,,,82,18,V,R,
55,55,13,1,0,27,53,663,['n'],1,right,['0'],6,271,[-0.19963062],100,53,easy,plus,dotcolour,alfa,,,82,18,V,R,
56,56,14,1,0,47,33,881,['c'],1,left,['0'],6,939,[0.05345418],88,47,medium,plus,dotcolour,alfa,,,82,18,V,R,
57,57,15,1,0,27,53,949,['n'],1,right,['0'],6,304,[-0.14308843],100,53,easy,plus,dotcolour,alfa,,,82,18,V,R,
58,58,16,1,0,44,36,1567,['c'],1,left,['8'],4,711,[0.16747994],100,44,hard,plus,dotcolour,alfa,,,82,18,V,R,
59,59,17,1,0,44,36,1016,['c'],1,left,['9'],5,1131,[0.11819229],98,44,hard,plus,dotcolour,alfa,,,82,18,V,R,
60,60,18,1,0,53,27,850,['c'],1,left,['0'],6,300,[0.01732273],76,53,easy,plus,dotcolour,alfa,,,82,18,V,R,
61,61,19,1,0,33,47,1599,['c'],0,right,['1'],1,2353,[-0.19148764],1,47,medium,plus,dotcolour,alfa,,,82,18,V,R,
62,62,20,1,0,36,44,916,['n'],1,right,['9'],5,519,[-0.19768851],100,44,hard,plus,dotcolour,alfa,,,82,18,V,R,
63,63,21,1,0,27,53,817,['n'],1,right,['0'],6,675,[-0.18519318],100,53,easy,plus,dotcolour,alfa,,,82,18,V,R,
64,64,22,1,0,33,47,700,['n'],1,right,['9'],5,869,[-0.14538327],100,47,medium,plus,dotcolour,alfa,,,82,18,V,R,
65,65,23,1,0,47,33,1467,['c'],1,left,['8'],4,584,[0.14659081],100,47,medium,plus,dotcolour,alfa,,,82,18,V,R,
66,66,24,1,0,27,53,650,['n'],1,right,['0'],6,287,[-0.13762542],100,53,easy,plus,dotcolour,alfa,,,82,18,V,R,
67,67,25,1,0,33,47,2166,['n'],1,right,['8'],4,1103,[-0.18251762],100,47,medium,plus,dotcolour,alfa,,,82,18,V,R,
68,68,26,1,0,53,27,1049,['c'],1,left,['0'],6,297,[0.13097149],100,53,easy,plus,dotcolour,alfa,,,82,18,V,R,
69,69,27,1,0,44,36,2433,['n'],0,left,['8'],4,333,[-0.03765008],91,44,hard,plus,dotcolour,alfa,,,82,18,V,R,
70,70,28,1,0,44,36,2917,['n'],0,left,['9'],5,1189,[0.14826227],1,44,hard,plus,dotcolour,alfa,,,82,18,V,R,
71,71,29,1,0,47,33,2031,['c'],1,left,['8'],4,380,[0.09981198],100,47,medium,plus,dotcolour,alfa,,,82,18,V,R,
72,72,30,1,0,27,53,833,['n'],1,right,['0'],6,285,[-0.0982724],100,53,easy,plus,dotcolour,alfa,,,82,18,V,R,
73,73,31,1,0,36,44,1583,['c'],0,right,['8'],4,276,[0.08239569],100,44,hard,plus,dotcolour,alfa,,,82,18,V,R,
74,74,32,1,0,33,47,1433,['c'],0,right,['9'],5,489,[0.09845934],99,47,medium,plus,dotcolour,alfa,,,82,18,V,R,
75,75,33,1,0,53,27,751,['c'],1,left,['0'],6,240,[0.12054276],100,53,easy,plus,dotcolour,alfa,,,82,18,V,R,
76,76,34,1,0,36,44,833,['n'],1,right,['0'],6,222,[-0.0779753],100,44,hard,plus,dotcolour,alfa,,,82,18,V,R,
77,77,35,1,0,47,33,1697,['n'],0,left,['8'],4,858,[0.01316536],37,47,medium,plus,dotcolour,alfa,,,82,18,V,R,
78,78,36,1,0,36,44,1549,['n'],1,right,['0'],6,1083,[-0.02010009],67,44,hard,plus,dotcolour,alfa,,,82,18,V,R,
79,79,37,1,0,47,33,1016,['c'],1,left,['9'],5,544,[0.10642406],99,47,medium,plus,dotcolour,alfa,,,82,18,V,R,
80,80,38,1,0,33,47,2217,['n'],1,right,['8'],4,715,[-0.3839597],100,47,medium,plus,dotcolour,alfa,,,82,18,V,R,
81,81,39,1,0,53,27,1167,['c'],1,left,['9'],5,696,[0.15881908],100,53,easy,plus,dotcolour,alfa,,,82,18,V,R,
82,82,40,1,0,44,36,1584,['c'],1,left,['8'],4,462,[0.06485406],97,44,hard,plus,dotcolour,alfa,,,82,18,V,R,
83,83,41,1,0,47,33,984,['n'],0,left,['9'],5,581,[-0.08005687],98,47,medium,plus,dotcolour,alfa,,,82,18,V,R,
84,84,0,2,0,44,36,1800,['c'],1,left,['9'],5,1476,[0.11643246],97,44,hard,plus,dotcolour,alfa,,,82,18,V,R,
85,85,1,2,0,36,44,3582,['n'],1,right,['3'],3,1538,[-0.22244421],100,44,hard,plus,dotcolour,alfa,,,82,18,V,R,
86,86,2,2,0,33,47,934,['n'],1,right,['9'],5,729,[-0.03146317],79,47,medium,plus,dotcolour,alfa,,,82,18,V,R,
87,87,3,2,0,33,47,1400,['n'],1,right,['8'],4,860,[-0.18288052],100,47,medium,plus,dotcolour,alfa,,,82,18,V,R,
88,88,4,2,0,27,53,665,['n'],1,right,['0'],6,504,[0.00439328],44,53,easy,plus,dotcolour,alfa,,,82,18,V,R,
89,89,5,2,0,47,33,966,['c'],1,left,['0'],6,774,[0.07456716],95,47,medium,plus,dotcolour,alfa,,,82,18,V,R,
90,90,6,2,0,27,53,667,['n'],1,right,['0'],6,293,[-0.15196993],100,53,easy,plus,dotcolour,alfa,,,82,18,V,R,
91,91,7,2,0,44,36,717,['c'],1,left,['9'],5,534,[0.21927749],100,44,hard,plus,dotcolour,alfa,,,82,18,V,R,
92,92,8,2,0,36,44,947,['n'],1,right,['9'],5,564,[-0.14069597],100,44,hard,plus,dotcolour,alfa,,,82,18,V,R,
93,93,9,2,0,47,33,783,['c'],1,left,['0'],6,439,[0.15419325],100,47,medium,plus,dotcolour,alfa,,,82,18,V,R,
94,94,10,2,0,36,44,799,['n'],1,right,['9'],5,270,[-0.05449744],98,44,hard,plus,dotcolour,alfa,,,82,18,V,R,
95,95,11,2,0,33,47,950,['n'],1,right,['0'],6,302,[-0.08917677],100,47,medium,plus,dotcolour,alfa,,,82,18,V,R,
96,96,12,2,0,36,44,933,['n'],1,right,['9'],5,350,[-0.04074872],92,44,hard,plus,dotcolour,alfa,,,82,18,V,R,
97,97,13,2,0,44,36,899,['n'],0,left,['9'],5,1022,[0.20714387],0,44,hard,plus,dotcolour,alfa,,,82,18,V,R,
98,98,14,2,0,47,33,2230,['n'],0,left,['8'],4,1004,[0.05028168],14,47,medium,plus,dotcolour,alfa,,,82,18,V,R,
99,99,15,2,0,53,27,883,['c'],1,left,['8'],4,1074,[0.23474139],100,53,easy,plus,dotcolour,alfa,,,82,18,V,R,
100,100,16,2,0,47,33,749,['c'],1,left,['9'],5,538,[0.12248711],100,47,medium,plus,dotcolour,alfa,,,82,18,V,R,
101,101,17,2,0,36,44,2165,['n'],1,right,['9'],5,462,[-0.1710754],100,44,hard,plus,dotcolour,alfa,,,82,18,V,R,
102,102,18,2,0,27,53,917,['n'],1,right,['0'],6,296,[-0.27598],100,53,easy,plus,dotcolour,alfa,,,82,18,V,R,
103,103,19,2,0,44,36,1433,['c'],1,left,['9'],5,452,[0.06754891],97,44,hard,plus,dotcolour,alfa,,,82,18,V,R,
104,104,20,2,0,47,33,984,['c'],1,left,['9'],5,308,[0.10721587],100,47,medium,plus,dotcolour,alfa,,,82,18,V,R,
105,105,21,2,0,53,27,783,['c'],1,left,['0'],6,425,[0.10597904],100,53,easy,plus,dotcolour,alfa,,,82,18,V,R,
106,106,22,2,0,53,27,1000,['c'],1,left,['9'],5,825,[0.2076417],100,53,easy,plus,dotcolour,alfa,,,82,18,V,R,
107,107,23,2,0,27,53,666,['n'],1,right,['0'],6,430,[-0.15041984],100,53,easy,plus,dotcolour,alfa,,,82,18,V,R,
108,108,24,2,0,44,36,950,['n'],0,left,['9'],5,632,[-0.05068635],91,44,hard,plus,dotcolour,alfa,,,82,18,V,R,
109,109,25,2,0,53,27,1134,['c'],1,left,['0'],6,563,[0.3101492],100,53,easy,plus,dotcolour,alfa,,,82,18,V,R,
110,110,26,2,0,47,33,1817,['c'],1,left,['9'],5,437,[0.23420177],100,47,medium,plus,dotcolour,alfa,,,82,18,V,R,
111,111,27,2,0,27,53,783,['n'],1,right,['0'],6,286,[-0.18152938],100,53,easy,plus,dotcolour,alfa,,,82,18,V,R,
112,112,28,2,0,33,47,1800,['n'],1,right,['9'],5,668,[-0.17648066],100,47,medium,plus,dotcolour,alfa,,,82,18,V,R,
113,113,29,2,0,27,53,698,['n'],1,right,['0'],6,446,[-0.10525628],100,53,easy,plus,dotcolour,alfa,,,82,18,V,R,
114,114,30,2,0,44,36,1364,['c'],1,left,['9'],5,382,[0.05246553],96,44,hard,plus,dotcolour,alfa,,,82,18,V,R,
115,115,31,2,0,27,53,734,['n'],1,right,['0'],6,523,[-0.07287387],97,53,easy,plus,dotcolour,alfa,,,82,18,V,R,
116,116,32,2,0,36,44,1147,['n'],1,right,['8'],4,833,[-0.05148533],88,44,hard,plus,dotcolour,alfa,,,82,18,V,R,
117,117,33,2,0,33,47,2067,['n'],1,right,['0'],6,1447,[-0.17053943],99,47,medium,plus,dotcolour,alfa,,,82,18,V,R,
118,118,34,2,0,44,36,884,['c'],1,left,['9'],5,610,[0.18851308],100,44,hard,plus,dotcolour,alfa,,,82,18,V,R,
119,119,35,2,0,33,47,784,['n'],1,right,['0'],6,515,[-0.2677208],100,47,medium,plus,dotcolour,alfa,,,82,18,V,R,
120,120,36,2,0,47,33,1466,['c'],1,left,['8'],4,461,[0.21553321],100,47,medium,plus,dotcolour,alfa,,,82,18,V,R,
121,121,37,2,0,53,27,2131,['n'],0,left,['8'],4,318,[0.05147259],4,53,easy,plus,dotcolour,alfa,,,82,18,V,R,
122,122,38,2,0,53,27,816,['c'],1,left,['0'],6,474,[0.20453771],100,53,easy,plus,dotcolour,alfa,,,82,18,V,R,
123,123,39,2,0,33,47,1450,['n'],1,right,['9'],5,926,[-0.08654411],96,47,medium,plus,dotcolour,alfa,,,82,18,V,R,
124,124,40,2,0,36,44,1551,['n'],1,right,['8'],4,1292,[0.06294337],12,44,hard,plus,dotcolour,alfa,,,82,18,V,R,
125,125,41,2,0,53,27,847,['c'],1,left,['0'],6,560,[0.20500041],100,53,easy,plus,dotcolour,alfa,,,82,18,V,R,
126,0,0,3,1,44,36,2350,['c'],1,left,['8'],4,432,[0.05401499],68,44,hard,minus,dotcolour,alfa,,,82,18,V,R,
127,1,1,3,1,36,44,767,['n'],1,right,['0'],6,842,[-0.18696699],86,44,hard,minus,dotcolour,alfa,,,82,18,V,R,
128,2,2,3,1,44,36,817,['c'],1,left,['9'],5,520,[0.03541948],61,44,hard,minus,dotcolour,alfa,,,82,18,V,R,
129,3,3,3,1,47,33,1817,['c'],1,left,['8'],4,459,[0.09920751],79,47,medium,minus,dotcolour,alfa,,,82,18,V,R,
130,4,4,3,1,47,33,1667,['c'],1,left,['8'],4,808,[0.17299938],85,47,medium,minus,dotcolour,alfa,,,82,18,V,R,
131,5,5,3,1,53,27,1033,['c'],1,left,['9'],5,967,[0.09949164],71,53,easy,minus,dotcolour,alfa,,,82,18,V,R,
132,6,6,3,1,36,44,1267,['c'],0,right,['0'],6,519,[-0.08073031],27,44,hard,minus,dotcolour,alfa,,,82,18,V,R,
133,7,7,3,1,27,53,833,['n'],1,right,['0'],6,258,[-0.07566012],79,53,easy,minus,dotcolour,alfa,,,82,18,V,R,
134,8,8,3,1,33,47,747,['n'],1,right,['0'],6,675,[-0.07793828],70,47,medium,minus,dotcolour,alfa,,,82,18,V,R,
135,9,9,3,1,36,44,1481,['n'],1,right,['8'],4,558,[0.02430079],43,44,hard,minus,dotcolour,alfa,,,82,18,V,R,
136,10,10,3,1,53,27,1267,['c'],1,left,['9'],5,694,[0.29992189],96,53,easy,minus,dotcolour,alfa,,,82,18,V,R,
137,11,11,3,1,44,36,1167,['n'],0,left,['9'],5,436,[-0.05642721],68,44,hard,minus,dotcolour,alfa,,,82,18,V,R,
138,12,12,3,1,27,53,767,['n'],1,right,['0'],6,317,[-0.15038636],92,53,easy,minus,dotcolour,alfa,,,82,18,V,R,
139,13,13,3,1,27,53,651,['n'],1,right,['0'],6,319,[0.01002246],46,53,easy,minus,dotcolour,alfa,,,82,18,V,R,
140,14,14,3,1,27,53,617,['n'],1,right,['0'],6,338,[-0.08355044],78,53,easy,minus,dotcolour,alfa,,,82,18,V,R,
141,15,15,3,1,33,47,1417,['c'],0,right,['9'],5,710,[0.01307393],53,47,medium,minus,dotcolour,alfa,,,82,18,V,R,
142,16,16,3,1,53,27,851,['c'],1,left,['9'],5,1224,[0.30996574],93,53,easy,minus,dotcolour,alfa,,,82,18,V,R,
143,17,17,3,1,27,53,582,['n'],1,right,['9'],5,497,[-0.13301206],85,53,easy,minus,dotcolour,alfa,,,82,18,V,R,
144,18,18,3,1,36,44,867,['c'],0,right,['9'],5,643,[0.08484064],72,44,hard,minus,dotcolour,alfa,,,82,18,V,R,
145,19,19,3,1,47,33,1100,['c'],1,left,['0'],6,495,[0.06296167],69,47,medium,minus,dotcolour,alfa,,,82,18,V,R,
146,20,20,3,1,44,36,1466,['c'],1,left,['9'],5,1074,[0.10850475],72,44,hard,minus,dotcolour,alfa,,,82,18,V,R,
147,21,21,3,1,53,27,817,['c'],1,left,['0'],6,1655,[0.33755611],91,53,easy,minus,dotcolour,alfa,,,82,18,V,R,
148,22,22,3,1,44,36,800,['c'],1,left,['0'],6,333,[0.00928456],54,44,hard,minus,dotcolour,alfa,,,82,18,V,R,
149,23,23,3,1,36,44,1030,['n'],1,right,['0'],6,239,[-0.11117147],89,44,hard,minus,dotcolour,alfa,,,82,18,V,R,
150,24,24,3,1,53,27,650,['c'],1,left,['0'],6,373,[0.25788882],98,53,easy,minus,dotcolour,alfa,,,82,18,V,R,
151,25,25,3,1,27,53,583,['n'],1,right,['0'],6,327,[-0.19826908],96,53,easy,minus,dotcolour,alfa,,,82,18,V,R,
152,26,26,3,1,36,44,549,['n'],1,right,['0'],6,373,[-0.12373617],86,44,hard,minus,dotcolour,alfa,,,82,18,V,R,
153,27,27,3,1,33,47,732,['n'],1,right,['0'],6,378,[-0.16979575],92,47,medium,minus,dotcolour,alfa,,,82,18,V,R,
154,28,28,3,1,33,47,734,['n'],1,right,['0'],6,439,[0.00507934],48,47,medium,minus,dotcolour,alfa,,,82,18,V,R,
155,29,29,3,1,27,53,600,['n'],1,right,['0'],6,390,[-0.09612116],80,53,easy,minus,dotcolour,alfa,,,82,18,V,R,
156,30,30,3,1,33,47,817,['n'],1,right,['0'],6,895,[-0.21684875],89,47,medium,minus,dotcolour,alfa,,,82,18,V,R,
157,31,31,3,1,47,33,817,['c'],1,left,['9'],5,419,[0.16283252],91,47,medium,minus,dotcolour,alfa,,,82,18,V,R,
158,32,32,3,1,44,36,733,['n'],0,left,['2'],2,1942,[-0.1146557],68,44,hard,minus,dotcolour,alfa,,,82,18,V,R,
159,33,33,3,1,36,44,1963,['c'],0,right,['8'],4,706,[0.03010368],58,44,hard,minus,dotcolour,alfa,,,82,18,V,R,
160,34,34,3,1,47,33,1234,['n'],0,left,['8'],4,653,[0.10632431],23,47,medium,minus,dotcolour,alfa,,,82,18,V,R,
161,35,35,3,1,33,47,765,['n'],1,right,['0'],6,566,[-0.18997822],91,47,medium,minus,dotcolour,alfa,,,82,18,V,R,
162,36,36,3,1,47,33,1183,['c'],1,left,['9'],5,513,[0.13098556],84,47,medium,minus,dotcolour,alfa,,,82,18,V,R,
163,37,37,3,1,53,27,1000,['c'],1,left,['0'],6,981,[0.1661695],82,53,easy,minus,dotcolour,alfa,,,82,18,V,R,
164,38,38,3,1,47,33,832,['c'],1,left,['9'],5,630,[0.12614253],81,47,medium,minus,dotcolour,alfa,,,82,18,V,R,
165,39,39,3,1,33,47,733,['n'],1,right,['9'],5,697,[-0.20713719],90,47,medium,minus,dotcolour,alfa,,,82,18,V,R,
166,40,40,3,1,53,27,783,['c'],1,left,['0'],6,286,[0.21051094],97,53,easy,minus,dotcolour,alfa,,,82,18,V,R,
167,41,41,3,1,44,36,750,['n'],0,left,['9'],5,597,[-0.13407747],83,44,hard,minus,dotcolour,alfa,,,82,18,V,R,
168,42,0,4,1,44,36,883,['n'],0,left,['9'],5,873,[-0.10035773],72,44,hard,minus,dotcolour,alfa,,,82,18,V,R,
169,43,1,4,1,33,47,748,['n'],1,right,['0'],6,297,[-0.04199861],67,47,medium,minus,dotcolour,alfa,,,82,18,V,R,
170,44,2,4,1,27,53,533,['n'],1,right,['0'],6,361,[-0.2174328],96,53,easy,minus,dotcolour,alfa,,,82,18,V,R,
171,45,3,4,1,27,53,600,['n'],1,right,['0'],6,324,[-0.12913596],89,53,easy,minus,dotcolour,alfa,,,82,18,V,R,
172,46,4,4,1,47,33,1417,['c'],1,left,['0'],6,1272,[0.29162149],91,47,medium,minus,dotcolour,alfa,,,82,18,V,R,
173,47,5,4,1,36,44,764,['n'],1,right,['9'],5,662,[-0.15613078],85,44,hard,minus,dotcolour,alfa,,,82,18,V,R,
174,48,6,4,1,33,47,1884,['n'],1,right,['9'],5,1426,[-0.03705553],57,47,medium,minus,dotcolour,alfa,,,82,18,V,R,
175,49,7,4,1,27,53,567,['n'],1,right,['0'],6,291,[-0.1595585],93,53,easy,minus,dotcolour,alfa,,,82,18,V,R,
176,50,8,4,1,53,27,650,['c'],1,left,['0'],6,695,[0.0720543],69,53,easy,minus,dotcolour,alfa,,,82,18,V,R,
177,51,9,4,1,33,47,2450,['c'],0,right,['8'],4,258,[0.02795569],62,47,medium,minus,dotcolour,alfa,,,82,18,V,R,
178,52,10,4,1,53,27,1416,['c'],1,left,['0'],6,240,[0.10276966],87,53,easy,minus,dotcolour,alfa,,,82,18,V,R,
179,53,11,4,1,33,47,1848,['c'],0,right,['9'],5,381,[0.14308159],89,47,medium,minus,dotcolour,alfa,,,82,18,V,R,
180,54,12,4,1,47,33,1417,['c'],1,left,['9'],5,303,[0.05220216],70,47,medium,minus,dotcolour,alfa,,,82,18,V,R,
181,55,13,4,1,33,47,1015,['n'],1,right,['9'],5,883,[-0.19218264],86,47,medium,minus,dotcolour,alfa,,,82,18,V,R,
182,56,14,4,1,44,36,1533,['c'],1,left,['8'],4,411,[0.09195906],78,44,hard,minus,dotcolour,alfa,,,82,18,V,R,
183,57,15,4,1,47,33,1299,['c'],1,left,['9'],5,456,[0.08591236],76,47,medium,minus,dotcolour,alfa,,,82,18,V,R,
184,58,16,4,1,53,27,1197,['c'],1,left,['0'],6,407,[0.16942076],92,53,easy,minus,dotcolour,alfa,,,82,18,V,R,
185,59,17,4,1,44,36,1783,['n'],0,left,['8'],4,624,[0.01250843],46,44,hard,minus,dotcolour,alfa,,,82,18,V,R,
186,60,18,4,1,53,27,880,['c'],1,left,['0'],6,253,[0.12023137],90,53,easy,minus,dotcolour,alfa,,,82,18,V,R,
187,61,19,4,1,36,44,1516,['c'],0,right,['0'],6,415,[0.01910204],57,44,hard,minus,dotcolour,alfa,,,82,18,V,R,
188,62,20,4,1,47,33,783,['n'],0,left,['0'],6,296,[0.0001467],50,47,medium,minus,dotcolour,alfa,,,82,18,V,R,
189,63,21,4,1,47,33,1582,['n'],0,left,['9'],5,382,[0.01827073],43,47,medium,minus,dotcolour,alfa,,,82,18,V,R,
190,64,22,4,1,53,27,1080,['c'],1,left,['0'],6,373,[0.14240153],89,53,easy,minus,dotcolour,alfa,,,82,18,V,R,
191,65,23,4,1,36,44,3434,['c'],0,right,['8'],4,357,[0.08255768],78,44,hard,minus,dotcolour,alfa,,,82,18,V,R,
192,66,24,4,1,27,53,783,['n'],1,right,['0'],6,249,[-0.05123954],72,53,easy,minus,dotcolour,alfa,,,82,18,V,R,
193,67,25,4,1,36,44,649,['n'],1,right,['9'],5,638,[-0.13268053],82,44,hard,minus,dotcolour,alfa,,,82,18,V,R,
194,68,26,4,1,47,33,1366,['c'],1,left,['9'],5,743,[0.14329087],82,47,medium,minus,dotcolour,alfa,,,82,18,V,R,
195,69,27,4,1,36,44,1614,['n'],1,right,['9'],5,921,[-0.1559321],81,44,hard,minus,dotcolour,alfa,,,82,18,V,R,
196,70,28,4,1,53,27,632,['c'],1,left,['9'],5,308,[0.18781347],95,53,easy,minus,dotcolour,alfa,,,82,18,V,R,
197,71,29,4,1,44,36,1384,['c'],1,left,['0'],6,457,[0.0530203],67,44,hard,minus,dotcolour,alfa,,,82,18,V,R,
198,72,30,4,1,44,36,1333,['n'],0,left,['9'],5,307,[-0.11150747],86,44,hard,minus,dotcolour,alfa,,,82,18,V,R,
199,73,31,4,1,36,44,2600,['c'],0,right,['9'],5,183,[0.13728757],95,44,hard,minus,dotcolour,alfa,,,82,18,V,R,
200,74,32,4,1,44,36,1266,['c'],1,left,['0'],6,615,[0.15886552],86,44,hard,minus,dotcolour,alfa,,,82,18,V,R,
201,75,33,4,1,27,53,1316,['n'],1,right,['0'],6,275,[0.01848458],42,53,easy,minus,dotcolour,alfa,,,82,18,V,R,
202,76,34,4,1,33,47,930,['n'],1,right,['9'],5,459,[-0.00378265],51,47,medium,minus,dotcolour,alfa,,,82,18,V,R,
203,77,35,4,1,27,53,716,['n'],1,right,['0'],6,389,[-0.0676936],73,53,easy,minus,dotcolour,alfa,,,82,18,V,R,
204,78,36,4,1,36,44,3867,['c'],0,right,['8'],4,452,[0.03486285],61,44,hard,minus,dotcolour,alfa,,,82,18,V,R,
205,79,37,4,1,47,33,934,['n'],0,left,['0'],6,669,[-0.06983004],68,47,medium,minus,dotcolour,alfa,,,82,18,V,R,
206,80,38,4,1,53,27,900,['c'],1,left,['0'],6,431,[0.17208883],91,53,easy,minus,dotcolour,alfa,,,82,18,V,R,
207,81,39,4,1,33,47,881,['n'],1,right,['0'],6,724,[-0.11714154],78,47,medium,minus,dotcolour,alfa,,,82,18,V,R,
208,82,40,4,1,44,36,1699,['c'],1,left,['3'],3,1508,[0.10953798],69,44,hard,minus,dotcolour,alfa,,,82,18,V,R,
209,83,41,4,1,27,53,667,['n'],1,right,['0'],6,589,[-0.14157876],84,53,easy,minus,dotcolour,alfa,,,82,18,V,R,
210,84,0,5,1,27,53,1450,['n'],1,right,['0'],6,373,[-0.10493327],82,53,easy,minus,dotcolour,alfa,,,82,18,V,R,
211,85,1,5,1,33,47,1116,['n'],1,right,['9'],5,362,[-0.06828087],74,47,medium,minus,dotcolour,alfa,,,82,18,V,R,
212,86,2,5,1,44,36,1451,['c'],1,left,['8'],4,1451,[0.11508707],70,44,hard,minus,dotcolour,alfa,,,82,18,V,R,
213,87,3,5,1,27,53,734,['n'],1,right,['0'],6,356,[-0.17244382],93,53,easy,minus,dotcolour,alfa,,,82,18,V,R,
214,88,4,5,1,47,33,950,['c'],1,left,['9'],5,529,[0.03263826],60,47,medium,minus,dotcolour,alfa,,,82,18,V,R,
215,89,5,5,1,36,44,666,['n'],1,right,['0'],6,355,[-0.10571839],83,44,hard,minus,dotcolour,alfa,,,82,18,V,R,
216,90,6,5,1,36,44,931,['n'],1,right,['0'],6,360,[-0.05707679],70,44,hard,minus,dotcolour,alfa,,,82,18,V,R,
217,91,7,5,1,33,47,2715,['c'],0,right,['9'],5,902,[0.04086373],60,47,medium,minus,dotcolour,alfa,,,82,18,V,R,
218,92,8,5,1,44,36,931,['n'],0,left,['9'],5,365,[-0.08550211],78,44,hard,minus,dotcolour,alfa,,,82,18,V,R,
219,93,9,5,1,53,27,1018,['c'],1,left,['9'],5,279,[0.11939514],88,53,easy,minus,dotcolour,alfa,,,82,18,V,R,
220,94,10,5,1,44,36,1049,['n'],0,left,['9'],5,443,[0.01448905],45,44,hard,minus,dotcolour,alfa,,,82,18,V,R,
221,95,11,5,1,27,53,667,['n'],1,right,['0'],6,904,[-0.15577626],81,53,easy,minus,dotcolour,alfa,,,82,18,V,R,
222,96,12,5,1,44,36,984,['n'],0,left,['9'],5,885,[0.0832512],31,44,hard,minus,dotcolour,alfa,,,82,18,V,R,
223,97,13,5,1,44,36,883,['c'],1,left,['9'],5,351,[0.15579406],91,44,hard,minus,dotcolour,alfa,,,82,18,V,R,
224,98,14,5,1,47,33,1913,['c'],1,left,['8'],4,726,[0.02991225],58,47,medium,minus,dotcolour,alfa,,,82,18,V,R,
225,99,15,5,1,44,36,1365,['c'],1,left,['9'],5,475,[0.11863604],82,44,hard,minus,dotcolour,alfa,,,82,18,V,R,
226,100,16,5,1,47,33,1284,['n'],0,left,['9'],5,742,[-0.11117937],76,47,medium,minus,dotcolour,alfa,,,82,18,V,R,
227,101,17,5,1,47,33,1099,['c'],1,left,['9'],5,526,[0.01888637],56,47,medium,minus,dotcolour,alfa,,,82,18,V,R,
228,102,18,5,1,44,36,1099,['n'],0,left,['0'],6,293,[-0.02364404],60,44,hard,minus,dotcolour,alfa,,,82,18,V,R,
229,103,19,5,1,27,53,617,['n'],1,right,['0'],6,298,[-0.17310129],95,53,easy,minus,dotcolour,alfa,,,82,18,V,R,
230,104,20,5,1,36,44,1483,['n'],1,right,['9'],5,324,[-0.0064577],53,44,hard,minus,dotcolour,alfa,,,82,18,V,R,
231,105,21,5,1,36,44,1017,['c'],0,right,['8'],4,1103,[0.20917242],86,44,hard,minus,dotcolour,alfa,,,82,18,V,R,
232,106,22,5,1,47,33,1667,['c'],1,left,['9'],5,353,[0.03814694],64,47,medium,minus,dotcolour,alfa,,,82,18,V,R,
233,107,23,5,1,36,44,1117,['n'],1,right,['9'],5,367,[-0.17359898],93,44,hard,minus,dotcolour,alfa,,,82,18,V,R,
234,108,24,5,1,27,53,733,['n'],1,right,['0'],6,268,[-0.10051188],85,53,easy,minus,dotcolour,alfa,,,82,18,V,R,
235,109,25,5,1,53,27,850,['c'],1,left,['9'],5,921,[0.41323452],98,53,easy,minus,dotcolour,alfa,,,82,18,V,R,
236,110,26,5,1,53,27,1083,['c'],1,left,['0'],6,306,[0.05413086],71,53,easy,minus,dotcolour,alfa,,,82,18,V,R,
237,111,27,5,1,53,27,734,['c'],1,left,['0'],6,306,[0.02728259],61,53,easy,minus,dotcolour,alfa,,,82,18,V,R,
238,112,28,5,1,27,53,632,['n'],1,right,['0'],6,301,[-0.15417195],93,53,easy,minus,dotcolour,alfa,,,82,18,V,R,
239,113,29,5,1,36,44,631,['n'],1,right,['0'],6,304,[-0.11998301],88,44,hard,minus,dotcolour,alfa,,,82,18,V,R,
240,114,30,5,1,33,47,917,['n'],1,right,['0'],6,288,[-0.09163688],82,47,medium,minus,dotcolour,alfa,,,82,18,V,R,
241,115,31,5,1,27,53,800,['n'],1,right,['0'],6,310,[-0.18290811],95,53,easy,minus,dotcolour,alfa,,,82,18,V,R,
242,116,32,5,1,53,27,717,['c'],1,left,['0'],6,318,[0.12205358],88,53,easy,minus,dotcolour,alfa,,,82,18,V,R,
243,117,33,5,1,53,27,1914,['c'],1,left,['8'],4,398,[0.19889392],94,53,easy,minus,dotcolour,alfa,,,82,18,V,R,
244,118,34,5,1,47,33,1250,['c'],1,left,['9'],5,358,[0.07765329],76,47,medium,minus,dotcolour,alfa,,,82,18,V,R,
245,119,35,5,1,47,33,967,['c'],1,left,['0'],6,266,[0.04951958],70,47,medium,minus,dotcolour,alfa,,,82,18,V,R,
246,120,36,5,1,53,27,783,['c'],1,left,['0'],6,337,[0.07889862],77,53,easy,minus,dotcolour,alfa,,,82,18,V,R,
247,121,37,5,1,33,47,701,['n'],1,right,['0'],6,193,[-0.11947108],92,47,medium,minus,dotcolour,alfa,,,82,18,V,R,
248,122,38,5,1,33,47,716,['n'],1,right,['0'],6,293,[-0.21729569],97,47,medium,minus,dotcolour,alfa,,,82,18,V,R,
249,123,39,5,1,33,47,684,['n'],1,right,['0'],6,272,[-0.1614505],94,47,medium,minus,dotcolour,alfa,,,82,18,V,R,
250,124,40,5,1,36,44,1533,['n'],1,right,['8'],4,544,[-0.07348384],71,44,hard,minus,dotcolour,alfa,,,82,18,V,R,
251,125,41,5,1,33,47,797,['n'],1,right,['9'],5,324,[-0.08640685],80,47,medium,minus,dotcolour,alfa,,,82,18,V,R,
252,0,0,6,2,47,33,1000,['c'],1,left,['9'],5,512,[0.11994356],100,47,medium,plus,dotcolour,alfa,,,82,18,V,R,
253,1,1,6,2,27,53,601,['n'],1,right,['0'],6,277,[-0.05334288],97,53,easy,plus,dotcolour,alfa,,,82,18,V,R,
254,2,2,6,2,47,33,1200,['c'],1,left,['0'],6,763,[0.06973701],95,47,medium,plus,dotcolour,alfa,,,82,18,V,R,
255,3,3,6,2,33,47,617,['n'],1,right,['0'],6,1021,[0.00587646],45,47,medium,plus,dotcolour,alfa,,,82,18,V,R,
256,4,4,6,2,36,44,1217,['n'],1,right,['0'],6,292,[-0.02559597],85,44,hard,plus,dotcolour,alfa,,,82,18,V,R,
257,5,5,6,2,44,36,550,['n'],0,left,['0'],6,283,[-0.00816362],63,44,hard,plus,dotcolour,alfa,,,82,18,V,R,
258,6,6,6,2,33,47,583,['n'],1,right,['0'],6,266,[-0.05782717],98,47,medium,plus,dotcolour,alfa,,,82,18,V,R,
259,7,7,6,2,27,53,550,['n'],1,right,['0'],6,299,[-0.12624622],100,53,easy,plus,dotcolour,alfa,,,82,18,V,R,
260,8,8,6,2,47,33,1167,['c'],1,left,['9'],5,1274,[0.1704568],100,47,medium,plus,dotcolour,alfa,,,82,18,V,R,
261,9,9,6,2,33,47,617,['n'],1,right,['0'],6,518,[-0.15536317],100,47,medium,plus,dotcolour,alfa,,,82,18,V,R,
262,10,10,6,2,53,27,664,['c'],1,left,['0'],6,296,[0.07258411],99,53,easy,plus,dotcolour,alfa,,,82,18,V,R,
263,11,11,6,2,44,36,1547,['n'],0,left,['9'],5,464,[-0.07303794],98,44,hard,plus,dotcolour,alfa,,,82,18,V,R,
264,12,12,6,2,33,47,1334,['n'],1,right,['9'],5,361,[-0.13298154],100,47,medium,plus,dotcolour,alfa,,,82,18,V,R,
265,13,13,6,2,36,44,1115,['n'],1,right,['0'],6,311,[-0.12538483],100,44,hard,plus,dotcolour,alfa,,,82,18,V,R,
266,14,14,6,2,36,44,1567,['n'],1,right,['9'],5,621,[-0.22490591],100,44,hard,plus,dotcolour,alfa,,,82,18,V,R,
267,15,15,6,2,44,36,967,['n'],0,left,['0'],6,350,[0.00032992],49,44,hard,plus,dotcolour,alfa,,,82,18,V,R,
268,16,16,6,2,33,47,833,['n'],1,right,['9'],5,608,[-0.21571791],100,47,medium,plus,dotcolour,alfa,,,82,18,V,R,
269,17,17,6,2,47,33,1166,['c'],1,left,['8'],4,538,[0.21687652],100,47,medium,plus,dotcolour,alfa,,,82,18,V,R,
270,18,18,6,2,53,27,598,['c'],1,left,['0'],6,534,[0.01874288],72,53,easy,plus,dotcolour,alfa,,,82,18,V,R,
271,19,19,6,2,27,53,633,['n'],1,right,['0'],6,200,[-0.04090026],96,53,easy,plus,dotcolour,alfa,,,82,18,V,R,
272,20,20,6,2,53,27,700,['c'],1,left,['0'],6,221,[0.13368406],100,53,easy,plus,dotcolour,alfa,,,82,18,V,R,
273,21,21,6,2,47,33,1399,['c'],1,left,['9'],5,701,[0.03818412],84,47,medium,plus,dotcolour,alfa,,,82,18,V,R,
274,22,22,6,2,53,27,1033,['c'],1,left,['0'],6,457,[0.30086818],100,53,easy,plus,dotcolour,alfa,,,82,18,V,R,
275,23,23,6,2,27,53,717,['n'],1,right,['1'],1,2083,[-0.51414895],100,53,easy,plus,dotcolour,alfa,,,82,18,V,R,
276,24,24,6,2,36,44,3617,['c'],0,right,['9'],5,599,[0.08144121],98,44,hard,plus,dotcolour,alfa,,,82,18,V,R,
277,25,25,6,2,44,36,1200,['c'],1,left,['8'],4,329,[0.13127496],100,44,hard,plus,dotcolour,alfa,,,82,18,V,R,
278,26,26,6,2,36,44,1716,['c'],0,right,['9'],5,488,[0.0791623],98,44,hard,plus,dotcolour,alfa,,,82,18,V,R,
279,27,27,6,2,27,53,801,['n'],1,right,['0'],6,333,[-0.05672801],97,53,easy,plus,dotcolour,alfa,,,82,18,V,R,
280,28,28,6,2,53,27,1550,['c'],1,left,['0'],6,475,[0.02168918],76,53,easy,plus,dotcolour,alfa,,,82,18,V,R,
281,29,29,6,2,44,36,867,['n'],0,left,['0'],6,310,[-0.10928936],100,44,hard,plus,dotcolour,alfa,,,82,18,V,R,
282,30,30,6,2,53,27,1100,['c'],1,left,['0'],6,359,[-0.01193097],33,53,easy,plus,dotcolour,alfa,,,82,18,V,R,
283,31,31,6,2,44,36,1201,['c'],1,left,['9'],5,506,[0.10140295],99,44,hard,plus,dotcolour,alfa,,,82,18,V,R,
284,32,32,6,2,44,36,4584,['c'],1,left,['8'],4,175,[0.09497588],100,44,hard,plus,dotcolour,alfa,,,82,18,V,R,
285,33,33,6,2,36,44,1550,['c'],0,right,['9'],5,483,[0.10567736],100,44,hard,plus,dotcolour,alfa,,,82,18,V,R,
286,34,34,6,2,33,47,767,['n'],1,right,['0'],6,282,[-0.05253252],97,47,medium,plus,dotcolour,alfa,,,82,18,V,R,
287,35,35,6,2,53,27,867,['c'],1,left,['0'],6,277,[0.05528169],98,53,easy,plus,dotcolour,alfa,,,82,18,V,R,
288,36,36,6,2,47,33,1233,['c'],1,left,['9'],5,362,[0.09585],100,47,medium,plus,dotcolour,alfa,,,82,18,V,R,
289,37,37,6,2,36,44,1117,['n'],1,right,['0'],6,328,[0.00185679],47,44,hard,plus,dotcolour,alfa,,,82,18,V,R,
290,38,38,6,2,27,53,733,['n'],1,right,['0'],6,239,[-0.07459017],100,53,easy,plus,dotcolour,alfa,,,82,18,V,R,
291,39,39,6,2,33,47,1116,['n'],1,right,['9'],5,242,[-0.14979101],100,47,medium,plus,dotcolour,alfa,,,82,18,V,R,
292,40,40,6,2,27,53,700,['n'],1,right,['0'],6,229,[-0.14795378],100,53,easy,plus,dotcolour,alfa,,,82,18,V,R,
293,41,41,6,2,47,33,817,['c'],1,left,['9'],5,397,[0.11689278],100,47,medium,plus,dotcolour,alfa,,,82,18,V,R,
294,42,0,7,2,27,53,4434,['n'],1,right,['0'],6,1131,[-0.2355672],100,53,easy,plus,dotcolour,alfa,,,82,18,V,R,
295,43,1,7,2,47,33,683,['c'],1,left,['0'],6,379,[0.03655243],89,47,medium,plus,dotcolour,alfa,,,82,18,V,R,
296,44,2,7,2,27,53,601,['n'],1,right,['0'],6,277,[-0.13122455],100,53,easy,plus,dotcolour,alfa,,,82,18,V,R,
297,45,3,7,2,53,27,931,['c'],1,left,['0'],6,813,[0.10268396],98,53,easy,plus,dotcolour,alfa,,,82,18,V,R,
298,46,4,7,2,44,36,1517,['c'],1,left,['9'],5,289,[0.17701125],100,44,hard,plus,dotcolour,alfa,,,82,18,V,R,
299,47,5,7,2,33,47,614,['n'],1,right,['9'],5,1374,[-0.1270149],98,47,medium,plus,dotcolour,alfa,,,82,18,V,R,
300,48,6,7,2,47,33,1250,['c'],1,left,['9'],5,221,[0.04308383],96,47,medium,plus,dotcolour,alfa,,,82,18,V,R,
301,49,7,7,2,33,47,883,['n'],1,right,['9'],5,890,[0.01756922],34,47,medium,plus,dotcolour,alfa,,,82,18,V,R,
302,50,8,7,2,27,53,950,['n'],1,right,['9'],5,705,[-0.13775973],100,53,easy,plus,dotcolour,alfa,,,82,18,V,R,
303,51,9,7,2,53,27,715,['c'],1,left,['0'],6,209,[0.17090266],100,53,easy,plus,dotcolour,alfa,,,82,18,V,R,
304,52,10,7,2,27,53,650,['n'],1,right,['0'],6,224,[-0.10998964],100,53,easy,plus,dotcolour,alfa,,,82,18,V,R,
305,53,11,7,2,33,47,1250,['c'],0,right,['9'],5,342,[-0.01318338],31,47,medium,plus,dotcolour,alfa,,,82,18,V,R,
306,54,12,7,2,33,47,667,['n'],1,right,['9'],5,615,[-0.04934183],91,47,medium,plus,dotcolour,alfa,,,82,18,V,R,
307,55,13,7,2,33,47,648,['n'],1,right,['0'],6,245,[-0.03861591],94,47,medium,plus,dotcolour,alfa,,,82,18,V,R,
308,56,14,7,2,36,44,1833,['n'],1,right,['8'],4,347,[-0.10638338],100,44,hard,plus,dotcolour,alfa,,,82,18,V,R,
309,57,15,7,2,36,44,1149,['n'],1,right,['8'],4,296,[-0.0589339],98,44,hard,plus,dotcolour,alfa,,,82,18,V,R,
310,58,16,7,2,36,44,1134,['c'],0,right,['9'],5,569,[-0.01572838],32,44,hard,plus,dotcolour,alfa,,,82,18,V,R,
311,59,17,7,2,44,36,1467,['c'],1,left,['9'],5,1201,[0.02485162],69,44,hard,plus,dotcolour,alfa,,,82,18,V,R,
312,60,18,7,2,36,44,800,['n'],1,right,['0'],6,289,[-0.07644168],99,44,hard,plus,dotcolour,alfa,,,82,18,V,R,
313,61,19,7,2,36,44,1567,['n'],1,right,['9'],5,361,[-0.11343518],100,44,hard,plus,dotcolour,alfa,,,82,18,V,R,
314,62,20,7,2,44,36,1099,['c'],1,left,['8'],4,1271,[0.37115873],100,44,hard,plus,dotcolour,alfa,,,82,18,V,R,
315,63,21,7,2,36,44,701,['n'],1,right,['9'],5,393,[-0.08977386],99,44,hard,plus,dotcolour,alfa,,,82,18,V,R,
316,64,22,7,2,53,27,616,['c'],1,left,['0'],6,290,[0.15077683],100,53,easy,plus,dotcolour,alfa,,,82,18,V,R,
317,65,23,7,2,47,33,1232,['c'],1,left,['9'],5,334,[0.1244595],100,47,medium,plus,dotcolour,alfa,,,82,18,V,R,
318,66,24,7,2,53,27,784,['c'],1,left,['0'],6,331,[0.23429367],100,53,easy,plus,dotcolour,alfa,,,82,18,V,R,
319,67,25,7,2,33,47,850,['n'],1,right,['0'],6,1197,[-0.01762343],64,47,medium,plus,dotcolour,alfa,,,82,18,V,R,
320,68,26,7,2,27,53,1032,['n'],1,right,['0'],6,644,[-0.17969602],100,53,easy,plus,dotcolour,alfa,,,82,18,V,R,
321,69,27,7,2,44,36,1313,['c'],1,left,['8'],4,455,[0.12188249],100,44,hard,plus,dotcolour,alfa,,,82,18,V,R,
322,70,28,7,2,27,53,880,['n'],1,right,['0'],6,330,[-0.0803526],99,53,easy,plus,dotcolour,alfa,,,82,18,V,R,
323,71,29,7,2,44,36,1467,['c'],1,left,['9'],5,355,[0.06840326],98,44,hard,plus,dotcolour,alfa,,,82,18,V,R,
324,72,30,7,2,36,44,1016,['n'],1,right,['9'],5,413,[-0.22083597],100,44,hard,plus,dotcolour,alfa,,,82,18,V,R,
325,73,31,7,2,33,47,1099,['n'],1,right,['9'],5,1122,[-0.28176425],100,47,medium,plus,dotcolour,alfa,,,82,18,V,R,
326,74,32,7,2,47,33,700,['c'],1,left,['0'],6,250,[0.05066173],97,47,medium,plus,dotcolour,alfa,,,82,18,V,R,
327,75,33,7,2,44,36,2132,['n'],0,left,['8'],4,540,[0.05983658],5,44,hard,plus,dotcolour,alfa,,,82,18,V,R,
328,76,34,7,2,47,33,817,['c'],1,left,['0'],6,607,[0.07557893],97,47,medium,plus,dotcolour,alfa,,,82,18,V,R,
329,77,35,7,2,53,27,765,['c'],1,left,['0'],6,305,[0.07816163],99,53,easy,plus,dotcolour,alfa,,,82,18,V,R,
330,78,36,7,2,27,53,700,['n'],1,right,['0'],6,330,[-0.18614566],100,53,easy,plus,dotcolour,alfa,,,82,18,V,R,
331,79,37,7,2,47,33,598,['c'],1,left,['9'],5,654,[0.09532261],99,47,medium,plus,dotcolour,alfa,,,82,18,V,R,
332,80,38,7,2,47,33,2500,['c'],1,left,['8'],4,313,[0.1153647],100,47,medium,plus,dotcolour,alfa,,,82,18,V,R,
333,81,39,7,2,53,27,1216,['c'],1,left,['9'],5,445,[0.25494318],100,53,easy,plus,dotcolour,alfa,,,82,18,V,R,
334,82,40,7,2,44,36,1833,['c'],1,left,['8'],4,315,[0.0320258],89,44,hard,plus,dotcolour,alfa,,,82,18,V,R,
335,83,41,7,2,53,27,699,['c'],1,left,['0'],6,283,[0.11551107],100,53,easy,plus,dotcolour,alfa,,,82,18,V,R,
336,84,0,8,2,36,44,1783,['c'],0,right,['8'],4,281,[-0.00473851],42,44,hard,plus,dotcolour,alfa,,,82,18,V,R,
337,85,1,8,2,27,53,1167,['n'],1,right,['0'],6,184,[-0.07429277],100,53,easy,plus,dotcolour,alfa,,,82,18,V,R,
338,86,2,8,2,44,36,1481,['c'],1,left,['9'],5,815,[0.10766306],99,44,hard,plus,dotcolour,alfa,,,82,18,V,R,
339,87,3,8,2,53,27,817,['c'],1,left,['0'],6,255,[0.16896835],100,53,easy,plus,dotcolour,alfa,,,82,18,V,R,
340,88,4,8,2,36,44,967,['n'],1,right,['0'],6,318,[-0.15953393],100,44,hard,plus,dotcolour,alfa,,,82,18,V,R,
341,89,5,8,2,53,27,1534,['c'],1,left,['0'],6,598,[0.0796161],98,53,easy,plus,dotcolour,alfa,,,82,18,V,R,
342,90,6,8,2,47,33,1901,['c'],1,left,['9'],5,203,[0.07061887],100,47,medium,plus,dotcolour,alfa,,,82,18,V,R,
343,91,7,8,2,33,47,849,['n'],1,right,['0'],6,491,[-0.21567818],100,47,medium,plus,dotcolour,alfa,,,82,18,V,R,
344,92,8,8,2,44,36,1117,['c'],1,left,['9'],5,291,[0.04058365],94,44,hard,plus,dotcolour,alfa,,,82,18,V,R,
345,93,9,8,2,44,36,1800,['c'],1,left,['9'],5,200,[0.1594953],100,44,hard,plus,dotcolour,alfa,,,82,18,V,R,
346,94,10,8,2,33,47,633,['n'],1,right,['0'],6,337,[-0.08337806],99,47,medium,plus,dotcolour,alfa,,,82,18,V,R,
347,95,11,8,2,36,44,2367,['n'],1,right,['9'],5,381,[-0.05859624],97,44,hard,plus,dotcolour,alfa,,,82,18,V,R,
348,96,12,8,2,27,53,634,['n'],1,right,['0'],6,1070,[-0.19183989],100,53,easy,plus,dotcolour,alfa,,,82,18,V,R,
349,97,13,8,2,33,47,632,['n'],1,right,['0'],6,274,[-0.15011631],100,47,medium,plus,dotcolour,alfa,,,82,18,V,R,
350,98,14,8,2,53,27,716,['c'],1,left,['0'],6,500,[0.33819223],100,53,easy,plus,dotcolour,alfa,,,82,18,V,R,
351,99,15,8,2,36,44,850,['n'],1,right,['9'],5,247,[-0.1553541],100,44,hard,plus,dotcolour,alfa,,,82,18,V,R,
352,100,16,8,2,36,44,799,['n'],1,right,['9'],5,367,[-0.08366233],99,44,hard,plus,dotcolour,alfa,,,82,18,V,R,
353,101,17,8,2,47,33,550,['c'],1,left,['9'],5,491,[0.05789845],95,47,medium,plus,dotcolour,alfa,,,82,18,V,R,
354,102,18,8,2,27,53,516,['n'],1,right,['0'],6,404,[-0.08304743],99,53,easy,plus,dotcolour,alfa,,,82,18,V,R,
355,103,19,8,2,33,47,617,['n'],1,right,['0'],6,476,[-0.02336277],77,47,medium,plus,dotcolour,alfa,,,82,18,V,R,
356,104,20,8,2,44,36,734,['c'],1,left,['9'],5,269,[0.07729772],100,44,hard,plus,dotcolour,alfa,,,82,18,V,R,
357,105,21,8,2,53,27,482,['c'],1,left,['0'],6,480,[0.26632939],100,53,easy,plus,dotcolour,alfa,,,82,18,V,R,
358,106,22,8,2,44,36,864,['c'],1,left,['9'],5,276,[0.05572555],98,44,hard,plus,dotcolour,alfa,,,82,18,V,R,
359,107,23,8,2,27,53,517,['n'],1,right,['0'],6,277,[-0.00178573],53,53,easy,plus,dotcolour,alfa,,,82,18,V,R,
360,108,24,8,2,47,33,1015,['n'],0,left,['9'],5,338,[-0.04636569],95,47,medium,plus,dotcolour,alfa,,,82,18,V,R,
361,109,25,8,2,47,33,950,['c'],1,left,['0'],6,320,[0.19073078],100,47,medium,plus,dotcolour,alfa,,,82,18,V,R,
362,110,26,8,2,33,47,717,['n'],1,right,['0'],6,487,[0.03914939],12,47,medium,plus,dotcolour,alfa,,,82,18,V,R,
363,111,27,8,2,53,27,732,['c'],1,left,['0'],6,296,[0.01981534],79,53,easy,plus,dotcolour,alfa,,,82,18,V,R,
364,112,28,8,2,33,47,567,['n'],1,right,['9'],5,1391,[-0.16042526],99,47,medium,plus,dotcolour,alfa,,,82,18,V,R,
365,113,29,8,2,44,36,948,['c'],1,left,['9'],5,498,[0.08975201],99,44,hard,plus,dotcolour,alfa,,,82,18,V,R,
366,114,30,8,2,47,33,833,['c'],1,left,['0'],6,518,[0.24600883],100,47,medium,plus,dotcolour,alfa,,,82,18,V,R,
367,115,31,8,2,44,36,667,['c'],1,left,['9'],5,855,[0.05192523],88,44,hard,plus,dotcolour,alfa,,,82,18,V,R,
368,116,32,8,2,27,53,684,['n'],1,right,['0'],6,234,[-0.03675198],94,53,easy,plus,dotcolour,alfa,,,82,18,V,R,
369,117,33,8,2,27,53,766,['n'],1,right,['0'],6,372,[-0.21119061],100,53,easy,plus,dotcolour,alfa,,,82,18,V,R,
370,118,34,8,2,47,33,1166,['c'],1,left,['9'],5,280,[0.09893055],100,47,medium,plus,dotcolour,alfa,,,82,18,V,R,
371,119,35,8,2,47,33,917,['c'],1,left,['9'],5,377,[0.06840553],98,47,medium,plus,dotcolour,alfa,,,82,18,V,R,
372,120,36,8,2,53,27,650,['c'],1,left,['0'],6,409,[0.07698707],99,53,easy,plus,dotcolour,alfa,,,82,18,V,R,
373,121,37,8,2,27,53,650,['n'],1,right,['0'],6,312,[-0.19418756],100,53,easy,plus,dotcolour,alfa,,,82,18,V,R,
374,122,38,8,2,36,44,1381,['c'],0,right,['8'],4,349,[0.06690916],98,44,hard,plus,dotcolour,alfa,,,82,18,V,R,
375,123,39,8,2,36,44,1383,['n'],1,right,['9'],5,513,[-0.27486493],100,44,hard,plus,dotcolour,alfa,,,82,18,V,R,
376,124,40,8,2,53,27,649,['c'],1,left,['0'],6,196,[0.01640895],79,53,easy,plus,dotcolour,alfa,,,82,18,V,R,
377,125,41,8,2,33,47,683,['n'],1,right,['0'],6,378,[-0.14395535],100,47,medium,plus,dotcolour,alfa,,,82,18,V,R,
378,0,0,9,3,47,33,3668,['c'],1,left,['0'],6,532,[0.04912565],65,47,medium,minus,dotcolour,alfa,,,82,18,V,R,
379,1,1,9,3,27,53,633,['n'],1,right,['0'],6,198,[-0.09485517],87,53,easy,minus,dotcolour,alfa,,,82,18,V,R,
380,2,2,9,3,47,33,898,['c'],1,left,['9'],5,483,[0.06472637],70,47,medium,minus,dotcolour,alfa,,,82,18,V,R,
381,3,3,9,3,27,53,834,['n'],1,right,['0'],6,104,[-0.04793684],79,53,easy,minus,dotcolour,alfa,,,82,18,V,R,
382,4,4,9,3,53,27,767,['c'],1,left,['0'],6,142,[0.1734481],98,53,easy,minus,dotcolour,alfa,,,82,18,V,R,
383,5,5,9,3,33,47,647,['n'],1,right,['0'],6,200,[-0.20527363],98,47,medium,minus,dotcolour,alfa,,,82,18,V,R,
384,6,6,9,3,53,27,666,['c'],1,left,['0'],6,206,[0.04154135],70,53,easy,minus,dotcolour,alfa,,,82,18,V,R,
385,7,7,9,3,44,36,1117,['c'],1,left,['9'],5,290,[0.05695205],72,44,hard,minus,dotcolour,alfa,,,82,18,V,R,
386,8,8,9,3,27,53,600,['n'],1,right,['0'],6,143,[-0.06738221],83,53,easy,minus,dotcolour,alfa,,,82,18,V,R,
387,9,9,9,3,47,33,551,['c'],1,left,['0'],6,181,[0.04592075],73,47,medium,minus,dotcolour,alfa,,,82,18,V,R,
388,10,10,9,3,27,53,766,['n'],1,right,['0'],6,184,[-0.03036132],65,53,easy,minus,dotcolour,alfa,,,82,18,V,R,
389,11,11,9,3,27,53,1267,['n'],1,right,['0'],6,160,[-0.0866253],88,53,easy,minus,dotcolour,alfa,,,82,18,V,R,
390,12,12,9,3,44,36,1100,['c'],1,left,['9'],5,558,[0.24467837],95,44,hard,minus,dotcolour,alfa,,,82,18,V,R,
391,13,13,9,3,44,36,734,['c'],1,left,['0'],6,299,[0.06259704],74,44,hard,minus,dotcolour,alfa,,,82,18,V,R,
392,14,14,9,3,36,44,1150,['c'],0,right,['8'],4,290,[0.13947062],91,44,hard,minus,dotcolour,alfa,,,82,18,V,R,
393,15,15,9,3,33,47,867,['n'],1,right,['9'],5,437,[0.01439687],45,47,medium,minus,dotcolour,alfa,,,82,18,V,R,
394,16,16,9,3,53,27,817,['c'],1,left,['9'],5,364,[-0.00480301],48,53,easy,minus,dotcolour,alfa,,,82,18,V,R,
395,17,17,9,3,33,47,1134,['c'],0,right,['9'],5,290,[-0.14612606],8,47,medium,minus,dotcolour,alfa,,,82,18,V,R,
396,18,18,9,3,27,53,3267,['c'],0,right,['8'],4,388,[-0.08429848],23,53,easy,minus,dotcolour,alfa,,,82,18,V,R,
397,19,19,9,3,53,27,1733,['c'],1,left,['9'],5,336,[0.0335412],63,53,easy,minus,dotcolour,alfa,,,82,18,V,R,
398,20,20,9,3,33,47,915,['c'],0,right,['0'],6,303,[-0.02772952],39,47,medium,minus,dotcolour,alfa,,,82,18,V,R,
399,21,21,9,3,44,36,900,['c'],1,left,['0'],6,352,[0.06256142],72,44,hard,minus,dotcolour,alfa,,,82,18,V,R,
400,22,22,9,3,44,36,1348,['n'],0,left,['8'],4,293,[-0.03345735],64,44,hard,minus,dotcolour,alfa,,,82,18,V,R,
401,23,23,9,3,36,44,1783,['n'],1,right,['8'],4,291,[-0.08078067],79,44,hard,minus,dotcolour,alfa,,,82,18,V,R,
402,24,24,9,3,33,47,1684,['c'],0,right,['8'],4,917,[-0.06500662],35,47,medium,minus,dotcolour,alfa,,,82,18,V,R,
403,25,25,9,3,27,53,1234,['n'],1,right,['9'],5,600,[-0.17536108],88,53,easy,minus,dotcolour,alfa,,,82,18,V,R,
404,26,26,9,3,36,44,833,['n'],1,right,['0'],6,352,[-0.16579272],93,44,hard,minus,dotcolour,alfa,,,82,18,V,R,
405,27,27,9,3,33,47,784,['n'],1,right,['0'],6,267,[-0.15752377],94,47,medium,minus,dotcolour,alfa,,,82,18,V,R,
406,28,28,9,3,53,27,683,['c'],1,left,['0'],6,439,[0.21044137],95,53,easy,minus,dotcolour,alfa,,,82,18,V,R,
407,29,29,9,3,47,33,1517,['c'],1,left,['0'],6,258,[0.05477183],73,47,medium,minus,dotcolour,alfa,,,82,18,V,R,
408,30,30,9,3,36,44,1333,['c'],0,right,['9'],5,1011,[0.01860675],54,44,hard,minus,dotcolour,alfa,,,82,18,V,R,
409,31,31,9,3,36,44,1700,['n'],1,right,['9'],5,1368,[-0.06208474],62,44,hard,minus,dotcolour,alfa,,,82,18,V,R,
410,32,32,9,3,44,36,1082,['c'],1,left,['0'],6,214,[0.0910115],85,44,hard,minus,dotcolour,alfa,,,82,18,V,R,
411,33,33,9,3,36,44,767,['c'],0,right,['2'],2,1696,[0.07779355],63,44,hard,minus,dotcolour,alfa,,,82,18,V,R,
412,34,34,9,3,36,44,1299,['n'],1,right,['9'],5,745,[-0.07199511],68,44,hard,minus,dotcolour,alfa,,,82,18,V,R,
413,35,35,9,3,47,33,3249,['c'],1,left,['9'],5,338,[0.15947283],92,47,medium,minus,dotcolour,alfa,,,82,18,V,R,
414,36,36,9,3,47,33,766,['n'],0,left,['2'],2,1384,[-0.11914314],71,47,medium,minus,dotcolour,alfa,,,82,18,V,R,
415,37,37,9,3,47,33,1067,['c'],1,left,['9'],5,326,[0.13103955],89,47,medium,minus,dotcolour,alfa,,,82,18,V,R,
416,38,38,9,3,53,27,834,['c'],1,left,['0'],6,265,[0.10076641],85,53,easy,minus,dotcolour,alfa,,,82,18,V,R,
417,39,39,9,3,53,27,582,['c'],1,left,['0'],6,240,[0.12119058],90,53,easy,minus,dotcolour,alfa,,,82,18,V,R,
418,40,40,9,3,33,47,550,['n'],1,right,['9'],5,401,[0.00814889],47,47,medium,minus,dotcolour,alfa,,,82,18,V,R,
419,41,41,9,3,44,36,1700,['n'],0,left,['8'],4,279,[-0.12163013],89,44,hard,minus,dotcolour,alfa,,,82,18,V,R,
420,42,0,10,3,53,27,767,['c'],1,left,['0'],6,415,[0.12024242],84,53,easy,minus,dotcolour,alfa,,,82,18,V,R,
421,43,1,10,3,36,44,1417,['n'],1,right,['9'],5,255,[-0.09581786],85,44,hard,minus,dotcolour,alfa,,,82,18,V,R,
422,44,2,10,3,36,44,933,['n'],1,right,['0'],6,272,[-0.08986447],83,44,hard,minus,dotcolour,alfa,,,82,18,V,R,
423,45,3,10,3,33,47,784,['n'],1,right,['0'],6,448,[-0.02428356],58,47,medium,minus,dotcolour,alfa,,,82,18,V,R,
424,46,4,10,3,27,53,584,['n'],1,right,['0'],6,255,[-0.02595069],61,53,easy,minus,dotcolour,alfa,,,82,18,V,R,
425,47,5,10,3,44,36,1166,['c'],1,left,['0'],6,960,[0.23168289],89,44,hard,minus,dotcolour,alfa,,,82,18,V,R,
426,48,6,10,3,44,36,1049,['c'],1,left,['8'],4,713,[0.06358768],66,44,hard,minus,dotcolour,alfa,,,82,18,V,R,
427,49,7,10,3,27,53,835,['n'],1,right,['0'],6,6404,[-0.98538009],97,53,easy,minus,dotcolour,alfa,,,82,18,V,R,
428,50,8,10,3,47,33,950,['c'],1,left,['0'],6,469,[0.0924257],77,47,medium,minus,dotcolour,alfa,,,82,18,V,R,
429,51,9,10,3,36,44,1316,['c'],0,right,['9'],5,367,[0.14827109],90,44,hard,minus,dotcolour,alfa,,,82,18,V,R,
430,52,10,10,3,27,53,817,['n'],1,right,['0'],6,241,[-0.02752763],62,53,easy,minus,dotcolour,alfa,,,82,18,V,R,
431,53,11,10,3,36,44,767,['n'],1,right,['0'],6,474,[-0.14859043],87,44,hard,minus,dotcolour,alfa,,,82,18,V,R,
432,54,12,10,3,44,36,884,['c'],1,left,['9'],5,317,[0.09553351],82,44,hard,minus,dotcolour,alfa,,,82,18,V,R,
433,55,13,10,3,53,27,550,['c'],1,left,['9'],5,243,[0.08178532],82,53,easy,minus,dotcolour,alfa,,,82,18,V,R,
434,56,14,10,3,27,53,518,['n'],1,right,['0'],6,486,[-0.04901893],65,53,easy,minus,dotcolour,alfa,,,82,18,V,R,
435,57,15,10,3,33,47,767,['n'],1,right,['0'],6,357,[-0.18917406],95,47,medium,minus,dotcolour,alfa,,,82,18,V,R,
436,58,16,10,3,44,36,667,['c'],1,left,['9'],5,333,[0.0055414],52,44,hard,minus,dotcolour,alfa,,,82,18,V,R,
437,59,17,10,3,53,27,683,['c'],1,left,['0'],6,349,[0.26655119],98,53,easy,minus,dotcolour,alfa,,,82,18,V,R,
438,60,18,10,3,44,36,1100,['c'],1,left,['0'],6,316,[0.16133801],93,44,hard,minus,dotcolour,alfa,,,82,18,V,R,
439,61,19,10,3,47,33,933,['n'],0,left,['0'],6,579,[-0.1436291],85,47,medium,minus,dotcolour,alfa,,,82,18,V,R,
440,62,20,10,3,33,47,634,['n'],1,right,['9'],5,804,[-0.20308126],88,47,medium,minus,dotcolour,alfa,,,82,18,V,R,
441,63,21,10,3,44,36,1165,['c'],1,left,['0'],6,310,[0.13319389],90,44,hard,minus,dotcolour,alfa,,,82,18,V,R,
442,64,22,10,3,47,33,583,['c'],1,left,['0'],6,267,[0.04825795],70,47,medium,minus,dotcolour,alfa,,,82,18,V,R,
443,65,23,10,3,36,44,683,['c'],0,right,['9'],5,359,[0.07152231],75,44,hard,minus,dotcolour,alfa,,,82,18,V,R,
444,66,24,10,3,47,33,683,['c'],1,left,['0'],6,646,[0.01102771],53,47,medium,minus,dotcolour,alfa,,,82,18,V,R,
445,67,25,10,3,44,36,733,['c'],1,left,['9'],5,408,[0.16502852],91,44,hard,minus,dotcolour,alfa,,,82,18,V,R,
446,68,26,10,3,36,44,1717,['c'],0,right,['8'],4,580,[-0.01865658],45,44,hard,minus,dotcolour,alfa,,,82,18,V,R,
447,69,27,10,3,27,53,1133,['n'],1,right,['0'],6,273,[-0.07529111],79,53,easy,minus,dotcolour,alfa,,,82,18,V,R,
448,70,28,10,3,47,33,666,['c'],1,left,['0'],6,156,[0.09813652],90,47,medium,minus,dotcolour,alfa,,,82,18,V,R,
449,71,29,10,3,33,47,500,['n'],1,right,['0'],6,123,[-0.12522369],96,47,medium,minus,dotcolour,alfa,,,82,18,V,R,
450,72,30,10,3,27,53,683,['n'],1,right,['0'],6,140,[-0.10496744],93,53,easy,minus,dotcolour,alfa,,,82,18,V,R,
451,73,31,10,3,33,47,500,['n'],1,right,['0'],6,148,[-0.10976059],93,47,medium,minus,dotcolour,alfa,,,82,18,V,R,
452,74,32,10,3,36,44,868,['c'],0,right,['9'],5,237,[0.0497908],72,44,hard,minus,dotcolour,alfa,,,82,18,V,R,
453,75,33,10,3,47,33,533,['c'],1,left,['9'],5,199,[0.1281378],93,47,medium,minus,dotcolour,alfa,,,82,18,V,R,
454,76,34,10,3,47,33,733,['c'],1,left,['9'],5,379,[0.17858716],93,47,medium,minus,dotcolour,alfa,,,82,18,V,R,
455,77,35,10,3,53,27,516,['c'],1,left,['9'],5,160,[0.12503677],94,53,easy,minus,dotcolour,alfa,,,82,18,V,R,
456,78,36,10,3,33,47,767,['n'],1,right,['0'],6,164,[-0.07553391],84,47,medium,minus,dotcolour,alfa,,,82,18,V,R,
457,79,37,10,3,33,47,534,['n'],1,right,['0'],6,145,[-0.07064512],84,47,medium,minus,dotcolour,alfa,,,82,18,V,R,
458,80,38,10,3,53,27,417,['c'],1,left,['0'],6,356,[0.14725887],90,53,easy,minus,dotcolour,alfa,,,82,18,V,R,
459,81,39,10,3,27,53,600,['n'],1,right,['0'],6,135,[-0.08123017],88,53,easy,minus,dotcolour,alfa,,,82,18,V,R,
460,82,40,10,3,53,27,583,['c'],1,left,['0'],6,227,[0.09622297],86,53,easy,minus,dotcolour,alfa,,,82,18,V,R,
461,83,41,10,3,53,27,517,['c'],1,left,['0'],6,183,[0.07842928],84,53,easy,minus,dotcolour,alfa,,,82,18,V,R,
462,84,0,11,3,27,53,634,['n'],1,right,['0'],6,135,[-0.07287381],86,53,easy,minus,dotcolour,alfa,,,82,18,V,R,
463,85,1,11,3,27,53,415,['n'],1,right,['0'],6,82,[-0.09691186],95,53,easy,minus,dotcolour,alfa,,,82,18,V,R,
464,86,2,11,3,36,44,448,['n'],1,right,['0'],6,198,[-0.09056969],86,44,hard,minus,dotcolour,alfa,,,82,18,V,R,
465,87,3,11,3,44,36,866,['c'],1,left,['9'],5,293,[0.13356329],90,44,hard,minus,dotcolour,alfa,,,82,18,V,R,
466,88,4,11,3,53,27,417,['c'],1,left,['9'],5,81,[0.09364805],95,53,easy,minus,dotcolour,alfa,,,82,18,V,R,
467,89,5,11,3,47,33,433,['c'],1,left,['0'],6,102,[0.119787],97,47,medium,minus,dotcolour,alfa,,,82,18,V,R,
468,90,6,11,3,27,53,384,['n'],1,right,['0'],6,52,[-0.06147473],92,53,easy,minus,dotcolour,alfa,,,82,18,V,R,
469,91,7,11,3,47,33,650,['c'],1,left,['0'],6,185,[0.11053063],91,47,medium,minus,dotcolour,alfa,,,82,18,V,R,
470,92,8,11,3,44,36,367,['c'],1,left,['9'],5,612,[-0.06531752],32,44,hard,minus,dotcolour,alfa,,,82,18,V,R,
471,93,9,11,3,44,36,1649,['c'],1,left,['8'],4,122,[0.12163308],96,44,hard,minus,dotcolour,alfa,,,82,18,V,R,
472,94,10,11,3,27,53,383,['n'],1,right,['0'],6,71,[-0.08510169],95,53,easy,minus,dotcolour,alfa,,,82,18,V,R,
473,95,11,11,3,53,27,517,['c'],1,left,['0'],6,145,[0.11007077],93,53,easy,minus,dotcolour,alfa,,,82,18,V,R,
474,96,12,11,3,47,33,700,['n'],0,left,['9'],5,376,[0.0179628],43,47,medium,minus,dotcolour,alfa,,,82,18,V,R,
475,97,13,11,3,53,27,633,['c'],1,left,['0'],6,153,[0.09628934],90,53,easy,minus,dotcolour,alfa,,,82,18,V,R,
476,98,14,11,3,33,47,534,['n'],1,right,['0'],6,54,[-0.0484647],87,47,medium,minus,dotcolour,alfa,,,82,18,V,R,
477,99,15,11,3,47,33,616,['n'],0,left,['0'],6,101,[-0.06633792],87,47,medium,minus,dotcolour,alfa,,,82,18,V,R,
478,100,16,11,3,27,53,583,['n'],1,right,['0'],6,82,[-0.05184396],84,53,easy,minus,dotcolour,alfa,,,82,18,V,R,
479,101,17,11,3,36,44,683,['c'],0,right,['9'],5,277,[0.08571578],81,44,hard,minus,dotcolour,alfa,,,82,18,V,R,
480,102,18,11,3,33,47,865,['n'],1,right,['0'],6,1201,[-0.35285299],95,47,medium,minus,dotcolour,alfa,,,82,18,V,R,
481,103,19,11,3,44,36,934,['n'],0,left,['9'],5,284,[-0.09801042],84,44,hard,minus,dotcolour,alfa,,,82,18,V,R,
482,104,20,11,3,36,44,866,['c'],0,right,['9'],5,111,[0.11399278],96,44,hard,minus,dotcolour,alfa,,,82,18,V,R,
483,105,21,11,3,27,53,733,['n'],1,right,['0'],6,79,[-0.09500612],95,53,easy,minus,dotcolour,alfa,,,82,18,V,R,
484,106,22,11,3,53,27,984,['c'],1,left,['0'],6,213,[0.11578546],91,53,easy,minus,dotcolour,alfa,,,82,18,V,R,
485,107,23,11,3,33,47,634,['n'],1,right,['0'],6,101,[-0.12163926],97,47,medium,minus,dotcolour,alfa,,,82,18,V,R,
486,108,24,11,3,44,36,749,['c'],1,left,['0'],6,108,[0.08238359],91,44,hard,minus,dotcolour,alfa,,,82,18,V,R,
487,109,25,11,3,36,44,1017,['n'],1,right,['9'],5,48,[-0.09527576],98,44,hard,minus,dotcolour,alfa,,,82,18,V,R,
488,110,26,11,3,33,47,984,['n'],1,right,['9'],5,64,[-0.08082277],95,47,medium,minus,dotcolour,alfa,,,82,18,V,R,
489,111,27,11,3,53,27,884,['c'],1,left,['0'],6,211,[0.09218205],86,53,easy,minus,dotcolour,alfa,,,82,18,V,R,
490,112,28,11,3,33,47,549,['n'],1,right,['0'],6,174,[-0.02900371],65,47,medium,minus,dotcolour,alfa,,,82,18,V,R,
491,113,29,11,3,47,33,900,['n'],0,left,['0'],6,148,[-0.07428688],85,47,medium,minus,dotcolour,alfa,,,82,18,V,R,
492,114,30,11,3,27,53,617,['n'],1,right,['0'],6,103,[-0.09034889],93,53,easy,minus,dotcolour,alfa,,,82,18,V,R,
493,115,31,11,3,33,47,583,['n'],1,right,['9'],5,372,[-0.12578391],86,47,medium,minus,dotcolour,alfa,,,82,18,V,R,
494,116,32,11,3,53,27,866,['c'],1,left,['9'],5,211,[0.06207324],77,53,easy,minus,dotcolour,alfa,,,82,18,V,R,
495,117,33,11,3,33,47,567,['n'],1,right,['0'],6,77,[-0.09265195],95,47,medium,minus,dotcolour,alfa,,,82,18,V,R,
496,118,34,11,3,36,44,367,['n'],1,right,['0'],6,109,[-0.08266756],90,44,hard,minus,dotcolour,alfa,,,82,18,V,R,
497,119,35,11,3,47,33,484,['n'],0,left,['9'],5,454,[0.04515504],35,47,medium,minus,dotcolour,alfa,,,82,18,V,R,
498,120,36,11,3,44,36,600,['c'],1,left,['9'],5,205,[0.08123238],83,44,hard,minus,dotcolour,alfa,,,82,18,V,R,
499,121,37,11,3,44,36,632,['c'],1,left,['0'],6,140,[0.09212959],90,44,hard,minus,dotcolour,alfa,,,82,18,V,R,
500,122,38,11,3,36,44,533,['n'],1,right,['0'],6,90,[-0.07145698],90,44,hard,minus,dotcolour,alfa,,,82,18,V,R,
501,123,39,11,3,36,44,617,['n'],1,right,['0'],6,88,[-0.08879727],94,44,hard,minus,dotcolour,alfa,,,82,18,V,R,
502,124,40,11,3,47,33,667,['c'],1,left,['0'],6,539,[0.12702939],83,47,medium,minus,dotcolour,alfa,,,82,18,V,R,
503,125,41,11,3,53,27,550,['c'],1,left,['0'],6,144,[0.11884407],94,53,easy,minus,dotcolour,alfa,,,82,18,V,R,
504,0,0,12,4,53,27,733,['c'],1,left,['0'],6,111,[0.12163459],100,53,easy,plus,dotcolour,alfa,,,82,18,V,R,
505,1,1,12,4,33,47,467,['n'],1,right,['0'],6,24,[-0.09254644],100,47,medium,plus,dotcolour,alfa,,,82,18,V,R,
506,2,2,12,4,36,44,383,['n'],1,right,['0'],6,41,[-0.05993542],100,44,hard,plus,dotcolour,alfa,,,82,18,V,R,
507,3,3,12,4,47,33,400,['c'],1,left,['0'],6,8,[0.0851185],100,47,medium,plus,dotcolour,alfa,,,82,18,V,R,
508,4,4,12,4,53,27,497,['c'],1,left,['0'],6,285,[0.10029513],100,53,easy,plus,dotcolour,alfa,,,82,18,V,R,
509,5,5,12,4,36,44,1150,['n'],1,right,['0'],6,13,[-0.0699628],100,44,hard,plus,dotcolour,alfa,,,82,18,V,R,
510,6,6,12,4,47,33,532,['c'],1,left,['0'],6,64,[0.06239888],100,47,medium,plus,dotcolour,alfa,,,82,18,V,R,
511,7,7,12,4,36,44,984,['n'],1,right,['9'],5,64,[-0.05462907],100,44,hard,plus,dotcolour,alfa,,,82,18,V,R,
512,8,8,12,4,44,36,533,['c'],1,left,['0'],6,80,[0.07884725],100,44,hard,plus,dotcolour,alfa,,,82,18,V,R,
513,9,9,12,4,33,47,416,['n'],1,right,['9'],5,70,[-0.05779684],100,47,medium,plus,dotcolour,alfa,,,82,18,V,R,
514,10,10,12,4,27,53,566,['n'],1,right,['3'],3,942,[-0.19242573],100,53,easy,plus,dotcolour,alfa,,,82,18,V,R,
515,11,11,12,4,33,47,1350,['n'],1,right,['0'],6,100,[-0.08367661],100,47,medium,plus,dotcolour,alfa,,,82,18,V,R,
516,12,12,12,4,53,27,533,['c'],1,left,['0'],6,99,[0.07117828],100,53,easy,plus,dotcolour,alfa,,,82,18,V,R,
517,13,13,12,4,44,36,416,['n'],0,left,['0'],6,304,[-0.05868806],98,44,hard,plus,dotcolour,alfa,,,82,18,V,R,
518,14,14,12,4,53,27,1034,['c'],1,left,['0'],6,60,[0.08988451],100,53,easy,plus,dotcolour,alfa,,,82,18,V,R,
519,15,15,12,4,36,44,516,['n'],1,right,['9'],5,574,[-0.07493362],97,44,hard,plus,dotcolour,alfa,,,82,18,V,R,
520,16,16,12,4,33,47,1117,['n'],1,right,['0'],6,115,[-0.05881003],100,47,medium,plus,dotcolour,alfa,,,82,18,V,R,
521,17,17,12,4,27,53,500,['n'],1,right,['0'],6,76,[-0.08251366],100,53,easy,plus,dotcolour,alfa,,,82,18,V,R,
522,18,18,12,4,44,36,1917,['c'],1,left,['9'],5,717,[0.09742753],98,44,hard,plus,dotcolour,alfa,,,82,18,V,R,
523,19,19,12,4,27,53,484,['n'],1,right,['0'],6,166,[-0.03952011],97,53,easy,plus,dotcolour,alfa,,,82,18,V,R,
524,20,20,12,4,27,53,417,['n'],1,right,['0'],6,56,[-0.06720088],100,53,easy,plus,dotcolour,alfa,,,82,18,V,R,
525,21,21,12,4,53,27,717,['n'],0,left,['0'],6,74,[-0.05871595],100,53,easy,plus,dotcolour,alfa,,,82,18,V,R,
526,22,22,12,4,33,47,616,['n'],1,right,['0'],6,24,[-0.07561167],100,47,medium,plus,dotcolour,alfa,,,82,18,V,R,
527,23,23,12,4,36,44,565,['n'],1,right,['0'],6,122,[-0.10351205],100,44,hard,plus,dotcolour,alfa,,,82,18,V,R,
528,24,24,12,4,47,33,580,['n'],0,left,['0'],6,118,[-0.08725889],100,47,medium,plus,dotcolour,alfa,,,82,18,V,R,
529,25,25,12,4,33,47,500,['n'],1,right,['0'],6,111,[-0.1078626],100,47,medium,plus,dotcolour,alfa,,,82,18,V,R,
530,26,26,12,4,53,27,617,['c'],1,left,['0'],6,219,[0.23107641],100,53,easy,plus,dotcolour,alfa,,,82,18,V,R,
531,27,27,12,4,47,33,915,['c'],1,left,['9'],5,119,[0.05400057],100,47,medium,plus,dotcolour,alfa,,,82,18,V,R,
532,28,28,12,4,53,27,831,['c'],1,left,['9'],5,130,[0.12432856],100,53,easy,plus,dotcolour,alfa,,,82,18,V,R,
533,29,29,12,4,44,36,1248,['c'],1,left,['0'],6,84,[0.06410277],100,44,hard,plus,dotcolour,alfa,,,82,18,V,R,
534,30,30,12,4,27,53,467,['n'],1,right,['0'],6,128,[-0.09360132],100,53,easy,plus,dotcolour,alfa,,,82,18,V,R,
535,31,31,12,4,44,36,916,['n'],0,left,['9'],5,103,[-0.06324903],100,44,hard,plus,dotcolour,alfa,,,82,18,V,R,
536,32,32,12,4,44,36,882,['c'],1,left,['9'],5,72,[0.07486619],100,44,hard,plus,dotcolour,alfa,,,82,18,V,R,
537,33,33,12,4,27,53,564,['n'],1,right,['0'],6,88,[-0.07633621],100,53,easy,plus,dotcolour,alfa,,,82,18,V,R,
538,34,34,12,4,33,47,234,['n'],1,right,['0'],6,92,[-0.12218738],100,47,medium,plus,dotcolour,alfa,,,82,18,V,R,
539,35,35,12,4,27,53,466,['n'],1,right,['0'],6,22,[-0.07494523],100,53,easy,plus,dotcolour,alfa,,,82,18,V,R,
540,36,36,12,4,36,44,500,['n'],1,right,['0'],6,43,[-0.05904751],100,44,hard,plus,dotcolour,alfa,,,82,18,V,R,
541,37,37,12,4,36,44,480,['n'],1,right,['0'],6,71,[-0.04243597],100,44,hard,plus,dotcolour,alfa,,,82,18,V,R,
542,38,38,12,4,44,36,650,['n'],0,left,['0'],6,68,[-0.10780101],100,44,hard,plus,dotcolour,alfa,,,82,18,V,R,
543,39,39,12,4,47,33,583,['c'],1,left,['9'],5,403,[-0.00288761],46,47,medium,plus,dotcolour,alfa,,,82,18,V,R,
544,40,40,12,4,47,33,1017,['c'],1,left,['0'],6,108,[0.07005775],100,47,medium,plus,dotcolour,alfa,,,82,18,V,R,
545,41,41,12,4,47,33,433,['c'],1,left,['0'],6,87,[0.05457955],100,47,medium,plus,dotcolour,alfa,,,82,18,V,R,
546,42,0,13,4,44,36,1251,['n'],0,left,['0'],6,282,[-0.09242996],100,44,hard,plus,dotcolour,alfa,,,82,18,V,R,
547,43,1,13,4,27,53,216,['n'],1,right,['0'],6,104,[-0.06678981],100,53,easy,plus,dotcolour,alfa,,,82,18,V,R,
548,44,2,13,4,53,27,517,['c'],1,left,['0'],6,120,[0.10160706],100,53,easy,plus,dotcolour,alfa,,,82,18,V,R,
549,45,3,13,4,33,47,530,['n'],1,right,['0'],6,80,[-0.10677497],100,47,medium,plus,dotcolour,alfa,,,82,18,V,R,
550,46,4,13,4,47,33,617,['c'],1,left,['0'],6,101,[0.05353741],100,47,medium,plus,dotcolour,alfa,,,82,18,V,R,
551,47,5,13,4,44,36,534,['n'],0,left,['0'],6,61,[-0.08417199],100,44,hard,plus,dotcolour,alfa,,,82,18,V,R,
552,48,6,13,4,27,53,666,['n'],1,right,['0'],6,1,[-0.0727901],100,53,easy,plus,dotcolour,alfa,,,82,18,V,R,
553,49,7,13,4,47,33,317,['n'],0,left,['0'],6,70,[-0.05630145],100,47,medium,plus,dotcolour,alfa,,,82,18,V,R,
554,50,8,13,4,36,44,533,['n'],1,right,['0'],6,87,[-0.0492893],100,44,hard,plus,dotcolour,alfa,,,82,18,V,R,
555,51,9,13,4,53,27,483,['c'],1,left,['9'],5,113,[0.15988145],100,53,easy,plus,dotcolour,alfa,,,82,18,V,R,
556,52,10,13,4,47,33,767,['c'],1,left,['0'],6,167,[0.09777022],100,47,medium,plus,dotcolour,alfa,,,82,18,V,R,
557,53,11,13,4,33,47,566,['n'],1,right,['0'],6,98,[-0.09133462],100,47,medium,plus,dotcolour,alfa,,,82,18,V,R,
558,54,12,13,4,27,53,631,['n'],1,right,['0'],6,30,[-0.07349765],100,53,easy,plus,dotcolour,alfa,,,82,18,V,R,
559,55,13,13,4,33,47,350,['n'],1,right,['0'],6,64,[-0.1034692],100,47,medium,plus,dotcolour,alfa,,,82,18,V,R,
560,56,14,13,4,36,44,366,['n'],1,right,['0'],6,8,[-0.07354883],100,44,hard,plus,dotcolour,alfa,,,82,18,V,R,
561,57,15,13,4,33,47,162,['n'],1,right,['0'],6,49,[-0.1014478],100,47,medium,plus,dotcolour,alfa,,,82,18,V,R,
562,58,16,13,4,47,33,384,['c'],1,left,['0'],6,41,[0.07068366],100,47,medium,plus,dotcolour,alfa,,,82,18,V,R,
563,59,17,13,4,27,53,417,['n'],1,right,['0'],6,888,[-0.21759151],100,53,easy,plus,dotcolour,alfa,,,82,18,V,R,
564,60,18,13,4,44,36,533,['n'],0,left,['0'],6,168,[-0.08585351],100,44,hard,plus,dotcolour,alfa,,,82,18,V,R,
565,61,19,13,4,53,27,299,['c'],1,left,['0'],6,103,[0.05837434],100,53,easy,plus,dotcolour,alfa,,,82,18,V,R,
566,62,20,13,4,27,53,433,['n'],1,right,['0'],6,27,[-0.0921755],100,53,easy,plus,dotcolour,alfa,,,82,18,V,R,
567,63,21,13,4,44,36,301,['c'],1,left,['0'],6,71,[0.12076058],100,44,hard,plus,dotcolour,alfa,,,82,18,V,R,
568,64,22,13,4,53,27,550,['c'],1,left,['0'],6,24,[0.07568817],100,53,easy,plus,dotcolour,alfa,,,82,18,V,R,
569,65,23,13,4,44,36,350,['n'],0,left,['0'],6,18,[-0.07278803],100,44,hard,plus,dotcolour,alfa,,,82,18,V,R,
570,66,24,13,4,36,44,467,['n'],1,right,['0'],6,72,[-0.117485],100,44,hard,plus,dotcolour,alfa,,,82,18,V,R,
571,67,25,13,4,53,27,532,['c'],1,left,['0'],6,65,[0.06741543],100,53,easy,plus,dotcolour,alfa,,,82,18,V,R,
572,68,26,13,4,27,53,417,['n'],1,right,['0'],6,39,[-0.00582146],74,53,easy,plus,dotcolour,alfa,,,82,18,V,R,
573,69,27,13,4,36,44,334,['n'],1,right,['0'],6,26,[-0.05054221],100,44,hard,plus,dotcolour,alfa,,,82,18,V,R,
574,70,28,13,4,36,44,367,['n'],1,right,['0'],6,59,[-0.07900115],100,44,hard,plus,dotcolour,alfa,,,82,18,V,R,
575,71,29,13,4,27,53,350,['c'],0,right,['0'],6,76,[0.0488261],100,53,easy,plus,dotcolour,alfa,,,82,18,V,R,
576,72,30,13,4,53,27,483,['c'],1,left,['0'],6,6,[0.05748865],100,53,easy,plus,dotcolour,alfa,,,82,18,V,R,
577,73,31,13,4,47,33,500,['n'],0,left,['0'],6,123,[-0.07906302],100,47,medium,plus,dotcolour,alfa,,,82,18,V,R,
578,74,32,13,4,44,36,881,['c'],1,left,['0'],6,115,[0.01687377],86,44,hard,plus,dotcolour,alfa,,,82,18,V,R,
579,75,33,13,4,44,36,1834,['c'],1,left,['9'],5,207,[0.14644239],100,44,hard,plus,dotcolour,alfa,,,82,18,V,R,
580,76,34,13,4,36,44,716,['n'],1,right,['0'],6,76,[-0.04450221],100,44,hard,plus,dotcolour,alfa,,,82,18,V,R,
581,77,35,13,4,47,33,1067,['c'],1,left,['0'],6,247,[0.08821231],100,47,medium,plus,dotcolour,alfa,,,82,18,V,R,
582,78,36,13,4,53,27,700,['c'],1,left,['0'],6,226,[0.17122415],100,53,easy,plus,dotcolour,alfa,,,82,18,V,R,
583,79,37,13,4,33,47,950,['n'],1,right,['0'],6,764,[-0.07212379],95,47,medium,plus,dotcolour,alfa,,,82,18,V,R,
584,80,38,13,4,33,47,650,['n'],1,right,['0'],6,61,[-0.05164283],100,47,medium,plus,dotcolour,alfa,,,82,18,V,R,
585,81,39,13,4,36,44,550,['n'],1,right,['0'],6,102,[-0.05145111],100,44,hard,plus,dotcolour,alfa,,,82,18,V,R,
586,82,40,13,4,33,47,783,['c'],0,right,['0'],6,99,[0.05658327],100,47,medium,plus,dotcolour,alfa,,,82,18,V,R,
587,83,41,13,4,47,33,616,['n'],0,left,['0'],6,136,[-0.04640784],99,47,medium,plus,dotcolour,alfa,,,82,18,V,R,
588,84,0,14,4,53,27,767,['c'],1,left,['0'],6,126,[0.10837576],100,53,easy,plus,dotcolour,alfa,,,82,18,V,R,
589,85,1,14,4,44,36,815,['c'],1,left,['0'],6,74,[0.04746089],100,44,hard,plus,dotcolour,alfa,,,82,18,V,R,
590,86,2,14,4,27,53,467,['n'],1,right,['0'],6,13,[-0.07581111],100,53,easy,plus,dotcolour,alfa,,,82,18,V,R,
591,87,3,14,4,47,33,499,['c'],1,left,['0'],6,58,[0.05387433],100,47,medium,plus,dotcolour,alfa,,,82,18,V,R,
592,88,4,14,4,47,33,567,['c'],1,left,['0'],6,50,[0.06887647],100,47,medium,plus,dotcolour,alfa,,,82,18,V,R,
593,89,5,14,4,27,53,433,['n'],1,right,['0'],6,8,[-0.07236559],100,53,easy,plus,dotcolour,alfa,,,82,18,V,R,
594,90,6,14,4,36,44,598,['n'],1,right,['0'],6,57,[-0.0411789],100,44,hard,plus,dotcolour,alfa,,,82,18,V,R,
595,91,7,14,4,33,47,434,['n'],1,right,['0'],6,23,[-0.07686518],100,47,medium,plus,dotcolour,alfa,,,82,18,V,R,
596,92,8,14,4,36,44,383,['c'],0,right,['1'],1,1024,[-0.03855278],20,44,hard,plus,dotcolour,alfa,,,82,18,V,R,
597,93,9,14,4,27,53,617,['n'],1,right,['0'],6,56,[-0.09375517],100,53,easy,plus,dotcolour,alfa,,,82,18,V,R,
598,94,10,14,4,53,27,417,['c'],1,left,['0'],6,85,[0.11489124],100,53,easy,plus,dotcolour,alfa,,,82,18,V,R,
599,95,11,14,4,44,36,1934,['c'],1,left,['9'],5,582,[-0.00021839],50,44,hard,plus,dotcolour,alfa,,,82,18,V,R,
600,96,12,14,4,44,36,833,['c'],1,left,['0'],6,359,[0.06954675],98,44,hard,plus,dotcolour,alfa,,,82,18,V,R,
601,97,13,14,4,36,44,584,['n'],1,right,['0'],6,82,[-0.0555646],100,44,hard,plus,dotcolour,alfa,,,82,18,V,R,
602,98,14,14,4,44,36,584,['c'],1,left,['0'],6,81,[0.07327344],100,44,hard,plus,dotcolour,alfa,,,82,18,V,R,
603,99,15,14,4,44,36,600,['n'],0,left,['0'],6,55,[-0.09599572],100,44,hard,plus,dotcolour,alfa,,,82,18,V,R,
604,100,16,14,4,33,47,2634,['n'],1,right,['0'],6,45,[-0.07256884],100,47,medium,plus,dotcolour,alfa,,,82,18,V,R,
605,101,17,14,4,53,27,583,['n'],0,left,['1'],1,725,[0.0461792],12,53,easy,plus,dotcolour,alfa,,,82,18,V,R,
606,102,18,14,4,36,44,549,['n'],1,right,['0'],6,51,[-0.09164611],100,44,hard,plus,dotcolour,alfa,,,82,18,V,R,
607,103,19,14,4,27,53,784,['n'],1,right,['0'],6,179,[-0.08997849],100,53,easy,plus,dotcolour,alfa,,,82,18,V,R,
608,104,20,14,4,47,33,616,['c'],1,left,['0'],6,60,[0.06707438],100,47,medium,plus,dotcolour,alfa,,,82,18,V,R,
609,105,21,14,4,27,53,1100,['n'],1,right,['0'],6,55,[-0.07348502],100,53,easy,plus,dotcolour,alfa,,,82,18,V,R,
610,106,22,14,4,33,47,482,['n'],1,right,['0'],6,67,[-0.14409676],100,47,medium,plus,dotcolour,alfa,,,82,18,V,R,
611,107,23,14,4,53,27,650,['c'],1,left,['0'],6,39,[0.05959894],100,53,easy,plus,dotcolour,alfa,,,82,18,V,R,
612,108,24,14,4,36,44,1050,['c'],0,right,['0'],6,13,[0.06940374],100,44,hard,plus,dotcolour,alfa,,,82,18,V,R,
613,109,25,14,4,33,47,1531,['c'],0,right,['9'],5,105,[0.01307845],81,47,medium,plus,dotcolour,alfa,,,82,18,V,R,
614,110,26,14,4,33,47,6817,['n'],1,right,['8'],4,69,[-0.07941333],100,47,medium,plus,dotcolour,alfa,,,82,18,V,R,
615,111,27,14,4,47,33,617,['n'],0,left,['0'],6,51,[-0.05324896],100,47,medium,plus,dotcolour,alfa,,,82,18,V,R,
616,112,28,14,4,27,53,550,['n'],1,right,['0'],6,85,[-0.10045844],100,53,easy,plus,dotcolour,alfa,,,82,18,V,R,
617,113,29,14,4,44,36,2100,['c'],1,left,['9'],5,47,[0.06933588],100,44,hard,plus,dotcolour,alfa,,,82,18,V,R,
618,114,30,14,4,53,27,750,['c'],1,left,['0'],6,24,[0.09489426],100,53,easy,plus,dotcolour,alfa,,,82,18,V,R,
619,115,31,14,4,33,47,584,['n'],1,right,['0'],6,777,[-0.2986246],100,47,medium,plus,dotcolour,alfa,,,82,18,V,R,
620,116,32,14,4,53,27,650,['c'],1,left,['0'],6,65,[0.06048931],100,53,easy,plus,dotcolour,alfa,,,82,18,V,R,
621,117,33,14,4,47,33,600,['c'],1,left,['0'],6,215,[0.08350761],100,47,medium,plus,dotcolour,alfa,,,82,18,V,R,
622,118,34,14,4,44,36,1751,['c'],1,left,['9'],5,74,[0.04836541],100,44,hard,plus,dotcolour,alfa,,,82,18,V,R,
623,119,35,14,4,47,33,733,['c'],1,left,['0'],6,83,[0.05786026],100,47,medium,plus,dotcolour,alfa,,,82,18,V,R,
624,120,36,14,4,53,27,683,['c'],1,left,['0'],6,45,[0.0735472],100,53,easy,plus,dotcolour,alfa,,,82,18,V,R,
625,121,37,14,4,36,44,550,['n'],1,right,['0'],6,62,[-0.10118149],100,44,hard,plus,dotcolour,alfa,,,82,18,V,R,
626,122,38,14,4,36,44,584,['c'],0,right,['0'],6,254,[-0.12546303],0,44,hard,plus,dotcolour,alfa,,,82,18,V,R,
627,123,39,14,4,47,33,717,['c'],1,left,['0'],6,656,[0.17996233],100,47,medium,plus,dotcolour,alfa,,,82,18,V,R,
628,124,40,14,4,27,53,581,['n'],1,right,['0'],6,63,[-0.06810632],100,53,easy,plus,dotcolour,alfa,,,82,18,V,R,
629,125,41,14,4,33,47,633,['n'],1,right,['0'],6,37,[-0.07563159],100,47,medium,plus,dotcolour,alfa,,,82,18,V,R,
630,0,0,15,5,47,33,650,['c'],1,left,['0'],6,43,[0.07840164],97,47,medium,minus,dotcolour,alfa,,,82,18,V,R,
631,1,1,15,5,44,36,1216,['c'],1,left,['0'],6,42,[0.11629228],99,44,hard,minus,dotcolour,alfa,,,82,18,V,R,
632,2,2,15,5,36,44,717,['c'],0,right,['9'],5,1245,[-0.09789525],31,44,hard,minus,dotcolour,alfa,,,82,18,V,R,
633,3,3,15,5,47,33,1184,['c'],1,left,['0'],6,741,[0.0645989],66,47,medium,minus,dotcolour,alfa,,,82,18,V,R,
634,4,4,15,5,36,44,967,['c'],0,right,['0'],6,153,[0.03611255],70,44,hard,minus,dotcolour,alfa,,,82,18,V,R,
635,5,5,15,5,44,36,750,['n'],0,left,['9'],5,335,[-0.08639407],79,44,hard,minus,dotcolour,alfa,,,82,18,V,R,
636,6,6,15,5,27,53,651,['n'],1,right,['0'],6,40,[-0.06985874],96,53,easy,minus,dotcolour,alfa,,,82,18,V,R,
637,7,7,15,5,53,27,565,['c'],1,left,['0'],6,57,[0.05762461],90,53,easy,minus,dotcolour,alfa,,,82,18,V,R,
638,8,8,15,5,33,47,1366,['c'],0,right,['9'],5,144,[0.07152765],85,47,medium,minus,dotcolour,alfa,,,82,18,V,R,
639,9,9,15,5,36,44,700,['n'],1,right,['0'],6,80,[-0.08332072],93,44,hard,minus,dotcolour,alfa,,,82,18,V,R,
640,10,10,15,5,44,36,750,['n'],0,left,['0'],6,88,[-0.06489285],88,44,hard,minus,dotcolour,alfa,,,82,18,V,R,
641,11,11,15,5,44,36,483,['c'],1,left,['0'],6,106,[0.09480433],93,44,hard,minus,dotcolour,alfa,,,82,18,V,R,
642,12,12,15,5,33,47,467,['n'],1,right,['0'],6,68,[-0.11100909],98,47,medium,minus,dotcolour,alfa,,,82,18,V,R,
643,13,13,15,5,47,33,983,['c'],1,left,['0'],6,52,[0.08133127],96,47,medium,minus,dotcolour,alfa,,,82,18,V,R,
644,14,14,15,5,36,44,784,['n'],1,right,['0'],6,28,[-0.05620318],95,44,hard,minus,dotcolour,alfa,,,82,18,V,R,
645,15,15,15,5,44,36,1014,['c'],1,left,['0'],6,35,[0.10928263],99,44,hard,minus,dotcolour,alfa,,,82,18,V,R,
646,16,16,15,5,44,36,2384,['c'],1,left,['8'],4,92,[0.11084483],96,44,hard,minus,dotcolour,alfa,,,82,18,V,R,
647,17,17,15,5,53,27,850,['c'],1,left,['0'],6,135,[0.09185111],90,53,easy,minus,dotcolour,alfa,,,82,18,V,R,
648,18,18,15,5,36,44,650,['n'],1,right,['0'],6,33,[-0.07049186],97,44,hard,minus,dotcolour,alfa,,,82,18,V,R,
649,19,19,15,5,47,33,584,['n'],0,left,['0'],6,82,[-0.08225515],93,47,medium,minus,dotcolour,alfa,,,82,18,V,R,
650,20,20,15,5,33,47,867,['c'],0,right,['0'],6,37,[0.08025606],98,47,medium,minus,dotcolour,alfa,,,82,18,V,R,
651,21,21,15,5,44,36,732,['c'],1,left,['0'],6,16,[0.08170928],100,44,hard,minus,dotcolour,alfa,,,82,18,V,R,
652,22,22,15,5,27,53,500,['n'],1,right,['0'],6,36,[-0.06226414],95,53,easy,minus,dotcolour,alfa,,,82,18,V,R,
653,23,23,15,5,27,53,383,['n'],1,right,['0'],6,45,[-0.10261646],99,53,easy,minus,dotcolour,alfa,,,82,18,V,R,
654,24,24,15,5,47,33,384,['n'],0,left,['0'],6,5,[-0.07352767],100,47,medium,minus,dotcolour,alfa,,,82,18,V,R,
655,25,25,15,5,47,33,650,['c'],1,left,['0'],6,4,[0.08370573],100,47,medium,minus,dotcolour,alfa,,,82,18,V,R,
656,26,26,15,5,33,47,384,['c'],0,right,['0'],6,6,[0.07072234],100,47,medium,minus,dotcolour,alfa,,,82,18,V,R,
657,27,27,15,5,53,27,616,['c'],1,left,['0'],6,14,[0.08088502],100,53,easy,minus,dotcolour,alfa,,,82,18,V,R,
658,28,28,15,5,27,53,414,['n'],1,right,['0'],6,710,[-0.17359381],86,53,easy,minus,dotcolour,alfa,,,82,18,V,R,
659,29,29,15,5,36,44,800,['n'],1,right,['0'],6,35,[-0.05793729],94,44,hard,minus,dotcolour,alfa,,,82,18,V,R,
660,30,30,15,5,33,47,882,['n'],1,right,['0'],6,32,[-0.06240158],96,47,medium,minus,dotcolour,alfa,,,82,18,V,R,
661,31,31,15,5,27,53,500,['n'],1,right,['0'],6,28,[-0.07988033],99,53,easy,minus,dotcolour,alfa,,,82,18,V,R,
662,32,32,15,5,27,53,517,['n'],1,right,['0'],6,615,[-0.20461842],91,53,easy,minus,dotcolour,alfa,,,82,18,V,R,
663,33,33,15,5,53,27,584,['c'],1,left,['0'],6,33,[0.06664769],96,53,easy,minus,dotcolour,alfa,,,82,18,V,R,
664,34,34,15,5,53,27,832,['c'],1,left,['0'],6,31,[0.0969552],99,53,easy,minus,dotcolour,alfa,,,82,18,V,R,
665,35,35,15,5,53,27,567,['c'],1,left,['0'],6,8,[0.08557724],100,53,easy,minus,dotcolour,alfa,,,82,18,V,R,
666,36,36,15,5,33,47,768,['n'],1,right,['0'],6,26,[-0.07376224],98,47,medium,minus,dotcolour,alfa,,,82,18,V,R,
667,37,37,15,5,47,33,597,['c'],1,left,['0'],6,67,[0.11852752],98,47,medium,minus,dotcolour,alfa,,,82,18,V,R,
668,38,38,15,5,53,27,550,['c'],1,left,['0'],6,59,[0.14156174],99,53,easy,minus,dotcolour,alfa,,,82,18,V,R,
669,39,39,15,5,27,53,516,['n'],1,right,['0'],6,13,[-0.08476949],100,53,easy,minus,dotcolour,alfa,,,82,18,V,R,
670,40,40,15,5,33,47,450,['n'],1,right,['0'],6,44,[-0.05225992],90,47,medium,minus,dotcolour,alfa,,,82,18,V,R,
671,41,41,15,5,36,44,850,['n'],1,right,['0'],6,57,[-0.0563172],89,44,hard,minus,dotcolour,alfa,,,82,18,V,R,
672,42,0,16,5,47,33,667,['c'],1,left,['0'],6,71,[0.04498578],82,47,medium,minus,dotcolour,alfa,,,82,18,V,R,
673,43,1,16,5,47,33,747,['c'],1,left,['0'],6,32,[0.07893442],98,47,medium,minus,dotcolour,alfa,,,82,18,V,R,
674,44,2,16,5,27,53,481,['n'],1,right,['0'],6,28,[-0.07969053],99,53,easy,minus,dotcolour,alfa,,,82,18,V,R,
675,45,3,16,5,27,53,767,['c'],0,right,['0'],6,54,[0.06161017],92,53,easy,minus,dotcolour,alfa,,,82,18,V,R,
676,46,4,16,5,27,53,583,['n'],1,right,['0'],6,14,[-0.08480617],100,53,easy,minus,dotcolour,alfa,,,82,18,V,R,
677,47,5,16,5,36,44,1350,['c'],0,right,['9'],5,88,[0.05696351],85,44,hard,minus,dotcolour,alfa,,,82,18,V,R,
678,48,6,16,5,33,47,1234,['n'],1,right,['9'],5,460,[-0.10177533],79,47,medium,minus,dotcolour,alfa,,,82,18,V,R,
679,49,7,16,5,27,53,650,['n'],1,right,['0'],6,73,[-0.10750974],97,53,easy,minus,dotcolour,alfa,,,82,18,V,R,
680,50,8,16,5,53,27,516,['c'],1,left,['0'],6,35,[0.05742418],94,53,easy,minus,dotcolour,alfa,,,82,18,V,R,
681,51,9,16,5,44,36,767,['n'],0,left,['0'],6,4,[-0.08164315],100,44,hard,minus,dotcolour,alfa,,,82,18,V,R,
682,52,10,16,5,27,53,533,['n'],1,right,['0'],6,8,[-0.06257433],100,53,easy,minus,dotcolour,alfa,,,82,18,V,R,
683,53,11,16,5,36,44,800,['c'],0,right,['0'],6,32,[0.08111403],98,44,hard,minus,dotcolour,alfa,,,82,18,V,R,
684,54,12,16,5,33,47,918,['c'],0,right,['0'],6,36,[0.04264731],88,47,medium,minus,dotcolour,alfa,,,82,18,V,R,
685,55,13,16,5,47,33,550,['c'],1,left,['0'],6,102,[0.09422069],93,47,medium,minus,dotcolour,alfa,,,82,18,V,R,
686,56,14,16,5,47,33,1350,['c'],1,left,['9'],5,85,[0.04536978],80,47,medium,minus,dotcolour,alfa,,,82,18,V,R,
687,57,15,16,5,33,47,583,['n'],1,right,['0'],6,100,[-0.08308965],91,47,medium,minus,dotcolour,alfa,,,82,18,V,R,
688,58,16,16,5,33,47,716,['n'],1,right,['0'],6,100,[-0.08059827],91,47,medium,minus,dotcolour,alfa,,,82,18,V,R,
689,59,17,16,5,53,27,634,['c'],1,left,['9'],5,80,[0.12041281],98,53,easy,minus,dotcolour,alfa,,,82,18,V,R,
690,60,18,16,5,47,33,1233,['c'],1,left,['9'],5,77,[0.08622555],94,47,medium,minus,dotcolour,alfa,,,82,18,V,R,
691,61,19,16,5,47,33,1050,['c'],1,left,['0'],6,97,[0.08949539],93,47,medium,minus,dotcolour,alfa,,,82,18,V,R,
692,62,20,16,5,44,36,1200,['c'],1,left,['9'],5,278,[0.1383865],91,44,hard,minus,dotcolour,alfa,,,82,18,V,R,
693,63,21,16,5,44,36,833,['c'],1,left,['0'],6,75,[0.08861489],95,44,hard,minus,dotcolour,alfa,,,82,18,V,R,
694,64,22,16,5,44,36,2567,['c'],1,left,['9'],5,603,[-0.02892747],42,44,hard,minus,dotcolour,alfa,,,82,18,V,R,
695,65,23,16,5,27,53,697,['n'],1,right,['0'],6,143,[-0.10500749],92,53,easy,minus,dotcolour,alfa,,,82,18,V,R,
696,66,24,16,5,33,47,900,['n'],1,right,['9'],5,110,[-0.11743362],96,47,medium,minus,dotcolour,alfa,,,82,18,V,R,
697,67,25,16,5,44,36,483,['n'],0,left,['0'],6,208,[-0.02004161],60,44,hard,minus,dotcolour,alfa,,,82,18,V,R,
698,68,26,16,5,47,33,783,['c'],1,left,['0'],6,137,[0.09883067],92,47,medium,minus,dotcolour,alfa,,,82,18,V,R,
699,69,27,16,5,44,36,633,['c'],1,left,['9'],5,996,[0.11326721],74,44,hard,minus,dotcolour,alfa,,,82,18,V,R,
700,70,28,16,5,44,36,732,['c'],1,left,['0'],6,80,[0.05885474],87,44,hard,minus,dotcolour,alfa,,,82,18,V,R,
701,71,29,16,5,27,53,1300,['n'],1,right,['0'],6,42,[-0.10605407],99,53,easy,minus,dotcolour,alfa,,,82,18,V,R,
702,72,30,16,5,33,47,450,['n'],1,right,['0'],6,71,[-0.12033801],98,47,medium,minus,dotcolour,alfa,,,82,18,V,R,
703,73,31,16,5,53,27,566,['c'],1,left,['0'],6,63,[0.07133699],93,53,easy,minus,dotcolour,alfa,,,82,18,V,R,
704,74,32,16,5,36,44,1034,['n'],1,right,['0'],6,76,[-0.03320299],75,44,hard,minus,dotcolour,alfa,,,82,18,V,R,
705,75,33,16,5,53,27,733,['c'],1,left,['0'],6,109,[0.08466395],91,53,easy,minus,dotcolour,alfa,,,82,18,V,R,
706,76,34,16,5,53,27,614,['c'],1,left,['0'],6,57,[0.09777242],98,53,easy,minus,dotcolour,alfa,,,82,18,V,R,
707,77,35,16,5,33,47,632,['n'],1,right,['0'],6,39,[-0.07903709],97,47,medium,minus,dotcolour,alfa,,,82,18,V,R,
708,78,36,16,5,36,44,933,['n'],1,right,['0'],6,34,[-0.08194663],98,44,hard,minus,dotcolour,alfa,,,82,18,V,R,
709,79,37,16,5,53,27,600,['c'],1,left,['0'],6,26,[0.08977825],99,53,easy,minus,dotcolour,alfa,,,82,18,V,R,
710,80,38,16,5,36,44,468,['n'],1,right,['0'],6,847,[-0.20207256],88,44,hard,minus,dotcolour,alfa,,,82,18,V,R,
711,81,39,16,5,36,44,801,['n'],1,right,['0'],6,54,[-0.05636761],90,44,hard,minus,dotcolour,alfa,,,82,18,V,R,
712,82,40,16,5,53,27,733,['c'],1,left,['0'],6,32,[0.09801552],99,53,easy,minus,dotcolour,alfa,,,82,18,V,R,
713,83,41,16,5,36,44,467,['n'],1,right,['0'],6,573,[-0.07542728],71,44,hard,minus,dotcolour,alfa,,,82,18,V,R,
714,84,0,17,5,44,36,2184,['c'],1,left,['0'],6,78,[0.09464091],95,44,hard,minus,dotcolour,alfa,,,82,18,V,R,
715,85,1,17,5,36,44,400,['n'],1,right,['0'],6,60,[-0.10763325],98,44,hard,minus,dotcolour,alfa,,,82,18,V,R,
716,86,2,17,5,36,44,416,['n'],1,right,['0'],6,74,[-0.08804857],95,44,hard,minus,dotcolour,alfa,,,82,18,V,R,
717,87,3,17,5,47,33,601,['c'],1,left,['0'],6,47,[0.07500446],96,47,medium,minus,dotcolour,alfa,,,82,18,V,R,
718,88,4,17,5,27,53,717,['c'],0,right,['2'],2,1858,[-0.10563217],33,53,easy,minus,dotcolour,alfa,,,82,18,V,R,
719,89,5,17,5,33,47,534,['n'],1,right,['0'],6,68,[-0.09025587],96,47,medium,minus,dotcolour,alfa,,,82,18,V,R,
720,90,6,17,5,36,44,551,['n'],1,right,['0'],6,60,[-0.07322217],94,44,hard,minus,dotcolour,alfa,,,82,18,V,R,
721,91,7,17,5,47,33,600,['c'],1,left,['0'],6,67,[0.06617948],91,47,medium,minus,dotcolour,alfa,,,82,18,V,R,
722,92,8,17,5,47,33,581,['n'],0,left,['0'],6,82,[-0.09721453],96,47,medium,minus,dotcolour,alfa,,,82,18,V,R,
723,93,9,17,5,44,36,781,['c'],1,left,['9'],5,145,[0.1120182],93,44,hard,minus,dotcolour,alfa,,,82,18,V,R,
724,94,10,17,5,44,36,748,['c'],1,left,['0'],6,182,[0.03171519],66,44,hard,minus,dotcolour,alfa,,,82,18,V,R,
725,95,11,17,5,36,44,534,['n'],1,right,['0'],6,99,[-0.13575655],98,44,hard,minus,dotcolour,alfa,,,82,18,V,R,
726,96,12,17,5,47,33,867,['c'],1,left,['9'],5,110,[0.07779604],89,47,medium,minus,dotcolour,alfa,,,82,18,V,R,
727,97,13,17,5,33,47,766,['n'],1,right,['0'],6,84,[-0.08906759],94,47,medium,minus,dotcolour,alfa,,,82,18,V,R,
728,98,14,17,5,33,47,517,['n'],1,right,['0'],6,85,[-0.10090515],96,47,medium,minus,dotcolour,alfa,,,82,18,V,R,
729,99,15,17,5,27,53,466,['n'],1,right,['0'],6,96,[-0.07179242],89,53,easy,minus,dotcolour,alfa,,,82,18,V,R,
730,100,16,17,5,27,53,400,['n'],1,right,['0'],6,70,[-0.0517876],85,53,easy,minus,dotcolour,alfa,,,82,18,V,R,
731,101,17,17,5,53,27,933,['c'],1,left,['8'],4,543,[0.18275458],90,53,easy,minus,dotcolour,alfa,,,82,18,V,R,
732,102,18,17,5,53,27,1783,['c'],1,left,['9'],5,1155,[0.31488653],93,53,easy,minus,dotcolour,alfa,,,82,18,V,R,
733,103,19,17,5,53,27,666,['c'],1,left,['0'],6,195,[0.13316606],94,53,easy,minus,dotcolour,alfa,,,82,18,V,R,
734,104,20,17,5,53,27,900,['n'],0,left,['0'],6,112,[-0.07061698],87,53,easy,minus,dotcolour,alfa,,,82,18,V,R,
735,105,21,17,5,33,47,983,['c'],0,right,['0'],6,301,[0.08613583],80,47,medium,minus,dotcolour,alfa,,,82,18,V,R,
736,106,22,17,5,33,47,3883,['n'],1,right,['8'],4,48,[-0.107447],99,47,medium,minus,dotcolour,alfa,,,82,18,V,R,
737,107,23,17,5,44,36,2148,['c'],1,left,['0'],6,129,[-0.00197406],49,44,hard,minus,dotcolour,alfa,,,82,18,V,R,
738,108,24,17,5,27,53,451,['n'],1,right,['0'],6,115,[-0.03541399],72,53,easy,minus,dotcolour,alfa,,,82,18,V,R,
739,109,25,17,5,27,53,633,['n'],1,right,['0'],6,78,[-0.05006367],83,53,easy,minus,dotcolour,alfa,,,82,18,V,R,
740,110,26,17,5,53,27,584,['c'],1,left,['0'],6,117,[0.08172925],90,53,easy,minus,dotcolour,alfa,,,82,18,V,R,
741,111,27,17,5,47,33,633,['c'],1,left,['0'],6,64,[0.066307],91,47,medium,minus,dotcolour,alfa,,,82,18,V,R,
742,112,28,17,5,47,33,734,['c'],1,left,['0'],6,313,[0.17069704],94,47,medium,minus,dotcolour,alfa,,,82,18,V,R,
743,113,29,17,5,44,36,799,['n'],0,left,['0'],6,94,[-0.06617841],87,44,hard,minus,dotcolour,alfa,,,82,18,V,R,
744,114,30,17,5,36,44,700,['n'],1,right,['9'],5,303,[-0.07778129],78,44,hard,minus,dotcolour,alfa,,,82,18,V,R,
745,115,31,17,5,53,27,550,['c'],1,left,['0'],6,71,[0.0579752],88,53,easy,minus,dotcolour,alfa,,,82,18,V,R,
746,116,32,17,5,33,47,631,['n'],1,right,['0'],6,60,[-0.07702207],94,47,medium,minus,dotcolour,alfa,,,82,18,V,R,
747,117,33,17,5,33,47,533,['n'],1,right,['0'],6,69,[-0.09581701],96,47,medium,minus,dotcolour,alfa,,,82,18,V,R,
748,118,34,17,5,53,27,717,['c'],1,left,['0'],6,79,[0.00993636],58,53,easy,minus,dotcolour,alfa,,,82,18,V,R,
749,119,35,17,5,44,36,532,['n'],0,left,['0'],6,32,[-0.06109168],96,44,hard,minus,dotcolour,alfa,,,82,18,V,R,
750,120,36,17,5,27,53,700,['n'],1,right,['0'],6,156,[-0.07774062],85,53,easy,minus,dotcolour,alfa,,,82,18,V,R,
751,121,37,17,5,44,36,1251,['c'],1,left,['9'],5,117,[0.0503584],79,44,hard,minus,dotcolour,alfa,,,82,18,V,R,
752,122,38,17,5,27,53,634,['n'],1,right,['0'],6,641,[-0.13323314],82,53,easy,minus,dotcolour,alfa,,,82,18,V,R,
753,123,39,17,5,47,33,600,['c'],1,left,['0'],6,112,[0.10471642],94,47,medium,minus,dotcolour,alfa,,,82,18,V,R,
754,124,40,17,5,36,44,833,['n'],1,right,['0'],6,83,[-0.10311782],96,44,hard,minus,dotcolour,alfa,,,82,18,V,R,
755,125,41,17,5,36,44,1083,['n'],1,right,['9'],5,126,[-0.08332574],89,44,hard,minus,dotcolour,alfa,,,82,18,V,R,
,,,,,,,,,,,,,,,,,,,,,1,nee,82,18,V,R,
,,,,,,,,,,,,,,,,,,,,,2,['d'],82,18,V,R,
,,,,,,,,,,,,,,,,,,,,,3,['f'],82,18,V,R,
,,,,,,,,,,,,,,,,,,,,,5,['5'],82,18,V,R,
