trial,withinphasetrial,withinblocktrial,block,phase,dotsLeft,dotsRight,rt,resp,cor,cresp,conf_press,cj,RTconf,ev,fb,diff,difflevel,condition,task,manip,questionID,questionResp,sub,age,gender,handedness,
0,0,0,0,0,47,33,1465,['n'],0,left,['2'],5,1346,[-0.04436056],59,47,medium,minus,dotcolour,alfa,,,77,20,M,R,
1,1,1,0,0,47,33,666,['c'],1,left,['3'],4,1994,[0.23448624],82,47,medium,minus,dotcolour,alfa,,,77,20,M,R,
2,2,2,0,0,27,53,1015,['n'],1,right,['3'],4,1051,[-0.1747294],82,53,easy,minus,dotcolour,alfa,,,77,20,M,R,
3,3,3,0,0,33,47,1483,['n'],1,right,['3'],4,1694,[-0.27170779],87,47,medium,minus,dotcolour,alfa,,,77,20,M,R,
4,4,4,0,0,44,36,1582,['c'],1,left,['2'],5,539,[0.05116968],65,44,hard,minus,dotcolour,alfa,,,77,20,M,R,
5,5,5,0,0,33,47,1283,['n'],1,right,['2'],5,643,[-0.19557541],90,47,medium,minus,dotcolour,alfa,,,77,20,M,R,
6,6,6,0,0,36,44,2282,['n'],1,right,['2'],5,599,[-0.08585475],73,44,hard,minus,dotcolour,alfa,,,77,20,M,R,
7,7,7,0,0,27,53,815,['n'],1,right,['1'],6,248,[-0.07534068],80,53,easy,minus,dotcolour,alfa,,,77,20,M,R,
8,8,8,0,0,53,27,2683,['n'],0,left,['3'],4,668,[-0.11297988],78,53,easy,minus,dotcolour,alfa,,,77,20,M,R,
9,9,9,0,0,53,27,701,['c'],1,left,['3'],4,766,[0.14866468],82,53,easy,minus,dotcolour,alfa,,,77,20,M,R,
10,10,10,0,0,27,53,1613,['c'],0,right,['3'],4,1824,[-0.30862313],11,53,easy,minus,dotcolour,alfa,,,77,20,M,R,
11,11,11,0,0,44,36,1082,['c'],1,left,['1'],6,1508,[0.26697205],88,44,hard,minus,dotcolour,alfa,,,77,20,M,R,
12,12,12,0,0,36,44,982,['n'],1,right,['3'],4,481,[-0.05571039],67,44,hard,minus,dotcolour,alfa,,,77,20,M,R,
13,13,13,0,0,47,33,1166,['c'],1,left,['2'],5,376,[0.01663469],56,47,medium,minus,dotcolour,alfa,,,77,20,M,R,
14,14,14,0,0,33,47,1081,['n'],1,right,['8'],3,1103,[-0.1355877],76,47,medium,minus,dotcolour,alfa,,,77,20,M,R,
15,15,15,0,0,27,53,732,['n'],1,right,['2'],5,438,[-0.15513051],89,53,easy,minus,dotcolour,alfa,,,77,20,M,R,
16,16,16,0,0,47,33,1665,['c'],1,left,['2'],5,404,[0.11709872],84,47,medium,minus,dotcolour,alfa,,,77,20,M,R,
17,17,17,0,0,33,47,1033,['n'],1,right,['1'],6,420,[-0.093879],79,47,medium,minus,dotcolour,alfa,,,77,20,M,R,
18,18,18,0,0,27,53,632,['n'],1,right,['2'],5,443,[-0.07742344],74,53,easy,minus,dotcolour,alfa,,,77,20,M,R,
19,19,19,0,0,47,33,830,['c'],1,left,['3'],4,681,[-0.05720813],35,47,medium,minus,dotcolour,alfa,,,77,20,M,R,
20,20,20,0,0,36,44,866,['n'],1,right,['3'],4,756,[-0.10462989],75,44,hard,minus,dotcolour,alfa,,,77,20,M,R,
21,21,21,0,0,53,27,832,['c'],1,left,['3'],4,574,[0.22288659],93,53,easy,minus,dotcolour,alfa,,,77,20,M,R,
22,22,22,0,0,36,44,816,['c'],0,right,['2'],5,519,[0.07263541],71,44,hard,minus,dotcolour,alfa,,,77,20,M,R,
23,23,23,0,0,36,44,598,['n'],1,right,['2'],5,491,[-0.0391831],62,44,hard,minus,dotcolour,alfa,,,77,20,M,R,
24,24,24,0,0,44,36,964,['c'],1,left,['3'],4,306,[0.01291062],55,44,hard,minus,dotcolour,alfa,,,77,20,M,R,
25,25,25,0,0,27,53,999,['n'],1,right,['3'],4,230,[-0.06729506],78,53,easy,minus,dotcolour,alfa,,,77,20,M,R,
26,26,26,0,0,33,47,982,['n'],1,right,['2'],5,319,[-0.1069964],85,47,medium,minus,dotcolour,alfa,,,77,20,M,R,
27,27,27,0,0,47,33,915,['n'],0,left,['1'],6,39,[-0.08679795],98,47,medium,minus,dotcolour,alfa,,,77,20,M,R,
28,28,28,0,0,44,36,849,['c'],1,left,['1'],6,173,[0.11337857],92,44,hard,minus,dotcolour,alfa,,,77,20,M,R,
29,29,29,0,0,36,44,648,['n'],1,right,['2'],5,237,[-0.10347942],87,44,hard,minus,dotcolour,alfa,,,77,20,M,R,
30,30,30,0,0,44,36,1066,['c'],1,left,['2'],5,291,[0.1795427],95,44,hard,minus,dotcolour,alfa,,,77,20,M,R,
31,31,31,0,0,47,33,582,['c'],1,left,['2'],5,209,[0.02810404],63,47,medium,minus,dotcolour,alfa,,,77,20,M,R,
32,32,32,0,0,44,36,832,['c'],1,left,['1'],6,144,[0.03611374],70,44,hard,minus,dotcolour,alfa,,,77,20,M,R,
33,33,33,0,0,44,36,864,['c'],1,left,['3'],4,1025,[-0.10587611],28,44,hard,minus,dotcolour,alfa,,,77,20,M,R,
34,34,34,0,0,33,47,1100,['n'],1,right,['2'],5,149,[-0.06995599],84,47,medium,minus,dotcolour,alfa,,,77,20,M,R,
35,35,35,0,0,36,44,698,['n'],1,right,['2'],5,252,[-0.05664233],73,44,hard,minus,dotcolour,alfa,,,77,20,M,R,
36,36,36,0,0,27,53,915,['n'],1,right,['1'],6,102,[-0.06348735],86,53,easy,minus,dotcolour,alfa,,,77,20,M,R,
37,37,37,0,0,53,27,1397,['c'],1,left,['3'],4,708,[0.29856357],96,53,easy,minus,dotcolour,alfa,,,77,20,M,R,
38,38,38,0,0,53,27,1349,['n'],0,left,['8'],3,459,[0.01225237],46,53,easy,minus,dotcolour,alfa,,,77,20,M,R,
39,39,39,0,0,53,27,933,['c'],1,left,['1'],6,172,[0.09599052],89,53,easy,minus,dotcolour,alfa,,,77,20,M,R,
40,40,40,0,0,33,47,1963,['n'],1,right,['2'],5,520,[-0.16176658],88,47,medium,minus,dotcolour,alfa,,,77,20,M,R,
41,41,41,0,0,53,27,948,['c'],1,left,['1'],6,135,[0.07744933],87,53,easy,minus,dotcolour,alfa,,,77,20,M,R,
42,42,0,1,0,44,36,2133,['n'],0,left,['1'],6,201,[-0.09591821],87,44,hard,minus,dotcolour,alfa,,,77,20,M,R,
43,43,1,1,0,33,47,598,['n'],1,right,['1'],6,210,[-0.08497729],84,47,medium,minus,dotcolour,alfa,,,77,20,M,R,
44,44,2,1,0,27,53,698,['n'],1,right,['1'],6,135,[-0.08904395],90,53,easy,minus,dotcolour,alfa,,,77,20,M,R,
45,45,3,1,0,47,33,1014,['c'],1,left,['8'],3,418,[0.11226774],83,47,medium,minus,dotcolour,alfa,,,77,20,M,R,
46,46,4,1,0,44,36,1248,['c'],1,left,['3'],4,553,[0.05269486],65,44,hard,minus,dotcolour,alfa,,,77,20,M,R,
47,47,5,1,0,44,36,731,['n'],0,left,['8'],3,927,[0.02403228],44,44,hard,minus,dotcolour,alfa,,,77,20,M,R,
48,48,6,1,0,33,47,1083,['n'],1,right,['1'],6,151,[-0.0803566],87,47,medium,minus,dotcolour,alfa,,,77,20,M,R,
49,49,7,1,0,33,47,898,['n'],1,right,['1'],6,318,[-0.03876173],65,47,medium,minus,dotcolour,alfa,,,77,20,M,R,
50,50,8,1,0,27,53,1000,['n'],1,right,['1'],6,195,[-0.07457776],82,53,easy,minus,dotcolour,alfa,,,77,20,M,R,
51,51,9,1,0,27,53,982,['n'],1,right,['2'],5,781,[-0.24352561],92,53,easy,minus,dotcolour,alfa,,,77,20,M,R,
52,52,10,1,0,44,36,916,['n'],0,left,['2'],5,202,[-0.18062233],97,44,hard,minus,dotcolour,alfa,,,77,20,M,R,
53,53,11,1,0,47,33,949,['c'],1,left,['8'],3,453,[0.16386859],90,47,medium,minus,dotcolour,alfa,,,77,20,M,R,
54,54,12,1,0,53,27,1431,['c'],1,left,['3'],4,979,[0.31816364],95,53,easy,minus,dotcolour,alfa,,,77,20,M,R,
55,55,13,1,0,33,47,1401,['n'],1,right,['1'],6,206,[-0.02442328],62,47,medium,minus,dotcolour,alfa,,,77,20,M,R,
56,56,14,1,0,33,47,1517,['n'],1,right,['2'],5,666,[-0.11530959],78,47,medium,minus,dotcolour,alfa,,,77,20,M,R,
57,57,15,1,0,47,33,932,['c'],1,left,['1'],6,259,[0.0966571],85,47,medium,minus,dotcolour,alfa,,,77,20,M,R,
58,58,16,1,0,53,27,799,['c'],1,left,['2'],5,786,[0.3338159],97,53,easy,minus,dotcolour,alfa,,,77,20,M,R,
59,59,17,1,0,47,33,749,['c'],1,left,['2'],5,637,[0.10647967],77,47,medium,minus,dotcolour,alfa,,,77,20,M,R,
60,60,18,1,0,36,44,749,['n'],1,right,['3'],4,623,[-0.14294344],84,44,hard,minus,dotcolour,alfa,,,77,20,M,R,
61,61,19,1,0,36,44,750,['n'],1,right,['1'],6,248,[-0.1042309],87,44,hard,minus,dotcolour,alfa,,,77,20,M,R,
62,62,20,1,0,27,53,830,['n'],1,right,['1'],6,190,[-0.15389902],96,53,easy,minus,dotcolour,alfa,,,77,20,M,R,
63,63,21,1,0,36,44,549,['n'],1,right,['1'],6,147,[-0.02463673],64,44,hard,minus,dotcolour,alfa,,,77,20,M,R,
64,64,22,1,0,27,53,581,['n'],1,right,['1'],6,127,[-0.12227102],96,53,easy,minus,dotcolour,alfa,,,77,20,M,R,
65,65,23,1,0,33,47,731,['n'],1,right,['2'],5,293,[-0.10530686],85,47,medium,minus,dotcolour,alfa,,,77,20,M,R,
66,66,24,1,0,53,27,532,['c'],1,left,['2'],5,325,[0.06571034],74,53,easy,minus,dotcolour,alfa,,,77,20,M,R,
67,67,25,1,0,47,33,931,['c'],1,left,['2'],5,348,[0.15625383],92,47,medium,minus,dotcolour,alfa,,,77,20,M,R,
68,68,26,1,0,33,47,1381,['n'],1,right,['3'],4,600,[-0.16802447],88,47,medium,minus,dotcolour,alfa,,,77,20,M,R,
69,69,27,1,0,44,36,1449,['c'],1,left,['3'],4,248,[0.08052218],81,44,hard,minus,dotcolour,alfa,,,77,20,M,R,
70,70,28,1,0,53,27,1066,['c'],1,left,['2'],5,300,[0.12591268],89,53,easy,minus,dotcolour,alfa,,,77,20,M,R,
71,71,29,1,0,44,36,1215,['c'],1,left,['2'],5,161,[0.08985413],88,44,hard,minus,dotcolour,alfa,,,77,20,M,R,
72,72,30,1,0,44,36,832,['c'],1,left,['2'],5,138,[0.14016416],97,44,hard,minus,dotcolour,alfa,,,77,20,M,R,
73,73,31,1,0,36,44,1549,['n'],1,right,['8'],3,184,[-0.07418452],83,44,hard,minus,dotcolour,alfa,,,77,20,M,R,
74,74,32,1,0,47,33,1430,['c'],1,left,['2'],5,392,[0.0318123],61,47,medium,minus,dotcolour,alfa,,,77,20,M,R,
75,75,33,1,0,53,27,1165,['c'],1,left,['1'],6,283,[0.15166116],93,53,easy,minus,dotcolour,alfa,,,77,20,M,R,
76,76,34,1,0,36,44,1248,['c'],0,right,['3'],4,487,[0.0966303],78,44,hard,minus,dotcolour,alfa,,,77,20,M,R,
77,77,35,1,0,27,53,1032,['c'],0,right,['2'],5,260,[0.06864718],77,53,easy,minus,dotcolour,alfa,,,77,20,M,R,
78,78,36,1,0,27,53,1284,['n'],1,right,['2'],5,311,[-0.04153395],66,53,easy,minus,dotcolour,alfa,,,77,20,M,R,
79,79,37,1,0,36,44,964,['n'],1,right,['2'],5,301,[-0.00044006],50,44,hard,minus,dotcolour,alfa,,,77,20,M,R,
80,80,38,1,0,53,27,1549,['c'],1,left,['3'],4,549,[0.17371776],89,53,easy,minus,dotcolour,alfa,,,77,20,M,R,
81,81,39,1,0,53,27,948,['c'],1,left,['3'],4,242,[0.11408031],89,53,easy,minus,dotcolour,alfa,,,77,20,M,R,
82,82,40,1,0,36,44,731,['c'],0,right,['1'],6,340,[0.04808689],68,44,hard,minus,dotcolour,alfa,,,77,20,M,R,
83,83,41,1,0,47,33,550,['c'],1,left,['1'],6,273,[0.04643882],69,47,medium,minus,dotcolour,alfa,,,77,20,M,R,
84,84,0,2,0,27,53,900,['n'],1,right,['1'],6,276,[-0.07119206],77,53,easy,minus,dotcolour,alfa,,,77,20,M,R,
85,85,1,2,0,33,47,564,['n'],1,right,['1'],6,115,[-0.04458641],77,47,medium,minus,dotcolour,alfa,,,77,20,M,R,
86,86,2,2,0,44,36,1098,['c'],1,left,['8'],3,572,[0.27944136],97,44,hard,minus,dotcolour,alfa,,,77,20,M,R,
87,87,3,2,0,33,47,1648,['n'],1,right,['2'],5,852,[-0.02612606],56,47,medium,minus,dotcolour,alfa,,,77,20,M,R,
88,88,4,2,0,36,44,1065,['n'],1,right,['8'],3,600,[-0.06356211],68,44,hard,minus,dotcolour,alfa,,,77,20,M,R,
89,89,5,2,0,53,27,915,['c'],1,left,['1'],6,228,[0.11483022],90,53,easy,minus,dotcolour,alfa,,,77,20,M,R,
90,90,6,2,0,47,33,698,['c'],1,left,['1'],6,137,[0.13922342],97,47,medium,minus,dotcolour,alfa,,,77,20,M,R,
91,91,7,2,0,44,36,1550,['c'],1,left,['2'],5,78,[0.13456696],99,44,hard,minus,dotcolour,alfa,,,77,20,M,R,
92,92,8,2,0,36,44,850,['n'],1,right,['2'],5,579,[-0.08894336],74,44,hard,minus,dotcolour,alfa,,,77,20,M,R,
93,93,9,2,0,27,53,715,['n'],1,right,['2'],5,616,[-0.13295175],82,53,easy,minus,dotcolour,alfa,,,77,20,M,R,
94,94,10,2,0,44,36,766,['n'],0,left,['1'],6,106,[-0.09198914],93,44,hard,minus,dotcolour,alfa,,,77,20,M,R,
95,95,11,2,0,33,47,1331,['n'],1,right,['2'],5,105,[-0.08518754],91,47,medium,minus,dotcolour,alfa,,,77,20,M,R,
96,96,12,2,0,27,53,548,['n'],1,right,['1'],6,128,[-0.13468516],97,53,easy,minus,dotcolour,alfa,,,77,20,M,R,
97,97,13,2,0,53,27,1016,['c'],1,left,['1'],6,91,[0.102672],96,53,easy,minus,dotcolour,alfa,,,77,20,M,R,
98,98,14,2,0,44,36,1233,['c'],1,left,['3'],4,608,[0.14886548],85,44,hard,minus,dotcolour,alfa,,,77,20,M,R,
99,99,15,2,0,33,47,765,['n'],1,right,['1'],6,130,[-0.09318515],91,47,medium,minus,dotcolour,alfa,,,77,20,M,R,
100,100,16,2,0,47,33,2013,['n'],0,left,['3'],4,245,[-0.06416413],76,47,medium,minus,dotcolour,alfa,,,77,20,M,R,
101,101,17,2,0,36,44,783,['n'],1,right,['3'],4,333,[-0.12485998],88,44,hard,minus,dotcolour,alfa,,,77,20,M,R,
102,102,18,2,0,47,33,563,['c'],1,left,['1'],6,138,[0.06535824],83,47,medium,minus,dotcolour,alfa,,,77,20,M,R,
103,103,19,2,0,36,44,532,['n'],1,right,['2'],5,353,[-0.12993149],88,44,hard,minus,dotcolour,alfa,,,77,20,M,R,
104,104,20,2,0,53,27,848,['c'],1,left,['1'],6,58,[0.09557924],97,53,easy,minus,dotcolour,alfa,,,77,20,M,R,
105,105,21,2,0,27,53,715,['c'],0,right,['0'],1,1332,[-0.07149224],36,53,easy,minus,dotcolour,alfa,,,77,20,M,R,
106,106,22,2,0,44,36,932,['n'],0,left,['1'],6,218,[-0.10236029],88,44,hard,minus,dotcolour,alfa,,,77,20,M,R,
107,107,23,2,0,47,33,866,['c'],1,left,['2'],5,488,[0.19241544],92,47,medium,minus,dotcolour,alfa,,,77,20,M,R,
108,108,24,2,0,27,53,1283,['n'],1,right,['2'],5,434,[-0.21394941],95,53,easy,minus,dotcolour,alfa,,,77,20,M,R,
109,109,25,2,0,36,44,815,['c'],0,right,['1'],6,162,[-0.01916898],39,44,hard,minus,dotcolour,alfa,,,77,20,M,R,
110,110,26,2,0,53,27,780,['c'],1,left,['1'],6,85,[0.09176103],94,53,easy,minus,dotcolour,alfa,,,77,20,M,R,
111,111,27,2,0,36,44,1096,['n'],1,right,['2'],5,199,[-0.08287452],84,44,hard,minus,dotcolour,alfa,,,77,20,M,R,
112,112,28,2,0,53,27,1031,['c'],1,left,['2'],5,231,[0.15420599],95,53,easy,minus,dotcolour,alfa,,,77,20,M,R,
113,113,29,2,0,53,27,849,['c'],1,left,['1'],6,165,[0.13143432],95,53,easy,minus,dotcolour,alfa,,,77,20,M,R,
114,114,30,2,0,33,47,665,['n'],1,right,['1'],6,133,[-0.09823637],92,47,medium,minus,dotcolour,alfa,,,77,20,M,R,
115,115,31,2,0,27,53,1083,['n'],1,right,['1'],6,110,[-0.16033811],99,53,easy,minus,dotcolour,alfa,,,77,20,M,R,
116,116,32,2,0,47,33,815,['c'],1,left,['1'],6,154,[0.05814735],79,47,medium,minus,dotcolour,alfa,,,77,20,M,R,
117,117,33,2,0,53,27,1149,['c'],1,left,['2'],5,199,[0.05499902],75,53,easy,minus,dotcolour,alfa,,,77,20,M,R,
118,118,34,2,0,44,36,782,['n'],0,left,['2'],5,352,[-0.0477151],67,44,hard,minus,dotcolour,alfa,,,77,20,M,R,
119,119,35,2,0,33,47,882,['n'],1,right,['1'],6,120,[-0.10131791],93,47,medium,minus,dotcolour,alfa,,,77,20,M,R,
120,120,36,2,0,36,44,1533,['c'],0,right,['3'],4,847,[0.17760203],85,44,hard,minus,dotcolour,alfa,,,77,20,M,R,
121,121,37,2,0,33,47,700,['n'],1,right,['3'],4,346,[-0.13944756],89,47,medium,minus,dotcolour,alfa,,,77,20,M,R,
122,122,38,2,0,47,33,815,['c'],1,left,['1'],6,237,[0.11455435],89,47,medium,minus,dotcolour,alfa,,,77,20,M,R,
123,123,39,2,0,47,33,865,['c'],1,left,['1'],6,153,[0.10661109],92,47,medium,minus,dotcolour,alfa,,,77,20,M,R,
124,124,40,2,0,44,36,1516,['c'],1,left,['2'],5,560,[0.1368183],84,44,hard,minus,dotcolour,alfa,,,77,20,M,R,
125,125,41,2,0,27,53,649,['n'],1,right,['1'],6,304,[-0.22051831],97,53,easy,minus,dotcolour,alfa,,,77,20,M,R,
126,0,0,3,1,47,33,1150,['n'],0,left,['2'],5,365,[0.05385901],4,47,medium,plus,dotcolour,alfa,,,77,20,M,R,
127,1,1,3,1,53,27,631,['c'],1,left,['1'],6,262,[0.15831565],100,53,easy,plus,dotcolour,alfa,,,77,20,M,R,
128,2,2,3,1,44,36,1549,['n'],0,left,['3'],4,471,[-0.04309425],91,44,hard,plus,dotcolour,alfa,,,77,20,M,R,
129,3,3,3,1,44,36,1015,['n'],0,left,['3'],4,189,[-0.12469512],100,44,hard,plus,dotcolour,alfa,,,77,20,M,R,
130,4,4,3,1,44,36,1448,['n'],0,left,['2'],5,532,[0.08191557],2,44,hard,plus,dotcolour,alfa,,,77,20,M,R,
131,5,5,3,1,36,44,1617,['c'],0,right,['2'],5,511,[0.10190766],99,44,hard,plus,dotcolour,alfa,,,77,20,M,R,
132,6,6,3,1,44,36,1097,['c'],1,left,['3'],4,375,[0.13948634],100,44,hard,plus,dotcolour,alfa,,,77,20,M,R,
133,7,7,3,1,33,47,1464,['c'],0,right,['2'],5,535,[0.05185879],93,47,medium,plus,dotcolour,alfa,,,77,20,M,R,
134,8,8,3,1,36,44,914,['c'],0,right,['2'],5,822,[-0.09324693],2,44,hard,plus,dotcolour,alfa,,,77,20,M,R,
135,9,9,3,1,47,33,832,['c'],1,left,['1'],6,140,[0.06759008],100,47,medium,plus,dotcolour,alfa,,,77,20,M,R,
136,10,10,3,1,36,44,1066,['n'],1,right,['3'],4,389,[-0.05290967],95,44,hard,plus,dotcolour,alfa,,,77,20,M,R,
137,11,11,3,1,36,44,1217,['c'],0,right,['2'],5,214,[0.09974719],100,44,hard,plus,dotcolour,alfa,,,77,20,M,R,
138,12,12,3,1,47,33,1096,['c'],1,left,['1'],6,211,[0.09712655],100,47,medium,plus,dotcolour,alfa,,,77,20,M,R,
139,13,13,3,1,47,33,966,['c'],1,left,['2'],5,173,[0.08143619],100,47,medium,plus,dotcolour,alfa,,,77,20,M,R,
140,14,14,3,1,27,53,732,['n'],1,right,['2'],5,266,[-0.14989311],100,53,easy,plus,dotcolour,alfa,,,77,20,M,R,
141,15,15,3,1,47,33,983,['c'],1,left,['3'],4,425,[0.06946509],98,47,medium,plus,dotcolour,alfa,,,77,20,M,R,
142,16,16,3,1,33,47,600,['n'],1,right,['2'],5,313,[-0.08926593],100,47,medium,plus,dotcolour,alfa,,,77,20,M,R,
143,17,17,3,1,47,33,1665,['n'],0,left,['3'],4,371,[-0.008253],62,47,medium,plus,dotcolour,alfa,,,77,20,M,R,
144,18,18,3,1,44,36,867,['c'],1,left,['2'],5,514,[0.15763751],100,44,hard,plus,dotcolour,alfa,,,77,20,M,R,
145,19,19,3,1,36,44,1650,['c'],0,right,['2'],5,277,[0.00814843],64,44,hard,plus,dotcolour,alfa,,,77,20,M,R,
146,20,20,3,1,36,44,1132,['n'],1,right,['8'],3,1861,[0.0317653],30,44,hard,plus,dotcolour,alfa,,,77,20,M,R,
147,21,21,3,1,53,27,1682,['c'],1,left,['1'],6,160,[0.10657846],100,53,easy,plus,dotcolour,alfa,,,77,20,M,R,
148,22,22,3,1,27,53,664,['n'],1,right,['1'],6,120,[-0.09682957],100,53,easy,plus,dotcolour,alfa,,,77,20,M,R,
149,23,23,3,1,44,36,2449,['c'],1,left,['2'],5,259,[0.0612582],99,44,hard,plus,dotcolour,alfa,,,77,20,M,R,
150,24,24,3,1,53,27,950,['c'],1,left,['1'],6,115,[0.16045344],100,53,easy,plus,dotcolour,alfa,,,77,20,M,R,
151,25,25,3,1,44,36,1465,['c'],1,left,['3'],4,341,[0.09767481],100,44,hard,plus,dotcolour,alfa,,,77,20,M,R,
152,26,26,3,1,53,27,915,['c'],1,left,['1'],6,268,[0.05224666],97,53,easy,plus,dotcolour,alfa,,,77,20,M,R,
153,27,27,3,1,53,27,482,['c'],1,left,['1'],6,151,[0.09868954],100,53,easy,plus,dotcolour,alfa,,,77,20,M,R,
154,28,28,3,1,27,53,1032,['n'],1,right,['1'],6,209,[-0.04446409],97,53,easy,plus,dotcolour,alfa,,,77,20,M,R,
155,29,29,3,1,27,53,1249,['n'],1,right,['1'],6,151,[-0.05073152],99,53,easy,plus,dotcolour,alfa,,,77,20,M,R,
156,30,30,3,1,27,53,816,['n'],1,right,['1'],6,114,[-0.13934423],100,53,easy,plus,dotcolour,alfa,,,77,20,M,R,
157,31,31,3,1,27,53,531,['n'],1,right,['1'],6,105,[-0.07262821],100,53,easy,plus,dotcolour,alfa,,,77,20,M,R,
158,32,32,3,1,33,47,782,['n'],1,right,['1'],6,55,[-0.09343816],100,47,medium,plus,dotcolour,alfa,,,77,20,M,R,
159,33,33,3,1,33,47,582,['n'],1,right,['1'],6,95,[-0.10394854],100,47,medium,plus,dotcolour,alfa,,,77,20,M,R,
160,34,34,3,1,53,27,682,['c'],1,left,['1'],6,73,[0.10725157],100,53,easy,plus,dotcolour,alfa,,,77,20,M,R,
161,35,35,3,1,27,53,582,['n'],1,right,['1'],6,216,[-0.11921779],100,53,easy,plus,dotcolour,alfa,,,77,20,M,R,
162,36,36,3,1,53,27,799,['c'],1,left,['1'],6,33,[0.10060362],100,53,easy,plus,dotcolour,alfa,,,77,20,M,R,
163,37,37,3,1,36,44,1232,['c'],0,right,['2'],5,103,[0.026379],95,44,hard,plus,dotcolour,alfa,,,77,20,M,R,
164,38,38,3,1,47,33,633,['n'],0,left,['2'],5,123,[-0.0216839],90,47,medium,plus,dotcolour,alfa,,,77,20,M,R,
165,39,39,3,1,33,47,865,['n'],1,right,['1'],6,301,[-0.08681927],100,47,medium,plus,dotcolour,alfa,,,77,20,M,R,
166,40,40,3,1,33,47,649,['n'],1,right,['1'],6,136,[-0.06745391],100,47,medium,plus,dotcolour,alfa,,,77,20,M,R,
167,41,41,3,1,33,47,1080,['n'],1,right,['2'],5,184,[-0.1347785],100,47,medium,plus,dotcolour,alfa,,,77,20,M,R,
168,42,0,4,1,36,44,649,['c'],0,right,['1'],6,104,[0.0378406],99,44,hard,plus,dotcolour,alfa,,,77,20,M,R,
169,43,1,4,1,33,47,549,['n'],1,right,['1'],6,95,[-0.0699321],100,47,medium,plus,dotcolour,alfa,,,77,20,M,R,
170,44,2,4,1,53,27,682,['c'],1,left,['1'],6,81,[0.03088903],98,53,easy,plus,dotcolour,alfa,,,77,20,M,R,
171,45,3,4,1,36,44,1149,['n'],1,right,['3'],4,225,[-0.17804224],100,44,hard,plus,dotcolour,alfa,,,77,20,M,R,
172,46,4,4,1,44,36,949,['c'],1,left,['2'],5,299,[0.03834627],93,44,hard,plus,dotcolour,alfa,,,77,20,M,R,
173,47,5,4,1,53,27,1149,['c'],1,left,['1'],6,187,[0.14317672],100,53,easy,plus,dotcolour,alfa,,,77,20,M,R,
174,48,6,4,1,44,36,1032,['n'],0,left,['3'],4,803,[-0.05998728],92,44,hard,plus,dotcolour,alfa,,,77,20,M,R,
175,49,7,4,1,47,33,932,['c'],1,left,['2'],5,1470,[0.1578052],99,47,medium,plus,dotcolour,alfa,,,77,20,M,R,
176,50,8,4,1,36,44,1549,['n'],1,right,['3'],4,510,[-0.2799214],100,44,hard,plus,dotcolour,alfa,,,77,20,M,R,
177,51,9,4,1,33,47,1081,['n'],1,right,['3'],4,1456,[-0.22409437],100,47,medium,plus,dotcolour,alfa,,,77,20,M,R,
178,52,10,4,1,27,53,1365,['n'],1,right,['1'],6,87,[-0.10106779],100,53,easy,plus,dotcolour,alfa,,,77,20,M,R,
179,53,11,4,1,47,33,1764,['n'],0,left,['8'],3,542,[-0.05048931],92,47,medium,plus,dotcolour,alfa,,,77,20,M,R,
180,54,12,4,1,36,44,1181,['n'],1,right,['1'],6,67,[-0.08000128],100,44,hard,plus,dotcolour,alfa,,,77,20,M,R,
181,55,13,4,1,53,27,949,['c'],1,left,['1'],6,59,[0.06318933],100,53,easy,plus,dotcolour,alfa,,,77,20,M,R,
182,56,14,4,1,33,47,615,['n'],1,right,['2'],5,273,[-0.03937924],94,47,medium,plus,dotcolour,alfa,,,77,20,M,R,
183,57,15,4,1,47,33,816,['c'],1,left,['1'],6,286,[0.079374],100,47,medium,plus,dotcolour,alfa,,,77,20,M,R,
184,58,16,4,1,27,53,849,['n'],1,right,['2'],5,242,[-0.11308125],100,53,easy,plus,dotcolour,alfa,,,77,20,M,R,
185,59,17,4,1,33,47,2448,['c'],0,right,['8'],3,464,[-0.03436937],14,47,medium,plus,dotcolour,alfa,,,77,20,M,R,
186,60,18,4,1,36,44,1566,['c'],0,right,['3'],4,311,[0.07976712],99,44,hard,plus,dotcolour,alfa,,,77,20,M,R,
187,61,19,4,1,47,33,1132,['c'],1,left,['2'],5,327,[0.17481291],100,47,medium,plus,dotcolour,alfa,,,77,20,M,R,
188,62,20,4,1,44,36,949,['n'],0,left,['2'],5,125,[-0.13313079],100,44,hard,plus,dotcolour,alfa,,,77,20,M,R,
189,63,21,4,1,33,47,848,['n'],1,right,['3'],4,182,[-0.04575914],98,47,medium,plus,dotcolour,alfa,,,77,20,M,R,
190,64,22,4,1,36,44,1214,['n'],1,right,['2'],5,280,[-0.17709065],100,44,hard,plus,dotcolour,alfa,,,77,20,M,R,
191,65,23,4,1,47,33,934,['c'],1,left,['2'],5,184,[0.0711612],100,47,medium,plus,dotcolour,alfa,,,77,20,M,R,
192,66,24,4,1,53,27,881,['c'],1,left,['2'],5,231,[0.2049902],100,53,easy,plus,dotcolour,alfa,,,77,20,M,R,
193,67,25,4,1,53,27,617,['c'],1,left,['1'],6,94,[0.12889968],100,53,easy,plus,dotcolour,alfa,,,77,20,M,R,
194,68,26,4,1,27,53,498,['n'],1,right,['1'],6,104,[-0.10220747],100,53,easy,plus,dotcolour,alfa,,,77,20,M,R,
195,69,27,4,1,44,36,848,['c'],1,left,['3'],4,691,[0.18234251],100,44,hard,plus,dotcolour,alfa,,,77,20,M,R,
196,70,28,4,1,53,27,1064,['c'],1,left,['2'],5,270,[0.13992384],100,53,easy,plus,dotcolour,alfa,,,77,20,M,R,
197,71,29,4,1,27,53,583,['n'],1,right,['1'],6,165,[-0.15773783],100,53,easy,plus,dotcolour,alfa,,,77,20,M,R,
198,72,30,4,1,53,27,1414,['c'],1,left,['2'],5,214,[0.10441657],100,53,easy,plus,dotcolour,alfa,,,77,20,M,R,
199,73,31,4,1,33,47,733,['n'],1,right,['2'],5,170,[-0.02496383],90,47,medium,plus,dotcolour,alfa,,,77,20,M,R,
200,74,32,4,1,27,53,1232,['n'],1,right,['1'],6,163,[-0.11290061],100,53,easy,plus,dotcolour,alfa,,,77,20,M,R,
201,75,33,4,1,47,33,1399,['c'],1,left,['2'],5,38,[0.09566686],100,47,medium,plus,dotcolour,alfa,,,77,20,M,R,
202,76,34,4,1,27,53,599,['n'],1,right,['1'],6,93,[-0.04317771],99,53,easy,plus,dotcolour,alfa,,,77,20,M,R,
203,77,35,4,1,47,33,765,['c'],1,left,['2'],5,212,[0.0681558],100,47,medium,plus,dotcolour,alfa,,,77,20,M,R,
204,78,36,4,1,33,47,848,['n'],1,right,['3'],4,195,[-0.0934252],100,47,medium,plus,dotcolour,alfa,,,77,20,M,R,
205,79,37,4,1,44,36,1366,['c'],1,left,['2'],5,206,[0.11387103],100,44,hard,plus,dotcolour,alfa,,,77,20,M,R,
206,80,38,4,1,44,36,698,['n'],0,left,['1'],6,123,[-0.03570855],98,44,hard,plus,dotcolour,alfa,,,77,20,M,R,
207,81,39,4,1,36,44,1649,['n'],1,right,['3'],4,557,[-0.19987735],100,44,hard,plus,dotcolour,alfa,,,77,20,M,R,
208,82,40,4,1,44,36,1351,['c'],1,left,['2'],5,330,[0.09831585],100,44,hard,plus,dotcolour,alfa,,,77,20,M,R,
209,83,41,4,1,27,53,716,['n'],1,right,['2'],5,193,[-0.17807839],100,53,easy,plus,dotcolour,alfa,,,77,20,M,R,
210,84,0,5,1,27,53,750,['n'],1,right,['1'],6,284,[-0.02151013],81,53,easy,plus,dotcolour,alfa,,,77,20,M,R,
211,85,1,5,1,44,36,1199,['c'],1,left,['3'],4,386,[0.05699342],96,44,hard,plus,dotcolour,alfa,,,77,20,M,R,
212,86,2,5,1,53,27,915,['c'],1,left,['3'],4,2111,[0.44700597],100,53,easy,plus,dotcolour,alfa,,,77,20,M,R,
213,87,3,5,1,53,27,1015,['c'],1,left,['3'],4,194,[0.14553936],100,53,easy,plus,dotcolour,alfa,,,77,20,M,R,
214,88,4,5,1,53,27,1148,['c'],1,left,['2'],5,109,[0.1148018],100,53,easy,plus,dotcolour,alfa,,,77,20,M,R,
215,89,5,5,1,47,33,713,['c'],1,left,['1'],6,253,[0.17020277],100,47,medium,plus,dotcolour,alfa,,,77,20,M,R,
216,90,6,5,1,33,47,865,['n'],1,right,['3'],4,210,[-0.09564187],100,47,medium,plus,dotcolour,alfa,,,77,20,M,R,
217,91,7,5,1,47,33,1064,['c'],1,left,['3'],4,112,[0.07216497],100,47,medium,plus,dotcolour,alfa,,,77,20,M,R,
218,92,8,5,1,33,47,815,['n'],1,right,['2'],5,108,[-0.09532252],100,47,medium,plus,dotcolour,alfa,,,77,20,M,R,
219,93,9,5,1,36,44,1449,['c'],0,right,['3'],4,199,[0.03255013],93,44,hard,plus,dotcolour,alfa,,,77,20,M,R,
220,94,10,5,1,33,47,749,['n'],1,right,['3'],4,234,[-0.12341137],100,47,medium,plus,dotcolour,alfa,,,77,20,M,R,
221,95,11,5,1,47,33,949,['c'],1,left,['2'],5,44,[0.08695024],100,47,medium,plus,dotcolour,alfa,,,77,20,M,R,
222,96,12,5,1,33,47,1382,['n'],1,right,['2'],5,124,[-0.13880274],100,47,medium,plus,dotcolour,alfa,,,77,20,M,R,
223,97,13,5,1,33,47,1599,['n'],1,right,['3'],4,232,[-0.08417437],100,47,medium,plus,dotcolour,alfa,,,77,20,M,R,
224,98,14,5,1,47,33,1365,['c'],1,left,['3'],4,433,[0.1871721],100,47,medium,plus,dotcolour,alfa,,,77,20,M,R,
225,99,15,5,1,47,33,1065,['c'],1,left,['2'],5,382,[0.14836033],100,47,medium,plus,dotcolour,alfa,,,77,20,M,R,
226,100,16,5,1,44,36,2313,['n'],0,left,['3'],4,972,[0.03043319],25,44,hard,plus,dotcolour,alfa,,,77,20,M,R,
227,101,17,5,1,36,44,1566,['n'],1,right,['3'],4,151,[0.02140118],12,44,hard,plus,dotcolour,alfa,,,77,20,M,R,
228,102,18,5,1,53,27,1632,['c'],1,left,['2'],5,217,[0.1276424],100,53,easy,plus,dotcolour,alfa,,,77,20,M,R,
229,103,19,5,1,44,36,767,['n'],0,left,['3'],4,195,[-0.1418375],100,44,hard,plus,dotcolour,alfa,,,77,20,M,R,
230,104,20,5,1,53,27,916,['c'],1,left,['2'],5,288,[0.18481599],100,53,easy,plus,dotcolour,alfa,,,77,20,M,R,
231,105,21,5,1,36,44,581,['n'],1,right,['3'],4,222,[-0.12340598],100,44,hard,plus,dotcolour,alfa,,,77,20,M,R,
232,106,22,5,1,47,33,1182,['n'],0,left,['2'],5,255,[-0.04477038],96,47,medium,plus,dotcolour,alfa,,,77,20,M,R,
233,107,23,5,1,27,53,665,['n'],1,right,['2'],5,163,[-0.02638541],91,53,easy,plus,dotcolour,alfa,,,77,20,M,R,
234,108,24,5,1,27,53,547,['n'],1,right,['2'],5,103,[-0.13356419],100,53,easy,plus,dotcolour,alfa,,,77,20,M,R,
235,109,25,5,1,27,53,467,['n'],1,right,['1'],6,82,[-0.06497],100,53,easy,plus,dotcolour,alfa,,,77,20,M,R,
236,110,26,5,1,33,47,482,['n'],1,right,['1'],6,197,[-0.08110412],100,47,medium,plus,dotcolour,alfa,,,77,20,M,R,
237,111,27,5,1,44,36,949,['n'],0,left,['3'],4,88,[-0.06152307],100,44,hard,plus,dotcolour,alfa,,,77,20,M,R,
238,112,28,5,1,44,36,1017,['c'],1,left,['3'],4,77,[0.1129162],100,44,hard,plus,dotcolour,alfa,,,77,20,M,R,
239,113,29,5,1,36,44,1298,['n'],1,right,['2'],5,103,[-0.0939865],100,44,hard,plus,dotcolour,alfa,,,77,20,M,R,
240,114,30,5,1,27,53,565,['n'],1,right,['1'],6,270,[-0.07124339],99,53,easy,plus,dotcolour,alfa,,,77,20,M,R,
241,115,31,5,1,53,27,733,['c'],1,left,['2'],5,327,[0.09883236],100,53,easy,plus,dotcolour,alfa,,,77,20,M,R,
242,116,32,5,1,36,44,865,['n'],1,right,['2'],5,241,[-0.10567756],100,44,hard,plus,dotcolour,alfa,,,77,20,M,R,
243,117,33,5,1,27,53,715,['n'],1,right,['1'],6,155,[-0.07432858],100,53,easy,plus,dotcolour,alfa,,,77,20,M,R,
244,118,34,5,1,44,36,1798,['n'],0,left,['3'],4,190,[-0.06569265],100,44,hard,plus,dotcolour,alfa,,,77,20,M,R,
245,119,35,5,1,27,53,782,['n'],1,right,['2'],5,145,[-0.11603121],100,53,easy,plus,dotcolour,alfa,,,77,20,M,R,
246,120,36,5,1,47,33,1466,['c'],1,left,['1'],6,201,[0.08873356],100,47,medium,plus,dotcolour,alfa,,,77,20,M,R,
247,121,37,5,1,33,47,782,['n'],1,right,['2'],5,139,[-0.08099293],100,47,medium,plus,dotcolour,alfa,,,77,20,M,R,
248,122,38,5,1,53,27,983,['c'],1,left,['1'],6,143,[0.08144877],100,53,easy,plus,dotcolour,alfa,,,77,20,M,R,
249,123,39,5,1,36,44,615,['n'],1,right,['2'],5,258,[-0.07021375],99,44,hard,plus,dotcolour,alfa,,,77,20,M,R,
250,124,40,5,1,44,36,948,['c'],1,left,['2'],5,195,[0.10701855],100,44,hard,plus,dotcolour,alfa,,,77,20,M,R,
251,125,41,5,1,36,44,1448,['c'],0,right,['3'],4,138,[0.13573413],100,44,hard,plus,dotcolour,alfa,,,77,20,M,R,
252,0,0,6,2,44,36,1383,['c'],1,left,['2'],5,285,[-0.00599181],47,44,hard,minus,dotcolour,alfa,,,77,20,M,R,
253,1,1,6,2,44,36,983,['c'],1,left,['2'],5,155,[0.09161057],89,44,hard,minus,dotcolour,alfa,,,77,20,M,R,
254,2,2,6,2,44,36,1132,['c'],1,left,['2'],5,113,[0.05457687],81,44,hard,minus,dotcolour,alfa,,,77,20,M,R,
255,3,3,6,2,27,53,733,['n'],1,right,['1'],6,97,[-0.10320541],95,53,easy,minus,dotcolour,alfa,,,77,20,M,R,
256,4,4,6,2,33,47,1382,['c'],0,right,['3'],4,127,[0.10279812],93,47,medium,minus,dotcolour,alfa,,,77,20,M,R,
257,5,5,6,2,27,53,1100,['n'],1,right,['8'],3,223,[-0.04240326],69,53,easy,minus,dotcolour,alfa,,,77,20,M,R,
258,6,6,6,2,47,33,849,['c'],1,left,['2'],5,181,[0.13994737],95,47,medium,minus,dotcolour,alfa,,,77,20,M,R,
259,7,7,6,2,33,47,815,['n'],1,right,['1'],6,126,[-0.06303717],83,47,medium,minus,dotcolour,alfa,,,77,20,M,R,
260,8,8,6,2,44,36,882,['c'],1,left,['3'],4,503,[0.03387701],61,44,hard,minus,dotcolour,alfa,,,77,20,M,R,
261,9,9,6,2,53,27,1348,['c'],1,left,['1'],6,165,[0.11766172],93,53,easy,minus,dotcolour,alfa,,,77,20,M,R,
262,10,10,6,2,36,44,1448,['n'],1,right,['3'],4,286,[0.04308659],33,44,hard,minus,dotcolour,alfa,,,77,20,M,R,
263,11,11,6,2,27,53,749,['n'],1,right,['2'],5,653,[-0.27415045],95,53,easy,minus,dotcolour,alfa,,,77,20,M,R,
264,12,12,6,2,36,44,2415,['c'],0,right,['3'],4,244,[0.12358469],90,44,hard,minus,dotcolour,alfa,,,77,20,M,R,
265,13,13,6,2,53,27,899,['c'],1,left,['2'],5,175,[0.1037769],90,53,easy,minus,dotcolour,alfa,,,77,20,M,R,
266,14,14,6,2,44,36,1015,['c'],1,left,['2'],5,200,[0.12159597],92,44,hard,minus,dotcolour,alfa,,,77,20,M,R,
267,15,15,6,2,36,44,949,['n'],1,right,['3'],4,196,[-0.01881348],59,44,hard,minus,dotcolour,alfa,,,77,20,M,R,
268,16,16,6,2,53,27,682,['c'],1,left,['2'],5,218,[0.11905539],91,53,easy,minus,dotcolour,alfa,,,77,20,M,R,
269,17,17,6,2,53,27,698,['c'],1,left,['2'],5,127,[0.11234667],94,53,easy,minus,dotcolour,alfa,,,77,20,M,R,
270,18,18,6,2,33,47,747,['n'],1,right,['2'],5,196,[-0.15659135],96,47,medium,minus,dotcolour,alfa,,,77,20,M,R,
271,19,19,6,2,47,33,864,['c'],1,left,['1'],6,115,[0.03234977],70,47,medium,minus,dotcolour,alfa,,,77,20,M,R,
272,20,20,6,2,36,44,682,['c'],0,right,['1'],6,173,[0.11092189],92,44,hard,minus,dotcolour,alfa,,,77,20,M,R,
273,21,21,6,2,47,33,1648,['n'],0,left,['8'],3,205,[-0.0514645],74,47,medium,minus,dotcolour,alfa,,,77,20,M,R,
274,22,22,6,2,36,44,1231,['c'],0,right,['1'],6,1260,[-0.01204028],48,44,hard,minus,dotcolour,alfa,,,77,20,M,R,
275,23,23,6,2,47,33,898,['c'],1,left,['1'],6,118,[0.06371559],84,47,medium,minus,dotcolour,alfa,,,77,20,M,R,
276,24,24,6,2,33,47,783,['n'],1,right,['2'],5,123,[-0.08913623],91,47,medium,minus,dotcolour,alfa,,,77,20,M,R,
277,25,25,6,2,44,36,1033,['n'],0,left,['3'],4,142,[-0.00628032],54,44,hard,minus,dotcolour,alfa,,,77,20,M,R,
278,26,26,6,2,47,33,731,['c'],1,left,['2'],5,236,[0.14284649],93,47,medium,minus,dotcolour,alfa,,,77,20,M,R,
279,27,27,6,2,27,53,849,['n'],1,right,['1'],6,145,[-0.13534122],96,53,easy,minus,dotcolour,alfa,,,77,20,M,R,
280,28,28,6,2,36,44,1064,['c'],0,right,['2'],5,138,[0.06403415],83,44,hard,minus,dotcolour,alfa,,,77,20,M,R,
281,29,29,6,2,53,27,1516,['c'],1,left,['2'],5,145,[0.09195156],90,53,easy,minus,dotcolour,alfa,,,77,20,M,R,
282,30,30,6,2,44,36,599,['c'],1,left,['2'],5,141,[0.10876146],93,44,hard,minus,dotcolour,alfa,,,77,20,M,R,
283,31,31,6,2,27,53,515,['n'],1,right,['2'],5,187,[-0.08712462],86,53,easy,minus,dotcolour,alfa,,,77,20,M,R,
284,32,32,6,2,33,47,1182,['n'],1,right,['3'],4,149,[-0.07728214],86,47,medium,minus,dotcolour,alfa,,,77,20,M,R,
285,33,33,6,2,27,53,564,['n'],1,right,['1'],6,202,[-0.04558835],71,53,easy,minus,dotcolour,alfa,,,77,20,M,R,
286,34,34,6,2,33,47,549,['n'],1,right,['1'],6,93,[-0.10966107],96,47,medium,minus,dotcolour,alfa,,,77,20,M,R,
287,35,35,6,2,53,27,999,['c'],1,left,['1'],6,115,[0.09912744],93,53,easy,minus,dotcolour,alfa,,,77,20,M,R,
288,36,36,6,2,36,44,815,['c'],0,right,['2'],5,279,[0.02181989],59,44,hard,minus,dotcolour,alfa,,,77,20,M,R,
289,37,37,6,2,27,53,816,['n'],1,right,['1'],6,84,[-0.06459873],88,53,easy,minus,dotcolour,alfa,,,77,20,M,R,
290,38,38,6,2,33,47,1365,['c'],0,right,['1'],6,155,[0.06876307],83,47,medium,minus,dotcolour,alfa,,,77,20,M,R,
291,39,39,6,2,53,27,880,['c'],1,left,['1'],6,122,[0.12765896],96,53,easy,minus,dotcolour,alfa,,,77,20,M,R,
292,40,40,6,2,47,33,632,['c'],1,left,['1'],6,190,[-0.02802125],36,47,medium,minus,dotcolour,alfa,,,77,20,M,R,
293,41,41,6,2,47,33,817,['c'],1,left,['1'],6,102,[0.07943921],90,47,medium,minus,dotcolour,alfa,,,77,20,M,R,
294,42,0,7,2,27,53,3900,['n'],1,right,['3'],4,471,[-0.0101833],53,53,easy,minus,dotcolour,alfa,,,77,20,M,R,
295,43,1,7,2,47,33,799,['c'],1,left,['1'],6,124,[0.1330636],97,47,medium,minus,dotcolour,alfa,,,77,20,M,R,
296,44,2,7,2,44,36,1098,['c'],1,left,['1'],6,165,[-0.01683696],41,44,hard,minus,dotcolour,alfa,,,77,20,M,R,
297,45,3,7,2,33,47,700,['n'],1,right,['1'],6,188,[-0.08939101],86,47,medium,minus,dotcolour,alfa,,,77,20,M,R,
298,46,4,7,2,53,27,565,['c'],1,left,['1'],6,143,[0.0284182],66,53,easy,minus,dotcolour,alfa,,,77,20,M,R,
299,47,5,7,2,53,27,600,['c'],1,left,['2'],5,442,[0.1253984],85,53,easy,minus,dotcolour,alfa,,,77,20,M,R,
300,48,6,7,2,47,33,716,['c'],1,left,['1'],6,116,[0.10726244],94,47,medium,minus,dotcolour,alfa,,,77,20,M,R,
301,49,7,7,2,36,44,2932,['c'],0,right,['3'],4,92,[0.05768062],85,44,hard,minus,dotcolour,alfa,,,77,20,M,R,
302,50,8,7,2,33,47,948,['n'],1,right,['1'],6,131,[-0.03205336],69,47,medium,minus,dotcolour,alfa,,,77,20,M,R,
303,51,9,7,2,47,33,2315,['n'],0,left,['3'],4,242,[-0.01037046],55,47,medium,minus,dotcolour,alfa,,,77,20,M,R,
304,52,10,7,2,36,44,833,['n'],1,right,['1'],6,161,[-0.10793874],92,44,hard,minus,dotcolour,alfa,,,77,20,M,R,
305,53,11,7,2,33,47,1066,['c'],0,right,['3'],4,248,[0.05480534],73,47,medium,minus,dotcolour,alfa,,,77,20,M,R,
306,54,12,7,2,44,36,865,['c'],1,left,['1'],6,157,[0.10686487],92,44,hard,minus,dotcolour,alfa,,,77,20,M,R,
307,55,13,7,2,33,47,848,['n'],1,right,['2'],5,158,[-0.14114605],96,47,medium,minus,dotcolour,alfa,,,77,20,M,R,
308,56,14,7,2,33,47,633,['n'],1,right,['1'],6,240,[-0.16901009],96,47,medium,minus,dotcolour,alfa,,,77,20,M,R,
309,57,15,7,2,44,36,848,['c'],1,left,['2'],5,157,[0.12666177],95,44,hard,minus,dotcolour,alfa,,,77,20,M,R,
310,58,16,7,2,27,53,1065,['n'],1,right,['3'],4,261,[-0.09706125],85,53,easy,minus,dotcolour,alfa,,,77,20,M,R,
311,59,17,7,2,44,36,1132,['c'],1,left,['3'],4,222,[0.1385102],93,44,hard,minus,dotcolour,alfa,,,77,20,M,R,
312,60,18,7,2,47,33,1449,['c'],1,left,['2'],5,252,[0.16397676],95,47,medium,minus,dotcolour,alfa,,,77,20,M,R,
313,61,19,7,2,44,36,999,['n'],0,left,['3'],4,124,[-0.06150045],83,44,hard,minus,dotcolour,alfa,,,77,20,M,R,
314,62,20,7,2,36,44,2247,['n'],1,right,['8'],3,542,[-0.19772313],92,44,hard,minus,dotcolour,alfa,,,77,20,M,R,
315,63,21,7,2,33,47,799,['n'],1,right,['2'],5,257,[-0.15195477],94,47,medium,minus,dotcolour,alfa,,,77,20,M,R,
316,64,22,7,2,47,33,816,['n'],0,left,['8'],3,695,[-0.08906579],72,47,medium,minus,dotcolour,alfa,,,77,20,M,R,
317,65,23,7,2,44,36,1365,['c'],1,left,['3'],4,174,[0.03481013],68,44,hard,minus,dotcolour,alfa,,,77,20,M,R,
318,66,24,7,2,36,44,1566,['n'],1,right,['2'],5,177,[-0.04104284],71,44,hard,minus,dotcolour,alfa,,,77,20,M,R,
319,67,25,7,2,44,36,1316,['c'],1,left,['3'],4,166,[0.1058264],91,44,hard,minus,dotcolour,alfa,,,77,20,M,R,
320,68,26,7,2,27,53,1116,['n'],1,right,['2'],5,204,[-0.05364395],74,53,easy,minus,dotcolour,alfa,,,77,20,M,R,
321,69,27,7,2,27,53,1116,['n'],1,right,['2'],5,112,[-0.13178534],97,53,easy,minus,dotcolour,alfa,,,77,20,M,R,
322,70,28,7,2,53,27,750,['c'],1,left,['2'],5,199,[0.18238428],98,53,easy,minus,dotcolour,alfa,,,77,20,M,R,
323,71,29,7,2,27,53,999,['n'],1,right,['1'],6,120,[-0.08188515],89,53,easy,minus,dotcolour,alfa,,,77,20,M,R,
324,72,30,7,2,36,44,583,['n'],1,right,['1'],6,61,[-0.10462208],98,44,hard,minus,dotcolour,alfa,,,77,20,M,R,
325,73,31,7,2,53,27,965,['c'],1,left,['3'],4,117,[0.11396054],95,53,easy,minus,dotcolour,alfa,,,77,20,M,R,
326,74,32,7,2,47,33,949,['c'],1,left,['3'],4,180,[0.05052871],74,47,medium,minus,dotcolour,alfa,,,77,20,M,R,
327,75,33,7,2,27,53,782,['n'],1,right,['1'],6,134,[-0.10042044],92,53,easy,minus,dotcolour,alfa,,,77,20,M,R,
328,76,34,7,2,53,27,648,['c'],1,left,['1'],6,104,[0.08377309],91,53,easy,minus,dotcolour,alfa,,,77,20,M,R,
329,77,35,7,2,27,53,765,['n'],1,right,['1'],6,103,[-0.14374119],98,53,easy,minus,dotcolour,alfa,,,77,20,M,R,
330,78,36,7,2,36,44,831,['n'],1,right,['2'],5,219,[-0.04431626],70,44,hard,minus,dotcolour,alfa,,,77,20,M,R,
331,79,37,7,2,47,33,682,['c'],1,left,['2'],5,160,[0.06708668],82,47,medium,minus,dotcolour,alfa,,,77,20,M,R,
332,80,38,7,2,53,27,798,['c'],1,left,['1'],6,91,[0.0507831],82,53,easy,minus,dotcolour,alfa,,,77,20,M,R,
333,81,39,7,2,53,27,648,['c'],1,left,['1'],6,103,[0.11634835],96,53,easy,minus,dotcolour,alfa,,,77,20,M,R,
334,82,40,7,2,33,47,1532,['c'],0,right,['1'],6,111,[0.05118854],80,47,medium,minus,dotcolour,alfa,,,77,20,M,R,
335,83,41,7,2,36,44,1050,['c'],0,right,['1'],6,210,[0.08459288],84,44,hard,minus,dotcolour,alfa,,,77,20,M,R,
336,84,0,8,2,47,33,766,['c'],1,left,['1'],6,79,[0.0531879],85,47,medium,minus,dotcolour,alfa,,,77,20,M,R,
337,85,1,8,2,47,33,1466,['n'],0,left,['2'],5,26,[-0.0720104],98,47,medium,minus,dotcolour,alfa,,,77,20,M,R,
338,86,2,8,2,27,53,633,['n'],1,right,['2'],5,73,[-0.12183535],98,53,easy,minus,dotcolour,alfa,,,77,20,M,R,
339,87,3,8,2,36,44,1032,['c'],0,right,['3'],4,287,[0.00816592],53,44,hard,minus,dotcolour,alfa,,,77,20,M,R,
340,88,4,8,2,47,33,1632,['c'],1,left,['3'],4,146,[0.08185818],87,47,medium,minus,dotcolour,alfa,,,77,20,M,R,
341,89,5,8,2,44,36,833,['c'],1,left,['2'],5,292,[0.11968754],88,44,hard,minus,dotcolour,alfa,,,77,20,M,R,
342,90,6,8,2,44,36,1083,['n'],0,left,['3'],4,70,[-0.05416142],86,44,hard,minus,dotcolour,alfa,,,77,20,M,R,
343,91,7,8,2,33,47,667,['n'],1,right,['3'],4,74,[-0.06725215],90,47,medium,minus,dotcolour,alfa,,,77,20,M,R,
344,92,8,8,2,44,36,749,['c'],1,left,['2'],5,226,[0.18226773],97,44,hard,minus,dotcolour,alfa,,,77,20,M,R,
345,93,9,8,2,47,33,749,['c'],1,left,['1'],6,180,[0.10559702],90,47,medium,minus,dotcolour,alfa,,,77,20,M,R,
346,94,10,8,2,44,36,1414,['n'],0,left,['8'],3,214,[-0.06724463],79,44,hard,minus,dotcolour,alfa,,,77,20,M,R,
347,95,11,8,2,36,44,915,['c'],0,right,['2'],5,169,[0.08495903],87,44,hard,minus,dotcolour,alfa,,,77,20,M,R,
348,96,12,8,2,36,44,815,['c'],0,right,['2'],5,75,[0.09332989],96,44,hard,minus,dotcolour,alfa,,,77,20,M,R,
349,97,13,8,2,47,33,967,['c'],1,left,['2'],5,131,[0.06537128],84,47,medium,minus,dotcolour,alfa,,,77,20,M,R,
350,98,14,8,2,27,53,848,['n'],1,right,['1'],6,53,[-0.07078329],94,53,easy,minus,dotcolour,alfa,,,77,20,M,R,
351,99,15,8,2,27,53,598,['n'],1,right,['1'],6,61,[-0.11033813],98,53,easy,minus,dotcolour,alfa,,,77,20,M,R,
352,100,16,8,2,47,33,1032,['c'],1,left,['3'],4,322,[0.14265421],91,47,medium,minus,dotcolour,alfa,,,77,20,M,R,
353,101,17,8,2,27,53,1167,['n'],1,right,['3'],4,95,[-0.12241253],97,53,easy,minus,dotcolour,alfa,,,77,20,M,R,
354,102,18,8,2,33,47,2097,['n'],1,right,['1'],6,929,[-0.03396108],58,47,medium,minus,dotcolour,alfa,,,77,20,M,R,
355,103,19,8,2,47,33,832,['c'],1,left,['2'],5,115,[0.12636935],97,47,medium,minus,dotcolour,alfa,,,77,20,M,R,
356,104,20,8,2,36,44,1332,['n'],1,right,['3'],4,123,[-0.05449009],80,44,hard,minus,dotcolour,alfa,,,77,20,M,R,
357,105,21,8,2,36,44,732,['n'],1,right,['3'],4,274,[0.00395291],48,44,hard,minus,dotcolour,alfa,,,77,20,M,R,
358,106,22,8,2,44,36,649,['c'],1,left,['2'],5,358,[0.09554652],81,44,hard,minus,dotcolour,alfa,,,77,20,M,R,
359,107,23,8,2,36,44,1016,['n'],1,right,['2'],5,40,[-0.09177656],98,44,hard,minus,dotcolour,alfa,,,77,20,M,R,
360,108,24,8,2,44,36,932,['c'],1,left,['2'],5,339,[0.14738719],91,44,hard,minus,dotcolour,alfa,,,77,20,M,R,
361,109,25,8,2,53,27,632,['c'],1,left,['1'],6,101,[0.12302154],97,53,easy,minus,dotcolour,alfa,,,77,20,M,R,
362,110,26,8,2,33,47,782,['n'],1,right,['3'],4,211,[-0.03238812],65,47,medium,minus,dotcolour,alfa,,,77,20,M,R,
363,111,27,8,2,27,53,763,['n'],1,right,['2'],5,117,[-0.09140441],92,53,easy,minus,dotcolour,alfa,,,77,20,M,R,
364,112,28,8,2,53,27,682,['c'],1,left,['1'],6,87,[0.0560366],85,53,easy,minus,dotcolour,alfa,,,77,20,M,R,
365,113,29,8,2,53,27,965,['c'],1,left,['2'],5,262,[0.16246764],95,53,easy,minus,dotcolour,alfa,,,77,20,M,R,
366,114,30,8,2,53,27,1000,['c'],1,left,['1'],6,85,[0.10771818],97,53,easy,minus,dotcolour,alfa,,,77,20,M,R,
367,115,31,8,2,53,27,949,['c'],1,left,['1'],6,125,[0.06671966],85,53,easy,minus,dotcolour,alfa,,,77,20,M,R,
368,116,32,8,2,53,27,499,['c'],1,left,['1'],6,109,[0.07999309],90,53,easy,minus,dotcolour,alfa,,,77,20,M,R,
369,117,33,8,2,33,47,1250,['c'],0,right,['2'],5,183,[0.1009583],89,47,medium,minus,dotcolour,alfa,,,77,20,M,R,
370,118,34,8,2,36,44,699,['c'],0,right,['2'],5,133,[0.01869988],61,44,hard,minus,dotcolour,alfa,,,77,20,M,R,
371,119,35,8,2,44,36,566,['c'],1,left,['2'],5,83,[0.08355792],93,44,hard,minus,dotcolour,alfa,,,77,20,M,R,
372,120,36,8,2,33,47,499,['n'],1,right,['1'],6,85,[-0.05113785],83,47,medium,minus,dotcolour,alfa,,,77,20,M,R,
373,121,37,8,2,27,53,449,['n'],1,right,['1'],6,81,[-0.11000195],97,53,easy,minus,dotcolour,alfa,,,77,20,M,R,
374,122,38,8,2,27,53,597,['n'],1,right,['1'],6,47,[-0.05773818],92,53,easy,minus,dotcolour,alfa,,,77,20,M,R,
375,123,39,8,2,33,47,1582,['c'],0,right,['3'],4,167,[0.03975679],71,47,medium,minus,dotcolour,alfa,,,77,20,M,R,
376,124,40,8,2,33,47,965,['n'],1,right,['2'],5,299,[-0.26173569],99,47,medium,minus,dotcolour,alfa,,,77,20,M,R,
377,125,41,8,2,53,27,898,['c'],1,left,['3'],4,276,[0.18080363],96,53,easy,minus,dotcolour,alfa,,,77,20,M,R,
378,0,0,9,3,27,53,750,['n'],1,right,['1'],6,109,[-0.13433465],100,53,easy,plus,dotcolour,alfa,,,77,20,M,R,
379,1,1,9,3,44,36,849,['c'],1,left,['3'],4,127,[0.08605558],100,44,hard,plus,dotcolour,alfa,,,77,20,M,R,
380,2,2,9,3,47,33,1365,['c'],1,left,['3'],4,133,[0.14978051],100,47,medium,plus,dotcolour,alfa,,,77,20,M,R,
381,3,3,9,3,27,53,998,['n'],1,right,['3'],4,257,[-0.06926434],99,53,easy,plus,dotcolour,alfa,,,77,20,M,R,
382,4,4,9,3,44,36,916,['c'],1,left,['2'],5,154,[0.02800861],93,44,hard,plus,dotcolour,alfa,,,77,20,M,R,
383,5,5,9,3,44,36,947,['n'],0,left,['3'],4,128,[-0.11762301],100,44,hard,plus,dotcolour,alfa,,,77,20,M,R,
384,6,6,9,3,36,44,1066,['c'],0,right,['3'],4,185,[0.04712977],98,44,hard,plus,dotcolour,alfa,,,77,20,M,R,
385,7,7,9,3,36,44,732,['n'],1,right,['3'],4,150,[-0.06758736],100,44,hard,plus,dotcolour,alfa,,,77,20,M,R,
386,8,8,9,3,44,36,1049,['n'],0,left,['3'],4,151,[0.00634125],36,44,hard,plus,dotcolour,alfa,,,77,20,M,R,
387,9,9,9,3,47,33,980,['n'],0,left,['3'],4,59,[-0.08416903],100,47,medium,plus,dotcolour,alfa,,,77,20,M,R,
388,10,10,9,3,47,33,1315,['n'],0,left,['3'],4,61,[-0.04652242],100,47,medium,plus,dotcolour,alfa,,,77,20,M,R,
389,11,11,9,3,36,44,714,['c'],0,right,['2'],5,135,[0.0158938],83,44,hard,plus,dotcolour,alfa,,,77,20,M,R,
390,12,12,9,3,33,47,1617,['c'],0,right,['2'],5,187,[0.03731695],96,47,medium,plus,dotcolour,alfa,,,77,20,M,R,
391,13,13,9,3,53,27,565,['c'],1,left,['2'],5,70,[0.10675065],100,53,easy,plus,dotcolour,alfa,,,77,20,M,R,
392,14,14,9,3,36,44,799,['n'],1,right,['3'],4,117,[-0.09514049],100,44,hard,plus,dotcolour,alfa,,,77,20,M,R,
393,15,15,9,3,53,27,632,['c'],1,left,['1'],6,344,[0.1452256],100,53,easy,plus,dotcolour,alfa,,,77,20,M,R,
394,16,16,9,3,33,47,799,['n'],1,right,['1'],6,59,[-0.1197734],100,47,medium,plus,dotcolour,alfa,,,77,20,M,R,
395,17,17,9,3,36,44,1348,['c'],0,right,['3'],4,204,[-0.00851523],34,44,hard,plus,dotcolour,alfa,,,77,20,M,R,
396,18,18,9,3,47,33,1599,['c'],1,left,['3'],4,101,[0.07900092],100,47,medium,plus,dotcolour,alfa,,,77,20,M,R,
397,19,19,9,3,33,47,967,['n'],1,right,['2'],5,204,[-0.01564394],78,47,medium,plus,dotcolour,alfa,,,77,20,M,R,
398,20,20,9,3,53,27,1414,['c'],1,left,['2'],5,60,[0.09579221],100,53,easy,plus,dotcolour,alfa,,,77,20,M,R,
399,21,21,9,3,44,36,1197,['n'],0,left,['3'],4,355,[-0.08534478],99,44,hard,plus,dotcolour,alfa,,,77,20,M,R,
400,22,22,9,3,47,33,798,['c'],1,left,['2'],5,143,[0.01802189],85,47,medium,plus,dotcolour,alfa,,,77,20,M,R,
401,23,23,9,3,47,33,947,['n'],0,left,['2'],5,116,[-0.01204238],78,47,medium,plus,dotcolour,alfa,,,77,20,M,R,
402,24,24,9,3,53,27,799,['c'],1,left,['1'],6,192,[0.06823609],100,53,easy,plus,dotcolour,alfa,,,77,20,M,R,
403,25,25,9,3,36,44,749,['n'],1,right,['2'],5,91,[-0.11702609],100,44,hard,plus,dotcolour,alfa,,,77,20,M,R,
404,26,26,9,3,47,33,849,['c'],1,left,['1'],6,159,[0.04669224],99,47,medium,plus,dotcolour,alfa,,,77,20,M,R,
405,27,27,9,3,27,53,715,['n'],1,right,['2'],5,117,[-0.03345192],97,53,easy,plus,dotcolour,alfa,,,77,20,M,R,
406,28,28,9,3,27,53,631,['n'],1,right,['2'],5,104,[-0.08685346],100,53,easy,plus,dotcolour,alfa,,,77,20,M,R,
407,29,29,9,3,27,53,550,['n'],1,right,['1'],6,63,[-0.11030354],100,53,easy,plus,dotcolour,alfa,,,77,20,M,R,
408,30,30,9,3,53,27,615,['c'],1,left,['1'],6,93,[0.1062957],100,53,easy,plus,dotcolour,alfa,,,77,20,M,R,
409,31,31,9,3,36,44,1315,['n'],1,right,['2'],5,142,[-0.1306824],100,44,hard,plus,dotcolour,alfa,,,77,20,M,R,
410,32,32,9,3,44,36,600,['c'],1,left,['1'],6,113,[0.04356243],99,44,hard,plus,dotcolour,alfa,,,77,20,M,R,
411,33,33,9,3,53,27,482,['c'],1,left,['1'],6,91,[0.08782853],100,53,easy,plus,dotcolour,alfa,,,77,20,M,R,
412,34,34,9,3,33,47,801,['n'],1,right,['2'],5,80,[-0.07521761],100,47,medium,plus,dotcolour,alfa,,,77,20,M,R,
413,35,35,9,3,33,47,1031,['n'],1,right,['3'],4,229,[-0.11630137],100,47,medium,plus,dotcolour,alfa,,,77,20,M,R,
414,36,36,9,3,44,36,1233,['c'],1,left,['2'],5,164,[0.05598867],99,44,hard,plus,dotcolour,alfa,,,77,20,M,R,
415,37,37,9,3,27,53,567,['n'],1,right,['2'],5,152,[-0.09786937],100,53,easy,plus,dotcolour,alfa,,,77,20,M,R,
416,38,38,9,3,33,47,1399,['n'],1,right,['3'],4,83,[-0.0970873],100,47,medium,plus,dotcolour,alfa,,,77,20,M,R,
417,39,39,9,3,53,27,697,['c'],1,left,['2'],5,205,[0.07408242],100,53,easy,plus,dotcolour,alfa,,,77,20,M,R,
418,40,40,9,3,27,53,598,['n'],1,right,['1'],6,134,[-0.16159923],100,53,easy,plus,dotcolour,alfa,,,77,20,M,R,
419,41,41,9,3,33,47,733,['c'],0,right,['3'],4,101,[0.10011121],100,47,medium,plus,dotcolour,alfa,,,77,20,M,R,
420,42,0,10,3,53,27,634,['c'],1,left,['1'],6,92,[0.10478552],100,53,easy,plus,dotcolour,alfa,,,77,20,M,R,
421,43,1,10,3,27,53,517,['n'],1,right,['1'],6,69,[-0.12479294],100,53,easy,plus,dotcolour,alfa,,,77,20,M,R,
422,44,2,10,3,27,53,599,['n'],1,right,['1'],6,59,[-0.07996156],100,53,easy,plus,dotcolour,alfa,,,77,20,M,R,
423,45,3,10,3,27,53,566,['n'],1,right,['1'],6,91,[-0.08139791],100,53,easy,plus,dotcolour,alfa,,,77,20,M,R,
424,46,4,10,3,36,44,981,['c'],0,right,['3'],4,42,[0.05285517],100,44,hard,plus,dotcolour,alfa,,,77,20,M,R,
425,47,5,10,3,27,53,549,['n'],1,right,['2'],5,124,[-0.08889736],100,53,easy,plus,dotcolour,alfa,,,77,20,M,R,
426,48,6,10,3,36,44,1033,['c'],0,right,['2'],5,55,[0.03057325],99,44,hard,plus,dotcolour,alfa,,,77,20,M,R,
427,49,7,10,3,44,36,1349,['c'],1,left,['3'],4,104,[0.10173297],100,44,hard,plus,dotcolour,alfa,,,77,20,M,R,
428,50,8,10,3,44,36,1415,['c'],1,left,['2'],5,76,[0.09456478],100,44,hard,plus,dotcolour,alfa,,,77,20,M,R,
429,51,9,10,3,53,27,798,['c'],1,left,['2'],5,90,[0.06823126],100,53,easy,plus,dotcolour,alfa,,,77,20,M,R,
430,52,10,10,3,36,44,666,['n'],1,right,['2'],5,254,[-0.07328795],99,44,hard,plus,dotcolour,alfa,,,77,20,M,R,
431,53,11,10,3,36,44,865,['c'],0,right,['2'],5,122,[0.06969046],100,44,hard,plus,dotcolour,alfa,,,77,20,M,R,
432,54,12,10,3,27,53,648,['n'],1,right,['3'],4,212,[-0.03064533],92,53,easy,plus,dotcolour,alfa,,,77,20,M,R,
433,55,13,10,3,47,33,714,['c'],1,left,['3'],4,161,[0.02962612],93,47,medium,plus,dotcolour,alfa,,,77,20,M,R,
434,56,14,10,3,53,27,666,['c'],1,left,['2'],5,152,[0.1185514],100,53,easy,plus,dotcolour,alfa,,,77,20,M,R,
435,57,15,10,3,53,27,1050,['n'],0,left,['3'],4,74,[-0.07426097],100,53,easy,plus,dotcolour,alfa,,,77,20,M,R,
436,58,16,10,3,47,33,1281,['n'],0,left,['3'],4,149,[-0.04651198],99,47,medium,plus,dotcolour,alfa,,,77,20,M,R,
437,59,17,10,3,53,27,899,['c'],1,left,['2'],5,140,[0.14885249],100,53,easy,plus,dotcolour,alfa,,,77,20,M,R,
438,60,18,10,3,33,47,748,['n'],1,right,['2'],5,122,[-0.09437405],100,47,medium,plus,dotcolour,alfa,,,77,20,M,R,
439,61,19,10,3,47,33,1148,['n'],0,left,['1'],6,160,[-0.0786762],100,47,medium,plus,dotcolour,alfa,,,77,20,M,R,
440,62,20,10,3,27,53,497,['n'],1,right,['1'],6,31,[-0.08155709],100,53,easy,plus,dotcolour,alfa,,,77,20,M,R,
441,63,21,10,3,33,47,550,['n'],1,right,['1'],6,33,[-0.07413105],100,47,medium,plus,dotcolour,alfa,,,77,20,M,R,
442,64,22,10,3,47,33,1199,['n'],0,left,['2'],5,73,[-0.10198085],100,47,medium,plus,dotcolour,alfa,,,77,20,M,R,
443,65,23,10,3,53,27,432,['c'],1,left,['2'],5,190,[0.07781621],100,53,easy,plus,dotcolour,alfa,,,77,20,M,R,
444,66,24,10,3,36,44,615,['n'],1,right,['2'],5,79,[-0.03910703],99,44,hard,plus,dotcolour,alfa,,,77,20,M,R,
445,67,25,10,3,33,47,681,['c'],0,right,['1'],6,74,[0.09699005],100,47,medium,plus,dotcolour,alfa,,,77,20,M,R,
446,68,26,10,3,33,47,899,['n'],1,right,['3'],4,140,[-0.04672565],99,47,medium,plus,dotcolour,alfa,,,77,20,M,R,
447,69,27,10,3,47,33,815,['c'],1,left,['2'],5,79,[0.1186335],100,47,medium,plus,dotcolour,alfa,,,77,20,M,R,
448,70,28,10,3,47,33,530,['c'],1,left,['2'],5,80,[0.06912709],100,47,medium,plus,dotcolour,alfa,,,77,20,M,R,
449,71,29,10,3,47,33,714,['c'],1,left,['1'],6,73,[0.09285156],100,47,medium,plus,dotcolour,alfa,,,77,20,M,R,
450,72,30,10,3,36,44,917,['n'],1,right,['3'],4,83,[-0.06073143],100,44,hard,plus,dotcolour,alfa,,,77,20,M,R,
451,73,31,10,3,33,47,631,['n'],1,right,['3'],4,127,[-0.11170788],100,47,medium,plus,dotcolour,alfa,,,77,20,M,R,
452,74,32,10,3,33,47,982,['c'],0,right,['2'],5,132,[0.10384171],100,47,medium,plus,dotcolour,alfa,,,77,20,M,R,
453,75,33,10,3,44,36,630,['c'],1,left,['1'],6,303,[0.07187013],99,44,hard,plus,dotcolour,alfa,,,77,20,M,R,
454,76,34,10,3,44,36,948,['n'],0,left,['3'],4,166,[-0.05360927],99,44,hard,plus,dotcolour,alfa,,,77,20,M,R,
455,77,35,10,3,27,53,516,['n'],1,right,['1'],6,180,[-0.06339835],100,53,easy,plus,dotcolour,alfa,,,77,20,M,R,
456,78,36,10,3,44,36,765,['c'],1,left,['2'],5,104,[0.07083861],100,44,hard,plus,dotcolour,alfa,,,77,20,M,R,
457,79,37,10,3,36,44,731,['n'],1,right,['2'],5,71,[-0.10315843],100,44,hard,plus,dotcolour,alfa,,,77,20,M,R,
458,80,38,10,3,53,27,1299,['c'],1,left,['3'],4,90,[0.08719928],100,53,easy,plus,dotcolour,alfa,,,77,20,M,R,
459,81,39,10,3,33,47,648,['n'],1,right,['1'],6,78,[-0.03165429],98,47,medium,plus,dotcolour,alfa,,,77,20,M,R,
460,82,40,10,3,44,36,564,['c'],1,left,['2'],5,125,[0.07958215],100,44,hard,plus,dotcolour,alfa,,,77,20,M,R,
461,83,41,10,3,44,36,749,['c'],1,left,['2'],5,91,[0.10700908],100,44,hard,plus,dotcolour,alfa,,,77,20,M,R,
462,84,0,11,3,27,53,633,['n'],1,right,['1'],6,183,[-0.06008455],99,53,easy,plus,dotcolour,alfa,,,77,20,M,R,
463,85,1,11,3,53,27,849,['n'],0,left,['9'],2,1271,[0.37464579],0,53,easy,plus,dotcolour,alfa,,,77,20,M,R,
464,86,2,11,3,27,53,749,['c'],0,right,['0'],1,703,[-0.07228139],4,53,easy,plus,dotcolour,alfa,,,77,20,M,R,
465,87,3,11,3,27,53,633,['c'],0,right,['0'],1,538,[-0.00075996],49,53,easy,plus,dotcolour,alfa,,,77,20,M,R,
466,88,4,11,3,44,36,1116,['c'],1,left,['3'],4,33,[0.07644543],100,44,hard,plus,dotcolour,alfa,,,77,20,M,R,
467,89,5,11,3,33,47,631,['n'],1,right,['1'],6,79,[-0.09897376],100,47,medium,plus,dotcolour,alfa,,,77,20,M,R,
468,90,6,11,3,27,53,583,['n'],1,right,['1'],6,54,[-0.127315],100,53,easy,plus,dotcolour,alfa,,,77,20,M,R,
469,91,7,11,3,36,44,881,['c'],0,right,['3'],4,73,[0.05301734],100,44,hard,plus,dotcolour,alfa,,,77,20,M,R,
470,92,8,11,3,47,33,783,['c'],1,left,['8'],3,96,[0.08308873],100,47,medium,plus,dotcolour,alfa,,,77,20,M,R,
471,93,9,11,3,47,33,649,['c'],1,left,['1'],6,107,[0.03855767],99,47,medium,plus,dotcolour,alfa,,,77,20,M,R,
472,94,10,11,3,33,47,733,['n'],1,right,['2'],5,67,[-0.10341065],100,47,medium,plus,dotcolour,alfa,,,77,20,M,R,
473,95,11,11,3,27,53,817,['n'],1,right,['3'],4,74,[-0.08091489],100,53,easy,plus,dotcolour,alfa,,,77,20,M,R,
474,96,12,11,3,44,36,815,['c'],1,left,['3'],4,15,[0.09547904],100,44,hard,plus,dotcolour,alfa,,,77,20,M,R,
475,97,13,11,3,36,44,582,['n'],1,right,['2'],5,81,[-0.10496098],100,44,hard,plus,dotcolour,alfa,,,77,20,M,R,
476,98,14,11,3,44,36,781,['n'],0,left,['2'],5,95,[-0.0769466],100,44,hard,plus,dotcolour,alfa,,,77,20,M,R,
477,99,15,11,3,44,36,664,['c'],1,left,['3'],4,162,[0.13797321],100,44,hard,plus,dotcolour,alfa,,,77,20,M,R,
478,100,16,11,3,47,33,881,['c'],1,left,['3'],4,161,[0.04448933],98,47,medium,plus,dotcolour,alfa,,,77,20,M,R,
479,101,17,11,3,44,36,1432,['c'],1,left,['3'],4,107,[0.11239644],100,44,hard,plus,dotcolour,alfa,,,77,20,M,R,
480,102,18,11,3,47,33,1066,['c'],1,left,['2'],5,6,[0.06070193],100,47,medium,plus,dotcolour,alfa,,,77,20,M,R,
481,103,19,11,3,27,53,531,['n'],1,right,['1'],6,65,[-0.08699698],100,53,easy,plus,dotcolour,alfa,,,77,20,M,R,
482,104,20,11,3,53,27,597,['c'],1,left,['1'],6,88,[0.12894921],100,53,easy,plus,dotcolour,alfa,,,77,20,M,R,
483,105,21,11,3,47,33,1915,['c'],1,left,['2'],5,105,[0.09464272],100,47,medium,plus,dotcolour,alfa,,,77,20,M,R,
484,106,22,11,3,53,27,666,['c'],1,left,['1'],6,67,[0.10477719],100,53,easy,plus,dotcolour,alfa,,,77,20,M,R,
485,107,23,11,3,36,44,782,['n'],1,right,['2'],5,75,[-0.09559414],100,44,hard,plus,dotcolour,alfa,,,77,20,M,R,
486,108,24,11,3,36,44,897,['c'],0,right,['2'],5,77,[0.04493011],100,44,hard,plus,dotcolour,alfa,,,77,20,M,R,
487,109,25,11,3,33,47,667,['n'],1,right,['3'],4,160,[-0.06888338],100,47,medium,plus,dotcolour,alfa,,,77,20,M,R,
488,110,26,11,3,47,33,550,['c'],1,left,['2'],5,101,[0.01387507],83,47,medium,plus,dotcolour,alfa,,,77,20,M,R,
489,111,27,11,3,33,47,532,['n'],1,right,['1'],6,108,[-0.01717874],87,47,medium,plus,dotcolour,alfa,,,77,20,M,R,
490,112,28,11,3,44,36,599,['c'],1,left,['1'],6,90,[0.09272956],100,44,hard,plus,dotcolour,alfa,,,77,20,M,R,
491,113,29,11,3,53,27,765,['n'],0,left,['0'],1,705,[0.10245607],1,53,easy,plus,dotcolour,alfa,,,77,20,M,R,
492,114,30,11,3,33,47,865,['n'],1,right,['3'],4,515,[-0.07190036],97,47,medium,plus,dotcolour,alfa,,,77,20,M,R,
493,115,31,11,3,44,36,848,['c'],1,left,['1'],6,109,[0.0532264],100,44,hard,plus,dotcolour,alfa,,,77,20,M,R,
494,116,32,11,3,53,27,665,['c'],1,left,['1'],6,88,[0.12863336],100,53,easy,plus,dotcolour,alfa,,,77,20,M,R,
495,117,33,11,3,36,44,1615,['n'],1,right,['2'],5,205,[-0.08389258],100,44,hard,plus,dotcolour,alfa,,,77,20,M,R,
496,118,34,11,3,33,47,1216,['n'],1,right,['3'],4,77,[-0.09989922],100,47,medium,plus,dotcolour,alfa,,,77,20,M,R,
497,119,35,11,3,47,33,1431,['c'],1,left,['2'],5,473,[0.09535524],99,47,medium,plus,dotcolour,alfa,,,77,20,M,R,
498,120,36,11,3,36,44,849,['n'],1,right,['1'],6,93,[-0.09263417],100,44,hard,plus,dotcolour,alfa,,,77,20,M,R,
499,121,37,11,3,36,44,664,['n'],1,right,['1'],6,56,[-0.05766575],100,44,hard,plus,dotcolour,alfa,,,77,20,M,R,
500,122,38,11,3,53,27,749,['c'],1,left,['2'],5,145,[0.15342958],100,53,easy,plus,dotcolour,alfa,,,77,20,M,R,
501,123,39,11,3,27,53,784,['n'],1,right,['1'],6,69,[-0.09697702],100,53,easy,plus,dotcolour,alfa,,,77,20,M,R,
502,124,40,11,3,33,47,1233,['n'],1,right,['3'],4,75,[-0.06900438],100,47,medium,plus,dotcolour,alfa,,,77,20,M,R,
503,125,41,11,3,53,27,615,['c'],1,left,['2'],5,113,[0.05980262],100,53,easy,plus,dotcolour,alfa,,,77,20,M,R,
504,0,0,12,4,33,47,616,['n'],1,right,['2'],5,38,[-0.02578323],77,47,medium,minus,dotcolour,alfa,,,77,20,M,R,
505,1,1,12,4,44,36,1151,['c'],1,left,['3'],4,48,[0.10015819],98,44,hard,minus,dotcolour,alfa,,,77,20,M,R,
506,2,2,12,4,36,44,999,['n'],1,right,['3'],4,55,[-0.0697052],94,44,hard,minus,dotcolour,alfa,,,77,20,M,R,
507,3,3,12,4,53,27,901,['c'],1,left,['1'],6,59,[0.11979571],99,53,easy,minus,dotcolour,alfa,,,77,20,M,R,
508,4,4,12,4,53,27,1183,['c'],1,left,['2'],5,114,[0.05297705],80,53,easy,minus,dotcolour,alfa,,,77,20,M,R,
509,5,5,12,4,47,33,647,['c'],1,left,['2'],5,68,[0.0542532],87,47,medium,minus,dotcolour,alfa,,,77,20,M,R,
510,6,6,12,4,27,53,716,['n'],1,right,['1'],6,55,[-0.03843085],81,53,easy,minus,dotcolour,alfa,,,77,20,M,R,
511,7,7,12,4,36,44,1982,['n'],1,right,['3'],4,30,[-0.07000199],97,44,hard,minus,dotcolour,alfa,,,77,20,M,R,
512,8,8,12,4,53,27,581,['c'],1,left,['1'],6,71,[0.07849508],93,53,easy,minus,dotcolour,alfa,,,77,20,M,R,
513,9,9,12,4,44,36,1099,['c'],1,left,['3'],4,82,[0.03832094],77,44,hard,minus,dotcolour,alfa,,,77,20,M,R,
514,10,10,12,4,27,53,716,['n'],1,right,['1'],6,107,[-0.08305432],91,53,easy,minus,dotcolour,alfa,,,77,20,M,R,
515,11,11,12,4,36,44,1249,['n'],1,right,['2'],5,7,[-0.07726227],100,44,hard,minus,dotcolour,alfa,,,77,20,M,R,
516,12,12,12,4,44,36,583,['c'],1,left,['1'],6,89,[0.03625502],75,44,hard,minus,dotcolour,alfa,,,77,20,M,R,
517,13,13,12,4,36,44,1049,['c'],0,right,['3'],4,124,[0.07369186],87,44,hard,minus,dotcolour,alfa,,,77,20,M,R,
518,14,14,12,4,47,33,516,['c'],1,left,['1'],6,92,[0.10967702],96,47,medium,minus,dotcolour,alfa,,,77,20,M,R,
519,15,15,12,4,53,27,549,['c'],1,left,['1'],6,83,[0.10536002],96,53,easy,minus,dotcolour,alfa,,,77,20,M,R,
520,16,16,12,4,33,47,981,['n'],1,right,['2'],5,186,[-0.0422542],71,47,medium,minus,dotcolour,alfa,,,77,20,M,R,
521,17,17,12,4,33,47,565,['n'],1,right,['2'],5,76,[-0.06582841],90,47,medium,minus,dotcolour,alfa,,,77,20,M,R,
522,18,18,12,4,44,36,748,['c'],1,left,['2'],5,77,[0.04792278],83,44,hard,minus,dotcolour,alfa,,,77,20,M,R,
523,19,19,12,4,27,53,900,['n'],1,right,['2'],5,70,[-0.10822251],98,53,easy,minus,dotcolour,alfa,,,77,20,M,R,
524,20,20,12,4,47,33,1616,['c'],1,left,['3'],4,60,[0.09535508],97,47,medium,minus,dotcolour,alfa,,,77,20,M,R,
525,21,21,12,4,36,44,698,['n'],1,right,['2'],5,94,[-0.09904117],95,44,hard,minus,dotcolour,alfa,,,77,20,M,R,
526,22,22,12,4,47,33,848,['c'],1,left,['2'],5,98,[0.08076409],91,47,medium,minus,dotcolour,alfa,,,77,20,M,R,
527,23,23,12,4,27,53,765,['n'],1,right,['1'],6,96,[-0.15411886],99,53,easy,minus,dotcolour,alfa,,,77,20,M,R,
528,24,24,12,4,47,33,565,['c'],1,left,['1'],6,71,[0.0939305],96,47,medium,minus,dotcolour,alfa,,,77,20,M,R,
529,25,25,12,4,36,44,630,['n'],1,right,['1'],6,44,[-0.09327639],98,44,hard,minus,dotcolour,alfa,,,77,20,M,R,
530,26,26,12,4,53,27,716,['c'],1,left,['2'],5,71,[0.097937],96,53,easy,minus,dotcolour,alfa,,,77,20,M,R,
531,27,27,12,4,53,27,648,['c'],1,left,['1'],6,83,[0.11662768],97,53,easy,minus,dotcolour,alfa,,,77,20,M,R,
532,28,28,12,4,47,33,766,['c'],1,left,['3'],4,67,[0.06911147],92,47,medium,minus,dotcolour,alfa,,,77,20,M,R,
533,29,29,12,4,33,47,582,['n'],1,right,['2'],5,203,[-0.0274122],63,47,medium,minus,dotcolour,alfa,,,77,20,M,R,
534,30,30,12,4,33,47,899,['c'],0,right,['2'],5,120,[0.04217843],75,47,medium,minus,dotcolour,alfa,,,77,20,M,R,
535,31,31,12,4,44,36,748,['c'],1,left,['1'],6,70,[0.08165124],94,44,hard,minus,dotcolour,alfa,,,77,20,M,R,
536,32,32,12,4,36,44,965,['n'],1,right,['3'],4,78,[-0.05524265],86,44,hard,minus,dotcolour,alfa,,,77,20,M,R,
537,33,33,12,4,27,53,614,['n'],1,right,['2'],5,156,[-0.0817582],87,53,easy,minus,dotcolour,alfa,,,77,20,M,R,
538,34,34,12,4,33,47,681,['n'],1,right,['3'],4,443,[-0.19228572],93,47,medium,minus,dotcolour,alfa,,,77,20,M,R,
539,35,35,12,4,44,36,682,['c'],1,left,['1'],6,95,[0.0914459],94,44,hard,minus,dotcolour,alfa,,,77,20,M,R,
540,36,36,12,4,27,53,565,['n'],1,right,['2'],5,190,[-0.06107895],78,53,easy,minus,dotcolour,alfa,,,77,20,M,R,
541,37,37,12,4,47,33,782,['c'],1,left,['1'],6,153,[0.09186379],89,47,medium,minus,dotcolour,alfa,,,77,20,M,R,
542,38,38,12,4,33,47,716,['n'],1,right,['2'],5,167,[-0.11365246],92,47,medium,minus,dotcolour,alfa,,,77,20,M,R,
543,39,39,12,4,53,27,580,['c'],1,left,['1'],6,98,[0.07104676],89,53,easy,minus,dotcolour,alfa,,,77,20,M,R,
544,40,40,12,4,44,36,1216,['n'],0,left,['3'],4,111,[-0.11195333],95,44,hard,minus,dotcolour,alfa,,,77,20,M,R,
545,41,41,12,4,27,53,598,['c'],0,right,['8'],3,1020,[-0.18445225],16,53,easy,minus,dotcolour,alfa,,,77,20,M,R,
546,42,0,13,4,27,53,966,['n'],1,right,['1'],6,47,[-0.06581587],94,53,easy,minus,dotcolour,alfa,,,77,20,M,R,
547,43,1,13,4,33,47,915,['c'],0,right,['3'],4,18,[0.068405],99,47,medium,minus,dotcolour,alfa,,,77,20,M,R,
548,44,2,13,4,33,47,883,['n'],1,right,['3'],4,79,[-0.0534881],85,47,medium,minus,dotcolour,alfa,,,77,20,M,R,
549,45,3,13,4,33,47,932,['c'],0,right,['3'],4,224,[0.06961112],79,47,medium,minus,dotcolour,alfa,,,77,20,M,R,
550,46,4,13,4,36,44,865,['n'],1,right,['8'],3,437,[-0.03252573],61,44,hard,minus,dotcolour,alfa,,,77,20,M,R,
551,47,5,13,4,47,33,1531,['c'],1,left,['3'],4,119,[0.04585669],77,47,medium,minus,dotcolour,alfa,,,77,20,M,R,
552,48,6,13,4,47,33,550,['c'],1,left,['1'],6,78,[0.07560649],92,47,medium,minus,dotcolour,alfa,,,77,20,M,R,
553,49,7,13,4,44,36,765,['c'],1,left,['2'],5,85,[0.09373809],95,44,hard,minus,dotcolour,alfa,,,77,20,M,R,
554,50,8,13,4,44,36,765,['c'],1,left,['2'],5,76,[0.0667195],90,44,hard,minus,dotcolour,alfa,,,77,20,M,R,
555,51,9,13,4,36,44,915,['c'],0,right,['2'],5,102,[0.06330944],86,44,hard,minus,dotcolour,alfa,,,77,20,M,R,
556,52,10,13,4,36,44,631,['c'],0,right,['1'],6,106,[0.09437574],93,44,hard,minus,dotcolour,alfa,,,77,20,M,R,
557,53,11,13,4,53,27,664,['c'],1,left,['2'],5,52,[0.05789252],91,53,easy,minus,dotcolour,alfa,,,77,20,M,R,
558,54,12,13,4,27,53,665,['n'],1,right,['1'],6,144,[-0.10997928],93,53,easy,minus,dotcolour,alfa,,,77,20,M,R,
559,55,13,13,4,36,44,682,['c'],0,right,['1'],6,96,[0.04371873],78,44,hard,minus,dotcolour,alfa,,,77,20,M,R,
560,56,14,13,4,36,44,751,['n'],1,right,['1'],6,112,[-0.02351515],65,44,hard,minus,dotcolour,alfa,,,77,20,M,R,
561,57,15,13,4,44,36,933,['c'],1,left,['1'],6,79,[0.07384087],91,44,hard,minus,dotcolour,alfa,,,77,20,M,R,
562,58,16,13,4,47,33,716,['c'],1,left,['1'],6,80,[0.06969668],90,47,medium,minus,dotcolour,alfa,,,77,20,M,R,
563,59,17,13,4,47,33,764,['c'],1,left,['1'],6,96,[0.07658264],90,47,medium,minus,dotcolour,alfa,,,77,20,M,R,
564,60,18,13,4,33,47,682,['c'],0,right,['1'],6,66,[0.0538605],87,47,medium,minus,dotcolour,alfa,,,77,20,M,R,
565,61,19,13,4,36,44,547,['c'],0,right,['1'],6,114,[0.04102909],75,44,hard,minus,dotcolour,alfa,,,77,20,M,R,
566,62,20,13,4,53,27,582,['c'],1,left,['1'],6,168,[0.08764588],87,53,easy,minus,dotcolour,alfa,,,77,20,M,R,
567,63,21,13,4,27,53,581,['n'],1,right,['1'],6,99,[-0.11744213],97,53,easy,minus,dotcolour,alfa,,,77,20,M,R,
568,64,22,13,4,33,47,1049,['n'],1,right,['3'],4,182,[-0.1184122],92,47,medium,minus,dotcolour,alfa,,,77,20,M,R,
569,65,23,13,4,44,36,832,['c'],1,left,['3'],4,55,[0.08805116],97,44,hard,minus,dotcolour,alfa,,,77,20,M,R,
570,66,24,13,4,36,44,783,['n'],1,right,['3'],4,87,[-0.11678472],97,44,hard,minus,dotcolour,alfa,,,77,20,M,R,
571,67,25,13,4,47,33,681,['c'],1,left,['1'],6,81,[0.07950147],93,47,medium,minus,dotcolour,alfa,,,77,20,M,R,
572,68,26,13,4,53,27,548,['c'],1,left,['1'],6,58,[0.13162727],99,53,easy,minus,dotcolour,alfa,,,77,20,M,R,
573,69,27,13,4,33,47,682,['n'],1,right,['1'],6,69,[-0.07422042],93,47,medium,minus,dotcolour,alfa,,,77,20,M,R,
574,70,28,13,4,44,36,631,['c'],1,left,['1'],6,59,[0.09372774],97,44,hard,minus,dotcolour,alfa,,,77,20,M,R,
575,71,29,13,4,33,47,665,['n'],1,right,['2'],5,135,[-0.13268227],96,47,medium,minus,dotcolour,alfa,,,77,20,M,R,
576,72,30,13,4,53,27,565,['c'],1,left,['1'],6,132,[0.09358223],91,53,easy,minus,dotcolour,alfa,,,77,20,M,R,
577,73,31,13,4,27,53,615,['n'],1,right,['1'],6,127,[-0.11262658],95,53,easy,minus,dotcolour,alfa,,,77,20,M,R,
578,74,32,13,4,27,53,649,['n'],1,right,['1'],6,82,[-0.07105008],90,53,easy,minus,dotcolour,alfa,,,77,20,M,R,
579,75,33,13,4,53,27,582,['c'],1,left,['1'],6,48,[0.07295429],95,53,easy,minus,dotcolour,alfa,,,77,20,M,R,
580,76,34,13,4,44,36,1249,['c'],1,left,['1'],6,93,[0.08006428],91,44,hard,minus,dotcolour,alfa,,,77,20,M,R,
581,77,35,13,4,53,27,849,['c'],1,left,['1'],6,73,[0.12907098],99,53,easy,minus,dotcolour,alfa,,,77,20,M,R,
582,78,36,13,4,27,53,766,['c'],0,right,['1'],6,97,[0.0664503],87,53,easy,minus,dotcolour,alfa,,,77,20,M,R,
583,79,37,13,4,27,53,750,['n'],1,right,['1'],6,112,[-0.05000119],79,53,easy,minus,dotcolour,alfa,,,77,20,M,R,
584,80,38,13,4,44,36,715,['c'],1,left,['1'],6,56,[0.0697211],93,44,hard,minus,dotcolour,alfa,,,77,20,M,R,
585,81,39,13,4,53,27,700,['c'],1,left,['1'],6,67,[0.08176512],94,53,easy,minus,dotcolour,alfa,,,77,20,M,R,
586,82,40,13,4,47,33,498,['c'],1,left,['1'],6,110,[0.12439792],97,47,medium,minus,dotcolour,alfa,,,77,20,M,R,
587,83,41,13,4,47,33,648,['c'],1,left,['1'],6,97,[0.0778522],90,47,medium,minus,dotcolour,alfa,,,77,20,M,R,
588,84,0,14,4,27,53,500,['n'],1,right,['1'],6,36,[-0.08931054],99,53,easy,minus,dotcolour,alfa,,,77,20,M,R,
589,85,1,14,4,53,27,464,['c'],1,left,['1'],6,73,[0.05366582],86,53,easy,minus,dotcolour,alfa,,,77,20,M,R,
590,86,2,14,4,33,47,1031,['n'],1,right,['3'],4,55,[-0.07077505],94,47,medium,minus,dotcolour,alfa,,,77,20,M,R,
591,87,3,14,4,44,36,581,['c'],1,left,['3'],4,79,[0.15043356],99,44,hard,minus,dotcolour,alfa,,,77,20,M,R,
592,88,4,14,4,47,33,1216,['n'],0,left,['3'],4,68,[-0.06406028],90,47,medium,minus,dotcolour,alfa,,,77,20,M,R,
593,89,5,14,4,53,27,931,['c'],1,left,['2'],5,134,[0.04358434],74,53,easy,minus,dotcolour,alfa,,,77,20,M,R,
594,90,6,14,4,47,33,599,['c'],1,left,['2'],5,81,[0.01975443],65,47,medium,minus,dotcolour,alfa,,,77,20,M,R,
595,91,7,14,4,44,36,580,['c'],1,left,['2'],5,88,[0.03765814],76,44,hard,minus,dotcolour,alfa,,,77,20,M,R,
596,92,8,14,4,27,53,831,['n'],1,right,['1'],6,53,[-0.05717216],90,53,easy,minus,dotcolour,alfa,,,77,20,M,R,
597,93,9,14,4,27,53,598,['n'],1,right,['1'],6,60,[-0.0831582],96,53,easy,minus,dotcolour,alfa,,,77,20,M,R,
598,94,10,14,4,27,53,531,['n'],1,right,['1'],6,61,[-0.05408108],88,53,easy,minus,dotcolour,alfa,,,77,20,M,R,
599,95,11,14,4,44,36,598,['c'],1,left,['1'],6,92,[0.10478847],96,44,hard,minus,dotcolour,alfa,,,77,20,M,R,
600,96,12,14,4,47,33,882,['c'],1,left,['1'],6,46,[0.11976217],99,47,medium,minus,dotcolour,alfa,,,77,20,M,R,
601,97,13,14,4,53,27,682,['c'],1,left,['1'],6,66,[0.0768758],94,53,easy,minus,dotcolour,alfa,,,77,20,M,R,
602,98,14,14,4,36,44,915,['n'],1,right,['3'],4,100,[-0.03090004],71,44,hard,minus,dotcolour,alfa,,,77,20,M,R,
603,99,15,14,4,44,36,1632,['c'],1,left,['3'],4,88,[0.08233961],92,44,hard,minus,dotcolour,alfa,,,77,20,M,R,
604,100,16,14,4,36,44,749,['n'],1,right,['3'],4,80,[-0.03846537],77,44,hard,minus,dotcolour,alfa,,,77,20,M,R,
605,101,17,14,4,36,44,1231,['n'],1,right,['3'],4,93,[-0.11611141],97,44,hard,minus,dotcolour,alfa,,,77,20,M,R,
606,102,18,14,4,33,47,514,['n'],1,right,['2'],5,93,[-0.13985633],98,47,medium,minus,dotcolour,alfa,,,77,20,M,R,
607,103,19,14,4,53,27,749,['c'],1,left,['1'],6,85,[0.03092667],72,53,easy,minus,dotcolour,alfa,,,77,20,M,R,
608,104,20,14,4,33,47,815,['n'],1,right,['2'],5,194,[-0.10902021],90,47,medium,minus,dotcolour,alfa,,,77,20,M,R,
609,105,21,14,4,33,47,699,['n'],1,right,['2'],5,71,[-0.0838081],94,47,medium,minus,dotcolour,alfa,,,77,20,M,R,
610,106,22,14,4,27,53,814,['n'],1,right,['2'],5,86,[-0.04550437],80,53,easy,minus,dotcolour,alfa,,,77,20,M,R,
611,107,23,14,4,27,53,632,['n'],1,right,['2'],5,82,[-0.05692646],86,53,easy,minus,dotcolour,alfa,,,77,20,M,R,
612,108,24,14,4,36,44,781,['c'],0,right,['2'],5,225,[0.0555544],74,44,hard,minus,dotcolour,alfa,,,77,20,M,R,
613,109,25,14,4,47,33,716,['c'],1,left,['1'],6,84,[0.09970538],96,47,medium,minus,dotcolour,alfa,,,77,20,M,R,
614,110,26,14,4,47,33,734,['c'],1,left,['2'],5,133,[-0.02600097],34,47,medium,minus,dotcolour,alfa,,,77,20,M,R,
615,111,27,14,4,47,33,898,['c'],1,left,['2'],5,173,[0.09676642],89,47,medium,minus,dotcolour,alfa,,,77,20,M,R,
616,112,28,14,4,53,27,498,['c'],1,left,['1'],6,91,[0.09499924],94,53,easy,minus,dotcolour,alfa,,,77,20,M,R,
617,113,29,14,4,33,47,964,['n'],1,right,['3'],4,91,[-0.11488707],97,47,medium,minus,dotcolour,alfa,,,77,20,M,R,
618,114,30,14,4,47,33,1050,['c'],1,left,['3'],4,79,[0.04950861],83,47,medium,minus,dotcolour,alfa,,,77,20,M,R,
619,115,31,14,4,36,44,664,['n'],1,right,['1'],6,146,[-0.06570319],82,44,hard,minus,dotcolour,alfa,,,77,20,M,R,
620,116,32,14,4,27,53,700,['c'],0,right,['1'],6,113,[0.04030902],75,53,easy,minus,dotcolour,alfa,,,77,20,M,R,
621,117,33,14,4,33,47,831,['n'],1,right,['1'],6,45,[-0.03538424],82,47,medium,minus,dotcolour,alfa,,,77,20,M,R,
622,118,34,14,4,33,47,1713,['c'],0,right,['3'],4,80,[0.12156158],98,47,medium,minus,dotcolour,alfa,,,77,20,M,R,
623,119,35,14,4,44,36,1099,['c'],1,left,['3'],4,185,[0.03183593],66,44,hard,minus,dotcolour,alfa,,,77,20,M,R,
624,120,36,14,4,53,27,615,['c'],1,left,['1'],6,75,[0.14588324],99,53,easy,minus,dotcolour,alfa,,,77,20,M,R,
625,121,37,14,4,53,27,632,['c'],1,left,['2'],5,199,[0.07685045],82,53,easy,minus,dotcolour,alfa,,,77,20,M,R,
626,122,38,14,4,36,44,1216,['c'],0,right,['2'],5,264,[0.00440254],52,44,hard,minus,dotcolour,alfa,,,77,20,M,R,
627,123,39,14,4,44,36,1114,['n'],0,left,['3'],4,58,[-0.07518269],94,44,hard,minus,dotcolour,alfa,,,77,20,M,R,
628,124,40,14,4,44,36,1217,['n'],0,left,['3'],4,81,[-0.07388171],91,44,hard,minus,dotcolour,alfa,,,77,20,M,R,
629,125,41,14,4,36,44,1633,['c'],0,right,['3'],4,205,[0.05493339],75,44,hard,minus,dotcolour,alfa,,,77,20,M,R,
630,0,0,15,5,44,36,916,['c'],1,left,['2'],5,191,[-0.01670664],20,44,hard,plus,dotcolour,alfa,,,77,20,M,R,
631,1,1,15,5,47,33,500,['c'],1,left,['2'],5,100,[0.11932313],100,47,medium,plus,dotcolour,alfa,,,77,20,M,R,
632,2,2,15,5,53,27,731,['c'],1,left,['1'],6,69,[0.09987879],100,53,easy,plus,dotcolour,alfa,,,77,20,M,R,
633,3,3,15,5,27,53,614,['n'],1,right,['1'],6,66,[-0.08100144],100,53,easy,plus,dotcolour,alfa,,,77,20,M,R,
634,4,4,15,5,27,53,1100,['c'],0,right,['8'],3,677,[-0.16964732],0,53,easy,plus,dotcolour,alfa,,,77,20,M,R,
635,5,5,15,5,36,44,1250,['c'],0,right,['3'],4,16,[0.05317168],100,44,hard,plus,dotcolour,alfa,,,77,20,M,R,
636,6,6,15,5,47,33,1081,['c'],1,left,['2'],5,278,[0.13827446],100,47,medium,plus,dotcolour,alfa,,,77,20,M,R,
637,7,7,15,5,27,53,765,['n'],1,right,['1'],6,126,[-0.04621176],99,53,easy,plus,dotcolour,alfa,,,77,20,M,R,
638,8,8,15,5,47,33,798,['c'],1,left,['1'],6,105,[0.1392758],100,47,medium,plus,dotcolour,alfa,,,77,20,M,R,
639,9,9,15,5,53,27,700,['c'],1,left,['1'],6,59,[0.08980485],100,53,easy,plus,dotcolour,alfa,,,77,20,M,R,
640,10,10,15,5,36,44,1399,['c'],0,right,['3'],4,193,[0.05630599],99,44,hard,plus,dotcolour,alfa,,,77,20,M,R,
641,11,11,15,5,47,33,666,['c'],1,left,['1'],6,96,[0.02307556],94,47,medium,plus,dotcolour,alfa,,,77,20,M,R,
642,12,12,15,5,47,33,548,['c'],1,left,['1'],6,111,[0.08921417],100,47,medium,plus,dotcolour,alfa,,,77,20,M,R,
643,13,13,15,5,33,47,1100,['n'],1,right,['3'],4,144,[-0.12924487],100,47,medium,plus,dotcolour,alfa,,,77,20,M,R,
644,14,14,15,5,27,53,849,['c'],0,right,['3'],4,73,[0.03606438],99,53,easy,plus,dotcolour,alfa,,,77,20,M,R,
645,15,15,15,5,33,47,1247,['c'],0,right,['3'],4,150,[0.06854649],100,47,medium,plus,dotcolour,alfa,,,77,20,M,R,
646,16,16,15,5,36,44,1115,['n'],1,right,['8'],3,221,[-0.1123762],100,44,hard,plus,dotcolour,alfa,,,77,20,M,R,
647,17,17,15,5,36,44,1184,['n'],1,right,['3'],4,110,[-0.06338935],100,44,hard,plus,dotcolour,alfa,,,77,20,M,R,
648,18,18,15,5,33,47,1431,['n'],1,right,['3'],4,81,[-0.1267948],100,47,medium,plus,dotcolour,alfa,,,77,20,M,R,
649,19,19,15,5,33,47,2316,['c'],0,right,['3'],4,114,[0.0650387],100,47,medium,plus,dotcolour,alfa,,,77,20,M,R,
650,20,20,15,5,53,27,949,['c'],1,left,['1'],6,65,[0.08996767],100,53,easy,plus,dotcolour,alfa,,,77,20,M,R,
651,21,21,15,5,33,47,1048,['n'],1,right,['2'],5,126,[-0.05361995],100,47,medium,plus,dotcolour,alfa,,,77,20,M,R,
652,22,22,15,5,47,33,1230,['c'],1,left,['3'],4,200,[0.07076212],100,47,medium,plus,dotcolour,alfa,,,77,20,M,R,
653,23,23,15,5,44,36,1765,['n'],0,left,['8'],3,715,[0.04254622],14,44,hard,plus,dotcolour,alfa,,,77,20,M,R,
654,24,24,15,5,44,36,748,['c'],1,left,['1'],6,73,[0.05801492],100,44,hard,plus,dotcolour,alfa,,,77,20,M,R,
655,25,25,15,5,36,44,648,['n'],1,right,['1'],6,86,[-0.08566959],100,44,hard,plus,dotcolour,alfa,,,77,20,M,R,
656,26,26,15,5,27,53,1330,['n'],1,right,['2'],5,54,[-0.07604465],100,53,easy,plus,dotcolour,alfa,,,77,20,M,R,
657,27,27,15,5,47,33,616,['c'],1,left,['1'],6,85,[0.10066714],100,47,medium,plus,dotcolour,alfa,,,77,20,M,R,
658,28,28,15,5,36,44,716,['n'],1,right,['1'],6,70,[-0.08228446],100,44,hard,plus,dotcolour,alfa,,,77,20,M,R,
659,29,29,15,5,53,27,617,['c'],1,left,['1'],6,75,[0.07557372],100,53,easy,plus,dotcolour,alfa,,,77,20,M,R,
660,30,30,15,5,33,47,583,['n'],1,right,['1'],6,66,[-0.08997348],100,47,medium,plus,dotcolour,alfa,,,77,20,M,R,
661,31,31,15,5,53,27,566,['c'],1,left,['1'],6,82,[0.04279048],100,53,easy,plus,dotcolour,alfa,,,77,20,M,R,
662,32,32,15,5,44,36,665,['n'],0,left,['1'],6,70,[-0.11204707],100,44,hard,plus,dotcolour,alfa,,,77,20,M,R,
663,33,33,15,5,53,27,715,['c'],1,left,['1'],6,104,[0.06680333],100,53,easy,plus,dotcolour,alfa,,,77,20,M,R,
664,34,34,15,5,44,36,1381,['c'],1,left,['2'],5,45,[0.04301211],100,44,hard,plus,dotcolour,alfa,,,77,20,M,R,
665,35,35,15,5,44,36,1167,['c'],1,left,['2'],5,70,[0.0599094],100,44,hard,plus,dotcolour,alfa,,,77,20,M,R,
666,36,36,15,5,44,36,632,['n'],0,left,['2'],5,139,[-0.06305073],100,44,hard,plus,dotcolour,alfa,,,77,20,M,R,
667,37,37,15,5,27,53,797,['n'],1,right,['1'],6,24,[-0.05561584],100,53,easy,plus,dotcolour,alfa,,,77,20,M,R,
668,38,38,15,5,33,47,1148,['c'],0,right,['1'],6,114,[0.11200761],100,47,medium,plus,dotcolour,alfa,,,77,20,M,R,
669,39,39,15,5,53,27,731,['c'],1,left,['1'],6,66,[0.05488227],100,53,easy,plus,dotcolour,alfa,,,77,20,M,R,
670,40,40,15,5,36,44,832,['n'],1,right,['2'],5,119,[-0.04906547],99,44,hard,plus,dotcolour,alfa,,,77,20,M,R,
671,41,41,15,5,27,53,965,['n'],1,right,['1'],6,77,[-0.04988727],100,53,easy,plus,dotcolour,alfa,,,77,20,M,R,
672,42,0,16,5,36,44,584,['n'],1,right,['2'],5,202,[-0.09941566],100,44,hard,plus,dotcolour,alfa,,,77,20,M,R,
673,43,1,16,5,53,27,583,['c'],1,left,['1'],6,91,[0.09355962],100,53,easy,plus,dotcolour,alfa,,,77,20,M,R,
674,44,2,16,5,47,33,482,['c'],1,left,['2'],5,166,[0.08295701],100,47,medium,plus,dotcolour,alfa,,,77,20,M,R,
675,45,3,16,5,44,36,700,['c'],1,left,['2'],5,156,[0.068328],100,44,hard,plus,dotcolour,alfa,,,77,20,M,R,
676,46,4,16,5,47,33,530,['c'],1,left,['2'],5,106,[0.06365143],100,47,medium,plus,dotcolour,alfa,,,77,20,M,R,
677,47,5,16,5,47,33,582,['c'],1,left,['2'],5,56,[0.08128464],100,47,medium,plus,dotcolour,alfa,,,77,20,M,R,
678,48,6,16,5,27,53,563,['n'],1,right,['2'],5,121,[-0.06046564],100,53,easy,plus,dotcolour,alfa,,,77,20,M,R,
679,49,7,16,5,53,27,714,['c'],1,left,['1'],6,129,[0.11361985],100,53,easy,plus,dotcolour,alfa,,,77,20,M,R,
680,50,8,16,5,27,53,680,['n'],1,right,['1'],6,129,[-0.10909801],100,53,easy,plus,dotcolour,alfa,,,77,20,M,R,
681,51,9,16,5,36,44,665,['c'],0,right,['2'],5,179,[0.17843288],100,44,hard,plus,dotcolour,alfa,,,77,20,M,R,
682,52,10,16,5,33,47,515,['n'],1,right,['1'],6,112,[-0.05300196],100,47,medium,plus,dotcolour,alfa,,,77,20,M,R,
683,53,11,16,5,36,44,667,['c'],0,right,['1'],6,147,[0.04623391],99,44,hard,plus,dotcolour,alfa,,,77,20,M,R,
684,54,12,16,5,36,44,1150,['n'],1,right,['3'],4,95,[-0.0771127],100,44,hard,plus,dotcolour,alfa,,,77,20,M,R,
685,55,13,16,5,44,36,898,['n'],0,left,['2'],5,73,[-0.05741666],100,44,hard,plus,dotcolour,alfa,,,77,20,M,R,
686,56,14,16,5,27,53,647,['n'],1,right,['1'],6,142,[-0.06972679],100,53,easy,plus,dotcolour,alfa,,,77,20,M,R,
687,57,15,16,5,47,33,682,['c'],1,left,['1'],6,78,[0.03764478],99,47,medium,plus,dotcolour,alfa,,,77,20,M,R,
688,58,16,16,5,27,53,565,['n'],1,right,['2'],5,165,[-0.14747162],100,53,easy,plus,dotcolour,alfa,,,77,20,M,R,
689,59,17,16,5,44,36,632,['n'],0,left,['9'],2,1254,[0.12520483],2,44,hard,plus,dotcolour,alfa,,,77,20,M,R,
690,60,18,16,5,36,44,1081,['n'],1,right,['1'],6,82,[-0.0880142],100,44,hard,plus,dotcolour,alfa,,,77,20,M,R,
691,61,19,16,5,33,47,598,['n'],1,right,['2'],5,232,[-0.1251836],100,47,medium,plus,dotcolour,alfa,,,77,20,M,R,
692,62,20,16,5,33,47,1500,['c'],0,right,['8'],3,196,[0.05067993],98,47,medium,plus,dotcolour,alfa,,,77,20,M,R,
693,63,21,16,5,44,36,1048,['n'],0,left,['2'],5,91,[-0.06222357],100,44,hard,plus,dotcolour,alfa,,,77,20,M,R,
694,64,22,16,5,33,47,815,['n'],1,right,['2'],5,240,[-0.13876584],100,47,medium,plus,dotcolour,alfa,,,77,20,M,R,
695,65,23,16,5,47,33,615,['c'],1,left,['1'],6,168,[0.11362814],100,47,medium,plus,dotcolour,alfa,,,77,20,M,R,
696,66,24,16,5,53,27,598,['c'],1,left,['1'],6,90,[0.08597331],100,53,easy,plus,dotcolour,alfa,,,77,20,M,R,
697,67,25,16,5,27,53,700,['n'],1,right,['1'],6,67,[-0.08508649],100,53,easy,plus,dotcolour,alfa,,,77,20,M,R,
698,68,26,16,5,44,36,615,['c'],1,left,['2'],5,130,[0.08654237],100,44,hard,plus,dotcolour,alfa,,,77,20,M,R,
699,69,27,16,5,27,53,583,['n'],1,right,['2'],5,38,[-0.05149899],100,53,easy,plus,dotcolour,alfa,,,77,20,M,R,
700,70,28,16,5,44,36,682,['c'],1,left,['2'],5,130,[0.10275396],100,44,hard,plus,dotcolour,alfa,,,77,20,M,R,
701,71,29,16,5,53,27,633,['c'],1,left,['1'],6,109,[0.14923196],100,53,easy,plus,dotcolour,alfa,,,77,20,M,R,
702,72,30,16,5,53,27,899,['c'],1,left,['1'],6,85,[0.06541339],100,53,easy,plus,dotcolour,alfa,,,77,20,M,R,
703,73,31,16,5,53,27,1415,['n'],0,left,['3'],4,859,[0.02035848],31,53,easy,plus,dotcolour,alfa,,,77,20,M,R,
704,74,32,16,5,36,44,714,['n'],1,right,['3'],4,69,[-0.06814976],100,44,hard,plus,dotcolour,alfa,,,77,20,M,R,
705,75,33,16,5,27,53,666,['n'],1,right,['2'],5,153,[-0.11621816],100,53,easy,plus,dotcolour,alfa,,,77,20,M,R,
706,76,34,16,5,47,33,981,['c'],1,left,['3'],4,565,[0.15459211],100,47,medium,plus,dotcolour,alfa,,,77,20,M,R,
707,77,35,16,5,33,47,765,['n'],1,right,['2'],5,57,[-0.05880523],100,47,medium,plus,dotcolour,alfa,,,77,20,M,R,
708,78,36,16,5,53,27,917,['c'],1,left,['2'],5,75,[0.10004682],100,53,easy,plus,dotcolour,alfa,,,77,20,M,R,
709,79,37,16,5,47,33,1300,['c'],1,left,['3'],4,37,[0.04954555],100,47,medium,plus,dotcolour,alfa,,,77,20,M,R,
710,80,38,16,5,36,44,583,['n'],1,right,['1'],6,94,[-0.09639333],100,44,hard,plus,dotcolour,alfa,,,77,20,M,R,
711,81,39,16,5,33,47,800,['n'],1,right,['3'],4,92,[-0.06260455],100,47,medium,plus,dotcolour,alfa,,,77,20,M,R,
712,82,40,16,5,33,47,532,['n'],1,right,['3'],4,123,[-0.14288134],100,47,medium,plus,dotcolour,alfa,,,77,20,M,R,
713,83,41,16,5,44,36,565,['c'],1,left,['2'],5,41,[0.07009444],100,44,hard,plus,dotcolour,alfa,,,77,20,M,R,
714,84,0,17,5,33,47,883,['n'],1,right,['2'],5,182,[-0.11001031],100,47,medium,plus,dotcolour,alfa,,,77,20,M,R,
715,85,1,17,5,53,27,849,['c'],1,left,['2'],5,102,[0.14029528],100,53,easy,plus,dotcolour,alfa,,,77,20,M,R,
716,86,2,17,5,36,44,565,['n'],1,right,['2'],5,85,[-0.07396941],100,44,hard,plus,dotcolour,alfa,,,77,20,M,R,
717,87,3,17,5,33,47,500,['n'],1,right,['2'],5,87,[-0.09704641],100,47,medium,plus,dotcolour,alfa,,,77,20,M,R,
718,88,4,17,5,27,53,850,['n'],1,right,['3'],4,123,[-0.08063046],100,53,easy,plus,dotcolour,alfa,,,77,20,M,R,
719,89,5,17,5,33,47,716,['c'],0,right,['2'],5,99,[0.09559849],100,47,medium,plus,dotcolour,alfa,,,77,20,M,R,
720,90,6,17,5,33,47,1182,['c'],0,right,['2'],5,81,[0.04206404],100,47,medium,plus,dotcolour,alfa,,,77,20,M,R,
721,91,7,17,5,33,47,882,['n'],1,right,['1'],6,259,[-0.18802875],100,47,medium,plus,dotcolour,alfa,,,77,20,M,R,
722,92,8,17,5,36,44,797,['n'],1,right,['3'],4,74,[-0.09722585],100,44,hard,plus,dotcolour,alfa,,,77,20,M,R,
723,93,9,17,5,47,33,1233,['c'],1,left,['3'],4,128,[0.07052711],100,47,medium,plus,dotcolour,alfa,,,77,20,M,R,
724,94,10,17,5,47,33,798,['c'],1,left,['3'],4,83,[0.08134076],100,47,medium,plus,dotcolour,alfa,,,77,20,M,R,
725,95,11,17,5,27,53,648,['n'],1,right,['2'],5,184,[-0.04481406],98,53,easy,plus,dotcolour,alfa,,,77,20,M,R,
726,96,12,17,5,53,27,633,['c'],1,left,['2'],5,88,[0.12979934],100,53,easy,plus,dotcolour,alfa,,,77,20,M,R,
727,97,13,17,5,53,27,565,['c'],1,left,['2'],5,87,[0.11411448],100,53,easy,plus,dotcolour,alfa,,,77,20,M,R,
728,98,14,17,5,53,27,432,['c'],1,left,['1'],6,83,[0.05389336],100,53,easy,plus,dotcolour,alfa,,,77,20,M,R,
729,99,15,17,5,27,53,548,['n'],1,right,['2'],5,43,[-0.09218279],100,53,easy,plus,dotcolour,alfa,,,77,20,M,R,
730,100,16,17,5,47,33,598,['c'],1,left,['1'],6,66,[0.05621325],100,47,medium,plus,dotcolour,alfa,,,77,20,M,R,
731,101,17,17,5,53,27,548,['c'],1,left,['1'],6,75,[0.06190581],100,53,easy,plus,dotcolour,alfa,,,77,20,M,R,
732,102,18,17,5,47,33,598,['c'],1,left,['1'],6,89,[0.1226483],100,47,medium,plus,dotcolour,alfa,,,77,20,M,R,
733,103,19,17,5,44,36,548,['c'],1,left,['1'],6,56,[0.02308469],97,44,hard,plus,dotcolour,alfa,,,77,20,M,R,
734,104,20,17,5,44,36,465,['c'],1,left,['1'],6,101,[0.13306571],100,44,hard,plus,dotcolour,alfa,,,77,20,M,R,
735,105,21,17,5,53,27,467,['c'],1,left,['1'],6,87,[0.06610533],100,53,easy,plus,dotcolour,alfa,,,77,20,M,R,
736,106,22,17,5,44,36,1200,['c'],1,left,['3'],4,605,[0.15209489],100,44,hard,plus,dotcolour,alfa,,,77,20,M,R,
737,107,23,17,5,27,53,682,['n'],1,right,['2'],5,291,[-0.13702781],100,53,easy,plus,dotcolour,alfa,,,77,20,M,R,
738,108,24,17,5,47,33,549,['c'],1,left,['1'],6,74,[0.05720143],100,47,medium,plus,dotcolour,alfa,,,77,20,M,R,
739,109,25,17,5,47,33,950,['c'],1,left,['2'],5,67,[0.06876966],100,47,medium,plus,dotcolour,alfa,,,77,20,M,R,
740,110,26,17,5,44,36,547,['c'],1,left,['3'],4,299,[0.16303269],100,44,hard,plus,dotcolour,alfa,,,77,20,M,R,
741,111,27,17,5,36,44,781,['n'],1,right,['2'],5,105,[-0.06747262],100,44,hard,plus,dotcolour,alfa,,,77,20,M,R,
742,112,28,17,5,27,53,532,['n'],1,right,['1'],6,97,[-0.13204239],100,53,easy,plus,dotcolour,alfa,,,77,20,M,R,
743,113,29,17,5,44,36,550,['c'],1,left,['2'],5,97,[0.06360041],100,44,hard,plus,dotcolour,alfa,,,77,20,M,R,
744,114,30,17,5,36,44,566,['n'],1,right,['2'],5,55,[-0.08094998],100,44,hard,plus,dotcolour,alfa,,,77,20,M,R,
745,115,31,17,5,53,27,533,['c'],1,left,['2'],5,81,[0.06013655],100,53,easy,plus,dotcolour,alfa,,,77,20,M,R,
746,116,32,17,5,27,53,531,['n'],1,right,['1'],6,58,[-0.12544106],100,53,easy,plus,dotcolour,alfa,,,77,20,M,R,
747,117,33,17,5,44,36,565,['c'],1,left,['2'],5,59,[0.04722004],100,44,hard,plus,dotcolour,alfa,,,77,20,M,R,
748,118,34,17,5,44,36,582,['c'],1,left,['3'],4,250,[0.14137709],100,44,hard,plus,dotcolour,alfa,,,77,20,M,R,
749,119,35,17,5,47,33,667,['c'],1,left,['3'],4,119,[0.09477376],100,47,medium,plus,dotcolour,alfa,,,77,20,M,R,
750,120,36,17,5,33,47,598,['n'],1,right,['1'],6,67,[-0.1151154],100,47,medium,plus,dotcolour,alfa,,,77,20,M,R,
751,121,37,17,5,33,47,1414,['c'],0,right,['3'],4,9,[0.07726526],100,47,medium,plus,dotcolour,alfa,,,77,20,M,R,
752,122,38,17,5,27,53,417,['n'],1,right,['1'],6,65,[-0.0385697],100,53,easy,plus,dotcolour,alfa,,,77,20,M,R,
753,123,39,17,5,36,44,716,['c'],0,right,['3'],4,147,[0.07142011],100,44,hard,plus,dotcolour,alfa,,,77,20,M,R,
754,124,40,17,5,36,44,1780,['n'],1,right,['2'],5,263,[-0.12761102],100,44,hard,plus,dotcolour,alfa,,,77,20,M,R,
755,125,41,17,5,36,44,966,['c'],0,right,['3'],4,552,[0.08404038],98,44,hard,plus,dotcolour,alfa,,,77,20,M,R,
,,,,,,,,,,,,,,,,,,,,,1,"de feedback was soms heel specifiek en bijna nooit in de extreme scores, en soms altijd rond de extreme scores van honderd en nul procent",77,20,M,R,
,,,,,,,,,,,,,,,,,,,,,2,['f'],77,20,M,R,
,,,,,,,,,,,,,,,,,,,,,3,['f'],77,20,M,R,
,,,,,,,,,,,,,,,,,,,,,5,['3'],77,20,M,R,
