trial,withinphasetrial,withinblocktrial,block,phase,dotsLeft,dotsRight,rt,resp,cor,cresp,conf_press,cj,RTconf,ev,fb,diff,difflevel,condition,task,manip,questionID,questionResp,sub,age,gender,handedness,
0,0,0,0,0,44,36,3654,['c'],1,left,['1'],1,3559,[0.40550176],97,44,hard,minus,dotcolour,beta,,,11,19,V,R,
1,1,1,0,0,27,53,3287,['c'],0,right,['1'],1,1293,[-0.08598007],10,53,easy,minus,dotcolour,beta,,,11,19,V,R,
2,2,2,0,0,27,53,1552,['n'],1,right,['8'],4,2831,[-0.35375611],96,53,easy,minus,dotcolour,beta,,,11,19,V,R,
3,3,3,0,0,33,47,2987,['n'],1,right,['8'],4,1800,[-0.17208029],83,47,medium,minus,dotcolour,beta,,,11,19,V,R,
4,4,4,0,0,53,27,1669,['c'],1,left,['8'],4,2865,[0.47979472],99,53,easy,minus,dotcolour,beta,,,11,19,V,R,
5,5,5,0,0,33,47,1602,['c'],0,right,['9'],5,1097,[-0.13663208],4,47,medium,minus,dotcolour,beta,,,11,19,V,R,
6,6,6,0,0,33,47,1169,['c'],0,right,['9'],5,436,[0.10152876],78,47,medium,minus,dotcolour,beta,,,11,19,V,R,
7,7,7,0,0,44,36,1034,['c'],1,left,['9'],5,431,[0.14087808],91,44,hard,minus,dotcolour,beta,,,11,19,V,R,
8,8,8,0,0,27,53,1117,['c'],0,right,['9'],5,375,[0.04573853],43,53,easy,minus,dotcolour,beta,,,11,19,V,R,
9,9,9,0,0,44,36,985,['c'],1,left,['9'],5,351,[0.11680039],87,44,hard,minus,dotcolour,beta,,,11,19,V,R,
10,10,10,0,0,44,36,1119,['c'],1,left,['3'],3,1179,[0.23264058],95,44,hard,minus,dotcolour,beta,,,11,19,V,R,
11,11,11,0,0,53,27,1251,['c'],1,left,['9'],5,830,[0.28910953],99,53,easy,minus,dotcolour,beta,,,11,19,V,R,
12,12,12,0,0,53,27,1152,['c'],1,left,['0'],6,413,[0.14755278],93,53,easy,minus,dotcolour,beta,,,11,19,V,R,
13,13,13,0,0,53,27,818,['c'],1,left,['0'],6,370,[0.00508989],18,53,easy,minus,dotcolour,beta,,,11,19,V,R,
14,14,14,0,0,44,36,2169,['n'],0,left,['3'],3,762,[-0.09811533],71,44,hard,minus,dotcolour,beta,,,11,19,V,R,
15,15,15,0,0,44,36,951,['c'],1,left,['9'],5,667,[0.1223889],81,44,hard,minus,dotcolour,beta,,,11,19,V,R,
16,16,16,0,0,27,53,1235,['c'],0,right,['3'],3,1509,[-0.22435787],2,53,easy,minus,dotcolour,beta,,,11,19,V,R,
17,17,17,0,0,33,47,1219,['c'],0,right,['3'],3,1197,[0.01929527],36,47,medium,minus,dotcolour,beta,,,11,19,V,R,
18,18,18,0,0,47,33,852,['c'],1,left,['3'],3,513,[0.18733499],96,47,medium,minus,dotcolour,beta,,,11,19,V,R,
19,19,19,0,0,47,33,2186,['c'],1,left,['8'],4,874,[0.25412629],98,47,medium,minus,dotcolour,beta,,,11,19,V,R,
20,20,20,0,0,47,33,767,['c'],1,left,['8'],4,414,[0.11708128],85,47,medium,minus,dotcolour,beta,,,11,19,V,R,
21,21,21,0,0,47,33,1052,['c'],1,left,['8'],4,441,[0.19324144],98,47,medium,minus,dotcolour,beta,,,11,19,V,R,
22,22,22,0,0,53,27,634,['c'],1,left,['8'],4,677,[0.09956357],72,53,easy,minus,dotcolour,beta,,,11,19,V,R,
23,23,23,0,0,44,36,668,['c'],1,left,['9'],5,421,[-0.01159464],13,44,hard,minus,dotcolour,beta,,,11,19,V,R,
24,24,24,0,0,33,47,801,['c'],0,right,['9'],5,387,[0.10578164],81,47,medium,minus,dotcolour,beta,,,11,19,V,R,
25,25,25,0,0,36,44,818,['c'],0,right,['8'],4,457,[0.07728713],64,44,hard,minus,dotcolour,beta,,,11,19,V,R,
26,26,26,0,0,33,47,3120,['n'],1,right,['3'],3,1302,[0.10178068],8,47,medium,minus,dotcolour,beta,,,11,19,V,R,
27,27,27,0,0,36,44,1819,['n'],1,right,['8'],4,1389,[-0.14778107],80,44,hard,minus,dotcolour,beta,,,11,19,V,R,
28,28,28,0,0,47,33,968,['c'],1,left,['8'],4,692,[0.03558495],39,47,medium,minus,dotcolour,beta,,,11,19,V,R,
29,29,29,0,0,47,33,784,['c'],1,left,['8'],4,367,[0.13141576],90,47,medium,minus,dotcolour,beta,,,11,19,V,R,
30,30,30,0,0,47,33,1418,['n'],0,left,['3'],3,638,[0.10106974],3,47,medium,minus,dotcolour,beta,,,11,19,V,R,
31,31,31,0,0,27,53,1752,['c'],0,right,['8'],4,667,[0.00561211],25,53,easy,minus,dotcolour,beta,,,11,19,V,R,
32,32,32,0,0,53,27,2319,['c'],1,left,['8'],4,472,[0.25280118],99,53,easy,minus,dotcolour,beta,,,11,19,V,R,
33,33,33,0,0,36,44,1151,['c'],0,right,['8'],4,773,[0.01915235],32,44,hard,minus,dotcolour,beta,,,11,19,V,R,
34,34,34,0,0,36,44,1236,['c'],0,right,['8'],4,770,[0.10087019],72,44,hard,minus,dotcolour,beta,,,11,19,V,R,
35,35,35,0,0,33,47,1118,['c'],0,right,['9'],5,540,[0.04397807],43,47,medium,minus,dotcolour,beta,,,11,19,V,R,
36,36,36,0,0,27,53,834,['n'],1,right,['8'],4,627,[-0.27535357],99,53,easy,minus,dotcolour,beta,,,11,19,V,R,
37,37,37,0,0,36,44,952,['c'],0,right,['9'],5,410,[-0.02813535],9,44,hard,minus,dotcolour,beta,,,11,19,V,R,
38,38,38,0,0,36,44,718,['c'],0,right,['0'],6,619,[0.03745955],40,44,hard,minus,dotcolour,beta,,,11,19,V,R,
39,39,39,0,0,53,27,651,['c'],1,left,['0'],6,375,[0.08112087],68,53,easy,minus,dotcolour,beta,,,11,19,V,R,
40,40,40,0,0,27,53,1552,['n'],1,right,['8'],4,880,[-0.06033406],52,53,easy,minus,dotcolour,beta,,,11,19,V,R,
41,41,41,0,0,36,44,2453,['c'],0,right,['8'],4,2519,[-0.01624483],31,44,hard,minus,dotcolour,beta,,,11,19,V,R,
42,42,0,1,0,47,33,1502,['c'],1,left,['8'],4,687,[0.1538573],89,47,medium,minus,dotcolour,beta,,,11,19,V,R,
43,43,1,1,0,47,33,1651,['c'],1,left,['8'],4,503,[0.1679792],95,47,medium,minus,dotcolour,beta,,,11,19,V,R,
44,44,2,1,0,53,27,1202,['c'],1,left,['8'],4,545,[0.00461761],22,53,easy,minus,dotcolour,beta,,,11,19,V,R,
45,45,3,1,0,36,44,1053,['c'],0,right,['8'],4,415,[0.09123437],73,44,hard,minus,dotcolour,beta,,,11,19,V,R,
46,46,4,1,0,53,27,2136,['c'],1,left,['8'],4,702,[0.19903777],96,53,easy,minus,dotcolour,beta,,,11,19,V,R,
47,47,5,1,0,36,44,1051,['c'],0,right,['8'],4,405,[0.05378051],49,44,hard,minus,dotcolour,beta,,,11,19,V,R,
48,48,6,1,0,27,53,1469,['n'],1,right,['8'],4,793,[-0.17309937],91,53,easy,minus,dotcolour,beta,,,11,19,V,R,
49,49,7,1,0,36,44,2453,['c'],0,right,['8'],4,507,[0.2168058],98,44,hard,minus,dotcolour,beta,,,11,19,V,R,
50,50,8,1,0,44,36,801,['c'],1,left,['8'],4,429,[0.09094208],73,44,hard,minus,dotcolour,beta,,,11,19,V,R,
51,51,9,1,0,27,53,1602,['n'],1,right,['8'],4,1210,[-0.24841516],96,53,easy,minus,dotcolour,beta,,,11,19,V,R,
52,52,10,1,0,33,47,1986,['c'],0,right,['9'],5,622,[0.07344352],60,47,medium,minus,dotcolour,beta,,,11,19,V,R,
53,53,11,1,0,44,36,834,['c'],1,left,['3'],3,2162,[0.29350267],95,44,hard,minus,dotcolour,beta,,,11,19,V,R,
54,54,12,1,0,44,36,1001,['c'],1,left,['8'],4,607,[0.11376523],79,44,hard,minus,dotcolour,beta,,,11,19,V,R,
55,55,13,1,0,36,44,1185,['n'],1,right,['8'],4,669,[-0.09311202],70,44,hard,minus,dotcolour,beta,,,11,19,V,R,
56,56,14,1,0,27,53,1552,['c'],0,right,['8'],4,529,[0.0689053],58,53,easy,minus,dotcolour,beta,,,11,19,V,R,
57,57,15,1,0,36,44,801,['c'],0,right,['8'],4,474,[0.03899256],39,44,hard,minus,dotcolour,beta,,,11,19,V,R,
58,58,16,1,0,36,44,801,['c'],0,right,['9'],5,886,[0.12798689],80,44,hard,minus,dotcolour,beta,,,11,19,V,R,
59,59,17,1,0,53,27,650,['c'],1,left,['9'],5,422,[0.2486608],100,53,easy,minus,dotcolour,beta,,,11,19,V,R,
60,60,18,1,0,44,36,801,['c'],1,left,['0'],6,732,[-0.00333079],22,44,hard,minus,dotcolour,beta,,,11,19,V,R,
61,61,19,1,0,27,53,1319,['n'],1,right,['8'],4,735,[-0.25231655],98,53,easy,minus,dotcolour,beta,,,11,19,V,R,
62,62,20,1,0,44,36,718,['c'],1,left,['0'],6,475,[0.08404793],68,44,hard,minus,dotcolour,beta,,,11,19,V,R,
63,63,21,1,0,27,53,934,['n'],1,right,['0'],6,561,[-0.19075013],96,53,easy,minus,dotcolour,beta,,,11,19,V,R,
64,64,22,1,0,47,33,701,['c'],1,left,['0'],6,525,[0.14217861],90,47,medium,minus,dotcolour,beta,,,11,19,V,R,
65,65,23,1,0,47,33,852,['c'],1,left,['0'],6,492,[0.06565731],56,47,medium,minus,dotcolour,beta,,,11,19,V,R,
66,66,24,1,0,53,27,701,['c'],1,left,['9'],5,466,[0.10983028],81,53,easy,minus,dotcolour,beta,,,11,19,V,R,
67,67,25,1,0,53,27,735,['c'],1,left,['9'],5,384,[0.11617431],85,53,easy,minus,dotcolour,beta,,,11,19,V,R,
68,68,26,1,0,27,53,1368,['n'],1,right,['9'],5,648,[-0.16609151],92,53,easy,minus,dotcolour,beta,,,11,19,V,R,
69,69,27,1,0,33,47,817,['c'],0,right,['8'],4,1036,[-0.18392936],1,47,medium,minus,dotcolour,beta,,,11,19,V,R,
70,70,28,1,0,44,36,1235,['c'],1,left,['8'],4,574,[0.03496104],38,44,hard,minus,dotcolour,beta,,,11,19,V,R,
71,71,29,1,0,33,47,1035,['c'],0,right,['3'],3,547,[-0.00013283],21,47,medium,minus,dotcolour,beta,,,11,19,V,R,
72,72,30,1,0,33,47,1869,['c'],0,right,['8'],4,3392,[-0.45296913],1,47,medium,minus,dotcolour,beta,,,11,19,V,R,
73,73,31,1,0,33,47,1319,['n'],1,right,['8'],4,430,[-0.07574928],64,47,medium,minus,dotcolour,beta,,,11,19,V,R,
74,74,32,1,0,53,27,651,['c'],1,left,['9'],5,537,[0.09821173],74,53,easy,minus,dotcolour,beta,,,11,19,V,R,
75,75,33,1,0,47,33,868,['c'],1,left,['9'],5,336,[0.15056423],95,47,medium,minus,dotcolour,beta,,,11,19,V,R,
76,76,34,1,0,47,33,651,['c'],1,left,['9'],5,351,[0.10411775],81,47,medium,minus,dotcolour,beta,,,11,19,V,R,
77,77,35,1,0,33,47,435,['c'],0,right,['9'],5,327,[0.22442581],100,47,medium,minus,dotcolour,beta,,,11,19,V,R,
78,78,36,1,0,53,27,618,['c'],1,left,['9'],5,280,[0.06458374],58,53,easy,minus,dotcolour,beta,,,11,19,V,R,
79,79,37,1,0,44,36,718,['c'],1,left,['9'],5,398,[0.04298413],41,44,hard,minus,dotcolour,beta,,,11,19,V,R,
80,80,38,1,0,33,47,1151,['n'],1,right,['8'],4,806,[-0.26282856],98,47,medium,minus,dotcolour,beta,,,11,19,V,R,
81,81,39,1,0,36,44,1384,['n'],1,right,['9'],5,620,[-0.18089048],95,44,hard,minus,dotcolour,beta,,,11,19,V,R,
82,82,40,1,0,47,33,801,['c'],1,left,['8'],4,618,[0.15770137],91,47,medium,minus,dotcolour,beta,,,11,19,V,R,
83,83,41,1,0,27,53,1152,['n'],1,right,['9'],5,617,[-0.2671927],99,53,easy,minus,dotcolour,beta,,,11,19,V,R,
84,84,0,2,0,33,47,1485,['c'],0,right,['8'],4,775,[-0.00556743],22,47,medium,minus,dotcolour,beta,,,11,19,V,R,
85,85,1,2,0,53,27,668,['c'],1,left,['9'],5,435,[0.11068996],82,53,easy,minus,dotcolour,beta,,,11,19,V,R,
86,86,2,2,0,33,47,1785,['n'],1,right,['9'],5,449,[-0.18947983],97,47,medium,minus,dotcolour,beta,,,11,19,V,R,
87,87,3,2,0,44,36,1135,['c'],1,left,['0'],6,639,[0.10323503],75,44,hard,minus,dotcolour,beta,,,11,19,V,R,
88,88,4,2,0,36,44,768,['c'],0,right,['9'],5,541,[0.16958046],94,44,hard,minus,dotcolour,beta,,,11,19,V,R,
89,89,5,2,0,53,27,718,['c'],1,left,['9'],5,473,[0.18252615],97,53,easy,minus,dotcolour,beta,,,11,19,V,R,
90,90,6,2,0,33,47,1035,['n'],1,right,['9'],5,419,[-0.12559506],88,47,medium,minus,dotcolour,beta,,,11,19,V,R,
91,91,7,2,0,44,36,917,['c'],1,left,['0'],6,547,[0.10830071],78,44,hard,minus,dotcolour,beta,,,11,19,V,R,
92,92,8,2,0,47,33,734,['c'],1,left,['9'],5,334,[0.1026103],81,47,medium,minus,dotcolour,beta,,,11,19,V,R,
93,93,9,2,0,33,47,1018,['n'],1,right,['9'],5,423,[-0.24080101],99,47,medium,minus,dotcolour,beta,,,11,19,V,R,
94,94,10,2,0,44,36,1068,['c'],1,left,['9'],5,393,[0.02996672],32,44,hard,minus,dotcolour,beta,,,11,19,V,R,
95,95,11,2,0,44,36,2136,['c'],1,left,['8'],4,833,[0.08148989],63,44,hard,minus,dotcolour,beta,,,11,19,V,R,
96,96,12,2,0,47,33,684,['c'],1,left,['8'],4,506,[0.2348319],99,47,medium,minus,dotcolour,beta,,,11,19,V,R,
97,97,13,2,0,33,47,885,['n'],1,right,['8'],4,641,[-0.10830639],77,47,medium,minus,dotcolour,beta,,,11,19,V,R,
98,98,14,2,0,27,53,718,['n'],1,right,['8'],4,392,[-0.19109372],98,53,easy,minus,dotcolour,beta,,,11,19,V,R,
99,99,15,2,0,53,27,668,['c'],1,left,['8'],4,381,[0.14415219],93,53,easy,minus,dotcolour,beta,,,11,19,V,R,
100,100,16,2,0,47,33,634,['c'],1,left,['8'],4,379,[0.14891909],94,47,medium,minus,dotcolour,beta,,,11,19,V,R,
101,101,17,2,0,27,53,801,['n'],1,right,['8'],4,426,[-0.24753605],100,53,easy,minus,dotcolour,beta,,,11,19,V,R,
102,102,18,2,0,47,33,1152,['c'],1,left,['8'],4,385,[0.08052563],67,47,medium,minus,dotcolour,beta,,,11,19,V,R,
103,103,19,2,0,36,44,1084,['c'],0,right,['8'],4,652,[-0.11915145],2,44,hard,minus,dotcolour,beta,,,11,19,V,R,
104,104,20,2,0,36,44,1869,['n'],1,right,['8'],4,309,[-0.11570205],88,44,hard,minus,dotcolour,beta,,,11,19,V,R,
105,105,21,2,0,36,44,1318,['c'],0,right,['8'],4,330,[0.02793429],30,44,hard,minus,dotcolour,beta,,,11,19,V,R,
106,106,22,2,0,44,36,1601,['c'],1,left,['8'],4,362,[0.07769897],66,44,hard,minus,dotcolour,beta,,,11,19,V,R,
107,107,23,2,0,44,36,735,['c'],1,left,['9'],5,445,[0.11614305],84,44,hard,minus,dotcolour,beta,,,11,19,V,R,
108,108,24,2,0,27,53,1802,['n'],1,right,['8'],4,2001,[-0.24574058],92,53,easy,minus,dotcolour,beta,,,11,19,V,R,
109,109,25,2,0,47,33,834,['c'],1,left,['0'],6,331,[0.07048849],61,47,medium,minus,dotcolour,beta,,,11,19,V,R,
110,110,26,2,0,27,53,1285,['n'],1,right,['9'],5,545,[-0.03789707],39,53,easy,minus,dotcolour,beta,,,11,19,V,R,
111,111,27,2,0,36,44,1652,['n'],1,right,['9'],5,422,[-0.10302998],79,44,hard,minus,dotcolour,beta,,,11,19,V,R,
112,112,28,2,0,36,44,768,['c'],0,right,['3'],3,1045,[-0.08861522],7,44,hard,minus,dotcolour,beta,,,11,19,V,R,
113,113,29,2,0,47,33,834,['c'],1,left,['9'],5,511,[0.09845184],75,47,medium,minus,dotcolour,beta,,,11,19,V,R,
114,114,30,2,0,53,27,3237,['n'],0,left,['1'],1,477,[0.00182801],18,53,easy,minus,dotcolour,beta,,,11,19,V,R,
115,115,31,2,0,27,53,1118,['n'],1,right,['3'],3,1483,[-0.24084194],94,53,easy,minus,dotcolour,beta,,,11,19,V,R,
116,116,32,2,0,33,47,1151,['c'],0,right,['8'],4,686,[-0.04893222],9,47,medium,minus,dotcolour,beta,,,11,19,V,R,
117,117,33,2,0,53,27,634,['c'],1,left,['8'],4,399,[0.21408761],99,53,easy,minus,dotcolour,beta,,,11,19,V,R,
118,118,34,2,0,53,27,768,['c'],1,left,['9'],5,455,[0.1941664],98,53,easy,minus,dotcolour,beta,,,11,19,V,R,
119,119,35,2,0,47,33,668,['c'],1,left,['9'],5,497,[0.11847813],83,47,medium,minus,dotcolour,beta,,,11,19,V,R,
120,120,36,2,0,53,27,685,['c'],1,left,['0'],6,489,[0.20857882],98,53,easy,minus,dotcolour,beta,,,11,19,V,R,
121,121,37,2,0,27,53,1469,['n'],1,right,['3'],3,1280,[-0.31858856],98,53,easy,minus,dotcolour,beta,,,11,19,V,R,
122,122,38,2,0,27,53,1286,['n'],1,right,['8'],4,590,[-0.1020679],75,53,easy,minus,dotcolour,beta,,,11,19,V,R,
123,123,39,2,0,33,47,1668,['n'],1,right,['8'],4,2145,[-0.29317949],95,47,medium,minus,dotcolour,beta,,,11,19,V,R,
124,124,40,2,0,36,44,5757,['n'],1,right,['2'],2,1933,[-0.11722619],69,44,hard,minus,dotcolour,beta,,,11,19,V,R,
125,125,41,2,0,44,36,5206,['n'],0,left,['2'],2,3031,[0.25121133],4,44,hard,minus,dotcolour,beta,,,11,19,V,R,
126,0,0,3,1,47,33,702,['c'],1,left,['3'],3,821,[0.08584834],94,47,medium,plus,dotcolour,beta,,,11,19,V,R,
127,1,1,3,1,36,44,868,['n'],1,right,['8'],4,495,[-0.17439962],100,44,hard,plus,dotcolour,beta,,,11,19,V,R,
128,2,2,3,1,53,27,1235,['c'],1,left,['3'],3,600,[0.21924368],100,53,easy,plus,dotcolour,beta,,,11,19,V,R,
129,3,3,3,1,44,36,1152,['c'],1,left,['8'],4,448,[0.04407958],94,44,hard,plus,dotcolour,beta,,,11,19,V,R,
130,4,4,3,1,36,44,1435,['n'],1,right,['8'],4,410,[-0.12104836],99,44,hard,plus,dotcolour,beta,,,11,19,V,R,
131,5,5,3,1,27,53,868,['n'],1,right,['8'],4,373,[-0.16511692],100,53,easy,plus,dotcolour,beta,,,11,19,V,R,
132,6,6,3,1,33,47,752,['n'],1,right,['8'],4,343,[-0.13839312],100,47,medium,plus,dotcolour,beta,,,11,19,V,R,
133,7,7,3,1,27,53,1201,['n'],1,right,['8'],4,351,[-0.09996771],99,53,easy,plus,dotcolour,beta,,,11,19,V,R,
134,8,8,3,1,44,36,1301,['c'],1,left,['3'],3,803,[0.20085229],99,44,hard,plus,dotcolour,beta,,,11,19,V,R,
135,9,9,3,1,36,44,2320,['c'],0,right,['8'],4,291,[0.07624449],99,44,hard,plus,dotcolour,beta,,,11,19,V,R,
136,10,10,3,1,33,47,1285,['n'],1,right,['8'],4,322,[-0.06117916],98,47,medium,plus,dotcolour,beta,,,11,19,V,R,
137,11,11,3,1,36,44,785,['c'],0,right,['8'],4,301,[0.05065907],97,44,hard,plus,dotcolour,beta,,,11,19,V,R,
138,12,12,3,1,53,27,1086,['c'],1,left,['8'],4,323,[0.11738816],100,53,easy,plus,dotcolour,beta,,,11,19,V,R,
139,13,13,3,1,44,36,2686,['n'],0,left,['2'],2,1264,[0.10002373],33,44,hard,plus,dotcolour,beta,,,11,19,V,R,
140,14,14,3,1,47,33,1485,['n'],0,left,['2'],2,727,[0.05811518],49,47,medium,plus,dotcolour,beta,,,11,19,V,R,
141,15,15,3,1,33,47,1753,['c'],0,right,['8'],4,721,[-0.05804433],49,47,medium,plus,dotcolour,beta,,,11,19,V,R,
142,16,16,3,1,27,53,1201,['n'],1,right,['8'],4,385,[-0.16567323],100,53,easy,plus,dotcolour,beta,,,11,19,V,R,
143,17,17,3,1,47,33,885,['c'],1,left,['8'],4,581,[0.10603158],98,47,medium,plus,dotcolour,beta,,,11,19,V,R,
144,18,18,3,1,44,36,785,['c'],1,left,['8'],4,333,[0.12700259],100,44,hard,plus,dotcolour,beta,,,11,19,V,R,
145,19,19,3,1,47,33,784,['c'],1,left,['8'],4,327,[-0.06690437],41,47,medium,plus,dotcolour,beta,,,11,19,V,R,
146,20,20,3,1,53,27,768,['c'],1,left,['8'],4,338,[0.09287776],99,53,easy,plus,dotcolour,beta,,,11,19,V,R,
147,21,21,3,1,47,33,601,['c'],1,left,['8'],4,315,[0.1010657],99,47,medium,plus,dotcolour,beta,,,11,19,V,R,
148,22,22,3,1,33,47,2320,['n'],1,right,['8'],4,1295,[-0.2084417],98,47,medium,plus,dotcolour,beta,,,11,19,V,R,
149,23,23,3,1,44,36,868,['c'],1,left,['8'],4,270,[0.10577475],100,44,hard,plus,dotcolour,beta,,,11,19,V,R,
150,24,24,3,1,36,44,618,['c'],0,right,['8'],4,257,[0.09107809],99,44,hard,plus,dotcolour,beta,,,11,19,V,R,
151,25,25,3,1,36,44,651,['c'],0,right,['8'],4,267,[0.0945428],99,44,hard,plus,dotcolour,beta,,,11,19,V,R,
152,26,26,3,1,33,47,1285,['n'],1,right,['8'],4,548,[-0.09069025],97,47,medium,plus,dotcolour,beta,,,11,19,V,R,
153,27,27,3,1,47,33,2921,['c'],1,left,['1'],1,3269,[0.02655174],69,47,medium,plus,dotcolour,beta,,,11,19,V,R,
154,28,28,3,1,33,47,2537,['n'],1,right,['1'],1,423,[-0.06204122],96,47,medium,plus,dotcolour,beta,,,11,19,V,R,
155,29,29,3,1,27,53,1536,['n'],1,right,['8'],4,766,[-0.10879562],97,53,easy,plus,dotcolour,beta,,,11,19,V,R,
156,30,30,3,1,53,27,785,['c'],1,left,['8'],4,374,[0.19655765],100,53,easy,plus,dotcolour,beta,,,11,19,V,R,
157,31,31,3,1,53,27,735,['c'],1,left,['8'],4,336,[0.1395821],100,53,easy,plus,dotcolour,beta,,,11,19,V,R,
158,32,32,3,1,44,36,635,['c'],1,left,['9'],5,280,[0.04751783],97,44,hard,plus,dotcolour,beta,,,11,19,V,R,
159,33,33,3,1,33,47,1102,['n'],1,right,['9'],5,359,[-0.15219422],100,47,medium,plus,dotcolour,beta,,,11,19,V,R,
160,34,34,3,1,36,44,835,['c'],0,right,['9'],5,1014,[0.25977834],100,44,hard,plus,dotcolour,beta,,,11,19,V,R,
161,35,35,3,1,27,53,1236,['n'],1,right,['9'],5,409,[-0.10474743],99,53,easy,plus,dotcolour,beta,,,11,19,V,R,
162,36,36,3,1,44,36,819,['c'],1,left,['9'],5,359,[0.14202293],100,44,hard,plus,dotcolour,beta,,,11,19,V,R,
163,37,37,3,1,27,53,901,['n'],1,right,['9'],5,346,[-0.00398375],86,53,easy,plus,dotcolour,beta,,,11,19,V,R,
164,38,38,3,1,47,33,917,['c'],1,left,['9'],5,318,[0.15291179],100,47,medium,plus,dotcolour,beta,,,11,19,V,R,
165,39,39,3,1,53,27,818,['c'],1,left,['0'],6,1744,[0.09877707],89,53,easy,plus,dotcolour,beta,,,11,19,V,R,
166,40,40,3,1,27,53,1786,['c'],0,right,['9'],5,815,[-0.04405109],56,53,easy,plus,dotcolour,beta,,,11,19,V,R,
167,41,41,3,1,53,27,3805,['c'],1,left,['1'],1,497,[0.17651459],100,53,easy,plus,dotcolour,beta,,,11,19,V,R,
168,42,0,4,1,36,44,1369,['c'],0,right,['2'],2,1314,[0.17995843],98,44,hard,plus,dotcolour,beta,,,11,19,V,R,
169,43,1,4,1,44,36,5306,['c'],1,left,['1'],1,466,[0.09691534],98,44,hard,plus,dotcolour,beta,,,11,19,V,R,
170,44,2,4,1,27,53,985,['n'],1,right,['8'],4,847,[-0.27281447],100,53,easy,plus,dotcolour,beta,,,11,19,V,R,
171,45,3,4,1,44,36,634,['c'],1,left,['9'],5,313,[0.0758634],99,44,hard,plus,dotcolour,beta,,,11,19,V,R,
172,46,4,4,1,47,33,601,['c'],1,left,['9'],5,387,[0.06844689],97,47,medium,plus,dotcolour,beta,,,11,19,V,R,
173,47,5,4,1,53,27,668,['c'],1,left,['9'],5,304,[0.17961981],100,53,easy,plus,dotcolour,beta,,,11,19,V,R,
174,48,6,4,1,53,27,568,['c'],1,left,['9'],5,268,[0.15864756],100,53,easy,plus,dotcolour,beta,,,11,19,V,R,
175,49,7,4,1,36,44,1268,['n'],1,right,['8'],4,389,[-0.06638751],97,44,hard,plus,dotcolour,beta,,,11,19,V,R,
176,50,8,4,1,53,27,618,['c'],1,left,['0'],6,339,[0.0735665],98,53,easy,plus,dotcolour,beta,,,11,19,V,R,
177,51,9,4,1,33,47,3838,['c'],0,right,['8'],4,3824,[-0.28086804],11,47,medium,plus,dotcolour,beta,,,11,19,V,R,
178,52,10,4,1,47,33,1035,['c'],1,left,['8'],4,695,[0.17640848],99,47,medium,plus,dotcolour,beta,,,11,19,V,R,
179,53,11,4,1,27,53,2285,['n'],1,right,['9'],5,365,[-0.16872864],100,53,easy,plus,dotcolour,beta,,,11,19,V,R,
180,54,12,4,1,47,33,1719,['c'],1,left,['8'],4,423,[0.26963327],100,47,medium,plus,dotcolour,beta,,,11,19,V,R,
181,55,13,4,1,47,33,2619,['c'],1,left,['8'],4,1578,[0.24450682],99,47,medium,plus,dotcolour,beta,,,11,19,V,R,
182,56,14,4,1,36,44,2537,['n'],1,right,['3'],3,3569,[-0.1342844],86,44,hard,plus,dotcolour,beta,,,11,19,V,R,
183,57,15,4,1,47,33,2286,['c'],1,left,['8'],4,1247,[0.07790253],90,47,medium,plus,dotcolour,beta,,,11,19,V,R,
184,58,16,4,1,27,53,918,['n'],1,right,['8'],4,510,[-0.11919128],99,53,easy,plus,dotcolour,beta,,,11,19,V,R,
185,59,17,4,1,33,47,1568,['n'],1,right,['3'],3,913,[-0.2181901],99,47,medium,plus,dotcolour,beta,,,11,19,V,R,
186,60,18,4,1,53,27,935,['c'],1,left,['0'],6,405,[0.29443461],100,53,easy,plus,dotcolour,beta,,,11,19,V,R,
187,61,19,4,1,33,47,1268,['n'],1,right,['8'],4,768,[-0.2051697],100,47,medium,plus,dotcolour,beta,,,11,19,V,R,
188,62,20,4,1,44,36,702,['c'],1,left,['9'],5,435,[-0.00815494],78,44,hard,plus,dotcolour,beta,,,11,19,V,R,
189,63,21,4,1,36,44,2003,['c'],0,right,['8'],4,623,[0.1261869],98,44,hard,plus,dotcolour,beta,,,11,19,V,R,
190,64,22,4,1,27,53,902,['n'],1,right,['8'],4,327,[-0.06993366],98,53,easy,plus,dotcolour,beta,,,11,19,V,R,
191,65,23,4,1,27,53,1417,['n'],1,right,['9'],5,527,[-0.1952155],100,53,easy,plus,dotcolour,beta,,,11,19,V,R,
192,66,24,4,1,27,53,834,['n'],1,right,['8'],4,535,[-0.1144612],98,53,easy,plus,dotcolour,beta,,,11,19,V,R,
193,67,25,4,1,53,27,1502,['c'],1,left,['8'],4,972,[0.22567979],99,53,easy,plus,dotcolour,beta,,,11,19,V,R,
194,68,26,4,1,44,36,1035,['c'],1,left,['9'],5,1185,[0.29518164],100,44,hard,plus,dotcolour,beta,,,11,19,V,R,
195,69,27,4,1,36,44,1251,['n'],1,right,['8'],4,556,[-0.18994841],100,44,hard,plus,dotcolour,beta,,,11,19,V,R,
196,70,28,4,1,44,36,734,['c'],1,left,['9'],5,302,[0.18334833],100,44,hard,plus,dotcolour,beta,,,11,19,V,R,
197,71,29,4,1,33,47,1118,['n'],1,right,['0'],6,324,[-0.12122933],100,47,medium,plus,dotcolour,beta,,,11,19,V,R,
198,72,30,4,1,33,47,1452,['n'],1,right,['9'],5,1299,[-0.00546891],72,47,medium,plus,dotcolour,beta,,,11,19,V,R,
199,73,31,4,1,44,36,767,['c'],1,left,['9'],5,310,[0.0562773],97,44,hard,plus,dotcolour,beta,,,11,19,V,R,
200,74,32,4,1,27,53,1119,['n'],1,right,['0'],6,987,[-0.11932518],96,53,easy,plus,dotcolour,beta,,,11,19,V,R,
201,75,33,4,1,36,44,1667,['n'],1,right,['0'],6,397,[0.02657948],70,44,hard,plus,dotcolour,beta,,,11,19,V,R,
202,76,34,4,1,33,47,1618,['n'],1,right,['9'],5,482,[-0.12090347],99,47,medium,plus,dotcolour,beta,,,11,19,V,R,
203,77,35,4,1,53,27,2000,['c'],1,left,['8'],4,1029,[0.09397874],93,53,easy,plus,dotcolour,beta,,,11,19,V,R,
204,78,36,4,1,44,36,1201,['c'],1,left,['8'],4,353,[0.19466183],100,44,hard,plus,dotcolour,beta,,,11,19,V,R,
205,79,37,4,1,47,33,650,['c'],1,left,['8'],4,311,[0.09751561],99,47,medium,plus,dotcolour,beta,,,11,19,V,R,
206,80,38,4,1,33,47,782,['n'],1,right,['8'],4,577,[-0.05401056],93,47,medium,plus,dotcolour,beta,,,11,19,V,R,
207,81,39,4,1,36,44,1518,['n'],1,right,['8'],4,332,[-0.08844252],99,44,hard,plus,dotcolour,beta,,,11,19,V,R,
208,82,40,4,1,47,33,718,['c'],1,left,['8'],4,353,[0.08306249],99,47,medium,plus,dotcolour,beta,,,11,19,V,R,
209,83,41,4,1,53,27,699,['c'],1,left,['9'],5,285,[0.18827989],100,53,easy,plus,dotcolour,beta,,,11,19,V,R,
210,84,0,5,1,44,36,801,['c'],1,left,['9'],5,413,[0.10684302],99,44,hard,plus,dotcolour,beta,,,11,19,V,R,
211,85,1,5,1,44,36,733,['c'],1,left,['0'],6,413,[0.22166456],100,44,hard,plus,dotcolour,beta,,,11,19,V,R,
212,86,2,5,1,47,33,649,['c'],1,left,['9'],5,321,[0.11858105],100,47,medium,plus,dotcolour,beta,,,11,19,V,R,
213,87,3,5,1,27,53,1150,['n'],1,right,['9'],5,509,[-0.02502684],88,53,easy,plus,dotcolour,beta,,,11,19,V,R,
214,88,4,5,1,53,27,600,['c'],1,left,['9'],5,295,[0.16290419],100,53,easy,plus,dotcolour,beta,,,11,19,V,R,
215,89,5,5,1,44,36,700,['c'],1,left,['9'],5,301,[0.14441601],100,44,hard,plus,dotcolour,beta,,,11,19,V,R,
216,90,6,5,1,36,44,1584,['n'],1,right,['8'],4,688,[-0.04513558],90,44,hard,plus,dotcolour,beta,,,11,19,V,R,
217,91,7,5,1,36,44,1616,['c'],0,right,['8'],4,417,[0.08675351],98,44,hard,plus,dotcolour,beta,,,11,19,V,R,
218,92,8,5,1,44,36,800,['c'],1,left,['9'],5,319,[0.1455416],100,44,hard,plus,dotcolour,beta,,,11,19,V,R,
219,93,9,5,1,27,53,1016,['n'],1,right,['9'],5,319,[-0.06605689],98,53,easy,plus,dotcolour,beta,,,11,19,V,R,
220,94,10,5,1,27,53,1167,['n'],1,right,['9'],5,394,[-0.0668845],97,53,easy,plus,dotcolour,beta,,,11,19,V,R,
221,95,11,5,1,27,53,898,['n'],1,right,['9'],5,357,[-0.12244871],100,53,easy,plus,dotcolour,beta,,,11,19,V,R,
222,96,12,5,1,53,27,583,['c'],1,left,['9'],5,342,[0.11651037],100,53,easy,plus,dotcolour,beta,,,11,19,V,R,
223,97,13,5,1,33,47,950,['n'],1,right,['9'],5,320,[-0.01993143],92,47,medium,plus,dotcolour,beta,,,11,19,V,R,
224,98,14,5,1,33,47,4720,['n'],1,right,['9'],5,393,[-0.15570421],100,47,medium,plus,dotcolour,beta,,,11,19,V,R,
225,99,15,5,1,47,33,650,['c'],1,left,['9'],5,333,[0.10020743],99,47,medium,plus,dotcolour,beta,,,11,19,V,R,
226,100,16,5,1,44,36,1785,['c'],1,left,['8'],4,567,[0.10037506],98,44,hard,plus,dotcolour,beta,,,11,19,V,R,
227,101,17,5,1,47,33,1585,['c'],1,left,['8'],4,294,[0.06458285],98,47,medium,plus,dotcolour,beta,,,11,19,V,R,
228,102,18,5,1,36,44,1051,['c'],0,right,['8'],4,422,[0.04916187],95,44,hard,plus,dotcolour,beta,,,11,19,V,R,
229,103,19,5,1,33,47,851,['c'],0,right,['8'],4,314,[0.0278601],94,47,medium,plus,dotcolour,beta,,,11,19,V,R,
230,104,20,5,1,47,33,799,['c'],1,left,['9'],5,444,[0.24918465],100,47,medium,plus,dotcolour,beta,,,11,19,V,R,
231,105,21,5,1,36,44,1317,['n'],1,right,['8'],4,475,[-0.16067673],100,44,hard,plus,dotcolour,beta,,,11,19,V,R,
232,106,22,5,1,44,36,783,['c'],1,left,['8'],4,975,[-0.01296244],68,44,hard,plus,dotcolour,beta,,,11,19,V,R,
233,107,23,5,1,36,44,1217,['n'],1,right,['8'],4,516,[0.06279712],45,44,hard,plus,dotcolour,beta,,,11,19,V,R,
234,108,24,5,1,53,27,783,['c'],1,left,['9'],5,407,[0.14160527],100,53,easy,plus,dotcolour,beta,,,11,19,V,R,
235,109,25,5,1,53,27,934,['c'],1,left,['9'],5,463,[0.07887489],97,53,easy,plus,dotcolour,beta,,,11,19,V,R,
236,110,26,5,1,27,53,766,['n'],1,right,['9'],5,452,[-0.17670217],100,53,easy,plus,dotcolour,beta,,,11,19,V,R,
237,111,27,5,1,53,27,801,['c'],1,left,['0'],6,297,[0.04764152],97,53,easy,plus,dotcolour,beta,,,11,19,V,R,
238,112,28,5,1,47,33,750,['c'],1,left,['0'],6,214,[0.10936127],100,47,medium,plus,dotcolour,beta,,,11,19,V,R,
239,113,29,5,1,27,53,599,['n'],1,right,['0'],6,236,[-0.14381679],100,53,easy,plus,dotcolour,beta,,,11,19,V,R,
240,114,30,5,1,53,27,583,['c'],1,left,['0'],6,131,[0.09716896],100,53,easy,plus,dotcolour,beta,,,11,19,V,R,
241,115,31,5,1,33,47,534,['c'],0,right,['0'],6,143,[0.03348882],99,47,medium,plus,dotcolour,beta,,,11,19,V,R,
242,116,32,5,1,36,44,734,['c'],0,right,['0'],6,139,[0.16648373],100,44,hard,plus,dotcolour,beta,,,11,19,V,R,
243,117,33,5,1,27,53,1065,['n'],1,right,['0'],6,440,[-0.27563763],100,53,easy,plus,dotcolour,beta,,,11,19,V,R,
244,118,34,5,1,33,47,1083,['n'],1,right,['0'],6,281,[-0.02423692],94,47,medium,plus,dotcolour,beta,,,11,19,V,R,
245,119,35,5,1,47,33,700,['c'],1,left,['0'],6,257,[0.08161038],99,47,medium,plus,dotcolour,beta,,,11,19,V,R,
246,120,36,5,1,44,36,717,['c'],1,left,['0'],6,264,[0.04341877],97,44,hard,plus,dotcolour,beta,,,11,19,V,R,
247,121,37,5,1,36,44,2502,['c'],0,right,['8'],4,1255,[-0.09145852],36,44,hard,plus,dotcolour,beta,,,11,19,V,R,
248,122,38,5,1,53,27,766,['c'],1,left,['0'],6,627,[0.19897829],100,53,easy,plus,dotcolour,beta,,,11,19,V,R,
249,123,39,5,1,33,47,916,['n'],1,right,['9'],5,595,[0.0127352],73,47,medium,plus,dotcolour,beta,,,11,19,V,R,
250,124,40,5,1,47,33,700,['c'],1,left,['9'],5,398,[0.13966745],100,47,medium,plus,dotcolour,beta,,,11,19,V,R,
251,125,41,5,1,33,47,2201,['c'],0,right,['2'],2,779,[-0.09414796],31,47,medium,plus,dotcolour,beta,,,11,19,V,R,
252,0,0,6,2,33,47,1251,['n'],1,right,['9'],5,621,[-0.0781137],63,47,medium,minus,dotcolour,beta,,,11,19,V,R,
253,1,1,6,2,33,47,933,['c'],0,right,['8'],4,493,[0.00867107],23,47,medium,minus,dotcolour,beta,,,11,19,V,R,
254,2,2,6,2,27,53,1317,['n'],1,right,['9'],5,370,[-0.01776468],25,53,easy,minus,dotcolour,beta,,,11,19,V,R,
255,3,3,6,2,33,47,1850,['c'],0,right,['2'],2,990,[-0.03868548],15,47,medium,minus,dotcolour,beta,,,11,19,V,R,
256,4,4,6,2,47,33,2151,['c'],1,left,['9'],5,1229,[0.17728559],88,47,medium,minus,dotcolour,beta,,,11,19,V,R,
257,5,5,6,2,53,27,682,['c'],1,left,['0'],6,294,[0.10468206],84,53,easy,minus,dotcolour,beta,,,11,19,V,R,
258,6,6,6,2,53,27,533,['c'],1,left,['0'],6,308,[0.15072585],96,53,easy,minus,dotcolour,beta,,,11,19,V,R,
259,7,7,6,2,27,53,1117,['n'],1,right,['0'],6,329,[-0.15468088],96,53,easy,minus,dotcolour,beta,,,11,19,V,R,
260,8,8,6,2,36,44,1634,['n'],1,right,['8'],4,608,[-0.13594557],86,44,hard,minus,dotcolour,beta,,,11,19,V,R,
261,9,9,6,2,53,27,633,['c'],1,left,['0'],6,292,[0.12778512],92,53,easy,minus,dotcolour,beta,,,11,19,V,R,
262,10,10,6,2,36,44,1201,['c'],0,right,['0'],6,286,[0.10170802],83,44,hard,minus,dotcolour,beta,,,11,19,V,R,
263,11,11,6,2,36,44,1283,['n'],1,right,['8'],4,565,[-0.00851034],24,44,hard,minus,dotcolour,beta,,,11,19,V,R,
264,12,12,6,2,27,53,1401,['c'],0,right,['9'],5,436,[0.01578062],25,53,easy,minus,dotcolour,beta,,,11,19,V,R,
265,13,13,6,2,44,36,683,['c'],1,left,['0'],6,495,[-0.00543225],17,44,hard,minus,dotcolour,beta,,,11,19,V,R,
266,14,14,6,2,53,27,702,['c'],1,left,['9'],5,301,[0.21391242],99,53,easy,minus,dotcolour,beta,,,11,19,V,R,
267,15,15,6,2,36,44,1017,['n'],1,right,['9'],5,342,[-0.07577339],65,44,hard,minus,dotcolour,beta,,,11,19,V,R,
268,16,16,6,2,47,33,551,['c'],1,left,['9'],5,249,[0.1377791],95,47,medium,minus,dotcolour,beta,,,11,19,V,R,
269,17,17,6,2,44,36,1417,['c'],1,left,['9'],5,221,[0.10683504],88,44,hard,minus,dotcolour,beta,,,11,19,V,R,
270,18,18,6,2,36,44,566,['c'],0,right,['9'],5,372,[0.08651238],71,44,hard,minus,dotcolour,beta,,,11,19,V,R,
271,19,19,6,2,27,53,2267,['n'],1,right,['8'],4,679,[0.0210387],16,53,easy,minus,dotcolour,beta,,,11,19,V,R,
272,20,20,6,2,44,36,649,['c'],1,left,['8'],4,553,[0.12540133],84,44,hard,minus,dotcolour,beta,,,11,19,V,R,
273,21,21,6,2,53,27,666,['c'],1,left,['8'],4,494,[0.1366245],89,53,easy,minus,dotcolour,beta,,,11,19,V,R,
274,22,22,6,2,44,36,1000,['n'],0,left,['8'],4,736,[0.16390416],1,44,hard,minus,dotcolour,beta,,,11,19,V,R,
275,23,23,6,2,27,53,915,['n'],1,right,['9'],5,516,[-0.17933803],96,53,easy,minus,dotcolour,beta,,,11,19,V,R,
276,24,24,6,2,36,44,1133,['c'],0,right,['8'],4,544,[0.05836342],52,44,hard,minus,dotcolour,beta,,,11,19,V,R,
277,25,25,6,2,47,33,848,['c'],1,left,['8'],4,415,[0.20334227],98,47,medium,minus,dotcolour,beta,,,11,19,V,R,
278,26,26,6,2,47,33,967,['c'],1,left,['8'],4,8822,[0.64357713],97,47,medium,minus,dotcolour,beta,,,11,19,V,R,
279,27,27,6,2,47,33,1835,['n'],0,left,['8'],4,1927,[0.07859396],15,47,medium,minus,dotcolour,beta,,,11,19,V,R,
280,28,28,6,2,44,36,2033,['n'],0,left,['1'],1,898,[-0.09941118],70,44,hard,minus,dotcolour,beta,,,11,19,V,R,
281,29,29,6,2,33,47,3735,['c'],0,right,['2'],2,6285,[-0.76509936],0,47,medium,minus,dotcolour,beta,,,11,19,V,R,
282,30,30,6,2,47,33,649,['c'],1,left,['8'],4,382,[0.10962823],83,47,medium,minus,dotcolour,beta,,,11,19,V,R,
283,31,31,6,2,33,47,1183,['n'],1,right,['8'],4,390,[-0.09433261],75,47,medium,minus,dotcolour,beta,,,11,19,V,R,
284,32,32,6,2,33,47,664,['c'],0,right,['9'],5,233,[0.00514363],13,47,medium,minus,dotcolour,beta,,,11,19,V,R,
285,33,33,6,2,27,53,917,['n'],1,right,['8'],4,258,[-0.08774163],76,53,easy,minus,dotcolour,beta,,,11,19,V,R,
286,34,34,6,2,44,36,667,['c'],1,left,['9'],5,171,[0.18682871],100,44,hard,minus,dotcolour,beta,,,11,19,V,R,
287,35,35,6,2,53,27,516,['c'],1,left,['9'],5,230,[0.12488052],93,53,easy,minus,dotcolour,beta,,,11,19,V,R,
288,36,36,6,2,47,33,568,['c'],1,left,['0'],6,198,[0.0224639],21,47,medium,minus,dotcolour,beta,,,11,19,V,R,
289,37,37,6,2,27,53,800,['n'],1,right,['9'],5,269,[-0.17736139],99,53,easy,minus,dotcolour,beta,,,11,19,V,R,
290,38,38,6,2,53,27,731,['c'],1,left,['9'],5,282,[0.13746865],94,53,easy,minus,dotcolour,beta,,,11,19,V,R,
291,39,39,6,2,36,44,850,['c'],0,right,['9'],5,204,[0.0764038],70,44,hard,minus,dotcolour,beta,,,11,19,V,R,
292,40,40,6,2,44,36,532,['c'],1,left,['9'],5,285,[0.01624505],21,44,hard,minus,dotcolour,beta,,,11,19,V,R,
293,41,41,6,2,33,47,849,['n'],1,right,['9'],5,262,[-0.05992159],54,47,medium,minus,dotcolour,beta,,,11,19,V,R,
294,42,0,7,2,36,44,1302,['c'],0,right,['9'],5,340,[0.01785344],24,44,hard,minus,dotcolour,beta,,,11,19,V,R,
295,43,1,7,2,53,27,649,['c'],1,left,['9'],5,275,[0.16471876],98,53,easy,minus,dotcolour,beta,,,11,19,V,R,
296,44,2,7,2,33,47,967,['n'],1,right,['9'],5,319,[-0.02707718],29,47,medium,minus,dotcolour,beta,,,11,19,V,R,
297,45,3,7,2,44,36,700,['c'],1,left,['9'],5,156,[0.06801385],64,44,hard,minus,dotcolour,beta,,,11,19,V,R,
298,46,4,7,2,27,53,1018,['n'],1,right,['9'],5,260,[-0.14249697],96,53,easy,minus,dotcolour,beta,,,11,19,V,R,
299,47,5,7,2,53,27,985,['c'],1,left,['9'],5,256,[0.08749104],76,53,easy,minus,dotcolour,beta,,,11,19,V,R,
300,48,6,7,2,36,44,2619,['c'],0,right,['9'],5,242,[0.06889783],62,44,hard,minus,dotcolour,beta,,,11,19,V,R,
301,49,7,7,2,53,27,717,['c'],1,left,['9'],5,282,[0.09080805],77,53,easy,minus,dotcolour,beta,,,11,19,V,R,
302,50,8,7,2,33,47,816,['c'],0,right,['9'],5,213,[0.0672424],61,47,medium,minus,dotcolour,beta,,,11,19,V,R,
303,51,9,7,2,53,27,682,['c'],1,left,['9'],5,192,[0.10172837],87,53,easy,minus,dotcolour,beta,,,11,19,V,R,
304,52,10,7,2,33,47,1118,['c'],0,right,['9'],5,210,[0.00265139],11,47,medium,minus,dotcolour,beta,,,11,19,V,R,
305,53,11,7,2,47,33,633,['c'],1,left,['9'],5,190,[0.06582595],60,47,medium,minus,dotcolour,beta,,,11,19,V,R,
306,54,12,7,2,47,33,466,['c'],1,left,['9'],5,251,[0.20511442],100,47,medium,minus,dotcolour,beta,,,11,19,V,R,
307,55,13,7,2,44,36,650,['c'],1,left,['9'],5,350,[0.11546901],86,44,hard,minus,dotcolour,beta,,,11,19,V,R,
308,56,14,7,2,36,44,1133,['n'],1,right,['9'],5,281,[-0.13961339],95,44,hard,minus,dotcolour,beta,,,11,19,V,R,
309,57,15,7,2,27,53,1235,['n'],1,right,['9'],5,290,[-0.15761019],97,53,easy,minus,dotcolour,beta,,,11,19,V,R,
310,58,16,7,2,27,53,833,['n'],1,right,['8'],4,676,[-0.07311986],59,53,easy,minus,dotcolour,beta,,,11,19,V,R,
311,59,17,7,2,33,47,934,['n'],1,right,['9'],5,273,[-0.03606289],34,47,medium,minus,dotcolour,beta,,,11,19,V,R,
312,60,18,7,2,33,47,815,['n'],1,right,['9'],5,316,[-0.11177524],86,47,medium,minus,dotcolour,beta,,,11,19,V,R,
313,61,19,7,2,27,53,1150,['n'],1,right,['9'],5,303,[-0.04968018],45,53,easy,minus,dotcolour,beta,,,11,19,V,R,
314,62,20,7,2,36,44,1001,['n'],1,right,['8'],4,530,[0.00098664],20,44,hard,minus,dotcolour,beta,,,11,19,V,R,
315,63,21,7,2,36,44,1199,['c'],0,right,['8'],4,242,[0.06682985],60,44,hard,minus,dotcolour,beta,,,11,19,V,R,
316,64,22,7,2,47,33,614,['c'],1,left,['8'],4,327,[0.0466425],43,47,medium,minus,dotcolour,beta,,,11,19,V,R,
317,65,23,7,2,47,33,630,['c'],1,left,['8'],4,311,[0.07276596],64,47,medium,minus,dotcolour,beta,,,11,19,V,R,
318,66,24,7,2,33,47,1201,['n'],1,right,['8'],4,288,[-0.12819001],92,47,medium,minus,dotcolour,beta,,,11,19,V,R,
319,67,25,7,2,44,36,766,['c'],1,left,['8'],4,245,[0.11348136],89,44,hard,minus,dotcolour,beta,,,11,19,V,R,
320,68,26,7,2,53,27,649,['c'],1,left,['8'],4,264,[0.08082643],71,53,easy,minus,dotcolour,beta,,,11,19,V,R,
321,69,27,7,2,44,36,1267,['c'],1,left,['8'],4,217,[0.099678],85,44,hard,minus,dotcolour,beta,,,11,19,V,R,
322,70,28,7,2,44,36,533,['c'],1,left,['8'],4,170,[0.02195866],19,44,hard,minus,dotcolour,beta,,,11,19,V,R,
323,71,29,7,2,47,33,566,['c'],1,left,['8'],4,227,[0.08021039],72,47,medium,minus,dotcolour,beta,,,11,19,V,R,
324,72,30,7,2,44,36,517,['c'],1,left,['8'],4,220,[0.15466899],98,44,hard,minus,dotcolour,beta,,,11,19,V,R,
325,73,31,7,2,44,36,650,['c'],1,left,['8'],4,240,[0.08903459],77,44,hard,minus,dotcolour,beta,,,11,19,V,R,
326,74,32,7,2,36,44,1082,['n'],1,right,['8'],4,250,[-0.09466967],80,44,hard,minus,dotcolour,beta,,,11,19,V,R,
327,75,33,7,2,53,27,666,['c'],1,left,['8'],4,196,[0.12788279],95,53,easy,minus,dotcolour,beta,,,11,19,V,R,
328,76,34,7,2,27,53,915,['n'],1,right,['8'],4,310,[-0.12946458],92,53,easy,minus,dotcolour,beta,,,11,19,V,R,
329,77,35,7,2,36,44,800,['c'],0,right,['8'],4,216,[0.12120623],93,44,hard,minus,dotcolour,beta,,,11,19,V,R,
330,78,36,7,2,27,53,716,['n'],1,right,['8'],4,265,[-0.16760944],98,53,easy,minus,dotcolour,beta,,,11,19,V,R,
331,79,37,7,2,33,47,832,['c'],0,right,['8'],4,260,[0.12975277],93,47,medium,minus,dotcolour,beta,,,11,19,V,R,
332,80,38,7,2,47,33,833,['c'],1,left,['9'],5,246,[0.05299201],48,47,medium,minus,dotcolour,beta,,,11,19,V,R,
333,81,39,7,2,47,33,566,['c'],1,left,['9'],5,205,[0.07517628],69,47,medium,minus,dotcolour,beta,,,11,19,V,R,
334,82,40,7,2,53,27,584,['c'],1,left,['0'],6,235,[0.08718532],76,53,easy,minus,dotcolour,beta,,,11,19,V,R,
335,83,41,7,2,27,53,1050,['n'],1,right,['9'],5,319,[-0.03358167],33,53,easy,minus,dotcolour,beta,,,11,19,V,R,
336,84,0,8,2,44,36,650,['c'],1,left,['9'],5,298,[0.14669708],95,44,hard,minus,dotcolour,beta,,,11,19,V,R,
337,85,1,8,2,44,36,667,['c'],1,left,['0'],6,258,[0.14138297],95,44,hard,minus,dotcolour,beta,,,11,19,V,R,
338,86,2,8,2,33,47,2036,['c'],0,right,['9'],5,323,[0.00612062],17,47,medium,minus,dotcolour,beta,,,11,19,V,R,
339,87,3,8,2,47,33,1101,['c'],1,left,['9'],5,1929,[0.23256058],91,47,medium,minus,dotcolour,beta,,,11,19,V,R,
340,88,4,8,2,53,27,716,['c'],1,left,['9'],5,244,[0.07385714],66,53,easy,minus,dotcolour,beta,,,11,19,V,R,
341,89,5,8,2,53,27,869,['c'],1,left,['9'],5,190,[0.0638414],58,53,easy,minus,dotcolour,beta,,,11,19,V,R,
342,90,6,8,2,27,53,1018,['n'],1,right,['9'],5,348,[-0.10365066],81,53,easy,minus,dotcolour,beta,,,11,19,V,R,
343,91,7,8,2,44,36,1267,['c'],1,left,['9'],5,418,[0.09844443],77,44,hard,minus,dotcolour,beta,,,11,19,V,R,
344,92,8,8,2,27,53,865,['n'],1,right,['9'],5,397,[-0.09480638],75,53,easy,minus,dotcolour,beta,,,11,19,V,R,
345,93,9,8,2,36,44,2318,['c'],0,right,['9'],5,269,[0.01151696],18,44,hard,minus,dotcolour,beta,,,11,19,V,R,
346,94,10,8,2,53,27,732,['c'],1,left,['0'],6,308,[0.13493106],93,53,easy,minus,dotcolour,beta,,,11,19,V,R,
347,95,11,8,2,33,47,900,['n'],1,right,['9'],5,402,[-0.07742062],65,47,medium,minus,dotcolour,beta,,,11,19,V,R,
348,96,12,8,2,33,47,1150,['n'],1,right,['8'],4,426,[-0.13382262],90,47,medium,minus,dotcolour,beta,,,11,19,V,R,
349,97,13,8,2,33,47,1200,['c'],0,right,['8'],4,327,[0.04811681],44,47,medium,minus,dotcolour,beta,,,11,19,V,R,
350,98,14,8,2,36,44,1484,['n'],1,right,['8'],4,436,[-0.06896378],59,44,hard,minus,dotcolour,beta,,,11,19,V,R,
351,99,15,8,2,27,53,1167,['n'],1,right,['8'],4,347,[-0.15430741],95,53,easy,minus,dotcolour,beta,,,11,19,V,R,
352,100,16,8,2,36,44,967,['c'],0,right,['8'],4,332,[0.07512062],65,44,hard,minus,dotcolour,beta,,,11,19,V,R,
353,101,17,8,2,44,36,883,['c'],1,left,['8'],4,259,[0.07579823],67,44,hard,minus,dotcolour,beta,,,11,19,V,R,
354,102,18,8,2,47,33,1367,['c'],1,left,['8'],4,238,[0.13062416],94,47,medium,minus,dotcolour,beta,,,11,19,V,R,
355,103,19,8,2,33,47,1734,['c'],0,right,['8'],4,342,[0.06768168],59,47,medium,minus,dotcolour,beta,,,11,19,V,R,
356,104,20,8,2,53,27,701,['c'],1,left,['9'],5,307,[-0.00042052],14,53,easy,minus,dotcolour,beta,,,11,19,V,R,
357,105,21,8,2,44,36,815,['c'],1,left,['9'],5,220,[0.18219054],99,44,hard,minus,dotcolour,beta,,,11,19,V,R,
358,106,22,8,2,27,53,833,['n'],1,right,['9'],5,320,[-0.05622134],51,53,easy,minus,dotcolour,beta,,,11,19,V,R,
359,107,23,8,2,27,53,1017,['n'],1,right,['9'],5,297,[-0.20074058],99,53,easy,minus,dotcolour,beta,,,11,19,V,R,
360,108,24,8,2,44,36,884,['c'],1,left,['9'],5,265,[0.15902852],97,44,hard,minus,dotcolour,beta,,,11,19,V,R,
361,109,25,8,2,36,44,885,['n'],1,right,['9'],5,337,[-0.12546809],90,44,hard,minus,dotcolour,beta,,,11,19,V,R,
362,110,26,8,2,33,47,998,['c'],0,right,['9'],5,258,[0.11480061],89,47,medium,minus,dotcolour,beta,,,11,19,V,R,
363,111,27,8,2,53,27,648,['c'],1,left,['9'],5,436,[0.24527481],99,53,easy,minus,dotcolour,beta,,,11,19,V,R,
364,112,28,8,2,33,47,832,['n'],1,right,['9'],5,336,[-0.16589594],97,47,medium,minus,dotcolour,beta,,,11,19,V,R,
365,113,29,8,2,27,53,716,['n'],1,right,['9'],5,357,[-0.10438306],81,53,easy,minus,dotcolour,beta,,,11,19,V,R,
366,114,30,8,2,27,53,983,['n'],1,right,['9'],5,341,[-0.0427783],40,53,easy,minus,dotcolour,beta,,,11,19,V,R,
367,115,31,8,2,47,33,865,['c'],1,left,['9'],5,219,[0.06281115],57,47,medium,minus,dotcolour,beta,,,11,19,V,R,
368,116,32,8,2,47,33,684,['c'],1,left,['0'],6,375,[0.11918251],87,47,medium,minus,dotcolour,beta,,,11,19,V,R,
369,117,33,8,2,47,33,683,['c'],1,left,['0'],6,218,[0.07109807],65,47,medium,minus,dotcolour,beta,,,11,19,V,R,
370,118,34,8,2,36,44,1366,['c'],0,right,['3'],3,1217,[0.06282691],53,44,hard,minus,dotcolour,beta,,,11,19,V,R,
371,119,35,8,2,53,27,2051,['n'],0,left,['8'],4,779,[-0.04198292],43,53,easy,minus,dotcolour,beta,,,11,19,V,R,
372,120,36,8,2,44,36,816,['c'],1,left,['3'],3,1113,[0.16190661],86,44,hard,minus,dotcolour,beta,,,11,19,V,R,
373,121,37,8,2,47,33,884,['c'],1,left,['3'],3,343,[0.14532416],94,47,medium,minus,dotcolour,beta,,,11,19,V,R,
374,122,38,8,2,47,33,650,['c'],1,left,['8'],4,230,[0.07323332],66,47,medium,minus,dotcolour,beta,,,11,19,V,R,
375,123,39,8,2,53,27,715,['c'],1,left,['9'],5,230,[0.13172617],95,53,easy,minus,dotcolour,beta,,,11,19,V,R,
376,124,40,8,2,36,44,498,['c'],0,right,['9'],5,192,[0.03290525],28,44,hard,minus,dotcolour,beta,,,11,19,V,R,
377,125,41,8,2,36,44,1033,['n'],1,right,['9'],5,1150,[-0.04887417],47,44,hard,minus,dotcolour,beta,,,11,19,V,R,
378,0,0,9,3,27,53,1185,['n'],1,right,['8'],4,804,[-0.05901795],91,53,easy,plus,dotcolour,beta,,,11,19,V,R,
379,1,1,9,3,27,53,800,['n'],1,right,['8'],4,385,[-0.15427511],100,53,easy,plus,dotcolour,beta,,,11,19,V,R,
380,2,2,9,3,53,27,1068,['c'],1,left,['8'],4,350,[0.05463187],97,53,easy,plus,dotcolour,beta,,,11,19,V,R,
381,3,3,9,3,47,33,799,['n'],0,left,['8'],4,262,[-0.05778832],98,47,medium,plus,dotcolour,beta,,,11,19,V,R,
382,4,4,9,3,33,47,700,['n'],1,right,['8'],4,238,[-0.09057065],100,47,medium,plus,dotcolour,beta,,,11,19,V,R,
383,5,5,9,3,36,44,583,['c'],0,right,['8'],4,268,[0.06790622],99,44,hard,plus,dotcolour,beta,,,11,19,V,R,
384,6,6,9,3,53,27,851,['c'],1,left,['8'],4,174,[0.08885511],100,53,easy,plus,dotcolour,beta,,,11,19,V,R,
385,7,7,9,3,36,44,833,['n'],1,right,['8'],4,268,[-0.07465316],99,44,hard,plus,dotcolour,beta,,,11,19,V,R,
386,8,8,9,3,33,47,1183,['n'],1,right,['8'],4,296,[-0.02333993],93,47,medium,plus,dotcolour,beta,,,11,19,V,R,
387,9,9,9,3,44,36,750,['c'],1,left,['8'],4,229,[0.11075598],100,44,hard,plus,dotcolour,beta,,,11,19,V,R,
388,10,10,9,3,33,47,700,['n'],1,right,['8'],4,287,[-0.13434002],100,47,medium,plus,dotcolour,beta,,,11,19,V,R,
389,11,11,9,3,36,44,665,['c'],0,right,['8'],4,271,[0.03779417],96,44,hard,plus,dotcolour,beta,,,11,19,V,R,
390,12,12,9,3,44,36,717,['c'],1,left,['8'],4,214,[0.18101637],100,44,hard,plus,dotcolour,beta,,,11,19,V,R,
391,13,13,9,3,33,47,917,['n'],1,right,['8'],4,239,[-0.08640824],99,47,medium,plus,dotcolour,beta,,,11,19,V,R,
392,14,14,9,3,47,33,1018,['c'],1,left,['8'],4,171,[0.12369183],100,47,medium,plus,dotcolour,beta,,,11,19,V,R,
393,15,15,9,3,53,27,700,['c'],1,left,['8'],4,247,[0.07975521],99,53,easy,plus,dotcolour,beta,,,11,19,V,R,
394,16,16,9,3,47,33,3118,['c'],1,left,['8'],4,853,[0.19417557],99,47,medium,plus,dotcolour,beta,,,11,19,V,R,
395,17,17,9,3,47,33,718,['c'],1,left,['8'],4,188,[0.03506688],98,47,medium,plus,dotcolour,beta,,,11,19,V,R,
396,18,18,9,3,33,47,784,['n'],1,right,['8'],4,236,[-0.08106563],99,47,medium,plus,dotcolour,beta,,,11,19,V,R,
397,19,19,9,3,27,53,1251,['n'],1,right,['8'],4,399,[-0.08656984],98,53,easy,plus,dotcolour,beta,,,11,19,V,R,
398,20,20,9,3,27,53,800,['n'],1,right,['8'],4,237,[-0.17236603],100,53,easy,plus,dotcolour,beta,,,11,19,V,R,
399,21,21,9,3,44,36,714,['c'],1,left,['8'],4,238,[0.13250082],100,44,hard,plus,dotcolour,beta,,,11,19,V,R,
400,22,22,9,3,47,33,650,['c'],1,left,['8'],4,257,[0.06929707],99,47,medium,plus,dotcolour,beta,,,11,19,V,R,
401,23,23,9,3,36,44,583,['c'],0,right,['8'],4,222,[0.02618672],96,44,hard,plus,dotcolour,beta,,,11,19,V,R,
402,24,24,9,3,27,53,983,['n'],1,right,['8'],4,260,[-0.1213826],100,53,easy,plus,dotcolour,beta,,,11,19,V,R,
403,25,25,9,3,53,27,732,['c'],1,left,['8'],4,234,[0.10840015],100,53,easy,plus,dotcolour,beta,,,11,19,V,R,
404,26,26,9,3,33,47,1500,['c'],0,right,['8'],4,883,[-0.04393773],56,47,medium,plus,dotcolour,beta,,,11,19,V,R,
405,27,27,9,3,36,44,1433,['c'],0,right,['8'],4,388,[0.01690111],89,44,hard,plus,dotcolour,beta,,,11,19,V,R,
406,28,28,9,3,33,47,1066,['n'],1,right,['8'],4,320,[-0.17159706],100,47,medium,plus,dotcolour,beta,,,11,19,V,R,
407,29,29,9,3,44,36,917,['c'],1,left,['9'],5,357,[0.20770113],100,44,hard,plus,dotcolour,beta,,,11,19,V,R,
408,30,30,9,3,47,33,683,['c'],1,left,['9'],5,354,[0.10736972],99,47,medium,plus,dotcolour,beta,,,11,19,V,R,
409,31,31,9,3,36,44,1986,['n'],1,right,['0'],6,353,[-0.00186444],85,44,hard,plus,dotcolour,beta,,,11,19,V,R,
410,32,32,9,3,27,53,934,['n'],1,right,['9'],5,501,[-0.12381389],99,53,easy,plus,dotcolour,beta,,,11,19,V,R,
411,33,33,9,3,44,36,1383,['c'],1,left,['9'],5,503,[0.17777318],100,44,hard,plus,dotcolour,beta,,,11,19,V,R,
412,34,34,9,3,44,36,1150,['c'],1,left,['9'],5,363,[0.1938526],100,44,hard,plus,dotcolour,beta,,,11,19,V,R,
413,35,35,9,3,47,33,685,['c'],1,left,['9'],5,336,[0.14887094],100,47,medium,plus,dotcolour,beta,,,11,19,V,R,
414,36,36,9,3,36,44,635,['c'],0,right,['9'],5,303,[0.03447224],95,44,hard,plus,dotcolour,beta,,,11,19,V,R,
415,37,37,9,3,53,27,1100,['c'],1,left,['8'],4,1285,[0.28051832],100,53,easy,plus,dotcolour,beta,,,11,19,V,R,
416,38,38,9,3,53,27,765,['c'],1,left,['9'],5,392,[0.15262712],100,53,easy,plus,dotcolour,beta,,,11,19,V,R,
417,39,39,9,3,44,36,633,['c'],1,left,['9'],5,262,[0.17687317],100,44,hard,plus,dotcolour,beta,,,11,19,V,R,
418,40,40,9,3,53,27,683,['c'],1,left,['9'],5,294,[0.09599005],99,53,easy,plus,dotcolour,beta,,,11,19,V,R,
419,41,41,9,3,27,53,1133,['n'],1,right,['8'],4,339,[-0.13832092],100,53,easy,plus,dotcolour,beta,,,11,19,V,R,
420,42,0,10,3,44,36,867,['c'],1,left,['9'],5,311,[0.21022029],100,44,hard,plus,dotcolour,beta,,,11,19,V,R,
421,43,1,10,3,27,53,782,['n'],1,right,['9'],5,250,[-0.22525896],100,53,easy,plus,dotcolour,beta,,,11,19,V,R,
422,44,2,10,3,53,27,516,['c'],1,left,['9'],5,250,[0.11059225],100,53,easy,plus,dotcolour,beta,,,11,19,V,R,
423,45,3,10,3,36,44,1286,['n'],1,right,['8'],4,482,[-0.11149835],99,44,hard,plus,dotcolour,beta,,,11,19,V,R,
424,46,4,10,3,36,44,2587,['n'],1,right,['8'],4,580,[-0.26951098],100,44,hard,plus,dotcolour,beta,,,11,19,V,R,
425,47,5,10,3,47,33,614,['c'],1,left,['9'],5,323,[0.11658059],100,47,medium,plus,dotcolour,beta,,,11,19,V,R,
426,48,6,10,3,47,33,701,['c'],1,left,['0'],6,289,[0.15260393],100,47,medium,plus,dotcolour,beta,,,11,19,V,R,
427,49,7,10,3,27,53,849,['n'],1,right,['0'],6,306,[-0.16577424],100,53,easy,plus,dotcolour,beta,,,11,19,V,R,
428,50,8,10,3,47,33,601,['c'],1,left,['0'],6,308,[0.16390443],100,47,medium,plus,dotcolour,beta,,,11,19,V,R,
429,51,9,10,3,36,44,1701,['n'],1,right,['8'],4,601,[-0.15308469],99,44,hard,plus,dotcolour,beta,,,11,19,V,R,
430,52,10,10,3,44,36,732,['c'],1,left,['9'],5,362,[0.02153963],91,44,hard,plus,dotcolour,beta,,,11,19,V,R,
431,53,11,10,3,47,33,700,['c'],1,left,['8'],4,798,[0.18811094],99,47,medium,plus,dotcolour,beta,,,11,19,V,R,
432,54,12,10,3,47,33,700,['c'],1,left,['9'],5,273,[0.0546725],98,47,medium,plus,dotcolour,beta,,,11,19,V,R,
433,55,13,10,3,27,53,1082,['n'],1,right,['0'],6,376,[-0.17007576],100,53,easy,plus,dotcolour,beta,,,11,19,V,R,
434,56,14,10,3,33,47,1366,['c'],0,right,['9'],5,400,[-0.03363321],65,47,medium,plus,dotcolour,beta,,,11,19,V,R,
435,57,15,10,3,44,36,1118,['n'],0,left,['0'],6,425,[-0.02141629],89,44,hard,plus,dotcolour,beta,,,11,19,V,R,
436,58,16,10,3,44,36,1351,['c'],1,left,['9'],5,441,[0.09622655],98,44,hard,plus,dotcolour,beta,,,11,19,V,R,
437,59,17,10,3,53,27,683,['c'],1,left,['9'],5,298,[0.08454471],99,53,easy,plus,dotcolour,beta,,,11,19,V,R,
438,60,18,10,3,53,27,1166,['n'],0,left,['9'],5,237,[0.02443988],76,53,easy,plus,dotcolour,beta,,,11,19,V,R,
439,61,19,10,3,27,53,1084,['n'],1,right,['8'],4,3063,[-0.56727281],100,53,easy,plus,dotcolour,beta,,,11,19,V,R,
440,62,20,10,3,27,53,883,['n'],1,right,['9'],5,484,[-0.19874265],100,53,easy,plus,dotcolour,beta,,,11,19,V,R,
441,63,21,10,3,53,27,634,['c'],1,left,['9'],5,278,[0.14167472],100,53,easy,plus,dotcolour,beta,,,11,19,V,R,
442,64,22,10,3,33,47,733,['n'],1,right,['9'],5,252,[-0.08573775],99,47,medium,plus,dotcolour,beta,,,11,19,V,R,
443,65,23,10,3,36,44,1050,['c'],0,right,['9'],5,143,[0.07777761],100,44,hard,plus,dotcolour,beta,,,11,19,V,R,
444,66,24,10,3,27,53,783,['n'],1,right,['9'],5,248,[-0.0819888],99,53,easy,plus,dotcolour,beta,,,11,19,V,R,
445,67,25,10,3,33,47,818,['n'],1,right,['9'],5,316,[-0.18784844],100,47,medium,plus,dotcolour,beta,,,11,19,V,R,
446,68,26,10,3,44,36,834,['n'],0,left,['9'],5,261,[-0.02801286],95,44,hard,plus,dotcolour,beta,,,11,19,V,R,
447,69,27,10,3,53,27,1700,['c'],1,left,['9'],5,444,[0.05572414],95,53,easy,plus,dotcolour,beta,,,11,19,V,R,
448,70,28,10,3,44,36,1334,['c'],1,left,['9'],5,1995,[0.04388208],78,44,hard,plus,dotcolour,beta,,,11,19,V,R,
449,71,29,10,3,47,33,2119,['c'],1,left,['9'],5,2985,[0.48944373],100,47,medium,plus,dotcolour,beta,,,11,19,V,R,
450,72,30,10,3,33,47,3019,['n'],1,right,['9'],5,1730,[-0.44780506],100,47,medium,plus,dotcolour,beta,,,11,19,V,R,
451,73,31,10,3,33,47,1449,['n'],1,right,['9'],5,463,[-0.1147032],99,47,medium,plus,dotcolour,beta,,,11,19,V,R,
452,74,32,10,3,33,47,1549,['n'],1,right,['8'],4,796,[-0.23596673],100,47,medium,plus,dotcolour,beta,,,11,19,V,R,
453,75,33,10,3,36,44,1235,['n'],1,right,['8'],4,441,[-0.15151127],100,44,hard,plus,dotcolour,beta,,,11,19,V,R,
454,76,34,10,3,27,53,1418,['n'],1,right,['8'],4,620,[-0.14698779],99,53,easy,plus,dotcolour,beta,,,11,19,V,R,
455,77,35,10,3,36,44,1317,['c'],0,right,['8'],4,684,[-0.00319833],76,44,hard,plus,dotcolour,beta,,,11,19,V,R,
456,78,36,10,3,53,27,634,['c'],1,left,['9'],5,358,[0.06738277],98,53,easy,plus,dotcolour,beta,,,11,19,V,R,
457,79,37,10,3,53,27,566,['c'],1,left,['0'],6,328,[0.10945305],99,53,easy,plus,dotcolour,beta,,,11,19,V,R,
458,80,38,10,3,33,47,733,['n'],1,right,['8'],4,619,[-0.0487903],92,47,medium,plus,dotcolour,beta,,,11,19,V,R,
459,81,39,10,3,47,33,767,['c'],1,left,['9'],5,418,[0.16352515],100,47,medium,plus,dotcolour,beta,,,11,19,V,R,
460,82,40,10,3,36,44,1300,['n'],1,right,['8'],4,555,[-0.16437694],100,44,hard,plus,dotcolour,beta,,,11,19,V,R,
461,83,41,10,3,44,36,567,['c'],1,left,['8'],4,381,[0.13704584],100,44,hard,plus,dotcolour,beta,,,11,19,V,R,
462,84,0,11,3,44,36,917,['c'],1,left,['9'],5,300,[0.11530028],100,44,hard,plus,dotcolour,beta,,,11,19,V,R,
463,85,1,11,3,47,33,450,['c'],1,left,['9'],5,341,[0.10959179],99,47,medium,plus,dotcolour,beta,,,11,19,V,R,
464,86,2,11,3,36,44,583,['n'],1,right,['8'],4,367,[-0.11903504],99,44,hard,plus,dotcolour,beta,,,11,19,V,R,
465,87,3,11,3,44,36,583,['c'],1,left,['9'],5,312,[0.11021566],100,44,hard,plus,dotcolour,beta,,,11,19,V,R,
466,88,4,11,3,44,36,1167,['c'],1,left,['8'],4,291,[0.13423835],100,44,hard,plus,dotcolour,beta,,,11,19,V,R,
467,89,5,11,3,33,47,783,['n'],1,right,['8'],4,286,[0.00108312],86,47,medium,plus,dotcolour,beta,,,11,19,V,R,
468,90,6,11,3,53,27,516,['c'],1,left,['9'],5,252,[0.11225984],100,53,easy,plus,dotcolour,beta,,,11,19,V,R,
469,91,7,11,3,36,44,1867,['c'],0,right,['8'],4,526,[0.08116548],97,44,hard,plus,dotcolour,beta,,,11,19,V,R,
470,92,8,11,3,27,53,834,['n'],1,right,['9'],5,333,[-0.077542],98,53,easy,plus,dotcolour,beta,,,11,19,V,R,
471,93,9,11,3,33,47,1117,['c'],0,right,['0'],6,402,[-0.03285919],66,47,medium,plus,dotcolour,beta,,,11,19,V,R,
472,94,10,11,3,53,27,900,['c'],1,left,['9'],5,308,[0.14232514],100,53,easy,plus,dotcolour,beta,,,11,19,V,R,
473,95,11,11,3,33,47,985,['n'],1,right,['9'],5,422,[-0.13553464],100,47,medium,plus,dotcolour,beta,,,11,19,V,R,
474,96,12,11,3,53,27,700,['c'],1,left,['0'],6,256,[0.21229749],100,53,easy,plus,dotcolour,beta,,,11,19,V,R,
475,97,13,11,3,33,47,667,['n'],1,right,['9'],5,353,[-0.10504069],99,47,medium,plus,dotcolour,beta,,,11,19,V,R,
476,98,14,11,3,44,36,601,['c'],1,left,['0'],6,258,[0.05573605],98,44,hard,plus,dotcolour,beta,,,11,19,V,R,
477,99,15,11,3,36,44,764,['n'],1,right,['9'],5,287,[-0.11060736],100,44,hard,plus,dotcolour,beta,,,11,19,V,R,
478,100,16,11,3,47,33,667,['c'],1,left,['0'],6,335,[0.08778368],99,47,medium,plus,dotcolour,beta,,,11,19,V,R,
479,101,17,11,3,47,33,616,['c'],1,left,['9'],5,304,[0.09791046],99,47,medium,plus,dotcolour,beta,,,11,19,V,R,
480,102,18,11,3,36,44,767,['n'],1,right,['0'],6,307,[-0.05585062],97,44,hard,plus,dotcolour,beta,,,11,19,V,R,
481,103,19,11,3,27,53,817,['n'],1,right,['0'],6,580,[-0.14425221],99,53,easy,plus,dotcolour,beta,,,11,19,V,R,
482,104,20,11,3,53,27,731,['c'],1,left,['0'],6,350,[0.16335795],100,53,easy,plus,dotcolour,beta,,,11,19,V,R,
483,105,21,11,3,27,53,633,['n'],1,right,['0'],6,294,[-0.13121765],100,53,easy,plus,dotcolour,beta,,,11,19,V,R,
484,106,22,11,3,33,47,1249,['n'],1,right,['0'],6,350,[-0.07337185],98,47,medium,plus,dotcolour,beta,,,11,19,V,R,
485,107,23,11,3,47,33,732,['c'],1,left,['0'],6,256,[0.19748176],100,47,medium,plus,dotcolour,beta,,,11,19,V,R,
486,108,24,11,3,36,44,1518,['n'],1,right,['9'],5,503,[-0.05463978],94,44,hard,plus,dotcolour,beta,,,11,19,V,R,
487,109,25,11,3,44,36,700,['c'],1,left,['0'],6,254,[0.13522816],100,44,hard,plus,dotcolour,beta,,,11,19,V,R,
488,110,26,11,3,53,27,633,['c'],1,left,['0'],6,234,[0.0384881],97,53,easy,plus,dotcolour,beta,,,11,19,V,R,
489,111,27,11,3,27,53,751,['n'],1,right,['0'],6,233,[-0.07942437],99,53,easy,plus,dotcolour,beta,,,11,19,V,R,
490,112,28,11,3,44,36,1101,['c'],1,left,['8'],4,585,[0.12824657],99,44,hard,plus,dotcolour,beta,,,11,19,V,R,
491,113,29,11,3,53,27,535,['c'],1,left,['9'],5,331,[0.11853575],100,53,easy,plus,dotcolour,beta,,,11,19,V,R,
492,114,30,11,3,53,27,585,['c'],1,left,['0'],6,357,[0.17689507],100,53,easy,plus,dotcolour,beta,,,11,19,V,R,
493,115,31,11,3,33,47,700,['n'],1,right,['9'],5,361,[-0.19340611],100,47,medium,plus,dotcolour,beta,,,11,19,V,R,
494,116,32,11,3,33,47,800,['n'],1,right,['0'],6,689,[-0.15809767],99,47,medium,plus,dotcolour,beta,,,11,19,V,R,
495,117,33,11,3,47,33,1569,['c'],1,left,['9'],5,1244,[0.12942275],95,47,medium,plus,dotcolour,beta,,,11,19,V,R,
496,118,34,11,3,36,44,1084,['n'],1,right,['9'],5,476,[0.01008201],77,44,hard,plus,dotcolour,beta,,,11,19,V,R,
497,119,35,11,3,27,53,1501,['n'],1,right,['9'],5,1411,[-0.28026473],99,53,easy,plus,dotcolour,beta,,,11,19,V,R,
498,120,36,11,3,27,53,1268,['n'],1,right,['9'],5,292,[-0.09519845],99,53,easy,plus,dotcolour,beta,,,11,19,V,R,
499,121,37,11,3,44,36,634,['c'],1,left,['9'],5,318,[0.12374895],100,44,hard,plus,dotcolour,beta,,,11,19,V,R,
500,122,38,11,3,47,33,564,['c'],1,left,['0'],6,345,[0.03157408],94,47,medium,plus,dotcolour,beta,,,11,19,V,R,
501,123,39,11,3,47,33,598,['c'],1,left,['0'],6,282,[0.16176756],100,47,medium,plus,dotcolour,beta,,,11,19,V,R,
502,124,40,11,3,27,53,698,['n'],1,right,['9'],5,361,[-0.08546184],99,53,easy,plus,dotcolour,beta,,,11,19,V,R,
503,125,41,11,3,36,44,1417,['c'],0,right,['8'],4,432,[-0.02114891],72,44,hard,plus,dotcolour,beta,,,11,19,V,R,
504,0,0,12,4,53,27,634,['c'],1,left,['8'],4,529,[0.11086528],80,53,easy,minus,dotcolour,beta,,,11,19,V,R,
505,1,1,12,4,27,53,598,['n'],1,right,['9'],5,330,[-0.1236119],89,53,easy,minus,dotcolour,beta,,,11,19,V,R,
506,2,2,12,4,27,53,700,['n'],1,right,['9'],5,319,[-0.06417975],57,53,easy,minus,dotcolour,beta,,,11,19,V,R,
507,3,3,12,4,44,36,800,['c'],1,left,['9'],5,257,[-0.04725931],3,44,hard,minus,dotcolour,beta,,,11,19,V,R,
508,4,4,12,4,33,47,1083,['n'],1,right,['8'],4,362,[0.00389324],14,47,medium,minus,dotcolour,beta,,,11,19,V,R,
509,5,5,12,4,47,33,601,['c'],1,left,['8'],4,193,[0.03750594],32,47,medium,minus,dotcolour,beta,,,11,19,V,R,
510,6,6,12,4,36,44,1150,['c'],0,right,['3'],3,1202,[0.00284321],30,44,hard,minus,dotcolour,beta,,,11,19,V,R,
511,7,7,12,4,36,44,4404,['n'],1,right,['9'],5,1507,[-0.42270624],100,44,hard,minus,dotcolour,beta,,,11,19,V,R,
512,8,8,12,4,27,53,2753,['n'],1,right,['8'],4,2372,[-0.24923887],91,53,easy,minus,dotcolour,beta,,,11,19,V,R,
513,9,9,12,4,44,36,1634,['c'],1,left,['9'],5,343,[0.04282627],40,44,hard,minus,dotcolour,beta,,,11,19,V,R,
514,10,10,12,4,33,47,667,['n'],1,right,['8'],4,381,[-0.08949348],73,47,medium,minus,dotcolour,beta,,,11,19,V,R,
515,11,11,12,4,44,36,701,['c'],1,left,['9'],5,321,[0.03200656],32,44,hard,minus,dotcolour,beta,,,11,19,V,R,
516,12,12,12,4,33,47,1082,['c'],0,right,['8'],4,398,[0.07468387],63,47,medium,minus,dotcolour,beta,,,11,19,V,R,
517,13,13,12,4,47,33,650,['c'],1,left,['8'],4,315,[0.13811558],93,47,medium,minus,dotcolour,beta,,,11,19,V,R,
518,14,14,12,4,44,36,683,['c'],1,left,['8'],4,290,[0.03449057],33,44,hard,minus,dotcolour,beta,,,11,19,V,R,
519,15,15,12,4,53,27,833,['c'],1,left,['9'],5,339,[0.1455491],94,53,easy,minus,dotcolour,beta,,,11,19,V,R,
520,16,16,12,4,53,27,568,['c'],1,left,['0'],6,349,[0.15476658],95,53,easy,minus,dotcolour,beta,,,11,19,V,R,
521,17,17,12,4,47,33,498,['c'],1,left,['0'],6,306,[0.10639328],84,47,medium,minus,dotcolour,beta,,,11,19,V,R,
522,18,18,12,4,36,44,634,['c'],0,right,['9'],5,339,[0.0768958],66,44,hard,minus,dotcolour,beta,,,11,19,V,R,
523,19,19,12,4,36,44,700,['c'],0,right,['9'],5,168,[0.08056408],75,44,hard,minus,dotcolour,beta,,,11,19,V,R,
524,20,20,12,4,36,44,1783,['n'],1,right,['8'],4,472,[-0.09037006],71,44,hard,minus,dotcolour,beta,,,11,19,V,R,
525,21,21,12,4,47,33,616,['c'],1,left,['9'],5,331,[0.09854236],79,47,medium,minus,dotcolour,beta,,,11,19,V,R,
526,22,22,12,4,36,44,1617,['n'],1,right,['9'],5,339,[-0.20805268],99,44,hard,minus,dotcolour,beta,,,11,19,V,R,
527,23,23,12,4,53,27,583,['c'],1,left,['9'],5,309,[0.17807169],98,53,easy,minus,dotcolour,beta,,,11,19,V,R,
528,24,24,12,4,27,53,999,['n'],1,right,['9'],5,311,[-0.04476229],41,53,easy,minus,dotcolour,beta,,,11,19,V,R,
529,25,25,12,4,44,36,635,['c'],1,left,['9'],5,200,[0.1337163],96,44,hard,minus,dotcolour,beta,,,11,19,V,R,
530,26,26,12,4,33,47,984,['n'],1,right,['9'],5,231,[-0.00718082],14,47,medium,minus,dotcolour,beta,,,11,19,V,R,
531,27,27,12,4,33,47,817,['n'],1,right,['9'],5,284,[-0.11758275],89,47,medium,minus,dotcolour,beta,,,11,19,V,R,
532,28,28,12,4,47,33,633,['c'],1,left,['8'],4,406,[0.10270995],79,47,medium,minus,dotcolour,beta,,,11,19,V,R,
533,29,29,12,4,44,36,833,['c'],1,left,['8'],4,795,[0.16536591],90,44,hard,minus,dotcolour,beta,,,11,19,V,R,
534,30,30,12,4,53,27,1283,['n'],0,left,['8'],4,397,[-0.04024545],39,53,easy,minus,dotcolour,beta,,,11,19,V,R,
535,31,31,12,4,47,33,634,['c'],1,left,['8'],4,211,[0.10690744],88,47,medium,minus,dotcolour,beta,,,11,19,V,R,
536,32,32,12,4,53,27,2251,['c'],1,left,['9'],5,797,[0.1833634],93,53,easy,minus,dotcolour,beta,,,11,19,V,R,
537,33,33,12,4,33,47,1919,['n'],1,right,['8'],4,1470,[-0.21259274],91,47,medium,minus,dotcolour,beta,,,11,19,V,R,
538,34,34,12,4,44,36,1500,['n'],0,left,['9'],5,467,[-0.13298047],88,44,hard,minus,dotcolour,beta,,,11,19,V,R,
539,35,35,12,4,33,47,1267,['n'],1,right,['8'],4,396,[-0.12235893],87,47,medium,minus,dotcolour,beta,,,11,19,V,R,
540,36,36,12,4,47,33,849,['c'],1,left,['8'],4,520,[0.25029524],99,47,medium,minus,dotcolour,beta,,,11,19,V,R,
541,37,37,12,4,27,53,682,['n'],1,right,['8'],4,271,[-0.05325445],48,53,easy,minus,dotcolour,beta,,,11,19,V,R,
542,38,38,12,4,27,53,883,['n'],1,right,['8'],4,215,[-0.12440697],94,53,easy,minus,dotcolour,beta,,,11,19,V,R,
543,39,39,12,4,36,44,7073,['c'],0,right,['3'],3,980,[-0.00253394],26,44,hard,minus,dotcolour,beta,,,11,19,V,R,
544,40,40,12,4,27,53,1017,['n'],1,right,['8'],4,570,[-0.12353574],83,53,easy,minus,dotcolour,beta,,,11,19,V,R,
545,41,41,12,4,53,27,1050,['c'],1,left,['9'],5,503,[0.0304142],35,53,easy,minus,dotcolour,beta,,,11,19,V,R,
546,42,0,13,4,27,53,684,['n'],1,right,['8'],4,408,[-0.02917276],32,53,easy,minus,dotcolour,beta,,,11,19,V,R,
547,43,1,13,4,53,27,666,['c'],1,left,['8'],4,2331,[0.42049887],99,53,easy,minus,dotcolour,beta,,,11,19,V,R,
548,44,2,13,4,27,53,883,['n'],1,right,['8'],4,318,[-0.06251795],56,53,easy,minus,dotcolour,beta,,,11,19,V,R,
549,45,3,13,4,44,36,2416,['c'],1,left,['9'],5,1325,[0.43169709],100,44,hard,minus,dotcolour,beta,,,11,19,V,R,
550,46,4,13,4,27,53,749,['n'],1,right,['9'],5,376,[-0.14673496],94,53,easy,minus,dotcolour,beta,,,11,19,V,R,
551,47,5,13,4,47,33,801,['c'],1,left,['9'],5,830,[0.24708551],98,47,medium,minus,dotcolour,beta,,,11,19,V,R,
552,48,6,13,4,44,36,582,['c'],1,left,['8'],4,508,[0.19285556],97,44,hard,minus,dotcolour,beta,,,11,19,V,R,
553,49,7,13,4,44,36,1618,['c'],1,left,['9'],5,325,[0.07357781],64,44,hard,minus,dotcolour,beta,,,11,19,V,R,
554,50,8,13,4,36,44,701,['c'],0,right,['9'],5,442,[-0.01323838],13,44,hard,minus,dotcolour,beta,,,11,19,V,R,
555,51,9,13,4,36,44,1384,['c'],0,right,['2'],2,1287,[0.09083599],64,44,hard,minus,dotcolour,beta,,,11,19,V,R,
556,52,10,13,4,33,47,1049,['n'],1,right,['9'],5,974,[-0.47093776],100,47,medium,minus,dotcolour,beta,,,11,19,V,R,
557,53,11,13,4,36,44,2286,['c'],0,right,['8'],4,944,[0.11034519],73,44,hard,minus,dotcolour,beta,,,11,19,V,R,
558,54,12,13,4,36,44,915,['n'],1,right,['8'],4,387,[-0.0974109],77,44,hard,minus,dotcolour,beta,,,11,19,V,R,
559,55,13,13,4,47,33,933,['c'],1,left,['9'],5,252,[0.09614352],81,47,medium,minus,dotcolour,beta,,,11,19,V,R,
560,56,14,13,4,44,36,800,['c'],1,left,['9'],5,289,[0.07939117],69,44,hard,minus,dotcolour,beta,,,11,19,V,R,
561,57,15,13,4,44,36,816,['c'],1,left,['8'],4,731,[0.29810678],99,44,hard,minus,dotcolour,beta,,,11,19,V,R,
562,58,16,13,4,47,33,682,['c'],1,left,['9'],5,377,[0.12736651],89,47,medium,minus,dotcolour,beta,,,11,19,V,R,
563,59,17,13,4,47,33,684,['c'],1,left,['0'],6,397,[0.11251009],84,47,medium,minus,dotcolour,beta,,,11,19,V,R,
564,60,18,13,4,33,47,2184,['c'],0,right,['8'],4,563,[0.06564221],56,47,medium,minus,dotcolour,beta,,,11,19,V,R,
565,61,19,13,4,27,53,900,['n'],1,right,['8'],4,422,[-0.16040134],95,53,easy,minus,dotcolour,beta,,,11,19,V,R,
566,62,20,13,4,53,27,667,['c'],1,left,['8'],4,257,[0.10353652],85,53,easy,minus,dotcolour,beta,,,11,19,V,R,
567,63,21,13,4,33,47,750,['n'],1,right,['8'],4,279,[-0.16165221],97,47,medium,minus,dotcolour,beta,,,11,19,V,R,
568,64,22,13,4,53,27,632,['c'],1,left,['8'],4,265,[0.12799083],93,53,easy,minus,dotcolour,beta,,,11,19,V,R,
569,65,23,13,4,36,44,850,['n'],1,right,['8'],4,259,[-0.04850984],44,44,hard,minus,dotcolour,beta,,,11,19,V,R,
570,66,24,13,4,27,53,666,['n'],1,right,['8'],4,309,[0.01640479],9,53,easy,minus,dotcolour,beta,,,11,19,V,R,
571,67,25,13,4,53,27,650,['c'],1,left,['8'],4,236,[0.14476077],96,53,easy,minus,dotcolour,beta,,,11,19,V,R,
572,68,26,13,4,44,36,666,['c'],1,left,['8'],4,199,[0.07974307],73,44,hard,minus,dotcolour,beta,,,11,19,V,R,
573,69,27,13,4,27,53,1400,['n'],1,right,['8'],4,262,[-0.14367116],96,53,easy,minus,dotcolour,beta,,,11,19,V,R,
574,70,28,13,4,53,27,4069,['c'],1,left,['9'],5,636,[0.07968053],63,53,easy,minus,dotcolour,beta,,,11,19,V,R,
575,71,29,13,4,44,36,1968,['c'],1,left,['9'],5,769,[0.00552585],26,44,hard,minus,dotcolour,beta,,,11,19,V,R,
576,72,30,13,4,47,33,1200,['c'],1,left,['9'],5,448,[0.12553097],87,47,medium,minus,dotcolour,beta,,,11,19,V,R,
577,73,31,13,4,27,53,3101,['n'],1,right,['1'],1,325,[-0.19417715],99,53,easy,minus,dotcolour,beta,,,11,19,V,R,
578,74,32,13,4,33,47,1684,['n'],1,right,['8'],4,1027,[-0.23691268],96,47,medium,minus,dotcolour,beta,,,11,19,V,R,
579,75,33,13,4,33,47,1450,['c'],0,right,['8'],4,381,[0.10092971],79,47,medium,minus,dotcolour,beta,,,11,19,V,R,
580,76,34,13,4,36,44,983,['c'],0,right,['8'],4,724,[0.0698574],58,44,hard,minus,dotcolour,beta,,,11,19,V,R,
581,77,35,13,4,33,47,1467,['n'],1,right,['8'],4,418,[0.04584564],6,47,medium,minus,dotcolour,beta,,,11,19,V,R,
582,78,36,13,4,33,47,1099,['n'],1,right,['8'],4,299,[-0.00437933],16,47,medium,minus,dotcolour,beta,,,11,19,V,R,
583,79,37,13,4,47,33,633,['c'],1,left,['8'],4,267,[0.0725564],64,47,medium,minus,dotcolour,beta,,,11,19,V,R,
584,80,38,13,4,53,27,733,['c'],1,left,['8'],4,227,[0.12235761],93,53,easy,minus,dotcolour,beta,,,11,19,V,R,
585,81,39,13,4,47,33,567,['c'],1,left,['8'],4,242,[0.07646817],68,47,medium,minus,dotcolour,beta,,,11,19,V,R,
586,82,40,13,4,53,27,533,['c'],1,left,['8'],4,185,[0.11753505],93,53,easy,minus,dotcolour,beta,,,11,19,V,R,
587,83,41,13,4,36,44,1333,['n'],1,right,['8'],4,226,[-0.12814976],94,44,hard,minus,dotcolour,beta,,,11,19,V,R,
588,84,0,14,4,27,53,700,['n'],1,right,['8'],4,279,[-0.16753062],98,53,easy,minus,dotcolour,beta,,,11,19,V,R,
589,85,1,14,4,36,44,1316,['n'],1,right,['1'],1,653,[-0.14824467],89,44,hard,minus,dotcolour,beta,,,11,19,V,R,
590,86,2,14,4,47,33,1083,['c'],1,left,['8'],4,318,[0.23316019],100,47,medium,minus,dotcolour,beta,,,11,19,V,R,
591,87,3,14,4,53,27,566,['c'],1,left,['9'],5,298,[0.04670671],43,53,easy,minus,dotcolour,beta,,,11,19,V,R,
592,88,4,14,4,33,47,783,['n'],1,right,['9'],5,237,[-0.19813202],99,47,medium,minus,dotcolour,beta,,,11,19,V,R,
593,89,5,14,4,27,53,1100,['n'],1,right,['9'],5,262,[-0.14137688],95,53,easy,minus,dotcolour,beta,,,11,19,V,R,
594,90,6,14,4,44,36,1752,['c'],1,left,['9'],5,162,[0.09397956],85,44,hard,minus,dotcolour,beta,,,11,19,V,R,
595,91,7,14,4,33,47,834,['n'],1,right,['9'],5,185,[-0.06216063],57,47,medium,minus,dotcolour,beta,,,11,19,V,R,
596,92,8,14,4,36,44,1035,['n'],1,right,['9'],5,215,[-0.06866876],62,44,hard,minus,dotcolour,beta,,,11,19,V,R,
597,93,9,14,4,47,33,834,['c'],1,left,['9'],5,132,[0.09717449],89,47,medium,minus,dotcolour,beta,,,11,19,V,R,
598,94,10,14,4,36,44,1333,['n'],1,right,['0'],6,224,[-0.09206473],80,44,hard,minus,dotcolour,beta,,,11,19,V,R,
599,95,11,14,4,27,53,1033,['n'],1,right,['0'],6,236,[-0.1709712],99,53,easy,minus,dotcolour,beta,,,11,19,V,R,
600,96,12,14,4,27,53,716,['c'],0,right,['1'],1,1157,[0.0179427],35,53,easy,minus,dotcolour,beta,,,11,19,V,R,
601,97,13,14,4,53,27,849,['c'],1,left,['9'],5,514,[0.12594305],85,53,easy,minus,dotcolour,beta,,,11,19,V,R,
602,98,14,14,4,53,27,533,['c'],1,left,['0'],6,383,[0.18425819],98,53,easy,minus,dotcolour,beta,,,11,19,V,R,
603,99,15,14,4,36,44,501,['c'],0,right,['8'],4,730,[0.03171033],38,44,hard,minus,dotcolour,beta,,,11,19,V,R,
604,100,16,14,4,53,27,717,['c'],1,left,['9'],5,383,[0.15176817],94,53,easy,minus,dotcolour,beta,,,11,19,V,R,
605,101,17,14,4,53,27,701,['c'],1,left,['0'],6,202,[0.01600046],17,53,easy,minus,dotcolour,beta,,,11,19,V,R,
606,102,18,14,4,53,27,550,['c'],1,left,['0'],6,227,[0.12577419],93,53,easy,minus,dotcolour,beta,,,11,19,V,R,
607,103,19,14,4,33,47,999,['n'],1,right,['8'],4,384,[-0.19231792],98,47,medium,minus,dotcolour,beta,,,11,19,V,R,
608,104,20,14,4,47,33,700,['c'],1,left,['9'],5,332,[0.11909217],88,47,medium,minus,dotcolour,beta,,,11,19,V,R,
609,105,21,14,4,27,53,733,['n'],1,right,['8'],4,256,[-0.04976897],45,53,easy,minus,dotcolour,beta,,,11,19,V,R,
610,106,22,14,4,36,44,1350,['n'],1,right,['8'],4,493,[-0.08899501],70,44,hard,minus,dotcolour,beta,,,11,19,V,R,
611,107,23,14,4,44,36,783,['c'],1,left,['9'],5,321,[0.16594426],97,44,hard,minus,dotcolour,beta,,,11,19,V,R,
612,108,24,14,4,44,36,900,['n'],0,left,['9'],5,325,[-0.0289442],30,44,hard,minus,dotcolour,beta,,,11,19,V,R,
613,109,25,14,4,44,36,1784,['n'],0,left,['9'],5,222,[-0.07894548],71,44,hard,minus,dotcolour,beta,,,11,19,V,R,
614,110,26,14,4,44,36,733,['c'],1,left,['9'],5,200,[0.09505209],83,44,hard,minus,dotcolour,beta,,,11,19,V,R,
615,111,27,14,4,36,44,833,['n'],1,right,['9'],5,253,[-0.09741195],82,44,hard,minus,dotcolour,beta,,,11,19,V,R,
616,112,28,14,4,44,36,1701,['n'],0,left,['9'],5,245,[-0.03406725],31,44,hard,minus,dotcolour,beta,,,11,19,V,R,
617,113,29,14,4,33,47,1099,['n'],1,right,['9'],5,221,[-0.17427093],99,47,medium,minus,dotcolour,beta,,,11,19,V,R,
618,114,30,14,4,47,33,1584,['c'],1,left,['9'],5,178,[0.06744593],62,47,medium,minus,dotcolour,beta,,,11,19,V,R,
619,115,31,14,4,47,33,901,['c'],1,left,['9'],5,118,[0.17547831],100,47,medium,minus,dotcolour,beta,,,11,19,V,R,
620,116,32,14,4,53,27,565,['c'],1,left,['9'],5,234,[0.13957252],96,53,easy,minus,dotcolour,beta,,,11,19,V,R,
621,117,33,14,4,27,53,633,['n'],1,right,['9'],5,206,[-0.04141759],36,53,easy,minus,dotcolour,beta,,,11,19,V,R,
622,118,34,14,4,33,47,933,['n'],1,right,['9'],5,239,[-0.0990832],83,47,medium,minus,dotcolour,beta,,,11,19,V,R,
623,119,35,14,4,47,33,3403,['c'],1,left,['9'],5,706,[0.09003988],68,47,medium,minus,dotcolour,beta,,,11,19,V,R,
624,120,36,14,4,27,53,1302,['n'],1,right,['9'],5,342,[-0.10980913],84,53,easy,minus,dotcolour,beta,,,11,19,V,R,
625,121,37,14,4,36,44,3153,['n'],1,right,['8'],4,790,[-0.34831262],100,44,hard,minus,dotcolour,beta,,,11,19,V,R,
626,122,38,14,4,33,47,1534,['n'],1,right,['8'],4,759,[-0.12215312],80,47,medium,minus,dotcolour,beta,,,11,19,V,R,
627,123,39,14,4,44,36,851,['c'],1,left,['8'],4,284,[0.17745207],98,44,hard,minus,dotcolour,beta,,,11,19,V,R,
628,124,40,14,4,47,33,2134,['c'],1,left,['8'],4,225,[0.10109054],85,47,medium,minus,dotcolour,beta,,,11,19,V,R,
629,125,41,14,4,33,47,666,['n'],1,right,['8'],4,228,[-0.07865336],70,47,medium,minus,dotcolour,beta,,,11,19,V,R,
630,0,0,15,5,47,33,701,['c'],1,left,['8'],4,248,[0.04887333],98,47,medium,plus,dotcolour,beta,,,11,19,V,R,
631,1,1,15,5,47,33,617,['c'],1,left,['8'],4,156,[0.11369282],100,47,medium,plus,dotcolour,beta,,,11,19,V,R,
632,2,2,15,5,27,53,532,['n'],1,right,['8'],4,256,[-0.00170782],88,53,easy,plus,dotcolour,beta,,,11,19,V,R,
633,3,3,15,5,27,53,950,['c'],0,right,['2'],2,1174,[-0.10317871],31,53,easy,plus,dotcolour,beta,,,11,19,V,R,
634,4,4,15,5,47,33,666,['c'],1,left,['8'],4,313,[0.17705167],100,47,medium,plus,dotcolour,beta,,,11,19,V,R,
635,5,5,15,5,44,36,600,['c'],1,left,['9'],5,363,[0.15402629],100,44,hard,plus,dotcolour,beta,,,11,19,V,R,
636,6,6,15,5,36,44,734,['n'],1,right,['8'],4,358,[-0.09656481],99,44,hard,plus,dotcolour,beta,,,11,19,V,R,
637,7,7,15,5,27,53,1116,['n'],1,right,['8'],4,465,[-0.10225966],98,53,easy,plus,dotcolour,beta,,,11,19,V,R,
638,8,8,15,5,27,53,716,['n'],1,right,['8'],4,217,[-0.12606504],100,53,easy,plus,dotcolour,beta,,,11,19,V,R,
639,9,9,15,5,44,36,750,['c'],1,left,['8'],4,273,[0.04669466],97,44,hard,plus,dotcolour,beta,,,11,19,V,R,
640,10,10,15,5,47,33,684,['c'],1,left,['8'],4,281,[0.10269744],100,47,medium,plus,dotcolour,beta,,,11,19,V,R,
641,11,11,15,5,27,53,751,['n'],1,right,['8'],4,262,[-0.17269269],100,53,easy,plus,dotcolour,beta,,,11,19,V,R,
642,12,12,15,5,33,47,733,['n'],1,right,['8'],4,253,[-0.20042163],100,47,medium,plus,dotcolour,beta,,,11,19,V,R,
643,13,13,15,5,33,47,848,['n'],1,right,['8'],4,288,[-0.113447],100,47,medium,plus,dotcolour,beta,,,11,19,V,R,
644,14,14,15,5,44,36,1284,['c'],1,left,['8'],4,238,[0.04692891],98,44,hard,plus,dotcolour,beta,,,11,19,V,R,
645,15,15,15,5,33,47,816,['n'],1,right,['8'],4,283,[-0.12990727],100,47,medium,plus,dotcolour,beta,,,11,19,V,R,
646,16,16,15,5,47,33,666,['c'],1,left,['8'],4,228,[0.11637379],100,47,medium,plus,dotcolour,beta,,,11,19,V,R,
647,17,17,15,5,53,27,584,['c'],1,left,['8'],4,251,[0.12661208],100,53,easy,plus,dotcolour,beta,,,11,19,V,R,
648,18,18,15,5,33,47,683,['n'],1,right,['8'],4,235,[0.01164363],84,47,medium,plus,dotcolour,beta,,,11,19,V,R,
649,19,19,15,5,36,44,751,['n'],1,right,['8'],4,243,[-0.15704837],100,44,hard,plus,dotcolour,beta,,,11,19,V,R,
650,20,20,15,5,33,47,1217,['n'],1,right,['8'],4,302,[-0.0706282],98,47,medium,plus,dotcolour,beta,,,11,19,V,R,
651,21,21,15,5,36,44,833,['n'],1,right,['8'],4,247,[-0.13398639],100,44,hard,plus,dotcolour,beta,,,11,19,V,R,
652,22,22,15,5,53,27,566,['c'],1,left,['8'],4,229,[0.13579286],100,53,easy,plus,dotcolour,beta,,,11,19,V,R,
653,23,23,15,5,53,27,650,['c'],1,left,['8'],4,153,[0.10376714],100,53,easy,plus,dotcolour,beta,,,11,19,V,R,
654,24,24,15,5,33,47,750,['n'],1,right,['8'],4,195,[-0.14685858],100,47,medium,plus,dotcolour,beta,,,11,19,V,R,
655,25,25,15,5,36,44,1033,['n'],1,right,['8'],4,185,[-0.12060501],100,44,hard,plus,dotcolour,beta,,,11,19,V,R,
656,26,26,15,5,53,27,583,['n'],0,left,['2'],2,1449,[0.19725694],11,53,easy,plus,dotcolour,beta,,,11,19,V,R,
657,27,27,15,5,53,27,1152,['c'],1,left,['8'],4,277,[0.05445362],98,53,easy,plus,dotcolour,beta,,,11,19,V,R,
658,28,28,15,5,36,44,1017,['n'],1,right,['8'],4,272,[-0.04411263],97,44,hard,plus,dotcolour,beta,,,11,19,V,R,
659,29,29,15,5,47,33,800,['c'],1,left,['9'],5,220,[0.11035804],100,47,medium,plus,dotcolour,beta,,,11,19,V,R,
660,30,30,15,5,27,53,1266,['c'],0,right,['9'],5,423,[-0.04395446],58,53,easy,plus,dotcolour,beta,,,11,19,V,R,
661,31,31,15,5,44,36,615,['c'],1,left,['9'],5,164,[0.0929472],100,44,hard,plus,dotcolour,beta,,,11,19,V,R,
662,32,32,15,5,47,33,917,['c'],1,left,['0'],6,247,[0.11877682],100,47,medium,plus,dotcolour,beta,,,11,19,V,R,
663,33,33,15,5,36,44,1199,['n'],1,right,['8'],4,683,[-0.08487347],96,44,hard,plus,dotcolour,beta,,,11,19,V,R,
664,34,34,15,5,44,36,684,['c'],1,left,['0'],6,250,[0.07657984],99,44,hard,plus,dotcolour,beta,,,11,19,V,R,
665,35,35,15,5,53,27,634,['c'],1,left,['0'],6,222,[0.10274253],100,53,easy,plus,dotcolour,beta,,,11,19,V,R,
666,36,36,15,5,44,36,649,['c'],1,left,['0'],6,194,[0.01718534],95,44,hard,plus,dotcolour,beta,,,11,19,V,R,
667,37,37,15,5,44,36,566,['c'],1,left,['0'],6,154,[0.10304227],100,44,hard,plus,dotcolour,beta,,,11,19,V,R,
668,38,38,15,5,36,44,566,['c'],0,right,['0'],6,212,[0.0801113],100,44,hard,plus,dotcolour,beta,,,11,19,V,R,
669,39,39,15,5,33,47,1017,['n'],1,right,['8'],4,370,[-0.08703868],99,47,medium,plus,dotcolour,beta,,,11,19,V,R,
670,40,40,15,5,53,27,966,['c'],1,left,['0'],6,195,[0.12016593],100,53,easy,plus,dotcolour,beta,,,11,19,V,R,
671,41,41,15,5,27,53,884,['n'],1,right,['9'],5,238,[-0.11809046],100,53,easy,plus,dotcolour,beta,,,11,19,V,R,
672,42,0,16,5,27,53,2870,['n'],1,right,['1'],1,665,[-0.14509279],99,53,easy,plus,dotcolour,beta,,,11,19,V,R,
673,43,1,16,5,53,27,934,['c'],1,left,['9'],5,375,[0.12080398],99,53,easy,plus,dotcolour,beta,,,11,19,V,R,
674,44,2,16,5,44,36,918,['c'],1,left,['0'],6,298,[0.08085635],99,44,hard,plus,dotcolour,beta,,,11,19,V,R,
675,45,3,16,5,44,36,615,['c'],1,left,['0'],6,197,[0.10301502],100,44,hard,plus,dotcolour,beta,,,11,19,V,R,
676,46,4,16,5,27,53,732,['n'],1,right,['8'],4,261,[-0.0638853],99,53,easy,plus,dotcolour,beta,,,11,19,V,R,
677,47,5,16,5,36,44,449,['c'],0,right,['8'],4,408,[0.09298021],99,44,hard,plus,dotcolour,beta,,,11,19,V,R,
678,48,6,16,5,47,33,518,['c'],1,left,['9'],5,346,[0.19025795],100,47,medium,plus,dotcolour,beta,,,11,19,V,R,
679,49,7,16,5,36,44,885,['n'],1,right,['9'],5,319,[-0.07565265],98,44,hard,plus,dotcolour,beta,,,11,19,V,R,
680,50,8,16,5,36,44,1769,['n'],1,right,['9'],5,289,[-0.12775586],100,44,hard,plus,dotcolour,beta,,,11,19,V,R,
681,51,9,16,5,33,47,665,['n'],1,right,['9'],5,322,[-0.10349707],99,47,medium,plus,dotcolour,beta,,,11,19,V,R,
682,52,10,16,5,33,47,1051,['n'],1,right,['9'],5,257,[-0.14363124],100,47,medium,plus,dotcolour,beta,,,11,19,V,R,
683,53,11,16,5,36,44,685,['n'],1,right,['9'],5,258,[-0.03748972],96,44,hard,plus,dotcolour,beta,,,11,19,V,R,
684,54,12,16,5,27,53,700,['n'],1,right,['9'],5,234,[-0.11292247],100,53,easy,plus,dotcolour,beta,,,11,19,V,R,
685,55,13,16,5,27,53,651,['n'],1,right,['9'],5,294,[-0.05984029],98,53,easy,plus,dotcolour,beta,,,11,19,V,R,
686,56,14,16,5,53,27,716,['c'],1,left,['9'],5,164,[0.07538052],100,53,easy,plus,dotcolour,beta,,,11,19,V,R,
687,57,15,16,5,44,36,633,['n'],0,left,['9'],5,219,[-0.09624041],100,44,hard,plus,dotcolour,beta,,,11,19,V,R,
688,58,16,16,5,44,36,616,['c'],1,left,['9'],5,200,[0.10076324],100,44,hard,plus,dotcolour,beta,,,11,19,V,R,
689,59,17,16,5,27,53,702,['n'],1,right,['9'],5,242,[-0.11753485],100,53,easy,plus,dotcolour,beta,,,11,19,V,R,
690,60,18,16,5,33,47,665,['n'],1,right,['9'],5,229,[-0.07874211],99,47,medium,plus,dotcolour,beta,,,11,19,V,R,
691,61,19,16,5,36,44,598,['n'],1,right,['9'],5,234,[-0.12019579],100,44,hard,plus,dotcolour,beta,,,11,19,V,R,
692,62,20,16,5,53,27,733,['c'],1,left,['9'],5,210,[0.06811185],99,53,easy,plus,dotcolour,beta,,,11,19,V,R,
693,63,21,16,5,33,47,1033,['n'],1,right,['9'],5,222,[-0.01875087],94,47,medium,plus,dotcolour,beta,,,11,19,V,R,
694,64,22,16,5,44,36,767,['c'],1,left,['9'],5,230,[0.05979324],99,44,hard,plus,dotcolour,beta,,,11,19,V,R,
695,65,23,16,5,33,47,867,['n'],1,right,['9'],5,273,[-0.018435],93,47,medium,plus,dotcolour,beta,,,11,19,V,R,
696,66,24,16,5,47,33,649,['c'],1,left,['9'],5,226,[-0.00304308],88,47,medium,plus,dotcolour,beta,,,11,19,V,R,
697,67,25,16,5,53,27,667,['c'],1,left,['0'],6,261,[0.07725232],99,53,easy,plus,dotcolour,beta,,,11,19,V,R,
698,68,26,16,5,47,33,682,['c'],1,left,['0'],6,197,[0.13057146],100,47,medium,plus,dotcolour,beta,,,11,19,V,R,
699,69,27,16,5,33,47,1000,['n'],1,right,['0'],6,308,[-0.06863514],98,47,medium,plus,dotcolour,beta,,,11,19,V,R,
700,70,28,16,5,47,33,684,['c'],1,left,['0'],6,227,[0.09697109],100,47,medium,plus,dotcolour,beta,,,11,19,V,R,
701,71,29,16,5,47,33,633,['c'],1,left,['0'],6,215,[0.20838723],100,47,medium,plus,dotcolour,beta,,,11,19,V,R,
702,72,30,16,5,36,44,981,['n'],1,right,['9'],5,222,[-0.02828928],96,44,hard,plus,dotcolour,beta,,,11,19,V,R,
703,73,31,16,5,44,36,583,['c'],1,left,['0'],6,204,[0.02526772],96,44,hard,plus,dotcolour,beta,,,11,19,V,R,
704,74,32,16,5,47,33,617,['c'],1,left,['0'],6,218,[0.1751975],100,47,medium,plus,dotcolour,beta,,,11,19,V,R,
705,75,33,16,5,53,27,600,['c'],1,left,['0'],6,257,[0.14657972],100,53,easy,plus,dotcolour,beta,,,11,19,V,R,
706,76,34,16,5,53,27,784,['c'],1,left,['0'],6,174,[0.02588168],97,53,easy,plus,dotcolour,beta,,,11,19,V,R,
707,77,35,16,5,36,44,750,['c'],0,right,['8'],4,849,[0.08240664],94,44,hard,plus,dotcolour,beta,,,11,19,V,R,
708,78,36,16,5,27,53,800,['n'],1,right,['9'],5,308,[-0.17119776],100,53,easy,plus,dotcolour,beta,,,11,19,V,R,
709,79,37,16,5,33,47,668,['c'],0,right,['9'],5,236,[0.09924492],100,47,medium,plus,dotcolour,beta,,,11,19,V,R,
710,80,38,16,5,47,33,800,['c'],1,left,['9'],5,265,[0.02691475],95,47,medium,plus,dotcolour,beta,,,11,19,V,R,
711,81,39,16,5,27,53,1001,['n'],1,right,['9'],5,293,[-0.04835909],97,53,easy,plus,dotcolour,beta,,,11,19,V,R,
712,82,40,16,5,53,27,618,['c'],1,left,['9'],5,191,[0.13006089],100,53,easy,plus,dotcolour,beta,,,11,19,V,R,
713,83,41,16,5,44,36,1217,['n'],0,left,['8'],4,397,[0.00396699],81,44,hard,plus,dotcolour,beta,,,11,19,V,R,
714,84,0,17,5,36,44,867,['n'],1,right,['8'],4,353,[-0.09600089],99,44,hard,plus,dotcolour,beta,,,11,19,V,R,
715,85,1,17,5,44,36,867,['n'],0,left,['8'],4,231,[-0.08543937],99,44,hard,plus,dotcolour,beta,,,11,19,V,R,
716,86,2,17,5,27,53,5804,['n'],1,right,['0'],6,416,[-0.18267197],100,53,easy,plus,dotcolour,beta,,,11,19,V,R,
717,87,3,17,5,36,44,2735,['c'],0,right,['8'],4,686,[-0.04227416],57,44,hard,plus,dotcolour,beta,,,11,19,V,R,
718,88,4,17,5,53,27,1384,['c'],1,left,['8'],4,288,[0.12487994],100,53,easy,plus,dotcolour,beta,,,11,19,V,R,
719,89,5,17,5,44,36,583,['c'],1,left,['8'],4,308,[0.01956394],92,44,hard,plus,dotcolour,beta,,,11,19,V,R,
720,90,6,17,5,44,36,616,['c'],1,left,['8'],4,222,[0.11804405],100,44,hard,plus,dotcolour,beta,,,11,19,V,R,
721,91,7,17,5,33,47,733,['n'],1,right,['8'],4,238,[-0.06532516],99,47,medium,plus,dotcolour,beta,,,11,19,V,R,
722,92,8,17,5,36,44,748,['n'],1,right,['8'],4,222,[-0.07969863],99,44,hard,plus,dotcolour,beta,,,11,19,V,R,
723,93,9,17,5,36,44,548,['n'],1,right,['8'],4,229,[-0.15429921],100,44,hard,plus,dotcolour,beta,,,11,19,V,R,
724,94,10,17,5,27,53,651,['n'],1,right,['8'],4,201,[-0.10457233],100,53,easy,plus,dotcolour,beta,,,11,19,V,R,
725,95,11,17,5,47,33,516,['n'],0,left,['8'],4,195,[-0.14794915],100,47,medium,plus,dotcolour,beta,,,11,19,V,R,
726,96,12,17,5,53,27,551,['c'],1,left,['8'],4,196,[0.11304406],100,53,easy,plus,dotcolour,beta,,,11,19,V,R,
727,97,13,17,5,27,53,683,['n'],1,right,['8'],4,160,[-0.10139229],100,53,easy,plus,dotcolour,beta,,,11,19,V,R,
728,98,14,17,5,33,47,665,['c'],0,right,['8'],4,230,[-0.01523838],82,47,medium,plus,dotcolour,beta,,,11,19,V,R,
729,99,15,17,5,44,36,698,['n'],0,left,['8'],4,167,[-0.07206247],100,44,hard,plus,dotcolour,beta,,,11,19,V,R,
730,100,16,17,5,27,53,1202,['n'],1,right,['8'],4,159,[-0.03561638],98,53,easy,plus,dotcolour,beta,,,11,19,V,R,
731,101,17,17,5,53,27,618,['c'],1,left,['8'],4,198,[0.12843554],100,53,easy,plus,dotcolour,beta,,,11,19,V,R,
732,102,18,17,5,47,33,584,['c'],1,left,['8'],4,166,[0.11783056],100,47,medium,plus,dotcolour,beta,,,11,19,V,R,
733,103,19,17,5,53,27,499,['c'],1,left,['8'],4,234,[0.07040799],99,53,easy,plus,dotcolour,beta,,,11,19,V,R,
734,104,20,17,5,33,47,467,['c'],0,right,['8'],4,238,[-0.00083775],88,47,medium,plus,dotcolour,beta,,,11,19,V,R,
735,105,21,17,5,47,33,767,['c'],1,left,['8'],4,284,[0.1573816],100,47,medium,plus,dotcolour,beta,,,11,19,V,R,
736,106,22,17,5,44,36,999,['n'],0,left,['9'],5,199,[-0.09927318],100,44,hard,plus,dotcolour,beta,,,11,19,V,R,
737,107,23,17,5,36,44,1435,['n'],1,right,['9'],5,173,[-0.08798356],100,44,hard,plus,dotcolour,beta,,,11,19,V,R,
738,108,24,17,5,44,36,616,['c'],1,left,['9'],5,188,[0.01743937],95,44,hard,plus,dotcolour,beta,,,11,19,V,R,
739,109,25,17,5,33,47,668,['n'],1,right,['9'],5,185,[-0.0920559],100,47,medium,plus,dotcolour,beta,,,11,19,V,R,
740,110,26,17,5,27,53,815,['n'],1,right,['9'],5,224,[-0.0627407],99,53,easy,plus,dotcolour,beta,,,11,19,V,R,
741,111,27,17,5,53,27,700,['c'],1,left,['9'],5,193,[0.12503415],100,53,easy,plus,dotcolour,beta,,,11,19,V,R,
742,112,28,17,5,47,33,732,['c'],1,left,['0'],6,155,[0.09017356],100,47,medium,plus,dotcolour,beta,,,11,19,V,R,
743,113,29,17,5,33,47,966,['n'],1,right,['0'],6,180,[-0.13370558],100,47,medium,plus,dotcolour,beta,,,11,19,V,R,
744,114,30,17,5,33,47,1184,['n'],1,right,['9'],5,301,[-0.20231686],100,47,medium,plus,dotcolour,beta,,,11,19,V,R,
745,115,31,17,5,27,53,2185,['n'],1,right,['0'],6,334,[-0.14074193],100,53,easy,plus,dotcolour,beta,,,11,19,V,R,
746,116,32,17,5,44,36,2417,['n'],0,left,['9'],5,350,[-0.02020194],91,44,hard,plus,dotcolour,beta,,,11,19,V,R,
747,117,33,17,5,47,33,2152,['n'],0,left,['9'],5,270,[0.00205529],86,47,medium,plus,dotcolour,beta,,,11,19,V,R,
748,118,34,17,5,47,33,967,['c'],1,left,['9'],5,275,[0.12006977],100,47,medium,plus,dotcolour,beta,,,11,19,V,R,
749,119,35,17,5,27,53,867,['n'],1,right,['0'],6,211,[-0.09127894],100,53,easy,plus,dotcolour,beta,,,11,19,V,R,
750,120,36,17,5,47,33,684,['c'],1,left,['0'],6,198,[0.03494526],97,47,medium,plus,dotcolour,beta,,,11,19,V,R,
751,121,37,17,5,36,44,350,['c'],0,right,['0'],6,575,[0.08653347],97,44,hard,plus,dotcolour,beta,,,11,19,V,R,
752,122,38,17,5,36,44,818,['n'],1,right,['0'],6,222,[-0.04945021],98,44,hard,plus,dotcolour,beta,,,11,19,V,R,
753,123,39,17,5,33,47,966,['n'],1,right,['0'],6,252,[-0.05172813],98,47,medium,plus,dotcolour,beta,,,11,19,V,R,
754,124,40,17,5,53,27,635,['c'],1,left,['0'],6,240,[0.11745948],100,53,easy,plus,dotcolour,beta,,,11,19,V,R,
755,125,41,17,5,53,27,734,['c'],1,left,['0'],6,431,[0.09151576],98,53,easy,plus,dotcolour,beta,,,11,19,V,R,
,,,,,,,,,,,,,,,,,,,,,1,neen,11,19,V,R,
,,,,,,,,,,,,,,,,,,,,,2,['f'],11,19,V,R,
,,,,,,,,,,,,,,,,,,,,,3,['g'],11,19,V,R,
,,,,,,,,,,,,,,,,,,,,,5,['5'],11,19,V,R,
