trial,withinphasetrial,withinblocktrial,block,phase,dotsLeft,dotsRight,rt,resp,cor,cresp,conf_press,cj,RTconf,ev,fb,diff,difflevel,condition,task,manip,questionID,questionResp,sub,age,gender,handedness,
0,0,0,0,0,47,33,916,['c'],1,left,['9'],5,1615,[0.3118641],97,47,medium,minus,dotcolour,beta,,,71,18,V,L,
1,1,1,0,0,47,33,2066,['c'],1,left,['8'],4,1292,[0.14527012],81,47,medium,minus,dotcolour,beta,,,71,18,V,L,
2,2,2,0,0,33,47,848,['n'],1,right,['3'],3,872,[-0.15647204],87,47,medium,minus,dotcolour,beta,,,71,18,V,L,
3,3,3,0,0,36,44,916,['n'],1,right,['9'],5,810,[-0.12600619],80,44,hard,minus,dotcolour,beta,,,71,18,V,L,
4,4,4,0,0,27,53,1283,['n'],1,right,['8'],4,687,[0.03961805],11,53,easy,minus,dotcolour,beta,,,71,18,V,L,
5,5,5,0,0,47,33,1248,['c'],1,left,['9'],5,834,[0.22427973],97,47,medium,minus,dotcolour,beta,,,71,18,V,L,
6,6,6,0,0,47,33,1115,['c'],1,left,['9'],5,1005,[0.27289435],98,47,medium,minus,dotcolour,beta,,,71,18,V,L,
7,7,7,0,0,44,36,982,['n'],0,left,['9'],5,486,[-0.07701316],64,44,hard,minus,dotcolour,beta,,,71,18,V,L,
8,8,8,0,0,44,36,1165,['n'],0,left,['3'],3,829,[-0.18243548],92,44,hard,minus,dotcolour,beta,,,71,18,V,L,
9,9,9,0,0,33,47,1166,['c'],0,right,['9'],5,511,[-0.03450838],9,47,medium,minus,dotcolour,beta,,,71,18,V,L,
10,10,10,0,0,33,47,747,['n'],1,right,['9'],5,389,[-0.13174853],90,47,medium,minus,dotcolour,beta,,,71,18,V,L,
11,11,11,0,0,53,27,915,['c'],1,left,['9'],5,1017,[0.20399633],93,53,easy,minus,dotcolour,beta,,,71,18,V,L,
12,12,12,0,0,36,44,866,['c'],0,right,['9'],5,655,[0.00395766],24,44,hard,minus,dotcolour,beta,,,71,18,V,L,
13,13,13,0,0,53,27,816,['c'],1,left,['9'],5,461,[0.07878521],65,53,easy,minus,dotcolour,beta,,,71,18,V,L,
14,14,14,0,0,36,44,999,['c'],0,right,['9'],5,603,[0.15848502],92,44,hard,minus,dotcolour,beta,,,71,18,V,L,
15,15,15,0,0,53,27,880,['c'],1,left,['0'],6,369,[0.0801468],67,53,easy,minus,dotcolour,beta,,,71,18,V,L,
16,16,16,0,0,27,53,882,['n'],1,right,['9'],5,664,[-0.10862246],76,53,easy,minus,dotcolour,beta,,,71,18,V,L,
17,17,17,0,0,53,27,800,['c'],1,left,['8'],4,519,[0.28886994],100,53,easy,minus,dotcolour,beta,,,71,18,V,L,
18,18,18,0,0,44,36,832,['c'],1,left,['9'],5,394,[0.13645728],91,44,hard,minus,dotcolour,beta,,,71,18,V,L,
19,19,19,0,0,33,47,847,['n'],1,right,['8'],4,633,[-0.15245982],90,47,medium,minus,dotcolour,beta,,,71,18,V,L,
20,20,20,0,0,36,44,915,['n'],1,right,['8'],4,540,[-0.01964899],29,44,hard,minus,dotcolour,beta,,,71,18,V,L,
21,21,21,0,0,47,33,848,['c'],1,left,['8'],4,525,[0.12117008],84,47,medium,minus,dotcolour,beta,,,71,18,V,L,
22,22,22,0,0,33,47,764,['c'],0,right,['9'],5,459,[0.07623773],63,47,medium,minus,dotcolour,beta,,,71,18,V,L,
23,23,23,0,0,27,53,532,['n'],1,right,['9'],5,500,[-0.1832241],96,53,easy,minus,dotcolour,beta,,,71,18,V,L,
24,24,24,0,0,33,47,649,['c'],0,right,['9'],5,416,[-0.103883],1,47,medium,minus,dotcolour,beta,,,71,18,V,L,
25,25,25,0,0,36,44,849,['c'],0,right,['9'],5,398,[0.10687044],81,44,hard,minus,dotcolour,beta,,,71,18,V,L,
26,26,26,0,0,53,27,765,['c'],1,left,['0'],6,577,[0.09860481],73,53,easy,minus,dotcolour,beta,,,71,18,V,L,
27,27,27,0,0,27,53,615,['n'],1,right,['9'],5,434,[-0.05600981],50,53,easy,minus,dotcolour,beta,,,71,18,V,L,
28,28,28,0,0,27,53,832,['c'],0,right,['9'],5,569,[0.05526625],50,53,easy,minus,dotcolour,beta,,,71,18,V,L,
29,29,29,0,0,44,36,732,['c'],1,left,['9'],5,582,[0.08075324],64,44,hard,minus,dotcolour,beta,,,71,18,V,L,
30,30,30,0,0,53,27,781,['c'],1,left,['9'],5,577,[0.18757029],96,53,easy,minus,dotcolour,beta,,,71,18,V,L,
31,31,31,0,0,44,36,749,['n'],0,left,['8'],4,549,[-0.17083602],94,44,hard,minus,dotcolour,beta,,,71,18,V,L,
32,32,32,0,0,27,53,964,['n'],1,right,['8'],4,529,[-0.12471559],85,53,easy,minus,dotcolour,beta,,,71,18,V,L,
33,33,33,0,0,53,27,582,['c'],1,left,['9'],5,703,[0.33661904],100,53,easy,minus,dotcolour,beta,,,71,18,V,L,
34,34,34,0,0,27,53,733,['n'],1,right,['0'],6,446,[-0.0835678],68,53,easy,minus,dotcolour,beta,,,71,18,V,L,
35,35,35,0,0,33,47,697,['n'],1,right,['9'],5,393,[-0.17371888],97,47,medium,minus,dotcolour,beta,,,71,18,V,L,
36,36,36,0,0,36,44,514,['c'],0,right,['9'],5,558,[0.03277338],37,44,hard,minus,dotcolour,beta,,,71,18,V,L,
37,37,37,0,0,44,36,897,['c'],1,left,['8'],4,436,[0.08243795],68,44,hard,minus,dotcolour,beta,,,71,18,V,L,
38,38,38,0,0,47,33,730,['c'],1,left,['9'],5,559,[0.00386834],22,47,medium,minus,dotcolour,beta,,,71,18,V,L,
39,39,39,0,0,44,36,713,['c'],1,left,['3'],3,613,[-0.02665917],13,44,hard,minus,dotcolour,beta,,,71,18,V,L,
40,40,40,0,0,47,33,832,['c'],1,left,['9'],5,437,[0.16376059],95,47,medium,minus,dotcolour,beta,,,71,18,V,L,
41,41,41,0,0,36,44,749,['n'],1,right,['8'],4,574,[0.11739899],2,44,hard,minus,dotcolour,beta,,,71,18,V,L,
42,42,0,1,0,33,47,767,['n'],1,right,['9'],5,362,[-0.09496412],76,47,medium,minus,dotcolour,beta,,,71,18,V,L,
43,43,1,1,0,33,47,615,['n'],1,right,['9'],5,332,[-0.13000515],91,47,medium,minus,dotcolour,beta,,,71,18,V,L,
44,44,2,1,0,27,53,533,['n'],1,right,['9'],5,347,[-0.1619401],96,53,easy,minus,dotcolour,beta,,,71,18,V,L,
45,45,3,1,0,27,53,482,['n'],1,right,['9'],5,427,[-0.18496843],97,53,easy,minus,dotcolour,beta,,,71,18,V,L,
46,46,4,1,0,47,33,632,['n'],0,left,['9'],5,329,[-0.04265632],40,47,medium,minus,dotcolour,beta,,,71,18,V,L,
47,47,5,1,0,27,53,647,['n'],1,right,['8'],4,379,[-0.16768292],96,53,easy,minus,dotcolour,beta,,,71,18,V,L,
48,48,6,1,0,33,47,698,['n'],1,right,['8'],4,329,[-0.01577283],22,47,medium,minus,dotcolour,beta,,,71,18,V,L,
49,49,7,1,0,47,33,582,['c'],1,left,['9'],5,462,[0.1833365],97,47,medium,minus,dotcolour,beta,,,71,18,V,L,
50,50,8,1,0,36,44,564,['n'],1,right,['8'],4,406,[-0.15489855],94,44,hard,minus,dotcolour,beta,,,71,18,V,L,
51,51,9,1,0,44,36,597,['c'],1,left,['9'],5,463,[0.11781983],84,44,hard,minus,dotcolour,beta,,,71,18,V,L,
52,52,10,1,0,53,27,749,['c'],1,left,['9'],5,344,[0.13703506],92,53,easy,minus,dotcolour,beta,,,71,18,V,L,
53,53,11,1,0,33,47,515,['n'],1,right,['8'],4,462,[-0.11558175],83,47,medium,minus,dotcolour,beta,,,71,18,V,L,
54,54,12,1,0,44,36,549,['c'],1,left,['9'],5,359,[0.13030711],90,44,hard,minus,dotcolour,beta,,,71,18,V,L,
55,55,13,1,0,47,33,465,['c'],1,left,['8'],4,454,[0.08954918],71,47,medium,minus,dotcolour,beta,,,71,18,V,L,
56,56,14,1,0,27,53,447,['n'],1,right,['8'],4,412,[-0.16180356],95,53,easy,minus,dotcolour,beta,,,71,18,V,L,
57,57,15,1,0,33,47,566,['n'],1,right,['3'],3,446,[-0.15653296],94,47,medium,minus,dotcolour,beta,,,71,18,V,L,
58,58,16,1,0,36,44,531,['n'],1,right,['8'],4,432,[-0.11873025],85,44,hard,minus,dotcolour,beta,,,71,18,V,L,
59,59,17,1,0,53,27,415,['c'],1,left,['8'],4,464,[0.15744932],94,53,easy,minus,dotcolour,beta,,,71,18,V,L,
60,60,18,1,0,27,53,533,['n'],1,right,['8'],4,481,[-0.13707365],89,53,easy,minus,dotcolour,beta,,,71,18,V,L,
61,61,19,1,0,36,44,549,['n'],1,right,['3'],3,673,[-0.11844279],80,44,hard,minus,dotcolour,beta,,,71,18,V,L,
62,62,20,1,0,53,27,598,['n'],0,left,['3'],3,703,[-0.06047802],53,53,easy,minus,dotcolour,beta,,,71,18,V,L,
63,63,21,1,0,44,36,765,['c'],1,left,['8'],4,453,[0.21514743],99,44,hard,minus,dotcolour,beta,,,71,18,V,L,
64,64,22,1,0,47,33,715,['n'],0,left,['8'],4,447,[0.03361308],8,47,medium,minus,dotcolour,beta,,,71,18,V,L,
65,65,23,1,0,44,36,715,['c'],1,left,['8'],4,505,[0.03483386],37,44,hard,minus,dotcolour,beta,,,71,18,V,L,
66,66,24,1,0,33,47,897,['n'],1,right,['9'],5,482,[-0.05346797],49,47,medium,minus,dotcolour,beta,,,71,18,V,L,
67,67,25,1,0,53,27,665,['c'],1,left,['9'],5,430,[0.07389597],62,53,easy,minus,dotcolour,beta,,,71,18,V,L,
68,68,26,1,0,44,36,632,['n'],0,left,['3'],3,572,[-0.05651315],51,44,hard,minus,dotcolour,beta,,,71,18,V,L,
69,69,27,1,0,36,44,732,['n'],1,right,['8'],4,433,[-0.14378178],92,44,hard,minus,dotcolour,beta,,,71,18,V,L,
70,70,28,1,0,44,36,614,['c'],1,left,['9'],5,392,[0.05278216],48,44,hard,minus,dotcolour,beta,,,71,18,V,L,
71,71,29,1,0,36,44,663,['c'],0,right,['9'],5,414,[0.01953768],27,44,hard,minus,dotcolour,beta,,,71,18,V,L,
72,72,30,1,0,33,47,898,['n'],1,right,['9'],5,387,[0.00433609],15,47,medium,minus,dotcolour,beta,,,71,18,V,L,
73,73,31,1,0,47,33,666,['c'],1,left,['9'],5,362,[0.13919521],92,47,medium,minus,dotcolour,beta,,,71,18,V,L,
74,74,32,1,0,27,53,615,['n'],1,right,['9'],5,371,[-0.12297428],88,53,easy,minus,dotcolour,beta,,,71,18,V,L,
75,75,33,1,0,36,44,798,['n'],1,right,['8'],4,334,[-0.0866256],72,44,hard,minus,dotcolour,beta,,,71,18,V,L,
76,76,34,1,0,53,27,583,['c'],1,left,['9'],5,347,[0.12048132],88,53,easy,minus,dotcolour,beta,,,71,18,V,L,
77,77,35,1,0,36,44,498,['c'],0,right,['9'],5,339,[0.10639236],83,44,hard,minus,dotcolour,beta,,,71,18,V,L,
78,78,36,1,0,27,53,365,['c'],0,right,['9'],5,359,[-0.05955313],3,53,easy,minus,dotcolour,beta,,,71,18,V,L,
79,79,37,1,0,53,27,515,['n'],0,left,['9'],5,430,[-0.07953288],66,53,easy,minus,dotcolour,beta,,,71,18,V,L,
80,80,38,1,0,44,36,483,['c'],1,left,['9'],5,418,[0.12141197],86,44,hard,minus,dotcolour,beta,,,71,18,V,L,
81,81,39,1,0,53,27,433,['c'],1,left,['9'],5,393,[0.23817987],99,53,easy,minus,dotcolour,beta,,,71,18,V,L,
82,82,40,1,0,47,33,499,['c'],1,left,['8'],4,566,[0.0834602],66,47,medium,minus,dotcolour,beta,,,71,18,V,L,
83,83,41,1,0,47,33,432,['c'],1,left,['8'],4,487,[0.1923951],97,47,medium,minus,dotcolour,beta,,,71,18,V,L,
84,84,0,2,0,27,53,734,['n'],1,right,['8'],4,435,[-0.21506958],99,53,easy,minus,dotcolour,beta,,,71,18,V,L,
85,85,1,2,0,33,47,581,['n'],1,right,['0'],6,491,[-0.13694732],89,47,medium,minus,dotcolour,beta,,,71,18,V,L,
86,86,2,2,0,33,47,697,['n'],1,right,['9'],5,436,[-0.1367589],90,47,medium,minus,dotcolour,beta,,,71,18,V,L,
87,87,3,2,0,47,33,582,['n'],0,left,['8'],4,533,[-0.03902464],40,47,medium,minus,dotcolour,beta,,,71,18,V,L,
88,88,4,2,0,47,33,516,['c'],1,left,['8'],4,475,[0.09920079],76,47,medium,minus,dotcolour,beta,,,71,18,V,L,
89,89,5,2,0,36,44,549,['c'],0,right,['8'],4,259,[0.06450565],58,44,hard,minus,dotcolour,beta,,,71,18,V,L,
90,90,6,2,0,53,27,499,['c'],1,left,['8'],4,342,[0.07703556],66,53,easy,minus,dotcolour,beta,,,71,18,V,L,
91,91,7,2,0,36,44,565,['n'],1,right,['9'],5,362,[-0.09378748],76,44,hard,minus,dotcolour,beta,,,71,18,V,L,
92,92,8,2,0,47,33,449,['c'],1,left,['8'],4,427,[0.09478121],75,47,medium,minus,dotcolour,beta,,,71,18,V,L,
93,93,9,2,0,53,27,382,['c'],1,left,['9'],5,364,[0.12983264],90,53,easy,minus,dotcolour,beta,,,71,18,V,L,
94,94,10,2,0,36,44,399,['c'],0,right,['9'],5,414,[0.12668122],88,44,hard,minus,dotcolour,beta,,,71,18,V,L,
95,95,11,2,0,44,36,449,['c'],1,left,['9'],5,414,[0.18403216],97,44,hard,minus,dotcolour,beta,,,71,18,V,L,
96,96,12,2,0,53,27,516,['c'],1,left,['0'],6,369,[0.14652226],94,53,easy,minus,dotcolour,beta,,,71,18,V,L,
97,97,13,2,0,47,33,416,['c'],1,left,['9'],5,418,[0.04524871],43,47,medium,minus,dotcolour,beta,,,71,18,V,L,
98,98,14,2,0,27,53,599,['c'],0,right,['3'],3,690,[-0.08592848],4,53,easy,minus,dotcolour,beta,,,71,18,V,L,
99,99,15,2,0,44,36,665,['c'],1,left,['9'],5,453,[0.10774729],80,44,hard,minus,dotcolour,beta,,,71,18,V,L,
100,100,16,2,0,27,53,532,['n'],1,right,['9'],5,455,[-0.14826033],92,53,easy,minus,dotcolour,beta,,,71,18,V,L,
101,101,17,2,0,33,47,582,['c'],0,right,['8'],4,463,[0.02841617],33,47,medium,minus,dotcolour,beta,,,71,18,V,L,
102,102,18,2,0,27,53,566,['c'],0,right,['9'],5,526,[-0.03734114],9,53,easy,minus,dotcolour,beta,,,71,18,V,L,
103,103,19,2,0,44,36,651,['n'],0,left,['9'],5,361,[-0.18130182],98,44,hard,minus,dotcolour,beta,,,71,18,V,L,
104,104,20,2,0,36,44,715,['n'],1,right,['9'],5,246,[-0.12656483],93,44,hard,minus,dotcolour,beta,,,71,18,V,L,
105,105,21,2,0,33,47,515,['n'],1,right,['8'],4,409,[-0.09801129],77,47,medium,minus,dotcolour,beta,,,71,18,V,L,
106,106,22,2,0,44,36,515,['c'],1,left,['9'],5,501,[0.05653735],51,44,hard,minus,dotcolour,beta,,,71,18,V,L,
107,107,23,2,0,53,27,415,['c'],1,left,['9'],5,234,[0.11700485],91,53,easy,minus,dotcolour,beta,,,71,18,V,L,
108,108,24,2,0,53,27,398,['c'],1,left,['9'],5,354,[0.01544346],23,53,easy,minus,dotcolour,beta,,,71,18,V,L,
109,109,25,2,0,44,36,466,['n'],0,left,['3'],3,546,[0.01559629],15,44,hard,minus,dotcolour,beta,,,71,18,V,L,
110,110,26,2,0,33,47,549,['c'],0,right,['9'],5,400,[0.08267102],68,47,medium,minus,dotcolour,beta,,,71,18,V,L,
111,111,27,2,0,53,27,498,['c'],1,left,['9'],5,380,[0.0882776],72,53,easy,minus,dotcolour,beta,,,71,18,V,L,
112,112,28,2,0,47,33,433,['c'],1,left,['8'],4,558,[0.19980376],97,47,medium,minus,dotcolour,beta,,,71,18,V,L,
113,113,29,2,0,27,53,732,['n'],1,right,['8'],4,370,[-0.09130966],74,53,easy,minus,dotcolour,beta,,,71,18,V,L,
114,114,30,2,0,33,47,498,['n'],1,right,['8'],4,338,[-0.13338813],92,47,medium,minus,dotcolour,beta,,,71,18,V,L,
115,115,31,2,0,47,33,599,['c'],1,left,['9'],5,437,[0.0545188],49,47,medium,minus,dotcolour,beta,,,71,18,V,L,
116,116,32,2,0,44,36,532,['c'],1,left,['9'],5,399,[0.056306],51,44,hard,minus,dotcolour,beta,,,71,18,V,L,
117,117,33,2,0,27,53,581,['c'],0,right,['9'],5,457,[0.02272003],29,53,easy,minus,dotcolour,beta,,,71,18,V,L,
118,118,34,2,0,27,53,449,['n'],1,right,['9'],5,429,[-0.16720252],96,53,easy,minus,dotcolour,beta,,,71,18,V,L,
119,119,35,2,0,36,44,499,['c'],0,right,['9'],5,410,[0.00655828],20,44,hard,minus,dotcolour,beta,,,71,18,V,L,
120,120,36,2,0,36,44,431,['c'],0,right,['9'],5,409,[0.05111902],47,44,hard,minus,dotcolour,beta,,,71,18,V,L,
121,121,37,2,0,47,33,482,['c'],1,left,['9'],5,430,[0.20604845],98,47,medium,minus,dotcolour,beta,,,71,18,V,L,
122,122,38,2,0,44,36,649,['n'],0,left,['9'],5,389,[0.06714907],3,44,hard,minus,dotcolour,beta,,,71,18,V,L,
123,123,39,2,0,53,27,432,['c'],1,left,['9'],5,412,[0.16467427],96,53,easy,minus,dotcolour,beta,,,71,18,V,L,
124,124,40,2,0,33,47,550,['n'],1,right,['9'],5,359,[-0.15510363],95,47,medium,minus,dotcolour,beta,,,71,18,V,L,
125,125,41,2,0,36,44,765,['n'],1,right,['9'],5,299,[-0.10792641],85,44,hard,minus,dotcolour,beta,,,71,18,V,L,
126,0,0,3,1,44,36,783,['n'],0,left,['9'],5,286,[-0.14704887],100,44,hard,plus,dotcolour,beta,,,71,18,V,L,
127,1,1,3,1,44,36,433,['c'],1,left,['9'],5,242,[0.11959364],100,44,hard,plus,dotcolour,beta,,,71,18,V,L,
128,2,2,3,1,47,33,349,['c'],1,left,['9'],5,195,[0.08853147],100,47,medium,plus,dotcolour,beta,,,71,18,V,L,
129,3,3,3,1,53,27,232,['c'],1,left,['8'],4,732,[0.25569749],100,53,easy,plus,dotcolour,beta,,,71,18,V,L,
130,4,4,3,1,36,44,232,['c'],0,right,['9'],5,174,[0.03785093],98,44,hard,plus,dotcolour,beta,,,71,18,V,L,
131,5,5,3,1,53,27,250,['c'],1,left,['9'],5,222,[0.01909591],95,53,easy,plus,dotcolour,beta,,,71,18,V,L,
132,6,6,3,1,27,53,104,['c'],0,right,['9'],5,263,[0.02711568],95,53,easy,plus,dotcolour,beta,,,71,18,V,L,
133,7,7,3,1,33,47,133,['c'],0,right,['9'],5,221,[0.04513764],98,47,medium,plus,dotcolour,beta,,,71,18,V,L,
134,8,8,3,1,47,33,215,['n'],0,left,['9'],5,181,[-0.08517575],100,47,medium,plus,dotcolour,beta,,,71,18,V,L,
135,9,9,3,1,36,44,1814,['n'],1,right,['1'],1,3942,[-0.3569381],98,44,hard,plus,dotcolour,beta,,,71,18,V,L,
136,10,10,3,1,36,44,698,['n'],1,right,['9'],5,1628,[-0.13770124],94,44,hard,plus,dotcolour,beta,,,71,18,V,L,
137,11,11,3,1,33,47,1132,['n'],1,right,['9'],5,447,[-0.2014175],100,47,medium,plus,dotcolour,beta,,,71,18,V,L,
138,12,12,3,1,27,53,681,['n'],1,right,['9'],5,611,[-0.22825369],100,53,easy,plus,dotcolour,beta,,,71,18,V,L,
139,13,13,3,1,47,33,615,['n'],0,left,['9'],5,299,[0.0582781],48,47,medium,plus,dotcolour,beta,,,71,18,V,L,
140,14,14,3,1,44,36,614,['c'],1,left,['9'],5,464,[-0.071671],40,44,hard,plus,dotcolour,beta,,,71,18,V,L,
141,15,15,3,1,53,27,666,['n'],0,left,['9'],5,404,[-0.02419143],91,53,easy,plus,dotcolour,beta,,,71,18,V,L,
142,16,16,3,1,47,33,549,['n'],0,left,['9'],5,351,[-0.08241062],99,47,medium,plus,dotcolour,beta,,,71,18,V,L,
143,17,17,3,1,36,44,399,['c'],0,right,['9'],5,402,[0.07403562],98,44,hard,plus,dotcolour,beta,,,71,18,V,L,
144,18,18,3,1,27,53,483,['n'],1,right,['9'],5,376,[-0.03829072],94,53,easy,plus,dotcolour,beta,,,71,18,V,L,
145,19,19,3,1,44,36,397,['c'],1,left,['9'],5,378,[0.22508357],100,44,hard,plus,dotcolour,beta,,,71,18,V,L,
146,20,20,3,1,33,47,364,['c'],0,right,['9'],5,357,[0.08471784],99,47,medium,plus,dotcolour,beta,,,71,18,V,L,
147,21,21,3,1,33,47,382,['c'],0,right,['9'],5,353,[-0.01087886],79,47,medium,plus,dotcolour,beta,,,71,18,V,L,
148,22,22,3,1,33,47,1365,['n'],1,right,['9'],5,388,[-0.05878197],96,47,medium,plus,dotcolour,beta,,,71,18,V,L,
149,23,23,3,1,36,44,581,['n'],1,right,['9'],5,318,[0.02081889],75,44,hard,plus,dotcolour,beta,,,71,18,V,L,
150,24,24,3,1,53,27,314,['n'],0,left,['9'],5,167,[-0.09750269],100,53,easy,plus,dotcolour,beta,,,71,18,V,L,
151,25,25,3,1,33,47,130,['n'],1,right,['9'],5,89,[0.0125821],93,47,medium,plus,dotcolour,beta,,,71,18,V,L,
152,26,26,3,1,27,53,299,['c'],0,right,['9'],5,419,[-0.02643236],69,53,easy,plus,dotcolour,beta,,,71,18,V,L,
153,27,27,3,1,44,36,513,['c'],1,left,['9'],5,430,[0.11779546],99,44,hard,plus,dotcolour,beta,,,71,18,V,L,
154,28,28,3,1,36,44,447,['n'],1,right,['9'],5,388,[-0.08305699],98,44,hard,plus,dotcolour,beta,,,71,18,V,L,
155,29,29,3,1,44,36,716,['c'],1,left,['9'],5,354,[0.11720542],99,44,hard,plus,dotcolour,beta,,,71,18,V,L,
156,30,30,3,1,47,33,416,['n'],0,left,['9'],5,388,[0.0766478],35,47,medium,plus,dotcolour,beta,,,71,18,V,L,
157,31,31,3,1,33,47,450,['c'],0,right,['9'],5,436,[-0.07223848],39,47,medium,plus,dotcolour,beta,,,71,18,V,L,
158,32,32,3,1,47,33,533,['n'],0,left,['9'],5,391,[-0.03144989],92,47,medium,plus,dotcolour,beta,,,71,18,V,L,
159,33,33,3,1,36,44,398,['c'],0,right,['9'],5,368,[0.0162341],89,44,hard,plus,dotcolour,beta,,,71,18,V,L,
160,34,34,3,1,53,27,365,['n'],0,left,['9'],5,316,[-0.08329638],99,53,easy,plus,dotcolour,beta,,,71,18,V,L,
161,35,35,3,1,27,53,367,['c'],0,right,['9'],5,346,[-0.04041028],61,53,easy,plus,dotcolour,beta,,,71,18,V,L,
162,36,36,3,1,53,27,432,['n'],0,left,['9'],5,356,[-0.14621173],100,53,easy,plus,dotcolour,beta,,,71,18,V,L,
163,37,37,3,1,47,33,351,['c'],1,left,['9'],5,336,[0.04361442],96,47,medium,plus,dotcolour,beta,,,71,18,V,L,
164,38,38,3,1,27,53,349,['c'],0,right,['9'],5,311,[0.01377068],90,53,easy,plus,dotcolour,beta,,,71,18,V,L,
165,39,39,3,1,44,36,417,['c'],1,left,['9'],5,347,[0.01358781],89,44,hard,plus,dotcolour,beta,,,71,18,V,L,
166,40,40,3,1,27,53,347,['n'],1,right,['9'],5,400,[-0.11884244],99,53,easy,plus,dotcolour,beta,,,71,18,V,L,
167,41,41,3,1,53,27,247,['n'],0,left,['9'],5,311,[0.02133698],75,53,easy,plus,dotcolour,beta,,,71,18,V,L,
168,42,0,4,1,47,33,866,['c'],1,left,['9'],5,550,[0.1500825],99,47,medium,plus,dotcolour,beta,,,71,18,V,L,
169,43,1,4,1,53,27,416,['c'],1,left,['9'],5,361,[0.1813666],100,53,easy,plus,dotcolour,beta,,,71,18,V,L,
170,44,2,4,1,27,53,448,['c'],0,right,['9'],5,474,[0.06002927],95,53,easy,plus,dotcolour,beta,,,71,18,V,L,
171,45,3,4,1,47,33,347,['n'],0,left,['9'],5,290,[-0.03889992],96,47,medium,plus,dotcolour,beta,,,71,18,V,L,
172,46,4,4,1,53,27,365,['c'],1,left,['9'],5,297,[0.03029753],94,53,easy,plus,dotcolour,beta,,,71,18,V,L,
173,47,5,4,1,27,53,548,['n'],1,right,['0'],6,352,[-0.11331185],99,53,easy,plus,dotcolour,beta,,,71,18,V,L,
174,48,6,4,1,33,47,431,['n'],1,right,['0'],6,417,[-0.01234921],87,47,medium,plus,dotcolour,beta,,,71,18,V,L,
175,49,7,4,1,53,27,381,['c'],1,left,['0'],6,354,[0.06660847],98,53,easy,plus,dotcolour,beta,,,71,18,V,L,
176,50,8,4,1,53,27,366,['c'],1,left,['9'],5,326,[0.07536415],98,53,easy,plus,dotcolour,beta,,,71,18,V,L,
177,51,9,4,1,33,47,400,['c'],0,right,['3'],3,747,[-0.023134],66,47,medium,plus,dotcolour,beta,,,71,18,V,L,
178,52,10,4,1,47,33,517,['n'],0,left,['8'],4,409,[-0.15089643],100,47,medium,plus,dotcolour,beta,,,71,18,V,L,
179,53,11,4,1,33,47,565,['c'],0,right,['8'],4,339,[0.0098329],88,47,medium,plus,dotcolour,beta,,,71,18,V,L,
180,54,12,4,1,44,36,498,['c'],1,left,['8'],4,250,[0.07633027],99,44,hard,plus,dotcolour,beta,,,71,18,V,L,
181,55,13,4,1,33,47,366,['c'],0,right,['8'],4,788,[0.15482786],99,47,medium,plus,dotcolour,beta,,,71,18,V,L,
182,56,14,4,1,53,27,498,['c'],1,left,['9'],5,481,[0.13031015],99,53,easy,plus,dotcolour,beta,,,71,18,V,L,
183,57,15,4,1,33,47,566,['n'],1,right,['9'],5,272,[-0.09153476],99,47,medium,plus,dotcolour,beta,,,71,18,V,L,
184,58,16,4,1,27,53,348,['c'],0,right,['9'],5,312,[0.06982409],98,53,easy,plus,dotcolour,beta,,,71,18,V,L,
185,59,17,4,1,47,33,348,['c'],1,left,['9'],5,319,[0.10263575],99,47,medium,plus,dotcolour,beta,,,71,18,V,L,
186,60,18,4,1,44,36,332,['c'],1,left,['9'],5,502,[0.07419252],96,44,hard,plus,dotcolour,beta,,,71,18,V,L,
187,61,19,4,1,36,44,366,['c'],0,right,['9'],5,332,[0.0796555],99,44,hard,plus,dotcolour,beta,,,71,18,V,L,
188,62,20,4,1,27,53,431,['n'],1,right,['9'],5,263,[-0.10086207],100,53,easy,plus,dotcolour,beta,,,71,18,V,L,
189,63,21,4,1,27,53,366,['n'],1,right,['9'],5,295,[-0.12259518],100,53,easy,plus,dotcolour,beta,,,71,18,V,L,
190,64,22,4,1,33,47,450,['c'],0,right,['9'],5,307,[-0.00156872],85,47,medium,plus,dotcolour,beta,,,71,18,V,L,
191,65,23,4,1,47,33,383,['c'],1,left,['9'],5,296,[0.0586418],98,47,medium,plus,dotcolour,beta,,,71,18,V,L,
192,66,24,4,1,44,36,399,['c'],1,left,['9'],5,325,[0.07452346],98,44,hard,plus,dotcolour,beta,,,71,18,V,L,
193,67,25,4,1,33,47,467,['n'],1,right,['9'],5,271,[-0.15723667],100,47,medium,plus,dotcolour,beta,,,71,18,V,L,
194,68,26,4,1,53,27,416,['c'],1,left,['9'],5,244,[0.05466179],98,53,easy,plus,dotcolour,beta,,,71,18,V,L,
195,69,27,4,1,44,36,383,['c'],1,left,['9'],5,236,[0.04103153],97,44,hard,plus,dotcolour,beta,,,71,18,V,L,
196,70,28,4,1,27,53,265,['c'],0,right,['9'],5,234,[0.03833785],97,53,easy,plus,dotcolour,beta,,,71,18,V,L,
197,71,29,4,1,53,27,217,['n'],0,left,['9'],5,209,[0.00742992],87,53,easy,plus,dotcolour,beta,,,71,18,V,L,
198,72,30,4,1,36,44,367,['c'],0,right,['9'],5,387,[0.08585038],98,44,hard,plus,dotcolour,beta,,,71,18,V,L,
199,73,31,4,1,36,44,233,['n'],1,right,['9'],5,356,[-0.08670436],99,44,hard,plus,dotcolour,beta,,,71,18,V,L,
200,74,32,4,1,27,53,380,['n'],1,right,['8'],4,360,[-0.10152591],99,53,easy,plus,dotcolour,beta,,,71,18,V,L,
201,75,33,4,1,44,36,381,['c'],1,left,['3'],3,443,[0.06129878],96,44,hard,plus,dotcolour,beta,,,71,18,V,L,
202,76,34,4,1,36,44,649,['c'],0,right,['9'],5,321,[-0.04637477],57,44,hard,plus,dotcolour,beta,,,71,18,V,L,
203,77,35,4,1,36,44,681,['n'],1,right,['9'],5,321,[-0.02385983],93,44,hard,plus,dotcolour,beta,,,71,18,V,L,
204,78,36,4,1,47,33,414,['c'],1,left,['9'],5,302,[0.18154365],100,47,medium,plus,dotcolour,beta,,,71,18,V,L,
205,79,37,4,1,47,33,316,['c'],1,left,['9'],5,245,[0.11742924],100,47,medium,plus,dotcolour,beta,,,71,18,V,L,
206,80,38,4,1,36,44,366,['n'],1,right,['9'],5,238,[-0.09499596],100,44,hard,plus,dotcolour,beta,,,71,18,V,L,
207,81,39,4,1,44,36,315,['c'],1,left,['8'],4,322,[0.16173061],100,44,hard,plus,dotcolour,beta,,,71,18,V,L,
208,82,40,4,1,44,36,350,['c'],1,left,['8'],4,319,[0.12880189],100,44,hard,plus,dotcolour,beta,,,71,18,V,L,
209,83,41,4,1,36,44,417,['c'],0,right,['8'],4,259,[0.06145525],98,44,hard,plus,dotcolour,beta,,,71,18,V,L,
210,84,0,5,1,53,27,666,['c'],1,left,['9'],5,340,[0.10125271],99,53,easy,plus,dotcolour,beta,,,71,18,V,L,
211,85,1,5,1,53,27,448,['c'],1,left,['9'],5,310,[0.12675303],100,53,easy,plus,dotcolour,beta,,,71,18,V,L,
212,86,2,5,1,44,36,367,['c'],1,left,['9'],5,260,[0.11245625],100,44,hard,plus,dotcolour,beta,,,71,18,V,L,
213,87,3,5,1,33,47,316,['c'],0,right,['9'],5,278,[0.01724357],92,47,medium,plus,dotcolour,beta,,,71,18,V,L,
214,88,4,5,1,53,27,383,['n'],0,left,['8'],4,301,[-0.0656034],98,53,easy,plus,dotcolour,beta,,,71,18,V,L,
215,89,5,5,1,47,33,383,['c'],1,left,['9'],5,378,[0.14818952],100,47,medium,plus,dotcolour,beta,,,71,18,V,L,
216,90,6,5,1,36,44,332,['c'],0,right,['9'],5,254,[0.02563345],95,44,hard,plus,dotcolour,beta,,,71,18,V,L,
217,91,7,5,1,47,33,332,['c'],1,left,['9'],5,296,[0.15469233],100,47,medium,plus,dotcolour,beta,,,71,18,V,L,
218,92,8,5,1,27,53,331,['c'],0,right,['9'],5,344,[-0.04802808],56,53,easy,plus,dotcolour,beta,,,71,18,V,L,
219,93,9,5,1,33,47,365,['n'],1,right,['9'],5,276,[-0.0661188],98,47,medium,plus,dotcolour,beta,,,71,18,V,L,
220,94,10,5,1,44,36,300,['c'],1,left,['9'],5,359,[0.1277499],100,44,hard,plus,dotcolour,beta,,,71,18,V,L,
221,95,11,5,1,47,33,466,['n'],0,left,['8'],4,262,[0.0260581],74,47,medium,plus,dotcolour,beta,,,71,18,V,L,
222,96,12,5,1,53,27,300,['c'],1,left,['9'],5,321,[0.1502349],100,53,easy,plus,dotcolour,beta,,,71,18,V,L,
223,97,13,5,1,33,47,264,['n'],1,right,['9'],5,268,[-0.08710712],99,47,medium,plus,dotcolour,beta,,,71,18,V,L,
224,98,14,5,1,33,47,282,['c'],0,right,['9'],5,238,[-0.01311406],83,47,medium,plus,dotcolour,beta,,,71,18,V,L,
225,99,15,5,1,27,53,399,['n'],1,right,['8'],4,221,[-0.1356558],100,53,easy,plus,dotcolour,beta,,,71,18,V,L,
226,100,16,5,1,27,53,190,['c'],0,right,['9'],5,325,[0.12150324],100,53,easy,plus,dotcolour,beta,,,71,18,V,L,
227,101,17,5,1,47,33,284,['n'],0,left,['9'],5,229,[-0.00643034],91,47,medium,plus,dotcolour,beta,,,71,18,V,L,
228,102,18,5,1,33,47,300,['n'],1,right,['9'],5,210,[-0.01473521],94,47,medium,plus,dotcolour,beta,,,71,18,V,L,
229,103,19,5,1,36,44,331,['n'],1,right,['9'],5,205,[-0.06554479],99,44,hard,plus,dotcolour,beta,,,71,18,V,L,
230,104,20,5,1,44,36,299,['c'],1,left,['9'],5,211,[0.077191],99,44,hard,plus,dotcolour,beta,,,71,18,V,L,
231,105,21,5,1,36,44,133,['c'],0,right,['9'],5,19,[0.08163584],100,44,hard,plus,dotcolour,beta,,,71,18,V,L,
232,106,22,5,1,47,33,232,['c'],1,left,['9'],5,378,[0.14984165],100,47,medium,plus,dotcolour,beta,,,71,18,V,L,
233,107,23,5,1,44,36,367,['c'],1,left,['9'],5,326,[0.03304764],94,44,hard,plus,dotcolour,beta,,,71,18,V,L,
234,108,24,5,1,44,36,366,['n'],0,left,['9'],5,331,[-0.07962905],99,44,hard,plus,dotcolour,beta,,,71,18,V,L,
235,109,25,5,1,36,44,899,['n'],1,right,['9'],5,419,[-0.07466945],97,44,hard,plus,dotcolour,beta,,,71,18,V,L,
236,110,26,5,1,33,47,481,['n'],1,right,['8'],4,425,[-0.0673708],97,47,medium,plus,dotcolour,beta,,,71,18,V,L,
237,111,27,5,1,47,33,381,['c'],1,left,['8'],4,425,[0.13912711],100,47,medium,plus,dotcolour,beta,,,71,18,V,L,
238,112,28,5,1,33,47,430,['n'],1,right,['8'],4,448,[-0.06572919],96,47,medium,plus,dotcolour,beta,,,71,18,V,L,
239,113,29,5,1,53,27,415,['c'],1,left,['9'],5,487,[0.19352037],100,53,easy,plus,dotcolour,beta,,,71,18,V,L,
240,114,30,5,1,27,53,580,['n'],1,right,['9'],5,333,[-0.11948656],100,53,easy,plus,dotcolour,beta,,,71,18,V,L,
241,115,31,5,1,27,53,415,['c'],0,right,['9'],5,369,[-0.03263994],66,53,easy,plus,dotcolour,beta,,,71,18,V,L,
242,116,32,5,1,27,53,366,['c'],0,right,['9'],5,347,[0.04287619],95,53,easy,plus,dotcolour,beta,,,71,18,V,L,
243,117,33,5,1,36,44,516,['n'],1,right,['9'],5,394,[-0.10026421],99,44,hard,plus,dotcolour,beta,,,71,18,V,L,
244,118,34,5,1,36,44,349,['n'],1,right,['9'],5,237,[-0.0846178],99,44,hard,plus,dotcolour,beta,,,71,18,V,L,
245,119,35,5,1,53,27,350,['n'],0,left,['9'],5,287,[0.01332436],81,53,easy,plus,dotcolour,beta,,,71,18,V,L,
246,120,36,5,1,53,27,332,['c'],1,left,['9'],5,400,[0.10099617],99,53,easy,plus,dotcolour,beta,,,71,18,V,L,
247,121,37,5,1,36,44,265,['c'],0,right,['9'],5,471,[0.03303161],91,44,hard,plus,dotcolour,beta,,,71,18,V,L,
248,122,38,5,1,44,36,432,['n'],0,left,['9'],5,468,[0.09124024],28,44,hard,plus,dotcolour,beta,,,71,18,V,L,
249,123,39,5,1,44,36,416,['n'],0,left,['2'],2,618,[0.02391376],67,44,hard,plus,dotcolour,beta,,,71,18,V,L,
250,124,40,5,1,47,33,332,['c'],1,left,['9'],5,428,[0.0764926],97,47,medium,plus,dotcolour,beta,,,71,18,V,L,
251,125,41,5,1,27,53,331,['c'],0,right,['2'],2,527,[-0.07348102],39,53,easy,plus,dotcolour,beta,,,71,18,V,L,
252,0,0,6,2,27,53,551,['n'],1,right,['9'],5,292,[-0.20307535],99,53,easy,minus,dotcolour,beta,,,71,18,V,L,
253,1,1,6,2,33,47,333,['c'],0,right,['9'],5,300,[-0.00252082],13,47,medium,minus,dotcolour,beta,,,71,18,V,L,
254,2,2,6,2,44,36,332,['n'],0,left,['9'],5,268,[-0.02661733],27,44,hard,minus,dotcolour,beta,,,71,18,V,L,
255,3,3,6,2,53,27,416,['n'],0,left,['9'],5,465,[-0.07673842],64,53,easy,minus,dotcolour,beta,,,71,18,V,L,
256,4,4,6,2,44,36,300,['c'],1,left,['9'],5,316,[0.14647721],95,44,hard,minus,dotcolour,beta,,,71,18,V,L,
257,5,5,6,2,44,36,234,['c'],1,left,['9'],5,183,[0.04621586],40,44,hard,minus,dotcolour,beta,,,71,18,V,L,
258,6,6,6,2,47,33,399,['c'],1,left,['9'],5,322,[0.08323156],71,47,medium,minus,dotcolour,beta,,,71,18,V,L,
259,7,7,6,2,27,53,331,['c'],0,right,['9'],5,417,[-0.0740714],3,53,easy,minus,dotcolour,beta,,,71,18,V,L,
260,8,8,6,2,53,27,415,['c'],1,left,['0'],6,368,[0.07318506],63,53,easy,minus,dotcolour,beta,,,71,18,V,L,
261,9,9,6,2,47,33,583,['c'],1,left,['0'],6,476,[0.18217381],96,47,medium,minus,dotcolour,beta,,,71,18,V,L,
262,10,10,6,2,33,47,365,['c'],0,right,['3'],3,555,[-0.05977886],6,47,medium,minus,dotcolour,beta,,,71,18,V,L,
263,11,11,6,2,47,33,499,['c'],1,left,['9'],5,274,[0.13289692],93,47,medium,minus,dotcolour,beta,,,71,18,V,L,
264,12,12,6,2,27,53,413,['c'],0,right,['9'],5,479,[0.03707362],38,53,easy,minus,dotcolour,beta,,,71,18,V,L,
265,13,13,6,2,53,27,381,['c'],1,left,['9'],5,278,[0.0341364],32,53,easy,minus,dotcolour,beta,,,71,18,V,L,
266,14,14,6,2,47,33,399,['c'],1,left,['0'],6,356,[0.13536922],92,47,medium,minus,dotcolour,beta,,,71,18,V,L,
267,15,15,6,2,33,47,515,['n'],1,right,['9'],5,330,[-0.16709491],97,47,medium,minus,dotcolour,beta,,,71,18,V,L,
268,16,16,6,2,27,53,398,['n'],1,right,['8'],4,334,[-0.13348772],92,53,easy,minus,dotcolour,beta,,,71,18,V,L,
269,17,17,6,2,36,44,348,['n'],1,right,['9'],5,283,[-0.10603844],85,44,hard,minus,dotcolour,beta,,,71,18,V,L,
270,18,18,6,2,47,33,397,['c'],1,left,['9'],5,233,[0.10708328],87,47,medium,minus,dotcolour,beta,,,71,18,V,L,
271,19,19,6,2,44,36,316,['c'],1,left,['9'],5,316,[0.11633528],88,44,hard,minus,dotcolour,beta,,,71,18,V,L,
272,20,20,6,2,53,27,382,['n'],0,left,['9'],5,258,[0.00051776],12,53,easy,minus,dotcolour,beta,,,71,18,V,L,
273,21,21,6,2,47,33,332,['c'],1,left,['9'],5,251,[0.07770688],69,47,medium,minus,dotcolour,beta,,,71,18,V,L,
274,22,22,6,2,33,47,349,['c'],0,right,['9'],5,324,[0.09300934],77,47,medium,minus,dotcolour,beta,,,71,18,V,L,
275,23,23,6,2,53,27,400,['c'],1,left,['9'],5,256,[0.13413635],94,53,easy,minus,dotcolour,beta,,,71,18,V,L,
276,24,24,6,2,36,44,333,['c'],0,right,['9'],5,322,[0.03416199],34,44,hard,minus,dotcolour,beta,,,71,18,V,L,
277,25,25,6,2,27,53,398,['n'],1,right,['9'],5,286,[-0.12605174],91,53,easy,minus,dotcolour,beta,,,71,18,V,L,
278,26,26,6,2,44,36,349,['n'],0,left,['9'],5,245,[-0.02999848],28,44,hard,minus,dotcolour,beta,,,71,18,V,L,
279,27,27,6,2,33,47,599,['n'],1,right,['9'],5,341,[-0.1314823],91,47,medium,minus,dotcolour,beta,,,71,18,V,L,
280,28,28,6,2,33,47,432,['c'],0,right,['9'],5,326,[0.01413014],21,47,medium,minus,dotcolour,beta,,,71,18,V,L,
281,29,29,6,2,36,44,480,['n'],1,right,['9'],5,231,[-0.00864611],15,44,hard,minus,dotcolour,beta,,,71,18,V,L,
282,30,30,6,2,36,44,331,['c'],0,right,['9'],5,322,[0.10547836],83,44,hard,minus,dotcolour,beta,,,71,18,V,L,
283,31,31,6,2,27,53,382,['n'],1,right,['9'],5,287,[-0.06411733],57,53,easy,minus,dotcolour,beta,,,71,18,V,L,
284,32,32,6,2,27,53,431,['n'],1,right,['9'],5,299,[-0.10095689],82,53,easy,minus,dotcolour,beta,,,71,18,V,L,
285,33,33,6,2,36,44,233,['c'],0,right,['9'],5,367,[0.0349194],35,44,hard,minus,dotcolour,beta,,,71,18,V,L,
286,34,34,6,2,36,44,400,['c'],0,right,['9'],5,233,[-0.03108778],4,44,hard,minus,dotcolour,beta,,,71,18,V,L,
287,35,35,6,2,47,33,315,['c'],1,left,['9'],5,293,[0.1952745],99,47,medium,minus,dotcolour,beta,,,71,18,V,L,
288,36,36,6,2,53,27,616,['c'],1,left,['9'],5,233,[0.10284535],85,53,easy,minus,dotcolour,beta,,,71,18,V,L,
289,37,37,6,2,33,47,348,['c'],0,right,['9'],5,387,[0.05614951],50,47,medium,minus,dotcolour,beta,,,71,18,V,L,
290,38,38,6,2,36,44,599,['n'],1,right,['9'],5,253,[-0.01243482],18,44,hard,minus,dotcolour,beta,,,71,18,V,L,
291,39,39,6,2,53,27,382,['n'],0,left,['9'],5,380,[-0.00869602],20,53,easy,minus,dotcolour,beta,,,71,18,V,L,
292,40,40,6,2,44,36,382,['c'],1,left,['9'],5,319,[0.00414247],16,44,hard,minus,dotcolour,beta,,,71,18,V,L,
293,41,41,6,2,44,36,283,['c'],1,left,['9'],5,368,[0.10878136],83,44,hard,minus,dotcolour,beta,,,71,18,V,L,
294,42,0,7,2,27,53,550,['n'],1,right,['9'],5,208,[-0.13887106],96,53,easy,minus,dotcolour,beta,,,71,18,V,L,
295,43,1,7,2,44,36,499,['c'],1,left,['9'],5,197,[0.10380722],88,44,hard,minus,dotcolour,beta,,,71,18,V,L,
296,44,2,7,2,44,36,414,['c'],1,left,['9'],5,174,[0.05754679],52,44,hard,minus,dotcolour,beta,,,71,18,V,L,
297,45,3,7,2,44,36,248,['c'],1,left,['9'],5,222,[0.0814828],73,44,hard,minus,dotcolour,beta,,,71,18,V,L,
298,46,4,7,2,47,33,631,['c'],1,left,['9'],5,365,[0.17110133],97,47,medium,minus,dotcolour,beta,,,71,18,V,L,
299,47,5,7,2,44,36,399,['c'],1,left,['9'],5,319,[0.1304869],92,44,hard,minus,dotcolour,beta,,,71,18,V,L,
300,48,6,7,2,33,47,399,['c'],0,right,['9'],5,308,[0.05167063],47,47,medium,minus,dotcolour,beta,,,71,18,V,L,
301,49,7,7,2,44,36,480,['c'],1,left,['0'],6,437,[0.15778356],94,44,hard,minus,dotcolour,beta,,,71,18,V,L,
302,50,8,7,2,53,27,565,['c'],1,left,['9'],5,614,[0.36760004],100,53,easy,minus,dotcolour,beta,,,71,18,V,L,
303,51,9,7,2,47,33,365,['c'],1,left,['9'],5,336,[0.12681726],90,47,medium,minus,dotcolour,beta,,,71,18,V,L,
304,52,10,7,2,53,27,398,['c'],1,left,['9'],5,300,[0.20241947],99,53,easy,minus,dotcolour,beta,,,71,18,V,L,
305,53,11,7,2,53,27,348,['c'],1,left,['8'],4,291,[0.10722565],85,53,easy,minus,dotcolour,beta,,,71,18,V,L,
306,54,12,7,2,53,27,348,['c'],1,left,['0'],6,178,[0.07325455],68,53,easy,minus,dotcolour,beta,,,71,18,V,L,
307,55,13,7,2,36,44,298,['c'],0,right,['9'],5,272,[0.11847453],90,44,hard,minus,dotcolour,beta,,,71,18,V,L,
308,56,14,7,2,47,33,416,['c'],1,left,['9'],5,293,[0.16789525],98,47,medium,minus,dotcolour,beta,,,71,18,V,L,
309,57,15,7,2,53,27,334,['c'],1,left,['0'],6,157,[0.08342534],78,53,easy,minus,dotcolour,beta,,,71,18,V,L,
310,58,16,7,2,27,53,1016,['n'],1,right,['3'],3,288,[-0.06679485],59,53,easy,minus,dotcolour,beta,,,71,18,V,L,
311,59,17,7,2,44,36,648,['c'],1,left,['9'],5,339,[0.12945481],91,44,hard,minus,dotcolour,beta,,,71,18,V,L,
312,60,18,7,2,33,47,399,['c'],0,right,['3'],3,615,[-0.02272614],14,47,medium,minus,dotcolour,beta,,,71,18,V,L,
313,61,19,7,2,36,44,515,['n'],1,right,['8'],4,259,[-0.09482911],80,44,hard,minus,dotcolour,beta,,,71,18,V,L,
314,62,20,7,2,36,44,383,['n'],1,right,['9'],5,370,[-0.03509066],35,44,hard,minus,dotcolour,beta,,,71,18,V,L,
315,63,21,7,2,27,53,465,['n'],1,right,['9'],5,338,[-0.08450233],71,53,easy,minus,dotcolour,beta,,,71,18,V,L,
316,64,22,7,2,53,27,498,['c'],1,left,['9'],5,242,[0.19965059],99,53,easy,minus,dotcolour,beta,,,71,18,V,L,
317,65,23,7,2,47,33,464,['c'],1,left,['9'],5,198,[0.09395689],83,47,medium,minus,dotcolour,beta,,,71,18,V,L,
318,66,24,7,2,33,47,431,['n'],1,right,['9'],5,231,[-0.1520953],97,47,medium,minus,dotcolour,beta,,,71,18,V,L,
319,67,25,7,2,27,53,346,['n'],1,right,['9'],5,225,[-0.23982471],100,53,easy,minus,dotcolour,beta,,,71,18,V,L,
320,68,26,7,2,53,27,399,['n'],0,left,['9'],5,257,[-0.02730177],27,53,easy,minus,dotcolour,beta,,,71,18,V,L,
321,69,27,7,2,33,47,314,['c'],0,right,['9'],5,315,[0.06906521],61,47,medium,minus,dotcolour,beta,,,71,18,V,L,
322,70,28,7,2,33,47,382,['n'],1,right,['9'],5,216,[-0.11281108],90,47,medium,minus,dotcolour,beta,,,71,18,V,L,
323,71,29,7,2,47,33,399,['c'],1,left,['9'],5,225,[0.16669173],99,47,medium,minus,dotcolour,beta,,,71,18,V,L,
324,72,30,7,2,36,44,465,['n'],1,right,['9'],5,238,[-0.05697735],51,44,hard,minus,dotcolour,beta,,,71,18,V,L,
325,73,31,7,2,33,47,415,['n'],1,right,['9'],5,189,[-0.03847964],33,47,medium,minus,dotcolour,beta,,,71,18,V,L,
326,74,32,7,2,47,33,532,['c'],1,left,['9'],5,186,[0.09609628],84,47,medium,minus,dotcolour,beta,,,71,18,V,L,
327,75,33,7,2,44,36,399,['c'],1,left,['9'],5,259,[0.15415486],97,44,hard,minus,dotcolour,beta,,,71,18,V,L,
328,76,34,7,2,27,53,348,['n'],1,right,['9'],5,228,[-0.07289493],66,53,easy,minus,dotcolour,beta,,,71,18,V,L,
329,77,35,7,2,33,47,380,['c'],0,right,['9'],5,269,[0.04802732],44,47,medium,minus,dotcolour,beta,,,71,18,V,L,
330,78,36,7,2,36,44,398,['n'],1,right,['9'],5,220,[-0.08145044],73,44,hard,minus,dotcolour,beta,,,71,18,V,L,
331,79,37,7,2,36,44,382,['n'],1,right,['9'],5,213,[-0.13728132],96,44,hard,minus,dotcolour,beta,,,71,18,V,L,
332,80,38,7,2,27,53,333,['n'],1,right,['9'],5,168,[-0.11663805],94,53,easy,minus,dotcolour,beta,,,71,18,V,L,
333,81,39,7,2,47,33,317,['c'],1,left,['0'],6,214,[0.13744319],96,47,medium,minus,dotcolour,beta,,,71,18,V,L,
334,82,40,7,2,36,44,315,['c'],0,right,['0'],6,282,[0.06621534],59,44,hard,minus,dotcolour,beta,,,71,18,V,L,
335,83,41,7,2,27,53,449,['c'],0,right,['8'],4,342,[-0.04632589],4,53,easy,minus,dotcolour,beta,,,71,18,V,L,
336,84,0,8,2,33,47,632,['n'],1,right,['9'],5,303,[-0.17176634],98,47,medium,minus,dotcolour,beta,,,71,18,V,L,
337,85,1,8,2,53,27,381,['c'],1,left,['9'],5,334,[0.18647781],98,53,easy,minus,dotcolour,beta,,,71,18,V,L,
338,86,2,8,2,53,27,665,['c'],1,left,['8'],4,351,[0.08781004],73,53,easy,minus,dotcolour,beta,,,71,18,V,L,
339,87,3,8,2,53,27,330,['c'],1,left,['9'],5,324,[0.17307028],98,53,easy,minus,dotcolour,beta,,,71,18,V,L,
340,88,4,8,2,47,33,482,['c'],1,left,['8'],4,261,[0.0778728],69,47,medium,minus,dotcolour,beta,,,71,18,V,L,
341,89,5,8,2,53,27,382,['c'],1,left,['0'],6,309,[0.14533767],95,53,easy,minus,dotcolour,beta,,,71,18,V,L,
342,90,6,8,2,33,47,332,['c'],0,right,['3'],3,636,[-0.012043],18,47,medium,minus,dotcolour,beta,,,71,18,V,L,
343,91,7,8,2,27,53,647,['c'],0,right,['9'],5,305,[0.00566411],16,53,easy,minus,dotcolour,beta,,,71,18,V,L,
344,92,8,8,2,47,33,631,['n'],0,left,['9'],5,341,[-0.17193347],97,47,medium,minus,dotcolour,beta,,,71,18,V,L,
345,93,9,8,2,36,44,481,['c'],0,right,['9'],5,260,[0.09083989],78,44,hard,minus,dotcolour,beta,,,71,18,V,L,
346,94,10,8,2,27,53,547,['n'],1,right,['8'],4,453,[-0.15923586],94,53,easy,minus,dotcolour,beta,,,71,18,V,L,
347,95,11,8,2,47,33,416,['c'],1,left,['9'],5,348,[0.08331219],70,47,medium,minus,dotcolour,beta,,,71,18,V,L,
348,96,12,8,2,47,33,531,['c'],1,left,['9'],5,194,[0.075782],70,47,medium,minus,dotcolour,beta,,,71,18,V,L,
349,97,13,8,2,27,53,515,['c'],0,right,['8'],4,550,[0.00589376],23,53,easy,minus,dotcolour,beta,,,71,18,V,L,
350,98,14,8,2,33,47,548,['n'],1,right,['8'],4,260,[-0.07232814],64,47,medium,minus,dotcolour,beta,,,71,18,V,L,
351,99,15,8,2,44,36,365,['c'],1,left,['9'],5,268,[0.02426742],25,44,hard,minus,dotcolour,beta,,,71,18,V,L,
352,100,16,8,2,33,47,1066,['c'],0,right,['0'],6,263,[-0.0424945],3,47,medium,minus,dotcolour,beta,,,71,18,V,L,
353,101,17,8,2,27,53,564,['n'],1,right,['8'],4,343,[-0.33366765],100,53,easy,minus,dotcolour,beta,,,71,18,V,L,
354,102,18,8,2,27,53,515,['n'],1,right,['8'],4,214,[-0.09896591],84,53,easy,minus,dotcolour,beta,,,71,18,V,L,
355,103,19,8,2,36,44,432,['c'],0,right,['9'],5,301,[-0.03964603],4,44,hard,minus,dotcolour,beta,,,71,18,V,L,
356,104,20,8,2,53,27,365,['c'],1,left,['9'],5,284,[0.10377894],84,53,easy,minus,dotcolour,beta,,,71,18,V,L,
357,105,21,8,2,36,44,466,['c'],0,right,['3'],3,623,[0.07790212],62,44,hard,minus,dotcolour,beta,,,71,18,V,L,
358,106,22,8,2,44,36,582,['c'],1,left,['9'],5,232,[0.17849792],99,44,hard,minus,dotcolour,beta,,,71,18,V,L,
359,107,23,8,2,44,36,482,['c'],1,left,['9'],5,149,[0.0557759],50,44,hard,minus,dotcolour,beta,,,71,18,V,L,
360,108,24,8,2,36,44,332,['c'],0,right,['9'],5,298,[-0.05909297],2,44,hard,minus,dotcolour,beta,,,71,18,V,L,
361,109,25,8,2,36,44,467,['c'],0,right,['9'],5,373,[0.09927878],78,44,hard,minus,dotcolour,beta,,,71,18,V,L,
362,110,26,8,2,36,44,416,['n'],1,right,['9'],5,279,[-0.06383441],57,44,hard,minus,dotcolour,beta,,,71,18,V,L,
363,111,27,8,2,44,36,483,['c'],1,left,['9'],5,265,[0.11750204],90,44,hard,minus,dotcolour,beta,,,71,18,V,L,
364,112,28,8,2,47,33,414,['c'],1,left,['9'],5,238,[0.06611765],60,47,medium,minus,dotcolour,beta,,,71,18,V,L,
365,113,29,8,2,36,44,449,['n'],1,right,['9'],5,317,[-0.10403505],82,44,hard,minus,dotcolour,beta,,,71,18,V,L,
366,114,30,8,2,53,27,400,['c'],1,left,['9'],5,369,[0.15694954],95,53,easy,minus,dotcolour,beta,,,71,18,V,L,
367,115,31,8,2,33,47,381,['c'],0,right,['9'],5,612,[0.11500424],80,47,medium,minus,dotcolour,beta,,,71,18,V,L,
368,116,32,8,2,27,53,382,['c'],0,right,['3'],3,558,[0.01961606],30,53,easy,minus,dotcolour,beta,,,71,18,V,L,
369,117,33,8,2,33,47,430,['c'],0,right,['3'],3,799,[-0.08946492],5,47,medium,minus,dotcolour,beta,,,71,18,V,L,
370,118,34,8,2,33,47,582,['n'],1,right,['9'],5,296,[-0.00946587],18,47,medium,minus,dotcolour,beta,,,71,18,V,L,
371,119,35,8,2,47,33,433,['c'],1,left,['9'],5,229,[0.13584417],95,47,medium,minus,dotcolour,beta,,,71,18,V,L,
372,120,36,8,2,44,36,665,['c'],1,left,['9'],5,218,[0.10007851],85,44,hard,minus,dotcolour,beta,,,71,18,V,L,
373,121,37,8,2,27,53,382,['c'],0,right,['2'],2,500,[0.01148166],25,53,easy,minus,dotcolour,beta,,,71,18,V,L,
374,122,38,8,2,44,36,583,['n'],0,left,['9'],5,249,[0.00315102],11,44,hard,minus,dotcolour,beta,,,71,18,V,L,
375,123,39,8,2,44,36,466,['c'],1,left,['9'],5,374,[0.02568239],29,44,hard,minus,dotcolour,beta,,,71,18,V,L,
376,124,40,8,2,47,33,631,['n'],0,left,['9'],5,198,[-0.00195456],10,47,medium,minus,dotcolour,beta,,,71,18,V,L,
377,125,41,8,2,53,27,481,['c'],1,left,['9'],5,253,[0.1902424],99,53,easy,minus,dotcolour,beta,,,71,18,V,L,
378,0,0,9,3,36,44,1116,['n'],1,right,['8'],4,493,[-0.0397011],92,44,hard,plus,dotcolour,beta,,,71,18,V,L,
379,1,1,9,3,27,53,1099,['n'],1,right,['8'],4,318,[-0.10460115],99,53,easy,plus,dotcolour,beta,,,71,18,V,L,
380,2,2,9,3,44,36,582,['c'],1,left,['8'],4,1467,[0.15244338],96,44,hard,plus,dotcolour,beta,,,71,18,V,L,
381,3,3,9,3,53,27,449,['c'],1,left,['9'],5,503,[0.16460974],100,53,easy,plus,dotcolour,beta,,,71,18,V,L,
382,4,4,9,3,44,36,417,['c'],1,left,['9'],5,253,[0.10408795],100,44,hard,plus,dotcolour,beta,,,71,18,V,L,
383,5,5,9,3,33,47,416,['c'],0,right,['9'],5,251,[0.1077142],100,47,medium,plus,dotcolour,beta,,,71,18,V,L,
384,6,6,9,3,33,47,699,['n'],1,right,['9'],5,430,[-0.19729451],100,47,medium,plus,dotcolour,beta,,,71,18,V,L,
385,7,7,9,3,47,33,616,['n'],0,left,['9'],5,493,[-0.13586437],99,47,medium,plus,dotcolour,beta,,,71,18,V,L,
386,8,8,9,3,27,53,1399,['n'],1,right,['9'],5,315,[-0.15770093],100,53,easy,plus,dotcolour,beta,,,71,18,V,L,
387,9,9,9,3,33,47,333,['c'],0,right,['9'],5,233,[0.09920659],100,47,medium,plus,dotcolour,beta,,,71,18,V,L,
388,10,10,9,3,53,27,465,['c'],1,left,['9'],5,223,[0.09380601],100,53,easy,plus,dotcolour,beta,,,71,18,V,L,
389,11,11,9,3,53,27,432,['c'],1,left,['9'],5,261,[0.07875216],99,53,easy,plus,dotcolour,beta,,,71,18,V,L,
390,12,12,9,3,47,33,514,['n'],0,left,['9'],5,440,[0.0644485],44,47,medium,plus,dotcolour,beta,,,71,18,V,L,
391,13,13,9,3,27,53,815,['n'],1,right,['9'],5,286,[-0.11225461],100,53,easy,plus,dotcolour,beta,,,71,18,V,L,
392,14,14,9,3,47,33,233,['c'],1,left,['9'],5,179,[0.13079217],100,47,medium,plus,dotcolour,beta,,,71,18,V,L,
393,15,15,9,3,53,27,299,['c'],1,left,['9'],5,145,[0.09326673],100,53,easy,plus,dotcolour,beta,,,71,18,V,L,
394,16,16,9,3,47,33,315,['c'],1,left,['9'],5,183,[0.0885158],100,47,medium,plus,dotcolour,beta,,,71,18,V,L,
395,17,17,9,3,47,33,263,['c'],1,left,['9'],5,199,[0.07582764],100,47,medium,plus,dotcolour,beta,,,71,18,V,L,
396,18,18,9,3,44,36,349,['c'],1,left,['9'],5,203,[0.08840796],100,44,hard,plus,dotcolour,beta,,,71,18,V,L,
397,19,19,9,3,44,36,1699,['c'],1,left,['9'],5,375,[0.09302024],99,44,hard,plus,dotcolour,beta,,,71,18,V,L,
398,20,20,9,3,53,27,466,['c'],1,left,['0'],6,375,[0.03891927],94,53,easy,plus,dotcolour,beta,,,71,18,V,L,
399,21,21,9,3,44,36,281,['c'],1,left,['0'],6,294,[0.19922341],100,44,hard,plus,dotcolour,beta,,,71,18,V,L,
400,22,22,9,3,36,44,1033,['n'],1,right,['0'],6,314,[-0.00415741],87,44,hard,plus,dotcolour,beta,,,71,18,V,L,
401,23,23,9,3,36,44,399,['n'],1,right,['0'],6,198,[-0.13872669],100,44,hard,plus,dotcolour,beta,,,71,18,V,L,
402,24,24,9,3,36,44,399,['n'],1,right,['0'],6,248,[-0.0745967],99,44,hard,plus,dotcolour,beta,,,71,18,V,L,
403,25,25,9,3,33,47,70,['c'],0,right,['0'],6,207,[0.02931315],97,47,medium,plus,dotcolour,beta,,,71,18,V,L,
404,26,26,9,3,33,47,299,['c'],0,right,['0'],6,204,[0.07269186],99,47,medium,plus,dotcolour,beta,,,71,18,V,L,
405,27,27,9,3,27,53,298,['c'],0,right,['2'],2,552,[0.02324988],87,53,easy,plus,dotcolour,beta,,,71,18,V,L,
406,28,28,9,3,33,47,532,['n'],1,right,['0'],6,253,[-0.02266002],94,47,medium,plus,dotcolour,beta,,,71,18,V,L,
407,29,29,9,3,36,44,398,['n'],1,right,['0'],6,221,[-0.08891388],100,44,hard,plus,dotcolour,beta,,,71,18,V,L,
408,30,30,9,3,53,27,382,['c'],1,left,['0'],6,222,[0.08916403],100,53,easy,plus,dotcolour,beta,,,71,18,V,L,
409,31,31,9,3,53,27,249,['n'],0,left,['0'],6,236,[-0.04594987],98,53,easy,plus,dotcolour,beta,,,71,18,V,L,
410,32,32,9,3,27,53,317,['c'],0,right,['0'],6,552,[0.08743563],97,53,easy,plus,dotcolour,beta,,,71,18,V,L,
411,33,33,9,3,33,47,499,['n'],1,right,['2'],2,383,[-0.14093065],100,47,medium,plus,dotcolour,beta,,,71,18,V,L,
412,34,34,9,3,36,44,449,['n'],1,right,['0'],6,319,[-0.18265897],100,44,hard,plus,dotcolour,beta,,,71,18,V,L,
413,35,35,9,3,47,33,447,['n'],0,left,['0'],6,386,[0.00559764],81,47,medium,plus,dotcolour,beta,,,71,18,V,L,
414,36,36,9,3,27,53,194,['c'],0,right,['0'],6,268,[0.06379533],98,53,easy,plus,dotcolour,beta,,,71,18,V,L,
415,37,37,9,3,36,44,397,['n'],1,right,['0'],6,410,[-0.11233152],99,44,hard,plus,dotcolour,beta,,,71,18,V,L,
416,38,38,9,3,44,36,231,['n'],0,left,['0'],6,330,[-0.07586721],98,44,hard,plus,dotcolour,beta,,,71,18,V,L,
417,39,39,9,3,27,53,116,['c'],0,right,['1'],1,750,[-0.05137154],52,53,easy,plus,dotcolour,beta,,,71,18,V,L,
418,40,40,9,3,47,33,399,['n'],0,left,['0'],6,352,[-0.02872935],93,47,medium,plus,dotcolour,beta,,,71,18,V,L,
419,41,41,9,3,44,36,498,['c'],1,left,['0'],6,231,[0.05833323],99,44,hard,plus,dotcolour,beta,,,71,18,V,L,
420,42,0,10,3,47,33,799,['c'],1,left,['9'],5,623,[0.14350615],99,47,medium,plus,dotcolour,beta,,,71,18,V,L,
421,43,1,10,3,53,27,766,['n'],0,left,['0'],6,416,[-0.05645312],96,53,easy,plus,dotcolour,beta,,,71,18,V,L,
422,44,2,10,3,33,47,531,['n'],1,right,['9'],5,276,[-0.05836993],98,47,medium,plus,dotcolour,beta,,,71,18,V,L,
423,45,3,10,3,33,47,398,['c'],0,right,['9'],5,282,[0.02274501],93,47,medium,plus,dotcolour,beta,,,71,18,V,L,
424,46,4,10,3,53,27,516,['n'],0,left,['9'],5,219,[-0.0723931],99,53,easy,plus,dotcolour,beta,,,71,18,V,L,
425,47,5,10,3,27,53,1014,['n'],1,right,['9'],5,250,[-0.13214791],100,53,easy,plus,dotcolour,beta,,,71,18,V,L,
426,48,6,10,3,47,33,382,['c'],1,left,['9'],5,218,[0.05525109],99,47,medium,plus,dotcolour,beta,,,71,18,V,L,
427,49,7,10,3,36,44,365,['c'],0,right,['9'],5,236,[0.03079975],96,44,hard,plus,dotcolour,beta,,,71,18,V,L,
428,50,8,10,3,44,36,398,['c'],1,left,['9'],5,181,[0.02331163],97,44,hard,plus,dotcolour,beta,,,71,18,V,L,
429,51,9,10,3,47,33,483,['c'],1,left,['9'],5,203,[0.13352271],100,47,medium,plus,dotcolour,beta,,,71,18,V,L,
430,52,10,10,3,47,33,982,['n'],0,left,['9'],5,406,[0.12784332],11,47,medium,plus,dotcolour,beta,,,71,18,V,L,
431,53,11,10,3,33,47,549,['n'],1,right,['9'],5,240,[-0.25508279],100,47,medium,plus,dotcolour,beta,,,71,18,V,L,
432,54,12,10,3,33,47,500,['n'],1,right,['9'],5,323,[-0.07199415],98,47,medium,plus,dotcolour,beta,,,71,18,V,L,
433,55,13,10,3,33,47,399,['n'],1,right,['8'],4,327,[-0.03353102],94,47,medium,plus,dotcolour,beta,,,71,18,V,L,
434,56,14,10,3,44,36,380,['n'],0,left,['8'],4,308,[-0.05024817],97,44,hard,plus,dotcolour,beta,,,71,18,V,L,
435,57,15,10,3,47,33,467,['n'],0,left,['8'],4,342,[-0.11538748],99,47,medium,plus,dotcolour,beta,,,71,18,V,L,
436,58,16,10,3,44,36,265,['c'],1,left,['9'],5,326,[0.10490717],99,44,hard,plus,dotcolour,beta,,,71,18,V,L,
437,59,17,10,3,36,44,232,['c'],0,right,['9'],5,257,[0.0811948],99,44,hard,plus,dotcolour,beta,,,71,18,V,L,
438,60,18,10,3,33,47,329,['c'],0,right,['9'],5,243,[0.03325042],96,47,medium,plus,dotcolour,beta,,,71,18,V,L,
439,61,19,10,3,44,36,415,['c'],1,left,['9'],5,225,[0.02126386],95,44,hard,plus,dotcolour,beta,,,71,18,V,L,
440,62,20,10,3,53,27,145,['n'],0,left,['9'],5,298,[0.06959504],39,53,easy,plus,dotcolour,beta,,,71,18,V,L,
441,63,21,10,3,27,53,282,['n'],1,right,['9'],5,315,[-0.1209937],100,53,easy,plus,dotcolour,beta,,,71,18,V,L,
442,64,22,10,3,44,36,317,['c'],1,left,['9'],5,299,[0.08360232],99,44,hard,plus,dotcolour,beta,,,71,18,V,L,
443,65,23,10,3,36,44,383,['c'],0,right,['9'],5,297,[0.0369255],95,44,hard,plus,dotcolour,beta,,,71,18,V,L,
444,66,24,10,3,53,27,398,['n'],0,left,['9'],5,311,[-0.01536827],91,53,easy,plus,dotcolour,beta,,,71,18,V,L,
445,67,25,10,3,47,33,449,['n'],0,left,['9'],5,266,[-0.01923577],93,47,medium,plus,dotcolour,beta,,,71,18,V,L,
446,68,26,10,3,27,53,616,['c'],0,right,['9'],5,399,[-0.01296589],77,53,easy,plus,dotcolour,beta,,,71,18,V,L,
447,69,27,10,3,36,44,614,['n'],1,right,['9'],5,328,[-0.12741732],100,44,hard,plus,dotcolour,beta,,,71,18,V,L,
448,70,28,10,3,36,44,581,['n'],1,right,['9'],5,261,[-0.1563887],100,44,hard,plus,dotcolour,beta,,,71,18,V,L,
449,71,29,10,3,33,47,648,['n'],1,right,['9'],5,409,[-0.14149751],100,47,medium,plus,dotcolour,beta,,,71,18,V,L,
450,72,30,10,3,36,44,365,['n'],1,right,['9'],5,339,[-0.06730154],98,44,hard,plus,dotcolour,beta,,,71,18,V,L,
451,73,31,10,3,44,36,431,['c'],1,left,['0'],6,501,[0.07574268],97,44,hard,plus,dotcolour,beta,,,71,18,V,L,
452,74,32,10,3,36,44,532,['n'],1,right,['9'],5,421,[-0.13361477],99,44,hard,plus,dotcolour,beta,,,71,18,V,L,
453,75,33,10,3,27,53,665,['n'],1,right,['9'],5,299,[-0.17163789],100,53,easy,plus,dotcolour,beta,,,71,18,V,L,
454,76,34,10,3,53,27,430,['c'],1,left,['9'],5,431,[0.18188141],100,53,easy,plus,dotcolour,beta,,,71,18,V,L,
455,77,35,10,3,53,27,599,['c'],1,left,['9'],5,319,[0.18829588],100,53,easy,plus,dotcolour,beta,,,71,18,V,L,
456,78,36,10,3,53,27,282,['n'],0,left,['2'],2,984,[0.10373718],29,53,easy,plus,dotcolour,beta,,,71,18,V,L,
457,79,37,10,3,44,36,565,['n'],0,left,['9'],5,275,[-0.04017191],96,44,hard,plus,dotcolour,beta,,,71,18,V,L,
458,80,38,10,3,27,53,415,['c'],0,right,['9'],5,449,[-0.02270961],71,53,easy,plus,dotcolour,beta,,,71,18,V,L,
459,81,39,10,3,27,53,698,['c'],0,right,['9'],5,316,[0.01062128],89,53,easy,plus,dotcolour,beta,,,71,18,V,L,
460,82,40,10,3,47,33,667,['n'],0,left,['9'],5,598,[-0.02028972],85,47,medium,plus,dotcolour,beta,,,71,18,V,L,
461,83,41,10,3,27,53,614,['n'],1,right,['9'],5,262,[-0.05315091],98,53,easy,plus,dotcolour,beta,,,71,18,V,L,
462,84,0,11,3,36,44,633,['n'],1,right,['9'],5,207,[-0.16250605],100,44,hard,plus,dotcolour,beta,,,71,18,V,L,
463,85,1,11,3,36,44,365,['c'],0,right,['2'],2,536,[-0.1143202],19,44,hard,plus,dotcolour,beta,,,71,18,V,L,
464,86,2,11,3,53,27,482,['n'],0,left,['9'],5,216,[-0.09779492],100,53,easy,plus,dotcolour,beta,,,71,18,V,L,
465,87,3,11,3,44,36,516,['n'],0,left,['9'],5,348,[-0.04699272],96,44,hard,plus,dotcolour,beta,,,71,18,V,L,
466,88,4,11,3,36,44,364,['c'],0,right,['9'],5,225,[0.14491677],100,44,hard,plus,dotcolour,beta,,,71,18,V,L,
467,89,5,11,3,47,33,282,['c'],1,left,['9'],5,262,[0.07359106],99,47,medium,plus,dotcolour,beta,,,71,18,V,L,
468,90,6,11,3,27,53,316,['c'],0,right,['9'],5,224,[0.061194],99,53,easy,plus,dotcolour,beta,,,71,18,V,L,
469,91,7,11,3,44,36,184,['n'],0,left,['9'],5,144,[-0.13072163],100,44,hard,plus,dotcolour,beta,,,71,18,V,L,
470,92,8,11,3,47,33,163,['c'],1,left,['9'],5,139,[0.14759515],100,47,medium,plus,dotcolour,beta,,,71,18,V,L,
471,93,9,11,3,27,53,316,['n'],1,right,['9'],5,154,[-0.08047627],100,53,easy,plus,dotcolour,beta,,,71,18,V,L,
472,94,10,11,3,53,27,365,['n'],0,left,['9'],5,318,[0.03136264],68,53,easy,plus,dotcolour,beta,,,71,18,V,L,
473,95,11,11,3,33,47,349,['n'],1,right,['9'],5,165,[-0.09121839],100,47,medium,plus,dotcolour,beta,,,71,18,V,L,
474,96,12,11,3,53,27,380,['c'],1,left,['9'],5,161,[0.12341465],100,53,easy,plus,dotcolour,beta,,,71,18,V,L,
475,97,13,11,3,53,27,567,['n'],0,left,['9'],5,516,[-0.0569756],94,53,easy,plus,dotcolour,beta,,,71,18,V,L,
476,98,14,11,3,47,33,365,['c'],1,left,['9'],5,154,[0.07236933],100,47,medium,plus,dotcolour,beta,,,71,18,V,L,
477,99,15,11,3,33,47,298,['c'],0,right,['9'],5,249,[0.04289081],97,47,medium,plus,dotcolour,beta,,,71,18,V,L,
478,100,16,11,3,33,47,314,['n'],1,right,['9'],5,332,[-0.16170583],100,47,medium,plus,dotcolour,beta,,,71,18,V,L,
479,101,17,11,3,44,36,315,['n'],0,left,['9'],5,251,[-0.00165929],89,44,hard,plus,dotcolour,beta,,,71,18,V,L,
480,102,18,11,3,47,33,283,['c'],1,left,['9'],5,327,[0.12889718],100,47,medium,plus,dotcolour,beta,,,71,18,V,L,
481,103,19,11,3,47,33,216,['n'],0,left,['9'],5,218,[-0.02515581],96,47,medium,plus,dotcolour,beta,,,71,18,V,L,
482,104,20,11,3,27,53,400,['c'],0,right,['9'],5,299,[0.07173985],99,53,easy,plus,dotcolour,beta,,,71,18,V,L,
483,105,21,11,3,47,33,332,['c'],1,left,['9'],5,186,[0.13739688],100,47,medium,plus,dotcolour,beta,,,71,18,V,L,
484,106,22,11,3,27,53,582,['n'],1,right,['9'],5,213,[-0.10519226],100,53,easy,plus,dotcolour,beta,,,71,18,V,L,
485,107,23,11,3,36,44,417,['n'],1,right,['9'],5,309,[-0.13844499],100,44,hard,plus,dotcolour,beta,,,71,18,V,L,
486,108,24,11,3,44,36,58,['n'],0,left,['9'],5,346,[-0.09809373],99,44,hard,plus,dotcolour,beta,,,71,18,V,L,
487,109,25,11,3,33,47,232,['n'],1,right,['9'],5,276,[-0.02481589],94,47,medium,plus,dotcolour,beta,,,71,18,V,L,
488,110,26,11,3,44,36,248,['n'],0,left,['9'],5,312,[0.00436625],84,44,hard,plus,dotcolour,beta,,,71,18,V,L,
489,111,27,11,3,33,47,232,['n'],1,right,['9'],5,331,[-0.12759888],100,47,medium,plus,dotcolour,beta,,,71,18,V,L,
490,112,28,11,3,27,53,2632,['n'],1,right,['8'],4,1494,[-0.32716152],100,53,easy,plus,dotcolour,beta,,,71,18,V,L,
491,113,29,11,3,44,36,798,['c'],1,left,['9'],5,131,[0.12709638],100,44,hard,plus,dotcolour,beta,,,71,18,V,L,
492,114,30,11,3,53,27,449,['n'],0,left,['9'],5,292,[-0.02307721],93,53,easy,plus,dotcolour,beta,,,71,18,V,L,
493,115,31,11,3,53,27,316,['c'],1,left,['9'],5,269,[0.11428053],100,53,easy,plus,dotcolour,beta,,,71,18,V,L,
494,116,32,11,3,53,27,432,['c'],1,left,['9'],5,195,[0.05143205],99,53,easy,plus,dotcolour,beta,,,71,18,V,L,
495,117,33,11,3,33,47,348,['n'],1,right,['9'],5,214,[-0.05866975],99,47,medium,plus,dotcolour,beta,,,71,18,V,L,
496,118,34,11,3,36,44,103,['c'],0,right,['9'],5,126,[0.00391389],95,44,hard,plus,dotcolour,beta,,,71,18,V,L,
497,119,35,11,3,27,53,283,['c'],0,right,['9'],5,239,[0.05329077],98,53,easy,plus,dotcolour,beta,,,71,18,V,L,
498,120,36,11,3,27,53,382,['n'],1,right,['9'],5,192,[-0.09584602],100,53,easy,plus,dotcolour,beta,,,71,18,V,L,
499,121,37,11,3,36,44,193,['c'],0,right,['9'],5,201,[0.07883006],100,44,hard,plus,dotcolour,beta,,,71,18,V,L,
500,122,38,11,3,36,44,266,['c'],0,right,['9'],5,200,[0.04644804],98,44,hard,plus,dotcolour,beta,,,71,18,V,L,
501,123,39,11,3,44,36,283,['n'],0,left,['9'],5,183,[-0.16151559],100,44,hard,plus,dotcolour,beta,,,71,18,V,L,
502,124,40,11,3,33,47,233,['c'],0,right,['9'],5,79,[0.04033239],100,47,medium,plus,dotcolour,beta,,,71,18,V,L,
503,125,41,11,3,47,33,248,['c'],1,left,['9'],5,75,[0.12392045],100,47,medium,plus,dotcolour,beta,,,71,18,V,L,
504,0,0,12,4,44,36,601,['n'],0,left,['9'],5,179,[-0.0558049],50,44,hard,minus,dotcolour,beta,,,71,18,V,L,
505,1,1,12,4,36,44,399,['n'],1,right,['9'],5,372,[-0.07333473],63,44,hard,minus,dotcolour,beta,,,71,18,V,L,
506,2,2,12,4,33,47,415,['c'],0,right,['9'],5,342,[0.05628664],51,47,medium,minus,dotcolour,beta,,,71,18,V,L,
507,3,3,12,4,36,44,533,['c'],0,right,['9'],5,347,[0.06077823],54,44,hard,minus,dotcolour,beta,,,71,18,V,L,
508,4,4,12,4,33,47,633,['n'],1,right,['9'],5,277,[-0.09345011],79,47,medium,minus,dotcolour,beta,,,71,18,V,L,
509,5,5,12,4,47,33,266,['c'],1,left,['9'],5,193,[0.08379398],76,47,medium,minus,dotcolour,beta,,,71,18,V,L,
510,6,6,12,4,36,44,400,['c'],0,right,['9'],5,306,[0.10467363],83,44,hard,minus,dotcolour,beta,,,71,18,V,L,
511,7,7,12,4,47,33,400,['n'],0,left,['9'],5,223,[-0.03565281],32,47,medium,minus,dotcolour,beta,,,71,18,V,L,
512,8,8,12,4,44,36,416,['c'],1,left,['9'],5,230,[0.12786127],94,44,hard,minus,dotcolour,beta,,,71,18,V,L,
513,9,9,12,4,27,53,382,['n'],1,right,['9'],5,167,[-0.06261752],58,53,easy,minus,dotcolour,beta,,,71,18,V,L,
514,10,10,12,4,44,36,481,['n'],0,left,['9'],5,326,[-0.12061819],89,44,hard,minus,dotcolour,beta,,,71,18,V,L,
515,11,11,12,4,47,33,363,['c'],1,left,['9'],5,339,[0.110844],85,47,medium,minus,dotcolour,beta,,,71,18,V,L,
516,12,12,12,4,53,27,332,['n'],0,left,['9'],5,209,[-0.16453289],99,53,easy,minus,dotcolour,beta,,,71,18,V,L,
517,13,13,12,4,36,44,350,['c'],0,right,['9'],5,236,[0.15409021],97,44,hard,minus,dotcolour,beta,,,71,18,V,L,
518,14,14,12,4,33,47,265,['n'],1,right,['9'],5,266,[-0.14382572],96,47,medium,minus,dotcolour,beta,,,71,18,V,L,
519,15,15,12,4,27,53,263,['c'],0,right,['9'],5,269,[0.12256942],91,53,easy,minus,dotcolour,beta,,,71,18,V,L,
520,16,16,12,4,33,47,382,['n'],1,right,['9'],5,197,[-0.18900264],100,47,medium,minus,dotcolour,beta,,,71,18,V,L,
521,17,17,12,4,36,44,447,['n'],1,right,['9'],5,244,[-0.0551637],50,44,hard,minus,dotcolour,beta,,,71,18,V,L,
522,18,18,12,4,27,53,331,['c'],0,right,['9'],5,246,[0.06814027],61,53,easy,minus,dotcolour,beta,,,71,18,V,L,
523,19,19,12,4,47,33,497,['n'],0,left,['3'],3,417,[-0.04834836],45,47,medium,minus,dotcolour,beta,,,71,18,V,L,
524,20,20,12,4,53,27,549,['c'],1,left,['8'],4,212,[0.08806541],78,53,easy,minus,dotcolour,beta,,,71,18,V,L,
525,21,21,12,4,44,36,749,['c'],1,left,['9'],5,255,[0.12577589],92,44,hard,minus,dotcolour,beta,,,71,18,V,L,
526,22,22,12,4,53,27,365,['c'],1,left,['9'],5,215,[0.12359761],93,53,easy,minus,dotcolour,beta,,,71,18,V,L,
527,23,23,12,4,47,33,348,['n'],0,left,['9'],5,313,[-0.00393584],16,47,medium,minus,dotcolour,beta,,,71,18,V,L,
528,24,24,12,4,27,53,232,['c'],0,right,['9'],5,581,[-0.06033708],6,53,easy,minus,dotcolour,beta,,,71,18,V,L,
529,25,25,12,4,47,33,265,['c'],1,left,['9'],5,236,[0.16566354],98,47,medium,minus,dotcolour,beta,,,71,18,V,L,
530,26,26,12,4,44,36,415,['n'],0,left,['8'],4,307,[-0.07347128],64,44,hard,minus,dotcolour,beta,,,71,18,V,L,
531,27,27,12,4,33,47,365,['n'],1,right,['8'],4,490,[-0.14497187],91,47,medium,minus,dotcolour,beta,,,71,18,V,L,
532,28,28,12,4,27,53,499,['n'],1,right,['8'],4,331,[-0.05822069],52,53,easy,minus,dotcolour,beta,,,71,18,V,L,
533,29,29,12,4,33,47,381,['n'],1,right,['9'],5,376,[-0.0810869],68,47,medium,minus,dotcolour,beta,,,71,18,V,L,
534,30,30,12,4,27,53,231,['n'],1,right,['9'],5,281,[-0.07997552],70,53,easy,minus,dotcolour,beta,,,71,18,V,L,
535,31,31,12,4,33,47,297,['c'],0,right,['0'],6,378,[0.05562109],50,47,medium,minus,dotcolour,beta,,,71,18,V,L,
536,32,32,12,4,44,36,466,['c'],1,left,['9'],5,242,[0.089434],78,44,hard,minus,dotcolour,beta,,,71,18,V,L,
537,33,33,12,4,36,44,382,['n'],1,right,['8'],4,370,[-0.08681763],72,44,hard,minus,dotcolour,beta,,,71,18,V,L,
538,34,34,12,4,27,53,433,['n'],1,right,['8'],4,306,[-0.19694626],99,53,easy,minus,dotcolour,beta,,,71,18,V,L,
539,35,35,12,4,53,27,447,['n'],0,left,['9'],5,301,[-0.01710544],22,53,easy,minus,dotcolour,beta,,,71,18,V,L,
540,36,36,12,4,53,27,350,['c'],1,left,['9'],5,172,[0.11347157],93,53,easy,minus,dotcolour,beta,,,71,18,V,L,
541,37,37,12,4,44,36,315,['c'],1,left,['9'],5,233,[0.04514219],40,44,hard,minus,dotcolour,beta,,,71,18,V,L,
542,38,38,12,4,53,27,316,['c'],1,left,['9'],5,269,[0.11442758],89,53,easy,minus,dotcolour,beta,,,71,18,V,L,
543,39,39,12,4,47,33,215,['c'],1,left,['9'],5,219,[0.02217613],22,47,medium,minus,dotcolour,beta,,,71,18,V,L,
544,40,40,12,4,36,44,299,['c'],0,right,['8'],4,527,[0.09073393],71,44,hard,minus,dotcolour,beta,,,71,18,V,L,
545,41,41,12,4,53,27,266,['c'],1,left,['3'],3,385,[0.1964273],98,53,easy,minus,dotcolour,beta,,,71,18,V,L,
546,42,0,13,4,33,47,867,['n'],1,right,['9'],5,198,[-0.08647855],78,47,medium,minus,dotcolour,beta,,,71,18,V,L,
547,43,1,13,4,53,27,498,['n'],0,left,['9'],5,187,[0.00140729],9,53,easy,minus,dotcolour,beta,,,71,18,V,L,
548,44,2,13,4,33,47,266,['c'],0,right,['9'],5,138,[0.03968444],32,47,medium,minus,dotcolour,beta,,,71,18,V,L,
549,45,3,13,4,53,27,28,['n'],0,left,['9'],5,382,[-0.01479966],23,53,easy,minus,dotcolour,beta,,,71,18,V,L,
550,46,4,13,4,44,36,25,['c'],1,left,['9'],5,63,[0.11174636],98,44,hard,minus,dotcolour,beta,,,71,18,V,L,
551,47,5,13,4,44,36,348,['c'],1,left,['9'],5,113,[0.08359678],82,44,hard,minus,dotcolour,beta,,,71,18,V,L,
552,48,6,13,4,36,44,350,['c'],0,right,['9'],5,151,[0.0968673],87,44,hard,minus,dotcolour,beta,,,71,18,V,L,
553,49,7,13,4,27,53,267,['n'],1,right,['9'],5,136,[-0.12667821],97,53,easy,minus,dotcolour,beta,,,71,18,V,L,
554,50,8,13,4,47,33,317,['c'],1,left,['9'],5,119,[0.08694163],84,47,medium,minus,dotcolour,beta,,,71,18,V,L,
555,51,9,13,4,53,27,266,['n'],0,left,['9'],5,121,[-0.04876258],41,53,easy,minus,dotcolour,beta,,,71,18,V,L,
556,52,10,13,4,27,53,234,['c'],0,right,['9'],5,173,[0.05274106],47,53,easy,minus,dotcolour,beta,,,71,18,V,L,
557,53,11,13,4,44,36,266,['c'],1,left,['9'],5,189,[0.11008296],91,44,hard,minus,dotcolour,beta,,,71,18,V,L,
558,54,12,13,4,33,47,349,['n'],1,right,['9'],5,120,[-0.08071835],79,47,medium,minus,dotcolour,beta,,,71,18,V,L,
559,55,13,13,4,33,47,333,['c'],0,right,['9'],5,167,[0.04705181],41,47,medium,minus,dotcolour,beta,,,71,18,V,L,
560,56,14,13,4,44,36,400,['n'],0,left,['9'],5,162,[-0.11560601],94,44,hard,minus,dotcolour,beta,,,71,18,V,L,
561,57,15,13,4,47,33,173,['c'],1,left,['9'],5,213,[0.05687201],51,47,medium,minus,dotcolour,beta,,,71,18,V,L,
562,58,16,13,4,33,47,234,['c'],0,right,['9'],5,372,[0.04800729],44,47,medium,minus,dotcolour,beta,,,71,18,V,L,
563,59,17,13,4,47,33,175,['c'],1,left,['9'],5,239,[0.12487433],93,47,medium,minus,dotcolour,beta,,,71,18,V,L,
564,60,18,13,4,47,33,232,['c'],1,left,['9'],5,389,[0.01993428],26,47,medium,minus,dotcolour,beta,,,71,18,V,L,
565,61,19,13,4,47,33,349,['c'],1,left,['9'],5,288,[0.10911623],86,47,medium,minus,dotcolour,beta,,,71,18,V,L,
566,62,20,13,4,53,27,316,['c'],1,left,['9'],5,176,[0.09043199],82,53,easy,minus,dotcolour,beta,,,71,18,V,L,
567,63,21,13,4,36,44,499,['c'],0,right,['0'],6,447,[0.03984418],40,44,hard,minus,dotcolour,beta,,,71,18,V,L,
568,64,22,13,4,36,44,466,['c'],0,right,['9'],5,307,[0.08638379],73,44,hard,minus,dotcolour,beta,,,71,18,V,L,
569,65,23,13,4,36,44,316,['c'],0,right,['9'],5,299,[0.04816404],44,44,hard,minus,dotcolour,beta,,,71,18,V,L,
570,66,24,13,4,27,53,481,['c'],0,right,['9'],5,221,[-0.05474942],1,53,easy,minus,dotcolour,beta,,,71,18,V,L,
571,67,25,13,4,27,53,415,['n'],1,right,['9'],5,341,[-0.08854016],73,53,easy,minus,dotcolour,beta,,,71,18,V,L,
572,68,26,13,4,33,47,282,['n'],1,right,['9'],5,517,[-0.01838668],28,47,medium,minus,dotcolour,beta,,,71,18,V,L,
573,69,27,13,4,27,53,350,['c'],0,right,['9'],5,460,[0.10394868],78,53,easy,minus,dotcolour,beta,,,71,18,V,L,
574,70,28,13,4,36,44,483,['n'],1,right,['9'],5,519,[-0.24122669],99,44,hard,minus,dotcolour,beta,,,71,18,V,L,
575,71,29,13,4,53,27,417,['c'],1,left,['9'],5,219,[0.16499961],99,53,easy,minus,dotcolour,beta,,,71,18,V,L,
576,72,30,13,4,44,36,415,['c'],1,left,['9'],5,236,[0.11780289],91,44,hard,minus,dotcolour,beta,,,71,18,V,L,
577,73,31,13,4,36,44,231,['c'],0,right,['9'],5,202,[0.0494455],44,44,hard,minus,dotcolour,beta,,,71,18,V,L,
578,74,32,13,4,44,36,315,['c'],1,left,['9'],5,455,[0.1182755],84,44,hard,minus,dotcolour,beta,,,71,18,V,L,
579,75,33,13,4,53,27,232,['c'],1,left,['9'],5,228,[0.12093438],92,53,easy,minus,dotcolour,beta,,,71,18,V,L,
580,76,34,13,4,33,47,265,['c'],0,right,['9'],5,353,[0.04160812],40,47,medium,minus,dotcolour,beta,,,71,18,V,L,
581,77,35,13,4,27,53,365,['c'],0,right,['9'],5,150,[0.04960619],43,53,easy,minus,dotcolour,beta,,,71,18,V,L,
582,78,36,13,4,47,33,266,['n'],0,left,['9'],5,222,[0.00384499],9,47,medium,minus,dotcolour,beta,,,71,18,V,L,
583,79,37,13,4,27,53,248,['c'],0,right,['9'],5,245,[0.01752381],20,53,easy,minus,dotcolour,beta,,,71,18,V,L,
584,80,38,13,4,53,27,365,['c'],1,left,['9'],5,245,[0.19174901],99,53,easy,minus,dotcolour,beta,,,71,18,V,L,
585,81,39,13,4,47,33,398,['c'],1,left,['9'],5,253,[0.05971584],54,47,medium,minus,dotcolour,beta,,,71,18,V,L,
586,82,40,13,4,44,36,431,['c'],1,left,['9'],5,282,[0.08141822],71,44,hard,minus,dotcolour,beta,,,71,18,V,L,
587,83,41,13,4,36,44,433,['c'],0,right,['9'],5,215,[0.05642713],51,44,hard,minus,dotcolour,beta,,,71,18,V,L,
588,84,0,14,4,47,33,599,['n'],0,left,['8'],4,350,[-0.08326424],70,47,medium,minus,dotcolour,beta,,,71,18,V,L,
589,85,1,14,4,44,36,533,['n'],0,left,['8'],4,196,[-0.02200329],20,44,hard,minus,dotcolour,beta,,,71,18,V,L,
590,86,2,14,4,53,27,465,['c'],1,left,['8'],4,243,[0.09484627],81,53,easy,minus,dotcolour,beta,,,71,18,V,L,
591,87,3,14,4,33,47,415,['n'],1,right,['8'],4,146,[-0.11004094],93,47,medium,minus,dotcolour,beta,,,71,18,V,L,
592,88,4,14,4,53,27,382,['c'],1,left,['8'],4,190,[0.12078701],94,53,easy,minus,dotcolour,beta,,,71,18,V,L,
593,89,5,14,4,47,33,465,['c'],1,left,['9'],5,188,[0.09237773],82,47,medium,minus,dotcolour,beta,,,71,18,V,L,
594,90,6,14,4,44,36,366,['c'],1,left,['9'],5,183,[0.08557392],78,44,hard,minus,dotcolour,beta,,,71,18,V,L,
595,91,7,14,4,53,27,432,['c'],1,left,['0'],6,297,[0.09826571],80,53,easy,minus,dotcolour,beta,,,71,18,V,L,
596,92,8,14,4,27,53,364,['c'],0,right,['3'],3,455,[-0.01492421],13,53,easy,minus,dotcolour,beta,,,71,18,V,L,
597,93,9,14,4,36,44,415,['c'],0,right,['9'],5,350,[0.18533053],98,44,hard,minus,dotcolour,beta,,,71,18,V,L,
598,94,10,14,4,47,33,400,['c'],1,left,['9'],5,209,[0.13879875],96,47,medium,minus,dotcolour,beta,,,71,18,V,L,
599,95,11,14,4,53,27,282,['n'],0,left,['9'],5,190,[-0.02069987],19,53,easy,minus,dotcolour,beta,,,71,18,V,L,
600,96,12,14,4,47,33,217,['c'],1,left,['9'],5,175,[-0.00431086],7,47,medium,minus,dotcolour,beta,,,71,18,V,L,
601,97,13,14,4,27,53,465,['n'],1,right,['9'],5,166,[-0.09146876],83,53,easy,minus,dotcolour,beta,,,71,18,V,L,
602,98,14,14,4,44,36,315,['c'],1,left,['9'],5,204,[0.04460787],39,44,hard,minus,dotcolour,beta,,,71,18,V,L,
603,99,15,14,4,36,44,280,['c'],0,right,['9'],5,331,[0.04581257],42,44,hard,minus,dotcolour,beta,,,71,18,V,L,
604,100,16,14,4,44,36,332,['c'],1,left,['9'],5,233,[0.08314688],74,44,hard,minus,dotcolour,beta,,,71,18,V,L,
605,101,17,14,4,36,44,348,['c'],0,right,['3'],3,627,[0.15886698],91,44,hard,minus,dotcolour,beta,,,71,18,V,L,
606,102,18,14,4,33,47,532,['n'],1,right,['9'],5,278,[-0.10729614],85,47,medium,minus,dotcolour,beta,,,71,18,V,L,
607,103,19,14,4,27,53,348,['n'],1,right,['0'],6,366,[-0.06696955],58,53,easy,minus,dotcolour,beta,,,71,18,V,L,
608,104,20,14,4,53,27,383,['c'],1,left,['9'],5,297,[0.16102201],97,53,easy,minus,dotcolour,beta,,,71,18,V,L,
609,105,21,14,4,36,44,300,['n'],1,right,['2'],2,426,[-0.03277329],35,44,hard,minus,dotcolour,beta,,,71,18,V,L,
610,106,22,14,4,47,33,233,['c'],1,left,['9'],5,249,[0.08380184],73,47,medium,minus,dotcolour,beta,,,71,18,V,L,
611,107,23,14,4,33,47,232,['c'],0,right,['3'],3,415,[-0.00910948],14,47,medium,minus,dotcolour,beta,,,71,18,V,L,
612,108,24,14,4,33,47,301,['c'],0,right,['9'],5,251,[0.09808576],82,47,medium,minus,dotcolour,beta,,,71,18,V,L,
613,109,25,14,4,27,53,313,['c'],0,right,['2'],2,518,[0.08078287],65,53,easy,minus,dotcolour,beta,,,71,18,V,L,
614,110,26,14,4,47,33,366,['c'],1,left,['9'],5,220,[0.0749278],68,47,medium,minus,dotcolour,beta,,,71,18,V,L,
615,111,27,14,4,33,47,648,['n'],1,right,['9'],5,298,[-0.08578058],73,47,medium,minus,dotcolour,beta,,,71,18,V,L,
616,112,28,14,4,27,53,332,['c'],0,right,['3'],3,466,[0.00543347],21,53,easy,minus,dotcolour,beta,,,71,18,V,L,
617,113,29,14,4,27,53,349,['c'],0,right,['9'],5,443,[0.02386516],30,53,easy,minus,dotcolour,beta,,,71,18,V,L,
618,114,30,14,4,44,36,450,['n'],0,left,['9'],5,280,[0.04186251],4,44,hard,minus,dotcolour,beta,,,71,18,V,L,
619,115,31,14,4,36,44,281,['c'],0,right,['9'],5,475,[0.14764545],92,44,hard,minus,dotcolour,beta,,,71,18,V,L,
620,116,32,14,4,53,27,583,['c'],1,left,['9'],5,209,[0.16695454],99,53,easy,minus,dotcolour,beta,,,71,18,V,L,
621,117,33,14,4,44,36,365,['c'],1,left,['9'],5,291,[0.06012647],54,44,hard,minus,dotcolour,beta,,,71,18,V,L,
622,118,34,14,4,36,44,349,['n'],1,right,['8'],4,218,[-0.02368286],23,44,hard,minus,dotcolour,beta,,,71,18,V,L,
623,119,35,14,4,53,27,333,['c'],1,left,['9'],5,222,[0.16135051],98,53,easy,minus,dotcolour,beta,,,71,18,V,L,
624,120,36,14,4,36,44,232,['c'],0,right,['9'],5,157,[0.06249658],58,44,hard,minus,dotcolour,beta,,,71,18,V,L,
625,121,37,14,4,33,47,282,['c'],0,right,['9'],5,228,[-0.01170432],7,47,medium,minus,dotcolour,beta,,,71,18,V,L,
626,122,38,14,4,33,47,414,['n'],1,right,['8'],4,211,[0.003319],9,47,medium,minus,dotcolour,beta,,,71,18,V,L,
627,123,39,14,4,27,53,282,['c'],0,right,['9'],5,281,[0.08622158],74,53,easy,minus,dotcolour,beta,,,71,18,V,L,
628,124,40,14,4,44,36,364,['c'],1,left,['9'],5,176,[0.07738491],72,44,hard,minus,dotcolour,beta,,,71,18,V,L,
629,125,41,14,4,47,33,169,['c'],1,left,['9'],5,58,[0.06026271],59,47,medium,minus,dotcolour,beta,,,71,18,V,L,
630,0,0,15,5,44,36,583,['n'],0,left,['9'],5,272,[-0.08578615],99,44,hard,plus,dotcolour,beta,,,71,18,V,L,
631,1,1,15,5,47,33,332,['c'],1,left,['9'],5,176,[0.11085177],100,47,medium,plus,dotcolour,beta,,,71,18,V,L,
632,2,2,15,5,27,53,382,['c'],0,right,['9'],5,251,[0.12216708],100,53,easy,plus,dotcolour,beta,,,71,18,V,L,
633,3,3,15,5,53,27,333,['n'],0,left,['9'],5,261,[0.07972694],30,53,easy,plus,dotcolour,beta,,,71,18,V,L,
634,4,4,15,5,53,27,714,['n'],0,left,['9'],5,463,[-0.11186308],99,53,easy,plus,dotcolour,beta,,,71,18,V,L,
635,5,5,15,5,33,47,749,['c'],0,right,['9'],5,359,[-0.0080442],81,47,medium,plus,dotcolour,beta,,,71,18,V,L,
636,6,6,15,5,33,47,816,['c'],0,right,['9'],5,465,[0.03011415],91,47,medium,plus,dotcolour,beta,,,71,18,V,L,
637,7,7,15,5,44,36,566,['c'],1,left,['9'],5,209,[0.09487934],100,44,hard,plus,dotcolour,beta,,,71,18,V,L,
638,8,8,15,5,36,44,447,['n'],1,right,['8'],4,408,[-0.05089268],95,44,hard,plus,dotcolour,beta,,,71,18,V,L,
639,9,9,15,5,33,47,583,['n'],1,right,['8'],4,249,[-0.0723555],99,47,medium,plus,dotcolour,beta,,,71,18,V,L,
640,10,10,15,5,27,53,533,['n'],1,right,['8'],4,267,[-0.13323983],100,53,easy,plus,dotcolour,beta,,,71,18,V,L,
641,11,11,15,5,47,33,548,['c'],1,left,['8'],4,356,[-0.00137526],84,47,medium,plus,dotcolour,beta,,,71,18,V,L,
642,12,12,15,5,53,27,349,['c'],1,left,['0'],6,177,[0.1847733],100,53,easy,plus,dotcolour,beta,,,71,18,V,L,
643,13,13,15,5,53,27,448,['c'],1,left,['9'],5,225,[0.12639425],100,53,easy,plus,dotcolour,beta,,,71,18,V,L,
644,14,14,15,5,27,53,664,['n'],1,right,['0'],6,358,[-0.06643923],98,53,easy,plus,dotcolour,beta,,,71,18,V,L,
645,15,15,15,5,33,47,464,['c'],0,right,['9'],5,630,[0.01286284],83,47,medium,plus,dotcolour,beta,,,71,18,V,L,
646,16,16,15,5,27,53,699,['n'],1,right,['9'],5,338,[-0.11076684],99,53,easy,plus,dotcolour,beta,,,71,18,V,L,
647,17,17,15,5,33,47,481,['n'],1,right,['9'],5,291,[0.03023595],70,47,medium,plus,dotcolour,beta,,,71,18,V,L,
648,18,18,15,5,47,33,633,['c'],1,left,['9'],5,167,[0.08005633],100,47,medium,plus,dotcolour,beta,,,71,18,V,L,
649,19,19,15,5,47,33,632,['n'],0,left,['9'],5,248,[0.00821288],85,47,medium,plus,dotcolour,beta,,,71,18,V,L,
650,20,20,15,5,27,53,532,['c'],0,right,['3'],3,562,[0.00998058],83,53,easy,plus,dotcolour,beta,,,71,18,V,L,
651,21,21,15,5,44,36,416,['c'],1,left,['9'],5,252,[0.13450899],100,44,hard,plus,dotcolour,beta,,,71,18,V,L,
652,22,22,15,5,47,33,414,['c'],1,left,['9'],5,203,[0.09215076],100,47,medium,plus,dotcolour,beta,,,71,18,V,L,
653,23,23,15,5,33,47,599,['n'],1,right,['9'],5,309,[-0.12929056],100,47,medium,plus,dotcolour,beta,,,71,18,V,L,
654,24,24,15,5,36,44,450,['c'],0,right,['9'],5,351,[0.1240808],100,44,hard,plus,dotcolour,beta,,,71,18,V,L,
655,25,25,15,5,36,44,382,['n'],1,right,['9'],5,355,[-0.01837391],90,44,hard,plus,dotcolour,beta,,,71,18,V,L,
656,26,26,15,5,44,36,167,['c'],1,left,['9'],5,279,[0.11872243],100,44,hard,plus,dotcolour,beta,,,71,18,V,L,
657,27,27,15,5,36,44,548,['c'],0,right,['9'],5,214,[0.08715404],100,44,hard,plus,dotcolour,beta,,,71,18,V,L,
658,28,28,15,5,44,36,1215,['n'],0,left,['9'],5,262,[-0.06300802],98,44,hard,plus,dotcolour,beta,,,71,18,V,L,
659,29,29,15,5,53,27,550,['c'],1,left,['9'],5,255,[0.07873929],99,53,easy,plus,dotcolour,beta,,,71,18,V,L,
660,30,30,15,5,36,44,448,['c'],0,right,['9'],5,243,[-0.01755729],80,44,hard,plus,dotcolour,beta,,,71,18,V,L,
661,31,31,15,5,27,53,380,['n'],1,right,['9'],5,316,[-0.0668049],98,53,easy,plus,dotcolour,beta,,,71,18,V,L,
662,32,32,15,5,47,33,465,['c'],1,left,['9'],5,165,[0.09889974],100,47,medium,plus,dotcolour,beta,,,71,18,V,L,
663,33,33,15,5,47,33,715,['c'],1,left,['0'],6,172,[0.12186704],100,47,medium,plus,dotcolour,beta,,,71,18,V,L,
664,34,34,15,5,44,36,549,['c'],1,left,['0'],6,272,[0.1103948],100,44,hard,plus,dotcolour,beta,,,71,18,V,L,
665,35,35,15,5,44,36,381,['c'],1,left,['0'],6,231,[0.17436306],100,44,hard,plus,dotcolour,beta,,,71,18,V,L,
666,36,36,15,5,27,53,250,['c'],0,right,['3'],3,869,[-0.03075299],62,53,easy,plus,dotcolour,beta,,,71,18,V,L,
667,37,37,15,5,36,44,563,['c'],0,right,['3'],3,476,[0.07940631],97,44,hard,plus,dotcolour,beta,,,71,18,V,L,
668,38,38,15,5,53,27,382,['c'],1,left,['9'],5,379,[0.15453982],100,53,easy,plus,dotcolour,beta,,,71,18,V,L,
669,39,39,15,5,53,27,383,['c'],1,left,['0'],6,189,[0.12118109],100,53,easy,plus,dotcolour,beta,,,71,18,V,L,
670,40,40,15,5,36,44,416,['c'],0,right,['3'],3,302,[-0.06042063],46,44,hard,plus,dotcolour,beta,,,71,18,V,L,
671,41,41,15,5,33,47,1150,['n'],1,right,['9'],5,358,[-0.17200963],100,47,medium,plus,dotcolour,beta,,,71,18,V,L,
672,42,0,16,5,33,47,699,['n'],1,right,['9'],5,184,[-0.04398447],98,47,medium,plus,dotcolour,beta,,,71,18,V,L,
673,43,1,16,5,27,53,450,['n'],1,right,['9'],5,176,[-0.12766087],100,53,easy,plus,dotcolour,beta,,,71,18,V,L,
674,44,2,16,5,47,33,482,['n'],0,left,['9'],5,167,[-0.04539791],99,47,medium,plus,dotcolour,beta,,,71,18,V,L,
675,45,3,16,5,36,44,299,['c'],0,right,['9'],5,166,[0.04550618],99,44,hard,plus,dotcolour,beta,,,71,18,V,L,
676,46,4,16,5,44,36,400,['n'],0,left,['9'],5,216,[-0.13743574],100,44,hard,plus,dotcolour,beta,,,71,18,V,L,
677,47,5,16,5,53,27,266,['c'],1,left,['9'],5,239,[0.23852108],100,53,easy,plus,dotcolour,beta,,,71,18,V,L,
678,48,6,16,5,53,27,382,['c'],1,left,['0'],6,199,[0.12809135],100,53,easy,plus,dotcolour,beta,,,71,18,V,L,
679,49,7,16,5,44,36,231,['c'],1,left,['0'],6,303,[0.08444817],99,44,hard,plus,dotcolour,beta,,,71,18,V,L,
680,50,8,16,5,47,33,348,['c'],1,left,['9'],5,206,[0.14427068],100,47,medium,plus,dotcolour,beta,,,71,18,V,L,
681,51,9,16,5,53,27,300,['c'],1,left,['9'],5,243,[0.16291271],100,53,easy,plus,dotcolour,beta,,,71,18,V,L,
682,52,10,16,5,33,47,298,['n'],1,right,['0'],6,134,[-0.01789831],97,47,medium,plus,dotcolour,beta,,,71,18,V,L,
683,53,11,16,5,53,27,330,['c'],1,left,['0'],6,189,[0.10630445],100,53,easy,plus,dotcolour,beta,,,71,18,V,L,
684,54,12,16,5,47,33,365,['c'],1,left,['0'],6,248,[0.04544817],97,47,medium,plus,dotcolour,beta,,,71,18,V,L,
685,55,13,16,5,47,33,199,['c'],1,left,['0'],6,191,[0.13180377],100,47,medium,plus,dotcolour,beta,,,71,18,V,L,
686,56,14,16,5,44,36,249,['c'],1,left,['0'],6,190,[0.0907978],100,44,hard,plus,dotcolour,beta,,,71,18,V,L,
687,57,15,16,5,27,53,314,['n'],1,right,['9'],5,284,[-0.09229731],99,53,easy,plus,dotcolour,beta,,,71,18,V,L,
688,58,16,16,5,47,33,349,['c'],1,left,['9'],5,196,[0.17253244],100,47,medium,plus,dotcolour,beta,,,71,18,V,L,
689,59,17,16,5,36,44,416,['c'],0,right,['9'],5,252,[0.01409444],92,44,hard,plus,dotcolour,beta,,,71,18,V,L,
690,60,18,16,5,36,44,298,['n'],1,right,['8'],4,384,[-0.17287504],100,44,hard,plus,dotcolour,beta,,,71,18,V,L,
691,61,19,16,5,44,36,366,['c'],1,left,['9'],5,283,[0.17605788],100,44,hard,plus,dotcolour,beta,,,71,18,V,L,
692,62,20,16,5,36,44,382,['c'],0,right,['9'],5,249,[0.1265444],100,44,hard,plus,dotcolour,beta,,,71,18,V,L,
693,63,21,16,5,44,36,332,['n'],0,left,['9'],5,236,[-0.16953293],100,44,hard,plus,dotcolour,beta,,,71,18,V,L,
694,64,22,16,5,27,53,108,['c'],0,right,['9'],5,267,[-0.00235391],86,53,easy,plus,dotcolour,beta,,,71,18,V,L,
695,65,23,16,5,27,53,300,['n'],1,right,['9'],5,230,[-0.03994946],97,53,easy,plus,dotcolour,beta,,,71,18,V,L,
696,66,24,16,5,47,33,141,['c'],1,left,['9'],5,77,[0.10187617],100,47,medium,plus,dotcolour,beta,,,71,18,V,L,
697,67,25,16,5,53,27,332,['n'],0,left,['9'],5,454,[-0.13687273],99,53,easy,plus,dotcolour,beta,,,71,18,V,L,
698,68,26,16,5,33,47,799,['c'],0,right,['9'],5,373,[0.02896941],92,47,medium,plus,dotcolour,beta,,,71,18,V,L,
699,69,27,16,5,44,36,399,['n'],0,left,['9'],5,232,[0.00773179],86,44,hard,plus,dotcolour,beta,,,71,18,V,L,
700,70,28,16,5,27,53,231,['c'],0,right,['9'],5,197,[0.02887763],97,53,easy,plus,dotcolour,beta,,,71,18,V,L,
701,71,29,16,5,27,53,399,['n'],1,right,['9'],5,279,[-0.14606498],100,53,easy,plus,dotcolour,beta,,,71,18,V,L,
702,72,30,16,5,27,53,465,['n'],1,right,['9'],5,250,[-0.08264871],99,53,easy,plus,dotcolour,beta,,,71,18,V,L,
703,73,31,16,5,47,33,314,['c'],1,left,['9'],5,213,[0.09749429],100,47,medium,plus,dotcolour,beta,,,71,18,V,L,
704,74,32,16,5,33,47,215,['c'],0,right,['9'],5,326,[0.00396776],87,47,medium,plus,dotcolour,beta,,,71,18,V,L,
705,75,33,16,5,36,44,333,['n'],1,right,['9'],5,221,[-0.14064398],100,44,hard,plus,dotcolour,beta,,,71,18,V,L,
706,76,34,16,5,33,47,432,['c'],0,right,['9'],5,195,[0.00739142],93,47,medium,plus,dotcolour,beta,,,71,18,V,L,
707,77,35,16,5,44,36,101,['n'],0,left,['9'],5,116,[-0.04387293],99,44,hard,plus,dotcolour,beta,,,71,18,V,L,
708,78,36,16,5,33,47,430,['n'],1,right,['9'],5,199,[-0.00646581],92,47,medium,plus,dotcolour,beta,,,71,18,V,L,
709,79,37,16,5,36,44,417,['n'],1,right,['9'],5,480,[-0.01638348],87,44,hard,plus,dotcolour,beta,,,71,18,V,L,
710,80,38,16,5,33,47,413,['n'],1,right,['9'],5,372,[-0.13181313],100,47,medium,plus,dotcolour,beta,,,71,18,V,L,
711,81,39,16,5,53,27,297,['c'],1,left,['9'],5,299,[0.06308321],98,53,easy,plus,dotcolour,beta,,,71,18,V,L,
712,82,40,16,5,36,44,366,['c'],0,right,['9'],5,337,[0.06711469],98,44,hard,plus,dotcolour,beta,,,71,18,V,L,
713,83,41,16,5,53,27,265,['n'],0,left,['9'],5,370,[-0.02880493],92,53,easy,plus,dotcolour,beta,,,71,18,V,L,
714,84,0,17,5,36,44,600,['n'],1,right,['9'],5,210,[-0.0487456],98,44,hard,plus,dotcolour,beta,,,71,18,V,L,
715,85,1,17,5,27,53,515,['n'],1,right,['9'],5,199,[-0.09093284],100,53,easy,plus,dotcolour,beta,,,71,18,V,L,
716,86,2,17,5,36,44,414,['c'],0,right,['0'],6,327,[0.0659332],98,44,hard,plus,dotcolour,beta,,,71,18,V,L,
717,87,3,17,5,53,27,399,['c'],1,left,['0'],6,388,[0.1530427],100,53,easy,plus,dotcolour,beta,,,71,18,V,L,
718,88,4,17,5,47,33,465,['c'],1,left,['0'],6,250,[0.15972722],100,47,medium,plus,dotcolour,beta,,,71,18,V,L,
719,89,5,17,5,53,27,482,['c'],1,left,['9'],5,382,[0.24773479],100,53,easy,plus,dotcolour,beta,,,71,18,V,L,
720,90,6,17,5,27,53,315,['c'],0,right,['9'],5,571,[0.00827808],82,53,easy,plus,dotcolour,beta,,,71,18,V,L,
721,91,7,17,5,33,47,566,['c'],0,right,['3'],3,511,[0.0744613],96,47,medium,plus,dotcolour,beta,,,71,18,V,L,
722,92,8,17,5,47,33,1348,['c'],1,left,['9'],5,478,[-0.03349632],64,47,medium,plus,dotcolour,beta,,,71,18,V,L,
723,93,9,17,5,44,36,599,['n'],0,left,['9'],5,227,[-0.04727799],98,44,hard,plus,dotcolour,beta,,,71,18,V,L,
724,94,10,17,5,33,47,649,['n'],1,right,['9'],5,242,[-0.16132607],100,47,medium,plus,dotcolour,beta,,,71,18,V,L,
725,95,11,17,5,27,53,565,['n'],1,right,['8'],4,507,[-0.12384578],99,53,easy,plus,dotcolour,beta,,,71,18,V,L,
726,96,12,17,5,33,47,682,['n'],1,right,['9'],5,364,[-0.1327797],100,47,medium,plus,dotcolour,beta,,,71,18,V,L,
727,97,13,17,5,27,53,416,['n'],1,right,['9'],5,678,[-0.08203604],95,53,easy,plus,dotcolour,beta,,,71,18,V,L,
728,98,14,17,5,36,44,516,['n'],1,right,['8'],4,519,[-0.11963403],99,44,hard,plus,dotcolour,beta,,,71,18,V,L,
729,99,15,17,5,27,53,614,['n'],1,right,['8'],4,626,[-0.23261009],100,53,easy,plus,dotcolour,beta,,,71,18,V,L,
730,100,16,17,5,36,44,634,['n'],1,right,['0'],6,553,[0.01639744],72,44,hard,plus,dotcolour,beta,,,71,18,V,L,
731,101,17,17,5,44,36,549,['n'],0,left,['9'],5,534,[-0.19069546],100,44,hard,plus,dotcolour,beta,,,71,18,V,L,
732,102,18,17,5,47,33,516,['c'],1,left,['9'],5,598,[0.11427137],98,47,medium,plus,dotcolour,beta,,,71,18,V,L,
733,103,19,17,5,53,27,399,['c'],1,left,['9'],5,542,[0.09981932],98,53,easy,plus,dotcolour,beta,,,71,18,V,L,
734,104,20,17,5,27,53,899,['n'],1,right,['9'],5,359,[-0.12607077],100,53,easy,plus,dotcolour,beta,,,71,18,V,L,
735,105,21,17,5,47,33,749,['c'],1,left,['9'],5,330,[0.04768989],96,47,medium,plus,dotcolour,beta,,,71,18,V,L,
736,106,22,17,5,53,27,566,['c'],1,left,['9'],5,384,[0.13798776],100,53,easy,plus,dotcolour,beta,,,71,18,V,L,
737,107,23,17,5,44,36,615,['c'],1,left,['0'],6,680,[-0.10717482],24,44,hard,plus,dotcolour,beta,,,71,18,V,L,
738,108,24,17,5,53,27,465,['c'],1,left,['9'],5,388,[0.06190689],97,53,easy,plus,dotcolour,beta,,,71,18,V,L,
739,109,25,17,5,33,47,815,['c'],0,right,['9'],5,524,[0.01434251],85,47,medium,plus,dotcolour,beta,,,71,18,V,L,
740,110,26,17,5,33,47,284,['c'],0,right,['9'],5,317,[0.03253157],94,47,medium,plus,dotcolour,beta,,,71,18,V,L,
741,111,27,17,5,47,33,331,['n'],0,left,['9'],5,892,[0.08010336],39,47,medium,plus,dotcolour,beta,,,71,18,V,L,
742,112,28,17,5,27,53,433,['c'],0,right,['9'],5,648,[-0.09355493],30,53,easy,plus,dotcolour,beta,,,71,18,V,L,
743,113,29,17,5,36,44,466,['c'],0,right,['9'],5,293,[0.03642164],96,44,hard,plus,dotcolour,beta,,,71,18,V,L,
744,114,30,17,5,33,47,566,['n'],1,right,['9'],5,204,[-0.05314888],99,47,medium,plus,dotcolour,beta,,,71,18,V,L,
745,115,31,17,5,53,27,266,['c'],1,left,['9'],5,178,[0.16118681],100,53,easy,plus,dotcolour,beta,,,71,18,V,L,
746,116,32,17,5,47,33,316,['n'],0,left,['9'],5,271,[-0.11179993],100,47,medium,plus,dotcolour,beta,,,71,18,V,L,
747,117,33,17,5,47,33,547,['c'],1,left,['9'],5,239,[0.08810355],99,47,medium,plus,dotcolour,beta,,,71,18,V,L,
748,118,34,17,5,36,44,367,['c'],0,right,['9'],5,208,[0.01418589],94,44,hard,plus,dotcolour,beta,,,71,18,V,L,
749,119,35,17,5,36,44,448,['c'],0,right,['9'],5,238,[0.07435031],99,44,hard,plus,dotcolour,beta,,,71,18,V,L,
750,120,36,17,5,44,36,365,['c'],1,left,['9'],5,271,[0.19721173],100,44,hard,plus,dotcolour,beta,,,71,18,V,L,
751,121,37,17,5,33,47,298,['n'],1,right,['9'],5,401,[-0.1265709],99,47,medium,plus,dotcolour,beta,,,71,18,V,L,
752,122,38,17,5,44,36,382,['c'],1,left,['9'],5,339,[0.07323176],98,44,hard,plus,dotcolour,beta,,,71,18,V,L,
753,123,39,17,5,53,27,415,['c'],1,left,['9'],5,558,[0.22104476],100,53,easy,plus,dotcolour,beta,,,71,18,V,L,
754,124,40,17,5,44,36,333,['c'],1,left,['9'],5,372,[0.03397861],93,44,hard,plus,dotcolour,beta,,,71,18,V,L,
755,125,41,17,5,44,36,366,['c'],1,left,['9'],5,359,[0.19070008],100,44,hard,plus,dotcolour,beta,,,71,18,V,L,
,,,,,,,,,,,,,,,,,,,,,1,de beoordeling leek soms niet te kloppen            ,71,18,V,L,
,,,,,,,,,,,,,,,,,,,,,2,['f'],71,18,V,L,
,,,,,,,,,,,,,,,,,,,,,3,['d'],71,18,V,L,
,,,,,,,,,,,,,,,,,,,,,5,['5'],71,18,V,L,
