trial,withinphasetrial,withinblocktrial,block,phase,dotsLeft,dotsRight,rt,resp,cor,cresp,conf_press,cj,RTconf,ev,fb,diff,difflevel,condition,task,manip,questionID,questionResp,sub,age,gender,handedness,
0,0,0,0,0,36,44,2501,['n'],1,right,['8'],3,5557,[-0.48686003],87,44,hard,minus,dotcolour,alfa,,,97,18,V,R,
1,1,1,0,0,44,36,1918,['c'],1,left,['2'],5,2138,[0.07634414],62,44,hard,minus,dotcolour,alfa,,,97,18,V,R,
2,2,2,0,0,47,33,2134,['c'],1,left,['2'],5,1847,[0.28081693],87,47,medium,minus,dotcolour,alfa,,,97,18,V,R,
3,3,3,0,0,27,53,1602,['n'],1,right,['3'],4,4831,[-0.45841537],87,53,easy,minus,dotcolour,alfa,,,97,18,V,R,
4,4,4,0,0,33,47,1100,['n'],1,right,['3'],4,1729,[-0.19902895],80,47,medium,minus,dotcolour,alfa,,,97,18,V,R,
5,5,5,0,0,27,53,999,['n'],1,right,['2'],5,1484,[-0.30300652],90,53,easy,minus,dotcolour,alfa,,,97,18,V,R,
6,6,6,0,0,47,33,1218,['c'],1,left,['1'],6,1313,[0.16265428],78,47,medium,minus,dotcolour,alfa,,,97,18,V,R,
7,7,7,0,0,27,53,1001,['n'],1,right,['2'],5,1278,[-0.29958571],92,53,easy,minus,dotcolour,alfa,,,97,18,V,R,
8,8,8,0,0,27,53,1267,['n'],1,right,['2'],5,4737,[-0.56652399],91,53,easy,minus,dotcolour,alfa,,,97,18,V,R,
9,9,9,0,0,44,36,901,['c'],1,left,['3'],4,1096,[0.27554322],91,44,hard,minus,dotcolour,alfa,,,97,18,V,R,
10,10,10,0,0,47,33,1168,['n'],0,left,['3'],4,1791,[0.31115635],11,47,medium,minus,dotcolour,alfa,,,97,18,V,R,
11,11,11,0,0,33,47,1849,['c'],0,right,['2'],5,1054,[-0.11422865],27,47,medium,minus,dotcolour,alfa,,,97,18,V,R,
12,12,12,0,0,33,47,2050,['c'],0,right,['3'],4,2547,[-0.04691759],43,47,medium,minus,dotcolour,alfa,,,97,18,V,R,
13,13,13,0,0,36,44,1117,['n'],1,right,['2'],5,954,[-0.27176544],92,44,hard,minus,dotcolour,alfa,,,97,18,V,R,
14,14,14,0,0,44,36,1367,['n'],0,left,['3'],4,861,[0.13715387],21,44,hard,minus,dotcolour,alfa,,,97,18,V,R,
15,15,15,0,0,36,44,2800,['c'],0,right,['2'],5,1435,[-0.20453934],18,44,hard,minus,dotcolour,alfa,,,97,18,V,R,
16,16,16,0,0,53,27,1151,['n'],0,left,['3'],4,686,[-0.00924189],53,53,easy,minus,dotcolour,alfa,,,97,18,V,R,
17,17,17,0,0,33,47,1299,['n'],1,right,['2'],5,1047,[-0.10223852],71,47,medium,minus,dotcolour,alfa,,,97,18,V,R,
18,18,18,0,0,33,47,1067,['n'],1,right,['2'],5,700,[-0.03967407],61,47,medium,minus,dotcolour,alfa,,,97,18,V,R,
19,19,19,0,0,27,53,2951,['n'],1,right,['3'],4,1139,[-0.16084288],80,53,easy,minus,dotcolour,alfa,,,97,18,V,R,
20,20,20,0,0,44,36,1434,['c'],1,left,['3'],4,1669,[0.12159105],70,44,hard,minus,dotcolour,alfa,,,97,18,V,R,
21,21,21,0,0,44,36,1050,['n'],0,left,['3'],4,464,[-0.12510345],84,44,hard,minus,dotcolour,alfa,,,97,18,V,R,
22,22,22,0,0,47,33,866,['n'],0,left,['3'],4,445,[-0.05084708],67,47,medium,minus,dotcolour,alfa,,,97,18,V,R,
23,23,23,0,0,33,47,1134,['c'],0,right,['3'],4,830,[-0.06901039],34,47,medium,minus,dotcolour,alfa,,,97,18,V,R,
24,24,24,0,0,53,27,967,['c'],1,left,['3'],4,544,[0.11809587],81,53,easy,minus,dotcolour,alfa,,,97,18,V,R,
25,25,25,0,0,36,44,1317,['n'],1,right,['3'],4,526,[-0.10885562],79,44,hard,minus,dotcolour,alfa,,,97,18,V,R,
26,26,26,0,0,27,53,983,['n'],1,right,['3'],4,419,[-0.15523984],90,53,easy,minus,dotcolour,alfa,,,97,18,V,R,
27,27,27,0,0,53,27,2683,['c'],1,left,['9'],2,2233,[0.61044979],98,53,easy,minus,dotcolour,alfa,,,97,18,V,R,
28,28,28,0,0,33,47,1235,['n'],1,right,['3'],4,1478,[-0.13794548],74,47,medium,minus,dotcolour,alfa,,,97,18,V,R,
29,29,29,0,0,36,44,1084,['n'],1,right,['3'],4,1362,[-0.05505034],60,44,hard,minus,dotcolour,alfa,,,97,18,V,R,
30,30,30,0,0,53,27,983,['n'],0,left,['9'],2,1349,[0.32515782],7,53,easy,minus,dotcolour,alfa,,,97,18,V,R,
31,31,31,0,0,27,53,951,['n'],1,right,['3'],4,778,[-0.21745897],90,53,easy,minus,dotcolour,alfa,,,97,18,V,R,
32,32,32,0,0,36,44,834,['n'],1,right,['3'],4,651,[-0.01555678],54,44,hard,minus,dotcolour,alfa,,,97,18,V,R,
33,33,33,0,0,44,36,1968,['n'],0,left,['3'],4,755,[0.08678961],29,44,hard,minus,dotcolour,alfa,,,97,18,V,R,
34,34,34,0,0,53,27,1566,['c'],1,left,['3'],4,1071,[0.18704087],84,53,easy,minus,dotcolour,alfa,,,97,18,V,R,
35,35,35,0,0,53,27,1250,['n'],0,left,['3'],4,1075,[0.14096023],23,53,easy,minus,dotcolour,alfa,,,97,18,V,R,
36,36,36,0,0,44,36,1367,['n'],0,left,['3'],4,787,[-0.02260571],56,44,hard,minus,dotcolour,alfa,,,97,18,V,R,
37,37,37,0,0,47,33,1818,['c'],1,left,['3'],4,660,[0.15812674],85,47,medium,minus,dotcolour,alfa,,,97,18,V,R,
38,38,38,0,0,47,33,1667,['c'],1,left,['3'],4,367,[0.05184437],68,47,medium,minus,dotcolour,alfa,,,97,18,V,R,
39,39,39,0,0,47,33,1299,['c'],1,left,['3'],4,678,[0.17211068],87,47,medium,minus,dotcolour,alfa,,,97,18,V,R,
40,40,40,0,0,36,44,1850,['n'],1,right,['2'],5,674,[-0.07052864],68,44,hard,minus,dotcolour,alfa,,,97,18,V,R,
41,41,41,0,0,53,27,1334,['c'],1,left,['2'],5,443,[0.0577683],69,53,easy,minus,dotcolour,alfa,,,97,18,V,R,
42,42,0,1,0,53,27,801,['c'],1,left,['2'],5,622,[0.33209191],98,53,easy,minus,dotcolour,alfa,,,97,18,V,R,
43,43,1,1,0,53,27,933,['c'],1,left,['2'],5,384,[0.10028908],81,53,easy,minus,dotcolour,alfa,,,97,18,V,R,
44,44,2,1,0,33,47,767,['n'],1,right,['3'],4,821,[-0.04169505],60,47,medium,minus,dotcolour,alfa,,,97,18,V,R,
45,45,3,1,0,47,33,1049,['c'],1,left,['2'],5,362,[0.00530307],52,47,medium,minus,dotcolour,alfa,,,97,18,V,R,
46,46,4,1,0,53,27,933,['c'],1,left,['3'],4,560,[0.14886871],86,53,easy,minus,dotcolour,alfa,,,97,18,V,R,
47,47,5,1,0,27,53,783,['n'],1,right,['2'],5,795,[-0.19673849],88,53,easy,minus,dotcolour,alfa,,,97,18,V,R,
48,48,6,1,0,27,53,801,['n'],1,right,['1'],6,332,[-0.04582738],67,53,easy,minus,dotcolour,alfa,,,97,18,V,R,
49,49,7,1,0,53,27,834,['c'],1,left,['2'],5,671,[0.2467726],94,53,easy,minus,dotcolour,alfa,,,97,18,V,R,
50,50,8,1,0,36,44,883,['n'],1,right,['1'],6,338,[-0.18373845],95,44,hard,minus,dotcolour,alfa,,,97,18,V,R,
51,51,9,1,0,33,47,968,['n'],1,right,['1'],6,319,[-0.16457247],93,47,medium,minus,dotcolour,alfa,,,97,18,V,R,
52,52,10,1,0,36,44,915,['n'],1,right,['1'],6,248,[-0.10290042],87,44,hard,minus,dotcolour,alfa,,,97,18,V,R,
53,53,11,1,0,47,33,1118,['c'],1,left,['2'],5,433,[0.15958381],90,47,medium,minus,dotcolour,alfa,,,97,18,V,R,
54,54,12,1,0,47,33,1450,['c'],1,left,['3'],4,767,[0.12276336],78,47,medium,minus,dotcolour,alfa,,,97,18,V,R,
55,55,13,1,0,33,47,716,['n'],1,right,['3'],4,1006,[-0.28339275],93,47,medium,minus,dotcolour,alfa,,,97,18,V,R,
56,56,14,1,0,44,36,1017,['c'],1,left,['3'],4,501,[0.03059558],60,44,hard,minus,dotcolour,alfa,,,97,18,V,R,
57,57,15,1,0,27,53,1033,['n'],1,right,['3'],4,466,[-0.11351003],82,53,easy,minus,dotcolour,alfa,,,97,18,V,R,
58,58,16,1,0,47,33,768,['c'],1,left,['3'],4,402,[0.08505297],77,47,medium,minus,dotcolour,alfa,,,97,18,V,R,
59,59,17,1,0,27,53,1283,['n'],1,right,['3'],4,352,[-0.20813223],96,53,easy,minus,dotcolour,alfa,,,97,18,V,R,
60,60,18,1,0,53,27,833,['c'],1,left,['3'],4,426,[0.07188041],73,53,easy,minus,dotcolour,alfa,,,97,18,V,R,
61,61,19,1,0,36,44,1634,['c'],0,right,['3'],4,513,[0.0528902],66,44,hard,minus,dotcolour,alfa,,,97,18,V,R,
62,62,20,1,0,53,27,766,['c'],1,left,['2'],5,302,[0.09205895],82,53,easy,minus,dotcolour,alfa,,,97,18,V,R,
63,63,21,1,0,47,33,2084,['n'],0,left,['8'],3,601,[-0.06995593],69,47,medium,minus,dotcolour,alfa,,,97,18,V,R,
64,64,22,1,0,33,47,801,['n'],1,right,['2'],5,402,[-0.01813487],56,47,medium,minus,dotcolour,alfa,,,97,18,V,R,
65,65,23,1,0,44,36,1417,['c'],1,left,['3'],4,451,[0.01751131],56,44,hard,minus,dotcolour,alfa,,,97,18,V,R,
66,66,24,1,0,33,47,1050,['n'],1,right,['3'],4,1185,[-0.19005514],83,47,medium,minus,dotcolour,alfa,,,97,18,V,R,
67,67,25,1,0,36,44,950,['c'],0,right,['3'],4,476,[0.05878036],68,44,hard,minus,dotcolour,alfa,,,97,18,V,R,
68,68,26,1,0,44,36,1067,['c'],1,left,['3'],4,639,[0.16798399],87,44,hard,minus,dotcolour,alfa,,,97,18,V,R,
69,69,27,1,0,33,47,1001,['n'],1,right,['3'],4,526,[-0.26053112],96,47,medium,minus,dotcolour,alfa,,,97,18,V,R,
70,70,28,1,0,36,44,1051,['n'],1,right,['3'],4,569,[-0.1299013],82,44,hard,minus,dotcolour,alfa,,,97,18,V,R,
71,71,29,1,0,27,53,568,['n'],1,right,['3'],4,356,[-0.12447323],87,53,easy,minus,dotcolour,alfa,,,97,18,V,R,
72,72,30,1,0,44,36,817,['c'],1,left,['3'],4,327,[0.06769902],74,44,hard,minus,dotcolour,alfa,,,97,18,V,R,
73,73,31,1,0,53,27,817,['c'],1,left,['3'],4,354,[0.18830984],95,53,easy,minus,dotcolour,alfa,,,97,18,V,R,
74,74,32,1,0,27,53,617,['n'],1,right,['3'],4,340,[-0.08605831],79,53,easy,minus,dotcolour,alfa,,,97,18,V,R,
75,75,33,1,0,44,36,1218,['n'],0,left,['3'],4,255,[-0.06926167],77,44,hard,minus,dotcolour,alfa,,,97,18,V,R,
76,76,34,1,0,47,33,701,['c'],1,left,['3'],4,306,[0.0995845],83,47,medium,minus,dotcolour,alfa,,,97,18,V,R,
77,77,35,1,0,33,47,866,['n'],1,right,['3'],4,244,[-0.06289104],76,47,medium,minus,dotcolour,alfa,,,97,18,V,R,
78,78,36,1,0,47,33,617,['c'],1,left,['3'],4,323,[0.10221158],83,47,medium,minus,dotcolour,alfa,,,97,18,V,R,
79,79,37,1,0,36,44,816,['n'],1,right,['3'],4,279,[-0.06247324],74,44,hard,minus,dotcolour,alfa,,,97,18,V,R,
80,80,38,1,0,44,36,1067,['n'],0,left,['3'],4,257,[0.02008309],41,44,hard,minus,dotcolour,alfa,,,97,18,V,R,
81,81,39,1,0,27,53,734,['n'],1,right,['3'],4,284,[-0.08441814],81,53,easy,minus,dotcolour,alfa,,,97,18,V,R,
82,82,40,1,0,36,44,1601,['c'],0,right,['3'],4,409,[0.03072955],61,44,hard,minus,dotcolour,alfa,,,97,18,V,R,
83,83,41,1,0,44,36,800,['c'],1,left,['2'],5,730,[0.16920422],86,44,hard,minus,dotcolour,alfa,,,97,18,V,R,
84,84,0,2,0,47,33,901,['c'],1,left,['8'],3,1511,[0.33852084],92,47,medium,minus,dotcolour,alfa,,,97,18,V,R,
85,85,1,2,0,44,36,967,['c'],1,left,['3'],4,1205,[0.246179],88,44,hard,minus,dotcolour,alfa,,,97,18,V,R,
86,86,2,2,0,53,27,900,['c'],1,left,['3'],4,362,[0.10783949],83,53,easy,minus,dotcolour,alfa,,,97,18,V,R,
87,87,3,2,0,36,44,634,['n'],1,right,['3'],4,299,[-0.05066734],70,44,hard,minus,dotcolour,alfa,,,97,18,V,R,
88,88,4,2,0,53,27,683,['c'],1,left,['2'],5,909,[0.24193961],91,53,easy,minus,dotcolour,alfa,,,97,18,V,R,
89,89,5,2,0,27,53,701,['n'],1,right,['1'],6,373,[-0.10008769],81,53,easy,minus,dotcolour,alfa,,,97,18,V,R,
90,90,6,2,0,33,47,749,['n'],1,right,['1'],6,266,[-0.01898097],58,47,medium,minus,dotcolour,alfa,,,97,18,V,R,
91,91,7,2,0,53,27,784,['c'],1,left,['1'],6,337,[0.00259096],51,53,easy,minus,dotcolour,alfa,,,97,18,V,R,
92,92,8,2,0,33,47,1466,['n'],1,right,['8'],3,1722,[-0.1787975],77,47,medium,minus,dotcolour,alfa,,,97,18,V,R,
93,93,9,2,0,36,44,1000,['c'],0,right,['2'],5,550,[0.13376967],84,44,hard,minus,dotcolour,alfa,,,97,18,V,R,
94,94,10,2,0,47,33,1084,['c'],1,left,['2'],5,542,[0.13657518],84,47,medium,minus,dotcolour,alfa,,,97,18,V,R,
95,95,11,2,0,44,36,1334,['c'],1,left,['2'],5,812,[0.19650988],88,44,hard,minus,dotcolour,alfa,,,97,18,V,R,
96,96,12,2,0,47,33,917,['c'],1,left,['1'],6,896,[0.12397947],76,47,medium,minus,dotcolour,alfa,,,97,18,V,R,
97,97,13,2,0,27,53,916,['n'],1,right,['1'],6,281,[-0.10037665],85,53,easy,minus,dotcolour,alfa,,,97,18,V,R,
98,98,14,2,0,44,36,817,['c'],1,left,['3'],4,862,[0.12555709],77,44,hard,minus,dotcolour,alfa,,,97,18,V,R,
99,99,15,2,0,33,47,667,['n'],1,right,['3'],4,667,[-0.24198818],94,47,medium,minus,dotcolour,alfa,,,97,18,V,R,
100,100,16,2,0,27,53,850,['n'],1,right,['1'],6,295,[-0.11809177],88,53,easy,minus,dotcolour,alfa,,,97,18,V,R,
101,101,17,2,0,44,36,1067,['n'],0,left,['1'],6,274,[-0.12745154],90,44,hard,minus,dotcolour,alfa,,,97,18,V,R,
102,102,18,2,0,33,47,635,['n'],1,right,['1'],6,255,[-0.19458256],97,47,medium,minus,dotcolour,alfa,,,97,18,V,R,
103,103,19,2,0,53,27,734,['c'],1,left,['1'],6,289,[0.11101981],87,53,easy,minus,dotcolour,alfa,,,97,18,V,R,
104,104,20,2,0,33,47,716,['n'],1,right,['2'],5,522,[-0.12956096],83,47,medium,minus,dotcolour,alfa,,,97,18,V,R,
105,105,21,2,0,53,27,700,['c'],1,left,['1'],6,282,[0.10940185],86,53,easy,minus,dotcolour,alfa,,,97,18,V,R,
106,106,22,2,0,27,53,600,['n'],1,right,['1'],6,359,[-0.21331731],96,53,easy,minus,dotcolour,alfa,,,97,18,V,R,
107,107,23,2,0,27,53,1017,['c'],0,right,['1'],6,578,[0.00451885],51,53,easy,minus,dotcolour,alfa,,,97,18,V,R,
108,108,24,2,0,36,44,1651,['n'],1,right,['2'],5,426,[-0.04468594],65,44,hard,minus,dotcolour,alfa,,,97,18,V,R,
109,109,25,2,0,47,33,1000,['c'],1,left,['1'],6,306,[0.06968795],76,47,medium,minus,dotcolour,alfa,,,97,18,V,R,
110,110,26,2,0,44,36,1416,['c'],1,left,['3'],4,799,[0.11196512],76,44,hard,minus,dotcolour,alfa,,,97,18,V,R,
111,111,27,2,0,27,53,667,['n'],1,right,['1'],6,348,[-0.17667904],94,53,easy,minus,dotcolour,alfa,,,97,18,V,R,
112,112,28,2,0,47,33,716,['c'],1,left,['2'],5,652,[0.00297271],51,47,medium,minus,dotcolour,alfa,,,97,18,V,R,
113,113,29,2,0,36,44,1033,['c'],0,right,['8'],3,1530,[0.07407893],63,44,hard,minus,dotcolour,alfa,,,97,18,V,R,
114,114,30,2,0,47,33,1433,['c'],1,left,['2'],5,652,[0.22202717],92,47,medium,minus,dotcolour,alfa,,,97,18,V,R,
115,115,31,2,0,27,53,1484,['n'],1,right,['2'],5,632,[-0.15183636],85,53,easy,minus,dotcolour,alfa,,,97,18,V,R,
116,116,32,2,0,36,44,751,['n'],1,right,['3'],4,665,[-0.04675312],63,44,hard,minus,dotcolour,alfa,,,97,18,V,R,
117,117,33,2,0,33,47,701,['c'],0,right,['3'],4,676,[0.00092554],50,47,medium,minus,dotcolour,alfa,,,97,18,V,R,
118,118,34,2,0,53,27,683,['c'],1,left,['1'],6,351,[0.20846927],96,53,easy,minus,dotcolour,alfa,,,97,18,V,R,
119,119,35,2,0,53,27,1467,['c'],1,left,['2'],5,320,[0.08207674],79,53,easy,minus,dotcolour,alfa,,,97,18,V,R,
120,120,36,2,0,44,36,734,['c'],1,left,['2'],5,238,[0.07031496],79,44,hard,minus,dotcolour,alfa,,,97,18,V,R,
121,121,37,2,0,47,33,685,['c'],1,left,['2'],5,940,[0.32915918],96,47,medium,minus,dotcolour,alfa,,,97,18,V,R,
122,122,38,2,0,33,47,1132,['n'],1,right,['3'],4,602,[-0.13272943],82,47,medium,minus,dotcolour,alfa,,,97,18,V,R,
123,123,39,2,0,36,44,1100,['n'],1,right,['3'],4,439,[-0.26598577],97,44,hard,minus,dotcolour,alfa,,,97,18,V,R,
124,124,40,2,0,36,44,1585,['c'],0,right,['3'],4,279,[0.03909089],66,44,hard,minus,dotcolour,alfa,,,97,18,V,R,
125,125,41,2,0,44,36,716,['c'],1,left,['1'],6,585,[0.25761589],95,44,hard,minus,dotcolour,alfa,,,97,18,V,R,
126,0,0,3,1,33,47,784,['c'],0,right,['2'],5,551,[0.04116147],88,47,medium,plus,dotcolour,alfa,,,97,18,V,R,
127,1,1,3,1,53,27,684,['c'],1,left,['2'],5,1007,[0.26776533],100,53,easy,plus,dotcolour,alfa,,,97,18,V,R,
128,2,2,3,1,44,36,851,['c'],1,left,['1'],6,534,[0.07591735],98,44,hard,plus,dotcolour,alfa,,,97,18,V,R,
129,3,3,3,1,47,33,949,['n'],0,left,['8'],3,572,[0.01586993],32,47,medium,plus,dotcolour,alfa,,,97,18,V,R,
130,4,4,3,1,33,47,1184,['c'],0,right,['2'],5,454,[0.10402027],100,47,medium,plus,dotcolour,alfa,,,97,18,V,R,
131,5,5,3,1,53,27,633,['c'],1,left,['1'],6,316,[0.14052625],100,53,easy,plus,dotcolour,alfa,,,97,18,V,R,
132,6,6,3,1,36,44,983,['n'],1,right,['2'],5,625,[-0.04031713],86,44,hard,plus,dotcolour,alfa,,,97,18,V,R,
133,7,7,3,1,36,44,1601,['n'],1,right,['2'],5,482,[-0.08871825],99,44,hard,plus,dotcolour,alfa,,,97,18,V,R,
134,8,8,3,1,33,47,883,['n'],1,right,['1'],6,612,[-0.17381548],100,47,medium,plus,dotcolour,alfa,,,97,18,V,R,
135,9,9,3,1,27,53,918,['n'],1,right,['2'],5,352,[-0.11145373],100,53,easy,plus,dotcolour,alfa,,,97,18,V,R,
136,10,10,3,1,27,53,584,['n'],1,right,['1'],6,380,[-0.19211468],100,53,easy,plus,dotcolour,alfa,,,97,18,V,R,
137,11,11,3,1,27,53,534,['n'],1,right,['1'],6,257,[-0.07476015],100,53,easy,plus,dotcolour,alfa,,,97,18,V,R,
138,12,12,3,1,47,33,1050,['c'],1,left,['1'],6,326,[0.01049705],66,47,medium,plus,dotcolour,alfa,,,97,18,V,R,
139,13,13,3,1,47,33,1583,['c'],1,left,['1'],6,354,[0.0316561],87,47,medium,plus,dotcolour,alfa,,,97,18,V,R,
140,14,14,3,1,44,36,1533,['c'],1,left,['1'],6,248,[0.13034491],100,44,hard,plus,dotcolour,alfa,,,97,18,V,R,
141,15,15,3,1,27,53,984,['n'],1,right,['1'],6,344,[-0.14914555],100,53,easy,plus,dotcolour,alfa,,,97,18,V,R,
142,16,16,3,1,44,36,1033,['c'],1,left,['1'],6,282,[0.03380349],91,44,hard,plus,dotcolour,alfa,,,97,18,V,R,
143,17,17,3,1,47,33,733,['c'],1,left,['1'],6,315,[0.179031],100,47,medium,plus,dotcolour,alfa,,,97,18,V,R,
144,18,18,3,1,36,44,801,['n'],1,right,['1'],6,176,[-0.09968851],100,44,hard,plus,dotcolour,alfa,,,97,18,V,R,
145,19,19,3,1,36,44,633,['n'],1,right,['1'],6,192,[-0.01027176],70,44,hard,plus,dotcolour,alfa,,,97,18,V,R,
146,20,20,3,1,44,36,866,['c'],1,left,['1'],6,279,[0.00233762],54,44,hard,plus,dotcolour,alfa,,,97,18,V,R,
147,21,21,3,1,36,44,1382,['n'],1,right,['1'],6,278,[-0.0377946],93,44,hard,plus,dotcolour,alfa,,,97,18,V,R,
148,22,22,3,1,47,33,700,['c'],1,left,['1'],6,232,[0.01244235],72,47,medium,plus,dotcolour,alfa,,,97,18,V,R,
149,23,23,3,1,53,27,1051,['c'],1,left,['1'],6,246,[0.09990391],100,53,easy,plus,dotcolour,alfa,,,97,18,V,R,
150,24,24,3,1,36,44,1583,['c'],0,right,['2'],5,262,[0.02250719],83,44,hard,plus,dotcolour,alfa,,,97,18,V,R,
151,25,25,3,1,27,53,633,['n'],1,right,['2'],5,467,[-0.17273885],100,53,easy,plus,dotcolour,alfa,,,97,18,V,R,
152,26,26,3,1,47,33,883,['c'],1,left,['2'],5,279,[0.1513601],100,47,medium,plus,dotcolour,alfa,,,97,18,V,R,
153,27,27,3,1,33,47,1384,['n'],1,right,['2'],5,325,[-0.11564387],100,47,medium,plus,dotcolour,alfa,,,97,18,V,R,
154,28,28,3,1,33,47,982,['c'],0,right,['2'],5,202,[0.09606078],100,47,medium,plus,dotcolour,alfa,,,97,18,V,R,
155,29,29,3,1,27,53,950,['n'],1,right,['1'],6,413,[-0.13972464],100,53,easy,plus,dotcolour,alfa,,,97,18,V,R,
156,30,30,3,1,44,36,683,['c'],1,left,['2'],5,338,[0.00351659],55,44,hard,plus,dotcolour,alfa,,,97,18,V,R,
157,31,31,3,1,53,27,699,['c'],1,left,['1'],6,242,[0.16831764],100,53,easy,plus,dotcolour,alfa,,,97,18,V,R,
158,32,32,3,1,47,33,833,['c'],1,left,['1'],6,319,[0.14094719],100,47,medium,plus,dotcolour,alfa,,,97,18,V,R,
159,33,33,3,1,53,27,734,['c'],1,left,['1'],6,263,[0.10001799],100,53,easy,plus,dotcolour,alfa,,,97,18,V,R,
160,34,34,3,1,53,27,533,['c'],1,left,['1'],6,176,[0.09596318],100,53,easy,plus,dotcolour,alfa,,,97,18,V,R,
161,35,35,3,1,33,47,666,['n'],1,right,['1'],6,240,[-0.10434525],100,47,medium,plus,dotcolour,alfa,,,97,18,V,R,
162,36,36,3,1,27,53,1366,['n'],1,right,['3'],4,649,[-0.25946029],100,53,easy,plus,dotcolour,alfa,,,97,18,V,R,
163,37,37,3,1,33,47,1217,['n'],1,right,['1'],6,400,[-0.09060631],99,47,medium,plus,dotcolour,alfa,,,97,18,V,R,
164,38,38,3,1,36,44,900,['c'],0,right,['1'],6,300,[-0.05455921],3,44,hard,plus,dotcolour,alfa,,,97,18,V,R,
165,39,39,3,1,44,36,950,['c'],1,left,['1'],6,276,[0.14698124],100,44,hard,plus,dotcolour,alfa,,,97,18,V,R,
166,40,40,3,1,44,36,1601,['c'],1,left,['1'],6,1370,[0.05874635],86,44,hard,plus,dotcolour,alfa,,,97,18,V,R,
167,41,41,3,1,53,27,700,['c'],1,left,['1'],6,256,[0.1206004],100,53,easy,plus,dotcolour,alfa,,,97,18,V,R,
168,42,0,4,1,47,33,684,['c'],1,left,['1'],6,323,[0.10288685],100,47,medium,plus,dotcolour,alfa,,,97,18,V,R,
169,43,1,4,1,33,47,717,['n'],1,right,['1'],6,267,[-0.12771487],100,47,medium,plus,dotcolour,alfa,,,97,18,V,R,
170,44,2,4,1,27,53,950,['n'],1,right,['1'],6,260,[-0.08112047],100,53,easy,plus,dotcolour,alfa,,,97,18,V,R,
171,45,3,4,1,33,47,1399,['c'],0,right,['2'],5,355,[0.06145924],98,47,medium,plus,dotcolour,alfa,,,97,18,V,R,
172,46,4,4,1,27,53,935,['n'],1,right,['2'],5,432,[-0.18469091],100,53,easy,plus,dotcolour,alfa,,,97,18,V,R,
173,47,5,4,1,53,27,800,['c'],1,left,['2'],5,351,[0.1661642],100,53,easy,plus,dotcolour,alfa,,,97,18,V,R,
174,48,6,4,1,36,44,618,['n'],1,right,['2'],5,298,[-0.07607674],99,44,hard,plus,dotcolour,alfa,,,97,18,V,R,
175,49,7,4,1,33,47,867,['c'],0,right,['2'],5,318,[0.07928334],99,47,medium,plus,dotcolour,alfa,,,97,18,V,R,
176,50,8,4,1,33,47,701,['n'],1,right,['2'],5,238,[-0.09743728],100,47,medium,plus,dotcolour,alfa,,,97,18,V,R,
177,51,9,4,1,27,53,684,['n'],1,right,['2'],5,739,[-0.25725736],100,53,easy,plus,dotcolour,alfa,,,97,18,V,R,
178,52,10,4,1,53,27,718,['c'],1,left,['2'],5,417,[0.20433556],100,53,easy,plus,dotcolour,alfa,,,97,18,V,R,
179,53,11,4,1,47,33,850,['c'],1,left,['2'],5,351,[0.16664406],100,47,medium,plus,dotcolour,alfa,,,97,18,V,R,
180,54,12,4,1,44,36,1450,['c'],1,left,['2'],5,337,[0.13162346],100,44,hard,plus,dotcolour,alfa,,,97,18,V,R,
181,55,13,4,1,27,53,683,['n'],1,right,['1'],6,226,[-0.16643243],100,53,easy,plus,dotcolour,alfa,,,97,18,V,R,
182,56,14,4,1,44,36,1235,['c'],1,left,['2'],5,240,[0.17425648],100,44,hard,plus,dotcolour,alfa,,,97,18,V,R,
183,57,15,4,1,47,33,1134,['c'],1,left,['2'],5,370,[0.10831312],100,47,medium,plus,dotcolour,alfa,,,97,18,V,R,
184,58,16,4,1,33,47,1184,['n'],1,right,['2'],5,470,[-0.20467778],100,47,medium,plus,dotcolour,alfa,,,97,18,V,R,
185,59,17,4,1,53,27,817,['c'],1,left,['2'],5,452,[0.05881337],96,53,easy,plus,dotcolour,alfa,,,97,18,V,R,
186,60,18,4,1,36,44,567,['n'],1,right,['2'],5,333,[-0.03999528],92,44,hard,plus,dotcolour,alfa,,,97,18,V,R,
187,61,19,4,1,36,44,801,['n'],1,right,['1'],6,329,[-0.11863294],100,44,hard,plus,dotcolour,alfa,,,97,18,V,R,
188,62,20,4,1,44,36,733,['n'],0,left,['1'],6,279,[-0.04598672],96,44,hard,plus,dotcolour,alfa,,,97,18,V,R,
189,63,21,4,1,47,33,833,['c'],1,left,['2'],5,388,[0.19358098],100,47,medium,plus,dotcolour,alfa,,,97,18,V,R,
190,64,22,4,1,44,36,2851,['n'],0,left,['2'],5,307,[-0.09182981],100,44,hard,plus,dotcolour,alfa,,,97,18,V,R,
191,65,23,4,1,44,36,767,['c'],1,left,['2'],5,201,[0.05597562],99,44,hard,plus,dotcolour,alfa,,,97,18,V,R,
192,66,24,4,1,36,44,634,['n'],1,right,['2'],5,169,[-0.09803723],100,44,hard,plus,dotcolour,alfa,,,97,18,V,R,
193,67,25,4,1,47,33,867,['c'],1,left,['2'],5,273,[0.15692339],100,47,medium,plus,dotcolour,alfa,,,97,18,V,R,
194,68,26,4,1,44,36,950,['c'],1,left,['2'],5,241,[0.14270804],100,44,hard,plus,dotcolour,alfa,,,97,18,V,R,
195,69,27,4,1,36,44,1016,['n'],1,right,['2'],5,176,[-0.15346689],100,44,hard,plus,dotcolour,alfa,,,97,18,V,R,
196,70,28,4,1,53,27,683,['c'],1,left,['2'],5,223,[0.18933911],100,53,easy,plus,dotcolour,alfa,,,97,18,V,R,
197,71,29,4,1,53,27,683,['c'],1,left,['2'],5,259,[0.15112846],100,53,easy,plus,dotcolour,alfa,,,97,18,V,R,
198,72,30,4,1,33,47,750,['n'],1,right,['1'],6,220,[-0.06820904],99,47,medium,plus,dotcolour,alfa,,,97,18,V,R,
199,73,31,4,1,44,36,900,['c'],1,left,['1'],6,569,[0.01669623],69,44,hard,plus,dotcolour,alfa,,,97,18,V,R,
200,74,32,4,1,47,33,4717,['c'],1,left,['8'],3,591,[0.16331752],100,47,medium,plus,dotcolour,alfa,,,97,18,V,R,
201,75,33,4,1,53,27,667,['c'],1,left,['2'],5,246,[0.12166128],100,53,easy,plus,dotcolour,alfa,,,97,18,V,R,
202,76,34,4,1,47,33,650,['c'],1,left,['1'],6,259,[0.07793884],100,47,medium,plus,dotcolour,alfa,,,97,18,V,R,
203,77,35,4,1,36,44,983,['n'],1,right,['2'],5,722,[-0.10320483],99,44,hard,plus,dotcolour,alfa,,,97,18,V,R,
204,78,36,4,1,53,27,783,['c'],1,left,['1'],6,455,[0.13923757],100,53,easy,plus,dotcolour,alfa,,,97,18,V,R,
205,79,37,4,1,27,53,767,['n'],1,right,['2'],5,255,[-0.15975708],100,53,easy,plus,dotcolour,alfa,,,97,18,V,R,
206,80,38,4,1,36,44,784,['n'],1,right,['2'],5,542,[-0.11864993],100,44,hard,plus,dotcolour,alfa,,,97,18,V,R,
207,81,39,4,1,27,53,600,['n'],1,right,['3'],4,401,[-0.03738291],89,53,easy,plus,dotcolour,alfa,,,97,18,V,R,
208,82,40,4,1,33,47,1034,['n'],1,right,['1'],6,225,[-0.11007243],100,47,medium,plus,dotcolour,alfa,,,97,18,V,R,
209,83,41,4,1,27,53,667,['n'],1,right,['1'],6,303,[-0.14155258],100,53,easy,plus,dotcolour,alfa,,,97,18,V,R,
210,84,0,5,1,33,47,751,['n'],1,right,['2'],5,499,[-0.07567866],98,47,medium,plus,dotcolour,alfa,,,97,18,V,R,
211,85,1,5,1,33,47,733,['n'],1,right,['1'],6,450,[-0.0321621],85,47,medium,plus,dotcolour,alfa,,,97,18,V,R,
212,86,2,5,1,27,53,566,['n'],1,right,['1'],6,332,[-0.12483008],100,53,easy,plus,dotcolour,alfa,,,97,18,V,R,
213,87,3,5,1,44,36,983,['c'],1,left,['2'],5,440,[0.04024098],90,44,hard,plus,dotcolour,alfa,,,97,18,V,R,
214,88,4,5,1,33,47,683,['n'],1,right,['1'],6,332,[0.01709639],26,47,medium,plus,dotcolour,alfa,,,97,18,V,R,
215,89,5,5,1,33,47,867,['n'],1,right,['2'],5,294,[-0.16128626],100,47,medium,plus,dotcolour,alfa,,,97,18,V,R,
216,90,6,5,1,53,27,850,['c'],1,left,['1'],6,353,[0.20331268],100,53,easy,plus,dotcolour,alfa,,,97,18,V,R,
217,91,7,5,1,27,53,616,['n'],1,right,['1'],6,259,[-0.14200145],100,53,easy,plus,dotcolour,alfa,,,97,18,V,R,
218,92,8,5,1,44,36,783,['c'],1,left,['2'],5,379,[0.0669392],98,44,hard,plus,dotcolour,alfa,,,97,18,V,R,
219,93,9,5,1,36,44,685,['n'],1,right,['1'],6,450,[-0.00068641],51,44,hard,plus,dotcolour,alfa,,,97,18,V,R,
220,94,10,5,1,47,33,917,['c'],1,left,['2'],5,268,[0.05720361],98,47,medium,plus,dotcolour,alfa,,,97,18,V,R,
221,95,11,5,1,47,33,683,['c'],1,left,['2'],5,375,[0.08839625],99,47,medium,plus,dotcolour,alfa,,,97,18,V,R,
222,96,12,5,1,47,33,2350,['n'],0,left,['8'],3,283,[0.02492274],16,47,medium,plus,dotcolour,alfa,,,97,18,V,R,
223,97,13,5,1,36,44,1183,['n'],1,right,['2'],5,410,[-0.04950621],94,44,hard,plus,dotcolour,alfa,,,97,18,V,R,
224,98,14,5,1,47,33,817,['c'],1,left,['2'],5,538,[0.19161174],100,47,medium,plus,dotcolour,alfa,,,97,18,V,R,
225,99,15,5,1,53,27,783,['c'],1,left,['2'],5,6886,[1.03737621],100,53,easy,plus,dotcolour,alfa,,,97,18,V,R,
226,100,16,5,1,36,44,1216,['n'],1,right,['2'],5,281,[-0.05883747],98,44,hard,plus,dotcolour,alfa,,,97,18,V,R,
227,101,17,5,1,27,53,883,['n'],1,right,['2'],5,188,[-0.10186852],100,53,easy,plus,dotcolour,alfa,,,97,18,V,R,
228,102,18,5,1,36,44,700,['n'],1,right,['2'],5,226,[-0.15452972],100,44,hard,plus,dotcolour,alfa,,,97,18,V,R,
229,103,19,5,1,27,53,783,['n'],1,right,['2'],5,283,[-0.08218092],100,53,easy,plus,dotcolour,alfa,,,97,18,V,R,
230,104,20,5,1,53,27,1100,['c'],1,left,['2'],5,613,[0.07608613],97,53,easy,plus,dotcolour,alfa,,,97,18,V,R,
231,105,21,5,1,44,36,1283,['c'],1,left,['3'],4,418,[0.16966674],100,44,hard,plus,dotcolour,alfa,,,97,18,V,R,
232,106,22,5,1,53,27,816,['c'],1,left,['3'],4,362,[0.12485805],100,53,easy,plus,dotcolour,alfa,,,97,18,V,R,
233,107,23,5,1,36,44,1200,['n'],1,right,['3'],4,381,[-0.01803735],74,44,hard,plus,dotcolour,alfa,,,97,18,V,R,
234,108,24,5,1,47,33,999,['n'],0,left,['2'],5,239,[-0.04774579],97,47,medium,plus,dotcolour,alfa,,,97,18,V,R,
235,109,25,5,1,44,36,717,['c'],1,left,['3'],4,410,[-0.00672426],41,44,hard,plus,dotcolour,alfa,,,97,18,V,R,
236,110,26,5,1,53,27,600,['c'],1,left,['2'],5,354,[0.18393767],100,53,easy,plus,dotcolour,alfa,,,97,18,V,R,
237,111,27,5,1,44,36,1166,['n'],0,left,['2'],5,247,[-0.04006582],95,44,hard,plus,dotcolour,alfa,,,97,18,V,R,
238,112,28,5,1,53,27,1067,['n'],0,left,['2'],5,388,[-0.0193721],75,53,easy,plus,dotcolour,alfa,,,97,18,V,R,
239,113,29,5,1,47,33,1000,['n'],0,left,['3'],4,557,[0.06037872],5,47,medium,plus,dotcolour,alfa,,,97,18,V,R,
240,114,30,5,1,33,47,816,['n'],1,right,['2'],5,167,[-0.11591312],100,47,medium,plus,dotcolour,alfa,,,97,18,V,R,
241,115,31,5,1,44,36,784,['n'],0,left,['3'],4,371,[-0.08279701],99,44,hard,plus,dotcolour,alfa,,,97,18,V,R,
242,116,32,5,1,53,27,1500,['c'],1,left,['3'],4,393,[0.11563878],100,53,easy,plus,dotcolour,alfa,,,97,18,V,R,
243,117,33,5,1,27,53,617,['n'],1,right,['2'],5,298,[-0.09506519],100,53,easy,plus,dotcolour,alfa,,,97,18,V,R,
244,118,34,5,1,27,53,568,['n'],1,right,['2'],5,169,[-0.10333319],100,53,easy,plus,dotcolour,alfa,,,97,18,V,R,
245,119,35,5,1,27,53,567,['n'],1,right,['2'],5,117,[-0.09252479],100,53,easy,plus,dotcolour,alfa,,,97,18,V,R,
246,120,36,5,1,33,47,466,['n'],1,right,['2'],5,191,[-0.13966762],100,47,medium,plus,dotcolour,alfa,,,97,18,V,R,
247,121,37,5,1,47,33,883,['c'],1,left,['2'],5,205,[0.09851713],100,47,medium,plus,dotcolour,alfa,,,97,18,V,R,
248,122,38,5,1,36,44,534,['n'],1,right,['2'],5,145,[-0.11516539],100,44,hard,plus,dotcolour,alfa,,,97,18,V,R,
249,123,39,5,1,33,47,467,['n'],1,right,['2'],5,193,[-0.01739684],81,47,medium,plus,dotcolour,alfa,,,97,18,V,R,
250,124,40,5,1,44,36,633,['c'],1,left,['3'],4,265,[0.01026837],67,44,hard,plus,dotcolour,alfa,,,97,18,V,R,
251,125,41,5,1,36,44,1083,['n'],1,right,['2'],5,165,[-0.11667089],100,44,hard,plus,dotcolour,alfa,,,97,18,V,R,
252,0,0,6,2,44,36,850,['c'],1,left,['3'],4,247,[0.14829446],94,44,hard,minus,dotcolour,alfa,,,97,18,V,R,
253,1,1,6,2,27,53,583,['n'],1,right,['2'],5,216,[-0.12635576],92,53,easy,minus,dotcolour,alfa,,,97,18,V,R,
254,2,2,6,2,53,27,834,['c'],1,left,['2'],5,455,[0.09330912],78,53,easy,minus,dotcolour,alfa,,,97,18,V,R,
255,3,3,6,2,53,27,517,['c'],1,left,['2'],5,769,[0.17709774],86,53,easy,minus,dotcolour,alfa,,,97,18,V,R,
256,4,4,6,2,27,53,717,['n'],1,right,['2'],5,190,[-0.04759309],73,53,easy,minus,dotcolour,alfa,,,97,18,V,R,
257,5,5,6,2,47,33,601,['c'],1,left,['3'],4,408,[0.07045875],73,47,medium,minus,dotcolour,alfa,,,97,18,V,R,
258,6,6,6,2,47,33,701,['c'],1,left,['3'],4,325,[0.1513896],92,47,medium,minus,dotcolour,alfa,,,97,18,V,R,
259,7,7,6,2,44,36,1184,['n'],0,left,['3'],4,289,[-0.02870899],62,44,hard,minus,dotcolour,alfa,,,97,18,V,R,
260,8,8,6,2,33,47,668,['n'],1,right,['3'],4,236,[-0.12705297],91,47,medium,minus,dotcolour,alfa,,,97,18,V,R,
261,9,9,6,2,53,27,1216,['c'],1,left,['2'],5,499,[0.10801533],80,53,easy,minus,dotcolour,alfa,,,97,18,V,R,
262,10,10,6,2,27,53,732,['n'],1,right,['3'],4,204,[-0.14344955],95,53,easy,minus,dotcolour,alfa,,,97,18,V,R,
263,11,11,6,2,44,36,800,['n'],0,left,['3'],4,268,[-0.04697797],69,44,hard,minus,dotcolour,alfa,,,97,18,V,R,
264,12,12,6,2,36,44,616,['n'],1,right,['2'],5,490,[-0.10009882],78,44,hard,minus,dotcolour,alfa,,,97,18,V,R,
265,13,13,6,2,33,47,617,['n'],1,right,['2'],5,359,[-0.07331762],75,47,medium,minus,dotcolour,alfa,,,97,18,V,R,
266,14,14,6,2,36,44,1100,['n'],1,right,['2'],5,166,[-0.07301374],83,44,hard,minus,dotcolour,alfa,,,97,18,V,R,
267,15,15,6,2,33,47,634,['n'],1,right,['2'],5,151,[-0.09575736],90,47,medium,minus,dotcolour,alfa,,,97,18,V,R,
268,16,16,6,2,36,44,900,['n'],1,right,['2'],5,150,[-0.07517768],85,44,hard,minus,dotcolour,alfa,,,97,18,V,R,
269,17,17,6,2,33,47,467,['n'],1,right,['2'],5,167,[-0.11067825],92,47,medium,minus,dotcolour,alfa,,,97,18,V,R,
270,18,18,6,2,44,36,950,['c'],1,left,['2'],5,164,[0.07911958],85,44,hard,minus,dotcolour,alfa,,,97,18,V,R,
271,19,19,6,2,47,33,567,['c'],1,left,['2'],5,168,[0.07964303],85,47,medium,minus,dotcolour,alfa,,,97,18,V,R,
272,20,20,6,2,47,33,567,['c'],1,left,['2'],5,220,[0.10847233],89,47,medium,minus,dotcolour,alfa,,,97,18,V,R,
273,21,21,6,2,36,44,617,['n'],1,right,['2'],5,164,[-0.12311283],94,44,hard,minus,dotcolour,alfa,,,97,18,V,R,
274,22,22,6,2,47,33,733,['c'],1,left,['2'],5,201,[0.08379396],84,47,medium,minus,dotcolour,alfa,,,97,18,V,R,
275,23,23,6,2,53,27,584,['c'],1,left,['2'],5,203,[0.10842826],90,53,easy,minus,dotcolour,alfa,,,97,18,V,R,
276,24,24,6,2,27,53,617,['n'],1,right,['2'],5,172,[-0.07965352],85,53,easy,minus,dotcolour,alfa,,,97,18,V,R,
277,25,25,6,2,36,44,533,['n'],1,right,['2'],5,154,[-0.07610494],85,44,hard,minus,dotcolour,alfa,,,97,18,V,R,
278,26,26,6,2,27,53,517,['n'],1,right,['2'],5,184,[-0.04942362],74,53,easy,minus,dotcolour,alfa,,,97,18,V,R,
279,27,27,6,2,53,27,534,['c'],1,left,['2'],5,189,[0.1285393],93,53,easy,minus,dotcolour,alfa,,,97,18,V,R,
280,28,28,6,2,44,36,833,['c'],1,left,['2'],5,157,[0.15998714],97,44,hard,minus,dotcolour,alfa,,,97,18,V,R,
281,29,29,6,2,44,36,683,['c'],1,left,['2'],5,197,[0.15237107],96,44,hard,minus,dotcolour,alfa,,,97,18,V,R,
282,30,30,6,2,47,33,782,['c'],1,left,['2'],5,191,[0.11857928],92,47,medium,minus,dotcolour,alfa,,,97,18,V,R,
283,31,31,6,2,27,53,633,['n'],1,right,['2'],5,151,[-0.11371393],93,53,easy,minus,dotcolour,alfa,,,97,18,V,R,
284,32,32,6,2,33,47,701,['n'],1,right,['2'],5,134,[-0.02193352],63,47,medium,minus,dotcolour,alfa,,,97,18,V,R,
285,33,33,6,2,36,44,651,['n'],1,right,['2'],5,144,[-0.07104602],84,44,hard,minus,dotcolour,alfa,,,97,18,V,R,
286,34,34,6,2,47,33,534,['c'],1,left,['2'],5,206,[0.0701077],80,47,medium,minus,dotcolour,alfa,,,97,18,V,R,
287,35,35,6,2,53,27,633,['c'],1,left,['2'],5,174,[0.09163029],88,53,easy,minus,dotcolour,alfa,,,97,18,V,R,
288,36,36,6,2,27,53,518,['n'],1,right,['2'],5,195,[-0.06146093],78,53,easy,minus,dotcolour,alfa,,,97,18,V,R,
289,37,37,6,2,33,47,616,['n'],1,right,['2'],5,196,[-0.12174196],92,47,medium,minus,dotcolour,alfa,,,97,18,V,R,
290,38,38,6,2,36,44,833,['c'],0,right,['2'],5,163,[0.08326196],86,44,hard,minus,dotcolour,alfa,,,97,18,V,R,
291,39,39,6,2,53,27,517,['c'],1,left,['2'],5,290,[0.16418883],94,53,easy,minus,dotcolour,alfa,,,97,18,V,R,
292,40,40,6,2,44,36,533,['c'],1,left,['2'],5,201,[0.03607599],67,44,hard,minus,dotcolour,alfa,,,97,18,V,R,
293,41,41,6,2,33,47,566,['n'],1,right,['2'],5,204,[-0.11023934],90,47,medium,minus,dotcolour,alfa,,,97,18,V,R,
294,42,0,7,2,33,47,701,['c'],0,right,['2'],5,423,[-0.00677184],48,47,medium,minus,dotcolour,alfa,,,97,18,V,R,
295,43,1,7,2,27,53,750,['c'],0,right,['2'],5,297,[0.04761402],69,53,easy,minus,dotcolour,alfa,,,97,18,V,R,
296,44,2,7,2,33,47,567,['c'],0,right,['2'],5,208,[0.11685451],91,47,medium,minus,dotcolour,alfa,,,97,18,V,R,
297,45,3,7,2,47,33,818,['n'],0,left,['1'],6,864,[0.07662305],32,47,medium,minus,dotcolour,alfa,,,97,18,V,R,
298,46,4,7,2,36,44,2467,['n'],1,right,['8'],3,636,[-0.05756536],66,44,hard,minus,dotcolour,alfa,,,97,18,V,R,
299,47,5,7,2,27,53,751,['n'],1,right,['1'],6,366,[-0.1470004],90,53,easy,minus,dotcolour,alfa,,,97,18,V,R,
300,48,6,7,2,36,44,1252,['c'],0,right,['2'],5,302,[0.01514557],56,44,hard,minus,dotcolour,alfa,,,97,18,V,R,
301,49,7,7,2,27,53,484,['n'],1,right,['1'],6,304,[-0.19279072],96,53,easy,minus,dotcolour,alfa,,,97,18,V,R,
302,50,8,7,2,33,47,450,['n'],1,right,['1'],6,187,[-0.06770348],80,47,medium,minus,dotcolour,alfa,,,97,18,V,R,
303,51,9,7,2,36,44,433,['n'],1,right,['2'],5,156,[-0.05735638],79,44,hard,minus,dotcolour,alfa,,,97,18,V,R,
304,52,10,7,2,44,36,967,['c'],1,left,['2'],5,216,[0.11341235],90,44,hard,minus,dotcolour,alfa,,,97,18,V,R,
305,53,11,7,2,33,47,766,['n'],1,right,['2'],5,194,[-0.12510919],93,47,medium,minus,dotcolour,alfa,,,97,18,V,R,
306,54,12,7,2,27,53,516,['n'],1,right,['1'],6,174,[-0.04930883],74,53,easy,minus,dotcolour,alfa,,,97,18,V,R,
307,55,13,7,2,47,33,667,['c'],1,left,['1'],6,190,[0.10985894],91,47,medium,minus,dotcolour,alfa,,,97,18,V,R,
308,56,14,7,2,53,27,716,['n'],0,left,['0'],1,1683,[0.20114901],20,53,easy,minus,dotcolour,alfa,,,97,18,V,R,
309,57,15,7,2,36,44,1750,['n'],1,right,['1'],6,362,[-0.18341883],94,44,hard,minus,dotcolour,alfa,,,97,18,V,R,
310,58,16,7,2,47,33,833,['c'],1,left,['2'],5,1140,[0.10278234],70,47,medium,minus,dotcolour,alfa,,,97,18,V,R,
311,59,17,7,2,36,44,817,['c'],0,right,['2'],5,302,[0.01459634],56,44,hard,minus,dotcolour,alfa,,,97,18,V,R,
312,60,18,7,2,44,36,650,['c'],1,left,['3'],4,561,[0.05283287],65,44,hard,minus,dotcolour,alfa,,,97,18,V,R,
313,61,19,7,2,47,33,1033,['c'],1,left,['3'],4,563,[-0.05194139],35,47,medium,minus,dotcolour,alfa,,,97,18,V,R,
314,62,20,7,2,53,27,567,['c'],1,left,['1'],6,863,[0.10527788],73,53,easy,minus,dotcolour,alfa,,,97,18,V,R,
315,63,21,7,2,44,36,534,['c'],1,left,['1'],6,336,[0.12005217],87,44,hard,minus,dotcolour,alfa,,,97,18,V,R,
316,64,22,7,2,36,44,1116,['n'],1,right,['1'],6,328,[-0.1425201],90,44,hard,minus,dotcolour,alfa,,,97,18,V,R,
317,65,23,7,2,47,33,917,['c'],1,left,['2'],5,471,[0.16079276],89,47,medium,minus,dotcolour,alfa,,,97,18,V,R,
318,66,24,7,2,53,27,700,['c'],1,left,['1'],6,305,[-0.00114921],50,53,easy,minus,dotcolour,alfa,,,97,18,V,R,
319,67,25,7,2,47,33,583,['c'],1,left,['1'],6,239,[0.07224751],79,47,medium,minus,dotcolour,alfa,,,97,18,V,R,
320,68,26,7,2,44,36,616,['c'],1,left,['1'],6,190,[0.21136894],99,44,hard,minus,dotcolour,alfa,,,97,18,V,R,
321,69,27,7,2,44,36,667,['c'],1,left,['1'],6,237,[0.11683261],90,44,hard,minus,dotcolour,alfa,,,97,18,V,R,
322,70,28,7,2,44,36,700,['c'],1,left,['1'],6,217,[0.07415082],81,44,hard,minus,dotcolour,alfa,,,97,18,V,R,
323,71,29,7,2,36,44,883,['n'],1,right,['1'],6,222,[-0.11302171],90,44,hard,minus,dotcolour,alfa,,,97,18,V,R,
324,72,30,7,2,53,27,550,['c'],1,left,['1'],6,208,[0.06722344],79,53,easy,minus,dotcolour,alfa,,,97,18,V,R,
325,73,31,7,2,33,47,467,['n'],1,right,['1'],6,222,[-0.21799883],98,47,medium,minus,dotcolour,alfa,,,97,18,V,R,
326,74,32,7,2,33,47,584,['n'],1,right,['1'],6,183,[-0.11986999],93,47,medium,minus,dotcolour,alfa,,,97,18,V,R,
327,75,33,7,2,33,47,534,['n'],1,right,['1'],6,148,[-0.07690163],86,47,medium,minus,dotcolour,alfa,,,97,18,V,R,
328,76,34,7,2,27,53,451,['n'],1,right,['1'],6,173,[-0.15435974],97,53,easy,minus,dotcolour,alfa,,,97,18,V,R,
329,77,35,7,2,53,27,567,['c'],1,left,['1'],6,169,[0.09039036],88,53,easy,minus,dotcolour,alfa,,,97,18,V,R,
330,78,36,7,2,53,27,501,['c'],1,left,['1'],6,159,[0.12712533],95,53,easy,minus,dotcolour,alfa,,,97,18,V,R,
331,79,37,7,2,27,53,483,['n'],1,right,['1'],6,174,[-0.05741835],78,53,easy,minus,dotcolour,alfa,,,97,18,V,R,
332,80,38,7,2,44,36,668,['c'],1,left,['1'],6,150,[0.21070771],99,44,hard,minus,dotcolour,alfa,,,97,18,V,R,
333,81,39,7,2,53,27,668,['c'],1,left,['1'],6,159,[0.04484721],73,53,easy,minus,dotcolour,alfa,,,97,18,V,R,
334,82,40,7,2,47,33,533,['c'],1,left,['1'],6,204,[0.07734062],82,47,medium,minus,dotcolour,alfa,,,97,18,V,R,
335,83,41,7,2,27,53,634,['n'],1,right,['1'],6,180,[-0.05543246],76,53,easy,minus,dotcolour,alfa,,,97,18,V,R,
336,84,0,8,2,27,53,617,['n'],1,right,['1'],6,165,[-0.08285485],86,53,easy,minus,dotcolour,alfa,,,97,18,V,R,
337,85,1,8,2,33,47,450,['n'],1,right,['1'],6,221,[-0.07045304],79,47,medium,minus,dotcolour,alfa,,,97,18,V,R,
338,86,2,8,2,36,44,384,['n'],1,right,['1'],6,215,[-0.17067168],96,44,hard,minus,dotcolour,alfa,,,97,18,V,R,
339,87,3,8,2,53,27,550,['c'],1,left,['1'],6,193,[0.0663842],80,53,easy,minus,dotcolour,alfa,,,97,18,V,R,
340,88,4,8,2,47,33,533,['n'],0,left,['1'],6,198,[0.00914228],45,47,medium,minus,dotcolour,alfa,,,97,18,V,R,
341,89,5,8,2,27,53,417,['n'],1,right,['1'],6,190,[-0.06109288],78,53,easy,minus,dotcolour,alfa,,,97,18,V,R,
342,90,6,8,2,36,44,449,['n'],1,right,['1'],6,189,[-0.03850687],69,44,hard,minus,dotcolour,alfa,,,97,18,V,R,
343,91,7,8,2,47,33,750,['c'],1,left,['1'],6,194,[0.1784168],97,47,medium,minus,dotcolour,alfa,,,97,18,V,R,
344,92,8,8,2,33,47,617,['c'],0,right,['1'],6,218,[0.11538381],90,47,medium,minus,dotcolour,alfa,,,97,18,V,R,
345,93,9,8,2,44,36,901,['n'],0,left,['1'],6,151,[0.00567001],47,44,hard,minus,dotcolour,alfa,,,97,18,V,R,
346,94,10,8,2,36,44,534,['n'],1,right,['1'],6,229,[-0.21575515],98,44,hard,minus,dotcolour,alfa,,,97,18,V,R,
347,95,11,8,2,47,33,667,['c'],1,left,['1'],6,154,[0.0844346],87,47,medium,minus,dotcolour,alfa,,,97,18,V,R,
348,96,12,8,2,53,27,834,['c'],1,left,['1'],6,156,[0.10222052],91,53,easy,minus,dotcolour,alfa,,,97,18,V,R,
349,97,13,8,2,44,36,1200,['c'],1,left,['1'],6,190,[0.09079405],87,44,hard,minus,dotcolour,alfa,,,97,18,V,R,
350,98,14,8,2,27,53,3567,['n'],1,right,['0'],1,257,[-0.06960061],77,53,easy,minus,dotcolour,alfa,,,97,18,V,R,
351,99,15,8,2,44,36,1050,['c'],1,left,['1'],6,222,[-0.00588817],47,44,hard,minus,dotcolour,alfa,,,97,18,V,R,
352,100,16,8,2,27,53,767,['n'],1,right,['1'],6,183,[-0.17777957],98,53,easy,minus,dotcolour,alfa,,,97,18,V,R,
353,101,17,8,2,44,36,816,['c'],1,left,['1'],6,208,[0.08575025],84,44,hard,minus,dotcolour,alfa,,,97,18,V,R,
354,102,18,8,2,33,47,1134,['c'],0,right,['1'],6,284,[-0.00911781],46,47,medium,minus,dotcolour,alfa,,,97,18,V,R,
355,103,19,8,2,33,47,717,['n'],1,right,['1'],6,253,[-0.15472437],94,47,medium,minus,dotcolour,alfa,,,97,18,V,R,
356,104,20,8,2,47,33,750,['c'],1,left,['2'],5,358,[0.12433824],87,47,medium,minus,dotcolour,alfa,,,97,18,V,R,
357,105,21,8,2,53,27,866,['c'],1,left,['2'],5,295,[0.11684438],87,53,easy,minus,dotcolour,alfa,,,97,18,V,R,
358,106,22,8,2,33,47,517,['n'],1,right,['1'],6,175,[-0.02795944],65,47,medium,minus,dotcolour,alfa,,,97,18,V,R,
359,107,23,8,2,53,27,617,['c'],1,left,['1'],6,273,[0.13439394],91,53,easy,minus,dotcolour,alfa,,,97,18,V,R,
360,108,24,8,2,44,36,1216,['c'],1,left,['1'],6,318,[0.0759114],77,44,hard,minus,dotcolour,alfa,,,97,18,V,R,
361,109,25,8,2,36,44,850,['n'],1,right,['1'],6,232,[-0.07236498],79,44,hard,minus,dotcolour,alfa,,,97,18,V,R,
362,110,26,8,2,47,33,750,['c'],1,left,['2'],5,242,[0.13280714],92,47,medium,minus,dotcolour,alfa,,,97,18,V,R,
363,111,27,8,2,44,36,1067,['n'],0,left,['2'],5,495,[0.04521461],36,44,hard,minus,dotcolour,alfa,,,97,18,V,R,
364,112,28,8,2,44,36,950,['n'],0,left,['8'],3,758,[-0.00828531],52,44,hard,minus,dotcolour,alfa,,,97,18,V,R,
365,113,29,8,2,27,53,568,['n'],1,right,['1'],6,323,[-0.23158807],98,53,easy,minus,dotcolour,alfa,,,97,18,V,R,
366,114,30,8,2,53,27,651,['c'],1,left,['1'],6,661,[0.26636432],95,53,easy,minus,dotcolour,alfa,,,97,18,V,R,
367,115,31,8,2,53,27,717,['n'],0,left,['1'],6,271,[-0.01690637],57,53,easy,minus,dotcolour,alfa,,,97,18,V,R,
368,116,32,8,2,36,44,1034,['n'],1,right,['2'],5,388,[-0.17041055],92,44,hard,minus,dotcolour,alfa,,,97,18,V,R,
369,117,33,8,2,33,47,750,['n'],1,right,['3'],4,2408,[-0.04322862],56,47,medium,minus,dotcolour,alfa,,,97,18,V,R,
370,118,34,8,2,27,53,817,['n'],1,right,['1'],6,183,[-0.19338887],98,53,easy,minus,dotcolour,alfa,,,97,18,V,R,
371,119,35,8,2,47,33,2050,['c'],1,left,['2'],5,287,[0.02552738],61,47,medium,minus,dotcolour,alfa,,,97,18,V,R,
372,120,36,8,2,53,27,884,['c'],1,left,['2'],5,322,[0.05966919],72,53,easy,minus,dotcolour,alfa,,,97,18,V,R,
373,121,37,8,2,33,47,884,['n'],1,right,['1'],6,275,[-0.02330126],60,47,medium,minus,dotcolour,alfa,,,97,18,V,R,
374,122,38,8,2,27,53,834,['n'],1,right,['2'],5,311,[-0.20080865],96,53,easy,minus,dotcolour,alfa,,,97,18,V,R,
375,123,39,8,2,36,44,1301,['c'],0,right,['1'],6,448,[0.09199702],78,44,hard,minus,dotcolour,alfa,,,97,18,V,R,
376,124,40,8,2,36,44,733,['n'],1,right,['2'],5,426,[-0.1779146],92,44,hard,minus,dotcolour,alfa,,,97,18,V,R,
377,125,41,8,2,47,33,834,['c'],1,left,['1'],6,545,[0.1709579],89,47,medium,minus,dotcolour,alfa,,,97,18,V,R,
378,0,0,9,3,53,27,852,['c'],1,left,['2'],5,282,[0.14406031],100,53,easy,plus,dotcolour,alfa,,,97,18,V,R,
379,1,1,9,3,44,36,734,['n'],0,left,['1'],6,179,[-0.01430731],77,44,hard,plus,dotcolour,alfa,,,97,18,V,R,
380,2,2,9,3,33,47,667,['n'],1,right,['2'],5,202,[-0.12265895],100,47,medium,plus,dotcolour,alfa,,,97,18,V,R,
381,3,3,9,3,33,47,566,['n'],1,right,['2'],5,237,[-0.17178629],100,47,medium,plus,dotcolour,alfa,,,97,18,V,R,
382,4,4,9,3,36,44,532,['n'],1,right,['2'],5,256,[-0.10696686],100,44,hard,plus,dotcolour,alfa,,,97,18,V,R,
383,5,5,9,3,47,33,600,['c'],1,left,['1'],6,254,[0.11732791],100,47,medium,plus,dotcolour,alfa,,,97,18,V,R,
384,6,6,9,3,44,36,800,['n'],0,left,['2'],5,245,[-0.09152463],100,44,hard,plus,dotcolour,alfa,,,97,18,V,R,
385,7,7,9,3,53,27,684,['c'],1,left,['2'],5,266,[0.04484644],96,53,easy,plus,dotcolour,alfa,,,97,18,V,R,
386,8,8,9,3,44,36,850,['c'],1,left,['2'],5,270,[0.20801734],100,44,hard,plus,dotcolour,alfa,,,97,18,V,R,
387,9,9,9,3,36,44,501,['n'],1,right,['3'],4,345,[-0.20482383],100,44,hard,plus,dotcolour,alfa,,,97,18,V,R,
388,10,10,9,3,36,44,883,['c'],0,right,['2'],5,241,[-0.00365994],43,44,hard,plus,dotcolour,alfa,,,97,18,V,R,
389,11,11,9,3,53,27,517,['c'],1,left,['1'],6,507,[0.19930532],100,53,easy,plus,dotcolour,alfa,,,97,18,V,R,
390,12,12,9,3,33,47,567,['n'],1,right,['1'],6,186,[-0.07909633],100,47,medium,plus,dotcolour,alfa,,,97,18,V,R,
391,13,13,9,3,27,53,600,['n'],1,right,['1'],6,220,[-0.0559273],99,53,easy,plus,dotcolour,alfa,,,97,18,V,R,
392,14,14,9,3,53,27,535,['c'],1,left,['2'],5,223,[0.14935845],100,53,easy,plus,dotcolour,alfa,,,97,18,V,R,
393,15,15,9,3,27,53,617,['n'],1,right,['2'],5,199,[-0.17184879],100,53,easy,plus,dotcolour,alfa,,,97,18,V,R,
394,16,16,9,3,47,33,666,['c'],1,left,['2'],5,221,[0.13188422],100,47,medium,plus,dotcolour,alfa,,,97,18,V,R,
395,17,17,9,3,27,53,768,['n'],1,right,['2'],5,296,[-0.08603349],100,53,easy,plus,dotcolour,alfa,,,97,18,V,R,
396,18,18,9,3,36,44,1334,['c'],0,right,['0'],1,855,[0.22539909],100,44,hard,plus,dotcolour,alfa,,,97,18,V,R,
397,19,19,9,3,53,27,1184,['c'],1,left,['2'],5,246,[0.06340039],99,53,easy,plus,dotcolour,alfa,,,97,18,V,R,
398,20,20,9,3,33,47,666,['n'],1,right,['2'],5,211,[-0.06864268],100,47,medium,plus,dotcolour,alfa,,,97,18,V,R,
399,21,21,9,3,27,53,533,['n'],1,right,['2'],5,223,[-0.06206238],99,53,easy,plus,dotcolour,alfa,,,97,18,V,R,
400,22,22,9,3,36,44,517,['n'],1,right,['1'],6,186,[-0.05001174],98,44,hard,plus,dotcolour,alfa,,,97,18,V,R,
401,23,23,9,3,47,33,683,['c'],1,left,['2'],5,272,[0.06408135],99,47,medium,plus,dotcolour,alfa,,,97,18,V,R,
402,24,24,9,3,47,33,885,['c'],1,left,['3'],4,796,[0.08431054],97,47,medium,plus,dotcolour,alfa,,,97,18,V,R,
403,25,25,9,3,27,53,550,['n'],1,right,['1'],6,223,[-0.07963394],100,53,easy,plus,dotcolour,alfa,,,97,18,V,R,
404,26,26,9,3,33,47,450,['n'],1,right,['1'],6,220,[-0.15579677],100,47,medium,plus,dotcolour,alfa,,,97,18,V,R,
405,27,27,9,3,44,36,500,['n'],0,left,['1'],6,201,[-0.04720815],98,44,hard,plus,dotcolour,alfa,,,97,18,V,R,
406,28,28,9,3,44,36,851,['c'],1,left,['2'],5,353,[0.05790475],97,44,hard,plus,dotcolour,alfa,,,97,18,V,R,
407,29,29,9,3,47,33,584,['c'],1,left,['2'],5,468,[0.11539564],100,47,medium,plus,dotcolour,alfa,,,97,18,V,R,
408,30,30,9,3,33,47,567,['n'],1,right,['1'],6,220,[-0.09974703],100,47,medium,plus,dotcolour,alfa,,,97,18,V,R,
409,31,31,9,3,47,33,567,['n'],0,left,['0'],1,886,[0.13836858],1,47,medium,plus,dotcolour,alfa,,,97,18,V,R,
410,32,32,9,3,33,47,2167,['n'],1,right,['0'],1,437,[-0.0483029],93,47,medium,plus,dotcolour,alfa,,,97,18,V,R,
411,33,33,9,3,27,53,967,['n'],1,right,['1'],6,287,[-0.04891915],96,53,easy,plus,dotcolour,alfa,,,97,18,V,R,
412,34,34,9,3,53,27,684,['c'],1,left,['2'],5,265,[0.16680789],100,53,easy,plus,dotcolour,alfa,,,97,18,V,R,
413,35,35,9,3,44,36,734,['c'],1,left,['2'],5,307,[0.12305857],100,44,hard,plus,dotcolour,alfa,,,97,18,V,R,
414,36,36,9,3,44,36,734,['c'],1,left,['1'],6,418,[0.1623841],100,44,hard,plus,dotcolour,alfa,,,97,18,V,R,
415,37,37,9,3,27,53,651,['n'],1,right,['1'],6,201,[-0.11253832],100,53,easy,plus,dotcolour,alfa,,,97,18,V,R,
416,38,38,9,3,47,33,567,['c'],1,left,['2'],5,259,[0.10456995],100,47,medium,plus,dotcolour,alfa,,,97,18,V,R,
417,39,39,9,3,36,44,550,['n'],1,right,['0'],1,884,[-0.10246769],98,44,hard,plus,dotcolour,alfa,,,97,18,V,R,
418,40,40,9,3,36,44,767,['n'],1,right,['1'],6,251,[-0.06673475],99,44,hard,plus,dotcolour,alfa,,,97,18,V,R,
419,41,41,9,3,53,27,683,['c'],1,left,['2'],5,191,[0.06731185],100,53,easy,plus,dotcolour,alfa,,,97,18,V,R,
420,42,0,10,3,36,44,850,['n'],1,right,['2'],5,246,[-0.07442252],100,44,hard,plus,dotcolour,alfa,,,97,18,V,R,
421,43,1,10,3,47,33,583,['c'],1,left,['2'],5,246,[0.03866391],94,47,medium,plus,dotcolour,alfa,,,97,18,V,R,
422,44,2,10,3,27,53,500,['n'],1,right,['1'],6,241,[-0.06561456],99,53,easy,plus,dotcolour,alfa,,,97,18,V,R,
423,45,3,10,3,27,53,516,['n'],1,right,['1'],6,188,[-0.15404083],100,53,easy,plus,dotcolour,alfa,,,97,18,V,R,
424,46,4,10,3,53,27,517,['c'],1,left,['2'],5,257,[0.07175042],99,53,easy,plus,dotcolour,alfa,,,97,18,V,R,
425,47,5,10,3,27,53,434,['n'],1,right,['1'],6,206,[-0.11648223],100,53,easy,plus,dotcolour,alfa,,,97,18,V,R,
426,48,6,10,3,36,44,500,['n'],1,right,['1'],6,203,[-0.1087043],100,44,hard,plus,dotcolour,alfa,,,97,18,V,R,
427,49,7,10,3,36,44,583,['n'],1,right,['0'],1,580,[0.12274793],0,44,hard,plus,dotcolour,alfa,,,97,18,V,R,
428,50,8,10,3,53,27,951,['c'],1,left,['1'],6,1361,[0.46870813],100,53,easy,plus,dotcolour,alfa,,,97,18,V,R,
429,51,9,10,3,47,33,1301,['c'],1,left,['2'],5,1240,[0.12947122],98,47,medium,plus,dotcolour,alfa,,,97,18,V,R,
430,52,10,10,3,44,36,700,['c'],1,left,['2'],5,339,[0.1412646],100,44,hard,plus,dotcolour,alfa,,,97,18,V,R,
431,53,11,10,3,47,33,1416,['c'],1,left,['2'],5,318,[0.11229798],100,47,medium,plus,dotcolour,alfa,,,97,18,V,R,
432,54,12,10,3,53,27,700,['c'],1,left,['2'],5,270,[0.12574642],100,53,easy,plus,dotcolour,alfa,,,97,18,V,R,
433,55,13,10,3,44,36,966,['c'],1,left,['2'],5,279,[0.06062662],98,44,hard,plus,dotcolour,alfa,,,97,18,V,R,
434,56,14,10,3,33,47,634,['n'],1,right,['2'],5,268,[-0.058898],98,47,medium,plus,dotcolour,alfa,,,97,18,V,R,
435,57,15,10,3,47,33,867,['c'],1,left,['1'],6,816,[0.13727572],100,47,medium,plus,dotcolour,alfa,,,97,18,V,R,
436,58,16,10,3,27,53,835,['n'],1,right,['1'],6,255,[-0.22589472],100,53,easy,plus,dotcolour,alfa,,,97,18,V,R,
437,59,17,10,3,53,27,834,['c'],1,left,['2'],5,268,[0.19637012],100,53,easy,plus,dotcolour,alfa,,,97,18,V,R,
438,60,18,10,3,53,27,699,['c'],1,left,['2'],5,247,[0.11406801],100,53,easy,plus,dotcolour,alfa,,,97,18,V,R,
439,61,19,10,3,53,27,733,['c'],1,left,['1'],6,330,[0.02691447],84,53,easy,plus,dotcolour,alfa,,,97,18,V,R,
440,62,20,10,3,44,36,1650,['n'],0,left,['0'],1,275,[-0.17659117],100,44,hard,plus,dotcolour,alfa,,,97,18,V,R,
441,63,21,10,3,33,47,900,['n'],1,right,['1'],6,285,[-0.13342654],100,47,medium,plus,dotcolour,alfa,,,97,18,V,R,
442,64,22,10,3,44,36,1417,['c'],1,left,['1'],6,427,[0.02622837],81,44,hard,plus,dotcolour,alfa,,,97,18,V,R,
443,65,23,10,3,33,47,767,['n'],1,right,['1'],6,228,[-0.06133455],99,47,medium,plus,dotcolour,alfa,,,97,18,V,R,
444,66,24,10,3,44,36,634,['n'],0,left,['1'],6,155,[-0.06787844],100,44,hard,plus,dotcolour,alfa,,,97,18,V,R,
445,67,25,10,3,27,53,466,['n'],1,right,['1'],6,139,[-0.06053649],100,53,easy,plus,dotcolour,alfa,,,97,18,V,R,
446,68,26,10,3,36,44,434,['n'],1,right,['1'],6,190,[-0.09130383],100,44,hard,plus,dotcolour,alfa,,,97,18,V,R,
447,69,27,10,3,44,36,516,['c'],1,left,['1'],6,179,[0.05478635],99,44,hard,plus,dotcolour,alfa,,,97,18,V,R,
448,70,28,10,3,33,47,483,['n'],1,right,['1'],6,146,[-0.06745105],100,47,medium,plus,dotcolour,alfa,,,97,18,V,R,
449,71,29,10,3,27,53,433,['n'],1,right,['1'],6,140,[-0.05684105],100,53,easy,plus,dotcolour,alfa,,,97,18,V,R,
450,72,30,10,3,33,47,484,['n'],1,right,['1'],6,180,[-0.04042536],97,47,medium,plus,dotcolour,alfa,,,97,18,V,R,
451,73,31,10,3,44,36,718,['n'],0,left,['1'],6,217,[-0.11819886],100,44,hard,plus,dotcolour,alfa,,,97,18,V,R,
452,74,32,10,3,47,33,783,['c'],1,left,['1'],6,163,[0.08635354],100,47,medium,plus,dotcolour,alfa,,,97,18,V,R,
453,75,33,10,3,36,44,616,['n'],1,right,['1'],6,180,[-0.08891675],100,44,hard,plus,dotcolour,alfa,,,97,18,V,R,
454,76,34,10,3,33,47,582,['n'],1,right,['1'],6,183,[-0.08134543],100,47,medium,plus,dotcolour,alfa,,,97,18,V,R,
455,77,35,10,3,47,33,416,['n'],0,left,['1'],6,216,[0.0109226],30,47,medium,plus,dotcolour,alfa,,,97,18,V,R,
456,78,36,10,3,27,53,534,['n'],1,right,['1'],6,260,[-0.1170629],100,53,easy,plus,dotcolour,alfa,,,97,18,V,R,
457,79,37,10,3,47,33,651,['c'],1,left,['1'],6,184,[0.06500832],100,47,medium,plus,dotcolour,alfa,,,97,18,V,R,
458,80,38,10,3,36,44,534,['n'],1,right,['1'],6,165,[-0.0428927],98,44,hard,plus,dotcolour,alfa,,,97,18,V,R,
459,81,39,10,3,36,44,833,['n'],1,right,['1'],6,143,[-0.0133506],78,44,hard,plus,dotcolour,alfa,,,97,18,V,R,
460,82,40,10,3,53,27,567,['c'],1,left,['1'],6,139,[0.14993043],100,53,easy,plus,dotcolour,alfa,,,97,18,V,R,
461,83,41,10,3,33,47,433,['n'],1,right,['1'],6,165,[-0.09212111],100,47,medium,plus,dotcolour,alfa,,,97,18,V,R,
462,84,0,11,3,47,33,684,['c'],1,left,['1'],6,390,[-0.01433218],30,47,medium,plus,dotcolour,alfa,,,97,18,V,R,
463,85,1,11,3,36,44,534,['n'],1,right,['1'],6,145,[-0.11512743],100,44,hard,plus,dotcolour,alfa,,,97,18,V,R,
464,86,2,11,3,53,27,534,['c'],1,left,['1'],6,151,[0.14391465],100,53,easy,plus,dotcolour,alfa,,,97,18,V,R,
465,87,3,11,3,33,47,567,['n'],1,right,['1'],6,140,[-0.04114632],98,47,medium,plus,dotcolour,alfa,,,97,18,V,R,
466,88,4,11,3,44,36,1184,['c'],1,left,['1'],6,144,[0.07485441],100,44,hard,plus,dotcolour,alfa,,,97,18,V,R,
467,89,5,11,3,47,33,700,['c'],1,left,['1'],6,143,[0.13013216],100,47,medium,plus,dotcolour,alfa,,,97,18,V,R,
468,90,6,11,3,47,33,633,['c'],1,left,['1'],6,129,[0.07409245],100,47,medium,plus,dotcolour,alfa,,,97,18,V,R,
469,91,7,11,3,44,36,483,['c'],1,left,['1'],6,130,[0.05487996],100,44,hard,plus,dotcolour,alfa,,,97,18,V,R,
470,92,8,11,3,53,27,916,['c'],1,left,['1'],6,153,[0.12589398],100,53,easy,plus,dotcolour,alfa,,,97,18,V,R,
471,93,9,11,3,27,53,500,['n'],1,right,['1'],6,121,[-0.10523462],100,53,easy,plus,dotcolour,alfa,,,97,18,V,R,
472,94,10,11,3,33,47,867,['n'],1,right,['1'],6,114,[-0.09939146],100,47,medium,plus,dotcolour,alfa,,,97,18,V,R,
473,95,11,11,3,44,36,1066,['c'],1,left,['1'],6,397,[0.14008385],100,44,hard,plus,dotcolour,alfa,,,97,18,V,R,
474,96,12,11,3,47,33,533,['c'],1,left,['1'],6,193,[0.10445122],100,47,medium,plus,dotcolour,alfa,,,97,18,V,R,
475,97,13,11,3,47,33,550,['c'],1,left,['1'],6,140,[0.07814147],100,47,medium,plus,dotcolour,alfa,,,97,18,V,R,
476,98,14,11,3,36,44,584,['n'],1,right,['1'],6,120,[-0.06866208],100,44,hard,plus,dotcolour,alfa,,,97,18,V,R,
477,99,15,11,3,33,47,1250,['n'],1,right,['1'],6,187,[-0.06769781],100,47,medium,plus,dotcolour,alfa,,,97,18,V,R,
478,100,16,11,3,44,36,517,['c'],1,left,['1'],6,184,[0.08600207],100,44,hard,plus,dotcolour,alfa,,,97,18,V,R,
479,101,17,11,3,53,27,650,['c'],1,left,['1'],6,200,[0.12363699],100,53,easy,plus,dotcolour,alfa,,,97,18,V,R,
480,102,18,11,3,33,47,516,['n'],1,right,['1'],6,189,[-0.11086463],100,47,medium,plus,dotcolour,alfa,,,97,18,V,R,
481,103,19,11,3,27,53,517,['n'],1,right,['1'],6,146,[-0.06630665],100,53,easy,plus,dotcolour,alfa,,,97,18,V,R,
482,104,20,11,3,27,53,450,['n'],1,right,['1'],6,203,[-0.0243148],87,53,easy,plus,dotcolour,alfa,,,97,18,V,R,
483,105,21,11,3,27,53,466,['n'],1,right,['1'],6,154,[-0.12744145],100,53,easy,plus,dotcolour,alfa,,,97,18,V,R,
484,106,22,11,3,27,53,500,['n'],1,right,['1'],6,129,[-0.03827414],98,53,easy,plus,dotcolour,alfa,,,97,18,V,R,
485,107,23,11,3,53,27,550,['c'],1,left,['1'],6,135,[0.09685576],100,53,easy,plus,dotcolour,alfa,,,97,18,V,R,
486,108,24,11,3,44,36,517,['c'],1,left,['1'],6,175,[0.14550066],100,44,hard,plus,dotcolour,alfa,,,97,18,V,R,
487,109,25,11,3,27,53,417,['n'],1,right,['1'],6,169,[-0.14730879],100,53,easy,plus,dotcolour,alfa,,,97,18,V,R,
488,110,26,11,3,47,33,500,['c'],1,left,['1'],6,151,[-0.01364143],22,47,medium,plus,dotcolour,alfa,,,97,18,V,R,
489,111,27,11,3,53,27,634,['c'],1,left,['1'],6,153,[0.07682433],100,53,easy,plus,dotcolour,alfa,,,97,18,V,R,
490,112,28,11,3,36,44,1067,['n'],1,right,['1'],6,210,[-0.07829294],100,44,hard,plus,dotcolour,alfa,,,97,18,V,R,
491,113,29,11,3,33,47,635,['n'],1,right,['1'],6,153,[-0.04376338],98,47,medium,plus,dotcolour,alfa,,,97,18,V,R,
492,114,30,11,3,33,47,951,['c'],0,right,['1'],6,142,[0.06981639],100,47,medium,plus,dotcolour,alfa,,,97,18,V,R,
493,115,31,11,3,36,44,833,['n'],1,right,['1'],6,113,[-0.09799111],100,44,hard,plus,dotcolour,alfa,,,97,18,V,R,
494,116,32,11,3,44,36,533,['c'],1,left,['1'],6,144,[0.17517495],100,44,hard,plus,dotcolour,alfa,,,97,18,V,R,
495,117,33,11,3,53,27,466,['c'],1,left,['1'],6,112,[0.04101391],99,53,easy,plus,dotcolour,alfa,,,97,18,V,R,
496,118,34,11,3,36,44,750,['n'],1,right,['1'],6,111,[-0.1205923],100,44,hard,plus,dotcolour,alfa,,,97,18,V,R,
497,119,35,11,3,47,33,517,['c'],1,left,['1'],6,111,[0.1330654],100,47,medium,plus,dotcolour,alfa,,,97,18,V,R,
498,120,36,11,3,36,44,1017,['n'],1,right,['1'],6,180,[-0.00316663],57,44,hard,plus,dotcolour,alfa,,,97,18,V,R,
499,121,37,11,3,36,44,1433,['c'],0,right,['0'],1,308,[-0.08622423],0,44,hard,plus,dotcolour,alfa,,,97,18,V,R,
500,122,38,11,3,33,47,1333,['n'],1,right,['1'],6,180,[-0.11540113],100,47,medium,plus,dotcolour,alfa,,,97,18,V,R,
501,123,39,11,3,44,36,749,['n'],0,left,['1'],6,151,[-0.06839436],100,44,hard,plus,dotcolour,alfa,,,97,18,V,R,
502,124,40,11,3,53,27,433,['c'],1,left,['1'],6,121,[0.05403646],100,53,easy,plus,dotcolour,alfa,,,97,18,V,R,
503,125,41,11,3,27,53,567,['n'],1,right,['1'],6,183,[-0.07871377],100,53,easy,plus,dotcolour,alfa,,,97,18,V,R,
504,0,0,12,4,36,44,917,['n'],1,right,['1'],6,166,[0.00352605],48,44,hard,minus,dotcolour,alfa,,,97,18,V,R,
505,1,1,12,4,27,53,500,['n'],1,right,['1'],6,165,[-0.09362402],89,53,easy,minus,dotcolour,alfa,,,97,18,V,R,
506,2,2,12,4,33,47,766,['c'],0,right,['2'],5,321,[-0.02665667],40,47,medium,minus,dotcolour,alfa,,,97,18,V,R,
507,3,3,12,4,44,36,1567,['c'],1,left,['3'],4,391,[0.00511076],52,44,hard,minus,dotcolour,alfa,,,97,18,V,R,
508,4,4,12,4,47,33,800,['n'],0,left,['3'],4,928,[0.0030402],49,47,medium,minus,dotcolour,alfa,,,97,18,V,R,
509,5,5,12,4,53,27,984,['c'],1,left,['1'],6,205,[0.12075324],92,53,easy,minus,dotcolour,alfa,,,97,18,V,R,
510,6,6,12,4,33,47,700,['n'],1,right,['1'],6,210,[-0.09467528],87,47,medium,minus,dotcolour,alfa,,,97,18,V,R,
511,7,7,12,4,53,27,650,['c'],1,left,['1'],6,161,[0.21633289],99,53,easy,minus,dotcolour,alfa,,,97,18,V,R,
512,8,8,12,4,44,36,716,['c'],1,left,['1'],6,151,[0.09969192],91,44,hard,minus,dotcolour,alfa,,,97,18,V,R,
513,9,9,12,4,53,27,485,['c'],1,left,['1'],6,183,[0.10800309],91,53,easy,minus,dotcolour,alfa,,,97,18,V,R,
514,10,10,12,4,47,33,801,['n'],0,left,['1'],6,169,[-0.0833431],86,47,medium,minus,dotcolour,alfa,,,97,18,V,R,
515,11,11,12,4,27,53,683,['n'],1,right,['1'],6,144,[-0.04793625],76,53,easy,minus,dotcolour,alfa,,,97,18,V,R,
516,12,12,12,4,47,33,566,['c'],1,left,['1'],6,189,[0.20717693],99,47,medium,minus,dotcolour,alfa,,,97,18,V,R,
517,13,13,12,4,36,44,933,['n'],1,right,['2'],5,370,[-0.02577186],59,44,hard,minus,dotcolour,alfa,,,97,18,V,R,
518,14,14,12,4,33,47,550,['n'],1,right,['2'],5,295,[-0.08884396],81,47,medium,minus,dotcolour,alfa,,,97,18,V,R,
519,15,15,12,4,47,33,583,['c'],1,left,['2'],5,236,[-0.02158705],40,47,medium,minus,dotcolour,alfa,,,97,18,V,R,
520,16,16,12,4,53,27,884,['c'],1,left,['2'],5,185,[0.04493376],72,53,easy,minus,dotcolour,alfa,,,97,18,V,R,
521,17,17,12,4,36,44,500,['n'],1,right,['2'],5,375,[-0.07698512],76,44,hard,minus,dotcolour,alfa,,,97,18,V,R,
522,18,18,12,4,53,27,817,['c'],1,left,['2'],5,320,[0.12634084],88,53,easy,minus,dotcolour,alfa,,,97,18,V,R,
523,19,19,12,4,33,47,651,['n'],1,right,['2'],5,267,[-0.08108949],80,47,medium,minus,dotcolour,alfa,,,97,18,V,R,
524,20,20,12,4,47,33,600,['n'],0,left,['2'],5,394,[-0.00354608],51,47,medium,minus,dotcolour,alfa,,,97,18,V,R,
525,21,21,12,4,53,27,1167,['c'],1,left,['1'],6,341,[0.15280787],91,53,easy,minus,dotcolour,alfa,,,97,18,V,R,
526,22,22,12,4,44,36,783,['c'],1,left,['2'],5,296,[0.01847828],58,44,hard,minus,dotcolour,alfa,,,97,18,V,R,
527,23,23,12,4,44,36,801,['c'],1,left,['2'],5,438,[0.10845927],81,44,hard,minus,dotcolour,alfa,,,97,18,V,R,
528,24,24,12,4,36,44,1018,['c'],0,right,['2'],5,245,[0.02625957],62,44,hard,minus,dotcolour,alfa,,,97,18,V,R,
529,25,25,12,4,36,44,549,['n'],1,right,['1'],6,887,[-0.16407342],83,44,hard,minus,dotcolour,alfa,,,97,18,V,R,
530,26,26,12,4,44,36,667,['c'],1,left,['2'],5,249,[0.08863129],83,44,hard,minus,dotcolour,alfa,,,97,18,V,R,
531,27,27,12,4,33,47,533,['n'],1,right,['2'],5,298,[-0.06663136],75,47,medium,minus,dotcolour,alfa,,,97,18,V,R,
532,28,28,12,4,44,36,716,['c'],1,left,['1'],6,371,[0.13216477],88,44,hard,minus,dotcolour,alfa,,,97,18,V,R,
533,29,29,12,4,47,33,533,['c'],1,left,['1'],6,264,[0.1822623],96,47,medium,minus,dotcolour,alfa,,,97,18,V,R,
534,30,30,12,4,27,53,600,['n'],1,right,['2'],5,303,[-0.10648343],85,53,easy,minus,dotcolour,alfa,,,97,18,V,R,
535,31,31,12,4,36,44,902,['c'],0,right,['2'],5,280,[-0.01165338],45,44,hard,minus,dotcolour,alfa,,,97,18,V,R,
536,32,32,12,4,53,27,717,['c'],1,left,['1'],6,241,[0.13126977],92,53,easy,minus,dotcolour,alfa,,,97,18,V,R,
537,33,33,12,4,27,53,517,['n'],1,right,['2'],5,292,[-0.13306915],90,53,easy,minus,dotcolour,alfa,,,97,18,V,R,
538,34,34,12,4,36,44,916,['c'],0,right,['1'],6,245,[-0.00638401],47,44,hard,minus,dotcolour,alfa,,,97,18,V,R,
539,35,35,12,4,33,47,566,['n'],1,right,['2'],5,237,[-0.13546716],92,47,medium,minus,dotcolour,alfa,,,97,18,V,R,
540,36,36,12,4,47,33,884,['c'],1,left,['1'],6,226,[0.08571943],84,47,medium,minus,dotcolour,alfa,,,97,18,V,R,
541,37,37,12,4,27,53,616,['n'],1,right,['2'],5,265,[-0.17964929],96,53,easy,minus,dotcolour,alfa,,,97,18,V,R,
542,38,38,12,4,27,53,701,['n'],1,right,['2'],5,404,[-0.04057478],64,53,easy,minus,dotcolour,alfa,,,97,18,V,R,
543,39,39,12,4,27,53,584,['n'],1,right,['2'],5,263,[-0.07907131],80,53,easy,minus,dotcolour,alfa,,,97,18,V,R,
544,40,40,12,4,33,47,499,['n'],1,right,['1'],6,257,[-0.13200368],91,47,medium,minus,dotcolour,alfa,,,97,18,V,R,
545,41,41,12,4,44,36,951,['c'],1,left,['1'],6,146,[0.04782627],76,44,hard,minus,dotcolour,alfa,,,97,18,V,R,
546,42,0,13,4,47,33,717,['c'],1,left,['1'],6,216,[0.07724749],82,47,medium,minus,dotcolour,alfa,,,97,18,V,R,
547,43,1,13,4,44,36,616,['c'],1,left,['2'],5,232,[0.12613302],91,44,hard,minus,dotcolour,alfa,,,97,18,V,R,
548,44,2,13,4,36,44,550,['n'],1,right,['2'],5,203,[-0.16299595],96,44,hard,minus,dotcolour,alfa,,,97,18,V,R,
549,45,3,13,4,27,53,433,['n'],1,right,['2'],5,171,[-0.11204291],92,53,easy,minus,dotcolour,alfa,,,97,18,V,R,
550,46,4,13,4,36,44,784,['c'],0,right,['2'],5,270,[0.01996367],59,44,hard,minus,dotcolour,alfa,,,97,18,V,R,
551,47,5,13,4,53,27,1167,['c'],1,left,['1'],6,798,[0.19199496],87,53,easy,minus,dotcolour,alfa,,,97,18,V,R,
552,48,6,13,4,27,53,567,['c'],0,right,['2'],5,817,[-0.15191873],18,53,easy,minus,dotcolour,alfa,,,97,18,V,R,
553,49,7,13,4,44,36,1084,['n'],0,left,['2'],5,382,[-0.05762966],70,44,hard,minus,dotcolour,alfa,,,97,18,V,R,
554,50,8,13,4,44,36,634,['c'],1,left,['2'],5,271,[0.02963946],63,44,hard,minus,dotcolour,alfa,,,97,18,V,R,
555,51,9,13,4,36,44,684,['c'],0,right,['2'],5,210,[0.15715039],96,44,hard,minus,dotcolour,alfa,,,97,18,V,R,
556,52,10,13,4,47,33,750,['c'],1,left,['2'],5,373,[0.0570611],70,47,medium,minus,dotcolour,alfa,,,97,18,V,R,
557,53,11,13,4,47,33,767,['c'],1,left,['3'],4,344,[0.12525236],87,47,medium,minus,dotcolour,alfa,,,97,18,V,R,
558,54,12,13,4,53,27,734,['c'],1,left,['2'],5,294,[0.14179923],91,53,easy,minus,dotcolour,alfa,,,97,18,V,R,
559,55,13,13,4,33,47,750,['n'],1,right,['2'],5,421,[-0.19647355],94,47,medium,minus,dotcolour,alfa,,,97,18,V,R,
560,56,14,13,4,33,47,783,['c'],0,right,['2'],5,286,[0.11068608],87,47,medium,minus,dotcolour,alfa,,,97,18,V,R,
561,57,15,13,4,36,44,650,['c'],0,right,['2'],5,330,[0.08809384],80,44,hard,minus,dotcolour,alfa,,,97,18,V,R,
562,58,16,13,4,27,53,550,['n'],1,right,['2'],5,368,[-3.12067289e-05],50,53,easy,minus,dotcolour,alfa,,,97,18,V,R,
563,59,17,13,4,53,27,1067,['c'],1,left,['1'],6,192,[0.11256018],91,53,easy,minus,dotcolour,alfa,,,97,18,V,R,
564,60,18,13,4,27,53,549,['n'],1,right,['1'],6,171,[-0.14955503],96,53,easy,minus,dotcolour,alfa,,,97,18,V,R,
565,61,19,13,4,27,53,450,['n'],1,right,['1'],6,148,[-0.09496319],90,53,easy,minus,dotcolour,alfa,,,97,18,V,R,
566,62,20,13,4,27,53,434,['n'],1,right,['1'],6,198,[-0.00866216],54,53,easy,minus,dotcolour,alfa,,,97,18,V,R,
567,63,21,13,4,36,44,467,['n'],1,right,['2'],5,333,[-0.07027973],75,44,hard,minus,dotcolour,alfa,,,97,18,V,R,
568,64,22,13,4,33,47,450,['n'],1,right,['2'],5,183,[-0.08865268],87,47,medium,minus,dotcolour,alfa,,,97,18,V,R,
569,65,23,13,4,33,47,418,['n'],1,right,['2'],5,160,[-0.03970951],71,47,medium,minus,dotcolour,alfa,,,97,18,V,R,
570,66,24,13,4,44,36,1133,['c'],1,left,['1'],6,173,[0.05894206],78,44,hard,minus,dotcolour,alfa,,,97,18,V,R,
571,67,25,13,4,33,47,617,['n'],1,right,['2'],5,183,[-0.0020709],51,47,medium,minus,dotcolour,alfa,,,97,18,V,R,
572,68,26,13,4,47,33,533,['c'],1,left,['1'],6,147,[0.10290697],92,47,medium,minus,dotcolour,alfa,,,97,18,V,R,
573,69,27,13,4,36,44,483,['n'],1,right,['2'],5,227,[-0.11507949],90,44,hard,minus,dotcolour,alfa,,,97,18,V,R,
574,70,28,13,4,47,33,534,['c'],1,left,['1'],6,222,[0.15605141],95,47,medium,minus,dotcolour,alfa,,,97,18,V,R,
575,71,29,13,4,27,53,466,['n'],1,right,['2'],5,187,[-0.05020867],74,53,easy,minus,dotcolour,alfa,,,97,18,V,R,
576,72,30,13,4,53,27,2400,['n'],0,left,['0'],1,358,[-0.03152556],62,53,easy,minus,dotcolour,alfa,,,97,18,V,R,
577,73,31,13,4,33,47,2184,['c'],0,right,['2'],5,1057,[-0.01237415],47,47,medium,minus,dotcolour,alfa,,,97,18,V,R,
578,74,32,13,4,53,27,1034,['c'],1,left,['1'],6,326,[0.10706732],84,53,easy,minus,dotcolour,alfa,,,97,18,V,R,
579,75,33,13,4,47,33,1034,['c'],1,left,['1'],6,601,[0.11484799],79,47,medium,minus,dotcolour,alfa,,,97,18,V,R,
580,76,34,13,4,44,36,950,['c'],1,left,['2'],5,356,[0.06609308],73,44,hard,minus,dotcolour,alfa,,,97,18,V,R,
581,77,35,13,4,53,27,616,['c'],1,left,['1'],6,214,[0.08929618],85,53,easy,minus,dotcolour,alfa,,,97,18,V,R,
582,78,36,13,4,33,47,1033,['n'],1,right,['2'],5,558,[-0.14585756],85,47,medium,minus,dotcolour,alfa,,,97,18,V,R,
583,79,37,13,4,47,33,667,['c'],1,left,['1'],6,422,[0.01449495],55,47,medium,minus,dotcolour,alfa,,,97,18,V,R,
584,80,38,13,4,44,36,600,['c'],1,left,['2'],5,334,[0.0736701],76,44,hard,minus,dotcolour,alfa,,,97,18,V,R,
585,81,39,13,4,36,44,1184,['c'],0,right,['1'],6,379,[0.09830823],81,44,hard,minus,dotcolour,alfa,,,97,18,V,R,
586,82,40,13,4,53,27,583,['c'],1,left,['1'],6,189,[0.03153182],66,53,easy,minus,dotcolour,alfa,,,97,18,V,R,
587,83,41,13,4,44,36,433,['c'],1,left,['2'],5,253,[0.03798438],66,44,hard,minus,dotcolour,alfa,,,97,18,V,R,
588,84,0,14,4,33,47,568,['c'],0,right,['0'],1,1849,[-0.15710969],26,47,medium,minus,dotcolour,alfa,,,97,18,V,R,
589,85,1,14,4,47,33,1017,['c'],1,left,['1'],6,319,[0.05354729],70,47,medium,minus,dotcolour,alfa,,,97,18,V,R,
590,86,2,14,4,27,53,735,['n'],1,right,['1'],6,390,[0.00683238],48,53,easy,minus,dotcolour,alfa,,,97,18,V,R,
591,87,3,14,4,44,36,483,['n'],0,left,['2'],5,333,[-0.00708469],53,44,hard,minus,dotcolour,alfa,,,97,18,V,R,
592,88,4,14,4,33,47,833,['n'],1,right,['2'],5,335,[-0.04337855],66,47,medium,minus,dotcolour,alfa,,,97,18,V,R,
593,89,5,14,4,36,44,1767,['n'],1,right,['2'],5,341,[-0.12619749],87,44,hard,minus,dotcolour,alfa,,,97,18,V,R,
594,90,6,14,4,47,33,1217,['c'],1,left,['2'],5,295,[0.16595396],94,47,medium,minus,dotcolour,alfa,,,97,18,V,R,
595,91,7,14,4,47,33,767,['c'],1,left,['1'],6,413,[0.12043668],84,47,medium,minus,dotcolour,alfa,,,97,18,V,R,
596,92,8,14,4,47,33,866,['c'],1,left,['2'],5,284,[0.11145559],87,47,medium,minus,dotcolour,alfa,,,97,18,V,R,
597,93,9,14,4,53,27,566,['c'],1,left,['1'],6,347,[0.13226198],88,53,easy,minus,dotcolour,alfa,,,97,18,V,R,
598,94,10,14,4,33,47,667,['n'],1,right,['2'],5,268,[-0.045401],69,47,medium,minus,dotcolour,alfa,,,97,18,V,R,
599,95,11,14,4,33,47,684,['n'],1,right,['2'],5,271,[-0.11766943],88,47,medium,minus,dotcolour,alfa,,,97,18,V,R,
600,96,12,14,4,44,36,867,['c'],1,left,['2'],5,244,[0.0203582],59,44,hard,minus,dotcolour,alfa,,,97,18,V,R,
601,97,13,14,4,33,47,468,['n'],1,right,['2'],5,240,[-0.10740577],88,47,medium,minus,dotcolour,alfa,,,97,18,V,R,
602,98,14,14,4,44,36,649,['c'],1,left,['2'],5,269,[0.13054314],91,44,hard,minus,dotcolour,alfa,,,97,18,V,R,
603,99,15,14,4,36,44,717,['n'],1,right,['2'],5,295,[-0.12309731],88,44,hard,minus,dotcolour,alfa,,,97,18,V,R,
604,100,16,14,4,27,53,499,['n'],1,right,['2'],5,185,[-0.04699897],73,53,easy,minus,dotcolour,alfa,,,97,18,V,R,
605,101,17,14,4,53,27,683,['c'],1,left,['2'],5,279,[0.1327724],91,53,easy,minus,dotcolour,alfa,,,97,18,V,R,
606,102,18,14,4,44,36,1000,['n'],0,left,['8'],3,789,[-0.02751641],57,44,hard,minus,dotcolour,alfa,,,97,18,V,R,
607,103,19,14,4,27,53,734,['n'],1,right,['1'],6,873,[-0.09132545],71,53,easy,minus,dotcolour,alfa,,,97,18,V,R,
608,104,20,14,4,53,27,666,['c'],1,left,['1'],6,316,[0.17678442],94,53,easy,minus,dotcolour,alfa,,,97,18,V,R,
609,105,21,14,4,27,53,600,['n'],1,right,['1'],6,305,[-0.20337126],96,53,easy,minus,dotcolour,alfa,,,97,18,V,R,
610,106,22,14,4,33,47,933,['c'],0,right,['1'],6,241,[0.14811653],94,47,medium,minus,dotcolour,alfa,,,97,18,V,R,
611,107,23,14,4,33,47,616,['n'],1,right,['2'],5,279,[-0.17850036],95,47,medium,minus,dotcolour,alfa,,,97,18,V,R,
612,108,24,14,4,44,36,567,['c'],1,left,['1'],6,238,[0.07244571],79,44,hard,minus,dotcolour,alfa,,,97,18,V,R,
613,109,25,14,4,44,36,866,['n'],0,left,['2'],5,244,[-0.10113431],86,44,hard,minus,dotcolour,alfa,,,97,18,V,R,
614,110,26,14,4,53,27,950,['c'],1,left,['1'],6,237,[0.11741267],90,53,easy,minus,dotcolour,alfa,,,97,18,V,R,
615,111,27,14,4,36,44,533,['n'],1,right,['2'],5,224,[-0.05591079],74,44,hard,minus,dotcolour,alfa,,,97,18,V,R,
616,112,28,14,4,36,44,1283,['n'],1,right,['2'],5,309,[-0.0056786],52,44,hard,minus,dotcolour,alfa,,,97,18,V,R,
617,113,29,14,4,53,27,666,['c'],1,left,['3'],4,1951,[0.38747208],92,53,easy,minus,dotcolour,alfa,,,97,18,V,R,
618,114,30,14,4,44,36,1583,['n'],0,left,['2'],5,290,[-0.05655671],72,44,hard,minus,dotcolour,alfa,,,97,18,V,R,
619,115,31,14,4,47,33,716,['c'],1,left,['1'],6,227,[0.08442486],83,47,medium,minus,dotcolour,alfa,,,97,18,V,R,
620,116,32,14,4,36,44,666,['n'],1,right,['2'],5,184,[-0.09285591],88,44,hard,minus,dotcolour,alfa,,,97,18,V,R,
621,117,33,14,4,53,27,683,['c'],1,left,['2'],5,319,[-0.01711683],43,53,easy,minus,dotcolour,alfa,,,97,18,V,R,
622,118,34,14,4,27,53,583,['n'],1,right,['2'],5,260,[-0.08707325],82,53,easy,minus,dotcolour,alfa,,,97,18,V,R,
623,119,35,14,4,27,53,533,['n'],1,right,['1'],6,382,[-0.07971693],76,53,easy,minus,dotcolour,alfa,,,97,18,V,R,
624,120,36,14,4,36,44,450,['n'],1,right,['2'],5,221,[-0.09336103],86,44,hard,minus,dotcolour,alfa,,,97,18,V,R,
625,121,37,14,4,53,27,550,['c'],1,left,['1'],6,232,[0.209438],98,53,easy,minus,dotcolour,alfa,,,97,18,V,R,
626,122,38,14,4,47,33,751,['n'],0,left,['8'],3,1762,[-0.06611745],61,47,medium,minus,dotcolour,alfa,,,97,18,V,R,
627,123,39,14,4,36,44,917,['n'],1,right,['1'],6,232,[-0.08349053],83,44,hard,minus,dotcolour,alfa,,,97,18,V,R,
628,124,40,14,4,27,53,633,['n'],1,right,['1'],6,190,[-0.09605228],88,53,easy,minus,dotcolour,alfa,,,97,18,V,R,
629,125,41,14,4,47,33,950,['n'],0,left,['2'],5,265,[-0.04511763],69,47,medium,minus,dotcolour,alfa,,,97,18,V,R,
630,0,0,15,5,27,53,634,['n'],1,right,['2'],5,415,[-0.14318506],100,53,easy,plus,dotcolour,alfa,,,97,18,V,R,
631,1,1,15,5,44,36,733,['n'],0,left,['2'],5,258,[-0.03455774],92,44,hard,plus,dotcolour,alfa,,,97,18,V,R,
632,2,2,15,5,33,47,450,['n'],1,right,['2'],5,214,[-0.04151445],96,47,medium,plus,dotcolour,alfa,,,97,18,V,R,
633,3,3,15,5,27,53,467,['n'],1,right,['2'],5,253,[-0.09825639],100,53,easy,plus,dotcolour,alfa,,,97,18,V,R,
634,4,4,15,5,33,47,483,['n'],1,right,['2'],5,441,[-0.19127851],100,47,medium,plus,dotcolour,alfa,,,97,18,V,R,
635,5,5,15,5,53,27,534,['c'],1,left,['1'],6,250,[0.16601868],100,53,easy,plus,dotcolour,alfa,,,97,18,V,R,
636,6,6,15,5,53,27,466,['c'],1,left,['1'],6,191,[0.05030455],98,53,easy,plus,dotcolour,alfa,,,97,18,V,R,
637,7,7,15,5,33,47,1150,['n'],1,right,['3'],4,314,[-0.12061723],100,47,medium,plus,dotcolour,alfa,,,97,18,V,R,
638,8,8,15,5,33,47,500,['n'],1,right,['2'],5,227,[-0.07932071],100,47,medium,plus,dotcolour,alfa,,,97,18,V,R,
639,9,9,15,5,53,27,416,['c'],1,left,['1'],6,307,[0.20118716],100,53,easy,plus,dotcolour,alfa,,,97,18,V,R,
640,10,10,15,5,36,44,617,['n'],1,right,['2'],5,910,[-0.252479],100,44,hard,plus,dotcolour,alfa,,,97,18,V,R,
641,11,11,15,5,44,36,483,['n'],0,left,['2'],5,208,[-0.06506494],99,44,hard,plus,dotcolour,alfa,,,97,18,V,R,
642,12,12,15,5,44,36,633,['c'],1,left,['1'],6,248,[0.04425787],96,44,hard,plus,dotcolour,alfa,,,97,18,V,R,
643,13,13,15,5,47,33,1201,['c'],1,left,['2'],5,631,[0.13314706],100,47,medium,plus,dotcolour,alfa,,,97,18,V,R,
644,14,14,15,5,53,27,683,['n'],0,left,['3'],4,196,[-0.07451416],100,53,easy,plus,dotcolour,alfa,,,97,18,V,R,
645,15,15,15,5,44,36,900,['c'],1,left,['2'],5,329,[0.03560389],90,44,hard,plus,dotcolour,alfa,,,97,18,V,R,
646,16,16,15,5,27,53,1900,['c'],0,right,['3'],4,225,[0.01790639],80,53,easy,plus,dotcolour,alfa,,,97,18,V,R,
647,17,17,15,5,53,27,600,['c'],1,left,['1'],6,193,[0.08459999],100,53,easy,plus,dotcolour,alfa,,,97,18,V,R,
648,18,18,15,5,47,33,683,['n'],0,left,['2'],5,351,[0.00352527],45,47,medium,plus,dotcolour,alfa,,,97,18,V,R,
649,19,19,15,5,44,36,650,['c'],1,left,['1'],6,248,[0.08584986],100,44,hard,plus,dotcolour,alfa,,,97,18,V,R,
650,20,20,15,5,44,36,667,['c'],1,left,['2'],5,357,[0.17300098],100,44,hard,plus,dotcolour,alfa,,,97,18,V,R,
651,21,21,15,5,53,27,634,['c'],1,left,['1'],6,182,[0.10557839],100,53,easy,plus,dotcolour,alfa,,,97,18,V,R,
652,22,22,15,5,27,53,534,['n'],1,right,['2'],5,283,[-0.10691103],100,53,easy,plus,dotcolour,alfa,,,97,18,V,R,
653,23,23,15,5,33,47,684,['n'],1,right,['1'],6,238,[-0.11470195],100,47,medium,plus,dotcolour,alfa,,,97,18,V,R,
654,24,24,15,5,44,36,667,['c'],1,left,['1'],6,203,[0.05227828],98,44,hard,plus,dotcolour,alfa,,,97,18,V,R,
655,25,25,15,5,36,44,1216,['c'],0,right,['1'],6,203,[0.09417916],100,44,hard,plus,dotcolour,alfa,,,97,18,V,R,
656,26,26,15,5,53,27,667,['c'],1,left,['1'],6,202,[0.00227806],55,53,easy,plus,dotcolour,alfa,,,97,18,V,R,
657,27,27,15,5,36,44,1000,['n'],1,right,['1'],6,227,[-0.01354315],74,44,hard,plus,dotcolour,alfa,,,97,18,V,R,
658,28,28,15,5,47,33,583,['c'],1,left,['1'],6,172,[0.042015],97,47,medium,plus,dotcolour,alfa,,,97,18,V,R,
659,29,29,15,5,36,44,1399,['c'],0,right,['1'],6,88,[0.06407236],100,44,hard,plus,dotcolour,alfa,,,97,18,V,R,
660,30,30,15,5,27,53,650,['c'],0,right,['1'],6,91,[0.09211121],100,53,easy,plus,dotcolour,alfa,,,97,18,V,R,
661,31,31,15,5,47,33,400,['c'],1,left,['1'],6,88,[0.04534318],100,47,medium,plus,dotcolour,alfa,,,97,18,V,R,
662,32,32,15,5,27,53,385,['c'],0,right,['1'],6,143,[0.12448768],100,53,easy,plus,dotcolour,alfa,,,97,18,V,R,
663,33,33,15,5,47,33,450,['c'],1,left,['1'],6,104,[0.10104119],100,47,medium,plus,dotcolour,alfa,,,97,18,V,R,
664,34,34,15,5,36,44,701,['c'],0,right,['1'],6,129,[0.12357787],100,44,hard,plus,dotcolour,alfa,,,97,18,V,R,
665,35,35,15,5,36,44,633,['c'],0,right,['1'],6,157,[0.11021765],100,44,hard,plus,dotcolour,alfa,,,97,18,V,R,
666,36,36,15,5,27,53,684,['n'],1,right,['1'],6,188,[-0.07398287],100,53,easy,plus,dotcolour,alfa,,,97,18,V,R,
667,37,37,15,5,47,33,534,['c'],1,left,['1'],6,192,[0.07461139],100,47,medium,plus,dotcolour,alfa,,,97,18,V,R,
668,38,38,15,5,47,33,666,['n'],0,left,['1'],6,151,[-0.12374983],100,47,medium,plus,dotcolour,alfa,,,97,18,V,R,
669,39,39,15,5,33,47,367,['c'],0,right,['1'],6,164,[0.16928705],100,47,medium,plus,dotcolour,alfa,,,97,18,V,R,
670,40,40,15,5,33,47,383,['n'],1,right,['1'],6,127,[-0.07013291],100,47,medium,plus,dotcolour,alfa,,,97,18,V,R,
671,41,41,15,5,36,44,534,['n'],1,right,['1'],6,141,[-0.13894255],100,44,hard,plus,dotcolour,alfa,,,97,18,V,R,
672,42,0,16,5,36,44,517,['n'],1,right,['1'],6,136,[-0.06201322],100,44,hard,plus,dotcolour,alfa,,,97,18,V,R,
673,43,1,16,5,27,53,197,['c'],0,right,['1'],6,404,[-0.04111343],9,53,easy,plus,dotcolour,alfa,,,97,18,V,R,
674,44,2,16,5,53,27,517,['c'],1,left,['1'],6,112,[0.12895844],100,53,easy,plus,dotcolour,alfa,,,97,18,V,R,
675,45,3,16,5,27,53,384,['n'],1,right,['1'],6,85,[-0.12073875],100,53,easy,plus,dotcolour,alfa,,,97,18,V,R,
676,46,4,16,5,36,44,433,['c'],0,right,['1'],6,66,[0.07445091],100,44,hard,plus,dotcolour,alfa,,,97,18,V,R,
677,47,5,16,5,53,27,600,['c'],1,left,['1'],6,89,[0.06816846],100,53,easy,plus,dotcolour,alfa,,,97,18,V,R,
678,48,6,16,5,53,27,300,['n'],0,left,['1'],6,131,[-0.09667716],100,53,easy,plus,dotcolour,alfa,,,97,18,V,R,
679,49,7,16,5,33,47,350,['c'],0,right,['1'],6,232,[-0.02121676],17,47,medium,plus,dotcolour,alfa,,,97,18,V,R,
680,50,8,16,5,47,33,501,['c'],1,left,['1'],6,157,[0.03591149],96,47,medium,plus,dotcolour,alfa,,,97,18,V,R,
681,51,9,16,5,53,27,467,['c'],1,left,['1'],6,125,[0.07697297],100,53,easy,plus,dotcolour,alfa,,,97,18,V,R,
682,52,10,16,5,33,47,717,['n'],1,right,['1'],6,108,[-0.05650662],100,47,medium,plus,dotcolour,alfa,,,97,18,V,R,
683,53,11,16,5,44,36,683,['c'],1,left,['1'],6,62,[0.07239121],100,44,hard,plus,dotcolour,alfa,,,97,18,V,R,
684,54,12,16,5,36,44,450,['c'],0,right,['1'],6,106,[0.10704601],100,44,hard,plus,dotcolour,alfa,,,97,18,V,R,
685,55,13,16,5,44,36,73,['n'],0,left,['1'],6,32,[-0.05988663],100,44,hard,plus,dotcolour,alfa,,,97,18,V,R,
686,56,14,16,5,47,33,232,['c'],1,left,['1'],6,175,[0.03495975],95,47,medium,plus,dotcolour,alfa,,,97,18,V,R,
687,57,15,16,5,33,47,317,['c'],0,right,['1'],6,115,[-0.00323896],41,47,medium,plus,dotcolour,alfa,,,97,18,V,R,
688,58,16,16,5,27,53,633,['n'],1,right,['1'],6,159,[-0.05146741],99,53,easy,plus,dotcolour,alfa,,,97,18,V,R,
689,59,17,16,5,36,44,450,['n'],1,right,['1'],6,111,[-0.06419369],100,44,hard,plus,dotcolour,alfa,,,97,18,V,R,
690,60,18,16,5,47,33,516,['c'],1,left,['1'],6,119,[0.09350439],100,47,medium,plus,dotcolour,alfa,,,97,18,V,R,
691,61,19,16,5,33,47,634,['n'],1,right,['1'],6,187,[-0.02805872],91,47,medium,plus,dotcolour,alfa,,,97,18,V,R,
692,62,20,16,5,44,36,634,['c'],1,left,['1'],6,132,[0.07887146],100,44,hard,plus,dotcolour,alfa,,,97,18,V,R,
693,63,21,16,5,27,53,533,['n'],1,right,['1'],6,155,[-0.14173716],100,53,easy,plus,dotcolour,alfa,,,97,18,V,R,
694,64,22,16,5,36,44,900,['c'],0,right,['1'],6,66,[-0.00292054],40,44,hard,plus,dotcolour,alfa,,,97,18,V,R,
695,65,23,16,5,47,33,634,['c'],1,left,['1'],6,103,[0.05861902],100,47,medium,plus,dotcolour,alfa,,,97,18,V,R,
696,66,24,16,5,53,27,333,['n'],0,left,['1'],6,127,[-0.0982367],100,53,easy,plus,dotcolour,alfa,,,97,18,V,R,
697,67,25,16,5,36,44,566,['c'],0,right,['1'],6,124,[0.03361361],97,44,hard,plus,dotcolour,alfa,,,97,18,V,R,
698,68,26,16,5,27,53,333,['n'],1,right,['1'],6,99,[-0.09134999],100,53,easy,plus,dotcolour,alfa,,,97,18,V,R,
699,69,27,16,5,47,33,584,['c'],1,left,['1'],6,65,[0.05886182],100,47,medium,plus,dotcolour,alfa,,,97,18,V,R,
700,70,28,16,5,27,53,500,['c'],0,right,['1'],6,76,[0.02575178],97,53,easy,plus,dotcolour,alfa,,,97,18,V,R,
701,71,29,16,5,44,36,584,['n'],0,left,['1'],6,162,[-0.00487945],61,44,hard,plus,dotcolour,alfa,,,97,18,V,R,
702,72,30,16,5,44,36,450,['c'],1,left,['1'],6,219,[0.0606989],99,44,hard,plus,dotcolour,alfa,,,97,18,V,R,
703,73,31,16,5,44,36,467,['n'],0,left,['1'],6,169,[-0.07468633],100,44,hard,plus,dotcolour,alfa,,,97,18,V,R,
704,74,32,16,5,33,47,332,['c'],0,right,['1'],6,175,[0.02026842],85,47,medium,plus,dotcolour,alfa,,,97,18,V,R,
705,75,33,16,5,53,27,533,['c'],1,left,['1'],6,171,[0.07703376],100,53,easy,plus,dotcolour,alfa,,,97,18,V,R,
706,76,34,16,5,27,53,435,['n'],1,right,['1'],6,148,[-0.0983043],100,53,easy,plus,dotcolour,alfa,,,97,18,V,R,
707,77,35,16,5,44,36,466,['n'],0,left,['1'],6,158,[-0.08487785],100,44,hard,plus,dotcolour,alfa,,,97,18,V,R,
708,78,36,16,5,53,27,567,['c'],1,left,['1'],6,113,[0.03748353],98,53,easy,plus,dotcolour,alfa,,,97,18,V,R,
709,79,37,16,5,47,33,500,['n'],0,left,['1'],6,234,[-0.03062003],91,47,medium,plus,dotcolour,alfa,,,97,18,V,R,
710,80,38,16,5,36,44,584,['n'],1,right,['1'],6,187,[-0.01348441],75,44,hard,plus,dotcolour,alfa,,,97,18,V,R,
711,81,39,16,5,33,47,600,['n'],1,right,['1'],6,197,[-0.08769212],100,47,medium,plus,dotcolour,alfa,,,97,18,V,R,
712,82,40,16,5,47,33,584,['c'],1,left,['1'],6,111,[0.09124817],100,47,medium,plus,dotcolour,alfa,,,97,18,V,R,
713,83,41,16,5,33,47,566,['n'],1,right,['1'],6,229,[-0.07346404],100,47,medium,plus,dotcolour,alfa,,,97,18,V,R,
714,84,0,17,5,44,36,2584,['n'],0,left,['8'],3,1885,[0.18156914],1,44,hard,plus,dotcolour,alfa,,,97,18,V,R,
715,85,1,17,5,33,47,499,['n'],1,right,['1'],6,134,[-0.12019793],100,47,medium,plus,dotcolour,alfa,,,97,18,V,R,
716,86,2,17,5,44,36,584,['c'],1,left,['1'],6,98,[0.08982691],100,44,hard,plus,dotcolour,alfa,,,97,18,V,R,
717,87,3,17,5,47,33,550,['c'],1,left,['1'],6,122,[0.13638591],100,47,medium,plus,dotcolour,alfa,,,97,18,V,R,
718,88,4,17,5,53,27,517,['c'],1,left,['1'],6,90,[0.0760835],100,53,easy,plus,dotcolour,alfa,,,97,18,V,R,
719,89,5,17,5,44,36,750,['c'],1,left,['1'],6,97,[0.06305839],100,44,hard,plus,dotcolour,alfa,,,97,18,V,R,
720,90,6,17,5,36,44,400,['c'],0,right,['1'],6,39,[0.09268554],100,44,hard,plus,dotcolour,alfa,,,97,18,V,R,
721,91,7,17,5,33,47,483,['n'],1,right,['0'],1,196,[-0.08802575],100,47,medium,plus,dotcolour,alfa,,,97,18,V,R,
722,92,8,17,5,53,27,566,['c'],1,left,['1'],6,190,[0.14984028],100,53,easy,plus,dotcolour,alfa,,,97,18,V,R,
723,93,9,17,5,36,44,800,['n'],1,right,['1'],6,112,[-0.11173523],100,44,hard,plus,dotcolour,alfa,,,97,18,V,R,
724,94,10,17,5,47,33,584,['n'],0,left,['0'],1,829,[0.10316253],2,47,medium,plus,dotcolour,alfa,,,97,18,V,R,
725,95,11,17,5,27,53,1383,['n'],1,right,['1'],6,366,[-0.13031127],100,53,easy,plus,dotcolour,alfa,,,97,18,V,R,
726,96,12,17,5,36,44,516,['n'],1,right,['1'],6,164,[-0.09421067],100,44,hard,plus,dotcolour,alfa,,,97,18,V,R,
727,97,13,17,5,53,27,550,['c'],1,left,['1'],6,168,[0.07495286],100,53,easy,plus,dotcolour,alfa,,,97,18,V,R,
728,98,14,17,5,33,47,466,['n'],1,right,['1'],6,160,[-0.15008931],100,47,medium,plus,dotcolour,alfa,,,97,18,V,R,
729,99,15,17,5,27,53,684,['n'],1,right,['1'],6,143,[-0.09381505],100,53,easy,plus,dotcolour,alfa,,,97,18,V,R,
730,100,16,17,5,44,36,650,['c'],1,left,['1'],6,153,[0.08561877],100,44,hard,plus,dotcolour,alfa,,,97,18,V,R,
731,101,17,17,5,47,33,534,['c'],1,left,['1'],6,167,[0.03553685],96,47,medium,plus,dotcolour,alfa,,,97,18,V,R,
732,102,18,17,5,53,27,450,['c'],1,left,['1'],6,111,[0.08883556],100,53,easy,plus,dotcolour,alfa,,,97,18,V,R,
733,103,19,17,5,36,44,466,['n'],1,right,['1'],6,138,[-0.1196425],100,44,hard,plus,dotcolour,alfa,,,97,18,V,R,
734,104,20,17,5,27,53,584,['c'],0,right,['1'],6,103,[0.00327239],59,53,easy,plus,dotcolour,alfa,,,97,18,V,R,
735,105,21,17,5,44,36,599,['c'],1,left,['1'],6,107,[0.10425246],100,44,hard,plus,dotcolour,alfa,,,97,18,V,R,
736,106,22,17,5,33,47,383,['n'],1,right,['1'],6,145,[-0.06373978],100,47,medium,plus,dotcolour,alfa,,,97,18,V,R,
737,107,23,17,5,27,53,468,['c'],0,right,['1'],6,154,[-0.02306452],11,53,easy,plus,dotcolour,alfa,,,97,18,V,R,
738,108,24,17,5,44,36,618,['c'],1,left,['1'],6,92,[0.07794249],100,44,hard,plus,dotcolour,alfa,,,97,18,V,R,
739,109,25,17,5,36,44,466,['n'],1,right,['1'],6,160,[0.01744369],17,44,hard,plus,dotcolour,alfa,,,97,18,V,R,
740,110,26,17,5,47,33,583,['c'],1,left,['1'],6,42,[0.06819983],100,47,medium,plus,dotcolour,alfa,,,97,18,V,R,
741,111,27,17,5,33,47,516,['n'],1,right,['1'],6,110,[-0.09116839],100,47,medium,plus,dotcolour,alfa,,,97,18,V,R,
742,112,28,17,5,47,33,483,['c'],1,left,['1'],6,111,[0.1019982],100,47,medium,plus,dotcolour,alfa,,,97,18,V,R,
743,113,29,17,5,44,36,432,['c'],1,left,['1'],6,26,[0.10330167],100,44,hard,plus,dotcolour,alfa,,,97,18,V,R,
744,114,30,17,5,27,53,483,['n'],1,right,['1'],6,118,[-0.08468053],100,53,easy,plus,dotcolour,alfa,,,97,18,V,R,
745,115,31,17,5,47,33,351,['c'],1,left,['1'],6,94,[0.03897088],99,47,medium,plus,dotcolour,alfa,,,97,18,V,R,
746,116,32,17,5,36,44,400,['n'],1,right,['1'],6,131,[-0.07526683],100,44,hard,plus,dotcolour,alfa,,,97,18,V,R,
747,117,33,17,5,53,27,334,['c'],1,left,['1'],6,82,[0.05886898],100,53,easy,plus,dotcolour,alfa,,,97,18,V,R,
748,118,34,17,5,47,33,500,['n'],0,left,['1'],6,196,[0.04306996],3,47,medium,plus,dotcolour,alfa,,,97,18,V,R,
749,119,35,17,5,33,47,867,['n'],1,right,['1'],6,122,[-0.05293279],100,47,medium,plus,dotcolour,alfa,,,97,18,V,R,
750,120,36,17,5,33,47,750,['c'],0,right,['1'],6,129,[0.06133341],100,47,medium,plus,dotcolour,alfa,,,97,18,V,R,
751,121,37,17,5,36,44,634,['c'],0,right,['1'],6,139,[0.06328188],100,44,hard,plus,dotcolour,alfa,,,97,18,V,R,
752,122,38,17,5,53,27,534,['c'],1,left,['1'],6,145,[0.06988142],100,53,easy,plus,dotcolour,alfa,,,97,18,V,R,
753,123,39,17,5,27,53,551,['n'],1,right,['1'],6,191,[-0.15285835],100,53,easy,plus,dotcolour,alfa,,,97,18,V,R,
754,124,40,17,5,53,27,450,['c'],1,left,['1'],6,110,[0.08194523],100,53,easy,plus,dotcolour,alfa,,,97,18,V,R,
755,125,41,17,5,27,53,517,['n'],1,right,['1'],6,143,[-0.03053803],95,53,easy,plus,dotcolour,alfa,,,97,18,V,R,
,,,,,,,,,,,,,,,,,,,,,1,de percenten leken soms random,97,18,V,R,
,,,,,,,,,,,,,,,,,,,,,2,['g'],97,18,V,R,
,,,,,,,,,,,,,,,,,,,,,3,['g'],97,18,V,R,
,,,,,,,,,,,,,,,,,,,,,5,"['5', '3']",97,18,V,R,
