trial,withinphasetrial,withinblocktrial,block,phase,dotsLeft,dotsRight,rt,resp,cor,cresp,conf_press,cj,RTconf,ev,fb,diff,difflevel,condition,task,manip,sub,age,gender,handedness,
0,0,0,0,0,33,47,2049,['n'],1,right,['8'],3,3255,[0.07661121],45,47,medium,plus,dotcolour,beta,24,20,V,L,
1,1,1,0,0,47,33,1315,['c'],1,left,['1'],6,1585,[0.06107749],84,47,medium,plus,dotcolour,beta,24,20,V,L,
2,2,2,0,0,36,44,1449,['c'],0,right,['8'],3,1759,[-0.12483742],28,44,hard,plus,dotcolour,beta,24,20,V,L,
3,3,3,0,0,47,33,1645,['c'],1,left,['2'],5,2439,[0.1262478],89,47,medium,plus,dotcolour,beta,24,20,V,L,
4,4,4,0,0,33,47,983,['n'],1,right,['2'],5,1607,[-0.20866957],98,47,medium,plus,dotcolour,beta,24,20,V,L,
5,5,5,0,0,27,53,1732,['c'],0,right,['2'],5,370,[0.00727694],87,53,easy,plus,dotcolour,beta,24,20,V,L,
6,6,6,0,0,47,33,1600,['c'],1,left,['2'],5,380,[0.06498037],97,47,medium,plus,dotcolour,beta,24,20,V,L,
7,7,7,0,0,33,47,2248,['n'],1,right,['2'],5,708,[-0.16775028],99,47,medium,plus,dotcolour,beta,24,20,V,L,
8,8,8,0,0,44,36,1198,['c'],1,left,['2'],5,504,[0.05634744],94,44,hard,plus,dotcolour,beta,24,20,V,L,
9,9,9,0,0,53,27,1229,['c'],1,left,['1'],6,420,[0.03291802],92,53,easy,plus,dotcolour,beta,24,20,V,L,
10,10,10,0,0,44,36,2133,['c'],1,left,['3'],4,1367,[0.00540204],72,44,hard,plus,dotcolour,beta,24,20,V,L,
11,11,11,0,0,53,27,1150,['c'],1,left,['2'],5,491,[0.26198028],100,53,easy,plus,dotcolour,beta,24,20,V,L,
12,12,12,0,0,36,44,1948,['c'],0,right,['3'],4,642,[0.21134937],100,44,hard,plus,dotcolour,beta,24,20,V,L,
13,13,13,0,0,33,47,884,['n'],1,right,['2'],5,998,[-0.18210953],99,47,medium,plus,dotcolour,beta,24,20,V,L,
14,14,14,0,0,44,36,699,['c'],1,left,['1'],6,754,[0.06470329],92,44,hard,plus,dotcolour,beta,24,20,V,L,
15,15,15,0,0,53,27,565,['c'],1,left,['1'],6,798,[0.0940131],95,53,easy,plus,dotcolour,beta,24,20,V,L,
16,16,16,0,0,44,36,1083,['c'],1,left,['2'],5,725,[0.12995888],98,44,hard,plus,dotcolour,beta,24,20,V,L,
17,17,17,0,0,27,53,550,['n'],1,right,['1'],6,874,[-0.22061451],100,53,easy,plus,dotcolour,beta,24,20,V,L,
18,18,18,0,0,27,53,434,['n'],1,right,['1'],6,327,[-0.08072068],99,53,easy,plus,dotcolour,beta,24,20,V,L,
19,19,19,0,0,27,53,616,['n'],1,right,['1'],6,250,[-0.15673308],100,53,easy,plus,dotcolour,beta,24,20,V,L,
20,20,20,0,0,47,33,999,['c'],1,left,['2'],5,241,[0.11682483],100,47,medium,plus,dotcolour,beta,24,20,V,L,
21,21,21,0,0,53,27,766,['c'],1,left,['2'],5,218,[0.04839806],98,53,easy,plus,dotcolour,beta,24,20,V,L,
22,22,22,0,0,36,44,700,['n'],1,right,['2'],5,463,[0.05499014],50,44,hard,plus,dotcolour,beta,24,20,V,L,
23,23,23,0,0,47,33,833,['c'],1,left,['2'],5,204,[0.0639887],99,47,medium,plus,dotcolour,beta,24,20,V,L,
24,24,24,0,0,53,27,848,['c'],1,left,['2'],5,212,[0.03860451],98,53,easy,plus,dotcolour,beta,24,20,V,L,
25,25,25,0,0,27,53,582,['n'],1,right,['1'],6,229,[-0.05821476],99,53,easy,plus,dotcolour,beta,24,20,V,L,
26,26,26,0,0,27,53,996,['n'],1,right,['1'],6,253,[-0.14234183],100,53,easy,plus,dotcolour,beta,24,20,V,L,
27,27,27,0,0,36,44,599,['n'],1,right,['1'],6,260,[-0.04350116],97,44,hard,plus,dotcolour,beta,24,20,V,L,
28,28,28,0,0,33,47,1750,['c'],0,right,['3'],4,1245,[-0.0194188],64,47,medium,plus,dotcolour,beta,24,20,V,L,
29,29,29,0,0,44,36,949,['n'],0,left,['3'],4,653,[-0.01492306],83,44,hard,plus,dotcolour,beta,24,20,V,L,
30,30,30,0,0,44,36,1532,['c'],1,left,['2'],5,247,[0.21546011],100,44,hard,plus,dotcolour,beta,24,20,V,L,
31,31,31,0,0,27,53,615,['n'],1,right,['2'],5,213,[-0.06505393],99,53,easy,plus,dotcolour,beta,24,20,V,L,
32,32,32,0,0,53,27,817,['c'],1,left,['2'],5,189,[0.04908959],99,53,easy,plus,dotcolour,beta,24,20,V,L,
33,33,33,0,0,36,44,1582,['c'],0,right,['3'],4,287,[-0.00897152],83,44,hard,plus,dotcolour,beta,24,20,V,L,
34,34,34,0,0,33,47,563,['n'],1,right,['3'],4,238,[0.0150138],82,47,medium,plus,dotcolour,beta,24,20,V,L,
35,35,35,0,0,36,44,749,['n'],1,right,['2'],5,208,[-0.08317142],100,44,hard,plus,dotcolour,beta,24,20,V,L,
36,36,36,0,0,47,33,965,['c'],1,left,['2'],5,274,[0.09682031],99,47,medium,plus,dotcolour,beta,24,20,V,L,
37,37,37,0,0,36,44,866,['n'],1,right,['3'],4,181,[-0.11690335],100,44,hard,plus,dotcolour,beta,24,20,V,L,
38,38,38,0,0,44,36,699,['n'],0,left,['1'],6,587,[-0.02720212],87,44,hard,plus,dotcolour,beta,24,20,V,L,
39,39,39,0,0,53,27,548,['n'],0,left,['9'],2,1975,[0.160422],21,53,easy,plus,dotcolour,beta,24,20,V,L,
40,40,40,0,0,47,33,1999,['n'],0,left,['9'],2,2152,[0.09461087],38,47,medium,plus,dotcolour,beta,24,20,V,L,
41,41,41,0,0,33,47,2048,['c'],0,right,['3'],4,697,[0.06204137],93,47,medium,plus,dotcolour,beta,24,20,V,L,
42,42,0,1,0,33,47,582,['n'],1,right,['3'],4,229,[-0.14054797],100,47,medium,plus,dotcolour,beta,24,20,V,L,
43,43,1,1,0,27,53,532,['n'],1,right,['2'],5,392,[-0.11316993],99,53,easy,plus,dotcolour,beta,24,20,V,L,
44,44,2,1,0,47,33,1498,['c'],1,left,['8'],3,293,[0.07274565],99,47,medium,plus,dotcolour,beta,24,20,V,L,
45,45,3,1,0,44,36,1482,['c'],1,left,['8'],3,200,[0.08774037],100,44,hard,plus,dotcolour,beta,24,20,V,L,
46,46,4,1,0,27,53,732,['n'],1,right,['3'],4,220,[-0.05705464],99,53,easy,plus,dotcolour,beta,24,20,V,L,
47,47,5,1,0,44,36,733,['c'],1,left,['8'],3,214,[0.13036],100,44,hard,plus,dotcolour,beta,24,20,V,L,
48,48,6,1,0,27,53,933,['n'],1,right,['3'],4,170,[-0.08107586],100,53,easy,plus,dotcolour,beta,24,20,V,L,
49,49,7,1,0,33,47,798,['n'],1,right,['3'],4,180,[-0.08320926],100,47,medium,plus,dotcolour,beta,24,20,V,L,
50,50,8,1,0,47,33,848,['c'],1,left,['3'],4,148,[0.08481359],100,47,medium,plus,dotcolour,beta,24,20,V,L,
51,51,9,1,0,33,47,815,['n'],1,right,['3'],4,206,[-0.07115313],99,47,medium,plus,dotcolour,beta,24,20,V,L,
52,52,10,1,0,36,44,1598,['c'],0,right,['8'],3,159,[0.07386914],100,44,hard,plus,dotcolour,beta,24,20,V,L,
53,53,11,1,0,36,44,683,['n'],1,right,['3'],4,158,[-0.1543613],100,44,hard,plus,dotcolour,beta,24,20,V,L,
54,54,12,1,0,33,47,1015,['n'],1,right,['3'],4,161,[-0.09060564],100,47,medium,plus,dotcolour,beta,24,20,V,L,
55,55,13,1,0,44,36,848,['c'],1,left,['8'],3,145,[0.11790588],100,44,hard,plus,dotcolour,beta,24,20,V,L,
56,56,14,1,0,27,53,564,['n'],1,right,['3'],4,173,[-0.04842731],99,53,easy,plus,dotcolour,beta,24,20,V,L,
57,57,15,1,0,53,27,964,['c'],1,left,['2'],5,145,[0.05617504],99,53,easy,plus,dotcolour,beta,24,20,V,L,
58,58,16,1,0,44,36,1265,['n'],0,left,['8'],3,387,[0.12566985],12,44,hard,plus,dotcolour,beta,24,20,V,L,
59,59,17,1,0,53,27,897,['n'],0,left,['3'],4,152,[-0.04472133],99,53,easy,plus,dotcolour,beta,24,20,V,L,
60,60,18,1,0,36,44,1615,['n'],1,right,['8'],3,275,[-0.11403106],100,44,hard,plus,dotcolour,beta,24,20,V,L,
61,61,19,1,0,36,44,999,['n'],1,right,['8'],3,185,[-0.16295243],100,44,hard,plus,dotcolour,beta,24,20,V,L,
62,62,20,1,0,27,53,714,['n'],1,right,['3'],4,142,[-0.06536393],100,53,easy,plus,dotcolour,beta,24,20,V,L,
63,63,21,1,0,44,36,1882,['c'],1,left,['8'],3,134,[0.03347922],99,44,hard,plus,dotcolour,beta,24,20,V,L,
64,64,22,1,0,33,47,1215,['n'],1,right,['3'],4,105,[-0.09391249],100,47,medium,plus,dotcolour,beta,24,20,V,L,
65,65,23,1,0,53,27,1199,['c'],1,left,['2'],5,206,[0.09508367],100,53,easy,plus,dotcolour,beta,24,20,V,L,
66,66,24,1,0,36,44,799,['n'],1,right,['2'],5,127,[-0.12168167],100,44,hard,plus,dotcolour,beta,24,20,V,L,
67,67,25,1,0,53,27,482,['c'],1,left,['2'],5,120,[0.14191359],100,53,easy,plus,dotcolour,beta,24,20,V,L,
68,68,26,1,0,44,36,2132,['c'],1,left,['3'],4,1279,[0.1663945],97,44,hard,plus,dotcolour,beta,24,20,V,L,
69,69,27,1,0,44,36,964,['c'],1,left,['3'],4,158,[0.11766328],100,44,hard,plus,dotcolour,beta,24,20,V,L,
70,70,28,1,0,47,33,700,['c'],1,left,['3'],4,149,[0.11740713],100,47,medium,plus,dotcolour,beta,24,20,V,L,
71,71,29,1,0,53,27,598,['c'],1,left,['2'],5,377,[0.15116288],100,53,easy,plus,dotcolour,beta,24,20,V,L,
72,72,30,1,0,47,33,732,['c'],1,left,['2'],5,156,[0.078818],100,47,medium,plus,dotcolour,beta,24,20,V,L,
73,73,31,1,0,27,53,1398,['n'],1,right,['2'],5,87,[-0.1613863],100,53,easy,plus,dotcolour,beta,24,20,V,L,
74,74,32,1,0,36,44,530,['n'],1,right,['2'],5,96,[-0.0238107],99,44,hard,plus,dotcolour,beta,24,20,V,L,
75,75,33,1,0,27,53,534,['n'],1,right,['2'],5,1112,[-0.3589725],100,53,easy,plus,dotcolour,beta,24,20,V,L,
76,76,34,1,0,53,27,1167,['c'],1,left,['8'],3,141,[0.12239891],100,53,easy,plus,dotcolour,beta,24,20,V,L,
77,77,35,1,0,47,33,749,['c'],1,left,['2'],5,99,[0.09555561],100,47,medium,plus,dotcolour,beta,24,20,V,L,
78,78,36,1,0,47,33,865,['n'],0,left,['8'],3,1397,[0.09865431],34,47,medium,plus,dotcolour,beta,24,20,V,L,
79,79,37,1,0,47,33,734,['c'],1,left,['2'],5,352,[0.09981778],99,47,medium,plus,dotcolour,beta,24,20,V,L,
80,80,38,1,0,33,47,715,['n'],1,right,['2'],5,175,[-0.05812901],99,47,medium,plus,dotcolour,beta,24,20,V,L,
81,81,39,1,0,53,27,1499,['c'],1,left,['1'],6,325,[0.17519164],100,53,easy,plus,dotcolour,beta,24,20,V,L,
82,82,40,1,0,36,44,866,['c'],0,right,['8'],3,142,[0.03073592],98,44,hard,plus,dotcolour,beta,24,20,V,L,
83,83,41,1,0,33,47,1182,['n'],1,right,['2'],5,114,[-0.05995048],100,47,medium,plus,dotcolour,beta,24,20,V,L,
84,84,0,2,0,47,33,1017,['c'],1,left,['8'],3,100,[0.10683418],100,47,medium,plus,dotcolour,beta,24,20,V,L,
85,85,1,2,0,27,53,547,['n'],1,right,['2'],5,140,[-0.14951013],100,53,easy,plus,dotcolour,beta,24,20,V,L,
86,86,2,2,0,53,27,1181,['c'],1,left,['2'],5,272,[0.09298585],99,53,easy,plus,dotcolour,beta,24,20,V,L,
87,87,3,2,0,36,44,949,['c'],0,right,['2'],5,176,[0.06766348],99,44,hard,plus,dotcolour,beta,24,20,V,L,
88,88,4,2,0,44,36,582,['n'],0,left,['2'],5,91,[-0.13575529],100,44,hard,plus,dotcolour,beta,24,20,V,L,
89,89,5,2,0,47,33,714,['c'],1,left,['2'],5,156,[0.05826029],99,47,medium,plus,dotcolour,beta,24,20,V,L,
90,90,6,2,0,36,44,782,['n'],1,right,['2'],5,127,[-0.10211022],100,44,hard,plus,dotcolour,beta,24,20,V,L,
91,91,7,2,0,33,47,814,['n'],1,right,['2'],5,107,[-0.03483667],99,47,medium,plus,dotcolour,beta,24,20,V,L,
92,92,8,2,0,33,47,783,['n'],1,right,['1'],6,121,[-0.08481546],100,47,medium,plus,dotcolour,beta,24,20,V,L,
93,93,9,2,0,53,27,917,['c'],1,left,['8'],3,89,[0.05027141],100,53,easy,plus,dotcolour,beta,24,20,V,L,
94,94,10,2,0,27,53,732,['n'],1,right,['2'],5,114,[-0.10269311],100,53,easy,plus,dotcolour,beta,24,20,V,L,
95,95,11,2,0,47,33,2797,['c'],1,left,['8'],3,310,[0.03385398],95,47,medium,plus,dotcolour,beta,24,20,V,L,
96,96,12,2,0,53,27,783,['n'],0,left,['2'],5,139,[-0.0313897],99,53,easy,plus,dotcolour,beta,24,20,V,L,
97,97,13,2,0,36,44,2515,['c'],0,right,['2'],5,371,[0.23584939],100,44,hard,plus,dotcolour,beta,24,20,V,L,
98,98,14,2,0,27,53,814,['n'],1,right,['2'],5,157,[-0.16235382],100,53,easy,plus,dotcolour,beta,24,20,V,L,
99,99,15,2,0,33,47,749,['n'],1,right,['2'],5,146,[-0.12508463],100,47,medium,plus,dotcolour,beta,24,20,V,L,
100,100,16,2,0,47,33,3249,['c'],1,left,['3'],4,443,[0.12993694],99,47,medium,plus,dotcolour,beta,24,20,V,L,
101,101,17,2,0,53,27,933,['c'],1,left,['2'],5,238,[0.03363737],96,53,easy,plus,dotcolour,beta,24,20,V,L,
102,102,18,2,0,44,36,1532,['n'],0,left,['8'],3,152,[-0.11872604],100,44,hard,plus,dotcolour,beta,24,20,V,L,
103,103,19,2,0,27,53,764,['n'],1,right,['8'],3,125,[-0.118705],100,53,easy,plus,dotcolour,beta,24,20,V,L,
104,104,20,2,0,47,33,732,['c'],1,left,['2'],5,99,[0.07082412],100,47,medium,plus,dotcolour,beta,24,20,V,L,
105,105,21,2,0,33,47,915,['n'],1,right,['2'],5,92,[-0.10332899],100,47,medium,plus,dotcolour,beta,24,20,V,L,
106,106,22,2,0,33,47,664,['n'],1,right,['2'],5,127,[-0.07031755],100,47,medium,plus,dotcolour,beta,24,20,V,L,
107,107,23,2,0,36,44,1265,['n'],1,right,['2'],5,88,[-0.12547649],100,44,hard,plus,dotcolour,beta,24,20,V,L,
108,108,24,2,0,33,47,781,['n'],1,right,['8'],3,135,[-0.13697303],100,47,medium,plus,dotcolour,beta,24,20,V,L,
109,109,25,2,0,47,33,1498,['c'],1,left,['8'],3,135,[0.04665604],99,47,medium,plus,dotcolour,beta,24,20,V,L,
110,110,26,2,0,47,33,898,['n'],0,left,['2'],5,86,[-0.11885752],100,47,medium,plus,dotcolour,beta,24,20,V,L,
111,111,27,2,0,27,53,697,['n'],1,right,['2'],5,120,[-0.09798857],100,53,easy,plus,dotcolour,beta,24,20,V,L,
112,112,28,2,0,33,47,466,['n'],1,right,['1'],6,113,[-0.03782089],99,47,medium,plus,dotcolour,beta,24,20,V,L,
113,113,29,2,0,44,36,1399,['c'],1,left,['3'],4,2678,[0.02504102],71,44,hard,plus,dotcolour,beta,24,20,V,L,
114,114,30,2,0,36,44,798,['n'],1,right,['2'],5,83,[-0.06624853],100,44,hard,plus,dotcolour,beta,24,20,V,L,
115,115,31,2,0,27,53,634,['n'],1,right,['2'],5,112,[-0.11280806],100,53,easy,plus,dotcolour,beta,24,20,V,L,
116,116,32,2,0,53,27,667,['n'],0,left,['9'],2,1970,[0.04326041],54,53,easy,plus,dotcolour,beta,24,20,V,L,
117,117,33,2,0,44,36,817,['n'],0,left,['0'],1,1003,[-0.06554598],90,44,hard,plus,dotcolour,beta,24,20,V,L,
118,118,34,2,0,27,53,1267,['n'],1,right,['2'],5,313,[-0.0296735],94,53,easy,plus,dotcolour,beta,24,20,V,L,
119,119,35,2,0,44,36,1434,['c'],1,left,['8'],3,116,[0.02246462],98,44,hard,plus,dotcolour,beta,24,20,V,L,
120,120,36,2,0,36,44,982,['n'],1,right,['2'],5,210,[-0.05942502],99,44,hard,plus,dotcolour,beta,24,20,V,L,
121,121,37,2,0,53,27,1433,['c'],1,left,['2'],5,145,[0.02505106],98,53,easy,plus,dotcolour,beta,24,20,V,L,
122,122,38,2,0,53,27,533,['c'],1,left,['2'],5,143,[0.08792667],100,53,easy,plus,dotcolour,beta,24,20,V,L,
123,123,39,2,0,36,44,881,['n'],1,right,['2'],5,207,[-0.08147895],100,44,hard,plus,dotcolour,beta,24,20,V,L,
124,124,40,2,0,44,36,2599,['c'],1,left,['3'],4,176,[0.07390539],100,44,hard,plus,dotcolour,beta,24,20,V,L,
125,125,41,2,0,44,36,865,['c'],1,left,['3'],4,95,[0.06911887],100,44,hard,plus,dotcolour,beta,24,20,V,L,
126,0,0,3,1,44,36,1250,['c'],1,left,['2'],5,171,[0.09960068],87,44,hard,minus,dotcolour,beta,24,20,V,L,
127,1,1,3,1,33,47,783,['n'],1,right,['2'],5,101,[-0.02806008],17,47,medium,minus,dotcolour,beta,24,20,V,L,
128,2,2,3,1,53,27,1648,['c'],1,left,['2'],5,121,[0.11325603],95,53,easy,minus,dotcolour,beta,24,20,V,L,
129,3,3,3,1,53,27,699,['c'],1,left,['2'],5,145,[0.09778609],88,53,easy,minus,dotcolour,beta,24,20,V,L,
130,4,4,3,1,36,44,1633,['n'],1,right,['3'],4,92,[-0.0790652],80,44,hard,minus,dotcolour,beta,24,20,V,L,
131,5,5,3,1,36,44,883,['c'],0,right,['2'],5,85,[0.05325043],46,44,hard,minus,dotcolour,beta,24,20,V,L,
132,6,6,3,1,53,27,698,['c'],1,left,['2'],5,88,[0.07834751],80,53,easy,minus,dotcolour,beta,24,20,V,L,
133,7,7,3,1,27,53,899,['n'],1,right,['2'],5,121,[-0.09863464],90,53,easy,minus,dotcolour,beta,24,20,V,L,
134,8,8,3,1,36,44,1299,['c'],0,right,['8'],3,50,[0.0762628],84,44,hard,minus,dotcolour,beta,24,20,V,L,
135,9,9,3,1,44,36,682,['n'],0,left,['2'],5,62,[-0.09488808],94,44,hard,minus,dotcolour,beta,24,20,V,L,
136,10,10,3,1,47,33,949,['c'],1,left,['2'],5,70,[0.10969034],98,47,medium,minus,dotcolour,beta,24,20,V,L,
137,11,11,3,1,53,27,1100,['c'],1,left,['2'],5,145,[0.13295224],97,53,easy,minus,dotcolour,beta,24,20,V,L,
138,12,12,3,1,36,44,1165,['c'],0,right,['2'],5,149,[0.07597335],72,44,hard,minus,dotcolour,beta,24,20,V,L,
139,13,13,3,1,36,44,717,['c'],0,right,['2'],5,108,[0.07802749],77,44,hard,minus,dotcolour,beta,24,20,V,L,
140,14,14,3,1,33,47,751,['n'],1,right,['2'],5,91,[-0.08199574],83,47,medium,minus,dotcolour,beta,24,20,V,L,
141,15,15,3,1,47,33,1367,['c'],1,left,['2'],5,130,[0.08993182],85,47,medium,minus,dotcolour,beta,24,20,V,L,
142,16,16,3,1,44,36,882,['c'],1,left,['1'],6,131,[0.13286384],98,44,hard,minus,dotcolour,beta,24,20,V,L,
143,17,17,3,1,36,44,1014,['n'],1,right,['1'],6,102,[-0.06224659],59,44,hard,minus,dotcolour,beta,24,20,V,L,
144,18,18,3,1,47,33,866,['c'],1,left,['2'],5,113,[0.14080982],99,47,medium,minus,dotcolour,beta,24,20,V,L,
145,19,19,3,1,44,36,1016,['c'],1,left,['2'],5,140,[0.11512253],95,44,hard,minus,dotcolour,beta,24,20,V,L,
146,20,20,3,1,53,27,748,['c'],1,left,['1'],6,139,[0.10824158],93,53,easy,minus,dotcolour,beta,24,20,V,L,
147,21,21,3,1,33,47,548,['n'],1,right,['1'],6,113,[-0.06095378],57,47,medium,minus,dotcolour,beta,24,20,V,L,
148,22,22,3,1,47,33,682,['c'],1,left,['1'],6,114,[0.08849016],85,47,medium,minus,dotcolour,beta,24,20,V,L,
149,23,23,3,1,47,33,1014,['c'],1,left,['1'],6,102,[0.11187107],96,47,medium,minus,dotcolour,beta,24,20,V,L,
150,24,24,3,1,36,44,632,['n'],1,right,['1'],6,170,[-0.00786507],11,44,hard,minus,dotcolour,beta,24,20,V,L,
151,25,25,3,1,33,47,814,['n'],1,right,['1'],6,100,[-0.09241382],89,47,medium,minus,dotcolour,beta,24,20,V,L,
152,26,26,3,1,27,53,732,['n'],1,right,['1'],6,156,[-0.05616691],51,53,easy,minus,dotcolour,beta,24,20,V,L,
153,27,27,3,1,47,33,2482,['c'],1,left,['3'],4,899,[0.09660181],69,47,medium,minus,dotcolour,beta,24,20,V,L,
154,28,28,3,1,53,27,1114,['c'],1,left,['1'],6,84,[0.07657418],79,53,easy,minus,dotcolour,beta,24,20,V,L,
155,29,29,3,1,47,33,615,['c'],1,left,['2'],5,161,[0.07238969],68,47,medium,minus,dotcolour,beta,24,20,V,L,
156,30,30,3,1,53,27,1380,['c'],1,left,['8'],3,76,[0.08052175],84,53,easy,minus,dotcolour,beta,24,20,V,L,
157,31,31,3,1,44,36,631,['c'],1,left,['2'],5,129,[0.07468024],72,44,hard,minus,dotcolour,beta,24,20,V,L,
158,32,32,3,1,33,47,765,['c'],0,right,['9'],2,1350,[0.01076127],33,47,medium,minus,dotcolour,beta,24,20,V,L,
159,33,33,3,1,33,47,781,['n'],1,right,['2'],5,90,[-0.09377364],91,47,medium,minus,dotcolour,beta,24,20,V,L,
160,34,34,3,1,44,36,747,['n'],0,left,['1'],6,82,[-0.05172365],44,44,hard,minus,dotcolour,beta,24,20,V,L,
161,35,35,3,1,33,47,898,['n'],1,right,['2'],5,116,[-0.0799405],78,47,medium,minus,dotcolour,beta,24,20,V,L,
162,36,36,3,1,27,53,2415,['n'],1,right,['2'],5,616,[-0.26773388],99,53,easy,minus,dotcolour,beta,24,20,V,L,
163,37,37,3,1,44,36,1550,['c'],1,left,['2'],5,242,[0.09173617],79,44,hard,minus,dotcolour,beta,24,20,V,L,
164,38,38,3,1,27,53,784,['n'],1,right,['2'],5,138,[-0.13759108],98,53,easy,minus,dotcolour,beta,24,20,V,L,
165,39,39,3,1,27,53,549,['n'],1,right,['2'],5,80,[-0.08612115],87,53,easy,minus,dotcolour,beta,24,20,V,L,
166,40,40,3,1,27,53,498,['n'],1,right,['2'],5,90,[-0.06979916],70,53,easy,minus,dotcolour,beta,24,20,V,L,
167,41,41,3,1,27,53,431,['n'],1,right,['1'],6,63,[-0.11318747],98,53,easy,minus,dotcolour,beta,24,20,V,L,
168,42,0,4,1,27,53,650,['n'],1,right,['1'],6,102,[-0.03626945],25,53,easy,minus,dotcolour,beta,24,20,V,L,
169,43,1,4,1,33,47,598,['n'],1,right,['1'],6,140,[-0.03616592],28,47,medium,minus,dotcolour,beta,24,20,V,L,
170,44,2,4,1,36,44,3266,['c'],0,right,['8'],3,716,[0.02746464],35,44,hard,minus,dotcolour,beta,24,20,V,L,
171,45,3,4,1,36,44,1365,['c'],0,right,['8'],3,114,[0.03071651],21,44,hard,minus,dotcolour,beta,24,20,V,L,
172,46,4,4,1,44,36,1348,['c'],1,left,['3'],4,105,[0.06124712],58,44,hard,minus,dotcolour,beta,24,20,V,L,
173,47,5,4,1,27,53,682,['n'],1,right,['2'],5,419,[-0.11595688],84,53,easy,minus,dotcolour,beta,24,20,V,L,
174,48,6,4,1,47,33,782,['n'],0,left,['0'],1,827,[0.04097531],13,47,medium,minus,dotcolour,beta,24,20,V,L,
175,49,7,4,1,44,36,2249,['n'],0,left,['2'],5,641,[-0.0734201],60,44,hard,minus,dotcolour,beta,24,20,V,L,
176,50,8,4,1,47,33,748,['n'],0,left,['2'],5,90,[-0.02418207],13,47,medium,minus,dotcolour,beta,24,20,V,L,
177,51,9,4,1,44,36,1998,['c'],1,left,['3'],4,152,[0.06815],64,44,hard,minus,dotcolour,beta,24,20,V,L,
178,52,10,4,1,27,53,582,['n'],1,right,['2'],5,131,[-0.12983351],98,53,easy,minus,dotcolour,beta,24,20,V,L,
179,53,11,4,1,33,47,1282,['c'],0,right,['3'],4,92,[0.08600707],86,47,medium,minus,dotcolour,beta,24,20,V,L,
180,54,12,4,1,53,27,1131,['c'],1,left,['2'],5,132,[0.03830916],30,53,easy,minus,dotcolour,beta,24,20,V,L,
181,55,13,4,1,33,47,1666,['n'],1,right,['9'],2,190,[-0.04161026],36,47,medium,minus,dotcolour,beta,24,20,V,L,
182,56,14,4,1,47,33,648,['n'],0,left,['2'],5,109,[-0.04796871],40,47,medium,minus,dotcolour,beta,24,20,V,L,
183,57,15,4,1,44,36,1715,['c'],1,left,['3'],4,157,[0.10860977],92,44,hard,minus,dotcolour,beta,24,20,V,L,
184,58,16,4,1,33,47,700,['c'],0,right,['3'],4,116,[0.06968932],68,47,medium,minus,dotcolour,beta,24,20,V,L,
185,59,17,4,1,53,27,1149,['c'],1,left,['2'],5,107,[0.09991392],92,53,easy,minus,dotcolour,beta,24,20,V,L,
186,60,18,4,1,36,44,917,['n'],1,right,['2'],5,219,[-0.11572618],91,44,hard,minus,dotcolour,beta,24,20,V,L,
187,61,19,4,1,47,33,800,['c'],1,left,['3'],4,75,[0.09159197],91,47,medium,minus,dotcolour,beta,24,20,V,L,
188,62,20,4,1,44,36,797,['n'],0,left,['3'],4,73,[-0.09177147],92,44,hard,minus,dotcolour,beta,24,20,V,L,
189,63,21,4,1,33,47,732,['n'],1,right,['3'],4,114,[-0.08881302],85,47,medium,minus,dotcolour,beta,24,20,V,L,
190,64,22,4,1,53,27,882,['c'],1,left,['2'],5,59,[0.04485277],31,53,easy,minus,dotcolour,beta,24,20,V,L,
191,65,23,4,1,27,53,999,['c'],0,right,['0'],1,1362,[-0.35379943],0,53,easy,minus,dotcolour,beta,24,20,V,L,
192,66,24,4,1,53,27,1599,['c'],1,left,['2'],5,44,[0.13736229],100,53,easy,minus,dotcolour,beta,24,20,V,L,
193,67,25,4,1,33,47,815,['n'],1,right,['3'],4,99,[-0.06635577],65,47,medium,minus,dotcolour,beta,24,20,V,L,
194,68,26,4,1,27,53,549,['n'],1,right,['2'],5,26,[-0.0654029],75,53,easy,minus,dotcolour,beta,24,20,V,L,
195,69,27,4,1,53,27,800,['c'],1,left,['1'],6,66,[0.09224616],93,53,easy,minus,dotcolour,beta,24,20,V,L,
196,70,28,4,1,33,47,482,['n'],1,right,['2'],5,93,[-0.07070958],71,47,medium,minus,dotcolour,beta,24,20,V,L,
197,71,29,4,1,53,27,833,['c'],1,left,['1'],6,65,[0.05563005],50,53,easy,minus,dotcolour,beta,24,20,V,L,
198,72,30,4,1,47,33,748,['c'],1,left,['1'],6,82,[0.10581531],96,47,medium,minus,dotcolour,beta,24,20,V,L,
199,73,31,4,1,44,36,1582,['c'],1,left,['8'],3,96,[0.01106838],7,44,hard,minus,dotcolour,beta,24,20,V,L,
200,74,32,4,1,27,53,717,['n'],1,right,['1'],6,65,[-0.06159359],60,53,easy,minus,dotcolour,beta,24,20,V,L,
201,75,33,4,1,47,33,598,['c'],1,left,['1'],6,64,[0.08731717],91,47,medium,minus,dotcolour,beta,24,20,V,L,
202,76,34,4,1,36,44,1731,['c'],0,right,['8'],3,81,[0.0243382],12,44,hard,minus,dotcolour,beta,24,20,V,L,
203,77,35,4,1,36,44,666,['n'],1,right,['1'],6,76,[-0.07960637],83,44,hard,minus,dotcolour,beta,24,20,V,L,
204,78,36,4,1,36,44,983,['n'],1,right,['1'],6,35,[-0.06605848],73,44,hard,minus,dotcolour,beta,24,20,V,L,
205,79,37,4,1,36,44,765,['n'],1,right,['1'],6,84,[-0.10777201],96,44,hard,minus,dotcolour,beta,24,20,V,L,
206,80,38,4,1,27,53,715,['n'],1,right,['1'],6,62,[-0.07489282],80,53,easy,minus,dotcolour,beta,24,20,V,L,
207,81,39,4,1,44,36,1116,['c'],1,left,['1'],6,32,[0.10391787],99,44,hard,minus,dotcolour,beta,24,20,V,L,
208,82,40,4,1,47,33,932,['c'],1,left,['1'],6,58,[0.05125025],42,47,medium,minus,dotcolour,beta,24,20,V,L,
209,83,41,4,1,53,27,884,['c'],1,left,['2'],5,134,[0.09030374],85,53,easy,minus,dotcolour,beta,24,20,V,L,
210,84,0,5,1,27,53,733,['n'],1,right,['2'],5,71,[-0.09494455],93,53,easy,minus,dotcolour,beta,24,20,V,L,
211,85,1,5,1,36,44,482,['n'],1,right,['2'],5,74,[-0.02997476],16,44,hard,minus,dotcolour,beta,24,20,V,L,
212,86,2,5,1,47,33,966,['c'],1,left,['2'],5,90,[0.06815946],68,47,medium,minus,dotcolour,beta,24,20,V,L,
213,87,3,5,1,33,47,1317,['c'],0,right,['3'],4,83,[0.08702363],88,47,medium,minus,dotcolour,beta,24,20,V,L,
214,88,4,5,1,33,47,1015,['n'],1,right,['8'],3,97,[-0.09312909],90,47,medium,minus,dotcolour,beta,24,20,V,L,
215,89,5,5,1,53,27,1115,['c'],1,left,['2'],5,89,[0.06868256],69,53,easy,minus,dotcolour,beta,24,20,V,L,
216,90,6,5,1,27,53,865,['n'],1,right,['1'],6,84,[-0.11548129],98,53,easy,minus,dotcolour,beta,24,20,V,L,
217,91,7,5,1,44,36,714,['n'],0,left,['2'],5,142,[-0.07416834],71,44,hard,minus,dotcolour,beta,24,20,V,L,
218,92,8,5,1,53,27,865,['c'],1,left,['2'],5,126,[0.09674639],89,53,easy,minus,dotcolour,beta,24,20,V,L,
219,93,9,5,1,33,47,665,['n'],1,right,['2'],5,496,[-0.16807909],95,47,medium,minus,dotcolour,beta,24,20,V,L,
220,94,10,5,1,44,36,898,['c'],1,left,['1'],6,113,[0.09253226],88,44,hard,minus,dotcolour,beta,24,20,V,L,
221,95,11,5,1,27,53,500,['c'],0,right,['2'],5,162,[0.04541579],39,53,easy,minus,dotcolour,beta,24,20,V,L,
222,96,12,5,1,47,33,997,['c'],1,left,['2'],5,100,[0.0661814],65,47,medium,minus,dotcolour,beta,24,20,V,L,
223,97,13,5,1,53,27,682,['c'],1,left,['2'],5,110,[0.10666304],94,53,easy,minus,dotcolour,beta,24,20,V,L,
224,98,14,5,1,47,33,930,['c'],1,left,['1'],6,117,[0.06245933],59,47,medium,minus,dotcolour,beta,24,20,V,L,
225,99,15,5,1,36,44,1215,['n'],1,right,['8'],3,66,[-0.10445851],97,44,hard,minus,dotcolour,beta,24,20,V,L,
226,100,16,5,1,36,44,867,['n'],1,right,['8'],3,61,[-0.14257398],100,44,hard,minus,dotcolour,beta,24,20,V,L,
227,101,17,5,1,36,44,513,['n'],1,right,['8'],3,104,[-0.09034789],87,44,hard,minus,dotcolour,beta,24,20,V,L,
228,102,18,5,1,33,47,2115,['c'],0,right,['3'],4,95,[0.02844907],17,47,medium,minus,dotcolour,beta,24,20,V,L,
229,103,19,5,1,47,33,348,['n'],0,left,['8'],3,119,[-0.04714786],39,47,medium,minus,dotcolour,beta,24,20,V,L,
230,104,20,5,1,53,27,2381,['c'],1,left,['8'],3,1228,[0.25533722],96,53,easy,minus,dotcolour,beta,24,20,V,L,
231,105,21,5,1,44,36,1283,['c'],1,left,['8'],3,137,[0.03474036],27,44,hard,minus,dotcolour,beta,24,20,V,L,
232,106,22,5,1,33,47,965,['n'],1,right,['2'],5,182,[-0.06722109],62,47,medium,minus,dotcolour,beta,24,20,V,L,
233,107,23,5,1,44,36,916,['c'],1,left,['2'],5,115,[0.1242051],97,44,hard,minus,dotcolour,beta,24,20,V,L,
234,108,24,5,1,47,33,750,['c'],1,left,['1'],6,98,[0.03751774],26,47,medium,minus,dotcolour,beta,24,20,V,L,
235,109,25,5,1,27,53,815,['n'],1,right,['1'],6,103,[-0.05567649],50,53,easy,minus,dotcolour,beta,24,20,V,L,
236,110,26,5,1,47,33,948,['n'],0,left,['8'],3,70,[-0.10038752],95,47,medium,minus,dotcolour,beta,24,20,V,L,
237,111,27,5,1,33,47,598,['n'],1,right,['8'],3,84,[-0.08920055],89,47,medium,minus,dotcolour,beta,24,20,V,L,
238,112,28,5,1,27,53,1315,['n'],1,right,['2'],5,78,[-0.03220626],18,53,easy,minus,dotcolour,beta,24,20,V,L,
239,113,29,5,1,53,27,883,['c'],1,left,['2'],5,96,[0.04633817],37,53,easy,minus,dotcolour,beta,24,20,V,L,
240,114,30,5,1,44,36,1367,['c'],1,left,['8'],3,95,[0.03903643],28,44,hard,minus,dotcolour,beta,24,20,V,L,
241,115,31,5,1,27,53,948,['n'],1,right,['2'],5,95,[-0.10930912],96,53,easy,minus,dotcolour,beta,24,20,V,L,
242,116,32,5,1,44,36,1115,['c'],1,left,['8'],3,103,[0.10036511],93,44,hard,minus,dotcolour,beta,24,20,V,L,
243,117,33,5,1,44,36,733,['n'],0,left,['3'],4,119,[-0.00311887],6,44,hard,minus,dotcolour,beta,24,20,V,L,
244,118,34,5,1,53,27,2165,['c'],1,left,['8'],3,69,[0.08483794],88,53,easy,minus,dotcolour,beta,24,20,V,L,
245,119,35,5,1,53,27,931,['c'],1,left,['8'],3,38,[0.12664105],100,53,easy,minus,dotcolour,beta,24,20,V,L,
246,120,36,5,1,36,44,682,['n'],1,right,['2'],5,99,[-0.02313264],14,44,hard,minus,dotcolour,beta,24,20,V,L,
247,121,37,5,1,36,44,781,['n'],1,right,['3'],4,81,[-0.03490359],21,44,hard,minus,dotcolour,beta,24,20,V,L,
248,122,38,5,1,33,47,698,['c'],0,right,['8'],3,2155,[-0.05416934],21,47,medium,minus,dotcolour,beta,24,20,V,L,
249,123,39,5,1,47,33,1083,['c'],1,left,['2'],5,81,[0.06224309],60,47,medium,minus,dotcolour,beta,24,20,V,L,
250,124,40,5,1,27,53,698,['n'],1,right,['2'],5,100,[-0.0566946],52,53,easy,minus,dotcolour,beta,24,20,V,L,
251,125,41,5,1,36,44,665,['n'],1,right,['1'],6,166,[-0.15125182],99,44,hard,minus,dotcolour,beta,24,20,V,L,
252,0,0,6,2,53,27,833,['c'],1,left,['2'],5,138,[0.15839191],100,53,easy,plus,dotcolour,beta,24,20,V,L,
253,1,1,6,2,36,44,550,['n'],1,right,['2'],5,88,[-0.0918359],100,44,hard,plus,dotcolour,beta,24,20,V,L,
254,2,2,6,2,53,27,649,['n'],0,left,['2'],5,164,[-0.09490452],100,53,easy,plus,dotcolour,beta,24,20,V,L,
255,3,3,6,2,33,47,798,['n'],1,right,['2'],5,38,[-0.05233809],100,47,medium,plus,dotcolour,beta,24,20,V,L,
256,4,4,6,2,44,36,1298,['c'],1,left,['8'],3,50,[0.06027821],100,44,hard,plus,dotcolour,beta,24,20,V,L,
257,5,5,6,2,53,27,1082,['c'],1,left,['2'],5,62,[0.00767767],99,53,easy,plus,dotcolour,beta,24,20,V,L,
258,6,6,6,2,47,33,1450,['n'],0,left,['3'],4,91,[-0.07167159],100,47,medium,plus,dotcolour,beta,24,20,V,L,
259,7,7,6,2,44,36,666,['n'],0,left,['3'],4,110,[-0.08828852],100,44,hard,plus,dotcolour,beta,24,20,V,L,
260,8,8,6,2,33,47,366,['n'],1,right,['3'],4,84,[-0.05472898],100,47,medium,plus,dotcolour,beta,24,20,V,L,
261,9,9,6,2,47,33,649,['n'],0,left,['3'],4,64,[-0.09864363],100,47,medium,plus,dotcolour,beta,24,20,V,L,
262,10,10,6,2,36,44,647,['n'],1,right,['3'],4,77,[-0.05640886],100,44,hard,plus,dotcolour,beta,24,20,V,L,
263,11,11,6,2,33,47,1366,['c'],0,right,['8'],3,76,[0.04556811],100,47,medium,plus,dotcolour,beta,24,20,V,L,
264,12,12,6,2,53,27,1031,['c'],1,left,['2'],5,81,[0.09506096],100,53,easy,plus,dotcolour,beta,24,20,V,L,
265,13,13,6,2,47,33,966,['c'],1,left,['3'],4,80,[0.16718259],100,47,medium,plus,dotcolour,beta,24,20,V,L,
266,14,14,6,2,27,53,533,['n'],1,right,['2'],5,105,[-0.0161445],98,53,easy,plus,dotcolour,beta,24,20,V,L,
267,15,15,6,2,33,47,834,['c'],0,right,['2'],5,148,[0.03327663],98,47,medium,plus,dotcolour,beta,24,20,V,L,
268,16,16,6,2,47,33,516,['n'],0,left,['2'],5,75,[-0.06157101],100,47,medium,plus,dotcolour,beta,24,20,V,L,
269,17,17,6,2,36,44,632,['n'],1,right,['3'],4,96,[-0.05848756],100,44,hard,plus,dotcolour,beta,24,20,V,L,
270,18,18,6,2,44,36,1015,['c'],1,left,['2'],5,341,[-0.00069164],84,44,hard,plus,dotcolour,beta,24,20,V,L,
271,19,19,6,2,47,33,1299,['c'],1,left,['8'],3,132,[0.0937841],100,47,medium,plus,dotcolour,beta,24,20,V,L,
272,20,20,6,2,53,27,849,['c'],1,left,['2'],5,94,[0.08234871],100,53,easy,plus,dotcolour,beta,24,20,V,L,
273,21,21,6,2,47,33,682,['n'],0,left,['2'],5,112,[-0.05903525],100,47,medium,plus,dotcolour,beta,24,20,V,L,
274,22,22,6,2,27,53,433,['n'],1,right,['1'],6,1323,[-0.19301079],98,53,easy,plus,dotcolour,beta,24,20,V,L,
275,23,23,6,2,53,27,966,['c'],1,left,['1'],6,128,[0.10598128],100,53,easy,plus,dotcolour,beta,24,20,V,L,
276,24,24,6,2,44,36,1149,['c'],1,left,['2'],5,47,[0.09027793],100,44,hard,plus,dotcolour,beta,24,20,V,L,
277,25,25,6,2,44,36,833,['c'],1,left,['2'],5,141,[0.08414222],100,44,hard,plus,dotcolour,beta,24,20,V,L,
278,26,26,6,2,36,44,1114,['n'],1,right,['8'],3,75,[-0.0959509],100,44,hard,plus,dotcolour,beta,24,20,V,L,
279,27,27,6,2,36,44,682,['c'],0,right,['2'],5,110,[0.06135085],100,44,hard,plus,dotcolour,beta,24,20,V,L,
280,28,28,6,2,27,53,615,['n'],1,right,['2'],5,66,[-0.11648248],100,53,easy,plus,dotcolour,beta,24,20,V,L,
281,29,29,6,2,27,53,465,['n'],1,right,['2'],5,63,[-0.07306137],100,53,easy,plus,dotcolour,beta,24,20,V,L,
282,30,30,6,2,27,53,416,['n'],1,right,['1'],6,116,[-0.15097182],100,53,easy,plus,dotcolour,beta,24,20,V,L,
283,31,31,6,2,36,44,446,['n'],1,right,['1'],6,95,[-0.06105822],100,44,hard,plus,dotcolour,beta,24,20,V,L,
284,32,32,6,2,36,44,416,['n'],1,right,['2'],5,91,[-0.14172938],100,44,hard,plus,dotcolour,beta,24,20,V,L,
285,33,33,6,2,27,53,565,['n'],1,right,['2'],5,98,[-0.10106022],100,53,easy,plus,dotcolour,beta,24,20,V,L,
286,34,34,6,2,33,47,398,['n'],1,right,['2'],5,80,[-0.03595544],100,47,medium,plus,dotcolour,beta,24,20,V,L,
287,35,35,6,2,47,33,600,['n'],0,left,['0'],1,870,[-0.01330069],79,47,medium,plus,dotcolour,beta,24,20,V,L,
288,36,36,6,2,27,53,615,['n'],1,right,['1'],6,75,[-0.08896356],100,53,easy,plus,dotcolour,beta,24,20,V,L,
289,37,37,6,2,33,47,448,['n'],1,right,['2'],5,71,[-0.05786347],100,47,medium,plus,dotcolour,beta,24,20,V,L,
290,38,38,6,2,44,36,1049,['c'],1,left,['3'],4,212,[0.07527938],99,44,hard,plus,dotcolour,beta,24,20,V,L,
291,39,39,6,2,33,47,564,['n'],1,right,['2'],5,54,[-0.10844546],100,47,medium,plus,dotcolour,beta,24,20,V,L,
292,40,40,6,2,44,36,947,['c'],1,left,['3'],4,70,[0.06459353],100,44,hard,plus,dotcolour,beta,24,20,V,L,
293,41,41,6,2,53,27,449,['c'],1,left,['2'],5,59,[0.07998495],100,53,easy,plus,dotcolour,beta,24,20,V,L,
294,42,0,7,2,33,47,600,['n'],1,right,['2'],5,34,[-0.06247397],100,47,medium,plus,dotcolour,beta,24,20,V,L,
295,43,1,7,2,36,44,547,['n'],1,right,['2'],5,108,[-0.08521122],100,44,hard,plus,dotcolour,beta,24,20,V,L,
296,44,2,7,2,27,53,865,['n'],1,right,['2'],5,47,[-0.07945813],100,53,easy,plus,dotcolour,beta,24,20,V,L,
297,45,3,7,2,27,53,599,['n'],1,right,['2'],5,38,[-0.10046352],100,53,easy,plus,dotcolour,beta,24,20,V,L,
298,46,4,7,2,33,47,915,['c'],0,right,['8'],3,65,[0.08942324],100,47,medium,plus,dotcolour,beta,24,20,V,L,
299,47,5,7,2,33,47,749,['n'],1,right,['3'],4,50,[-0.08409465],100,47,medium,plus,dotcolour,beta,24,20,V,L,
300,48,6,7,2,53,27,699,['c'],1,left,['2'],5,85,[0.10981903],100,53,easy,plus,dotcolour,beta,24,20,V,L,
301,49,7,7,2,53,27,400,['c'],1,left,['2'],5,91,[0.05810576],100,53,easy,plus,dotcolour,beta,24,20,V,L,
302,50,8,7,2,53,27,397,['c'],1,left,['2'],5,104,[0.08373625],100,53,easy,plus,dotcolour,beta,24,20,V,L,
303,51,9,7,2,33,47,417,['c'],0,right,['9'],2,1253,[-0.04336929],55,47,medium,plus,dotcolour,beta,24,20,V,L,
304,52,10,7,2,44,36,882,['c'],1,left,['2'],5,88,[0.05400624],100,44,hard,plus,dotcolour,beta,24,20,V,L,
305,53,11,7,2,47,33,683,['c'],1,left,['2'],5,91,[0.0812704],100,47,medium,plus,dotcolour,beta,24,20,V,L,
306,54,12,7,2,53,27,432,['n'],0,left,['2'],5,151,[-0.07822395],100,53,easy,plus,dotcolour,beta,24,20,V,L,
307,55,13,7,2,53,27,1183,['c'],1,left,['2'],5,76,[0.08212234],100,53,easy,plus,dotcolour,beta,24,20,V,L,
308,56,14,7,2,33,47,1182,['n'],1,right,['3'],4,258,[-0.00636624],90,47,medium,plus,dotcolour,beta,24,20,V,L,
309,57,15,7,2,53,27,881,['c'],1,left,['1'],6,125,[0.07478274],100,53,easy,plus,dotcolour,beta,24,20,V,L,
310,58,16,7,2,44,36,867,['n'],0,left,['2'],5,127,[-0.07151619],100,44,hard,plus,dotcolour,beta,24,20,V,L,
311,59,17,7,2,47,33,667,['n'],0,left,['2'],5,72,[-0.08847337],100,47,medium,plus,dotcolour,beta,24,20,V,L,
312,60,18,7,2,27,53,1032,['c'],0,right,['3'],4,54,[0.04502976],100,53,easy,plus,dotcolour,beta,24,20,V,L,
313,61,19,7,2,44,36,1267,['n'],0,left,['3'],4,66,[-0.04884597],100,44,hard,plus,dotcolour,beta,24,20,V,L,
314,62,20,7,2,53,27,664,['c'],1,left,['2'],5,990,[0.31317539],100,53,easy,plus,dotcolour,beta,24,20,V,L,
315,63,21,7,2,36,44,1082,['c'],0,right,['1'],6,92,[0.0868818],100,44,hard,plus,dotcolour,beta,24,20,V,L,
316,64,22,7,2,44,36,699,['c'],1,left,['3'],4,86,[0.0414656],100,44,hard,plus,dotcolour,beta,24,20,V,L,
317,65,23,7,2,27,53,533,['n'],1,right,['1'],6,54,[-0.09496086],100,53,easy,plus,dotcolour,beta,24,20,V,L,
318,66,24,7,2,47,33,448,['c'],1,left,['2'],5,99,[0.08189323],100,47,medium,plus,dotcolour,beta,24,20,V,L,
319,67,25,7,2,44,36,1032,['c'],1,left,['2'],5,616,[0.11383482],98,44,hard,plus,dotcolour,beta,24,20,V,L,
320,68,26,7,2,36,44,1316,['c'],0,right,['3'],4,859,[0.06327776],91,44,hard,plus,dotcolour,beta,24,20,V,L,
321,69,27,7,2,27,53,583,['c'],0,right,['2'],5,66,[0.09805192],100,53,easy,plus,dotcolour,beta,24,20,V,L,
322,70,28,7,2,44,36,1048,['c'],1,left,['2'],5,863,[0.14276703],98,44,hard,plus,dotcolour,beta,24,20,V,L,
323,71,29,7,2,47,33,564,['c'],1,left,['2'],5,87,[0.06326637],100,47,medium,plus,dotcolour,beta,24,20,V,L,
324,72,30,7,2,36,44,848,['c'],0,right,['3'],4,1202,[0.1367918],96,44,hard,plus,dotcolour,beta,24,20,V,L,
325,73,31,7,2,36,44,698,['c'],0,right,['3'],4,103,[0.03559357],99,44,hard,plus,dotcolour,beta,24,20,V,L,
326,74,32,7,2,36,44,746,['c'],0,right,['3'],4,582,[0.04102752],91,44,hard,plus,dotcolour,beta,24,20,V,L,
327,75,33,7,2,47,33,599,['c'],1,left,['2'],5,151,[0.14852835],100,47,medium,plus,dotcolour,beta,24,20,V,L,
328,76,34,7,2,27,53,399,['n'],1,right,['2'],5,18,[-0.08885607],100,53,easy,plus,dotcolour,beta,24,20,V,L,
329,77,35,7,2,36,44,999,['c'],0,right,['3'],4,83,[0.0662071],100,44,hard,plus,dotcolour,beta,24,20,V,L,
330,78,36,7,2,47,33,883,['c'],1,left,['3'],4,574,[0.20933253],100,47,medium,plus,dotcolour,beta,24,20,V,L,
331,79,37,7,2,33,47,1398,['n'],1,right,['2'],5,64,[-0.02594347],100,47,medium,plus,dotcolour,beta,24,20,V,L,
332,80,38,7,2,33,47,1583,['c'],0,right,['2'],5,79,[0.07112506],100,47,medium,plus,dotcolour,beta,24,20,V,L,
333,81,39,7,2,47,33,516,['n'],0,left,['3'],4,1313,[-0.01420647],75,47,medium,plus,dotcolour,beta,24,20,V,L,
334,82,40,7,2,44,36,648,['c'],1,left,['2'],5,155,[0.0819874],100,44,hard,plus,dotcolour,beta,24,20,V,L,
335,83,41,7,2,27,53,682,['n'],1,right,['2'],5,123,[-0.11130806],100,53,easy,plus,dotcolour,beta,24,20,V,L,
336,84,0,8,2,53,27,867,['n'],0,left,['8'],3,156,[-0.00535992],94,53,easy,plus,dotcolour,beta,24,20,V,L,
337,85,1,8,2,47,33,615,['c'],1,left,['3'],4,69,[0.10193472],100,47,medium,plus,dotcolour,beta,24,20,V,L,
338,86,2,8,2,53,27,616,['c'],1,left,['2'],5,132,[0.0353385],99,53,easy,plus,dotcolour,beta,24,20,V,L,
339,87,3,8,2,27,53,698,['n'],1,right,['2'],5,76,[-0.07211286],100,53,easy,plus,dotcolour,beta,24,20,V,L,
340,88,4,8,2,27,53,650,['n'],1,right,['2'],5,128,[-0.13150808],100,53,easy,plus,dotcolour,beta,24,20,V,L,
341,89,5,8,2,53,27,916,['c'],1,left,['2'],5,135,[0.11007354],100,53,easy,plus,dotcolour,beta,24,20,V,L,
342,90,6,8,2,36,44,1200,['c'],0,right,['3'],4,83,[0.04204526],100,44,hard,plus,dotcolour,beta,24,20,V,L,
343,91,7,8,2,47,33,1497,['c'],1,left,['2'],5,149,[0.15762047],100,47,medium,plus,dotcolour,beta,24,20,V,L,
344,92,8,8,2,47,33,666,['c'],1,left,['2'],5,149,[0.13978834],100,47,medium,plus,dotcolour,beta,24,20,V,L,
345,93,9,8,2,36,44,864,['c'],0,right,['3'],4,158,[0.05436027],99,44,hard,plus,dotcolour,beta,24,20,V,L,
346,94,10,8,2,44,36,648,['c'],1,left,['2'],5,127,[0.16696916],100,44,hard,plus,dotcolour,beta,24,20,V,L,
347,95,11,8,2,27,53,1299,['n'],1,right,['2'],5,79,[-0.07182161],100,53,easy,plus,dotcolour,beta,24,20,V,L,
348,96,12,8,2,36,44,396,['n'],1,right,['3'],4,157,[-0.10084528],100,44,hard,plus,dotcolour,beta,24,20,V,L,
349,97,13,8,2,33,47,681,['n'],1,right,['3'],4,116,[-0.07827232],100,47,medium,plus,dotcolour,beta,24,20,V,L,
350,98,14,8,2,36,44,1683,['n'],1,right,['8'],3,117,[-0.07471005],100,44,hard,plus,dotcolour,beta,24,20,V,L,
351,99,15,8,2,53,27,782,['c'],1,left,['2'],5,82,[0.06149468],100,53,easy,plus,dotcolour,beta,24,20,V,L,
352,100,16,8,2,44,36,466,['c'],1,left,['2'],5,102,[0.05680702],100,44,hard,plus,dotcolour,beta,24,20,V,L,
353,101,17,8,2,47,33,483,['c'],1,left,['1'],6,584,[0.14552767],99,47,medium,plus,dotcolour,beta,24,20,V,L,
354,102,18,8,2,44,36,1000,['n'],0,left,['2'],5,97,[-0.01096121],98,44,hard,plus,dotcolour,beta,24,20,V,L,
355,103,19,8,2,44,36,749,['n'],0,left,['0'],1,880,[0.05958298],48,44,hard,plus,dotcolour,beta,24,20,V,L,
356,104,20,8,2,53,27,682,['n'],0,left,['2'],5,90,[-0.05430807],100,53,easy,plus,dotcolour,beta,24,20,V,L,
357,105,21,8,2,27,53,782,['n'],1,right,['1'],6,65,[-0.13132622],100,53,easy,plus,dotcolour,beta,24,20,V,L,
358,106,22,8,2,27,53,682,['n'],1,right,['1'],6,60,[-0.11283281],100,53,easy,plus,dotcolour,beta,24,20,V,L,
359,107,23,8,2,27,53,463,['n'],1,right,['1'],6,16,[-0.0736329],100,53,easy,plus,dotcolour,beta,24,20,V,L,
360,108,24,8,2,47,33,1348,['n'],0,left,['8'],3,51,[-0.10206271],100,47,medium,plus,dotcolour,beta,24,20,V,L,
361,109,25,8,2,44,36,632,['n'],0,left,['8'],3,89,[-0.05392498],100,44,hard,plus,dotcolour,beta,24,20,V,L,
362,110,26,8,2,33,47,915,['n'],1,right,['2'],5,129,[-0.02136227],98,47,medium,plus,dotcolour,beta,24,20,V,L,
363,111,27,8,2,36,44,499,['n'],1,right,['3'],4,82,[-0.0552955],100,44,hard,plus,dotcolour,beta,24,20,V,L,
364,112,28,8,2,33,47,615,['n'],1,right,['2'],5,79,[-0.06412882],100,47,medium,plus,dotcolour,beta,24,20,V,L,
365,113,29,8,2,47,33,765,['n'],0,left,['2'],5,78,[-0.11101166],100,47,medium,plus,dotcolour,beta,24,20,V,L,
366,114,30,8,2,36,44,531,['n'],1,right,['2'],5,55,[-0.1079508],100,44,hard,plus,dotcolour,beta,24,20,V,L,
367,115,31,8,2,36,44,598,['n'],1,right,['2'],5,78,[-0.08403547],100,44,hard,plus,dotcolour,beta,24,20,V,L,
368,116,32,8,2,44,36,2682,['c'],1,left,['3'],4,104,[0.13276266],100,44,hard,plus,dotcolour,beta,24,20,V,L,
369,117,33,8,2,27,53,582,['n'],1,right,['2'],5,119,[-0.06417333],100,53,easy,plus,dotcolour,beta,24,20,V,L,
370,118,34,8,2,47,33,864,['c'],1,left,['8'],3,89,[0.04630707],100,47,medium,plus,dotcolour,beta,24,20,V,L,
371,119,35,8,2,33,47,765,['n'],1,right,['2'],5,56,[-0.07717884],100,47,medium,plus,dotcolour,beta,24,20,V,L,
372,120,36,8,2,53,27,666,['n'],0,left,['2'],5,140,[-0.09995683],100,53,easy,plus,dotcolour,beta,24,20,V,L,
373,121,37,8,2,33,47,733,['n'],1,right,['2'],5,107,[-0.07029798],100,47,medium,plus,dotcolour,beta,24,20,V,L,
374,122,38,8,2,53,27,782,['c'],1,left,['2'],5,144,[0.05144488],99,53,easy,plus,dotcolour,beta,24,20,V,L,
375,123,39,8,2,33,47,681,['n'],1,right,['2'],5,56,[-0.11984525],100,47,medium,plus,dotcolour,beta,24,20,V,L,
376,124,40,8,2,33,47,898,['n'],1,right,['8'],3,83,[-0.0488902],100,47,medium,plus,dotcolour,beta,24,20,V,L,
377,125,41,8,2,44,36,847,['c'],1,left,['2'],5,103,[0.0944839],100,44,hard,plus,dotcolour,beta,24,20,V,L,
378,0,0,9,3,53,27,733,['c'],1,left,['2'],5,118,[0.11342213],95,53,easy,minus,dotcolour,beta,24,20,V,L,
379,1,1,9,3,27,53,466,['n'],1,right,['2'],5,136,[-0.0904606],85,53,easy,minus,dotcolour,beta,24,20,V,L,
380,2,2,9,3,36,44,482,['c'],0,right,['2'],5,105,[0.08389122],83,44,hard,minus,dotcolour,beta,24,20,V,L,
381,3,3,9,3,44,36,549,['n'],0,left,['2'],5,31,[-0.05854785],58,44,hard,minus,dotcolour,beta,24,20,V,L,
382,4,4,9,3,44,36,549,['c'],1,left,['2'],5,66,[0.07805574],83,44,hard,minus,dotcolour,beta,24,20,V,L,
383,5,5,9,3,33,47,866,['c'],0,right,['8'],3,22,[0.07655623],93,47,medium,minus,dotcolour,beta,24,20,V,L,
384,6,6,9,3,53,27,697,['c'],1,left,['2'],5,82,[0.12475826],99,53,easy,minus,dotcolour,beta,24,20,V,L,
385,7,7,9,3,27,53,682,['n'],1,right,['2'],5,45,[-0.11538411],99,53,easy,minus,dotcolour,beta,24,20,V,L,
386,8,8,9,3,27,53,999,['n'],1,right,['2'],5,28,[-0.08358925],95,53,easy,minus,dotcolour,beta,24,20,V,L,
387,9,9,9,3,33,47,732,['c'],0,right,['2'],5,63,[0.03866663],23,47,medium,minus,dotcolour,beta,24,20,V,L,
388,10,10,9,3,36,44,416,['n'],1,right,['2'],5,117,[-0.11502686],96,44,hard,minus,dotcolour,beta,24,20,V,L,
389,11,11,9,3,47,33,849,['n'],0,left,['0'],1,1248,[0.21860476],1,47,medium,minus,dotcolour,beta,24,20,V,L,
390,12,12,9,3,53,27,666,['n'],0,left,['2'],5,12,[-0.06453954],81,53,easy,minus,dotcolour,beta,24,20,V,L,
391,13,13,9,3,36,44,1166,['c'],0,right,['2'],5,62,[0.08292277],88,44,hard,minus,dotcolour,beta,24,20,V,L,
392,14,14,9,3,47,33,816,['c'],1,left,['2'],5,132,[0.11331683],95,47,medium,minus,dotcolour,beta,24,20,V,L,
393,15,15,9,3,36,44,914,['c'],0,right,['8'],3,43,[0.05643668],52,44,hard,minus,dotcolour,beta,24,20,V,L,
394,16,16,9,3,44,36,482,['c'],1,left,['2'],5,96,[0.0705186],70,44,hard,minus,dotcolour,beta,24,20,V,L,
395,17,17,9,3,47,33,599,['c'],1,left,['2'],5,125,[0.02968107],21,47,medium,minus,dotcolour,beta,24,20,V,L,
396,18,18,9,3,33,47,696,['n'],1,right,['2'],5,117,[-0.05757374],53,47,medium,minus,dotcolour,beta,24,20,V,L,
397,19,19,9,3,33,47,665,['n'],1,right,['2'],5,30,[-0.0950174],98,47,medium,minus,dotcolour,beta,24,20,V,L,
398,20,20,9,3,33,47,899,['c'],0,right,['8'],3,19,[0.06597788],80,47,medium,minus,dotcolour,beta,24,20,V,L,
399,21,21,9,3,27,53,549,['n'],1,right,['3'],4,93,[-0.08167044],82,53,easy,minus,dotcolour,beta,24,20,V,L,
400,22,22,9,3,36,44,798,['n'],1,right,['2'],5,83,[-0.08703204],88,44,hard,minus,dotcolour,beta,24,20,V,L,
401,23,23,9,3,44,36,433,['n'],0,left,['0'],1,1279,[0.03005845],20,44,hard,minus,dotcolour,beta,24,20,V,L,
402,24,24,9,3,53,27,1149,['n'],0,left,['1'],6,95,[-0.07273697],73,53,easy,minus,dotcolour,beta,24,20,V,L,
403,25,25,9,3,47,33,1815,['n'],0,left,['1'],6,75,[-0.05217289],44,47,medium,minus,dotcolour,beta,24,20,V,L,
404,26,26,9,3,36,44,782,['n'],1,right,['1'],6,74,[-0.11602649],98,44,hard,minus,dotcolour,beta,24,20,V,L,
405,27,27,9,3,47,33,633,['c'],1,left,['2'],5,111,[0.10080584],92,47,medium,minus,dotcolour,beta,24,20,V,L,
406,28,28,9,3,27,53,650,['n'],1,right,['1'],6,162,[-0.17650692],100,53,easy,minus,dotcolour,beta,24,20,V,L,
407,29,29,9,3,33,47,615,['n'],1,right,['2'],5,116,[-0.11257601],95,47,medium,minus,dotcolour,beta,24,20,V,L,
408,30,30,9,3,44,36,582,['c'],1,left,['2'],5,41,[0.05737634],54,44,hard,minus,dotcolour,beta,24,20,V,L,
409,31,31,9,3,36,44,631,['n'],1,right,['3'],4,1032,[-0.18595456],91,44,hard,minus,dotcolour,beta,24,20,V,L,
410,32,32,9,3,53,27,899,['c'],1,left,['2'],5,11,[0.06935804],91,53,easy,minus,dotcolour,beta,24,20,V,L,
411,33,33,9,3,47,33,548,['c'],1,left,['2'],5,61,[0.10686985],98,47,medium,minus,dotcolour,beta,24,20,V,L,
412,34,34,9,3,27,53,733,['n'],1,right,['2'],5,63,[-0.10031067],96,53,easy,minus,dotcolour,beta,24,20,V,L,
413,35,35,9,3,44,36,934,['c'],1,left,['2'],5,88,[0.08541357],86,44,hard,minus,dotcolour,beta,24,20,V,L,
414,36,36,9,3,27,53,749,['c'],0,right,['8'],3,48,[0.03846857],20,53,easy,minus,dotcolour,beta,24,20,V,L,
415,37,37,9,3,47,33,832,['c'],1,left,['2'],5,86,[0.07775542],80,47,medium,minus,dotcolour,beta,24,20,V,L,
416,38,38,9,3,53,27,899,['c'],1,left,['2'],5,96,[0.08137592],82,53,easy,minus,dotcolour,beta,24,20,V,L,
417,39,39,9,3,33,47,850,['n'],1,right,['8'],3,91,[-0.08471608],85,47,medium,minus,dotcolour,beta,24,20,V,L,
418,40,40,9,3,44,36,664,['c'],1,left,['2'],5,46,[0.09232252],96,44,hard,minus,dotcolour,beta,24,20,V,L,
419,41,41,9,3,53,27,716,['n'],0,left,['2'],5,81,[-0.04908427],40,53,easy,minus,dotcolour,beta,24,20,V,L,
420,42,0,10,3,36,44,934,['n'],1,right,['2'],5,49,[-0.09432781],96,44,hard,minus,dotcolour,beta,24,20,V,L,
421,43,1,10,3,44,36,965,['c'],1,left,['8'],3,9,[0.07943737],99,44,hard,minus,dotcolour,beta,24,20,V,L,
422,44,2,10,3,53,27,748,['c'],1,left,['2'],5,60,[0.08139709],87,53,easy,minus,dotcolour,beta,24,20,V,L,
423,45,3,10,3,47,33,632,['c'],1,left,['2'],5,113,[0.10824004],94,47,medium,minus,dotcolour,beta,24,20,V,L,
424,46,4,10,3,27,53,667,['c'],0,right,['8'],3,139,[0.10854636],93,53,easy,minus,dotcolour,beta,24,20,V,L,
425,47,5,10,3,44,36,617,['c'],1,left,['1'],6,118,[0.03316499],24,44,hard,minus,dotcolour,beta,24,20,V,L,
426,48,6,10,3,44,36,516,['c'],1,left,['2'],5,103,[0.12480116],98,44,hard,minus,dotcolour,beta,24,20,V,L,
427,49,7,10,3,33,47,467,['n'],1,right,['2'],5,97,[-0.09041034],88,47,medium,minus,dotcolour,beta,24,20,V,L,
428,50,8,10,3,53,27,917,['c'],1,left,['1'],6,114,[0.11463394],96,53,easy,minus,dotcolour,beta,24,20,V,L,
429,51,9,10,3,27,53,701,['c'],0,right,['2'],5,58,[0.0748738],81,53,easy,minus,dotcolour,beta,24,20,V,L,
430,52,10,10,3,36,44,600,['n'],1,right,['8'],3,97,[-0.07690641],77,44,hard,minus,dotcolour,beta,24,20,V,L,
431,53,11,10,3,33,47,450,['c'],0,right,['2'],5,20,[0.09152547],99,47,medium,minus,dotcolour,beta,24,20,V,L,
432,54,12,10,3,53,27,617,['c'],1,left,['1'],6,140,[0.13945424],98,53,easy,minus,dotcolour,beta,24,20,V,L,
433,55,13,10,3,44,36,933,['c'],1,left,['2'],5,787,[0.00208847],25,44,hard,minus,dotcolour,beta,24,20,V,L,
434,56,14,10,3,47,33,650,['c'],1,left,['2'],5,74,[0.05948538],56,47,medium,minus,dotcolour,beta,24,20,V,L,
435,57,15,10,3,27,53,750,['n'],1,right,['1'],6,219,[-0.11740012],92,53,easy,minus,dotcolour,beta,24,20,V,L,
436,58,16,10,3,36,44,683,['n'],1,right,['2'],5,56,[-0.08323184],89,44,hard,minus,dotcolour,beta,24,20,V,L,
437,59,17,10,3,36,44,600,['n'],1,right,['2'],5,14,[-0.08258309],98,44,hard,minus,dotcolour,beta,24,20,V,L,
438,60,18,10,3,27,53,784,['n'],1,right,['2'],5,64,[-0.05856977],55,53,easy,minus,dotcolour,beta,24,20,V,L,
439,61,19,10,3,47,33,717,['c'],1,left,['2'],5,97,[0.09214192],89,47,medium,minus,dotcolour,beta,24,20,V,L,
440,62,20,10,3,53,27,600,['c'],1,left,['2'],5,87,[0.03078957],18,53,easy,minus,dotcolour,beta,24,20,V,L,
441,63,21,10,3,33,47,666,['n'],1,right,['2'],5,50,[-0.06872284],74,47,medium,minus,dotcolour,beta,24,20,V,L,
442,64,22,10,3,53,27,784,['c'],1,left,['2'],5,106,[0.10480818],94,53,easy,minus,dotcolour,beta,24,20,V,L,
443,65,23,10,3,36,44,783,['c'],0,right,['8'],3,40,[0.06498476],70,44,hard,minus,dotcolour,beta,24,20,V,L,
444,66,24,10,3,47,33,649,['n'],0,left,['2'],5,38,[-0.02548432],6,47,medium,minus,dotcolour,beta,24,20,V,L,
445,67,25,10,3,36,44,549,['n'],1,right,['2'],5,97,[-0.09616107],91,44,hard,minus,dotcolour,beta,24,20,V,L,
446,68,26,10,3,53,27,914,['c'],1,left,['2'],5,753,[-0.04722338],11,53,easy,minus,dotcolour,beta,24,20,V,L,
447,69,27,10,3,53,27,499,['c'],1,left,['1'],6,152,[0.09390726],85,53,easy,minus,dotcolour,beta,24,20,V,L,
448,70,28,10,3,44,36,2097,['c'],1,left,['2'],5,71,[0.08175751],85,44,hard,minus,dotcolour,beta,24,20,V,L,
449,71,29,10,3,44,36,2564,['c'],1,left,['8'],3,887,[0.13174744],81,44,hard,minus,dotcolour,beta,24,20,V,L,
450,72,30,10,3,36,44,649,['n'],1,right,['2'],5,82,[-0.03004832],17,44,hard,minus,dotcolour,beta,24,20,V,L,
451,73,31,10,3,33,47,733,['n'],1,right,['2'],5,147,[-0.09021692],84,47,medium,minus,dotcolour,beta,24,20,V,L,
452,74,32,10,3,27,53,515,['n'],1,right,['2'],5,122,[-0.07323059],71,53,easy,minus,dotcolour,beta,24,20,V,L,
453,75,33,10,3,33,47,282,['n'],1,right,['1'],6,75,[-0.04757955],37,47,medium,minus,dotcolour,beta,24,20,V,L,
454,76,34,10,3,27,53,365,['n'],1,right,['2'],5,90,[-0.06553123],65,53,easy,minus,dotcolour,beta,24,20,V,L,
455,77,35,10,3,33,47,616,['n'],1,right,['1'],6,63,[-0.08803379],91,47,medium,minus,dotcolour,beta,24,20,V,L,
456,78,36,10,3,33,47,597,['n'],1,right,['2'],5,86,[-0.1032409],95,47,medium,minus,dotcolour,beta,24,20,V,L,
457,79,37,10,3,47,33,1133,['c'],1,left,['2'],5,142,[0.12936211],97,47,medium,minus,dotcolour,beta,24,20,V,L,
458,80,38,10,3,44,36,1049,['c'],1,left,['8'],3,55,[0.05843015],55,44,hard,minus,dotcolour,beta,24,20,V,L,
459,81,39,10,3,47,33,415,['n'],0,left,['2'],5,29,[-0.10247469],99,47,medium,minus,dotcolour,beta,24,20,V,L,
460,82,40,10,3,27,53,847,['n'],1,right,['2'],5,67,[-0.08862567],91,53,easy,minus,dotcolour,beta,24,20,V,L,
461,83,41,10,3,47,33,1132,['c'],1,left,['8'],3,45,[0.08383026],92,47,medium,minus,dotcolour,beta,24,20,V,L,
462,84,0,11,3,44,36,816,['c'],1,left,['2'],5,117,[0.0876756],84,44,hard,minus,dotcolour,beta,24,20,V,L,
463,85,1,11,3,47,33,497,['c'],1,left,['2'],5,102,[0.07845098],78,47,medium,minus,dotcolour,beta,24,20,V,L,
464,86,2,11,3,53,27,498,['c'],1,left,['2'],5,87,[0.10858486],96,53,easy,minus,dotcolour,beta,24,20,V,L,
465,87,3,11,3,47,33,665,['c'],1,left,['2'],5,129,[0.03584306],27,47,medium,minus,dotcolour,beta,24,20,V,L,
466,88,4,11,3,27,53,398,['c'],0,right,['1'],6,917,[-9.79107634e-05],26,53,easy,minus,dotcolour,beta,24,20,V,L,
467,89,5,11,3,44,36,433,['n'],0,left,['2'],5,96,[-0.04805866],39,44,hard,minus,dotcolour,beta,24,20,V,L,
468,90,6,11,3,33,47,816,['n'],1,right,['3'],4,493,[0.01616706],14,47,medium,minus,dotcolour,beta,24,20,V,L,
469,91,7,11,3,36,44,649,['n'],1,right,['2'],5,17,[-0.07674616],95,44,hard,minus,dotcolour,beta,24,20,V,L,
470,92,8,11,3,53,27,714,['n'],0,left,['2'],5,85,[0.01084494],2,53,easy,minus,dotcolour,beta,24,20,V,L,
471,93,9,11,3,33,47,1666,['n'],1,right,['1'],6,55,[-0.09139874],94,47,medium,minus,dotcolour,beta,24,20,V,L,
472,94,10,11,3,27,53,664,['n'],1,right,['1'],6,44,[-0.10873788],99,53,easy,minus,dotcolour,beta,24,20,V,L,
473,95,11,11,3,53,27,1415,['c'],1,left,['2'],5,66,[0.06256014],62,53,easy,minus,dotcolour,beta,24,20,V,L,
474,96,12,11,3,36,44,1348,['c'],0,right,['8'],3,99,[0.05677052],52,44,hard,minus,dotcolour,beta,24,20,V,L,
475,97,13,11,3,27,53,416,['n'],1,right,['1'],6,72,[-0.12182571],99,53,easy,minus,dotcolour,beta,24,20,V,L,
476,98,14,11,3,44,36,798,['n'],0,left,['1'],6,135,[-0.04369111],36,44,hard,minus,dotcolour,beta,24,20,V,L,
477,99,15,11,3,36,44,949,['c'],0,right,['1'],6,76,[0.09512573],93,44,hard,minus,dotcolour,beta,24,20,V,L,
478,100,16,11,3,27,53,648,['n'],1,right,['1'],6,24,[-0.09353647],99,53,easy,minus,dotcolour,beta,24,20,V,L,
479,101,17,11,3,47,33,650,['c'],1,left,['1'],6,55,[0.11323048],99,47,medium,minus,dotcolour,beta,24,20,V,L,
480,102,18,11,3,53,27,696,['c'],1,left,['1'],6,41,[0.08153938],91,53,easy,minus,dotcolour,beta,24,20,V,L,
481,103,19,11,3,33,47,733,['n'],1,right,['1'],6,68,[-0.10033368],96,47,medium,minus,dotcolour,beta,24,20,V,L,
482,104,20,11,3,47,33,731,['c'],1,left,['2'],5,110,[0.05837269],54,47,medium,minus,dotcolour,beta,24,20,V,L,
483,105,21,11,3,44,36,800,['n'],0,left,['1'],6,10,[-0.0764671],98,44,hard,minus,dotcolour,beta,24,20,V,L,
484,106,22,11,3,47,33,1182,['c'],1,left,['1'],6,692,[0.19751901],96,47,medium,minus,dotcolour,beta,24,20,V,L,
485,107,23,11,3,44,36,701,['c'],1,left,['1'],6,77,[0.08367313],86,44,hard,minus,dotcolour,beta,24,20,V,L,
486,108,24,11,3,44,36,632,['n'],0,left,['1'],6,170,[-0.10037487],88,44,hard,minus,dotcolour,beta,24,20,V,L,
487,109,25,11,3,36,44,732,['c'],0,right,['1'],6,678,[0.19334577],95,44,hard,minus,dotcolour,beta,24,20,V,L,
488,110,26,11,3,27,53,815,['n'],1,right,['1'],6,44,[-0.09834304],98,53,easy,minus,dotcolour,beta,24,20,V,L,
489,111,27,11,3,27,53,565,['n'],1,right,['1'],6,148,[-0.0364231],29,53,easy,minus,dotcolour,beta,24,20,V,L,
490,112,28,11,3,53,27,815,['c'],1,left,['1'],6,39,[0.12460184],100,53,easy,minus,dotcolour,beta,24,20,V,L,
491,113,29,11,3,33,47,633,['n'],1,right,['1'],6,118,[-0.08320674],81,47,medium,minus,dotcolour,beta,24,20,V,L,
492,114,30,11,3,33,47,582,['c'],0,right,['1'],6,90,[0.02912997],17,47,medium,minus,dotcolour,beta,24,20,V,L,
493,115,31,11,3,44,36,967,['c'],1,left,['1'],6,97,[0.04032759],29,44,hard,minus,dotcolour,beta,24,20,V,L,
494,116,32,11,3,36,44,1166,['n'],1,right,['3'],4,136,[-0.05226239],46,44,hard,minus,dotcolour,beta,24,20,V,L,
495,117,33,11,3,27,53,714,['n'],1,right,['1'],6,247,[-0.10022593],83,53,easy,minus,dotcolour,beta,24,20,V,L,
496,118,34,11,3,36,44,432,['n'],1,right,['2'],5,109,[-0.09426822],89,44,hard,minus,dotcolour,beta,24,20,V,L,
497,119,35,11,3,47,33,782,['c'],1,left,['2'],5,91,[0.11723633],98,47,medium,minus,dotcolour,beta,24,20,V,L,
498,120,36,11,3,47,33,715,['n'],0,left,['2'],5,124,[-0.06211553],58,47,medium,minus,dotcolour,beta,24,20,V,L,
499,121,37,11,3,36,44,682,['n'],1,right,['2'],5,100,[-0.06869746],68,44,hard,minus,dotcolour,beta,24,20,V,L,
500,122,38,11,3,33,47,383,['c'],0,right,['2'],5,26,[0.07109222],85,47,medium,minus,dotcolour,beta,24,20,V,L,
501,123,39,11,3,53,27,649,['n'],0,left,['2'],5,96,[-0.06373906],62,53,easy,minus,dotcolour,beta,24,20,V,L,
502,124,40,11,3,33,47,882,['n'],1,right,['2'],5,98,[-0.08481141],84,47,medium,minus,dotcolour,beta,24,20,V,L,
503,125,41,11,3,53,27,515,['c'],1,left,['2'],5,43,[0.09232345],96,53,easy,minus,dotcolour,beta,24,20,V,L,
504,0,0,12,4,47,33,599,['c'],1,left,['2'],5,117,[0.05351933],100,47,medium,plus,dotcolour,beta,24,20,V,L,
505,1,1,12,4,47,33,581,['c'],1,left,['2'],5,138,[0.06889691],100,47,medium,plus,dotcolour,beta,24,20,V,L,
506,2,2,12,4,33,47,616,['c'],0,right,['2'],5,157,[0.00556203],94,47,medium,plus,dotcolour,beta,24,20,V,L,
507,3,3,12,4,33,47,632,['n'],1,right,['2'],5,103,[-0.02696841],99,47,medium,plus,dotcolour,beta,24,20,V,L,
508,4,4,12,4,27,53,498,['n'],1,right,['2'],5,24,[-0.08757409],100,53,easy,plus,dotcolour,beta,24,20,V,L,
509,5,5,12,4,27,53,431,['n'],1,right,['2'],5,71,[-0.08614841],100,53,easy,plus,dotcolour,beta,24,20,V,L,
510,6,6,12,4,47,33,766,['c'],1,left,['2'],5,126,[0.03772849],99,47,medium,plus,dotcolour,beta,24,20,V,L,
511,7,7,12,4,36,44,383,['n'],1,right,['2'],5,75,[-0.07951175],100,44,hard,plus,dotcolour,beta,24,20,V,L,
512,8,8,12,4,47,33,415,['c'],1,left,['2'],5,48,[0.07037129],100,47,medium,plus,dotcolour,beta,24,20,V,L,
513,9,9,12,4,53,27,482,['n'],0,left,['2'],5,52,[-0.02723341],100,53,easy,plus,dotcolour,beta,24,20,V,L,
514,10,10,12,4,33,47,481,['n'],1,right,['2'],5,7,[-0.06754942],100,47,medium,plus,dotcolour,beta,24,20,V,L,
515,11,11,12,4,53,27,683,['c'],1,left,['2'],5,124,[0.08221332],100,53,easy,plus,dotcolour,beta,24,20,V,L,
516,12,12,12,4,36,44,731,['c'],0,right,['2'],5,611,[0.03647853],89,44,hard,plus,dotcolour,beta,24,20,V,L,
517,13,13,12,4,27,53,515,['c'],0,right,['2'],5,119,[0.11422147],100,53,easy,plus,dotcolour,beta,24,20,V,L,
518,14,14,12,4,27,53,516,['c'],0,right,['2'],5,119,[-0.0663399],36,53,easy,plus,dotcolour,beta,24,20,V,L,
519,15,15,12,4,44,36,615,['c'],1,left,['2'],5,83,[0.05246505],100,44,hard,plus,dotcolour,beta,24,20,V,L,
520,16,16,12,4,36,44,397,['n'],1,right,['2'],5,57,[-0.08312777],100,44,hard,plus,dotcolour,beta,24,20,V,L,
521,17,17,12,4,44,36,482,['c'],1,left,['2'],5,85,[0.06790362],100,44,hard,plus,dotcolour,beta,24,20,V,L,
522,18,18,12,4,47,33,681,['c'],1,left,['2'],5,71,[0.04269343],100,47,medium,plus,dotcolour,beta,24,20,V,L,
523,19,19,12,4,27,53,399,['n'],1,right,['2'],5,54,[-0.10636544],100,53,easy,plus,dotcolour,beta,24,20,V,L,
524,20,20,12,4,53,27,532,['c'],1,left,['2'],5,72,[0.03399342],100,53,easy,plus,dotcolour,beta,24,20,V,L,
525,21,21,12,4,44,36,382,['n'],0,left,['2'],5,111,[-0.12942537],100,44,hard,plus,dotcolour,beta,24,20,V,L,
526,22,22,12,4,44,36,580,['c'],1,left,['2'],5,28,[0.07955125],100,44,hard,plus,dotcolour,beta,24,20,V,L,
527,23,23,12,4,44,36,531,['c'],1,left,['2'],5,78,[0.06803537],100,44,hard,plus,dotcolour,beta,24,20,V,L,
528,24,24,12,4,27,53,1282,['n'],1,right,['2'],5,73,[-0.10124628],100,53,easy,plus,dotcolour,beta,24,20,V,L,
529,25,25,12,4,27,53,581,['n'],1,right,['2'],5,56,[-0.09555463],100,53,easy,plus,dotcolour,beta,24,20,V,L,
530,26,26,12,4,33,47,598,['n'],1,right,['2'],5,39,[-0.0628801],100,47,medium,plus,dotcolour,beta,24,20,V,L,
531,27,27,12,4,36,44,566,['c'],0,right,['2'],5,8,[0.06317726],100,44,hard,plus,dotcolour,beta,24,20,V,L,
532,28,28,12,4,53,27,666,['c'],1,left,['2'],5,599,[0.25552613],100,53,easy,plus,dotcolour,beta,24,20,V,L,
533,29,29,12,4,47,33,532,['c'],1,left,['2'],5,2251,[0.21172757],96,47,medium,plus,dotcolour,beta,24,20,V,L,
534,30,30,12,4,44,36,614,['c'],1,left,['2'],5,81,[0.11966182],100,44,hard,plus,dotcolour,beta,24,20,V,L,
535,31,31,12,4,53,27,665,['c'],1,left,['2'],5,164,[0.07202963],100,53,easy,plus,dotcolour,beta,24,20,V,L,
536,32,32,12,4,33,47,1215,['c'],0,right,['3'],4,78,[0.07503165],100,47,medium,plus,dotcolour,beta,24,20,V,L,
537,33,33,12,4,33,47,500,['c'],0,right,['2'],5,96,[0.06270001],100,47,medium,plus,dotcolour,beta,24,20,V,L,
538,34,34,12,4,36,44,650,['c'],0,right,['2'],5,124,[0.05090009],100,44,hard,plus,dotcolour,beta,24,20,V,L,
539,35,35,12,4,53,27,681,['c'],1,left,['2'],5,157,[0.06028479],99,53,easy,plus,dotcolour,beta,24,20,V,L,
540,36,36,12,4,53,27,683,['c'],1,left,['2'],5,148,[0.07492523],100,53,easy,plus,dotcolour,beta,24,20,V,L,
541,37,37,12,4,36,44,548,['n'],1,right,['2'],5,65,[-0.09918627],100,44,hard,plus,dotcolour,beta,24,20,V,L,
542,38,38,12,4,47,33,716,['n'],0,left,['2'],5,124,[-0.05574804],100,47,medium,plus,dotcolour,beta,24,20,V,L,
543,39,39,12,4,33,47,1449,['c'],0,right,['8'],3,30,[0.10474378],100,47,medium,plus,dotcolour,beta,24,20,V,L,
544,40,40,12,4,44,36,732,['c'],1,left,['2'],5,80,[0.08993966],100,44,hard,plus,dotcolour,beta,24,20,V,L,
545,41,41,12,4,36,44,1317,['c'],0,right,['8'],3,49,[0.08502332],100,44,hard,plus,dotcolour,beta,24,20,V,L,
546,42,0,13,4,27,53,551,['n'],1,right,['2'],5,94,[-0.09382176],100,53,easy,plus,dotcolour,beta,24,20,V,L,
547,43,1,13,4,27,53,316,['n'],1,right,['2'],5,103,[-0.10289741],100,53,easy,plus,dotcolour,beta,24,20,V,L,
548,44,2,13,4,33,47,980,['n'],1,right,['2'],5,76,[-0.10744056],100,47,medium,plus,dotcolour,beta,24,20,V,L,
549,45,3,13,4,53,27,564,['c'],1,left,['8'],3,91,[0.0894189],100,53,easy,plus,dotcolour,beta,24,20,V,L,
550,46,4,13,4,27,53,448,['n'],1,right,['2'],5,111,[-0.12948275],100,53,easy,plus,dotcolour,beta,24,20,V,L,
551,47,5,13,4,47,33,315,['c'],1,left,['2'],5,55,[0.10098724],100,47,medium,plus,dotcolour,beta,24,20,V,L,
552,48,6,13,4,47,33,799,['c'],1,left,['2'],5,158,[0.07307639],100,47,medium,plus,dotcolour,beta,24,20,V,L,
553,49,7,13,4,44,36,549,['c'],1,left,['2'],5,139,[0.06700032],100,44,hard,plus,dotcolour,beta,24,20,V,L,
554,50,8,13,4,36,44,1182,['c'],0,right,['2'],5,151,[0.05836665],99,44,hard,plus,dotcolour,beta,24,20,V,L,
555,51,9,13,4,44,36,648,['c'],1,left,['2'],5,289,[0.04669242],97,44,hard,plus,dotcolour,beta,24,20,V,L,
556,52,10,13,4,33,47,498,['c'],0,right,['8'],3,18,[0.07089396],100,47,medium,plus,dotcolour,beta,24,20,V,L,
557,53,11,13,4,33,47,748,['c'],0,right,['2'],5,69,[0.08176345],100,47,medium,plus,dotcolour,beta,24,20,V,L,
558,54,12,13,4,36,44,565,['c'],0,right,['2'],5,77,[0.05106063],100,44,hard,plus,dotcolour,beta,24,20,V,L,
559,55,13,13,4,44,36,399,['c'],1,left,['2'],5,123,[0.06885774],100,44,hard,plus,dotcolour,beta,24,20,V,L,
560,56,14,13,4,33,47,465,['c'],0,right,['2'],5,109,[0.03944538],99,47,medium,plus,dotcolour,beta,24,20,V,L,
561,57,15,13,4,36,44,632,['c'],0,right,['2'],5,641,[-0.02362374],67,44,hard,plus,dotcolour,beta,24,20,V,L,
562,58,16,13,4,27,53,546,['c'],0,right,['8'],3,50,[0.04955122],100,53,easy,plus,dotcolour,beta,24,20,V,L,
563,59,17,13,4,53,27,564,['c'],1,left,['2'],5,99,[0.081295],100,53,easy,plus,dotcolour,beta,24,20,V,L,
564,60,18,13,4,53,27,548,['c'],1,left,['2'],5,170,[0.06445405],99,53,easy,plus,dotcolour,beta,24,20,V,L,
565,61,19,13,4,53,27,949,['c'],1,left,['2'],5,71,[0.0627393],100,53,easy,plus,dotcolour,beta,24,20,V,L,
566,62,20,13,4,47,33,532,['c'],1,left,['2'],5,344,[0.02013613],91,47,medium,plus,dotcolour,beta,24,20,V,L,
567,63,21,13,4,47,33,350,['n'],0,left,['2'],5,44,[-0.04869021],100,47,medium,plus,dotcolour,beta,24,20,V,L,
