trial,withinphasetrial,withinblocktrial,block,phase,dotsLeft,dotsRight,rt,resp,cor,cresp,conf_press,cj,RTconf,ev,fb,diff,difflevel,condition,task,manip,questionID,questionResp,sub,age,gender,handedness,
0,0,0,0,0,44,36,1132,['c'],1,left,['2'],5,1041,[0.13400206],80,44,hard,minus,dotcolour,beta,,,65,18,V,R,
1,1,1,0,0,44,36,582,['n'],0,left,['9'],2,520,[-0.09564696],73,44,hard,minus,dotcolour,beta,,,65,18,V,R,
2,2,2,0,0,36,44,549,['c'],0,right,['2'],5,486,[-0.02160416],12,44,hard,minus,dotcolour,beta,,,65,18,V,R,
3,3,3,0,0,36,44,763,['n'],1,right,['0'],1,1389,[-0.04762517],47,44,hard,minus,dotcolour,beta,,,65,18,V,R,
4,4,4,0,0,53,27,915,['c'],1,left,['1'],6,561,[0.1548968],92,53,easy,minus,dotcolour,beta,,,65,18,V,R,
5,5,5,0,0,53,27,716,['c'],1,left,['2'],5,447,[0.15288833],93,53,easy,minus,dotcolour,beta,,,65,18,V,R,
6,6,6,0,0,33,47,715,['n'],1,right,['2'],5,1234,[-0.2411739],95,47,medium,minus,dotcolour,beta,,,65,18,V,R,
7,7,7,0,0,36,44,715,['n'],1,right,['3'],4,1820,[-0.13763923],75,44,hard,minus,dotcolour,beta,,,65,18,V,R,
8,8,8,0,0,36,44,765,['n'],1,right,['3'],4,558,[-0.2000136],97,44,hard,minus,dotcolour,beta,,,65,18,V,R,
9,9,9,0,0,33,47,798,['n'],1,right,['2'],5,473,[-0.02690984],32,47,medium,minus,dotcolour,beta,,,65,18,V,R,
10,10,10,0,0,47,33,1398,['c'],1,left,['2'],5,703,[0.09044749],68,47,medium,minus,dotcolour,beta,,,65,18,V,R,
11,11,11,0,0,33,47,1166,['c'],0,right,['1'],6,1077,[-0.04597446],15,47,medium,minus,dotcolour,beta,,,65,18,V,R,
12,12,12,0,0,33,47,1247,['c'],0,right,['2'],5,408,[0.10840798],82,47,medium,minus,dotcolour,beta,,,65,18,V,R,
13,13,13,0,0,53,27,649,['c'],1,left,['1'],6,703,[0.19758176],95,53,easy,minus,dotcolour,beta,,,65,18,V,R,
14,14,14,0,0,27,53,631,['n'],1,right,['2'],5,562,[-0.12712241],85,53,easy,minus,dotcolour,beta,,,65,18,V,R,
15,15,15,0,0,36,44,932,['c'],0,right,['2'],5,400,[0.03164002],34,44,hard,minus,dotcolour,beta,,,65,18,V,R,
16,16,16,0,0,27,53,7463,['n'],1,right,['2'],5,615,[-0.16275602],92,53,easy,minus,dotcolour,beta,,,65,18,V,R,
17,17,17,0,0,53,27,717,['c'],1,left,['2'],5,715,[0.11572344],78,53,easy,minus,dotcolour,beta,,,65,18,V,R,
18,18,18,0,0,27,53,1380,['n'],1,right,['2'],5,399,[-0.04536519],43,53,easy,minus,dotcolour,beta,,,65,18,V,R,
19,19,19,0,0,36,44,599,['c'],0,right,['1'],6,697,[0.00490938],25,44,hard,minus,dotcolour,beta,,,65,18,V,R,
20,20,20,0,0,33,47,848,['c'],0,right,['2'],5,604,[0.04757438],45,47,medium,minus,dotcolour,beta,,,65,18,V,R,
21,21,21,0,0,36,44,683,['c'],0,right,['2'],5,449,[0.06048441],53,44,hard,minus,dotcolour,beta,,,65,18,V,R,
22,22,22,0,0,27,53,748,['n'],1,right,['1'],6,691,[-0.08850678],67,53,easy,minus,dotcolour,beta,,,65,18,V,R,
23,23,23,0,0,44,36,766,['n'],0,left,['2'],5,457,[-0.01405963],25,44,hard,minus,dotcolour,beta,,,65,18,V,R,
24,24,24,0,0,47,33,998,['c'],1,left,['2'],5,528,[0.18352104],96,47,medium,minus,dotcolour,beta,,,65,18,V,R,
25,25,25,0,0,44,36,682,['n'],0,left,['1'],6,480,[-0.20748742],98,44,hard,minus,dotcolour,beta,,,65,18,V,R,
26,26,26,0,0,27,53,615,['n'],1,right,['2'],5,1358,[-0.33621379],99,53,easy,minus,dotcolour,beta,,,65,18,V,R,
27,27,27,0,0,47,33,963,['n'],0,left,['2'],5,818,[-0.05186602],48,47,medium,minus,dotcolour,beta,,,65,18,V,R,
28,28,28,0,0,53,27,797,['c'],1,left,['2'],5,458,[0.21035009],98,53,easy,minus,dotcolour,beta,,,65,18,V,R,
29,29,29,0,0,44,36,864,['c'],1,left,['2'],5,463,[0.0873158],70,44,hard,minus,dotcolour,beta,,,65,18,V,R,
30,30,30,0,0,27,53,864,['n'],1,right,['2'],5,755,[-0.14535821],87,53,easy,minus,dotcolour,beta,,,65,18,V,R,
31,31,31,0,0,47,33,764,['n'],0,left,['2'],5,367,[-0.08484204],70,47,medium,minus,dotcolour,beta,,,65,18,V,R,
32,32,32,0,0,47,33,1516,['c'],1,left,['2'],5,468,[0.20219717],98,47,medium,minus,dotcolour,beta,,,65,18,V,R,
33,33,33,0,0,33,47,748,['n'],1,right,['2'],5,805,[-0.17207617],91,47,medium,minus,dotcolour,beta,,,65,18,V,R,
34,34,34,0,0,47,33,783,['c'],1,left,['1'],6,550,[0.18750342],96,47,medium,minus,dotcolour,beta,,,65,18,V,R,
35,35,35,0,0,53,27,631,['c'],1,left,['1'],6,487,[0.23939545],99,53,easy,minus,dotcolour,beta,,,65,18,V,R,
36,36,36,0,0,47,33,699,['n'],0,left,['2'],5,448,[0.02290813],11,47,medium,minus,dotcolour,beta,,,65,18,V,R,
37,37,37,0,0,33,47,1050,['c'],0,right,['1'],6,494,[-0.02981406],10,47,medium,minus,dotcolour,beta,,,65,18,V,R,
38,38,38,0,0,27,53,733,['n'],1,right,['2'],5,662,[-0.2619338],99,53,easy,minus,dotcolour,beta,,,65,18,V,R,
39,39,39,0,0,44,36,1082,['n'],0,left,['2'],5,258,[0.08646844],1,44,hard,minus,dotcolour,beta,,,65,18,V,R,
40,40,40,0,0,44,36,733,['n'],0,left,['2'],5,522,[-0.04235437],42,44,hard,minus,dotcolour,beta,,,65,18,V,R,
41,41,41,0,0,53,27,682,['c'],1,left,['1'],6,523,[0.25376345],99,53,easy,minus,dotcolour,beta,,,65,18,V,R,
42,42,0,1,0,53,27,767,['c'],1,left,['2'],5,406,[0.22526833],99,53,easy,minus,dotcolour,beta,,,65,18,V,R,
43,43,1,1,0,44,36,898,['n'],0,left,['2'],5,467,[-0.13302829],88,44,hard,minus,dotcolour,beta,,,65,18,V,R,
44,44,2,1,0,53,27,631,['n'],0,left,['2'],5,512,[0.10615968],2,53,easy,minus,dotcolour,beta,,,65,18,V,R,
45,45,3,1,0,33,47,731,['n'],1,right,['2'],5,599,[-0.17365419],94,47,medium,minus,dotcolour,beta,,,65,18,V,R,
46,46,4,1,0,53,27,714,['c'],1,left,['1'],6,516,[0.14566207],91,53,easy,minus,dotcolour,beta,,,65,18,V,R,
47,47,5,1,0,27,53,715,['n'],1,right,['1'],6,452,[-0.23650268],99,53,easy,minus,dotcolour,beta,,,65,18,V,R,
48,48,6,1,0,36,44,648,['n'],1,right,['2'],5,401,[-0.0988811],77,44,hard,minus,dotcolour,beta,,,65,18,V,R,
49,49,7,1,0,36,44,1332,['c'],0,right,['2'],5,500,[-0.09658277],2,44,hard,minus,dotcolour,beta,,,65,18,V,R,
50,50,8,1,0,44,36,1498,['n'],0,left,['8'],3,1381,[0.06450715],14,44,hard,minus,dotcolour,beta,,,65,18,V,R,
51,51,9,1,0,33,47,1099,['c'],0,right,['2'],5,395,[0.14732307],93,47,medium,minus,dotcolour,beta,,,65,18,V,R,
52,52,10,1,0,33,47,731,['n'],1,right,['2'],5,302,[-0.0768862],67,47,medium,minus,dotcolour,beta,,,65,18,V,R,
53,53,11,1,0,44,36,932,['n'],0,left,['2'],5,310,[-0.02937304],30,44,hard,minus,dotcolour,beta,,,65,18,V,R,
54,54,12,1,0,53,27,931,['c'],1,left,['2'],5,462,[0.09881367],76,53,easy,minus,dotcolour,beta,,,65,18,V,R,
55,55,13,1,0,27,53,666,['n'],1,right,['2'],5,482,[-0.00496602],21,53,easy,minus,dotcolour,beta,,,65,18,V,R,
56,56,14,1,0,33,47,648,['n'],1,right,['2'],5,358,[-0.05329876],48,47,medium,minus,dotcolour,beta,,,65,18,V,R,
57,57,15,1,0,44,36,715,['c'],1,left,['2'],5,620,[0.1454301],89,44,hard,minus,dotcolour,beta,,,65,18,V,R,
58,58,16,1,0,27,53,1032,['n'],1,right,['1'],6,498,[-0.15042435],92,53,easy,minus,dotcolour,beta,,,65,18,V,R,
59,59,17,1,0,47,33,784,['c'],1,left,['2'],5,417,[0.13859614],91,47,medium,minus,dotcolour,beta,,,65,18,V,R,
60,60,18,1,0,47,33,698,['n'],0,left,['2'],5,461,[0.00800189],16,47,medium,minus,dotcolour,beta,,,65,18,V,R,
61,61,19,1,0,27,53,697,['n'],1,right,['2'],5,511,[-0.09604429],73,53,easy,minus,dotcolour,beta,,,65,18,V,R,
62,62,20,1,0,33,47,615,['n'],1,right,['2'],5,515,[0.00489959],18,47,medium,minus,dotcolour,beta,,,65,18,V,R,
63,63,21,1,0,47,33,631,['n'],0,left,['2'],5,399,[-0.07207957],62,47,medium,minus,dotcolour,beta,,,65,18,V,R,
64,64,22,1,0,47,33,665,['n'],0,left,['2'],5,421,[-0.06166208],54,47,medium,minus,dotcolour,beta,,,65,18,V,R,
65,65,23,1,0,36,44,664,['n'],1,right,['2'],5,458,[0.09845152],2,44,hard,minus,dotcolour,beta,,,65,18,V,R,
66,66,24,1,0,36,44,615,['n'],1,right,['2'],5,432,[-0.1055131],80,44,hard,minus,dotcolour,beta,,,65,18,V,R,
67,67,25,1,0,33,47,682,['n'],1,right,['2'],5,421,[-0.1248925],87,47,medium,minus,dotcolour,beta,,,65,18,V,R,
68,68,26,1,0,53,27,630,['c'],1,left,['2'],5,539,[0.13774419],88,53,easy,minus,dotcolour,beta,,,65,18,V,R,
69,69,27,1,0,36,44,632,['n'],1,right,['2'],5,654,[-0.03652654],40,44,hard,minus,dotcolour,beta,,,65,18,V,R,
70,70,28,1,0,44,36,848,['n'],0,left,['2'],5,402,[-0.01743412],25,44,hard,minus,dotcolour,beta,,,65,18,V,R,
71,71,29,1,0,36,44,650,['c'],0,right,['2'],5,426,[0.0247016],30,44,hard,minus,dotcolour,beta,,,65,18,V,R,
72,72,30,1,0,53,27,865,['n'],0,left,['2'],5,399,[-0.1495912],94,53,easy,minus,dotcolour,beta,,,65,18,V,R,
73,73,31,1,0,44,36,732,['n'],0,left,['2'],5,339,[-0.09143167],75,44,hard,minus,dotcolour,beta,,,65,18,V,R,
74,74,32,1,0,33,47,1166,['n'],1,right,['2'],5,472,[-0.16842794],95,47,medium,minus,dotcolour,beta,,,65,18,V,R,
75,75,33,1,0,36,44,581,['n'],1,right,['2'],5,254,[-0.11089537],88,44,hard,minus,dotcolour,beta,,,65,18,V,R,
76,76,34,1,0,27,53,648,['n'],1,right,['2'],5,227,[-0.07620397],69,53,easy,minus,dotcolour,beta,,,65,18,V,R,
77,77,35,1,0,27,53,847,['n'],1,right,['2'],5,289,[-0.08992092],76,53,easy,minus,dotcolour,beta,,,65,18,V,R,
78,78,36,1,0,44,36,516,['n'],0,left,['2'],5,313,[-0.10072741],81,44,hard,minus,dotcolour,beta,,,65,18,V,R,
79,79,37,1,0,47,33,865,['c'],1,left,['2'],5,299,[0.1303062],92,47,medium,minus,dotcolour,beta,,,65,18,V,R,
80,80,38,1,0,47,33,617,['n'],0,left,['2'],5,248,[0.01463865],7,47,medium,minus,dotcolour,beta,,,65,18,V,R,
81,81,39,1,0,53,27,599,['c'],1,left,['2'],5,264,[0.14270117],95,53,easy,minus,dotcolour,beta,,,65,18,V,R,
82,82,40,1,0,27,53,700,['n'],1,right,['1'],6,298,[-0.04329095],40,53,easy,minus,dotcolour,beta,,,65,18,V,R,
83,83,41,1,0,47,33,597,['n'],0,left,['2'],5,304,[-0.08755385],74,47,medium,minus,dotcolour,beta,,,65,18,V,R,
84,84,0,2,0,53,27,767,['n'],0,left,['2'],5,246,[-0.08079281],71,53,easy,minus,dotcolour,beta,,,65,18,V,R,
85,85,1,2,0,33,47,781,['c'],0,right,['2'],5,269,[0.06733186],60,47,medium,minus,dotcolour,beta,,,65,18,V,R,
86,86,2,2,0,27,53,331,['n'],1,right,['2'],5,255,[-0.082983],73,53,easy,minus,dotcolour,beta,,,65,18,V,R,
87,87,3,2,0,27,53,598,['n'],1,right,['2'],5,222,[-0.14579522],97,53,easy,minus,dotcolour,beta,,,65,18,V,R,
88,88,4,2,0,33,47,631,['n'],1,right,['2'],5,205,[-0.04942207],44,47,medium,minus,dotcolour,beta,,,65,18,V,R,
89,89,5,2,0,36,44,499,['n'],1,right,['2'],5,306,[-0.06339998],56,44,hard,minus,dotcolour,beta,,,65,18,V,R,
90,90,6,2,0,44,36,699,['c'],1,left,['2'],5,395,[0.02436168],29,44,hard,minus,dotcolour,beta,,,65,18,V,R,
91,91,7,2,0,44,36,683,['c'],1,left,['2'],5,273,[0.08131696],71,44,hard,minus,dotcolour,beta,,,65,18,V,R,
92,92,8,2,0,44,36,465,['n'],0,left,['2'],5,261,[-0.0901418],77,44,hard,minus,dotcolour,beta,,,65,18,V,R,
93,93,9,2,0,44,36,516,['n'],0,left,['2'],5,230,[-0.08614941],76,44,hard,minus,dotcolour,beta,,,65,18,V,R,
94,94,10,2,0,44,36,581,['n'],0,left,['2'],5,295,[-0.01336496],20,44,hard,minus,dotcolour,beta,,,65,18,V,R,
95,95,11,2,0,27,53,465,['n'],1,right,['2'],5,201,[-0.09841253],85,53,easy,minus,dotcolour,beta,,,65,18,V,R,
96,96,12,2,0,27,53,449,['n'],1,right,['2'],5,281,[-0.18365278],99,53,easy,minus,dotcolour,beta,,,65,18,V,R,
97,97,13,2,0,44,36,481,['n'],0,left,['2'],5,195,[-0.07404706],68,44,hard,minus,dotcolour,beta,,,65,18,V,R,
98,98,14,2,0,47,33,514,['n'],0,left,['2'],5,208,[-0.06497756],59,47,medium,minus,dotcolour,beta,,,65,18,V,R,
99,99,15,2,0,53,27,516,['c'],1,left,['2'],5,340,[0.14138996],93,53,easy,minus,dotcolour,beta,,,65,18,V,R,
100,100,16,2,0,27,53,582,['n'],1,right,['2'],5,256,[-0.14919424],97,53,easy,minus,dotcolour,beta,,,65,18,V,R,
101,101,17,2,0,36,44,564,['n'],1,right,['2'],5,240,[-0.13026085],94,44,hard,minus,dotcolour,beta,,,65,18,V,R,
102,102,18,2,0,33,47,415,['n'],1,right,['2'],5,295,[-0.10161957],82,47,medium,minus,dotcolour,beta,,,65,18,V,R,
103,103,19,2,0,36,44,664,['n'],1,right,['2'],5,250,[-0.15643598],97,44,hard,minus,dotcolour,beta,,,65,18,V,R,
104,104,20,2,0,53,27,583,['c'],1,left,['1'],6,314,[0.15416975],96,53,easy,minus,dotcolour,beta,,,65,18,V,R,
105,105,21,2,0,27,53,497,['n'],1,right,['1'],6,226,[-0.16373678],98,53,easy,minus,dotcolour,beta,,,65,18,V,R,
106,106,22,2,0,33,47,615,['n'],1,right,['1'],6,241,[0.05418442],2,47,medium,minus,dotcolour,beta,,,65,18,V,R,
107,107,23,2,0,36,44,448,['n'],1,right,['1'],6,263,[-0.16127493],98,44,hard,minus,dotcolour,beta,,,65,18,V,R,
108,108,24,2,0,47,33,549,['n'],0,left,['2'],5,295,[-0.09987177],81,47,medium,minus,dotcolour,beta,,,65,18,V,R,
109,109,25,2,0,47,33,847,['c'],1,left,['2'],5,387,[-0.03816799],6,47,medium,minus,dotcolour,beta,,,65,18,V,R,
110,110,26,2,0,36,44,667,['n'],1,right,['2'],5,386,[-0.12803278],89,44,hard,minus,dotcolour,beta,,,65,18,V,R,
111,111,27,2,0,47,33,649,['n'],0,left,['2'],5,546,[0.03727639],9,47,medium,minus,dotcolour,beta,,,65,18,V,R,
112,112,28,2,0,33,47,500,['n'],1,right,['2'],5,281,[-0.05123591],46,47,medium,minus,dotcolour,beta,,,65,18,V,R,
113,113,29,2,0,47,33,765,['n'],0,left,['2'],5,264,[0.01972599],7,47,medium,minus,dotcolour,beta,,,65,18,V,R,
114,114,30,2,0,36,44,681,['n'],1,right,['2'],5,300,[-0.07417747],65,44,hard,minus,dotcolour,beta,,,65,18,V,R,
115,115,31,2,0,33,47,547,['n'],1,right,['2'],5,267,[-0.0856404],74,47,medium,minus,dotcolour,beta,,,65,18,V,R,
116,116,32,2,0,33,47,633,['c'],0,right,['2'],5,280,[-0.02006843],7,47,medium,minus,dotcolour,beta,,,65,18,V,R,
117,117,33,2,0,53,27,783,['c'],1,left,['1'],6,855,[0.09162166],67,53,easy,minus,dotcolour,beta,,,65,18,V,R,
118,118,34,2,0,44,36,582,['n'],0,left,['2'],5,302,[-0.00562814],16,44,hard,minus,dotcolour,beta,,,65,18,V,R,
119,119,35,2,0,53,27,731,['n'],0,left,['2'],5,142,[-0.07229379],69,53,easy,minus,dotcolour,beta,,,65,18,V,R,
120,120,36,2,0,47,33,448,['n'],0,left,['2'],5,184,[-0.13565652],97,47,medium,minus,dotcolour,beta,,,65,18,V,R,
121,121,37,2,0,53,27,349,['c'],1,left,['9'],2,211,[0.13393264],96,53,easy,minus,dotcolour,beta,,,65,18,V,R,
122,122,38,2,0,36,44,248,['n'],1,right,['2'],5,170,[-0.0163099],15,44,hard,minus,dotcolour,beta,,,65,18,V,R,
123,123,39,2,0,27,53,318,['n'],1,right,['2'],5,440,[0.03479447],8,53,easy,minus,dotcolour,beta,,,65,18,V,R,
124,124,40,2,0,47,33,516,['n'],0,left,['2'],5,347,[0.05743556],3,47,medium,minus,dotcolour,beta,,,65,18,V,R,
125,125,41,2,0,53,27,567,['c'],1,left,['2'],5,352,[0.16967462],97,53,easy,minus,dotcolour,beta,,,65,18,V,R,
126,0,0,3,1,27,53,484,['n'],1,right,['2'],5,322,[-0.1435443],100,53,easy,plus,dotcolour,beta,,,65,18,V,R,
127,1,1,3,1,53,27,533,['n'],0,left,['1'],6,305,[0.03887877],63,53,easy,plus,dotcolour,beta,,,65,18,V,R,
128,2,2,3,1,36,44,1000,['c'],0,right,['2'],5,334,[0.01888453],91,44,hard,plus,dotcolour,beta,,,65,18,V,R,
129,3,3,3,1,44,36,617,['n'],0,left,['2'],5,210,[-0.05093047],98,44,hard,plus,dotcolour,beta,,,65,18,V,R,
130,4,4,3,1,33,47,365,['n'],1,right,['2'],5,259,[-0.08966222],99,47,medium,plus,dotcolour,beta,,,65,18,V,R,
131,5,5,3,1,53,27,1084,['n'],0,left,['2'],5,367,[-0.01856508],90,53,easy,plus,dotcolour,beta,,,65,18,V,R,
132,6,6,3,1,33,47,599,['n'],1,right,['2'],5,289,[-0.06594245],98,47,medium,plus,dotcolour,beta,,,65,18,V,R,
133,7,7,3,1,27,53,750,['n'],1,right,['2'],5,208,[-0.06667262],99,53,easy,plus,dotcolour,beta,,,65,18,V,R,
134,8,8,3,1,47,33,631,['n'],0,left,['2'],5,207,[-0.08247279],100,47,medium,plus,dotcolour,beta,,,65,18,V,R,
135,9,9,3,1,53,27,698,['c'],1,left,['2'],5,300,[0.1615869],100,53,easy,plus,dotcolour,beta,,,65,18,V,R,
136,10,10,3,1,47,33,866,['n'],0,left,['2'],5,375,[-0.036111],94,47,medium,plus,dotcolour,beta,,,65,18,V,R,
137,11,11,3,1,47,33,583,['n'],0,left,['2'],5,233,[-0.04184944],97,47,medium,plus,dotcolour,beta,,,65,18,V,R,
138,12,12,3,1,27,53,550,['n'],1,right,['2'],5,251,[-0.0299362],96,53,easy,plus,dotcolour,beta,,,65,18,V,R,
139,13,13,3,1,36,44,1114,['n'],1,right,['1'],6,334,[0.03128981],68,44,hard,plus,dotcolour,beta,,,65,18,V,R,
140,14,14,3,1,33,47,448,['n'],1,right,['1'],6,272,[-0.05303447],98,47,medium,plus,dotcolour,beta,,,65,18,V,R,
141,15,15,3,1,53,27,615,['c'],1,left,['2'],5,309,[0.1392931],100,53,easy,plus,dotcolour,beta,,,65,18,V,R,
142,16,16,3,1,33,47,700,['n'],1,right,['2'],5,262,[-0.11646208],100,47,medium,plus,dotcolour,beta,,,65,18,V,R,
143,17,17,3,1,36,44,698,['n'],1,right,['2'],5,281,[-0.07957798],99,44,hard,plus,dotcolour,beta,,,65,18,V,R,
144,18,18,3,1,53,27,614,['c'],1,left,['2'],5,310,[0.22989983],100,53,easy,plus,dotcolour,beta,,,65,18,V,R,
145,19,19,3,1,33,47,464,['n'],1,right,['2'],5,320,[-0.08135631],99,47,medium,plus,dotcolour,beta,,,65,18,V,R,
146,20,20,3,1,47,33,1266,['c'],1,left,['1'],6,289,[0.07993863],99,47,medium,plus,dotcolour,beta,,,65,18,V,R,
147,21,21,3,1,47,33,730,['n'],0,left,['2'],5,321,[-0.07169548],98,47,medium,plus,dotcolour,beta,,,65,18,V,R,
148,22,22,3,1,36,44,449,['n'],1,right,['2'],5,251,[-0.1237963],100,44,hard,plus,dotcolour,beta,,,65,18,V,R,
149,23,23,3,1,27,53,599,['n'],1,right,['2'],5,602,[-0.1839405],100,53,easy,plus,dotcolour,beta,,,65,18,V,R,
150,24,24,3,1,36,44,564,['n'],1,right,['2'],5,252,[-0.09026647],99,44,hard,plus,dotcolour,beta,,,65,18,V,R,
151,25,25,3,1,33,47,566,['n'],1,right,['2'],5,221,[-0.09895382],100,47,medium,plus,dotcolour,beta,,,65,18,V,R,
152,26,26,3,1,27,53,483,['n'],1,right,['2'],5,194,[-0.10191394],100,53,easy,plus,dotcolour,beta,,,65,18,V,R,
153,27,27,3,1,47,33,514,['c'],1,left,['2'],5,239,[0.10628569],100,47,medium,plus,dotcolour,beta,,,65,18,V,R,
154,28,28,3,1,44,36,482,['n'],0,left,['2'],5,243,[-0.03907862],97,44,hard,plus,dotcolour,beta,,,65,18,V,R,
155,29,29,3,1,44,36,682,['n'],0,left,['3'],4,751,[-0.11728233],97,44,hard,plus,dotcolour,beta,,,65,18,V,R,
156,30,30,3,1,44,36,515,['n'],0,left,['2'],5,204,[-0.05556989],99,44,hard,plus,dotcolour,beta,,,65,18,V,R,
157,31,31,3,1,47,33,1149,['c'],1,left,['2'],5,984,[0.11214687],95,47,medium,plus,dotcolour,beta,,,65,18,V,R,
158,32,32,3,1,36,44,715,['n'],1,right,['1'],6,317,[-0.08959308],99,44,hard,plus,dotcolour,beta,,,65,18,V,R,
159,33,33,3,1,27,53,815,['n'],1,right,['1'],6,434,[-0.19035972],100,53,easy,plus,dotcolour,beta,,,65,18,V,R,
160,34,34,3,1,27,53,665,['n'],1,right,['1'],6,350,[-0.09442518],99,53,easy,plus,dotcolour,beta,,,65,18,V,R,
161,35,35,3,1,44,36,933,['c'],1,left,['2'],5,380,[0.03756148],94,44,hard,plus,dotcolour,beta,,,65,18,V,R,
162,36,36,3,1,33,47,700,['n'],1,right,['2'],5,282,[-0.06868573],99,47,medium,plus,dotcolour,beta,,,65,18,V,R,
163,37,37,3,1,44,36,801,['n'],0,left,['2'],5,256,[-0.13501052],100,44,hard,plus,dotcolour,beta,,,65,18,V,R,
164,38,38,3,1,53,27,699,['c'],1,left,['2'],5,307,[0.15434052],100,53,easy,plus,dotcolour,beta,,,65,18,V,R,
165,39,39,3,1,53,27,815,['c'],1,left,['2'],5,271,[0.07840143],99,53,easy,plus,dotcolour,beta,,,65,18,V,R,
166,40,40,3,1,36,44,616,['n'],1,right,['2'],5,276,[-0.07275558],99,44,hard,plus,dotcolour,beta,,,65,18,V,R,
167,41,41,3,1,44,36,514,['n'],0,left,['2'],5,269,[-0.05360981],98,44,hard,plus,dotcolour,beta,,,65,18,V,R,
168,42,0,4,1,27,53,599,['n'],1,right,['2'],5,327,[-0.13997416],100,53,easy,plus,dotcolour,beta,,,65,18,V,R,
169,43,1,4,1,27,53,765,['n'],1,right,['2'],5,197,[-0.14278142],100,53,easy,plus,dotcolour,beta,,,65,18,V,R,
170,44,2,4,1,36,44,616,['n'],1,right,['2'],5,269,[-0.14189668],100,44,hard,plus,dotcolour,beta,,,65,18,V,R,
171,45,3,4,1,36,44,532,['n'],1,right,['2'],5,310,[-0.11809536],100,44,hard,plus,dotcolour,beta,,,65,18,V,R,
172,46,4,4,1,44,36,916,['n'],0,left,['2'],5,270,[-0.027366],95,44,hard,plus,dotcolour,beta,,,65,18,V,R,
173,47,5,4,1,33,47,650,['c'],0,right,['2'],5,307,[-0.05499399],50,47,medium,plus,dotcolour,beta,,,65,18,V,R,
174,48,6,4,1,33,47,517,['n'],1,right,['2'],5,331,[-0.14782157],100,47,medium,plus,dotcolour,beta,,,65,18,V,R,
175,49,7,4,1,27,53,449,['n'],1,right,['2'],5,285,[-0.10149757],100,53,easy,plus,dotcolour,beta,,,65,18,V,R,
176,50,8,4,1,27,53,500,['n'],1,right,['1'],6,559,[-0.24673638],100,53,easy,plus,dotcolour,beta,,,65,18,V,R,
177,51,9,4,1,47,33,833,['c'],1,left,['1'],6,369,[0.11681334],99,47,medium,plus,dotcolour,beta,,,65,18,V,R,
178,52,10,4,1,27,53,583,['n'],1,right,['1'],6,308,[-0.14845473],100,53,easy,plus,dotcolour,beta,,,65,18,V,R,
179,53,11,4,1,33,47,897,['n'],1,right,['2'],5,533,[-0.10533206],98,47,medium,plus,dotcolour,beta,,,65,18,V,R,
180,54,12,4,1,53,27,948,['c'],1,left,['1'],6,314,[0.23450453],100,53,easy,plus,dotcolour,beta,,,65,18,V,R,
181,55,13,4,1,36,44,698,['n'],1,right,['1'],6,275,[-0.14161024],100,44,hard,plus,dotcolour,beta,,,65,18,V,R,
182,56,14,4,1,44,36,915,['n'],0,left,['1'],6,276,[-0.05573886],98,44,hard,plus,dotcolour,beta,,,65,18,V,R,
183,57,15,4,1,53,27,931,['c'],1,left,['1'],6,237,[0.11103263],100,53,easy,plus,dotcolour,beta,,,65,18,V,R,
184,58,16,4,1,53,27,1166,['c'],1,left,['1'],6,230,[0.06616319],99,53,easy,plus,dotcolour,beta,,,65,18,V,R,
185,59,17,4,1,53,27,1165,['c'],1,left,['2'],5,391,[0.14225523],100,53,easy,plus,dotcolour,beta,,,65,18,V,R,
186,60,18,4,1,36,44,1049,['n'],1,right,['1'],6,319,[-0.08003403],99,44,hard,plus,dotcolour,beta,,,65,18,V,R,
187,61,19,4,1,53,27,701,['c'],1,left,['1'],6,247,[0.12717687],100,53,easy,plus,dotcolour,beta,,,65,18,V,R,
188,62,20,4,1,36,44,549,['n'],1,right,['1'],6,273,[-0.0541642],98,44,hard,plus,dotcolour,beta,,,65,18,V,R,
189,63,21,4,1,27,53,583,['n'],1,right,['1'],6,256,[-0.10444885],100,53,easy,plus,dotcolour,beta,,,65,18,V,R,
190,64,22,4,1,44,36,732,['n'],0,left,['3'],4,417,[0.10476579],20,44,hard,plus,dotcolour,beta,,,65,18,V,R,
191,65,23,4,1,44,36,699,['n'],0,left,['1'],6,582,[-0.07087586],95,44,hard,plus,dotcolour,beta,,,65,18,V,R,
192,66,24,4,1,36,44,749,['n'],1,right,['1'],6,226,[-0.11232607],100,44,hard,plus,dotcolour,beta,,,65,18,V,R,
193,67,25,4,1,33,47,1198,['n'],1,right,['1'],6,346,[-0.01207945],89,47,medium,plus,dotcolour,beta,,,65,18,V,R,
194,68,26,4,1,47,33,566,['n'],0,left,['1'],6,238,[-0.01146793],92,47,medium,plus,dotcolour,beta,,,65,18,V,R,
195,69,27,4,1,33,47,965,['c'],0,right,['2'],5,391,[0.00018364],83,47,medium,plus,dotcolour,beta,,,65,18,V,R,
196,70,28,4,1,33,47,515,['n'],1,right,['1'],6,284,[-0.1881798],100,47,medium,plus,dotcolour,beta,,,65,18,V,R,
197,71,29,4,1,33,47,733,['n'],1,right,['1'],6,252,[-0.0491525],98,47,medium,plus,dotcolour,beta,,,65,18,V,R,
198,72,30,4,1,47,33,733,['c'],1,left,['1'],6,326,[0.09328172],99,47,medium,plus,dotcolour,beta,,,65,18,V,R,
199,73,31,4,1,44,36,548,['n'],0,left,['1'],6,324,[-0.01385847],90,44,hard,plus,dotcolour,beta,,,65,18,V,R,
200,74,32,4,1,53,27,516,['n'],0,left,['1'],6,220,[-0.05766841],99,53,easy,plus,dotcolour,beta,,,65,18,V,R,
201,75,33,4,1,36,44,516,['n'],1,right,['2'],5,256,[0.00203323],87,44,hard,plus,dotcolour,beta,,,65,18,V,R,
202,76,34,4,1,47,33,581,['n'],0,left,['1'],6,151,[-0.08203322],100,47,medium,plus,dotcolour,beta,,,65,18,V,R,
203,77,35,4,1,44,36,998,['c'],1,left,['2'],5,306,[0.06637145],98,44,hard,plus,dotcolour,beta,,,65,18,V,R,
204,78,36,4,1,27,53,533,['n'],1,right,['2'],5,266,[-0.06933156],99,53,easy,plus,dotcolour,beta,,,65,18,V,R,
205,79,37,4,1,47,33,866,['c'],1,left,['2'],5,270,[0.10239725],100,47,medium,plus,dotcolour,beta,,,65,18,V,R,
206,80,38,4,1,47,33,548,['n'],0,left,['2'],5,222,[0.01585856],82,47,medium,plus,dotcolour,beta,,,65,18,V,R,
207,81,39,4,1,44,36,866,['n'],0,left,['2'],5,187,[-0.08246104],100,44,hard,plus,dotcolour,beta,,,65,18,V,R,
208,82,40,4,1,47,33,1032,['n'],0,left,['2'],5,165,[-0.10322951],100,47,medium,plus,dotcolour,beta,,,65,18,V,R,
209,83,41,4,1,53,27,948,['c'],1,left,['2'],5,144,[0.11846704],100,53,easy,plus,dotcolour,beta,,,65,18,V,R,
210,84,0,5,1,47,33,933,['c'],1,left,['2'],5,251,[0.04432578],97,47,medium,plus,dotcolour,beta,,,65,18,V,R,
211,85,1,5,1,44,36,514,['n'],0,left,['2'],5,166,[-0.02843423],98,44,hard,plus,dotcolour,beta,,,65,18,V,R,
212,86,2,5,1,44,36,817,['c'],1,left,['2'],5,279,[0.00954091],90,44,hard,plus,dotcolour,beta,,,65,18,V,R,
213,87,3,5,1,36,44,565,['n'],1,right,['2'],5,167,[-0.04186653],99,44,hard,plus,dotcolour,beta,,,65,18,V,R,
214,88,4,5,1,33,47,533,['c'],0,right,['2'],5,172,[0.08451464],100,47,medium,plus,dotcolour,beta,,,65,18,V,R,
215,89,5,5,1,44,36,615,['n'],0,left,['2'],5,173,[-0.07666556],100,44,hard,plus,dotcolour,beta,,,65,18,V,R,
216,90,6,5,1,44,36,565,['n'],0,left,['2'],5,129,[-0.06481508],100,44,hard,plus,dotcolour,beta,,,65,18,V,R,
217,91,7,5,1,27,53,481,['n'],1,right,['2'],5,170,[-0.06048447],99,53,easy,plus,dotcolour,beta,,,65,18,V,R,
218,92,8,5,1,53,27,631,['c'],1,left,['2'],5,179,[0.09725301],100,53,easy,plus,dotcolour,beta,,,65,18,V,R,
219,93,9,5,1,36,44,566,['n'],1,right,['2'],5,182,[-0.06758723],99,44,hard,plus,dotcolour,beta,,,65,18,V,R,
220,94,10,5,1,27,53,633,['n'],1,right,['2'],5,199,[-0.13586271],100,53,easy,plus,dotcolour,beta,,,65,18,V,R,
221,95,11,5,1,44,36,748,['n'],0,left,['2'],5,162,[-0.06914872],100,44,hard,plus,dotcolour,beta,,,65,18,V,R,
222,96,12,5,1,53,27,597,['n'],0,left,['2'],5,157,[-0.07795522],100,53,easy,plus,dotcolour,beta,,,65,18,V,R,
223,97,13,5,1,47,33,682,['n'],0,left,['2'],5,172,[-0.06604468],99,47,medium,plus,dotcolour,beta,,,65,18,V,R,
224,98,14,5,1,47,33,383,['n'],0,left,['2'],5,216,[0.01240583],84,47,medium,plus,dotcolour,beta,,,65,18,V,R,
225,99,15,5,1,27,53,498,['n'],1,right,['2'],5,188,[-0.10470201],100,53,easy,plus,dotcolour,beta,,,65,18,V,R,
226,100,16,5,1,36,44,732,['c'],0,right,['2'],5,161,[-0.00338632],91,44,hard,plus,dotcolour,beta,,,65,18,V,R,
227,101,17,5,1,44,36,782,['c'],1,left,['2'],5,172,[0.13289749],100,44,hard,plus,dotcolour,beta,,,65,18,V,R,
228,102,18,5,1,27,53,498,['n'],1,right,['1'],6,218,[-0.10656365],100,53,easy,plus,dotcolour,beta,,,65,18,V,R,
229,103,19,5,1,47,33,749,['n'],0,left,['1'],6,205,[-0.08798814],100,47,medium,plus,dotcolour,beta,,,65,18,V,R,
230,104,20,5,1,33,47,983,['n'],1,right,['2'],5,471,[-0.07051209],96,47,medium,plus,dotcolour,beta,,,65,18,V,R,
231,105,21,5,1,36,44,466,['c'],0,right,['2'],5,106,[0.06785587],100,44,hard,plus,dotcolour,beta,,,65,18,V,R,
232,106,22,5,1,33,47,265,['n'],1,right,['1'],6,268,[-0.02205515],94,47,medium,plus,dotcolour,beta,,,65,18,V,R,
233,107,23,5,1,53,27,349,['n'],0,left,['0'],1,501,[0.06926549],41,53,easy,plus,dotcolour,beta,,,65,18,V,R,
234,108,24,5,1,47,33,1030,['c'],1,left,['2'],5,345,[0.17943104],100,47,medium,plus,dotcolour,beta,,,65,18,V,R,
235,109,25,5,1,47,33,1382,['c'],1,left,['1'],6,549,[0.16793493],100,47,medium,plus,dotcolour,beta,,,65,18,V,R,
236,110,26,5,1,33,47,17,['c'],0,right,['1'],6,832,[0.01844427],81,47,medium,plus,dotcolour,beta,,,65,18,V,R,
237,111,27,5,1,53,27,515,['n'],0,left,['0'],1,476,[0.04417313],57,53,easy,plus,dotcolour,beta,,,65,18,V,R,
238,112,28,5,1,36,44,316,['c'],0,right,['3'],4,461,[-0.06321667],45,44,hard,plus,dotcolour,beta,,,65,18,V,R,
239,113,29,5,1,36,44,999,['n'],1,right,['2'],5,556,[-0.0698712],95,44,hard,plus,dotcolour,beta,,,65,18,V,R,
240,114,30,5,1,27,53,299,['c'],0,right,['0'],1,234,[0.02508071],95,53,easy,plus,dotcolour,beta,,,65,18,V,R,
241,115,31,5,1,33,47,1915,['c'],0,right,['2'],5,310,[-0.01754222],77,47,medium,plus,dotcolour,beta,,,65,18,V,R,
242,116,32,5,1,44,36,232,['c'],1,left,['2'],5,129,[0.08094248],100,44,hard,plus,dotcolour,beta,,,65,18,V,R,
243,117,33,5,1,27,53,4365,['c'],0,right,['3'],4,470,[0.03674017],92,53,easy,plus,dotcolour,beta,,,65,18,V,R,
244,118,34,5,1,53,27,20,['c'],1,left,['0'],1,429,[0.12063348],99,53,easy,plus,dotcolour,beta,,,65,18,V,R,
245,119,35,5,1,36,44,29,['c'],0,right,['3'],4,21,[0.06492242],100,44,hard,plus,dotcolour,beta,,,65,18,V,R,
246,120,36,5,1,27,53,1733,['c'],0,right,['3'],4,768,[0.0447252],89,53,easy,plus,dotcolour,beta,,,65,18,V,R,
247,121,37,5,1,53,27,247,['n'],0,left,['3'],4,233,[-0.035611],97,53,easy,plus,dotcolour,beta,,,65,18,V,R,
248,122,38,5,1,47,33,597,['c'],1,left,['3'],4,137,[0.09492923],100,47,medium,plus,dotcolour,beta,,,65,18,V,R,
249,123,39,5,1,53,27,583,['n'],0,left,['3'],4,613,[0.0784852],37,53,easy,plus,dotcolour,beta,,,65,18,V,R,
250,124,40,5,1,33,47,297,['n'],1,right,['3'],4,602,[-0.03817786],90,47,medium,plus,dotcolour,beta,,,65,18,V,R,
251,125,41,5,1,33,47,215,['n'],1,right,['3'],4,427,[-0.06215093],96,47,medium,plus,dotcolour,beta,,,65,18,V,R,
252,0,0,6,2,44,36,716,['n'],0,left,['3'],4,843,[-0.00204897],26,44,hard,minus,dotcolour,beta,,,65,18,V,R,
253,1,1,6,2,53,27,333,['n'],0,left,['3'],4,309,[0.05413892],3,53,easy,minus,dotcolour,beta,,,65,18,V,R,
254,2,2,6,2,27,53,533,['n'],1,right,['3'],4,285,[-0.10512576],84,53,easy,minus,dotcolour,beta,,,65,18,V,R,
255,3,3,6,2,44,36,733,['c'],1,left,['3'],4,254,[0.08862561],77,44,hard,minus,dotcolour,beta,,,65,18,V,R,
256,4,4,6,2,47,33,449,['c'],1,left,['2'],5,202,[0.13940008],97,47,medium,minus,dotcolour,beta,,,65,18,V,R,
257,5,5,6,2,53,27,20,['n'],0,left,['0'],1,116,[-0.06729121],65,53,easy,minus,dotcolour,beta,,,65,18,V,R,
258,6,6,6,2,27,53,1198,['c'],0,right,['0'],1,752,[-0.17127602],1,53,easy,minus,dotcolour,beta,,,65,18,V,R,
259,7,7,6,2,33,47,60,['n'],1,right,['1'],6,187,[-0.01911441],18,47,medium,minus,dotcolour,beta,,,65,18,V,R,
260,8,8,6,2,47,33,19,['n'],0,left,['0'],1,237,[-0.05090999],46,47,medium,minus,dotcolour,beta,,,65,18,V,R,
261,9,9,6,2,53,27,92,['n'],0,left,['0'],1,84,[-0.05171581],44,53,easy,minus,dotcolour,beta,,,65,18,V,R,
262,10,10,6,2,36,44,281,['c'],0,right,['3'],4,183,[0.04806558],42,44,hard,minus,dotcolour,beta,,,65,18,V,R,
263,11,11,6,2,44,36,317,['c'],1,left,['1'],6,164,[0.12734412],96,44,hard,minus,dotcolour,beta,,,65,18,V,R,
264,12,12,6,2,33,47,632,['c'],0,right,['1'],6,214,[0.02760576],25,47,medium,minus,dotcolour,beta,,,65,18,V,R,
265,13,13,6,2,27,53,916,['n'],1,right,['1'],6,225,[-0.05937966],54,53,easy,minus,dotcolour,beta,,,65,18,V,R,
266,14,14,6,2,44,36,483,['c'],1,left,['1'],6,183,[0.11703498],93,44,hard,minus,dotcolour,beta,,,65,18,V,R,
267,15,15,6,2,27,53,315,['n'],1,right,['0'],1,139,[-0.08597097],81,53,easy,minus,dotcolour,beta,,,65,18,V,R,
268,16,16,6,2,47,33,22,['c'],1,left,['1'],6,39,[0.08311973],93,47,medium,minus,dotcolour,beta,,,65,18,V,R,
269,17,17,6,2,53,27,300,['n'],0,left,['8'],3,171,[-0.05364779],48,53,easy,minus,dotcolour,beta,,,65,18,V,R,
270,18,18,6,2,44,36,316,['c'],1,left,['1'],6,177,[0.07348205],68,44,hard,minus,dotcolour,beta,,,65,18,V,R,
271,19,19,6,2,33,47,833,['n'],1,right,['0'],1,178,[-0.06808532],63,47,medium,minus,dotcolour,beta,,,65,18,V,R,
272,20,20,6,2,47,33,107,['c'],1,left,['1'],6,155,[0.16984206],99,47,medium,minus,dotcolour,beta,,,65,18,V,R,
273,21,21,6,2,27,53,1932,['n'],1,right,['1'],6,74,[-0.10539043],96,53,easy,minus,dotcolour,beta,,,65,18,V,R,
274,22,22,6,2,47,33,315,['n'],0,left,['1'],6,211,[-0.02575712],24,47,medium,minus,dotcolour,beta,,,65,18,V,R,
275,23,23,6,2,53,27,317,['c'],1,left,['1'],6,247,[0.21043227],100,53,easy,minus,dotcolour,beta,,,65,18,V,R,
276,24,24,6,2,36,44,598,['n'],1,right,['0'],1,230,[-0.07706871],69,44,hard,minus,dotcolour,beta,,,65,18,V,R,
277,25,25,6,2,36,44,783,['c'],0,right,['0'],1,295,[0.0671585],59,44,hard,minus,dotcolour,beta,,,65,18,V,R,
278,26,26,6,2,27,53,19,['n'],1,right,['2'],5,52,[-0.04631964],33,53,easy,minus,dotcolour,beta,,,65,18,V,R,
279,27,27,6,2,47,33,109,['n'],0,left,['1'],6,76,[-0.08550976],88,47,medium,minus,dotcolour,beta,,,65,18,V,R,
280,28,28,6,2,33,47,266,['n'],1,right,['1'],6,175,[-0.10208241],88,47,medium,minus,dotcolour,beta,,,65,18,V,R,
281,29,29,6,2,36,44,249,['n'],1,right,['1'],6,255,[-0.09598129],81,44,hard,minus,dotcolour,beta,,,65,18,V,R,
282,30,30,6,2,53,27,332,['c'],1,left,['2'],5,129,[0.06273595],59,53,easy,minus,dotcolour,beta,,,65,18,V,R,
283,31,31,6,2,36,44,599,['c'],0,right,['1'],6,557,[0.16259212],93,44,hard,minus,dotcolour,beta,,,65,18,V,R,
284,32,32,6,2,44,36,333,['c'],1,left,['1'],6,146,[0.07877184],75,44,hard,minus,dotcolour,beta,,,65,18,V,R,
285,33,33,6,2,53,27,333,['n'],0,left,['1'],6,160,[-0.12480615],96,53,easy,minus,dotcolour,beta,,,65,18,V,R,
286,34,34,6,2,36,44,414,['n'],1,right,['1'],6,106,[-0.0022496],5,44,hard,minus,dotcolour,beta,,,65,18,V,R,
287,35,35,6,2,33,47,565,['n'],1,right,['2'],5,144,[-0.11734121],95,47,medium,minus,dotcolour,beta,,,65,18,V,R,
288,36,36,6,2,47,33,448,['n'],0,left,['1'],6,161,[-0.02907669],23,47,medium,minus,dotcolour,beta,,,65,18,V,R,
289,37,37,6,2,27,53,68,['c'],0,right,['1'],6,52,[0.06002431],59,53,easy,minus,dotcolour,beta,,,65,18,V,R,
290,38,38,6,2,36,44,249,['n'],1,right,['9'],2,209,[-0.16894846],99,44,hard,minus,dotcolour,beta,,,65,18,V,R,
291,39,39,6,2,33,47,298,['c'],0,right,['1'],6,222,[0.00423908],12,47,medium,minus,dotcolour,beta,,,65,18,V,R,
292,40,40,6,2,33,47,198,['n'],1,right,['0'],1,280,[-0.10733759],85,47,medium,minus,dotcolour,beta,,,65,18,V,R,
293,41,41,6,2,44,36,417,['n'],0,left,['1'],6,236,[-0.12140128],92,44,hard,minus,dotcolour,beta,,,65,18,V,R,
294,42,0,7,2,27,53,467,['n'],1,right,['2'],5,297,[-0.08195195],71,53,easy,minus,dotcolour,beta,,,65,18,V,R,
295,43,1,7,2,47,33,549,['n'],0,left,['1'],6,241,[-0.03218363],30,47,medium,minus,dotcolour,beta,,,65,18,V,R,
296,44,2,7,2,53,27,398,['n'],0,left,['0'],1,296,[-0.10861855],85,53,easy,minus,dotcolour,beta,,,65,18,V,R,
297,45,3,7,2,44,36,349,['c'],1,left,['1'],6,200,[0.08466138],76,44,hard,minus,dotcolour,beta,,,65,18,V,R,
298,46,4,7,2,33,47,383,['c'],0,right,['9'],2,153,[0.06663572],62,47,medium,minus,dotcolour,beta,,,65,18,V,R,
299,47,5,7,2,44,36,299,['c'],1,left,['0'],1,57,[0.08042934],87,44,hard,minus,dotcolour,beta,,,65,18,V,R,
300,48,6,7,2,27,53,71,['n'],1,right,['1'],6,168,[-0.08325018],77,53,easy,minus,dotcolour,beta,,,65,18,V,R,
301,49,7,7,2,44,36,32,['c'],1,left,['1'],6,34,[0.06571724],73,44,hard,minus,dotcolour,beta,,,65,18,V,R,
302,50,8,7,2,47,33,81,['n'],0,left,"['0', '3']",1,67,[-0.03351182],18,47,medium,minus,dotcolour,beta,,,65,18,V,R,
303,51,9,7,2,36,44,732,['c'],0,right,['1'],6,659,[0.1133239],78,44,hard,minus,dotcolour,beta,,,65,18,V,R,
304,52,10,7,2,36,44,400,['c'],0,right,['1'],6,186,[0.04279321],37,44,hard,minus,dotcolour,beta,,,65,18,V,R,
305,53,11,7,2,27,53,331,['c'],0,right,['1'],6,158,[0.05438135],49,53,easy,minus,dotcolour,beta,,,65,18,V,R,
306,54,12,7,2,44,36,349,['c'],1,left,['1'],6,43,[0.04418136],27,44,hard,minus,dotcolour,beta,,,65,18,V,R,
307,55,13,7,2,47,33,483,['n'],0,left,['0'],1,103,[-0.05366688],47,47,medium,minus,dotcolour,beta,,,65,18,V,R,
308,56,14,7,2,53,27,449,['c'],1,left,['1'],6,201,[0.09600154],84,53,easy,minus,dotcolour,beta,,,65,18,V,R,
309,57,15,7,2,27,53,565,['n'],1,right,['1'],6,196,[-0.10993593],90,53,easy,minus,dotcolour,beta,,,65,18,V,R,
310,58,16,7,2,36,44,398,['c'],0,right,['3'],4,85,[0.08346246],85,44,hard,minus,dotcolour,beta,,,65,18,V,R,
311,59,17,7,2,44,36,780,['n'],0,left,['8'],3,132,[-0.12310504],97,44,hard,minus,dotcolour,beta,,,65,18,V,R,
312,60,18,7,2,36,44,316,['c'],0,right,['3'],4,11,[0.06820529],90,44,hard,minus,dotcolour,beta,,,65,18,V,R,
313,61,19,7,2,33,47,298,['n'],1,right,['0'],1,160,[-0.05876735],54,47,medium,minus,dotcolour,beta,,,65,18,V,R,
314,62,20,7,2,47,33,432,['n'],0,left,"['0', '9', '1']",1,257,[-0.07058074],63,47,medium,minus,dotcolour,beta,,,65,18,V,R,
315,63,21,7,2,27,53,367,['c'],0,right,"['0', '1', '9']",1,274,[0.02221254],24,53,easy,minus,dotcolour,beta,,,65,18,V,R,
316,64,22,7,2,36,44,297,['n'],1,right,"['0', '3']",1,180,[-0.07095546],66,44,hard,minus,dotcolour,beta,,,65,18,V,R,
317,65,23,7,2,33,47,315,['c'],0,right,['1'],6,168,[-0.00530783],6,47,medium,minus,dotcolour,beta,,,65,18,V,R,
318,66,24,7,2,36,44,365,['c'],0,right,['8'],3,13,[0.06292113],76,44,hard,minus,dotcolour,beta,,,65,18,V,R,
319,67,25,7,2,33,47,315,['c'],0,right,['8'],3,104,[0.02160191],13,47,medium,minus,dotcolour,beta,,,65,18,V,R,
320,68,26,7,2,33,47,381,['c'],0,right,['8'],3,119,[0.11786432],96,47,medium,minus,dotcolour,beta,,,65,18,V,R,
321,69,27,7,2,27,53,382,['n'],1,right,['0'],1,236,[-0.04016036],36,53,easy,minus,dotcolour,beta,,,65,18,V,R,
322,70,28,7,2,44,36,766,['c'],1,left,['0'],1,268,[0.0557811],50,44,hard,minus,dotcolour,beta,,,65,18,V,R,
323,71,29,7,2,44,36,665,['c'],1,left,['8'],3,41,[0.06899571],77,44,hard,minus,dotcolour,beta,,,65,18,V,R,
324,72,30,7,2,27,53,367,['c'],0,right,['3'],4,98,[0.05564286],50,53,easy,minus,dotcolour,beta,,,65,18,V,R,
325,73,31,7,2,47,33,200,['n'],0,left,['0'],1,215,[-0.120131],92,47,medium,minus,dotcolour,beta,,,65,18,V,R,
326,74,32,7,2,33,47,532,['c'],0,right,['0'],1,443,[0.02899586],33,47,medium,minus,dotcolour,beta,,,65,18,V,R,
327,75,33,7,2,47,33,248,['n'],0,left,['8'],3,128,[-0.05871885],54,47,medium,minus,dotcolour,beta,,,65,18,V,R,
328,76,34,7,2,53,27,648,['n'],0,left,['2'],5,322,[-0.00316793],16,53,easy,minus,dotcolour,beta,,,65,18,V,R,
329,77,35,7,2,33,47,1515,['n'],1,right,['3'],4,137,[-0.04536435],38,47,medium,minus,dotcolour,beta,,,65,18,V,R,
330,78,36,7,2,36,44,265,['n'],1,right,['3'],4,258,[-0.16772914],98,44,hard,minus,dotcolour,beta,,,65,18,V,R,
331,79,37,7,2,53,27,499,['c'],1,left,['2'],5,141,[0.08034475],77,53,easy,minus,dotcolour,beta,,,65,18,V,R,
332,80,38,7,2,53,27,566,['n'],0,left,['2'],5,394,[0.00806956],14,53,easy,minus,dotcolour,beta,,,65,18,V,R,
333,81,39,7,2,53,27,499,['n'],0,left,['2'],5,159,[-0.12468469],96,53,easy,minus,dotcolour,beta,,,65,18,V,R,
334,82,40,7,2,47,33,282,['c'],1,left,['2'],5,135,[0.04979147],43,47,medium,minus,dotcolour,beta,,,65,18,V,R,
335,83,41,7,2,53,27,397,['n'],0,left,['2'],5,82,[-0.03554878],22,53,easy,minus,dotcolour,beta,,,65,18,V,R,
336,84,0,8,2,36,44,334,['n'],1,right,['2'],5,102,[-0.11401265],96,44,hard,minus,dotcolour,beta,,,65,18,V,R,
337,85,1,8,2,53,27,748,['c'],1,left,['0'],1,421,[0.14728705],93,53,easy,minus,dotcolour,beta,,,65,18,V,R,
338,86,2,8,2,44,36,45,['n'],0,left,['1'],6,61,[-0.07185223],77,44,hard,minus,dotcolour,beta,,,65,18,V,R,
339,87,3,8,2,27,53,315,['c'],0,right,['2'],5,135,[0.08796034],83,53,easy,minus,dotcolour,beta,,,65,18,V,R,
340,88,4,8,2,27,53,298,['n'],1,right,['0'],1,231,[-0.08983546],78,53,easy,minus,dotcolour,beta,,,65,18,V,R,
341,89,5,8,2,36,44,191,['c'],0,right,"['1', '2']",6,199,[0.12801302],95,44,hard,minus,dotcolour,beta,,,65,18,V,R,
342,90,6,8,2,53,27,466,['n'],0,left,['2'],5,134,[-0.04587857],38,53,easy,minus,dotcolour,beta,,,65,18,V,R,
343,91,7,8,2,27,53,363,['c'],0,right,['2'],5,43,[0.06105957],62,53,easy,minus,dotcolour,beta,,,65,18,V,R,
344,92,8,8,2,53,27,382,['n'],0,left,['2'],5,139,[-0.04979009],43,53,easy,minus,dotcolour,beta,,,65,18,V,R,
345,93,9,8,2,44,36,932,['c'],1,left,"['9', '2']",2,211,[0.03494036],31,44,hard,minus,dotcolour,beta,,,65,18,V,R,
346,94,10,8,2,47,33,365,['c'],1,left,['1'],6,140,[0.05249485],46,47,medium,minus,dotcolour,beta,,,65,18,V,R,
347,95,11,8,2,47,33,315,['n'],0,left,['1'],6,139,[-0.08083741],77,47,medium,minus,dotcolour,beta,,,65,18,V,R,
348,96,12,8,2,47,33,347,['c'],1,left,['1'],6,97,[0.05751318],53,47,medium,minus,dotcolour,beta,,,65,18,V,R,
349,97,13,8,2,36,44,299,['n'],1,right,['1'],6,147,[-0.04762931],41,44,hard,minus,dotcolour,beta,,,65,18,V,R,
350,98,14,8,2,27,53,265,['c'],0,right,['2'],5,283,[-0.03703913],4,53,easy,minus,dotcolour,beta,,,65,18,V,R,
351,99,15,8,2,53,27,1347,['c'],1,left,['0'],1,403,[0.12098981],86,53,easy,minus,dotcolour,beta,,,65,18,V,R,
352,100,16,8,2,27,53,363,['n'],1,right,['1'],6,670,[-0.16190564],91,53,easy,minus,dotcolour,beta,,,65,18,V,R,
353,101,17,8,2,36,44,315,['c'],0,right,['1'],6,327,[0.07037693],61,44,hard,minus,dotcolour,beta,,,65,18,V,R,
354,102,18,8,2,44,36,180,['c'],1,left,['1'],6,267,[0.11356761],88,44,hard,minus,dotcolour,beta,,,65,18,V,R,
355,103,19,8,2,33,47,298,['n'],1,right,['2'],5,222,[-0.07015267],64,47,medium,minus,dotcolour,beta,,,65,18,V,R,
356,104,20,8,2,53,27,515,['c'],1,left,['1'],6,201,[0.08231265],75,53,easy,minus,dotcolour,beta,,,65,18,V,R,
357,105,21,8,2,47,33,482,['n'],0,left,['1'],6,223,[-0.02252389],22,47,medium,minus,dotcolour,beta,,,65,18,V,R,
358,106,22,8,2,44,36,366,['c'],1,left,['1'],6,217,[0.10968837],89,44,hard,minus,dotcolour,beta,,,65,18,V,R,
359,107,23,8,2,47,33,398,['n'],0,left,['1'],6,209,[-0.06672428],61,47,medium,minus,dotcolour,beta,,,65,18,V,R,
360,108,24,8,2,47,33,398,['c'],1,left,['1'],6,154,[0.06469255],60,47,medium,minus,dotcolour,beta,,,65,18,V,R,
361,109,25,8,2,33,47,448,['n'],1,right,['2'],5,171,[-0.05769096],52,47,medium,minus,dotcolour,beta,,,65,18,V,R,
362,110,26,8,2,33,47,415,['n'],1,right,['2'],5,164,[-0.09038689],82,47,medium,minus,dotcolour,beta,,,65,18,V,R,
363,111,27,8,2,33,47,482,['c'],0,right,['2'],5,244,[0.10001596],83,47,medium,minus,dotcolour,beta,,,65,18,V,R,
364,112,28,8,2,33,47,332,['n'],1,right,['2'],5,206,[-0.09449954],82,47,medium,minus,dotcolour,beta,,,65,18,V,R,
365,113,29,8,2,36,44,151,['c'],0,right,['2'],5,191,[0.03093761],27,44,hard,minus,dotcolour,beta,,,65,18,V,R,
366,114,30,8,2,44,36,264,['c'],1,left,['3'],4,206,[0.06074383],55,44,hard,minus,dotcolour,beta,,,65,18,V,R,
367,115,31,8,2,27,53,110,['n'],1,right,['2'],5,102,[-0.03956614],29,53,easy,minus,dotcolour,beta,,,65,18,V,R,
368,116,32,8,2,36,44,816,['c'],0,right,['9'],2,691,[-0.04330526],11,44,hard,minus,dotcolour,beta,,,65,18,V,R,
369,117,33,8,2,27,53,2765,['c'],0,right,['1'],6,362,[-0.02866746],7,53,easy,minus,dotcolour,beta,,,65,18,V,R,
370,118,34,8,2,53,27,347,['n'],0,left,['1'],6,334,[-0.07088918],62,53,easy,minus,dotcolour,beta,,,65,18,V,R,
371,119,35,8,2,33,47,281,['c'],0,right,['2'],5,167,[0.06971629],65,47,medium,minus,dotcolour,beta,,,65,18,V,R,
372,120,36,8,2,44,36,57,['n'],0,left,['0'],1,458,[-0.02743012],32,44,hard,minus,dotcolour,beta,,,65,18,V,R,
373,121,37,8,2,53,27,716,['c'],1,left,['1'],6,324,[0.18610044],98,53,easy,minus,dotcolour,beta,,,65,18,V,R,
374,122,38,8,2,33,47,632,['n'],1,right,['2'],5,231,[-0.09482213],81,47,medium,minus,dotcolour,beta,,,65,18,V,R,
375,123,39,8,2,47,33,176,['n'],0,left,['2'],5,126,[-0.03860371],30,47,medium,minus,dotcolour,beta,,,65,18,V,R,
376,124,40,8,2,44,36,1917,['n'],0,left,['2'],5,126,[-0.10635231],93,44,hard,minus,dotcolour,beta,,,65,18,V,R,
377,125,41,8,2,36,44,231,['c'],0,right,['2'],5,96,[0.08938775],88,44,hard,minus,dotcolour,beta,,,65,18,V,R,
378,0,0,9,3,33,47,883,['n'],1,right,['2'],5,146,[-0.05485391],99,47,medium,plus,dotcolour,beta,,,65,18,V,R,
379,1,1,9,3,33,47,433,['c'],0,right,['2'],5,148,[0.0361162],99,47,medium,plus,dotcolour,beta,,,65,18,V,R,
380,2,2,9,3,53,27,333,['n'],0,left,['2'],5,123,[-0.03627587],99,53,easy,plus,dotcolour,beta,,,65,18,V,R,
381,3,3,9,3,36,44,283,['n'],1,right,['2'],5,146,[-0.13810114],100,44,hard,plus,dotcolour,beta,,,65,18,V,R,
382,4,4,9,3,27,53,248,['n'],1,right,['3'],4,556,[-0.02769446],88,53,easy,plus,dotcolour,beta,,,65,18,V,R,
383,5,5,9,3,47,33,815,['c'],1,left,['2'],5,709,[0.15257309],99,47,medium,plus,dotcolour,beta,,,65,18,V,R,
384,6,6,9,3,33,47,616,['n'],1,right,['2'],5,146,[-0.10837525],100,47,medium,plus,dotcolour,beta,,,65,18,V,R,
385,7,7,9,3,44,36,531,['c'],1,left,['2'],5,152,[0.07583739],100,44,hard,plus,dotcolour,beta,,,65,18,V,R,
386,8,8,9,3,33,47,332,['c'],0,right,['2'],5,173,[-0.04660242],60,47,medium,plus,dotcolour,beta,,,65,18,V,R,
387,9,9,9,3,53,27,500,['n'],0,left,['3'],4,148,[-0.01201769],96,53,easy,plus,dotcolour,beta,,,65,18,V,R,
388,10,10,9,3,47,33,599,['c'],1,left,['3'],4,207,[0.09971584],100,47,medium,plus,dotcolour,beta,,,65,18,V,R,
389,11,11,9,3,33,47,449,['c'],0,right,['3'],4,1710,[-0.44158911],0,47,medium,plus,dotcolour,beta,,,65,18,V,R,
390,12,12,9,3,36,44,105,['n'],1,right,['1'],6,298,[-0.08468327],99,44,hard,plus,dotcolour,beta,,,65,18,V,R,
391,13,13,9,3,27,53,281,['n'],1,right,['1'],6,140,[-0.06761584],100,53,easy,plus,dotcolour,beta,,,65,18,V,R,
392,14,14,9,3,53,27,152,['n'],0,left,['2'],5,184,[-0.08337197],100,53,easy,plus,dotcolour,beta,,,65,18,V,R,
393,15,15,9,3,53,27,265,['c'],1,left,['2'],5,111,[0.08519282],100,53,easy,plus,dotcolour,beta,,,65,18,V,R,
394,16,16,9,3,53,27,298,['n'],0,left,['1'],6,135,[-0.00993592],96,53,easy,plus,dotcolour,beta,,,65,18,V,R,
395,17,17,9,3,33,47,216,['c'],0,right,['2'],5,171,[0.04054623],98,47,medium,plus,dotcolour,beta,,,65,18,V,R,
396,18,18,9,3,44,36,314,['n'],0,left,['8'],3,97,[-0.07952878],100,44,hard,plus,dotcolour,beta,,,65,18,V,R,
397,19,19,9,3,27,53,249,['c'],0,right,['1'],6,189,[0.0198689],96,53,easy,plus,dotcolour,beta,,,65,18,V,R,
398,20,20,9,3,47,33,515,['c'],1,left,['3'],4,50,[0.06715067],100,47,medium,plus,dotcolour,beta,,,65,18,V,R,
399,21,21,9,3,27,53,281,['c'],0,right,['2'],5,86,[0.04961795],100,53,easy,plus,dotcolour,beta,,,65,18,V,R,
400,22,22,9,3,47,33,315,['n'],0,left,['1'],6,63,[-0.06728151],100,47,medium,plus,dotcolour,beta,,,65,18,V,R,
401,23,23,9,3,44,36,398,['c'],1,left,['3'],4,85,[0.05407442],100,44,hard,plus,dotcolour,beta,,,65,18,V,R,
402,24,24,9,3,36,44,348,['n'],1,right,['9'],2,93,[-0.05756715],100,44,hard,plus,dotcolour,beta,,,65,18,V,R,
403,25,25,9,3,27,53,831,['c'],0,right,['9'],2,730,[-0.08361095],36,53,easy,plus,dotcolour,beta,,,65,18,V,R,
404,26,26,9,3,44,36,482,['n'],0,left,['3'],4,114,[-0.10153755],100,44,hard,plus,dotcolour,beta,,,65,18,V,R,
405,27,27,9,3,47,33,466,['n'],0,left,['2'],5,156,[-0.07824093],100,47,medium,plus,dotcolour,beta,,,65,18,V,R,
406,28,28,9,3,36,44,233,['c'],0,right,['2'],5,158,[0.06278186],100,44,hard,plus,dotcolour,beta,,,65,18,V,R,
407,29,29,9,3,47,33,215,['n'],0,left,['2'],5,136,[-0.04606438],99,47,medium,plus,dotcolour,beta,,,65,18,V,R,
408,30,30,9,3,47,33,265,['c'],1,left,['3'],4,50,[0.05337406],100,47,medium,plus,dotcolour,beta,,,65,18,V,R,
409,31,31,9,3,27,53,349,['c'],0,right,['3'],4,123,[0.06107337],100,53,easy,plus,dotcolour,beta,,,65,18,V,R,
410,32,32,9,3,36,44,315,['c'],0,right,['3'],4,123,[0.05243475],100,44,hard,plus,dotcolour,beta,,,65,18,V,R,
411,33,33,9,3,44,36,249,['c'],1,left,['1'],6,93,[0.10697852],100,44,hard,plus,dotcolour,beta,,,65,18,V,R,
412,34,34,9,3,53,27,215,['c'],1,left,['1'],6,82,[0.04653268],100,53,easy,plus,dotcolour,beta,,,65,18,V,R,
413,35,35,9,3,53,27,176,['c'],1,left,['1'],6,105,[0.10652925],100,53,easy,plus,dotcolour,beta,,,65,18,V,R,
414,36,36,9,3,27,53,265,['c'],0,right,['1'],6,171,[0.0300461],98,53,easy,plus,dotcolour,beta,,,65,18,V,R,
415,37,37,9,3,33,47,265,['c'],0,right,['1'],6,107,[0.03253418],99,47,medium,plus,dotcolour,beta,,,65,18,V,R,
416,38,38,9,3,44,36,265,['c'],1,left,['1'],6,54,[0.11390608],100,44,hard,plus,dotcolour,beta,,,65,18,V,R,
417,39,39,9,3,36,44,157,['c'],0,right,['1'],6,101,[0.08935821],100,44,hard,plus,dotcolour,beta,,,65,18,V,R,
418,40,40,9,3,36,44,251,['c'],0,right,['1'],6,112,[0.07319254],100,44,hard,plus,dotcolour,beta,,,65,18,V,R,
419,41,41,9,3,44,36,187,['c'],1,left,['1'],6,133,[0.0417643],99,44,hard,plus,dotcolour,beta,,,65,18,V,R,
420,42,0,10,3,33,47,851,['n'],1,right,['3'],4,168,[-0.09718483],100,47,medium,plus,dotcolour,beta,,,65,18,V,R,
421,43,1,10,3,47,33,549,['c'],1,left,['2'],5,291,[0.06280663],98,47,medium,plus,dotcolour,beta,,,65,18,V,R,
422,44,2,10,3,36,44,383,['n'],1,right,['2'],5,329,[-0.12003906],100,44,hard,plus,dotcolour,beta,,,65,18,V,R,
423,45,3,10,3,27,53,700,['n'],1,right,['2'],5,538,[-0.06122012],95,53,easy,plus,dotcolour,beta,,,65,18,V,R,
424,46,4,10,3,53,27,599,['c'],1,left,['2'],5,245,[0.06168651],99,53,easy,plus,dotcolour,beta,,,65,18,V,R,
425,47,5,10,3,33,47,282,['n'],1,right,['2'],5,161,[-0.12249382],100,47,medium,plus,dotcolour,beta,,,65,18,V,R,
426,48,6,10,3,27,53,448,['n'],1,right,['2'],5,193,[-0.17670294],100,53,easy,plus,dotcolour,beta,,,65,18,V,R,
427,49,7,10,3,44,36,283,['n'],0,left,['2'],5,239,[-0.03636095],97,44,hard,plus,dotcolour,beta,,,65,18,V,R,
428,50,8,10,3,33,47,549,['c'],0,right,['9'],2,81,[0.07450698],100,47,medium,plus,dotcolour,beta,,,65,18,V,R,
429,51,9,10,3,47,33,414,['c'],1,left,['3'],4,95,[0.09302631],100,47,medium,plus,dotcolour,beta,,,65,18,V,R,
430,52,10,10,3,47,33,266,['n'],0,left,['2'],5,114,[-0.05971392],100,47,medium,plus,dotcolour,beta,,,65,18,V,R,
431,53,11,10,3,27,53,414,['c'],0,right,"['2', '1']",5,142,[-0.01092631],89,53,easy,plus,dotcolour,beta,,,65,18,V,R,
432,54,12,10,3,44,36,314,['c'],1,left,['1'],6,92,[0.03851933],100,44,hard,plus,dotcolour,beta,,,65,18,V,R,
433,55,13,10,3,33,47,849,['c'],0,right,['1'],6,160,[0.01867611],97,47,medium,plus,dotcolour,beta,,,65,18,V,R,
434,56,14,10,3,44,36,499,['c'],1,left,['2'],5,127,[0.09442203],100,44,hard,plus,dotcolour,beta,,,65,18,V,R,
435,57,15,10,3,36,44,451,['n'],1,right,['2'],5,128,[-0.0487009],99,44,hard,plus,dotcolour,beta,,,65,18,V,R,
436,58,16,10,3,44,36,566,['c'],1,left,['2'],5,141,[0.0486517],99,44,hard,plus,dotcolour,beta,,,65,18,V,R,
437,59,17,10,3,47,33,399,['n'],0,left,['2'],5,121,[-0.06539079],100,47,medium,plus,dotcolour,beta,,,65,18,V,R,
438,60,18,10,3,47,33,315,['c'],1,left,['1'],6,169,[0.13392591],100,47,medium,plus,dotcolour,beta,,,65,18,V,R,
439,61,19,10,3,36,44,317,['n'],1,right,['2'],5,119,[-0.12302627],100,44,hard,plus,dotcolour,beta,,,65,18,V,R,
440,62,20,10,3,53,27,332,['c'],1,left,['2'],5,214,[0.0824194],100,53,easy,plus,dotcolour,beta,,,65,18,V,R,
441,63,21,10,3,53,27,498,['n'],0,left,['2'],5,178,[-0.09345323],100,53,easy,plus,dotcolour,beta,,,65,18,V,R,
442,64,22,10,3,27,53,349,['c'],0,right,['3'],4,118,[0.11633205],100,53,easy,plus,dotcolour,beta,,,65,18,V,R,
443,65,23,10,3,53,27,415,['c'],1,left,['3'],4,106,[0.14255872],100,53,easy,plus,dotcolour,beta,,,65,18,V,R,
444,66,24,10,3,36,44,399,['c'],0,right,['1'],6,159,[0.07032439],100,44,hard,plus,dotcolour,beta,,,65,18,V,R,
445,67,25,10,3,27,53,366,['c'],0,right,['3'],4,116,[0.038857],99,53,easy,plus,dotcolour,beta,,,65,18,V,R,
446,68,26,10,3,53,27,365,['c'],1,left,['1'],6,281,[0.00578142],89,53,easy,plus,dotcolour,beta,,,65,18,V,R,
447,69,27,10,3,53,27,299,['c'],1,left,['1'],6,148,[0.12717973],100,53,easy,plus,dotcolour,beta,,,65,18,V,R,
448,70,28,10,3,33,47,432,['c'],0,right,['1'],6,150,[-0.00495502],91,47,medium,plus,dotcolour,beta,,,65,18,V,R,
449,71,29,10,3,36,44,281,['c'],0,right,['3'],4,133,[-0.01355485],89,44,hard,plus,dotcolour,beta,,,65,18,V,R,
450,72,30,10,3,36,44,700,['c'],0,right,['2'],5,149,[0.08528511],100,44,hard,plus,dotcolour,beta,,,65,18,V,R,
451,73,31,10,3,36,44,499,['n'],1,right,['8'],3,221,[-0.04187662],98,44,hard,plus,dotcolour,beta,,,65,18,V,R,
452,74,32,10,3,47,33,348,['c'],1,left,['1'],6,152,[0.10254207],100,47,medium,plus,dotcolour,beta,,,65,18,V,R,
453,75,33,10,3,44,36,432,['c'],1,left,['1'],6,90,[0.0618941],100,44,hard,plus,dotcolour,beta,,,65,18,V,R,
454,76,34,10,3,33,47,382,['c'],0,right,['3'],4,56,[0.07613881],100,47,medium,plus,dotcolour,beta,,,65,18,V,R,
455,77,35,10,3,33,47,233,['c'],0,right,['3'],4,127,[-0.01177484],90,47,medium,plus,dotcolour,beta,,,65,18,V,R,
456,78,36,10,3,44,36,263,['n'],0,left,['8'],3,80,[-0.03741633],100,44,hard,plus,dotcolour,beta,,,65,18,V,R,
457,79,37,10,3,27,53,398,['n'],1,right,['9'],2,61,[-0.14116061],100,53,easy,plus,dotcolour,beta,,,65,18,V,R,
458,80,38,10,3,47,33,84,['c'],1,left,['3'],4,36,[0.1044157],100,47,medium,plus,dotcolour,beta,,,65,18,V,R,
459,81,39,10,3,53,27,532,['c'],1,left,['3'],4,71,[0.08666329],100,53,easy,plus,dotcolour,beta,,,65,18,V,R,
460,82,40,10,3,44,36,565,['n'],0,left,['8'],3,150,[-0.10553268],100,44,hard,plus,dotcolour,beta,,,65,18,V,R,
461,83,41,10,3,27,53,315,['c'],0,right,['3'],4,77,[0.06914258],100,53,easy,plus,dotcolour,beta,,,65,18,V,R,
462,84,0,11,3,44,36,651,['n'],0,left,['2'],5,153,[-0.03655995],99,44,hard,plus,dotcolour,beta,,,65,18,V,R,
463,85,1,11,3,53,27,215,['c'],1,left,['1'],6,131,[0.08488255],100,53,easy,plus,dotcolour,beta,,,65,18,V,R,
464,86,2,11,3,53,27,333,['c'],1,left,['1'],6,130,[0.17943364],100,53,easy,plus,dotcolour,beta,,,65,18,V,R,
465,87,3,11,3,47,33,367,['n'],0,left,['9'],2,159,[-0.00534373],94,47,medium,plus,dotcolour,beta,,,65,18,V,R,
466,88,4,11,3,44,36,249,['c'],1,left,['3'],4,47,[0.06705078],100,44,hard,plus,dotcolour,beta,,,65,18,V,R,
467,89,5,11,3,44,36,334,['n'],0,left,['8'],3,18,[-0.06847852],100,44,hard,plus,dotcolour,beta,,,65,18,V,R,
468,90,6,11,3,47,33,1016,['n'],0,left,['9'],2,106,[-0.0322272],99,47,medium,plus,dotcolour,beta,,,65,18,V,R,
469,91,7,11,3,36,44,531,['c'],0,right,['3'],4,34,[0.07593426],100,44,hard,plus,dotcolour,beta,,,65,18,V,R,
470,92,8,11,3,47,33,932,['n'],0,left,['2'],5,517,[-0.03028041],90,47,medium,plus,dotcolour,beta,,,65,18,V,R,
471,93,9,11,3,53,27,415,['c'],1,left,['1'],6,136,[0.03026185],99,53,easy,plus,dotcolour,beta,,,65,18,V,R,
472,94,10,11,3,33,47,466,['n'],1,right,['9'],2,106,[-0.10566574],100,47,medium,plus,dotcolour,beta,,,65,18,V,R,
473,95,11,11,3,47,33,316,['c'],1,left,['1'],6,169,[0.07194601],100,47,medium,plus,dotcolour,beta,,,65,18,V,R,
474,96,12,11,3,36,44,299,['c'],0,right,['3'],4,56,[0.07235793],100,44,hard,plus,dotcolour,beta,,,65,18,V,R,
475,97,13,11,3,44,36,382,['c'],1,left,['3'],4,16,[0.07507438],100,44,hard,plus,dotcolour,beta,,,65,18,V,R,
476,98,14,11,3,33,47,265,['c'],0,right,['3'],4,118,[0.1022549],100,47,medium,plus,dotcolour,beta,,,65,18,V,R,
477,99,15,11,3,33,47,881,['c'],0,right,['2'],5,367,[0.06967005],98,47,medium,plus,dotcolour,beta,,,65,18,V,R,
478,100,16,11,3,44,36,815,['c'],1,left,"['9', '1']",2,241,[0.08986994],100,44,hard,plus,dotcolour,beta,,,65,18,V,R,
479,101,17,11,3,36,44,515,['c'],0,right,"['2', '1']",5,172,[0.05609098],99,44,hard,plus,dotcolour,beta,,,65,18,V,R,
480,102,18,11,3,36,44,882,['n'],1,right,['2'],5,66,[-0.10375716],100,44,hard,plus,dotcolour,beta,,,65,18,V,R,
481,103,19,11,3,27,53,683,['n'],1,right,"['1', '9', '8']",6,134,[-0.10745739],100,53,easy,plus,dotcolour,beta,,,65,18,V,R,
482,104,20,11,3,53,27,898,['c'],1,left,['1'],6,157,[0.08174108],100,53,easy,plus,dotcolour,beta,,,65,18,V,R,
483,105,21,11,3,27,53,633,['c'],0,right,['1'],6,111,[0.10048281],100,53,easy,plus,dotcolour,beta,,,65,18,V,R,
484,106,22,11,3,33,47,465,['c'],0,right,['3'],4,98,[0.05324054],100,47,medium,plus,dotcolour,beta,,,65,18,V,R,
485,107,23,11,3,27,53,615,['n'],1,right,['8'],3,94,[-0.10853359],100,53,easy,plus,dotcolour,beta,,,65,18,V,R,
486,108,24,11,3,44,36,964,['n'],0,left,['1'],6,213,[-0.0437793],98,44,hard,plus,dotcolour,beta,,,65,18,V,R,
487,109,25,11,3,47,33,382,['n'],0,left,"['9', '8']",2,223,[-0.10497489],100,47,medium,plus,dotcolour,beta,,,65,18,V,R,
488,110,26,11,3,47,33,466,['c'],1,left,['3'],4,84,[0.06866321],100,47,medium,plus,dotcolour,beta,,,65,18,V,R,
489,111,27,11,3,33,47,366,['n'],1,right,['3'],4,139,[-0.09263987],100,47,medium,plus,dotcolour,beta,,,65,18,V,R,
490,112,28,11,3,27,53,363,['n'],1,right,['3'],4,145,[-0.05569032],99,53,easy,plus,dotcolour,beta,,,65,18,V,R,
491,113,29,11,3,36,44,399,['n'],1,right,['3'],4,84,[-0.03788776],100,44,hard,plus,dotcolour,beta,,,65,18,V,R,
492,114,30,11,3,33,47,830,['c'],0,right,['3'],4,89,[0.09632895],100,47,medium,plus,dotcolour,beta,,,65,18,V,R,
493,115,31,11,3,36,44,215,['c'],0,right,['1'],6,101,[0.09186116],100,44,hard,plus,dotcolour,beta,,,65,18,V,R,
494,116,32,11,3,27,53,383,['c'],0,right,['3'],4,60,[0.04844032],100,53,easy,plus,dotcolour,beta,,,65,18,V,R,
495,117,33,11,3,27,53,233,['c'],0,right,['3'],4,97,[0.06068075],100,53,easy,plus,dotcolour,beta,,,65,18,V,R,
496,118,34,11,3,53,27,250,['c'],1,left,['3'],4,44,[0.05918927],100,53,easy,plus,dotcolour,beta,,,65,18,V,R,
497,119,35,11,3,53,27,382,['n'],0,left,['3'],4,132,[-0.03719429],99,53,easy,plus,dotcolour,beta,,,65,18,V,R,
498,120,36,11,3,47,33,249,['c'],1,left,['3'],4,22,[0.07368954],100,47,medium,plus,dotcolour,beta,,,65,18,V,R,
499,121,37,11,3,36,44,135,['n'],1,right,['2'],5,87,[-0.0414112],100,44,hard,plus,dotcolour,beta,,,65,18,V,R,
500,122,38,11,3,27,53,317,['c'],0,right,['2'],5,215,[-0.00252727],89,53,easy,plus,dotcolour,beta,,,65,18,V,R,
501,123,39,11,3,53,27,24,['c'],1,left,['2'],5,544,[0.20312092],100,53,easy,plus,dotcolour,beta,,,65,18,V,R,
502,124,40,11,3,44,36,281,['n'],0,left,['2'],5,144,[-0.06580986],100,44,hard,plus,dotcolour,beta,,,65,18,V,R,
503,125,41,11,3,33,47,281,['c'],0,right,['2'],5,136,[0.07947912],100,47,medium,plus,dotcolour,beta,,,65,18,V,R,
504,0,0,12,4,33,47,1599,['c'],0,right,['0'],1,69,[0.10769871],97,47,medium,minus,dotcolour,beta,,,65,18,V,R,
505,1,1,12,4,36,44,1849,['n'],1,right,['2'],5,354,[-0.16732911],97,44,hard,minus,dotcolour,beta,,,65,18,V,R,
506,2,2,12,4,36,44,565,['n'],1,right,['2'],5,199,[-0.12286791],94,44,hard,minus,dotcolour,beta,,,65,18,V,R,
507,3,3,12,4,47,33,316,['n'],0,left,['2'],5,107,[-0.05392425],48,47,medium,minus,dotcolour,beta,,,65,18,V,R,
508,4,4,12,4,44,36,499,['c'],1,left,['1'],6,124,[0.09434954],88,44,hard,minus,dotcolour,beta,,,65,18,V,R,
509,5,5,12,4,27,53,160,['n'],1,right,['8'],3,96,[-0.13344166],99,53,easy,minus,dotcolour,beta,,,65,18,V,R,
510,6,6,12,4,47,33,400,['n'],0,left,['1'],6,213,[-0.10285158],86,47,medium,minus,dotcolour,beta,,,65,18,V,R,
511,7,7,12,4,44,36,348,['c'],1,left,['3'],4,104,[0.10269321],93,44,hard,minus,dotcolour,beta,,,65,18,V,R,
512,8,8,12,4,36,44,188,['n'],1,right,['8'],3,101,[-0.05766485],53,44,hard,minus,dotcolour,beta,,,65,18,V,R,
513,9,9,12,4,27,53,299,['c'],0,right,['1'],6,222,[0.08049608],72,53,easy,minus,dotcolour,beta,,,65,18,V,R,
514,10,10,12,4,33,47,416,['c'],0,right,['3'],4,1070,[0.09432501],66,47,medium,minus,dotcolour,beta,,,65,18,V,R,
515,11,11,12,4,47,33,566,['n'],0,left,['3'],4,165,[-0.07692719],72,47,medium,minus,dotcolour,beta,,,65,18,V,R,
516,12,12,12,4,33,47,232,['c'],0,right,['2'],5,103,[0.08134981],81,47,medium,minus,dotcolour,beta,,,65,18,V,R,
517,13,13,12,4,33,47,517,['n'],1,right,['2'],5,151,[-0.14192317],98,47,medium,minus,dotcolour,beta,,,65,18,V,R,
518,14,14,12,4,53,27,248,['n'],0,left,['2'],5,161,[0.02328947],3,53,easy,minus,dotcolour,beta,,,65,18,V,R,
519,15,15,12,4,36,44,350,['n'],1,right,['0'],1,213,[-0.06510028],59,44,hard,minus,dotcolour,beta,,,65,18,V,R,
520,16,16,12,4,44,36,249,['c'],1,left,['0'],1,324,[0.15947024],96,44,hard,minus,dotcolour,beta,,,65,18,V,R,
521,17,17,12,4,33,47,216,['c'],0,right,['3'],4,111,[0.09781268],91,47,medium,minus,dotcolour,beta,,,65,18,V,R,
522,18,18,12,4,53,27,733,['n'],0,left,['1'],6,223,[0.011403],7,53,easy,minus,dotcolour,beta,,,65,18,V,R,
523,19,19,12,4,53,27,249,['n'],0,left,['2'],5,509,[-0.06444392],56,53,easy,minus,dotcolour,beta,,,65,18,V,R,
524,20,20,12,4,44,36,483,['n'],0,left,['2'],5,149,[-0.04219009],35,44,hard,minus,dotcolour,beta,,,65,18,V,R,
525,21,21,12,4,33,47,316,['c'],0,right,['2'],5,124,[0.0341978],25,47,medium,minus,dotcolour,beta,,,65,18,V,R,
526,22,22,12,4,47,33,169,['n'],0,left,['2'],5,105,[-0.11570027],97,47,medium,minus,dotcolour,beta,,,65,18,V,R,
527,23,23,12,4,27,53,148,['c'],0,right,['1'],6,85,[0.04619636],36,53,easy,minus,dotcolour,beta,,,65,18,V,R,
528,24,24,12,4,44,36,230,['c'],1,left,['2'],5,131,[0.06804639],65,44,hard,minus,dotcolour,beta,,,65,18,V,R,
529,25,25,12,4,47,33,232,['c'],1,left,['1'],6,117,[0.03260184],23,47,medium,minus,dotcolour,beta,,,65,18,V,R,
530,26,26,12,4,36,44,365,['c'],0,right,"['3', '2', '1']",4,147,[0.09314429],85,44,hard,minus,dotcolour,beta,,,65,18,V,R,
531,27,27,12,4,27,53,174,['c'],0,right,['3'],4,87,[0.05623762],51,53,easy,minus,dotcolour,beta,,,65,18,V,R,
532,28,28,12,4,27,53,599,['c'],0,right,['1'],6,4,[0.06855805],98,53,easy,minus,dotcolour,beta,,,65,18,V,R,
533,29,29,12,4,36,44,232,['n'],1,right,['0'],1,4,[-0.06817019],97,44,hard,minus,dotcolour,beta,,,65,18,V,R,
534,30,30,12,4,44,36,431,['n'],0,left,['0'],1,275,[-0.01481329],20,44,hard,minus,dotcolour,beta,,,65,18,V,R,
535,31,31,12,4,47,33,348,['n'],0,left,['3'],4,123,[-0.038744],30,47,medium,minus,dotcolour,beta,,,65,18,V,R,
536,32,32,12,4,47,33,481,['n'],0,left,['0'],1,61,[-0.02412205],9,47,medium,minus,dotcolour,beta,,,65,18,V,R,
537,33,33,12,4,27,53,248,['c'],0,right,['3'],4,97,[0.04193239],31,53,easy,minus,dotcolour,beta,,,65,18,V,R,
538,34,34,12,4,33,47,398,['n'],1,right,['2'],5,166,[-0.13980633],98,47,medium,minus,dotcolour,beta,,,65,18,V,R,
539,35,35,12,4,53,27,282,['n'],0,left,['3'],4,86,[-0.03475387],22,53,easy,minus,dotcolour,beta,,,65,18,V,R,
540,36,36,12,4,36,44,383,['c'],0,right,['1'],6,148,[0.05212355],46,44,hard,minus,dotcolour,beta,,,65,18,V,R,
541,37,37,12,4,53,27,448,['n'],0,left,['0'],1,118,[-0.02955689],20,53,easy,minus,dotcolour,beta,,,65,18,V,R,
542,38,38,12,4,53,27,298,['c'],1,left,"['3', '2', '1']",4,183,[0.10919882],91,53,easy,minus,dotcolour,beta,,,65,18,V,R,
543,39,39,12,4,53,27,333,['n'],0,left,"['0', '9', '1']",1,99,[-0.06142314],58,53,easy,minus,dotcolour,beta,,,65,18,V,R,
544,40,40,12,4,44,36,550,['n'],0,left,['0'],1,90,[-0.08190979],83,44,hard,minus,dotcolour,beta,,,65,18,V,R,
545,41,41,12,4,27,53,249,['c'],0,right,['1'],6,86,[0.07234828],74,53,easy,minus,dotcolour,beta,,,65,18,V,R,
546,42,0,13,4,44,36,433,['c'],1,left,['1'],6,86,[0.05993967],57,44,hard,minus,dotcolour,beta,,,65,18,V,R,
547,43,1,13,4,53,27,765,['c'],1,left,['2'],5,221,[0.10364475],86,53,easy,minus,dotcolour,beta,,,65,18,V,R,
548,44,2,13,4,27,53,398,['n'],1,right,['2'],5,142,[-0.10166391],90,53,easy,minus,dotcolour,beta,,,65,18,V,R,
549,45,3,13,4,36,44,432,['n'],1,right,['2'],5,160,[-0.08555437],79,44,hard,minus,dotcolour,beta,,,65,18,V,R,
550,46,4,13,4,47,33,283,['c'],1,left,['2'],5,39,[0.08451102],93,47,medium,minus,dotcolour,beta,,,65,18,V,R,
551,47,5,13,4,33,47,650,['c'],0,right,['0'],1,140,[0.0703946],67,47,medium,minus,dotcolour,beta,,,65,18,V,R,
552,48,6,13,4,36,44,350,['c'],0,right,['2'],5,49,[0.08268841],90,44,hard,minus,dotcolour,beta,,,65,18,V,R,
553,49,7,13,4,53,27,465,['c'],1,left,['2'],5,39,[0.09510709],97,53,easy,minus,dotcolour,beta,,,65,18,V,R,
554,50,8,13,4,44,36,332,['c'],1,left,['2'],5,97,[0.1132683],97,44,hard,minus,dotcolour,beta,,,65,18,V,R,
555,51,9,13,4,44,36,17,['n'],0,left,['0'],1,1030,[-0.21007999],94,44,hard,minus,dotcolour,beta,,,65,18,V,R,
556,52,10,13,4,33,47,249,['c'],0,right,['1'],6,12,[0.06902931],90,47,medium,minus,dotcolour,beta,,,65,18,V,R,
557,53,11,13,4,44,36,148,['c'],1,left,['1'],6,76,[0.06688268],68,44,hard,minus,dotcolour,beta,,,65,18,V,R,
558,54,12,13,4,36,44,83,['n'],1,right,['1'],6,51,[-0.05364696],46,44,hard,minus,dotcolour,beta,,,65,18,V,R,
559,55,13,13,4,27,53,178,['c'],0,right,['1'],6,74,[0.0293776],15,53,easy,minus,dotcolour,beta,,,65,18,V,R,
560,56,14,13,4,47,33,266,['n'],0,left,['0'],1,78,[-0.08792961],89,47,medium,minus,dotcolour,beta,,,65,18,V,R,
561,57,15,13,4,44,36,331,['n'],0,left,['0'],1,63,[-0.07856187],84,44,hard,minus,dotcolour,beta,,,65,18,V,R,
562,58,16,13,4,47,33,348,['c'],1,left,['3'],4,152,[0.05040444],44,47,medium,minus,dotcolour,beta,,,65,18,V,R,
563,59,17,13,4,27,53,498,['n'],1,right,['2'],5,159,[0.01466974],4,53,easy,minus,dotcolour,beta,,,65,18,V,R,
564,60,18,13,4,36,44,432,['c'],0,right,['9'],2,56,[0.12565032],100,44,hard,minus,dotcolour,beta,,,65,18,V,R,
565,61,19,13,4,33,47,1399,['n'],1,right,['1'],6,751,[-0.07693486],61,47,medium,minus,dotcolour,beta,,,65,18,V,R,
566,62,20,13,4,53,27,450,['n'],0,left,['2'],5,96,[-0.13511872],99,53,easy,minus,dotcolour,beta,,,65,18,V,R,
567,63,21,13,4,33,47,515,['n'],1,right,['2'],5,177,[-0.04084038],35,47,medium,minus,dotcolour,beta,,,65,18,V,R,
568,64,22,13,4,53,27,398,['n'],0,left,['2'],5,107,[-0.03664475],26,53,easy,minus,dotcolour,beta,,,65,18,V,R,
569,65,23,13,4,36,44,128,['n'],1,right,['2'],5,311,[-0.15024989],96,44,hard,minus,dotcolour,beta,,,65,18,V,R,
570,66,24,13,4,27,53,266,['c'],0,right,['3'],4,9,[0.06688742],90,53,easy,minus,dotcolour,beta,,,65,18,V,R,
571,67,25,13,4,27,53,415,['n'],1,right,['2'],5,105,[-0.11804929],97,53,easy,minus,dotcolour,beta,,,65,18,V,R,
572,68,26,13,4,36,44,633,['n'],1,right,['2'],5,157,[-0.14332484],98,44,hard,minus,dotcolour,beta,,,65,18,V,R,
573,69,27,13,4,47,33,715,['c'],1,left,"['3', '1']",4,171,[0.02304149],20,47,medium,minus,dotcolour,beta,,,65,18,V,R,
574,70,28,13,4,33,47,399,['n'],1,right,['2'],5,310,[-0.06016062],54,47,medium,minus,dotcolour,beta,,,65,18,V,R,
575,71,29,13,4,53,27,582,['n'],0,left,['1'],6,91,[-0.07372752],75,53,easy,minus,dotcolour,beta,,,65,18,V,R,
576,72,30,13,4,47,33,465,['c'],1,left,['1'],6,166,[0.07419548],69,47,medium,minus,dotcolour,beta,,,65,18,V,R,
577,73,31,13,4,33,47,314,['c'],0,right,['8'],3,84,[0.07320312],75,47,medium,minus,dotcolour,beta,,,65,18,V,R,
578,74,32,13,4,47,33,299,['c'],1,left,['0'],1,29,[0.0854465],96,47,medium,minus,dotcolour,beta,,,65,18,V,R,
579,75,33,13,4,27,53,215,['c'],0,right,['1'],6,157,[0.08836633],82,53,easy,minus,dotcolour,beta,,,65,18,V,R,
580,76,34,13,4,47,33,248,['n'],0,left,['1'],6,214,[0.02361221],4,47,medium,minus,dotcolour,beta,,,65,18,V,R,
581,77,35,13,4,44,36,233,['c'],1,left,['1'],6,134,[0.12527392],97,44,hard,minus,dotcolour,beta,,,65,18,V,R,
582,78,36,13,4,44,36,567,['n'],0,left,['2'],5,123,[-0.03209187],23,44,hard,minus,dotcolour,beta,,,65,18,V,R,
583,79,37,13,4,33,47,282,['c'],0,right,['1'],6,180,[0.07496336],69,47,medium,minus,dotcolour,beta,,,65,18,V,R,
584,80,38,13,4,53,27,365,['c'],1,left,['0'],1,32,[0.04815092],32,53,easy,minus,dotcolour,beta,,,65,18,V,R,
585,81,39,13,4,36,44,264,['c'],0,right,['1'],6,109,[0.06729694],65,44,hard,minus,dotcolour,beta,,,65,18,V,R,
586,82,40,13,4,27,53,266,['c'],0,right,['0'],1,135,[-0.04472226],1,53,easy,minus,dotcolour,beta,,,65,18,V,R,
587,83,41,13,4,53,27,398,['c'],1,left,['9'],2,27,[0.08491351],96,53,easy,minus,dotcolour,beta,,,65,18,V,R,
588,84,0,14,4,36,44,651,['c'],0,right,['1'],6,160,[0.04585425],39,44,hard,minus,dotcolour,beta,,,65,18,V,R,
589,85,1,14,4,33,47,169,['c'],0,right,['2'],5,106,[0.03899881],29,47,medium,minus,dotcolour,beta,,,65,18,V,R,
590,86,2,14,4,44,36,126,['n'],0,left,['0'],1,7,[-0.08123425],100,44,hard,minus,dotcolour,beta,,,65,18,V,R,
591,87,3,14,4,36,44,499,['c'],0,right,['0'],1,84,[0.07473171],77,44,hard,minus,dotcolour,beta,,,65,18,V,R,
592,88,4,14,4,44,36,213,['c'],1,left,['1'],6,105,[0.08558709],84,44,hard,minus,dotcolour,beta,,,65,18,V,R,
593,89,5,14,4,33,47,316,['c'],0,right,['1'],6,98,[0.0429425],33,47,medium,minus,dotcolour,beta,,,65,18,V,R,
594,90,6,14,4,47,33,315,['c'],1,left,['0'],1,91,[0.09298676],90,47,medium,minus,dotcolour,beta,,,65,18,V,R,
595,91,7,14,4,47,33,215,['c'],1,left,['2'],5,151,[0.00630144],9,47,medium,minus,dotcolour,beta,,,65,18,V,R,
596,92,8,14,4,53,27,298,['n'],0,left,['0'],1,142,[-0.0804459],77,53,easy,minus,dotcolour,beta,,,65,18,V,R,
597,93,9,14,4,47,33,365,['c'],1,left,"['2', '1']",5,131,[0.13419763],98,47,medium,minus,dotcolour,beta,,,65,18,V,R,
598,94,10,14,4,27,53,249,['c'],0,right,['3'],4,21,[0.06818826],83,53,easy,minus,dotcolour,beta,,,65,18,V,R,
599,95,11,14,4,44,36,282,['c'],1,left,['3'],4,34,[0.09766176],98,44,hard,minus,dotcolour,beta,,,65,18,V,R,
600,96,12,14,4,53,27,365,['n'],0,left,['0'],1,107,[-0.02289656],14,53,easy,minus,dotcolour,beta,,,65,18,V,R,
601,97,13,14,4,27,53,247,['c'],0,right,['3'],4,39,[0.06658427],73,53,easy,minus,dotcolour,beta,,,65,18,V,R,
602,98,14,14,4,36,44,314,['c'],0,right,['1'],6,58,[0.04721824],35,44,hard,minus,dotcolour,beta,,,65,18,V,R,
603,99,15,14,4,36,44,330,['c'],0,right,['3'],4,35,[0.03203321],9,44,hard,minus,dotcolour,beta,,,65,18,V,R,
604,100,16,14,4,53,27,249,['n'],0,left,['8'],3,42,[-0.06876336],76,53,easy,minus,dotcolour,beta,,,65,18,V,R,
605,101,17,14,4,33,47,232,['c'],0,right,['3'],4,71,[0.05910663],56,47,medium,minus,dotcolour,beta,,,65,18,V,R,
606,102,18,14,4,44,36,280,['n'],0,left,['3'],4,11,[-0.06937531],91,44,hard,minus,dotcolour,beta,,,65,18,V,R,
607,103,19,14,4,33,47,265,['c'],0,right,['3'],4,137,[0.10013981],90,47,medium,minus,dotcolour,beta,,,65,18,V,R,
608,104,20,14,4,47,33,266,['c'],1,left,['1'],6,170,[0.0856394],79,47,medium,minus,dotcolour,beta,,,65,18,V,R,
609,105,21,14,4,27,53,281,['n'],1,right,['8'],3,1,[-0.06896553],100,53,easy,minus,dotcolour,beta,,,65,18,V,R,
610,106,22,14,4,36,44,331,['c'],0,right,['3'],4,117,[0.08035904],79,44,hard,minus,dotcolour,beta,,,65,18,V,R,
611,107,23,14,4,27,53,682,['c'],0,right,['9'],2,230,[-0.0079001],8,53,easy,minus,dotcolour,beta,,,65,18,V,R,
612,108,24,14,4,53,27,282,['c'],1,left,['3'],4,27,[0.08052046],94,53,easy,minus,dotcolour,beta,,,65,18,V,R,
613,109,25,14,4,36,44,299,['c'],0,right,['3'],4,71,[0.10833875],97,44,hard,minus,dotcolour,beta,,,65,18,V,R,
614,110,26,14,4,33,47,119,['c'],0,right,"['1', '9']",6,229,[0.01685192],19,47,medium,minus,dotcolour,beta,,,65,18,V,R,
615,111,27,14,4,53,27,433,['c'],1,left,"['2', '3', '0', '1']",5,245,[0.14671255],96,53,easy,minus,dotcolour,beta,,,65,18,V,R,
616,112,28,14,4,36,44,432,['c'],0,right,['3'],4,106,[0.02860425],18,44,hard,minus,dotcolour,beta,,,65,18,V,R,
617,113,29,14,4,44,36,400,['n'],0,left,['0'],1,55,[-0.08627229],91,44,hard,minus,dotcolour,beta,,,65,18,V,R,
618,114,30,14,4,27,53,315,['n'],1,right,['9'],2,234,[-0.17963323],99,53,easy,minus,dotcolour,beta,,,65,18,V,R,
619,115,31,14,4,53,27,581,['c'],1,left,['2'],5,699,[0.21684339],97,53,easy,minus,dotcolour,beta,,,65,18,V,R,
620,116,32,14,4,27,53,482,['n'],1,right,['2'],5,381,[-0.14443151],93,53,easy,minus,dotcolour,beta,,,65,18,V,R,
621,117,33,14,4,44,36,350,['c'],1,left,['2'],5,424,[0.09624651],75,44,hard,minus,dotcolour,beta,,,65,18,V,R,
622,118,34,14,4,47,33,582,['n'],0,left,['2'],5,401,[-0.12517329],88,47,medium,minus,dotcolour,beta,,,65,18,V,R,
623,119,35,14,4,33,47,715,['n'],1,right,['2'],5,357,[-0.23719052],100,47,medium,minus,dotcolour,beta,,,65,18,V,R,
624,120,36,14,4,33,47,547,['n'],1,right,['2'],5,346,[-0.07018499],61,47,medium,minus,dotcolour,beta,,,65,18,V,R,
625,121,37,14,4,53,27,482,['n'],0,left,['2'],5,362,[0.0962965],1,53,easy,minus,dotcolour,beta,,,65,18,V,R,
626,122,38,14,4,27,53,465,['n'],1,right,['1'],6,546,[-0.13640363],88,53,easy,minus,dotcolour,beta,,,65,18,V,R,
627,123,39,14,4,44,36,647,['c'],1,left,['2'],5,315,[0.03738121],36,44,hard,minus,dotcolour,beta,,,65,18,V,R,
628,124,40,14,4,47,33,1750,['c'],1,left,['2'],5,1194,[0.16067494],85,47,medium,minus,dotcolour,beta,,,65,18,V,R,
629,125,41,14,4,47,33,466,['n'],0,left,['2'],5,145,[-0.089436],83,47,medium,minus,dotcolour,beta,,,65,18,V,R,
630,0,0,15,5,53,27,500,['c'],1,left,['2'],5,345,[0.11149162],99,53,easy,plus,dotcolour,beta,,,65,18,V,R,
631,1,1,15,5,27,53,732,['c'],0,right,"['0', '2']",1,319,[0.02929297],94,53,easy,plus,dotcolour,beta,,,65,18,V,R,
632,2,2,15,5,53,27,433,['n'],0,left,['1'],6,130,[-0.10893785],100,53,easy,plus,dotcolour,beta,,,65,18,V,R,
633,3,3,15,5,33,47,281,['c'],0,right,['0'],1,307,[0.03663242],95,47,medium,plus,dotcolour,beta,,,65,18,V,R,
634,4,4,15,5,53,27,414,['c'],1,left,['0'],1,566,[0.27417071],100,53,easy,plus,dotcolour,beta,,,65,18,V,R,
635,5,5,15,5,27,53,100,['c'],0,right,"['2', '1']",5,178,[0.03373232],98,53,easy,plus,dotcolour,beta,,,65,18,V,R,
636,6,6,15,5,44,36,108,['n'],0,left,['1'],6,164,[-0.00841751],94,44,hard,plus,dotcolour,beta,,,65,18,V,R,
637,7,7,15,5,47,33,4865,['n'],0,left,"['0', '1']",1,116,[-0.02703567],99,47,medium,plus,dotcolour,beta,,,65,18,V,R,
638,8,8,15,5,47,33,333,['n'],0,left,['0'],1,1347,[-0.1232387],94,47,medium,plus,dotcolour,beta,,,65,18,V,R,
639,9,9,15,5,27,53,1982,['c'],0,right,['1'],6,111,[0.05019717],100,53,easy,plus,dotcolour,beta,,,65,18,V,R,
640,10,10,15,5,47,33,365,['n'],0,left,['1'],6,229,[-0.05544164],98,47,medium,plus,dotcolour,beta,,,65,18,V,R,
641,11,11,15,5,36,44,617,['c'],0,right,['1'],6,141,[0.05266317],99,44,hard,plus,dotcolour,beta,,,65,18,V,R,
642,12,12,15,5,36,44,982,['n'],1,right,['1'],6,185,[-0.01298955],95,44,hard,plus,dotcolour,beta,,,65,18,V,R,
643,13,13,15,5,44,36,1664,['c'],1,left,['0'],1,97,[0.00547849],97,44,hard,plus,dotcolour,beta,,,65,18,V,R,
644,14,14,15,5,36,44,1749,['c'],0,right,['3'],4,209,[0.10904511],100,44,hard,plus,dotcolour,beta,,,65,18,V,R,
645,15,15,15,5,27,53,315,['c'],0,right,"['3', '1']",4,3812,[-0.68851358],0,53,easy,plus,dotcolour,beta,,,65,18,V,R,
646,16,16,15,5,33,47,195,['n'],1,right,['3'],4,148,[-0.04808383],99,47,medium,plus,dotcolour,beta,,,65,18,V,R,
647,17,17,15,5,47,33,349,['c'],1,left,['2'],5,177,[0.11516135],100,47,medium,plus,dotcolour,beta,,,65,18,V,R,
648,18,18,15,5,44,36,17,['c'],1,left,['2'],5,1835,[0.04457297],79,44,hard,plus,dotcolour,beta,,,65,18,V,R,
649,19,19,15,5,44,36,139,['c'],1,left,['2'],5,58,[0.07149499],100,44,hard,plus,dotcolour,beta,,,65,18,V,R,
650,20,20,15,5,47,33,137,['n'],0,left,['2'],5,89,[-0.07594483],100,47,medium,plus,dotcolour,beta,,,65,18,V,R,
651,21,21,15,5,36,44,332,['c'],0,right,['2'],5,146,[0.11789456],100,44,hard,plus,dotcolour,beta,,,65,18,V,R,
652,22,22,15,5,33,47,282,['n'],1,right,['2'],5,161,[-0.10836579],100,47,medium,plus,dotcolour,beta,,,65,18,V,R,
653,23,23,15,5,44,36,215,['c'],1,left,['2'],5,131,[0.03729858],99,44,hard,plus,dotcolour,beta,,,65,18,V,R,
654,24,24,15,5,44,36,190,['n'],0,left,['3'],4,87,[-0.11248392],100,44,hard,plus,dotcolour,beta,,,65,18,V,R,
655,25,25,15,5,33,47,281,['c'],0,right,['2'],5,130,[0.07747062],100,47,medium,plus,dotcolour,beta,,,65,18,V,R,
656,26,26,15,5,36,44,198,['c'],0,right,['1'],6,126,[0.13012113],100,44,hard,plus,dotcolour,beta,,,65,18,V,R,
657,27,27,15,5,47,33,138,['n'],0,left,['1'],6,98,[-0.03804238],100,47,medium,plus,dotcolour,beta,,,65,18,V,R,
658,28,28,15,5,27,53,166,['c'],0,right,['1'],6,119,[0.1700655],100,53,easy,plus,dotcolour,beta,,,65,18,V,R,
659,29,29,15,5,27,53,265,['n'],1,right,['1'],6,161,[-0.06365061],100,53,easy,plus,dotcolour,beta,,,65,18,V,R,
660,30,30,15,5,33,47,380,['c'],0,right,['1'],6,85,[0.08636252],100,47,medium,plus,dotcolour,beta,,,65,18,V,R,
661,31,31,15,5,33,47,299,['n'],1,right,['1'],6,295,[-0.06350694],98,47,medium,plus,dotcolour,beta,,,65,18,V,R,
662,32,32,15,5,36,44,333,['c'],0,right,['8'],3,63,[0.06999537],100,44,hard,plus,dotcolour,beta,,,65,18,V,R,
663,33,33,15,5,27,53,332,['c'],0,right,['1'],6,184,[0.03569611],98,53,easy,plus,dotcolour,beta,,,65,18,V,R,
664,34,34,15,5,53,27,398,['c'],1,left,['1'],6,666,[0.30274555],100,53,easy,plus,dotcolour,beta,,,65,18,V,R,
665,35,35,15,5,53,27,500,['n'],0,left,['2'],5,149,[-0.05922499],100,53,easy,plus,dotcolour,beta,,,65,18,V,R,
666,36,36,15,5,33,47,367,['n'],1,right,['1'],6,98,[-0.05964625],100,47,medium,plus,dotcolour,beta,,,65,18,V,R,
667,37,37,15,5,47,33,350,['n'],0,left,['1'],6,113,[-0.07756022],100,47,medium,plus,dotcolour,beta,,,65,18,V,R,
668,38,38,15,5,44,36,416,['c'],1,left,['1'],6,156,[0.07071114],100,44,hard,plus,dotcolour,beta,,,65,18,V,R,
669,39,39,15,5,53,27,498,['c'],1,left,['1'],6,316,[0.0664027],98,53,easy,plus,dotcolour,beta,,,65,18,V,R,
670,40,40,15,5,36,44,500,['n'],1,right,['1'],6,165,[-0.11450886],100,44,hard,plus,dotcolour,beta,,,65,18,V,R,
671,41,41,15,5,53,27,199,['c'],1,left,"['0', '2']",1,200,[0.12113367],100,53,easy,plus,dotcolour,beta,,,65,18,V,R,
672,42,0,16,5,44,36,333,['c'],1,left,['1'],6,115,[0.08362606],100,44,hard,plus,dotcolour,beta,,,65,18,V,R,
673,43,1,16,5,33,47,214,['c'],0,right,['0'],1,143,[0.03324443],99,47,medium,plus,dotcolour,beta,,,65,18,V,R,
674,44,2,16,5,27,53,482,['n'],1,right,['1'],6,174,[-0.15157592],100,53,easy,plus,dotcolour,beta,,,65,18,V,R,
675,45,3,16,5,47,33,367,['n'],0,left,['2'],5,466,[-0.09361014],98,47,medium,plus,dotcolour,beta,,,65,18,V,R,
676,46,4,16,5,27,53,349,['c'],0,right,['2'],5,171,[0.06460088],99,53,easy,plus,dotcolour,beta,,,65,18,V,R,
677,47,5,16,5,33,47,264,['n'],1,right,['2'],5,155,[-0.08601945],100,47,medium,plus,dotcolour,beta,,,65,18,V,R,
678,48,6,16,5,44,36,215,['c'],1,left,['2'],5,85,[0.10155167],100,44,hard,plus,dotcolour,beta,,,65,18,V,R,
679,49,7,16,5,33,47,153,['n'],1,right,['1'],6,83,[-0.07988732],100,47,medium,plus,dotcolour,beta,,,65,18,V,R,
680,50,8,16,5,53,27,73,['n'],0,left,['1'],6,65,[-0.0437013],100,53,easy,plus,dotcolour,beta,,,65,18,V,R,
681,51,9,16,5,36,44,348,['c'],0,right,['1'],6,162,[0.13608591],100,44,hard,plus,dotcolour,beta,,,65,18,V,R,
682,52,10,16,5,44,36,248,['c'],1,left,['1'],6,35,[0.04760586],100,44,hard,plus,dotcolour,beta,,,65,18,V,R,
683,53,11,16,5,53,27,131,['n'],0,left,['1'],6,51,[-0.08134813],100,53,easy,plus,dotcolour,beta,,,65,18,V,R,
684,54,12,16,5,53,27,265,['c'],1,left,['1'],6,208,[0.18848238],100,53,easy,plus,dotcolour,beta,,,65,18,V,R,
685,55,13,16,5,27,53,799,['n'],1,right,['1'],6,176,[-0.1294812],100,53,easy,plus,dotcolour,beta,,,65,18,V,R,
686,56,14,16,5,53,27,732,['n'],0,left,['1'],6,172,[-0.03743038],98,53,easy,plus,dotcolour,beta,,,65,18,V,R,
687,57,15,16,5,27,53,215,['n'],1,right,['1'],6,150,[-0.05882487],100,53,easy,plus,dotcolour,beta,,,65,18,V,R,
688,58,16,16,5,36,44,162,['n'],1,right,['2'],5,105,[-0.10106687],100,44,hard,plus,dotcolour,beta,,,65,18,V,R,
689,59,17,16,5,47,33,349,['n'],0,left,['1'],6,168,[-0.08742207],100,47,medium,plus,dotcolour,beta,,,65,18,V,R,
690,60,18,16,5,27,53,231,['c'],0,right,['1'],6,114,[0.06197743],100,53,easy,plus,dotcolour,beta,,,65,18,V,R,
691,61,19,16,5,44,36,199,['n'],0,left,['1'],6,119,[-0.03208477],99,44,hard,plus,dotcolour,beta,,,65,18,V,R,
692,62,20,16,5,44,36,282,['n'],0,left,['1'],6,144,[-0.10230915],100,44,hard,plus,dotcolour,beta,,,65,18,V,R,
693,63,21,16,5,36,44,548,['c'],0,right,['1'],6,373,[0.14380957],100,44,hard,plus,dotcolour,beta,,,65,18,V,R,
694,64,22,16,5,44,36,250,['n'],0,left,['0'],1,29,[-0.07068653],100,44,hard,plus,dotcolour,beta,,,65,18,V,R,
695,65,23,16,5,47,33,349,['n'],0,left,['1'],6,263,[-0.01319574],92,47,medium,plus,dotcolour,beta,,,65,18,V,R,
696,66,24,16,5,47,33,110,['n'],0,left,['1'],6,246,[-0.0349162],96,47,medium,plus,dotcolour,beta,,,65,18,V,R,
697,67,25,16,5,47,33,233,['c'],1,left,['1'],6,300,[0.13671425],100,47,medium,plus,dotcolour,beta,,,65,18,V,R,
698,68,26,16,5,36,44,250,['n'],1,right,['1'],6,230,[-0.14775754],100,44,hard,plus,dotcolour,beta,,,65,18,V,R,
699,69,27,16,5,53,27,216,['c'],1,left,['1'],6,294,[0.23201148],100,53,easy,plus,dotcolour,beta,,,65,18,V,R,
700,70,28,16,5,27,53,232,['n'],1,right,['1'],6,154,[-0.15347488],100,53,easy,plus,dotcolour,beta,,,65,18,V,R,
701,71,29,16,5,33,47,147,['c'],0,right,['1'],6,133,[0.08407236],100,47,medium,plus,dotcolour,beta,,,65,18,V,R,
702,72,30,16,5,44,36,231,['n'],0,left,['1'],6,176,[-0.05769073],99,44,hard,plus,dotcolour,beta,,,65,18,V,R,
703,73,31,16,5,36,44,249,['c'],0,right,['1'],6,152,[0.10759773],100,44,hard,plus,dotcolour,beta,,,65,18,V,R,
704,74,32,16,5,36,44,232,['c'],0,right,['1'],6,50,[0.03158545],100,44,hard,plus,dotcolour,beta,,,65,18,V,R,
705,75,33,16,5,33,47,283,['c'],0,right,['1'],6,166,[0.03579039],98,47,medium,plus,dotcolour,beta,,,65,18,V,R,
706,76,34,16,5,53,27,231,['n'],0,left,['1'],6,87,[-0.079497],100,53,easy,plus,dotcolour,beta,,,65,18,V,R,
707,77,35,16,5,47,33,93,['n'],0,left,['1'],6,317,[-0.14340168],100,47,medium,plus,dotcolour,beta,,,65,18,V,R,
708,78,36,16,5,33,47,282,['n'],1,right,['1'],6,102,[-0.06674266],100,47,medium,plus,dotcolour,beta,,,65,18,V,R,
709,79,37,16,5,47,33,282,['c'],1,left,['1'],6,9,[0.07056691],100,47,medium,plus,dotcolour,beta,,,65,18,V,R,
710,80,38,16,5,36,44,248,['n'],1,right,['1'],6,80,[-0.05882032],100,44,hard,plus,dotcolour,beta,,,65,18,V,R,
711,81,39,16,5,27,53,281,['c'],0,right,['1'],6,179,[0.02512864],97,53,easy,plus,dotcolour,beta,,,65,18,V,R,
712,82,40,16,5,53,27,283,['n'],0,left,['1'],6,121,[-0.02614587],99,53,easy,plus,dotcolour,beta,,,65,18,V,R,
713,83,41,16,5,33,47,315,['c'],0,right,['1'],6,177,[0.08800881],100,47,medium,plus,dotcolour,beta,,,65,18,V,R,
714,84,0,17,5,44,36,349,['c'],1,left,['1'],6,142,[0.10999878],100,44,hard,plus,dotcolour,beta,,,65,18,V,R,
715,85,1,17,5,36,44,282,['n'],1,right,['1'],6,86,[-0.08308414],100,44,hard,plus,dotcolour,beta,,,65,18,V,R,
716,86,2,17,5,36,44,282,['c'],0,right,['1'],6,305,[0.16791037],100,44,hard,plus,dotcolour,beta,,,65,18,V,R,
717,87,3,17,5,53,27,366,['c'],1,left,['1'],6,128,[0.07128027],100,53,easy,plus,dotcolour,beta,,,65,18,V,R,
718,88,4,17,5,36,44,248,['n'],1,right,['1'],6,123,[-0.11366958],100,44,hard,plus,dotcolour,beta,,,65,18,V,R,
719,89,5,17,5,27,53,232,['c'],0,right,['1'],6,132,[0.02728184],98,53,easy,plus,dotcolour,beta,,,65,18,V,R,
720,90,6,17,5,53,27,332,['n'],0,left,['1'],6,115,[-0.03248542],99,53,easy,plus,dotcolour,beta,,,65,18,V,R,
721,91,7,17,5,27,53,184,['c'],0,right,['1'],6,105,[0.02163811],99,53,easy,plus,dotcolour,beta,,,65,18,V,R,
722,92,8,17,5,36,44,21,['n'],1,right,['1'],6,77,[-0.09667435],100,44,hard,plus,dotcolour,beta,,,65,18,V,R,
723,93,9,17,5,33,47,216,['c'],0,right,['1'],6,155,[0.03312255],98,47,medium,plus,dotcolour,beta,,,65,18,V,R,
724,94,10,17,5,53,27,215,['n'],0,left,['1'],6,93,[-0.12360041],100,53,easy,plus,dotcolour,beta,,,65,18,V,R,
725,95,11,17,5,53,27,266,['c'],1,left,['1'],6,120,[0.02914993],99,53,easy,plus,dotcolour,beta,,,65,18,V,R,
726,96,12,17,5,44,36,265,['n'],0,left,['1'],6,43,[-0.05762257],100,44,hard,plus,dotcolour,beta,,,65,18,V,R,
727,97,13,17,5,47,33,103,['c'],1,left,['1'],6,25,[0.07786031],100,47,medium,plus,dotcolour,beta,,,65,18,V,R,
728,98,14,17,5,47,33,58,['c'],1,left,['1'],6,650,[0.10285534],97,47,medium,plus,dotcolour,beta,,,65,18,V,R,
729,99,15,17,5,44,36,283,['n'],0,left,['1'],6,86,[-0.10469035],100,44,hard,plus,dotcolour,beta,,,65,18,V,R,
730,100,16,17,5,47,33,267,['c'],1,left,['1'],6,129,[0.10455875],100,47,medium,plus,dotcolour,beta,,,65,18,V,R,
731,101,17,17,5,27,53,233,['n'],1,right,['1'],6,148,[-0.05255138],99,53,easy,plus,dotcolour,beta,,,65,18,V,R,
732,102,18,17,5,36,44,265,['c'],0,right,['1'],6,108,[0.01283454],98,44,hard,plus,dotcolour,beta,,,65,18,V,R,
733,103,19,17,5,33,47,298,['n'],1,right,['1'],6,669,[-0.2627119],100,47,medium,plus,dotcolour,beta,,,65,18,V,R,
734,104,20,17,5,47,33,265,['c'],1,left,['1'],6,121,[0.05136268],100,47,medium,plus,dotcolour,beta,,,65,18,V,R,
735,105,21,17,5,53,27,349,['c'],1,left,['1'],6,527,[0.07275823],96,53,easy,plus,dotcolour,beta,,,65,18,V,R,
736,106,22,17,5,33,47,248,['n'],1,right,['1'],6,113,[-0.10836822],100,47,medium,plus,dotcolour,beta,,,65,18,V,R,
737,107,23,17,5,36,44,465,['c'],0,right,['1'],6,315,[0.09905969],99,44,hard,plus,dotcolour,beta,,,65,18,V,R,
738,108,24,17,5,36,44,349,['n'],1,right,['1'],6,250,[-0.10564621],100,44,hard,plus,dotcolour,beta,,,65,18,V,R,
739,109,25,17,5,53,27,265,['c'],1,left,['1'],6,222,[0.0797289],99,53,easy,plus,dotcolour,beta,,,65,18,V,R,
740,110,26,17,5,47,33,283,['n'],0,left,['1'],6,195,[-0.11128615],100,47,medium,plus,dotcolour,beta,,,65,18,V,R,
741,111,27,17,5,27,53,188,['c'],0,right,['1'],6,364,[-0.00475093],82,53,easy,plus,dotcolour,beta,,,65,18,V,R,
742,112,28,17,5,27,53,55,['n'],1,right,['1'],6,239,[-0.10641999],100,53,easy,plus,dotcolour,beta,,,65,18,V,R,
743,113,29,17,5,33,47,248,['c'],0,right,['1'],6,349,[0.01068714],88,47,medium,plus,dotcolour,beta,,,65,18,V,R,
744,114,30,17,5,47,33,232,['n'],0,left,['1'],6,239,[-0.0379998],97,47,medium,plus,dotcolour,beta,,,65,18,V,R,
745,115,31,17,5,47,33,316,['c'],1,left,['1'],6,122,[0.08156444],100,47,medium,plus,dotcolour,beta,,,65,18,V,R,
746,116,32,17,5,33,47,249,['n'],1,right,['1'],6,141,[-0.04850375],99,47,medium,plus,dotcolour,beta,,,65,18,V,R,
747,117,33,17,5,44,36,449,['n'],0,left,['1'],6,174,[-0.11970143],100,44,hard,plus,dotcolour,beta,,,65,18,V,R,
748,118,34,17,5,44,36,215,['c'],1,left,['2'],5,111,[0.02299332],99,44,hard,plus,dotcolour,beta,,,65,18,V,R,
749,119,35,17,5,44,36,298,['n'],0,left,['1'],6,80,[-0.05466118],100,44,hard,plus,dotcolour,beta,,,65,18,V,R,
750,120,36,17,5,27,53,1433,['c'],0,right,['3'],4,325,[-0.09502914],22,53,easy,plus,dotcolour,beta,,,65,18,V,R,
751,121,37,17,5,33,47,1114,['c'],0,right,['9'],2,644,[-0.02319815],67,47,medium,plus,dotcolour,beta,,,65,18,V,R,
752,122,38,17,5,27,53,364,['n'],1,right,['2'],5,444,[-0.26539154],100,53,easy,plus,dotcolour,beta,,,65,18,V,R,
753,123,39,17,5,33,47,108,['n'],1,right,['9'],2,388,[-0.10487438],99,47,medium,plus,dotcolour,beta,,,65,18,V,R,
754,124,40,17,5,44,36,1399,['n'],0,left,['3'],4,213,[-0.00771088],92,44,hard,plus,dotcolour,beta,,,65,18,V,R,
755,125,41,17,5,53,27,174,['c'],1,left,['0'],1,334,[0.16367908],100,53,easy,plus,dotcolour,beta,,,65,18,V,R,
,,,,,,,,,,,,,,,,,,,,,1,nee,65,18,V,R,
,,,,,,,,,,,,,,,,,,,,,2,['d'],65,18,V,R,
,,,,,,,,,,,,,,,,,,,,,3,['d'],65,18,V,R,
,,,,,,,,,,,,,,,,,,,,,5,[],65,18,V,R,
