trial,withinphasetrial,withinblocktrial,block,phase,dotsLeft,dotsRight,rt,resp,cor,cresp,conf_press,cj,RTconf,ev,fb,diff,difflevel,condition,task,manip,questionID,questionResp,sub,age,gender,handedness,
0,0,0,0,0,33,47,1951,['n'],1,right,['8'],4,3662,[-0.55171253],100,47,medium,plus,dotcolour,alfa,,,134,19,V,R,
1,1,1,0,0,53,27,1051,['c'],1,left,['8'],4,1049,[0.17700242],100,53,easy,plus,dotcolour,alfa,,,134,19,V,R,
2,2,2,0,0,47,33,2767,['n'],0,left,['3'],3,1513,[-0.10144848],95,47,medium,plus,dotcolour,alfa,,,134,19,V,R,
3,3,3,0,0,36,44,1267,['n'],1,right,['3'],3,1187,[-0.18868825],100,44,hard,plus,dotcolour,alfa,,,134,19,V,R,
4,4,4,0,0,44,36,1384,['n'],0,left,['8'],4,3437,[0.55746167],0,44,hard,plus,dotcolour,alfa,,,134,19,V,R,
5,5,5,0,0,27,53,1050,['n'],1,right,['8'],4,706,[-0.1426119],100,53,easy,plus,dotcolour,alfa,,,134,19,V,R,
6,6,6,0,0,53,27,1633,['n'],0,left,['8'],4,629,[0.17655205],0,53,easy,plus,dotcolour,alfa,,,134,19,V,R,
7,7,7,0,0,47,33,1866,['c'],1,left,['8'],4,1474,[0.1316497],98,47,medium,plus,dotcolour,alfa,,,134,19,V,R,
8,8,8,0,0,27,53,2000,['n'],1,right,['8'],4,776,[-0.3056613],100,53,easy,plus,dotcolour,alfa,,,134,19,V,R,
9,9,9,0,0,33,47,834,['n'],1,right,['8'],4,489,[-0.08139248],99,47,medium,plus,dotcolour,alfa,,,134,19,V,R,
10,10,10,0,0,53,27,767,['c'],1,left,['3'],3,320,[0.14330882],100,53,easy,plus,dotcolour,alfa,,,134,19,V,R,
11,11,11,0,0,44,36,1067,['n'],0,left,['8'],4,305,[0.03548199],9,44,hard,plus,dotcolour,alfa,,,134,19,V,R,
12,12,12,0,0,33,47,1233,['c'],0,right,['8'],4,654,[-0.0129576],36,47,medium,plus,dotcolour,alfa,,,134,19,V,R,
13,13,13,0,0,27,53,1316,['n'],1,right,['9'],5,799,[-0.23672931],100,53,easy,plus,dotcolour,alfa,,,134,19,V,R,
14,14,14,0,0,44,36,800,['c'],1,left,['9'],5,480,[0.11928898],100,44,hard,plus,dotcolour,alfa,,,134,19,V,R,
15,15,15,0,0,47,33,1117,['n'],0,left,['9'],5,330,[-0.07706459],99,47,medium,plus,dotcolour,alfa,,,134,19,V,R,
16,16,16,0,0,53,27,1067,['c'],1,left,['9'],5,371,[0.04600269],94,53,easy,plus,dotcolour,alfa,,,134,19,V,R,
17,17,17,0,0,27,53,1417,['n'],1,right,['9'],5,356,[-0.07792827],99,53,easy,plus,dotcolour,alfa,,,134,19,V,R,
18,18,18,0,0,44,36,816,['c'],1,left,['8'],4,455,[0.02781527],82,44,hard,plus,dotcolour,alfa,,,134,19,V,R,
19,19,19,0,0,47,33,1102,['c'],1,left,['9'],5,353,[0.08075969],99,47,medium,plus,dotcolour,alfa,,,134,19,V,R,
20,20,20,0,0,33,47,835,['n'],1,right,['8'],4,298,[0.03379086],10,47,medium,plus,dotcolour,alfa,,,134,19,V,R,
21,21,21,0,0,27,53,1000,['n'],1,right,['9'],5,376,[-0.17794505],100,53,easy,plus,dotcolour,alfa,,,134,19,V,R,
22,22,22,0,0,36,44,1217,['c'],0,right,['3'],3,529,[-0.06063749],5,44,hard,plus,dotcolour,alfa,,,134,19,V,R,
23,23,23,0,0,33,47,833,['n'],1,right,['9'],5,380,[-0.03080107],86,47,medium,plus,dotcolour,alfa,,,134,19,V,R,
24,24,24,0,0,27,53,1083,['n'],1,right,['9'],5,379,[-0.09181422],100,53,easy,plus,dotcolour,alfa,,,134,19,V,R,
25,25,25,0,0,36,44,950,['n'],1,right,['9'],5,366,[-0.05650211],97,44,hard,plus,dotcolour,alfa,,,134,19,V,R,
26,26,26,0,0,47,33,750,['c'],1,left,['9'],5,435,[0.04241163],91,47,medium,plus,dotcolour,alfa,,,134,19,V,R,
27,27,27,0,0,53,27,1835,['n'],0,left,['9'],5,394,[-0.01042251],65,53,easy,plus,dotcolour,alfa,,,134,19,V,R,
28,28,28,0,0,36,44,518,['c'],0,right,['9'],5,358,[0.05961187],97,44,hard,plus,dotcolour,alfa,,,134,19,V,R,
29,29,29,0,0,53,27,616,['c'],1,left,['8'],4,585,[0.08357794],98,53,easy,plus,dotcolour,alfa,,,134,19,V,R,
30,30,30,0,0,47,33,1150,['c'],1,left,['9'],5,685,[0.14911906],100,47,medium,plus,dotcolour,alfa,,,134,19,V,R,
31,31,31,0,0,44,36,634,['c'],1,left,['0'],6,553,[0.16207968],100,44,hard,plus,dotcolour,alfa,,,134,19,V,R,
32,32,32,0,0,27,53,1717,['n'],1,right,['9'],5,439,[-0.09588063],99,53,easy,plus,dotcolour,alfa,,,134,19,V,R,
33,33,33,0,0,44,36,1250,['n'],0,left,['9'],5,461,[-0.18007558],100,44,hard,plus,dotcolour,alfa,,,134,19,V,R,
34,34,34,0,0,33,47,850,['n'],1,right,['9'],5,522,[-0.08935216],99,47,medium,plus,dotcolour,alfa,,,134,19,V,R,
35,35,35,0,0,44,36,784,['n'],0,left,['9'],5,414,[0.0163661],29,44,hard,plus,dotcolour,alfa,,,134,19,V,R,
36,36,36,0,0,36,44,984,['n'],1,right,['9'],5,376,[-0.10944707],100,44,hard,plus,dotcolour,alfa,,,134,19,V,R,
37,37,37,0,0,47,33,818,['n'],0,left,['9'],5,473,[-0.02304723],77,47,medium,plus,dotcolour,alfa,,,134,19,V,R,
38,38,38,0,0,36,44,733,['c'],0,right,['2'],2,1170,[-0.01797142],35,44,hard,plus,dotcolour,alfa,,,134,19,V,R,
39,39,39,0,0,36,44,983,['n'],1,right,['9'],5,324,[-0.17885217],100,44,hard,plus,dotcolour,alfa,,,134,19,V,R,
40,40,40,0,0,33,47,817,['n'],1,right,['0'],6,416,[-0.09534834],100,47,medium,plus,dotcolour,alfa,,,134,19,V,R,
41,41,41,0,0,53,27,1300,['c'],1,left,['9'],5,460,[0.23567228],100,53,easy,plus,dotcolour,alfa,,,134,19,V,R,
42,42,0,1,0,53,27,1017,['c'],1,left,['9'],5,364,[0.14940426],100,53,easy,plus,dotcolour,alfa,,,134,19,V,R,
43,43,1,1,0,36,44,717,['n'],1,right,['9'],5,354,[-0.07239398],99,44,hard,plus,dotcolour,alfa,,,134,19,V,R,
44,44,2,1,0,33,47,733,['n'],1,right,['9'],5,296,[-0.07127101],99,47,medium,plus,dotcolour,alfa,,,134,19,V,R,
45,45,3,1,0,36,44,650,['n'],1,right,['9'],5,315,[-0.14173625],100,44,hard,plus,dotcolour,alfa,,,134,19,V,R,
46,46,4,1,0,27,53,584,['n'],1,right,['9'],5,312,[-0.19067955],100,53,easy,plus,dotcolour,alfa,,,134,19,V,R,
47,47,5,1,0,53,27,534,['n'],0,left,['9'],5,368,[-0.01278495],68,53,easy,plus,dotcolour,alfa,,,134,19,V,R,
48,48,6,1,0,47,33,1282,['n'],0,left,['9'],5,352,[-0.14670154],100,47,medium,plus,dotcolour,alfa,,,134,19,V,R,
49,49,7,1,0,27,53,767,['n'],1,right,['8'],4,324,[-0.14020086],100,53,easy,plus,dotcolour,alfa,,,134,19,V,R,
50,50,8,1,0,47,33,933,['c'],1,left,['9'],5,298,[0.12324794],100,47,medium,plus,dotcolour,alfa,,,134,19,V,R,
51,51,9,1,0,44,36,1717,['n'],0,left,['9'],5,275,[-0.08919506],100,44,hard,plus,dotcolour,alfa,,,134,19,V,R,
52,52,10,1,0,44,36,1016,['n'],0,left,['9'],5,281,[-0.07720775],99,44,hard,plus,dotcolour,alfa,,,134,19,V,R,
53,53,11,1,0,47,33,2233,['n'],0,left,['9'],5,438,[0.01006635],37,47,medium,plus,dotcolour,alfa,,,134,19,V,R,
54,54,12,1,0,53,27,1400,['c'],1,left,['2'],2,621,[0.08229825],98,53,easy,plus,dotcolour,alfa,,,134,19,V,R,
55,55,13,1,0,33,47,1700,['n'],1,right,['9'],5,298,[-0.08153176],100,47,medium,plus,dotcolour,alfa,,,134,19,V,R,
56,56,14,1,0,44,36,834,['n'],0,left,['9'],5,269,[-0.09645694],100,44,hard,plus,dotcolour,alfa,,,134,19,V,R,
57,57,15,1,0,36,44,1167,['n'],1,right,['9'],5,341,[-0.15019175],100,44,hard,plus,dotcolour,alfa,,,134,19,V,R,
58,58,16,1,0,33,47,1335,['n'],1,right,['9'],5,939,[-0.04130975],82,47,medium,plus,dotcolour,alfa,,,134,19,V,R,
59,59,17,1,0,33,47,1383,['n'],1,right,['8'],4,247,[-0.10229092],100,47,medium,plus,dotcolour,alfa,,,134,19,V,R,
60,60,18,1,0,36,44,1800,['c'],0,right,['9'],5,1110,[0.03846188],79,44,hard,plus,dotcolour,alfa,,,134,19,V,R,
61,61,19,1,0,47,33,1316,['c'],1,left,['9'],5,295,[0.02044355],79,47,medium,plus,dotcolour,alfa,,,134,19,V,R,
62,62,20,1,0,47,33,1468,['n'],0,left,['9'],5,305,[-0.10519011],100,47,medium,plus,dotcolour,alfa,,,134,19,V,R,
63,63,21,1,0,44,36,834,['n'],0,left,['9'],5,293,[-0.14284715],100,44,hard,plus,dotcolour,alfa,,,134,19,V,R,
64,64,22,1,0,27,53,1466,['n'],1,right,['9'],5,272,[-0.07394348],99,53,easy,plus,dotcolour,alfa,,,134,19,V,R,
65,65,23,1,0,27,53,800,['n'],1,right,['9'],5,351,[-0.13637188],100,53,easy,plus,dotcolour,alfa,,,134,19,V,R,
66,66,24,1,0,36,44,1799,['n'],1,right,['8'],4,370,[-0.20094955],100,44,hard,plus,dotcolour,alfa,,,134,19,V,R,
67,67,25,1,0,27,53,1050,['n'],1,right,['8'],4,315,[-0.07838844],99,53,easy,plus,dotcolour,alfa,,,134,19,V,R,
68,68,26,1,0,53,27,1585,['n'],0,left,['8'],4,464,[0.00454373],44,53,easy,plus,dotcolour,alfa,,,134,19,V,R,
69,69,27,1,0,53,27,717,['c'],1,left,['8'],4,482,[0.32638442],100,53,easy,plus,dotcolour,alfa,,,134,19,V,R,
70,70,28,1,0,36,44,2350,['n'],1,right,['9'],5,298,[-0.10733343],100,44,hard,plus,dotcolour,alfa,,,134,19,V,R,
71,71,29,1,0,53,27,1267,['n'],0,left,['2'],2,1308,[0.26982782],0,53,easy,plus,dotcolour,alfa,,,134,19,V,R,
72,72,30,1,0,44,36,1984,['n'],0,left,['8'],4,314,[-0.10303153],100,44,hard,plus,dotcolour,alfa,,,134,19,V,R,
73,73,31,1,0,33,47,800,['n'],1,right,['8'],4,270,[-0.06344848],99,47,medium,plus,dotcolour,alfa,,,134,19,V,R,
74,74,32,1,0,47,33,767,['n'],0,left,['9'],5,278,[-0.08013033],100,47,medium,plus,dotcolour,alfa,,,134,19,V,R,
75,75,33,1,0,27,53,716,['n'],1,right,['9'],5,240,[-0.13569913],100,53,easy,plus,dotcolour,alfa,,,134,19,V,R,
76,76,34,1,0,33,47,634,['n'],1,right,['9'],5,326,[-0.10607418],100,47,medium,plus,dotcolour,alfa,,,134,19,V,R,
77,77,35,1,0,44,36,717,['n'],0,left,['9'],5,341,[-0.11513413],100,44,hard,plus,dotcolour,alfa,,,134,19,V,R,
78,78,36,1,0,47,33,583,['n'],0,left,['9'],5,385,[0.03791635],10,47,medium,plus,dotcolour,alfa,,,134,19,V,R,
79,79,37,1,0,44,36,1100,['n'],0,left,['8'],4,311,[-0.04497011],95,44,hard,plus,dotcolour,alfa,,,134,19,V,R,
80,80,38,1,0,36,44,616,['c'],0,right,['8'],4,507,[0.07669273],98,44,hard,plus,dotcolour,alfa,,,134,19,V,R,
81,81,39,1,0,33,47,767,['n'],1,right,['9'],5,345,[-0.16286367],100,47,medium,plus,dotcolour,alfa,,,134,19,V,R,
82,82,40,1,0,27,53,1316,['n'],1,right,['0'],6,240,[-0.13279089],100,53,easy,plus,dotcolour,alfa,,,134,19,V,R,
83,83,41,1,0,53,27,1100,['c'],1,left,['0'],6,484,[0.12903823],100,53,easy,plus,dotcolour,alfa,,,134,19,V,R,
84,84,0,2,0,33,47,1268,['n'],1,right,['9'],5,295,[-0.09599083],100,47,medium,plus,dotcolour,alfa,,,134,19,V,R,
85,85,1,2,0,27,53,1184,['n'],1,right,['0'],6,293,[-0.12204878],100,53,easy,plus,dotcolour,alfa,,,134,19,V,R,
86,86,2,2,0,53,27,1117,['c'],1,left,['9'],5,341,[0.11902],100,53,easy,plus,dotcolour,alfa,,,134,19,V,R,
87,87,3,2,0,44,36,1050,['c'],1,left,['9'],5,303,[0.11951417],100,44,hard,plus,dotcolour,alfa,,,134,19,V,R,
88,88,4,2,0,47,33,1067,['c'],1,left,['0'],6,377,[0.10090238],100,47,medium,plus,dotcolour,alfa,,,134,19,V,R,
89,89,5,2,0,47,33,1001,['n'],0,left,['9'],5,595,[-0.11191071],99,47,medium,plus,dotcolour,alfa,,,134,19,V,R,
90,90,6,2,0,36,44,1250,['c'],0,right,['0'],6,355,[-0.11577996],0,44,hard,plus,dotcolour,alfa,,,134,19,V,R,
91,91,7,2,0,33,47,867,['n'],1,right,['0'],6,307,[-0.07561519],99,47,medium,plus,dotcolour,alfa,,,134,19,V,R,
92,92,8,2,0,36,44,716,['c'],0,right,['8'],4,363,[0.09221026],100,44,hard,plus,dotcolour,alfa,,,134,19,V,R,
93,93,9,2,0,44,36,784,['n'],0,left,['2'],2,382,[-0.04796841],94,44,hard,plus,dotcolour,alfa,,,134,19,V,R,
94,94,10,2,0,53,27,1100,['c'],1,left,['0'],6,348,[0.15437106],100,53,easy,plus,dotcolour,alfa,,,134,19,V,R,
95,95,11,2,0,33,47,650,['c'],0,right,['9'],5,358,[0.14346748],100,47,medium,plus,dotcolour,alfa,,,134,19,V,R,
96,96,12,2,0,27,53,800,['n'],1,right,['8'],4,336,[-0.10150377],100,53,easy,plus,dotcolour,alfa,,,134,19,V,R,
97,97,13,2,0,44,36,1301,['n'],0,left,['9'],5,433,[-0.05171628],94,44,hard,plus,dotcolour,alfa,,,134,19,V,R,
98,98,14,2,0,36,44,701,['n'],1,right,['9'],5,276,[-0.06254641],99,44,hard,plus,dotcolour,alfa,,,134,19,V,R,
99,99,15,2,0,53,27,1151,['c'],1,left,['8'],4,436,[0.1725183],100,53,easy,plus,dotcolour,alfa,,,134,19,V,R,
100,100,16,2,0,53,27,1283,['c'],1,left,['0'],6,377,[0.22455021],100,53,easy,plus,dotcolour,alfa,,,134,19,V,R,
101,101,17,2,0,44,36,784,['c'],1,left,['0'],6,285,[0.13232888],100,44,hard,plus,dotcolour,alfa,,,134,19,V,R,
102,102,18,2,0,33,47,4368,['n'],1,right,['8'],4,268,[-0.08568678],100,47,medium,plus,dotcolour,alfa,,,134,19,V,R,
103,103,19,2,0,27,53,884,['n'],1,right,['9'],5,398,[-0.04419282],93,53,easy,plus,dotcolour,alfa,,,134,19,V,R,
104,104,20,2,0,27,53,1300,['n'],1,right,['3'],3,1532,[-0.48075916],100,53,easy,plus,dotcolour,alfa,,,134,19,V,R,
105,105,21,2,0,27,53,733,['n'],1,right,['9'],5,258,[-0.19512252],100,53,easy,plus,dotcolour,alfa,,,134,19,V,R,
106,106,22,2,0,53,27,1149,['c'],1,left,['9'],5,275,[0.09722268],100,53,easy,plus,dotcolour,alfa,,,134,19,V,R,
107,107,23,2,0,27,53,1184,['n'],1,right,['9'],5,210,[-0.18806123],100,53,easy,plus,dotcolour,alfa,,,134,19,V,R,
108,108,24,2,0,47,33,851,['n'],0,left,['9'],5,328,[-0.05263986],96,47,medium,plus,dotcolour,alfa,,,134,19,V,R,
109,109,25,2,0,36,44,1684,['n'],1,right,['9'],5,281,[-0.12499437],100,44,hard,plus,dotcolour,alfa,,,134,19,V,R,
110,110,26,2,0,53,27,1200,['c'],1,left,['9'],5,662,[0.16750011],100,53,easy,plus,dotcolour,alfa,,,134,19,V,R,
111,111,27,2,0,47,33,1166,['c'],1,left,['9'],5,199,[0.05185109],98,47,medium,plus,dotcolour,alfa,,,134,19,V,R,
112,112,28,2,0,47,33,767,['n'],0,left,['9'],5,202,[0.00502151],40,47,medium,plus,dotcolour,alfa,,,134,19,V,R,
113,113,29,2,0,33,47,750,['n'],1,right,['9'],5,229,[-0.09750847],100,47,medium,plus,dotcolour,alfa,,,134,19,V,R,
114,114,30,2,0,44,36,566,['c'],1,left,['9'],5,278,[0.07339111],99,44,hard,plus,dotcolour,alfa,,,134,19,V,R,
115,115,31,2,0,36,44,1001,['n'],1,right,['8'],4,252,[-0.12328294],100,44,hard,plus,dotcolour,alfa,,,134,19,V,R,
116,116,32,2,0,53,27,965,['c'],1,left,['8'],4,381,[0.15380622],100,53,easy,plus,dotcolour,alfa,,,134,19,V,R,
117,117,33,2,0,47,33,600,['c'],1,left,['9'],5,279,[0.14079798],100,47,medium,plus,dotcolour,alfa,,,134,19,V,R,
118,118,34,2,0,44,36,667,['c'],1,left,['9'],5,315,[0.06744843],99,44,hard,plus,dotcolour,alfa,,,134,19,V,R,
119,119,35,2,0,27,53,916,['n'],1,right,['9'],5,219,[-0.16430099],100,53,easy,plus,dotcolour,alfa,,,134,19,V,R,
120,120,36,2,0,33,47,1651,['n'],1,right,['8'],4,1185,[-0.18408197],100,47,medium,plus,dotcolour,alfa,,,134,19,V,R,
121,121,37,2,0,36,44,950,['n'],1,right,['9'],5,220,[-0.02485068],87,44,hard,plus,dotcolour,alfa,,,134,19,V,R,
122,122,38,2,0,47,33,1417,['c'],1,left,['9'],5,804,[0.17107786],100,47,medium,plus,dotcolour,alfa,,,134,19,V,R,
123,123,39,2,0,36,44,1117,['n'],1,right,['3'],3,1544,[-0.02786771],69,44,hard,plus,dotcolour,alfa,,,134,19,V,R,
124,124,40,2,0,33,47,867,['c'],0,right,['9'],5,225,[0.06241418],99,47,medium,plus,dotcolour,alfa,,,134,19,V,R,
125,125,41,2,0,44,36,967,['c'],1,left,['0'],6,98,[0.06287556],100,44,hard,plus,dotcolour,alfa,,,134,19,V,R,
126,0,0,3,1,44,36,1167,['c'],1,left,['9'],5,355,[0.17733197],94,44,hard,minus,dotcolour,alfa,,,134,19,V,R,
127,1,1,3,1,33,47,717,['n'],1,right,['8'],4,240,[-0.10981004],88,47,medium,minus,dotcolour,alfa,,,134,19,V,R,
128,2,2,3,1,36,44,833,['c'],0,right,['9'],5,247,[-0.00748223],47,44,hard,minus,dotcolour,alfa,,,134,19,V,R,
129,3,3,3,1,44,36,784,['n'],0,left,['8'],4,295,[0.02462316],40,44,hard,minus,dotcolour,alfa,,,134,19,V,R,
130,4,4,3,1,47,33,650,['c'],1,left,['9'],5,250,[0.13245711],92,47,medium,minus,dotcolour,alfa,,,134,19,V,R,
131,5,5,3,1,44,36,984,['n'],0,left,['9'],5,266,[-0.10538038],86,44,hard,minus,dotcolour,alfa,,,134,19,V,R,
132,6,6,3,1,33,47,1984,['n'],1,right,['9'],5,770,[-0.16600544],85,47,medium,minus,dotcolour,alfa,,,134,19,V,R,
133,7,7,3,1,33,47,966,['n'],1,right,['9'],5,420,[-0.09199032],78,47,medium,minus,dotcolour,alfa,,,134,19,V,R,
134,8,8,3,1,53,27,866,['c'],1,left,['9'],5,314,[0.04407125],67,53,easy,minus,dotcolour,alfa,,,134,19,V,R,
135,9,9,3,1,53,27,883,['n'],0,left,['8'],4,468,[-0.01434788],55,53,easy,minus,dotcolour,alfa,,,134,19,V,R,
136,10,10,3,1,27,53,867,['n'],1,right,['9'],5,257,[-0.1414499],92,53,easy,minus,dotcolour,alfa,,,134,19,V,R,
137,11,11,3,1,47,33,532,['c'],1,left,['9'],5,201,[0.12807954],93,47,medium,minus,dotcolour,alfa,,,134,19,V,R,
138,12,12,3,1,44,36,767,['n'],0,left,['9'],5,196,[-0.0221936],61,44,hard,minus,dotcolour,alfa,,,134,19,V,R,
139,13,13,3,1,27,53,1467,['n'],1,right,['0'],6,819,[-0.18574843],86,53,easy,minus,dotcolour,alfa,,,134,19,V,R,
140,14,14,3,1,47,33,1800,['c'],1,left,['8'],4,235,[0.08894574],84,47,medium,minus,dotcolour,alfa,,,134,19,V,R,
141,15,15,3,1,27,53,799,['n'],1,right,['0'],6,499,[-0.1302572],84,53,easy,minus,dotcolour,alfa,,,134,19,V,R,
142,16,16,3,1,36,44,1434,['c'],0,right,['0'],6,351,[-0.00725],47,44,hard,minus,dotcolour,alfa,,,134,19,V,R,
143,17,17,3,1,44,36,2250,['n'],0,left,['9'],5,336,[-0.13677285],89,44,hard,minus,dotcolour,alfa,,,134,19,V,R,
144,18,18,3,1,53,27,2866,['c'],1,left,['9'],5,634,[0.18761038],89,53,easy,minus,dotcolour,alfa,,,134,19,V,R,
145,19,19,3,1,53,27,1868,['n'],0,left,['9'],5,311,[-0.08652581],80,53,easy,minus,dotcolour,alfa,,,134,19,V,R,
146,20,20,3,1,33,47,883,['c'],0,right,['9'],5,240,[0.06140202],76,47,medium,minus,dotcolour,alfa,,,134,19,V,R,
147,21,21,3,1,36,44,1067,['n'],1,right,['9'],5,333,[-0.10889524],85,44,hard,minus,dotcolour,alfa,,,134,19,V,R,
148,22,22,3,1,36,44,768,['c'],0,right,['9'],5,226,[0.0865405],84,44,hard,minus,dotcolour,alfa,,,134,19,V,R,
149,23,23,3,1,44,36,1250,['c'],1,left,['9'],5,328,[0.16514902],93,44,hard,minus,dotcolour,alfa,,,134,19,V,R,
150,24,24,3,1,36,44,616,['c'],0,right,['0'],6,403,[0.2181532],96,44,hard,minus,dotcolour,alfa,,,134,19,V,R,
151,25,25,3,1,47,33,700,['c'],1,left,['0'],6,297,[0.1108951],86,47,medium,minus,dotcolour,alfa,,,134,19,V,R,
152,26,26,3,1,27,53,834,['n'],1,right,['9'],5,389,[-0.21369728],96,53,easy,minus,dotcolour,alfa,,,134,19,V,R,
153,27,27,3,1,33,47,899,['n'],1,right,['0'],6,275,[-0.07582332],79,47,medium,minus,dotcolour,alfa,,,134,19,V,R,
154,28,28,3,1,44,36,984,['c'],1,left,['3'],3,785,[0.04700958],62,44,hard,minus,dotcolour,alfa,,,134,19,V,R,
155,29,29,3,1,27,53,1184,['n'],1,right,['0'],6,347,[-0.13865098],89,53,easy,minus,dotcolour,alfa,,,134,19,V,R,
156,30,30,3,1,53,27,850,['c'],1,left,['9'],5,316,[0.13727648],90,53,easy,minus,dotcolour,alfa,,,134,19,V,R,
157,31,31,3,1,33,47,1917,['n'],1,right,['3'],3,269,[-0.10819989],87,47,medium,minus,dotcolour,alfa,,,134,19,V,R,
158,32,32,3,1,33,47,1268,['n'],1,right,['8'],4,296,[-0.18129773],95,47,medium,minus,dotcolour,alfa,,,134,19,V,R,
159,33,33,3,1,47,33,716,['n'],0,left,['8'],4,289,[-0.04791172],69,47,medium,minus,dotcolour,alfa,,,134,19,V,R,
160,34,34,3,1,27,53,833,['n'],1,right,['0'],6,252,[-0.10044773],86,53,easy,minus,dotcolour,alfa,,,134,19,V,R,
161,35,35,3,1,53,27,950,['c'],1,left,['0'],6,302,[0.05982607],73,53,easy,minus,dotcolour,alfa,,,134,19,V,R,
162,36,36,3,1,36,44,1401,['n'],1,right,['3'],3,315,[-0.19118645],96,44,hard,minus,dotcolour,alfa,,,134,19,V,R,
163,37,37,3,1,47,33,784,['n'],0,left,"['3', '2']",3,353,[-0.01130498],54,47,medium,minus,dotcolour,alfa,,,134,19,V,R,
164,38,38,3,1,47,33,1633,['n'],0,left,['1'],1,258,[-0.10108315],86,47,medium,minus,dotcolour,alfa,,,134,19,V,R,
165,39,39,3,1,36,44,1334,['n'],1,right,['1'],1,460,[0.00335851],49,44,hard,minus,dotcolour,alfa,,,134,19,V,R,
166,40,40,3,1,27,53,1367,['n'],1,right,['8'],4,629,[-0.0671965],68,53,easy,minus,dotcolour,alfa,,,134,19,V,R,
167,41,41,3,1,53,27,1700,['n'],0,left,['8'],4,280,[-0.0129246],55,53,easy,minus,dotcolour,alfa,,,134,19,V,R,
168,42,0,4,1,47,33,1284,['c'],1,left,['9'],5,369,[0.12659548],87,47,medium,minus,dotcolour,alfa,,,134,19,V,R,
169,43,1,4,1,33,47,1067,['n'],1,right,['9'],5,265,[-0.20499348],97,47,medium,minus,dotcolour,alfa,,,134,19,V,R,
170,44,2,4,1,33,47,716,['c'],0,right,['8'],4,435,[-0.05504149],32,47,medium,minus,dotcolour,alfa,,,134,19,V,R,
171,45,3,4,1,36,44,1251,['n'],1,right,['8'],4,249,[-0.09966849],86,44,hard,minus,dotcolour,alfa,,,134,19,V,R,
172,46,4,4,1,53,27,850,['n'],0,left,['8'],4,199,[-0.02829147],64,53,easy,minus,dotcolour,alfa,,,134,19,V,R,
173,47,5,4,1,53,27,484,['n'],0,left,['8'],4,621,[0.15201582],15,53,easy,minus,dotcolour,alfa,,,134,19,V,R,
174,48,6,4,1,27,53,766,['n'],1,right,['8'],4,239,[-0.13838215],93,53,easy,minus,dotcolour,alfa,,,134,19,V,R,
175,49,7,4,1,53,27,1018,['c'],1,left,['0'],6,509,[0.02373772],57,53,easy,minus,dotcolour,alfa,,,134,19,V,R,
176,50,8,4,1,36,44,518,['c'],0,right,['9'],5,566,[-0.07847709],28,44,hard,minus,dotcolour,alfa,,,134,19,V,R,
177,51,9,4,1,47,33,1933,['n'],0,left,['8'],4,243,[-0.18271413],97,47,medium,minus,dotcolour,alfa,,,134,19,V,R,
178,52,10,4,1,27,53,1633,['n'],1,right,['0'],6,353,[-0.2022901],96,53,easy,minus,dotcolour,alfa,,,134,19,V,R,
179,53,11,4,1,36,44,832,['n'],1,right,['0'],6,1028,[-0.13930629],77,44,hard,minus,dotcolour,alfa,,,134,19,V,R,
180,54,12,4,1,44,36,717,['c'],1,left,['9'],5,295,[0.09255862],82,44,hard,minus,dotcolour,alfa,,,134,19,V,R,
181,55,13,4,1,27,53,750,['n'],1,right,['0'],6,334,[-0.02481797],60,53,easy,minus,dotcolour,alfa,,,134,19,V,R,
182,56,14,4,1,27,53,683,['n'],1,right,['8'],4,239,[-0.11730302],90,53,easy,minus,dotcolour,alfa,,,134,19,V,R,
183,57,15,4,1,47,33,767,['n'],0,left,['9'],5,272,[-0.10787552],87,47,medium,minus,dotcolour,alfa,,,134,19,V,R,
184,58,16,4,1,47,33,833,['n'],0,left,['9'],5,204,[-0.09336276],87,47,medium,minus,dotcolour,alfa,,,134,19,V,R,
185,59,17,4,1,44,36,984,['n'],0,left,['9'],5,158,[0.03594144],31,44,hard,minus,dotcolour,alfa,,,134,19,V,R,
186,60,18,4,1,44,36,767,['c'],1,left,['9'],5,66,[0.08171081],95,44,hard,minus,dotcolour,alfa,,,134,19,V,R,
187,61,19,4,1,47,33,800,['c'],1,left,['9'],5,33,[0.07818883],98,47,medium,minus,dotcolour,alfa,,,134,19,V,R,
188,62,20,4,1,36,44,1317,['c'],0,right,['8'],4,124,[0.16464605],99,44,hard,minus,dotcolour,alfa,,,134,19,V,R,
189,63,21,4,1,27,53,1299,['n'],1,right,['9'],5,228,[-0.10948401],89,53,easy,minus,dotcolour,alfa,,,134,19,V,R,
190,64,22,4,1,53,27,900,['n'],0,left,['8'],4,232,[-0.05589525],74,53,easy,minus,dotcolour,alfa,,,134,19,V,R,
191,65,23,4,1,36,44,784,['c'],0,right,['8'],4,257,[0.02912381],63,44,hard,minus,dotcolour,alfa,,,134,19,V,R,
192,66,24,4,1,27,53,833,['n'],1,right,['8'],4,214,[-0.15322696],95,53,easy,minus,dotcolour,alfa,,,134,19,V,R,
193,67,25,4,1,53,27,883,['c'],1,left,['8'],4,156,[0.16752258],98,53,easy,minus,dotcolour,alfa,,,134,19,V,R,
194,68,26,4,1,53,27,1316,['n'],0,left,['8'],4,274,[-0.09290051],83,53,easy,minus,dotcolour,alfa,,,134,19,V,R,
195,69,27,4,1,33,47,1067,['n'],1,right,['0'],6,173,[-0.07744729],84,47,medium,minus,dotcolour,alfa,,,134,19,V,R,
196,70,28,4,1,33,47,666,['n'],1,right,['8'],4,149,[-0.04780281],75,47,medium,minus,dotcolour,alfa,,,134,19,V,R,
197,71,29,4,1,47,33,716,['n'],0,left,['9'],5,284,[-0.04417898],68,47,medium,minus,dotcolour,alfa,,,134,19,V,R,
198,72,30,4,1,44,36,584,['n'],0,left,['9'],5,178,[-0.03233881],67,44,hard,minus,dotcolour,alfa,,,134,19,V,R,
199,73,31,4,1,33,47,683,['n'],1,right,['9'],5,161,[-0.13707955],96,47,medium,minus,dotcolour,alfa,,,134,19,V,R,
200,74,32,4,1,44,36,500,['c'],1,left,['9'],5,112,[0.0376677],73,44,hard,minus,dotcolour,alfa,,,134,19,V,R,
201,75,33,4,1,36,44,533,['c'],0,right,['9'],5,150,[0.05631066],79,44,hard,minus,dotcolour,alfa,,,134,19,V,R,
202,76,34,4,1,27,53,633,['n'],1,right,['8'],4,145,[-0.0389584],72,53,easy,minus,dotcolour,alfa,,,134,19,V,R,
203,77,35,4,1,33,47,3716,['n'],1,right,['9'],5,399,[-0.19660516],94,47,medium,minus,dotcolour,alfa,,,134,19,V,R,
204,78,36,4,1,33,47,800,['n'],1,right,['9'],5,297,[-0.07518138],78,47,medium,minus,dotcolour,alfa,,,134,19,V,R,
205,79,37,4,1,44,36,918,['c'],1,left,['9'],5,289,[-0.01341493],44,44,hard,minus,dotcolour,alfa,,,134,19,V,R,
206,80,38,4,1,47,33,1800,['n'],0,left,['3'],3,1047,[0.20779659],14,47,medium,minus,dotcolour,alfa,,,134,19,V,R,
207,81,39,4,1,53,27,1933,['n'],0,left,['8'],4,321,[-0.05599775],71,53,easy,minus,dotcolour,alfa,,,134,19,V,R,
208,82,40,4,1,36,44,1433,['n'],1,right,['8'],4,357,[-0.01833342],57,44,hard,minus,dotcolour,alfa,,,134,19,V,R,
209,83,41,4,1,44,36,950,['n'],0,left,['9'],5,465,[-0.14680046],87,44,hard,minus,dotcolour,alfa,,,134,19,V,R,
210,84,0,5,1,27,53,1035,['n'],1,right,['9'],5,256,[-0.0698019],78,53,easy,minus,dotcolour,alfa,,,134,19,V,R,
211,85,1,5,1,47,33,1233,['c'],1,left,['9'],5,294,[0.18315378],95,47,medium,minus,dotcolour,alfa,,,134,19,V,R,
212,86,2,5,1,47,33,967,['c'],1,left,['8'],4,332,[0.15149437],91,47,medium,minus,dotcolour,alfa,,,134,19,V,R,
213,87,3,5,1,53,27,917,['n'],0,left,['8'],4,268,[-0.03091769],63,53,easy,minus,dotcolour,alfa,,,134,19,V,R,
214,88,4,5,1,44,36,1533,['n'],0,left,['1'],1,1933,[0.07493884],38,44,hard,minus,dotcolour,alfa,,,134,19,V,R,
215,89,5,5,1,33,47,1017,['n'],1,right,['9'],5,440,[-0.04628756],65,47,medium,minus,dotcolour,alfa,,,134,19,V,R,
216,90,6,5,1,33,47,1434,['c'],0,right,['3'],3,1174,[-0.13798232],24,47,medium,minus,dotcolour,alfa,,,134,19,V,R,
217,91,7,5,1,33,47,1834,['n'],1,right,['8'],4,342,[-0.06054585],72,47,medium,minus,dotcolour,alfa,,,134,19,V,R,
218,92,8,5,1,33,47,1600,['n'],1,right,['9'],5,219,[-0.16069152],96,47,medium,minus,dotcolour,alfa,,,134,19,V,R,
219,93,9,5,1,44,36,1133,['c'],1,left,['9'],5,85,[0.06548995],88,44,hard,minus,dotcolour,alfa,,,134,19,V,R,
220,94,10,5,1,53,27,816,['c'],1,left,['9'],5,171,[0.07415527],83,53,easy,minus,dotcolour,alfa,,,134,19,V,R,
221,95,11,5,1,27,53,817,['n'],1,right,['0'],6,253,[-0.13028306],91,53,easy,minus,dotcolour,alfa,,,134,19,V,R,
222,96,12,5,1,33,47,1767,['n'],1,right,['0'],6,237,[-0.11121932],89,47,medium,minus,dotcolour,alfa,,,134,19,V,R,
223,97,13,5,1,53,27,1100,['c'],1,left,['9'],5,353,[0.11221877],85,53,easy,minus,dotcolour,alfa,,,134,19,V,R,
224,98,14,5,1,27,53,1616,['n'],1,right,['0'],6,293,[-0.14697938],92,53,easy,minus,dotcolour,alfa,,,134,19,V,R,
225,99,15,5,1,33,47,984,['n'],1,right,['0'],6,266,[-0.08378016],81,47,medium,minus,dotcolour,alfa,,,134,19,V,R,
226,100,16,5,1,36,44,1367,['n'],1,right,['0'],6,266,[-0.03768184],66,44,hard,minus,dotcolour,alfa,,,134,19,V,R,
227,101,17,5,1,27,53,2467,['n'],1,right,['0'],6,462,[-0.10978716],81,53,easy,minus,dotcolour,alfa,,,134,19,V,R,
228,102,18,5,1,27,53,717,['n'],1,right,['9'],5,224,[-0.15705984],95,53,easy,minus,dotcolour,alfa,,,134,19,V,R,
229,103,19,5,1,36,44,984,['n'],1,right,['8'],4,217,[-0.10978654],89,44,hard,minus,dotcolour,alfa,,,134,19,V,R,
230,104,20,5,1,36,44,800,['c'],0,right,['8'],4,442,[0.07889135],74,44,hard,minus,dotcolour,alfa,,,134,19,V,R,
231,105,21,5,1,36,44,767,['c'],0,right,['9'],5,290,[0.02017697],58,44,hard,minus,dotcolour,alfa,,,134,19,V,R,
232,106,22,5,1,47,33,1167,['c'],1,left,['0'],6,361,[0.2004172],95,47,medium,minus,dotcolour,alfa,,,134,19,V,R,
233,107,23,5,1,36,44,1083,['n'],1,right,['9'],5,320,[-0.09000867],81,44,hard,minus,dotcolour,alfa,,,134,19,V,R,
234,108,24,5,1,44,36,950,['c'],1,left,['0'],6,351,[0.1024846],83,44,hard,minus,dotcolour,alfa,,,134,19,V,R,
235,109,25,5,1,27,53,1333,['n'],1,right,['9'],5,309,[-0.17831128],95,53,easy,minus,dotcolour,alfa,,,134,19,V,R,
236,110,26,5,1,47,33,1450,['n'],0,left,['9'],5,303,[-0.03994933],66,47,medium,minus,dotcolour,alfa,,,134,19,V,R,
237,111,27,5,1,44,36,951,['c'],1,left,['9'],5,335,[0.08671703],79,44,hard,minus,dotcolour,alfa,,,134,19,V,R,
238,112,28,5,1,36,44,717,['n'],1,right,['9'],5,399,[-0.13995927],88,44,hard,minus,dotcolour,alfa,,,134,19,V,R,
239,113,29,5,1,47,33,566,['c'],1,left,['0'],6,409,[0.0931891],79,47,medium,minus,dotcolour,alfa,,,134,19,V,R,
240,114,30,5,1,44,36,1466,['n'],0,left,['8'],4,279,[-0.02798292],62,44,hard,minus,dotcolour,alfa,,,134,19,V,R,
241,115,31,5,1,53,27,768,['c'],1,left,['0'],6,447,[0.1873764],93,53,easy,minus,dotcolour,alfa,,,134,19,V,R,
242,116,32,5,1,47,33,884,['c'],1,left,['0'],6,323,[0.18780352],95,47,medium,minus,dotcolour,alfa,,,134,19,V,R,
243,117,33,5,1,53,27,800,['c'],1,left,['9'],5,302,[-0.03220359],37,53,easy,minus,dotcolour,alfa,,,134,19,V,R,
244,118,34,5,1,44,36,700,['c'],1,left,['0'],6,344,[0.10464504],83,44,hard,minus,dotcolour,alfa,,,134,19,V,R,
245,119,35,5,1,36,44,550,['c'],0,right,['0'],6,293,[0.14625104],92,44,hard,minus,dotcolour,alfa,,,134,19,V,R,
246,120,36,5,1,53,27,616,['c'],1,left,['0'],6,250,[0.16007723],95,53,easy,minus,dotcolour,alfa,,,134,19,V,R,
247,121,37,5,1,53,27,700,['c'],1,left,['0'],6,269,[0.18922673],96,53,easy,minus,dotcolour,alfa,,,134,19,V,R,
248,122,38,5,1,44,36,1299,['c'],1,left,['0'],6,296,[0.04808509],69,44,hard,minus,dotcolour,alfa,,,134,19,V,R,
249,123,39,5,1,27,53,767,['c'],0,right,['1'],1,1694,[-0.48389433],3,53,easy,minus,dotcolour,alfa,,,134,19,V,R,
250,124,40,5,1,33,47,1017,['n'],1,right,['8'],4,284,[-0.05526178],72,47,medium,minus,dotcolour,alfa,,,134,19,V,R,
251,125,41,5,1,47,33,950,['c'],1,left,['0'],6,260,[0.11300636],88,47,medium,minus,dotcolour,alfa,,,134,19,V,R,
252,0,0,6,2,33,47,1284,['n'],1,right,['0'],6,265,[-0.12082821],100,47,medium,plus,dotcolour,alfa,,,134,19,V,R,
253,1,1,6,2,53,27,950,['c'],1,left,['0'],6,233,[0.14899656],100,53,easy,plus,dotcolour,alfa,,,134,19,V,R,
254,2,2,6,2,36,44,667,['c'],0,right,['0'],6,222,[0.0591313],99,44,hard,plus,dotcolour,alfa,,,134,19,V,R,
255,3,3,6,2,33,47,1717,['n'],1,right,['8'],4,202,[-0.12112235],100,47,medium,plus,dotcolour,alfa,,,134,19,V,R,
256,4,4,6,2,27,53,1034,['n'],1,right,['0'],6,178,[-0.11954997],100,53,easy,plus,dotcolour,alfa,,,134,19,V,R,
257,5,5,6,2,44,36,1101,['c'],1,left,['0'],6,312,[0.16366479],100,44,hard,plus,dotcolour,alfa,,,134,19,V,R,
258,6,6,6,2,53,27,733,['n'],0,left,['1'],1,1007,[0.03819991],20,53,easy,plus,dotcolour,alfa,,,134,19,V,R,
259,7,7,6,2,33,47,1100,['c'],0,right,['0'],6,316,[0.07468445],99,47,medium,plus,dotcolour,alfa,,,134,19,V,R,
260,8,8,6,2,27,53,934,['n'],1,right,['0'],6,235,[-0.06976635],99,53,easy,plus,dotcolour,alfa,,,134,19,V,R,
261,9,9,6,2,47,33,717,['c'],1,left,['0'],6,231,[0.04741335],97,47,medium,plus,dotcolour,alfa,,,134,19,V,R,
262,10,10,6,2,44,36,1217,['n'],0,left,['8'],4,278,[-0.01845215],78,44,hard,plus,dotcolour,alfa,,,134,19,V,R,
263,11,11,6,2,36,44,1232,['n'],1,right,['0'],6,196,[-0.07159888],100,44,hard,plus,dotcolour,alfa,,,134,19,V,R,
264,12,12,6,2,36,44,1466,['c'],0,right,['8'],4,234,[0.03534749],93,44,hard,plus,dotcolour,alfa,,,134,19,V,R,
265,13,13,6,2,47,33,1084,['c'],1,left,['0'],6,246,[0.07998637],100,47,medium,plus,dotcolour,alfa,,,134,19,V,R,
266,14,14,6,2,36,44,1500,['n'],1,right,['0'],6,194,[-0.09346735],100,44,hard,plus,dotcolour,alfa,,,134,19,V,R,
267,15,15,6,2,27,53,1850,['c'],0,right,['8'],4,666,[-0.00531245],44,53,easy,plus,dotcolour,alfa,,,134,19,V,R,
268,16,16,6,2,44,36,1066,['c'],1,left,['0'],6,310,[-0.02117497],20,44,hard,plus,dotcolour,alfa,,,134,19,V,R,
269,17,17,6,2,27,53,1034,['n'],1,right,['0'],6,256,[-0.10918649],100,53,easy,plus,dotcolour,alfa,,,134,19,V,R,
270,18,18,6,2,47,33,818,['c'],1,left,['0'],6,278,[0.15619388],100,47,medium,plus,dotcolour,alfa,,,134,19,V,R,
271,19,19,6,2,33,47,1283,['n'],1,right,['8'],4,433,[-0.13739659],100,47,medium,plus,dotcolour,alfa,,,134,19,V,R,
272,20,20,6,2,53,27,735,['c'],1,left,['0'],6,292,[0.15488405],100,53,easy,plus,dotcolour,alfa,,,134,19,V,R,
273,21,21,6,2,44,36,1951,['c'],1,left,['0'],6,371,[0.12908983],100,44,hard,plus,dotcolour,alfa,,,134,19,V,R,
274,22,22,6,2,36,44,934,['c'],0,right,['0'],6,176,[0.0731013],100,44,hard,plus,dotcolour,alfa,,,134,19,V,R,
275,23,23,6,2,53,27,1000,['c'],1,left,['0'],6,178,[0.12867983],100,53,easy,plus,dotcolour,alfa,,,134,19,V,R,
276,24,24,6,2,36,44,550,['c'],0,right,['0'],6,310,[0.07214116],99,44,hard,plus,dotcolour,alfa,,,134,19,V,R,
277,25,25,6,2,27,53,1683,['n'],1,right,['8'],4,231,[-0.17563227],100,53,easy,plus,dotcolour,alfa,,,134,19,V,R,
278,26,26,6,2,27,53,1616,['n'],1,right,['9'],5,670,[-0.19221286],100,53,easy,plus,dotcolour,alfa,,,134,19,V,R,
279,27,27,6,2,33,47,1617,['c'],0,right,['8'],4,477,[0.0510273],93,47,medium,plus,dotcolour,alfa,,,134,19,V,R,
280,28,28,6,2,53,27,701,['c'],1,left,['9'],5,398,[0.12051961],100,53,easy,plus,dotcolour,alfa,,,134,19,V,R,
281,29,29,6,2,36,44,984,['n'],1,right,['9'],5,360,[-0.15531803],100,44,hard,plus,dotcolour,alfa,,,134,19,V,R,
282,30,30,6,2,47,33,1484,['c'],1,left,['3'],3,1248,[0.24464375],100,47,medium,plus,dotcolour,alfa,,,134,19,V,R,
283,31,31,6,2,44,36,934,['n'],0,left,['9'],5,930,[-0.04052046],82,44,hard,plus,dotcolour,alfa,,,134,19,V,R,
284,32,32,6,2,33,47,835,['n'],1,right,['8'],4,612,[-0.056172],93,47,medium,plus,dotcolour,alfa,,,134,19,V,R,
285,33,33,6,2,47,33,749,['c'],1,left,['9'],5,376,[0.18216714],100,47,medium,plus,dotcolour,alfa,,,134,19,V,R,
286,34,34,6,2,44,36,1151,['n'],0,left,['8'],4,219,[-0.09258446],100,44,hard,plus,dotcolour,alfa,,,134,19,V,R,
287,35,35,6,2,47,33,667,['c'],1,left,['9'],5,385,[0.17120081],100,47,medium,plus,dotcolour,alfa,,,134,19,V,R,
288,36,36,6,2,44,36,817,['c'],1,left,['8'],4,338,[0.15412325],100,44,hard,plus,dotcolour,alfa,,,134,19,V,R,
289,37,37,6,2,47,33,935,['c'],1,left,['9'],5,240,[0.0971217],100,47,medium,plus,dotcolour,alfa,,,134,19,V,R,
290,38,38,6,2,27,53,934,['n'],1,right,['9'],5,179,[-0.05249301],99,53,easy,plus,dotcolour,alfa,,,134,19,V,R,
291,39,39,6,2,53,27,734,['c'],1,left,['9'],5,231,[0.16220784],100,53,easy,plus,dotcolour,alfa,,,134,19,V,R,
292,40,40,6,2,33,47,1166,['c'],0,right,['8'],4,217,[0.02750848],89,47,medium,plus,dotcolour,alfa,,,134,19,V,R,
293,41,41,6,2,53,27,649,['c'],1,left,['0'],6,303,[0.02488659],84,53,easy,plus,dotcolour,alfa,,,134,19,V,R,
294,42,0,7,2,33,47,784,['n'],1,right,['0'],6,270,[-0.12278357],100,47,medium,plus,dotcolour,alfa,,,134,19,V,R,
295,43,1,7,2,47,33,1300,['n'],0,left,['8'],4,193,[-0.07949468],100,47,medium,plus,dotcolour,alfa,,,134,19,V,R,
296,44,2,7,2,27,53,817,['n'],1,right,['0'],6,250,[-0.21070858],100,53,easy,plus,dotcolour,alfa,,,134,19,V,R,
297,45,3,7,2,36,44,600,['n'],1,right,['0'],6,265,[-0.07984151],100,44,hard,plus,dotcolour,alfa,,,134,19,V,R,
298,46,4,7,2,33,47,617,['n'],1,right,['9'],5,287,[-0.1051773],100,47,medium,plus,dotcolour,alfa,,,134,19,V,R,
299,47,5,7,2,33,47,500,['n'],1,right,['9'],5,321,[-0.08218373],99,47,medium,plus,dotcolour,alfa,,,134,19,V,R,
300,48,6,7,2,44,36,1234,['c'],1,left,['9'],5,228,[0.07264684],100,44,hard,plus,dotcolour,alfa,,,134,19,V,R,
301,49,7,7,2,53,27,733,['c'],1,left,['9'],5,255,[0.07407624],99,53,easy,plus,dotcolour,alfa,,,134,19,V,R,
302,50,8,7,2,36,44,1418,['n'],1,right,['9'],5,278,[-0.03387327],91,44,hard,plus,dotcolour,alfa,,,134,19,V,R,
303,51,9,7,2,33,47,1617,['n'],1,right,['9'],5,235,[-0.16464424],100,47,medium,plus,dotcolour,alfa,,,134,19,V,R,
304,52,10,7,2,44,36,1217,['n'],0,left,['9'],5,211,[-0.12318914],100,44,hard,plus,dotcolour,alfa,,,134,19,V,R,
305,53,11,7,2,44,36,1017,['c'],1,left,['9'],5,258,[0.03889305],94,44,hard,plus,dotcolour,alfa,,,134,19,V,R,
306,54,12,7,2,33,47,800,['n'],1,right,['9'],5,209,[-0.10544137],100,47,medium,plus,dotcolour,alfa,,,134,19,V,R,
307,55,13,7,2,36,44,1017,['n'],1,right,['9'],5,185,[-0.05968572],99,44,hard,plus,dotcolour,alfa,,,134,19,V,R,
308,56,14,7,2,27,53,800,['n'],1,right,['9'],5,211,[-0.10076143],100,53,easy,plus,dotcolour,alfa,,,134,19,V,R,
309,57,15,7,2,27,53,550,['n'],1,right,['9'],5,246,[-0.10568567],100,53,easy,plus,dotcolour,alfa,,,134,19,V,R,
310,58,16,7,2,44,36,766,['n'],0,left,['9'],5,150,[-0.02756815],93,44,hard,plus,dotcolour,alfa,,,134,19,V,R,
311,59,17,7,2,36,44,750,['n'],1,right,['9'],5,172,[-0.06205765],100,44,hard,plus,dotcolour,alfa,,,134,19,V,R,
312,60,18,7,2,53,27,1117,['c'],1,left,['9'],5,194,[0.04843294],98,53,easy,plus,dotcolour,alfa,,,134,19,V,R,
313,61,19,7,2,36,44,934,['c'],0,right,['9'],5,151,[0.08062306],100,44,hard,plus,dotcolour,alfa,,,134,19,V,R,
314,62,20,7,2,27,53,617,['n'],1,right,['9'],5,169,[-0.07703986],100,53,easy,plus,dotcolour,alfa,,,134,19,V,R,
315,63,21,7,2,53,27,634,['c'],1,left,['9'],5,178,[0.13018184],100,53,easy,plus,dotcolour,alfa,,,134,19,V,R,
316,64,22,7,2,53,27,884,['c'],1,left,['9'],5,89,[0.09121815],100,53,easy,plus,dotcolour,alfa,,,134,19,V,R,
317,65,23,7,2,44,36,833,['c'],1,left,['0'],6,245,[0.11187338],100,44,hard,plus,dotcolour,alfa,,,134,19,V,R,
318,66,24,7,2,53,27,1084,['c'],1,left,['0'],6,194,[0.1063609],100,53,easy,plus,dotcolour,alfa,,,134,19,V,R,
319,67,25,7,2,47,33,634,['c'],1,left,['0'],6,169,[0.12799721],100,47,medium,plus,dotcolour,alfa,,,134,19,V,R,
320,68,26,7,2,47,33,817,['c'],1,left,['9'],5,219,[0.0953711],100,47,medium,plus,dotcolour,alfa,,,134,19,V,R,
321,69,27,7,2,44,36,616,['c'],1,left,['8'],4,651,[0.14146714],100,44,hard,plus,dotcolour,alfa,,,134,19,V,R,
322,70,28,7,2,44,36,1100,['n'],0,left,['8'],4,150,[-0.06023928],100,44,hard,plus,dotcolour,alfa,,,134,19,V,R,
323,71,29,7,2,47,33,916,['c'],1,left,['9'],5,365,[0.07898501],99,47,medium,plus,dotcolour,alfa,,,134,19,V,R,
324,72,30,7,2,33,47,834,['n'],1,right,['8'],4,95,[-0.1026585],100,47,medium,plus,dotcolour,alfa,,,134,19,V,R,
325,73,31,7,2,47,33,684,['c'],1,left,['9'],5,257,[0.10015135],100,47,medium,plus,dotcolour,alfa,,,134,19,V,R,
326,74,32,7,2,47,33,934,['c'],1,left,['9'],5,362,[0.10846247],100,47,medium,plus,dotcolour,alfa,,,134,19,V,R,
327,75,33,7,2,53,27,616,['c'],1,left,['9'],5,252,[0.15856486],100,53,easy,plus,dotcolour,alfa,,,134,19,V,R,
328,76,34,7,2,47,33,683,['n'],0,left,['8'],4,192,[-0.07672792],100,47,medium,plus,dotcolour,alfa,,,134,19,V,R,
329,77,35,7,2,27,53,534,['c'],0,right,['8'],4,172,[0.03912776],97,53,easy,plus,dotcolour,alfa,,,134,19,V,R,
330,78,36,7,2,53,27,650,['c'],1,left,['8'],4,293,[0.05064297],97,53,easy,plus,dotcolour,alfa,,,134,19,V,R,
331,79,37,7,2,36,44,1134,['n'],1,right,['8'],4,69,[-0.060566],100,44,hard,plus,dotcolour,alfa,,,134,19,V,R,
332,80,38,7,2,33,47,917,['n'],1,right,['8'],4,127,[-0.11635119],100,47,medium,plus,dotcolour,alfa,,,134,19,V,R,
333,81,39,7,2,27,53,700,['n'],1,right,['8'],4,87,[-0.09819889],100,53,easy,plus,dotcolour,alfa,,,134,19,V,R,
334,82,40,7,2,36,44,650,['c'],0,right,['8'],4,260,[0.06798564],99,44,hard,plus,dotcolour,alfa,,,134,19,V,R,
335,83,41,7,2,27,53,750,['n'],1,right,['8'],4,644,[-0.08883626],98,53,easy,plus,dotcolour,alfa,,,134,19,V,R,
336,84,0,8,2,47,33,1485,['c'],1,left,['9'],5,290,[0.13375185],100,47,medium,plus,dotcolour,alfa,,,134,19,V,R,
337,85,1,8,2,44,36,650,['c'],1,left,['9'],5,221,[0.07803526],100,44,hard,plus,dotcolour,alfa,,,134,19,V,R,
338,86,2,8,2,33,47,751,['n'],1,right,['8'],4,440,[-0.06740207],97,47,medium,plus,dotcolour,alfa,,,134,19,V,R,
339,87,3,8,2,33,47,1217,['n'],1,right,['8'],4,167,[-0.031822],94,47,medium,plus,dotcolour,alfa,,,134,19,V,R,
340,88,4,8,2,36,44,1334,['n'],1,right,['3'],3,340,[-0.04770461],95,44,hard,plus,dotcolour,alfa,,,134,19,V,R,
341,89,5,8,2,44,36,900,['c'],1,left,['9'],5,123,[0.05766573],100,44,hard,plus,dotcolour,alfa,,,134,19,V,R,
342,90,6,8,2,33,47,1367,['n'],1,right,['9'],5,152,[-0.11343],100,47,medium,plus,dotcolour,alfa,,,134,19,V,R,
343,91,7,8,2,27,53,1034,['n'],1,right,['9'],5,155,[-0.13036181],100,53,easy,plus,dotcolour,alfa,,,134,19,V,R,
344,92,8,8,2,53,27,750,['c'],1,left,['9'],5,216,[0.08202109],100,53,easy,plus,dotcolour,alfa,,,134,19,V,R,
345,93,9,8,2,47,33,483,['c'],1,left,['9'],5,246,[0.01896697],80,47,medium,plus,dotcolour,alfa,,,134,19,V,R,
346,94,10,8,2,53,27,1133,['n'],0,left,['8'],4,247,[0.07676471],0,53,easy,plus,dotcolour,alfa,,,134,19,V,R,
347,95,11,8,2,27,53,884,['n'],1,right,['9'],5,203,[-0.03373303],94,53,easy,plus,dotcolour,alfa,,,134,19,V,R,
348,96,12,8,2,36,44,1351,['n'],1,right,['9'],5,103,[-0.11597572],100,44,hard,plus,dotcolour,alfa,,,134,19,V,R,
349,97,13,8,2,27,53,1050,['n'],1,right,['9'],5,66,[-0.07631221],100,53,easy,plus,dotcolour,alfa,,,134,19,V,R,
350,98,14,8,2,36,44,699,['c'],0,right,['9'],5,189,[0.12989627],100,44,hard,plus,dotcolour,alfa,,,134,19,V,R,
351,99,15,8,2,27,53,884,['n'],1,right,['9'],5,123,[-0.12243898],100,53,easy,plus,dotcolour,alfa,,,134,19,V,R,
352,100,16,8,2,36,44,1000,['c'],0,right,['9'],5,79,[0.08255082],100,44,hard,plus,dotcolour,alfa,,,134,19,V,R,
353,101,17,8,2,47,33,935,['c'],1,left,['9'],5,144,[0.07590429],100,47,medium,plus,dotcolour,alfa,,,134,19,V,R,
354,102,18,8,2,33,47,1050,['n'],1,right,['8'],4,450,[-0.24835301],100,47,medium,plus,dotcolour,alfa,,,134,19,V,R,
355,103,19,8,2,47,33,1533,['n'],0,left,['8'],4,116,[0.00917913],27,47,medium,plus,dotcolour,alfa,,,134,19,V,R,
356,104,20,8,2,27,53,1066,['c'],0,right,['8'],4,109,[0.05736447],100,53,easy,plus,dotcolour,alfa,,,134,19,V,R,
357,105,21,8,2,36,44,967,['n'],1,right,['8'],4,131,[-0.07570885],100,44,hard,plus,dotcolour,alfa,,,134,19,V,R,
358,106,22,8,2,53,27,767,['c'],1,left,['8'],4,153,[0.06302447],100,53,easy,plus,dotcolour,alfa,,,134,19,V,R,
359,107,23,8,2,47,33,550,['c'],1,left,['8'],4,142,[0.08449013],100,47,medium,plus,dotcolour,alfa,,,134,19,V,R,
360,108,24,8,2,53,27,667,['c'],1,left,['8'],4,127,[0.08414662],100,53,easy,plus,dotcolour,alfa,,,134,19,V,R,
361,109,25,8,2,33,47,1333,['c'],0,right,['3'],3,397,[0.01504482],70,47,medium,plus,dotcolour,alfa,,,134,19,V,R,
362,110,26,8,2,44,36,883,['c'],1,left,['8'],4,84,[0.02795549],97,44,hard,plus,dotcolour,alfa,,,134,19,V,R,
363,111,27,8,2,44,36,616,['c'],1,left,['9'],5,209,[0.10955045],100,44,hard,plus,dotcolour,alfa,,,134,19,V,R,
364,112,28,8,2,36,44,600,['c'],0,right,['9'],5,187,[0.09689206],100,44,hard,plus,dotcolour,alfa,,,134,19,V,R,
365,113,29,8,2,27,53,1100,['n'],1,right,['8'],4,175,[-0.08326088],100,53,easy,plus,dotcolour,alfa,,,134,19,V,R,
366,114,30,8,2,44,36,783,['c'],1,left,['8'],4,179,[0.03971684],97,44,hard,plus,dotcolour,alfa,,,134,19,V,R,
367,115,31,8,2,53,27,1084,['n'],0,left,['8'],4,121,[-0.06512902],100,53,easy,plus,dotcolour,alfa,,,134,19,V,R,
368,116,32,8,2,27,53,984,['n'],1,right,['8'],4,142,[-0.07459734],100,53,easy,plus,dotcolour,alfa,,,134,19,V,R,
369,117,33,8,2,53,27,683,['c'],1,left,['8'],4,166,[0.12452879],100,53,easy,plus,dotcolour,alfa,,,134,19,V,R,
370,118,34,8,2,44,36,917,['n'],0,left,['8'],4,236,[0.00519351],40,44,hard,plus,dotcolour,alfa,,,134,19,V,R,
371,119,35,8,2,47,33,951,['c'],1,left,['8'],4,54,[0.07369317],100,47,medium,plus,dotcolour,alfa,,,134,19,V,R,
372,120,36,8,2,33,47,1199,['c'],0,right,['8'],4,86,[0.05214865],100,47,medium,plus,dotcolour,alfa,,,134,19,V,R,
373,121,37,8,2,53,27,584,['c'],1,left,['8'],4,140,[0.11006847],100,53,easy,plus,dotcolour,alfa,,,134,19,V,R,
374,122,38,8,2,47,33,1167,['n'],0,left,['8'],4,802,[0.14615506],0,47,medium,plus,dotcolour,alfa,,,134,19,V,R,
375,123,39,8,2,33,47,1481,['n'],1,right,['8'],4,118,[-0.07462264],100,47,medium,plus,dotcolour,alfa,,,134,19,V,R,
376,124,40,8,2,36,44,883,['n'],1,right,['8'],4,176,[-0.13248702],100,44,hard,plus,dotcolour,alfa,,,134,19,V,R,
377,125,41,8,2,44,36,650,['c'],1,left,['0'],6,408,[0.0306162],85,44,hard,plus,dotcolour,alfa,,,134,19,V,R,
378,0,0,9,3,36,44,950,['c'],0,right,['8'],4,80,[0.0991357],96,44,hard,minus,dotcolour,alfa,,,134,19,V,R,
379,1,1,9,3,27,53,566,['n'],1,right,['8'],4,143,[-0.01131629],57,53,easy,minus,dotcolour,alfa,,,134,19,V,R,
380,2,2,9,3,53,27,549,['c'],1,left,['9'],5,237,[0.13515035],92,53,easy,minus,dotcolour,alfa,,,134,19,V,R,
381,3,3,9,3,44,36,767,['c'],1,left,['9'],5,143,[0.13386006],96,44,hard,minus,dotcolour,alfa,,,134,19,V,R,
382,4,4,9,3,53,27,500,['c'],1,left,['9'],5,101,[0.08961268],93,53,easy,minus,dotcolour,alfa,,,134,19,V,R,
383,5,5,9,3,47,33,617,['c'],1,left,['9'],5,114,[0.03096751],70,47,medium,minus,dotcolour,alfa,,,134,19,V,R,
384,6,6,9,3,47,33,650,['c'],1,left,['9'],5,117,[0.03472995],71,47,medium,minus,dotcolour,alfa,,,134,19,V,R,
385,7,7,9,3,53,27,533,['c'],1,left,['9'],5,84,[0.06696419],89,53,easy,minus,dotcolour,alfa,,,134,19,V,R,
386,8,8,9,3,27,53,916,['n'],1,right,['9'],5,181,[-0.05595659],77,53,easy,minus,dotcolour,alfa,,,134,19,V,R,
387,9,9,9,3,36,44,617,['c'],0,right,['8'],4,127,[0.08330647],89,44,hard,minus,dotcolour,alfa,,,134,19,V,R,
388,10,10,9,3,47,33,568,['c'],1,left,['9'],5,133,[0.08568163],89,47,medium,minus,dotcolour,alfa,,,134,19,V,R,
389,11,11,9,3,27,53,1134,['n'],1,right,['8'],4,99,[-0.11085412],96,53,easy,minus,dotcolour,alfa,,,134,19,V,R,
390,12,12,9,3,53,27,417,['c'],1,left,['9'],5,223,[0.05224672],73,53,easy,minus,dotcolour,alfa,,,134,19,V,R,
391,13,13,9,3,47,33,516,['c'],1,left,['8'],4,99,[0.0652017],87,47,medium,minus,dotcolour,alfa,,,134,19,V,R,
392,14,14,9,3,27,53,3617,['n'],1,right,['8'],4,328,[-0.1360256],89,53,easy,minus,dotcolour,alfa,,,134,19,V,R,
393,15,15,9,3,27,53,1050,['n'],1,right,['0'],6,201,[-0.08708589],85,53,easy,minus,dotcolour,alfa,,,134,19,V,R,
394,16,16,9,3,33,47,1468,['n'],1,right,['8'],4,168,[-0.08115985],86,47,medium,minus,dotcolour,alfa,,,134,19,V,R,
395,17,17,9,3,53,27,834,['c'],1,left,['8'],4,137,[0.08210287],88,53,easy,minus,dotcolour,alfa,,,134,19,V,R,
396,18,18,9,3,47,33,767,['c'],1,left,['9'],5,191,[0.1409088],95,47,medium,minus,dotcolour,alfa,,,134,19,V,R,
397,19,19,9,3,44,36,683,['c'],1,left,['8'],4,13,[0.07826043],100,44,hard,minus,dotcolour,alfa,,,134,19,V,R,
398,20,20,9,3,27,53,700,['n'],1,right,['8'],4,138,[-0.08662875],89,53,easy,minus,dotcolour,alfa,,,134,19,V,R,
399,21,21,9,3,53,27,534,['c'],1,left,['8'],4,168,[-0.01029307],44,53,easy,minus,dotcolour,alfa,,,134,19,V,R,
400,22,22,9,3,27,53,834,['n'],1,right,['8'],4,186,[-0.14663108],96,53,easy,minus,dotcolour,alfa,,,134,19,V,R,
401,23,23,9,3,44,36,667,['c'],1,left,['8'],4,761,[0.17075122],85,44,hard,minus,dotcolour,alfa,,,134,19,V,R,
402,24,24,9,3,44,36,1283,['c'],1,left,['3'],3,264,[0.10024173],85,44,hard,minus,dotcolour,alfa,,,134,19,V,R,
403,25,25,9,3,33,47,999,['n'],1,right,['8'],4,111,[-0.11084958],95,47,medium,minus,dotcolour,alfa,,,134,19,V,R,
404,26,26,9,3,36,44,984,['n'],1,right,['8'],4,820,[-0.04110788],60,44,hard,minus,dotcolour,alfa,,,134,19,V,R,
405,27,27,9,3,33,47,2667,['c'],0,right,['8'],4,90,[0.09615405],95,47,medium,minus,dotcolour,alfa,,,134,19,V,R,
406,28,28,9,3,44,36,650,['c'],1,left,['8'],4,102,[0.11602781],96,44,hard,minus,dotcolour,alfa,,,134,19,V,R,
407,29,29,9,3,33,47,3267,['n'],1,right,['8'],4,360,[-0.16007878],92,47,medium,minus,dotcolour,alfa,,,134,19,V,R,
408,30,30,9,3,36,44,734,['n'],1,right,['8'],4,126,[-0.07469903],87,44,hard,minus,dotcolour,alfa,,,134,19,V,R,
409,31,31,9,3,36,44,801,['n'],1,right,['8'],4,170,[-0.09581204],89,44,hard,minus,dotcolour,alfa,,,134,19,V,R,
410,32,32,9,3,44,36,1200,['c'],1,left,['0'],6,644,[0.09099454],74,44,hard,minus,dotcolour,alfa,,,134,19,V,R,
411,33,33,9,3,53,27,733,['c'],1,left,"['9', '0']",5,311,[0.15566649],92,53,easy,minus,dotcolour,alfa,,,134,19,V,R,
412,34,34,9,3,47,33,667,['n'],0,left,['9'],5,161,[-0.05891035],79,47,medium,minus,dotcolour,alfa,,,134,19,V,R,
413,35,35,9,3,33,47,851,['n'],1,right,['9'],5,194,[-0.08409589],85,47,medium,minus,dotcolour,alfa,,,134,19,V,R,
414,36,36,9,3,36,44,666,['c'],0,right,['0'],6,480,[0.11143909],81,44,hard,minus,dotcolour,alfa,,,134,19,V,R,
415,37,37,9,3,44,36,1100,['n'],0,left,['1'],1,114,[-0.03875156],74,44,hard,minus,dotcolour,alfa,,,134,19,V,R,
416,38,38,9,3,33,47,499,['c'],0,right,['1'],1,771,[0.15302427],83,47,medium,minus,dotcolour,alfa,,,134,19,V,R,
417,39,39,9,3,47,33,2018,['c'],1,left,['3'],3,60,[0.04520281],84,47,medium,minus,dotcolour,alfa,,,134,19,V,R,
418,40,40,9,3,33,47,1116,['c'],0,right,['8'],4,470,[-0.03473694],39,47,medium,minus,dotcolour,alfa,,,134,19,V,R,
419,41,41,9,3,36,44,1000,['n'],1,right,['8'],4,221,[-0.08140843],83,44,hard,minus,dotcolour,alfa,,,134,19,V,R,
420,42,0,10,3,27,53,484,['n'],1,right,['9'],5,299,[-0.05869311],72,53,easy,minus,dotcolour,alfa,,,134,19,V,R,
421,43,1,10,3,36,44,933,['c'],0,right,['8'],4,171,[0.11260825],92,44,hard,minus,dotcolour,alfa,,,134,19,V,R,
422,44,2,10,3,44,36,684,['n'],0,left,['8'],4,130,[-0.06480236],83,44,hard,minus,dotcolour,alfa,,,134,19,V,R,
423,45,3,10,3,47,33,534,['c'],1,left,['8'],4,97,[0.07483],90,47,medium,minus,dotcolour,alfa,,,134,19,V,R,
424,46,4,10,3,36,44,583,['n'],1,right,['8'],4,71,[-0.07454478],93,44,hard,minus,dotcolour,alfa,,,134,19,V,R,
425,47,5,10,3,47,33,484,['n'],0,left,['8'],4,106,[-0.04171393],76,47,medium,minus,dotcolour,alfa,,,134,19,V,R,
426,48,6,10,3,36,44,617,['c'],0,right,['8'],4,15,[0.0753946],100,44,hard,minus,dotcolour,alfa,,,134,19,V,R,
427,49,7,10,3,27,53,517,['n'],1,right,['8'],4,123,[-0.05942896],82,53,easy,minus,dotcolour,alfa,,,134,19,V,R,
428,50,8,10,3,27,53,401,['n'],1,right,['8'],4,151,[-0.08455916],88,53,easy,minus,dotcolour,alfa,,,134,19,V,R,
429,51,9,10,3,33,47,466,['n'],1,right,['9'],5,393,[-0.14164148],88,47,medium,minus,dotcolour,alfa,,,134,19,V,R,
430,52,10,10,3,33,47,268,['n'],1,right,['9'],5,182,[-0.00628847],53,47,medium,minus,dotcolour,alfa,,,134,19,V,R,
431,53,11,10,3,27,53,2350,['n'],1,right,['8'],4,1034,[-0.06300095],64,53,easy,minus,dotcolour,alfa,,,134,19,V,R,
432,54,12,10,3,47,33,334,['n'],0,left,['8'],4,92,[-0.01613069],62,47,medium,minus,dotcolour,alfa,,,134,19,V,R,
433,55,13,10,3,44,36,1434,['c'],1,left,['3'],3,176,[0.13496837],95,44,hard,minus,dotcolour,alfa,,,134,19,V,R,
434,56,14,10,3,53,27,883,['c'],1,left,['9'],5,247,[0.16354494],95,53,easy,minus,dotcolour,alfa,,,134,19,V,R,
435,57,15,10,3,33,47,800,['n'],1,right,['9'],5,230,[-0.03622156],66,47,medium,minus,dotcolour,alfa,,,134,19,V,R,
436,58,16,10,3,44,36,583,['c'],1,left,['9'],5,119,[0.12383092],96,44,hard,minus,dotcolour,alfa,,,134,19,V,R,
437,59,17,10,3,47,33,467,['c'],1,left,['0'],6,201,[0.09315953],87,47,medium,minus,dotcolour,alfa,,,134,19,V,R,
438,60,18,10,3,33,47,466,['c'],0,right,['9'],5,240,[0.07028528],78,47,medium,minus,dotcolour,alfa,,,134,19,V,R,
439,61,19,10,3,27,53,767,['n'],1,right,['0'],6,200,[-0.06966776],80,53,easy,minus,dotcolour,alfa,,,134,19,V,R,
440,62,20,10,3,53,27,934,['c'],1,left,['0'],6,245,[0.09863854],86,53,easy,minus,dotcolour,alfa,,,134,19,V,R,
441,63,21,10,3,47,33,1133,['n'],0,left,['8'],4,158,[-0.0836249],87,47,medium,minus,dotcolour,alfa,,,134,19,V,R,
442,64,22,10,3,53,27,666,['c'],1,left,['9'],5,374,[0.12680076],87,53,easy,minus,dotcolour,alfa,,,134,19,V,R,
443,65,23,10,3,36,44,984,['n'],1,right,['0'],6,169,[-0.09013906],88,44,hard,minus,dotcolour,alfa,,,134,19,V,R,
444,66,24,10,3,44,36,917,['c'],1,left,['8'],4,127,[0.08052808],88,44,hard,minus,dotcolour,alfa,,,134,19,V,R,
445,67,25,10,3,36,44,700,['c'],0,right,['8'],4,135,[0.11512172],94,44,hard,minus,dotcolour,alfa,,,134,19,V,R,
446,68,26,10,3,44,36,783,['n'],0,left,['8'],4,124,[-0.08241703],89,44,hard,minus,dotcolour,alfa,,,134,19,V,R,
447,69,27,10,3,53,27,617,['c'],1,left,['8'],4,192,[0.18932656],98,53,easy,minus,dotcolour,alfa,,,134,19,V,R,
448,70,28,10,3,53,27,783,['c'],1,left,['9'],5,225,[0.15449024],95,53,easy,minus,dotcolour,alfa,,,134,19,V,R,
449,71,29,10,3,27,53,1384,['n'],1,right,['9'],5,202,[-0.08951325],86,53,easy,minus,dotcolour,alfa,,,134,19,V,R,
450,72,30,10,3,33,47,633,['c'],0,right,['9'],5,90,[0.10754175],96,47,medium,minus,dotcolour,alfa,,,134,19,V,R,
451,73,31,10,3,33,47,1099,['n'],1,right,['9'],5,244,[0.00757629],47,47,medium,minus,dotcolour,alfa,,,134,19,V,R,
452,74,32,10,3,47,33,800,['c'],1,left,['9'],5,186,[0.10308837],90,47,medium,minus,dotcolour,alfa,,,134,19,V,R,
453,75,33,10,3,53,27,900,['c'],1,left,['9'],5,57,[0.05767745],90,53,easy,minus,dotcolour,alfa,,,134,19,V,R,
454,76,34,10,3,53,27,633,['c'],1,left,['9'],5,198,[0.1444533],95,53,easy,minus,dotcolour,alfa,,,134,19,V,R,
455,77,35,10,3,47,33,533,['c'],1,left,['9'],5,219,[0.07866556],82,47,medium,minus,dotcolour,alfa,,,134,19,V,R,
456,78,36,10,3,44,36,417,['c'],1,left,['9'],5,179,[0.05709923],77,44,hard,minus,dotcolour,alfa,,,134,19,V,R,
457,79,37,10,3,36,44,566,['n'],1,right,['9'],5,134,[-0.09836466],92,44,hard,minus,dotcolour,alfa,,,134,19,V,R,
458,80,38,10,3,44,36,467,['c'],1,left,['9'],5,1000,[0.2426585],90,44,hard,minus,dotcolour,alfa,,,134,19,V,R,
459,81,39,10,3,27,53,967,['n'],1,right,['9'],5,146,[-0.05452946],78,53,easy,minus,dotcolour,alfa,,,134,19,V,R,
460,82,40,10,3,36,44,868,['c'],0,right,['9'],5,10,[0.08376707],100,44,hard,minus,dotcolour,alfa,,,134,19,V,R,
461,83,41,10,3,33,47,915,['n'],1,right,['9'],5,455,[-0.16606289],90,47,medium,minus,dotcolour,alfa,,,134,19,V,R,
462,84,0,11,3,36,44,767,['c'],0,right,['9'],5,110,[0.06389931],85,44,hard,minus,dotcolour,alfa,,,134,19,V,R,
463,85,1,11,3,33,47,617,['n'],1,right,['0'],6,83,[-0.0990622],96,47,medium,minus,dotcolour,alfa,,,134,19,V,R,
464,86,2,11,3,47,33,651,['c'],1,left,['9'],5,62,[0.06353485],91,47,medium,minus,dotcolour,alfa,,,134,19,V,R,
465,87,3,11,3,47,33,566,['c'],1,left,['3'],3,7,[0.080369],100,47,medium,minus,dotcolour,alfa,,,134,19,V,R,
466,88,4,11,3,44,36,1118,['n'],0,left,['9'],5,147,[-0.03209589],68,44,hard,minus,dotcolour,alfa,,,134,19,V,R,
467,89,5,11,3,44,36,483,['c'],1,left,['9'],5,171,[0.04890462],74,44,hard,minus,dotcolour,alfa,,,134,19,V,R,
468,90,6,11,3,53,27,900,['c'],1,left,['9'],5,146,[0.09820173],91,53,easy,minus,dotcolour,alfa,,,134,19,V,R,
469,91,7,11,3,47,33,916,['n'],0,left,['8'],4,185,[-0.03451055],67,47,medium,minus,dotcolour,alfa,,,134,19,V,R,
470,92,8,11,3,44,36,667,['c'],1,left,['9'],5,200,[0.13000672],93,44,hard,minus,dotcolour,alfa,,,134,19,V,R,
471,93,9,11,3,36,44,584,['c'],0,right,['9'],5,90,[0.07306876],90,44,hard,minus,dotcolour,alfa,,,134,19,V,R,
472,94,10,11,3,44,36,616,['n'],0,left,['8'],4,31,[-0.02323194],77,44,hard,minus,dotcolour,alfa,,,134,19,V,R,
473,95,11,11,3,47,33,500,['c'],1,left,['9'],5,91,[0.10027357],95,47,medium,minus,dotcolour,alfa,,,134,19,V,R,
474,96,12,11,3,53,27,533,['c'],1,left,['9'],5,139,[0.05746684],80,53,easy,minus,dotcolour,alfa,,,134,19,V,R,
475,97,13,11,3,36,44,834,['n'],1,right,['9'],5,118,[-0.06683039],85,44,hard,minus,dotcolour,alfa,,,134,19,V,R,
476,98,14,11,3,53,27,483,['c'],1,left,['9'],5,71,[0.10918867],98,53,easy,minus,dotcolour,alfa,,,134,19,V,R,
477,99,15,11,3,27,53,751,['c'],0,right,['9'],5,136,[0.00747052],55,53,easy,minus,dotcolour,alfa,,,134,19,V,R,
478,100,16,11,3,53,27,515,['c'],1,left,['9'],5,88,[0.09350921],94,53,easy,minus,dotcolour,alfa,,,134,19,V,R,
479,101,17,11,3,27,53,717,['n'],1,right,['9'],5,145,[-0.00935219],56,53,easy,minus,dotcolour,alfa,,,134,19,V,R,
480,102,18,11,3,33,47,532,['c'],0,right,['9'],5,150,[0.05527844],78,47,medium,minus,dotcolour,alfa,,,134,19,V,R,
481,103,19,11,3,53,27,533,['c'],1,left,['9'],5,77,[0.05480895],86,53,easy,minus,dotcolour,alfa,,,134,19,V,R,
482,104,20,11,3,53,27,751,['c'],1,left,['9'],5,204,[0.14280653],95,53,easy,minus,dotcolour,alfa,,,134,19,V,R,
483,105,21,11,3,33,47,883,['n'],1,right,['9'],5,251,[-0.04095183],68,47,medium,minus,dotcolour,alfa,,,134,19,V,R,
484,106,22,11,3,36,44,584,['c'],0,right,['9'],5,451,[0.12391558],84,44,hard,minus,dotcolour,alfa,,,134,19,V,R,
485,107,23,11,3,44,36,649,['c'],1,left,['9'],5,96,[0.08510524],92,44,hard,minus,dotcolour,alfa,,,134,19,V,R,
486,108,24,11,3,27,53,700,['n'],1,right,['9'],5,185,[-0.10284153],90,53,easy,minus,dotcolour,alfa,,,134,19,V,R,
487,109,25,11,3,53,27,649,['c'],1,left,['9'],5,10,[0.07499632],100,53,easy,minus,dotcolour,alfa,,,134,19,V,R,
488,110,26,11,3,27,53,782,['n'],1,right,['9'],5,132,[-0.0815276],88,53,easy,minus,dotcolour,alfa,,,134,19,V,R,
489,111,27,11,3,36,44,800,['c'],0,right,['9'],5,223,[-0.02410722],39,44,hard,minus,dotcolour,alfa,,,134,19,V,R,
490,112,28,11,3,27,53,567,['n'],1,right,['9'],5,120,[-0.15166433],98,53,easy,minus,dotcolour,alfa,,,134,19,V,R,
491,113,29,11,3,33,47,566,['n'],1,right,['9'],5,94,[-0.11290011],96,47,medium,minus,dotcolour,alfa,,,134,19,V,R,
492,114,30,11,3,27,53,616,['c'],0,right,['9'],5,539,[0.04578638],64,53,easy,minus,dotcolour,alfa,,,134,19,V,R,
493,115,31,11,3,33,47,384,['n'],1,right,['1'],1,640,[-0.175469],88,47,medium,minus,dotcolour,alfa,,,134,19,V,R,
494,116,32,11,3,36,44,3517,['n'],1,right,['9'],5,690,[-0.12319737],79,44,hard,minus,dotcolour,alfa,,,134,19,V,R,
495,117,33,11,3,27,53,600,['n'],1,right,['0'],6,319,[-0.02781037],61,53,easy,minus,dotcolour,alfa,,,134,19,V,R,
496,118,34,11,3,44,36,651,['c'],1,left,['0'],6,298,[0.13089882],90,44,hard,minus,dotcolour,alfa,,,134,19,V,R,
497,119,35,11,3,44,36,617,['c'],1,left,['8'],4,382,[-0.0538435],31,44,hard,minus,dotcolour,alfa,,,134,19,V,R,
498,120,36,11,3,33,47,733,['n'],1,right,['8'],4,107,[-0.10362728],95,47,medium,minus,dotcolour,alfa,,,134,19,V,R,
499,121,37,11,3,47,33,617,['c'],1,left,['8'],4,175,[0.11670967],92,47,medium,minus,dotcolour,alfa,,,134,19,V,R,
500,122,38,11,3,36,44,551,['c'],0,right,['8'],4,179,[0.0722576],82,44,hard,minus,dotcolour,alfa,,,134,19,V,R,
501,123,39,11,3,33,47,667,['n'],1,right,['9'],5,194,[-0.08097085],84,47,medium,minus,dotcolour,alfa,,,134,19,V,R,
502,124,40,11,3,47,33,1199,['c'],1,left,['3'],3,84,[0.0600983],87,47,medium,minus,dotcolour,alfa,,,134,19,V,R,
503,125,41,11,3,47,33,1083,['n'],0,left,['9'],5,263,[-0.06016059],74,47,medium,minus,dotcolour,alfa,,,134,19,V,R,
504,0,0,12,4,44,36,1001,['c'],1,left,['9'],5,214,[0.03132526],92,44,hard,plus,dotcolour,alfa,,,134,19,V,R,
505,1,1,12,4,44,36,766,['c'],1,left,['9'],5,176,[0.09404247],100,44,hard,plus,dotcolour,alfa,,,134,19,V,R,
506,2,2,12,4,27,53,883,['n'],1,right,['9'],5,118,[-0.0882727],100,53,easy,plus,dotcolour,alfa,,,134,19,V,R,
507,3,3,12,4,36,44,800,['n'],1,right,['8'],4,195,[-0.03225798],93,44,hard,plus,dotcolour,alfa,,,134,19,V,R,
508,4,4,12,4,33,47,983,['n'],1,right,['8'],4,325,[-0.05334788],97,47,medium,plus,dotcolour,alfa,,,134,19,V,R,
509,5,5,12,4,33,47,1618,['c'],0,right,['0'],6,289,[0.03485926],91,47,medium,plus,dotcolour,alfa,,,134,19,V,R,
510,6,6,12,4,47,33,784,['n'],0,left,['1'],1,1015,[0.14872705],0,47,medium,plus,dotcolour,alfa,,,134,19,V,R,
511,7,7,12,4,27,53,1067,['n'],1,right,"['9', '0']",5,197,[-0.12083643],100,53,easy,plus,dotcolour,alfa,,,134,19,V,R,
512,8,8,12,4,47,33,1184,['c'],1,left,['0'],6,407,[0.24264048],100,47,medium,plus,dotcolour,alfa,,,134,19,V,R,
513,9,9,12,4,33,47,717,['n'],1,right,['0'],6,211,[-0.12839779],100,47,medium,plus,dotcolour,alfa,,,134,19,V,R,
514,10,10,12,4,33,47,950,['n'],1,right,['0'],6,190,[-0.12626229],100,47,medium,plus,dotcolour,alfa,,,134,19,V,R,
515,11,11,12,4,36,44,1050,['n'],1,right,['0'],6,180,[-0.13172499],100,44,hard,plus,dotcolour,alfa,,,134,19,V,R,
516,12,12,12,4,27,53,767,['c'],0,right,['8'],4,416,[0.07273217],98,53,easy,plus,dotcolour,alfa,,,134,19,V,R,
517,13,13,12,4,47,33,1099,['c'],1,left,['0'],6,197,[0.08873593],100,47,medium,plus,dotcolour,alfa,,,134,19,V,R,
518,14,14,12,4,53,27,717,['c'],1,left,['0'],6,185,[0.09211291],100,53,easy,plus,dotcolour,alfa,,,134,19,V,R,
519,15,15,12,4,44,36,534,['c'],1,left,['0'],6,198,[0.04694949],98,44,hard,plus,dotcolour,alfa,,,134,19,V,R,
520,16,16,12,4,44,36,718,['c'],1,left,['0'],6,179,[0.08442674],100,44,hard,plus,dotcolour,alfa,,,134,19,V,R,
521,17,17,12,4,36,44,1251,['n'],1,right,['8'],4,163,[-0.09648296],100,44,hard,plus,dotcolour,alfa,,,134,19,V,R,
522,18,18,12,4,36,44,1483,['c'],0,right,['8'],4,250,[0.09152495],100,44,hard,plus,dotcolour,alfa,,,134,19,V,R,
523,19,19,12,4,33,47,750,['c'],0,right,['8'],4,387,[0.02721888],83,47,medium,plus,dotcolour,alfa,,,134,19,V,R,
524,20,20,12,4,36,44,834,['c'],0,right,['3'],3,779,[-0.00581512],44,44,hard,plus,dotcolour,alfa,,,134,19,V,R,
525,21,21,12,4,53,27,833,['c'],1,left,['0'],6,196,[0.07596542],100,53,easy,plus,dotcolour,alfa,,,134,19,V,R,
526,22,22,12,4,53,27,1300,['n'],0,left,['8'],4,122,[-0.07631889],100,53,easy,plus,dotcolour,alfa,,,134,19,V,R,
527,23,23,12,4,53,27,600,['c'],1,left,['0'],6,134,[0.08700879],100,53,easy,plus,dotcolour,alfa,,,134,19,V,R,
528,24,24,12,4,47,33,533,['c'],1,left,['0'],6,133,[0.05186229],99,47,medium,plus,dotcolour,alfa,,,134,19,V,R,
529,25,25,12,4,33,47,783,['n'],1,right,['8'],4,82,[-0.07784774],100,47,medium,plus,dotcolour,alfa,,,134,19,V,R,
530,26,26,12,4,44,36,1182,['c'],1,left,['0'],6,105,[0.06755743],100,44,hard,plus,dotcolour,alfa,,,134,19,V,R,
531,27,27,12,4,47,33,535,['c'],1,left,['8'],4,121,[0.06784395],100,47,medium,plus,dotcolour,alfa,,,134,19,V,R,
532,28,28,12,4,47,33,333,['c'],1,left,['9'],5,168,[0.10872523],100,47,medium,plus,dotcolour,alfa,,,134,19,V,R,
533,29,29,12,4,36,44,717,['n'],1,right,['8'],4,85,[-0.08426806],100,44,hard,plus,dotcolour,alfa,,,134,19,V,R,
534,30,30,12,4,27,53,1051,['c'],0,right,['8'],4,594,[-0.02642486],23,53,easy,plus,dotcolour,alfa,,,134,19,V,R,
535,31,31,12,4,27,53,1500,['n'],1,right,['9'],5,231,[-0.15778331],100,53,easy,plus,dotcolour,alfa,,,134,19,V,R,
536,32,32,12,4,27,53,768,['c'],0,right,['9'],5,224,[0.03655754],94,53,easy,plus,dotcolour,alfa,,,134,19,V,R,
537,33,33,12,4,27,53,617,['n'],1,right,['8'],4,160,[-0.06624929],100,53,easy,plus,dotcolour,alfa,,,134,19,V,R,
538,34,34,12,4,53,27,534,['c'],1,left,['8'],4,173,[0.14901787],100,53,easy,plus,dotcolour,alfa,,,134,19,V,R,
539,35,35,12,4,53,27,683,['c'],1,left,['0'],6,172,[0.06332611],100,53,easy,plus,dotcolour,alfa,,,134,19,V,R,
540,36,36,12,4,33,47,567,['n'],1,right,['9'],5,248,[-0.12279331],100,47,medium,plus,dotcolour,alfa,,,134,19,V,R,
541,37,37,12,4,44,36,767,['c'],1,left,['9'],5,160,[0.11426283],100,44,hard,plus,dotcolour,alfa,,,134,19,V,R,
542,38,38,12,4,47,33,601,['c'],1,left,['9'],5,155,[0.0487386],99,47,medium,plus,dotcolour,alfa,,,134,19,V,R,
543,39,39,12,4,36,44,534,['n'],1,right,['9'],5,113,[-0.11388097],100,44,hard,plus,dotcolour,alfa,,,134,19,V,R,
544,40,40,12,4,53,27,466,['c'],1,left,['9'],5,179,[0.12143581],100,53,easy,plus,dotcolour,alfa,,,134,19,V,R,
545,41,41,12,4,44,36,567,['c'],1,left,['9'],5,110,[0.07767012],100,44,hard,plus,dotcolour,alfa,,,134,19,V,R,
546,42,0,13,4,27,53,950,['n'],1,right,['9'],5,244,[-0.08209935],100,53,easy,plus,dotcolour,alfa,,,134,19,V,R,
547,43,1,13,4,47,33,466,['c'],1,left,['0'],6,160,[0.02106678],87,47,medium,plus,dotcolour,alfa,,,134,19,V,R,
548,44,2,13,4,44,36,1150,['n'],0,left,['8'],4,132,[-0.03082381],95,44,hard,plus,dotcolour,alfa,,,134,19,V,R,
549,45,3,13,4,27,53,650,['n'],1,right,['8'],4,175,[-0.12765245],100,53,easy,plus,dotcolour,alfa,,,134,19,V,R,
550,46,4,13,4,53,27,467,['c'],1,left,['9'],5,278,[0.0095962],66,53,easy,plus,dotcolour,alfa,,,134,19,V,R,
551,47,5,13,4,47,33,817,['c'],1,left,['8'],4,60,[0.04980518],100,47,medium,plus,dotcolour,alfa,,,134,19,V,R,
552,48,6,13,4,47,33,734,['c'],1,left,['9'],5,245,[0.15535888],100,47,medium,plus,dotcolour,alfa,,,134,19,V,R,
553,49,7,13,4,36,44,700,['n'],1,right,['8'],4,72,[-0.07503382],100,44,hard,plus,dotcolour,alfa,,,134,19,V,R,
554,50,8,13,4,33,47,600,['n'],1,right,['0'],6,183,[-0.09761099],100,47,medium,plus,dotcolour,alfa,,,134,19,V,R,
555,51,9,13,4,36,44,618,['n'],1,right,['8'],4,96,[-0.09152868],100,44,hard,plus,dotcolour,alfa,,,134,19,V,R,
556,52,10,13,4,33,47,785,['n'],1,right,['8'],4,182,[-0.10212077],100,47,medium,plus,dotcolour,alfa,,,134,19,V,R,
557,53,11,13,4,47,33,483,['c'],1,left,['9'],5,126,[0.0141294],81,47,medium,plus,dotcolour,alfa,,,134,19,V,R,
558,54,12,13,4,27,53,800,['n'],1,right,['0'],6,49,[-0.078373],100,53,easy,plus,dotcolour,alfa,,,134,19,V,R,
559,55,13,13,4,36,44,568,['n'],1,right,['0'],6,138,[-0.12986622],100,44,hard,plus,dotcolour,alfa,,,134,19,V,R,
560,56,14,13,4,47,33,700,['c'],1,left,['9'],5,202,[0.08939884],100,47,medium,plus,dotcolour,alfa,,,134,19,V,R,
561,57,15,13,4,44,36,549,['c'],1,left,['9'],5,93,[0.07623185],100,44,hard,plus,dotcolour,alfa,,,134,19,V,R,
562,58,16,13,4,27,53,817,['n'],1,right,['9'],5,66,[-0.0956115],100,53,easy,plus,dotcolour,alfa,,,134,19,V,R,
563,59,17,13,4,53,27,1033,['n'],0,left,['9'],5,8,[-0.07671408],100,53,easy,plus,dotcolour,alfa,,,134,19,V,R,
564,60,18,13,4,53,27,984,['c'],1,left,['0'],6,137,[0.1102418],100,53,easy,plus,dotcolour,alfa,,,134,19,V,R,
565,61,19,13,4,44,36,867,['c'],1,left,['0'],6,106,[0.11790899],100,44,hard,plus,dotcolour,alfa,,,134,19,V,R,
566,62,20,13,4,33,47,900,['n'],1,right,['0'],6,67,[-0.06226775],100,47,medium,plus,dotcolour,alfa,,,134,19,V,R,
567,63,21,13,4,36,44,684,['n'],1,right,['9'],5,135,[-0.05501599],100,44,hard,plus,dotcolour,alfa,,,134,19,V,R,
568,64,22,13,4,44,36,585,['c'],1,left,['0'],6,203,[0.04436432],97,44,hard,plus,dotcolour,alfa,,,134,19,V,R,
569,65,23,13,4,53,27,584,['c'],1,left,['0'],6,1293,[0.25566157],100,53,easy,plus,dotcolour,alfa,,,134,19,V,R,
570,66,24,13,4,36,44,884,['n'],1,right,['0'],6,127,[-0.01983335],88,44,hard,plus,dotcolour,alfa,,,134,19,V,R,
571,67,25,13,4,27,53,550,['n'],1,right,['0'],6,189,[0.02379535],12,53,easy,plus,dotcolour,alfa,,,134,19,V,R,
572,68,26,13,4,33,47,583,['n'],1,right,['0'],6,567,[-0.14534498],100,47,medium,plus,dotcolour,alfa,,,134,19,V,R,
573,69,27,13,4,33,47,549,['n'],1,right,['0'],6,716,[-0.03564455],82,47,medium,plus,dotcolour,alfa,,,134,19,V,R,
574,70,28,13,4,44,36,633,['c'],1,left,['0'],6,263,[0.0622576],99,44,hard,plus,dotcolour,alfa,,,134,19,V,R,
575,71,29,13,4,27,53,750,['n'],1,right,['0'],6,488,[-0.21252403],100,53,easy,plus,dotcolour,alfa,,,134,19,V,R,
576,72,30,13,4,44,36,1167,['c'],1,left,['0'],6,183,[0.0460879],98,44,hard,plus,dotcolour,alfa,,,134,19,V,R,
577,73,31,13,4,36,44,567,['n'],1,right,['0'],6,194,[-0.10202334],100,44,hard,plus,dotcolour,alfa,,,134,19,V,R,
578,74,32,13,4,27,53,567,['n'],1,right,['0'],6,157,[-0.09227945],100,53,easy,plus,dotcolour,alfa,,,134,19,V,R,
579,75,33,13,4,36,44,634,['n'],1,right,['0'],6,142,[-0.12860996],100,44,hard,plus,dotcolour,alfa,,,134,19,V,R,
580,76,34,13,4,47,33,950,['n'],0,left,['0'],6,587,[-0.02524561],77,47,medium,plus,dotcolour,alfa,,,134,19,V,R,
581,77,35,13,4,53,27,784,['c'],1,left,['1'],1,366,[0.09572221],100,53,easy,plus,dotcolour,alfa,,,134,19,V,R,
582,78,36,13,4,33,47,551,['n'],1,right,['0'],6,171,[-0.157953],100,47,medium,plus,dotcolour,alfa,,,134,19,V,R,
583,79,37,13,4,53,27,551,['n'],0,left,['0'],6,87,[-0.04954636],100,53,easy,plus,dotcolour,alfa,,,134,19,V,R,
584,80,38,13,4,33,47,534,['n'],1,right,['9'],5,247,[-0.04481671],96,47,medium,plus,dotcolour,alfa,,,134,19,V,R,
585,81,39,13,4,47,33,568,['c'],1,left,"['2', '1']",2,216,[0.11639364],100,47,medium,plus,dotcolour,alfa,,,134,19,V,R,
586,82,40,13,4,44,36,483,['n'],0,left,['9'],5,53,[-0.07384563],100,44,hard,plus,dotcolour,alfa,,,134,19,V,R,
587,83,41,13,4,53,27,700,['c'],1,left,['9'],5,233,[0.13074835],100,53,easy,plus,dotcolour,alfa,,,134,19,V,R,
588,84,0,14,4,27,53,867,['n'],1,right,['0'],6,1641,[-0.52477234],100,53,easy,plus,dotcolour,alfa,,,134,19,V,R,
589,85,1,14,4,44,36,600,['c'],1,left,['9'],5,144,[0.08424165],100,44,hard,plus,dotcolour,alfa,,,134,19,V,R,
590,86,2,14,4,36,44,767,['n'],1,right,['0'],6,68,[-0.09928113],100,44,hard,plus,dotcolour,alfa,,,134,19,V,R,
591,87,3,14,4,33,47,700,['n'],1,right,['0'],6,951,[-0.23968331],100,47,medium,plus,dotcolour,alfa,,,134,19,V,R,
592,88,4,14,4,36,44,683,['c'],0,right,['8'],4,95,[0.07387881],100,44,hard,plus,dotcolour,alfa,,,134,19,V,R,
593,89,5,14,4,36,44,717,['n'],1,right,['9'],5,127,[-0.10399541],100,44,hard,plus,dotcolour,alfa,,,134,19,V,R,
594,90,6,14,4,27,53,917,['n'],1,right,['9'],5,142,[-0.08757983],100,53,easy,plus,dotcolour,alfa,,,134,19,V,R,
595,91,7,14,4,27,53,1300,['n'],1,right,['3'],3,197,[-0.14165203],100,53,easy,plus,dotcolour,alfa,,,134,19,V,R,
596,92,8,14,4,33,47,799,['c'],0,right,['3'],3,71,[0.01628823],90,47,medium,plus,dotcolour,alfa,,,134,19,V,R,
597,93,9,14,4,44,36,783,['c'],1,left,['9'],5,119,[0.09496999],100,44,hard,plus,dotcolour,alfa,,,134,19,V,R,
598,94,10,14,4,53,27,534,['c'],1,left,['9'],5,150,[0.05563754],99,53,easy,plus,dotcolour,alfa,,,134,19,V,R,
599,95,11,14,4,53,27,1517,['c'],1,left,['9'],5,140,[0.09482149],100,53,easy,plus,dotcolour,alfa,,,134,19,V,R,
600,96,12,14,4,44,36,983,['n'],0,left,['9'],5,1472,[0.07748848],9,44,hard,plus,dotcolour,alfa,,,134,19,V,R,
601,97,13,14,4,33,47,983,['n'],1,right,['9'],5,191,[-0.03428037],94,47,medium,plus,dotcolour,alfa,,,134,19,V,R,
602,98,14,14,4,33,47,767,['c'],0,right,['9'],5,210,[0.00396624],58,47,medium,plus,dotcolour,alfa,,,134,19,V,R,
603,99,15,14,4,47,33,802,['n'],0,left,['0'],6,155,[-0.05809321],100,47,medium,plus,dotcolour,alfa,,,134,19,V,R,
604,100,16,14,4,33,47,733,['c'],0,right,['9'],5,137,[0.1086424],100,47,medium,plus,dotcolour,alfa,,,134,19,V,R,
605,101,17,14,4,44,36,666,['n'],0,left,['1'],1,938,[-0.07273165],94,44,hard,plus,dotcolour,alfa,,,134,19,V,R,
606,102,18,14,4,36,44,1267,['n'],1,right,['0'],6,211,[-0.08067147],100,44,hard,plus,dotcolour,alfa,,,134,19,V,R,
607,103,19,14,4,47,33,551,['c'],1,left,['9'],5,125,[0.09398253],100,47,medium,plus,dotcolour,alfa,,,134,19,V,R,
608,104,20,14,4,53,27,684,['c'],1,left,['9'],5,118,[0.08909119],100,53,easy,plus,dotcolour,alfa,,,134,19,V,R,
609,105,21,14,4,33,47,750,['n'],1,right,['9'],5,100,[-0.04146974],99,47,medium,plus,dotcolour,alfa,,,134,19,V,R,
610,106,22,14,4,44,36,1200,['n'],0,left,['8'],4,442,[-0.03131967],85,44,hard,plus,dotcolour,alfa,,,134,19,V,R,
611,107,23,14,4,36,44,667,['c'],0,right,['9'],5,111,[0.08830285],100,44,hard,plus,dotcolour,alfa,,,134,19,V,R,
612,108,24,14,4,27,53,517,['c'],0,right,['3'],3,879,[-0.1360755],1,53,easy,plus,dotcolour,alfa,,,134,19,V,R,
613,109,25,14,4,27,53,1333,['n'],1,right,['8'],4,207,[-0.2581686],100,53,easy,plus,dotcolour,alfa,,,134,19,V,R,
614,110,26,14,4,27,53,1234,['c'],0,right,['1'],1,1022,[-0.15461149],0,53,easy,plus,dotcolour,alfa,,,134,19,V,R,
615,111,27,14,4,53,27,968,['c'],1,left,['9'],5,208,[0.17197971],100,53,easy,plus,dotcolour,alfa,,,134,19,V,R,
616,112,28,14,4,44,36,883,['n'],0,left,['9'],5,213,[-0.04459823],97,44,hard,plus,dotcolour,alfa,,,134,19,V,R,
617,113,29,14,4,47,33,850,['c'],1,left,['9'],5,196,[0.12129843],100,47,medium,plus,dotcolour,alfa,,,134,19,V,R,
618,114,30,14,4,47,33,850,['c'],1,left,['0'],6,131,[0.07483371],100,47,medium,plus,dotcolour,alfa,,,134,19,V,R,
619,115,31,14,4,53,27,800,['n'],0,left,['0'],6,807,[0.01075071],39,53,easy,plus,dotcolour,alfa,,,134,19,V,R,
620,116,32,14,4,33,47,666,['n'],1,right,['8'],4,197,[-0.15320673],100,47,medium,plus,dotcolour,alfa,,,134,19,V,R,
621,117,33,14,4,36,44,800,['c'],0,right,['8'],4,111,[0.06873294],100,44,hard,plus,dotcolour,alfa,,,134,19,V,R,
622,118,34,14,4,47,33,817,['c'],1,left,['0'],6,147,[0.04309246],98,47,medium,plus,dotcolour,alfa,,,134,19,V,R,
623,119,35,14,4,44,36,866,['n'],0,left,['8'],4,131,[-0.05234676],99,44,hard,plus,dotcolour,alfa,,,134,19,V,R,
624,120,36,14,4,27,53,833,['n'],1,right,['0'],6,14,[-0.08733505],100,53,easy,plus,dotcolour,alfa,,,134,19,V,R,
625,121,37,14,4,53,27,650,['c'],1,left,['8'],4,157,[0.04651859],99,53,easy,plus,dotcolour,alfa,,,134,19,V,R,
626,122,38,14,4,47,33,801,['c'],1,left,['8'],4,151,[0.03929879],97,47,medium,plus,dotcolour,alfa,,,134,19,V,R,
627,123,39,14,4,36,44,749,['n'],1,right,['9'],5,221,[-0.07607278],100,44,hard,plus,dotcolour,alfa,,,134,19,V,R,
628,124,40,14,4,47,33,584,['c'],1,left,['9'],5,206,[0.05046502],98,47,medium,plus,dotcolour,alfa,,,134,19,V,R,
629,125,41,14,4,53,27,866,['c'],1,left,['9'],5,68,[0.0821438],100,53,easy,plus,dotcolour,alfa,,,134,19,V,R,
630,0,0,15,5,47,33,951,['c'],1,left,['9'],5,146,[0.07071543],84,47,medium,minus,dotcolour,alfa,,,134,19,V,R,
631,1,1,15,5,44,36,667,['n'],0,left,['9'],5,148,[-0.08666981],88,44,hard,minus,dotcolour,alfa,,,134,19,V,R,
632,2,2,15,5,44,36,667,['n'],0,left,['9'],5,293,[-0.04248978],67,44,hard,minus,dotcolour,alfa,,,134,19,V,R,
633,3,3,15,5,53,27,651,['c'],1,left,['9'],5,119,[0.15720857],98,53,easy,minus,dotcolour,alfa,,,134,19,V,R,
634,4,4,15,5,47,33,584,['c'],1,left,['9'],5,60,[0.08686851],96,47,medium,minus,dotcolour,alfa,,,134,19,V,R,
635,5,5,15,5,27,53,650,['n'],1,right,['9'],5,113,[-0.07253392],87,53,easy,minus,dotcolour,alfa,,,134,19,V,R,
636,6,6,15,5,44,36,816,['c'],1,left,['9'],5,109,[0.1240635],97,44,hard,minus,dotcolour,alfa,,,134,19,V,R,
637,7,7,15,5,33,47,983,['n'],1,right,['9'],5,90,[-0.10155],95,47,medium,minus,dotcolour,alfa,,,134,19,V,R,
638,8,8,15,5,53,27,584,['c'],1,left,['9'],5,72,[0.10261941],97,53,easy,minus,dotcolour,alfa,,,134,19,V,R,
639,9,9,15,5,27,53,650,['n'],1,right,['9'],5,165,[-0.09361712],89,53,easy,minus,dotcolour,alfa,,,134,19,V,R,
640,10,10,15,5,27,53,634,['n'],1,right,['9'],5,278,[-0.1539565],93,53,easy,minus,dotcolour,alfa,,,134,19,V,R,
641,11,11,15,5,47,33,700,['c'],1,left,['9'],5,80,[0.0032115],53,47,medium,minus,dotcolour,alfa,,,134,19,V,R,
642,12,12,15,5,53,27,567,['c'],1,left,['9'],5,64,[0.05754421],89,53,easy,minus,dotcolour,alfa,,,134,19,V,R,
643,13,13,15,5,27,53,600,['n'],1,right,['9'],5,134,[-0.08154858],88,53,easy,minus,dotcolour,alfa,,,134,19,V,R,
644,14,14,15,5,36,44,900,['n'],1,right,['9'],5,86,[-0.04302167],79,44,hard,minus,dotcolour,alfa,,,134,19,V,R,
645,15,15,15,5,44,36,683,['c'],1,left,['9'],5,97,[0.09923013],95,44,hard,minus,dotcolour,alfa,,,134,19,V,R,
646,16,16,15,5,47,33,600,['c'],1,left,['9'],5,151,[0.11926475],94,47,medium,minus,dotcolour,alfa,,,134,19,V,R,
647,17,17,15,5,53,27,550,['c'],1,left,['9'],5,84,[0.06397963],88,53,easy,minus,dotcolour,alfa,,,134,19,V,R,
648,18,18,15,5,53,27,567,['c'],1,left,['9'],5,76,[0.05595088],86,53,easy,minus,dotcolour,alfa,,,134,19,V,R,
649,19,19,15,5,36,44,534,['c'],0,right,['9'],5,340,[0.01217714],55,44,hard,minus,dotcolour,alfa,,,134,19,V,R,
650,20,20,15,5,44,36,633,['n'],0,left,['9'],5,134,[-0.11625075],95,44,hard,minus,dotcolour,alfa,,,134,19,V,R,
651,21,21,15,5,36,44,567,['n'],1,right,['9'],5,36,[-0.08491711],98,44,hard,minus,dotcolour,alfa,,,134,19,V,R,
652,22,22,15,5,47,33,433,['c'],1,left,['9'],5,74,[0.0591655],88,47,medium,minus,dotcolour,alfa,,,134,19,V,R,
653,23,23,15,5,36,44,518,['c'],0,right,['9'],5,435,[0.117006],83,44,hard,minus,dotcolour,alfa,,,134,19,V,R,
654,24,24,15,5,33,47,583,['n'],1,right,['9'],5,84,[-0.08364691],93,47,medium,minus,dotcolour,alfa,,,134,19,V,R,
655,25,25,15,5,53,27,584,['c'],1,left,['9'],5,123,[0.09009886],91,53,easy,minus,dotcolour,alfa,,,134,19,V,R,
656,26,26,15,5,33,47,699,['n'],1,right,['9'],5,36,[-0.098065],99,47,medium,minus,dotcolour,alfa,,,134,19,V,R,
657,27,27,15,5,33,47,534,['n'],1,right,['9'],5,750,[-0.13941455],81,47,medium,minus,dotcolour,alfa,,,134,19,V,R,
658,28,28,15,5,27,53,566,['n'],1,right,['9'],5,51,[-0.04587547],86,53,easy,minus,dotcolour,alfa,,,134,19,V,R,
659,29,29,15,5,36,44,500,['c'],0,right,['9'],5,183,[0.07998626],84,44,hard,minus,dotcolour,alfa,,,134,19,V,R,
660,30,30,15,5,44,36,1033,['c'],1,left,['9'],5,56,[0.06826774],93,44,hard,minus,dotcolour,alfa,,,134,19,V,R,
661,31,31,15,5,47,33,700,['n'],0,left,['9'],5,34,[-0.08260387],98,47,medium,minus,dotcolour,alfa,,,134,19,V,R,
662,32,32,15,5,27,53,1550,['n'],1,right,"['9', '0']",5,596,[-0.13518793],83,53,easy,minus,dotcolour,alfa,,,134,19,V,R,
663,33,33,15,5,36,44,833,['c'],0,right,['1'],1,316,[0.17868695],95,44,hard,minus,dotcolour,alfa,,,134,19,V,R,
664,34,34,15,5,44,36,1016,['n'],0,left,['9'],5,96,[-0.0698279],88,44,hard,minus,dotcolour,alfa,,,134,19,V,R,
665,35,35,15,5,53,27,1067,['c'],1,left,['9'],5,955,[0.0790181],67,53,easy,minus,dotcolour,alfa,,,134,19,V,R,
666,36,36,15,5,33,47,683,['c'],0,right,['9'],5,82,[0.06030408],87,47,medium,minus,dotcolour,alfa,,,134,19,V,R,
667,37,37,15,5,47,33,1067,['n'],0,left,['9'],5,294,[0.004169],48,47,medium,minus,dotcolour,alfa,,,134,19,V,R,
668,38,38,15,5,27,53,517,['n'],1,right,['9'],5,118,[-0.1151328],95,53,easy,minus,dotcolour,alfa,,,134,19,V,R,
669,39,39,15,5,33,47,600,['n'],1,right,['9'],5,27,[-0.06943803],98,47,medium,minus,dotcolour,alfa,,,134,19,V,R,
670,40,40,15,5,33,47,1417,['n'],1,right,"['9', '0']",5,138,[-0.13303129],96,47,medium,minus,dotcolour,alfa,,,134,19,V,R,
671,41,41,15,5,36,44,851,['n'],1,right,['0'],6,76,[-0.10083145],96,44,hard,minus,dotcolour,alfa,,,134,19,V,R,
672,42,0,16,5,33,47,934,['n'],1,right,['8'],4,220,[-0.10711854],89,47,medium,minus,dotcolour,alfa,,,134,19,V,R,
673,43,1,16,5,53,27,850,['c'],1,left,['9'],5,171,[0.13667354],95,53,easy,minus,dotcolour,alfa,,,134,19,V,R,
674,44,2,16,5,27,53,684,['n'],1,right,['9'],5,139,[-0.10054466],92,53,easy,minus,dotcolour,alfa,,,134,19,V,R,
675,45,3,16,5,36,44,850,['n'],1,right,['9'],5,76,[-0.06963277],91,44,hard,minus,dotcolour,alfa,,,134,19,V,R,
676,46,4,16,5,33,47,633,['n'],1,right,['9'],5,753,[-0.2472772],93,47,medium,minus,dotcolour,alfa,,,134,19,V,R,
677,47,5,16,5,27,53,549,['n'],1,right,['9'],5,205,[-0.04168725],70,53,easy,minus,dotcolour,alfa,,,134,19,V,R,
678,48,6,16,5,47,33,1151,['c'],1,left,['9'],5,176,[0.13586201],95,47,medium,minus,dotcolour,alfa,,,134,19,V,R,
679,49,7,16,5,44,36,717,['c'],1,left,['9'],5,126,[0.05551519],80,44,hard,minus,dotcolour,alfa,,,134,19,V,R,
680,50,8,16,5,33,47,483,['n'],1,right,['0'],6,62,[-0.05579071],88,47,medium,minus,dotcolour,alfa,,,134,19,V,R,
681,51,9,16,5,44,36,750,['c'],1,left,['9'],5,119,[0.09332604],92,44,hard,minus,dotcolour,alfa,,,134,19,V,R,
682,52,10,16,5,53,27,567,['n'],0,left,['9'],5,557,[-0.13601556],84,53,easy,minus,dotcolour,alfa,,,134,19,V,R,
683,53,11,16,5,53,27,617,['n'],0,left,['9'],5,440,[0.03068556],40,53,easy,minus,dotcolour,alfa,,,134,19,V,R,
684,54,12,16,5,47,33,767,['c'],1,left,['9'],5,544,[0.19084539],91,47,medium,minus,dotcolour,alfa,,,134,19,V,R,
685,55,13,16,5,53,27,633,['c'],1,left,['9'],5,82,[0.07235721],91,53,easy,minus,dotcolour,alfa,,,134,19,V,R,
686,56,14,16,5,44,36,501,['c'],1,left,['9'],5,133,[0.10374297],93,44,hard,minus,dotcolour,alfa,,,134,19,V,R,
687,57,15,16,5,27,53,717,['n'],1,right,['0'],6,59,[-0.07074652],93,53,easy,minus,dotcolour,alfa,,,134,19,V,R,
688,58,16,16,5,27,53,650,['c'],0,right,['9'],5,144,[0.07675531],86,53,easy,minus,dotcolour,alfa,,,134,19,V,R,
689,59,17,16,5,36,44,501,['c'],0,right,['0'],6,223,[0.067131],78,44,hard,minus,dotcolour,alfa,,,134,19,V,R,
690,60,18,16,5,47,33,917,['n'],0,left,['9'],5,114,[-0.09758916],93,47,medium,minus,dotcolour,alfa,,,134,19,V,R,
691,61,19,16,5,53,27,750,['c'],1,left,['0'],6,169,[0.09132171],88,53,easy,minus,dotcolour,alfa,,,134,19,V,R,
692,62,20,16,5,27,53,583,['n'],1,right,['9'],5,189,[-0.13029675],94,53,easy,minus,dotcolour,alfa,,,134,19,V,R,
693,63,21,16,5,33,47,750,['n'],1,right,['0'],6,1121,[-0.33362805],94,47,medium,minus,dotcolour,alfa,,,134,19,V,R,
694,64,22,16,5,36,44,933,['c'],0,right,['9'],5,199,[0.04022079],69,44,hard,minus,dotcolour,alfa,,,134,19,V,R,
695,65,23,16,5,27,53,817,['n'],1,right,['0'],6,81,[-0.09032239],95,53,easy,minus,dotcolour,alfa,,,134,19,V,R,
696,66,24,16,5,36,44,583,['n'],1,right,['8'],4,167,[-0.06909453],82,44,hard,minus,dotcolour,alfa,,,134,19,V,R,
697,67,25,16,5,33,47,617,['c'],0,right,['8'],4,185,[0.07354502],82,47,medium,minus,dotcolour,alfa,,,134,19,V,R,
698,68,26,16,5,27,53,849,['n'],1,right,['0'],6,121,[-0.12725847],96,53,easy,minus,dotcolour,alfa,,,134,19,V,R,
699,69,27,16,5,47,33,583,['c'],1,left,['8'],4,206,[0.09599202],87,47,medium,minus,dotcolour,alfa,,,134,19,V,R,
700,70,28,16,5,44,36,1134,['c'],1,left,['8'],4,522,[0.15404565],87,44,hard,minus,dotcolour,alfa,,,134,19,V,R,
701,71,29,16,5,36,44,1166,['n'],1,right,['8'],4,199,[-0.08158679],84,44,hard,minus,dotcolour,alfa,,,134,19,V,R,
702,72,30,16,5,44,36,617,['c'],1,left,['8'],4,152,[0.07687205],86,44,hard,minus,dotcolour,alfa,,,134,19,V,R,
703,73,31,16,5,33,47,633,['c'],0,right,['9'],5,202,[0.01588957],58,47,medium,minus,dotcolour,alfa,,,134,19,V,R,
704,74,32,16,5,47,33,683,['c'],1,left,['8'],4,184,[0.10939733],91,47,medium,minus,dotcolour,alfa,,,134,19,V,R,
705,75,33,16,5,47,33,734,['c'],1,left,['8'],4,228,[0.10304686],87,47,medium,minus,dotcolour,alfa,,,134,19,V,R,
706,76,34,16,5,36,44,583,['n'],1,right,['8'],4,141,[-0.10265136],92,44,hard,minus,dotcolour,alfa,,,134,19,V,R,
707,77,35,16,5,44,36,194,['c'],1,left,['8'],4,185,[0.12234218],93,44,hard,minus,dotcolour,alfa,,,134,19,V,R,
708,78,36,16,5,36,44,350,['c'],0,right,['9'],5,276,[0.07618679],79,44,hard,minus,dotcolour,alfa,,,134,19,V,R,
709,79,37,16,5,53,27,500,['c'],1,left,['0'],6,375,[0.10505734],82,53,easy,minus,dotcolour,alfa,,,134,19,V,R,
710,80,38,16,5,44,36,783,['c'],1,left,['0'],6,169,[0.01923232],60,44,hard,minus,dotcolour,alfa,,,134,19,V,R,
711,81,39,16,5,53,27,751,['c'],1,left,['0'],6,110,[0.05817328],83,53,easy,minus,dotcolour,alfa,,,134,19,V,R,
712,82,40,16,5,33,47,816,['n'],1,right,['0'],6,299,[-0.10448974],85,47,medium,minus,dotcolour,alfa,,,134,19,V,R,
713,83,41,16,5,47,33,801,['c'],1,left,['0'],6,167,[0.03481271],68,47,medium,minus,dotcolour,alfa,,,134,19,V,R,
714,84,0,17,5,47,33,801,['n'],0,left,['0'],6,141,[-0.11250105],94,47,medium,minus,dotcolour,alfa,,,134,19,V,R,
715,85,1,17,5,36,44,650,['c'],0,right,['0'],6,166,[0.06198103],80,44,hard,minus,dotcolour,alfa,,,134,19,V,R,
716,86,2,17,5,33,47,450,['n'],1,right,['0'],6,247,[-0.05752322],74,47,medium,minus,dotcolour,alfa,,,134,19,V,R,
717,87,3,17,5,36,44,634,['n'],1,right,['0'],6,116,[-0.06640498],85,44,hard,minus,dotcolour,alfa,,,134,19,V,R,
718,88,4,17,5,33,47,549,['n'],1,right,['0'],6,148,[0.00051836],50,47,medium,minus,dotcolour,alfa,,,134,19,V,R,
719,89,5,17,5,36,44,550,['c'],0,right,['0'],6,169,[0.12490592],94,44,hard,minus,dotcolour,alfa,,,134,19,V,R,
720,90,6,17,5,47,33,483,['n'],0,left,['0'],6,56,[0.01924788],32,47,medium,minus,dotcolour,alfa,,,134,19,V,R,
721,91,7,17,5,44,36,717,['c'],1,left,"['9', '0']",5,155,[0.02747342],65,44,hard,minus,dotcolour,alfa,,,134,19,V,R,
722,92,8,17,5,47,33,583,['c'],1,left,['8'],4,135,[0.03761323],72,47,medium,minus,dotcolour,alfa,,,134,19,V,R,
723,93,9,17,5,53,27,535,['n'],0,left,['1'],1,926,[0.08451806],31,53,easy,minus,dotcolour,alfa,,,134,19,V,R,
724,94,10,17,5,36,44,600,['c'],0,right,['0'],6,114,[0.08723475],91,44,hard,minus,dotcolour,alfa,,,134,19,V,R,
725,95,11,17,5,27,53,384,['c'],0,right,['0'],6,47,[0.06065749],93,53,easy,minus,dotcolour,alfa,,,134,19,V,R,
726,96,12,17,5,27,53,434,['n'],1,right,['0'],6,5,[-0.06879386],100,53,easy,minus,dotcolour,alfa,,,134,19,V,R,
727,97,13,17,5,33,47,383,['n'],1,right,['1'],1,711,[-0.11651919],78,47,medium,minus,dotcolour,alfa,,,134,19,V,R,
728,98,14,17,5,27,53,317,['n'],1,right,['0'],6,14,[-0.06384358],99,53,easy,minus,dotcolour,alfa,,,134,19,V,R,
729,99,15,17,5,44,36,299,['n'],0,left,['8'],4,843,[0.00401384],49,44,hard,minus,dotcolour,alfa,,,134,19,V,R,
730,100,16,17,5,53,27,683,['c'],1,left,['8'],4,151,[0.05715548],79,53,easy,minus,dotcolour,alfa,,,134,19,V,R,
731,101,17,17,5,33,47,500,['n'],1,right,['8'],4,335,[-0.06611669],74,47,medium,minus,dotcolour,alfa,,,134,19,V,R,
732,102,18,17,5,36,44,550,['n'],1,right,['8'],4,13,[-0.0927047],100,44,hard,minus,dotcolour,alfa,,,134,19,V,R,
733,103,19,17,5,47,33,600,['c'],1,left,"['9', '0']",5,150,[0.07403205],85,47,medium,minus,dotcolour,alfa,,,134,19,V,R,
734,104,20,17,5,53,27,500,['c'],1,left,"['9', '0']",5,181,[0.0516568],75,53,easy,minus,dotcolour,alfa,,,134,19,V,R,
735,105,21,17,5,47,33,417,['c'],1,left,['0'],6,238,[0.08626041],83,47,medium,minus,dotcolour,alfa,,,134,19,V,R,
736,106,22,17,5,27,53,384,['c'],0,right,"['0', '9']",6,184,[-0.02057558],39,53,easy,minus,dotcolour,alfa,,,134,19,V,R,
737,107,23,17,5,44,36,883,['n'],0,left,['0'],6,93,[-0.0525762],83,44,hard,minus,dotcolour,alfa,,,134,19,V,R,
738,108,24,17,5,27,53,533,['n'],1,right,['0'],6,78,[-0.08009342],93,53,easy,minus,dotcolour,alfa,,,134,19,V,R,
739,109,25,17,5,44,36,450,['n'],0,left,['9'],5,851,[0.09483105],28,44,hard,minus,dotcolour,alfa,,,134,19,V,R,
740,110,26,17,5,53,27,752,['c'],1,left,['0'],6,139,[0.0708171],85,53,easy,minus,dotcolour,alfa,,,134,19,V,R,
741,111,27,17,5,36,44,1151,['n'],1,right,['0'],6,481,[-0.04231568],63,44,hard,minus,dotcolour,alfa,,,134,19,V,R,
742,112,28,17,5,47,33,583,['c'],1,left,['0'],6,120,[0.14374327],98,47,medium,minus,dotcolour,alfa,,,134,19,V,R,
743,113,29,17,5,53,27,517,['c'],1,left,['0'],6,96,[0.12509213],97,53,easy,minus,dotcolour,alfa,,,134,19,V,R,
744,114,30,17,5,27,53,883,['n'],1,right,['0'],6,778,[-0.32305296],96,53,easy,minus,dotcolour,alfa,,,134,19,V,R,
745,115,31,17,5,53,27,668,['c'],1,left,['0'],6,81,[0.0729186],91,53,easy,minus,dotcolour,alfa,,,134,19,V,R,
746,116,32,17,5,27,53,1034,['n'],1,right,['0'],6,270,[-0.12957053],90,53,easy,minus,dotcolour,alfa,,,134,19,V,R,
747,117,33,17,5,33,47,699,['n'],1,right,['0'],6,33,[-0.03213797],83,47,medium,minus,dotcolour,alfa,,,134,19,V,R,
748,118,34,17,5,53,27,500,['c'],1,left,['0'],6,117,[0.08828145],91,53,easy,minus,dotcolour,alfa,,,134,19,V,R,
749,119,35,17,5,47,33,666,['c'],1,left,['0'],6,142,[0.1316685],96,47,medium,minus,dotcolour,alfa,,,134,19,V,R,
750,120,36,17,5,44,36,633,['n'],0,left,['8'],4,232,[-0.03578416],66,44,hard,minus,dotcolour,alfa,,,134,19,V,R,
751,121,37,17,5,33,47,650,['n'],1,right,['0'],6,142,[-0.09321093],90,47,medium,minus,dotcolour,alfa,,,134,19,V,R,
752,122,38,17,5,44,36,584,['c'],1,left,['0'],6,138,[0.06544109],83,44,hard,minus,dotcolour,alfa,,,134,19,V,R,
753,123,39,17,5,44,36,500,['c'],1,left,['0'],6,211,[0.10956347],90,44,hard,minus,dotcolour,alfa,,,134,19,V,R,
754,124,40,17,5,36,44,283,['n'],1,right,['0'],6,184,[-0.06557355],80,44,hard,minus,dotcolour,alfa,,,134,19,V,R,
755,125,41,17,5,33,47,784,['n'],1,right,['0'],6,50,[-0.06621223],93,47,medium,minus,dotcolour,alfa,,,134,19,V,R,
,,,,,,,,,,,,,,,,,,,,,1,nee,134,19,V,R,
,,,,,,,,,,,,,,,,,,,,,2,['g'],134,19,V,R,
,,,,,,,,,,,,,,,,,,,,,3,['g'],134,19,V,R,
,,,,,,,,,,,,,,,,,,,,,5,['5'],134,19,V,R,
