trial,withinphasetrial,withinblocktrial,block,phase,dotsLeft,dotsRight,rt,resp,cor,cresp,conf_press,cj,RTconf,ev,fb,diff,difflevel,condition,task,manip,sub,age,gender,handedness,
0,0,0,0,0,53,27,7216,['c'],1,left,['9'],2,2293,[0.43537354],100,53,easy,plus,dotcolour,beta,64,19,V,R,
1,1,1,0,0,44,36,1248,['c'],1,left,['2'],5,1367,[0.0981191],91,44,hard,plus,dotcolour,beta,64,19,V,R,
2,2,2,0,0,27,53,1265,['n'],1,right,['3'],4,1279,[-0.48280908],100,53,easy,plus,dotcolour,beta,64,19,V,R,
3,3,3,0,0,44,36,1400,['c'],1,left,['2'],5,1334,[0.27940337],99,44,hard,plus,dotcolour,beta,64,19,V,R,
4,4,4,0,0,36,44,2000,['n'],1,right,['8'],3,714,[-0.10136847],97,44,hard,plus,dotcolour,beta,64,19,V,R,
5,5,5,0,0,44,36,1299,['c'],1,left,['1'],6,1059,[0.12089032],96,44,hard,plus,dotcolour,beta,64,19,V,R,
6,6,6,0,0,36,44,2249,['n'],1,right,['3'],4,1184,[-0.13883125],96,44,hard,plus,dotcolour,beta,64,19,V,R,
7,7,7,0,0,53,27,1099,['c'],1,left,['2'],5,718,[0.27660624],100,53,easy,plus,dotcolour,beta,64,19,V,R,
8,8,8,0,0,33,47,882,['n'],1,right,['3'],4,696,[-0.16918199],99,47,medium,plus,dotcolour,beta,64,19,V,R,
9,9,9,0,0,44,36,1998,['c'],1,left,['3'],4,357,[0.16067529],100,44,hard,plus,dotcolour,beta,64,19,V,R,
10,10,10,0,0,47,33,781,['c'],1,left,['3'],4,585,[0.13388647],99,47,medium,plus,dotcolour,beta,64,19,V,R,
11,11,11,0,0,47,33,1798,['c'],1,left,['3'],4,356,[0.03265463],93,47,medium,plus,dotcolour,beta,64,19,V,R,
12,12,12,0,0,47,33,915,['c'],1,left,['3'],4,434,[0.25021314],100,47,medium,plus,dotcolour,beta,64,19,V,R,
13,13,13,0,0,33,47,682,['n'],1,right,['3'],4,1223,[-0.27129827],100,47,medium,plus,dotcolour,beta,64,19,V,R,
14,14,14,0,0,33,47,1932,['c'],0,right,['3'],4,162,[0.06096543],99,47,medium,plus,dotcolour,beta,64,19,V,R,
15,15,15,0,0,36,44,982,['n'],1,right,['8'],3,398,[-0.12453878],99,44,hard,plus,dotcolour,beta,64,19,V,R,
16,16,16,0,0,33,47,2665,['c'],0,right,['3'],4,245,[0.05880402],98,47,medium,plus,dotcolour,beta,64,19,V,R,
17,17,17,0,0,47,33,1798,['c'],1,left,['3'],4,245,[0.07901526],99,47,medium,plus,dotcolour,beta,64,19,V,R,
18,18,18,0,0,33,47,950,['n'],1,right,['8'],3,374,[-0.18463405],100,47,medium,plus,dotcolour,beta,64,19,V,R,
19,19,19,0,0,27,53,649,['n'],1,right,['3'],4,463,[-0.15993631],100,53,easy,plus,dotcolour,beta,64,19,V,R,
20,20,20,0,0,36,44,799,['n'],1,right,['3'],4,230,[-0.11531614],100,44,hard,plus,dotcolour,beta,64,19,V,R,
21,21,21,0,0,33,47,850,['n'],1,right,['3'],4,588,[-0.08450909],96,47,medium,plus,dotcolour,beta,64,19,V,R,
22,22,22,0,0,36,44,783,['n'],1,right,['3'],4,167,[-0.04619697],99,44,hard,plus,dotcolour,beta,64,19,V,R,
23,23,23,0,0,53,27,666,['c'],1,left,['3'],4,216,[0.08575909],100,53,easy,plus,dotcolour,beta,64,19,V,R,
24,24,24,0,0,53,27,664,['c'],1,left,['2'],5,245,[0.13157549],100,53,easy,plus,dotcolour,beta,64,19,V,R,
25,25,25,0,0,27,53,682,['n'],1,right,['2'],5,538,[-0.16262798],100,53,easy,plus,dotcolour,beta,64,19,V,R,
26,26,26,0,0,47,33,950,['c'],1,left,['2'],5,183,[0.06094023],99,47,medium,plus,dotcolour,beta,64,19,V,R,
27,27,27,0,0,53,27,648,['n'],0,left,['0'],1,1512,[-0.01109048],73,53,easy,plus,dotcolour,beta,64,19,V,R,
28,28,28,0,0,44,36,2848,['c'],1,left,['2'],5,131,[0.11116273],100,44,hard,plus,dotcolour,beta,64,19,V,R,
29,29,29,0,0,36,44,1266,['n'],1,right,['2'],5,196,[-0.09564731],100,44,hard,plus,dotcolour,beta,64,19,V,R,
30,30,30,0,0,27,53,732,['n'],1,right,['3'],4,328,[-0.10403407],99,53,easy,plus,dotcolour,beta,64,19,V,R,
31,31,31,0,0,27,53,832,['n'],1,right,['3'],4,852,[-0.05837652],90,53,easy,plus,dotcolour,beta,64,19,V,R,
32,32,32,0,0,27,53,816,['n'],1,right,['2'],5,282,[-0.08627129],99,53,easy,plus,dotcolour,beta,64,19,V,R,
33,33,33,0,0,53,27,933,['c'],1,left,['1'],6,179,[0.09722839],100,53,easy,plus,dotcolour,beta,64,19,V,R,
34,34,34,0,0,44,36,882,['c'],1,left,['1'],6,266,[0.10605045],100,44,hard,plus,dotcolour,beta,64,19,V,R,
35,35,35,0,0,44,36,1184,['c'],1,left,['2'],5,169,[0.10574453],100,44,hard,plus,dotcolour,beta,64,19,V,R,
36,36,36,0,0,47,33,933,['c'],1,left,['3'],4,151,[0.1196385],100,47,medium,plus,dotcolour,beta,64,19,V,R,
37,37,37,0,0,33,47,717,['n'],1,right,['3'],4,782,[-0.06388009],92,47,medium,plus,dotcolour,beta,64,19,V,R,
38,38,38,0,0,53,27,1600,['c'],1,left,['2'],5,224,[0.13550634],100,53,easy,plus,dotcolour,beta,64,19,V,R,
39,39,39,0,0,27,53,632,['n'],1,right,['1'],6,631,[-0.03648703],89,53,easy,plus,dotcolour,beta,64,19,V,R,
40,40,40,0,0,47,33,1284,['c'],1,left,['3'],4,164,[0.06862621],100,47,medium,plus,dotcolour,beta,64,19,V,R,
41,41,41,0,0,36,44,1050,['n'],1,right,['3'],4,653,[-0.05184109],92,44,hard,plus,dotcolour,beta,64,19,V,R,
42,42,0,1,0,36,44,1283,['n'],1,right,['2'],5,250,[-0.06919833],99,44,hard,plus,dotcolour,beta,64,19,V,R,
43,43,1,1,0,27,53,2349,['n'],1,right,['3'],4,1093,[-0.36577661],100,53,easy,plus,dotcolour,beta,64,19,V,R,
44,44,2,1,0,47,33,931,['c'],1,left,['1'],6,189,[0.13683943],100,47,medium,plus,dotcolour,beta,64,19,V,R,
45,45,3,1,0,33,47,732,['n'],1,right,['3'],4,249,[-0.1791123],100,47,medium,plus,dotcolour,beta,64,19,V,R,
46,46,4,1,0,53,27,648,['c'],1,left,['1'],6,175,[0.10498202],100,53,easy,plus,dotcolour,beta,64,19,V,R,
47,47,5,1,0,53,27,648,['c'],1,left,['2'],5,151,[0.09071469],100,53,easy,plus,dotcolour,beta,64,19,V,R,
48,48,6,1,0,36,44,1581,['n'],1,right,['3'],4,203,[-0.11642531],100,44,hard,plus,dotcolour,beta,64,19,V,R,
49,49,7,1,0,53,27,748,['c'],1,left,['1'],6,143,[0.07364283],100,53,easy,plus,dotcolour,beta,64,19,V,R,
50,50,8,1,0,47,33,848,['n'],0,left,['3'],4,952,[0.13337177],19,47,medium,plus,dotcolour,beta,64,19,V,R,
51,51,9,1,0,27,53,1032,['n'],1,right,['1'],6,258,[-0.19955477],100,53,easy,plus,dotcolour,beta,64,19,V,R,
52,52,10,1,0,53,27,781,['c'],1,left,['3'],4,234,[0.15635098],100,53,easy,plus,dotcolour,beta,64,19,V,R,
53,53,11,1,0,27,53,1314,['n'],1,right,['2'],5,206,[-0.10623958],100,53,easy,plus,dotcolour,beta,64,19,V,R,
54,54,12,1,0,36,44,848,['c'],0,right,['3'],4,444,[0.0384995],93,44,hard,plus,dotcolour,beta,64,19,V,R,
55,55,13,1,0,44,36,665,['c'],1,left,['1'],6,145,[0.13446333],100,44,hard,plus,dotcolour,beta,64,19,V,R,
56,56,14,1,0,33,47,964,['n'],1,right,['2'],5,238,[-0.12145053],100,47,medium,plus,dotcolour,beta,64,19,V,R,
57,57,15,1,0,36,44,1165,['n'],1,right,['1'],6,151,[-0.14953194],100,44,hard,plus,dotcolour,beta,64,19,V,R,
58,58,16,1,0,47,33,1265,['n'],0,left,['1'],6,104,[-0.02700769],99,47,medium,plus,dotcolour,beta,64,19,V,R,
59,59,17,1,0,33,47,1133,['n'],1,right,['2'],5,160,[-0.05613639],99,47,medium,plus,dotcolour,beta,64,19,V,R,
60,60,18,1,0,47,33,1316,['c'],1,left,['1'],6,183,[0.11508215],100,47,medium,plus,dotcolour,beta,64,19,V,R,
61,61,19,1,0,33,47,883,['c'],0,right,['1'],6,133,[0.06511199],100,47,medium,plus,dotcolour,beta,64,19,V,R,
62,62,20,1,0,44,36,699,['c'],1,left,['1'],6,150,[0.15329735],100,44,hard,plus,dotcolour,beta,64,19,V,R,
63,63,21,1,0,44,36,733,['c'],1,left,['2'],5,180,[0.03987758],98,44,hard,plus,dotcolour,beta,64,19,V,R,
64,64,22,1,0,44,36,815,['n'],0,left,['3'],4,229,[-0.08154152],99,44,hard,plus,dotcolour,beta,64,19,V,R,
65,65,23,1,0,47,33,683,['c'],1,left,['3'],4,155,[0.10856539],100,47,medium,plus,dotcolour,beta,64,19,V,R,
66,66,24,1,0,53,27,700,['c'],1,left,['1'],6,106,[0.07327251],100,53,easy,plus,dotcolour,beta,64,19,V,R,
67,67,25,1,0,44,36,850,['c'],1,left,['2'],5,157,[0.14710544],100,44,hard,plus,dotcolour,beta,64,19,V,R,
68,68,26,1,0,53,27,631,['c'],1,left,['1'],6,143,[0.12901991],100,53,easy,plus,dotcolour,beta,64,19,V,R,
69,69,27,1,0,33,47,816,['n'],1,right,['1'],6,514,[-0.02583458],89,47,medium,plus,dotcolour,beta,64,19,V,R,
70,70,28,1,0,44,36,581,['c'],1,left,['2'],5,192,[0.03764674],98,44,hard,plus,dotcolour,beta,64,19,V,R,
71,71,29,1,0,33,47,517,['c'],0,right,['8'],3,757,[0.00211618],77,47,medium,plus,dotcolour,beta,64,19,V,R,
72,72,30,1,0,47,33,631,['c'],1,left,['3'],4,166,[0.09020042],100,47,medium,plus,dotcolour,beta,64,19,V,R,
73,73,31,1,0,47,33,515,['c'],1,left,['2'],5,180,[0.07086749],100,47,medium,plus,dotcolour,beta,64,19,V,R,
74,74,32,1,0,27,53,715,['n'],1,right,['2'],5,122,[-0.11576937],100,53,easy,plus,dotcolour,beta,64,19,V,R,
75,75,33,1,0,27,53,781,['n'],1,right,['1'],6,79,[-0.10233537],100,53,easy,plus,dotcolour,beta,64,19,V,R,
76,76,34,1,0,36,44,548,['c'],0,right,['3'],4,112,[0.08891798],100,44,hard,plus,dotcolour,beta,64,19,V,R,
77,77,35,1,0,27,53,565,['c'],0,right,['9'],2,1222,[-0.03789238],57,53,easy,plus,dotcolour,beta,64,19,V,R,
78,78,36,1,0,27,53,949,['n'],1,right,['1'],6,335,[-0.07389423],98,53,easy,plus,dotcolour,beta,64,19,V,R,
79,79,37,1,0,44,36,866,['n'],0,left,['1'],6,98,[-0.0151219],98,44,hard,plus,dotcolour,beta,64,19,V,R,
80,80,38,1,0,36,44,583,['n'],1,right,['1'],6,88,[-0.04685485],100,44,hard,plus,dotcolour,beta,64,19,V,R,
81,81,39,1,0,33,47,483,['n'],1,right,['1'],6,91,[-0.04270103],100,47,medium,plus,dotcolour,beta,64,19,V,R,
82,82,40,1,0,36,44,1215,['c'],0,right,['3'],4,136,[0.09903588],100,44,hard,plus,dotcolour,beta,64,19,V,R,
83,83,41,1,0,53,27,616,['c'],1,left,['3'],4,131,[0.09802526],100,53,easy,plus,dotcolour,beta,64,19,V,R,
84,84,0,2,0,27,53,649,['n'],1,right,['1'],6,261,[0.01294579],82,53,easy,plus,dotcolour,beta,64,19,V,R,
85,85,1,2,0,47,33,2115,['c'],1,left,['3'],4,159,[0.09086186],100,47,medium,plus,dotcolour,beta,64,19,V,R,
86,86,2,2,0,47,33,714,['n'],0,left,['3'],4,77,[-0.05948067],100,47,medium,plus,dotcolour,beta,64,19,V,R,
87,87,3,2,0,33,47,733,['n'],1,right,['1'],6,94,[-0.08972562],100,47,medium,plus,dotcolour,beta,64,19,V,R,
88,88,4,2,0,47,33,965,['c'],1,left,['3'],4,149,[0.1181329],100,47,medium,plus,dotcolour,beta,64,19,V,R,
89,89,5,2,0,27,53,483,['n'],1,right,['1'],6,62,[-0.10363834],100,53,easy,plus,dotcolour,beta,64,19,V,R,
90,90,6,2,0,44,36,832,['n'],0,left,['1'],6,115,[-0.04083408],99,44,hard,plus,dotcolour,beta,64,19,V,R,
91,91,7,2,0,53,27,565,['n'],0,left,['0'],1,858,[0.1345014],18,53,easy,plus,dotcolour,beta,64,19,V,R,
92,92,8,2,0,47,33,717,['c'],1,left,['1'],6,204,[0.07364797],99,47,medium,plus,dotcolour,beta,64,19,V,R,
93,93,9,2,0,27,53,750,['n'],1,right,['1'],6,119,[-0.08762893],100,53,easy,plus,dotcolour,beta,64,19,V,R,
94,94,10,2,0,36,44,865,['n'],1,right,['2'],5,89,[-0.04234285],100,44,hard,plus,dotcolour,beta,64,19,V,R,
95,95,11,2,0,47,33,883,['c'],1,left,['3'],4,124,[0.06473054],100,47,medium,plus,dotcolour,beta,64,19,V,R,
96,96,12,2,0,27,53,483,['n'],1,right,['1'],6,269,[-0.13701176],100,53,easy,plus,dotcolour,beta,64,19,V,R,
97,97,13,2,0,53,27,833,['c'],1,left,['3'],4,163,[0.07848433],100,53,easy,plus,dotcolour,beta,64,19,V,R,
98,98,14,2,0,44,36,649,['n'],0,left,['1'],6,484,[-0.0806225],97,44,hard,plus,dotcolour,beta,64,19,V,R,
99,99,15,2,0,44,36,548,['c'],1,left,['3'],4,148,[0.11854899],100,44,hard,plus,dotcolour,beta,64,19,V,R,
100,100,16,2,0,36,44,1097,['n'],1,right,['1'],6,28,[-0.12329739],100,44,hard,plus,dotcolour,beta,64,19,V,R,
101,101,17,2,0,36,44,833,['n'],1,right,['1'],6,779,[-0.1297619],98,44,hard,plus,dotcolour,beta,64,19,V,R,
102,102,18,2,0,44,36,548,['c'],1,left,['3'],4,95,[0.10987369],100,44,hard,plus,dotcolour,beta,64,19,V,R,
103,103,19,2,0,33,47,681,['n'],1,right,['1'],6,97,[-0.1106727],100,47,medium,plus,dotcolour,beta,64,19,V,R,
104,104,20,2,0,53,27,832,['c'],1,left,['1'],6,102,[0.05348459],100,53,easy,plus,dotcolour,beta,64,19,V,R,
105,105,21,2,0,36,44,798,['c'],0,right,['1'],6,139,[0.09283865],100,44,hard,plus,dotcolour,beta,64,19,V,R,
106,106,22,2,0,27,53,783,['n'],1,right,['2'],5,95,[-0.07381112],100,53,easy,plus,dotcolour,beta,64,19,V,R,
107,107,23,2,0,47,33,1715,['c'],1,left,['1'],6,360,[0.09752562],99,47,medium,plus,dotcolour,beta,64,19,V,R,
108,108,24,2,0,27,53,1165,['n'],1,right,['1'],6,52,[-0.06407261],100,53,easy,plus,dotcolour,beta,64,19,V,R,
109,109,25,2,0,27,53,632,['n'],1,right,['2'],5,51,[-0.10546731],100,53,easy,plus,dotcolour,beta,64,19,V,R,
110,110,26,2,0,33,47,632,['n'],1,right,['1'],6,577,[-0.04299969],91,47,medium,plus,dotcolour,beta,64,19,V,R,
111,111,27,2,0,44,36,849,['c'],1,left,['2'],5,161,[0.0218511],97,44,hard,plus,dotcolour,beta,64,19,V,R,
112,112,28,2,0,33,47,699,['n'],1,right,['1'],6,8,[-0.07617163],100,47,medium,plus,dotcolour,beta,64,19,V,R,
113,113,29,2,0,53,27,650,['c'],1,left,['1'],6,119,[0.11147766],100,53,easy,plus,dotcolour,beta,64,19,V,R,
114,114,30,2,0,33,47,867,['c'],0,right,['1'],6,138,[0.05197033],99,47,medium,plus,dotcolour,beta,64,19,V,R,
115,115,31,2,0,36,44,850,['c'],0,right,['1'],6,116,[0.09793995],100,44,hard,plus,dotcolour,beta,64,19,V,R,
116,116,32,2,0,33,47,982,['n'],1,right,['1'],6,82,[-0.06664947],100,47,medium,plus,dotcolour,beta,64,19,V,R,
117,117,33,2,0,36,44,682,['n'],1,right,['1'],6,93,[-0.10689311],100,44,hard,plus,dotcolour,beta,64,19,V,R,
118,118,34,2,0,47,33,599,['n'],0,left,['1'],6,162,[-0.00600991],94,47,medium,plus,dotcolour,beta,64,19,V,R,
119,119,35,2,0,53,27,499,['c'],1,left,['1'],6,105,[0.10424518],100,53,easy,plus,dotcolour,beta,64,19,V,R,
120,120,36,2,0,33,47,699,['n'],1,right,['1'],6,19,[-0.06001182],100,47,medium,plus,dotcolour,beta,64,19,V,R,
121,121,37,2,0,36,44,915,['c'],0,right,['1'],6,103,[0.07713687],100,44,hard,plus,dotcolour,beta,64,19,V,R,
122,122,38,2,0,53,27,882,['c'],1,left,['1'],6,121,[0.0572893],100,53,easy,plus,dotcolour,beta,64,19,V,R,
123,123,39,2,0,53,27,533,['c'],1,left,['1'],6,89,[0.10424806],100,53,easy,plus,dotcolour,beta,64,19,V,R,
124,124,40,2,0,44,36,797,['n'],0,left,['2'],5,103,[-0.07184402],100,44,hard,plus,dotcolour,beta,64,19,V,R,
125,125,41,2,0,44,36,1131,['c'],1,left,['1'],6,88,[0.11569177],100,44,hard,plus,dotcolour,beta,64,19,V,R,
126,0,0,3,1,44,36,883,['n'],0,left,['1'],6,69,[-0.11428287],98,44,hard,minus,dotcolour,beta,64,19,V,R,
127,1,1,3,1,27,53,531,['n'],1,right,['1'],6,78,[-0.06405079],63,53,easy,minus,dotcolour,beta,64,19,V,R,
128,2,2,3,1,33,47,615,['n'],1,right,['2'],5,44,[-0.05840456],56,47,medium,minus,dotcolour,beta,64,19,V,R,
129,3,3,3,1,47,33,1066,['c'],1,left,['1'],6,105,[0.03900025],29,47,medium,minus,dotcolour,beta,64,19,V,R,
130,4,4,3,1,44,36,865,['c'],1,left,['1'],6,36,[0.05033986],38,44,hard,minus,dotcolour,beta,64,19,V,R,
131,5,5,3,1,33,47,616,['c'],0,right,['2'],5,132,[0.04957049],43,47,medium,minus,dotcolour,beta,64,19,V,R,
132,6,6,3,1,36,44,815,['n'],1,right,['3'],4,95,[-0.11609959],97,44,hard,minus,dotcolour,beta,64,19,V,R,
133,7,7,3,1,27,53,650,['n'],1,right,['3'],4,83,[-0.09900271],94,53,easy,minus,dotcolour,beta,64,19,V,R,
134,8,8,3,1,27,53,465,['n'],1,right,['2'],5,14,[-0.07335801],94,53,easy,minus,dotcolour,beta,64,19,V,R,
135,9,9,3,1,44,36,763,['c'],1,left,['1'],6,80,[0.07552894],78,44,hard,minus,dotcolour,beta,64,19,V,R,
136,10,10,3,1,27,53,600,['n'],1,right,['1'],6,23,[-0.0899537],98,53,easy,minus,dotcolour,beta,64,19,V,R,
137,11,11,3,1,47,33,733,['c'],1,left,['2'],5,75,[0.08896744],90,47,medium,minus,dotcolour,beta,64,19,V,R,
138,12,12,3,1,53,27,699,['c'],1,left,['1'],6,53,[0.06110297],61,53,easy,minus,dotcolour,beta,64,19,V,R,
139,13,13,3,1,53,27,598,['c'],1,left,['1'],6,92,[0.0828298],83,53,easy,minus,dotcolour,beta,64,19,V,R,
140,14,14,3,1,33,47,533,['n'],1,right,['1'],6,109,[-0.05735806],52,47,medium,minus,dotcolour,beta,64,19,V,R,
141,15,15,3,1,47,33,665,['c'],1,left,['1'],6,95,[0.13575417],99,47,medium,minus,dotcolour,beta,64,19,V,R,
142,16,16,3,1,36,44,665,['n'],1,right,['2'],5,82,[-0.07769857],80,44,hard,minus,dotcolour,beta,64,19,V,R,
143,17,17,3,1,53,27,582,['c'],1,left,['1'],6,97,[0.06286681],60,53,easy,minus,dotcolour,beta,64,19,V,R,
144,18,18,3,1,33,47,1217,['n'],1,right,['1'],6,46,[-0.08418627],92,47,medium,minus,dotcolour,beta,64,19,V,R,
145,19,19,3,1,27,53,583,['n'],1,right,['1'],6,6,[-0.07649037],99,53,easy,minus,dotcolour,beta,64,19,V,R,
146,20,20,3,1,47,33,749,['c'],1,left,['1'],6,162,[0.08265821],77,47,medium,minus,dotcolour,beta,64,19,V,R,
147,21,21,3,1,27,53,599,['n'],1,right,['1'],6,53,[-0.06793922],72,53,easy,minus,dotcolour,beta,64,19,V,R,
148,22,22,3,1,36,44,2349,['n'],1,right,['3'],4,895,[-0.28061466],99,44,hard,minus,dotcolour,beta,64,19,V,R,
149,23,23,3,1,53,27,749,['c'],1,left,['1'],6,94,[0.02442497],14,53,easy,minus,dotcolour,beta,64,19,V,R,
150,24,24,3,1,44,36,582,['c'],1,left,['1'],6,109,[0.0843441],83,44,hard,minus,dotcolour,beta,64,19,V,R,
151,25,25,3,1,36,44,616,['n'],1,right,['1'],6,81,[-0.08121273],84,44,hard,minus,dotcolour,beta,64,19,V,R,
152,26,26,3,1,53,27,615,['c'],1,left,['1'],6,134,[0.07441718],72,53,easy,minus,dotcolour,beta,64,19,V,R,
153,27,27,3,1,47,33,699,['c'],1,left,['1'],6,71,[0.07225264],76,47,medium,minus,dotcolour,beta,64,19,V,R,
154,28,28,3,1,33,47,566,['n'],1,right,['2'],5,391,[-0.14762217],93,47,medium,minus,dotcolour,beta,64,19,V,R,
155,29,29,3,1,36,44,799,['n'],1,right,['1'],6,433,[-0.04125739],40,44,hard,minus,dotcolour,beta,64,19,V,R,
156,30,30,3,1,36,44,1015,['n'],1,right,['3'],4,112,[-0.03364211],24,44,hard,minus,dotcolour,beta,64,19,V,R,
157,31,31,3,1,44,36,2016,['c'],1,left,['1'],6,341,[0.03046684],32,44,hard,minus,dotcolour,beta,64,19,V,R,
158,32,32,3,1,44,36,980,['n'],0,left,['3'],4,281,[-0.10461041],84,44,hard,minus,dotcolour,beta,64,19,V,R,
159,33,33,3,1,47,33,814,['n'],0,left,['2'],5,103,[-0.05283015],46,47,medium,minus,dotcolour,beta,64,19,V,R,
160,34,34,3,1,44,36,533,['c'],1,left,['1'],6,215,[0.16886439],99,44,hard,minus,dotcolour,beta,64,19,V,R,
161,35,35,3,1,33,47,847,['n'],1,right,['2'],5,70,[-0.0715289],75,47,medium,minus,dotcolour,beta,64,19,V,R,
162,36,36,3,1,47,33,733,['c'],1,left,['1'],6,168,[-0.00501418],7,47,medium,minus,dotcolour,beta,64,19,V,R,
163,37,37,3,1,53,27,632,['c'],1,left,['1'],6,122,[0.07725296],75,53,easy,minus,dotcolour,beta,64,19,V,R,
164,38,38,3,1,27,53,697,['n'],1,right,['1'],6,482,[-0.0881891],70,53,easy,minus,dotcolour,beta,64,19,V,R,
165,39,39,3,1,33,47,1013,['n'],1,right,['3'],4,136,[-0.0813364],78,47,medium,minus,dotcolour,beta,64,19,V,R,
166,40,40,3,1,36,44,932,['n'],1,right,['2'],5,15,[-0.06826205],87,44,hard,minus,dotcolour,beta,64,19,V,R,
167,41,41,3,1,53,27,949,['c'],1,left,['1'],6,106,[0.08900715],86,53,easy,minus,dotcolour,beta,64,19,V,R,
168,42,0,4,1,53,27,1699,['c'],1,left,['1'],6,72,[0.07557092],79,53,easy,minus,dotcolour,beta,64,19,V,R,
169,43,1,4,1,53,27,699,['c'],1,left,['1'],6,59,[0.11471994],99,53,easy,minus,dotcolour,beta,64,19,V,R,
170,44,2,4,1,44,36,1065,['c'],1,left,['2'],5,111,[0.03744223],27,44,hard,minus,dotcolour,beta,64,19,V,R,
171,45,3,4,1,53,27,814,['c'],1,left,['1'],6,99,[0.09202198],89,53,easy,minus,dotcolour,beta,64,19,V,R,
172,46,4,4,1,47,33,716,['c'],1,left,['1'],6,69,[0.11646249],98,47,medium,minus,dotcolour,beta,64,19,V,R,
173,47,5,4,1,33,47,531,['n'],1,right,['2'],5,78,[-0.10010358],95,47,medium,minus,dotcolour,beta,64,19,V,R,
174,48,6,4,1,36,44,515,['n'],1,right,['1'],6,8,[-0.06174245],78,44,hard,minus,dotcolour,beta,64,19,V,R,
175,49,7,4,1,47,33,615,['c'],1,left,['1'],6,48,[0.0949273],96,47,medium,minus,dotcolour,beta,64,19,V,R,
176,50,8,4,1,47,33,548,['c'],1,left,['1'],6,113,[0.13013484],98,47,medium,minus,dotcolour,beta,64,19,V,R,
177,51,9,4,1,33,47,816,['n'],1,right,['1'],6,110,[-0.07969524],79,47,medium,minus,dotcolour,beta,64,19,V,R,
178,52,10,4,1,47,33,648,['n'],0,left,['9'],2,1145,[0.1079184],6,47,medium,minus,dotcolour,beta,64,19,V,R,
179,53,11,4,1,36,44,916,['c'],0,right,['1'],6,104,[0.02602704],16,44,hard,minus,dotcolour,beta,64,19,V,R,
180,54,12,4,1,27,53,766,['n'],1,right,['1'],6,118,[-0.07839119],77,53,easy,minus,dotcolour,beta,64,19,V,R,
181,55,13,4,1,27,53,1131,['n'],1,right,['1'],6,102,[-0.11760217],97,53,easy,minus,dotcolour,beta,64,19,V,R,
182,56,14,4,1,33,47,515,['n'],1,right,['1'],6,103,[-0.07612439],76,47,medium,minus,dotcolour,beta,64,19,V,R,
183,57,15,4,1,27,53,549,['n'],1,right,['1'],6,63,[-0.11217631],98,53,easy,minus,dotcolour,beta,64,19,V,R,
184,58,16,4,1,44,36,1000,['c'],1,left,['3'],4,126,[0.0438819],36,44,hard,minus,dotcolour,beta,64,19,V,R,
185,59,17,4,1,44,36,1250,['c'],1,left,['2'],5,128,[0.13478145],98,44,hard,minus,dotcolour,beta,64,19,V,R,
186,60,18,4,1,36,44,632,['n'],1,right,['1'],6,75,[-0.05551861],50,44,hard,minus,dotcolour,beta,64,19,V,R,
187,61,19,4,1,27,53,664,['n'],1,right,['1'],6,238,[-0.05067163],46,53,easy,minus,dotcolour,beta,64,19,V,R,
188,62,20,4,1,47,33,749,['c'],1,left,['1'],6,17,[0.07196154],91,47,medium,minus,dotcolour,beta,64,19,V,R,
189,63,21,4,1,53,27,981,['c'],1,left,['1'],6,42,[0.07505333],85,53,easy,minus,dotcolour,beta,64,19,V,R,
190,64,22,4,1,36,44,749,['n'],1,right,['1'],6,52,[-0.08821349],93,44,hard,minus,dotcolour,beta,64,19,V,R,
191,65,23,4,1,36,44,649,['n'],1,right,['1'],6,81,[-0.09119918],91,44,hard,minus,dotcolour,beta,64,19,V,R,
192,66,24,4,1,33,47,565,['n'],1,right,['2'],5,25,[-0.09103123],98,47,medium,minus,dotcolour,beta,64,19,V,R,
193,67,25,4,1,44,36,715,['c'],1,left,['1'],6,69,[0.08882155],91,44,hard,minus,dotcolour,beta,64,19,V,R,
194,68,26,4,1,47,33,1149,['c'],1,left,['1'],6,86,[0.04586442],36,47,medium,minus,dotcolour,beta,64,19,V,R,
195,69,27,4,1,33,47,498,['n'],1,right,['2'],5,32,[-0.07852952],91,47,medium,minus,dotcolour,beta,64,19,V,R,
196,70,28,4,1,53,27,814,['c'],1,left,['1'],6,120,[0.09497592],89,53,easy,minus,dotcolour,beta,64,19,V,R,
197,71,29,4,1,53,27,649,['c'],1,left,['1'],6,75,[0.07518658],78,53,easy,minus,dotcolour,beta,64,19,V,R,
198,72,30,4,1,44,36,865,['n'],0,left,['8'],3,2063,[-0.03314905],43,44,hard,minus,dotcolour,beta,64,19,V,R,
199,73,31,4,1,36,44,833,['c'],0,right,['0'],1,1164,[0.12140601],75,44,hard,minus,dotcolour,beta,64,19,V,R,
200,74,32,4,1,53,27,815,['n'],0,left,['8'],3,173,[-0.0393077],33,53,easy,minus,dotcolour,beta,64,19,V,R,
201,75,33,4,1,44,36,716,['n'],0,left,['3'],4,131,[-0.04859014],41,44,hard,minus,dotcolour,beta,64,19,V,R,
202,76,34,4,1,27,53,596,['n'],1,right,['2'],5,55,[-0.03367725],16,53,easy,minus,dotcolour,beta,64,19,V,R,
203,77,35,4,1,33,47,447,['n'],1,right,['1'],6,21,[-0.06704247],81,47,medium,minus,dotcolour,beta,64,19,V,R,
204,78,36,4,1,44,36,498,['n'],0,left,['1'],6,81,[-0.0811854],83,44,hard,minus,dotcolour,beta,64,19,V,R,
205,79,37,4,1,36,44,1182,['n'],1,right,['1'],6,96,[-0.06775365],67,44,hard,minus,dotcolour,beta,64,19,V,R,
206,80,38,4,1,33,47,532,['n'],1,right,['2'],5,41,[-0.1213519],100,47,medium,minus,dotcolour,beta,64,19,V,R,
207,81,39,4,1,47,33,866,['c'],1,left,['1'],6,165,[0.14634969],98,47,medium,minus,dotcolour,beta,64,19,V,R,
208,82,40,4,1,27,53,631,['n'],1,right,['1'],6,95,[-0.09819832],92,53,easy,minus,dotcolour,beta,64,19,V,R,
209,83,41,4,1,27,53,515,['n'],1,right,['1'],6,104,[-0.04373902],34,53,easy,minus,dotcolour,beta,64,19,V,R,
210,84,0,5,1,53,27,900,['c'],1,left,['1'],6,136,[0.12462521],97,53,easy,minus,dotcolour,beta,64,19,V,R,
211,85,1,5,1,27,53,566,['n'],1,right,['1'],6,101,[-0.06587482],64,53,easy,minus,dotcolour,beta,64,19,V,R,
212,86,2,5,1,27,53,782,['n'],1,right,['2'],5,420,[-0.04051764],40,53,easy,minus,dotcolour,beta,64,19,V,R,
213,87,3,5,1,33,47,948,['c'],0,right,['1'],6,150,[0.03895426],32,47,medium,minus,dotcolour,beta,64,19,V,R,
214,88,4,5,1,47,33,783,['c'],1,left,['1'],6,186,[0.13252282],96,47,medium,minus,dotcolour,beta,64,19,V,R,
215,89,5,5,1,53,27,549,['c'],1,left,['1'],6,79,[0.11527109],98,53,easy,minus,dotcolour,beta,64,19,V,R,
216,90,6,5,1,47,33,1248,['n'],0,left,['1'],6,27,[-0.04006295],15,47,medium,minus,dotcolour,beta,64,19,V,R,
217,91,7,5,1,27,53,483,['n'],1,right,['1'],6,120,[-0.10208734],92,53,easy,minus,dotcolour,beta,64,19,V,R,
218,92,8,5,1,44,36,616,['c'],1,left,['1'],6,148,[0.08842574],82,44,hard,minus,dotcolour,beta,64,19,V,R,
219,93,9,5,1,47,33,448,['c'],1,left,['1'],6,101,[0.11668491],97,47,medium,minus,dotcolour,beta,64,19,V,R,
220,94,10,5,1,27,53,498,['n'],1,right,['1'],6,87,[-0.07664604],78,53,easy,minus,dotcolour,beta,64,19,V,R,
221,95,11,5,1,33,47,350,['n'],1,right,['1'],6,86,[-0.07831935],80,47,medium,minus,dotcolour,beta,64,19,V,R,
222,96,12,5,1,47,33,464,['c'],1,left,['1'],6,74,[0.07055255],73,47,medium,minus,dotcolour,beta,64,19,V,R,
223,97,13,5,1,53,27,781,['c'],1,left,['2'],5,58,[0.11390434],99,53,easy,minus,dotcolour,beta,64,19,V,R,
224,98,14,5,1,33,47,782,['n'],1,right,['1'],6,82,[-0.10583086],96,47,medium,minus,dotcolour,beta,64,19,V,R,
225,99,15,5,1,44,36,1133,['c'],1,left,['2'],5,82,[0.04537145],35,44,hard,minus,dotcolour,beta,64,19,V,R,
226,100,16,5,1,44,36,1600,['n'],0,left,['3'],4,257,[-0.04654569],42,44,hard,minus,dotcolour,beta,64,19,V,R,
227,101,17,5,1,27,53,1049,['n'],1,right,['1'],6,30,[-0.06149911],65,53,easy,minus,dotcolour,beta,64,19,V,R,
228,102,18,5,1,33,47,1181,['n'],1,right,['2'],5,119,[-0.08533032],83,47,medium,minus,dotcolour,beta,64,19,V,R,
229,103,19,5,1,33,47,615,['c'],0,right,['1'],6,83,[0.05408021],48,47,medium,minus,dotcolour,beta,64,19,V,R,
230,104,20,5,1,47,33,815,['c'],1,left,['1'],6,57,[0.07246998],78,47,medium,minus,dotcolour,beta,64,19,V,R,
231,105,21,5,1,36,44,698,['c'],0,right,['1'],6,157,[0.03702881],30,44,hard,minus,dotcolour,beta,64,19,V,R,
232,106,22,5,1,36,44,1933,['n'],1,right,['2'],5,682,[-0.171019],93,44,hard,minus,dotcolour,beta,64,19,V,R,
233,107,23,5,1,33,47,815,['c'],0,right,['1'],6,1471,[-0.1086601],8,47,medium,minus,dotcolour,beta,64,19,V,R,
234,108,24,5,1,36,44,1200,['n'],1,right,['1'],6,70,[-0.08986094],91,44,hard,minus,dotcolour,beta,64,19,V,R,
235,109,25,5,1,27,53,733,['n'],1,right,['1'],6,55,[-0.08075647],87,53,easy,minus,dotcolour,beta,64,19,V,R,
236,110,26,5,1,47,33,1016,['c'],1,left,['3'],4,142,[0.09489437],87,47,medium,minus,dotcolour,beta,64,19,V,R,
237,111,27,5,1,44,36,1815,['c'],1,left,['2'],5,25,[0.07708314],92,44,hard,minus,dotcolour,beta,64,19,V,R,
238,112,28,5,1,44,36,983,['c'],1,left,['1'],6,123,[0.14096992],99,44,hard,minus,dotcolour,beta,64,19,V,R,
239,113,29,5,1,47,33,1432,['c'],1,left,['3'],4,166,[0.10938365],92,47,medium,minus,dotcolour,beta,64,19,V,R,
240,114,30,5,1,36,44,683,['n'],1,right,['1'],6,77,[-0.11589021],98,44,hard,minus,dotcolour,beta,64,19,V,R,
241,115,31,5,1,53,27,732,['c'],1,left,['1'],6,126,[0.08139494],79,53,easy,minus,dotcolour,beta,64,19,V,R,
242,116,32,5,1,33,47,916,['n'],1,right,['2'],5,198,[-0.09755038],85,47,medium,minus,dotcolour,beta,64,19,V,R,
243,117,33,5,1,53,27,765,['c'],1,left,['1'],6,73,[0.12033179],99,53,easy,minus,dotcolour,beta,64,19,V,R,
244,118,34,5,1,44,36,782,['c'],1,left,['1'],6,136,[0.03124546],23,44,hard,minus,dotcolour,beta,64,19,V,R,
245,119,35,5,1,36,44,1800,['n'],1,right,['2'],5,613,[-0.09255415],70,44,hard,minus,dotcolour,beta,64,19,V,R,
246,120,36,5,1,36,44,781,['n'],1,right,['2'],5,102,[-0.08207563],82,44,hard,minus,dotcolour,beta,64,19,V,R,
247,121,37,5,1,53,27,899,['c'],1,left,['1'],6,407,[0.15285023],94,53,easy,minus,dotcolour,beta,64,19,V,R,
248,122,38,5,1,53,27,1348,['c'],1,left,['1'],6,138,[0.04899813],42,53,easy,minus,dotcolour,beta,64,19,V,R,
249,123,39,5,1,44,36,816,['n'],0,left,['2'],5,13,[-0.05441966],46,44,hard,minus,dotcolour,beta,64,19,V,R,
250,124,40,5,1,36,44,882,['n'],1,right,['2'],5,59,[-0.08703441],91,44,hard,minus,dotcolour,beta,64,19,V,R,
251,125,41,5,1,27,53,865,['n'],1,right,['1'],6,79,[-0.1033835],96,53,easy,minus,dotcolour,beta,64,19,V,R,
252,0,0,6,2,33,47,783,['n'],1,right,['2'],5,124,[-0.12357754],100,47,medium,plus,dotcolour,beta,64,19,V,R,
253,1,1,6,2,44,36,697,['n'],0,left,['1'],6,148,[-0.00380298],94,44,hard,plus,dotcolour,beta,64,19,V,R,
254,2,2,6,2,36,44,766,['n'],1,right,['2'],5,113,[-0.1006625],100,44,hard,plus,dotcolour,beta,64,19,V,R,
255,3,3,6,2,53,27,899,['c'],1,left,['1'],6,154,[0.11887827],100,53,easy,plus,dotcolour,beta,64,19,V,R,
256,4,4,6,2,27,53,798,['n'],1,right,['1'],6,78,[-0.11275304],100,53,easy,plus,dotcolour,beta,64,19,V,R,
257,5,5,6,2,36,44,781,['n'],1,right,['2'],5,517,[-0.08205238],97,44,hard,plus,dotcolour,beta,64,19,V,R,
258,6,6,6,2,36,44,632,['n'],1,right,['1'],6,128,[-0.13368069],100,44,hard,plus,dotcolour,beta,64,19,V,R,
259,7,7,6,2,36,44,749,['n'],1,right,['1'],6,94,[-0.09268579],100,44,hard,plus,dotcolour,beta,64,19,V,R,
260,8,8,6,2,27,53,716,['n'],1,right,['1'],6,88,[-0.09353368],100,53,easy,plus,dotcolour,beta,64,19,V,R,
261,9,9,6,2,33,47,533,['n'],1,right,['1'],6,120,[-0.05299108],100,47,medium,plus,dotcolour,beta,64,19,V,R,
262,10,10,6,2,27,53,483,['n'],1,right,['2'],5,74,[-0.08755544],100,53,easy,plus,dotcolour,beta,64,19,V,R,
263,11,11,6,2,44,36,480,['n'],0,left,['8'],3,1221,[-0.19762141],98,44,hard,plus,dotcolour,beta,64,19,V,R,
264,12,12,6,2,47,33,1031,['c'],1,left,['3'],4,100,[0.06143515],100,47,medium,plus,dotcolour,beta,64,19,V,R,
265,13,13,6,2,47,33,682,['n'],0,left,['1'],6,110,[-0.01943532],98,47,medium,plus,dotcolour,beta,64,19,V,R,
266,14,14,6,2,44,36,582,['n'],0,left,['2'],5,20,[-0.08128716],100,44,hard,plus,dotcolour,beta,64,19,V,R,
267,15,15,6,2,44,36,681,['n'],0,left,['3'],4,41,[-0.11013167],100,44,hard,plus,dotcolour,beta,64,19,V,R,
268,16,16,6,2,36,44,648,['n'],1,right,['1'],6,319,[-0.10683696],99,44,hard,plus,dotcolour,beta,64,19,V,R,
269,17,17,6,2,47,33,1330,['c'],1,left,['3'],4,191,[0.08094376],100,47,medium,plus,dotcolour,beta,64,19,V,R,
270,18,18,6,2,53,27,782,['c'],1,left,['1'],6,122,[0.05321808],100,53,easy,plus,dotcolour,beta,64,19,V,R,
271,19,19,6,2,44,36,697,['n'],0,left,['2'],5,210,[-0.05426973],99,44,hard,plus,dotcolour,beta,64,19,V,R,
272,20,20,6,2,47,33,1498,['c'],1,left,['3'],4,135,[0.09562431],100,47,medium,plus,dotcolour,beta,64,19,V,R,
273,21,21,6,2,44,36,913,['n'],0,left,['8'],3,158,[-0.07511807],100,44,hard,plus,dotcolour,beta,64,19,V,R,
274,22,22,6,2,27,53,713,['c'],0,right,['0'],1,773,[0.05872659],91,53,easy,plus,dotcolour,beta,64,19,V,R,
275,23,23,6,2,33,47,1748,['c'],0,right,['3'],4,129,[0.07840149],100,47,medium,plus,dotcolour,beta,64,19,V,R,
276,24,24,6,2,33,47,798,['n'],1,right,['8'],3,158,[-0.03141686],98,47,medium,plus,dotcolour,beta,64,19,V,R,
277,25,25,6,2,27,53,600,['n'],1,right,['1'],6,41,[-0.04917304],100,53,easy,plus,dotcolour,beta,64,19,V,R,
278,26,26,6,2,27,53,599,['n'],1,right,['2'],5,42,[-0.07557362],100,53,easy,plus,dotcolour,beta,64,19,V,R,
279,27,27,6,2,53,27,916,['c'],1,left,['1'],6,117,[0.12214456],100,53,easy,plus,dotcolour,beta,64,19,V,R,
280,28,28,6,2,53,27,833,['n'],0,left,['0'],1,744,[0.02001217],68,53,easy,plus,dotcolour,beta,64,19,V,R,
281,29,29,6,2,47,33,965,['c'],1,left,['1'],6,165,[0.0932059],100,47,medium,plus,dotcolour,beta,64,19,V,R,
282,30,30,6,2,47,33,1548,['n'],0,left,['2'],5,130,[-0.08887582],100,47,medium,plus,dotcolour,beta,64,19,V,R,
283,31,31,6,2,33,47,683,['c'],0,right,['0'],1,643,[0.06680778],94,47,medium,plus,dotcolour,beta,64,19,V,R,
284,32,32,6,2,53,27,914,['c'],1,left,['3'],4,206,[0.03771746],98,53,easy,plus,dotcolour,beta,64,19,V,R,
285,33,33,6,2,33,47,2198,['n'],1,right,['8'],3,128,[-0.04976605],100,47,medium,plus,dotcolour,beta,64,19,V,R,
286,34,34,6,2,53,27,847,['c'],1,left,['1'],6,82,[0.04802135],100,53,easy,plus,dotcolour,beta,64,19,V,R,
287,35,35,6,2,53,27,649,['c'],1,left,['1'],6,142,[0.07767606],100,53,easy,plus,dotcolour,beta,64,19,V,R,
288,36,36,6,2,47,33,563,['c'],1,left,['9'],2,747,[0.13440563],98,47,medium,plus,dotcolour,beta,64,19,V,R,
289,37,37,6,2,33,47,732,['n'],1,right,['1'],6,506,[-0.12093928],99,47,medium,plus,dotcolour,beta,64,19,V,R,
290,38,38,6,2,36,44,1181,['c'],0,right,['2'],5,135,[0.10296437],100,44,hard,plus,dotcolour,beta,64,19,V,R,
291,39,39,6,2,27,53,816,['n'],1,right,['1'],6,43,[-0.04216654],100,53,easy,plus,dotcolour,beta,64,19,V,R,
292,40,40,6,2,36,44,615,['n'],1,right,['1'],6,122,[-0.06474877],100,44,hard,plus,dotcolour,beta,64,19,V,R,
293,41,41,6,2,44,36,1032,['c'],1,left,['3'],4,205,[0.0656178],99,44,hard,plus,dotcolour,beta,64,19,V,R,
294,42,0,7,2,47,33,849,['n'],0,left,['3'],4,115,[-0.04017261],99,47,medium,plus,dotcolour,beta,64,19,V,R,
295,43,1,7,2,44,36,649,['c'],1,left,['2'],5,117,[0.04821542],100,44,hard,plus,dotcolour,beta,64,19,V,R,
296,44,2,7,2,53,27,1048,['n'],0,left,['2'],5,89,[-0.03821985],100,53,easy,plus,dotcolour,beta,64,19,V,R,
297,45,3,7,2,27,53,497,['n'],1,right,['1'],6,154,[-0.09379585],100,53,easy,plus,dotcolour,beta,64,19,V,R,
298,46,4,7,2,44,36,1465,['c'],1,left,['3'],4,180,[0.06495286],99,44,hard,plus,dotcolour,beta,64,19,V,R,
299,47,5,7,2,53,27,734,['c'],1,left,['1'],6,112,[0.04541753],100,53,easy,plus,dotcolour,beta,64,19,V,R,
300,48,6,7,2,27,53,564,['n'],1,right,['2'],5,111,[-0.10468979],100,53,easy,plus,dotcolour,beta,64,19,V,R,
301,49,7,7,2,44,36,663,['c'],1,left,['1'],6,49,[0.08692288],100,44,hard,plus,dotcolour,beta,64,19,V,R,
302,50,8,7,2,36,44,649,['n'],1,right,['2'],5,23,[-0.07368507],100,44,hard,plus,dotcolour,beta,64,19,V,R,
303,51,9,7,2,36,44,1098,['n'],1,right,['8'],3,155,[-0.16855987],100,44,hard,plus,dotcolour,beta,64,19,V,R,
304,52,10,7,2,33,47,549,['n'],1,right,['1'],6,241,[-0.04812042],98,47,medium,plus,dotcolour,beta,64,19,V,R,
305,53,11,7,2,27,53,515,['n'],1,right,['2'],5,36,[-0.05462635],100,53,easy,plus,dotcolour,beta,64,19,V,R,
306,54,12,7,2,33,47,532,['n'],1,right,['1'],6,423,[-0.11073576],99,47,medium,plus,dotcolour,beta,64,19,V,R,
307,55,13,7,2,36,44,582,['n'],1,right,['1'],6,576,[-0.05289533],93,44,hard,plus,dotcolour,beta,64,19,V,R,
308,56,14,7,2,44,36,1280,['c'],1,left,['3'],4,79,[0.04178564],100,44,hard,plus,dotcolour,beta,64,19,V,R,
309,57,15,7,2,53,27,832,['c'],1,left,['1'],6,116,[0.03875875],99,53,easy,plus,dotcolour,beta,64,19,V,R,
310,58,16,7,2,47,33,1382,['c'],1,left,['1'],6,90,[0.08075535],100,47,medium,plus,dotcolour,beta,64,19,V,R,
311,59,17,7,2,36,44,866,['n'],1,right,['3'],4,349,[-0.159015],100,44,hard,plus,dotcolour,beta,64,19,V,R,
312,60,18,7,2,33,47,613,['n'],1,right,['1'],6,47,[-0.08668311],100,47,medium,plus,dotcolour,beta,64,19,V,R,
313,61,19,7,2,53,27,1015,['c'],1,left,['2'],5,439,[0.10391469],99,53,easy,plus,dotcolour,beta,64,19,V,R,
314,62,20,7,2,27,53,649,['n'],1,right,['1'],6,93,[-0.07079957],100,53,easy,plus,dotcolour,beta,64,19,V,R,
315,63,21,7,2,27,53,566,['n'],1,right,['2'],5,60,[-0.0692949],100,53,easy,plus,dotcolour,beta,64,19,V,R,
316,64,22,7,2,53,27,498,['n'],0,left,['0'],1,702,[-0.04850859],90,53,easy,plus,dotcolour,beta,64,19,V,R,
317,65,23,7,2,27,53,749,['c'],0,right,['0'],1,805,[-0.12614432],20,53,easy,plus,dotcolour,beta,64,19,V,R,
318,66,24,7,2,33,47,1932,['n'],1,right,['3'],4,954,[-0.2908007],100,47,medium,plus,dotcolour,beta,64,19,V,R,
319,67,25,7,2,47,33,1082,['c'],1,left,['1'],6,185,[0.16507373],100,47,medium,plus,dotcolour,beta,64,19,V,R,
320,68,26,7,2,27,53,730,['n'],1,right,['1'],6,126,[-0.06110442],100,53,easy,plus,dotcolour,beta,64,19,V,R,
321,69,27,7,2,47,33,1749,['c'],1,left,['2'],5,139,[0.03581242],99,47,medium,plus,dotcolour,beta,64,19,V,R,
322,70,28,7,2,33,47,632,['n'],1,right,['1'],6,79,[-0.05382577],100,47,medium,plus,dotcolour,beta,64,19,V,R,
323,71,29,7,2,44,36,1032,['n'],0,left,['2'],5,196,[-0.10055413],100,44,hard,plus,dotcolour,beta,64,19,V,R,
324,72,30,7,2,36,44,782,['c'],0,right,['1'],6,110,[0.08965433],100,44,hard,plus,dotcolour,beta,64,19,V,R,
325,73,31,7,2,36,44,815,['n'],1,right,['1'],6,67,[-0.10107625],100,44,hard,plus,dotcolour,beta,64,19,V,R,
326,74,32,7,2,53,27,799,['c'],1,left,['2'],5,97,[0.06766385],100,53,easy,plus,dotcolour,beta,64,19,V,R,
327,75,33,7,2,47,33,832,['c'],1,left,['1'],6,197,[0.06344709],99,47,medium,plus,dotcolour,beta,64,19,V,R,
328,76,34,7,2,44,36,732,['c'],1,left,['1'],6,138,[0.13443828],100,44,hard,plus,dotcolour,beta,64,19,V,R,
329,77,35,7,2,33,47,1014,['n'],1,right,['3'],4,333,[-0.02903041],93,47,medium,plus,dotcolour,beta,64,19,V,R,
330,78,36,7,2,44,36,1398,['c'],1,left,['2'],5,298,[0.14662135],100,44,hard,plus,dotcolour,beta,64,19,V,R,
331,79,37,7,2,47,33,1882,['n'],0,left,['8'],3,148,[-0.0512211],99,47,medium,plus,dotcolour,beta,64,19,V,R,
332,80,38,7,2,53,27,814,['c'],1,left,['3'],4,175,[0.10574273],100,53,easy,plus,dotcolour,beta,64,19,V,R,
333,81,39,7,2,36,44,1116,['n'],1,right,['1'],6,325,[-0.18720782],100,44,hard,plus,dotcolour,beta,64,19,V,R,
334,82,40,7,2,33,47,718,['n'],1,right,['1'],6,92,[-0.07732191],100,47,medium,plus,dotcolour,beta,64,19,V,R,
335,83,41,7,2,47,33,1015,['c'],1,left,['2'],5,89,[0.08406518],100,47,medium,plus,dotcolour,beta,64,19,V,R,
336,84,0,8,2,47,33,2051,['n'],0,left,['2'],5,254,[-0.01619419],93,47,medium,plus,dotcolour,beta,64,19,V,R,
337,85,1,8,2,33,47,765,['n'],1,right,['1'],6,23,[-0.08771073],100,47,medium,plus,dotcolour,beta,64,19,V,R,
338,86,2,8,2,53,27,1480,['c'],1,left,['2'],5,101,[0.08682738],100,53,easy,plus,dotcolour,beta,64,19,V,R,
339,87,3,8,2,27,53,614,['n'],1,right,['2'],5,130,[-0.07039364],100,53,easy,plus,dotcolour,beta,64,19,V,R,
340,88,4,8,2,44,36,582,['n'],0,left,['1'],6,599,[-0.09124449],97,44,hard,plus,dotcolour,beta,64,19,V,R,
341,89,5,8,2,27,53,648,['n'],1,right,['1'],6,406,[-0.11951752],99,53,easy,plus,dotcolour,beta,64,19,V,R,
342,90,6,8,2,33,47,817,['n'],1,right,['1'],6,39,[-0.08128029],100,47,medium,plus,dotcolour,beta,64,19,V,R,
343,91,7,8,2,27,53,883,['n'],1,right,['2'],5,92,[-0.02267204],99,53,easy,plus,dotcolour,beta,64,19,V,R,
344,92,8,8,2,27,53,565,['n'],1,right,['1'],6,131,[-0.10954246],100,53,easy,plus,dotcolour,beta,64,19,V,R,
345,93,9,8,2,53,27,782,['c'],1,left,['2'],5,7,[0.07352939],100,53,easy,plus,dotcolour,beta,64,19,V,R,
346,94,10,8,2,53,27,630,['c'],1,left,['1'],6,7,[0.07676289],100,53,easy,plus,dotcolour,beta,64,19,V,R,
347,95,11,8,2,36,44,566,['n'],1,right,['1'],6,97,[-0.0302255],99,44,hard,plus,dotcolour,beta,64,19,V,R,
348,96,12,8,2,36,44,982,['n'],1,right,['1'],6,120,[-0.10738172],100,44,hard,plus,dotcolour,beta,64,19,V,R,
349,97,13,8,2,44,36,682,['n'],0,left,['2'],5,225,[-0.06953568],99,44,hard,plus,dotcolour,beta,64,19,V,R,
350,98,14,8,2,36,44,599,['n'],1,right,['3'],4,217,[-0.11858059],100,44,hard,plus,dotcolour,beta,64,19,V,R,
351,99,15,8,2,36,44,498,['n'],1,right,['0'],1,1278,[0.03306004],59,44,hard,plus,dotcolour,beta,64,19,V,R,
352,100,16,8,2,53,27,814,['c'],1,left,['1'],6,84,[0.1067459],100,53,easy,plus,dotcolour,beta,64,19,V,R,
353,101,17,8,2,44,36,1249,['n'],0,left,['2'],5,216,[-0.06032071],99,44,hard,plus,dotcolour,beta,64,19,V,R,
354,102,18,8,2,53,27,799,['n'],0,left,['3'],4,129,[-0.11813522],100,53,easy,plus,dotcolour,beta,64,19,V,R,
355,103,19,8,2,47,33,1232,['c'],1,left,['1'],6,196,[0.08526464],100,47,medium,plus,dotcolour,beta,64,19,V,R,
356,104,20,8,2,36,44,1116,['n'],1,right,['1'],6,25,[-0.04652196],100,44,hard,plus,dotcolour,beta,64,19,V,R,
357,105,21,8,2,33,47,548,['c'],0,right,['2'],5,372,[0.04085006],95,47,medium,plus,dotcolour,beta,64,19,V,R,
358,106,22,8,2,44,36,1065,['c'],1,left,['3'],4,132,[0.09157364],100,44,hard,plus,dotcolour,beta,64,19,V,R,
359,107,23,8,2,27,53,564,['n'],1,right,['1'],6,81,[-0.10330544],100,53,easy,plus,dotcolour,beta,64,19,V,R,
360,108,24,8,2,33,47,514,['n'],1,right,['2'],5,27,[-0.06619751],100,47,medium,plus,dotcolour,beta,64,19,V,R,
361,109,25,8,2,33,47,566,['n'],1,right,['1'],6,45,[-0.05394957],100,47,medium,plus,dotcolour,beta,64,19,V,R,
362,110,26,8,2,33,47,1549,['n'],1,right,['1'],6,31,[-0.0844122],100,47,medium,plus,dotcolour,beta,64,19,V,R,
363,111,27,8,2,27,53,600,['n'],1,right,['1'],6,7,[-0.07126726],100,53,easy,plus,dotcolour,beta,64,19,V,R,
364,112,28,8,2,47,33,816,['c'],1,left,['2'],5,423,[0.16345928],100,47,medium,plus,dotcolour,beta,64,19,V,R,
365,113,29,8,2,27,53,967,['n'],1,right,['1'],6,313,[-0.07875812],99,53,easy,plus,dotcolour,beta,64,19,V,R,
366,114,30,8,2,44,36,1864,['c'],1,left,['2'],5,219,[0.14366936],100,44,hard,plus,dotcolour,beta,64,19,V,R,
367,115,31,8,2,33,47,732,['n'],1,right,['1'],6,103,[-0.05427692],100,47,medium,plus,dotcolour,beta,64,19,V,R,
368,116,32,8,2,53,27,1064,['c'],1,left,['1'],6,106,[0.11181752],100,53,easy,plus,dotcolour,beta,64,19,V,R,
369,117,33,8,2,36,44,832,['n'],1,right,['1'],6,54,[-0.07895916],100,44,hard,plus,dotcolour,beta,64,19,V,R,
370,118,34,8,2,53,27,1000,['c'],1,left,['1'],6,94,[0.06279447],100,53,easy,plus,dotcolour,beta,64,19,V,R,
371,119,35,8,2,47,33,966,['c'],1,left,['1'],6,173,[0.19268957],100,47,medium,plus,dotcolour,beta,64,19,V,R,
372,120,36,8,2,47,33,864,['c'],1,left,['2'],5,108,[0.11444052],100,47,medium,plus,dotcolour,beta,64,19,V,R,
373,121,37,8,2,47,33,631,['c'],1,left,['1'],6,88,[0.09528039],100,47,medium,plus,dotcolour,beta,64,19,V,R,
374,122,38,8,2,47,33,597,['c'],1,left,['1'],6,134,[0.04667547],99,47,medium,plus,dotcolour,beta,64,19,V,R,
375,123,39,8,2,44,36,1115,['n'],0,left,['1'],6,182,[-0.06301827],99,44,hard,plus,dotcolour,beta,64,19,V,R,
376,124,40,8,2,36,44,1265,['c'],0,right,['2'],5,190,[0.15875185],100,44,hard,plus,dotcolour,beta,64,19,V,R,
377,125,41,8,2,44,36,1264,['c'],1,left,['3'],4,173,[0.01826721],96,44,hard,plus,dotcolour,beta,64,19,V,R,
378,0,0,9,3,47,33,1116,['c'],1,left,['3'],4,124,[0.04005547],31,47,medium,minus,dotcolour,beta,64,19,V,R,
379,1,1,9,3,36,44,1033,['c'],0,right,['1'],6,159,[0.06922858],65,44,hard,minus,dotcolour,beta,64,19,V,R,
380,2,2,9,3,44,36,1582,['n'],0,left,['3'],4,386,[-0.03407363],35,44,hard,minus,dotcolour,beta,64,19,V,R,
381,3,3,9,3,47,33,714,['c'],1,left,['2'],5,119,[0.0780821],76,47,medium,minus,dotcolour,beta,64,19,V,R,
382,4,4,9,3,44,36,997,['n'],0,left,['1'],6,52,[-0.06692014],71,44,hard,minus,dotcolour,beta,64,19,V,R,
383,5,5,9,3,44,36,797,['c'],1,left,['2'],5,916,[0.20103191],94,44,hard,minus,dotcolour,beta,64,19,V,R,
384,6,6,9,3,36,44,766,['n'],1,right,['1'],6,10,[-0.05719878],57,44,hard,minus,dotcolour,beta,64,19,V,R,
385,7,7,9,3,27,53,498,['n'],1,right,['1'],6,39,[-0.06310592],67,53,easy,minus,dotcolour,beta,64,19,V,R,
386,8,8,9,3,33,47,483,['n'],1,right,['1'],6,44,[-0.06749981],74,47,medium,minus,dotcolour,beta,64,19,V,R,
387,9,9,9,3,36,44,516,['n'],1,right,['1'],6,31,[-0.06775995],78,44,hard,minus,dotcolour,beta,64,19,V,R,
388,10,10,9,3,27,53,617,['n'],1,right,['1'],6,334,[-0.160498],96,53,easy,minus,dotcolour,beta,64,19,V,R,
389,11,11,9,3,44,36,783,['c'],1,left,['1'],6,131,[0.10124773],91,44,hard,minus,dotcolour,beta,64,19,V,R,
390,12,12,9,3,47,33,799,['c'],1,left,['2'],5,80,[0.10984103],97,47,medium,minus,dotcolour,beta,64,19,V,R,
391,13,13,9,3,33,47,682,['n'],1,right,['1'],6,83,[-0.10807128],96,47,medium,minus,dotcolour,beta,64,19,V,R,
392,14,14,9,3,27,53,680,['n'],1,right,['1'],6,110,[-0.06485255],62,53,easy,minus,dotcolour,beta,64,19,V,R,
393,15,15,9,3,53,27,682,['c'],1,left,['1'],6,167,[0.09800809],87,53,easy,minus,dotcolour,beta,64,19,V,R,
394,16,16,9,3,33,47,881,['c'],0,right,['0'],1,999,[0.10011637],69,47,medium,minus,dotcolour,beta,64,19,V,R,
395,17,17,9,3,47,33,632,['c'],1,left,['2'],5,142,[0.09645832],88,47,medium,minus,dotcolour,beta,64,19,V,R,
396,18,18,9,3,33,47,1115,['n'],1,right,['1'],6,94,[-0.07976447],81,47,medium,minus,dotcolour,beta,64,19,V,R,
397,19,19,9,3,53,27,666,['c'],1,left,['1'],6,80,[0.04597068],35,53,easy,minus,dotcolour,beta,64,19,V,R,
398,20,20,9,3,53,27,548,['c'],1,left,['1'],6,137,[0.15749309],99,53,easy,minus,dotcolour,beta,64,19,V,R,
399,21,21,9,3,47,33,416,['c'],1,left,['1'],6,101,[0.09853372],92,47,medium,minus,dotcolour,beta,64,19,V,R,
400,22,22,9,3,47,33,1464,['c'],1,left,['2'],5,87,[0.09071095],90,47,medium,minus,dotcolour,beta,64,19,V,R,
401,23,23,9,3,47,33,1915,['c'],1,left,['3'],4,114,[0.04834308],41,47,medium,minus,dotcolour,beta,64,19,V,R,
402,24,24,9,3,33,47,799,['n'],1,right,['1'],6,78,[-0.08393831],86,47,medium,minus,dotcolour,beta,64,19,V,R,
403,25,25,9,3,53,27,2064,['c'],1,left,['2'],5,378,[0.112274],84,53,easy,minus,dotcolour,beta,64,19,V,R,
404,26,26,9,3,44,36,1682,['c'],1,left,['1'],6,129,[0.14693262],99,44,hard,minus,dotcolour,beta,64,19,V,R,
405,27,27,9,3,36,44,732,['n'],1,right,['1'],6,112,[-0.09074225],87,44,hard,minus,dotcolour,beta,64,19,V,R,
406,28,28,9,3,36,44,865,['c'],0,right,['2'],5,163,[0.05812962],53,44,hard,minus,dotcolour,beta,64,19,V,R,
407,29,29,9,3,53,27,1082,['c'],1,left,['3'],4,154,[0.08406436],79,53,easy,minus,dotcolour,beta,64,19,V,R,
408,30,30,9,3,33,47,831,['n'],1,right,['2'],5,147,[-0.02388669],18,47,medium,minus,dotcolour,beta,64,19,V,R,
409,31,31,9,3,53,27,664,['c'],1,left,['1'],6,101,[0.08380857],83,53,easy,minus,dotcolour,beta,64,19,V,R,
410,32,32,9,3,27,53,616,['c'],0,right,['0'],1,786,[0.08501251],65,53,easy,minus,dotcolour,beta,64,19,V,R,
411,33,33,9,3,27,53,1248,['n'],1,right,['1'],6,97,[-0.11604563],97,53,easy,minus,dotcolour,beta,64,19,V,R,
412,34,34,9,3,33,47,532,['n'],1,right,['2'],5,154,[-0.09367157],85,47,medium,minus,dotcolour,beta,64,19,V,R,
413,35,35,9,3,27,53,450,['n'],1,right,['1'],6,131,[-0.10234208],91,53,easy,minus,dotcolour,beta,64,19,V,R,
414,36,36,9,3,53,27,717,['c'],1,left,['2'],5,155,[0.09056422],83,53,easy,minus,dotcolour,beta,64,19,V,R,
415,37,37,9,3,27,53,699,['n'],1,right,['1'],6,75,[-0.0737479],77,53,easy,minus,dotcolour,beta,64,19,V,R,
416,38,38,9,3,36,44,664,['n'],1,right,['2'],5,31,[-0.09213382],98,44,hard,minus,dotcolour,beta,64,19,V,R,
417,39,39,9,3,44,36,1966,['c'],1,left,['8'],3,577,[0.09103366],70,44,hard,minus,dotcolour,beta,64,19,V,R,
418,40,40,9,3,44,36,749,['n'],0,left,['1'],6,45,[-0.12565202],100,44,hard,minus,dotcolour,beta,64,19,V,R,
419,41,41,9,3,36,44,547,['n'],1,right,['1'],6,71,[-0.06334083],63,44,hard,minus,dotcolour,beta,64,19,V,R,
420,42,0,10,3,33,47,1000,['n'],1,right,['2'],5,205,[-0.03414091],30,47,medium,minus,dotcolour,beta,64,19,V,R,
421,43,1,10,3,27,53,516,['n'],1,right,['2'],5,170,[-0.148376],98,53,easy,minus,dotcolour,beta,64,19,V,R,
422,44,2,10,3,53,27,632,['c'],1,left,['1'],6,75,[0.03727628],23,53,easy,minus,dotcolour,beta,64,19,V,R,
423,45,3,10,3,36,44,1332,['n'],1,right,['1'],6,28,[-0.09380561],98,44,hard,minus,dotcolour,beta,64,19,V,R,
424,46,4,10,3,33,47,465,['n'],1,right,['2'],5,82,[-0.09120682],90,47,medium,minus,dotcolour,beta,64,19,V,R,
425,47,5,10,3,44,36,815,['n'],0,left,['1'],6,103,[-0.12063496],97,44,hard,minus,dotcolour,beta,64,19,V,R,
426,48,6,10,3,33,47,516,['n'],1,right,['1'],6,16,[-0.06269091],73,47,medium,minus,dotcolour,beta,64,19,V,R,
427,49,7,10,3,36,44,650,['c'],0,right,['2'],5,118,[0.05961945],55,44,hard,minus,dotcolour,beta,64,19,V,R,
428,50,8,10,3,47,33,633,['c'],1,left,['3'],4,106,[0.13769274],99,47,medium,minus,dotcolour,beta,64,19,V,R,
429,51,9,10,3,27,53,682,['n'],1,right,['2'],5,101,[-0.06631032],65,53,easy,minus,dotcolour,beta,64,19,V,R,
430,52,10,10,3,44,36,932,['c'],1,left,['1'],6,77,[0.02596418],13,44,hard,minus,dotcolour,beta,64,19,V,R,
431,53,11,10,3,36,44,730,['n'],1,right,['2'],5,30,[-0.08834634],97,44,hard,minus,dotcolour,beta,64,19,V,R,
432,54,12,10,3,33,47,517,['n'],1,right,['8'],3,1273,[-0.16432606],85,47,medium,minus,dotcolour,beta,64,19,V,R,
433,55,13,10,3,27,53,6067,['n'],1,right,['2'],5,390,[-0.02551901],30,53,easy,minus,dotcolour,beta,64,19,V,R,
434,56,14,10,3,44,36,982,['n'],0,left,['2'],5,112,[-0.07747941],76,44,hard,minus,dotcolour,beta,64,19,V,R,
435,57,15,10,3,47,33,783,['c'],1,left,['2'],5,126,[0.10896279],94,47,medium,minus,dotcolour,beta,64,19,V,R,
436,58,16,10,3,53,27,883,['c'],1,left,['2'],5,135,[0.14768682],99,53,easy,minus,dotcolour,beta,64,19,V,R,
437,59,17,10,3,27,53,664,['c'],0,right,['0'],1,552,[-0.10965444],2,53,easy,minus,dotcolour,beta,64,19,V,R,
438,60,18,10,3,53,27,1481,['c'],1,left,['3'],4,160,[0.10355259],90,53,easy,minus,dotcolour,beta,64,19,V,R,
439,61,19,10,3,44,36,648,['c'],1,left,['2'],5,89,[0.06230386],60,44,hard,minus,dotcolour,beta,64,19,V,R,
440,62,20,10,3,27,53,616,['n'],1,right,['2'],5,55,[-0.06631221],70,53,easy,minus,dotcolour,beta,64,19,V,R,
441,63,21,10,3,36,44,731,['n'],1,right,['8'],3,289,[-0.05805991],52,44,hard,minus,dotcolour,beta,64,19,V,R,
442,64,22,10,3,53,27,699,['c'],1,left,['3'],4,83,[0.11521538],98,53,easy,minus,dotcolour,beta,64,19,V,R,
443,65,23,10,3,53,27,765,['c'],1,left,['2'],5,106,[0.06609731],64,53,easy,minus,dotcolour,beta,64,19,V,R,
444,66,24,10,3,47,33,831,['c'],1,left,['2'],5,15,[0.07146377],91,47,medium,minus,dotcolour,beta,64,19,V,R,
445,67,25,10,3,33,47,565,['n'],1,right,['2'],5,81,[-0.0801435],83,47,medium,minus,dotcolour,beta,64,19,V,R,
446,68,26,10,3,36,44,648,['n'],1,right,['2'],5,133,[-0.09489597],87,44,hard,minus,dotcolour,beta,64,19,V,R,
447,69,27,10,3,44,36,682,['n'],0,left,['1'],6,78,[-0.06192044],60,44,hard,minus,dotcolour,beta,64,19,V,R,
448,70,28,10,3,47,33,1082,['n'],0,left,['1'],6,121,[-0.03927224],30,47,medium,minus,dotcolour,beta,64,19,V,R,
449,71,29,10,3,44,36,1165,['n'],0,left,['1'],6,239,[-0.04067526],37,44,hard,minus,dotcolour,beta,64,19,V,R,
450,72,30,10,3,27,53,1666,['n'],1,right,['1'],6,45,[-0.04931124],37,53,easy,minus,dotcolour,beta,64,19,V,R,
451,73,31,10,3,36,44,832,['n'],1,right,['1'],6,643,[-0.10219003],74,44,hard,minus,dotcolour,beta,64,19,V,R,
452,74,32,10,3,33,47,665,['n'],1,right,['2'],5,456,[-0.18846855],97,47,medium,minus,dotcolour,beta,64,19,V,R,
453,75,33,10,3,53,27,731,['c'],1,left,['1'],6,66,[0.0359538],20,53,easy,minus,dotcolour,beta,64,19,V,R,
454,76,34,10,3,33,47,648,['n'],1,right,['1'],6,79,[-0.10781088],97,47,medium,minus,dotcolour,beta,64,19,V,R,
455,77,35,10,3,36,44,581,['n'],1,right,['1'],6,38,[-0.06967562],79,44,hard,minus,dotcolour,beta,64,19,V,R,
456,78,36,10,3,27,53,499,['n'],1,right,['1'],6,33,[-0.05129777],40,53,easy,minus,dotcolour,beta,64,19,V,R,
457,79,37,10,3,44,36,1016,['c'],1,left,['1'],6,89,[0.10812464],96,44,hard,minus,dotcolour,beta,64,19,V,R,
458,80,38,10,3,47,33,1497,['c'],1,left,['1'],6,124,[0.11835991],96,47,medium,minus,dotcolour,beta,64,19,V,R,
459,81,39,10,3,53,27,832,['n'],0,left,['1'],6,103,[-0.0281274],18,53,easy,minus,dotcolour,beta,64,19,V,R,
460,82,40,10,3,47,33,5982,['n'],0,left,['3'],4,206,[-0.08764978],78,47,medium,minus,dotcolour,beta,64,19,V,R,
461,83,41,10,3,47,33,1198,['c'],1,left,['3'],4,119,[0.11850316],96,47,medium,minus,dotcolour,beta,64,19,V,R,
462,84,0,11,3,33,47,950,['n'],1,right,['2'],5,49,[-0.08250124],90,47,medium,minus,dotcolour,beta,64,19,V,R,
463,85,1,11,3,36,44,516,['n'],1,right,['1'],6,116,[-0.12123897],97,44,hard,minus,dotcolour,beta,64,19,V,R,
464,86,2,11,3,53,27,767,['n'],0,left,['2'],5,90,[-0.06213387],60,53,easy,minus,dotcolour,beta,64,19,V,R,
465,87,3,11,3,47,33,798,['c'],1,left,['1'],6,104,[0.07215115],72,47,medium,minus,dotcolour,beta,64,19,V,R,
466,88,4,11,3,44,36,816,['n'],0,left,['1'],6,149,[-0.13199944],97,44,hard,minus,dotcolour,beta,64,19,V,R,
467,89,5,11,3,36,44,432,['n'],1,right,['2'],5,40,[-0.07394009],84,44,hard,minus,dotcolour,beta,64,19,V,R,
468,90,6,11,3,53,27,698,['c'],1,left,['1'],6,116,[0.09889744],91,53,easy,minus,dotcolour,beta,64,19,V,R,
469,91,7,11,3,44,36,1466,['n'],0,left,['1'],6,806,[-0.00654998],27,44,hard,minus,dotcolour,beta,64,19,V,R,
470,92,8,11,3,33,47,514,['n'],1,right,['2'],5,82,[-0.09026065],90,47,medium,minus,dotcolour,beta,64,19,V,R,
471,93,9,11,3,27,53,399,['n'],1,right,['1'],6,105,[-0.00261387],5,53,easy,minus,dotcolour,beta,64,19,V,R,
472,94,10,11,3,47,33,815,['c'],1,left,['2'],5,118,[0.11181848],95,47,medium,minus,dotcolour,beta,64,19,V,R,
473,95,11,11,3,44,36,764,['c'],1,left,['1'],6,332,[0.11970711],88,44,hard,minus,dotcolour,beta,64,19,V,R,
474,96,12,11,3,44,36,581,['n'],0,left,['1'],6,57,[-0.10444112],98,44,hard,minus,dotcolour,beta,64,19,V,R,
475,97,13,11,3,36,44,449,['n'],1,right,['2'],5,71,[-0.06571311],67,44,hard,minus,dotcolour,beta,64,19,V,R,
476,98,14,11,3,36,44,499,['n'],1,right,['3'],4,42,[-0.06942978],77,44,hard,minus,dotcolour,beta,64,19,V,R,
477,99,15,11,3,27,53,349,['n'],1,right,['1'],6,60,[-0.1026738],97,53,easy,minus,dotcolour,beta,64,19,V,R,
478,100,16,11,3,36,44,416,['n'],1,right,['1'],6,10,[-0.0748183],97,44,hard,minus,dotcolour,beta,64,19,V,R,
479,101,17,11,3,44,36,615,['n'],0,left,['1'],6,1427,[-0.07876263],59,44,hard,minus,dotcolour,beta,64,19,V,R,
480,102,18,11,3,44,36,1182,['n'],0,left,['2'],5,228,[-0.06613893],60,44,hard,minus,dotcolour,beta,64,19,V,R,
481,103,19,11,3,53,27,516,['n'],0,left,['2'],5,160,[0.00298123],7,53,easy,minus,dotcolour,beta,64,19,V,R,
482,104,20,11,3,33,47,382,['c'],0,right,['1'],6,131,[0.03178441],23,47,medium,minus,dotcolour,beta,64,19,V,R,
483,105,21,11,3,27,53,1666,['n'],1,right,['1'],6,165,[-0.10432706],90,53,easy,minus,dotcolour,beta,64,19,V,R,
484,106,22,11,3,33,47,1815,['c'],0,right,['2'],5,159,[0.04606959],39,47,medium,minus,dotcolour,beta,64,19,V,R,
485,107,23,11,3,27,53,715,['n'],1,right,['1'],6,94,[-0.08303575],83,53,easy,minus,dotcolour,beta,64,19,V,R,
