trial,withinphasetrial,withinblocktrial,block,phase,dotsLeft,dotsRight,rt,resp,cor,cresp,conf_press,cj,RTconf,ev,fb,diff,difflevel,condition,task,manip,questionID,questionResp,sub,age,gender,handedness,
0,0,0,0,0,27,53,1467,['n'],1,right,['8'],4,330,[-0.09939583],83,53,easy,minus,dotcolour,alfa,,,83,18,V,R,
1,1,1,0,0,53,27,532,['c'],1,left,['3'],3,161,[0.15704151],97,53,easy,minus,dotcolour,alfa,,,83,18,V,R,
2,2,2,0,0,36,44,214,['n'],1,right,['9'],5,218,[-0.00848602],54,44,hard,minus,dotcolour,alfa,,,83,18,V,R,
3,3,3,0,0,44,36,348,['c'],1,left,['9'],5,157,[0.04228727],72,44,hard,minus,dotcolour,alfa,,,83,18,V,R,
4,4,4,0,0,27,53,136,['c'],0,right,['2'],2,120,[0.059972],83,53,easy,minus,dotcolour,alfa,,,83,18,V,R,
5,5,5,0,0,33,47,197,['n'],1,right,['1'],1,117,[-0.07485082],88,47,medium,minus,dotcolour,alfa,,,83,18,V,R,
6,6,6,0,0,44,36,300,['c'],1,left,['9'],5,237,[0.1106378],89,44,hard,minus,dotcolour,alfa,,,83,18,V,R,
7,7,7,0,0,44,36,265,['c'],1,left,['2'],2,218,[0.05565487],75,44,hard,minus,dotcolour,alfa,,,83,18,V,R,
8,8,8,0,0,53,27,416,['c'],1,left,['1'],1,123,[0.10534733],94,53,easy,minus,dotcolour,alfa,,,83,18,V,R,
9,9,9,0,0,47,33,599,['c'],1,left,['3'],3,118,[0.10269953],94,47,medium,minus,dotcolour,alfa,,,83,18,V,R,
10,10,10,0,0,44,36,683,['n'],0,left,['1'],1,80,[-0.05621294],86,44,hard,minus,dotcolour,alfa,,,83,18,V,R,
11,11,11,0,0,33,47,531,['c'],0,right,['8'],4,513,[0.00649765],52,47,medium,minus,dotcolour,alfa,,,83,18,V,R,
12,12,12,0,0,36,44,833,['n'],1,right,['2'],2,380,[0.0465767],34,44,hard,minus,dotcolour,alfa,,,83,18,V,R,
13,13,13,0,0,33,47,598,['n'],1,right,['1'],1,94,[-0.04701174],80,47,medium,minus,dotcolour,alfa,,,83,18,V,R,
14,14,14,0,0,53,27,965,['n'],0,left,['2'],2,132,[-0.04836093],77,53,easy,minus,dotcolour,alfa,,,83,18,V,R,
15,15,15,0,0,27,53,833,['n'],1,right,['1'],1,79,[-0.08719436],94,53,easy,minus,dotcolour,alfa,,,83,18,V,R,
16,16,16,0,0,47,33,682,['c'],1,left,['1'],1,130,[0.08964798],90,47,medium,minus,dotcolour,alfa,,,83,18,V,R,
17,17,17,0,0,47,33,781,['c'],1,left,['1'],1,111,[0.05751585],83,47,medium,minus,dotcolour,alfa,,,83,18,V,R,
18,18,18,0,0,44,36,949,['c'],1,left,['3'],3,205,[0.05143239],74,44,hard,minus,dotcolour,alfa,,,83,18,V,R,
19,19,19,0,0,33,47,417,['n'],1,right,['1'],1,86,[-0.08231997],93,47,medium,minus,dotcolour,alfa,,,83,18,V,R,
20,20,20,0,0,47,33,564,['c'],1,left,['1'],1,53,[0.09297279],97,47,medium,minus,dotcolour,alfa,,,83,18,V,R,
21,21,21,0,0,36,44,1282,['n'],1,right,['3'],3,144,[-0.12996986],96,44,hard,minus,dotcolour,alfa,,,83,18,V,R,
22,22,22,0,0,33,47,782,['n'],1,right,['3'],3,85,[-0.08304757],93,47,medium,minus,dotcolour,alfa,,,83,18,V,R,
23,23,23,0,0,44,36,1146,['n'],0,left,['8'],4,132,[-0.04605055],76,44,hard,minus,dotcolour,alfa,,,83,18,V,R,
24,24,24,0,0,27,53,767,['n'],1,right,['2'],2,66,[-0.08126076],95,53,easy,minus,dotcolour,alfa,,,83,18,V,R,
25,25,25,0,0,27,53,497,['n'],1,right,['2'],2,68,[-0.09595735],96,53,easy,minus,dotcolour,alfa,,,83,18,V,R,
26,26,26,0,0,27,53,564,['n'],1,right,['1'],1,28,[-0.07918205],99,53,easy,minus,dotcolour,alfa,,,83,18,V,R,
27,27,27,0,0,27,53,1064,['c'],0,right,['3'],3,97,[0.08831788],93,53,easy,minus,dotcolour,alfa,,,83,18,V,R,
28,28,28,0,0,53,27,564,['c'],1,left,['2'],2,152,[0.08910198],89,53,easy,minus,dotcolour,alfa,,,83,18,V,R,
29,29,29,0,0,33,47,516,['n'],1,right,['3'],3,190,[-0.11014797],91,47,medium,minus,dotcolour,alfa,,,83,18,V,R,
30,30,30,0,0,47,33,982,['c'],1,left,['2'],2,344,[0.10112492],83,47,medium,minus,dotcolour,alfa,,,83,18,V,R,
31,31,31,0,0,36,44,599,['c'],0,right,['2'],2,155,[0.08417779],87,44,hard,minus,dotcolour,alfa,,,83,18,V,R,
32,32,32,0,0,44,36,1015,['c'],1,left,['3'],3,166,[0.01538983],58,44,hard,minus,dotcolour,alfa,,,83,18,V,R,
33,33,33,0,0,53,27,1331,['n'],0,left,['8'],4,132,[-0.07250617],86,53,easy,minus,dotcolour,alfa,,,83,18,V,R,
34,34,34,0,0,47,33,798,['c'],1,left,['3'],3,87,[0.06388517],88,47,medium,minus,dotcolour,alfa,,,83,18,V,R,
35,35,35,0,0,47,33,649,['n'],0,left,['2'],2,196,[-0.09193136],87,47,medium,minus,dotcolour,alfa,,,83,18,V,R,
36,36,36,0,0,36,44,299,['c'],0,right,['3'],3,113,[0.00076777],51,44,hard,minus,dotcolour,alfa,,,83,18,V,R,
37,37,37,0,0,36,44,250,['c'],0,right,['8'],4,116,[0.13188852],97,44,hard,minus,dotcolour,alfa,,,83,18,V,R,
38,38,38,0,0,53,27,415,['n'],0,left,['9'],5,631,[0.05990899],34,53,easy,minus,dotcolour,alfa,,,83,18,V,R,
39,39,39,0,0,36,44,192,['n'],1,right,['2'],2,759,[0.04205578],39,44,hard,minus,dotcolour,alfa,,,83,18,V,R,
40,40,40,0,0,33,47,530,['c'],0,right,['1'],1,405,[0.08245325],76,47,medium,minus,dotcolour,alfa,,,83,18,V,R,
41,41,41,0,0,53,27,467,['n'],0,left,['3'],3,227,[-0.13330113],93,53,easy,minus,dotcolour,alfa,,,83,18,V,R,
42,42,0,1,0,27,53,1516,['c'],0,right,['3'],3,269,[-0.07770896],21,53,easy,minus,dotcolour,alfa,,,83,18,V,R,
43,43,1,1,0,36,44,91,['n'],1,right,['9'],5,252,[-0.11828704],89,44,hard,minus,dotcolour,alfa,,,83,18,V,R,
44,44,2,1,0,27,53,18,['c'],0,right,['3'],3,3,[0.07286884],100,53,easy,minus,dotcolour,alfa,,,83,18,V,R,
45,45,3,1,0,47,33,231,['c'],1,left,['1'],1,299,[0.10640793],85,47,medium,minus,dotcolour,alfa,,,83,18,V,R,
46,46,4,1,0,44,36,330,['n'],0,left,['0'],6,627,[-0.00575886],52,44,hard,minus,dotcolour,alfa,,,83,18,V,R,
47,47,5,1,0,53,27,247,['n'],0,left,['2'],2,305,[0.04981938],31,53,easy,minus,dotcolour,alfa,,,83,18,V,R,
48,48,6,1,0,53,27,567,['c'],1,left,['8'],4,231,[0.11408093],89,53,easy,minus,dotcolour,alfa,,,83,18,V,R,
49,49,7,1,0,44,36,481,['n'],0,left,['2'],2,220,[-0.08205303],83,44,hard,minus,dotcolour,alfa,,,83,18,V,R,
50,50,8,1,0,44,36,316,['n'],0,left,['0'],6,295,[-0.04537338],68,44,hard,minus,dotcolour,alfa,,,83,18,V,R,
51,51,9,1,0,36,44,348,['c'],0,right,['9'],5,239,[0.04434731],69,44,hard,minus,dotcolour,alfa,,,83,18,V,R,
52,52,10,1,0,44,36,265,['c'],1,left,['2'],2,283,[0.12950684],90,44,hard,minus,dotcolour,alfa,,,83,18,V,R,
53,53,11,1,0,27,53,282,['n'],1,right,['0'],6,246,[-0.09087812],84,53,easy,minus,dotcolour,alfa,,,83,18,V,R,
54,54,12,1,0,33,47,191,['c'],0,right,['1'],1,149,[0.12860716],95,47,medium,minus,dotcolour,alfa,,,83,18,V,R,
55,55,13,1,0,27,53,366,['n'],1,right,['8'],4,322,[-0.11051911],85,53,easy,minus,dotcolour,alfa,,,83,18,V,R,
56,56,14,1,0,36,44,264,['n'],1,right,['8'],4,147,[-0.10388595],92,44,hard,minus,dotcolour,alfa,,,83,18,V,R,
57,57,15,1,0,36,44,400,['n'],1,right,['1'],1,71,[-0.07303956],92,44,hard,minus,dotcolour,alfa,,,83,18,V,R,
58,58,16,1,0,33,47,415,['n'],1,right,['2'],2,101,[-0.09014605],93,47,medium,minus,dotcolour,alfa,,,83,18,V,R,
59,59,17,1,0,33,47,298,['c'],0,right,['2'],2,150,[0.03823254],71,47,medium,minus,dotcolour,alfa,,,83,18,V,R,
60,60,18,1,0,47,33,348,['c'],1,left,['3'],3,211,[0.12298279],92,47,medium,minus,dotcolour,alfa,,,83,18,V,R,
61,61,19,1,0,33,47,231,['n'],1,right,['2'],2,259,[-0.08211471],81,47,medium,minus,dotcolour,alfa,,,83,18,V,R,
62,62,20,1,0,27,53,249,['n'],1,right,['0'],6,127,[-0.13097148],96,53,easy,minus,dotcolour,alfa,,,83,18,V,R,
63,63,21,1,0,44,36,780,['n'],0,left,['8'],4,731,[-0.01719513],55,44,hard,minus,dotcolour,alfa,,,83,18,V,R,
64,64,22,1,0,47,33,349,['c'],1,left,['1'],1,154,[0.07587081],85,47,medium,minus,dotcolour,alfa,,,83,18,V,R,
65,65,23,1,0,36,44,365,['c'],0,right,['3'],3,119,[0.07746905],88,44,hard,minus,dotcolour,alfa,,,83,18,V,R,
66,66,24,1,0,53,27,250,['n'],0,left,['9'],5,209,[-0.03156503],65,53,easy,minus,dotcolour,alfa,,,83,18,V,R,
67,67,25,1,0,47,33,317,['n'],0,left,['2'],2,269,[-0.13318914],91,47,medium,minus,dotcolour,alfa,,,83,18,V,R,
68,68,26,1,0,53,27,381,['n'],0,left,['0'],6,260,[-0.09614819],85,53,easy,minus,dotcolour,alfa,,,83,18,V,R,
69,69,27,1,0,44,36,315,['n'],0,left,['8'],4,206,[-0.04000279],69,44,hard,minus,dotcolour,alfa,,,83,18,V,R,
70,70,28,1,0,33,47,281,['n'],1,right,['2'],2,164,[-0.12682921],94,47,medium,minus,dotcolour,alfa,,,83,18,V,R,
71,71,29,1,0,36,44,265,['n'],1,right,['1'],1,92,[-0.08838781],93,44,hard,minus,dotcolour,alfa,,,83,18,V,R,
72,72,30,1,0,44,36,265,['c'],1,left,['3'],3,182,[0.13892938],95,44,hard,minus,dotcolour,alfa,,,83,18,V,R,
73,73,31,1,0,53,27,72,['c'],1,left,['2'],2,48,[0.05457934],90,53,easy,minus,dotcolour,alfa,,,83,18,V,R,
74,74,32,1,0,53,27,248,['n'],0,left,['3'],3,94,[-0.03692242],75,53,easy,minus,dotcolour,alfa,,,83,18,V,R,
75,75,33,1,0,47,33,714,['c'],1,left,['1'],1,494,[0.14704523],87,47,medium,minus,dotcolour,alfa,,,83,18,V,R,
76,76,34,1,0,27,53,2251,['n'],1,right,['9'],5,282,[-0.11759494],88,53,easy,minus,dotcolour,alfa,,,83,18,V,R,
77,77,35,1,0,33,47,566,['c'],0,right,['3'],3,161,[0.06462957],81,47,medium,minus,dotcolour,alfa,,,83,18,V,R,
78,78,36,1,0,27,53,315,['n'],1,right,['8'],4,111,[-0.0749148],88,53,easy,minus,dotcolour,alfa,,,83,18,V,R,
79,79,37,1,0,47,33,266,['c'],1,left,['2'],2,265,[0.10544618],86,47,medium,minus,dotcolour,alfa,,,83,18,V,R,
80,80,38,1,0,53,27,382,['n'],0,left,['9'],5,152,[-0.04120556],72,53,easy,minus,dotcolour,alfa,,,83,18,V,R,
81,81,39,1,0,36,44,331,['c'],0,right,['0'],6,150,[0.06711559],83,44,hard,minus,dotcolour,alfa,,,83,18,V,R,
82,82,40,1,0,33,47,431,['n'],1,right,['3'],3,96,[-0.10198661],95,47,medium,minus,dotcolour,alfa,,,83,18,V,R,
83,83,41,1,0,47,33,265,['n'],0,left,['2'],2,171,[0.00141913],49,47,medium,minus,dotcolour,alfa,,,83,18,V,R,
84,84,0,2,0,47,33,1849,['n'],0,left,['2'],2,220,[-0.10481846],88,47,medium,minus,dotcolour,alfa,,,83,18,V,R,
85,85,1,2,0,44,36,348,['n'],0,left,['1'],1,69,[-0.07315023],92,44,hard,minus,dotcolour,alfa,,,83,18,V,R,
86,86,2,2,0,53,27,280,['n'],0,left,['3'],3,122,[-0.02204729],64,53,easy,minus,dotcolour,alfa,,,83,18,V,R,
87,87,3,2,0,53,27,248,['c'],1,left,['2'],2,299,[0.11289683],87,53,easy,minus,dotcolour,alfa,,,83,18,V,R,
88,88,4,2,0,44,36,297,['c'],1,left,['9'],5,165,[0.11237741],92,44,hard,minus,dotcolour,alfa,,,83,18,V,R,
89,89,5,2,0,33,47,364,['n'],1,right,['2'],2,169,[-0.01654529],59,47,medium,minus,dotcolour,alfa,,,83,18,V,R,
90,90,6,2,0,33,47,315,['c'],0,right,['0'],6,111,[0.12838867],97,47,medium,minus,dotcolour,alfa,,,83,18,V,R,
91,91,7,2,0,47,33,332,['n'],0,left,['3'],3,102,[-0.02691126],68,47,medium,minus,dotcolour,alfa,,,83,18,V,R,
92,92,8,2,0,47,33,121,['c'],1,left,['2'],2,179,[0.08354652],86,47,medium,minus,dotcolour,alfa,,,83,18,V,R,
93,93,9,2,0,44,36,2449,['n'],0,left,['1'],1,187,[-0.06829592],81,44,hard,minus,dotcolour,alfa,,,83,18,V,R,
94,94,10,2,0,27,53,231,['n'],1,right,['3'],3,99,[-0.04961515],81,53,easy,minus,dotcolour,alfa,,,83,18,V,R,
95,95,11,2,0,36,44,177,['n'],1,right,['2'],2,40,[-0.07813465],97,44,hard,minus,dotcolour,alfa,,,83,18,V,R,
96,96,12,2,0,33,47,168,['c'],0,right,['3'],3,240,[0.0210707],60,47,medium,minus,dotcolour,alfa,,,83,18,V,R,
97,97,13,2,0,27,53,31,['c'],0,right,['9'],5,336,[0.03607542],64,53,easy,minus,dotcolour,alfa,,,83,18,V,R,
98,98,14,2,0,33,47,132,['c'],0,right,['1'],1,132,[0.13368394],96,47,medium,minus,dotcolour,alfa,,,83,18,V,R,
99,99,15,2,0,53,27,316,['c'],1,left,['1'],1,116,[0.06654606],85,53,easy,minus,dotcolour,alfa,,,83,18,V,R,
100,100,16,2,0,36,44,349,['n'],1,right,['3'],3,42,[-0.08221898],97,44,hard,minus,dotcolour,alfa,,,83,18,V,R,
101,101,17,2,0,27,53,982,['n'],1,right,['2'],2,170,[-0.12212309],93,53,easy,minus,dotcolour,alfa,,,83,18,V,R,
102,102,18,2,0,27,53,365,['c'],0,right,['1'],1,198,[0.0359782],67,53,easy,minus,dotcolour,alfa,,,83,18,V,R,
103,103,19,2,0,33,47,381,['n'],1,right,['0'],6,224,[-0.0338256],66,47,medium,minus,dotcolour,alfa,,,83,18,V,R,
104,104,20,2,0,47,33,382,['n'],0,left,['8'],4,192,[-0.06401986],79,47,medium,minus,dotcolour,alfa,,,83,18,V,R,
105,105,21,2,0,44,36,347,['c'],1,left,['3'],3,124,[0.13694193],97,44,hard,minus,dotcolour,alfa,,,83,18,V,R,
106,106,22,2,0,36,44,216,['n'],1,right,['9'],5,224,[-0.03364544],65,44,hard,minus,dotcolour,alfa,,,83,18,V,R,
107,107,23,2,0,36,44,231,['c'],0,right,['1'],1,158,[0.02389884],63,44,hard,minus,dotcolour,alfa,,,83,18,V,R,
108,108,24,2,0,47,33,316,['n'],0,left,['9'],5,181,[-0.04052178],70,47,medium,minus,dotcolour,alfa,,,83,18,V,R,
109,109,25,2,0,53,27,214,['c'],1,left,['3'],3,134,[0.08353542],89,53,easy,minus,dotcolour,alfa,,,83,18,V,R,
110,110,26,2,0,44,36,648,['n'],0,left,['3'],3,136,[-0.09005961],90,44,hard,minus,dotcolour,alfa,,,83,18,V,R,
111,111,27,2,0,36,44,515,['n'],1,right,['1'],1,71,[-0.0796148],94,44,hard,minus,dotcolour,alfa,,,83,18,V,R,
112,112,28,2,0,53,27,348,['c'],1,left,['9'],5,207,[0.06957783],80,53,easy,minus,dotcolour,alfa,,,83,18,V,R,
113,113,29,2,0,27,53,465,['n'],1,right,['2'],2,93,[-0.04115872],77,53,easy,minus,dotcolour,alfa,,,83,18,V,R,
114,114,30,2,0,27,53,516,['n'],1,right,['1'],1,78,[-0.09418921],95,53,easy,minus,dotcolour,alfa,,,83,18,V,R,
115,115,31,2,0,53,27,532,['n'],0,left,['0'],6,166,[-0.00895291],55,53,easy,minus,dotcolour,alfa,,,83,18,V,R,
116,116,32,2,0,27,53,582,['n'],1,right,['1'],1,66,[-0.02301994],69,53,easy,minus,dotcolour,alfa,,,83,18,V,R,
117,117,33,2,0,47,33,831,['c'],1,left,['2'],2,215,[0.21421883],98,47,medium,minus,dotcolour,alfa,,,83,18,V,R,
118,118,34,2,0,33,47,264,['n'],1,right,['2'],2,389,[-0.25476091],98,47,medium,minus,dotcolour,alfa,,,83,18,V,R,
119,119,35,2,0,36,44,283,['n'],1,right,['1'],1,179,[-0.12354491],93,44,hard,minus,dotcolour,alfa,,,83,18,V,R,
120,120,36,2,0,36,44,297,['c'],0,right,['3'],3,153,[0.11292985],93,44,hard,minus,dotcolour,alfa,,,83,18,V,R,
121,121,37,2,0,44,36,313,['n'],0,left,['3'],3,208,[-0.04056525],69,44,hard,minus,dotcolour,alfa,,,83,18,V,R,
122,122,38,2,0,44,36,332,['n'],0,left,['3'],3,267,[0.00268398],49,44,hard,minus,dotcolour,alfa,,,83,18,V,R,
123,123,39,2,0,33,47,1247,['c'],0,right,['2'],2,256,[0.00625717],53,47,medium,minus,dotcolour,alfa,,,83,18,V,R,
124,124,40,2,0,53,27,282,['n'],0,left,['0'],6,348,[-0.0821734],78,53,easy,minus,dotcolour,alfa,,,83,18,V,R,
125,125,41,2,0,47,33,266,['c'],1,left,['3'],3,172,[0.10660938],91,47,medium,minus,dotcolour,alfa,,,83,18,V,R,
126,0,0,3,1,44,36,1467,['n'],0,left,['2'],2,397,[-0.1948201],100,44,hard,plus,dotcolour,alfa,,,83,18,V,R,
127,1,1,3,1,44,36,614,['c'],1,left,['1'],1,102,[0.06003459],100,44,hard,plus,dotcolour,alfa,,,83,18,V,R,
128,2,2,3,1,44,36,398,['n'],0,left,['3'],3,155,[-0.06394187],100,44,hard,plus,dotcolour,alfa,,,83,18,V,R,
129,3,3,3,1,27,53,314,['n'],1,right,['0'],6,161,[-0.05959174],100,53,easy,plus,dotcolour,alfa,,,83,18,V,R,
130,4,4,3,1,36,44,432,['c'],0,right,['3'],3,91,[0.08965287],100,44,hard,plus,dotcolour,alfa,,,83,18,V,R,
131,5,5,3,1,44,36,583,['n'],0,left,['8'],4,137,[-0.00140694],53,44,hard,plus,dotcolour,alfa,,,83,18,V,R,
132,6,6,3,1,44,36,69,['c'],1,left,['2'],2,92,[0.11581204],100,44,hard,plus,dotcolour,alfa,,,83,18,V,R,
133,7,7,3,1,27,53,564,['c'],0,right,['9'],5,139,[0.06859411],100,53,easy,plus,dotcolour,alfa,,,83,18,V,R,
134,8,8,3,1,27,53,265,['n'],1,right,['2'],2,61,[-0.04781868],100,53,easy,plus,dotcolour,alfa,,,83,18,V,R,
135,9,9,3,1,27,53,247,['c'],0,right,['1'],1,73,[0.07306907],100,53,easy,plus,dotcolour,alfa,,,83,18,V,R,
136,10,10,3,1,53,27,169,['c'],1,left,['3'],3,64,[0.07011814],100,53,easy,plus,dotcolour,alfa,,,83,18,V,R,
137,11,11,3,1,47,33,415,['n'],0,left,['9'],5,102,[-0.00452305],62,47,medium,plus,dotcolour,alfa,,,83,18,V,R,
138,12,12,3,1,47,33,265,['n'],0,left,['3'],3,89,[-0.08002739],100,47,medium,plus,dotcolour,alfa,,,83,18,V,R,
139,13,13,3,1,36,44,299,['n'],1,right,['2'],2,250,[-0.02694486],87,44,hard,plus,dotcolour,alfa,,,83,18,V,R,
140,14,14,3,1,27,53,186,['n'],1,right,['2'],2,90,[-0.0589158],100,53,easy,plus,dotcolour,alfa,,,83,18,V,R,
141,15,15,3,1,36,44,548,['c'],0,right,['2'],2,145,[0.05208712],99,44,hard,plus,dotcolour,alfa,,,83,18,V,R,
142,16,16,3,1,33,47,28,['c'],0,right,['9'],5,13,[0.08128456],100,47,medium,plus,dotcolour,alfa,,,83,18,V,R,
143,17,17,3,1,47,33,216,['n'],0,left,['2'],2,53,[-0.07779235],100,47,medium,plus,dotcolour,alfa,,,83,18,V,R,
144,18,18,3,1,27,53,163,['n'],1,right,['2'],2,28,[-0.09501019],100,53,easy,plus,dotcolour,alfa,,,83,18,V,R,
145,19,19,3,1,33,47,1899,['n'],1,right,['1'],1,184,[-0.09201888],100,47,medium,plus,dotcolour,alfa,,,83,18,V,R,
146,20,20,3,1,53,27,81,['n'],0,left,['1'],1,2657,[0.20774506],1,53,easy,plus,dotcolour,alfa,,,83,18,V,R,
147,21,21,3,1,47,33,231,['c'],1,left,['9'],5,182,[0.11632786],100,47,medium,plus,dotcolour,alfa,,,83,18,V,R,
148,22,22,3,1,33,47,564,['c'],0,right,['1'],1,361,[0.07742967],99,47,medium,plus,dotcolour,alfa,,,83,18,V,R,
149,23,23,3,1,33,47,2265,['c'],0,right,['3'],3,441,[-0.01705586],28,47,medium,plus,dotcolour,alfa,,,83,18,V,R,
150,24,24,3,1,36,44,248,['c'],0,right,['2'],2,375,[-0.05250211],4,44,hard,plus,dotcolour,alfa,,,83,18,V,R,
151,25,25,3,1,47,33,366,['c'],1,left,['1'],1,322,[0.15261486],100,47,medium,plus,dotcolour,alfa,,,83,18,V,R,
152,26,26,3,1,33,47,399,['n'],1,right,['2'],2,335,[-0.11821021],100,47,medium,plus,dotcolour,alfa,,,83,18,V,R,
153,27,27,3,1,53,27,282,['c'],1,left,['8'],4,350,[0.13142333],100,53,easy,plus,dotcolour,alfa,,,83,18,V,R,
154,28,28,3,1,33,47,281,['c'],0,right,['3'],3,310,[0.02799469],86,47,medium,plus,dotcolour,alfa,,,83,18,V,R,
155,29,29,3,1,53,27,315,['c'],1,left,['1'],1,310,[0.02411247],83,53,easy,plus,dotcolour,alfa,,,83,18,V,R,
156,30,30,3,1,47,33,215,['c'],1,left,['2'],2,386,[0.01675297],73,47,medium,plus,dotcolour,alfa,,,83,18,V,R,
157,31,31,3,1,36,44,449,['n'],1,right,['2'],2,530,[-0.13101122],100,44,hard,plus,dotcolour,alfa,,,83,18,V,R,
158,32,32,3,1,44,36,965,['n'],0,left,['1'],1,479,[-0.07808585],98,44,hard,plus,dotcolour,alfa,,,83,18,V,R,
159,33,33,3,1,44,36,764,['n'],0,left,['2'],2,471,[-0.01959509],74,44,hard,plus,dotcolour,alfa,,,83,18,V,R,
160,34,34,3,1,36,44,1515,['n'],1,right,['2'],2,256,[-0.05346477],98,44,hard,plus,dotcolour,alfa,,,83,18,V,R,
161,35,35,3,1,47,33,348,['c'],1,left,['2'],2,473,[0.05110487],94,47,medium,plus,dotcolour,alfa,,,83,18,V,R,
162,36,36,3,1,53,27,213,['n'],0,left,['1'],1,382,[0.07568244],1,53,easy,plus,dotcolour,alfa,,,83,18,V,R,
163,37,37,3,1,33,47,282,['n'],1,right,['3'],3,333,[-0.05671733],97,47,medium,plus,dotcolour,alfa,,,83,18,V,R,
164,38,38,3,1,53,27,232,['c'],1,left,['3'],3,360,[0.17273649],100,53,easy,plus,dotcolour,alfa,,,83,18,V,R,
165,39,39,3,1,36,44,216,['n'],1,right,['9'],5,378,[-0.07445411],99,44,hard,plus,dotcolour,alfa,,,83,18,V,R,
166,40,40,3,1,53,27,265,['c'],1,left,['1'],1,337,[0.02867016],86,53,easy,plus,dotcolour,alfa,,,83,18,V,R,
167,41,41,3,1,27,53,298,['n'],1,right,['3'],3,321,[-0.14056715],100,53,easy,plus,dotcolour,alfa,,,83,18,V,R,
168,42,0,4,1,44,36,883,['c'],1,left,"['8', '3']",4,295,[0.05913635],98,44,hard,plus,dotcolour,alfa,,,83,18,V,R,
169,43,1,4,1,47,33,316,['c'],1,left,['9'],5,304,[0.08706132],100,47,medium,plus,dotcolour,alfa,,,83,18,V,R,
170,44,2,4,1,53,27,198,['c'],1,left,"['0', '1']",6,333,[0.11500808],100,53,easy,plus,dotcolour,alfa,,,83,18,V,R,
171,45,3,4,1,44,36,194,['c'],1,left,['9'],5,361,[0.12324183],100,44,hard,plus,dotcolour,alfa,,,83,18,V,R,
172,46,4,4,1,44,36,282,['n'],0,left,['3'],3,344,[-0.0896626],100,44,hard,plus,dotcolour,alfa,,,83,18,V,R,
173,47,5,4,1,27,53,283,['c'],0,right,['2'],2,384,[0.03359818],88,53,easy,plus,dotcolour,alfa,,,83,18,V,R,
174,48,6,4,1,47,33,649,['n'],0,left,['3'],3,320,[-0.0696414],99,47,medium,plus,dotcolour,alfa,,,83,18,V,R,
175,49,7,4,1,33,47,266,['n'],1,right,['3'],3,355,[-0.13226507],100,47,medium,plus,dotcolour,alfa,,,83,18,V,R,
176,50,8,4,1,33,47,232,['c'],0,right,['1'],1,396,[0.03511111],88,47,medium,plus,dotcolour,alfa,,,83,18,V,R,
177,51,9,4,1,36,44,214,['c'],0,right,['0'],6,348,[-0.00470972],43,44,hard,plus,dotcolour,alfa,,,83,18,V,R,
178,52,10,4,1,27,53,176,['n'],1,right,['9'],5,344,[-0.19221587],100,53,easy,plus,dotcolour,alfa,,,83,18,V,R,
179,53,11,4,1,53,27,74,['n'],0,left,['1'],1,347,[0.03980417],8,53,easy,plus,dotcolour,alfa,,,83,18,V,R,
180,54,12,4,1,27,53,217,['c'],0,right,['1'],1,358,[0.06842747],98,53,easy,plus,dotcolour,alfa,,,83,18,V,R,
181,55,13,4,1,27,53,152,['c'],0,right,['2'],2,424,[-0.03321818],14,53,easy,plus,dotcolour,alfa,,,83,18,V,R,
182,56,14,4,1,27,53,65,['n'],1,right,['3'],3,240,[-0.14412669],100,53,easy,plus,dotcolour,alfa,,,83,18,V,R,
183,57,15,4,1,36,44,184,['c'],0,right,['0'],6,376,[0.07031789],98,44,hard,plus,dotcolour,alfa,,,83,18,V,R,
184,58,16,4,1,33,47,265,['n'],1,right,['9'],5,359,[-0.11701021],100,47,medium,plus,dotcolour,alfa,,,83,18,V,R,
185,59,17,4,1,33,47,162,['n'],1,right,['9'],5,362,[-0.13266364],100,47,medium,plus,dotcolour,alfa,,,83,18,V,R,
186,60,18,4,1,47,33,215,['n'],0,left,['9'],5,315,[-0.02430748],83,47,medium,plus,dotcolour,alfa,,,83,18,V,R,
187,61,19,4,1,47,33,266,['n'],0,left,"['9', '2']",5,334,[-0.06467793],98,47,medium,plus,dotcolour,alfa,,,83,18,V,R,
188,62,20,4,1,27,53,250,['n'],1,right,['2'],2,415,[-0.11021168],100,53,easy,plus,dotcolour,alfa,,,83,18,V,R,
189,63,21,4,1,33,47,71,['n'],1,right,['8'],4,264,[-0.02877782],88,47,medium,plus,dotcolour,alfa,,,83,18,V,R,
190,64,22,4,1,53,27,191,['n'],0,left,['1'],1,383,[-0.09267325],100,53,easy,plus,dotcolour,alfa,,,83,18,V,R,
191,65,23,4,1,53,27,120,['c'],1,left,['1'],1,281,[0.10768672],100,53,easy,plus,dotcolour,alfa,,,83,18,V,R,
192,66,24,4,1,36,44,150,['n'],1,right,['1'],1,319,[-0.14134222],100,44,hard,plus,dotcolour,alfa,,,83,18,V,R,
193,67,25,4,1,53,27,196,['c'],1,left,['1'],1,491,[0.12897686],100,53,easy,plus,dotcolour,alfa,,,83,18,V,R,
194,68,26,4,1,36,44,49,['c'],0,right,['3'],3,248,[0.16510674],100,44,hard,plus,dotcolour,alfa,,,83,18,V,R,
195,69,27,4,1,44,36,79,['c'],1,left,['2'],2,304,[0.16471477],100,44,hard,plus,dotcolour,alfa,,,83,18,V,R,
196,70,28,4,1,36,44,332,['n'],1,right,['9'],5,360,[-0.06929061],98,44,hard,plus,dotcolour,alfa,,,83,18,V,R,
197,71,29,4,1,36,44,248,['c'],0,right,['3'],3,377,[0.04416285],93,44,hard,plus,dotcolour,alfa,,,83,18,V,R,
198,72,30,4,1,36,44,162,['n'],1,right,['3'],3,331,[-0.01711411],74,44,hard,plus,dotcolour,alfa,,,83,18,V,R,
199,73,31,4,1,47,33,143,['c'],1,left,['0'],6,295,[0.05580605],98,47,medium,plus,dotcolour,alfa,,,83,18,V,R,
200,74,32,4,1,44,36,138,['n'],0,left,['1'],1,276,[-0.06275579],99,44,hard,plus,dotcolour,alfa,,,83,18,V,R,
201,75,33,4,1,33,47,214,['c'],0,right,['9'],5,321,[-0.03427436],10,47,medium,plus,dotcolour,alfa,,,83,18,V,R,
202,76,34,4,1,47,33,263,['n'],0,left,['1'],1,291,[-0.05686285],98,47,medium,plus,dotcolour,alfa,,,83,18,V,R,
203,77,35,4,1,33,47,265,['n'],1,right,['1'],1,350,[-0.00100451],52,47,medium,plus,dotcolour,alfa,,,83,18,V,R,
204,78,36,4,1,53,27,215,['n'],0,left,"['8', '3']",4,208,[-0.0073153],64,53,easy,plus,dotcolour,alfa,,,83,18,V,R,
205,79,37,4,1,53,27,315,['c'],1,left,['0'],6,404,[-0.00453564],44,53,easy,plus,dotcolour,alfa,,,83,18,V,R,
206,80,38,4,1,47,33,188,['c'],1,left,['3'],3,325,[0.10196068],100,47,medium,plus,dotcolour,alfa,,,83,18,V,R,
207,81,39,4,1,44,36,316,['n'],0,left,"['9', '2']",5,340,[-0.0528182],96,44,hard,plus,dotcolour,alfa,,,83,18,V,R,
208,82,40,4,1,44,36,250,['n'],0,left,['3'],3,325,[-0.03769221],92,44,hard,plus,dotcolour,alfa,,,83,18,V,R,
209,83,41,4,1,27,53,249,['n'],1,right,"['9', '2']",5,303,[-0.0900786],100,53,easy,plus,dotcolour,alfa,,,83,18,V,R,
210,84,0,5,1,47,33,634,['n'],0,left,['8'],4,345,[-0.05945025],97,47,medium,plus,dotcolour,alfa,,,83,18,V,R,
211,85,1,5,1,36,44,217,['n'],1,right,['2'],2,259,[-0.09966231],100,44,hard,plus,dotcolour,alfa,,,83,18,V,R,
212,86,2,5,1,36,44,265,['n'],1,right,['9'],5,287,[-0.10914225],100,44,hard,plus,dotcolour,alfa,,,83,18,V,R,
213,87,3,5,1,27,53,329,['c'],0,right,['1'],1,256,[0.07765609],100,53,easy,plus,dotcolour,alfa,,,83,18,V,R,
214,88,4,5,1,36,44,191,['n'],1,right,['3'],3,271,[-0.07178648],99,44,hard,plus,dotcolour,alfa,,,83,18,V,R,
215,89,5,5,1,33,47,265,['n'],1,right,['2'],2,379,[-0.15620832],100,47,medium,plus,dotcolour,alfa,,,83,18,V,R,
216,90,6,5,1,36,44,315,['n'],1,right,['1'],1,440,[-0.08495546],99,44,hard,plus,dotcolour,alfa,,,83,18,V,R,
217,91,7,5,1,53,27,231,['c'],1,left,['3'],3,358,[0.04297945],93,53,easy,plus,dotcolour,alfa,,,83,18,V,R,
218,92,8,5,1,33,47,249,['c'],0,right,['1'],1,311,[0.07418392],99,47,medium,plus,dotcolour,alfa,,,83,18,V,R,
219,93,9,5,1,33,47,348,['n'],1,right,['9'],5,334,[-0.18225431],100,47,medium,plus,dotcolour,alfa,,,83,18,V,R,
220,94,10,5,1,36,44,249,['c'],0,right,['1'],1,319,[0.01430539],71,44,hard,plus,dotcolour,alfa,,,83,18,V,R,
221,95,11,5,1,44,36,363,['n'],0,left,['3'],3,348,[-0.02513582],82,44,hard,plus,dotcolour,alfa,,,83,18,V,R,
222,96,12,5,1,27,53,249,['n'],1,right,['1'],1,254,[-0.0947668],100,53,easy,plus,dotcolour,alfa,,,83,18,V,R,
223,97,13,5,1,36,44,233,['n'],1,right,['2'],2,275,[-0.11709666],100,44,hard,plus,dotcolour,alfa,,,83,18,V,R,
224,98,14,5,1,33,47,249,['c'],0,right,['8'],4,279,[0.02369215],83,47,medium,plus,dotcolour,alfa,,,83,18,V,R,
225,99,15,5,1,44,36,279,['c'],1,left,['1'],1,226,[0.05609078],99,44,hard,plus,dotcolour,alfa,,,83,18,V,R,
226,100,16,5,1,47,33,263,['n'],0,left,['3'],3,583,[-0.10292712],99,47,medium,plus,dotcolour,alfa,,,83,18,V,R,
227,101,17,5,1,27,53,232,['n'],1,right,['1'],1,336,[-0.10598289],100,53,easy,plus,dotcolour,alfa,,,83,18,V,R,
228,102,18,5,1,53,27,75,['c'],1,left,['1'],1,235,[0.05680549],99,53,easy,plus,dotcolour,alfa,,,83,18,V,R,
229,103,19,5,1,27,53,140,['n'],1,right,['1'],1,412,[-0.21979452],100,53,easy,plus,dotcolour,alfa,,,83,18,V,R,
230,104,20,5,1,47,33,189,['n'],0,left,['1'],1,348,[0.04293117],7,47,medium,plus,dotcolour,alfa,,,83,18,V,R,
231,105,21,5,1,47,33,129,['n'],0,left,['0'],6,320,[-0.0665035],99,47,medium,plus,dotcolour,alfa,,,83,18,V,R,
232,106,22,5,1,44,36,195,['c'],1,left,['1'],1,380,[0.07917637],99,44,hard,plus,dotcolour,alfa,,,83,18,V,R,
233,107,23,5,1,33,47,231,['n'],1,right,['0'],6,325,[-0.17401935],100,47,medium,plus,dotcolour,alfa,,,83,18,V,R,
234,108,24,5,1,53,27,266,['n'],0,left,['1'],1,390,[0.11940999],0,53,easy,plus,dotcolour,alfa,,,83,18,V,R,
235,109,25,5,1,47,33,89,['n'],0,left,['2'],2,471,[-0.05326599],94,47,medium,plus,dotcolour,alfa,,,83,18,V,R,
236,110,26,5,1,53,27,61,['c'],1,left,"['8', '3']",4,214,[0.06772778],99,53,easy,plus,dotcolour,alfa,,,83,18,V,R,
237,111,27,5,1,36,44,102,['n'],1,right,['9'],5,254,[-0.1019467],100,44,hard,plus,dotcolour,alfa,,,83,18,V,R,
238,112,28,5,1,47,33,141,['c'],1,left,['1'],1,277,[0.07458852],99,47,medium,plus,dotcolour,alfa,,,83,18,V,R,
239,113,29,5,1,44,36,19,['n'],0,left,['8'],4,236,[-0.07639753],100,44,hard,plus,dotcolour,alfa,,,83,18,V,R,
240,114,30,5,1,33,47,298,['c'],0,right,['1'],1,263,[0.06342192],99,47,medium,plus,dotcolour,alfa,,,83,18,V,R,
241,115,31,5,1,53,27,299,['c'],1,left,['8'],4,250,[0.04291504],96,53,easy,plus,dotcolour,alfa,,,83,18,V,R,
242,116,32,5,1,53,27,267,['n'],0,left,['2'],2,391,[-0.01810172],74,53,easy,plus,dotcolour,alfa,,,83,18,V,R,
243,117,33,5,1,27,53,1214,['n'],1,right,['1'],1,224,[-0.07359814],100,53,easy,plus,dotcolour,alfa,,,83,18,V,R,
244,118,34,5,1,33,47,283,['c'],0,right,['3'],3,292,[0.04763954],96,47,medium,plus,dotcolour,alfa,,,83,18,V,R,
245,119,35,5,1,44,36,193,['c'],1,left,['0'],6,306,[0.07995],99,44,hard,plus,dotcolour,alfa,,,83,18,V,R,
246,120,36,5,1,44,36,100,['n'],0,left,['1'],1,278,[-0.15595905],100,44,hard,plus,dotcolour,alfa,,,83,18,V,R,
247,121,37,5,1,47,33,155,['c'],1,left,['1'],1,292,[0.09151014],100,47,medium,plus,dotcolour,alfa,,,83,18,V,R,
248,122,38,5,1,27,53,200,['c'],0,right,['0'],6,273,[0.03243529],90,53,easy,plus,dotcolour,alfa,,,83,18,V,R,
249,123,39,5,1,44,36,182,['n'],0,left,['1'],1,231,[-0.07146365],100,44,hard,plus,dotcolour,alfa,,,83,18,V,R,
250,124,40,5,1,27,53,282,['n'],1,right,['3'],3,228,[-0.18806251],100,53,easy,plus,dotcolour,alfa,,,83,18,V,R,
251,125,41,5,1,53,27,231,['c'],1,left,['2'],2,195,[0.14875795],100,53,easy,plus,dotcolour,alfa,,,83,18,V,R,
252,0,0,6,2,36,44,417,['c'],0,right,['0'],6,233,[-0.04129359],32,44,hard,minus,dotcolour,alfa,,,83,18,V,R,
253,1,1,6,2,47,33,232,['c'],1,left,['8'],4,232,[0.12333033],91,47,medium,minus,dotcolour,alfa,,,83,18,V,R,
254,2,2,6,2,47,33,192,['c'],1,left,['2'],2,143,[0.01752116],60,47,medium,minus,dotcolour,alfa,,,83,18,V,R,
255,3,3,6,2,27,53,171,['n'],1,right,['1'],1,228,[-0.08462604],83,53,easy,minus,dotcolour,alfa,,,83,18,V,R,
256,4,4,6,2,33,47,315,['n'],1,right,['8'],4,311,[-0.07870962],78,47,medium,minus,dotcolour,alfa,,,83,18,V,R,
257,5,5,6,2,27,53,314,['c'],0,right,['2'],2,303,[0.04777558],69,53,easy,minus,dotcolour,alfa,,,83,18,V,R,
258,6,6,6,2,27,53,417,['n'],1,right,['1'],1,362,[-0.00094345],50,53,easy,minus,dotcolour,alfa,,,83,18,V,R,
259,7,7,6,2,53,27,499,['c'],1,left,['8'],4,361,[0.04691088],67,53,easy,minus,dotcolour,alfa,,,83,18,V,R,
260,8,8,6,2,44,36,615,['c'],1,left,['0'],6,491,[0.08017081],74,44,hard,minus,dotcolour,alfa,,,83,18,V,R,
261,9,9,6,2,36,44,447,['n'],1,right,['2'],2,606,[-0.26151769],95,44,hard,minus,dotcolour,alfa,,,83,18,V,R,
262,10,10,6,2,44,36,282,['n'],0,left,['0'],6,356,[-0.01490748],56,44,hard,minus,dotcolour,alfa,,,83,18,V,R,
263,11,11,6,2,44,36,349,['n'],0,left,['3'],3,416,[-0.07789087],75,44,hard,minus,dotcolour,alfa,,,83,18,V,R,
264,12,12,6,2,36,44,332,['c'],0,right,['0'],6,283,[0.02124673],59,44,hard,minus,dotcolour,alfa,,,83,18,V,R,
265,13,13,6,2,33,47,448,['n'],1,right,['1'],1,287,[-0.13278764],90,47,medium,minus,dotcolour,alfa,,,83,18,V,R,
266,14,14,6,2,47,33,315,['n'],0,left,['0'],6,296,[-0.08468724],80,47,medium,minus,dotcolour,alfa,,,83,18,V,R,
267,15,15,6,2,53,27,315,['n'],0,left,['1'],1,305,[-0.01633816],57,53,easy,minus,dotcolour,alfa,,,83,18,V,R,
268,16,16,6,2,53,27,248,['n'],0,left,['8'],4,276,[-0.06661352],76,53,easy,minus,dotcolour,alfa,,,83,18,V,R,
269,17,17,6,2,36,44,565,['n'],1,right,['0'],6,748,[-0.04518749],62,44,hard,minus,dotcolour,alfa,,,83,18,V,R,
270,18,18,6,2,27,53,400,['c'],0,right,['3'],3,311,[0.04699656],68,53,easy,minus,dotcolour,alfa,,,83,18,V,R,
271,19,19,6,2,53,27,317,['c'],1,left,['9'],5,407,[0.10862408],82,53,easy,minus,dotcolour,alfa,,,83,18,V,R,
272,20,20,6,2,44,36,332,['c'],1,left,['3'],3,506,[0.19205523],92,44,hard,minus,dotcolour,alfa,,,83,18,V,R,
273,21,21,6,2,47,33,581,['n'],0,left,['9'],5,327,[0.02403801],41,47,medium,minus,dotcolour,alfa,,,83,18,V,R,
274,22,22,6,2,36,44,247,['n'],1,right,['1'],1,297,[0.0712143],24,44,hard,minus,dotcolour,alfa,,,83,18,V,R,
275,23,23,6,2,47,33,582,['c'],1,left,['3'],3,464,[0.06973387],72,47,medium,minus,dotcolour,alfa,,,83,18,V,R,
276,24,24,6,2,47,33,382,['c'],1,left,['0'],6,303,[0.04679403],68,47,medium,minus,dotcolour,alfa,,,83,18,V,R,
277,25,25,6,2,33,47,196,['n'],1,right,['8'],4,316,[-0.06877176],75,47,medium,minus,dotcolour,alfa,,,83,18,V,R,
278,26,26,6,2,36,44,215,['n'],1,right,['2'],2,280,[-0.05796118],73,44,hard,minus,dotcolour,alfa,,,83,18,V,R,
279,27,27,6,2,33,47,199,['c'],0,right,['9'],5,334,[0.0184102],57,47,medium,minus,dotcolour,alfa,,,83,18,V,R,
280,28,28,6,2,33,47,749,['c'],0,right,['9'],5,244,[0.03290435],65,47,medium,minus,dotcolour,alfa,,,83,18,V,R,
281,29,29,6,2,33,47,1731,['c'],0,right,['9'],5,318,[0.03814632],65,47,medium,minus,dotcolour,alfa,,,83,18,V,R,
282,30,30,6,2,44,36,698,['n'],0,left,['2'],2,231,[-0.04431679],70,44,hard,minus,dotcolour,alfa,,,83,18,V,R,
283,31,31,6,2,44,36,159,['c'],1,left,['1'],1,175,[0.0893204],87,44,hard,minus,dotcolour,alfa,,,83,18,V,R,
284,32,32,6,2,53,27,533,['n'],0,left,['1'],1,380,[0.05797446],30,53,easy,minus,dotcolour,alfa,,,83,18,V,R,
285,33,33,6,2,53,27,382,['n'],0,left,['1'],1,342,[-0.02895705],61,53,easy,minus,dotcolour,alfa,,,83,18,V,R,
286,34,34,6,2,33,47,434,['n'],1,right,['1'],1,376,[-0.06757533],73,47,medium,minus,dotcolour,alfa,,,83,18,V,R,
287,35,35,6,2,27,53,330,['n'],1,right,['0'],6,261,[0.03240882],36,53,easy,minus,dotcolour,alfa,,,83,18,V,R,
288,36,36,6,2,27,53,732,['n'],1,right,['8'],4,262,[-0.09253119],84,53,easy,minus,dotcolour,alfa,,,83,18,V,R,
289,37,37,6,2,27,53,250,['n'],1,right,"['8', '3']",4,395,[-0.10226808],81,53,easy,minus,dotcolour,alfa,,,83,18,V,R,
290,38,38,6,2,47,33,247,['n'],0,left,['1'],1,162,[-0.05174568],76,47,medium,minus,dotcolour,alfa,,,83,18,V,R,
291,39,39,6,2,53,27,330,['n'],0,left,['1'],1,184,[-0.0313781],66,53,easy,minus,dotcolour,alfa,,,83,18,V,R,
292,40,40,6,2,36,44,249,['n'],1,right,['9'],5,176,[-0.02702994],64,44,hard,minus,dotcolour,alfa,,,83,18,V,R,
293,41,41,6,2,44,36,266,['c'],1,left,['1'],1,183,[0.13247636],94,44,hard,minus,dotcolour,alfa,,,83,18,V,R,
294,42,0,7,2,53,27,250,['n'],0,left,['2'],2,155,[-0.04195979],72,53,easy,minus,dotcolour,alfa,,,83,18,V,R,
295,43,1,7,2,36,44,266,['c'],0,right,['8'],4,163,[0.02145858],62,44,hard,minus,dotcolour,alfa,,,83,18,V,R,
296,44,2,7,2,53,27,92,['c'],1,left,['9'],5,237,[0.07435981],80,53,easy,minus,dotcolour,alfa,,,83,18,V,R,
297,45,3,7,2,44,36,1666,['n'],0,left,['0'],6,243,[0.01113084],45,44,hard,minus,dotcolour,alfa,,,83,18,V,R,
298,46,4,7,2,53,27,482,['n'],0,left,['9'],5,271,[-0.00824647],54,53,easy,minus,dotcolour,alfa,,,83,18,V,R,
299,47,5,7,2,47,33,299,['n'],0,left,['2'],2,433,[0.04239075],36,47,medium,minus,dotcolour,alfa,,,83,18,V,R,
300,48,6,7,2,27,53,266,['n'],1,right,['1'],1,239,[-0.11193273],89,53,easy,minus,dotcolour,alfa,,,83,18,V,R,
301,49,7,7,2,47,33,314,['n'],0,left,['8'],4,225,[-0.06238098],77,47,medium,minus,dotcolour,alfa,,,83,18,V,R,
302,50,8,7,2,44,36,130,['n'],0,left,['2'],2,233,[-0.00495965],52,44,hard,minus,dotcolour,alfa,,,83,18,V,R,
303,51,9,7,2,33,47,145,['c'],0,right,['1'],1,153,[0.08043456],86,47,medium,minus,dotcolour,alfa,,,83,18,V,R,
304,52,10,7,2,44,36,483,['c'],1,left,['2'],2,265,[0.11881225],89,44,hard,minus,dotcolour,alfa,,,83,18,V,R,
305,53,11,7,2,47,33,551,['n'],0,left,['9'],5,330,[-0.03337793],63,47,medium,minus,dotcolour,alfa,,,83,18,V,R,
306,54,12,7,2,53,27,714,['n'],0,left,['1'],1,289,[-0.00200885],51,53,easy,minus,dotcolour,alfa,,,83,18,V,R,
307,55,13,7,2,33,47,717,['c'],0,right,['3'],3,251,[0.06599185],77,47,medium,minus,dotcolour,alfa,,,83,18,V,R,
308,56,14,7,2,27,53,467,['n'],1,right,['0'],6,239,[-0.0953829],85,53,easy,minus,dotcolour,alfa,,,83,18,V,R,
309,57,15,7,2,53,27,982,['c'],1,left,['8'],4,280,[0.08855665],82,53,easy,minus,dotcolour,alfa,,,83,18,V,R,
310,58,16,7,2,36,44,732,['n'],1,right,['0'],6,568,[-0.07956452],72,44,hard,minus,dotcolour,alfa,,,83,18,V,R,
311,59,17,7,2,27,53,332,['n'],1,right,['3'],3,206,[-0.13326127],93,53,easy,minus,dotcolour,alfa,,,83,18,V,R,
312,60,18,7,2,27,53,167,['c'],0,right,['3'],3,103,[0.02813821],69,53,easy,minus,dotcolour,alfa,,,83,18,V,R,
313,61,19,7,2,27,53,188,['n'],1,right,['2'],2,252,[-0.12669102],91,53,easy,minus,dotcolour,alfa,,,83,18,V,R,
314,62,20,7,2,33,47,249,['c'],0,right,['0'],6,178,[0.02836462],65,47,medium,minus,dotcolour,alfa,,,83,18,V,R,
315,63,21,7,2,27,53,232,['n'],1,right,['8'],4,154,[-0.0472855],75,53,easy,minus,dotcolour,alfa,,,83,18,V,R,
316,64,22,7,2,36,44,315,['c'],0,right,['0'],6,200,[0.03423632],67,44,hard,minus,dotcolour,alfa,,,83,18,V,R,
317,65,23,7,2,36,44,265,['c'],0,right,['8'],4,310,[0.02318845],59,44,hard,minus,dotcolour,alfa,,,83,18,V,R,
318,66,24,7,2,44,36,316,['c'],1,left,['9'],5,414,[0.13909915],87,44,hard,minus,dotcolour,alfa,,,83,18,V,R,
319,67,25,7,2,47,33,266,['c'],1,left,"['0', '1']",6,221,[0.1933076],98,47,medium,minus,dotcolour,alfa,,,83,18,V,R,
320,68,26,7,2,47,33,365,['c'],1,left,['3'],3,358,[0.08082912],77,47,medium,minus,dotcolour,alfa,,,83,18,V,R,
321,69,27,7,2,44,36,281,['n'],0,left,['2'],2,182,[-0.07643383],83,44,hard,minus,dotcolour,alfa,,,83,18,V,R,
322,70,28,7,2,47,33,316,['n'],0,left,['1'],1,259,[-0.03688778],66,47,medium,minus,dotcolour,alfa,,,83,18,V,R,
323,71,29,7,2,33,47,282,['n'],1,right,['8'],4,326,[-0.08465649],79,47,medium,minus,dotcolour,alfa,,,83,18,V,R,
324,72,30,7,2,36,44,514,['c'],0,right,['1'],1,494,[0.09761946],78,44,hard,minus,dotcolour,alfa,,,83,18,V,R,
325,73,31,7,2,44,36,249,['c'],1,left,['0'],6,169,[-0.03829793],30,44,hard,minus,dotcolour,alfa,,,83,18,V,R,
326,74,32,7,2,33,47,177,['c'],0,right,['2'],2,164,[0.07937638],85,47,medium,minus,dotcolour,alfa,,,83,18,V,R,
327,75,33,7,2,47,33,247,['c'],1,left,['8'],4,164,[0.08879238],88,47,medium,minus,dotcolour,alfa,,,83,18,V,R,
328,76,34,7,2,53,27,949,['n'],0,left,['8'],4,193,[-0.08693201],86,53,easy,minus,dotcolour,alfa,,,83,18,V,R,
329,77,35,7,2,36,44,1100,['c'],0,right,['0'],6,782,[0.04243306],61,44,hard,minus,dotcolour,alfa,,,83,18,V,R,
330,78,36,7,2,44,36,399,['n'],0,left,['8'],4,128,[-0.04711756],77,44,hard,minus,dotcolour,alfa,,,83,18,V,R,
331,79,37,7,2,36,44,482,['n'],1,right,['0'],6,473,[-0.10969289],81,44,hard,minus,dotcolour,alfa,,,83,18,V,R,
332,80,38,7,2,33,47,298,['n'],1,right,['8'],4,267,[-0.16167432],94,47,medium,minus,dotcolour,alfa,,,83,18,V,R,
333,81,39,7,2,27,53,233,['n'],1,right,['1'],1,184,[-0.09162934],87,53,easy,minus,dotcolour,alfa,,,83,18,V,R,
334,82,40,7,2,33,47,499,['n'],1,right,['1'],1,254,[-0.07659438],80,47,medium,minus,dotcolour,alfa,,,83,18,V,R,
335,83,41,7,2,53,27,1083,['c'],1,left,['3'],3,482,[0.19560732],93,53,easy,minus,dotcolour,alfa,,,83,18,V,R,
336,84,0,8,2,47,33,1300,['c'],1,left,['9'],5,308,[0.09742714],83,47,medium,minus,dotcolour,alfa,,,83,18,V,R,
337,85,1,8,2,27,53,965,['c'],0,right,['1'],1,234,[0.0538299],73,53,easy,minus,dotcolour,alfa,,,83,18,V,R,
338,86,2,8,2,47,33,266,['n'],0,left,['9'],5,623,[0.0654196],32,47,medium,minus,dotcolour,alfa,,,83,18,V,R,
339,87,3,8,2,53,27,1016,['c'],1,left,['1'],1,247,[0.13926178],93,53,easy,minus,dotcolour,alfa,,,83,18,V,R,
340,88,4,8,2,47,33,582,['c'],1,left,['3'],3,271,[0.11881209],89,47,medium,minus,dotcolour,alfa,,,83,18,V,R,
341,89,5,8,2,33,47,264,['n'],1,right,['1'],1,187,[-0.00544],53,47,medium,minus,dotcolour,alfa,,,83,18,V,R,
342,90,6,8,2,33,47,233,['c'],0,right,['3'],3,107,[0.0665916],86,47,medium,minus,dotcolour,alfa,,,83,18,V,R,
343,91,7,8,2,44,36,583,['n'],0,left,['0'],6,274,[0.00299931],49,44,hard,minus,dotcolour,alfa,,,83,18,V,R,
344,92,8,8,2,27,53,549,['c'],0,right,['1'],1,193,[-8.82594331e-05],50,53,easy,minus,dotcolour,alfa,,,83,18,V,R,
345,93,9,8,2,27,53,264,['n'],1,right,['3'],3,232,[-0.13181577],92,53,easy,minus,dotcolour,alfa,,,83,18,V,R,
346,94,10,8,2,44,36,615,['c'],1,left,['0'],6,159,[0.07036266],83,44,hard,minus,dotcolour,alfa,,,83,18,V,R,
347,95,11,8,2,53,27,366,['n'],0,left,"['9', '2']",5,339,[0.02023384],42,53,easy,minus,dotcolour,alfa,,,83,18,V,R,
348,96,12,8,2,44,36,232,['c'],1,left,['0'],6,286,[0.05546022],72,44,hard,minus,dotcolour,alfa,,,83,18,V,R,
349,97,13,8,2,47,33,266,['c'],1,left,['1'],1,200,[0.06811619],80,47,medium,minus,dotcolour,alfa,,,83,18,V,R,
350,98,14,8,2,36,44,298,['c'],0,right,['8'],4,189,[0.0635664],79,44,hard,minus,dotcolour,alfa,,,83,18,V,R,
351,99,15,8,2,33,47,231,['n'],1,right,['2'],2,86,[-0.12505992],98,47,medium,minus,dotcolour,alfa,,,83,18,V,R,
352,100,16,8,2,47,33,399,['c'],1,left,['1'],1,172,[0.06564803],81,47,medium,minus,dotcolour,alfa,,,83,18,V,R,
353,101,17,8,2,33,47,347,['c'],0,right,['0'],6,177,[0.04404669],72,47,medium,minus,dotcolour,alfa,,,83,18,V,R,
354,102,18,8,2,44,36,248,['c'],1,left,['8'],4,169,[0.0764602],84,44,hard,minus,dotcolour,alfa,,,83,18,V,R,
355,103,19,8,2,36,44,53,['c'],0,right,['9'],5,43,[0.05025512],90,44,hard,minus,dotcolour,alfa,,,83,18,V,R,
356,104,20,8,2,47,33,19,['n'],0,left,['9'],5,355,[-0.04057169],65,47,medium,minus,dotcolour,alfa,,,83,18,V,R,
357,105,21,8,2,27,53,534,['c'],0,right,['2'],2,401,[-0.08487723],23,53,easy,minus,dotcolour,alfa,,,83,18,V,R,
358,106,22,8,2,36,44,283,['n'],1,right,['0'],6,719,[-0.0874177],72,44,hard,minus,dotcolour,alfa,,,83,18,V,R,
359,107,23,8,2,33,47,315,['c'],0,right,['8'],4,326,[0.01348886],55,47,medium,minus,dotcolour,alfa,,,83,18,V,R,
360,108,24,8,2,27,53,332,['c'],0,right,['2'],2,685,[-1.80425462e-06],50,53,easy,minus,dotcolour,alfa,,,83,18,V,R,
361,109,25,8,2,36,44,267,['c'],0,right,['0'],6,288,[0.03346098],64,44,hard,minus,dotcolour,alfa,,,83,18,V,R,
362,110,26,8,2,33,47,383,['n'],1,right,['1'],1,342,[-0.01774507],57,47,medium,minus,dotcolour,alfa,,,83,18,V,R,
363,111,27,8,2,36,44,1799,['n'],1,right,['8'],4,209,[-0.08907717],85,44,hard,minus,dotcolour,alfa,,,83,18,V,R,
364,112,28,8,2,53,27,467,['c'],1,left,['0'],6,759,[0.38798702],98,53,easy,minus,dotcolour,alfa,,,83,18,V,R,
365,113,29,8,2,53,27,965,['c'],1,left,['0'],6,483,[0.07227395],72,53,easy,minus,dotcolour,alfa,,,83,18,V,R,
366,114,30,8,2,27,53,1716,['n'],1,right,['2'],2,117,[-0.05912882],83,53,easy,minus,dotcolour,alfa,,,83,18,V,R,
367,115,31,8,2,47,33,449,['n'],0,left,['3'],3,495,[0.03468728],39,47,medium,minus,dotcolour,alfa,,,83,18,V,R,
368,116,32,8,2,53,27,173,['n'],0,left,['1'],1,196,[0.02075446],40,53,easy,minus,dotcolour,alfa,,,83,18,V,R,
369,117,33,8,2,36,44,250,['c'],0,right,['2'],2,140,[0.08393017],88,44,hard,minus,dotcolour,alfa,,,83,18,V,R,
370,118,34,8,2,44,36,198,['c'],1,left,['1'],1,159,[0.0870983],88,44,hard,minus,dotcolour,alfa,,,83,18,V,R,
371,119,35,8,2,53,27,185,['c'],1,left,['0'],6,146,[0.1675517],98,53,easy,minus,dotcolour,alfa,,,83,18,V,R,
372,120,36,8,2,44,36,83,['n'],0,left,['1'],1,37,[-0.10032466],99,44,hard,minus,dotcolour,alfa,,,83,18,V,R,
373,121,37,8,2,27,53,180,['n'],1,right,['2'],2,142,[-0.06803381],84,53,easy,minus,dotcolour,alfa,,,83,18,V,R,
374,122,38,8,2,33,47,300,['c'],0,right,['1'],1,164,[0.04314096],72,47,medium,minus,dotcolour,alfa,,,83,18,V,R,
375,123,39,8,2,53,27,129,['n'],0,left,['2'],2,55,[-0.07495862],95,53,easy,minus,dotcolour,alfa,,,83,18,V,R,
376,124,40,8,2,36,44,349,['n'],1,right,['3'],3,144,[-0.05290718],78,44,hard,minus,dotcolour,alfa,,,83,18,V,R,
377,125,41,8,2,44,36,232,['n'],0,left,['1'],1,18,[-0.04789896],96,44,hard,minus,dotcolour,alfa,,,83,18,V,R,
378,0,0,9,3,44,36,616,['c'],1,left,['2'],2,155,[0.10368233],100,44,hard,plus,dotcolour,alfa,,,83,18,V,R,
379,1,1,9,3,33,47,198,['n'],1,right,['1'],1,134,[-0.03272536],96,47,medium,plus,dotcolour,alfa,,,83,18,V,R,
380,2,2,9,3,36,44,187,['n'],1,right,['3'],3,394,[-0.04806893],94,44,hard,plus,dotcolour,alfa,,,83,18,V,R,
381,3,3,9,3,44,36,188,['n'],0,left,['1'],1,284,[-0.08653787],100,44,hard,plus,dotcolour,alfa,,,83,18,V,R,
382,4,4,9,3,47,33,233,['n'],0,left,['9'],5,368,[-0.02640052],83,47,medium,plus,dotcolour,alfa,,,83,18,V,R,
383,5,5,9,3,27,53,124,['c'],0,right,['3'],3,67,[0.10321788],100,53,easy,plus,dotcolour,alfa,,,83,18,V,R,
384,6,6,9,3,27,53,299,['c'],0,right,['2'],2,134,[0.09016216],100,53,easy,plus,dotcolour,alfa,,,83,18,V,R,
385,7,7,9,3,33,47,154,['c'],0,right,['2'],2,58,[0.09700401],100,47,medium,plus,dotcolour,alfa,,,83,18,V,R,
386,8,8,9,3,33,47,183,['n'],1,right,['8'],4,168,[-0.10347107],100,47,medium,plus,dotcolour,alfa,,,83,18,V,R,
387,9,9,9,3,44,36,215,['n'],0,left,['1'],1,210,[-0.09824118],100,44,hard,plus,dotcolour,alfa,,,83,18,V,R,
388,10,10,9,3,44,36,215,['n'],0,left,"['8', '3']",4,210,[-0.01917231],82,44,hard,plus,dotcolour,alfa,,,83,18,V,R,
389,11,11,9,3,53,27,581,['c'],1,left,['2'],2,1435,[0.33924155],100,53,easy,plus,dotcolour,alfa,,,83,18,V,R,
390,12,12,9,3,47,33,1197,['n'],0,left,['1'],1,363,[-0.04366908],93,47,medium,plus,dotcolour,alfa,,,83,18,V,R,
391,13,13,9,3,44,36,548,['n'],0,left,['3'],3,191,[-0.01874284],82,44,hard,plus,dotcolour,alfa,,,83,18,V,R,
392,14,14,9,3,27,53,565,['n'],1,right,['1'],1,26,[-0.07714891],100,53,easy,plus,dotcolour,alfa,,,83,18,V,R,
393,15,15,9,3,36,44,1397,['c'],0,right,['1'],1,514,[-0.01897758],28,44,hard,plus,dotcolour,alfa,,,83,18,V,R,
394,16,16,9,3,33,47,750,['c'],0,right,['3'],3,369,[0.09268611],100,47,medium,plus,dotcolour,alfa,,,83,18,V,R,
395,17,17,9,3,36,44,1197,['c'],0,right,['1'],1,451,[0.18040024],100,44,hard,plus,dotcolour,alfa,,,83,18,V,R,
396,18,18,9,3,47,33,715,['n'],0,left,['2'],2,310,[0.03397271],10,47,medium,plus,dotcolour,alfa,,,83,18,V,R,
397,19,19,9,3,47,33,280,['n'],0,left,['1'],1,319,[0.04529398],5,47,medium,plus,dotcolour,alfa,,,83,18,V,R,
398,20,20,9,3,53,27,216,['n'],0,left,['3'],3,244,[-0.02486508],86,53,easy,plus,dotcolour,alfa,,,83,18,V,R,
399,21,21,9,3,36,44,298,['n'],1,right,['8'],4,207,[-0.12068354],100,44,hard,plus,dotcolour,alfa,,,83,18,V,R,
400,22,22,9,3,53,27,615,['n'],0,left,['1'],1,215,[-0.07159483],100,53,easy,plus,dotcolour,alfa,,,83,18,V,R,
401,23,23,9,3,33,47,232,['n'],1,right,['2'],2,221,[-0.10996202],100,47,medium,plus,dotcolour,alfa,,,83,18,V,R,
402,24,24,9,3,47,33,314,['n'],0,left,['0'],6,290,[-0.09795053],100,47,medium,plus,dotcolour,alfa,,,83,18,V,R,
403,25,25,9,3,36,44,282,['n'],1,right,['2'],2,252,[-0.09183967],100,44,hard,plus,dotcolour,alfa,,,83,18,V,R,
404,26,26,9,3,33,47,300,['n'],1,right,['8'],4,279,[0.00581731],40,47,medium,plus,dotcolour,alfa,,,83,18,V,R,
405,27,27,9,3,36,44,172,['n'],1,right,['2'],2,253,[-0.12064828],100,44,hard,plus,dotcolour,alfa,,,83,18,V,R,
406,28,28,9,3,27,53,282,['n'],1,right,['8'],4,201,[-0.11368553],100,53,easy,plus,dotcolour,alfa,,,83,18,V,R,
407,29,29,9,3,47,33,615,['n'],0,left,['1'],1,154,[-0.10432805],100,47,medium,plus,dotcolour,alfa,,,83,18,V,R,
408,30,30,9,3,44,36,281,['n'],0,left,['9'],5,225,[-0.00784835],64,44,hard,plus,dotcolour,alfa,,,83,18,V,R,
409,31,31,9,3,33,47,349,['c'],0,right,['9'],5,203,[0.08522768],100,47,medium,plus,dotcolour,alfa,,,83,18,V,R,
410,32,32,9,3,36,44,431,['n'],1,right,['1'],1,219,[-0.11616589],100,44,hard,plus,dotcolour,alfa,,,83,18,V,R,
411,33,33,9,3,44,36,1216,['c'],1,left,['1'],1,258,[0.0509589],97,44,hard,plus,dotcolour,alfa,,,83,18,V,R,
412,34,34,9,3,53,27,121,['n'],0,left,['8'],4,153,[-0.00719955],66,53,easy,plus,dotcolour,alfa,,,83,18,V,R,
413,35,35,9,3,27,53,132,['n'],1,right,['0'],6,92,[-0.12972671],100,53,easy,plus,dotcolour,alfa,,,83,18,V,R,
414,36,36,9,3,47,33,265,['n'],0,left,['8'],4,199,[0.06853066],0,47,medium,plus,dotcolour,alfa,,,83,18,V,R,
415,37,37,9,3,53,27,159,['n'],0,left,['0'],6,176,[-0.09732465],100,53,easy,plus,dotcolour,alfa,,,83,18,V,R,
416,38,38,9,3,53,27,232,['c'],1,left,['8'],4,152,[0.14254223],100,53,easy,plus,dotcolour,alfa,,,83,18,V,R,
417,39,39,9,3,27,53,815,['c'],0,right,['0'],6,163,[0.02213558],88,53,easy,plus,dotcolour,alfa,,,83,18,V,R,
418,40,40,9,3,53,27,299,['c'],1,left,['0'],6,90,[0.10433419],100,53,easy,plus,dotcolour,alfa,,,83,18,V,R,
419,41,41,9,3,27,53,282,['n'],1,right,['3'],3,164,[-0.12625228],100,53,easy,plus,dotcolour,alfa,,,83,18,V,R,
420,42,0,10,3,36,44,300,['n'],1,right,['2'],2,127,[-0.05811516],100,44,hard,plus,dotcolour,alfa,,,83,18,V,R,
421,43,1,10,3,36,44,170,['n'],1,right,['2'],2,139,[-0.09844677],100,44,hard,plus,dotcolour,alfa,,,83,18,V,R,
422,44,2,10,3,53,27,17,['n'],0,left,['3'],3,31,[-0.06984033],100,53,easy,plus,dotcolour,alfa,,,83,18,V,R,
423,45,3,10,3,44,36,1116,['n'],0,left,['2'],2,1098,[-0.05823607],88,44,hard,plus,dotcolour,alfa,,,83,18,V,R,
424,46,4,10,3,53,27,582,['n'],0,left,['2'],2,704,[0.14503211],0,53,easy,plus,dotcolour,alfa,,,83,18,V,R,
425,47,5,10,3,33,47,248,['n'],1,right,['0'],6,555,[-0.13735994],100,47,medium,plus,dotcolour,alfa,,,83,18,V,R,
426,48,6,10,3,27,53,215,['n'],1,right,['0'],6,213,[-0.0358514],94,53,easy,plus,dotcolour,alfa,,,83,18,V,R,
427,49,7,10,3,27,53,315,['c'],0,right,['2'],2,185,[0.0054017],61,53,easy,plus,dotcolour,alfa,,,83,18,V,R,
428,50,8,10,3,27,53,398,['n'],1,right,['3'],3,219,[-0.17481331],100,53,easy,plus,dotcolour,alfa,,,83,18,V,R,
429,51,9,10,3,47,33,617,['n'],0,left,['2'],2,283,[-0.00388206],57,47,medium,plus,dotcolour,alfa,,,83,18,V,R,
430,52,10,10,3,33,47,300,['n'],1,right,"['0', '1']",6,165,[-0.08094308],100,47,medium,plus,dotcolour,alfa,,,83,18,V,R,
431,53,11,10,3,33,47,128,['c'],0,right,['8'],4,24,[0.05332243],100,47,medium,plus,dotcolour,alfa,,,83,18,V,R,
432,54,12,10,3,27,53,232,['n'],1,right,['2'],2,175,[-0.0288689],92,53,easy,plus,dotcolour,alfa,,,83,18,V,R,
433,55,13,10,3,33,47,350,['n'],1,right,['0'],6,331,[-0.08115431],99,47,medium,plus,dotcolour,alfa,,,83,18,V,R,
434,56,14,10,3,27,53,96,['c'],0,right,['2'],2,247,[0.00584897],60,53,easy,plus,dotcolour,alfa,,,83,18,V,R,
435,57,15,10,3,53,27,532,['c'],1,left,['3'],3,193,[0.08047521],100,53,easy,plus,dotcolour,alfa,,,83,18,V,R,
436,58,16,10,3,33,47,233,['c'],0,right,['2'],2,121,[0.03246556],97,47,medium,plus,dotcolour,alfa,,,83,18,V,R,
437,59,17,10,3,53,27,197,['n'],0,left,['3'],3,110,[-0.04032018],99,53,easy,plus,dotcolour,alfa,,,83,18,V,R,
438,60,18,10,3,47,33,122,['n'],0,left,['0'],6,90,[-0.02080012],92,47,medium,plus,dotcolour,alfa,,,83,18,V,R,
439,61,19,10,3,36,44,144,['c'],0,right,['8'],4,96,[0.07147798],100,44,hard,plus,dotcolour,alfa,,,83,18,V,R,
440,62,20,10,3,47,33,172,['c'],1,left,['1'],1,102,[0.0379],99,47,medium,plus,dotcolour,alfa,,,83,18,V,R,
441,63,21,10,3,44,36,232,['c'],1,left,['3'],3,153,[0.06587101],100,44,hard,plus,dotcolour,alfa,,,83,18,V,R,
442,64,22,10,3,47,33,550,['c'],1,left,['1'],1,167,[0.09251542],100,47,medium,plus,dotcolour,alfa,,,83,18,V,R,
443,65,23,10,3,53,27,3151,['c'],1,left,['3'],3,139,[0.02448658],91,53,easy,plus,dotcolour,alfa,,,83,18,V,R,
444,66,24,10,3,33,47,199,['n'],1,right,['1'],1,183,[-0.13669166],100,47,medium,plus,dotcolour,alfa,,,83,18,V,R,
445,67,25,10,3,36,44,281,['n'],1,right,['3'],3,150,[-0.01754018],84,44,hard,plus,dotcolour,alfa,,,83,18,V,R,
446,68,26,10,3,36,44,298,['c'],0,right,['1'],1,93,[0.08160044],100,44,hard,plus,dotcolour,alfa,,,83,18,V,R,
447,69,27,10,3,27,53,231,['n'],1,right,['2'],2,153,[-0.06555068],100,53,easy,plus,dotcolour,alfa,,,83,18,V,R,
448,70,28,10,3,47,33,214,['c'],1,left,['3'],3,139,[0.10121185],100,47,medium,plus,dotcolour,alfa,,,83,18,V,R,
449,71,29,10,3,47,33,298,['n'],0,left,['1'],1,146,[-0.02574953],92,47,medium,plus,dotcolour,alfa,,,83,18,V,R,
450,72,30,10,3,53,27,266,['n'],0,left,['2'],2,203,[-0.02316176],86,53,easy,plus,dotcolour,alfa,,,83,18,V,R,
451,73,31,10,3,44,36,300,['n'],0,left,['8'],4,175,[-0.13184948],100,44,hard,plus,dotcolour,alfa,,,83,18,V,R,
452,74,32,10,3,47,33,282,['c'],1,left,['0'],6,214,[0.17632273],100,47,medium,plus,dotcolour,alfa,,,83,18,V,R,
453,75,33,10,3,36,44,265,['n'],1,right,"['8', '3']",4,220,[-0.02877761],90,44,hard,plus,dotcolour,alfa,,,83,18,V,R,
454,76,34,10,3,44,36,982,['n'],0,left,"['8', '3']",4,157,[-0.10366642],100,44,hard,plus,dotcolour,alfa,,,83,18,V,R,
455,77,35,10,3,44,36,1282,['n'],0,left,['2'],2,588,[-0.11565122],100,44,hard,plus,dotcolour,alfa,,,83,18,V,R,
456,78,36,10,3,44,36,2980,['n'],0,left,['8'],4,591,[-0.11998333],100,44,hard,plus,dotcolour,alfa,,,83,18,V,R,
457,79,37,10,3,36,44,415,['c'],0,right,['2'],2,199,[0.00317449],56,44,hard,plus,dotcolour,alfa,,,83,18,V,R,
458,80,38,10,3,44,36,142,['c'],1,left,['3'],3,105,[0.1186881],100,44,hard,plus,dotcolour,alfa,,,83,18,V,R,
459,81,39,10,3,53,27,265,['n'],0,left,['2'],2,195,[-0.05769661],99,53,easy,plus,dotcolour,alfa,,,83,18,V,R,
460,82,40,10,3,33,47,282,['n'],1,right,['1'],1,121,[-0.09131518],100,47,medium,plus,dotcolour,alfa,,,83,18,V,R,
461,83,41,10,3,27,53,332,['n'],1,right,['8'],4,177,[-0.10619127],100,53,easy,plus,dotcolour,alfa,,,83,18,V,R,
462,84,0,11,3,27,53,916,['n'],1,right,['1'],1,91,[-0.13919188],100,53,easy,plus,dotcolour,alfa,,,83,18,V,R,
463,85,1,11,3,44,36,449,['n'],0,left,['1'],1,87,[-0.027457],97,44,hard,plus,dotcolour,alfa,,,83,18,V,R,
464,86,2,11,3,33,47,140,['c'],0,right,['8'],4,20,[0.05081977],100,47,medium,plus,dotcolour,alfa,,,83,18,V,R,
465,87,3,11,3,33,47,228,['c'],0,right,['8'],4,196,[0.04089993],97,47,medium,plus,dotcolour,alfa,,,83,18,V,R,
466,88,4,11,3,27,53,2132,['c'],0,right,"['9', '2']",5,560,[0.01753013],70,53,easy,plus,dotcolour,alfa,,,83,18,V,R,
467,89,5,11,3,47,33,882,['c'],1,left,['2'],2,167,[0.1341104],100,47,medium,plus,dotcolour,alfa,,,83,18,V,R,
468,90,6,11,3,36,44,833,['n'],1,right,['1'],1,104,[-0.08499149],100,44,hard,plus,dotcolour,alfa,,,83,18,V,R,
469,91,7,11,3,44,36,315,['c'],1,left,"['0', '1']",6,249,[0.13091658],100,44,hard,plus,dotcolour,alfa,,,83,18,V,R,
470,92,8,11,3,27,53,1798,['n'],1,right,['2'],2,536,[-0.1303691],100,53,easy,plus,dotcolour,alfa,,,83,18,V,R,
471,93,9,11,3,36,44,1098,['n'],1,right,['2'],2,232,[-0.01973592],81,44,hard,plus,dotcolour,alfa,,,83,18,V,R,
472,94,10,11,3,36,44,332,['n'],1,right,['8'],4,499,[-0.09204957],99,44,hard,plus,dotcolour,alfa,,,83,18,V,R,
473,95,11,11,3,33,47,532,['n'],1,right,['3'],3,123,[-0.1545985],100,47,medium,plus,dotcolour,alfa,,,83,18,V,R,
474,96,12,11,3,47,33,448,['n'],0,left,['1'],1,500,[0.11843382],0,47,medium,plus,dotcolour,alfa,,,83,18,V,R,
475,97,13,11,3,27,53,682,['c'],0,right,['8'],4,591,[0.10101333],99,53,easy,plus,dotcolour,alfa,,,83,18,V,R,
476,98,14,11,3,44,36,316,['c'],1,left,['1'],1,707,[0.0259806],75,44,hard,plus,dotcolour,alfa,,,83,18,V,R,
477,99,15,11,3,47,33,649,['n'],0,left,['0'],6,414,[-0.15552192],100,47,medium,plus,dotcolour,alfa,,,83,18,V,R,
478,100,16,11,3,27,53,248,['c'],0,right,['2'],2,1157,[-0.12940868],1,53,easy,plus,dotcolour,alfa,,,83,18,V,R,
479,101,17,11,3,53,27,383,['c'],1,left,['1'],1,752,[0.23097021],100,53,easy,plus,dotcolour,alfa,,,83,18,V,R,
480,102,18,11,3,36,44,616,['c'],0,right,['3'],3,690,[-0.02719445],24,44,hard,plus,dotcolour,alfa,,,83,18,V,R,
481,103,19,11,3,33,47,264,['c'],0,right,['2'],2,773,[0.17148378],100,47,medium,plus,dotcolour,alfa,,,83,18,V,R,
482,104,20,11,3,53,27,381,['c'],1,left,['1'],1,632,[0.2432188],100,53,easy,plus,dotcolour,alfa,,,83,18,V,R,
483,105,21,11,3,27,53,881,['c'],0,right,['3'],3,563,[-0.06127331],5,53,easy,plus,dotcolour,alfa,,,83,18,V,R,
484,106,22,11,3,53,27,315,['n'],0,left,['2'],2,114,[-0.04268947],99,53,easy,plus,dotcolour,alfa,,,83,18,V,R,
485,107,23,11,3,44,36,282,['n'],0,left,['1'],1,203,[-0.13628232],100,44,hard,plus,dotcolour,alfa,,,83,18,V,R,
486,108,24,11,3,47,33,60,['n'],0,left,['8'],4,116,[0.00109643],47,47,medium,plus,dotcolour,alfa,,,83,18,V,R,
487,109,25,11,3,44,36,168,['n'],0,left,['2'],2,161,[-0.09320957],100,44,hard,plus,dotcolour,alfa,,,83,18,V,R,
488,110,26,11,3,53,27,264,['n'],0,left,['2'],2,193,[0.00356434],43,53,easy,plus,dotcolour,alfa,,,83,18,V,R,
489,111,27,11,3,53,27,232,['n'],0,left,"['9', '2']",5,265,[-0.02980707],89,53,easy,plus,dotcolour,alfa,,,83,18,V,R,
490,112,28,11,3,36,44,198,['n'],1,right,['2'],2,272,[-0.12215025],100,44,hard,plus,dotcolour,alfa,,,83,18,V,R,
491,113,29,11,3,33,47,108,['c'],0,right,['9'],5,357,[-0.00973564],36,47,medium,plus,dotcolour,alfa,,,83,18,V,R,
492,114,30,11,3,33,47,96,['n'],1,right,"['9', '2']",5,232,[-0.09838783],100,47,medium,plus,dotcolour,alfa,,,83,18,V,R,
493,115,31,11,3,36,44,631,['c'],0,right,['1'],1,455,[0.20167135],100,44,hard,plus,dotcolour,alfa,,,83,18,V,R,
494,116,32,11,3,47,33,683,['c'],1,left,['1'],1,458,[0.0389481],89,47,medium,plus,dotcolour,alfa,,,83,18,V,R,
495,117,33,11,3,27,53,366,['n'],1,right,['1'],1,474,[-0.25187192],100,53,easy,plus,dotcolour,alfa,,,83,18,V,R,
496,118,34,11,3,47,33,581,['n'],0,left,['1'],1,385,[-0.08054522],99,47,medium,plus,dotcolour,alfa,,,83,18,V,R,
497,119,35,11,3,53,27,282,['c'],1,left,['1'],1,439,[0.09138947],99,53,easy,plus,dotcolour,alfa,,,83,18,V,R,
498,120,36,11,3,47,33,103,['c'],1,left,['9'],5,327,[0.12127747],100,47,medium,plus,dotcolour,alfa,,,83,18,V,R,
499,121,37,11,3,33,47,186,['n'],1,right,['1'],1,275,[-0.08082776],100,47,medium,plus,dotcolour,alfa,,,83,18,V,R,
500,122,38,11,3,36,44,332,['n'],1,right,['9'],5,371,[-0.07124075],99,44,hard,plus,dotcolour,alfa,,,83,18,V,R,
501,123,39,11,3,44,36,398,['c'],1,left,['3'],3,350,[0.10768503],100,44,hard,plus,dotcolour,alfa,,,83,18,V,R,
502,124,40,11,3,44,36,483,['c'],1,left,['8'],4,358,[0.09182097],100,44,hard,plus,dotcolour,alfa,,,83,18,V,R,
503,125,41,11,3,53,27,113,['c'],1,left,['9'],5,257,[0.03626596],93,53,easy,plus,dotcolour,alfa,,,83,18,V,R,
504,0,0,12,4,53,27,2182,['n'],0,left,['1'],1,247,[0.01008067],45,53,easy,minus,dotcolour,alfa,,,83,18,V,R,
505,1,1,12,4,47,33,266,['n'],0,left,['9'],5,340,[-0.03770516],64,47,medium,minus,dotcolour,alfa,,,83,18,V,R,
506,2,2,12,4,53,27,415,['c'],1,left,"['0', '1']",6,367,[0.06629003],73,53,easy,minus,dotcolour,alfa,,,83,18,V,R,
507,3,3,12,4,44,36,366,['c'],1,left,['8'],4,243,[0.10212339],87,44,hard,minus,dotcolour,alfa,,,83,18,V,R,
508,4,4,12,4,33,47,298,['n'],1,right,['1'],1,462,[-0.08998967],77,47,medium,minus,dotcolour,alfa,,,83,18,V,R,
509,5,5,12,4,27,53,264,['n'],1,right,['8'],4,370,[-0.18082044],94,53,easy,minus,dotcolour,alfa,,,83,18,V,R,
510,6,6,12,4,33,47,398,['n'],1,right,['1'],1,437,[-0.15746536],90,47,medium,minus,dotcolour,alfa,,,83,18,V,R,
511,7,7,12,4,47,33,298,['n'],0,left,['3'],3,289,[-0.07397339],78,47,medium,minus,dotcolour,alfa,,,83,18,V,R,
512,8,8,12,4,36,44,165,['n'],1,right,['2'],2,342,[-0.1364772],89,44,hard,minus,dotcolour,alfa,,,83,18,V,R,
513,9,9,12,4,53,27,267,['n'],0,left,['0'],6,311,[0.00348521],49,53,easy,minus,dotcolour,alfa,,,83,18,V,R,
514,10,10,12,4,36,44,128,['n'],1,right,['0'],6,275,[-0.12432707],89,44,hard,minus,dotcolour,alfa,,,83,18,V,R,
515,11,11,12,4,36,44,250,['c'],0,right,['8'],4,216,[0.03791796],68,44,hard,minus,dotcolour,alfa,,,83,18,V,R,
516,12,12,12,4,44,36,182,['c'],1,left,['2'],2,560,[0.03003143],59,44,hard,minus,dotcolour,alfa,,,83,18,V,R,
517,13,13,12,4,27,53,299,['c'],0,right,['1'],1,470,[0.11970038],83,53,easy,minus,dotcolour,alfa,,,83,18,V,R,
518,14,14,12,4,27,53,399,['n'],1,right,['8'],4,629,[-0.22058491],92,53,easy,minus,dotcolour,alfa,,,83,18,V,R,
519,15,15,12,4,47,33,398,['n'],0,left,"['8', '3']",4,485,[-0.00436465],51,47,medium,minus,dotcolour,alfa,,,83,18,V,R,
520,16,16,12,4,53,27,898,['c'],1,left,['2'],2,559,[0.1307942],83,53,easy,minus,dotcolour,alfa,,,83,18,V,R,
521,17,17,12,4,47,33,749,['c'],1,left,['0'],6,596,[0.03211592],59,47,medium,minus,dotcolour,alfa,,,83,18,V,R,
522,18,18,12,4,36,44,215,['n'],1,right,['1'],1,460,[-0.07434023],73,44,hard,minus,dotcolour,alfa,,,83,18,V,R,
523,19,19,12,4,27,53,215,['n'],1,right,['1'],1,330,[-0.06918569],75,53,easy,minus,dotcolour,alfa,,,83,18,V,R,
524,20,20,12,4,33,47,249,['n'],1,right,['3'],3,260,[-0.13837593],92,47,medium,minus,dotcolour,alfa,,,83,18,V,R,
525,21,21,12,4,33,47,615,['c'],0,right,['2'],2,482,[0.04574356],64,47,medium,minus,dotcolour,alfa,,,83,18,V,R,
526,22,22,12,4,27,53,749,['c'],0,right,['2'],2,419,[0.05013364],67,53,easy,minus,dotcolour,alfa,,,83,18,V,R,
527,23,23,12,4,27,53,316,['n'],1,right,['1'],1,638,[-0.26729726],95,53,easy,minus,dotcolour,alfa,,,83,18,V,R,
528,24,24,12,4,44,36,266,['c'],1,left,['8'],4,291,[0.1360185],91,44,hard,minus,dotcolour,alfa,,,83,18,V,R,
529,25,25,12,4,47,33,250,['c'],1,left,['8'],4,206,[0.03852228],68,47,medium,minus,dotcolour,alfa,,,83,18,V,R,
530,26,26,12,4,44,36,216,['c'],1,left,['8'],4,214,[0.07035535],80,44,hard,minus,dotcolour,alfa,,,83,18,V,R,
531,27,27,12,4,36,44,192,['n'],1,right,['2'],2,271,[-0.06837469],77,44,hard,minus,dotcolour,alfa,,,83,18,V,R,
532,28,28,12,4,27,53,215,['c'],0,right,['0'],6,269,[-0.00395042],48,53,easy,minus,dotcolour,alfa,,,83,18,V,R,
533,29,29,12,4,44,36,247,['n'],0,left,['1'],1,233,[-0.0160279],57,44,hard,minus,dotcolour,alfa,,,83,18,V,R,
534,30,30,12,4,36,44,152,['n'],1,right,['2'],2,209,[-0.1040822],89,44,hard,minus,dotcolour,alfa,,,83,18,V,R,
535,31,31,12,4,44,36,129,['n'],0,left,['2'],2,170,[-0.04185553],71,44,hard,minus,dotcolour,alfa,,,83,18,V,R,
536,32,32,12,4,47,33,18,['n'],0,left,['8'],4,37,[-0.08507243],98,47,medium,minus,dotcolour,alfa,,,83,18,V,R,
537,33,33,12,4,53,27,158,['c'],1,left,['1'],1,149,[0.09774869],91,53,easy,minus,dotcolour,alfa,,,83,18,V,R,
538,34,34,12,4,44,36,249,['c'],1,left,['9'],5,158,[0.03290618],68,44,hard,minus,dotcolour,alfa,,,83,18,V,R,
539,35,35,12,4,53,27,248,['c'],1,left,['8'],4,167,[0.10416883],91,53,easy,minus,dotcolour,alfa,,,83,18,V,R,
540,36,36,12,4,53,27,177,['c'],1,left,['0'],6,145,[0.00662456],54,53,easy,minus,dotcolour,alfa,,,83,18,V,R,
541,37,37,12,4,47,33,67,['n'],0,left,['8'],4,85,[-0.09469294],95,47,medium,minus,dotcolour,alfa,,,83,18,V,R,
542,38,38,12,4,33,47,265,['c'],0,right,['1'],1,168,[0.12048877],93,47,medium,minus,dotcolour,alfa,,,83,18,V,R,
543,39,39,12,4,36,44,832,['c'],0,right,['3'],3,193,[0.02218564],61,44,hard,minus,dotcolour,alfa,,,83,18,V,R,
544,40,40,12,4,33,47,248,['c'],0,right,['9'],5,281,[0.10022912],85,47,medium,minus,dotcolour,alfa,,,83,18,V,R,
545,41,41,12,4,33,47,483,['n'],1,right,['9'],5,259,[-0.07964863],80,47,medium,minus,dotcolour,alfa,,,83,18,V,R,
546,42,0,13,4,33,47,650,['c'],0,right,['2'],2,1154,[-0.0002741],50,47,medium,minus,dotcolour,alfa,,,83,18,V,R,
547,43,1,13,4,53,27,749,['n'],0,left,['1'],1,287,[-0.03888462],66,53,easy,minus,dotcolour,alfa,,,83,18,V,R,
548,44,2,13,4,53,27,247,['n'],0,left,['9'],5,179,[-0.04066399],70,53,easy,minus,dotcolour,alfa,,,83,18,V,R,
549,45,3,13,4,27,53,299,['c'],0,right,['2'],2,617,[-0.0693773],31,53,easy,minus,dotcolour,alfa,,,83,18,V,R,
550,46,4,13,4,33,47,168,['n'],1,right,['2'],2,217,[-0.12691313],92,47,medium,minus,dotcolour,alfa,,,83,18,V,R,
551,47,5,13,4,27,53,400,['n'],1,right,['0'],6,193,[-0.10588101],90,53,easy,minus,dotcolour,alfa,,,83,18,V,R,
552,48,6,13,4,53,27,249,['n'],0,left,['2'],2,97,[-0.03287416],72,53,easy,minus,dotcolour,alfa,,,83,18,V,R,
553,49,7,13,4,36,44,280,['n'],1,right,['2'],2,210,[-0.12821897],93,44,hard,minus,dotcolour,alfa,,,83,18,V,R,
554,50,8,13,4,44,36,282,['c'],1,left,['1'],1,168,[0.08993606],88,44,hard,minus,dotcolour,alfa,,,83,18,V,R,
555,51,9,13,4,47,33,315,['c'],1,left,['8'],4,158,[0.06654054],82,47,medium,minus,dotcolour,alfa,,,83,18,V,R,
556,52,10,13,4,33,47,498,['n'],1,right,['1'],1,277,[-0.12698217],90,47,medium,minus,dotcolour,alfa,,,83,18,V,R,
557,53,11,13,4,33,47,249,['n'],1,right,['1'],1,520,[-0.12530277],83,47,medium,minus,dotcolour,alfa,,,83,18,V,R,
558,54,12,13,4,44,36,448,['n'],0,left,['2'],2,315,[0.01926818],42,44,hard,minus,dotcolour,alfa,,,83,18,V,R,
559,55,13,13,4,47,33,632,['n'],0,left,"['8', '3']",4,335,[-0.01350373],55,47,medium,minus,dotcolour,alfa,,,83,18,V,R,
560,56,14,13,4,27,53,298,['n'],1,right,['1'],1,359,[-0.15332052],91,53,easy,minus,dotcolour,alfa,,,83,18,V,R,
561,57,15,13,4,33,47,400,['n'],1,right,['3'],3,345,[-0.11188937],85,47,medium,minus,dotcolour,alfa,,,83,18,V,R,
562,58,16,13,4,27,53,172,['c'],0,right,['1'],1,413,[0.07945911],75,53,easy,minus,dotcolour,alfa,,,83,18,V,R,
563,59,17,13,4,44,36,247,['n'],0,left,['1'],1,371,[-0.16361225],92,44,hard,minus,dotcolour,alfa,,,83,18,V,R,
564,60,18,13,4,44,36,297,['n'],0,left,"['8', '3']",4,378,[-0.04518235],66,44,hard,minus,dotcolour,alfa,,,83,18,V,R,
565,61,19,13,4,33,47,966,['n'],1,right,['9'],5,205,[-0.13132142],93,47,medium,minus,dotcolour,alfa,,,83,18,V,R,
566,62,20,13,4,36,44,950,['n'],1,right,['1'],1,569,[-0.09784525],76,44,hard,minus,dotcolour,alfa,,,83,18,V,R,
567,63,21,13,4,27,53,282,['n'],1,right,"['8', '3']",4,344,[-0.03178235],62,53,easy,minus,dotcolour,alfa,,,83,18,V,R,
568,64,22,13,4,53,27,264,['c'],1,left,"['9', '2']",5,257,[0.16687578],95,53,easy,minus,dotcolour,alfa,,,83,18,V,R,
569,65,23,13,4,33,47,633,['c'],0,right,['2'],2,310,[-0.07228105],24,47,medium,minus,dotcolour,alfa,,,83,18,V,R,
570,66,24,13,4,44,36,433,['n'],0,left,['8'],4,265,[-0.09720582],85,44,hard,minus,dotcolour,alfa,,,83,18,V,R,
571,67,25,13,4,53,27,796,['c'],1,left,['2'],2,328,[0.04263067],66,53,easy,minus,dotcolour,alfa,,,83,18,V,R,
572,68,26,13,4,44,36,616,['n'],0,left,['1'],1,259,[-0.03954582],67,44,hard,minus,dotcolour,alfa,,,83,18,V,R,
573,69,27,13,4,47,33,463,['n'],0,left,['3'],3,271,[-0.01113961],55,47,medium,minus,dotcolour,alfa,,,83,18,V,R,
574,70,28,13,4,47,33,233,['c'],1,left,['9'],5,268,[0.0794377],80,47,medium,minus,dotcolour,alfa,,,83,18,V,R,
575,71,29,13,4,47,33,282,['c'],1,left,['1'],1,207,[0.04511076],71,47,medium,minus,dotcolour,alfa,,,83,18,V,R,
576,72,30,13,4,36,44,283,['n'],1,right,"['0', '1']",6,213,[-0.13319079],93,44,hard,minus,dotcolour,alfa,,,83,18,V,R,
577,73,31,13,4,27,53,316,['n'],1,right,['3'],3,240,[-0.07038345],78,53,easy,minus,dotcolour,alfa,,,83,18,V,R,
578,74,32,13,4,36,44,598,['c'],0,right,['9'],5,264,[0.11293124],88,44,hard,minus,dotcolour,alfa,,,83,18,V,R,
579,75,33,13,4,47,33,397,['n'],0,left,['1'],1,222,[-0.04860814],72,47,medium,minus,dotcolour,alfa,,,83,18,V,R,
580,76,34,13,4,44,36,282,['c'],1,left,['3'],3,404,[0.02146879],58,44,hard,minus,dotcolour,alfa,,,83,18,V,R,
581,77,35,13,4,36,44,349,['n'],1,right,['1'],1,175,[-0.11471022],92,44,hard,minus,dotcolour,alfa,,,83,18,V,R,
582,78,36,13,4,53,27,397,['n'],0,left,['3'],3,177,[-0.08951402],87,53,easy,minus,dotcolour,alfa,,,83,18,V,R,
583,79,37,13,4,36,44,650,['n'],1,right,['1'],1,225,[0.00032927],50,44,hard,minus,dotcolour,alfa,,,83,18,V,R,
584,80,38,13,4,47,33,217,['n'],0,left,['8'],4,192,[-0.11649907],92,47,medium,minus,dotcolour,alfa,,,83,18,V,R,
585,81,39,13,4,53,27,232,['n'],0,left,['2'],2,152,[0.01630648],41,53,easy,minus,dotcolour,alfa,,,83,18,V,R,
586,82,40,13,4,36,44,216,['n'],1,right,['1'],1,387,[-0.02332689],58,44,hard,minus,dotcolour,alfa,,,83,18,V,R,
587,83,41,13,4,27,53,264,['n'],1,right,['2'],2,282,[-0.14690811],92,53,easy,minus,dotcolour,alfa,,,83,18,V,R,
588,84,0,14,4,47,33,633,['n'],0,left,['3'],3,68,[-0.06916574],92,47,medium,minus,dotcolour,alfa,,,83,18,V,R,
589,85,1,14,4,33,47,315,['n'],1,right,['0'],6,214,[-0.13270114],93,47,medium,minus,dotcolour,alfa,,,83,18,V,R,
590,86,2,14,4,27,53,582,['c'],0,right,['2'],2,383,[0.00821148],53,53,easy,minus,dotcolour,alfa,,,83,18,V,R,
591,87,3,14,4,53,27,247,['c'],1,left,['2'],2,263,[0.11304697],88,53,easy,minus,dotcolour,alfa,,,83,18,V,R,
592,88,4,14,4,44,36,132,['n'],0,left,['0'],6,117,[-0.06850459],86,44,hard,minus,dotcolour,alfa,,,83,18,V,R,
593,89,5,14,4,47,33,732,['n'],0,left,['0'],6,221,[-0.13678867],93,47,medium,minus,dotcolour,alfa,,,83,18,V,R,
594,90,6,14,4,36,44,515,['c'],0,right,['3'],3,160,[-0.03250077],32,44,hard,minus,dotcolour,alfa,,,83,18,V,R,
595,91,7,14,4,44,36,499,['n'],0,left,['9'],5,399,[-0.04778836],66,44,hard,minus,dotcolour,alfa,,,83,18,V,R,
596,92,8,14,4,53,27,433,['n'],0,left,['1'],1,439,[-0.05639289],68,53,easy,minus,dotcolour,alfa,,,83,18,V,R,
597,93,9,14,4,33,47,232,['n'],1,right,['2'],2,125,[-0.03156784],69,47,medium,minus,dotcolour,alfa,,,83,18,V,R,
598,94,10,14,4,53,27,183,['n'],0,left,['0'],6,281,[-0.02451452],60,53,easy,minus,dotcolour,alfa,,,83,18,V,R,
599,95,11,14,4,27,53,464,['n'],1,right,['9'],5,372,[-0.21156673],96,53,easy,minus,dotcolour,alfa,,,83,18,V,R,
600,96,12,14,4,47,33,282,['n'],0,left,['3'],3,363,[-0.09605814],81,47,medium,minus,dotcolour,alfa,,,83,18,V,R,
601,97,13,14,4,47,33,549,['n'],0,left,['1'],1,200,[-0.11949397],92,47,medium,minus,dotcolour,alfa,,,83,18,V,R,
602,98,14,14,4,36,44,782,['c'],0,right,['3'],3,282,[0.04628313],69,44,hard,minus,dotcolour,alfa,,,83,18,V,R,
603,99,15,14,4,33,47,399,['n'],1,right,['0'],6,280,[-0.0783998],79,47,medium,minus,dotcolour,alfa,,,83,18,V,R,
604,100,16,14,4,44,36,649,['c'],1,left,"['8', '3']",4,244,[0.18442168],97,44,hard,minus,dotcolour,alfa,,,83,18,V,R,
605,101,17,14,4,36,44,249,['c'],0,right,['0'],6,153,[-0.01010267],44,44,hard,minus,dotcolour,alfa,,,83,18,V,R,
606,102,18,14,4,36,44,517,['n'],1,right,['2'],2,248,[-0.1356883],92,44,hard,minus,dotcolour,alfa,,,83,18,V,R,
607,103,19,14,4,53,27,533,['n'],0,left,['3'],3,258,[-0.10170383],86,53,easy,minus,dotcolour,alfa,,,83,18,V,R,
608,104,20,14,4,33,47,283,['n'],1,right,"['0', '1']",6,237,[-0.12470687],91,47,medium,minus,dotcolour,alfa,,,83,18,V,R,
609,105,21,14,4,47,33,465,['n'],0,left,['3'],3,178,[-0.08759993],87,47,medium,minus,dotcolour,alfa,,,83,18,V,R,
610,106,22,14,4,44,36,530,['n'],0,left,['2'],2,271,[-0.03045827],63,44,hard,minus,dotcolour,alfa,,,83,18,V,R,
611,107,23,14,4,44,36,265,['n'],0,left,['1'],1,162,[-0.04365389],73,44,hard,minus,dotcolour,alfa,,,83,18,V,R,
612,108,24,14,4,27,53,550,['c'],0,right,['3'],3,239,[0.1273139],91,53,easy,minus,dotcolour,alfa,,,83,18,V,R,
613,109,25,14,4,47,33,566,['n'],0,left,['0'],6,152,[-0.10509008],92,47,medium,minus,dotcolour,alfa,,,83,18,V,R,
614,110,26,14,4,27,53,483,['n'],1,right,['3'],3,136,[-0.09555857],91,53,easy,minus,dotcolour,alfa,,,83,18,V,R,
615,111,27,14,4,33,47,516,['c'],0,right,['2'],2,184,[0.04524901],72,47,medium,minus,dotcolour,alfa,,,83,18,V,R,
616,112,28,14,4,27,53,532,['c'],0,right,['1'],1,172,[0.08824692],87,53,easy,minus,dotcolour,alfa,,,83,18,V,R,
617,113,29,14,4,36,44,159,['n'],1,right,['3'],3,135,[-0.05914931],81,44,hard,minus,dotcolour,alfa,,,83,18,V,R,
618,114,30,14,4,47,33,107,['c'],1,left,['1'],1,91,[0.11534813],97,47,medium,minus,dotcolour,alfa,,,83,18,V,R,
619,115,31,14,4,33,47,249,['c'],0,right,['3'],3,142,[0.08696015],89,47,medium,minus,dotcolour,alfa,,,83,18,V,R,
620,116,32,14,4,44,36,548,['c'],1,left,['0'],6,156,[0.06095472],80,44,hard,minus,dotcolour,alfa,,,83,18,V,R,
621,117,33,14,4,44,36,514,['n'],0,left,['8'],4,178,[0.00948431],45,44,hard,minus,dotcolour,alfa,,,83,18,V,R,
622,118,34,14,4,36,44,15,['n'],1,right,['9'],5,20,[-0.09150649],100,44,hard,minus,dotcolour,alfa,,,83,18,V,R,
623,119,35,14,4,27,53,298,['n'],1,right,['1'],1,80,[-0.09902385],96,53,easy,minus,dotcolour,alfa,,,83,18,V,R,
624,120,36,14,4,53,27,191,['n'],0,left,['2'],2,151,[-0.07537894],85,53,easy,minus,dotcolour,alfa,,,83,18,V,R,
625,121,37,14,4,33,47,248,['n'],1,right,['9'],5,280,[-0.13499881],91,47,medium,minus,dotcolour,alfa,,,83,18,V,R,
626,122,38,14,4,53,27,249,['n'],0,left,['0'],6,380,[0.05344689],31,53,easy,minus,dotcolour,alfa,,,83,18,V,R,
627,123,39,14,4,27,53,515,['n'],1,right,['1'],1,305,[-0.09818717],83,53,easy,minus,dotcolour,alfa,,,83,18,V,R,
628,124,40,14,4,36,44,548,['n'],1,right,['3'],3,201,[-0.05306829],74,44,hard,minus,dotcolour,alfa,,,83,18,V,R,
629,125,41,14,4,53,27,282,['n'],0,left,['2'],2,654,[0.01746769],45,53,easy,minus,dotcolour,alfa,,,83,18,V,R,
630,0,0,15,5,27,53,800,['n'],1,right,['0'],6,199,[-0.11636038],100,53,easy,plus,dotcolour,alfa,,,83,18,V,R,
631,1,1,15,5,36,44,315,['n'],1,right,['3'],3,275,[-0.0891802],100,44,hard,plus,dotcolour,alfa,,,83,18,V,R,
632,2,2,15,5,47,33,231,['n'],0,left,['3'],3,200,[-0.07163059],100,47,medium,plus,dotcolour,alfa,,,83,18,V,R,
633,3,3,15,5,44,36,766,['n'],0,left,['2'],2,163,[-0.05396239],99,44,hard,plus,dotcolour,alfa,,,83,18,V,R,
634,4,4,15,5,36,44,333,['n'],1,right,['2'],2,281,[-0.04992517],97,44,hard,plus,dotcolour,alfa,,,83,18,V,R,
635,5,5,15,5,33,47,417,['c'],0,right,['2'],2,230,[-0.01175751],29,47,medium,plus,dotcolour,alfa,,,83,18,V,R,
636,6,6,15,5,47,33,234,['n'],0,left,['2'],2,188,[-0.13478091],100,47,medium,plus,dotcolour,alfa,,,83,18,V,R,
637,7,7,15,5,44,36,650,['n'],0,left,['2'],2,116,[-0.08323187],100,44,hard,plus,dotcolour,alfa,,,83,18,V,R,
638,8,8,15,5,33,47,632,['n'],1,right,['1'],1,103,[-0.10590274],100,47,medium,plus,dotcolour,alfa,,,83,18,V,R,
639,9,9,15,5,33,47,447,['c'],0,right,['1'],1,171,[0.07809324],100,47,medium,plus,dotcolour,alfa,,,83,18,V,R,
640,10,10,15,5,36,44,731,['n'],1,right,['2'],2,120,[-0.07754898],100,44,hard,plus,dotcolour,alfa,,,83,18,V,R,
641,11,11,15,5,44,36,781,['n'],0,left,['3'],3,142,[-0.05779283],100,44,hard,plus,dotcolour,alfa,,,83,18,V,R,
642,12,12,15,5,36,44,497,['n'],1,right,['2'],2,173,[-0.06421225],100,44,hard,plus,dotcolour,alfa,,,83,18,V,R,
643,13,13,15,5,47,33,666,['c'],1,left,['1'],1,189,[0.01211268],73,47,medium,plus,dotcolour,alfa,,,83,18,V,R,
644,14,14,15,5,33,47,632,['n'],1,right,['2'],2,205,[-0.1187999],100,47,medium,plus,dotcolour,alfa,,,83,18,V,R,
645,15,15,15,5,47,33,598,['n'],0,left,['3'],3,126,[-0.00885333],71,47,medium,plus,dotcolour,alfa,,,83,18,V,R,
646,16,16,15,5,47,33,783,['n'],0,left,['1'],1,131,[0.02057169],11,47,medium,plus,dotcolour,alfa,,,83,18,V,R,
647,17,17,15,5,53,27,717,['c'],1,left,['3'],3,170,[0.10447443],100,53,easy,plus,dotcolour,alfa,,,83,18,V,R,
648,18,18,15,5,44,36,681,['n'],0,left,['1'],1,130,[-0.05573447],100,44,hard,plus,dotcolour,alfa,,,83,18,V,R,
649,19,19,15,5,53,27,449,['n'],0,left,['1'],1,3,[-0.0761242],100,53,easy,plus,dotcolour,alfa,,,83,18,V,R,
650,20,20,15,5,27,53,448,['n'],1,right,['0'],6,139,[-0.08545356],100,53,easy,plus,dotcolour,alfa,,,83,18,V,R,
651,21,21,15,5,53,27,882,['n'],0,left,['3'],3,155,[0.01807186],16,53,easy,plus,dotcolour,alfa,,,83,18,V,R,
652,22,22,15,5,53,27,647,['c'],1,left,['2'],2,116,[0.04197098],99,53,easy,plus,dotcolour,alfa,,,83,18,V,R,
653,23,23,15,5,36,44,632,['n'],1,right,['0'],6,144,[-0.16173151],100,44,hard,plus,dotcolour,alfa,,,83,18,V,R,
654,24,24,15,5,27,53,316,['n'],1,right,['2'],2,151,[-0.06749183],100,53,easy,plus,dotcolour,alfa,,,83,18,V,R,
655,25,25,15,5,44,36,666,['n'],0,left,['2'],2,127,[-0.04577063],99,44,hard,plus,dotcolour,alfa,,,83,18,V,R,
656,26,26,15,5,53,27,349,['n'],0,left,['3'],3,141,[-0.04084884],98,53,easy,plus,dotcolour,alfa,,,83,18,V,R,
657,27,27,15,5,33,47,280,['c'],0,right,['2'],2,157,[0.076942],100,47,medium,plus,dotcolour,alfa,,,83,18,V,R,
658,28,28,15,5,36,44,281,['n'],1,right,['1'],1,133,[-0.10993572],100,44,hard,plus,dotcolour,alfa,,,83,18,V,R,
659,29,29,15,5,53,27,348,['c'],1,left,['2'],2,178,[0.11086369],100,53,easy,plus,dotcolour,alfa,,,83,18,V,R,
660,30,30,15,5,33,47,248,['c'],0,right,['2'],2,91,[0.01508221],86,47,medium,plus,dotcolour,alfa,,,83,18,V,R,
661,31,31,15,5,44,36,499,['c'],1,left,['3'],3,173,[0.06848394],100,44,hard,plus,dotcolour,alfa,,,83,18,V,R,
662,32,32,15,5,53,27,264,['c'],1,left,['0'],6,164,[0.10373287],100,53,easy,plus,dotcolour,alfa,,,83,18,V,R,
663,33,33,15,5,44,36,281,['c'],1,left,['8'],4,84,[0.09657806],100,44,hard,plus,dotcolour,alfa,,,83,18,V,R,
664,34,34,15,5,27,53,266,['c'],0,right,['9'],5,159,[-0.00711051],34,53,easy,plus,dotcolour,alfa,,,83,18,V,R,
665,35,35,15,5,47,33,80,['n'],0,left,['1'],1,73,[-0.0313635],98,47,medium,plus,dotcolour,alfa,,,83,18,V,R,
666,36,36,15,5,27,53,113,['c'],0,right,['0'],6,240,[0.08174728],100,53,easy,plus,dotcolour,alfa,,,83,18,V,R,
667,37,37,15,5,33,47,350,['n'],1,right,['1'],1,401,[-0.14952828],100,47,medium,plus,dotcolour,alfa,,,83,18,V,R,
668,38,38,15,5,36,44,514,['n'],1,right,['1'],1,142,[-0.02939209],94,44,hard,plus,dotcolour,alfa,,,83,18,V,R,
669,39,39,15,5,47,33,137,['n'],0,left,['2'],2,1,[-0.06721223],100,47,medium,plus,dotcolour,alfa,,,83,18,V,R,
670,40,40,15,5,27,53,281,['c'],0,right,['2'],2,511,[-0.08830649],1,53,easy,plus,dotcolour,alfa,,,83,18,V,R,
671,41,41,15,5,27,53,232,['n'],1,right,['9'],5,202,[-0.1240925],100,53,easy,plus,dotcolour,alfa,,,83,18,V,R,
672,42,0,16,5,44,36,867,['n'],0,left,['1'],1,206,[0.03574841],6,44,hard,plus,dotcolour,alfa,,,83,18,V,R,
673,43,1,16,5,44,36,567,['c'],1,left,['2'],2,144,[0.07415624],100,44,hard,plus,dotcolour,alfa,,,83,18,V,R,
674,44,2,16,5,36,44,500,['c'],0,right,['0'],6,183,[0.10498121],100,44,hard,plus,dotcolour,alfa,,,83,18,V,R,
675,45,3,16,5,44,36,315,['n'],0,left,['2'],2,164,[-0.100316],100,44,hard,plus,dotcolour,alfa,,,83,18,V,R,
676,46,4,16,5,33,47,349,['c'],0,right,['2'],2,417,[-0.00241927],47,47,medium,plus,dotcolour,alfa,,,83,18,V,R,
677,47,5,16,5,53,27,882,['c'],1,left,['1'],1,198,[0.11079494],100,53,easy,plus,dotcolour,alfa,,,83,18,V,R,
678,48,6,16,5,33,47,982,['n'],1,right,['1'],1,105,[-0.05482318],100,47,medium,plus,dotcolour,alfa,,,83,18,V,R,
679,49,7,16,5,27,53,449,['n'],1,right,['1'],1,44,[-0.06340594],100,53,easy,plus,dotcolour,alfa,,,83,18,V,R,
680,50,8,16,5,27,53,399,['n'],1,right,['2'],2,27,[-0.07100462],100,53,easy,plus,dotcolour,alfa,,,83,18,V,R,
681,51,9,16,5,47,33,416,['n'],0,left,['1'],1,106,[-0.03949133],99,47,medium,plus,dotcolour,alfa,,,83,18,V,R,
682,52,10,16,5,47,33,161,['c'],1,left,['0'],6,159,[0.0413289],98,47,medium,plus,dotcolour,alfa,,,83,18,V,R,
683,53,11,16,5,53,27,283,['c'],1,left,['2'],2,103,[0.07828267],100,53,easy,plus,dotcolour,alfa,,,83,18,V,R,
684,54,12,16,5,44,36,467,['n'],0,left,['2'],2,233,[-0.09235546],100,44,hard,plus,dotcolour,alfa,,,83,18,V,R,
685,55,13,16,5,44,36,817,['n'],0,left,['1'],1,304,[-0.04292626],94,44,hard,plus,dotcolour,alfa,,,83,18,V,R,
686,56,14,16,5,47,33,1050,['n'],0,left,['1'],1,259,[-0.01318651],72,47,medium,plus,dotcolour,alfa,,,83,18,V,R,
687,57,15,16,5,36,44,481,['n'],1,right,['3'],3,351,[-0.00331691],55,44,hard,plus,dotcolour,alfa,,,83,18,V,R,
688,58,16,16,5,27,53,683,['c'],0,right,['1'],1,199,[0.08997641],100,53,easy,plus,dotcolour,alfa,,,83,18,V,R,
689,59,17,16,5,27,53,431,['n'],1,right,['3'],3,351,[-0.07559387],99,53,easy,plus,dotcolour,alfa,,,83,18,V,R,
690,60,18,16,5,47,33,565,['n'],0,left,['9'],5,179,[0.00478411],40,47,medium,plus,dotcolour,alfa,,,83,18,V,R,
691,61,19,16,5,53,27,665,['n'],0,left,['1'],1,163,[-0.00993019],71,53,easy,plus,dotcolour,alfa,,,83,18,V,R,
692,62,20,16,5,33,47,733,['n'],1,right,"['9', '2']",5,312,[-0.13489016],100,47,medium,plus,dotcolour,alfa,,,83,18,V,R,
693,63,21,16,5,36,44,383,['n'],1,right,['9'],5,381,[-0.17100982],100,44,hard,plus,dotcolour,alfa,,,83,18,V,R,
694,64,22,16,5,53,27,632,['n'],0,left,['1'],1,30,[-0.06148263],100,53,easy,plus,dotcolour,alfa,,,83,18,V,R,
695,65,23,16,5,36,44,431,['c'],0,right,['1'],1,197,[0.04978072],98,44,hard,plus,dotcolour,alfa,,,83,18,V,R,
696,66,24,16,5,27,53,349,['n'],1,right,['1'],1,192,[-0.0716888],100,53,easy,plus,dotcolour,alfa,,,83,18,V,R,
697,67,25,16,5,47,33,298,['n'],0,left,['3'],3,293,[0.00171996],47,47,medium,plus,dotcolour,alfa,,,83,18,V,R,
698,68,26,16,5,33,47,299,['c'],0,right,"['0', '1']",6,223,[0.09953559],100,47,medium,plus,dotcolour,alfa,,,83,18,V,R,
699,69,27,16,5,33,47,315,['c'],0,right,['9'],5,211,[-0.03810768],5,47,medium,plus,dotcolour,alfa,,,83,18,V,R,
700,70,28,16,5,33,47,265,['n'],1,right,['1'],1,81,[-0.06827232],100,47,medium,plus,dotcolour,alfa,,,83,18,V,R,
701,71,29,16,5,53,27,682,['n'],0,left,['8'],4,147,[-0.07253792],100,53,easy,plus,dotcolour,alfa,,,83,18,V,R,
702,72,30,16,5,53,27,332,['c'],1,left,['1'],1,161,[0.09462397],100,53,easy,plus,dotcolour,alfa,,,83,18,V,R,
703,73,31,16,5,47,33,248,['c'],1,left,['0'],6,226,[0.1479916],100,47,medium,plus,dotcolour,alfa,,,83,18,V,R,
704,74,32,16,5,47,33,282,['c'],1,left,['8'],4,191,[0.07188926],100,47,medium,plus,dotcolour,alfa,,,83,18,V,R,
705,75,33,16,5,36,44,314,['c'],0,right,"['8', '3']",4,211,[0.12929582],100,44,hard,plus,dotcolour,alfa,,,83,18,V,R,
706,76,34,16,5,44,36,265,['c'],1,left,['1'],1,137,[0.08575954],100,44,hard,plus,dotcolour,alfa,,,83,18,V,R,
707,77,35,16,5,36,44,632,['n'],1,right,['8'],4,740,[-0.24281411],100,44,hard,plus,dotcolour,alfa,,,83,18,V,R,
708,78,36,16,5,33,47,648,['c'],0,right,['3'],3,181,[0.0349275],95,47,medium,plus,dotcolour,alfa,,,83,18,V,R,
709,79,37,16,5,53,27,815,['c'],1,left,['2'],2,159,[0.09531203],100,53,easy,plus,dotcolour,alfa,,,83,18,V,R,
710,80,38,16,5,27,53,282,['n'],1,right,['2'],2,142,[-0.12388173],100,53,easy,plus,dotcolour,alfa,,,83,18,V,R,
711,81,39,16,5,36,44,499,['c'],0,right,['1'],1,213,[0.03773617],95,44,hard,plus,dotcolour,alfa,,,83,18,V,R,
712,82,40,16,5,44,36,249,['c'],1,left,['0'],6,132,[0.07963589],100,44,hard,plus,dotcolour,alfa,,,83,18,V,R,
713,83,41,16,5,27,53,898,['c'],0,right,['8'],4,44,[0.09170995],100,53,easy,plus,dotcolour,alfa,,,83,18,V,R,
714,84,0,17,5,27,53,1116,['n'],1,right,['1'],1,87,[-0.08341171],100,53,easy,plus,dotcolour,alfa,,,83,18,V,R,
715,85,1,17,5,36,44,365,['n'],1,right,['1'],1,21,[-0.05717859],100,44,hard,plus,dotcolour,alfa,,,83,18,V,R,
716,86,2,17,5,33,47,331,['n'],1,right,['2'],2,81,[-0.09575944],100,47,medium,plus,dotcolour,alfa,,,83,18,V,R,
717,87,3,17,5,53,27,298,['n'],0,left,['3'],3,610,[0.11419787],1,53,easy,plus,dotcolour,alfa,,,83,18,V,R,
718,88,4,17,5,33,47,234,['n'],1,right,['0'],6,346,[-0.04377852],94,47,medium,plus,dotcolour,alfa,,,83,18,V,R,
719,89,5,17,5,33,47,198,['c'],0,right,['2'],2,245,[0.08196321],100,47,medium,plus,dotcolour,alfa,,,83,18,V,R,
720,90,6,17,5,33,47,174,['n'],1,right,['2'],2,140,[-0.07203243],100,47,medium,plus,dotcolour,alfa,,,83,18,V,R,
721,91,7,17,5,27,53,216,['n'],1,right,['0'],6,160,[-0.03873126],97,53,easy,plus,dotcolour,alfa,,,83,18,V,R,
722,92,8,17,5,44,36,249,['n'],0,left,['3'],3,296,[-0.08546172],100,44,hard,plus,dotcolour,alfa,,,83,18,V,R,
723,93,9,17,5,27,53,71,['c'],0,right,['1'],1,6,[0.07388206],100,53,easy,plus,dotcolour,alfa,,,83,18,V,R,
724,94,10,17,5,33,47,565,['n'],1,right,"['8', '3']",4,184,[-0.11418047],100,47,medium,plus,dotcolour,alfa,,,83,18,V,R,
725,95,11,17,5,27,53,249,['n'],1,right,['9'],5,257,[-0.128086],100,53,easy,plus,dotcolour,alfa,,,83,18,V,R,
726,96,12,17,5,33,47,175,['n'],1,right,['1'],1,167,[-0.13263554],100,47,medium,plus,dotcolour,alfa,,,83,18,V,R,
727,97,13,17,5,44,36,233,['n'],0,left,['3'],3,168,[-0.06421104],100,44,hard,plus,dotcolour,alfa,,,83,18,V,R,
728,98,14,17,5,36,44,108,['n'],1,right,['2'],2,155,[-0.0743292],100,44,hard,plus,dotcolour,alfa,,,83,18,V,R,
729,99,15,17,5,36,44,132,['n'],1,right,['2'],2,734,[0.01120612],38,44,hard,plus,dotcolour,alfa,,,83,18,V,R,
730,100,16,17,5,47,33,264,['n'],0,left,['8'],4,79,[-0.08273557],100,47,medium,plus,dotcolour,alfa,,,83,18,V,R,
731,101,17,17,5,53,27,197,['n'],0,left,['1'],1,101,[-0.06166727],100,53,easy,plus,dotcolour,alfa,,,83,18,V,R,
732,102,18,17,5,47,33,300,['n'],0,left,['8'],4,166,[-0.08525828],100,47,medium,plus,dotcolour,alfa,,,83,18,V,R,
733,103,19,17,5,53,27,448,['c'],1,left,['0'],6,183,[0.05588399],99,53,easy,plus,dotcolour,alfa,,,83,18,V,R,
734,104,20,17,5,36,44,247,['c'],0,right,['0'],6,207,[-0.00951778],32,44,hard,plus,dotcolour,alfa,,,83,18,V,R,
735,105,21,17,5,53,27,715,['c'],1,left,['0'],6,140,[0.08989661],100,53,easy,plus,dotcolour,alfa,,,83,18,V,R,
736,106,22,17,5,36,44,583,['c'],0,right,['2'],2,135,[0.10694971],100,44,hard,plus,dotcolour,alfa,,,83,18,V,R,
737,107,23,17,5,47,33,398,['c'],1,left,['0'],6,187,[0.10440158],100,47,medium,plus,dotcolour,alfa,,,83,18,V,R,
738,108,24,17,5,53,27,333,['n'],0,left,['8'],4,152,[-0.02960156],94,53,easy,plus,dotcolour,alfa,,,83,18,V,R,
739,109,25,17,5,27,53,448,['c'],0,right,['2'],2,178,[0.02100373],86,53,easy,plus,dotcolour,alfa,,,83,18,V,R,
740,110,26,17,5,53,27,564,['c'],1,left,['8'],4,133,[0.09740038],100,53,easy,plus,dotcolour,alfa,,,83,18,V,R,
741,111,27,17,5,44,36,532,['c'],1,left,['8'],4,52,[0.07500419],100,44,hard,plus,dotcolour,alfa,,,83,18,V,R,
742,112,28,17,5,53,27,1099,['c'],1,left,['1'],1,311,[0.12995973],100,53,easy,plus,dotcolour,alfa,,,83,18,V,R,
743,113,29,17,5,44,36,217,['n'],0,left,['0'],6,211,[-0.06344348],99,44,hard,plus,dotcolour,alfa,,,83,18,V,R,
744,114,30,17,5,47,33,298,['n'],0,left,['8'],4,263,[0.05080587],3,47,medium,plus,dotcolour,alfa,,,83,18,V,R,
745,115,31,17,5,27,53,231,['c'],0,right,['3'],3,181,[0.0915969],100,53,easy,plus,dotcolour,alfa,,,83,18,V,R,
746,116,32,17,5,36,44,316,['n'],1,right,['2'],2,210,[-0.07812353],100,44,hard,plus,dotcolour,alfa,,,83,18,V,R,
747,117,33,17,5,47,33,116,['n'],0,left,['0'],6,139,[-0.07370055],100,47,medium,plus,dotcolour,alfa,,,83,18,V,R,
748,118,34,17,5,47,33,614,['n'],0,left,"['0', '1']",6,198,[-0.06289387],99,47,medium,plus,dotcolour,alfa,,,83,18,V,R,
749,119,35,17,5,44,36,250,['n'],0,left,['0'],6,157,[-0.07148225],100,44,hard,plus,dotcolour,alfa,,,83,18,V,R,
750,120,36,17,5,36,44,283,['c'],0,right,['0'],6,181,[0.02812595],92,44,hard,plus,dotcolour,alfa,,,83,18,V,R,
751,121,37,17,5,44,36,283,['n'],0,left,['3'],3,171,[-0.05299224],99,44,hard,plus,dotcolour,alfa,,,83,18,V,R,
752,122,38,17,5,47,33,348,['n'],0,left,['1'],1,119,[-0.079504],100,47,medium,plus,dotcolour,alfa,,,83,18,V,R,
753,123,39,17,5,44,36,299,['n'],0,left,['3'],3,112,[-0.05218977],100,44,hard,plus,dotcolour,alfa,,,83,18,V,R,
754,124,40,17,5,27,53,547,['n'],1,right,['1'],1,199,[-0.17386974],100,53,easy,plus,dotcolour,alfa,,,83,18,V,R,
755,125,41,17,5,33,47,365,['n'],1,right,['8'],4,169,[0.01177289],26,47,medium,plus,dotcolour,alfa,,,83,18,V,R,
,,,,,,,,,,,,,,,,,,,,,1,,83,18,V,R,
,,,,,,,,,,,,,,,,,,,,,2,['f'],83,18,V,R,
,,,,,,,,,,,,,,,,,,,,,3,['g'],83,18,V,R,
,,,,,,,,,,,,,,,,,,,,,5,[],83,18,V,R,
