trial,withinphasetrial,withinblocktrial,block,phase,dotsLeft,dotsRight,rt,resp,cor,cresp,conf_press,cj,RTconf,ev,fb,diff,difflevel,condition,task,manip,questionID,questionResp,sub,age,gender,handedness,
0,0,0,0,0,53,27,1299,['n'],0,left,['3'],4,3963,[0.51069455],9,53,easy,minus,dotcolour,alfa,,,121,19,V,R,
1,1,1,0,0,36,44,1734,['n'],1,right,['8'],3,774,[-0.1748859],86,44,hard,minus,dotcolour,alfa,,,121,19,V,R,
2,2,2,0,0,44,36,3865,['n'],0,left,['3'],4,1415,[0.09190747],33,44,hard,minus,dotcolour,alfa,,,121,19,V,R,
3,3,3,0,0,36,44,1799,['c'],0,right,['3'],4,1184,[-0.03569094],43,44,hard,minus,dotcolour,alfa,,,121,19,V,R,
4,4,4,0,0,33,47,1548,['n'],1,right,['2'],5,1363,[-0.32025795],92,47,medium,minus,dotcolour,alfa,,,121,19,V,R,
5,5,5,0,0,44,36,1200,['n'],0,left,['2'],5,1006,[0.01568761],46,44,hard,minus,dotcolour,alfa,,,121,19,V,R,
6,6,6,0,0,53,27,1732,['c'],1,left,['2'],5,1721,[0.41471239],95,53,easy,minus,dotcolour,alfa,,,121,19,V,R,
7,7,7,0,0,33,47,1181,['n'],1,right,['2'],5,1951,[-0.26570481],85,47,medium,minus,dotcolour,alfa,,,121,19,V,R,
8,8,8,0,0,47,33,1782,['c'],1,left,['2'],5,907,[0.24545737],91,47,medium,minus,dotcolour,alfa,,,121,19,V,R,
9,9,9,0,0,33,47,898,['n'],1,right,['2'],5,452,[-0.24110115],96,47,medium,minus,dotcolour,alfa,,,121,19,V,R,
10,10,10,0,0,33,47,1213,['n'],1,right,['2'],5,467,[-0.07242337],72,47,medium,minus,dotcolour,alfa,,,121,19,V,R,
11,11,11,0,0,47,33,997,['n'],0,left,['0'],1,2753,[0.29046238],17,47,medium,minus,dotcolour,alfa,,,121,19,V,R,
12,12,12,0,0,44,36,1532,['n'],0,left,['3'],4,1128,[-0.06845014],64,44,hard,minus,dotcolour,alfa,,,121,19,V,R,
13,13,13,0,0,47,33,1398,['c'],1,left,['2'],5,908,[0.29478729],94,47,medium,minus,dotcolour,alfa,,,121,19,V,R,
14,14,14,0,0,36,44,2315,['c'],0,right,['3'],4,636,[-0.01460348],46,44,hard,minus,dotcolour,alfa,,,121,19,V,R,
15,15,15,0,0,53,27,999,['c'],1,left,['2'],5,652,[0.09909158],75,53,easy,minus,dotcolour,alfa,,,121,19,V,R,
16,16,16,0,0,44,36,1065,['c'],1,left,['2'],5,697,[0.32981689],97,44,hard,minus,dotcolour,alfa,,,121,19,V,R,
17,17,17,0,0,27,53,630,['n'],1,right,['2'],5,1094,[-0.19428334],84,53,easy,minus,dotcolour,alfa,,,121,19,V,R,
18,18,18,0,0,47,33,1632,['c'],1,left,['3'],4,1122,[0.15090052],78,47,medium,minus,dotcolour,alfa,,,121,19,V,R,
19,19,19,0,0,44,36,1013,['c'],1,left,['2'],5,1158,[0.02590184],55,44,hard,minus,dotcolour,alfa,,,121,19,V,R,
20,20,20,0,0,27,53,767,['n'],1,right,['3'],4,771,[-0.21252919],90,53,easy,minus,dotcolour,alfa,,,121,19,V,R,
21,21,21,0,0,27,53,1749,['n'],1,right,['3'],4,447,[-0.01094185],54,53,easy,minus,dotcolour,alfa,,,121,19,V,R,
22,22,22,0,0,33,47,3049,['c'],0,right,['8'],3,581,[0.10305168],77,47,medium,minus,dotcolour,alfa,,,121,19,V,R,
23,23,23,0,0,36,44,1532,['c'],0,right,['2'],5,842,[-0.10568917],26,44,hard,minus,dotcolour,alfa,,,121,19,V,R,
24,24,24,0,0,53,27,781,['c'],1,left,['2'],5,859,[0.20226458],88,53,easy,minus,dotcolour,alfa,,,121,19,V,R,
25,25,25,0,0,36,44,1748,['n'],1,right,['8'],3,1260,[-0.16168353],79,44,hard,minus,dotcolour,alfa,,,121,19,V,R,
26,26,26,0,0,47,33,950,['c'],1,left,['2'],5,549,[0.17466575],89,47,medium,minus,dotcolour,alfa,,,121,19,V,R,
27,27,27,0,0,27,53,915,['n'],1,right,['2'],5,716,[-0.27723504],95,53,easy,minus,dotcolour,alfa,,,121,19,V,R,
28,28,28,0,0,27,53,1017,['n'],1,right,['2'],5,584,[-0.20221961],92,53,easy,minus,dotcolour,alfa,,,121,19,V,R,
29,29,29,0,0,27,53,782,['n'],1,right,['2'],5,627,[0.00593806],48,53,easy,minus,dotcolour,alfa,,,121,19,V,R,
30,30,30,0,0,33,47,1063,['c'],0,right,['2'],5,433,[0.00799864],53,47,medium,minus,dotcolour,alfa,,,121,19,V,R,
31,31,31,0,0,44,36,648,['c'],1,left,['2'],5,311,[0.1478762],92,44,hard,minus,dotcolour,alfa,,,121,19,V,R,
32,32,32,0,0,44,36,765,['c'],1,left,['2'],5,301,[0.12235063],88,44,hard,minus,dotcolour,alfa,,,121,19,V,R,
33,33,33,0,0,36,44,682,['c'],0,right,['8'],3,2256,[-0.14464413],30,44,hard,minus,dotcolour,alfa,,,121,19,V,R,
34,34,34,0,0,53,27,799,['c'],1,left,['2'],5,1247,[0.24468984],88,53,easy,minus,dotcolour,alfa,,,121,19,V,R,
35,35,35,0,0,47,33,765,['c'],1,left,['2'],5,264,[0.11244026],88,47,medium,minus,dotcolour,alfa,,,121,19,V,R,
36,36,36,0,0,27,53,832,['n'],1,right,['2'],5,430,[-0.11289971],82,53,easy,minus,dotcolour,alfa,,,121,19,V,R,
37,37,37,0,0,53,27,1113,['c'],1,left,['2'],5,265,[0.16741044],95,53,easy,minus,dotcolour,alfa,,,121,19,V,R,
38,38,38,0,0,33,47,1132,['n'],1,right,['2'],5,419,[-0.09779746],80,47,medium,minus,dotcolour,alfa,,,121,19,V,R,
39,39,39,0,0,36,44,1365,['c'],0,right,['3'],4,638,[0.05019945],64,44,hard,minus,dotcolour,alfa,,,121,19,V,R,
40,40,40,0,0,53,27,882,['c'],1,left,['2'],5,314,[0.10277474],84,53,easy,minus,dotcolour,alfa,,,121,19,V,R,
41,41,41,0,0,47,33,1517,['c'],1,left,['2'],5,1163,[0.13066481],75,47,medium,minus,dotcolour,alfa,,,121,19,V,R,
42,42,0,1,0,47,33,966,['c'],1,left,['2'],5,629,[0.1559549],85,47,medium,minus,dotcolour,alfa,,,121,19,V,R,
43,43,1,1,0,36,44,963,['n'],1,right,['2'],5,647,[-0.13036112],81,44,hard,minus,dotcolour,alfa,,,121,19,V,R,
44,44,2,1,0,36,44,1232,['n'],1,right,['3'],4,805,[-0.25465239],93,44,hard,minus,dotcolour,alfa,,,121,19,V,R,
45,45,3,1,0,36,44,1133,['c'],0,right,['3'],4,713,[0.12610978],79,44,hard,minus,dotcolour,alfa,,,121,19,V,R,
46,46,4,1,0,36,44,1116,['n'],1,right,['2'],5,529,[0.04702376],36,44,hard,minus,dotcolour,alfa,,,121,19,V,R,
47,47,5,1,0,44,36,1565,['c'],1,left,['3'],4,375,[0.14962875],90,44,hard,minus,dotcolour,alfa,,,121,19,V,R,
48,48,6,1,0,36,44,847,['n'],1,right,['2'],5,568,[-0.05993512],67,44,hard,minus,dotcolour,alfa,,,121,19,V,R,
49,49,7,1,0,27,53,782,['n'],1,right,['2'],5,339,[-0.11143263],85,53,easy,minus,dotcolour,alfa,,,121,19,V,R,
50,50,8,1,0,44,36,1547,['c'],1,left,['3'],4,553,[0.13147212],83,44,hard,minus,dotcolour,alfa,,,121,19,V,R,
51,51,9,1,0,27,53,797,['n'],1,right,['2'],5,421,[-0.1128096],83,53,easy,minus,dotcolour,alfa,,,121,19,V,R,
52,52,10,1,0,33,47,2147,['n'],1,right,['3'],4,455,[-0.06126629],69,47,medium,minus,dotcolour,alfa,,,121,19,V,R,
53,53,11,1,0,47,33,866,['c'],1,left,['2'],5,531,[0.14011713],85,47,medium,minus,dotcolour,alfa,,,121,19,V,R,
54,54,12,1,0,33,47,917,['n'],1,right,['2'],5,443,[-0.07162753],72,47,medium,minus,dotcolour,alfa,,,121,19,V,R,
55,55,13,1,0,53,27,1431,['c'],1,left,['2'],5,474,[0.24967533],96,53,easy,minus,dotcolour,alfa,,,121,19,V,R,
56,56,14,1,0,47,33,948,['c'],1,left,['2'],5,442,[0.19017413],93,47,medium,minus,dotcolour,alfa,,,121,19,V,R,
57,57,15,1,0,44,36,1398,['c'],1,left,['2'],5,442,[0.13229936],86,44,hard,minus,dotcolour,alfa,,,121,19,V,R,
58,58,16,1,0,27,53,1415,['n'],1,right,['2'],5,545,[-0.08584159],74,53,easy,minus,dotcolour,alfa,,,121,19,V,R,
59,59,17,1,0,53,27,1131,['c'],1,left,['2'],5,327,[0.12194823],87,53,easy,minus,dotcolour,alfa,,,121,19,V,R,
60,60,18,1,0,27,53,1082,['n'],1,right,['2'],5,360,[-0.11826011],85,53,easy,minus,dotcolour,alfa,,,121,19,V,R,
61,61,19,1,0,44,36,732,['c'],1,left,['2'],5,414,[0.00994006],53,44,hard,minus,dotcolour,alfa,,,121,19,V,R,
62,62,20,1,0,47,33,917,['c'],1,left,['2'],5,290,[0.18839865],96,47,medium,minus,dotcolour,alfa,,,121,19,V,R,
63,63,21,1,0,53,27,865,['c'],1,left,['2'],5,189,[0.09667626],88,53,easy,minus,dotcolour,alfa,,,121,19,V,R,
64,64,22,1,0,27,53,1032,['n'],1,right,['2'],5,294,[-0.16333874],94,53,easy,minus,dotcolour,alfa,,,121,19,V,R,
65,65,23,1,0,36,44,1198,['n'],1,right,['2'],5,252,[0.00441672],48,44,hard,minus,dotcolour,alfa,,,121,19,V,R,
66,66,24,1,0,53,27,966,['c'],1,left,['2'],5,205,[0.09457875],87,53,easy,minus,dotcolour,alfa,,,121,19,V,R,
67,67,25,1,0,47,33,815,['c'],1,left,['2'],5,342,[0.17799326],94,47,medium,minus,dotcolour,alfa,,,121,19,V,R,
68,68,26,1,0,44,36,1965,['n'],0,left,['3'],4,395,[0.01533989],45,44,hard,minus,dotcolour,alfa,,,121,19,V,R,
69,69,27,1,0,33,47,730,['n'],1,right,['3'],4,415,[-0.12692281],85,47,medium,minus,dotcolour,alfa,,,121,19,V,R,
70,70,28,1,0,47,33,765,['n'],0,left,['0'],1,2322,[0.13520537],31,47,medium,minus,dotcolour,alfa,,,121,19,V,R,
71,71,29,1,0,53,27,1531,['c'],1,left,['2'],5,625,[0.07110575],69,53,easy,minus,dotcolour,alfa,,,121,19,V,R,
72,72,30,1,0,33,47,781,['n'],1,right,['3'],4,770,[-0.22643551],91,47,medium,minus,dotcolour,alfa,,,121,19,V,R,
73,73,31,1,0,33,47,1849,['n'],1,right,['3'],4,442,[-0.07112872],72,47,medium,minus,dotcolour,alfa,,,121,19,V,R,
74,74,32,1,0,53,27,1483,['c'],1,left,['2'],5,951,[0.13611824],78,53,easy,minus,dotcolour,alfa,,,121,19,V,R,
75,75,33,1,0,33,47,3515,['c'],0,right,['3'],4,694,[-0.04900231],37,47,medium,minus,dotcolour,alfa,,,121,19,V,R,
76,76,34,1,0,27,53,697,['n'],1,right,['2'],5,631,[-0.21889101],92,53,easy,minus,dotcolour,alfa,,,121,19,V,R,
77,77,35,1,0,53,27,880,['c'],1,left,['2'],5,428,[0.20596174],94,53,easy,minus,dotcolour,alfa,,,121,19,V,R,
78,78,36,1,0,47,33,1650,['c'],1,left,['2'],5,298,[0.06833886],76,47,medium,minus,dotcolour,alfa,,,121,19,V,R,
79,79,37,1,0,44,36,764,['c'],1,left,['2'],5,274,[0.13113526],91,44,hard,minus,dotcolour,alfa,,,121,19,V,R,
80,80,38,1,0,44,36,1433,['c'],1,left,['2'],5,302,[0.03194575],63,44,hard,minus,dotcolour,alfa,,,121,19,V,R,
81,81,39,1,0,36,44,982,['c'],0,right,['2'],5,293,[0.02952605],62,44,hard,minus,dotcolour,alfa,,,121,19,V,R,
82,82,40,1,0,27,53,1083,['n'],1,right,['2'],5,320,[-0.09618356],82,53,easy,minus,dotcolour,alfa,,,121,19,V,R,
83,83,41,1,0,33,47,2532,['n'],1,right,['3'],4,463,[-0.14605933],87,47,medium,minus,dotcolour,alfa,,,121,19,V,R,
84,84,0,2,0,47,33,4065,['n'],0,left,['3'],4,660,[0.10311442],24,47,medium,minus,dotcolour,alfa,,,121,19,V,R,
85,85,1,2,0,33,47,832,['n'],1,right,['2'],5,785,[0.02399442],44,47,medium,minus,dotcolour,alfa,,,121,19,V,R,
86,86,2,2,0,27,53,1181,['n'],1,right,['2'],5,621,[-0.06603365],68,53,easy,minus,dotcolour,alfa,,,121,19,V,R,
87,87,3,2,0,27,53,766,['n'],1,right,['2'],5,471,[-0.05640681],68,53,easy,minus,dotcolour,alfa,,,121,19,V,R,
88,88,4,2,0,44,36,849,['n'],0,left,['3'],4,603,[-0.12784607],81,44,hard,minus,dotcolour,alfa,,,121,19,V,R,
89,89,5,2,0,33,47,448,['n'],1,right,['2'],5,523,[-0.17722997],90,47,medium,minus,dotcolour,alfa,,,121,19,V,R,
90,90,6,2,0,44,36,2064,['c'],1,left,['2'],5,525,[0.09343504],76,44,hard,minus,dotcolour,alfa,,,121,19,V,R,
91,91,7,2,0,44,36,1082,['c'],1,left,['2'],5,294,[0.12325232],89,44,hard,minus,dotcolour,alfa,,,121,19,V,R,
92,92,8,2,0,53,27,633,['c'],1,left,['2'],5,331,[0.21034492],96,53,easy,minus,dotcolour,alfa,,,121,19,V,R,
93,93,9,2,0,44,36,664,['c'],1,left,['2'],5,220,[0.09436575],86,44,hard,minus,dotcolour,alfa,,,121,19,V,R,
94,94,10,2,0,44,36,664,['c'],1,left,['2'],5,530,[0.26782593],96,44,hard,minus,dotcolour,alfa,,,121,19,V,R,
95,95,11,2,0,36,44,1632,['n'],1,right,['2'],5,469,[-0.05423494],67,44,hard,minus,dotcolour,alfa,,,121,19,V,R,
96,96,12,2,0,36,44,1132,['c'],0,right,['2'],5,223,[0.07332366],80,44,hard,minus,dotcolour,alfa,,,121,19,V,R,
97,97,13,2,0,36,44,1914,['c'],0,right,['2'],5,244,[0.00911891],54,44,hard,minus,dotcolour,alfa,,,121,19,V,R,
98,98,14,2,0,47,33,882,['c'],1,left,['2'],5,208,[0.20946091],98,47,medium,minus,dotcolour,alfa,,,121,19,V,R,
99,99,15,2,0,36,44,734,['n'],1,right,['3'],4,1212,[0.04282186],41,44,hard,minus,dotcolour,alfa,,,121,19,V,R,
100,100,16,2,0,33,47,1531,['n'],1,right,['3'],4,752,[-0.1189441],77,47,medium,minus,dotcolour,alfa,,,121,19,V,R,
101,101,17,2,0,47,33,1297,['c'],1,left,['3'],4,551,[0.08686508],74,47,medium,minus,dotcolour,alfa,,,121,19,V,R,
102,102,18,2,0,47,33,1232,['c'],1,left,['3'],4,224,[0.14230531],94,47,medium,minus,dotcolour,alfa,,,121,19,V,R,
103,103,19,2,0,36,44,1214,['n'],1,right,['3'],4,304,[-0.140805],91,44,hard,minus,dotcolour,alfa,,,121,19,V,R,
104,104,20,2,0,53,27,899,['c'],1,left,['2'],5,289,[0.12109514],88,53,easy,minus,dotcolour,alfa,,,121,19,V,R,
105,105,21,2,0,27,53,1364,['n'],1,right,['2'],5,536,[-0.09126088],75,53,easy,minus,dotcolour,alfa,,,121,19,V,R,
106,106,22,2,0,53,27,733,['c'],1,left,['2'],5,511,[0.31517834],98,53,easy,minus,dotcolour,alfa,,,121,19,V,R,
107,107,23,2,0,53,27,748,['c'],1,left,['2'],5,262,[0.08821469],83,53,easy,minus,dotcolour,alfa,,,121,19,V,R,
108,108,24,2,0,33,47,850,['n'],1,right,['3'],4,555,[-0.08028453],73,47,medium,minus,dotcolour,alfa,,,121,19,V,R,
109,109,25,2,0,33,47,1149,['n'],1,right,['3'],4,232,[-0.13710364],93,47,medium,minus,dotcolour,alfa,,,121,19,V,R,
110,110,26,2,0,47,33,1281,['c'],1,left,['2'],5,542,[0.09780446],77,47,medium,minus,dotcolour,alfa,,,121,19,V,R,
111,111,27,2,0,53,27,815,['c'],1,left,['2'],5,249,[0.19065332],97,53,easy,minus,dotcolour,alfa,,,121,19,V,R,
112,112,28,2,0,27,53,681,['n'],1,right,['2'],5,397,[-0.07052902],73,53,easy,minus,dotcolour,alfa,,,121,19,V,R,
113,113,29,2,0,33,47,731,['c'],0,right,['2'],5,257,[0.09802326],85,47,medium,minus,dotcolour,alfa,,,121,19,V,R,
114,114,30,2,0,33,47,849,['n'],1,right,['2'],5,182,[0.02811686],36,47,medium,minus,dotcolour,alfa,,,121,19,V,R,
115,115,31,2,0,44,36,932,['c'],1,left,['2'],5,259,[0.19208665],97,44,hard,minus,dotcolour,alfa,,,121,19,V,R,
116,116,32,2,0,27,53,881,['n'],1,right,['3'],4,751,[-0.15614168],84,53,easy,minus,dotcolour,alfa,,,121,19,V,R,
117,117,33,2,0,44,36,632,['c'],1,left,['2'],5,233,[0.11338598],89,44,hard,minus,dotcolour,alfa,,,121,19,V,R,
118,118,34,2,0,47,33,982,['c'],1,left,['3'],4,298,[-0.0956924],17,47,medium,minus,dotcolour,alfa,,,121,19,V,R,
119,119,35,2,0,27,53,832,['n'],1,right,['2'],5,310,[-0.12578703],88,53,easy,minus,dotcolour,alfa,,,121,19,V,R,
120,120,36,2,0,36,44,1048,['n'],1,right,['3'],4,377,[-0.15448206],91,44,hard,minus,dotcolour,alfa,,,121,19,V,R,
121,121,37,2,0,47,33,1083,['c'],1,left,['2'],5,233,[0.05634184],74,47,medium,minus,dotcolour,alfa,,,121,19,V,R,
122,122,38,2,0,36,44,1682,['n'],1,right,['3'],4,397,[-0.02962325],60,44,hard,minus,dotcolour,alfa,,,121,19,V,R,
123,123,39,2,0,53,27,764,['c'],1,left,['2'],5,320,[0.1642025],93,53,easy,minus,dotcolour,alfa,,,121,19,V,R,
124,124,40,2,0,53,27,781,['c'],1,left,['2'],5,197,[0.09066829],86,53,easy,minus,dotcolour,alfa,,,121,19,V,R,
125,125,41,2,0,27,53,881,['n'],1,right,['2'],5,372,[-0.08309191],77,53,easy,minus,dotcolour,alfa,,,121,19,V,R,
126,0,0,3,1,33,47,2049,['n'],1,right,['2'],5,915,[-0.18803345],100,47,medium,plus,dotcolour,alfa,,,121,19,V,R,
127,1,1,3,1,33,47,1115,['n'],1,right,['2'],5,386,[-0.03374123],88,47,medium,plus,dotcolour,alfa,,,121,19,V,R,
128,2,2,3,1,47,33,1214,['c'],1,left,['2'],5,283,[0.13358884],100,47,medium,plus,dotcolour,alfa,,,121,19,V,R,
129,3,3,3,1,33,47,1166,['n'],1,right,['2'],5,307,[-0.13292766],100,47,medium,plus,dotcolour,alfa,,,121,19,V,R,
130,4,4,3,1,53,27,1782,['c'],1,left,['2'],5,313,[0.17409164],100,53,easy,plus,dotcolour,alfa,,,121,19,V,R,
131,5,5,3,1,53,27,847,['c'],1,left,['2'],5,684,[0.10641897],99,53,easy,plus,dotcolour,alfa,,,121,19,V,R,
132,6,6,3,1,44,36,733,['c'],1,left,['2'],5,133,[0.03547865],97,44,hard,plus,dotcolour,alfa,,,121,19,V,R,
133,7,7,3,1,44,36,915,['c'],1,left,['2'],5,189,[0.10181517],100,44,hard,plus,dotcolour,alfa,,,121,19,V,R,
134,8,8,3,1,33,47,832,['n'],1,right,['3'],4,950,[-0.05436763],88,47,medium,plus,dotcolour,alfa,,,121,19,V,R,
135,9,9,3,1,53,27,880,['n'],0,left,['2'],5,302,[-0.03414075],90,53,easy,plus,dotcolour,alfa,,,121,19,V,R,
136,10,10,3,1,36,44,748,['n'],1,right,['9'],2,1301,[-0.06512394],89,44,hard,plus,dotcolour,alfa,,,121,19,V,R,
137,11,11,3,1,47,33,4016,['c'],1,left,['2'],5,226,[0.03861624],95,47,medium,plus,dotcolour,alfa,,,121,19,V,R,
138,12,12,3,1,36,44,666,['n'],1,right,['3'],4,720,[-0.25384687],100,44,hard,plus,dotcolour,alfa,,,121,19,V,R,
139,13,13,3,1,33,47,2168,['n'],1,right,['3'],4,1750,[-0.27537495],100,47,medium,plus,dotcolour,alfa,,,121,19,V,R,
140,14,14,3,1,36,44,682,['n'],1,right,['2'],5,477,[-0.02536909],79,44,hard,plus,dotcolour,alfa,,,121,19,V,R,
141,15,15,3,1,44,36,816,['c'],1,left,['2'],5,307,[-0.02182875],19,44,hard,plus,dotcolour,alfa,,,121,19,V,R,
142,16,16,3,1,53,27,3966,['c'],1,left,['3'],4,1066,[0.15920228],100,53,easy,plus,dotcolour,alfa,,,121,19,V,R,
143,17,17,3,1,44,36,2431,['c'],1,left,['3'],4,424,[0.08375746],99,44,hard,plus,dotcolour,alfa,,,121,19,V,R,
144,18,18,3,1,27,53,700,['n'],1,right,['3'],4,508,[-0.22298339],100,53,easy,plus,dotcolour,alfa,,,121,19,V,R,
145,19,19,3,1,36,44,1550,['n'],1,right,['3'],4,299,[-0.07063606],99,44,hard,plus,dotcolour,alfa,,,121,19,V,R,
146,20,20,3,1,27,53,715,['n'],1,right,['2'],5,420,[-0.05462229],95,53,easy,plus,dotcolour,alfa,,,121,19,V,R,
147,21,21,3,1,27,53,664,['n'],1,right,['2'],5,290,[-0.1241397],100,53,easy,plus,dotcolour,alfa,,,121,19,V,R,
148,22,22,3,1,36,44,748,['n'],1,right,['2'],5,218,[-0.06741236],99,44,hard,plus,dotcolour,alfa,,,121,19,V,R,
149,23,23,3,1,44,36,881,['n'],0,left,['2'],5,246,[0.01812495],21,44,hard,plus,dotcolour,alfa,,,121,19,V,R,
150,24,24,3,1,44,36,748,['c'],1,left,['2'],5,256,[0.06721713],99,44,hard,plus,dotcolour,alfa,,,121,19,V,R,
151,25,25,3,1,27,53,715,['n'],1,right,['2'],5,322,[-0.13970391],100,53,easy,plus,dotcolour,alfa,,,121,19,V,R,
152,26,26,3,1,36,44,999,['c'],0,right,['2'],5,296,[0.05253038],97,44,hard,plus,dotcolour,alfa,,,121,19,V,R,
153,27,27,3,1,47,33,649,['c'],1,left,['2'],5,259,[-0.00754678],37,47,medium,plus,dotcolour,alfa,,,121,19,V,R,
154,28,28,3,1,27,53,681,['n'],1,right,['2'],5,239,[-0.06416107],99,53,easy,plus,dotcolour,alfa,,,121,19,V,R,
155,29,29,3,1,53,27,748,['c'],1,left,['2'],5,208,[0.15008261],100,53,easy,plus,dotcolour,alfa,,,121,19,V,R,
156,30,30,3,1,53,27,715,['c'],1,left,['2'],5,157,[0.10714493],100,53,easy,plus,dotcolour,alfa,,,121,19,V,R,
157,31,31,3,1,47,33,2432,['c'],1,left,['3'],4,503,[0.14951718],100,47,medium,plus,dotcolour,alfa,,,121,19,V,R,
158,32,32,3,1,47,33,965,['c'],1,left,['2'],5,165,[0.09158312],100,47,medium,plus,dotcolour,alfa,,,121,19,V,R,
159,33,33,3,1,47,33,631,['c'],1,left,['2'],5,999,[0.1655545],100,47,medium,plus,dotcolour,alfa,,,121,19,V,R,
160,34,34,3,1,33,47,615,['c'],0,right,['2'],5,159,[0.01248023],76,47,medium,plus,dotcolour,alfa,,,121,19,V,R,
161,35,35,3,1,33,47,964,['n'],1,right,['2'],5,411,[-0.020484],76,47,medium,plus,dotcolour,alfa,,,121,19,V,R,
162,36,36,3,1,47,33,2315,['c'],1,left,['2'],5,184,[0.04273687],97,47,medium,plus,dotcolour,alfa,,,121,19,V,R,
163,37,37,3,1,36,44,1182,['n'],1,right,['2'],5,219,[-0.12181041],100,44,hard,plus,dotcolour,alfa,,,121,19,V,R,
164,38,38,3,1,44,36,849,['c'],1,left,['2'],5,209,[0.04687049],98,44,hard,plus,dotcolour,alfa,,,121,19,V,R,
165,39,39,3,1,27,53,849,['n'],1,right,['2'],5,240,[-0.06025713],99,53,easy,plus,dotcolour,alfa,,,121,19,V,R,
166,40,40,3,1,27,53,698,['n'],1,right,['2'],5,228,[-0.0319724],92,53,easy,plus,dotcolour,alfa,,,121,19,V,R,
167,41,41,3,1,53,27,584,['c'],1,left,['2'],5,253,[0.15305396],100,53,easy,plus,dotcolour,alfa,,,121,19,V,R,
168,42,0,4,1,47,33,916,['c'],1,left,['2'],5,1046,[0.32973334],100,47,medium,plus,dotcolour,alfa,,,121,19,V,R,
169,43,1,4,1,53,27,531,['c'],1,left,['2'],5,208,[0.08820218],100,53,easy,plus,dotcolour,alfa,,,121,19,V,R,
170,44,2,4,1,36,44,998,['n'],1,right,['2'],5,201,[-0.09928241],100,44,hard,plus,dotcolour,alfa,,,121,19,V,R,
171,45,3,4,1,33,47,715,['c'],0,right,['2'],5,158,[0.10728524],100,47,medium,plus,dotcolour,alfa,,,121,19,V,R,
172,46,4,4,1,44,36,849,['c'],1,left,['2'],5,175,[0.12418437],100,44,hard,plus,dotcolour,alfa,,,121,19,V,R,
173,47,5,4,1,53,27,666,['c'],1,left,['2'],5,135,[0.06118087],100,53,easy,plus,dotcolour,alfa,,,121,19,V,R,
174,48,6,4,1,44,36,665,['c'],1,left,['2'],5,168,[0.04685786],98,44,hard,plus,dotcolour,alfa,,,121,19,V,R,
175,49,7,4,1,47,33,1448,['c'],1,left,['2'],5,65,[0.07255463],100,47,medium,plus,dotcolour,alfa,,,121,19,V,R,
176,50,8,4,1,27,53,783,['n'],1,right,['2'],5,240,[-0.09713977],100,53,easy,plus,dotcolour,alfa,,,121,19,V,R,
177,51,9,4,1,27,53,633,['n'],1,right,['2'],5,142,[-0.04997486],99,53,easy,plus,dotcolour,alfa,,,121,19,V,R,
178,52,10,4,1,33,47,1098,['n'],1,right,['2'],5,214,[-0.09430528],100,47,medium,plus,dotcolour,alfa,,,121,19,V,R,
179,53,11,4,1,27,53,648,['n'],1,right,['2'],5,150,[-0.13545787],100,53,easy,plus,dotcolour,alfa,,,121,19,V,R,
180,54,12,4,1,36,44,1081,['n'],1,right,['2'],5,221,[-0.09016589],100,44,hard,plus,dotcolour,alfa,,,121,19,V,R,
181,55,13,4,1,44,36,2249,['c'],1,left,['3'],4,732,[0.04350545],86,44,hard,plus,dotcolour,alfa,,,121,19,V,R,
182,56,14,4,1,47,33,1882,['n'],0,left,['3'],4,725,[-0.03371322],81,47,medium,plus,dotcolour,alfa,,,121,19,V,R,
183,57,15,4,1,27,53,798,['n'],1,right,['2'],5,226,[-0.09995177],100,53,easy,plus,dotcolour,alfa,,,121,19,V,R,
184,58,16,4,1,36,44,1649,['c'],0,right,['3'],4,1136,[0.05395513],86,44,hard,plus,dotcolour,alfa,,,121,19,V,R,
185,59,17,4,1,44,36,883,['c'],1,left,['3'],4,168,[0.12512351],100,44,hard,plus,dotcolour,alfa,,,121,19,V,R,
186,60,18,4,1,47,33,1498,['c'],1,left,['3'],4,375,[0.05362549],96,47,medium,plus,dotcolour,alfa,,,121,19,V,R,
187,61,19,4,1,27,53,2748,['c'],0,right,['3'],4,83,[0.10797689],100,53,easy,plus,dotcolour,alfa,,,121,19,V,R,
188,62,20,4,1,44,36,766,['c'],1,left,['3'],4,75,[0.06003735],100,44,hard,plus,dotcolour,alfa,,,121,19,V,R,
189,63,21,4,1,53,27,900,['c'],1,left,['3'],4,205,[0.09645958],100,53,easy,plus,dotcolour,alfa,,,121,19,V,R,
190,64,22,4,1,53,27,1149,['c'],1,left,['2'],5,337,[-0.03610139],10,53,easy,plus,dotcolour,alfa,,,121,19,V,R,
191,65,23,4,1,47,33,1766,['n'],0,left,['2'],5,278,[0.08702345],0,47,medium,plus,dotcolour,alfa,,,121,19,V,R,
192,66,24,4,1,36,44,1182,['c'],0,right,['2'],5,325,[0.00354534],56,44,hard,plus,dotcolour,alfa,,,121,19,V,R,
193,67,25,4,1,44,36,848,['c'],1,left,['2'],5,207,[0.07716882],100,44,hard,plus,dotcolour,alfa,,,121,19,V,R,
194,68,26,4,1,33,47,799,['c'],0,right,['3'],4,657,[0.2233664],100,47,medium,plus,dotcolour,alfa,,,121,19,V,R,
195,69,27,4,1,53,27,748,['c'],1,left,['3'],4,210,[0.08042765],100,53,easy,plus,dotcolour,alfa,,,121,19,V,R,
196,70,28,4,1,36,44,948,['c'],0,right,['3'],4,893,[-0.09252863],3,44,hard,plus,dotcolour,alfa,,,121,19,V,R,
197,71,29,4,1,36,44,965,['n'],1,right,['2'],5,180,[-0.11683618],100,44,hard,plus,dotcolour,alfa,,,121,19,V,R,
198,72,30,4,1,53,27,648,['c'],1,left,['2'],5,220,[0.10410484],100,53,easy,plus,dotcolour,alfa,,,121,19,V,R,
199,73,31,4,1,33,47,1099,['n'],1,right,['2'],5,353,[-0.13154164],100,47,medium,plus,dotcolour,alfa,,,121,19,V,R,
200,74,32,4,1,27,53,949,['n'],1,right,['2'],5,327,[-0.13519609],100,53,easy,plus,dotcolour,alfa,,,121,19,V,R,
201,75,33,4,1,33,47,865,['n'],1,right,['3'],4,624,[-0.02623732],77,47,medium,plus,dotcolour,alfa,,,121,19,V,R,
202,76,34,4,1,47,33,799,['c'],1,left,['2'],5,169,[0.07496992],100,47,medium,plus,dotcolour,alfa,,,121,19,V,R,
203,77,35,4,1,36,44,900,['c'],0,right,['9'],2,1600,[-0.02609213],32,44,hard,plus,dotcolour,alfa,,,121,19,V,R,
204,78,36,4,1,33,47,1467,['n'],1,right,['3'],4,831,[-0.1667464],100,47,medium,plus,dotcolour,alfa,,,121,19,V,R,
205,79,37,4,1,44,36,1032,['n'],0,left,['3'],4,277,[-0.03568833],92,44,hard,plus,dotcolour,alfa,,,121,19,V,R,
206,80,38,4,1,27,53,783,['n'],1,right,['3'],4,229,[-0.16323174],100,53,easy,plus,dotcolour,alfa,,,121,19,V,R,
207,81,39,4,1,47,33,1450,['c'],1,left,['2'],5,403,[0.03840945],90,47,medium,plus,dotcolour,alfa,,,121,19,V,R,
208,82,40,4,1,33,47,615,['n'],1,right,['3'],4,284,[-0.1101286],100,47,medium,plus,dotcolour,alfa,,,121,19,V,R,
209,83,41,4,1,53,27,731,['c'],1,left,['2'],5,149,[0.07289686],100,53,easy,plus,dotcolour,alfa,,,121,19,V,R,
210,84,0,5,1,53,27,600,['c'],1,left,['2'],5,265,[0.1362827],100,53,easy,plus,dotcolour,alfa,,,121,19,V,R,
211,85,1,5,1,47,33,582,['c'],1,left,['2'],5,48,[0.1166019],100,47,medium,plus,dotcolour,alfa,,,121,19,V,R,
212,86,2,5,1,44,36,632,['c'],1,left,['2'],5,175,[0.11931046],100,44,hard,plus,dotcolour,alfa,,,121,19,V,R,
213,87,3,5,1,47,33,799,['c'],1,left,['2'],5,161,[0.11775868],100,47,medium,plus,dotcolour,alfa,,,121,19,V,R,
214,88,4,5,1,27,53,1132,['n'],1,right,['2'],5,639,[-0.05724418],93,53,easy,plus,dotcolour,alfa,,,121,19,V,R,
215,89,5,5,1,27,53,699,['n'],1,right,['2'],5,258,[-0.14435473],100,53,easy,plus,dotcolour,alfa,,,121,19,V,R,
216,90,6,5,1,27,53,698,['n'],1,right,['2'],5,157,[-0.07427491],100,53,easy,plus,dotcolour,alfa,,,121,19,V,R,
217,91,7,5,1,44,36,1032,['c'],1,left,['2'],5,143,[0.11930325],100,44,hard,plus,dotcolour,alfa,,,121,19,V,R,
218,92,8,5,1,47,33,698,['c'],1,left,['2'],5,231,[0.1370195],100,47,medium,plus,dotcolour,alfa,,,121,19,V,R,
219,93,9,5,1,44,36,449,['c'],1,left,['2'],5,125,[0.11181315],100,44,hard,plus,dotcolour,alfa,,,121,19,V,R,
220,94,10,5,1,36,44,1730,['n'],1,right,['2'],5,188,[-0.08086349],100,44,hard,plus,dotcolour,alfa,,,121,19,V,R,
221,95,11,5,1,47,33,565,['c'],1,left,['2'],5,175,[0.09706772],100,47,medium,plus,dotcolour,alfa,,,121,19,V,R,
222,96,12,5,1,27,53,899,['n'],1,right,['2'],5,173,[-0.09043037],100,53,easy,plus,dotcolour,alfa,,,121,19,V,R,
223,97,13,5,1,53,27,566,['c'],1,left,['2'],5,153,[0.07970133],100,53,easy,plus,dotcolour,alfa,,,121,19,V,R,
224,98,14,5,1,33,47,1748,['n'],1,right,['2'],5,271,[-0.0268276],86,47,medium,plus,dotcolour,alfa,,,121,19,V,R,
225,99,15,5,1,36,44,882,['n'],1,right,['2'],5,642,[-0.08311963],98,44,hard,plus,dotcolour,alfa,,,121,19,V,R,
226,100,16,5,1,36,44,582,['n'],1,right,['2'],5,218,[-0.03624243],94,44,hard,plus,dotcolour,alfa,,,121,19,V,R,
227,101,17,5,1,44,36,515,['c'],1,left,['2'],5,166,[0.08267892],100,44,hard,plus,dotcolour,alfa,,,121,19,V,R,
228,102,18,5,1,33,47,932,['n'],1,right,['2'],5,132,[-0.12174351],100,47,medium,plus,dotcolour,alfa,,,121,19,V,R,
229,103,19,5,1,27,53,682,['n'],1,right,['2'],5,205,[-0.08156805],100,53,easy,plus,dotcolour,alfa,,,121,19,V,R,
230,104,20,5,1,44,36,648,['c'],1,left,['2'],5,148,[0.05876604],100,44,hard,plus,dotcolour,alfa,,,121,19,V,R,
231,105,21,5,1,36,44,981,['n'],1,right,['2'],5,129,[-0.04619935],99,44,hard,plus,dotcolour,alfa,,,121,19,V,R,
232,106,22,5,1,33,47,999,['n'],1,right,['2'],5,157,[-0.12422602],100,47,medium,plus,dotcolour,alfa,,,121,19,V,R,
233,107,23,5,1,47,33,616,['c'],1,left,['2'],5,143,[0.1565666],100,47,medium,plus,dotcolour,alfa,,,121,19,V,R,
234,108,24,5,1,27,53,616,['n'],1,right,['2'],5,138,[-0.05740486],100,53,easy,plus,dotcolour,alfa,,,121,19,V,R,
235,109,25,5,1,36,44,765,['n'],1,right,['2'],5,143,[-0.04683879],99,44,hard,plus,dotcolour,alfa,,,121,19,V,R,
236,110,26,5,1,53,27,666,['c'],1,left,['2'],5,128,[0.06617841],100,53,easy,plus,dotcolour,alfa,,,121,19,V,R,
237,111,27,5,1,53,27,566,['c'],1,left,['2'],5,173,[0.07578622],100,53,easy,plus,dotcolour,alfa,,,121,19,V,R,
238,112,28,5,1,33,47,849,['n'],1,right,['2'],5,175,[-0.0536204],99,47,medium,plus,dotcolour,alfa,,,121,19,V,R,
239,113,29,5,1,33,47,832,['n'],1,right,['2'],5,127,[0.01075155],25,47,medium,plus,dotcolour,alfa,,,121,19,V,R,
240,114,30,5,1,53,27,1283,['n'],0,left,['0'],1,1841,[0.02690013],33,53,easy,plus,dotcolour,alfa,,,121,19,V,R,
241,115,31,5,1,33,47,781,['n'],1,right,['2'],5,1064,[-0.12911327],99,47,medium,plus,dotcolour,alfa,,,121,19,V,R,
242,116,32,5,1,36,44,966,['c'],0,right,['2'],5,81,[0.02776365],97,44,hard,plus,dotcolour,alfa,,,121,19,V,R,
243,117,33,5,1,47,33,832,['c'],1,left,['2'],5,13,[0.07121382],100,47,medium,plus,dotcolour,alfa,,,121,19,V,R,
244,118,34,5,1,53,27,582,['c'],1,left,['2'],5,135,[0.07659202],100,53,easy,plus,dotcolour,alfa,,,121,19,V,R,
245,119,35,5,1,47,33,631,['c'],1,left,['2'],5,130,[0.08714482],100,47,medium,plus,dotcolour,alfa,,,121,19,V,R,
246,120,36,5,1,44,36,632,['c'],1,left,['2'],5,102,[0.08268285],100,44,hard,plus,dotcolour,alfa,,,121,19,V,R,
247,121,37,5,1,44,36,1015,['c'],1,left,['2'],5,1082,[0.22678887],100,44,hard,plus,dotcolour,alfa,,,121,19,V,R,
248,122,38,5,1,27,53,714,['n'],1,right,['2'],5,259,[-0.02418733],85,53,easy,plus,dotcolour,alfa,,,121,19,V,R,
249,123,39,5,1,33,47,816,['n'],1,right,['2'],5,170,[-0.07524005],100,47,medium,plus,dotcolour,alfa,,,121,19,V,R,
250,124,40,5,1,53,27,715,['c'],1,left,['2'],5,97,[0.11808332],100,53,easy,plus,dotcolour,alfa,,,121,19,V,R,
251,125,41,5,1,36,44,1318,['n'],1,right,['2'],5,337,[-0.0635096],98,44,hard,plus,dotcolour,alfa,,,121,19,V,R,
252,0,0,6,2,44,36,1699,['c'],1,left,['2'],5,615,[0.02208485],56,44,hard,minus,dotcolour,alfa,,,121,19,V,R,
253,1,1,6,2,44,36,849,['c'],1,left,['2'],5,53,[0.06891687],94,44,hard,minus,dotcolour,alfa,,,121,19,V,R,
254,2,2,6,2,36,44,699,['c'],0,right,['2'],5,200,[-0.01127548],44,44,hard,minus,dotcolour,alfa,,,121,19,V,R,
255,3,3,6,2,47,33,516,['c'],1,left,['2'],5,125,[0.06162624],83,47,medium,minus,dotcolour,alfa,,,121,19,V,R,
256,4,4,6,2,47,33,815,['c'],1,left,['2'],5,105,[0.04975135],80,47,medium,minus,dotcolour,alfa,,,121,19,V,R,
257,5,5,6,2,53,27,465,['c'],1,left,['2'],5,172,[0.07652568],84,53,easy,minus,dotcolour,alfa,,,121,19,V,R,
258,6,6,6,2,36,44,1383,['n'],1,right,['2'],5,343,[-0.0425379],66,44,hard,minus,dotcolour,alfa,,,121,19,V,R,
259,7,7,6,2,47,33,500,['c'],1,left,['2'],5,142,[0.12412337],95,47,medium,minus,dotcolour,alfa,,,121,19,V,R,
260,8,8,6,2,44,36,1233,['n'],0,left,['3'],4,1353,[-0.07339512],64,44,hard,minus,dotcolour,alfa,,,121,19,V,R,
261,9,9,6,2,47,33,833,['c'],1,left,['2'],5,179,[0.06943099],81,47,medium,minus,dotcolour,alfa,,,121,19,V,R,
262,10,10,6,2,27,53,750,['n'],1,right,['2'],5,343,[-0.11850754],86,53,easy,minus,dotcolour,alfa,,,121,19,V,R,
263,11,11,6,2,47,33,782,['c'],1,left,['2'],5,164,[0.11106842],92,47,medium,minus,dotcolour,alfa,,,121,19,V,R,
264,12,12,6,2,33,47,665,['n'],1,right,['2'],5,268,[-0.05537811],72,47,medium,minus,dotcolour,alfa,,,121,19,V,R,
265,13,13,6,2,44,36,1014,['c'],1,left,['2'],5,722,[0.17373729],86,44,hard,minus,dotcolour,alfa,,,121,19,V,R,
266,14,14,6,2,53,27,582,['c'],1,left,['2'],5,183,[0.08499708],86,53,easy,minus,dotcolour,alfa,,,121,19,V,R,
267,15,15,6,2,53,27,448,['c'],1,left,['2'],5,143,[0.11899435],94,53,easy,minus,dotcolour,alfa,,,121,19,V,R,
268,16,16,6,2,33,47,564,['c'],0,right,['3'],4,1437,[-0.16270043],23,47,medium,minus,dotcolour,alfa,,,121,19,V,R,
269,17,17,6,2,27,53,782,['n'],1,right,['2'],5,333,[-0.07539978],76,53,easy,minus,dotcolour,alfa,,,121,19,V,R,
270,18,18,6,2,33,47,799,['n'],1,right,['2'],5,481,[-0.20040368],93,47,medium,minus,dotcolour,alfa,,,121,19,V,R,
271,19,19,6,2,33,47,699,['n'],1,right,['2'],5,452,[-0.08882713],77,47,medium,minus,dotcolour,alfa,,,121,19,V,R,
272,20,20,6,2,36,44,582,['n'],1,right,['2'],5,244,[-0.11188667],88,44,hard,minus,dotcolour,alfa,,,121,19,V,R,
273,21,21,6,2,27,53,998,['n'],1,right,['2'],5,443,[-0.19452593],93,53,easy,minus,dotcolour,alfa,,,121,19,V,R,
274,22,22,6,2,44,36,2383,['c'],1,left,['3'],4,772,[0.03878893],60,44,hard,minus,dotcolour,alfa,,,121,19,V,R,
275,23,23,6,2,53,27,766,['c'],1,left,['2'],5,816,[0.13112644],79,53,easy,minus,dotcolour,alfa,,,121,19,V,R,
276,24,24,6,2,27,53,715,['n'],1,right,['2'],5,308,[-0.1386968],90,53,easy,minus,dotcolour,alfa,,,121,19,V,R,
277,25,25,6,2,36,44,850,['n'],1,right,['2'],5,247,[-0.10151644],86,44,hard,minus,dotcolour,alfa,,,121,19,V,R,
278,26,26,6,2,44,36,650,['c'],1,left,['2'],5,252,[0.00898183],54,44,hard,minus,dotcolour,alfa,,,121,19,V,R,
279,27,27,6,2,36,44,865,['n'],1,right,['3'],4,1049,[-0.0273345],56,44,hard,minus,dotcolour,alfa,,,121,19,V,R,
280,28,28,6,2,47,33,632,['c'],1,left,['2'],5,295,[0.11293532],87,47,medium,minus,dotcolour,alfa,,,121,19,V,R,
281,29,29,6,2,36,44,680,['c'],0,right,['8'],3,1330,[-0.02379831],45,44,hard,minus,dotcolour,alfa,,,121,19,V,R,
282,30,30,6,2,47,33,817,['n'],0,left,['0'],1,1701,[0.08206087],36,47,medium,minus,dotcolour,alfa,,,121,19,V,R,
283,31,31,6,2,53,27,748,['c'],1,left,['2'],5,540,[0.25540046],96,53,easy,minus,dotcolour,alfa,,,121,19,V,R,
284,32,32,6,2,53,27,547,['c'],1,left,['2'],5,282,[0.06668509],76,53,easy,minus,dotcolour,alfa,,,121,19,V,R,
285,33,33,6,2,36,44,466,['c'],0,right,['2'],5,397,[0.08826636],78,44,hard,minus,dotcolour,alfa,,,121,19,V,R,
286,34,34,6,2,44,36,581,['c'],1,left,['2'],5,120,[0.03005585],69,44,hard,minus,dotcolour,alfa,,,121,19,V,R,
287,35,35,6,2,33,47,732,['n'],1,right,['2'],5,359,[-0.0472844],67,47,medium,minus,dotcolour,alfa,,,121,19,V,R,
288,36,36,6,2,27,53,882,['c'],0,right,['2'],5,375,[0.07021259],74,53,easy,minus,dotcolour,alfa,,,121,19,V,R,
289,37,37,6,2,53,27,599,['c'],1,left,['2'],5,153,[0.05834191],79,53,easy,minus,dotcolour,alfa,,,121,19,V,R,
290,38,38,6,2,33,47,882,['n'],1,right,['2'],5,185,[-0.12212692],93,47,medium,minus,dotcolour,alfa,,,121,19,V,R,
291,39,39,6,2,27,53,649,['n'],1,right,['2'],5,169,[-0.0571983],78,53,easy,minus,dotcolour,alfa,,,121,19,V,R,
292,40,40,6,2,33,47,900,['n'],1,right,['2'],5,232,[-0.10653234],88,47,medium,minus,dotcolour,alfa,,,121,19,V,R,
293,41,41,6,2,27,53,567,['n'],1,right,['2'],5,201,[-0.11814973],91,53,easy,minus,dotcolour,alfa,,,121,19,V,R,
294,42,0,7,2,33,47,700,['n'],1,right,['2'],5,230,[-0.09404633],85,47,medium,minus,dotcolour,alfa,,,121,19,V,R,
295,43,1,7,2,47,33,666,['c'],1,left,['2'],5,108,[0.12693167],97,47,medium,minus,dotcolour,alfa,,,121,19,V,R,
296,44,2,7,2,53,27,530,['c'],1,left,['2'],5,84,[0.10457628],96,53,easy,minus,dotcolour,alfa,,,121,19,V,R,
297,45,3,7,2,47,33,1214,['c'],1,left,['2'],5,106,[0.10980694],95,47,medium,minus,dotcolour,alfa,,,121,19,V,R,
298,46,4,7,2,53,27,415,['c'],1,left,['2'],5,103,[0.09298806],93,53,easy,minus,dotcolour,alfa,,,121,19,V,R,
299,47,5,7,2,27,53,564,['n'],1,right,['2'],5,181,[-0.10770858],91,53,easy,minus,dotcolour,alfa,,,121,19,V,R,
300,48,6,7,2,44,36,682,['c'],1,left,['2'],5,116,[0.03540753],72,44,hard,minus,dotcolour,alfa,,,121,19,V,R,
301,49,7,7,2,53,27,782,['c'],1,left,['2'],5,122,[0.17542974],99,53,easy,minus,dotcolour,alfa,,,121,19,V,R,
302,50,8,7,2,27,53,648,['n'],1,right,['2'],5,117,[-0.0451531],77,53,easy,minus,dotcolour,alfa,,,121,19,V,R,
303,51,9,7,2,33,47,566,['n'],1,right,['8'],3,907,[-0.19488959],86,47,medium,minus,dotcolour,alfa,,,121,19,V,R,
304,52,10,7,2,36,44,849,['n'],1,right,['2'],5,206,[-0.1109134],90,44,hard,minus,dotcolour,alfa,,,121,19,V,R,
305,53,11,7,2,44,36,816,['c'],1,left,['2'],5,199,[0.05222096],74,44,hard,minus,dotcolour,alfa,,,121,19,V,R,
306,54,12,7,2,27,53,2116,['n'],1,right,['3'],4,460,[-0.11107577],81,53,easy,minus,dotcolour,alfa,,,121,19,V,R,
307,55,13,7,2,44,36,2081,['n'],0,left,['3'],4,256,[-0.0687242],77,44,hard,minus,dotcolour,alfa,,,121,19,V,R,
308,56,14,7,2,36,44,581,['n'],1,right,['2'],5,120,[-0.06987955],86,44,hard,minus,dotcolour,alfa,,,121,19,V,R,
309,57,15,7,2,36,44,500,['n'],1,right,['2'],5,192,[-0.00541176],53,44,hard,minus,dotcolour,alfa,,,121,19,V,R,
310,58,16,7,2,27,53,581,['n'],1,right,['2'],5,187,[-0.1050289],90,53,easy,minus,dotcolour,alfa,,,121,19,V,R,
311,59,17,7,2,36,44,499,['n'],1,right,['2'],5,489,[-0.02758615],59,44,hard,minus,dotcolour,alfa,,,121,19,V,R,
312,60,18,7,2,53,27,1498,['c'],1,left,['2'],5,139,[0.12077073],95,53,easy,minus,dotcolour,alfa,,,121,19,V,R,
313,61,19,7,2,44,36,366,['c'],1,left,['3'],4,872,[0.16359172],83,44,hard,minus,dotcolour,alfa,,,121,19,V,R,
314,62,20,7,2,47,33,366,['c'],1,left,['2'],5,136,[0.14385312],97,47,medium,minus,dotcolour,alfa,,,121,19,V,R,
315,63,21,7,2,36,44,366,['c'],0,right,['2'],5,165,[0.13583755],95,44,hard,minus,dotcolour,alfa,,,121,19,V,R,
316,64,22,7,2,33,47,830,['n'],1,right,['2'],5,119,[-0.1307385],97,47,medium,minus,dotcolour,alfa,,,121,19,V,R,
317,65,23,7,2,33,47,598,['n'],1,right,['2'],5,181,[-0.08143801],85,47,medium,minus,dotcolour,alfa,,,121,19,V,R,
318,66,24,7,2,27,53,583,['n'],1,right,['2'],5,127,[-0.06846475],85,53,easy,minus,dotcolour,alfa,,,121,19,V,R,
319,67,25,7,2,33,47,516,['n'],1,right,['2'],5,151,[-0.105963],92,47,medium,minus,dotcolour,alfa,,,121,19,V,R,
320,68,26,7,2,47,33,866,['c'],1,left,['2'],5,39,[0.06348115],95,47,medium,minus,dotcolour,alfa,,,121,19,V,R,
321,69,27,7,2,47,33,683,['c'],1,left,['2'],5,900,[0.11053197],74,47,medium,minus,dotcolour,alfa,,,121,19,V,R,
322,70,28,7,2,47,33,517,['c'],1,left,['2'],5,101,[0.08570317],92,47,medium,minus,dotcolour,alfa,,,121,19,V,R,
323,71,29,7,2,33,47,516,['c'],0,right,['3'],4,806,[0.09215951],72,47,medium,minus,dotcolour,alfa,,,121,19,V,R,
324,72,30,7,2,47,33,649,['c'],1,left,['2'],5,109,[0.10021382],94,47,medium,minus,dotcolour,alfa,,,121,19,V,R,
325,73,31,7,2,44,36,599,['c'],1,left,['2'],5,122,[0.047872],77,44,hard,minus,dotcolour,alfa,,,121,19,V,R,
326,74,32,7,2,44,36,381,['c'],1,left,['2'],5,72,[0.04411624],81,44,hard,minus,dotcolour,alfa,,,121,19,V,R,
327,75,33,7,2,53,27,380,['c'],1,left,['2'],5,207,[0.0577578],76,53,easy,minus,dotcolour,alfa,,,121,19,V,R,
328,76,34,7,2,27,53,351,['c'],0,right,['0'],1,1610,[-0.17686052],22,53,easy,minus,dotcolour,alfa,,,121,19,V,R,
329,77,35,7,2,27,53,765,['n'],1,right,['2'],5,413,[-0.16508307],91,53,easy,minus,dotcolour,alfa,,,121,19,V,R,
330,78,36,7,2,44,36,650,['c'],1,left,['2'],5,155,[0.09946347],91,44,hard,minus,dotcolour,alfa,,,121,19,V,R,
331,79,37,7,2,33,47,533,['c'],0,right,['2'],5,137,[0.0666422],83,47,medium,minus,dotcolour,alfa,,,121,19,V,R,
332,80,38,7,2,53,27,665,['c'],1,left,['2'],5,163,[0.03643898],69,53,easy,minus,dotcolour,alfa,,,121,19,V,R,
333,81,39,7,2,53,27,600,['c'],1,left,['2'],5,159,[0.07536286],85,53,easy,minus,dotcolour,alfa,,,121,19,V,R,
334,82,40,7,2,36,44,317,['c'],0,right,['2'],5,149,[0.03982573],72,44,hard,minus,dotcolour,alfa,,,121,19,V,R,
335,83,41,7,2,36,44,483,['c'],0,right,['2'],5,117,[0.12765002],97,44,hard,minus,dotcolour,alfa,,,121,19,V,R,
336,84,0,8,2,53,27,566,['c'],1,left,['2'],5,137,[0.10059892],92,53,easy,minus,dotcolour,alfa,,,121,19,V,R,
337,85,1,8,2,33,47,631,['n'],1,right,['2'],5,115,[-0.06352511],84,47,medium,minus,dotcolour,alfa,,,121,19,V,R,
338,86,2,8,2,44,36,666,['c'],1,left,['2'],5,150,[0.02735545],65,44,hard,minus,dotcolour,alfa,,,121,19,V,R,
339,87,3,8,2,47,33,833,['c'],1,left,['2'],5,160,[0.05525025],78,47,medium,minus,dotcolour,alfa,,,121,19,V,R,
340,88,4,8,2,44,36,565,['c'],1,left,['2'],5,149,[0.14776618],97,44,hard,minus,dotcolour,alfa,,,121,19,V,R,
341,89,5,8,2,53,27,433,['c'],1,left,['2'],5,119,[0.10524705],94,53,easy,minus,dotcolour,alfa,,,121,19,V,R,
342,90,6,8,2,27,53,783,['n'],1,right,['2'],5,204,[-0.19353806],98,53,easy,minus,dotcolour,alfa,,,121,19,V,R,
343,91,7,8,2,36,44,865,['n'],1,right,['2'],5,363,[-0.10602153],83,44,hard,minus,dotcolour,alfa,,,121,19,V,R,
344,92,8,8,2,27,53,548,['n'],1,right,['2'],5,192,[-0.10385221],89,53,easy,minus,dotcolour,alfa,,,121,19,V,R,
345,93,9,8,2,33,47,465,['n'],1,right,['2'],5,215,[-0.10130622],88,47,medium,minus,dotcolour,alfa,,,121,19,V,R,
346,94,10,8,2,33,47,565,['n'],1,right,['2'],5,425,[-0.12795101],85,47,medium,minus,dotcolour,alfa,,,121,19,V,R,
347,95,11,8,2,27,53,748,['n'],1,right,['2'],5,219,[-0.08385287],83,53,easy,minus,dotcolour,alfa,,,121,19,V,R,
348,96,12,8,2,44,36,816,['c'],1,left,['2'],5,171,[0.01239334],57,44,hard,minus,dotcolour,alfa,,,121,19,V,R,
349,97,13,8,2,36,44,432,['c'],0,right,['2'],5,213,[0.05663849],75,44,hard,minus,dotcolour,alfa,,,121,19,V,R,
350,98,14,8,2,53,27,564,['n'],0,left,['0'],1,920,[0.13065575],23,53,easy,minus,dotcolour,alfa,,,121,19,V,R,
351,99,15,8,2,47,33,1147,['c'],1,left,['2'],5,302,[0.0878204],81,47,medium,minus,dotcolour,alfa,,,121,19,V,R,
352,100,16,8,2,47,33,449,['c'],1,left,['2'],5,290,[0.10815725],86,47,medium,minus,dotcolour,alfa,,,121,19,V,R,
353,101,17,8,2,47,33,465,['c'],1,left,['2'],5,245,[0.09754881],85,47,medium,minus,dotcolour,alfa,,,121,19,V,R,
354,102,18,8,2,27,53,932,['n'],1,right,['2'],5,223,[-0.11672448],90,53,easy,minus,dotcolour,alfa,,,121,19,V,R,
355,103,19,8,2,53,27,532,['c'],1,left,['2'],5,196,[-0.03216878],34,53,easy,minus,dotcolour,alfa,,,121,19,V,R,
356,104,20,8,2,53,27,515,['c'],1,left,['2'],5,160,[0.12147278],94,53,easy,minus,dotcolour,alfa,,,121,19,V,R,
357,105,21,8,2,27,53,666,['n'],1,right,['2'],5,240,[-0.10302446],87,53,easy,minus,dotcolour,alfa,,,121,19,V,R,
358,106,22,8,2,53,27,447,['c'],1,left,['2'],5,158,[0.11800967],94,53,easy,minus,dotcolour,alfa,,,121,19,V,R,
359,107,23,8,2,36,44,748,['n'],1,right,['2'],5,195,[-0.16386352],97,44,hard,minus,dotcolour,alfa,,,121,19,V,R,
360,108,24,8,2,27,53,913,['n'],1,right,['2'],5,297,[-0.10609183],85,53,easy,minus,dotcolour,alfa,,,121,19,V,R,
361,109,25,8,2,33,47,664,['n'],1,right,['2'],5,276,[0.03722763],35,47,medium,minus,dotcolour,alfa,,,121,19,V,R,
362,110,26,8,2,33,47,748,['c'],0,right,['2'],5,164,[0.02990918],66,47,medium,minus,dotcolour,alfa,,,121,19,V,R,
363,111,27,8,2,44,36,600,['c'],1,left,['2'],5,159,[0.12020955],94,44,hard,minus,dotcolour,alfa,,,121,19,V,R,
364,112,28,8,2,33,47,783,['n'],1,right,['2'],5,82,[-0.07486725],91,47,medium,minus,dotcolour,alfa,,,121,19,V,R,
365,113,29,8,2,47,33,648,['c'],1,left,['2'],5,111,[0.11695215],96,47,medium,minus,dotcolour,alfa,,,121,19,V,R,
366,114,30,8,2,33,47,749,['n'],1,right,['2'],5,198,[-0.11960457],92,47,medium,minus,dotcolour,alfa,,,121,19,V,R,
367,115,31,8,2,44,36,715,['c'],1,left,['2'],5,171,[0.06077608],79,44,hard,minus,dotcolour,alfa,,,121,19,V,R,
368,116,32,8,2,27,53,782,['n'],1,right,['2'],5,151,[-0.10026399],91,53,easy,minus,dotcolour,alfa,,,121,19,V,R,
369,117,33,8,2,36,44,731,['n'],1,right,['2'],5,349,[-0.11536785],85,44,hard,minus,dotcolour,alfa,,,121,19,V,R,
370,118,34,8,2,36,44,832,['n'],1,right,['2'],5,183,[-0.07959106],84,44,hard,minus,dotcolour,alfa,,,121,19,V,R,
371,119,35,8,2,36,44,847,['n'],1,right,['2'],5,223,[-0.09166813],85,44,hard,minus,dotcolour,alfa,,,121,19,V,R,
372,120,36,8,2,36,44,714,['n'],1,right,['2'],5,155,[-0.10469993],92,44,hard,minus,dotcolour,alfa,,,121,19,V,R,
373,121,37,8,2,47,33,865,['c'],1,left,['2'],5,132,[0.06267587],83,47,medium,minus,dotcolour,alfa,,,121,19,V,R,
374,122,38,8,2,44,36,616,['c'],1,left,['2'],5,151,[0.09809609],91,44,hard,minus,dotcolour,alfa,,,121,19,V,R,
375,123,39,8,2,44,36,863,['c'],1,left,['2'],5,184,[0.09868046],89,44,hard,minus,dotcolour,alfa,,,121,19,V,R,
376,124,40,8,2,53,27,598,['c'],1,left,['2'],5,186,[0.0840069],85,53,easy,minus,dotcolour,alfa,,,121,19,V,R,
377,125,41,8,2,47,33,432,['c'],1,left,['2'],5,187,[0.09178369],87,47,medium,minus,dotcolour,alfa,,,121,19,V,R,
378,0,0,9,3,44,36,1033,['n'],0,left,['2'],5,788,[-0.04058395],84,44,hard,plus,dotcolour,alfa,,,121,19,V,R,
379,1,1,9,3,47,33,548,['c'],1,left,['2'],5,240,[0.05805316],99,47,medium,plus,dotcolour,alfa,,,121,19,V,R,
380,2,2,9,3,33,47,1081,['c'],0,right,['2'],5,172,[0.02087748],86,47,medium,plus,dotcolour,alfa,,,121,19,V,R,
381,3,3,9,3,33,47,932,['n'],1,right,['2'],5,177,[-0.0873133],100,47,medium,plus,dotcolour,alfa,,,121,19,V,R,
382,4,4,9,3,44,36,1082,['c'],1,left,['2'],5,128,[0.05597584],100,44,hard,plus,dotcolour,alfa,,,121,19,V,R,
383,5,5,9,3,33,47,766,['n'],1,right,['2'],5,190,[-0.10202219],100,47,medium,plus,dotcolour,alfa,,,121,19,V,R,
384,6,6,9,3,44,36,580,['c'],1,left,['2'],5,128,[0.03089495],96,44,hard,plus,dotcolour,alfa,,,121,19,V,R,
385,7,7,9,3,53,27,482,['c'],1,left,['2'],5,81,[0.08296558],100,53,easy,plus,dotcolour,alfa,,,121,19,V,R,
386,8,8,9,3,27,53,632,['n'],1,right,['2'],5,118,[-0.04746167],99,53,easy,plus,dotcolour,alfa,,,121,19,V,R,
387,9,9,9,3,53,27,547,['c'],1,left,['2'],5,117,[0.16363687],100,53,easy,plus,dotcolour,alfa,,,121,19,V,R,
388,10,10,9,3,44,36,565,['c'],1,left,['2'],5,123,[0.05230653],100,44,hard,plus,dotcolour,alfa,,,121,19,V,R,
389,11,11,9,3,27,53,815,['n'],1,right,['2'],5,159,[-0.13355679],100,53,easy,plus,dotcolour,alfa,,,121,19,V,R,
390,12,12,9,3,53,27,1264,['n'],0,left,['0'],1,911,[0.05798084],10,53,easy,plus,dotcolour,alfa,,,121,19,V,R,
391,13,13,9,3,27,53,831,['n'],1,right,['2'],5,187,[-0.1129653],100,53,easy,plus,dotcolour,alfa,,,121,19,V,R,
392,14,14,9,3,44,36,882,['c'],1,left,['2'],5,1530,[0.29637599],100,44,hard,plus,dotcolour,alfa,,,121,19,V,R,
393,15,15,9,3,36,44,2532,['n'],1,right,['0'],1,312,[-0.05225403],97,44,hard,plus,dotcolour,alfa,,,121,19,V,R,
394,16,16,9,3,36,44,998,['n'],1,right,['2'],5,165,[-0.06971032],100,44,hard,plus,dotcolour,alfa,,,121,19,V,R,
395,17,17,9,3,53,27,964,['c'],1,left,['2'],5,74,[0.04930157],100,53,easy,plus,dotcolour,alfa,,,121,19,V,R,
396,18,18,9,3,33,47,1083,['c'],0,right,['2'],5,28,[0.11156408],100,47,medium,plus,dotcolour,alfa,,,121,19,V,R,
397,19,19,9,3,44,36,616,['n'],0,left,['2'],5,132,[-0.08956764],100,44,hard,plus,dotcolour,alfa,,,121,19,V,R,
398,20,20,9,3,36,44,1232,['c'],0,right,['2'],5,55,[0.08301958],100,44,hard,plus,dotcolour,alfa,,,121,19,V,R,
399,21,21,9,3,47,33,597,['c'],1,left,['2'],5,95,[0.10709668],100,47,medium,plus,dotcolour,alfa,,,121,19,V,R,
400,22,22,9,3,27,53,599,['n'],1,right,['2'],5,132,[-0.13683796],100,53,easy,plus,dotcolour,alfa,,,121,19,V,R,
401,23,23,9,3,27,53,532,['n'],1,right,['2'],5,139,[-0.13757268],100,53,easy,plus,dotcolour,alfa,,,121,19,V,R,
402,24,24,9,3,27,53,598,['n'],1,right,['2'],5,175,[-0.11469653],100,53,easy,plus,dotcolour,alfa,,,121,19,V,R,
403,25,25,9,3,53,27,549,['c'],1,left,['2'],5,107,[0.15195675],100,53,easy,plus,dotcolour,alfa,,,121,19,V,R,
404,26,26,9,3,47,33,482,['c'],1,left,['2'],5,165,[0.10101965],100,47,medium,plus,dotcolour,alfa,,,121,19,V,R,
405,27,27,9,3,36,44,515,['c'],0,right,['2'],5,171,[0.10446741],100,44,hard,plus,dotcolour,alfa,,,121,19,V,R,
406,28,28,9,3,36,44,882,['n'],1,right,['2'],5,123,[-0.09992332],100,44,hard,plus,dotcolour,alfa,,,121,19,V,R,
407,29,29,9,3,27,53,734,['n'],1,right,['2'],5,186,[-0.08038728],100,53,easy,plus,dotcolour,alfa,,,121,19,V,R,
408,30,30,9,3,47,33,566,['c'],1,left,['2'],5,174,[0.06834338],100,47,medium,plus,dotcolour,alfa,,,121,19,V,R,
409,31,31,9,3,33,47,631,['n'],1,right,['2'],5,247,[-0.01432398],74,47,medium,plus,dotcolour,alfa,,,121,19,V,R,
410,32,32,9,3,44,36,682,['c'],1,left,['2'],5,179,[-0.05812701],1,44,hard,plus,dotcolour,alfa,,,121,19,V,R,
411,33,33,9,3,53,27,581,['c'],1,left,['2'],5,182,[0.13052548],100,53,easy,plus,dotcolour,alfa,,,121,19,V,R,
412,34,34,9,3,33,47,1015,['c'],0,right,['2'],5,168,[0.06654455],100,47,medium,plus,dotcolour,alfa,,,121,19,V,R,
413,35,35,9,3,36,44,666,['n'],1,right,['2'],5,240,[-0.01768917],79,44,hard,plus,dotcolour,alfa,,,121,19,V,R,
414,36,36,9,3,53,27,532,['c'],1,left,['2'],5,211,[0.10276776],100,53,easy,plus,dotcolour,alfa,,,121,19,V,R,
415,37,37,9,3,47,33,514,['c'],1,left,['2'],5,95,[0.09925125],100,47,medium,plus,dotcolour,alfa,,,121,19,V,R,
416,38,38,9,3,47,33,482,['c'],1,left,['2'],5,169,[0.06251986],100,47,medium,plus,dotcolour,alfa,,,121,19,V,R,
417,39,39,9,3,47,33,682,['c'],1,left,['2'],5,81,[0.10132257],100,47,medium,plus,dotcolour,alfa,,,121,19,V,R,
418,40,40,9,3,33,47,582,['c'],0,right,['2'],5,96,[0.07799946],100,47,medium,plus,dotcolour,alfa,,,121,19,V,R,
419,41,41,9,3,36,44,514,['c'],0,right,['2'],5,120,[0.10975562],100,44,hard,plus,dotcolour,alfa,,,121,19,V,R,
420,42,0,10,3,53,27,500,['c'],1,left,['2'],5,99,[0.06492087],100,53,easy,plus,dotcolour,alfa,,,121,19,V,R,
421,43,1,10,3,27,53,332,['c'],0,right,['2'],5,236,[0.03227036],92,53,easy,plus,dotcolour,alfa,,,121,19,V,R,
422,44,2,10,3,27,53,615,['n'],1,right,['2'],5,123,[-0.09985403],100,53,easy,plus,dotcolour,alfa,,,121,19,V,R,
423,45,3,10,3,53,27,649,['c'],1,left,['2'],5,69,[0.03212692],99,53,easy,plus,dotcolour,alfa,,,121,19,V,R,
424,46,4,10,3,33,47,715,['n'],1,right,['2'],5,120,[-0.09046634],100,47,medium,plus,dotcolour,alfa,,,121,19,V,R,
425,47,5,10,3,53,27,565,['c'],1,left,['2'],5,165,[0.1216051],100,53,easy,plus,dotcolour,alfa,,,121,19,V,R,
426,48,6,10,3,47,33,1365,['c'],1,left,['2'],5,89,[0.03750652],99,47,medium,plus,dotcolour,alfa,,,121,19,V,R,
427,49,7,10,3,36,44,698,['n'],1,right,['2'],5,172,[-0.10585372],100,44,hard,plus,dotcolour,alfa,,,121,19,V,R,
428,50,8,10,3,27,53,848,['n'],1,right,['2'],5,148,[-0.11341131],100,53,easy,plus,dotcolour,alfa,,,121,19,V,R,
429,51,9,10,3,53,27,650,['c'],1,left,['2'],5,110,[0.12642439],100,53,easy,plus,dotcolour,alfa,,,121,19,V,R,
430,52,10,10,3,27,53,700,['n'],1,right,['2'],5,199,[-0.07201209],100,53,easy,plus,dotcolour,alfa,,,121,19,V,R,
431,53,11,10,3,44,36,632,['c'],1,left,['2'],5,167,[0.10445072],100,44,hard,plus,dotcolour,alfa,,,121,19,V,R,
432,54,12,10,3,47,33,566,['c'],1,left,['2'],5,108,[0.06558778],100,47,medium,plus,dotcolour,alfa,,,121,19,V,R,
433,55,13,10,3,36,44,567,['n'],1,right,['2'],5,114,[-0.07407961],100,44,hard,plus,dotcolour,alfa,,,121,19,V,R,
434,56,14,10,3,36,44,967,['n'],1,right,['2'],5,112,[-0.14281147],100,44,hard,plus,dotcolour,alfa,,,121,19,V,R,
435,57,15,10,3,36,44,766,['c'],0,right,['2'],5,103,[0.07576299],100,44,hard,plus,dotcolour,alfa,,,121,19,V,R,
436,58,16,10,3,47,33,649,['c'],1,left,['2'],5,170,[-0.00528694],39,47,medium,plus,dotcolour,alfa,,,121,19,V,R,
437,59,17,10,3,33,47,666,['n'],1,right,['2'],5,179,[-0.0895577],100,47,medium,plus,dotcolour,alfa,,,121,19,V,R,
438,60,18,10,3,47,33,683,['c'],1,left,['2'],5,138,[0.12575308],100,47,medium,plus,dotcolour,alfa,,,121,19,V,R,
439,61,19,10,3,44,36,714,['c'],1,left,['2'],5,225,[0.11924864],100,44,hard,plus,dotcolour,alfa,,,121,19,V,R,
440,62,20,10,3,33,47,798,['n'],1,right,['2'],5,217,[-0.10618095],100,47,medium,plus,dotcolour,alfa,,,121,19,V,R,
441,63,21,10,3,53,27,532,['c'],1,left,['2'],5,158,[0.13184619],100,53,easy,plus,dotcolour,alfa,,,121,19,V,R,
442,64,22,10,3,27,53,881,['n'],1,right,['2'],5,197,[-0.14349922],100,53,easy,plus,dotcolour,alfa,,,121,19,V,R,
443,65,23,10,3,27,53,699,['n'],1,right,['2'],5,26,[-0.1025647],100,53,easy,plus,dotcolour,alfa,,,121,19,V,R,
444,66,24,10,3,36,44,1149,['n'],1,right,['2'],5,213,[-0.08999687],100,44,hard,plus,dotcolour,alfa,,,121,19,V,R,
445,67,25,10,3,33,47,1333,['n'],1,right,['3'],4,601,[-0.07232914],97,47,medium,plus,dotcolour,alfa,,,121,19,V,R,
446,68,26,10,3,53,27,614,['c'],1,left,['2'],5,177,[0.04569874],98,53,easy,plus,dotcolour,alfa,,,121,19,V,R,
447,69,27,10,3,47,33,1132,['c'],1,left,['3'],4,470,[0.08648487],99,47,medium,plus,dotcolour,alfa,,,121,19,V,R,
448,70,28,10,3,44,36,531,['c'],1,left,['3'],4,303,[0.05773909],98,44,hard,plus,dotcolour,alfa,,,121,19,V,R,
449,71,29,10,3,47,33,548,['c'],1,left,['2'],5,199,[0.14313703],100,47,medium,plus,dotcolour,alfa,,,121,19,V,R,
450,72,30,10,3,44,36,482,['c'],1,left,['3'],4,549,[0.0048883],56,44,hard,plus,dotcolour,alfa,,,121,19,V,R,
451,73,31,10,3,44,36,732,['c'],1,left,['3'],4,171,[0.09220784],100,44,hard,plus,dotcolour,alfa,,,121,19,V,R,
452,74,32,10,3,27,53,716,['c'],0,right,['3'],4,289,[0.11630182],100,53,easy,plus,dotcolour,alfa,,,121,19,V,R,
453,75,33,10,3,36,44,633,['c'],0,right,['3'],4,167,[0.01387356],77,44,hard,plus,dotcolour,alfa,,,121,19,V,R,
454,76,34,10,3,44,36,682,['c'],1,left,['3'],4,174,[0.09126106],100,44,hard,plus,dotcolour,alfa,,,121,19,V,R,
455,77,35,10,3,33,47,915,['c'],0,right,['3'],4,364,[0.05519274],96,47,medium,plus,dotcolour,alfa,,,121,19,V,R,
456,78,36,10,3,36,44,1250,['c'],0,right,['3'],4,261,[0.09286733],100,44,hard,plus,dotcolour,alfa,,,121,19,V,R,
457,79,37,10,3,53,27,532,['c'],1,left,['2'],5,134,[0.1330822],100,53,easy,plus,dotcolour,alfa,,,121,19,V,R,
458,80,38,10,3,33,47,382,['c'],0,right,['2'],5,188,[0.01156282],72,47,medium,plus,dotcolour,alfa,,,121,19,V,R,
459,81,39,10,3,33,47,983,['c'],0,right,['3'],4,174,[0.06636786],100,47,medium,plus,dotcolour,alfa,,,121,19,V,R,
460,82,40,10,3,44,36,600,['c'],1,left,['2'],5,33,[0.06496578],100,44,hard,plus,dotcolour,alfa,,,121,19,V,R,
461,83,41,10,3,47,33,432,['c'],1,left,['2'],5,159,[0.12456669],100,47,medium,plus,dotcolour,alfa,,,121,19,V,R,
462,84,0,11,3,44,36,1016,['c'],1,left,['2'],5,242,[0.07942059],100,44,hard,plus,dotcolour,alfa,,,121,19,V,R,
463,85,1,11,3,44,36,615,['c'],1,left,['2'],5,185,[0.0871267],100,44,hard,plus,dotcolour,alfa,,,121,19,V,R,
464,86,2,11,3,53,27,350,['c'],1,left,['2'],5,205,[0.07180592],100,53,easy,plus,dotcolour,alfa,,,121,19,V,R,
465,87,3,11,3,36,44,664,['c'],0,right,['2'],5,116,[0.02509026],93,44,hard,plus,dotcolour,alfa,,,121,19,V,R,
466,88,4,11,3,33,47,1649,['n'],1,right,['2'],5,303,[-0.17008153],100,47,medium,plus,dotcolour,alfa,,,121,19,V,R,
467,89,5,11,3,44,36,1581,['c'],1,left,['2'],5,109,[0.06876444],100,44,hard,plus,dotcolour,alfa,,,121,19,V,R,
468,90,6,11,3,36,44,748,['n'],1,right,['2'],5,196,[-0.09990101],100,44,hard,plus,dotcolour,alfa,,,121,19,V,R,
469,91,7,11,3,47,33,1115,['c'],1,left,['2'],5,217,[0.12560062],100,47,medium,plus,dotcolour,alfa,,,121,19,V,R,
470,92,8,11,3,47,33,564,['c'],1,left,['2'],5,123,[0.13362613],100,47,medium,plus,dotcolour,alfa,,,121,19,V,R,
471,93,9,11,3,36,44,598,['c'],0,right,['2'],5,144,[0.07228994],100,44,hard,plus,dotcolour,alfa,,,121,19,V,R,
472,94,10,11,3,47,33,766,['c'],1,left,['2'],5,437,[0.05490346],95,47,medium,plus,dotcolour,alfa,,,121,19,V,R,
473,95,11,11,3,53,27,381,['c'],1,left,['2'],5,141,[0.1129636],100,53,easy,plus,dotcolour,alfa,,,121,19,V,R,
474,96,12,11,3,33,47,616,['c'],0,right,['2'],5,192,[0.04424367],97,47,medium,plus,dotcolour,alfa,,,121,19,V,R,
475,97,13,11,3,27,53,649,['c'],0,right,['9'],2,792,[-0.13516343],0,53,easy,plus,dotcolour,alfa,,,121,19,V,R,
476,98,14,11,3,44,36,865,['c'],1,left,['2'],5,295,[0.07686643],99,44,hard,plus,dotcolour,alfa,,,121,19,V,R,
477,99,15,11,3,33,47,667,['n'],1,right,['2'],5,138,[-0.03535085],97,47,medium,plus,dotcolour,alfa,,,121,19,V,R,
478,100,16,11,3,47,33,764,['c'],1,left,['2'],5,223,[0.0682005],99,47,medium,plus,dotcolour,alfa,,,121,19,V,R,
479,101,17,11,3,53,27,465,['c'],1,left,['2'],5,142,[0.07308825],100,53,easy,plus,dotcolour,alfa,,,121,19,V,R,
480,102,18,11,3,33,47,649,['n'],1,right,['2'],5,159,[-0.13106128],100,47,medium,plus,dotcolour,alfa,,,121,19,V,R,
481,103,19,11,3,44,36,448,['c'],1,left,['2'],5,136,[0.12061617],100,44,hard,plus,dotcolour,alfa,,,121,19,V,R,
482,104,20,11,3,27,53,515,['n'],1,right,['2'],5,200,[-0.06716831],100,53,easy,plus,dotcolour,alfa,,,121,19,V,R,
483,105,21,11,3,36,44,581,['c'],0,right,['2'],5,146,[0.06831427],100,44,hard,plus,dotcolour,alfa,,,121,19,V,R,
484,106,22,11,3,44,36,397,['c'],1,left,['2'],5,189,[0.06801972],100,44,hard,plus,dotcolour,alfa,,,121,19,V,R,
485,107,23,11,3,27,53,980,['n'],1,right,['2'],5,193,[-0.15889725],100,53,easy,plus,dotcolour,alfa,,,121,19,V,R,
486,108,24,11,3,33,47,464,['c'],0,right,['2'],5,176,[0.04352804],98,47,medium,plus,dotcolour,alfa,,,121,19,V,R,
487,109,25,11,3,53,27,716,['c'],1,left,['2'],5,213,[0.15125337],100,53,easy,plus,dotcolour,alfa,,,121,19,V,R,
488,110,26,11,3,36,44,750,['c'],0,right,['2'],5,168,[0.05649541],99,44,hard,plus,dotcolour,alfa,,,121,19,V,R,
489,111,27,11,3,27,53,581,['n'],1,right,['2'],5,164,[-0.07298413],100,53,easy,plus,dotcolour,alfa,,,121,19,V,R,
490,112,28,11,3,33,47,482,['c'],0,right,['2'],5,92,[0.05417463],100,47,medium,plus,dotcolour,alfa,,,121,19,V,R,
491,113,29,11,3,53,27,482,['c'],1,left,['2'],5,38,[0.05887985],100,53,easy,plus,dotcolour,alfa,,,121,19,V,R,
492,114,30,11,3,27,53,464,['c'],0,right,['2'],5,107,[0.05092323],100,53,easy,plus,dotcolour,alfa,,,121,19,V,R,
493,115,31,11,3,33,47,467,['c'],0,right,['2'],5,38,[0.07262921],100,47,medium,plus,dotcolour,alfa,,,121,19,V,R,
494,116,32,11,3,47,33,1017,['c'],1,left,['2'],5,102,[0.05800883],100,47,medium,plus,dotcolour,alfa,,,121,19,V,R,
495,117,33,11,3,47,33,484,['c'],1,left,['2'],5,48,[0.0728245],100,47,medium,plus,dotcolour,alfa,,,121,19,V,R,
496,118,34,11,3,53,27,383,['c'],1,left,['2'],5,105,[0.05804849],100,53,easy,plus,dotcolour,alfa,,,121,19,V,R,
497,119,35,11,3,53,27,317,['c'],1,left,['2'],5,81,[0.09560475],100,53,easy,plus,dotcolour,alfa,,,121,19,V,R,
498,120,36,11,3,36,44,299,['c'],0,right,['2'],5,27,[0.0874274],100,44,hard,plus,dotcolour,alfa,,,121,19,V,R,
499,121,37,11,3,27,53,583,['c'],0,right,['2'],5,165,[0.02388095],89,53,easy,plus,dotcolour,alfa,,,121,19,V,R,
500,122,38,11,3,36,44,399,['c'],0,right,['2'],5,127,[0.04354019],99,44,hard,plus,dotcolour,alfa,,,121,19,V,R,
501,123,39,11,3,47,33,282,['c'],1,left,['2'],5,81,[0.07902568],100,47,medium,plus,dotcolour,alfa,,,121,19,V,R,
502,124,40,11,3,27,53,465,['c'],0,right,['2'],5,1284,[-0.27973201],0,53,easy,plus,dotcolour,alfa,,,121,19,V,R,
503,125,41,11,3,44,36,665,['c'],1,left,['2'],5,119,[0.12572586],100,44,hard,plus,dotcolour,alfa,,,121,19,V,R,
504,0,0,12,4,53,27,466,['c'],1,left,['2'],5,116,[0.12604928],97,53,easy,minus,dotcolour,alfa,,,121,19,V,R,
505,1,1,12,4,53,27,399,['c'],1,left,['2'],5,112,[0.03637812],73,53,easy,minus,dotcolour,alfa,,,121,19,V,R,
506,2,2,12,4,47,33,331,['c'],1,left,['2'],5,64,[0.1054186],98,47,medium,minus,dotcolour,alfa,,,121,19,V,R,
507,3,3,12,4,36,44,448,['c'],0,right,['2'],5,165,[0.08925836],88,44,hard,minus,dotcolour,alfa,,,121,19,V,R,
508,4,4,12,4,47,33,448,['c'],1,left,['2'],5,110,[0.08590297],91,47,medium,minus,dotcolour,alfa,,,121,19,V,R,
509,5,5,12,4,27,53,848,['n'],1,right,['2'],5,65,[-0.07283303],93,53,easy,minus,dotcolour,alfa,,,121,19,V,R,
510,6,6,12,4,47,33,698,['c'],1,left,['2'],5,124,[0.11532406],95,47,medium,minus,dotcolour,alfa,,,121,19,V,R,
511,7,7,12,4,47,33,715,['c'],1,left,['2'],5,100,[0.09017277],93,47,medium,minus,dotcolour,alfa,,,121,19,V,R,
512,8,8,12,4,44,36,398,['c'],1,left,['2'],5,74,[0.02355395],69,44,hard,minus,dotcolour,alfa,,,121,19,V,R,
513,9,9,12,4,44,36,499,['c'],1,left,['2'],5,204,[0.15483122],96,44,hard,minus,dotcolour,alfa,,,121,19,V,R,
514,10,10,12,4,36,44,765,['n'],1,right,['2'],5,183,[-0.10981548],91,44,hard,minus,dotcolour,alfa,,,121,19,V,R,
515,11,11,12,4,47,33,533,['c'],1,left,['2'],5,100,[0.08338304],91,47,medium,minus,dotcolour,alfa,,,121,19,V,R,
516,12,12,12,4,36,44,884,['c'],0,right,['2'],5,158,[0.09563944],90,44,hard,minus,dotcolour,alfa,,,121,19,V,R,
517,13,13,12,4,44,36,565,['c'],1,left,['2'],5,98,[0.07963378],91,44,hard,minus,dotcolour,alfa,,,121,19,V,R,
518,14,14,12,4,44,36,381,['c'],1,left,['2'],5,160,[0.05487288],77,44,hard,minus,dotcolour,alfa,,,121,19,V,R,
519,15,15,12,4,47,33,364,['c'],1,left,['2'],5,156,[0.05164703],76,47,medium,minus,dotcolour,alfa,,,121,19,V,R,
520,16,16,12,4,33,47,482,['c'],0,right,['2'],5,213,[0.08029292],83,47,medium,minus,dotcolour,alfa,,,121,19,V,R,
521,17,17,12,4,53,27,497,['c'],1,left,['2'],5,130,[0.09966083],92,53,easy,minus,dotcolour,alfa,,,121,19,V,R,
522,18,18,12,4,36,44,348,['c'],0,right,['8'],3,1264,[-0.05732745],39,44,hard,minus,dotcolour,alfa,,,121,19,V,R,
523,19,19,12,4,27,53,764,['n'],1,right,['2'],5,224,[-0.11450931],90,53,easy,minus,dotcolour,alfa,,,121,19,V,R,
524,20,20,12,4,44,36,631,['n'],0,left,['2'],5,127,[-0.02536832],65,44,hard,minus,dotcolour,alfa,,,121,19,V,R,
525,21,21,12,4,33,47,665,['n'],1,right,['2'],5,209,[-0.04692542],72,47,medium,minus,dotcolour,alfa,,,121,19,V,R,
526,22,22,12,4,44,36,3082,['n'],0,left,['2'],5,207,[-0.11309133],90,44,hard,minus,dotcolour,alfa,,,121,19,V,R,
527,23,23,12,4,33,47,431,['n'],1,right,['2'],5,215,[-0.17237376],97,47,medium,minus,dotcolour,alfa,,,121,19,V,R,
528,24,24,12,4,47,33,766,['c'],1,left,['2'],5,105,[0.02360488],66,47,medium,minus,dotcolour,alfa,,,121,19,V,R,
529,25,25,12,4,53,27,383,['c'],1,left,['2'],5,167,[0.06526392],81,53,easy,minus,dotcolour,alfa,,,121,19,V,R,
530,26,26,12,4,36,44,349,['c'],0,right,['2'],5,132,[0.03484351],70,44,hard,minus,dotcolour,alfa,,,121,19,V,R,
531,27,27,12,4,53,27,347,['c'],1,left,['2'],5,131,[0.1367489],97,53,easy,minus,dotcolour,alfa,,,121,19,V,R,
532,28,28,12,4,44,36,297,['c'],1,left,['2'],5,130,[0.10776664],94,44,hard,minus,dotcolour,alfa,,,121,19,V,R,
533,29,29,12,4,33,47,882,['n'],1,right,['2'],5,227,[-0.08873451],84,47,medium,minus,dotcolour,alfa,,,121,19,V,R,
534,30,30,12,4,53,27,581,['c'],1,left,['2'],5,165,[0.10909551],92,53,easy,minus,dotcolour,alfa,,,121,19,V,R,
535,31,31,12,4,27,53,532,['c'],0,right,['0'],1,1491,[-0.08817359],34,53,easy,minus,dotcolour,alfa,,,121,19,V,R,
536,32,32,12,4,33,47,832,['c'],0,right,['3'],4,983,[0.01666542],54,47,medium,minus,dotcolour,alfa,,,121,19,V,R,
537,33,33,12,4,36,44,598,['n'],1,right,['2'],5,185,[-0.130324],94,44,hard,minus,dotcolour,alfa,,,121,19,V,R,
538,34,34,12,4,36,44,848,['n'],1,right,['2'],5,538,[-0.14004952],85,44,hard,minus,dotcolour,alfa,,,121,19,V,R,
539,35,35,12,4,33,47,615,['n'],1,right,['2'],5,196,[-0.07781915],83,47,medium,minus,dotcolour,alfa,,,121,19,V,R,
540,36,36,12,4,27,53,499,['n'],1,right,['2'],5,162,[-0.08336161],87,53,easy,minus,dotcolour,alfa,,,121,19,V,R,
541,37,37,12,4,27,53,499,['n'],1,right,['2'],5,225,[-0.09784504],86,53,easy,minus,dotcolour,alfa,,,121,19,V,R,
542,38,38,12,4,27,53,465,['n'],1,right,['2'],5,182,[-0.08363508],85,53,easy,minus,dotcolour,alfa,,,121,19,V,R,
543,39,39,12,4,33,47,567,['n'],1,right,['3'],4,778,[-0.22262177],91,47,medium,minus,dotcolour,alfa,,,121,19,V,R,
544,40,40,12,4,53,27,598,['c'],1,left,['2'],5,565,[0.20782242],92,53,easy,minus,dotcolour,alfa,,,121,19,V,R,
545,41,41,12,4,27,53,882,['n'],1,right,['2'],5,172,[-0.16531671],97,53,easy,minus,dotcolour,alfa,,,121,19,V,R,
546,42,0,13,4,33,47,816,['n'],1,right,['2'],5,197,[-0.09818687],88,47,medium,minus,dotcolour,alfa,,,121,19,V,R,
547,43,1,13,4,36,44,615,['n'],1,right,['2'],5,166,[-0.06738348],82,44,hard,minus,dotcolour,alfa,,,121,19,V,R,
548,44,2,13,4,33,47,482,['n'],1,right,['2'],5,181,[-0.08093695],85,47,medium,minus,dotcolour,alfa,,,121,19,V,R,
549,45,3,13,4,53,27,765,['c'],1,left,['2'],5,233,[0.06063861],76,53,easy,minus,dotcolour,alfa,,,121,19,V,R,
550,46,4,13,4,36,44,483,['c'],0,right,['2'],5,125,[0.10806364],94,44,hard,minus,dotcolour,alfa,,,121,19,V,R,
551,47,5,13,4,33,47,766,['n'],1,right,['2'],5,283,[-0.09153959],82,47,medium,minus,dotcolour,alfa,,,121,19,V,R,
552,48,6,13,4,44,36,799,['c'],1,left,['2'],5,130,[0.05837553],81,44,hard,minus,dotcolour,alfa,,,121,19,V,R,
553,49,7,13,4,27,53,564,['n'],1,right,['2'],5,87,[-0.11573845],97,53,easy,minus,dotcolour,alfa,,,121,19,V,R,
554,50,8,13,4,27,53,634,['n'],1,right,['2'],5,196,[-0.07444712],82,53,easy,minus,dotcolour,alfa,,,121,19,V,R,
555,51,9,13,4,53,27,366,['c'],1,left,['2'],5,127,[0.08713014],90,53,easy,minus,dotcolour,alfa,,,121,19,V,R,
556,52,10,13,4,47,33,581,['c'],1,left,['2'],5,147,[0.10826731],93,47,medium,minus,dotcolour,alfa,,,121,19,V,R,
557,53,11,13,4,53,27,683,['c'],1,left,['2'],5,12,[0.07401434],100,53,easy,minus,dotcolour,alfa,,,121,19,V,R,
558,54,12,13,4,53,27,498,['c'],1,left,['2'],5,153,[0.12591729],95,53,easy,minus,dotcolour,alfa,,,121,19,V,R,
559,55,13,13,4,36,44,415,['c'],0,right,['2'],5,156,[0.12635828],95,44,hard,minus,dotcolour,alfa,,,121,19,V,R,
560,56,14,13,4,27,53,382,['c'],0,right,['2'],5,151,[0.06555005],82,53,easy,minus,dotcolour,alfa,,,121,19,V,R,
561,57,15,13,4,27,53,249,['c'],0,right,['2'],5,121,[0.05775244],82,53,easy,minus,dotcolour,alfa,,,121,19,V,R,
562,58,16,13,4,33,47,948,['n'],1,right,['2'],5,303,[-0.20200692],96,47,medium,minus,dotcolour,alfa,,,121,19,V,R,
563,59,17,13,4,27,53,532,['c'],0,right,['3'],4,1014,[0.00361712],51,53,easy,minus,dotcolour,alfa,,,121,19,V,R,
564,60,18,13,4,36,44,615,['n'],1,right,['2'],5,214,[-0.03737004],67,44,hard,minus,dotcolour,alfa,,,121,19,V,R,
565,61,19,13,4,44,36,715,['c'],1,left,['2'],5,114,[0.10918162],95,44,hard,minus,dotcolour,alfa,,,121,19,V,R,
566,62,20,13,4,53,27,446,['c'],1,left,['2'],5,109,[0.08777326],92,53,easy,minus,dotcolour,alfa,,,121,19,V,R,
567,63,21,13,4,44,36,433,['c'],1,left,['2'],5,129,[0.03732979],72,44,hard,minus,dotcolour,alfa,,,121,19,V,R,
568,64,22,13,4,53,27,549,['c'],1,left,['2'],5,103,[0.15617565],99,53,easy,minus,dotcolour,alfa,,,121,19,V,R,
569,65,23,13,4,47,33,417,['c'],1,left,['2'],5,140,[0.05453697],79,47,medium,minus,dotcolour,alfa,,,121,19,V,R,
570,66,24,13,4,44,36,384,['c'],1,left,['2'],5,144,[0.02891196],67,44,hard,minus,dotcolour,alfa,,,121,19,V,R,
571,67,25,13,4,33,47,498,['c'],0,right,['2'],5,128,[0.0710904],86,47,medium,minus,dotcolour,alfa,,,121,19,V,R,
572,68,26,13,4,47,33,599,['c'],1,left,['2'],5,116,[0.0491717],79,47,medium,minus,dotcolour,alfa,,,121,19,V,R,
573,69,27,13,4,36,44,565,['c'],0,right,['2'],5,171,[0.0605995],79,44,hard,minus,dotcolour,alfa,,,121,19,V,R,
574,70,28,13,4,33,47,433,['c'],0,right,['2'],5,156,[-0.00326624],48,47,medium,minus,dotcolour,alfa,,,121,19,V,R,
575,71,29,13,4,47,33,881,['c'],1,left,['2'],5,132,[0.11060876],94,47,medium,minus,dotcolour,alfa,,,121,19,V,R,
576,72,30,13,4,44,36,330,['c'],1,left,['2'],5,139,[0.00182378],51,44,hard,minus,dotcolour,alfa,,,121,19,V,R,
577,73,31,13,4,47,33,432,['c'],1,left,['2'],5,150,[0.10583312],92,47,medium,minus,dotcolour,alfa,,,121,19,V,R,
578,74,32,13,4,44,36,450,['c'],1,left,['2'],5,120,[0.04909182],78,44,hard,minus,dotcolour,alfa,,,121,19,V,R,
579,75,33,13,4,33,47,633,['c'],0,right,['3'],4,748,[-0.02570121],43,47,medium,minus,dotcolour,alfa,,,121,19,V,R,
580,76,34,13,4,53,27,682,['c'],1,left,['2'],5,196,[0.08256965],84,53,easy,minus,dotcolour,alfa,,,121,19,V,R,
581,77,35,13,4,27,53,831,['n'],1,right,['2'],5,220,[-0.09923973],87,53,easy,minus,dotcolour,alfa,,,121,19,V,R,
582,78,36,13,4,36,44,613,['c'],0,right,['2'],5,60,[0.08101822],95,44,hard,minus,dotcolour,alfa,,,121,19,V,R,
583,79,37,13,4,27,53,431,['n'],1,right,['2'],5,170,[-0.15034063],96,53,easy,minus,dotcolour,alfa,,,121,19,V,R,
584,80,38,13,4,36,44,615,['c'],0,right,['2'],5,132,[0.10375486],93,44,hard,minus,dotcolour,alfa,,,121,19,V,R,
585,81,39,13,4,44,36,599,['c'],1,left,['2'],5,104,[0.1206229],97,44,hard,minus,dotcolour,alfa,,,121,19,V,R,
586,82,40,13,4,47,33,483,['c'],1,left,['2'],5,130,[0.07430975],86,47,medium,minus,dotcolour,alfa,,,121,19,V,R,
587,83,41,13,4,47,33,980,['c'],1,left,['2'],5,182,[0.07357352],83,47,medium,minus,dotcolour,alfa,,,121,19,V,R,
588,84,0,14,4,36,44,700,['n'],1,right,['2'],5,137,[-0.09466151],91,44,hard,minus,dotcolour,alfa,,,121,19,V,R,
589,85,1,14,4,36,44,580,['n'],1,right,['2'],5,165,[-0.07669686],85,44,hard,minus,dotcolour,alfa,,,121,19,V,R,
590,86,2,14,4,47,33,515,['c'],1,left,['2'],5,156,[0.12200681],94,47,medium,minus,dotcolour,alfa,,,121,19,V,R,
591,87,3,14,4,47,33,513,['c'],1,left,['2'],5,162,[0.13286864],95,47,medium,minus,dotcolour,alfa,,,121,19,V,R,
592,88,4,14,4,33,47,815,['n'],1,right,['2'],5,316,[-0.08705969],80,47,medium,minus,dotcolour,alfa,,,121,19,V,R,
593,89,5,14,4,44,36,482,['c'],1,left,['2'],5,518,[0.1879147],91,44,hard,minus,dotcolour,alfa,,,121,19,V,R,
594,90,6,14,4,36,44,465,['c'],0,right,['2'],5,136,[0.03353524],69,44,hard,minus,dotcolour,alfa,,,121,19,V,R,
595,91,7,14,4,27,53,363,['c'],0,right,['2'],5,109,[0.03407609],72,53,easy,minus,dotcolour,alfa,,,121,19,V,R,
596,92,8,14,4,33,47,297,['c'],0,right,['2'],5,102,[0.04757047],79,47,medium,minus,dotcolour,alfa,,,121,19,V,R,
597,93,9,14,4,53,27,400,['c'],1,left,['2'],5,132,[0.08914786],90,53,easy,minus,dotcolour,alfa,,,121,19,V,R,
598,94,10,14,4,36,44,666,['c'],0,right,['2'],5,109,[0.00352133],52,44,hard,minus,dotcolour,alfa,,,121,19,V,R,
599,95,11,14,4,47,33,499,['c'],1,left,['2'],5,102,[0.0405011],76,47,medium,minus,dotcolour,alfa,,,121,19,V,R,
600,96,12,14,4,36,44,533,['c'],0,right,['2'],5,158,[0.11205345],93,44,hard,minus,dotcolour,alfa,,,121,19,V,R,
601,97,13,14,4,47,33,349,['c'],1,left,['2'],5,156,[0.09817023],90,47,medium,minus,dotcolour,alfa,,,121,19,V,R,
602,98,14,14,4,33,47,314,['c'],0,right,['2'],5,146,[0.14778619],97,47,medium,minus,dotcolour,alfa,,,121,19,V,R,
603,99,15,14,4,53,27,382,['c'],1,left,['2'],5,166,[0.15780489],97,53,easy,minus,dotcolour,alfa,,,121,19,V,R,
604,100,16,14,4,47,33,364,['c'],1,left,['2'],5,98,[0.05049429],81,47,medium,minus,dotcolour,alfa,,,121,19,V,R,
605,101,17,14,4,44,36,647,['c'],1,left,['2'],5,142,[0.02198027],63,44,hard,minus,dotcolour,alfa,,,121,19,V,R,
606,102,18,14,4,53,27,414,['c'],1,left,['2'],5,105,[0.1074531],95,53,easy,minus,dotcolour,alfa,,,121,19,V,R,
607,103,19,14,4,36,44,433,['c'],0,right,['2'],5,101,[0.12105917],97,44,hard,minus,dotcolour,alfa,,,121,19,V,R,
608,104,20,14,4,33,47,833,['n'],1,right,['2'],5,129,[-0.08097753],88,47,medium,minus,dotcolour,alfa,,,121,19,V,R,
609,105,21,14,4,33,47,433,['n'],1,right,['2'],5,196,[-0.04942809],73,47,medium,minus,dotcolour,alfa,,,121,19,V,R,
610,106,22,14,4,36,44,764,['n'],1,right,['8'],3,1103,[-0.04277715],59,44,hard,minus,dotcolour,alfa,,,121,19,V,R,
611,107,23,14,4,33,47,1148,['c'],0,right,['2'],5,94,[0.04696599],80,47,medium,minus,dotcolour,alfa,,,121,19,V,R,
612,108,24,14,4,53,27,531,['c'],1,left,['2'],5,22,[0.05556349],97,53,easy,minus,dotcolour,alfa,,,121,19,V,R,
613,109,25,14,4,27,53,649,['n'],1,right,['2'],5,214,[-0.12213879],91,53,easy,minus,dotcolour,alfa,,,121,19,V,R,
614,110,26,14,4,27,53,1766,['n'],1,right,['2'],5,312,[-0.12230018],88,53,easy,minus,dotcolour,alfa,,,121,19,V,R,
615,111,27,14,4,27,53,2549,['n'],1,right,['2'],5,343,[-0.14002971],90,53,easy,minus,dotcolour,alfa,,,121,19,V,R,
616,112,28,14,4,44,36,666,['c'],1,left,['2'],5,160,[0.08447834],87,44,hard,minus,dotcolour,alfa,,,121,19,V,R,
617,113,29,14,4,44,36,1081,['c'],1,left,['2'],5,232,[0.13478274],93,44,hard,minus,dotcolour,alfa,,,121,19,V,R,
618,114,30,14,4,47,33,383,['c'],1,left,['2'],5,145,[0.0823943],88,47,medium,minus,dotcolour,alfa,,,121,19,V,R,
619,115,31,14,4,44,36,417,['c'],1,left,['2'],5,188,[0.15094593],96,44,hard,minus,dotcolour,alfa,,,121,19,V,R,
620,116,32,14,4,44,36,933,['c'],1,left,['2'],5,97,[0.07353445],89,44,hard,minus,dotcolour,alfa,,,121,19,V,R,
621,117,33,14,4,44,36,1149,['c'],1,left,['2'],5,112,[0.0510758],80,44,hard,minus,dotcolour,alfa,,,121,19,V,R,
622,118,34,14,4,27,53,863,['c'],0,right,['2'],5,267,[0.03763364],66,53,easy,minus,dotcolour,alfa,,,121,19,V,R,
623,119,35,14,4,33,47,1733,['c'],0,right,['2'],5,69,[0.0347487],77,47,medium,minus,dotcolour,alfa,,,121,19,V,R,
624,120,36,14,4,53,27,398,['c'],1,left,['2'],5,115,[0.06134364],84,53,easy,minus,dotcolour,alfa,,,121,19,V,R,
625,121,37,14,4,47,33,498,['c'],1,left,['2'],5,76,[0.07654646],92,47,medium,minus,dotcolour,alfa,,,121,19,V,R,
626,122,38,14,4,27,53,364,['c'],0,right,['2'],5,659,[-0.06662029],32,53,easy,minus,dotcolour,alfa,,,121,19,V,R,
627,123,39,14,4,53,27,417,['c'],1,left,['0'],1,1362,[0.22889649],85,53,easy,minus,dotcolour,alfa,,,121,19,V,R,
628,124,40,14,4,27,53,899,['c'],0,right,['2'],5,1161,[-0.01575634],47,53,easy,minus,dotcolour,alfa,,,121,19,V,R,
629,125,41,14,4,53,27,663,['c'],1,left,['2'],5,97,[0.06541498],87,53,easy,minus,dotcolour,alfa,,,121,19,V,R,
630,0,0,15,5,47,33,516,['c'],1,left,['2'],5,115,[0.11524984],100,47,medium,plus,dotcolour,alfa,,,121,19,V,R,
631,1,1,15,5,27,53,648,['n'],1,right,['2'],5,214,[-0.05762176],99,53,easy,plus,dotcolour,alfa,,,121,19,V,R,
632,2,2,15,5,44,36,498,['c'],1,left,['2'],5,107,[0.04913746],100,44,hard,plus,dotcolour,alfa,,,121,19,V,R,
633,3,3,15,5,33,47,781,['c'],0,right,['2'],5,410,[-0.13011887],0,47,medium,plus,dotcolour,alfa,,,121,19,V,R,
634,4,4,15,5,36,44,682,['c'],0,right,['2'],5,407,[0.03022546],85,44,hard,plus,dotcolour,alfa,,,121,19,V,R,
635,5,5,15,5,27,53,616,['n'],1,right,['2'],5,239,[-0.0771301],100,53,easy,plus,dotcolour,alfa,,,121,19,V,R,
636,6,6,15,5,33,47,582,['n'],1,right,['2'],5,224,[-0.07857655],100,47,medium,plus,dotcolour,alfa,,,121,19,V,R,
637,7,7,15,5,27,53,4899,['n'],1,right,['2'],5,516,[-0.13473144],100,53,easy,plus,dotcolour,alfa,,,121,19,V,R,
638,8,8,15,5,47,33,1848,['n'],0,left,['2'],5,112,[-0.04162985],99,47,medium,plus,dotcolour,alfa,,,121,19,V,R,
639,9,9,15,5,47,33,899,['c'],1,left,['2'],5,161,[0.10894796],100,47,medium,plus,dotcolour,alfa,,,121,19,V,R,
640,10,10,15,5,36,44,765,['c'],0,right,['2'],5,621,[-0.00484441],44,44,hard,plus,dotcolour,alfa,,,121,19,V,R,
641,11,11,15,5,33,47,1165,['c'],0,right,['2'],5,142,[0.10623891],100,47,medium,plus,dotcolour,alfa,,,121,19,V,R,
642,12,12,15,5,27,53,1148,['n'],1,right,['2'],5,180,[-0.13544344],100,53,easy,plus,dotcolour,alfa,,,121,19,V,R,
643,13,13,15,5,44,36,715,['c'],1,left,['2'],5,130,[0.10254046],100,44,hard,plus,dotcolour,alfa,,,121,19,V,R,
644,14,14,15,5,36,44,783,['n'],1,right,['2'],5,119,[-0.04940925],99,44,hard,plus,dotcolour,alfa,,,121,19,V,R,
645,15,15,15,5,44,36,483,['c'],1,left,['2'],5,272,[0.00262084],55,44,hard,plus,dotcolour,alfa,,,121,19,V,R,
646,16,16,15,5,47,33,717,['c'],1,left,['2'],5,257,[0.09749297],100,47,medium,plus,dotcolour,alfa,,,121,19,V,R,
647,17,17,15,5,53,27,449,['c'],1,left,['2'],5,175,[0.09836849],100,53,easy,plus,dotcolour,alfa,,,121,19,V,R,
648,18,18,15,5,33,47,633,['c'],0,right,['2'],5,479,[0.05051647],93,47,medium,plus,dotcolour,alfa,,,121,19,V,R,
649,19,19,15,5,53,27,331,['c'],1,left,['2'],5,160,[0.11703356],100,53,easy,plus,dotcolour,alfa,,,121,19,V,R,
650,20,20,15,5,44,36,300,['c'],1,left,['2'],5,103,[0.03216276],97,44,hard,plus,dotcolour,alfa,,,121,19,V,R,
651,21,21,15,5,36,44,382,['c'],0,right,['2'],5,149,[-0.00619678],36,44,hard,plus,dotcolour,alfa,,,121,19,V,R,
652,22,22,15,5,47,33,465,['c'],1,left,['2'],5,143,[0.1463496],100,47,medium,plus,dotcolour,alfa,,,121,19,V,R,
653,23,23,15,5,53,27,565,['c'],1,left,['2'],5,115,[0.04461768],99,53,easy,plus,dotcolour,alfa,,,121,19,V,R,
654,24,24,15,5,47,33,479,['c'],1,left,['2'],5,260,[0.14647634],100,47,medium,plus,dotcolour,alfa,,,121,19,V,R,
655,25,25,15,5,44,36,448,['c'],1,left,['1'],6,593,[0.08718144],98,44,hard,plus,dotcolour,alfa,,,121,19,V,R,
656,26,26,15,5,27,53,415,['c'],0,right,['1'],6,482,[-0.02134286],25,53,easy,plus,dotcolour,alfa,,,121,19,V,R,
657,27,27,15,5,53,27,414,['c'],1,left,['2'],5,143,[0.12580283],100,53,easy,plus,dotcolour,alfa,,,121,19,V,R,
658,28,28,15,5,47,33,465,['c'],1,left,['1'],6,216,[0.05917074],99,47,medium,plus,dotcolour,alfa,,,121,19,V,R,
659,29,29,15,5,53,27,465,['c'],1,left,['1'],6,143,[0.05436928],99,53,easy,plus,dotcolour,alfa,,,121,19,V,R,
660,30,30,15,5,44,36,482,['c'],1,left,['1'],6,247,[0.02780558],88,44,hard,plus,dotcolour,alfa,,,121,19,V,R,
661,31,31,15,5,27,53,433,['c'],0,right,['3'],4,1341,[-0.23752423],0,53,easy,plus,dotcolour,alfa,,,121,19,V,R,
662,32,32,15,5,36,44,1082,['c'],0,right,['2'],5,197,[0.05972203],99,44,hard,plus,dotcolour,alfa,,,121,19,V,R,
663,33,33,15,5,33,47,650,['c'],0,right,['3'],4,733,[-0.13156191],0,47,medium,plus,dotcolour,alfa,,,121,19,V,R,
664,34,34,15,5,27,53,616,['n'],1,right,['2'],5,328,[-0.0524324],96,53,easy,plus,dotcolour,alfa,,,121,19,V,R,
665,35,35,15,5,53,27,731,['c'],1,left,['1'],6,375,[0.02378486],80,53,easy,plus,dotcolour,alfa,,,121,19,V,R,
666,36,36,15,5,44,36,832,['c'],1,left,['2'],5,440,[0.07748342],99,44,hard,plus,dotcolour,alfa,,,121,19,V,R,
667,37,37,15,5,53,27,516,['c'],1,left,['1'],6,163,[0.15434945],100,53,easy,plus,dotcolour,alfa,,,121,19,V,R,
668,38,38,15,5,33,47,799,['n'],1,right,['2'],5,262,[-0.01357704],72,47,medium,plus,dotcolour,alfa,,,121,19,V,R,
669,39,39,15,5,36,44,782,['c'],0,right,['1'],6,638,[0.14088426],100,44,hard,plus,dotcolour,alfa,,,121,19,V,R,
670,40,40,15,5,33,47,684,['c'],0,right,['1'],6,451,[0.09884219],100,47,medium,plus,dotcolour,alfa,,,121,19,V,R,
671,41,41,15,5,36,44,2300,['n'],1,right,['2'],5,326,[-0.06229914],98,44,hard,plus,dotcolour,alfa,,,121,19,V,R,
672,42,0,16,5,44,36,717,['n'],0,left,['2'],5,322,[-0.03301025],89,44,hard,plus,dotcolour,alfa,,,121,19,V,R,
673,43,1,16,5,33,47,351,['c'],0,right,['2'],5,216,[0.09536128],100,47,medium,plus,dotcolour,alfa,,,121,19,V,R,
674,44,2,16,5,33,47,632,['n'],1,right,['2'],5,663,[-0.12293925],100,47,medium,plus,dotcolour,alfa,,,121,19,V,R,
675,45,3,16,5,53,27,450,['c'],1,left,['2'],5,468,[0.04202843],90,53,easy,plus,dotcolour,alfa,,,121,19,V,R,
676,46,4,16,5,27,53,532,['n'],1,right,['1'],6,197,[-0.05075379],98,53,easy,plus,dotcolour,alfa,,,121,19,V,R,
677,47,5,16,5,36,44,632,['n'],1,right,['2'],5,758,[-0.12386921],99,44,hard,plus,dotcolour,alfa,,,121,19,V,R,
678,48,6,16,5,44,36,614,['n'],0,left,['2'],5,496,[-0.07705058],98,44,hard,plus,dotcolour,alfa,,,121,19,V,R,
679,49,7,16,5,47,33,515,['c'],1,left,['2'],5,105,[0.10808056],100,47,medium,plus,dotcolour,alfa,,,121,19,V,R,
680,50,8,16,5,27,53,665,['n'],1,right,['1'],6,331,[-0.1383926],100,53,easy,plus,dotcolour,alfa,,,121,19,V,R,
681,51,9,16,5,36,44,613,['n'],1,right,['1'],6,247,[-0.06059707],99,44,hard,plus,dotcolour,alfa,,,121,19,V,R,
682,52,10,16,5,36,44,548,['c'],0,right,['2'],5,200,[0.05982793],99,44,hard,plus,dotcolour,alfa,,,121,19,V,R,
683,53,11,16,5,44,36,316,['c'],1,left,['2'],5,221,[0.04890921],98,44,hard,plus,dotcolour,alfa,,,121,19,V,R,
684,54,12,16,5,44,36,699,['c'],1,left,['2'],5,122,[0.05500253],100,44,hard,plus,dotcolour,alfa,,,121,19,V,R,
685,55,13,16,5,33,47,266,['c'],0,right,['9'],2,941,[-0.0564748],11,47,medium,plus,dotcolour,alfa,,,121,19,V,R,
686,56,14,16,5,47,33,815,['c'],1,left,['1'],6,159,[0.05490103],99,47,medium,plus,dotcolour,alfa,,,121,19,V,R,
687,57,15,16,5,36,44,748,['n'],1,right,['2'],5,244,[-0.04900561],97,44,hard,plus,dotcolour,alfa,,,121,19,V,R,
688,58,16,16,5,27,53,1050,['n'],1,right,['2'],5,234,[-0.09849103],100,53,easy,plus,dotcolour,alfa,,,121,19,V,R,
689,59,17,16,5,36,44,515,['n'],1,right,['1'],6,254,[-0.08853472],100,44,hard,plus,dotcolour,alfa,,,121,19,V,R,
690,60,18,16,5,47,33,547,['n'],0,left,['9'],2,1279,[0.05536858],15,47,medium,plus,dotcolour,alfa,,,121,19,V,R,
691,61,19,16,5,27,53,799,['n'],1,right,['1'],6,358,[-0.15671276],100,53,easy,plus,dotcolour,alfa,,,121,19,V,R,
692,62,20,16,5,47,33,415,['c'],1,left,['2'],5,824,[0.27439901],100,47,medium,plus,dotcolour,alfa,,,121,19,V,R,
693,63,21,16,5,47,33,465,['c'],1,left,['1'],6,333,[0.05182163],96,47,medium,plus,dotcolour,alfa,,,121,19,V,R,
694,64,22,16,5,53,27,332,['c'],1,left,['1'],6,380,[0.0708509],98,53,easy,plus,dotcolour,alfa,,,121,19,V,R,
695,65,23,16,5,44,36,416,['c'],1,left,['2'],5,94,[0.06352732],100,44,hard,plus,dotcolour,alfa,,,121,19,V,R,
696,66,24,16,5,53,27,482,['c'],1,left,['2'],5,96,[0.11065571],100,53,easy,plus,dotcolour,alfa,,,121,19,V,R,
697,67,25,16,5,47,33,383,['c'],1,left,['2'],5,270,[0.1431364],100,47,medium,plus,dotcolour,alfa,,,121,19,V,R,
698,68,26,16,5,44,36,349,['c'],1,left,['2'],5,151,[0.09309274],100,44,hard,plus,dotcolour,alfa,,,121,19,V,R,
699,69,27,16,5,36,44,415,['c'],0,right,['2'],5,50,[0.05637867],100,44,hard,plus,dotcolour,alfa,,,121,19,V,R,
700,70,28,16,5,27,53,532,['c'],0,right,['2'],5,133,[0.05183135],99,53,easy,plus,dotcolour,alfa,,,121,19,V,R,
701,71,29,16,5,33,47,749,['n'],1,right,['1'],6,307,[-0.13414432],100,47,medium,plus,dotcolour,alfa,,,121,19,V,R,
702,72,30,16,5,53,27,632,['c'],1,left,['1'],6,103,[0.09832866],100,53,easy,plus,dotcolour,alfa,,,121,19,V,R,
703,73,31,16,5,27,53,532,['n'],1,right,['1'],6,190,[-0.13035032],100,53,easy,plus,dotcolour,alfa,,,121,19,V,R,
704,74,32,16,5,36,44,616,['n'],1,right,['1'],6,167,[-0.15044376],100,44,hard,plus,dotcolour,alfa,,,121,19,V,R,
705,75,33,16,5,33,47,682,['n'],1,right,['1'],6,247,[-0.13355655],100,47,medium,plus,dotcolour,alfa,,,121,19,V,R,
706,76,34,16,5,53,27,347,['c'],1,left,['1'],6,176,[0.10912386],100,53,easy,plus,dotcolour,alfa,,,121,19,V,R,
707,77,35,16,5,53,27,715,['c'],1,left,['1'],6,622,[0.08078237],98,53,easy,plus,dotcolour,alfa,,,121,19,V,R,
708,78,36,16,5,47,33,831,['c'],1,left,['1'],6,189,[0.05844054],99,47,medium,plus,dotcolour,alfa,,,121,19,V,R,
709,79,37,16,5,44,36,1615,['c'],1,left,['2'],5,527,[0.06078521],95,44,hard,plus,dotcolour,alfa,,,121,19,V,R,
710,80,38,16,5,53,27,398,['c'],1,left,['1'],6,195,[0.10819147],100,53,easy,plus,dotcolour,alfa,,,121,19,V,R,
711,81,39,16,5,33,47,532,['n'],1,right,['1'],6,207,[-0.09443314],100,47,medium,plus,dotcolour,alfa,,,121,19,V,R,
712,82,40,16,5,27,53,516,['n'],1,right,['1'],6,244,[-0.05761419],99,53,easy,plus,dotcolour,alfa,,,121,19,V,R,
713,83,41,16,5,33,47,565,['n'],1,right,['1'],6,236,[-0.06520577],99,47,medium,plus,dotcolour,alfa,,,121,19,V,R,
714,84,0,17,5,36,44,682,['c'],0,right,['1'],6,102,[0.07463028],100,44,hard,plus,dotcolour,alfa,,,121,19,V,R,
715,85,1,17,5,44,36,332,['c'],1,left,['1'],6,87,[0.14346348],100,44,hard,plus,dotcolour,alfa,,,121,19,V,R,
716,86,2,17,5,47,33,481,['c'],1,left,['1'],6,729,[0.09998189],99,47,medium,plus,dotcolour,alfa,,,121,19,V,R,
717,87,3,17,5,44,36,448,['c'],1,left,['1'],6,148,[0.07728466],100,44,hard,plus,dotcolour,alfa,,,121,19,V,R,
718,88,4,17,5,47,33,397,['c'],1,left,['1'],6,160,[0.08274476],100,47,medium,plus,dotcolour,alfa,,,121,19,V,R,
719,89,5,17,5,33,47,365,['c'],0,right,['1'],6,124,[0.07576405],100,47,medium,plus,dotcolour,alfa,,,121,19,V,R,
720,90,6,17,5,47,33,430,['c'],1,left,['2'],5,143,[0.08749178],100,47,medium,plus,dotcolour,alfa,,,121,19,V,R,
721,91,7,17,5,27,53,415,['c'],0,right,['2'],5,130,[0.05081258],99,53,easy,plus,dotcolour,alfa,,,121,19,V,R,
722,92,8,17,5,53,27,249,['c'],1,left,['2'],5,165,[0.15474942],100,53,easy,plus,dotcolour,alfa,,,121,19,V,R,
723,93,9,17,5,44,36,365,['c'],1,left,['1'],6,169,[0.10306494],100,44,hard,plus,dotcolour,alfa,,,121,19,V,R,
724,94,10,17,5,44,36,332,['c'],1,left,['1'],6,278,[0.0361737],92,44,hard,plus,dotcolour,alfa,,,121,19,V,R,
725,95,11,17,5,47,33,332,['c'],1,left,['1'],6,143,[0.09161891],100,47,medium,plus,dotcolour,alfa,,,121,19,V,R,
726,96,12,17,5,33,47,300,['c'],0,right,['1'],6,175,[-0.00445704],41,47,medium,plus,dotcolour,alfa,,,121,19,V,R,
727,97,13,17,5,27,53,333,['c'],0,right,['9'],2,900,[0.09471514],97,53,easy,plus,dotcolour,alfa,,,121,19,V,R,
728,98,14,17,5,53,27,582,['c'],1,left,['1'],6,201,[0.11561327],100,53,easy,plus,dotcolour,alfa,,,121,19,V,R,
729,99,15,17,5,44,36,382,['c'],1,left,['1'],6,212,[0.00526176],60,44,hard,plus,dotcolour,alfa,,,121,19,V,R,
730,100,16,17,5,36,44,1949,['c'],0,right,['2'],5,159,[-0.01297442],24,44,hard,plus,dotcolour,alfa,,,121,19,V,R,
731,101,17,17,5,33,47,763,['n'],1,right,['2'],5,643,[-0.10660282],99,47,medium,plus,dotcolour,alfa,,,121,19,V,R,
732,102,18,17,5,53,27,798,['c'],1,left,['2'],5,163,[0.0868403],100,53,easy,plus,dotcolour,alfa,,,121,19,V,R,
733,103,19,17,5,47,33,481,['c'],1,left,['2'],5,107,[0.09328759],100,47,medium,plus,dotcolour,alfa,,,121,19,V,R,
734,104,20,17,5,53,27,498,['c'],1,left,['1'],6,148,[0.14659994],100,53,easy,plus,dotcolour,alfa,,,121,19,V,R,
735,105,21,17,5,33,47,332,['c'],0,right,['2'],5,306,[0.12600272],100,47,medium,plus,dotcolour,alfa,,,121,19,V,R,
736,106,22,17,5,36,44,300,['c'],0,right,['1'],6,507,[-0.07912055],2,44,hard,plus,dotcolour,alfa,,,121,19,V,R,
737,107,23,17,5,53,27,433,['c'],1,left,['2'],5,135,[0.10779191],100,53,easy,plus,dotcolour,alfa,,,121,19,V,R,
738,108,24,17,5,53,27,430,['c'],1,left,['2'],5,58,[0.05589178],100,53,easy,plus,dotcolour,alfa,,,121,19,V,R,
739,109,25,17,5,36,44,815,['n'],1,right,['2'],5,201,[-0.12689184],100,44,hard,plus,dotcolour,alfa,,,121,19,V,R,
740,110,26,17,5,33,47,431,['c'],0,right,['2'],5,274,[0.01552227],74,47,medium,plus,dotcolour,alfa,,,121,19,V,R,
741,111,27,17,5,53,27,349,['n'],0,left,['9'],2,946,[0.29741323],0,53,easy,plus,dotcolour,alfa,,,121,19,V,R,
742,112,28,17,5,44,36,415,['c'],1,left,['2'],5,172,[0.15068432],100,44,hard,plus,dotcolour,alfa,,,121,19,V,R,
743,113,29,17,5,27,53,798,['n'],1,right,['2'],5,207,[-0.11012305],100,53,easy,plus,dotcolour,alfa,,,121,19,V,R,
744,114,30,17,5,36,44,1000,['n'],1,right,['1'],6,224,[-0.04413934],97,44,hard,plus,dotcolour,alfa,,,121,19,V,R,
745,115,31,17,5,36,44,615,['n'],1,right,['2'],5,528,[-0.13891633],100,44,hard,plus,dotcolour,alfa,,,121,19,V,R,
746,116,32,17,5,47,33,432,['c'],1,left,['1'],6,204,[0.08812812],100,47,medium,plus,dotcolour,alfa,,,121,19,V,R,
747,117,33,17,5,47,33,384,['c'],1,left,['1'],6,133,[0.18745097],100,47,medium,plus,dotcolour,alfa,,,121,19,V,R,
748,118,34,17,5,33,47,597,['n'],1,right,['1'],6,202,[-0.08940459],100,47,medium,plus,dotcolour,alfa,,,121,19,V,R,
749,119,35,17,5,33,47,748,['n'],1,right,['2'],5,397,[-0.17450438],100,47,medium,plus,dotcolour,alfa,,,121,19,V,R,
750,120,36,17,5,44,36,231,['c'],1,left,['1'],6,334,[0.09851244],100,44,hard,plus,dotcolour,alfa,,,121,19,V,R,
751,121,37,17,5,27,53,549,['n'],1,right,['1'],6,220,[-0.18587415],100,53,easy,plus,dotcolour,alfa,,,121,19,V,R,
752,122,38,17,5,36,44,682,['c'],0,right,['1'],6,498,[0.12568876],100,44,hard,plus,dotcolour,alfa,,,121,19,V,R,
753,123,39,17,5,27,53,484,['n'],1,right,['1'],6,188,[-0.03131359],93,53,easy,plus,dotcolour,alfa,,,121,19,V,R,
754,124,40,17,5,27,53,466,['n'],1,right,['2'],5,187,[-0.0880051],100,53,easy,plus,dotcolour,alfa,,,121,19,V,R,
755,125,41,17,5,27,53,1100,['n'],1,right,['2'],5,313,[-0.09842282],100,53,easy,plus,dotcolour,alfa,,,121,19,V,R,
,,,,,,,,,,,,,,,,,,,,,1,  ,121,19,V,R,
,,,,,,,,,,,,,,,,,,,,,2,['g'],121,19,V,R,
,,,,,,,,,,,,,,,,,,,,,3,['h'],121,19,V,R,
,,,,,,,,,,,,,,,,,,,,,5,['5'],121,19,V,R,
