trial,withinphasetrial,withinblocktrial,block,phase,dotsLeft,dotsRight,rt,resp,cor,cresp,conf_press,cj,RTconf,ev,fb,diff,difflevel,condition,task,manip,questionID,questionResp,sub,age,gender,handedness,
0,0,0,0,0,27,53,2934,['n'],1,right,['1'],6,4199,[-0.79543166],100,53,easy,minus,dotcolour,beta,,,45,18,V,R,
1,1,1,0,0,33,47,1233,['n'],1,right,['1'],6,5429,[-0.533724],98,47,medium,minus,dotcolour,beta,,,45,18,V,R,
2,2,2,0,0,36,44,983,['n'],1,right,['2'],5,1172,[0.10405021],7,44,hard,minus,dotcolour,beta,,,45,18,V,R,
3,3,3,0,0,36,44,1983,['c'],0,right,['3'],4,2151,[-0.27797196],2,44,hard,minus,dotcolour,beta,,,45,18,V,R,
4,4,4,0,0,33,47,2450,['n'],1,right,['8'],3,919,[-0.27389523],98,47,medium,minus,dotcolour,beta,,,45,18,V,R,
5,5,5,0,0,53,27,1800,['c'],1,left,['3'],4,1116,[0.06242132],53,53,easy,minus,dotcolour,beta,,,45,18,V,R,
6,6,6,0,0,53,27,1117,['c'],1,left,['3'],4,1723,[0.44174324],100,53,easy,minus,dotcolour,beta,,,45,18,V,R,
7,7,7,0,0,36,44,1766,['n'],1,right,['8'],3,1016,[0.07941615],8,44,hard,minus,dotcolour,beta,,,45,18,V,R,
8,8,8,0,0,36,44,816,['n'],1,right,['8'],3,1032,[-0.18758977],91,44,hard,minus,dotcolour,beta,,,45,18,V,R,
9,9,9,0,0,53,27,1217,['c'],1,left,['2'],5,1247,[0.42138318],100,53,easy,minus,dotcolour,beta,,,45,18,V,R,
10,10,10,0,0,44,36,899,['c'],1,left,['3'],4,842,[0.21274405],96,44,hard,minus,dotcolour,beta,,,45,18,V,R,
11,11,11,0,0,47,33,1099,['c'],1,left,['3'],4,1469,[0.33795938],99,47,medium,minus,dotcolour,beta,,,45,18,V,R,
12,12,12,0,0,47,33,1367,['c'],1,left,['3'],4,853,[0.11526713],76,47,medium,minus,dotcolour,beta,,,45,18,V,R,
13,13,13,0,0,44,36,883,['c'],1,left,['8'],3,825,[0.17992357],92,44,hard,minus,dotcolour,beta,,,45,18,V,R,
14,14,14,0,0,47,33,1100,['c'],1,left,['3'],4,740,[0.26797113],99,47,medium,minus,dotcolour,beta,,,45,18,V,R,
15,15,15,0,0,44,36,1583,['c'],1,left,['2'],5,864,[0.01493867],31,44,hard,minus,dotcolour,beta,,,45,18,V,R,
16,16,16,0,0,44,36,1433,['c'],1,left,['3'],4,863,[0.24247371],97,44,hard,minus,dotcolour,beta,,,45,18,V,R,
17,17,17,0,0,53,27,1000,['c'],1,left,['3'],4,1940,[0.36319718],98,53,easy,minus,dotcolour,beta,,,45,18,V,R,
18,18,18,0,0,33,47,1234,['n'],1,right,['8'],3,1127,[-0.12819605],77,47,medium,minus,dotcolour,beta,,,45,18,V,R,
19,19,19,0,0,44,36,1316,['c'],1,left,['3'],4,870,[0.32245424],99,44,hard,minus,dotcolour,beta,,,45,18,V,R,
20,20,20,0,0,33,47,833,['n'],1,right,['3'],4,1531,[-0.23592607],93,47,medium,minus,dotcolour,beta,,,45,18,V,R,
21,21,21,0,0,27,53,1067,['n'],1,right,['1'],6,699,[-0.10762101],75,53,easy,minus,dotcolour,beta,,,45,18,V,R,
22,22,22,0,0,27,53,750,['n'],1,right,['2'],5,882,[-0.15462157],87,53,easy,minus,dotcolour,beta,,,45,18,V,R,
23,23,23,0,0,27,53,734,['n'],1,right,['2'],5,603,[-0.29284838],100,53,easy,minus,dotcolour,beta,,,45,18,V,R,
24,24,24,0,0,44,36,1733,['n'],0,left,['8'],3,790,[-0.19454316],94,44,hard,minus,dotcolour,beta,,,45,18,V,R,
25,25,25,0,0,47,33,667,['c'],1,left,['3'],4,581,[0.23404916],99,47,medium,minus,dotcolour,beta,,,45,18,V,R,
26,26,26,0,0,47,33,916,['c'],1,left,['3'],4,539,[0.12509422],85,47,medium,minus,dotcolour,beta,,,45,18,V,R,
27,27,27,0,0,27,53,733,['n'],1,right,['2'],5,745,[-0.30415013],99,53,easy,minus,dotcolour,beta,,,45,18,V,R,
28,28,28,0,0,44,36,1033,['n'],0,left,['8'],3,715,[-0.12592276],82,44,hard,minus,dotcolour,beta,,,45,18,V,R,
29,29,29,0,0,27,53,783,['n'],1,right,['3'],4,696,[-0.21437033],97,53,easy,minus,dotcolour,beta,,,45,18,V,R,
30,30,30,0,0,36,44,1333,['c'],0,right,['2'],5,544,[0.19764868],97,44,hard,minus,dotcolour,beta,,,45,18,V,R,
31,31,31,0,0,33,47,800,['n'],1,right,['3'],4,467,[-0.0581795],52,47,medium,minus,dotcolour,beta,,,45,18,V,R,
32,32,32,0,0,33,47,750,['n'],1,right,['8'],3,564,[-0.18348614],96,47,medium,minus,dotcolour,beta,,,45,18,V,R,
33,33,33,0,0,53,27,683,['c'],1,left,['2'],5,635,[0.22001356],98,53,easy,minus,dotcolour,beta,,,45,18,V,R,
34,34,34,0,0,53,27,1300,['c'],1,left,['2'],5,535,[0.11150714],80,53,easy,minus,dotcolour,beta,,,45,18,V,R,
35,35,35,0,0,47,33,1815,['c'],1,left,['3'],4,539,[0.15569522],92,47,medium,minus,dotcolour,beta,,,45,18,V,R,
36,36,36,0,0,36,44,1617,['n'],1,right,['8'],3,998,[-0.1141378],74,44,hard,minus,dotcolour,beta,,,45,18,V,R,
37,37,37,0,0,36,44,1517,['n'],1,right,['3'],4,562,[-0.18515646],96,44,hard,minus,dotcolour,beta,,,45,18,V,R,
38,38,38,0,0,47,33,1483,['n'],0,left,['9'],2,1113,[-0.0633474],53,47,medium,minus,dotcolour,beta,,,45,18,V,R,
39,39,39,0,0,27,53,1000,['n'],1,right,['3'],4,502,[-0.02957446],34,53,easy,minus,dotcolour,beta,,,45,18,V,R,
40,40,40,0,0,53,27,3683,['n'],0,left,['0'],1,632,[0.15192009],1,53,easy,minus,dotcolour,beta,,,45,18,V,R,
41,41,41,0,0,33,47,1400,['n'],1,right,['3'],4,553,[-0.00026309],21,47,medium,minus,dotcolour,beta,,,45,18,V,R,
42,42,0,1,0,36,44,1385,['n'],1,right,['3'],4,556,[-0.12977406],86,44,hard,minus,dotcolour,beta,,,45,18,V,R,
43,43,1,1,0,27,53,699,['n'],1,right,['3'],4,619,[-0.0702182],58,53,easy,minus,dotcolour,beta,,,45,18,V,R,
44,44,2,1,0,47,33,583,['c'],1,left,['2'],5,612,[0.19417519],96,47,medium,minus,dotcolour,beta,,,45,18,V,R,
45,45,3,1,0,33,47,650,['n'],1,right,['1'],6,586,[-0.16204397],92,47,medium,minus,dotcolour,beta,,,45,18,V,R,
46,46,4,1,0,53,27,584,['c'],1,left,['1'],6,501,[0.13201414],87,53,easy,minus,dotcolour,beta,,,45,18,V,R,
47,47,5,1,0,47,33,683,['c'],1,left,['2'],5,439,[0.27060636],100,47,medium,minus,dotcolour,beta,,,45,18,V,R,
48,48,6,1,0,36,44,1284,['c'],0,right,['3'],4,459,[-0.00148455],18,44,hard,minus,dotcolour,beta,,,45,18,V,R,
49,49,7,1,0,53,27,800,['c'],1,left,['2'],5,513,[0.1494025],91,53,easy,minus,dotcolour,beta,,,45,18,V,R,
50,50,8,1,0,36,44,1533,['n'],1,right,['8'],3,593,[-0.00494762],23,44,hard,minus,dotcolour,beta,,,45,18,V,R,
51,51,9,1,0,33,47,817,['n'],1,right,['3'],4,481,[0.05407356],5,47,medium,minus,dotcolour,beta,,,45,18,V,R,
52,52,10,1,0,44,36,1500,['c'],1,left,['2'],5,485,[0.1222532],85,44,hard,minus,dotcolour,beta,,,45,18,V,R,
53,53,11,1,0,53,27,918,['c'],1,left,['3'],4,493,[0.19430718],97,53,easy,minus,dotcolour,beta,,,45,18,V,R,
54,54,12,1,0,44,36,883,['n'],0,left,['8'],3,543,[0.00177162],20,44,hard,minus,dotcolour,beta,,,45,18,V,R,
55,55,13,1,0,47,33,683,['c'],1,left,['2'],5,663,[0.13917165],86,47,medium,minus,dotcolour,beta,,,45,18,V,R,
56,56,14,1,0,53,27,667,['c'],1,left,['3'],4,540,[0.09735604],74,53,easy,minus,dotcolour,beta,,,45,18,V,R,
57,57,15,1,0,33,47,650,['n'],1,right,['2'],5,412,[-0.06319892],55,47,medium,minus,dotcolour,beta,,,45,18,V,R,
58,58,16,1,0,27,53,650,['n'],1,right,['1'],6,835,[-0.17245974],91,53,easy,minus,dotcolour,beta,,,45,18,V,R,
59,59,17,1,0,53,27,1501,['c'],1,left,['2'],5,462,[0.26727995],100,53,easy,minus,dotcolour,beta,,,45,18,V,R,
60,60,18,1,0,47,33,2083,['n'],0,left,['8'],3,594,[-0.05502705],50,47,medium,minus,dotcolour,beta,,,45,18,V,R,
61,61,19,1,0,44,36,733,['c'],1,left,['8'],3,1149,[0.21303183],93,44,hard,minus,dotcolour,beta,,,45,18,V,R,
62,62,20,1,0,36,44,2400,['n'],1,right,['8'],3,2016,[-0.29522309],95,44,hard,minus,dotcolour,beta,,,45,18,V,R,
63,63,21,1,0,47,33,1200,['c'],1,left,['2'],5,1424,[0.41969216],100,47,medium,minus,dotcolour,beta,,,45,18,V,R,
64,64,22,1,0,33,47,1517,['n'],1,right,['9'],2,1924,[-0.13872674],75,47,medium,minus,dotcolour,beta,,,45,18,V,R,
65,65,23,1,0,44,36,801,['c'],1,left,['3'],4,344,[0.12219308],89,44,hard,minus,dotcolour,beta,,,45,18,V,R,
66,66,24,1,0,33,47,1067,['n'],1,right,['8'],3,664,[-0.12490982],82,47,medium,minus,dotcolour,beta,,,45,18,V,R,
67,67,25,1,0,44,36,1650,['n'],0,left,['9'],2,469,[0.03956293],8,44,hard,minus,dotcolour,beta,,,45,18,V,R,
68,68,26,1,0,33,47,1417,['n'],1,right,['2'],5,955,[0.00691116],24,47,medium,minus,dotcolour,beta,,,45,18,V,R,
69,69,27,1,0,44,36,2100,['n'],0,left,['3'],4,658,[0.00282893],21,44,hard,minus,dotcolour,beta,,,45,18,V,R,
70,70,28,1,0,36,44,816,['n'],1,right,['3'],4,432,[-0.08604304],70,44,hard,minus,dotcolour,beta,,,45,18,V,R,
71,71,29,1,0,36,44,800,['c'],0,right,['2'],5,528,[-0.07277507],4,44,hard,minus,dotcolour,beta,,,45,18,V,R,
72,72,30,1,0,53,27,867,['c'],1,left,['1'],6,465,[0.0972692],75,53,easy,minus,dotcolour,beta,,,45,18,V,R,
73,73,31,1,0,27,53,718,['n'],1,right,['1'],6,507,[-0.18695171],97,53,easy,minus,dotcolour,beta,,,45,18,V,R,
74,74,32,1,0,27,53,634,['n'],1,right,['1'],6,383,[0.0003732],16,53,easy,minus,dotcolour,beta,,,45,18,V,R,
75,75,33,1,0,27,53,817,['n'],1,right,['1'],6,376,[-0.09123757],74,53,easy,minus,dotcolour,beta,,,45,18,V,R,
76,76,34,1,0,47,33,1167,['c'],1,left,['3'],4,979,[0.28036011],98,47,medium,minus,dotcolour,beta,,,45,18,V,R,
77,77,35,1,0,47,33,1466,['n'],0,left,['2'],5,402,[0.00962113],14,47,medium,minus,dotcolour,beta,,,45,18,V,R,
78,78,36,1,0,53,27,2167,['n'],0,left,['9'],2,1078,[-0.09564144],67,53,easy,minus,dotcolour,beta,,,45,18,V,R,
79,79,37,1,0,27,53,750,['n'],1,right,['3'],4,453,[-0.17201228],96,53,easy,minus,dotcolour,beta,,,45,18,V,R,
80,80,38,1,0,36,44,1284,['c'],0,right,['8'],3,513,[0.02681399],33,44,hard,minus,dotcolour,beta,,,45,18,V,R,
81,81,39,1,0,33,47,850,['n'],1,right,['3'],4,1948,[-0.31083453],96,47,medium,minus,dotcolour,beta,,,45,18,V,R,
82,82,40,1,0,44,36,3067,['c'],1,left,['3'],4,644,[0.15676077],91,44,hard,minus,dotcolour,beta,,,45,18,V,R,
83,83,41,1,0,27,53,733,['n'],1,right,['1'],6,438,[-0.19399629],98,53,easy,minus,dotcolour,beta,,,45,18,V,R,
84,84,0,2,0,33,47,718,['n'],1,right,['3'],4,687,[-0.19180961],95,47,medium,minus,dotcolour,beta,,,45,18,V,R,
85,85,1,2,0,47,33,1550,['c'],1,left,['8'],3,631,[0.16424164],92,47,medium,minus,dotcolour,beta,,,45,18,V,R,
86,86,2,2,0,44,36,983,['n'],0,left,['2'],5,383,[-0.00750373],20,44,hard,minus,dotcolour,beta,,,45,18,V,R,
87,87,3,2,0,36,44,700,['n'],1,right,['3'],4,437,[-0.09468736],74,44,hard,minus,dotcolour,beta,,,45,18,V,R,
88,88,4,2,0,47,33,769,['c'],1,left,['3'],4,1127,[0.33561184],99,47,medium,minus,dotcolour,beta,,,45,18,V,R,
89,89,5,2,0,27,53,1083,['n'],1,right,['3'],4,391,[-0.25535194],100,53,easy,minus,dotcolour,beta,,,45,18,V,R,
90,90,6,2,0,47,33,900,['c'],1,left,['3'],4,461,[0.22692027],99,47,medium,minus,dotcolour,beta,,,45,18,V,R,
91,91,7,2,0,53,27,767,['c'],1,left,['1'],6,501,[0.11040809],80,53,easy,minus,dotcolour,beta,,,45,18,V,R,
92,92,8,2,0,53,27,767,['c'],1,left,['1'],6,627,[0.09370529],70,53,easy,minus,dotcolour,beta,,,45,18,V,R,
93,93,9,2,0,44,36,2034,['n'],0,left,['3'],4,994,[-0.24698237],97,44,hard,minus,dotcolour,beta,,,45,18,V,R,
94,94,10,2,0,44,36,950,['c'],1,left,['1'],6,429,[0.08017374],66,44,hard,minus,dotcolour,beta,,,45,18,V,R,
95,95,11,2,0,44,36,1984,['n'],0,left,['3'],4,878,[0.00919525],22,44,hard,minus,dotcolour,beta,,,45,18,V,R,
96,96,12,2,0,27,53,833,['n'],1,right,['1'],6,1387,[-0.30820215],98,53,easy,minus,dotcolour,beta,,,45,18,V,R,
97,97,13,2,0,47,33,1283,['c'],1,left,['1'],6,705,[0.21466423],97,47,medium,minus,dotcolour,beta,,,45,18,V,R,
98,98,14,2,0,44,36,1417,['n'],0,left,['3'],4,893,[-0.00663466],28,44,hard,minus,dotcolour,beta,,,45,18,V,R,
99,99,15,2,0,36,44,683,['n'],1,right,['2'],5,503,[-0.07277978],61,44,hard,minus,dotcolour,beta,,,45,18,V,R,
100,100,16,2,0,53,27,615,['c'],1,left,['2'],5,443,[0.13594987],90,53,easy,minus,dotcolour,beta,,,45,18,V,R,
101,101,17,2,0,27,53,733,['n'],1,right,['2'],5,381,[-0.14800664],94,53,easy,minus,dotcolour,beta,,,45,18,V,R,
102,102,18,2,0,33,47,1134,['n'],1,right,['2'],5,650,[0.01127208],18,47,medium,minus,dotcolour,beta,,,45,18,V,R,
103,103,19,2,0,33,47,700,['n'],1,right,['2'],5,381,[-0.06037853],54,47,medium,minus,dotcolour,beta,,,45,18,V,R,
104,104,20,2,0,36,44,684,['n'],1,right,['2'],5,324,[-0.08448204],71,44,hard,minus,dotcolour,beta,,,45,18,V,R,
105,105,21,2,0,33,47,634,['n'],1,right,['2'],5,375,[-0.08335336],69,47,medium,minus,dotcolour,beta,,,45,18,V,R,
106,106,22,2,0,33,47,550,['n'],1,right,['2'],5,347,[-0.08213118],69,47,medium,minus,dotcolour,beta,,,45,18,V,R,
107,107,23,2,0,27,53,650,['n'],1,right,['2'],5,444,[-0.13558295],90,53,easy,minus,dotcolour,beta,,,45,18,V,R,
108,108,24,2,0,27,53,600,['n'],1,right,['2'],5,339,[-0.14083042],93,53,easy,minus,dotcolour,beta,,,45,18,V,R,
109,109,25,2,0,44,36,768,['c'],1,left,['3'],4,368,[0.06428496],56,44,hard,minus,dotcolour,beta,,,45,18,V,R,
110,110,26,2,0,53,27,684,['c'],1,left,['2'],5,416,[0.17454934],97,53,easy,minus,dotcolour,beta,,,45,18,V,R,
111,111,27,2,0,53,27,717,['c'],1,left,['2'],5,379,[0.13768098],92,53,easy,minus,dotcolour,beta,,,45,18,V,R,
112,112,28,2,0,27,53,584,['n'],1,right,['2'],5,326,[-0.07628889],66,53,easy,minus,dotcolour,beta,,,45,18,V,R,
113,113,29,2,0,36,44,600,['n'],1,right,['2'],5,266,[-0.05842141],52,44,hard,minus,dotcolour,beta,,,45,18,V,R,
114,114,30,2,0,44,36,583,['c'],1,left,['2'],5,346,[0.12549105],89,44,hard,minus,dotcolour,beta,,,45,18,V,R,
115,115,31,2,0,47,33,717,['c'],1,left,['2'],5,440,[0.06634573],57,47,medium,minus,dotcolour,beta,,,45,18,V,R,
116,116,32,2,0,36,44,1100,['n'],1,right,['3'],4,364,[-0.02260496],27,44,hard,minus,dotcolour,beta,,,45,18,V,R,
117,117,33,2,0,36,44,750,['n'],1,right,['2'],5,368,[-0.00332773],18,44,hard,minus,dotcolour,beta,,,45,18,V,R,
118,118,34,2,0,36,44,1417,['n'],1,right,['8'],3,1091,[-0.12030613],75,44,hard,minus,dotcolour,beta,,,45,18,V,R,
119,119,35,2,0,47,33,1684,['c'],1,left,['8'],3,1372,[0.16006971],83,47,medium,minus,dotcolour,beta,,,45,18,V,R,
120,120,36,2,0,27,53,733,['n'],1,right,['2'],5,465,[-0.14493248],91,53,easy,minus,dotcolour,beta,,,45,18,V,R,
121,121,37,2,0,33,47,550,['n'],1,right,['2'],5,882,[-0.14749541],85,47,medium,minus,dotcolour,beta,,,45,18,V,R,
122,122,38,2,0,53,27,967,['c'],1,left,['1'],6,369,[0.04110435],39,53,easy,minus,dotcolour,beta,,,45,18,V,R,
123,123,39,2,0,47,33,1617,['c'],1,left,['8'],3,651,[0.10267594],74,47,medium,minus,dotcolour,beta,,,45,18,V,R,
124,124,40,2,0,33,47,1650,['c'],0,right,['3'],4,1016,[-0.0240056],19,47,medium,minus,dotcolour,beta,,,45,18,V,R,
125,125,41,2,0,53,27,983,['c'],1,left,['2'],5,434,[0.08563734],69,53,easy,minus,dotcolour,beta,,,45,18,V,R,
126,0,0,3,1,44,36,1068,['n'],0,left,['8'],3,318,[-0.08991349],99,44,hard,plus,dotcolour,beta,,,45,18,V,R,
127,1,1,3,1,44,36,817,['n'],0,left,['3'],4,275,[-0.10387817],100,44,hard,plus,dotcolour,beta,,,45,18,V,R,
128,2,2,3,1,47,33,883,['n'],0,left,['8'],3,573,[-0.03580396],90,47,medium,plus,dotcolour,beta,,,45,18,V,R,
129,3,3,3,1,44,36,1017,['c'],1,left,['8'],3,503,[0.04735475],93,44,hard,plus,dotcolour,beta,,,45,18,V,R,
130,4,4,3,1,53,27,767,['c'],1,left,['3'],4,1373,[0.48625221],100,53,easy,plus,dotcolour,beta,,,45,18,V,R,
131,5,5,3,1,36,44,767,['n'],1,right,['8'],3,393,[-0.07387658],98,44,hard,plus,dotcolour,beta,,,45,18,V,R,
132,6,6,3,1,27,53,1000,['n'],1,right,['3'],4,842,[-0.04766228],88,53,easy,plus,dotcolour,beta,,,45,18,V,R,
133,7,7,3,1,47,33,884,['n'],0,left,['8'],3,2862,[0.23416395],13,47,medium,plus,dotcolour,beta,,,45,18,V,R,
134,8,8,3,1,33,47,983,['n'],1,right,['8'],3,292,[-0.07125284],99,47,medium,plus,dotcolour,beta,,,45,18,V,R,
135,9,9,3,1,53,27,850,['c'],1,left,['2'],5,648,[0.19314087],100,53,easy,plus,dotcolour,beta,,,45,18,V,R,
136,10,10,3,1,27,53,616,['n'],1,right,['2'],5,351,[-0.23984551],100,53,easy,plus,dotcolour,beta,,,45,18,V,R,
137,11,11,3,1,36,44,483,['n'],1,right,['8'],3,822,[-0.33266739],100,44,hard,plus,dotcolour,beta,,,45,18,V,R,
138,12,12,3,1,47,33,999,['n'],0,left,['9'],2,358,[-0.0546085],96,47,medium,plus,dotcolour,beta,,,45,18,V,R,
139,13,13,3,1,47,33,2000,['c'],1,left,['9'],2,721,[0.12241589],98,47,medium,plus,dotcolour,beta,,,45,18,V,R,
140,14,14,3,1,53,27,3417,['n'],0,left,['0'],1,1012,[0.11809492],25,53,easy,plus,dotcolour,beta,,,45,18,V,R,
141,15,15,3,1,33,47,2767,['n'],1,right,['8'],3,1054,[-0.13999562],97,47,medium,plus,dotcolour,beta,,,45,18,V,R,
142,16,16,3,1,44,36,1267,['c'],1,left,['3'],4,363,[0.10751268],99,44,hard,plus,dotcolour,beta,,,45,18,V,R,
143,17,17,3,1,44,36,2350,['c'],1,left,['3'],4,496,[0.11295058],99,44,hard,plus,dotcolour,beta,,,45,18,V,R,
144,18,18,3,1,47,33,800,['c'],1,left,['3'],4,309,[0.14482557],100,47,medium,plus,dotcolour,beta,,,45,18,V,R,
145,19,19,3,1,33,47,1267,['n'],1,right,['8'],3,327,[-0.15872382],100,47,medium,plus,dotcolour,beta,,,45,18,V,R,
146,20,20,3,1,44,36,1033,['c'],1,left,['3'],4,273,[0.18898457],100,44,hard,plus,dotcolour,beta,,,45,18,V,R,
147,21,21,3,1,47,33,1017,['c'],1,left,['3'],4,438,[-0.01092696],77,47,medium,plus,dotcolour,beta,,,45,18,V,R,
148,22,22,3,1,44,36,2000,['c'],1,left,['3'],4,294,[0.2530103],100,44,hard,plus,dotcolour,beta,,,45,18,V,R,
149,23,23,3,1,33,47,701,['n'],1,right,['3'],4,271,[-0.12565437],100,47,medium,plus,dotcolour,beta,,,45,18,V,R,
150,24,24,3,1,53,27,583,['c'],1,left,['2'],5,591,[0.13710931],99,53,easy,plus,dotcolour,beta,,,45,18,V,R,
151,25,25,3,1,53,27,783,['c'],1,left,['2'],5,345,[0.13072671],100,53,easy,plus,dotcolour,beta,,,45,18,V,R,
152,26,26,3,1,36,44,2750,['n'],1,right,['3'],4,246,[-0.04711278],98,44,hard,plus,dotcolour,beta,,,45,18,V,R,
153,27,27,3,1,27,53,567,['n'],1,right,['3'],4,287,[-0.09946744],99,53,easy,plus,dotcolour,beta,,,45,18,V,R,
154,28,28,3,1,53,27,750,['c'],1,left,['2'],5,535,[0.07483692],96,53,easy,plus,dotcolour,beta,,,45,18,V,R,
155,29,29,3,1,33,47,900,['n'],1,right,['3'],4,407,[-0.17833169],100,47,medium,plus,dotcolour,beta,,,45,18,V,R,
156,30,30,3,1,27,53,484,['n'],1,right,['3'],4,332,[-0.06249473],98,53,easy,plus,dotcolour,beta,,,45,18,V,R,
157,31,31,3,1,36,44,650,['n'],1,right,['3'],4,214,[-0.06519399],99,44,hard,plus,dotcolour,beta,,,45,18,V,R,
158,32,32,3,1,53,27,751,['c'],1,left,['2'],5,449,[0.0720494],97,53,easy,plus,dotcolour,beta,,,45,18,V,R,
159,33,33,3,1,33,47,634,['n'],1,right,['2'],5,319,[-0.0861671],99,47,medium,plus,dotcolour,beta,,,45,18,V,R,
160,34,34,3,1,27,53,717,['n'],1,right,['3'],4,431,[-0.02059058],89,53,easy,plus,dotcolour,beta,,,45,18,V,R,
161,35,35,3,1,33,47,783,['n'],1,right,['2'],5,399,[-0.1532054],100,47,medium,plus,dotcolour,beta,,,45,18,V,R,
162,36,36,3,1,47,33,884,['c'],1,left,['2'],5,485,[0.21554919],100,47,medium,plus,dotcolour,beta,,,45,18,V,R,
163,37,37,3,1,27,53,600,['n'],1,right,['3'],4,340,[-0.0749507],98,53,easy,plus,dotcolour,beta,,,45,18,V,R,
164,38,38,3,1,36,44,1949,['n'],1,right,['0'],1,1545,[-0.3206882],100,44,hard,plus,dotcolour,beta,,,45,18,V,R,
165,39,39,3,1,36,44,834,['n'],1,right,['8'],3,355,[-0.11864392],99,44,hard,plus,dotcolour,beta,,,45,18,V,R,
166,40,40,3,1,36,44,950,['n'],1,right,['9'],2,1560,[-0.27283074],99,44,hard,plus,dotcolour,beta,,,45,18,V,R,
167,41,41,3,1,27,53,700,['n'],1,right,['2'],5,510,[-0.2346359],100,53,easy,plus,dotcolour,beta,,,45,18,V,R,
168,42,0,4,1,27,53,617,['n'],1,right,['2'],5,303,[-0.14907493],100,53,easy,plus,dotcolour,beta,,,45,18,V,R,
169,43,1,4,1,44,36,533,['n'],0,left,['2'],5,328,[-0.08205759],99,44,hard,plus,dotcolour,beta,,,45,18,V,R,
170,44,2,4,1,33,47,483,['n'],1,right,['2'],5,288,[-0.10358211],100,47,medium,plus,dotcolour,beta,,,45,18,V,R,
171,45,3,4,1,44,36,1100,['c'],1,left,['8'],3,466,[0.07000608],96,44,hard,plus,dotcolour,beta,,,45,18,V,R,
172,46,4,4,1,36,44,684,['n'],1,right,['8'],3,373,[-0.07862614],98,44,hard,plus,dotcolour,beta,,,45,18,V,R,
173,47,5,4,1,44,36,917,['c'],1,left,['9'],2,962,[0.14435062],98,44,hard,plus,dotcolour,beta,,,45,18,V,R,
174,48,6,4,1,33,47,750,['n'],1,right,['9'],2,422,[-0.15753253],100,47,medium,plus,dotcolour,beta,,,45,18,V,R,
175,49,7,4,1,47,33,733,['c'],1,left,['3'],4,361,[0.19842393],100,47,medium,plus,dotcolour,beta,,,45,18,V,R,
176,50,8,4,1,36,44,683,['n'],1,right,['8'],3,417,[-0.03644765],93,44,hard,plus,dotcolour,beta,,,45,18,V,R,
177,51,9,4,1,47,33,1702,['c'],1,left,['9'],2,598,[0.27267009],100,47,medium,plus,dotcolour,beta,,,45,18,V,R,
178,52,10,4,1,44,36,1383,['n'],0,left,['8'],3,808,[-0.02420517],83,44,hard,plus,dotcolour,beta,,,45,18,V,R,
179,53,11,4,1,33,47,683,['n'],1,right,['2'],5,557,[0.04278408],58,47,medium,plus,dotcolour,beta,,,45,18,V,R,
180,54,12,4,1,36,44,533,['n'],1,right,['2'],5,371,[-0.18838499],100,44,hard,plus,dotcolour,beta,,,45,18,V,R,
181,55,13,4,1,44,36,700,['c'],1,left,['8'],3,553,[-0.00814796],76,44,hard,plus,dotcolour,beta,,,45,18,V,R,
182,56,14,4,1,47,33,566,['n'],0,left,['3'],4,381,[-0.0755421],98,47,medium,plus,dotcolour,beta,,,45,18,V,R,
183,57,15,4,1,53,27,734,['c'],1,left,['2'],5,418,[0.01915298],89,53,easy,plus,dotcolour,beta,,,45,18,V,R,
184,58,16,4,1,27,53,583,['n'],1,right,['2'],5,443,[-0.20763628],100,53,easy,plus,dotcolour,beta,,,45,18,V,R,
185,59,17,4,1,36,44,1116,['n'],1,right,['9'],2,437,[-0.1398832],100,44,hard,plus,dotcolour,beta,,,45,18,V,R,
186,60,18,4,1,53,27,866,['c'],1,left,['2'],5,426,[0.17795454],100,53,easy,plus,dotcolour,beta,,,45,18,V,R,
187,61,19,4,1,47,33,684,['n'],0,left,['8'],3,423,[-0.16738251],100,47,medium,plus,dotcolour,beta,,,45,18,V,R,
188,62,20,4,1,36,44,668,['n'],1,right,['9'],2,365,[-0.11368219],99,44,hard,plus,dotcolour,beta,,,45,18,V,R,
189,63,21,4,1,33,47,750,['n'],1,right,['2'],5,369,[-0.18101234],100,47,medium,plus,dotcolour,beta,,,45,18,V,R,
190,64,22,4,1,33,47,567,['n'],1,right,['2'],5,349,[-0.15891336],100,47,medium,plus,dotcolour,beta,,,45,18,V,R,
191,65,23,4,1,27,53,651,['n'],1,right,['1'],6,1342,[-0.39784802],100,53,easy,plus,dotcolour,beta,,,45,18,V,R,
192,66,24,4,1,47,33,884,['c'],1,left,['2'],5,351,[0.17734886],100,47,medium,plus,dotcolour,beta,,,45,18,V,R,
193,67,25,4,1,36,44,800,['n'],1,right,['3'],4,330,[-0.06270671],98,44,hard,plus,dotcolour,beta,,,45,18,V,R,
194,68,26,4,1,27,53,567,['n'],1,right,['1'],6,431,[-0.18344057],100,53,easy,plus,dotcolour,beta,,,45,18,V,R,
195,69,27,4,1,47,33,1599,['c'],1,left,['8'],3,359,[0.04734648],96,47,medium,plus,dotcolour,beta,,,45,18,V,R,
196,70,28,4,1,44,36,1017,['n'],0,left,['8'],3,497,[-0.06825863],96,44,hard,plus,dotcolour,beta,,,45,18,V,R,
197,71,29,4,1,53,27,816,['c'],1,left,['1'],6,367,[0.06698015],97,53,easy,plus,dotcolour,beta,,,45,18,V,R,
198,72,30,4,1,33,47,783,['n'],1,right,['1'],6,329,[-0.09351575],99,47,medium,plus,dotcolour,beta,,,45,18,V,R,
199,73,31,4,1,53,27,716,['c'],1,left,['2'],5,369,[0.17789999],100,53,easy,plus,dotcolour,beta,,,45,18,V,R,
200,74,32,4,1,44,36,933,['n'],0,left,['2'],5,414,[-0.03580533],93,44,hard,plus,dotcolour,beta,,,45,18,V,R,
201,75,33,4,1,47,33,950,['n'],0,left,['9'],2,704,[-0.02140242],84,47,medium,plus,dotcolour,beta,,,45,18,V,R,
202,76,34,4,1,36,44,817,['c'],0,right,['0'],1,2068,[0.26239689],98,44,hard,plus,dotcolour,beta,,,45,18,V,R,
203,77,35,4,1,27,53,1184,['n'],1,right,['1'],6,420,[-0.05815462],96,53,easy,plus,dotcolour,beta,,,45,18,V,R,
204,78,36,4,1,53,27,850,['c'],1,left,['1'],6,1034,[0.25567541],100,53,easy,plus,dotcolour,beta,,,45,18,V,R,
205,79,37,4,1,27,53,767,['n'],1,right,['1'],6,378,[-0.059262],97,53,easy,plus,dotcolour,beta,,,45,18,V,R,
206,80,38,4,1,27,53,884,['n'],1,right,['2'],5,393,[-0.16049165],100,53,easy,plus,dotcolour,beta,,,45,18,V,R,
207,81,39,4,1,53,27,817,['c'],1,left,['1'],6,442,[0.22348923],100,53,easy,plus,dotcolour,beta,,,45,18,V,R,
208,82,40,4,1,33,47,701,['n'],1,right,['1'],6,309,[-0.0999949],99,47,medium,plus,dotcolour,beta,,,45,18,V,R,
209,83,41,4,1,53,27,751,['c'],1,left,['2'],5,532,[0.17048277],100,53,easy,plus,dotcolour,beta,,,45,18,V,R,
210,84,0,5,1,44,36,1035,['n'],0,left,['9'],2,680,[-0.05397391],92,44,hard,plus,dotcolour,beta,,,45,18,V,R,
211,85,1,5,1,44,36,951,['c'],1,left,['3'],4,560,[0.14374091],99,44,hard,plus,dotcolour,beta,,,45,18,V,R,
212,86,2,5,1,53,27,1450,['c'],1,left,['3'],4,513,[0.20450251],100,53,easy,plus,dotcolour,beta,,,45,18,V,R,
213,87,3,5,1,33,47,767,['n'],1,right,['3'],4,343,[-0.06193824],97,47,medium,plus,dotcolour,beta,,,45,18,V,R,
214,88,4,5,1,33,47,1283,['n'],1,right,['2'],5,302,[-0.04721208],97,47,medium,plus,dotcolour,beta,,,45,18,V,R,
215,89,5,5,1,47,33,867,['c'],1,left,['1'],6,362,[0.13851806],100,47,medium,plus,dotcolour,beta,,,45,18,V,R,
216,90,6,5,1,27,53,534,['n'],1,right,['1'],6,350,[-0.16299413],100,53,easy,plus,dotcolour,beta,,,45,18,V,R,
217,91,7,5,1,27,53,568,['n'],1,right,['1'],6,259,[-0.18503696],100,53,easy,plus,dotcolour,beta,,,45,18,V,R,
218,92,8,5,1,53,27,667,['c'],1,left,['1'],6,296,[0.16591467],100,53,easy,plus,dotcolour,beta,,,45,18,V,R,
219,93,9,5,1,53,27,517,['c'],1,left,['1'],6,344,[0.12800775],100,53,easy,plus,dotcolour,beta,,,45,18,V,R,
220,94,10,5,1,47,33,468,['n'],0,left,['1'],6,329,[-0.03916103],95,47,medium,plus,dotcolour,beta,,,45,18,V,R,
221,95,11,5,1,27,53,618,['n'],1,right,['1'],6,236,[-0.11100653],100,53,easy,plus,dotcolour,beta,,,45,18,V,R,
222,96,12,5,1,44,36,1234,['n'],0,left,['8'],3,458,[-0.00333616],83,44,hard,plus,dotcolour,beta,,,45,18,V,R,
223,97,13,5,1,44,36,1017,['c'],1,left,['0'],1,1353,[0.25477274],99,44,hard,plus,dotcolour,beta,,,45,18,V,R,
224,98,14,5,1,44,36,984,['c'],1,left,['2'],5,476,[0.12082588],99,44,hard,plus,dotcolour,beta,,,45,18,V,R,
225,99,15,5,1,36,44,566,['n'],1,right,['1'],6,267,[-0.06034157],98,44,hard,plus,dotcolour,beta,,,45,18,V,R,
226,100,16,5,1,27,53,567,['n'],1,right,['1'],6,219,[-0.1591159],100,53,easy,plus,dotcolour,beta,,,45,18,V,R,
227,101,17,5,1,27,53,650,['n'],1,right,['1'],6,202,[-0.11234744],100,53,easy,plus,dotcolour,beta,,,45,18,V,R,
228,102,18,5,1,36,44,500,['n'],1,right,['1'],6,256,[-0.09442286],100,44,hard,plus,dotcolour,beta,,,45,18,V,R,
229,103,19,5,1,36,44,583,['n'],1,right,['1'],6,295,[-0.05831932],98,44,hard,plus,dotcolour,beta,,,45,18,V,R,
230,104,20,5,1,33,47,934,['n'],1,right,['1'],6,503,[-0.2108088],100,47,medium,plus,dotcolour,beta,,,45,18,V,R,
231,105,21,5,1,47,33,1118,['c'],1,left,['2'],5,463,[0.07582518],97,47,medium,plus,dotcolour,beta,,,45,18,V,R,
232,106,22,5,1,47,33,534,['n'],0,left,['8'],3,817,[-0.0778325],93,47,medium,plus,dotcolour,beta,,,45,18,V,R,
233,107,23,5,1,36,44,500,['n'],1,right,['1'],6,293,[-0.02459441],93,44,hard,plus,dotcolour,beta,,,45,18,V,R,
234,108,24,5,1,53,27,950,['c'],1,left,['2'],5,429,[0.19709033],100,53,easy,plus,dotcolour,beta,,,45,18,V,R,
235,109,25,5,1,33,47,500,['n'],1,right,['1'],6,305,[-0.15485057],100,47,medium,plus,dotcolour,beta,,,45,18,V,R,
236,110,26,5,1,33,47,783,['n'],1,right,['2'],5,231,[-0.13276909],100,47,medium,plus,dotcolour,beta,,,45,18,V,R,
237,111,27,5,1,36,44,634,['n'],1,right,['8'],3,1109,[-0.18542716],98,44,hard,plus,dotcolour,beta,,,45,18,V,R,
238,112,28,5,1,36,44,1000,['n'],1,right,['2'],5,1346,[-0.12331314],94,44,hard,plus,dotcolour,beta,,,45,18,V,R,
239,113,29,5,1,53,27,1150,['n'],0,left,['0'],1,471,[0.03291507],64,53,easy,plus,dotcolour,beta,,,45,18,V,R,
240,114,30,5,1,47,33,1584,['c'],1,left,['3'],4,590,[0.15603151],99,47,medium,plus,dotcolour,beta,,,45,18,V,R,
241,115,31,5,1,47,33,650,['n'],0,left,['3'],4,262,[-0.11483914],100,47,medium,plus,dotcolour,beta,,,45,18,V,R,
242,116,32,5,1,53,27,2234,['c'],1,left,['3'],4,387,[0.26670916],100,53,easy,plus,dotcolour,beta,,,45,18,V,R,
243,117,33,5,1,33,47,949,['n'],1,right,['8'],3,343,[-0.03130603],94,47,medium,plus,dotcolour,beta,,,45,18,V,R,
244,118,34,5,1,36,44,583,['n'],1,right,['1'],6,283,[-0.05059153],97,44,hard,plus,dotcolour,beta,,,45,18,V,R,
245,119,35,5,1,53,27,1250,['n'],0,left,['3'],4,1159,[-0.07483469],90,53,easy,plus,dotcolour,beta,,,45,18,V,R,
246,120,36,5,1,47,33,901,['c'],1,left,['1'],6,438,[0.17956488],100,47,medium,plus,dotcolour,beta,,,45,18,V,R,
247,121,37,5,1,27,53,450,['n'],1,right,['1'],6,331,[-0.15218177],100,53,easy,plus,dotcolour,beta,,,45,18,V,R,
248,122,38,5,1,44,36,417,['n'],0,left,['3'],4,726,[-0.12121285],98,44,hard,plus,dotcolour,beta,,,45,18,V,R,
249,123,39,5,1,27,53,551,['n'],1,right,['1'],6,268,[-0.12889163],100,53,easy,plus,dotcolour,beta,,,45,18,V,R,
250,124,40,5,1,33,47,417,['n'],1,right,['1'],6,259,[-0.09840418],100,47,medium,plus,dotcolour,beta,,,45,18,V,R,
251,125,41,5,1,44,36,450,['n'],0,left,['3'],4,1015,[-0.16706317],98,44,hard,plus,dotcolour,beta,,,45,18,V,R,
252,0,0,6,2,44,36,951,['c'],1,left,['3'],4,546,[-0.07327691],4,44,hard,minus,dotcolour,beta,,,45,18,V,R,
253,1,1,6,2,53,27,1350,['c'],1,left,['3'],4,399,[0.07745896],65,53,easy,minus,dotcolour,beta,,,45,18,V,R,
254,2,2,6,2,27,53,666,['n'],1,right,['2'],5,630,[-0.14296813],88,53,easy,minus,dotcolour,beta,,,45,18,V,R,
255,3,3,6,2,44,36,1284,['c'],1,left,['3'],4,578,[0.16921108],94,44,hard,minus,dotcolour,beta,,,45,18,V,R,
256,4,4,6,2,47,33,983,['c'],1,left,['3'],4,597,[0.26794464],99,47,medium,minus,dotcolour,beta,,,45,18,V,R,
257,5,5,6,2,44,36,2084,['c'],1,left,['3'],4,331,[0.12507537],90,44,hard,minus,dotcolour,beta,,,45,18,V,R,
258,6,6,6,2,53,27,750,['c'],1,left,['3'],4,297,[0.14580105],95,53,easy,minus,dotcolour,beta,,,45,18,V,R,
259,7,7,6,2,33,47,1450,['n'],1,right,['3'],4,420,[-0.15943813],95,47,medium,minus,dotcolour,beta,,,45,18,V,R,
260,8,8,6,2,47,33,1751,['c'],1,left,['8'],3,311,[0.08578238],73,47,medium,minus,dotcolour,beta,,,45,18,V,R,
261,9,9,6,2,33,47,600,['n'],1,right,['2'],5,252,[-0.13432176],94,47,medium,minus,dotcolour,beta,,,45,18,V,R,
262,10,10,6,2,47,33,917,['c'],1,left,['2'],5,230,[0.11124725],89,47,medium,minus,dotcolour,beta,,,45,18,V,R,
263,11,11,6,2,33,47,600,['n'],1,right,['2'],5,230,[-0.06547689],59,47,medium,minus,dotcolour,beta,,,45,18,V,R,
264,12,12,6,2,47,33,633,['c'],1,left,['9'],2,1957,[0.37870086],98,47,medium,minus,dotcolour,beta,,,45,18,V,R,
265,13,13,6,2,53,27,951,['c'],1,left,['9'],2,442,[0.07469072],63,53,easy,minus,dotcolour,beta,,,45,18,V,R,
266,14,14,6,2,27,53,850,['n'],1,right,['1'],6,239,[-0.052192],47,53,easy,minus,dotcolour,beta,,,45,18,V,R,
267,15,15,6,2,27,53,667,['n'],1,right,['1'],6,292,[-0.08028372],70,53,easy,minus,dotcolour,beta,,,45,18,V,R,
268,16,16,6,2,44,36,767,['c'],1,left,['3'],4,954,[0.06910554],56,44,hard,minus,dotcolour,beta,,,45,18,V,R,
269,17,17,6,2,44,36,1034,['n'],0,left,['3'],4,244,[-0.03654489],33,44,hard,minus,dotcolour,beta,,,45,18,V,R,
270,18,18,6,2,33,47,649,['n'],1,right,['2'],5,1249,[-0.05303891],49,47,medium,minus,dotcolour,beta,,,45,18,V,R,
271,19,19,6,2,36,44,816,['n'],1,right,['1'],6,415,[0.03828924],7,44,hard,minus,dotcolour,beta,,,45,18,V,R,
272,20,20,6,2,47,33,899,['n'],0,left,['9'],2,1380,[0.15104249],4,47,medium,minus,dotcolour,beta,,,45,18,V,R,
273,21,21,6,2,47,33,1333,['c'],1,left,['9'],2,393,[-0.0110475],13,47,medium,minus,dotcolour,beta,,,45,18,V,R,
274,22,22,6,2,53,27,1034,['c'],1,left,['3'],4,1233,[0.3352767],99,53,easy,minus,dotcolour,beta,,,45,18,V,R,
275,23,23,6,2,27,53,633,['n'],1,right,['1'],6,271,[-0.04020097],37,53,easy,minus,dotcolour,beta,,,45,18,V,R,
276,24,24,6,2,44,36,1167,['c'],1,left,['3'],4,559,[0.08930681],69,44,hard,minus,dotcolour,beta,,,45,18,V,R,
277,25,25,6,2,53,27,917,['c'],1,left,['2'],5,597,[0.18489007],95,53,easy,minus,dotcolour,beta,,,45,18,V,R,
278,26,26,6,2,53,27,865,['c'],1,left,['2'],5,428,[0.17932039],97,53,easy,minus,dotcolour,beta,,,45,18,V,R,
279,27,27,6,2,36,44,684,['n'],1,right,['2'],5,432,[-0.08117755],67,44,hard,minus,dotcolour,beta,,,45,18,V,R,
280,28,28,6,2,47,33,984,['n'],0,left,['3'],4,433,[-0.23319723],99,47,medium,minus,dotcolour,beta,,,45,18,V,R,
281,29,29,6,2,33,47,2283,['n'],1,right,['3'],4,478,[-0.09399991],73,47,medium,minus,dotcolour,beta,,,45,18,V,R,
282,30,30,6,2,33,47,1317,['n'],1,right,['1'],6,583,[-0.06941571],58,47,medium,minus,dotcolour,beta,,,45,18,V,R,
283,31,31,6,2,36,44,1567,['c'],0,right,['8'],3,450,[0.15945184],94,44,hard,minus,dotcolour,beta,,,45,18,V,R,
284,32,32,6,2,53,27,1549,['c'],1,left,['2'],5,579,[0.07731512],63,53,easy,minus,dotcolour,beta,,,45,18,V,R,
285,33,33,6,2,27,53,901,['n'],1,right,['2'],5,481,[-0.23265207],99,53,easy,minus,dotcolour,beta,,,45,18,V,R,
286,34,34,6,2,27,53,517,['n'],1,right,['2'],5,275,[-0.06513816],58,53,easy,minus,dotcolour,beta,,,45,18,V,R,
287,35,35,6,2,33,47,1051,['c'],0,right,['8'],3,1127,[0.01763135],34,47,medium,minus,dotcolour,beta,,,45,18,V,R,
288,36,36,6,2,44,36,700,['n'],0,left,['3'],4,247,[-0.09886206],83,44,hard,minus,dotcolour,beta,,,45,18,V,R,
289,37,37,6,2,36,44,766,['n'],1,right,['3'],4,448,[-0.12243556],86,44,hard,minus,dotcolour,beta,,,45,18,V,R,
290,38,38,6,2,27,53,616,['n'],1,right,['1'],6,502,[-0.16075681],94,53,easy,minus,dotcolour,beta,,,45,18,V,R,
291,39,39,6,2,36,44,600,['n'],1,right,['2'],5,412,[-0.02060615],27,44,hard,minus,dotcolour,beta,,,45,18,V,R,
292,40,40,6,2,36,44,1299,['n'],1,right,['8'],3,457,[-0.13896252],90,44,hard,minus,dotcolour,beta,,,45,18,V,R,
293,41,41,6,2,36,44,967,['c'],0,right,['8'],3,680,[-0.00300635],22,44,hard,minus,dotcolour,beta,,,45,18,V,R,
294,42,0,7,2,47,33,818,['c'],1,left,['3'],4,297,[0.08374294],72,47,medium,minus,dotcolour,beta,,,45,18,V,R,
295,43,1,7,2,53,27,765,['c'],1,left,['3'],4,375,[0.15989336],96,53,easy,minus,dotcolour,beta,,,45,18,V,R,
296,44,2,7,2,36,44,585,['n'],1,right,['2'],5,307,[0.00850632],11,44,hard,minus,dotcolour,beta,,,45,18,V,R,
297,45,3,7,2,33,47,583,['n'],1,right,['8'],3,391,[-0.14633717],93,47,medium,minus,dotcolour,beta,,,45,18,V,R,
298,46,4,7,2,47,33,467,['n'],0,left,['8'],3,310,[0.00283492],13,47,medium,minus,dotcolour,beta,,,45,18,V,R,
299,47,5,7,2,33,47,1983,['n'],1,right,['9'],2,403,[0.00181892],16,47,medium,minus,dotcolour,beta,,,45,18,V,R,
300,48,6,7,2,36,44,683,['c'],0,right,['0'],1,1114,[-0.02046471],21,44,hard,minus,dotcolour,beta,,,45,18,V,R,
301,49,7,7,2,47,33,918,['c'],1,left,['3'],4,297,[0.03157742],31,47,medium,minus,dotcolour,beta,,,45,18,V,R,
302,50,8,7,2,44,36,2017,['n'],0,left,['8'],3,1062,[0.12262037],4,44,hard,minus,dotcolour,beta,,,45,18,V,R,
303,51,9,7,2,44,36,1400,['n'],0,left,['3'],4,709,[0.07478381],6,44,hard,minus,dotcolour,beta,,,45,18,V,R,
304,52,10,7,2,47,33,766,['n'],0,left,['8'],3,499,[-0.0835875],67,47,medium,minus,dotcolour,beta,,,45,18,V,R,
305,53,11,7,2,27,53,516,['n'],1,right,['2'],5,476,[-0.22569446],99,53,easy,minus,dotcolour,beta,,,45,18,V,R,
306,54,12,7,2,27,53,1816,['n'],1,right,['8'],3,817,[-0.11767283],78,53,easy,minus,dotcolour,beta,,,45,18,V,R,
307,55,13,7,2,44,36,849,['c'],1,left,['3'],4,384,[0.05483431],49,44,hard,minus,dotcolour,beta,,,45,18,V,R,
308,56,14,7,2,33,47,666,['n'],1,right,['3'],4,519,[-0.13992303],89,47,medium,minus,dotcolour,beta,,,45,18,V,R,
309,57,15,7,2,33,47,600,['n'],1,right,['2'],5,476,[-0.10887782],80,47,medium,minus,dotcolour,beta,,,45,18,V,R,
310,58,16,7,2,44,36,1066,['c'],1,left,['3'],4,1176,[0.12765281],77,44,hard,minus,dotcolour,beta,,,45,18,V,R,
311,59,17,7,2,53,27,683,['c'],1,left,['3'],4,406,[0.04333894],41,53,easy,minus,dotcolour,beta,,,45,18,V,R,
312,60,18,7,2,47,33,650,['c'],1,left,['2'],5,373,[0.046761],44,47,medium,minus,dotcolour,beta,,,45,18,V,R,
313,61,19,7,2,27,53,534,['n'],1,right,['2'],5,425,[-0.2372851],99,53,easy,minus,dotcolour,beta,,,45,18,V,R,
314,62,20,7,2,53,27,683,['n'],0,left,['2'],5,310,[-0.00827551],18,53,easy,minus,dotcolour,beta,,,45,18,V,R,
315,63,21,7,2,53,27,834,['c'],1,left,['2'],5,409,[0.13338498],90,53,easy,minus,dotcolour,beta,,,45,18,V,R,
316,64,22,7,2,44,36,900,['n'],0,left,['0'],1,1054,[-0.00288604],28,44,hard,minus,dotcolour,beta,,,45,18,V,R,
317,65,23,7,2,27,53,1050,['n'],1,right,['3'],4,386,[-0.18292741],98,53,easy,minus,dotcolour,beta,,,45,18,V,R,
318,66,24,7,2,53,27,800,['c'],1,left,['2'],5,292,[0.19385867],99,53,easy,minus,dotcolour,beta,,,45,18,V,R,
319,67,25,7,2,27,53,617,['n'],1,right,['2'],5,737,[-0.1590264],90,53,easy,minus,dotcolour,beta,,,45,18,V,R,
320,68,26,7,2,36,44,800,['n'],1,right,['3'],4,996,[-0.03067238],39,44,hard,minus,dotcolour,beta,,,45,18,V,R,
321,69,27,7,2,53,27,867,['c'],1,left,['3'],4,771,[0.22207905],97,53,easy,minus,dotcolour,beta,,,45,18,V,R,
322,70,28,7,2,36,44,900,['c'],0,right,['9'],2,1097,[0.01987901],35,44,hard,minus,dotcolour,beta,,,45,18,V,R,
323,71,29,7,2,36,44,967,['c'],0,right,['8'],3,584,[0.23926731],99,44,hard,minus,dotcolour,beta,,,45,18,V,R,
324,72,30,7,2,27,53,684,['n'],1,right,['1'],6,1382,[-0.1033547],68,53,easy,minus,dotcolour,beta,,,45,18,V,R,
325,73,31,7,2,36,44,833,['n'],1,right,['3'],4,343,[-0.11896296],88,44,hard,minus,dotcolour,beta,,,45,18,V,R,
326,74,32,7,2,33,47,566,['n'],1,right,['3'],4,307,[-0.08726671],74,47,medium,minus,dotcolour,beta,,,45,18,V,R,
327,75,33,7,2,44,36,801,['c'],1,left,['3'],4,2120,[0.31495294],96,44,hard,minus,dotcolour,beta,,,45,18,V,R,
328,76,34,7,2,27,53,650,['n'],1,right,['2'],5,298,[-0.23671282],100,53,easy,minus,dotcolour,beta,,,45,18,V,R,
329,77,35,7,2,47,33,5383,['n'],0,left,['8'],3,1312,[0.04241802],18,47,medium,minus,dotcolour,beta,,,45,18,V,R,
330,78,36,7,2,53,27,1349,['n'],0,left,['0'],1,814,[0.11819601],3,53,easy,minus,dotcolour,beta,,,45,18,V,R,
331,79,37,7,2,44,36,900,['c'],1,left,['3'],4,347,[0.07197101],62,44,hard,minus,dotcolour,beta,,,45,18,V,R,
332,80,38,7,2,47,33,683,['c'],1,left,['2'],5,355,[-0.01517469],11,47,medium,minus,dotcolour,beta,,,45,18,V,R,
333,81,39,7,2,33,47,783,['n'],1,right,['2'],5,375,[-0.06775035],59,47,medium,minus,dotcolour,beta,,,45,18,V,R,
334,82,40,7,2,36,44,567,['n'],1,right,['2'],5,370,[-0.05238852],48,44,hard,minus,dotcolour,beta,,,45,18,V,R,
335,83,41,7,2,33,47,733,['n'],1,right,['3'],4,272,[-0.04351689],40,47,medium,minus,dotcolour,beta,,,45,18,V,R,
336,84,0,8,2,47,33,835,['c'],1,left,['3'],4,308,[0.13355471],93,47,medium,minus,dotcolour,beta,,,45,18,V,R,
337,85,1,8,2,33,47,1050,['n'],1,right,['8'],3,359,[-0.12421691],89,47,medium,minus,dotcolour,beta,,,45,18,V,R,
338,86,2,8,2,27,53,967,['n'],1,right,['8'],3,323,[-0.03986746],38,53,easy,minus,dotcolour,beta,,,45,18,V,R,
339,87,3,8,2,36,44,1234,['c'],0,right,['9'],2,621,[0.06490116],55,44,hard,minus,dotcolour,beta,,,45,18,V,R,
340,88,4,8,2,27,53,766,['n'],1,right,['2'],5,351,[-0.0859838],72,53,easy,minus,dotcolour,beta,,,45,18,V,R,
341,89,5,8,2,36,44,1000,['c'],0,right,['3'],4,314,[0.16453406],97,44,hard,minus,dotcolour,beta,,,45,18,V,R,
342,90,6,8,2,47,33,683,['c'],1,left,['3'],4,379,[0.04323666],41,47,medium,minus,dotcolour,beta,,,45,18,V,R,
343,91,7,8,2,44,36,1867,['c'],1,left,['3'],4,339,[0.2280128],100,44,hard,minus,dotcolour,beta,,,45,18,V,R,
344,92,8,8,2,44,36,1184,['c'],1,left,['8'],3,247,[0.0102826],16,44,hard,minus,dotcolour,beta,,,45,18,V,R,
345,93,9,8,2,27,53,783,['n'],1,right,['3'],4,215,[-0.09792172],84,53,easy,minus,dotcolour,beta,,,45,18,V,R,
346,94,10,8,2,36,44,633,['n'],1,right,['3'],4,118,[-0.08142891],80,44,hard,minus,dotcolour,beta,,,45,18,V,R,
347,95,11,8,2,53,27,866,['c'],1,left,['3'],4,320,[0.09245532],76,53,easy,minus,dotcolour,beta,,,45,18,V,R,
348,96,12,8,2,47,33,634,['n'],0,left,['9'],2,971,[-0.03920929],43,47,medium,minus,dotcolour,beta,,,45,18,V,R,
349,97,13,8,2,27,53,583,['n'],1,right,['2'],5,302,[-0.13428933],93,53,easy,minus,dotcolour,beta,,,45,18,V,R,
350,98,14,8,2,44,36,584,['c'],1,left,['1'],6,260,[0.06531953],59,44,hard,minus,dotcolour,beta,,,45,18,V,R,
351,99,15,8,2,33,47,733,['n'],1,right,['2'],5,317,[-0.04361127],41,47,medium,minus,dotcolour,beta,,,45,18,V,R,
352,100,16,8,2,53,27,817,['c'],1,left,['3'],4,649,[0.16357825],92,53,easy,minus,dotcolour,beta,,,45,18,V,R,
353,101,17,8,2,44,36,1166,['c'],1,left,['3'],4,474,[0.08655067],69,44,hard,minus,dotcolour,beta,,,45,18,V,R,
354,102,18,8,2,33,47,600,['n'],1,right,['8'],3,376,[-0.15688012],95,47,medium,minus,dotcolour,beta,,,45,18,V,R,
355,103,19,8,2,47,33,733,['c'],1,left,['9'],2,725,[0.26773038],99,47,medium,minus,dotcolour,beta,,,45,18,V,R,
356,104,20,8,2,27,53,733,['n'],1,right,['3'],4,596,[-0.09541215],72,53,easy,minus,dotcolour,beta,,,45,18,V,R,
357,105,21,8,2,36,44,2200,['n'],1,right,['8'],3,365,[-0.09258747],75,44,hard,minus,dotcolour,beta,,,45,18,V,R,
358,106,22,8,2,53,27,534,['c'],1,left,['3'],4,282,[0.21092456],99,53,easy,minus,dotcolour,beta,,,45,18,V,R,
359,107,23,8,2,36,44,1401,['c'],0,right,['9'],2,1177,[0.09163724],65,44,hard,minus,dotcolour,beta,,,45,18,V,R,
360,108,24,8,2,33,47,784,['n'],1,right,['9'],2,371,[-0.27116922],100,47,medium,minus,dotcolour,beta,,,45,18,V,R,
361,109,25,8,2,44,36,617,['c'],1,left,['9'],2,573,[0.11276451],80,44,hard,minus,dotcolour,beta,,,45,18,V,R,
362,110,26,8,2,47,33,800,['c'],1,left,['9'],2,319,[0.12795128],91,47,medium,minus,dotcolour,beta,,,45,18,V,R,
363,111,27,8,2,27,53,583,['n'],1,right,['3'],4,420,[-0.22514659],99,53,easy,minus,dotcolour,beta,,,45,18,V,R,
364,112,28,8,2,36,44,634,['n'],1,right,['9'],2,380,[-0.07415016],63,44,hard,minus,dotcolour,beta,,,45,18,V,R,
365,113,29,8,2,44,36,635,['c'],1,left,['9'],2,581,[0.0847142],67,44,hard,minus,dotcolour,beta,,,45,18,V,R,
366,114,30,8,2,53,27,1184,['c'],1,left,['3'],4,447,[0.07030928],60,53,easy,minus,dotcolour,beta,,,45,18,V,R,
367,115,31,8,2,53,27,1383,['c'],1,left,['3'],4,239,[0.07169456],64,53,easy,minus,dotcolour,beta,,,45,18,V,R,
368,116,32,8,2,33,47,2534,['n'],1,right,['9'],2,906,[-0.36270315],100,47,medium,minus,dotcolour,beta,,,45,18,V,R,
369,117,33,8,2,33,47,750,['n'],1,right,['8'],3,559,[-0.05356723],49,47,medium,minus,dotcolour,beta,,,45,18,V,R,
370,118,34,8,2,53,27,667,['c'],1,left,['3'],4,296,[0.20722202],99,53,easy,minus,dotcolour,beta,,,45,18,V,R,
371,119,35,8,2,33,47,700,['n'],1,right,['3'],4,481,[-0.0890438],70,47,medium,minus,dotcolour,beta,,,45,18,V,R,
372,120,36,8,2,36,44,434,['n'],1,right,['3'],4,302,[-0.10309371],83,44,hard,minus,dotcolour,beta,,,45,18,V,R,
373,121,37,8,2,53,27,383,['n'],0,left,['8'],3,452,[0.02465551],10,53,easy,minus,dotcolour,beta,,,45,18,V,R,
374,122,38,8,2,27,53,683,['n'],1,right,['3'],4,248,[-0.06352744],57,53,easy,minus,dotcolour,beta,,,45,18,V,R,
375,123,39,8,2,47,33,300,['n'],0,left,['3'],4,243,[0.00796499],9,47,medium,minus,dotcolour,beta,,,45,18,V,R,
376,124,40,8,2,44,36,27,['n'],0,left,['8'],3,219,[-0.09609408],83,44,hard,minus,dotcolour,beta,,,45,18,V,R,
377,125,41,8,2,47,33,334,['n'],0,left,['2'],5,654,[-0.02953916],36,47,medium,minus,dotcolour,beta,,,45,18,V,R,
378,0,0,9,3,47,33,1168,['n'],0,left,['8'],3,298,[-0.14132404],100,47,medium,plus,dotcolour,beta,,,45,18,V,R,
379,1,1,9,3,53,27,683,['c'],1,left,['8'],3,300,[0.16053307],100,53,easy,plus,dotcolour,beta,,,45,18,V,R,
380,2,2,9,3,33,47,550,['n'],1,right,['8'],3,372,[-0.03180697],93,47,medium,plus,dotcolour,beta,,,45,18,V,R,
381,3,3,9,3,36,44,633,['n'],1,right,['8'],3,269,[-0.09073488],99,44,hard,plus,dotcolour,beta,,,45,18,V,R,
382,4,4,9,3,44,36,718,['n'],0,left,['8'],3,287,[-0.12984439],100,44,hard,plus,dotcolour,beta,,,45,18,V,R,
383,5,5,9,3,53,27,750,['n'],0,left,['8'],3,279,[-0.04218236],97,53,easy,plus,dotcolour,beta,,,45,18,V,R,
384,6,6,9,3,27,53,566,['n'],1,right,['2'],5,382,[-0.14890864],100,53,easy,plus,dotcolour,beta,,,45,18,V,R,
385,7,7,9,3,27,53,649,['n'],1,right,['2'],5,198,[-0.2046508],100,53,easy,plus,dotcolour,beta,,,45,18,V,R,
386,8,8,9,3,36,44,616,['n'],1,right,['2'],5,159,[-0.08004097],100,44,hard,plus,dotcolour,beta,,,45,18,V,R,
387,9,9,9,3,27,53,450,['n'],1,right,['3'],4,231,[-0.11341204],100,53,easy,plus,dotcolour,beta,,,45,18,V,R,
388,10,10,9,3,47,33,900,['c'],1,left,['8'],3,259,[0.09255477],99,47,medium,plus,dotcolour,beta,,,45,18,V,R,
389,11,11,9,3,27,53,633,['n'],1,right,['2'],5,377,[-0.12525011],100,53,easy,plus,dotcolour,beta,,,45,18,V,R,
390,12,12,9,3,53,27,683,['n'],0,left,['2'],5,199,[-0.00750365],93,53,easy,plus,dotcolour,beta,,,45,18,V,R,
391,13,13,9,3,44,36,800,['c'],1,left,['8'],3,249,[0.11446548],100,44,hard,plus,dotcolour,beta,,,45,18,V,R,
392,14,14,9,3,33,47,551,['n'],1,right,['2'],5,226,[-0.11062949],100,47,medium,plus,dotcolour,beta,,,45,18,V,R,
393,15,15,9,3,36,44,533,['n'],1,right,['2'],5,229,[-0.03668263],97,44,hard,plus,dotcolour,beta,,,45,18,V,R,
394,16,16,9,3,36,44,967,['c'],0,right,['8'],3,206,[0.04655987],98,44,hard,plus,dotcolour,beta,,,45,18,V,R,
395,17,17,9,3,44,36,700,['n'],0,left,['9'],2,355,[-0.1252862],100,44,hard,plus,dotcolour,beta,,,45,18,V,R,
396,18,18,9,3,47,33,700,['c'],1,left,['3'],4,369,[0.08293771],98,47,medium,plus,dotcolour,beta,,,45,18,V,R,
397,19,19,9,3,53,27,750,['c'],1,left,['2'],5,390,[0.09575144],99,53,easy,plus,dotcolour,beta,,,45,18,V,R,
398,20,20,9,3,36,44,600,['n'],1,right,['2'],5,344,[-0.07121995],98,44,hard,plus,dotcolour,beta,,,45,18,V,R,
399,21,21,9,3,53,27,617,['c'],1,left,['2'],5,299,[0.11498263],100,53,easy,plus,dotcolour,beta,,,45,18,V,R,
400,22,22,9,3,47,33,1082,['n'],0,left,['8'],3,276,[-0.06996319],99,47,medium,plus,dotcolour,beta,,,45,18,V,R,
401,23,23,9,3,44,36,1250,['c'],1,left,['3'],4,344,[0.10340443],99,44,hard,plus,dotcolour,beta,,,45,18,V,R,
402,24,24,9,3,36,44,799,['c'],0,right,['3'],4,196,[0.13273317],100,44,hard,plus,dotcolour,beta,,,45,18,V,R,
403,25,25,9,3,53,27,583,['c'],1,left,['2'],5,285,[0.10618247],100,53,easy,plus,dotcolour,beta,,,45,18,V,R,
404,26,26,9,3,27,53,516,['n'],1,right,['2'],5,191,[-0.18036567],100,53,easy,plus,dotcolour,beta,,,45,18,V,R,
405,27,27,9,3,33,47,585,['n'],1,right,['2'],5,169,[-0.15139505],100,47,medium,plus,dotcolour,beta,,,45,18,V,R,
406,28,28,9,3,33,47,567,['c'],0,right,['2'],5,389,[-0.03827819],62,47,medium,plus,dotcolour,beta,,,45,18,V,R,
407,29,29,9,3,36,44,583,['n'],1,right,['3'],4,280,[-0.05629475],98,44,hard,plus,dotcolour,beta,,,45,18,V,R,
408,30,30,9,3,47,33,600,['c'],1,left,['3'],4,237,[0.05932743],99,47,medium,plus,dotcolour,beta,,,45,18,V,R,
409,31,31,9,3,44,36,450,['n'],0,left,['3'],4,203,[-0.10878228],100,44,hard,plus,dotcolour,beta,,,45,18,V,R,
410,32,32,9,3,27,53,717,['n'],1,right,['3'],4,327,[-0.08168541],99,53,easy,plus,dotcolour,beta,,,45,18,V,R,
411,33,33,9,3,47,33,567,['n'],0,left,['3'],4,197,[-0.01687837],95,47,medium,plus,dotcolour,beta,,,45,18,V,R,
412,34,34,9,3,44,36,834,['c'],1,left,['3'],4,397,[0.12749549],99,44,hard,plus,dotcolour,beta,,,45,18,V,R,
413,35,35,9,3,47,33,1200,['c'],1,left,['2'],5,342,[0.12684667],100,47,medium,plus,dotcolour,beta,,,45,18,V,R,
414,36,36,9,3,33,47,533,['n'],1,right,['3'],4,253,[-0.16764954],100,47,medium,plus,dotcolour,beta,,,45,18,V,R,
415,37,37,9,3,33,47,584,['n'],1,right,['3'],4,164,[-0.15425082],100,47,medium,plus,dotcolour,beta,,,45,18,V,R,
416,38,38,9,3,33,47,750,['n'],1,right,['3'],4,225,[-0.11802223],100,47,medium,plus,dotcolour,beta,,,45,18,V,R,
417,39,39,9,3,53,27,851,['c'],1,left,['2'],5,335,[0.17730883],100,53,easy,plus,dotcolour,beta,,,45,18,V,R,
418,40,40,9,3,44,36,733,['n'],0,left,['3'],4,558,[0.0327587],63,44,hard,plus,dotcolour,beta,,,45,18,V,R,
419,41,41,9,3,27,53,583,['n'],1,right,['2'],5,289,[-0.21590032],100,53,easy,plus,dotcolour,beta,,,45,18,V,R,
420,42,0,10,3,44,36,717,['n'],0,left,['2'],5,210,[-0.07104089],99,44,hard,plus,dotcolour,beta,,,45,18,V,R,
421,43,1,10,3,44,36,633,['n'],0,left,['2'],5,298,[-0.03138811],95,44,hard,plus,dotcolour,beta,,,45,18,V,R,
422,44,2,10,3,27,53,483,['n'],1,right,['2'],5,308,[-0.13760234],100,53,easy,plus,dotcolour,beta,,,45,18,V,R,
423,45,3,10,3,33,47,550,['n'],1,right,['2'],5,290,[-0.17391389],100,47,medium,plus,dotcolour,beta,,,45,18,V,R,
424,46,4,10,3,44,36,533,['n'],0,left,['2'],5,266,[-0.04170462],97,44,hard,plus,dotcolour,beta,,,45,18,V,R,
425,47,5,10,3,36,44,500,['n'],1,right,['3'],4,357,[-0.05050727],96,44,hard,plus,dotcolour,beta,,,45,18,V,R,
426,48,6,10,3,33,47,534,['n'],1,right,['3'],4,298,[-0.02129737],93,47,medium,plus,dotcolour,beta,,,45,18,V,R,
427,49,7,10,3,36,44,567,['n'],1,right,['3'],4,288,[-0.05866486],98,44,hard,plus,dotcolour,beta,,,45,18,V,R,
428,50,8,10,3,53,27,533,['c'],1,left,['3'],4,233,[0.10728101],100,53,easy,plus,dotcolour,beta,,,45,18,V,R,
429,51,9,10,3,53,27,567,['c'],1,left,['2'],5,274,[0.16800522],100,53,easy,plus,dotcolour,beta,,,45,18,V,R,
430,52,10,10,3,53,27,533,['c'],1,left,['3'],4,235,[0.0681932],99,53,easy,plus,dotcolour,beta,,,45,18,V,R,
431,53,11,10,3,44,36,667,['c'],1,left,['2'],5,320,[-0.06056509],46,44,hard,plus,dotcolour,beta,,,45,18,V,R,
432,54,12,10,3,47,33,917,['n'],0,left,['3'],4,448,[0.1049657],21,47,medium,plus,dotcolour,beta,,,45,18,V,R,
433,55,13,10,3,33,47,517,['n'],1,right,['3'],4,364,[-0.10556088],99,47,medium,plus,dotcolour,beta,,,45,18,V,R,
434,56,14,10,3,27,53,634,['n'],1,right,['2'],5,428,[-0.03623688],93,53,easy,plus,dotcolour,beta,,,45,18,V,R,
435,57,15,10,3,27,53,417,['n'],1,right,['3'],4,212,[-0.10331595],100,53,easy,plus,dotcolour,beta,,,45,18,V,R,
436,58,16,10,3,47,33,633,['c'],1,left,['3'],4,228,[0.13327093],100,47,medium,plus,dotcolour,beta,,,45,18,V,R,
437,59,17,10,3,44,36,634,['n'],0,left,['9'],2,874,[-0.0613574],90,44,hard,plus,dotcolour,beta,,,45,18,V,R,
438,60,18,10,3,53,27,600,['c'],1,left,['2'],5,280,[0.15616808],100,53,easy,plus,dotcolour,beta,,,45,18,V,R,
439,61,19,10,3,27,53,616,['n'],1,right,['2'],5,269,[-0.08745575],99,53,easy,plus,dotcolour,beta,,,45,18,V,R,
440,62,20,10,3,27,53,468,['n'],1,right,['2'],5,233,[-0.05125017],98,53,easy,plus,dotcolour,beta,,,45,18,V,R,
441,63,21,10,3,36,44,467,['n'],1,right,['3'],4,567,[-0.21275537],100,44,hard,plus,dotcolour,beta,,,45,18,V,R,
442,64,22,10,3,53,27,767,['c'],1,left,['2'],5,346,[0.0124017],89,53,easy,plus,dotcolour,beta,,,45,18,V,R,
443,65,23,10,3,47,33,600,['c'],1,left,['2'],5,254,[0.09176528],99,47,medium,plus,dotcolour,beta,,,45,18,V,R,
444,66,24,10,3,33,47,650,['n'],1,right,['2'],5,179,[-0.11680576],100,47,medium,plus,dotcolour,beta,,,45,18,V,R,
445,67,25,10,3,33,47,1117,['c'],0,right,['8'],3,225,[0.00466047],91,47,medium,plus,dotcolour,beta,,,45,18,V,R,
446,68,26,10,3,44,36,934,['n'],0,left,['2'],5,787,[-0.04256928],88,44,hard,plus,dotcolour,beta,,,45,18,V,R,
447,69,27,10,3,27,53,467,['n'],1,right,['2'],5,282,[-0.08579864],99,53,easy,plus,dotcolour,beta,,,45,18,V,R,
448,70,28,10,3,33,47,617,['n'],1,right,['2'],5,527,[-0.02353489],88,47,medium,plus,dotcolour,beta,,,45,18,V,R,
449,71,29,10,3,47,33,766,['c'],1,left,['3'],4,308,[0.04784257],97,47,medium,plus,dotcolour,beta,,,45,18,V,R,
450,72,30,10,3,47,33,700,['c'],1,left,['2'],5,285,[0.12702806],100,47,medium,plus,dotcolour,beta,,,45,18,V,R,
451,73,31,10,3,33,47,567,['n'],1,right,['2'],5,405,[-0.09670056],99,47,medium,plus,dotcolour,beta,,,45,18,V,R,
452,74,32,10,3,53,27,3817,['n'],0,left,['2'],5,301,[0.02685556],72,53,easy,plus,dotcolour,beta,,,45,18,V,R,
453,75,33,10,3,53,27,550,['c'],1,left,['2'],5,308,[0.11885413],100,53,easy,plus,dotcolour,beta,,,45,18,V,R,
454,76,34,10,3,27,53,485,['n'],1,right,['2'],5,253,[-0.09673496],100,53,easy,plus,dotcolour,beta,,,45,18,V,R,
455,77,35,10,3,36,44,533,['n'],1,right,['2'],5,216,[-0.18143689],100,44,hard,plus,dotcolour,beta,,,45,18,V,R,
456,78,36,10,3,47,33,467,['c'],1,left,['2'],5,270,[0.1007794],100,47,medium,plus,dotcolour,beta,,,45,18,V,R,
457,79,37,10,3,36,44,1449,['n'],1,right,['2'],5,451,[-0.2028379],100,44,hard,plus,dotcolour,beta,,,45,18,V,R,
458,80,38,10,3,36,44,2150,['n'],1,right,['2'],5,387,[-0.02985635],92,44,hard,plus,dotcolour,beta,,,45,18,V,R,
459,81,39,10,3,47,33,650,['c'],1,left,['2'],5,275,[0.12411942],100,47,medium,plus,dotcolour,beta,,,45,18,V,R,
460,82,40,10,3,44,36,583,['n'],0,left,['2'],5,282,[-0.04309701],97,44,hard,plus,dotcolour,beta,,,45,18,V,R,
461,83,41,10,3,36,44,417,['n'],1,right,['2'],5,375,[-0.14425784],100,44,hard,plus,dotcolour,beta,,,45,18,V,R,
462,84,0,11,3,33,47,517,['n'],1,right,['2'],5,226,[-0.1647025],100,47,medium,plus,dotcolour,beta,,,45,18,V,R,
463,85,1,11,3,44,36,716,['c'],1,left,['8'],3,501,[0.08199161],97,44,hard,plus,dotcolour,beta,,,45,18,V,R,
464,86,2,11,3,36,44,783,['n'],1,right,['2'],5,251,[-0.0839237],99,44,hard,plus,dotcolour,beta,,,45,18,V,R,
465,87,3,11,3,44,36,933,['n'],0,left,['9'],2,422,[-0.11222274],99,44,hard,plus,dotcolour,beta,,,45,18,V,R,
466,88,4,11,3,44,36,650,['n'],0,left,['2'],5,356,[-0.12039494],100,44,hard,plus,dotcolour,beta,,,45,18,V,R,
467,89,5,11,3,27,53,484,['n'],1,right,['2'],5,259,[-0.08541001],99,53,easy,plus,dotcolour,beta,,,45,18,V,R,
468,90,6,11,3,47,33,717,['c'],1,left,['3'],4,477,[0.08575163],98,47,medium,plus,dotcolour,beta,,,45,18,V,R,
469,91,7,11,3,33,47,533,['n'],1,right,['2'],5,317,[-0.09931596],99,47,medium,plus,dotcolour,beta,,,45,18,V,R,
470,92,8,11,3,53,27,634,['c'],1,left,['1'],6,553,[0.13177833],99,53,easy,plus,dotcolour,beta,,,45,18,V,R,
471,93,9,11,3,27,53,483,['n'],1,right,['1'],6,201,[-0.05936018],99,53,easy,plus,dotcolour,beta,,,45,18,V,R,
472,94,10,11,3,33,47,500,['n'],1,right,['1'],6,230,[-0.0636562],99,47,medium,plus,dotcolour,beta,,,45,18,V,R,
473,95,11,11,3,27,53,533,['n'],1,right,['1'],6,233,[-0.14380435],100,53,easy,plus,dotcolour,beta,,,45,18,V,R,
474,96,12,11,3,53,27,617,['c'],1,left,['3'],4,688,[0.25825759],100,53,easy,plus,dotcolour,beta,,,45,18,V,R,
475,97,13,11,3,36,44,1233,['c'],0,right,['8'],3,188,[0.02722414],97,44,hard,plus,dotcolour,beta,,,45,18,V,R,
476,98,14,11,3,53,27,667,['c'],1,left,['2'],5,396,[0.18588304],100,53,easy,plus,dotcolour,beta,,,45,18,V,R,
477,99,15,11,3,53,27,734,['c'],1,left,['2'],5,335,[0.07135125],98,53,easy,plus,dotcolour,beta,,,45,18,V,R,
478,100,16,11,3,36,44,683,['n'],1,right,['9'],2,936,[0.03735427],58,44,hard,plus,dotcolour,beta,,,45,18,V,R,
479,101,17,11,3,36,44,617,['n'],1,right,['8'],3,699,[-0.14603433],99,44,hard,plus,dotcolour,beta,,,45,18,V,R,
480,102,18,11,3,33,47,583,['n'],1,right,['2'],5,225,[-0.11918952],100,47,medium,plus,dotcolour,beta,,,45,18,V,R,
481,103,19,11,3,27,53,667,['n'],1,right,['2'],5,766,[-0.25683295],100,53,easy,plus,dotcolour,beta,,,45,18,V,R,
482,104,20,11,3,36,44,599,['n'],1,right,['2'],5,217,[-0.12356593],100,44,hard,plus,dotcolour,beta,,,45,18,V,R,
483,105,21,11,3,47,33,1117,['c'],1,left,['9'],2,645,[0.14436829],99,47,medium,plus,dotcolour,beta,,,45,18,V,R,
484,106,22,11,3,53,27,635,['c'],1,left,['3'],4,435,[0.05820615],96,53,easy,plus,dotcolour,beta,,,45,18,V,R,
485,107,23,11,3,27,53,567,['n'],1,right,['2'],5,364,[-0.05379184],96,53,easy,plus,dotcolour,beta,,,45,18,V,R,
486,108,24,11,3,36,44,667,['n'],1,right,['2'],5,244,[-0.07415336],99,44,hard,plus,dotcolour,beta,,,45,18,V,R,
487,109,25,11,3,27,53,567,['n'],1,right,['2'],5,245,[-0.1053477],100,53,easy,plus,dotcolour,beta,,,45,18,V,R,
488,110,26,11,3,47,33,834,['c'],1,left,['8'],3,219,[0.05587432],99,47,medium,plus,dotcolour,beta,,,45,18,V,R,
489,111,27,11,3,33,47,533,['n'],1,right,['2'],5,254,[-0.11524317],100,47,medium,plus,dotcolour,beta,,,45,18,V,R,
490,112,28,11,3,47,33,633,['n'],0,left,['9'],2,741,[-0.07929679],94,47,medium,plus,dotcolour,beta,,,45,18,V,R,
491,113,29,11,3,44,36,834,['c'],1,left,['3'],4,542,[0.03241918],90,44,hard,plus,dotcolour,beta,,,45,18,V,R,
492,114,30,11,3,36,44,550,['n'],1,right,['3'],4,412,[-0.15832123],100,44,hard,plus,dotcolour,beta,,,45,18,V,R,
493,115,31,11,3,53,27,549,['c'],1,left,['3'],4,335,[0.17762185],100,53,easy,plus,dotcolour,beta,,,45,18,V,R,
494,116,32,11,3,33,47,534,['n'],1,right,['2'],5,333,[-0.06881561],98,47,medium,plus,dotcolour,beta,,,45,18,V,R,
495,117,33,11,3,27,53,684,['n'],1,right,['3'],4,454,[-0.15436323],100,53,easy,plus,dotcolour,beta,,,45,18,V,R,
496,118,34,11,3,33,47,550,['n'],1,right,['2'],5,255,[-0.14966791],100,47,medium,plus,dotcolour,beta,,,45,18,V,R,
497,119,35,11,3,47,33,983,['c'],1,left,['8'],3,263,[0.13638734],100,47,medium,plus,dotcolour,beta,,,45,18,V,R,
498,120,36,11,3,47,33,684,['n'],0,left,['9'],2,994,[0.04496353],55,47,medium,plus,dotcolour,beta,,,45,18,V,R,
499,121,37,11,3,44,36,800,['n'],0,left,['9'],2,636,[0.02082832],69,44,hard,plus,dotcolour,beta,,,45,18,V,R,
500,122,38,11,3,44,36,1767,['c'],1,left,['3'],4,429,[0.06020651],96,44,hard,plus,dotcolour,beta,,,45,18,V,R,
501,123,39,11,3,44,36,667,['n'],0,left,['8'],3,482,[-0.01666224],87,44,hard,plus,dotcolour,beta,,,45,18,V,R,
502,124,40,11,3,53,27,950,['c'],1,left,['2'],5,386,[0.19476122],100,53,easy,plus,dotcolour,beta,,,45,18,V,R,
503,125,41,11,3,47,33,1467,['n'],0,left,['9'],2,377,[-0.0637978],97,47,medium,plus,dotcolour,beta,,,45,18,V,R,
504,0,0,12,4,33,47,635,['n'],1,right,['2'],5,259,[-0.01713589],20,47,medium,minus,dotcolour,beta,,,45,18,V,R,
505,1,1,12,4,47,33,833,['c'],1,left,['9'],2,473,[0.06244037],54,47,medium,minus,dotcolour,beta,,,45,18,V,R,
506,2,2,12,4,53,27,784,['c'],1,left,['2'],5,439,[0.07385543],62,53,easy,minus,dotcolour,beta,,,45,18,V,R,
507,3,3,12,4,47,33,800,['n'],0,left,['9'],2,1022,[0.0024693],26,47,medium,minus,dotcolour,beta,,,45,18,V,R,
508,4,4,12,4,36,44,1017,['c'],0,right,['8'],3,1006,[0.07841216],60,44,hard,minus,dotcolour,beta,,,45,18,V,R,
509,5,5,12,4,27,53,750,['n'],1,right,['2'],5,305,[-0.08736605],74,53,easy,minus,dotcolour,beta,,,45,18,V,R,
510,6,6,12,4,27,53,567,['n'],1,right,['2'],5,295,[-0.19131351],99,53,easy,minus,dotcolour,beta,,,45,18,V,R,
511,7,7,12,4,27,53,649,['n'],1,right,['2'],5,290,[-0.0896913],76,53,easy,minus,dotcolour,beta,,,45,18,V,R,
512,8,8,12,4,44,36,1000,['c'],1,left,['3'],4,736,[0.15065123],88,44,hard,minus,dotcolour,beta,,,45,18,V,R,
513,9,9,12,4,53,27,667,['c'],1,left,['3'],4,377,[0.12161485],87,53,easy,minus,dotcolour,beta,,,45,18,V,R,
514,10,10,12,4,36,44,500,['n'],1,right,['3'],4,319,[-0.02645738],28,44,hard,minus,dotcolour,beta,,,45,18,V,R,
515,11,11,12,4,47,33,1666,['c'],1,left,['8'],3,865,[0.12814051],80,47,medium,minus,dotcolour,beta,,,45,18,V,R,
516,12,12,12,4,33,47,601,['n'],1,right,['3'],4,239,[-0.05792473],52,47,medium,minus,dotcolour,beta,,,45,18,V,R,
517,13,13,12,4,44,36,684,['c'],1,left,['3'],4,379,[0.12130114],87,44,hard,minus,dotcolour,beta,,,45,18,V,R,
518,14,14,12,4,44,36,917,['c'],1,left,['9'],2,753,[0.10673612],74,44,hard,minus,dotcolour,beta,,,45,18,V,R,
519,15,15,12,4,44,36,785,['n'],0,left,['8'],3,612,[-0.01890662],30,44,hard,minus,dotcolour,beta,,,45,18,V,R,
520,16,16,12,4,47,33,699,['c'],1,left,['3'],4,297,[0.04886396],44,47,medium,minus,dotcolour,beta,,,45,18,V,R,
521,17,17,12,4,47,33,750,['c'],1,left,['9'],2,560,[0.1437225],89,47,medium,minus,dotcolour,beta,,,45,18,V,R,
522,18,18,12,4,27,53,767,['n'],1,right,['8'],3,708,[-0.37584099],100,53,easy,minus,dotcolour,beta,,,45,18,V,R,
523,19,19,12,4,36,44,967,['n'],1,right,['3'],4,346,[-0.04946807],45,44,hard,minus,dotcolour,beta,,,45,18,V,R,
524,20,20,12,4,27,53,884,['n'],1,right,['8'],3,506,[0.00847422],17,53,easy,minus,dotcolour,beta,,,45,18,V,R,
525,21,21,12,4,53,27,583,['c'],1,left,['2'],5,375,[0.17960176],97,53,easy,minus,dotcolour,beta,,,45,18,V,R,
526,22,22,12,4,36,44,617,['n'],1,right,['2'],5,337,[-0.12029104],88,44,hard,minus,dotcolour,beta,,,45,18,V,R,
527,23,23,12,4,27,53,666,['n'],1,right,['2'],5,258,[-0.01034706],17,53,easy,minus,dotcolour,beta,,,45,18,V,R,
528,24,24,12,4,53,27,483,['c'],1,left,['3'],4,334,[0.12198788],89,53,easy,minus,dotcolour,beta,,,45,18,V,R,
529,25,25,12,4,33,47,1001,['n'],1,right,['3'],4,489,[-0.11399688],82,47,medium,minus,dotcolour,beta,,,45,18,V,R,
530,26,26,12,4,33,47,534,['n'],1,right,['3'],4,289,[-0.05965977],53,47,medium,minus,dotcolour,beta,,,45,18,V,R,
531,27,27,12,4,33,47,484,['n'],1,right,['8'],3,651,[-0.22172862],98,47,medium,minus,dotcolour,beta,,,45,18,V,R,
532,28,28,12,4,44,36,667,['c'],1,left,['3'],4,352,[0.13233869],91,44,hard,minus,dotcolour,beta,,,45,18,V,R,
533,29,29,12,4,47,33,668,['c'],1,left,['3'],4,289,[0.09829607],81,47,medium,minus,dotcolour,beta,,,45,18,V,R,
534,30,30,12,4,53,27,568,['c'],1,left,['3'],4,255,[0.1434412],96,53,easy,minus,dotcolour,beta,,,45,18,V,R,
535,31,31,12,4,47,33,633,['c'],1,left,['3'],4,342,[0.15046357],95,47,medium,minus,dotcolour,beta,,,45,18,V,R,
536,32,32,12,4,44,36,667,['c'],1,left,['3'],4,278,[0.15532942],97,44,hard,minus,dotcolour,beta,,,45,18,V,R,
537,33,33,12,4,27,53,517,['n'],1,right,['2'],5,232,[-0.22830322],100,53,easy,minus,dotcolour,beta,,,45,18,V,R,
538,34,34,12,4,44,36,567,['c'],1,left,['2'],5,289,[0.15622667],97,44,hard,minus,dotcolour,beta,,,45,18,V,R,
539,35,35,12,4,53,27,583,['c'],1,left,['2'],5,223,[0.06897686],63,53,easy,minus,dotcolour,beta,,,45,18,V,R,
540,36,36,12,4,33,47,568,['c'],0,right,['0'],1,1232,[-0.01750665],23,47,medium,minus,dotcolour,beta,,,45,18,V,R,
541,37,37,12,4,53,27,633,['c'],1,left,['2'],5,310,[0.13741117],93,53,easy,minus,dotcolour,beta,,,45,18,V,R,
542,38,38,12,4,33,47,517,['n'],1,right,['2'],5,246,[-0.09879172],83,47,medium,minus,dotcolour,beta,,,45,18,V,R,
543,39,39,12,4,36,44,449,['c'],0,right,['0'],1,1179,[-0.10928343],6,44,hard,minus,dotcolour,beta,,,45,18,V,R,
544,40,40,12,4,36,44,550,['n'],1,right,['2'],5,271,[-0.13796359],95,44,hard,minus,dotcolour,beta,,,45,18,V,R,
545,41,41,12,4,36,44,584,['n'],1,right,['3'],4,751,[-0.14738113],87,44,hard,minus,dotcolour,beta,,,45,18,V,R,
546,42,0,13,4,47,33,1035,['c'],1,left,['3'],4,322,[0.07727373],67,47,medium,minus,dotcolour,beta,,,45,18,V,R,
547,43,1,13,4,33,47,484,['n'],1,right,['3'],4,170,[-0.0791637],74,47,medium,minus,dotcolour,beta,,,45,18,V,R,
548,44,2,13,4,36,44,433,['n'],1,right,['3'],4,131,[-0.08552676],82,44,hard,minus,dotcolour,beta,,,45,18,V,R,
549,45,3,13,4,44,36,483,['n'],0,left,['9'],2,788,[0.08312668],6,44,hard,minus,dotcolour,beta,,,45,18,V,R,
550,46,4,13,4,36,44,1334,['n'],1,right,['3'],4,472,[-0.1376486],90,44,hard,minus,dotcolour,beta,,,45,18,V,R,
551,47,5,13,4,33,47,583,['n'],1,right,['3'],4,151,[-0.0894393],83,47,medium,minus,dotcolour,beta,,,45,18,V,R,
552,48,6,13,4,36,44,534,['n'],1,right,['3'],4,261,[-0.08338007],73,44,hard,minus,dotcolour,beta,,,45,18,V,R,
553,49,7,13,4,33,47,467,['n'],1,right,['2'],5,209,[-0.10460753],87,47,medium,minus,dotcolour,beta,,,45,18,V,R,
554,50,8,13,4,36,44,666,['n'],1,right,['2'],5,207,[-0.16196998],99,44,hard,minus,dotcolour,beta,,,45,18,V,R,
555,51,9,13,4,27,53,500,['n'],1,right,['3'],4,236,[-0.19036531],99,53,easy,minus,dotcolour,beta,,,45,18,V,R,
556,52,10,13,4,47,33,716,['c'],1,left,['8'],3,327,[0.08692935],73,47,medium,minus,dotcolour,beta,,,45,18,V,R,
557,53,11,13,4,36,44,550,['n'],1,right,['8'],3,709,[-0.21857472],97,44,hard,minus,dotcolour,beta,,,45,18,V,R,
558,54,12,13,4,36,44,934,['n'],1,right,['8'],3,420,[-0.23638007],99,44,hard,minus,dotcolour,beta,,,45,18,V,R,
559,55,13,13,4,53,27,600,['c'],1,left,['8'],3,429,[0.11529012],84,53,easy,minus,dotcolour,beta,,,45,18,V,R,
560,56,14,13,4,53,27,650,['c'],1,left,['3'],4,387,[0.15591897],95,53,easy,minus,dotcolour,beta,,,45,18,V,R,
561,57,15,13,4,27,53,467,['n'],1,right,['3'],4,386,[-0.12785703],89,53,easy,minus,dotcolour,beta,,,45,18,V,R,
562,58,16,13,4,33,47,467,['n'],1,right,['8'],3,290,[-0.09990542],81,47,medium,minus,dotcolour,beta,,,45,18,V,R,
563,59,17,13,4,47,33,484,['n'],0,left,['9'],2,931,[0.19485257],1,47,medium,minus,dotcolour,beta,,,45,18,V,R,
564,60,18,13,4,53,27,800,['c'],1,left,['3'],4,832,[0.16380476],89,53,easy,minus,dotcolour,beta,,,45,18,V,R,
565,61,19,13,4,47,33,716,['n'],0,left,['3'],4,171,[0.01068477],5,47,medium,minus,dotcolour,beta,,,45,18,V,R,
566,62,20,13,4,47,33,433,['n'],0,left,['8'],3,316,[-0.09609396],79,47,medium,minus,dotcolour,beta,,,45,18,V,R,
567,63,21,13,4,44,36,716,['n'],0,left,['8'],3,428,[-0.05611457],50,44,hard,minus,dotcolour,beta,,,45,18,V,R,
568,64,22,13,4,33,47,584,['n'],1,right,['8'],3,277,[-0.15237748],96,47,medium,minus,dotcolour,beta,,,45,18,V,R,
569,65,23,13,4,53,27,483,['c'],1,left,['3'],4,304,[-0.04643941],3,53,easy,minus,dotcolour,beta,,,45,18,V,R,
570,66,24,13,4,33,47,517,['n'],1,right,['9'],2,561,[-0.15369246],91,47,medium,minus,dotcolour,beta,,,45,18,V,R,
571,67,25,13,4,27,53,517,['n'],1,right,['2'],5,798,[-0.13439514],83,53,easy,minus,dotcolour,beta,,,45,18,V,R,
572,68,26,13,4,36,44,667,['n'],1,right,['3'],4,1237,[-0.01892063],36,44,hard,minus,dotcolour,beta,,,45,18,V,R,
573,69,27,13,4,47,33,968,['c'],1,left,['3'],4,774,[0.03180993],38,47,medium,minus,dotcolour,beta,,,45,18,V,R,
574,70,28,13,4,44,36,533,['n'],0,left,['3'],4,147,[-0.06410483],60,44,hard,minus,dotcolour,beta,,,45,18,V,R,
575,71,29,13,4,27,53,699,['n'],1,right,['2'],5,610,[-0.27893142],99,53,easy,minus,dotcolour,beta,,,45,18,V,R,
576,72,30,13,4,44,36,951,['c'],1,left,['8'],3,237,[0.09499981],81,44,hard,minus,dotcolour,beta,,,45,18,V,R,
577,73,31,13,4,44,36,1350,['c'],1,left,['3'],4,246,[0.0432484],39,44,hard,minus,dotcolour,beta,,,45,18,V,R,
578,74,32,13,4,44,36,1018,['c'],1,left,['3'],4,341,[0.07518131],65,44,hard,minus,dotcolour,beta,,,45,18,V,R,
579,75,33,13,4,53,27,749,['n'],0,left,['8'],3,306,[-0.02843822],29,53,easy,minus,dotcolour,beta,,,45,18,V,R,
580,76,34,13,4,47,33,617,['c'],1,left,['3'],4,239,[0.18116012],99,47,medium,minus,dotcolour,beta,,,45,18,V,R,
581,77,35,13,4,44,36,517,['n'],0,left,['3'],4,210,[-0.12414974],94,44,hard,minus,dotcolour,beta,,,45,18,V,R,
582,78,36,13,4,27,53,518,['n'],1,right,['2'],5,422,[-0.1599364],95,53,easy,minus,dotcolour,beta,,,45,18,V,R,
583,79,37,13,4,53,27,734,['c'],1,left,['2'],5,345,[0.15109791],95,53,easy,minus,dotcolour,beta,,,45,18,V,R,
584,80,38,13,4,27,53,617,['n'],1,right,['2'],5,283,[-0.14112626],95,53,easy,minus,dotcolour,beta,,,45,18,V,R,
585,81,39,13,4,53,27,701,['n'],0,left,['0'],1,2133,[-0.26376492],93,53,easy,minus,dotcolour,beta,,,45,18,V,R,
586,82,40,13,4,33,47,566,['n'],1,right,['3'],4,466,[-0.07324434],61,47,medium,minus,dotcolour,beta,,,45,18,V,R,
587,83,41,13,4,27,53,566,['n'],1,right,['2'],5,259,[-0.14911962],96,53,easy,minus,dotcolour,beta,,,45,18,V,R,
588,84,0,14,4,36,44,617,['n'],1,right,['2'],5,230,[-0.08425159],75,44,hard,minus,dotcolour,beta,,,45,18,V,R,
589,85,1,14,4,47,33,784,['c'],1,left,['3'],4,1127,[0.12283397],76,47,medium,minus,dotcolour,beta,,,45,18,V,R,
590,86,2,14,4,27,53,500,['n'],1,right,['2'],5,207,[-0.14509013],97,53,easy,minus,dotcolour,beta,,,45,18,V,R,
591,87,3,14,4,47,33,534,['n'],0,left,['8'],3,618,[-0.12566212],83,47,medium,minus,dotcolour,beta,,,45,18,V,R,
592,88,4,14,4,44,36,834,['c'],1,left,['2'],5,377,[0.05131579],47,44,hard,minus,dotcolour,beta,,,45,18,V,R,
593,89,5,14,4,36,44,767,['n'],1,right,['3'],4,493,[-0.10799724],79,44,hard,minus,dotcolour,beta,,,45,18,V,R,
594,90,6,14,4,27,53,584,['n'],1,right,['2'],5,235,[-0.10122221],84,53,easy,minus,dotcolour,beta,,,45,18,V,R,
595,91,7,14,4,53,27,600,['c'],1,left,['2'],5,259,[0.177647],99,53,easy,minus,dotcolour,beta,,,45,18,V,R,
596,92,8,14,4,33,47,533,['n'],1,right,['2'],5,196,[0.00952916],7,47,medium,minus,dotcolour,beta,,,45,18,V,R,
597,93,9,14,4,27,53,500,['n'],1,right,['2'],5,353,[-0.14111103],93,53,easy,minus,dotcolour,beta,,,45,18,V,R,
598,94,10,14,4,47,33,533,['n'],0,left,['9'],2,936,[-0.00446781],28,47,medium,minus,dotcolour,beta,,,45,18,V,R,
599,95,11,14,4,27,53,500,['c'],0,right,['9'],2,871,[-0.08303423],6,53,easy,minus,dotcolour,beta,,,45,18,V,R,
600,96,12,14,4,44,36,967,['c'],1,left,['2'],5,310,[0.07517732],65,44,hard,minus,dotcolour,beta,,,45,18,V,R,
601,97,13,14,4,53,27,551,['n'],0,left,['0'],1,965,[0.13176905],3,53,easy,minus,dotcolour,beta,,,45,18,V,R,
602,98,14,14,4,47,33,817,['c'],1,left,['2'],5,351,[0.09387874],76,47,medium,minus,dotcolour,beta,,,45,18,V,R,
603,99,15,14,4,33,47,484,['n'],1,right,['3'],4,327,[-0.15968655],96,47,medium,minus,dotcolour,beta,,,45,18,V,R,
604,100,16,14,4,36,44,1351,['n'],1,right,['3'],4,205,[-0.07450531],68,44,hard,minus,dotcolour,beta,,,45,18,V,R,
605,101,17,14,4,53,27,684,['c'],1,left,['3'],4,338,[0.12170859],89,53,easy,minus,dotcolour,beta,,,45,18,V,R,
606,102,18,14,4,36,44,533,['n'],1,right,['3'],4,401,[-0.02834219],32,44,hard,minus,dotcolour,beta,,,45,18,V,R,
607,103,19,14,4,44,36,1800,['c'],1,left,['3'],4,346,[0.20835554],99,44,hard,minus,dotcolour,beta,,,45,18,V,R,
608,104,20,14,4,44,36,867,['c'],1,left,['3'],4,195,[0.10269856],87,44,hard,minus,dotcolour,beta,,,45,18,V,R,
609,105,21,14,4,27,53,550,['n'],1,right,['2'],5,230,[0.01364971],7,53,easy,minus,dotcolour,beta,,,45,18,V,R,
610,106,22,14,4,44,36,1083,['c'],1,left,['3'],4,259,[0.03353445],31,44,hard,minus,dotcolour,beta,,,45,18,V,R,
611,107,23,14,4,33,47,650,['n'],1,right,['3'],4,175,[-0.15694368],99,47,medium,minus,dotcolour,beta,,,45,18,V,R,
612,108,24,14,4,27,53,517,['n'],1,right,['3'],4,166,[-0.16524865],99,53,easy,minus,dotcolour,beta,,,45,18,V,R,
613,109,25,14,4,33,47,433,['n'],1,right,['3'],4,150,[-0.03906631],32,47,medium,minus,dotcolour,beta,,,45,18,V,R,
614,110,26,14,4,36,44,484,['n'],1,right,['3'],4,182,[-0.05010051],44,44,hard,minus,dotcolour,beta,,,45,18,V,R,
615,111,27,14,4,53,27,817,['c'],1,left,['2'],5,431,[0.21119749],99,53,easy,minus,dotcolour,beta,,,45,18,V,R,
616,112,28,14,4,27,53,567,['n'],1,right,['3'],4,289,[-0.1075536],85,53,easy,minus,dotcolour,beta,,,45,18,V,R,
617,113,29,14,4,33,47,516,['n'],1,right,['0'],1,722,[-0.13767448],85,47,medium,minus,dotcolour,beta,,,45,18,V,R,
618,114,30,14,4,44,36,700,['c'],1,left,['0'],1,402,[0.02318712],29,44,hard,minus,dotcolour,beta,,,45,18,V,R,
619,115,31,14,4,33,47,500,['n'],1,right,['0'],1,440,[-0.15870392],94,47,medium,minus,dotcolour,beta,,,45,18,V,R,
620,116,32,14,4,53,27,601,['c'],1,left,['2'],5,399,[0.21068072],99,53,easy,minus,dotcolour,beta,,,45,18,V,R,
621,117,33,14,4,53,27,934,['c'],1,left,['2'],5,290,[0.10500285],84,53,easy,minus,dotcolour,beta,,,45,18,V,R,
622,118,34,14,4,36,44,617,['n'],1,right,['2'],5,215,[-0.05828483],53,44,hard,minus,dotcolour,beta,,,45,18,V,R,
623,119,35,14,4,33,47,650,['c'],0,right,['9'],2,622,[0.2327739],98,47,medium,minus,dotcolour,beta,,,45,18,V,R,
624,120,36,14,4,36,44,584,['n'],1,right,['9'],2,406,[-0.10123574],78,44,hard,minus,dotcolour,beta,,,45,18,V,R,
625,121,37,14,4,47,33,534,['c'],1,left,['3'],4,298,[0.18475617],99,47,medium,minus,dotcolour,beta,,,45,18,V,R,
626,122,38,14,4,47,33,700,['n'],0,left,['2'],5,291,[-0.05225098],47,47,medium,minus,dotcolour,beta,,,45,18,V,R,
627,123,39,14,4,44,36,933,['c'],1,left,['2'],5,491,[0.09877812],75,44,hard,minus,dotcolour,beta,,,45,18,V,R,
628,124,40,14,4,47,33,1084,['n'],0,left,['0'],1,605,[-0.06813944],57,47,medium,minus,dotcolour,beta,,,45,18,V,R,
629,125,41,14,4,53,27,1100,['n'],0,left,['9'],2,786,[0.11848456],3,53,easy,minus,dotcolour,beta,,,45,18,V,R,
630,0,0,15,5,47,33,1601,['n'],0,left,['8'],3,1035,[-0.04902793],86,47,medium,plus,dotcolour,beta,,,45,18,V,R,
631,1,1,15,5,36,44,633,['n'],1,right,['8'],3,281,[-0.00724365],89,44,hard,plus,dotcolour,beta,,,45,18,V,R,
632,2,2,15,5,27,53,466,['n'],1,right,['2'],5,268,[-0.1254216],100,53,easy,plus,dotcolour,beta,,,45,18,V,R,
633,3,3,15,5,47,33,816,['c'],1,left,['8'],3,426,[0.1079061],99,47,medium,plus,dotcolour,beta,,,45,18,V,R,
634,4,4,15,5,36,44,650,['n'],1,right,['2'],5,248,[-0.07825837],99,44,hard,plus,dotcolour,beta,,,45,18,V,R,
635,5,5,15,5,33,47,900,['c'],0,right,['9'],2,348,[0.06718119],98,47,medium,plus,dotcolour,beta,,,45,18,V,R,
636,6,6,15,5,33,47,517,['n'],1,right,['2'],5,283,[-0.1294188],100,47,medium,plus,dotcolour,beta,,,45,18,V,R,
637,7,7,15,5,47,33,583,['c'],1,left,['0'],1,369,[0.03140871],93,47,medium,plus,dotcolour,beta,,,45,18,V,R,
638,8,8,15,5,33,47,566,['n'],1,right,['0'],1,365,[-0.11044861],99,47,medium,plus,dotcolour,beta,,,45,18,V,R,
639,9,9,15,5,53,27,1216,['n'],0,left,['9'],2,1215,[0.17230411],13,53,easy,plus,dotcolour,beta,,,45,18,V,R,
640,10,10,15,5,27,53,617,['n'],1,right,['2'],5,350,[-0.14902752],100,53,easy,plus,dotcolour,beta,,,45,18,V,R,
641,11,11,15,5,53,27,767,['c'],1,left,['2'],5,339,[0.16432076],100,53,easy,plus,dotcolour,beta,,,45,18,V,R,
642,12,12,15,5,53,27,734,['c'],1,left,['2'],5,282,[0.09211925],99,53,easy,plus,dotcolour,beta,,,45,18,V,R,
643,13,13,15,5,33,47,1050,['n'],1,right,['0'],1,357,[-0.17052842],100,47,medium,plus,dotcolour,beta,,,45,18,V,R,
644,14,14,15,5,44,36,1000,['n'],0,left,['0'],1,256,[-0.01271807],92,44,hard,plus,dotcolour,beta,,,45,18,V,R,
645,15,15,15,5,36,44,934,['n'],1,right,['0'],1,425,[-0.04425389],94,44,hard,plus,dotcolour,beta,,,45,18,V,R,
646,16,16,15,5,44,36,866,['n'],0,left,['0'],1,463,[0.0157813],74,44,hard,plus,dotcolour,beta,,,45,18,V,R,
647,17,17,15,5,33,47,650,['n'],1,right,['9'],2,348,[-0.07321905],98,47,medium,plus,dotcolour,beta,,,45,18,V,R,
648,18,18,15,5,44,36,633,['n'],0,left,['9'],2,333,[-0.06100227],97,44,hard,plus,dotcolour,beta,,,45,18,V,R,
649,19,19,15,5,53,27,617,['c'],1,left,['3'],4,304,[0.11225048],100,53,easy,plus,dotcolour,beta,,,45,18,V,R,
650,20,20,15,5,47,33,717,['c'],1,left,['3'],4,281,[0.05369361],98,47,medium,plus,dotcolour,beta,,,45,18,V,R,
651,21,21,15,5,33,47,534,['n'],1,right,['2'],5,266,[-0.17883792],100,47,medium,plus,dotcolour,beta,,,45,18,V,R,
652,22,22,15,5,27,53,449,['n'],1,right,['2'],5,199,[-0.07349291],99,53,easy,plus,dotcolour,beta,,,45,18,V,R,
653,23,23,15,5,47,33,517,['n'],0,left,['9'],2,1267,[0.19297958],10,47,medium,plus,dotcolour,beta,,,45,18,V,R,
654,24,24,15,5,36,44,734,['n'],1,right,['3'],4,252,[-0.03741153],97,44,hard,plus,dotcolour,beta,,,45,18,V,R,
655,25,25,15,5,53,27,483,['c'],1,left,['2'],5,280,[0.08431012],99,53,easy,plus,dotcolour,beta,,,45,18,V,R,
656,26,26,15,5,27,53,850,['n'],1,right,['2'],5,252,[-0.15467648],100,53,easy,plus,dotcolour,beta,,,45,18,V,R,
657,27,27,15,5,47,33,767,['c'],1,left,['3'],4,1013,[0.12424649],96,47,medium,plus,dotcolour,beta,,,45,18,V,R,
658,28,28,15,5,44,36,500,['n'],0,left,['2'],5,209,[-0.09883733],100,44,hard,plus,dotcolour,beta,,,45,18,V,R,
659,29,29,15,5,33,47,516,['n'],1,right,['2'],5,181,[-0.11495774],100,47,medium,plus,dotcolour,beta,,,45,18,V,R,
660,30,30,15,5,44,36,733,['c'],1,left,['2'],5,283,[0.04925266],97,44,hard,plus,dotcolour,beta,,,45,18,V,R,
661,31,31,15,5,44,36,817,['c'],1,left,['3'],4,991,[0.0413234],85,44,hard,plus,dotcolour,beta,,,45,18,V,R,
662,32,32,15,5,44,36,734,['n'],0,left,['8'],3,331,[-0.1332586],100,44,hard,plus,dotcolour,beta,,,45,18,V,R,
663,33,33,15,5,53,27,817,['c'],1,left,['2'],5,318,[0.05449488],97,53,easy,plus,dotcolour,beta,,,45,18,V,R,
664,34,34,15,5,27,53,1050,['n'],1,right,['2'],5,217,[-0.15252654],100,53,easy,plus,dotcolour,beta,,,45,18,V,R,
665,35,35,15,5,27,53,649,['c'],0,right,['0'],1,1249,[-0.31143399],2,53,easy,plus,dotcolour,beta,,,45,18,V,R,
666,36,36,15,5,36,44,717,['n'],1,right,['2'],5,234,[-0.10597328],100,44,hard,plus,dotcolour,beta,,,45,18,V,R,
667,37,37,15,5,36,44,583,['n'],1,right,['2'],5,267,[0.0204854],77,44,hard,plus,dotcolour,beta,,,45,18,V,R,
668,38,38,15,5,53,27,1117,['n'],0,left,['3'],4,405,[0.05690771],49,53,easy,plus,dotcolour,beta,,,45,18,V,R,
669,39,39,15,5,27,53,533,['n'],1,right,['1'],6,385,[-0.2065089],100,53,easy,plus,dotcolour,beta,,,45,18,V,R,
670,40,40,15,5,36,44,1201,['n'],1,right,['2'],5,234,[-0.12522551],100,44,hard,plus,dotcolour,beta,,,45,18,V,R,
671,41,41,15,5,47,33,683,['n'],0,left,['3'],4,863,[0.08714788],35,47,medium,plus,dotcolour,beta,,,45,18,V,R,
672,42,0,16,5,53,27,701,['c'],1,left,['3'],4,267,[0.13835241],100,53,easy,plus,dotcolour,beta,,,45,18,V,R,
673,43,1,16,5,33,47,1117,['c'],0,right,['3'],4,326,[0.12094323],100,47,medium,plus,dotcolour,beta,,,45,18,V,R,
674,44,2,16,5,33,47,517,['c'],0,right,['3'],4,301,[0.07579978],99,47,medium,plus,dotcolour,beta,,,45,18,V,R,
675,45,3,16,5,27,53,384,['n'],1,right,['2'],5,243,[-0.09129415],100,53,easy,plus,dotcolour,beta,,,45,18,V,R,
676,46,4,16,5,53,27,1317,['c'],1,left,['3'],4,373,[0.22219419],100,53,easy,plus,dotcolour,beta,,,45,18,V,R,
677,47,5,16,5,44,36,483,['n'],0,left,['2'],5,188,[-0.07591321],100,44,hard,plus,dotcolour,beta,,,45,18,V,R,
678,48,6,16,5,47,33,650,['n'],0,left,['2'],5,156,[-0.00027977],93,47,medium,plus,dotcolour,beta,,,45,18,V,R,
679,49,7,16,5,27,53,450,['n'],1,right,['2'],5,1222,[-0.19371951],98,53,easy,plus,dotcolour,beta,,,45,18,V,R,
680,50,8,16,5,36,44,550,['n'],1,right,['8'],3,456,[-0.17249272],100,44,hard,plus,dotcolour,beta,,,45,18,V,R,
681,51,9,16,5,53,27,534,['c'],1,left,['2'],5,401,[0.1873804],100,53,easy,plus,dotcolour,beta,,,45,18,V,R,
682,52,10,16,5,36,44,583,['n'],1,right,['3'],4,651,[-0.06750535],94,44,hard,plus,dotcolour,beta,,,45,18,V,R,
683,53,11,16,5,53,27,1717,['c'],1,left,['2'],5,430,[0.00229391],83,53,easy,plus,dotcolour,beta,,,45,18,V,R,
684,54,12,16,5,27,53,567,['n'],1,right,['2'],5,287,[-0.09476717],99,53,easy,plus,dotcolour,beta,,,45,18,V,R,
685,55,13,16,5,44,36,734,['n'],0,left,['2'],5,208,[0.00478955],88,44,hard,plus,dotcolour,beta,,,45,18,V,R,
686,56,14,16,5,44,36,1816,['n'],0,left,['3'],4,376,[-0.01249645],88,44,hard,plus,dotcolour,beta,,,45,18,V,R,
687,57,15,16,5,27,53,567,['n'],1,right,['2'],5,219,[-0.09590324],100,53,easy,plus,dotcolour,beta,,,45,18,V,R,
688,58,16,16,5,47,33,700,['c'],1,left,['2'],5,271,[0.11349278],100,47,medium,plus,dotcolour,beta,,,45,18,V,R,
689,59,17,16,5,36,44,450,['n'],1,right,['2'],5,396,[-0.2109628],100,44,hard,plus,dotcolour,beta,,,45,18,V,R,
690,60,18,16,5,47,33,318,['c'],1,left,['2'],5,433,[-0.03419064],64,47,medium,plus,dotcolour,beta,,,45,18,V,R,
691,61,19,16,5,53,27,983,['c'],1,left,['2'],5,330,[0.12974007],100,53,easy,plus,dotcolour,beta,,,45,18,V,R,
692,62,20,16,5,53,27,433,['c'],1,left,['2'],5,245,[0.01387214],93,53,easy,plus,dotcolour,beta,,,45,18,V,R,
693,63,21,16,5,47,33,384,['c'],1,left,['2'],5,220,[0.13024259],100,47,medium,plus,dotcolour,beta,,,45,18,V,R,
694,64,22,16,5,47,33,266,['n'],0,left,['2'],5,306,[0.02556578],73,47,medium,plus,dotcolour,beta,,,45,18,V,R,
695,65,23,16,5,27,53,483,['n'],1,right,['2'],5,227,[-0.07306613],99,53,easy,plus,dotcolour,beta,,,45,18,V,R,
696,66,24,16,5,33,47,434,['n'],1,right,['2'],5,274,[-0.12621384],100,47,medium,plus,dotcolour,beta,,,45,18,V,R,
697,67,25,16,5,44,36,818,['c'],1,left,['8'],3,256,[0.06831688],99,44,hard,plus,dotcolour,beta,,,45,18,V,R,
698,68,26,16,5,33,47,434,['n'],1,right,['3'],4,405,[-0.06086123],96,47,medium,plus,dotcolour,beta,,,45,18,V,R,
699,69,27,16,5,33,47,451,['n'],1,right,['2'],5,220,[-0.0587752],99,47,medium,plus,dotcolour,beta,,,45,18,V,R,
700,70,28,16,5,47,33,467,['n'],0,left,['8'],3,634,[-0.08261823],96,47,medium,plus,dotcolour,beta,,,45,18,V,R,
701,71,29,16,5,47,33,534,['c'],1,left,['8'],3,268,[0.06048749],98,47,medium,plus,dotcolour,beta,,,45,18,V,R,
702,72,30,16,5,44,36,550,['c'],1,left,['8'],3,277,[0.12757918],100,44,hard,plus,dotcolour,beta,,,45,18,V,R,
703,73,31,16,5,27,53,1133,['n'],1,right,['2'],5,358,[-0.13021513],100,53,easy,plus,dotcolour,beta,,,45,18,V,R,
704,74,32,16,5,33,47,633,['n'],1,right,['2'],5,239,[-0.0339794],96,47,medium,plus,dotcolour,beta,,,45,18,V,R,
705,75,33,16,5,36,44,650,['n'],1,right,['2'],5,220,[-0.14745235],100,44,hard,plus,dotcolour,beta,,,45,18,V,R,
706,76,34,16,5,44,36,467,['n'],0,left,['8'],3,474,[-0.04304454],93,44,hard,plus,dotcolour,beta,,,45,18,V,R,
707,77,35,16,5,44,36,467,['n'],0,left,['8'],3,550,[-0.12662468],99,44,hard,plus,dotcolour,beta,,,45,18,V,R,
708,78,36,16,5,53,27,516,['n'],0,left,['8'],3,437,[0.01789469],74,53,easy,plus,dotcolour,beta,,,45,18,V,R,
709,79,37,16,5,36,44,833,['n'],1,right,['3'],4,243,[-0.12852849],100,44,hard,plus,dotcolour,beta,,,45,18,V,R,
710,80,38,16,5,27,53,450,['n'],1,right,['8'],3,273,[-0.1371293],100,53,easy,plus,dotcolour,beta,,,45,18,V,R,
711,81,39,16,5,33,47,417,['n'],1,right,['2'],5,206,[-0.02526689],96,47,medium,plus,dotcolour,beta,,,45,18,V,R,
712,82,40,16,5,36,44,416,['n'],1,right,['3'],4,142,[-0.14399205],100,44,hard,plus,dotcolour,beta,,,45,18,V,R,
713,83,41,16,5,36,44,400,['n'],1,right,['3'],4,177,[-0.16068376],100,44,hard,plus,dotcolour,beta,,,45,18,V,R,
714,84,0,17,5,33,47,467,['n'],1,right,['3'],4,169,[-0.07389478],100,47,medium,plus,dotcolour,beta,,,45,18,V,R,
715,85,1,17,5,47,33,450,['n'],0,left,['8'],3,498,[0.05927023],48,47,medium,plus,dotcolour,beta,,,45,18,V,R,
716,86,2,17,5,36,44,467,['n'],1,right,['3'],4,357,[-0.09213045],99,44,hard,plus,dotcolour,beta,,,45,18,V,R,
717,87,3,17,5,36,44,467,['n'],1,right,['3'],4,261,[-0.17985015],100,44,hard,plus,dotcolour,beta,,,45,18,V,R,
718,88,4,17,5,53,27,417,['c'],1,left,['2'],5,298,[0.05526633],97,53,easy,plus,dotcolour,beta,,,45,18,V,R,
719,89,5,17,5,47,33,883,['n'],0,left,['8'],3,556,[0.05779349],49,47,medium,plus,dotcolour,beta,,,45,18,V,R,
720,90,6,17,5,36,44,617,['n'],1,right,['9'],2,326,[-0.03774917],95,44,hard,plus,dotcolour,beta,,,45,18,V,R,
721,91,7,17,5,53,27,1084,['c'],1,left,['3'],4,231,[0.07111128],99,53,easy,plus,dotcolour,beta,,,45,18,V,R,
722,92,8,17,5,27,53,484,['n'],1,right,['3'],4,188,[-0.11634034],100,53,easy,plus,dotcolour,beta,,,45,18,V,R,
723,93,9,17,5,47,33,700,['n'],0,left,['9'],2,354,[0.03274914],67,47,medium,plus,dotcolour,beta,,,45,18,V,R,
724,94,10,17,5,44,36,516,['n'],0,left,['2'],5,201,[-0.0537946],99,44,hard,plus,dotcolour,beta,,,45,18,V,R,
725,95,11,17,5,53,27,350,['c'],1,left,['3'],4,284,[0.15264675],100,53,easy,plus,dotcolour,beta,,,45,18,V,R,
726,96,12,17,5,47,33,418,['n'],0,left,['3'],4,217,[0.01805449],81,47,medium,plus,dotcolour,beta,,,45,18,V,R,
727,97,13,17,5,27,53,417,['c'],0,right,['3'],4,234,[0.05609458],98,53,easy,plus,dotcolour,beta,,,45,18,V,R,
728,98,14,17,5,53,27,900,['c'],1,left,['2'],5,341,[0.17233805],100,53,easy,plus,dotcolour,beta,,,45,18,V,R,
729,99,15,17,5,36,44,467,['n'],1,right,['3'],4,182,[-0.13210275],100,44,hard,plus,dotcolour,beta,,,45,18,V,R,
730,100,16,17,5,27,53,268,['c'],0,right,['2'],5,245,[-0.0101789],84,53,easy,plus,dotcolour,beta,,,45,18,V,R,
731,101,17,17,5,33,47,567,['n'],1,right,['2'],5,286,[-0.04944799],97,47,medium,plus,dotcolour,beta,,,45,18,V,R,
732,102,18,17,5,53,27,650,['c'],1,left,['2'],5,298,[0.07737267],99,53,easy,plus,dotcolour,beta,,,45,18,V,R,
733,103,19,17,5,33,47,450,['n'],1,right,['2'],5,261,[-0.02454153],94,47,medium,plus,dotcolour,beta,,,45,18,V,R,
734,104,20,17,5,44,36,466,['n'],0,left,['3'],4,617,[0.03265651],63,44,hard,plus,dotcolour,beta,,,45,18,V,R,
735,105,21,17,5,53,27,450,['c'],1,left,['2'],5,296,[0.10030062],99,53,easy,plus,dotcolour,beta,,,45,18,V,R,
736,106,22,17,5,47,33,666,['c'],1,left,['2'],5,307,[0.13396827],100,47,medium,plus,dotcolour,beta,,,45,18,V,R,
737,107,23,17,5,27,53,466,['n'],1,right,['2'],5,244,[-0.17692744],100,53,easy,plus,dotcolour,beta,,,45,18,V,R,
738,108,24,17,5,44,36,617,['c'],1,left,['8'],3,364,[0.16490966],100,44,hard,plus,dotcolour,beta,,,45,18,V,R,
739,109,25,17,5,36,44,450,['n'],1,right,['8'],3,356,[-0.10745426],99,44,hard,plus,dotcolour,beta,,,45,18,V,R,
740,110,26,17,5,44,36,550,['c'],1,left,['9'],2,529,[0.17280202],100,44,hard,plus,dotcolour,beta,,,45,18,V,R,
741,111,27,17,5,47,33,434,['n'],0,left,['3'],4,371,[-0.02326438],91,47,medium,plus,dotcolour,beta,,,45,18,V,R,
742,112,28,17,5,33,47,1984,['n'],1,right,['2'],5,278,[-0.09948189],99,47,medium,plus,dotcolour,beta,,,45,18,V,R,
743,113,29,17,5,27,53,516,['n'],1,right,['2'],5,151,[-0.06510641],100,53,easy,plus,dotcolour,beta,,,45,18,V,R,
744,114,30,17,5,33,47,401,['n'],1,right,['2'],5,171,[-0.12541656],100,47,medium,plus,dotcolour,beta,,,45,18,V,R,
745,115,31,17,5,44,36,316,['n'],0,left,['2'],5,177,[-0.02360025],97,44,hard,plus,dotcolour,beta,,,45,18,V,R,
746,116,32,17,5,33,47,384,['c'],0,right,['8'],3,227,[0.00554741],91,47,medium,plus,dotcolour,beta,,,45,18,V,R,
747,117,33,17,5,44,36,516,['n'],0,left,['9'],2,863,[-0.14941476],98,44,hard,plus,dotcolour,beta,,,45,18,V,R,
748,118,34,17,5,44,36,634,['c'],1,left,['9'],2,332,[0.10671722],99,44,hard,plus,dotcolour,beta,,,45,18,V,R,
749,119,35,17,5,36,44,466,['n'],1,right,['9'],2,350,[-0.08615526],99,44,hard,plus,dotcolour,beta,,,45,18,V,R,
750,120,36,17,5,27,53,499,['n'],1,right,['2'],5,285,[-0.07725125],99,53,easy,plus,dotcolour,beta,,,45,18,V,R,
751,121,37,17,5,33,47,382,['n'],1,right,['2'],5,371,[-0.09105758],99,47,medium,plus,dotcolour,beta,,,45,18,V,R,
752,122,38,17,5,27,53,367,['n'],1,right,['2'],5,183,[-0.14730529],100,53,easy,plus,dotcolour,beta,,,45,18,V,R,
753,123,39,17,5,53,27,584,['c'],1,left,['1'],6,257,[0.11428555],100,53,easy,plus,dotcolour,beta,,,45,18,V,R,
754,124,40,17,5,36,44,534,['n'],1,right,['8'],3,987,[-0.26165955],100,44,hard,plus,dotcolour,beta,,,45,18,V,R,
755,125,41,17,5,47,33,533,['n'],0,left,['8'],3,463,[0.03975979],60,47,medium,plus,dotcolour,beta,,,45,18,V,R,
,,,,,,,,,,,,,,,,,,,,,1,het werd steeds moeilijker en dan terug gemakkelijker en dan weer moeilijk en weer gemakkelijk,45,18,V,R,
,,,,,,,,,,,,,,,,,,,,,2,['f'],45,18,V,R,
,,,,,,,,,,,,,,,,,,,,,3,['g'],45,18,V,R,
,,,,,,,,,,,,,,,,,,,,,5,['3'],45,18,V,R,
