trial,withinphasetrial,withinblocktrial,block,phase,dotsLeft,dotsRight,rt,resp,cor,cresp,conf_press,cj,RTconf,ev,fb,diff,difflevel,condition,task,manip,questionID,questionResp,sub,age,gender,handedness,
0,0,0,0,0,44,36,717,['c'],1,left,['3'],4,1349,[0.1965957],100,44,hard,plus,dotcolour,alfa,,,112,18,V,R,
1,1,1,0,0,47,33,766,['c'],1,left,['3'],4,489,[0.0968408],99,47,medium,plus,dotcolour,alfa,,,112,18,V,R,
2,2,2,0,0,53,27,950,['n'],0,left,['3'],4,856,[0.14444001],0,53,easy,plus,dotcolour,alfa,,,112,18,V,R,
3,3,3,0,0,33,47,834,['n'],1,right,['9'],2,276,[-0.12595505],100,47,medium,plus,dotcolour,alfa,,,112,18,V,R,
4,4,4,0,0,44,36,766,['c'],1,left,['2'],5,797,[0.129954],99,44,hard,plus,dotcolour,alfa,,,112,18,V,R,
5,5,5,0,0,47,33,466,['c'],1,left,['2'],5,179,[0.09349824],100,47,medium,plus,dotcolour,alfa,,,112,18,V,R,
6,6,6,0,0,36,44,583,['c'],0,right,['2'],5,613,[0.0420809],87,44,hard,plus,dotcolour,alfa,,,112,18,V,R,
7,7,7,0,0,47,33,517,['n'],0,left,['9'],2,961,[0.03139125],24,47,medium,plus,dotcolour,alfa,,,112,18,V,R,
8,8,8,0,0,33,47,1683,['n'],1,right,['2'],5,873,[0.03967281],18,47,medium,plus,dotcolour,alfa,,,112,18,V,R,
9,9,9,0,0,53,27,999,['c'],1,left,['3'],4,1846,[0.54367126],100,53,easy,plus,dotcolour,alfa,,,112,18,V,R,
10,10,10,0,0,33,47,699,['n'],1,right,['9'],2,194,[-0.12713461],100,47,medium,plus,dotcolour,alfa,,,112,18,V,R,
11,11,11,0,0,27,53,500,['n'],1,right,['2'],5,271,[-0.17406274],100,53,easy,plus,dotcolour,alfa,,,112,18,V,R,
12,12,12,0,0,36,44,500,['n'],1,right,['8'],3,194,[-0.12872513],100,44,hard,plus,dotcolour,alfa,,,112,18,V,R,
13,13,13,0,0,44,36,650,['c'],1,left,['3'],4,185,[0.03905386],96,44,hard,plus,dotcolour,alfa,,,112,18,V,R,
14,14,14,0,0,36,44,467,['c'],0,right,['3'],4,201,[0.07563931],100,44,hard,plus,dotcolour,alfa,,,112,18,V,R,
15,15,15,0,0,44,36,466,['c'],1,left,['3'],4,151,[0.09324332],100,44,hard,plus,dotcolour,alfa,,,112,18,V,R,
16,16,16,0,0,53,27,433,['n'],0,left,['3'],4,905,[0.10802647],2,53,easy,plus,dotcolour,alfa,,,112,18,V,R,
17,17,17,0,0,33,47,233,['c'],0,right,['3'],4,180,[-0.00215046],45,47,medium,plus,dotcolour,alfa,,,112,18,V,R,
18,18,18,0,0,44,36,400,['c'],1,left,['3'],4,134,[0.05082115],99,44,hard,plus,dotcolour,alfa,,,112,18,V,R,
19,19,19,0,0,27,53,284,['c'],0,right,['3'],4,142,[0.04225512],98,53,easy,plus,dotcolour,alfa,,,112,18,V,R,
20,20,20,0,0,33,47,417,['c'],0,right,['8'],3,145,[0.07325077],100,47,medium,plus,dotcolour,alfa,,,112,18,V,R,
21,21,21,0,0,47,33,250,['c'],1,left,['2'],5,1260,[0.12434045],98,47,medium,plus,dotcolour,alfa,,,112,18,V,R,
22,22,22,0,0,53,27,734,['c'],1,left,['3'],4,932,[0.27862698],100,53,easy,plus,dotcolour,alfa,,,112,18,V,R,
23,23,23,0,0,27,53,700,['n'],1,right,['9'],2,156,[-0.08537938],100,53,easy,plus,dotcolour,alfa,,,112,18,V,R,
24,24,24,0,0,53,27,534,['c'],1,left,['2'],5,305,[0.05655949],98,53,easy,plus,dotcolour,alfa,,,112,18,V,R,
25,25,25,0,0,27,53,499,['n'],1,right,['2'],5,130,[-0.08322616],100,53,easy,plus,dotcolour,alfa,,,112,18,V,R,
26,26,26,0,0,53,27,416,['c'],1,left,['2'],5,150,[0.05369791],99,53,easy,plus,dotcolour,alfa,,,112,18,V,R,
27,27,27,0,0,44,36,417,['c'],1,left,['2'],5,177,[0.04862328],98,44,hard,plus,dotcolour,alfa,,,112,18,V,R,
28,28,28,0,0,47,33,417,['c'],1,left,['2'],5,201,[0.1481361],100,47,medium,plus,dotcolour,alfa,,,112,18,V,R,
29,29,29,0,0,36,44,335,['c'],0,right,['8'],3,701,[-0.05224186],10,44,hard,plus,dotcolour,alfa,,,112,18,V,R,
30,30,30,0,0,27,53,766,['n'],1,right,['9'],2,149,[-0.09548767],100,53,easy,plus,dotcolour,alfa,,,112,18,V,R,
31,31,31,0,0,33,47,418,['n'],1,right,['2'],5,175,[-0.12125018],100,47,medium,plus,dotcolour,alfa,,,112,18,V,R,
32,32,32,0,0,36,44,401,['n'],1,right,['1'],6,185,[-0.11756332],100,44,hard,plus,dotcolour,alfa,,,112,18,V,R,
33,33,33,0,0,27,53,250,['n'],1,right,['1'],6,225,[-0.03185148],92,53,easy,plus,dotcolour,alfa,,,112,18,V,R,
34,34,34,0,0,47,33,267,['n'],0,left,['2'],5,222,[-0.04030992],96,47,medium,plus,dotcolour,alfa,,,112,18,V,R,
35,35,35,0,0,27,53,350,['c'],0,right,['8'],3,160,[0.08122541],100,53,easy,plus,dotcolour,alfa,,,112,18,V,R,
36,36,36,0,0,33,47,650,['n'],1,right,['2'],5,217,[-0.19448272],100,47,medium,plus,dotcolour,alfa,,,112,18,V,R,
37,37,37,0,0,36,44,917,['n'],1,right,['8'],3,237,[-0.07349848],100,44,hard,plus,dotcolour,alfa,,,112,18,V,R,
38,38,38,0,0,53,27,468,['c'],1,left,['8'],3,170,[0.12686252],100,53,easy,plus,dotcolour,alfa,,,112,18,V,R,
39,39,39,0,0,36,44,601,['n'],1,right,['3'],4,157,[-0.06436422],100,44,hard,plus,dotcolour,alfa,,,112,18,V,R,
40,40,40,0,0,47,33,684,['n'],0,left,['8'],3,173,[-0.05518178],99,47,medium,plus,dotcolour,alfa,,,112,18,V,R,
41,41,41,0,0,44,36,984,['c'],1,left,['8'],3,392,[0.1397026],100,44,hard,plus,dotcolour,alfa,,,112,18,V,R,
42,42,0,1,0,27,53,634,['n'],1,right,['8'],3,382,[-0.25121158],100,53,easy,plus,dotcolour,alfa,,,112,18,V,R,
43,43,1,1,0,47,33,451,['c'],1,left,['8'],3,262,[0.0459386],96,47,medium,plus,dotcolour,alfa,,,112,18,V,R,
44,44,2,1,0,47,33,517,['c'],1,left,['2'],5,152,[0.07819029],100,47,medium,plus,dotcolour,alfa,,,112,18,V,R,
45,45,3,1,0,36,44,434,['c'],0,right,['8'],3,474,[0.07606502],98,44,hard,plus,dotcolour,alfa,,,112,18,V,R,
46,46,4,1,0,27,53,600,['n'],1,right,['2'],5,216,[-0.00119317],52,53,easy,plus,dotcolour,alfa,,,112,18,V,R,
47,47,5,1,0,33,47,566,['n'],1,right,['9'],2,162,[-0.09904084],100,47,medium,plus,dotcolour,alfa,,,112,18,V,R,
48,48,6,1,0,27,53,483,['n'],1,right,['8'],3,153,[-0.03695219],97,53,easy,plus,dotcolour,alfa,,,112,18,V,R,
49,49,7,1,0,47,33,415,['c'],1,left,['8'],3,156,[0.10313145],100,47,medium,plus,dotcolour,alfa,,,112,18,V,R,
50,50,8,1,0,44,36,416,['c'],1,left,['8'],3,111,[0.12050304],100,44,hard,plus,dotcolour,alfa,,,112,18,V,R,
51,51,9,1,0,27,53,518,['n'],1,right,['9'],2,151,[-0.09696539],100,53,easy,plus,dotcolour,alfa,,,112,18,V,R,
52,52,10,1,0,47,33,666,['c'],1,left,['2'],5,191,[0.01608175],79,47,medium,plus,dotcolour,alfa,,,112,18,V,R,
53,53,11,1,0,33,47,1218,['n'],1,right,['8'],3,96,[-0.08079894],100,47,medium,plus,dotcolour,alfa,,,112,18,V,R,
54,54,12,1,0,53,27,551,['c'],1,left,['3'],4,223,[0.07368543],100,53,easy,plus,dotcolour,alfa,,,112,18,V,R,
55,55,13,1,0,36,44,418,['n'],1,right,['2'],5,238,[-0.10883521],100,44,hard,plus,dotcolour,alfa,,,112,18,V,R,
56,56,14,1,0,44,36,500,['c'],1,left,['8'],3,251,[0.1319532],100,44,hard,plus,dotcolour,alfa,,,112,18,V,R,
57,57,15,1,0,36,44,416,['c'],0,right,['2'],5,601,[0.11236743],99,44,hard,plus,dotcolour,alfa,,,112,18,V,R,
58,58,16,1,0,33,47,366,['c'],0,right,['8'],3,444,[-0.05822683],4,47,medium,plus,dotcolour,alfa,,,112,18,V,R,
59,59,17,1,0,33,47,300,['c'],0,right,['8'],3,319,[0.0122802],69,47,medium,plus,dotcolour,alfa,,,112,18,V,R,
60,60,18,1,0,53,27,650,['c'],1,left,['8'],3,186,[0.13983973],100,53,easy,plus,dotcolour,alfa,,,112,18,V,R,
61,61,19,1,0,47,33,450,['c'],1,left,['8'],3,218,[0.12375548],100,47,medium,plus,dotcolour,alfa,,,112,18,V,R,
62,62,20,1,0,33,47,466,['c'],0,right,['8'],3,143,[0.0436513],98,47,medium,plus,dotcolour,alfa,,,112,18,V,R,
63,63,21,1,0,47,33,383,['c'],1,left,['2'],5,236,[0.0757397],100,47,medium,plus,dotcolour,alfa,,,112,18,V,R,
64,64,22,1,0,36,44,666,['n'],1,right,['2'],5,137,[0.02220791],10,44,hard,plus,dotcolour,alfa,,,112,18,V,R,
65,65,23,1,0,44,36,467,['n'],0,left,['9'],2,978,[0.13775298],1,44,hard,plus,dotcolour,alfa,,,112,18,V,R,
66,66,24,1,0,53,27,533,['n'],0,left,['2'],5,391,[-0.0243105],80,53,easy,plus,dotcolour,alfa,,,112,18,V,R,
67,67,25,1,0,27,53,534,['n'],1,right,['8'],3,315,[-0.19554049],100,53,easy,plus,dotcolour,alfa,,,112,18,V,R,
68,68,26,1,0,53,27,501,['c'],1,left,['2'],5,179,[0.11031746],100,53,easy,plus,dotcolour,alfa,,,112,18,V,R,
69,69,27,1,0,53,27,382,['c'],1,left,['2'],5,167,[0.10409417],100,53,easy,plus,dotcolour,alfa,,,112,18,V,R,
70,70,28,1,0,47,33,418,['c'],1,left,['2'],5,192,[0.03667877],95,47,medium,plus,dotcolour,alfa,,,112,18,V,R,
71,71,29,1,0,36,44,599,['n'],1,right,['2'],5,106,[-0.0479396],100,44,hard,plus,dotcolour,alfa,,,112,18,V,R,
72,72,30,1,0,44,36,2516,['c'],1,left,['9'],2,1219,[0.06112933],88,44,hard,plus,dotcolour,alfa,,,112,18,V,R,
73,73,31,1,0,53,27,616,['c'],1,left,['8'],3,185,[0.01270378],74,53,easy,plus,dotcolour,alfa,,,112,18,V,R,
74,74,32,1,0,44,36,584,['c'],1,left,['8'],3,165,[0.0762564],100,44,hard,plus,dotcolour,alfa,,,112,18,V,R,
75,75,33,1,0,44,36,568,['c'],1,left,['9'],2,256,[0.10377671],100,44,hard,plus,dotcolour,alfa,,,112,18,V,R,
76,76,34,1,0,27,53,383,['c'],0,right,['9'],2,728,[-0.00540056],44,53,easy,plus,dotcolour,alfa,,,112,18,V,R,
77,77,35,1,0,36,44,666,['n'],1,right,['2'],5,217,[-0.08264327],100,44,hard,plus,dotcolour,alfa,,,112,18,V,R,
78,78,36,1,0,33,47,384,['n'],1,right,['2'],5,154,[-0.08211355],100,47,medium,plus,dotcolour,alfa,,,112,18,V,R,
79,79,37,1,0,44,36,350,['n'],0,left,['2'],5,168,[-0.0852146],100,44,hard,plus,dotcolour,alfa,,,112,18,V,R,
80,80,38,1,0,27,53,434,['n'],1,right,['8'],3,282,[-0.12155238],100,53,easy,plus,dotcolour,alfa,,,112,18,V,R,
81,81,39,1,0,36,44,450,['n'],1,right,['2'],5,190,[-0.09709456],100,44,hard,plus,dotcolour,alfa,,,112,18,V,R,
82,82,40,1,0,53,27,534,['c'],1,left,['8'],3,162,[0.13776771],100,53,easy,plus,dotcolour,alfa,,,112,18,V,R,
83,83,41,1,0,33,47,433,['c'],0,right,['9'],2,1266,[-0.22963296],0,47,medium,plus,dotcolour,alfa,,,112,18,V,R,
84,84,0,2,0,27,53,868,['n'],1,right,['8'],3,145,[-0.06432508],100,53,easy,plus,dotcolour,alfa,,,112,18,V,R,
85,85,1,2,0,53,27,501,['c'],1,left,['2'],5,433,[0.19904543],100,53,easy,plus,dotcolour,alfa,,,112,18,V,R,
86,86,2,2,0,53,27,600,['c'],1,left,['2'],5,192,[0.09754112],100,53,easy,plus,dotcolour,alfa,,,112,18,V,R,
87,87,3,2,0,44,36,651,['c'],1,left,['8'],3,224,[0.06349701],99,44,hard,plus,dotcolour,alfa,,,112,18,V,R,
88,88,4,2,0,47,33,667,['c'],1,left,['8'],3,718,[0.10165933],99,47,medium,plus,dotcolour,alfa,,,112,18,V,R,
89,89,5,2,0,53,27,585,['c'],1,left,['2'],5,298,[0.10282887],100,53,easy,plus,dotcolour,alfa,,,112,18,V,R,
90,90,6,2,0,33,47,583,['n'],1,right,['2'],5,185,[-0.03007585],93,47,medium,plus,dotcolour,alfa,,,112,18,V,R,
91,91,7,2,0,44,36,1149,['c'],1,left,['3'],4,229,[0.07998216],100,44,hard,plus,dotcolour,alfa,,,112,18,V,R,
92,92,8,2,0,36,44,799,['n'],1,right,['3'],4,380,[-0.08167622],99,44,hard,plus,dotcolour,alfa,,,112,18,V,R,
93,93,9,2,0,33,47,583,['n'],1,right,['3'],4,152,[-0.04259462],98,47,medium,plus,dotcolour,alfa,,,112,18,V,R,
94,94,10,2,0,47,33,649,['c'],1,left,['8'],3,369,[0.17478052],100,47,medium,plus,dotcolour,alfa,,,112,18,V,R,
95,95,11,2,0,36,44,900,['c'],0,right,['3'],4,223,[0.03378043],93,44,hard,plus,dotcolour,alfa,,,112,18,V,R,
96,96,12,2,0,44,36,433,['c'],1,left,['8'],3,190,[0.04233887],97,44,hard,plus,dotcolour,alfa,,,112,18,V,R,
97,97,13,2,0,36,44,534,['n'],1,right,['8'],3,235,[-0.10465931],100,44,hard,plus,dotcolour,alfa,,,112,18,V,R,
98,98,14,2,0,53,27,584,['c'],1,left,['2'],5,363,[0.09047297],100,53,easy,plus,dotcolour,alfa,,,112,18,V,R,
99,99,15,2,0,53,27,567,['n'],0,left,['2'],5,167,[-0.03363538],95,53,easy,plus,dotcolour,alfa,,,112,18,V,R,
100,100,16,2,0,33,47,750,['n'],1,right,['2'],5,283,[-0.11952913],100,47,medium,plus,dotcolour,alfa,,,112,18,V,R,
101,101,17,2,0,27,53,450,['n'],1,right,['2'],5,280,[-0.12860743],100,53,easy,plus,dotcolour,alfa,,,112,18,V,R,
102,102,18,2,0,53,27,500,['c'],1,left,['8'],3,201,[0.11021049],100,53,easy,plus,dotcolour,alfa,,,112,18,V,R,
103,103,19,2,0,47,33,400,['n'],0,left,['2'],5,331,[-0.03016024],87,47,medium,plus,dotcolour,alfa,,,112,18,V,R,
104,104,20,2,0,44,36,484,['n'],0,left,['3'],4,251,[-0.01805614],79,44,hard,plus,dotcolour,alfa,,,112,18,V,R,
105,105,21,2,0,27,53,483,['n'],1,right,['8'],3,208,[-0.1870237],100,53,easy,plus,dotcolour,alfa,,,112,18,V,R,
106,106,22,2,0,36,44,750,['n'],1,right,['8'],3,203,[-0.11004526],100,44,hard,plus,dotcolour,alfa,,,112,18,V,R,
107,107,23,2,0,27,53,450,['c'],0,right,['8'],3,274,[-0.00882437],35,53,easy,plus,dotcolour,alfa,,,112,18,V,R,
108,108,24,2,0,33,47,433,['n'],1,right,['8'],3,263,[-0.1564924],100,47,medium,plus,dotcolour,alfa,,,112,18,V,R,
109,109,25,2,0,33,47,568,['n'],1,right,['8'],3,158,[-0.06096226],100,47,medium,plus,dotcolour,alfa,,,112,18,V,R,
110,110,26,2,0,36,44,533,['c'],0,right,['8'],3,139,[0.09517072],100,44,hard,plus,dotcolour,alfa,,,112,18,V,R,
111,111,27,2,0,44,36,432,['c'],1,left,['8'],3,134,[0.07680198],100,44,hard,plus,dotcolour,alfa,,,112,18,V,R,
112,112,28,2,0,36,44,784,['n'],1,right,['3'],4,163,[-0.15845069],100,44,hard,plus,dotcolour,alfa,,,112,18,V,R,
113,113,29,2,0,33,47,584,['n'],1,right,['2'],5,302,[-0.02387879],83,47,medium,plus,dotcolour,alfa,,,112,18,V,R,
114,114,30,2,0,33,47,400,['n'],1,right,['2'],5,339,[-0.04009495],92,47,medium,plus,dotcolour,alfa,,,112,18,V,R,
115,115,31,2,0,53,27,601,['c'],1,left,['9'],2,199,[0.1978002],100,53,easy,plus,dotcolour,alfa,,,112,18,V,R,
116,116,32,2,0,47,33,549,['c'],1,left,['8'],3,146,[0.00179157],54,47,medium,plus,dotcolour,alfa,,,112,18,V,R,
117,117,33,2,0,36,44,518,['n'],1,right,['2'],5,152,[-0.04707382],99,44,hard,plus,dotcolour,alfa,,,112,18,V,R,
118,118,34,2,0,27,53,468,['n'],1,right,['2'],5,152,[-0.13987672],100,53,easy,plus,dotcolour,alfa,,,112,18,V,R,
119,119,35,2,0,47,33,400,['n'],0,left,['2'],5,172,[-0.10128815],100,47,medium,plus,dotcolour,alfa,,,112,18,V,R,
120,120,36,2,0,44,36,383,['n'],0,left,['2'],5,128,[-0.05109515],99,44,hard,plus,dotcolour,alfa,,,112,18,V,R,
121,121,37,2,0,47,33,600,['c'],1,left,['9'],2,156,[0.09850499],100,47,medium,plus,dotcolour,alfa,,,112,18,V,R,
122,122,38,2,0,27,53,316,['n'],1,right,['2'],5,162,[-0.08223303],100,53,easy,plus,dotcolour,alfa,,,112,18,V,R,
123,123,39,2,0,44,36,568,['c'],1,left,['8'],3,182,[0.09040434],100,44,hard,plus,dotcolour,alfa,,,112,18,V,R,
124,124,40,2,0,47,33,434,['c'],1,left,['8'],3,151,[0.00791626],68,47,medium,plus,dotcolour,alfa,,,112,18,V,R,
125,125,41,2,0,27,53,567,['n'],1,right,['2'],5,156,[-0.10909874],100,53,easy,plus,dotcolour,alfa,,,112,18,V,R,
126,0,0,3,1,33,47,717,['n'],1,right,['9'],2,179,[-0.1777613],98,47,medium,minus,dotcolour,alfa,,,112,18,V,R,
127,1,1,3,1,53,27,417,['n'],0,left,['8'],3,628,[0.08117163],28,53,easy,minus,dotcolour,alfa,,,112,18,V,R,
128,2,2,3,1,44,36,750,['n'],0,left,['2'],5,189,[-0.05197993],75,44,hard,minus,dotcolour,alfa,,,112,18,V,R,
129,3,3,3,1,53,27,651,['c'],1,left,['1'],6,205,[0.02621078],63,53,easy,minus,dotcolour,alfa,,,112,18,V,R,
130,4,4,3,1,27,53,533,['n'],1,right,['1'],6,145,[-0.13439016],96,53,easy,minus,dotcolour,alfa,,,112,18,V,R,
131,5,5,3,1,33,47,567,['n'],1,right,['1'],6,133,[-0.10562815],93,47,medium,minus,dotcolour,alfa,,,112,18,V,R,
132,6,6,3,1,36,44,833,['n'],1,right,['2'],5,240,[-0.11325348],89,44,hard,minus,dotcolour,alfa,,,112,18,V,R,
133,7,7,3,1,27,53,499,['n'],1,right,['2'],5,235,[-0.04462528],70,53,easy,minus,dotcolour,alfa,,,112,18,V,R,
134,8,8,3,1,44,36,717,['n'],0,left,['3'],4,648,[-0.02221015],56,44,hard,minus,dotcolour,alfa,,,112,18,V,R,
135,9,9,3,1,27,53,550,['n'],1,right,['1'],6,153,[-0.07264662],84,53,easy,minus,dotcolour,alfa,,,112,18,V,R,
136,10,10,3,1,27,53,451,['n'],1,right,['1'],6,113,[-0.08737852],91,53,easy,minus,dotcolour,alfa,,,112,18,V,R,
137,11,11,3,1,44,36,634,['c'],1,left,['2'],5,221,[0.06647392],78,44,hard,minus,dotcolour,alfa,,,112,18,V,R,
138,12,12,3,1,53,27,751,['c'],1,left,['2'],5,127,[0.11702364],95,53,easy,minus,dotcolour,alfa,,,112,18,V,R,
139,13,13,3,1,44,36,866,['c'],1,left,['3'],4,161,[0.07380311],84,44,hard,minus,dotcolour,alfa,,,112,18,V,R,
140,14,14,3,1,36,44,533,['c'],0,right,['2'],5,135,[0.06289038],82,44,hard,minus,dotcolour,alfa,,,112,18,V,R,
141,15,15,3,1,36,44,435,['n'],1,right,['2'],5,145,[-0.04727149],75,44,hard,minus,dotcolour,alfa,,,112,18,V,R,
142,16,16,3,1,36,44,367,['n'],1,right,['2'],5,166,[-0.16505493],97,44,hard,minus,dotcolour,alfa,,,112,18,V,R,
143,17,17,3,1,47,33,467,['n'],0,left,['2'],5,245,[-0.00986328],54,47,medium,minus,dotcolour,alfa,,,112,18,V,R,
144,18,18,3,1,47,33,600,['c'],1,left,['2'],5,245,[0.07390395],79,47,medium,minus,dotcolour,alfa,,,112,18,V,R,
145,19,19,3,1,27,53,801,['n'],1,right,['2'],5,117,[-0.14866449],98,53,easy,minus,dotcolour,alfa,,,112,18,V,R,
146,20,20,3,1,44,36,1001,['c'],1,left,['2'],5,154,[0.07369371],84,44,hard,minus,dotcolour,alfa,,,112,18,V,R,
147,21,21,3,1,33,47,583,['n'],1,right,['2'],5,461,[-0.29794679],98,47,medium,minus,dotcolour,alfa,,,112,18,V,R,
148,22,22,3,1,44,36,617,['n'],0,left,['2'],5,124,[-0.06680697],85,44,hard,minus,dotcolour,alfa,,,112,18,V,R,
149,23,23,3,1,47,33,633,['c'],1,left,['2'],5,151,[0.10480422],92,47,medium,minus,dotcolour,alfa,,,112,18,V,R,
150,24,24,3,1,53,27,449,['n'],0,left,['8'],3,616,[0.22458169],7,53,easy,minus,dotcolour,alfa,,,112,18,V,R,
151,25,25,3,1,47,33,917,['c'],1,left,['8'],3,220,[0.0014046],51,47,medium,minus,dotcolour,alfa,,,112,18,V,R,
152,26,26,3,1,44,36,599,['n'],0,left,['3'],4,156,[-0.10088754],91,44,hard,minus,dotcolour,alfa,,,112,18,V,R,
153,27,27,3,1,27,53,551,['n'],1,right,['3'],4,153,[-0.10156963],91,53,easy,minus,dotcolour,alfa,,,112,18,V,R,
154,28,28,3,1,33,47,368,['n'],1,right,['3'],4,317,[0.04513328],33,47,medium,minus,dotcolour,alfa,,,112,18,V,R,
155,29,29,3,1,36,44,301,['n'],1,right,['2'],5,111,[-0.00676303],55,44,hard,minus,dotcolour,alfa,,,112,18,V,R,
156,30,30,3,1,36,44,484,['n'],1,right,['2'],5,95,[-0.06792326],88,44,hard,minus,dotcolour,alfa,,,112,18,V,R,
157,31,31,3,1,53,27,1100,['c'],1,left,['8'],3,138,[0.12711212],96,53,easy,minus,dotcolour,alfa,,,112,18,V,R,
158,32,32,3,1,53,27,499,['c'],1,left,['9'],2,122,[0.08480535],90,53,easy,minus,dotcolour,alfa,,,112,18,V,R,
159,33,33,3,1,47,33,500,['c'],1,left,['9'],2,114,[0.11055168],95,47,medium,minus,dotcolour,alfa,,,112,18,V,R,
160,34,34,3,1,27,53,749,['n'],1,right,['9'],2,89,[-0.11872732],97,53,easy,minus,dotcolour,alfa,,,112,18,V,R,
161,35,35,3,1,36,44,735,['c'],0,right,['9'],2,129,[0.16114499],98,44,hard,minus,dotcolour,alfa,,,112,18,V,R,
162,36,36,3,1,47,33,551,['c'],1,left,['9'],2,120,[0.12810783],97,47,medium,minus,dotcolour,alfa,,,112,18,V,R,
163,37,37,3,1,33,47,484,['n'],1,right,['2'],5,80,[-0.0423786],79,47,medium,minus,dotcolour,alfa,,,112,18,V,R,
164,38,38,3,1,33,47,451,['n'],1,right,['3'],4,141,[-0.11165401],94,47,medium,minus,dotcolour,alfa,,,112,18,V,R,
165,39,39,3,1,47,33,451,['n'],0,left,['2'],5,109,[-0.01381528],59,47,medium,minus,dotcolour,alfa,,,112,18,V,R,
166,40,40,3,1,33,47,634,['c'],0,right,['8'],3,201,[-0.00417291],48,47,medium,minus,dotcolour,alfa,,,112,18,V,R,
167,41,41,3,1,53,27,534,['c'],1,left,['2'],5,205,[0.14550768],95,53,easy,minus,dotcolour,alfa,,,112,18,V,R,
168,42,0,4,1,33,47,849,['n'],1,right,['8'],3,237,[-0.1352819],92,47,medium,minus,dotcolour,alfa,,,112,18,V,R,
169,43,1,4,1,44,36,784,['c'],1,left,['1'],6,580,[0.03459281],60,44,hard,minus,dotcolour,alfa,,,112,18,V,R,
170,44,2,4,1,53,27,582,['c'],1,left,['3'],4,232,[0.08655267],83,53,easy,minus,dotcolour,alfa,,,112,18,V,R,
171,45,3,4,1,27,53,483,['n'],1,right,['2'],5,132,[-0.10553454],93,53,easy,minus,dotcolour,alfa,,,112,18,V,R,
172,46,4,4,1,53,27,535,['c'],1,left,['2'],5,210,[0.11496097],91,53,easy,minus,dotcolour,alfa,,,112,18,V,R,
173,47,5,4,1,36,44,516,['c'],0,right,['2'],5,143,[0.15019719],97,44,hard,minus,dotcolour,alfa,,,112,18,V,R,
174,48,6,4,1,53,27,367,['c'],1,left,['2'],5,107,[0.06548475],86,53,easy,minus,dotcolour,alfa,,,112,18,V,R,
175,49,7,4,1,47,33,418,['c'],1,left,['2'],5,119,[0.03524697],71,47,medium,minus,dotcolour,alfa,,,112,18,V,R,
176,50,8,4,1,36,44,349,['c'],0,right,['1'],6,95,[0.02310155],66,44,hard,minus,dotcolour,alfa,,,112,18,V,R,
177,51,9,4,1,27,53,468,['n'],1,right,['9'],2,385,[-0.14338111],89,53,easy,minus,dotcolour,alfa,,,112,18,V,R,
178,52,10,4,1,27,53,483,['n'],1,right,['2'],5,87,[-0.03570542],75,53,easy,minus,dotcolour,alfa,,,112,18,V,R,
179,53,11,4,1,47,33,616,['c'],1,left,['1'],6,157,[0.03879971],71,47,medium,minus,dotcolour,alfa,,,112,18,V,R,
180,54,12,4,1,33,47,383,['c'],0,right,['2'],5,1152,[-0.07830615],34,47,medium,minus,dotcolour,alfa,,,112,18,V,R,
181,55,13,4,1,36,44,734,['n'],1,right,['2'],5,286,[-0.10429573],85,44,hard,minus,dotcolour,alfa,,,112,18,V,R,
182,56,14,4,1,44,36,483,['n'],0,left,['2'],5,120,[0.00111656],49,44,hard,minus,dotcolour,alfa,,,112,18,V,R,
183,57,15,4,1,53,27,501,['c'],1,left,['2'],5,120,[0.01772567],61,53,easy,minus,dotcolour,alfa,,,112,18,V,R,
184,58,16,4,1,27,53,583,['n'],1,right,['1'],6,126,[-0.13432445],97,53,easy,minus,dotcolour,alfa,,,112,18,V,R,
185,59,17,4,1,47,33,717,['c'],1,left,['1'],6,134,[0.10801737],93,47,medium,minus,dotcolour,alfa,,,112,18,V,R,
186,60,18,4,1,36,44,483,['n'],1,right,['1'],6,118,[-0.17493257],99,44,hard,minus,dotcolour,alfa,,,112,18,V,R,
187,61,19,4,1,33,47,851,['n'],1,right,['1'],6,65,[-0.0525646],86,47,medium,minus,dotcolour,alfa,,,112,18,V,R,
188,62,20,4,1,47,33,550,['n'],0,left,['1'],6,138,[-0.04191596],73,47,medium,minus,dotcolour,alfa,,,112,18,V,R,
189,63,21,4,1,44,36,501,['c'],1,left,['1'],6,154,[0.1719092],98,44,hard,minus,dotcolour,alfa,,,112,18,V,R,
190,64,22,4,1,33,47,866,['n'],1,right,['1'],6,171,[-0.07756421],84,47,medium,minus,dotcolour,alfa,,,112,18,V,R,
191,65,23,4,1,44,36,650,['n'],0,left,['1'],6,131,[-0.05422107],79,44,hard,minus,dotcolour,alfa,,,112,18,V,R,
192,66,24,4,1,53,27,700,['c'],1,left,['1'],6,171,[0.13474197],95,53,easy,minus,dotcolour,alfa,,,112,18,V,R,
193,67,25,4,1,33,47,602,['n'],1,right,['1'],6,382,[-0.21568747],96,47,medium,minus,dotcolour,alfa,,,112,18,V,R,
194,68,26,4,1,27,53,467,['n'],1,right,['1'],6,356,[-0.05942553],71,53,easy,minus,dotcolour,alfa,,,112,18,V,R,
195,69,27,4,1,47,33,467,['n'],0,left,['2'],5,364,[-0.07946555],77,47,medium,minus,dotcolour,alfa,,,112,18,V,R,
196,70,28,4,1,53,27,466,['c'],1,left,['2'],5,133,[0.2104467],99,53,easy,minus,dotcolour,alfa,,,112,18,V,R,
197,71,29,4,1,33,47,501,['c'],0,right,['2'],5,133,[0.09438249],91,47,medium,minus,dotcolour,alfa,,,112,18,V,R,
198,72,30,4,1,36,44,783,['n'],1,right,['2'],5,250,[-0.18428748],97,44,hard,minus,dotcolour,alfa,,,112,18,V,R,
199,73,31,4,1,44,36,466,['c'],1,left,['2'],5,846,[-0.00479162],49,44,hard,minus,dotcolour,alfa,,,112,18,V,R,
200,74,32,4,1,53,27,733,['c'],1,left,['1'],6,384,[0.12053093],85,53,easy,minus,dotcolour,alfa,,,112,18,V,R,
201,75,33,4,1,44,36,583,['c'],1,left,['2'],5,186,[0.07623195],83,44,hard,minus,dotcolour,alfa,,,112,18,V,R,
202,76,34,4,1,47,33,550,['c'],1,left,['1'],6,134,[0.10092648],92,47,medium,minus,dotcolour,alfa,,,112,18,V,R,
203,77,35,4,1,27,53,485,['n'],1,right,['8'],3,231,[-0.22291675],98,53,easy,minus,dotcolour,alfa,,,112,18,V,R,
204,78,36,4,1,44,36,751,['n'],0,left,['2'],5,49,[-0.06036637],92,44,hard,minus,dotcolour,alfa,,,112,18,V,R,
205,79,37,4,1,47,33,616,['c'],1,left,['2'],5,16560,[1.9782283],99,47,medium,minus,dotcolour,alfa,,,112,18,V,R,
206,80,38,4,1,27,53,750,['n'],1,right,['8'],3,1008,[-0.1482201],79,53,easy,minus,dotcolour,alfa,,,112,18,V,R,
207,81,39,4,1,36,44,600,['n'],1,right,['8'],3,137,[-0.08120845],88,44,hard,minus,dotcolour,alfa,,,112,18,V,R,
208,82,40,4,1,36,44,550,['c'],0,right,['2'],5,198,[0.11429622],91,44,hard,minus,dotcolour,alfa,,,112,18,V,R,
209,83,41,4,1,33,47,568,['n'],1,right,['2'],5,186,[-0.0346375],67,47,medium,minus,dotcolour,alfa,,,112,18,V,R,
210,84,0,5,1,36,44,751,['n'],1,right,['8'],3,76,[-0.0709786],91,44,hard,minus,dotcolour,alfa,,,112,18,V,R,
211,85,1,5,1,53,27,551,['c'],1,left,['8'],3,220,[0.18645291],97,53,easy,minus,dotcolour,alfa,,,112,18,V,R,
212,86,2,5,1,27,53,566,['n'],1,right,['2'],5,93,[-0.07129147],89,53,easy,minus,dotcolour,alfa,,,112,18,V,R,
213,87,3,5,1,53,27,666,['c'],1,left,['9'],2,168,[0.11045253],92,53,easy,minus,dotcolour,alfa,,,112,18,V,R,
214,88,4,5,1,36,44,401,['n'],1,right,['2'],5,147,[-0.08920652],89,44,hard,minus,dotcolour,alfa,,,112,18,V,R,
215,89,5,5,1,36,44,484,['n'],1,right,['2'],5,170,[-0.1082301],91,44,hard,minus,dotcolour,alfa,,,112,18,V,R,
216,90,6,5,1,27,53,435,['n'],1,right,['2'],5,92,[-0.10551312],96,53,easy,minus,dotcolour,alfa,,,112,18,V,R,
217,91,7,5,1,27,53,433,['n'],1,right,['2'],5,73,[-0.05151207],85,53,easy,minus,dotcolour,alfa,,,112,18,V,R,
218,92,8,5,1,27,53,416,['n'],1,right,['2'],5,70,[-0.09291086],96,53,easy,minus,dotcolour,alfa,,,112,18,V,R,
219,93,9,5,1,47,33,484,['c'],1,left,['8'],3,106,[0.07283672],88,47,medium,minus,dotcolour,alfa,,,112,18,V,R,
220,94,10,5,1,47,33,332,['c'],1,left,['8'],3,145,[0.11781275],94,47,medium,minus,dotcolour,alfa,,,112,18,V,R,
221,95,11,5,1,44,36,350,['n'],0,left,['2'],5,390,[-0.02265696],58,44,hard,minus,dotcolour,alfa,,,112,18,V,R,
222,96,12,5,1,44,36,350,['n'],0,left,['3'],4,98,[-0.08721786],92,44,hard,minus,dotcolour,alfa,,,112,18,V,R,
223,97,13,5,1,36,44,217,['c'],0,right,['8'],3,55,[0.03515314],79,44,hard,minus,dotcolour,alfa,,,112,18,V,R,
224,98,14,5,1,44,36,318,['n'],0,left,['3'],4,88,[-0.11525001],97,44,hard,minus,dotcolour,alfa,,,112,18,V,R,
225,99,15,5,1,36,44,200,['c'],0,right,['8'],3,71,[0.06550506],90,44,hard,minus,dotcolour,alfa,,,112,18,V,R,
226,100,16,5,1,33,47,449,['c'],0,right,['8'],3,116,[0.03842132],73,47,medium,minus,dotcolour,alfa,,,112,18,V,R,
227,101,17,5,1,27,53,450,['c'],0,right,['8'],3,111,[0.00685125],55,53,easy,minus,dotcolour,alfa,,,112,18,V,R,
228,102,18,5,1,53,27,435,['n'],0,left,['3'],4,130,[-0.00289937],52,53,easy,minus,dotcolour,alfa,,,112,18,V,R,
229,103,19,5,1,33,47,634,['n'],1,right,['2'],5,165,[-0.09694797],90,47,medium,minus,dotcolour,alfa,,,112,18,V,R,
230,104,20,5,1,33,47,449,['n'],1,right,['2'],5,165,[-0.06547056],81,47,medium,minus,dotcolour,alfa,,,112,18,V,R,
231,105,21,5,1,33,47,383,['n'],1,right,['2'],5,113,[-0.12588869],97,47,medium,minus,dotcolour,alfa,,,112,18,V,R,
232,106,22,5,1,53,27,517,['c'],1,left,['2'],5,185,[-0.00573662],47,53,easy,minus,dotcolour,alfa,,,112,18,V,R,
233,107,23,5,1,53,27,434,['n'],0,left,['2'],5,129,[-0.00711091],54,53,easy,minus,dotcolour,alfa,,,112,18,V,R,
234,108,24,5,1,33,47,501,['n'],1,right,['2'],5,113,[-0.07711336],89,47,medium,minus,dotcolour,alfa,,,112,18,V,R,
235,109,25,5,1,33,47,368,['n'],1,right,['2'],5,79,[-0.03342081],74,47,medium,minus,dotcolour,alfa,,,112,18,V,R,
236,110,26,5,1,47,33,451,['c'],1,left,['2'],5,140,[0.06749799],84,47,medium,minus,dotcolour,alfa,,,112,18,V,R,
237,111,27,5,1,44,36,516,['c'],1,left,['1'],6,123,[0.12407865],96,44,hard,minus,dotcolour,alfa,,,112,18,V,R,
238,112,28,5,1,27,53,401,['n'],1,right,['1'],6,86,[-0.09849856],95,53,easy,minus,dotcolour,alfa,,,112,18,V,R,
239,113,29,5,1,27,53,434,['n'],1,right,['1'],6,35,[-0.09741198],99,53,easy,minus,dotcolour,alfa,,,112,18,V,R,
240,114,30,5,1,47,33,350,['n'],0,left,['1'],6,117,[-0.10752308],94,47,medium,minus,dotcolour,alfa,,,112,18,V,R,
241,115,31,5,1,36,44,533,['n'],1,right,['1'],6,76,[-0.09400825],96,44,hard,minus,dotcolour,alfa,,,112,18,V,R,
242,116,32,5,1,44,36,434,['n'],0,left,['1'],6,81,[-0.05418621],85,44,hard,minus,dotcolour,alfa,,,112,18,V,R,
243,117,33,5,1,47,33,417,['c'],1,left,['1'],6,167,[0.05787042],78,47,medium,minus,dotcolour,alfa,,,112,18,V,R,
244,118,34,5,1,44,36,767,['c'],1,left,['2'],5,251,[-0.03181468],36,44,hard,minus,dotcolour,alfa,,,112,18,V,R,
245,119,35,5,1,44,36,750,['c'],1,left,['2'],5,116,[0.10849057],95,44,hard,minus,dotcolour,alfa,,,112,18,V,R,
246,120,36,5,1,53,27,485,['n'],0,left,['2'],5,221,[-0.08072647],82,53,easy,minus,dotcolour,alfa,,,112,18,V,R,
247,121,37,5,1,36,44,449,['c'],0,right,['2'],5,132,[0.0778221],87,44,hard,minus,dotcolour,alfa,,,112,18,V,R,
248,122,38,5,1,53,27,517,['c'],1,left,['2'],5,99,[0.13109985],98,53,easy,minus,dotcolour,alfa,,,112,18,V,R,
249,123,39,5,1,33,47,801,['n'],1,right,['2'],5,128,[-0.10011221],93,47,medium,minus,dotcolour,alfa,,,112,18,V,R,
250,124,40,5,1,47,33,518,['c'],1,left,['2'],5,151,[0.06367806],81,47,medium,minus,dotcolour,alfa,,,112,18,V,R,
251,125,41,5,1,47,33,384,['c'],1,left,['2'],5,115,[0.10006005],93,47,medium,minus,dotcolour,alfa,,,112,18,V,R,
252,0,0,6,2,36,44,851,['n'],1,right,['2'],5,109,[-0.0909679],100,44,hard,plus,dotcolour,alfa,,,112,18,V,R,
253,1,1,6,2,33,47,333,['n'],1,right,['2'],5,133,[-0.06096147],100,47,medium,plus,dotcolour,alfa,,,112,18,V,R,
254,2,2,6,2,53,27,801,['c'],1,left,['2'],5,145,[0.06825621],100,53,easy,plus,dotcolour,alfa,,,112,18,V,R,
255,3,3,6,2,36,44,566,['n'],1,right,['2'],5,109,[-0.09105696],100,44,hard,plus,dotcolour,alfa,,,112,18,V,R,
256,4,4,6,2,36,44,650,['n'],1,right,['1'],6,135,[-0.09433597],100,44,hard,plus,dotcolour,alfa,,,112,18,V,R,
257,5,5,6,2,33,47,334,['n'],1,right,['1'],6,86,[-0.09689671],100,47,medium,plus,dotcolour,alfa,,,112,18,V,R,
258,6,6,6,2,47,33,384,['n'],0,left,['1'],6,189,[-0.05270334],99,47,medium,plus,dotcolour,alfa,,,112,18,V,R,
259,7,7,6,2,44,36,483,['n'],0,left,['1'],6,140,[-0.08889338],100,44,hard,plus,dotcolour,alfa,,,112,18,V,R,
260,8,8,6,2,36,44,533,['c'],0,right,['1'],6,186,[0.10837443],100,44,hard,plus,dotcolour,alfa,,,112,18,V,R,
261,9,9,6,2,47,33,334,['n'],0,left,['2'],5,78,[-0.02815315],97,47,medium,plus,dotcolour,alfa,,,112,18,V,R,
262,10,10,6,2,27,53,467,['n'],1,right,['2'],5,105,[-0.07051171],100,53,easy,plus,dotcolour,alfa,,,112,18,V,R,
263,11,11,6,2,33,47,366,['n'],1,right,['2'],5,80,[-0.13210016],100,47,medium,plus,dotcolour,alfa,,,112,18,V,R,
264,12,12,6,2,44,36,683,['n'],0,left,['2'],5,106,[-0.13626472],100,44,hard,plus,dotcolour,alfa,,,112,18,V,R,
265,13,13,6,2,53,27,501,['c'],1,left,['2'],5,123,[0.06986719],100,53,easy,plus,dotcolour,alfa,,,112,18,V,R,
266,14,14,6,2,47,33,449,['c'],1,left,['2'],5,110,[0.04830686],99,47,medium,plus,dotcolour,alfa,,,112,18,V,R,
267,15,15,6,2,47,33,501,['c'],1,left,['2'],5,118,[0.12422476],100,47,medium,plus,dotcolour,alfa,,,112,18,V,R,
268,16,16,6,2,36,44,500,['c'],0,right,['2'],5,96,[0.04611565],100,44,hard,plus,dotcolour,alfa,,,112,18,V,R,
269,17,17,6,2,44,36,385,['n'],0,left,['2'],5,61,[-0.06805042],100,44,hard,plus,dotcolour,alfa,,,112,18,V,R,
270,18,18,6,2,27,53,465,['n'],1,right,['2'],5,113,[-0.09583406],100,53,easy,plus,dotcolour,alfa,,,112,18,V,R,
271,19,19,6,2,53,27,668,['c'],1,left,['2'],5,107,[0.05821534],100,53,easy,plus,dotcolour,alfa,,,112,18,V,R,
272,20,20,6,2,53,27,366,['n'],0,left,['2'],5,74,[-0.05262294],100,53,easy,plus,dotcolour,alfa,,,112,18,V,R,
273,21,21,6,2,27,53,368,['c'],0,right,['8'],3,817,[-0.13397486],0,53,easy,plus,dotcolour,alfa,,,112,18,V,R,
274,22,22,6,2,47,33,684,['c'],1,left,['2'],5,78,[0.07693064],100,47,medium,plus,dotcolour,alfa,,,112,18,V,R,
275,23,23,6,2,44,36,551,['n'],0,left,['2'],5,102,[-0.08400307],100,44,hard,plus,dotcolour,alfa,,,112,18,V,R,
276,24,24,6,2,44,36,683,['n'],0,left,['2'],5,152,[-0.07545203],100,44,hard,plus,dotcolour,alfa,,,112,18,V,R,
277,25,25,6,2,47,33,516,['n'],0,left,['2'],5,119,[-0.06289719],100,47,medium,plus,dotcolour,alfa,,,112,18,V,R,
278,26,26,6,2,27,53,500,['n'],1,right,['2'],5,128,[-0.11486179],100,53,easy,plus,dotcolour,alfa,,,112,18,V,R,
279,27,27,6,2,33,47,534,['n'],1,right,['2'],5,134,[-0.13823044],100,47,medium,plus,dotcolour,alfa,,,112,18,V,R,
280,28,28,6,2,36,44,600,['n'],1,right,['2'],5,82,[-0.04619259],100,44,hard,plus,dotcolour,alfa,,,112,18,V,R,
281,29,29,6,2,33,47,550,['n'],1,right,['2'],5,154,[-0.10879812],100,47,medium,plus,dotcolour,alfa,,,112,18,V,R,
282,30,30,6,2,53,27,434,['c'],1,left,['1'],6,181,[0.1472225],100,53,easy,plus,dotcolour,alfa,,,112,18,V,R,
283,31,31,6,2,36,44,551,['c'],0,right,['1'],6,153,[0.03378831],96,44,hard,plus,dotcolour,alfa,,,112,18,V,R,
284,32,32,6,2,33,47,484,['n'],1,right,['1'],6,113,[-0.08190783],100,47,medium,plus,dotcolour,alfa,,,112,18,V,R,
285,33,33,6,2,27,53,451,['n'],1,right,['1'],6,107,[-0.06358703],100,53,easy,plus,dotcolour,alfa,,,112,18,V,R,
286,34,34,6,2,53,27,434,['n'],0,left,['1'],6,126,[-0.07176929],100,53,easy,plus,dotcolour,alfa,,,112,18,V,R,
287,35,35,6,2,27,53,449,['n'],1,right,['1'],6,144,[-0.1314883],100,53,easy,plus,dotcolour,alfa,,,112,18,V,R,
288,36,36,6,2,44,36,400,['n'],0,left,['1'],6,164,[-0.03124508],94,44,hard,plus,dotcolour,alfa,,,112,18,V,R,
289,37,37,6,2,47,33,651,['c'],1,left,['1'],6,148,[0.14907645],100,47,medium,plus,dotcolour,alfa,,,112,18,V,R,
290,38,38,6,2,53,27,468,['c'],1,left,['1'],6,165,[0.14193002],100,53,easy,plus,dotcolour,alfa,,,112,18,V,R,
291,39,39,6,2,44,36,417,['c'],1,left,['1'],6,120,[0.0364798],98,44,hard,plus,dotcolour,alfa,,,112,18,V,R,
292,40,40,6,2,33,47,618,['n'],1,right,['1'],6,100,[-0.08554213],100,47,medium,plus,dotcolour,alfa,,,112,18,V,R,
293,41,41,6,2,27,53,516,['n'],1,right,['1'],6,116,[-0.104817],100,53,easy,plus,dotcolour,alfa,,,112,18,V,R,
294,42,0,7,2,44,36,818,['c'],1,left,['2'],5,191,[0.12750555],100,44,hard,plus,dotcolour,alfa,,,112,18,V,R,
295,43,1,7,2,36,44,533,['c'],0,right,['2'],5,123,[0.1039695],100,44,hard,plus,dotcolour,alfa,,,112,18,V,R,
296,44,2,7,2,27,53,451,['n'],1,right,['2'],5,141,[-0.08236714],100,53,easy,plus,dotcolour,alfa,,,112,18,V,R,
297,45,3,7,2,27,53,335,['n'],1,right,['2'],5,91,[-0.10288644],100,53,easy,plus,dotcolour,alfa,,,112,18,V,R,
298,46,4,7,2,44,36,666,['c'],1,left,['1'],6,287,[-0.08332497],0,44,hard,plus,dotcolour,alfa,,,112,18,V,R,
299,47,5,7,2,47,33,584,['c'],1,left,['1'],6,172,[0.10946629],100,47,medium,plus,dotcolour,alfa,,,112,18,V,R,
300,48,6,7,2,36,44,383,['c'],0,right,['1'],6,104,[0.0658861],100,44,hard,plus,dotcolour,alfa,,,112,18,V,R,
301,49,7,7,2,53,27,399,['n'],0,left,['1'],6,85,[-0.05716366],100,53,easy,plus,dotcolour,alfa,,,112,18,V,R,
302,50,8,7,2,33,47,318,['c'],0,right,['9'],2,862,[-0.18229931],0,47,medium,plus,dotcolour,alfa,,,112,18,V,R,
303,51,9,7,2,33,47,616,['n'],1,right,['1'],6,76,[-0.10202492],100,47,medium,plus,dotcolour,alfa,,,112,18,V,R,
304,52,10,7,2,33,47,617,['n'],1,right,['9'],2,122,[-0.13583538],100,47,medium,plus,dotcolour,alfa,,,112,18,V,R,
305,53,11,7,2,33,47,484,['n'],1,right,['1'],6,115,[-0.0805712],100,47,medium,plus,dotcolour,alfa,,,112,18,V,R,
306,54,12,7,2,53,27,250,['n'],0,left,['9'],2,246,[-0.022386],84,53,easy,plus,dotcolour,alfa,,,112,18,V,R,
307,55,13,7,2,36,44,450,['n'],1,right,['2'],5,138,[-0.05856385],100,44,hard,plus,dotcolour,alfa,,,112,18,V,R,
308,56,14,7,2,47,33,617,['c'],1,left,['2'],5,150,[0.0954817],100,47,medium,plus,dotcolour,alfa,,,112,18,V,R,
309,57,15,7,2,44,36,501,['n'],0,left,['2'],5,77,[-0.02310997],95,44,hard,plus,dotcolour,alfa,,,112,18,V,R,
310,58,16,7,2,44,36,299,['n'],0,left,['2'],5,56,[-0.03867471],100,44,hard,plus,dotcolour,alfa,,,112,18,V,R,
311,59,17,7,2,27,53,383,['n'],1,right,['2'],5,96,[-0.04758383],100,53,easy,plus,dotcolour,alfa,,,112,18,V,R,
312,60,18,7,2,53,27,417,['c'],1,left,['2'],5,141,[0.00756628],67,53,easy,plus,dotcolour,alfa,,,112,18,V,R,
313,61,19,7,2,27,53,500,['n'],1,right,['1'],6,132,[-0.14994496],100,53,easy,plus,dotcolour,alfa,,,112,18,V,R,
314,62,20,7,2,36,44,250,['n'],1,right,['1'],6,37,[-0.06300138],100,44,hard,plus,dotcolour,alfa,,,112,18,V,R,
315,63,21,7,2,47,33,266,['c'],1,left,['2'],5,115,[0.12282618],100,47,medium,plus,dotcolour,alfa,,,112,18,V,R,
316,64,22,7,2,53,27,350,['c'],1,left,['2'],5,33,[0.07690381],100,53,easy,plus,dotcolour,alfa,,,112,18,V,R,
317,65,23,7,2,47,33,550,['c'],1,left,['1'],6,43,[0.07537749],100,47,medium,plus,dotcolour,alfa,,,112,18,V,R,
318,66,24,7,2,33,47,434,['n'],1,right,['1'],6,473,[-0.13997555],100,47,medium,plus,dotcolour,alfa,,,112,18,V,R,
319,67,25,7,2,27,53,417,['n'],1,right,['1'],6,71,[-0.08296909],100,53,easy,plus,dotcolour,alfa,,,112,18,V,R,
320,68,26,7,2,53,27,466,['n'],0,left,['1'],6,203,[-0.04497668],97,53,easy,plus,dotcolour,alfa,,,112,18,V,R,
321,69,27,7,2,47,33,467,['c'],1,left,['1'],6,161,[0.09429239],100,47,medium,plus,dotcolour,alfa,,,112,18,V,R,
322,70,28,7,2,33,47,432,['n'],1,right,['1'],6,107,[-0.10722635],100,47,medium,plus,dotcolour,alfa,,,112,18,V,R,
323,71,29,7,2,44,36,333,['c'],1,left,['1'],6,98,[0.07869562],100,44,hard,plus,dotcolour,alfa,,,112,18,V,R,
324,72,30,7,2,36,44,302,['n'],1,right,['1'],6,83,[-0.11502431],100,44,hard,plus,dotcolour,alfa,,,112,18,V,R,
325,73,31,7,2,36,44,433,['n'],1,right,['1'],6,89,[-0.07630707],100,44,hard,plus,dotcolour,alfa,,,112,18,V,R,
326,74,32,7,2,53,27,518,['c'],1,left,['1'],6,42,[0.03842236],100,53,easy,plus,dotcolour,alfa,,,112,18,V,R,
327,75,33,7,2,53,27,517,['c'],1,left,['1'],6,76,[0.08956997],100,53,easy,plus,dotcolour,alfa,,,112,18,V,R,
328,76,34,7,2,27,53,533,['n'],1,right,['1'],6,54,[-0.10897347],100,53,easy,plus,dotcolour,alfa,,,112,18,V,R,
329,77,35,7,2,27,53,634,['n'],1,right,['1'],6,51,[-0.10504812],100,53,easy,plus,dotcolour,alfa,,,112,18,V,R,
330,78,36,7,2,44,36,450,['n'],0,left,['1'],6,81,[-0.08079278],100,44,hard,plus,dotcolour,alfa,,,112,18,V,R,
331,79,37,7,2,47,33,433,['n'],0,left,['3'],4,117,[-0.12694666],100,47,medium,plus,dotcolour,alfa,,,112,18,V,R,
332,80,38,7,2,36,44,550,['n'],1,right,['2'],5,107,[-0.06384555],100,44,hard,plus,dotcolour,alfa,,,112,18,V,R,
333,81,39,7,2,47,33,434,['c'],1,left,['2'],5,103,[0.06799469],100,47,medium,plus,dotcolour,alfa,,,112,18,V,R,
334,82,40,7,2,33,47,500,['n'],1,right,['2'],5,96,[-0.09911978],100,47,medium,plus,dotcolour,alfa,,,112,18,V,R,
335,83,41,7,2,44,36,616,['n'],0,left,['2'],5,101,[-0.09254206],100,44,hard,plus,dotcolour,alfa,,,112,18,V,R,
336,84,0,8,2,27,53,802,['n'],1,right,['9'],2,151,[-0.05758776],100,53,easy,plus,dotcolour,alfa,,,112,18,V,R,
337,85,1,8,2,47,33,632,['n'],0,left,['8'],3,258,[-0.02989683],89,47,medium,plus,dotcolour,alfa,,,112,18,V,R,
338,86,2,8,2,47,33,900,['c'],1,left,['2'],5,115,[0.06496138],100,47,medium,plus,dotcolour,alfa,,,112,18,V,R,
339,87,3,8,2,36,44,667,['n'],1,right,['2'],5,317,[-0.21380272],100,44,hard,plus,dotcolour,alfa,,,112,18,V,R,
340,88,4,8,2,36,44,351,['c'],0,right,['2'],5,141,[0.08058618],100,44,hard,plus,dotcolour,alfa,,,112,18,V,R,
341,89,5,8,2,53,27,435,['c'],1,left,['1'],6,199,[0.06586441],100,53,easy,plus,dotcolour,alfa,,,112,18,V,R,
342,90,6,8,2,36,44,418,['n'],1,right,['2'],5,383,[-0.08675619],99,44,hard,plus,dotcolour,alfa,,,112,18,V,R,
343,91,7,8,2,47,33,484,['c'],1,left,['1'],6,149,[0.03373067],96,47,medium,plus,dotcolour,alfa,,,112,18,V,R,
344,92,8,8,2,27,53,534,['n'],1,right,['2'],5,123,[-0.06201522],100,53,easy,plus,dotcolour,alfa,,,112,18,V,R,
345,93,9,8,2,47,33,616,['c'],1,left,['2'],5,191,[0.07476775],100,47,medium,plus,dotcolour,alfa,,,112,18,V,R,
346,94,10,8,2,53,27,418,['n'],0,left,['2'],5,160,[-0.01983973],86,53,easy,plus,dotcolour,alfa,,,112,18,V,R,
347,95,11,8,2,33,47,317,['n'],1,right,['1'],6,206,[-0.09628262],100,47,medium,plus,dotcolour,alfa,,,112,18,V,R,
348,96,12,8,2,27,53,365,['n'],1,right,['1'],6,73,[-0.04171474],100,53,easy,plus,dotcolour,alfa,,,112,18,V,R,
349,97,13,8,2,33,47,250,['n'],1,right,['1'],6,77,[-0.06444112],100,47,medium,plus,dotcolour,alfa,,,112,18,V,R,
350,98,14,8,2,36,44,334,['n'],1,right,['2'],5,94,[-0.06528065],100,44,hard,plus,dotcolour,alfa,,,112,18,V,R,
351,99,15,8,2,36,44,233,['n'],1,right,['2'],5,105,[-0.09963761],100,44,hard,plus,dotcolour,alfa,,,112,18,V,R,
352,100,16,8,2,33,47,248,['n'],1,right,['2'],5,108,[-0.08758789],100,47,medium,plus,dotcolour,alfa,,,112,18,V,R,
353,101,17,8,2,47,33,164,['n'],0,left,['2'],5,82,[-0.07657018],100,47,medium,plus,dotcolour,alfa,,,112,18,V,R,
354,102,18,8,2,27,53,501,['n'],1,right,['9'],2,292,[-0.14771221],100,53,easy,plus,dotcolour,alfa,,,112,18,V,R,
355,103,19,8,2,47,33,251,['n'],0,left,['2'],5,71,[-0.09798555],100,47,medium,plus,dotcolour,alfa,,,112,18,V,R,
356,104,20,8,2,27,53,301,['n'],1,right,['2'],5,73,[-0.06839949],100,53,easy,plus,dotcolour,alfa,,,112,18,V,R,
357,105,21,8,2,44,36,266,['n'],0,left,['1'],6,92,[-0.04208525],99,44,hard,plus,dotcolour,alfa,,,112,18,V,R,
358,106,22,8,2,44,36,401,['c'],1,left,['1'],6,105,[0.09593711],100,44,hard,plus,dotcolour,alfa,,,112,18,V,R,
359,107,23,8,2,44,36,333,['c'],1,left,['2'],5,130,[0.05763628],100,44,hard,plus,dotcolour,alfa,,,112,18,V,R,
360,108,24,8,2,44,36,250,['n'],0,left,['8'],3,940,[0.00207578],48,44,hard,plus,dotcolour,alfa,,,112,18,V,R,
361,109,25,8,2,36,44,633,['n'],1,right,['2'],5,141,[-0.03327101],96,44,hard,plus,dotcolour,alfa,,,112,18,V,R,
362,110,26,8,2,33,47,517,['n'],1,right,['2'],5,125,[-0.0615249],100,47,medium,plus,dotcolour,alfa,,,112,18,V,R,
363,111,27,8,2,44,36,384,['n'],0,left,['1'],6,113,[-0.06082596],100,44,hard,plus,dotcolour,alfa,,,112,18,V,R,
364,112,28,8,2,44,36,250,['n'],0,left,['1'],6,140,[-0.14259492],100,44,hard,plus,dotcolour,alfa,,,112,18,V,R,
365,113,29,8,2,33,47,250,['n'],1,right,['1'],6,125,[-0.10848185],100,47,medium,plus,dotcolour,alfa,,,112,18,V,R,
366,114,30,8,2,53,27,366,['n'],0,left,['1'],6,123,[-0.12534239],100,53,easy,plus,dotcolour,alfa,,,112,18,V,R,
367,115,31,8,2,27,53,334,['n'],1,right,['1'],6,185,[-0.09097148],100,53,easy,plus,dotcolour,alfa,,,112,18,V,R,
368,116,32,8,2,27,53,434,['n'],1,right,['1'],6,98,[-0.05764076],100,53,easy,plus,dotcolour,alfa,,,112,18,V,R,
369,117,33,8,2,53,27,717,['c'],1,left,['2'],5,156,[0.13465771],100,53,easy,plus,dotcolour,alfa,,,112,18,V,R,
370,118,34,8,2,53,27,500,['c'],1,left,['2'],5,115,[0.07759853],100,53,easy,plus,dotcolour,alfa,,,112,18,V,R,
371,119,35,8,2,53,27,501,['c'],1,left,['1'],6,99,[0.12647895],100,53,easy,plus,dotcolour,alfa,,,112,18,V,R,
372,120,36,8,2,36,44,418,['c'],0,right,['2'],5,143,[0.04790855],99,44,hard,plus,dotcolour,alfa,,,112,18,V,R,
373,121,37,8,2,33,47,365,['c'],0,right,['3'],4,125,[0.04495418],99,47,medium,plus,dotcolour,alfa,,,112,18,V,R,
374,122,38,8,2,53,27,384,['n'],0,left,['2'],5,169,[-0.04894192],99,53,easy,plus,dotcolour,alfa,,,112,18,V,R,
375,123,39,8,2,44,36,567,['c'],1,left,['2'],5,158,[0.09454538],100,44,hard,plus,dotcolour,alfa,,,112,18,V,R,
376,124,40,8,2,33,47,633,['n'],1,right,['2'],5,95,[-0.08703333],100,47,medium,plus,dotcolour,alfa,,,112,18,V,R,
377,125,41,8,2,47,33,916,['c'],1,left,['3'],4,96,[0.10182477],100,47,medium,plus,dotcolour,alfa,,,112,18,V,R,
378,0,0,9,3,47,33,717,['c'],1,left,['8'],3,140,[0.08240274],88,47,medium,minus,dotcolour,alfa,,,112,18,V,R,
379,1,1,9,3,33,47,468,['c'],0,right,['2'],5,133,[0.05755054],81,47,medium,minus,dotcolour,alfa,,,112,18,V,R,
380,2,2,9,3,44,36,299,['n'],0,left,['2'],5,126,[-0.05321139],79,44,hard,minus,dotcolour,alfa,,,112,18,V,R,
381,3,3,9,3,47,33,384,['n'],0,left,['2'],5,146,[-0.00608551],54,47,medium,minus,dotcolour,alfa,,,112,18,V,R,
382,4,4,9,3,27,53,300,['n'],1,right,['1'],6,122,[-0.18379719],99,53,easy,minus,dotcolour,alfa,,,112,18,V,R,
383,5,5,9,3,44,36,367,['n'],0,left,['8'],3,343,[-0.05381339],70,44,hard,minus,dotcolour,alfa,,,112,18,V,R,
384,6,6,9,3,53,27,233,['n'],0,left,['2'],5,113,[-0.10920495],95,53,easy,minus,dotcolour,alfa,,,112,18,V,R,
385,7,7,9,3,36,44,416,['c'],0,right,['8'],3,1549,[0.05724138],60,44,hard,minus,dotcolour,alfa,,,112,18,V,R,
386,8,8,9,3,33,47,466,['n'],1,right,['2'],5,110,[-0.06893441],87,47,medium,minus,dotcolour,alfa,,,112,18,V,R,
387,9,9,9,3,33,47,351,['n'],1,right,['2'],5,132,[-0.04632887],76,47,medium,minus,dotcolour,alfa,,,112,18,V,R,
388,10,10,9,3,53,27,349,['n'],0,left,['1'],6,90,[-0.03173627],72,53,easy,minus,dotcolour,alfa,,,112,18,V,R,
389,11,11,9,3,44,36,449,['c'],1,left,['8'],3,94,[0.11114482],96,44,hard,minus,dotcolour,alfa,,,112,18,V,R,
390,12,12,9,3,44,36,433,['c'],1,left,['8'],3,82,[0.0698198],90,44,hard,minus,dotcolour,alfa,,,112,18,V,R,
391,13,13,9,3,33,47,249,['c'],0,right,['8'],3,110,[0.02679101],67,47,medium,minus,dotcolour,alfa,,,112,18,V,R,
392,14,14,9,3,33,47,300,['n'],1,right,['2'],5,103,[-0.0769931],90,47,medium,minus,dotcolour,alfa,,,112,18,V,R,
393,15,15,9,3,53,27,533,['n'],0,left,['8'],3,879,[0.09062628],30,53,easy,minus,dotcolour,alfa,,,112,18,V,R,
394,16,16,9,3,44,36,317,['n'],0,left,['2'],5,80,[-0.06706713],89,44,hard,minus,dotcolour,alfa,,,112,18,V,R,
395,17,17,9,3,33,47,650,['n'],1,right,['2'],5,156,[-0.1514259],97,47,medium,minus,dotcolour,alfa,,,112,18,V,R,
396,18,18,9,3,27,53,483,['n'],1,right,['2'],5,116,[-0.10419423],94,53,easy,minus,dotcolour,alfa,,,112,18,V,R,
397,19,19,9,3,36,44,349,['c'],0,right,['2'],5,106,[0.03126161],70,44,hard,minus,dotcolour,alfa,,,112,18,V,R,
398,20,20,9,3,36,44,433,['n'],1,right,['1'],6,183,[-0.05295665],75,44,hard,minus,dotcolour,alfa,,,112,18,V,R,
399,21,21,9,3,27,53,384,['n'],1,right,['2'],5,80,[-0.05146695],84,53,easy,minus,dotcolour,alfa,,,112,18,V,R,
400,22,22,9,3,27,53,299,['n'],1,right,['2'],5,123,[-0.05143043],79,53,easy,minus,dotcolour,alfa,,,112,18,V,R,
401,23,23,9,3,36,44,250,['n'],1,right,['2'],5,78,[-0.11206165],97,44,hard,minus,dotcolour,alfa,,,112,18,V,R,
402,24,24,9,3,33,47,300,['n'],1,right,['2'],5,63,[-0.03367082],77,47,medium,minus,dotcolour,alfa,,,112,18,V,R,
403,25,25,9,3,47,33,216,['n'],0,left,['2'],5,86,[-0.11612291],97,47,medium,minus,dotcolour,alfa,,,112,18,V,R,
404,26,26,9,3,27,53,124,['c'],0,right,['2'],5,956,[-0.21444749],12,53,easy,minus,dotcolour,alfa,,,112,18,V,R,
405,27,27,9,3,36,44,333,['n'],1,right,['2'],5,105,[-0.1230767],97,44,hard,minus,dotcolour,alfa,,,112,18,V,R,
406,28,28,9,3,53,27,650,['c'],1,left,['2'],5,116,[0.11346303],95,53,easy,minus,dotcolour,alfa,,,112,18,V,R,
407,29,29,9,3,44,36,551,['n'],0,left,['1'],6,130,[-0.10158004],93,44,hard,minus,dotcolour,alfa,,,112,18,V,R,
408,30,30,9,3,36,44,400,['n'],1,right,['1'],6,94,[-0.05163457],82,44,hard,minus,dotcolour,alfa,,,112,18,V,R,
409,31,31,9,3,27,53,317,['n'],1,right,['1'],6,87,[-0.09794708],95,53,easy,minus,dotcolour,alfa,,,112,18,V,R,
410,32,32,9,3,44,36,566,['c'],1,left,['1'],6,103,[0.12893944],97,44,hard,minus,dotcolour,alfa,,,112,18,V,R,
411,33,33,9,3,53,27,451,['c'],1,left,['1'],6,138,[0.17424129],99,53,easy,minus,dotcolour,alfa,,,112,18,V,R,
412,34,34,9,3,47,33,366,['c'],1,left,['1'],6,127,[0.01765651],61,47,medium,minus,dotcolour,alfa,,,112,18,V,R,
413,35,35,9,3,53,27,299,['n'],0,left,['1'],6,72,[-0.12321915],98,53,easy,minus,dotcolour,alfa,,,112,18,V,R,
414,36,36,9,3,47,33,384,['n'],0,left,['1'],6,79,[-0.11795297],98,47,medium,minus,dotcolour,alfa,,,112,18,V,R,
415,37,37,9,3,47,33,299,['n'],0,left,['1'],6,81,[-0.07281914],91,47,medium,minus,dotcolour,alfa,,,112,18,V,R,
416,38,38,9,3,27,53,284,['n'],1,right,['1'],6,67,[-0.09364341],96,53,easy,minus,dotcolour,alfa,,,112,18,V,R,
417,39,39,9,3,47,33,268,['n'],0,left,['1'],6,56,[-0.09569652],97,47,medium,minus,dotcolour,alfa,,,112,18,V,R,
418,40,40,9,3,53,27,417,['c'],1,left,['1'],6,86,[0.08120264],92,53,easy,minus,dotcolour,alfa,,,112,18,V,R,
419,41,41,9,3,36,44,317,['c'],0,right,['2'],5,128,[0.13143171],96,44,hard,minus,dotcolour,alfa,,,112,18,V,R,
420,42,0,10,3,44,36,701,['c'],1,left,['2'],5,217,[0.11388365],90,44,hard,minus,dotcolour,alfa,,,112,18,V,R,
421,43,1,10,3,47,33,550,['n'],0,left,['2'],5,283,[0.02098808],41,47,medium,minus,dotcolour,alfa,,,112,18,V,R,
422,44,2,10,3,33,47,450,['n'],1,right,['3'],4,111,[-0.08658614],91,47,medium,minus,dotcolour,alfa,,,112,18,V,R,
423,45,3,10,3,33,47,233,['c'],0,right,['2'],5,82,[0.04881655],82,47,medium,minus,dotcolour,alfa,,,112,18,V,R,
424,46,4,10,3,33,47,138,['n'],1,right,['3'],4,40,[-0.04250316],87,47,medium,minus,dotcolour,alfa,,,112,18,V,R,
425,47,5,10,3,47,33,216,['c'],1,left,['2'],5,96,[0.10231453],95,47,medium,minus,dotcolour,alfa,,,112,18,V,R,
426,48,6,10,3,53,27,251,['n'],0,left,['3'],4,115,[-0.05775808],82,53,easy,minus,dotcolour,alfa,,,112,18,V,R,
427,49,7,10,3,27,53,300,['c'],0,right,['3'],4,107,[0.03349609],72,53,easy,minus,dotcolour,alfa,,,112,18,V,R,
428,50,8,10,3,47,33,299,['n'],0,left,['2'],5,213,[-0.16694306],96,47,medium,minus,dotcolour,alfa,,,112,18,V,R,
429,51,9,10,3,27,53,249,['n'],1,right,['2'],5,107,[-0.07423264],89,53,easy,minus,dotcolour,alfa,,,112,18,V,R,
430,52,10,10,3,53,27,283,['n'],0,left,['2'],5,101,[-0.08781786],92,53,easy,minus,dotcolour,alfa,,,112,18,V,R,
431,53,11,10,3,33,47,233,['c'],0,right,['8'],3,105,[0.05750569],83,47,medium,minus,dotcolour,alfa,,,112,18,V,R,
432,54,12,10,3,36,44,299,['n'],1,right,['2'],5,74,[-0.07980951],93,44,hard,minus,dotcolour,alfa,,,112,18,V,R,
433,55,13,10,3,36,44,233,['c'],0,right,['8'],3,79,[0.05307934],85,44,hard,minus,dotcolour,alfa,,,112,18,V,R,
434,56,14,10,3,36,44,251,['n'],1,right,['2'],5,99,[-0.07864555],90,44,hard,minus,dotcolour,alfa,,,112,18,V,R,
435,57,15,10,3,53,27,334,['c'],1,left,['8'],3,83,[0.06357087],88,53,easy,minus,dotcolour,alfa,,,112,18,V,R,
436,58,16,10,3,27,53,284,['c'],0,right,['8'],3,77,[0.09026705],95,53,easy,minus,dotcolour,alfa,,,112,18,V,R,
437,59,17,10,3,27,53,284,['n'],1,right,['2'],5,80,[-0.12185928],98,53,easy,minus,dotcolour,alfa,,,112,18,V,R,
438,60,18,10,3,44,36,266,['n'],0,left,['2'],5,108,[-0.10367244],94,44,hard,minus,dotcolour,alfa,,,112,18,V,R,
439,61,19,10,3,47,33,192,['n'],0,left,['2'],5,65,[-0.07316597],93,47,medium,minus,dotcolour,alfa,,,112,18,V,R,
440,62,20,10,3,44,36,267,['c'],1,left,['8'],3,124,[0.13462066],97,44,hard,minus,dotcolour,alfa,,,112,18,V,R,
441,63,21,10,3,47,33,384,['c'],1,left,['8'],3,97,[0.03451858],73,47,medium,minus,dotcolour,alfa,,,112,18,V,R,
442,64,22,10,3,53,27,300,['c'],1,left,['8'],3,90,[0.07194049],90,53,easy,minus,dotcolour,alfa,,,112,18,V,R,
443,65,23,10,3,44,36,81,['c'],1,left,['8'],3,16,[0.07288256],99,44,hard,minus,dotcolour,alfa,,,112,18,V,R,
444,66,24,10,3,44,36,250,['n'],0,left,['2'],5,46,[-0.09873332],98,44,hard,minus,dotcolour,alfa,,,112,18,V,R,
445,67,25,10,3,33,47,151,['n'],1,right,['2'],5,13,[-0.07090271],100,47,medium,minus,dotcolour,alfa,,,112,18,V,R,
446,68,26,10,3,36,44,316,['n'],1,right,['8'],3,626,[-0.11572559],79,44,hard,minus,dotcolour,alfa,,,112,18,V,R,
447,69,27,10,3,27,53,600,['n'],1,right,['2'],5,130,[-0.08792862],90,53,easy,minus,dotcolour,alfa,,,112,18,V,R,
448,70,28,10,3,27,53,250,['n'],1,right,['2'],5,100,[-0.10704955],95,53,easy,minus,dotcolour,alfa,,,112,18,V,R,
449,71,29,10,3,53,27,335,['n'],0,left,['2'],5,107,[-0.01000135],57,53,easy,minus,dotcolour,alfa,,,112,18,V,R,
450,72,30,10,3,53,27,317,['c'],1,left,['8'],3,60,[0.12820946],99,53,easy,minus,dotcolour,alfa,,,112,18,V,R,
451,73,31,10,3,44,36,284,['c'],1,left,['9'],2,143,[0.04296286],74,44,hard,minus,dotcolour,alfa,,,112,18,V,R,
452,74,32,10,3,53,27,265,['n'],0,left,['1'],6,120,[-0.06299841],84,53,easy,minus,dotcolour,alfa,,,112,18,V,R,
453,75,33,10,3,44,36,267,['c'],1,left,['8'],3,97,[0.09242514],94,44,hard,minus,dotcolour,alfa,,,112,18,V,R,
454,76,34,10,3,27,53,368,['n'],1,right,['1'],6,88,[-0.09312437],94,53,easy,minus,dotcolour,alfa,,,112,18,V,R,
455,77,35,10,3,36,44,384,['n'],1,right,['9'],2,375,[-0.0805232],77,44,hard,minus,dotcolour,alfa,,,112,18,V,R,
456,78,36,10,3,36,44,162,['n'],1,right,['1'],6,50,[-0.06804731],94,44,hard,minus,dotcolour,alfa,,,112,18,V,R,
457,79,37,10,3,47,33,250,['n'],0,left,['9'],2,111,[-0.07352849],88,47,medium,minus,dotcolour,alfa,,,112,18,V,R,
458,80,38,10,3,47,33,284,['n'],0,left,['1'],6,72,[-0.06468708],90,47,medium,minus,dotcolour,alfa,,,112,18,V,R,
459,81,39,10,3,36,44,267,['c'],0,right,['8'],3,68,[0.07564992],93,44,hard,minus,dotcolour,alfa,,,112,18,V,R,
460,82,40,10,3,33,47,316,['c'],0,right,['8'],3,102,[0.01530395],61,47,medium,minus,dotcolour,alfa,,,112,18,V,R,
461,83,41,10,3,33,47,583,['n'],1,right,['2'],5,52,[-0.0727666],95,47,medium,minus,dotcolour,alfa,,,112,18,V,R,
462,84,0,11,3,33,47,584,['n'],1,right,['9'],2,164,[-0.11229833],92,47,medium,minus,dotcolour,alfa,,,112,18,V,R,
463,85,1,11,3,36,44,366,['n'],1,right,['2'],5,88,[-0.05645122],85,44,hard,minus,dotcolour,alfa,,,112,18,V,R,
464,86,2,11,3,53,27,399,['n'],0,left,['1'],6,159,[-0.00177881],51,53,easy,minus,dotcolour,alfa,,,112,18,V,R,
465,87,3,11,3,27,53,402,['c'],0,right,['1'],6,121,[0.0084082],55,53,easy,minus,dotcolour,alfa,,,112,18,V,R,
466,88,4,11,3,33,47,549,['n'],1,right,['1'],6,88,[-0.07353641],90,47,medium,minus,dotcolour,alfa,,,112,18,V,R,
467,89,5,11,3,33,47,533,['n'],1,right,['2'],5,112,[-0.08356601],90,47,medium,minus,dotcolour,alfa,,,112,18,V,R,
468,90,6,11,3,44,36,600,['c'],1,left,['2'],5,109,[0.07788149],89,44,hard,minus,dotcolour,alfa,,,112,18,V,R,
469,91,7,11,3,27,53,450,['n'],1,right,['3'],4,232,[-0.08680302],84,53,easy,minus,dotcolour,alfa,,,112,18,V,R,
470,92,8,11,3,36,44,451,['c'],0,right,['2'],5,141,[0.0662369],83,44,hard,minus,dotcolour,alfa,,,112,18,V,R,
471,93,9,11,3,53,27,867,['c'],1,left,['3'],4,191,[0.02447827],62,53,easy,minus,dotcolour,alfa,,,112,18,V,R,
472,94,10,11,3,33,47,317,['c'],0,right,['1'],6,100,[0.04718784],79,47,medium,minus,dotcolour,alfa,,,112,18,V,R,
473,95,11,11,3,44,36,233,['n'],0,left,['1'],6,127,[-0.07636872],87,44,hard,minus,dotcolour,alfa,,,112,18,V,R,
474,96,12,11,3,36,44,334,['n'],1,right,['1'],6,141,[-0.10482335],93,44,hard,minus,dotcolour,alfa,,,112,18,V,R,
475,97,13,11,3,53,27,300,['n'],0,left,['1'],6,77,[-0.05346805],85,53,easy,minus,dotcolour,alfa,,,112,18,V,R,
476,98,14,11,3,53,27,716,['c'],1,left,['2'],5,151,[0.11109164],93,53,easy,minus,dotcolour,alfa,,,112,18,V,R,
477,99,15,11,3,47,33,468,['c'],1,left,['2'],5,191,[0.06143947],78,47,medium,minus,dotcolour,alfa,,,112,18,V,R,
478,100,16,11,3,47,33,567,['c'],1,left,['1'],6,193,[0.12475971],93,47,medium,minus,dotcolour,alfa,,,112,18,V,R,
479,101,17,11,3,47,33,416,['c'],1,left,['1'],6,122,[0.05957667],82,47,medium,minus,dotcolour,alfa,,,112,18,V,R,
480,102,18,11,3,47,33,400,['c'],1,left,['1'],6,119,[0.00862302],56,47,medium,minus,dotcolour,alfa,,,112,18,V,R,
481,103,19,11,3,27,53,534,['n'],1,right,['1'],6,206,[-0.09267668],86,53,easy,minus,dotcolour,alfa,,,112,18,V,R,
482,104,20,11,3,44,36,451,['n'],0,left,['1'],6,101,[-0.05021372],81,44,hard,minus,dotcolour,alfa,,,112,18,V,R,
483,105,21,11,3,53,27,350,['n'],0,left,['2'],5,188,[-0.02459855],62,53,easy,minus,dotcolour,alfa,,,112,18,V,R,
484,106,22,11,3,27,53,482,['c'],0,right,['8'],3,652,[-0.06330413],33,53,easy,minus,dotcolour,alfa,,,112,18,V,R,
485,107,23,11,3,33,47,451,['n'],1,right,['2'],5,304,[-0.14675595],92,47,medium,minus,dotcolour,alfa,,,112,18,V,R,
486,108,24,11,3,27,53,349,['n'],1,right,['2'],5,55,[-0.08788324],97,53,easy,minus,dotcolour,alfa,,,112,18,V,R,
487,109,25,11,3,33,47,233,['n'],1,right,['2'],5,110,[-0.06721571],86,47,medium,minus,dotcolour,alfa,,,112,18,V,R,
488,110,26,11,3,47,33,333,['n'],0,left,['2'],5,102,[-0.06211049],85,47,medium,minus,dotcolour,alfa,,,112,18,V,R,
489,111,27,11,3,27,53,250,['c'],0,right,['2'],5,80,[0.06424321],89,53,easy,minus,dotcolour,alfa,,,112,18,V,R,
490,112,28,11,3,47,33,499,['c'],1,left,['8'],3,235,[0.10357865],87,47,medium,minus,dotcolour,alfa,,,112,18,V,R,
491,113,29,11,3,53,27,266,['n'],0,left,['2'],5,112,[-0.02411191],66,53,easy,minus,dotcolour,alfa,,,112,18,V,R,
492,114,30,11,3,36,44,516,['c'],0,right,['2'],5,152,[0.0882752],88,44,hard,minus,dotcolour,alfa,,,112,18,V,R,
493,115,31,11,3,36,44,383,['c'],0,right,['1'],6,204,[-0.00099691],50,44,hard,minus,dotcolour,alfa,,,112,18,V,R,
494,116,32,11,3,44,36,383,['c'],1,left,['2'],5,150,[0.15559042],97,44,hard,minus,dotcolour,alfa,,,112,18,V,R,
495,117,33,11,3,47,33,517,['n'],0,left,['2'],5,237,[-0.00230055],51,47,medium,minus,dotcolour,alfa,,,112,18,V,R,
496,118,34,11,3,44,36,268,['c'],1,left,['2'],5,218,[0.07134996],80,44,hard,minus,dotcolour,alfa,,,112,18,V,R,
497,119,35,11,3,44,36,400,['c'],1,left,['1'],6,226,[0.1197126],91,44,hard,minus,dotcolour,alfa,,,112,18,V,R,
498,120,36,11,3,53,27,2768,['c'],1,left,['2'],5,540,[0.12100793],81,53,easy,minus,dotcolour,alfa,,,112,18,V,R,
499,121,37,11,3,36,44,617,['n'],1,right,['2'],5,127,[-0.04280356],75,44,hard,minus,dotcolour,alfa,,,112,18,V,R,
500,122,38,11,3,33,47,367,['c'],0,right,['2'],5,116,[0.06223052],84,47,medium,minus,dotcolour,alfa,,,112,18,V,R,
501,123,39,11,3,44,36,483,['c'],1,left,['2'],5,133,[0.05181463],78,44,hard,minus,dotcolour,alfa,,,112,18,V,R,
502,124,40,11,3,27,53,483,['n'],1,right,['2'],5,134,[-0.10185075],92,53,easy,minus,dotcolour,alfa,,,112,18,V,R,
503,125,41,11,3,36,44,568,['n'],1,right,['2'],5,99,[-0.0682789],88,44,hard,minus,dotcolour,alfa,,,112,18,V,R,
504,0,0,12,4,47,33,650,['c'],1,left,['9'],2,172,[0.08824226],100,47,medium,plus,dotcolour,alfa,,,112,18,V,R,
505,1,1,12,4,36,44,418,['c'],0,right,['2'],5,167,[0.08943219],100,44,hard,plus,dotcolour,alfa,,,112,18,V,R,
506,2,2,12,4,36,44,500,['n'],1,right,['1'],6,197,[-0.09045405],100,44,hard,plus,dotcolour,alfa,,,112,18,V,R,
507,3,3,12,4,27,53,383,['n'],1,right,['2'],5,118,[-0.09018868],100,53,easy,plus,dotcolour,alfa,,,112,18,V,R,
508,4,4,12,4,44,36,550,['c'],1,left,['2'],5,126,[0.06161163],100,44,hard,plus,dotcolour,alfa,,,112,18,V,R,
509,5,5,12,4,36,44,284,['n'],1,right,['2'],5,95,[-0.05501568],100,44,hard,plus,dotcolour,alfa,,,112,18,V,R,
510,6,6,12,4,44,36,333,['n'],0,left,['2'],5,126,[-0.11393857],100,44,hard,plus,dotcolour,alfa,,,112,18,V,R,
511,7,7,12,4,36,44,502,['n'],1,right,['2'],5,86,[-0.09292671],100,44,hard,plus,dotcolour,alfa,,,112,18,V,R,
512,8,8,12,4,47,33,383,['n'],0,left,['2'],5,348,[-0.06126264],98,47,medium,plus,dotcolour,alfa,,,112,18,V,R,
513,9,9,12,4,47,33,434,['c'],1,left,['2'],5,135,[0.12453546],100,47,medium,plus,dotcolour,alfa,,,112,18,V,R,
514,10,10,12,4,33,47,633,['n'],1,right,['2'],5,130,[-0.08106006],100,47,medium,plus,dotcolour,alfa,,,112,18,V,R,
515,11,11,12,4,47,33,434,['n'],0,left,['2'],5,132,[-0.03123749],96,47,medium,plus,dotcolour,alfa,,,112,18,V,R,
516,12,12,12,4,53,27,400,['n'],0,left,['9'],2,648,[0.13818357],0,53,easy,plus,dotcolour,alfa,,,112,18,V,R,
517,13,13,12,4,33,47,601,['n'],1,right,['2'],5,103,[-0.11288422],100,47,medium,plus,dotcolour,alfa,,,112,18,V,R,
518,14,14,12,4,47,33,852,['c'],1,left,['8'],3,146,[0.11952929],100,47,medium,plus,dotcolour,alfa,,,112,18,V,R,
519,15,15,12,4,53,27,650,['c'],1,left,['2'],5,140,[0.09196762],100,53,easy,plus,dotcolour,alfa,,,112,18,V,R,
520,16,16,12,4,33,47,650,['n'],1,right,['2'],5,109,[-0.05861141],100,47,medium,plus,dotcolour,alfa,,,112,18,V,R,
521,17,17,12,4,47,33,433,['n'],0,left,['2'],5,121,[-0.04834224],99,47,medium,plus,dotcolour,alfa,,,112,18,V,R,
522,18,18,12,4,53,27,584,['c'],1,left,['2'],5,134,[0.06303845],100,53,easy,plus,dotcolour,alfa,,,112,18,V,R,
523,19,19,12,4,33,47,483,['n'],1,right,['2'],5,119,[-0.08685152],100,47,medium,plus,dotcolour,alfa,,,112,18,V,R,
524,20,20,12,4,36,44,400,['n'],1,right,['2'],5,108,[-0.04801364],99,44,hard,plus,dotcolour,alfa,,,112,18,V,R,
525,21,21,12,4,44,36,917,['c'],1,left,['2'],5,76,[0.08250089],100,44,hard,plus,dotcolour,alfa,,,112,18,V,R,
526,22,22,12,4,33,47,517,['c'],0,right,['2'],5,116,[0.05109152],100,47,medium,plus,dotcolour,alfa,,,112,18,V,R,
527,23,23,12,4,27,53,500,['n'],1,right,['2'],5,86,[-0.09438851],100,53,easy,plus,dotcolour,alfa,,,112,18,V,R,
528,24,24,12,4,44,36,300,['n'],0,left,['2'],5,79,[-0.11428731],100,44,hard,plus,dotcolour,alfa,,,112,18,V,R,
529,25,25,12,4,27,53,383,['c'],0,right,['2'],5,183,[0.03801304],96,53,easy,plus,dotcolour,alfa,,,112,18,V,R,
530,26,26,12,4,27,53,318,['n'],1,right,['2'],5,51,[-0.04917215],100,53,easy,plus,dotcolour,alfa,,,112,18,V,R,
531,27,27,12,4,53,27,551,['n'],0,left,['2'],5,717,[0.10712597],1,53,easy,plus,dotcolour,alfa,,,112,18,V,R,
532,28,28,12,4,36,44,684,['n'],1,right,['2'],5,94,[-0.04892925],100,44,hard,plus,dotcolour,alfa,,,112,18,V,R,
533,29,29,12,4,33,47,500,['n'],1,right,['2'],5,128,[-0.19182794],100,47,medium,plus,dotcolour,alfa,,,112,18,V,R,
534,30,30,12,4,44,36,500,['n'],0,left,['3'],4,176,[-0.02762909],91,44,hard,plus,dotcolour,alfa,,,112,18,V,R,
535,31,31,12,4,47,33,533,['c'],1,left,['3'],4,109,[0.08027945],100,47,medium,plus,dotcolour,alfa,,,112,18,V,R,
536,32,32,12,4,27,53,1199,['n'],1,right,['3'],4,1594,[-0.28370472],100,53,easy,plus,dotcolour,alfa,,,112,18,V,R,
537,33,33,12,4,36,44,717,['n'],1,right,['2'],5,118,[-0.14332427],100,44,hard,plus,dotcolour,alfa,,,112,18,V,R,
538,34,34,12,4,44,36,550,['n'],0,left,['2'],5,85,[-0.0614821],100,44,hard,plus,dotcolour,alfa,,,112,18,V,R,
539,35,35,12,4,53,27,667,['c'],1,left,['8'],3,192,[0.05004323],98,53,easy,plus,dotcolour,alfa,,,112,18,V,R,
540,36,36,12,4,27,53,334,['c'],0,right,['2'],5,139,[0.11639601],100,53,easy,plus,dotcolour,alfa,,,112,18,V,R,
541,37,37,12,4,44,36,599,['n'],0,left,['2'],5,95,[-0.06154152],100,44,hard,plus,dotcolour,alfa,,,112,18,V,R,
542,38,38,12,4,33,47,468,['n'],1,right,['2'],5,73,[-0.06947097],100,47,medium,plus,dotcolour,alfa,,,112,18,V,R,
543,39,39,12,4,53,27,534,['c'],1,left,['2'],5,122,[0.05932801],100,53,easy,plus,dotcolour,alfa,,,112,18,V,R,
544,40,40,12,4,53,27,501,['c'],1,left,['2'],5,82,[0.05728521],100,53,easy,plus,dotcolour,alfa,,,112,18,V,R,
545,41,41,12,4,27,53,518,['n'],1,right,['2'],5,99,[-0.09186326],100,53,easy,plus,dotcolour,alfa,,,112,18,V,R,
546,42,0,13,4,33,47,700,['c'],0,right,['8'],3,97,[0.01629061],87,47,medium,plus,dotcolour,alfa,,,112,18,V,R,
547,43,1,13,4,33,47,1218,['c'],0,right,['2'],5,92,[0.07947515],100,47,medium,plus,dotcolour,alfa,,,112,18,V,R,
548,44,2,13,4,47,33,434,['c'],1,left,['2'],5,113,[0.10855463],100,47,medium,plus,dotcolour,alfa,,,112,18,V,R,
549,45,3,13,4,27,53,518,['n'],1,right,['2'],5,201,[-0.07019024],100,53,easy,plus,dotcolour,alfa,,,112,18,V,R,
550,46,4,13,4,27,53,435,['n'],1,right,['2'],5,57,[-0.08443742],100,53,easy,plus,dotcolour,alfa,,,112,18,V,R,
551,47,5,13,4,27,53,367,['n'],1,right,['1'],6,65,[-0.0711205],100,53,easy,plus,dotcolour,alfa,,,112,18,V,R,
552,48,6,13,4,33,47,334,['n'],1,right,['1'],6,59,[-0.07370157],100,47,medium,plus,dotcolour,alfa,,,112,18,V,R,
553,49,7,13,4,44,36,600,['c'],1,left,['1'],6,105,[0.06829054],100,44,hard,plus,dotcolour,alfa,,,112,18,V,R,
554,50,8,13,4,36,44,418,['n'],1,right,['1'],6,78,[-0.08767002],100,44,hard,plus,dotcolour,alfa,,,112,18,V,R,
555,51,9,13,4,36,44,316,['n'],1,right,['1'],6,78,[-0.1017143],100,44,hard,plus,dotcolour,alfa,,,112,18,V,R,
556,52,10,13,4,53,27,334,['n'],0,left,['1'],6,96,[-0.12091585],100,53,easy,plus,dotcolour,alfa,,,112,18,V,R,
557,53,11,13,4,36,44,467,['n'],1,right,['1'],6,82,[-0.11758848],100,44,hard,plus,dotcolour,alfa,,,112,18,V,R,
558,54,12,13,4,47,33,634,['c'],1,left,['2'],5,87,[0.06843845],100,47,medium,plus,dotcolour,alfa,,,112,18,V,R,
559,55,13,13,4,44,36,317,['c'],1,left,['2'],5,72,[0.07694779],100,44,hard,plus,dotcolour,alfa,,,112,18,V,R,
560,56,14,13,4,53,27,349,['c'],1,left,['2'],5,50,[0.09189611],100,53,easy,plus,dotcolour,alfa,,,112,18,V,R,
561,57,15,13,4,44,36,300,['c'],1,left,['2'],5,140,[0.0530883],99,44,hard,plus,dotcolour,alfa,,,112,18,V,R,
562,58,16,13,4,36,44,384,['n'],1,right,['2'],5,97,[-0.06628254],100,44,hard,plus,dotcolour,alfa,,,112,18,V,R,
563,59,17,13,4,33,47,216,['n'],1,right,['2'],5,85,[-0.09217843],100,47,medium,plus,dotcolour,alfa,,,112,18,V,R,
564,60,18,13,4,47,33,233,['n'],0,left,['2'],5,66,[-0.05480382],100,47,medium,plus,dotcolour,alfa,,,112,18,V,R,
565,61,19,13,4,27,53,194,['c'],0,right,['9'],2,249,[0.04712641],97,53,easy,plus,dotcolour,alfa,,,112,18,V,R,
566,62,20,13,4,36,44,217,['n'],1,right,['2'],5,88,[-0.09174555],100,44,hard,plus,dotcolour,alfa,,,112,18,V,R,
567,63,21,13,4,47,33,317,['n'],0,left,['2'],5,65,[-0.06640874],100,47,medium,plus,dotcolour,alfa,,,112,18,V,R,
568,64,22,13,4,36,44,284,['c'],0,right,['9'],2,276,[0.18346571],100,44,hard,plus,dotcolour,alfa,,,112,18,V,R,
569,65,23,13,4,27,53,300,['n'],1,right,['2'],5,62,[-0.10673334],100,53,easy,plus,dotcolour,alfa,,,112,18,V,R,
570,66,24,13,4,53,27,333,['c'],1,left,['9'],2,103,[0.111479],100,53,easy,plus,dotcolour,alfa,,,112,18,V,R,
571,67,25,13,4,47,33,266,['n'],0,left,['2'],5,73,[-0.09182632],100,47,medium,plus,dotcolour,alfa,,,112,18,V,R,
572,68,26,13,4,47,33,250,['c'],1,left,['9'],2,262,[-0.0567143],2,47,medium,plus,dotcolour,alfa,,,112,18,V,R,
573,69,27,13,4,44,36,317,['c'],1,left,['9'],2,47,[0.0600155],100,44,hard,plus,dotcolour,alfa,,,112,18,V,R,
574,70,28,13,4,33,47,200,['c'],0,right,['9'],2,87,[0.07128074],100,47,medium,plus,dotcolour,alfa,,,112,18,V,R,
575,71,29,13,4,53,27,233,['c'],1,left,['9'],2,67,[0.120104],100,53,easy,plus,dotcolour,alfa,,,112,18,V,R,
576,72,30,13,4,53,27,216,['c'],1,left,['9'],2,98,[0.07269746],100,53,easy,plus,dotcolour,alfa,,,112,18,V,R,
577,73,31,13,4,27,53,161,['c'],0,right,['9'],2,80,[0.08730477],100,53,easy,plus,dotcolour,alfa,,,112,18,V,R,
578,74,32,13,4,27,53,334,['n'],1,right,['2'],5,72,[-0.05725817],100,53,easy,plus,dotcolour,alfa,,,112,18,V,R,
579,75,33,13,4,36,44,267,['n'],1,right,['2'],5,108,[-0.09150694],100,44,hard,plus,dotcolour,alfa,,,112,18,V,R,
580,76,34,13,4,33,47,251,['n'],1,right,['2'],5,71,[-0.10600792],100,47,medium,plus,dotcolour,alfa,,,112,18,V,R,
581,77,35,13,4,53,27,235,['n'],0,left,['2'],5,43,[-0.08609858],100,53,easy,plus,dotcolour,alfa,,,112,18,V,R,
582,78,36,13,4,33,47,217,['n'],1,right,['2'],5,51,[-0.07833406],100,47,medium,plus,dotcolour,alfa,,,112,18,V,R,
583,79,37,13,4,53,27,265,['n'],0,left,['2'],5,47,[-0.07819796],100,53,easy,plus,dotcolour,alfa,,,112,18,V,R,
584,80,38,13,4,44,36,351,['c'],1,left,['8'],3,64,[0.079254],100,44,hard,plus,dotcolour,alfa,,,112,18,V,R,
585,81,39,13,4,47,33,450,['c'],1,left,['2'],5,70,[0.06872405],100,47,medium,plus,dotcolour,alfa,,,112,18,V,R,
586,82,40,13,4,44,36,299,['c'],1,left,['2'],5,57,[0.06283944],100,44,hard,plus,dotcolour,alfa,,,112,18,V,R,
587,83,41,13,4,44,36,399,['c'],1,left,['3'],4,64,[0.10931755],100,44,hard,plus,dotcolour,alfa,,,112,18,V,R,
588,84,0,14,4,44,36,416,['n'],0,left,['2'],5,322,[-0.08797218],100,44,hard,plus,dotcolour,alfa,,,112,18,V,R,
589,85,1,14,4,47,33,367,['c'],1,left,['2'],5,71,[0.04960925],100,47,medium,plus,dotcolour,alfa,,,112,18,V,R,
590,86,2,14,4,36,44,235,['c'],0,right,['3'],4,4,[0.07618071],100,44,hard,plus,dotcolour,alfa,,,112,18,V,R,
591,87,3,14,4,47,33,417,['n'],0,left,['2'],5,69,[-0.07544416],100,47,medium,plus,dotcolour,alfa,,,112,18,V,R,
592,88,4,14,4,36,44,334,['c'],0,right,['2'],5,134,[0.06180379],100,44,hard,plus,dotcolour,alfa,,,112,18,V,R,
593,89,5,14,4,36,44,301,['n'],1,right,['3'],4,47,[-0.07121713],100,44,hard,plus,dotcolour,alfa,,,112,18,V,R,
594,90,6,14,4,36,44,334,['c'],0,right,['8'],3,97,[0.02933419],97,44,hard,plus,dotcolour,alfa,,,112,18,V,R,
595,91,7,14,4,36,44,400,['n'],1,right,['3'],4,126,[-0.11751694],100,44,hard,plus,dotcolour,alfa,,,112,18,V,R,
596,92,8,14,4,33,47,367,['c'],0,right,['9'],2,844,[-0.03181201],22,47,medium,plus,dotcolour,alfa,,,112,18,V,R,
597,93,9,14,4,47,33,633,['n'],0,left,['2'],5,41,[-0.07839309],100,47,medium,plus,dotcolour,alfa,,,112,18,V,R,
598,94,10,14,4,33,47,666,['n'],1,right,['1'],6,133,[-0.0821533],100,47,medium,plus,dotcolour,alfa,,,112,18,V,R,
599,95,11,14,4,53,27,350,['c'],1,left,['2'],5,260,[0.15778445],100,53,easy,plus,dotcolour,alfa,,,112,18,V,R,
600,96,12,14,4,53,27,399,['c'],1,left,['1'],6,299,[0.18869471],100,53,easy,plus,dotcolour,alfa,,,112,18,V,R,
601,97,13,14,4,27,53,433,['n'],1,right,['2'],5,135,[-0.20257203],100,53,easy,plus,dotcolour,alfa,,,112,18,V,R,
602,98,14,14,4,47,33,433,['c'],1,left,['2'],5,161,[0.07187536],100,47,medium,plus,dotcolour,alfa,,,112,18,V,R,
603,99,15,14,4,27,53,234,['n'],1,right,['2'],5,90,[-0.0792982],100,53,easy,plus,dotcolour,alfa,,,112,18,V,R,
604,100,16,14,4,47,33,383,['n'],0,left,['2'],5,113,[-0.09090666],100,47,medium,plus,dotcolour,alfa,,,112,18,V,R,
605,101,17,14,4,44,36,400,['c'],1,left,['3'],4,126,[0.09264975],100,44,hard,plus,dotcolour,alfa,,,112,18,V,R,
606,102,18,14,4,47,33,180,['c'],1,left,['3'],4,114,[0.04707372],99,47,medium,plus,dotcolour,alfa,,,112,18,V,R,
607,103,19,14,4,53,27,249,['n'],0,left,['2'],5,91,[-0.04658045],100,53,easy,plus,dotcolour,alfa,,,112,18,V,R,
608,104,20,14,4,27,53,383,['n'],1,right,['2'],5,98,[-0.09366913],100,53,easy,plus,dotcolour,alfa,,,112,18,V,R,
609,105,21,14,4,33,47,316,['n'],1,right,['3'],4,171,[-0.06907798],100,47,medium,plus,dotcolour,alfa,,,112,18,V,R,
610,106,22,14,4,33,47,417,['n'],1,right,['2'],5,101,[-0.06950027],100,47,medium,plus,dotcolour,alfa,,,112,18,V,R,
611,107,23,14,4,27,53,350,['n'],1,right,['2'],5,164,[-0.07234165],100,53,easy,plus,dotcolour,alfa,,,112,18,V,R,
612,108,24,14,4,44,36,317,['n'],0,left,['2'],5,98,[-0.048866],100,44,hard,plus,dotcolour,alfa,,,112,18,V,R,
613,109,25,14,4,27,53,549,['n'],1,right,['2'],5,113,[-0.05567323],100,53,easy,plus,dotcolour,alfa,,,112,18,V,R,
614,110,26,14,4,27,53,316,['n'],1,right,['2'],5,546,[-0.11461278],100,53,easy,plus,dotcolour,alfa,,,112,18,V,R,
615,111,27,14,4,44,36,484,['n'],0,left,['1'],6,66,[-0.0616354],100,44,hard,plus,dotcolour,alfa,,,112,18,V,R,
616,112,28,14,4,33,47,466,['n'],1,right,['2'],5,158,[-0.04787963],99,47,medium,plus,dotcolour,alfa,,,112,18,V,R,
617,113,29,14,4,44,36,367,['c'],1,left,['2'],5,81,[0.09568994],100,44,hard,plus,dotcolour,alfa,,,112,18,V,R,
618,114,30,14,4,47,33,250,['c'],1,left,['3'],4,133,[0.07242442],100,47,medium,plus,dotcolour,alfa,,,112,18,V,R,
619,115,31,14,4,33,47,432,['c'],0,right,['2'],5,88,[0.06242376],100,47,medium,plus,dotcolour,alfa,,,112,18,V,R,
620,116,32,14,4,44,36,268,['n'],0,left,['2'],5,123,[-0.06832725],100,44,hard,plus,dotcolour,alfa,,,112,18,V,R,
621,117,33,14,4,53,27,300,['n'],0,left,['2'],5,140,[-0.03314848],96,53,easy,plus,dotcolour,alfa,,,112,18,V,R,
622,118,34,14,4,53,27,267,['n'],0,left,['1'],6,85,[-0.08061264],100,53,easy,plus,dotcolour,alfa,,,112,18,V,R,
623,119,35,14,4,33,47,301,['c'],0,right,['3'],4,87,[0.08438723],100,47,medium,plus,dotcolour,alfa,,,112,18,V,R,
624,120,36,14,4,53,27,417,['c'],1,left,['8'],3,276,[0.05663711],98,53,easy,plus,dotcolour,alfa,,,112,18,V,R,
625,121,37,14,4,53,27,368,['n'],0,left,['1'],6,99,[-0.05331311],100,53,easy,plus,dotcolour,alfa,,,112,18,V,R,
626,122,38,14,4,44,36,350,['c'],1,left,['1'],6,91,[0.08271647],100,44,hard,plus,dotcolour,alfa,,,112,18,V,R,
627,123,39,14,4,36,44,317,['c'],0,right,['2'],5,107,[0.08069556],100,44,hard,plus,dotcolour,alfa,,,112,18,V,R,
628,124,40,14,4,27,53,249,['c'],0,right,['2'],5,70,[0.08628447],100,53,easy,plus,dotcolour,alfa,,,112,18,V,R,
629,125,41,14,4,36,44,350,['n'],1,right,['2'],5,95,[-0.07301148],100,44,hard,plus,dotcolour,alfa,,,112,18,V,R,
630,0,0,15,5,27,53,633,['n'],1,right,['9'],2,177,[-0.12819149],94,53,easy,minus,dotcolour,alfa,,,112,18,V,R,
631,1,1,15,5,33,47,384,['n'],1,right,['2'],5,99,[-0.08379034],92,47,medium,minus,dotcolour,alfa,,,112,18,V,R,
632,2,2,15,5,47,33,350,['n'],0,left,['2'],5,115,[-0.08778999],91,47,medium,minus,dotcolour,alfa,,,112,18,V,R,
633,3,3,15,5,44,36,335,['c'],1,left,['9'],2,355,[0.00971708],54,44,hard,minus,dotcolour,alfa,,,112,18,V,R,
634,4,4,15,5,27,53,566,['n'],1,right,['2'],5,87,[-0.11062788],97,53,easy,minus,dotcolour,alfa,,,112,18,V,R,
635,5,5,15,5,36,44,450,['c'],0,right,['3'],4,275,[-0.01086918],45,44,hard,minus,dotcolour,alfa,,,112,18,V,R,
636,6,6,15,5,44,36,534,['n'],0,left,['2'],5,131,[-0.07657219],87,44,hard,minus,dotcolour,alfa,,,112,18,V,R,
637,7,7,15,5,53,27,301,['c'],1,left,['8'],3,140,[0.10326802],92,53,easy,minus,dotcolour,alfa,,,112,18,V,R,
638,8,8,15,5,44,36,192,['n'],0,left,['2'],5,111,[-0.09831285],93,44,hard,minus,dotcolour,alfa,,,112,18,V,R,
639,9,9,15,5,36,44,233,['c'],0,right,['8'],3,114,[0.02465703],66,44,hard,minus,dotcolour,alfa,,,112,18,V,R,
640,10,10,15,5,36,44,284,['n'],1,right,['2'],5,100,[-0.09066664],93,44,hard,minus,dotcolour,alfa,,,112,18,V,R,
641,11,11,15,5,36,44,384,['n'],1,right,['2'],5,122,[-0.06306259],84,44,hard,minus,dotcolour,alfa,,,112,18,V,R,
642,12,12,15,5,53,27,349,['n'],0,left,['1'],6,81,[-0.08983192],94,53,easy,minus,dotcolour,alfa,,,112,18,V,R,
643,13,13,15,5,53,27,450,['n'],0,left,['1'],6,61,[-0.07648679],94,53,easy,minus,dotcolour,alfa,,,112,18,V,R,
644,14,14,15,5,47,33,139,['c'],1,left,['1'],6,59,[0.03847196],81,47,medium,minus,dotcolour,alfa,,,112,18,V,R,
645,15,15,15,5,47,33,284,['c'],1,left,['1'],6,70,[0.08421759],95,47,medium,minus,dotcolour,alfa,,,112,18,V,R,
646,16,16,15,5,33,47,400,['c'],0,right,['1'],6,109,[0.02036638],64,47,medium,minus,dotcolour,alfa,,,112,18,V,R,
647,17,17,15,5,33,47,400,['n'],1,right,['3'],4,305,[-0.13008756],89,47,medium,minus,dotcolour,alfa,,,112,18,V,R,
648,18,18,15,5,44,36,335,['c'],1,left,['2'],5,113,[0.06248473],84,44,hard,minus,dotcolour,alfa,,,112,18,V,R,
649,19,19,15,5,36,44,367,['c'],0,right,['2'],5,118,[0.09737182],93,44,hard,minus,dotcolour,alfa,,,112,18,V,R,
650,20,20,15,5,53,27,533,['c'],1,left,['2'],5,79,[0.06456494],89,53,easy,minus,dotcolour,alfa,,,112,18,V,R,
651,21,21,15,5,53,27,517,['c'],1,left,['3'],4,71,[0.10485722],97,53,easy,minus,dotcolour,alfa,,,112,18,V,R,
652,22,22,15,5,27,53,400,['n'],1,right,['1'],6,126,[-0.10261208],93,53,easy,minus,dotcolour,alfa,,,112,18,V,R,
653,23,23,15,5,47,33,300,['n'],0,left,['1'],6,94,[-0.109529],96,47,medium,minus,dotcolour,alfa,,,112,18,V,R,
654,24,24,15,5,53,27,250,['c'],1,left,['2'],5,145,[0.14793176],97,53,easy,minus,dotcolour,alfa,,,112,18,V,R,
655,25,25,15,5,47,33,38,['c'],1,left,['3'],4,1181,[0.02125095],54,47,medium,minus,dotcolour,alfa,,,112,18,V,R,
656,26,26,15,5,47,33,968,['c'],1,left,['2'],5,112,[0.10325252],94,47,medium,minus,dotcolour,alfa,,,112,18,V,R,
657,27,27,15,5,27,53,516,['n'],1,right,['2'],5,129,[-0.04979822],78,53,easy,minus,dotcolour,alfa,,,112,18,V,R,
658,28,28,15,5,33,47,366,['n'],1,right,['2'],5,110,[-0.06985561],87,47,medium,minus,dotcolour,alfa,,,112,18,V,R,
659,29,29,15,5,36,44,351,['n'],1,right,['2'],5,124,[-0.0943168],92,44,hard,minus,dotcolour,alfa,,,112,18,V,R,
660,30,30,15,5,44,36,333,['c'],1,left,['2'],5,131,[0.05102674],78,44,hard,minus,dotcolour,alfa,,,112,18,V,R,
661,31,31,15,5,27,53,334,['c'],0,right,['3'],4,114,[0.06986422],87,53,easy,minus,dotcolour,alfa,,,112,18,V,R,
662,32,32,15,5,33,47,334,['n'],1,right,['1'],6,144,[-0.16109362],98,47,medium,minus,dotcolour,alfa,,,112,18,V,R,
663,33,33,15,5,33,47,549,['n'],1,right,['2'],5,47,[-0.06765033],94,47,medium,minus,dotcolour,alfa,,,112,18,V,R,
664,34,34,15,5,33,47,400,['n'],1,right,['2'],5,87,[-0.11713209],97,47,medium,minus,dotcolour,alfa,,,112,18,V,R,
665,35,35,15,5,44,36,517,['c'],1,left,['8'],3,471,[0.17890304],91,44,hard,minus,dotcolour,alfa,,,112,18,V,R,
666,36,36,15,5,53,27,333,['n'],0,left,['2'],5,64,[-0.07111369],93,53,easy,minus,dotcolour,alfa,,,112,18,V,R,
667,37,37,15,5,36,44,567,['n'],1,right,['2'],5,95,[-0.03517251],74,44,hard,minus,dotcolour,alfa,,,112,18,V,R,
668,38,38,15,5,44,36,416,['c'],1,left,['2'],5,149,[0.10473307],92,44,hard,minus,dotcolour,alfa,,,112,18,V,R,
669,39,39,15,5,47,33,417,['c'],1,left,['8'],3,135,[0.09001821],90,47,medium,minus,dotcolour,alfa,,,112,18,V,R,
670,40,40,15,5,27,53,567,['n'],1,right,['2'],5,85,[-0.12376767],98,53,easy,minus,dotcolour,alfa,,,112,18,V,R,
671,41,41,15,5,27,53,501,['c'],0,right,['3'],4,142,[0.05622943],79,53,easy,minus,dotcolour,alfa,,,112,18,V,R,
672,42,0,16,5,27,53,534,['n'],1,right,['8'],3,270,[-0.09480825],84,53,easy,minus,dotcolour,alfa,,,112,18,V,R,
673,43,1,16,5,33,47,401,['n'],1,right,['2'],5,100,[-0.02504203],67,47,medium,minus,dotcolour,alfa,,,112,18,V,R,
674,44,2,16,5,36,44,401,['n'],1,right,['2'],5,122,[-0.04169922],75,44,hard,minus,dotcolour,alfa,,,112,18,V,R,
675,45,3,16,5,53,27,251,['n'],0,left,['2'],5,108,[-0.03702539],73,53,easy,minus,dotcolour,alfa,,,112,18,V,R,
676,46,4,16,5,27,53,384,['n'],1,right,['2'],5,90,[-0.10766388],96,53,easy,minus,dotcolour,alfa,,,112,18,V,R,
677,47,5,16,5,36,44,418,['c'],0,right,['2'],5,687,[0.04287687],61,44,hard,minus,dotcolour,alfa,,,112,18,V,R,
678,48,6,16,5,44,36,317,['n'],0,left,['2'],5,87,[-0.06244776],87,44,hard,minus,dotcolour,alfa,,,112,18,V,R,
679,49,7,16,5,33,47,366,['n'],1,right,['2'],5,39,[-0.0832959],98,47,medium,minus,dotcolour,alfa,,,112,18,V,R,
680,50,8,16,5,27,53,434,['n'],1,right,['2'],5,78,[-0.09189956],95,53,easy,minus,dotcolour,alfa,,,112,18,V,R,
681,51,9,16,5,47,33,616,['c'],1,left,['8'],3,131,[0.09941658],92,47,medium,minus,dotcolour,alfa,,,112,18,V,R,
682,52,10,16,5,27,53,418,['n'],1,right,['2'],5,150,[-0.09533035],90,53,easy,minus,dotcolour,alfa,,,112,18,V,R,
683,53,11,16,5,53,27,532,['c'],1,left,['1'],6,124,[0.12201795],96,53,easy,minus,dotcolour,alfa,,,112,18,V,R,
684,54,12,16,5,44,36,500,['c'],1,left,['1'],6,99,[0.0595332],85,44,hard,minus,dotcolour,alfa,,,112,18,V,R,
685,55,13,16,5,53,27,417,['c'],1,left,['2'],5,104,[0.10260173],95,53,easy,minus,dotcolour,alfa,,,112,18,V,R,
686,56,14,16,5,33,47,433,['n'],1,right,['2'],5,68,[-0.11386398],98,47,medium,minus,dotcolour,alfa,,,112,18,V,R,
687,57,15,16,5,33,47,384,['n'],1,right,['2'],5,99,[-0.07835534],90,47,medium,minus,dotcolour,alfa,,,112,18,V,R,
688,58,16,16,5,36,44,267,['c'],0,right,['2'],5,159,[0.02344126],63,44,hard,minus,dotcolour,alfa,,,112,18,V,R,
689,59,17,16,5,44,36,170,['n'],0,left,['3'],4,130,[-0.01962479],62,44,hard,minus,dotcolour,alfa,,,112,18,V,R,
690,60,18,16,5,27,53,282,['c'],0,right,['2'],5,122,[0.05940163],82,53,easy,minus,dotcolour,alfa,,,112,18,V,R,
691,61,19,16,5,44,36,283,['n'],0,left,['2'],5,76,[-0.08424968],94,44,hard,minus,dotcolour,alfa,,,112,18,V,R,
692,62,20,16,5,44,36,249,['n'],0,left,['2'],5,23,[-0.06331051],98,44,hard,minus,dotcolour,alfa,,,112,18,V,R,
693,63,21,16,5,53,27,450,['n'],0,left,['9'],2,726,[0.1343573],19,53,easy,minus,dotcolour,alfa,,,112,18,V,R,
694,64,22,16,5,36,44,617,['c'],0,right,['2'],5,98,[0.05783531],84,44,hard,minus,dotcolour,alfa,,,112,18,V,R,
695,65,23,16,5,44,36,600,['c'],1,left,['2'],5,134,[0.1137258],94,44,hard,minus,dotcolour,alfa,,,112,18,V,R,
696,66,24,16,5,33,47,500,['n'],1,right,['2'],5,79,[-0.0768797],92,47,medium,minus,dotcolour,alfa,,,112,18,V,R,
697,67,25,16,5,47,33,467,['c'],1,left,['2'],5,114,[0.05750913],82,47,medium,minus,dotcolour,alfa,,,112,18,V,R,
698,68,26,16,5,47,33,450,['c'],1,left,['2'],5,116,[0.07963214],89,47,medium,minus,dotcolour,alfa,,,112,18,V,R,
699,69,27,16,5,47,33,417,['c'],1,left,['0'],1,304,[0.13145507],90,47,medium,minus,dotcolour,alfa,,,112,18,V,R,
700,70,28,16,5,47,33,467,['c'],1,left,['2'],5,107,[0.07242786],88,47,medium,minus,dotcolour,alfa,,,112,18,V,R,
701,71,29,16,5,33,47,467,['n'],1,right,['2'],5,61,[-0.10501769],98,47,medium,minus,dotcolour,alfa,,,112,18,V,R,
702,72,30,16,5,47,33,534,['c'],1,left,['2'],5,94,[0.05581417],84,47,medium,minus,dotcolour,alfa,,,112,18,V,R,
703,73,31,16,5,27,53,467,['n'],1,right,['2'],5,81,[-0.07284586],91,53,easy,minus,dotcolour,alfa,,,112,18,V,R,
704,74,32,16,5,36,44,500,['c'],0,right,['2'],5,75,[0.1002573],96,44,hard,minus,dotcolour,alfa,,,112,18,V,R,
705,75,33,16,5,36,44,284,['n'],1,right,['2'],5,78,[-0.04504666],81,44,hard,minus,dotcolour,alfa,,,112,18,V,R,
706,76,34,16,5,33,47,401,['n'],1,right,['2'],5,68,[-0.1029671],97,47,medium,minus,dotcolour,alfa,,,112,18,V,R,
707,77,35,16,5,36,44,450,['c'],0,right,['2'],5,72,[0.07263427],92,44,hard,minus,dotcolour,alfa,,,112,18,V,R,
708,78,36,16,5,53,27,233,['n'],0,left,['2'],5,110,[-0.01885203],63,53,easy,minus,dotcolour,alfa,,,112,18,V,R,
709,79,37,16,5,44,36,500,['n'],0,left,['2'],5,70,[-0.10123054],97,44,hard,minus,dotcolour,alfa,,,112,18,V,R,
710,80,38,16,5,53,27,317,['c'],1,left,['2'],5,72,[0.08019208],94,53,easy,minus,dotcolour,alfa,,,112,18,V,R,
711,81,39,16,5,47,33,550,['n'],0,left,['2'],5,194,[-0.07316195],82,47,medium,minus,dotcolour,alfa,,,112,18,V,R,
712,82,40,16,5,53,27,383,['c'],1,left,['1'],6,180,[0.08592408],86,53,easy,minus,dotcolour,alfa,,,112,18,V,R,
713,83,41,16,5,27,53,584,['n'],1,right,['1'],6,38,[-0.0680583],96,53,easy,minus,dotcolour,alfa,,,112,18,V,R,
714,84,0,17,5,33,47,467,['n'],1,right,['1'],6,56,[-0.01568041],64,47,medium,minus,dotcolour,alfa,,,112,18,V,R,
715,85,1,17,5,36,44,267,['n'],1,right,['2'],5,92,[-0.09542659],94,44,hard,minus,dotcolour,alfa,,,112,18,V,R,
716,86,2,17,5,27,53,317,['n'],1,right,['2'],5,93,[-0.10207079],95,53,easy,minus,dotcolour,alfa,,,112,18,V,R,
717,87,3,17,5,53,27,195,['n'],0,left,['2'],5,83,[-0.07054184],90,53,easy,minus,dotcolour,alfa,,,112,18,V,R,
718,88,4,17,5,47,33,250,['c'],1,left,['2'],5,118,[0.06152868],83,47,medium,minus,dotcolour,alfa,,,112,18,V,R,
719,89,5,17,5,27,53,283,['c'],0,right,['2'],5,8,[0.0834359],100,53,easy,minus,dotcolour,alfa,,,112,18,V,R,
720,90,6,17,5,44,36,186,['c'],1,left,['2'],5,193,[0.09415996],87,44,hard,minus,dotcolour,alfa,,,112,18,V,R,
721,91,7,17,5,33,47,139,['n'],1,right,['2'],5,10,[-0.08447589],100,47,medium,minus,dotcolour,alfa,,,112,18,V,R,
722,92,8,17,5,27,53,299,['c'],0,right,['2'],5,135,[0.06277246],82,53,easy,minus,dotcolour,alfa,,,112,18,V,R,
723,93,9,17,5,36,44,334,['n'],1,right,['2'],5,69,[-0.0656261],90,44,hard,minus,dotcolour,alfa,,,112,18,V,R,
724,94,10,17,5,36,44,350,['n'],1,right,['2'],5,94,[-0.0565829],84,44,hard,minus,dotcolour,alfa,,,112,18,V,R,
725,95,11,17,5,47,33,401,['n'],0,left,['2'],5,108,[0.04074928],25,47,medium,minus,dotcolour,alfa,,,112,18,V,R,
726,96,12,17,5,33,47,434,['n'],1,right,['2'],5,39,[-0.06067316],94,47,medium,minus,dotcolour,alfa,,,112,18,V,R,
727,97,13,17,5,36,44,317,['n'],1,right,['2'],5,81,[-0.09264207],95,44,hard,minus,dotcolour,alfa,,,112,18,V,R,
728,98,14,17,5,27,53,417,['n'],1,right,['2'],5,79,[-0.0510796],84,53,easy,minus,dotcolour,alfa,,,112,18,V,R,
729,99,15,17,5,47,33,283,['n'],0,left,['2'],5,66,[-0.05670463],88,47,medium,minus,dotcolour,alfa,,,112,18,V,R,
730,100,16,17,5,33,47,317,['c'],0,right,['9'],2,652,[-0.03632227],40,47,medium,minus,dotcolour,alfa,,,112,18,V,R,
731,101,17,17,5,53,27,550,['c'],1,left,['2'],5,204,[0.05657193],76,53,easy,minus,dotcolour,alfa,,,112,18,V,R,
732,102,18,17,5,36,44,583,['n'],1,right,['1'],6,31,[-0.08644225],99,44,hard,minus,dotcolour,alfa,,,112,18,V,R,
733,103,19,17,5,27,53,367,['c'],0,right,['8'],3,696,[-0.16282895],15,53,easy,minus,dotcolour,alfa,,,112,18,V,R,
734,104,20,17,5,44,36,651,['n'],0,left,['1'],6,75,[-0.06286054],89,44,hard,minus,dotcolour,alfa,,,112,18,V,R,
735,105,21,17,5,33,47,517,['n'],1,right,['2'],5,77,[-0.07737185],92,47,medium,minus,dotcolour,alfa,,,112,18,V,R,
736,106,22,17,5,53,27,434,['n'],0,left,['2'],5,129,[-0.00553798],53,53,easy,minus,dotcolour,alfa,,,112,18,V,R,
737,107,23,17,5,44,36,249,['n'],0,left,['2'],5,115,[-0.04535608],77,44,hard,minus,dotcolour,alfa,,,112,18,V,R,
738,108,24,17,5,53,27,399,['c'],1,left,['2'],5,128,[0.06145709],82,53,easy,minus,dotcolour,alfa,,,112,18,V,R,
739,109,25,17,5,44,36,350,['c'],1,left,['1'],6,126,[0.12732776],96,44,hard,minus,dotcolour,alfa,,,112,18,V,R,
740,110,26,17,5,27,53,317,['n'],1,right,['1'],6,110,[-0.11138481],95,53,easy,minus,dotcolour,alfa,,,112,18,V,R,
741,111,27,17,5,53,27,300,['n'],0,left,['1'],6,78,[-0.05739963],86,53,easy,minus,dotcolour,alfa,,,112,18,V,R,
742,112,28,17,5,27,53,366,['n'],1,right,['1'],6,61,[-0.0945936],97,53,easy,minus,dotcolour,alfa,,,112,18,V,R,
743,113,29,17,5,36,44,600,['c'],0,right,['2'],5,116,[0.07518555],88,44,hard,minus,dotcolour,alfa,,,112,18,V,R,
744,114,30,17,5,53,27,417,['c'],1,left,['2'],5,128,[0.02573974],66,53,easy,minus,dotcolour,alfa,,,112,18,V,R,
745,115,31,17,5,44,36,249,['c'],1,left,['3'],4,186,[0.0401129],70,44,hard,minus,dotcolour,alfa,,,112,18,V,R,
746,116,32,17,5,36,44,332,['c'],0,right,['2'],5,135,[0.09962152],92,44,hard,minus,dotcolour,alfa,,,112,18,V,R,
747,117,33,17,5,47,33,534,['c'],1,left,['2'],5,78,[0.08926798],95,47,medium,minus,dotcolour,alfa,,,112,18,V,R,
748,118,34,17,5,53,27,416,['c'],1,left,['2'],5,90,[0.09575555],95,53,easy,minus,dotcolour,alfa,,,112,18,V,R,
749,119,35,17,5,33,47,283,['c'],0,right,['1'],6,53,[0.04601562],86,47,medium,minus,dotcolour,alfa,,,112,18,V,R,
750,120,36,17,5,47,33,550,['c'],1,left,['1'],6,94,[0.09452513],94,47,medium,minus,dotcolour,alfa,,,112,18,V,R,
751,121,37,17,5,47,33,717,['c'],1,left,['1'],6,199,[0.02971504],65,47,medium,minus,dotcolour,alfa,,,112,18,V,R,
752,122,38,17,5,47,33,433,['c'],1,left,['3'],4,207,[0.17304659],97,47,medium,minus,dotcolour,alfa,,,112,18,V,R,
753,123,39,17,5,44,36,716,['c'],1,left,['2'],5,139,[0.03710477],71,44,hard,minus,dotcolour,alfa,,,112,18,V,R,
754,124,40,17,5,33,47,717,['n'],1,right,['8'],3,114,[-0.06369606],85,47,medium,minus,dotcolour,alfa,,,112,18,V,R,
755,125,41,17,5,44,36,467,['c'],1,left,['2'],5,124,[0.02029076],63,44,hard,minus,dotcolour,alfa,,,112,18,V,R,
,,,,,,,,,,,,,,,,,,,,,1,de feedback leek geen echte feedback te zijn,112,18,V,R,
,,,,,,,,,,,,,,,,,,,,,2,['f'],112,18,V,R,
,,,,,,,,,,,,,,,,,,,,,3,['f'],112,18,V,R,
,,,,,,,,,,,,,,,,,,,,,5,"['3', '5']",112,18,V,R,
