trial,withinphasetrial,withinblocktrial,block,phase,dotsLeft,dotsRight,rt,resp,cor,cresp,conf_press,cj,RTconf,ev,fb,diff,difflevel,condition,task,manip,questionID,questionResp,sub,age,gender,handedness,
0,0,0,0,0,27,53,2967,['n'],1,right,['8'],3,4647,[-0.66201693],100,53,easy,plus,dotcolour,beta,,,36,18,V,R,
1,1,1,0,0,47,33,1216,['c'],1,left,['2'],5,2668,[0.33633764],99,47,medium,plus,dotcolour,beta,,,36,18,V,R,
2,2,2,0,0,36,44,2533,['c'],0,right,['3'],4,3268,[-0.10670203],38,44,hard,plus,dotcolour,beta,,,36,18,V,R,
3,3,3,0,0,27,53,1251,['n'],1,right,['1'],6,1679,[-0.20054669],97,53,easy,plus,dotcolour,beta,,,36,18,V,R,
4,4,4,0,0,27,53,1550,['n'],1,right,['1'],6,615,[-0.13551524],99,53,easy,plus,dotcolour,beta,,,36,18,V,R,
5,5,5,0,0,53,27,2784,['c'],1,left,['1'],6,728,[0.15743888],99,53,easy,plus,dotcolour,beta,,,36,18,V,R,
6,6,6,0,0,47,33,2234,['n'],0,left,['3'],4,2067,[0.06216042],48,47,medium,plus,dotcolour,beta,,,36,18,V,R,
7,7,7,0,0,33,47,2850,['n'],1,right,['9'],2,4423,[-0.6459244],100,47,medium,plus,dotcolour,beta,,,36,18,V,R,
8,8,8,0,0,27,53,1317,['n'],1,right,['2'],5,2569,[-0.27516192],98,53,easy,plus,dotcolour,beta,,,36,18,V,R,
9,9,9,0,0,27,53,1367,['n'],1,right,['2'],5,437,[-0.14106358],100,53,easy,plus,dotcolour,beta,,,36,18,V,R,
10,10,10,0,0,36,44,2050,['n'],1,right,['2'],5,459,[-0.17063797],100,44,hard,plus,dotcolour,beta,,,36,18,V,R,
11,11,11,0,0,36,44,2317,['c'],0,right,['2'],5,1301,[0.14025415],96,44,hard,plus,dotcolour,beta,,,36,18,V,R,
12,12,12,0,0,36,44,1666,['n'],1,right,['2'],5,551,[-0.12738518],99,44,hard,plus,dotcolour,beta,,,36,18,V,R,
13,13,13,0,0,47,33,1567,['c'],1,left,['1'],6,732,[0.18789955],99,47,medium,plus,dotcolour,beta,,,36,18,V,R,
14,14,14,0,0,44,36,2033,['n'],0,left,['9'],2,2078,[-0.07787221],84,44,hard,plus,dotcolour,beta,,,36,18,V,R,
15,15,15,0,0,33,47,2083,['n'],1,right,['2'],5,1305,[-0.24062831],99,47,medium,plus,dotcolour,beta,,,36,18,V,R,
16,16,16,0,0,53,27,1334,['c'],1,left,['1'],6,479,[0.13833749],99,53,easy,plus,dotcolour,beta,,,36,18,V,R,
17,17,17,0,0,33,47,1017,['n'],1,right,['1'],6,469,[-0.16822206],100,47,medium,plus,dotcolour,beta,,,36,18,V,R,
18,18,18,0,0,33,47,900,['n'],1,right,['1'],6,319,[-0.04507156],96,47,medium,plus,dotcolour,beta,,,36,18,V,R,
19,19,19,0,0,53,27,1434,['c'],1,left,['1'],6,387,[0.14005583],100,53,easy,plus,dotcolour,beta,,,36,18,V,R,
20,20,20,0,0,33,47,884,['n'],1,right,['1'],6,498,[-0.24354918],100,47,medium,plus,dotcolour,beta,,,36,18,V,R,
21,21,21,0,0,33,47,1418,['n'],1,right,['1'],6,398,[-0.09923176],99,47,medium,plus,dotcolour,beta,,,36,18,V,R,
22,22,22,0,0,53,27,933,['c'],1,left,['1'],6,331,[0.12336682],100,53,easy,plus,dotcolour,beta,,,36,18,V,R,
23,23,23,0,0,53,27,2467,['c'],1,left,['3'],4,2588,[0.26438877],97,53,easy,plus,dotcolour,beta,,,36,18,V,R,
24,24,24,0,0,44,36,1582,['c'],1,left,['3'],4,1502,[0.05015353],83,44,hard,plus,dotcolour,beta,,,36,18,V,R,
25,25,25,0,0,53,27,1084,['c'],1,left,['1'],6,407,[0.06199969],97,53,easy,plus,dotcolour,beta,,,36,18,V,R,
26,26,26,0,0,36,44,2650,['n'],1,right,['3'],4,1070,[-0.08487472],92,44,hard,plus,dotcolour,beta,,,36,18,V,R,
27,27,27,0,0,47,33,1217,['c'],1,left,['1'],6,451,[0.0475157],94,47,medium,plus,dotcolour,beta,,,36,18,V,R,
28,28,28,0,0,44,36,1284,['c'],1,left,['1'],6,375,[0.11191623],99,44,hard,plus,dotcolour,beta,,,36,18,V,R,
29,29,29,0,0,53,27,1866,['c'],1,left,['3'],4,1783,[0.35784789],100,53,easy,plus,dotcolour,beta,,,36,18,V,R,
30,30,30,0,0,33,47,2400,['n'],1,right,['1'],6,120,[-0.11580822],100,47,medium,plus,dotcolour,beta,,,36,18,V,R,
31,31,31,0,0,27,53,2217,['n'],1,right,['2'],5,1124,[-0.1700965],98,53,easy,plus,dotcolour,beta,,,36,18,V,R,
32,32,32,0,0,44,36,1434,['n'],0,left,['2'],5,398,[-0.0494324],95,44,hard,plus,dotcolour,beta,,,36,18,V,R,
33,33,33,0,0,36,44,1066,['n'],1,right,['2'],5,1165,[-0.16180726],97,44,hard,plus,dotcolour,beta,,,36,18,V,R,
34,34,34,0,0,44,36,1550,['c'],1,left,['1'],6,1201,[0.10311368],93,44,hard,plus,dotcolour,beta,,,36,18,V,R,
35,35,35,0,0,44,36,2250,['c'],1,left,['1'],6,336,[0.00447756],87,44,hard,plus,dotcolour,beta,,,36,18,V,R,
36,36,36,0,0,47,33,2317,['c'],1,left,['1'],6,327,[0.10412039],99,47,medium,plus,dotcolour,beta,,,36,18,V,R,
37,37,37,0,0,27,53,850,['n'],1,right,['1'],6,249,[-0.07593483],99,53,easy,plus,dotcolour,beta,,,36,18,V,R,
38,38,38,0,0,36,44,750,['n'],1,right,['1'],6,147,[-0.02157529],97,44,hard,plus,dotcolour,beta,,,36,18,V,R,
39,39,39,0,0,47,33,1717,['n'],0,left,['2'],5,273,[-0.12481916],100,47,medium,plus,dotcolour,beta,,,36,18,V,R,
40,40,40,0,0,44,36,2116,['c'],1,left,['1'],6,362,[0.11313419],99,44,hard,plus,dotcolour,beta,,,36,18,V,R,
41,41,41,0,0,47,33,1233,['c'],1,left,['1'],6,229,[0.09689394],100,47,medium,plus,dotcolour,beta,,,36,18,V,R,
42,42,0,1,0,27,53,2433,['n'],1,right,['1'],6,383,[-0.09106785],99,53,easy,plus,dotcolour,beta,,,36,18,V,R,
43,43,1,1,0,53,27,2666,['c'],1,left,['3'],4,783,[0.10297931],96,53,easy,plus,dotcolour,beta,,,36,18,V,R,
44,44,2,1,0,36,44,1267,['n'],1,right,['1'],6,294,[-0.13238824],100,44,hard,plus,dotcolour,beta,,,36,18,V,R,
45,45,3,1,0,44,36,2884,['n'],0,left,['2'],5,432,[0.04463285],57,44,hard,plus,dotcolour,beta,,,36,18,V,R,
46,46,4,1,0,47,33,1650,['c'],1,left,['1'],6,174,[0.10155082],100,47,medium,plus,dotcolour,beta,,,36,18,V,R,
47,47,5,1,0,33,47,1150,['n'],1,right,['1'],6,202,[-0.10108688],100,47,medium,plus,dotcolour,beta,,,36,18,V,R,
48,48,6,1,0,33,47,1033,['n'],1,right,['1'],6,138,[-0.10923633],100,47,medium,plus,dotcolour,beta,,,36,18,V,R,
49,49,7,1,0,53,27,1400,['c'],1,left,['1'],6,205,[0.03641897],97,53,easy,plus,dotcolour,beta,,,36,18,V,R,
50,50,8,1,0,47,33,1200,['n'],0,left,['1'],6,207,[-0.05092548],99,47,medium,plus,dotcolour,beta,,,36,18,V,R,
51,51,9,1,0,33,47,1232,['n'],1,right,['1'],6,125,[-0.05231064],100,47,medium,plus,dotcolour,beta,,,36,18,V,R,
52,52,10,1,0,44,36,901,['n'],0,left,['1'],6,117,[0.01021907],92,44,hard,plus,dotcolour,beta,,,36,18,V,R,
53,53,11,1,0,44,36,967,['n'],0,left,['1'],6,163,[-0.09833538],100,44,hard,plus,dotcolour,beta,,,36,18,V,R,
54,54,12,1,0,33,47,717,['n'],1,right,['1'],6,129,[-0.06236024],100,47,medium,plus,dotcolour,beta,,,36,18,V,R,
55,55,13,1,0,27,53,750,['n'],1,right,['1'],6,119,[-0.08777897],100,53,easy,plus,dotcolour,beta,,,36,18,V,R,
56,56,14,1,0,47,33,967,['c'],1,left,['1'],6,189,[0.07407828],100,47,medium,plus,dotcolour,beta,,,36,18,V,R,
57,57,15,1,0,44,36,1216,['c'],1,left,['1'],6,175,[0.03428656],98,44,hard,plus,dotcolour,beta,,,36,18,V,R,
58,58,16,1,0,36,44,750,['n'],1,right,['1'],6,90,[-0.06144576],100,44,hard,plus,dotcolour,beta,,,36,18,V,R,
59,59,17,1,0,44,36,566,['n'],0,left,['1'],6,130,[-0.08691215],100,44,hard,plus,dotcolour,beta,,,36,18,V,R,
60,60,18,1,0,47,33,832,['c'],1,left,['1'],6,163,[0.16459549],100,47,medium,plus,dotcolour,beta,,,36,18,V,R,
61,61,19,1,0,36,44,683,['n'],1,right,['1'],6,60,[-0.01339641],99,44,hard,plus,dotcolour,beta,,,36,18,V,R,
62,62,20,1,0,53,27,651,['c'],1,left,['1'],6,135,[0.12979562],100,53,easy,plus,dotcolour,beta,,,36,18,V,R,
63,63,21,1,0,27,53,833,['n'],1,right,['1'],6,114,[-0.11530186],100,53,easy,plus,dotcolour,beta,,,36,18,V,R,
64,64,22,1,0,36,44,399,['n'],1,right,['1'],6,135,[-0.0785186],100,44,hard,plus,dotcolour,beta,,,36,18,V,R,
65,65,23,1,0,36,44,784,['c'],0,right,['1'],6,179,[0.03848362],98,44,hard,plus,dotcolour,beta,,,36,18,V,R,
66,66,24,1,0,47,33,600,['c'],1,left,['1'],6,213,[0.07861996],99,47,medium,plus,dotcolour,beta,,,36,18,V,R,
67,67,25,1,0,44,36,1116,['c'],1,left,['1'],6,169,[0.06479123],99,44,hard,plus,dotcolour,beta,,,36,18,V,R,
68,68,26,1,0,53,27,800,['c'],1,left,['1'],6,132,[0.13741471],100,53,easy,plus,dotcolour,beta,,,36,18,V,R,
69,69,27,1,0,36,44,1200,['n'],1,right,['1'],6,136,[-0.04617036],99,44,hard,plus,dotcolour,beta,,,36,18,V,R,
70,70,28,1,0,53,27,1700,['n'],0,left,['3'],4,1417,[0.15716286],18,53,easy,plus,dotcolour,beta,,,36,18,V,R,
71,71,29,1,0,53,27,2333,['n'],0,left,['3'],4,4675,[0.35637498],8,53,easy,plus,dotcolour,beta,,,36,18,V,R,
72,72,30,1,0,36,44,2350,['n'],1,right,['1'],6,234,[-0.04905673],98,44,hard,plus,dotcolour,beta,,,36,18,V,R,
73,73,31,1,0,27,53,1067,['n'],1,right,['1'],6,119,[-0.03568733],99,53,easy,plus,dotcolour,beta,,,36,18,V,R,
74,74,32,1,0,27,53,717,['n'],1,right,['1'],6,95,[-0.11615483],100,53,easy,plus,dotcolour,beta,,,36,18,V,R,
75,75,33,1,0,33,47,500,['n'],1,right,['1'],6,104,[-0.05736504],100,47,medium,plus,dotcolour,beta,,,36,18,V,R,
76,76,34,1,0,33,47,783,['n'],1,right,['1'],6,55,[-0.05945815],100,47,medium,plus,dotcolour,beta,,,36,18,V,R,
77,77,35,1,0,27,53,734,['n'],1,right,['1'],6,128,[-0.09287682],100,53,easy,plus,dotcolour,beta,,,36,18,V,R,
78,78,36,1,0,47,33,1333,['n'],0,left,['1'],6,135,[-0.13670232],100,47,medium,plus,dotcolour,beta,,,36,18,V,R,
79,79,37,1,0,33,47,851,['n'],1,right,['1'],6,105,[-0.07856108],100,47,medium,plus,dotcolour,beta,,,36,18,V,R,
80,80,38,1,0,27,53,650,['n'],1,right,['1'],6,84,[-0.0492521],100,53,easy,plus,dotcolour,beta,,,36,18,V,R,
81,81,39,1,0,53,27,401,['n'],0,left,['1'],6,147,[-0.05415742],99,53,easy,plus,dotcolour,beta,,,36,18,V,R,
82,82,40,1,0,47,33,1651,['n'],0,left,['1'],6,116,[-0.03782053],99,47,medium,plus,dotcolour,beta,,,36,18,V,R,
83,83,41,1,0,44,36,2466,['c'],1,left,['1'],6,118,[0.05806575],100,44,hard,plus,dotcolour,beta,,,36,18,V,R,
84,84,0,2,0,36,44,2201,['c'],0,right,['2'],5,966,[-0.23886728],3,44,hard,plus,dotcolour,beta,,,36,18,V,R,
85,85,1,2,0,47,33,1682,['n'],0,left,['2'],5,742,[-0.01377696],81,47,medium,plus,dotcolour,beta,,,36,18,V,R,
86,86,2,2,0,27,53,1351,['n'],1,right,['1'],6,443,[-0.20314403],100,53,easy,plus,dotcolour,beta,,,36,18,V,R,
87,87,3,2,0,44,36,1716,['n'],0,left,['1'],6,190,[-0.04584363],99,44,hard,plus,dotcolour,beta,,,36,18,V,R,
88,88,4,2,0,33,47,1216,['n'],1,right,['1'],6,95,[-0.05416804],100,47,medium,plus,dotcolour,beta,,,36,18,V,R,
89,89,5,2,0,47,33,1733,['n'],0,left,['1'],6,183,[-0.02831045],97,47,medium,plus,dotcolour,beta,,,36,18,V,R,
90,90,6,2,0,33,47,584,['n'],1,right,['1'],6,98,[-0.06395975],100,47,medium,plus,dotcolour,beta,,,36,18,V,R,
91,91,7,2,0,44,36,651,['n'],0,left,['1'],6,93,[-0.02631202],99,44,hard,plus,dotcolour,beta,,,36,18,V,R,
92,92,8,2,0,33,47,533,['n'],1,right,['1'],6,117,[-0.09442068],100,47,medium,plus,dotcolour,beta,,,36,18,V,R,
93,93,9,2,0,47,33,2217,['c'],1,left,['1'],6,153,[0.09049574],100,47,medium,plus,dotcolour,beta,,,36,18,V,R,
94,94,10,2,0,36,44,784,['n'],1,right,['1'],6,124,[-0.11171969],100,44,hard,plus,dotcolour,beta,,,36,18,V,R,
95,95,11,2,0,36,44,900,['n'],1,right,['1'],6,101,[-0.09193322],100,44,hard,plus,dotcolour,beta,,,36,18,V,R,
96,96,12,2,0,36,44,733,['n'],1,right,['1'],6,117,[-0.03302183],99,44,hard,plus,dotcolour,beta,,,36,18,V,R,
97,97,13,2,0,53,27,467,['n'],0,left,['1'],6,279,[-0.02675758],94,53,easy,plus,dotcolour,beta,,,36,18,V,R,
98,98,14,2,0,33,47,1750,['n'],1,right,['1'],6,103,[-0.11529767],100,47,medium,plus,dotcolour,beta,,,36,18,V,R,
99,99,15,2,0,53,27,1617,['c'],1,left,['2'],5,267,[0.11246304],100,53,easy,plus,dotcolour,beta,,,36,18,V,R,
100,100,16,2,0,44,36,2284,['c'],1,left,['2'],5,239,[0.15881531],100,44,hard,plus,dotcolour,beta,,,36,18,V,R,
101,101,17,2,0,53,27,817,['c'],1,left,['2'],5,246,[0.08070871],99,53,easy,plus,dotcolour,beta,,,36,18,V,R,
102,102,18,2,0,33,47,732,['n'],1,right,['1'],6,96,[-0.06309812],100,47,medium,plus,dotcolour,beta,,,36,18,V,R,
103,103,19,2,0,53,27,550,['n'],0,left,['1'],6,191,[-0.07686764],100,53,easy,plus,dotcolour,beta,,,36,18,V,R,
104,104,20,2,0,27,53,467,['n'],1,right,['1'],6,93,[-0.10004051],100,53,easy,plus,dotcolour,beta,,,36,18,V,R,
105,105,21,2,0,36,44,317,['n'],1,right,['1'],6,126,[-0.09358199],100,44,hard,plus,dotcolour,beta,,,36,18,V,R,
106,106,22,2,0,33,47,500,['n'],1,right,['1'],6,118,[-0.0616393],100,47,medium,plus,dotcolour,beta,,,36,18,V,R,
107,107,23,2,0,36,44,317,['n'],1,right,['1'],6,150,[-0.05586788],99,44,hard,plus,dotcolour,beta,,,36,18,V,R,
108,108,24,2,0,53,27,734,['c'],1,left,['1'],6,180,[0.13482726],100,53,easy,plus,dotcolour,beta,,,36,18,V,R,
109,109,25,2,0,36,44,517,['c'],0,right,['1'],6,202,[0.09229408],100,44,hard,plus,dotcolour,beta,,,36,18,V,R,
110,110,26,2,0,44,36,767,['c'],1,left,['1'],6,132,[0.03705487],99,44,hard,plus,dotcolour,beta,,,36,18,V,R,
111,111,27,2,0,53,27,568,['n'],0,left,['9'],2,2849,[0.48094034],1,53,easy,plus,dotcolour,beta,,,36,18,V,R,
112,112,28,2,0,27,53,884,['n'],1,right,['1'],6,109,[-0.07071717],100,53,easy,plus,dotcolour,beta,,,36,18,V,R,
113,113,29,2,0,47,33,1333,['c'],1,left,['2'],5,260,[0.10982261],100,47,medium,plus,dotcolour,beta,,,36,18,V,R,
114,114,30,2,0,47,33,750,['c'],1,left,['2'],5,181,[0.06168977],99,47,medium,plus,dotcolour,beta,,,36,18,V,R,
115,115,31,2,0,44,36,2083,['c'],1,left,['1'],6,372,[0.05286292],96,44,hard,plus,dotcolour,beta,,,36,18,V,R,
116,116,32,2,0,33,47,1433,['n'],1,right,['1'],6,276,[-0.04259578],97,47,medium,plus,dotcolour,beta,,,36,18,V,R,
117,117,33,2,0,53,27,1234,['c'],1,left,['1'],6,241,[0.09069554],100,53,easy,plus,dotcolour,beta,,,36,18,V,R,
118,118,34,2,0,27,53,617,['n'],1,right,['1'],6,144,[-0.11831876],100,53,easy,plus,dotcolour,beta,,,36,18,V,R,
119,119,35,2,0,47,33,616,['c'],1,left,['1'],6,170,[-0.03371997],72,47,medium,plus,dotcolour,beta,,,36,18,V,R,
120,120,36,2,0,27,53,667,['n'],1,right,['1'],6,74,[-0.09122525],100,53,easy,plus,dotcolour,beta,,,36,18,V,R,
121,121,37,2,0,27,53,484,['n'],1,right,['1'],6,117,[-0.0373353],99,53,easy,plus,dotcolour,beta,,,36,18,V,R,
122,122,38,2,0,44,36,633,['n'],0,left,['1'],6,145,[0.027054],79,44,hard,plus,dotcolour,beta,,,36,18,V,R,
123,123,39,2,0,47,33,1133,['c'],1,left,['1'],6,190,[0.08560112],100,47,medium,plus,dotcolour,beta,,,36,18,V,R,
124,124,40,2,0,44,36,367,['c'],1,left,['1'],6,169,[0.15474587],100,44,hard,plus,dotcolour,beta,,,36,18,V,R,
125,125,41,2,0,27,53,533,['n'],1,right,['1'],6,119,[-0.09760142],100,53,easy,plus,dotcolour,beta,,,36,18,V,R,
126,0,0,3,1,33,47,2569,['n'],1,right,['1'],6,135,[-0.08428041],80,47,medium,minus,dotcolour,beta,,,36,18,V,R,
127,1,1,3,1,33,47,667,['n'],1,right,['1'],6,128,[-0.02433083],17,47,medium,minus,dotcolour,beta,,,36,18,V,R,
128,2,2,3,1,36,44,1066,['c'],0,right,['1'],6,178,[0.08444901],77,44,hard,minus,dotcolour,beta,,,36,18,V,R,
129,3,3,3,1,53,27,602,['c'],1,left,['1'],6,148,[0.04741617],41,53,easy,minus,dotcolour,beta,,,36,18,V,R,
130,4,4,3,1,36,44,851,['n'],1,right,['1'],6,109,[-0.04710237],39,44,hard,minus,dotcolour,beta,,,36,18,V,R,
131,5,5,3,1,47,33,4135,['n'],0,left,['3'],4,188,[-0.05978322],54,47,medium,minus,dotcolour,beta,,,36,18,V,R,
132,6,6,3,1,27,53,3367,['n'],1,right,['2'],5,640,[-0.21784431],97,53,easy,minus,dotcolour,beta,,,36,18,V,R,
133,7,7,3,1,47,33,1917,['c'],1,left,['1'],6,970,[0.1952053],93,47,medium,minus,dotcolour,beta,,,36,18,V,R,
134,8,8,3,1,33,47,1366,['n'],1,right,['1'],6,206,[-0.12752107],95,47,medium,minus,dotcolour,beta,,,36,18,V,R,
135,9,9,3,1,33,47,684,['n'],1,right,['1'],6,59,[-0.11833212],99,47,medium,minus,dotcolour,beta,,,36,18,V,R,
136,10,10,3,1,27,53,500,['n'],1,right,['1'],6,70,[-0.12614746],99,53,easy,minus,dotcolour,beta,,,36,18,V,R,
137,11,11,3,1,47,33,1099,['c'],1,left,['1'],6,185,[0.06817129],63,47,medium,minus,dotcolour,beta,,,36,18,V,R,
138,12,12,3,1,27,53,551,['n'],1,right,['1'],6,60,[-0.04578203],33,53,easy,minus,dotcolour,beta,,,36,18,V,R,
139,13,13,3,1,53,27,716,['c'],1,left,['1'],6,190,[0.09529118],84,53,easy,minus,dotcolour,beta,,,36,18,V,R,
140,14,14,3,1,44,36,633,['c'],1,left,['1'],6,214,[0.06717321],61,44,hard,minus,dotcolour,beta,,,36,18,V,R,
141,15,15,3,1,36,44,1501,['n'],1,right,['1'],6,163,[-0.09509594],85,44,hard,minus,dotcolour,beta,,,36,18,V,R,
142,16,16,3,1,33,47,2133,['n'],1,right,['2'],5,465,[-0.15004088],92,47,medium,minus,dotcolour,beta,,,36,18,V,R,
143,17,17,3,1,36,44,1383,['n'],1,right,['2'],5,121,[-0.0471282],39,44,hard,minus,dotcolour,beta,,,36,18,V,R,
144,18,18,3,1,44,36,1734,['c'],1,left,['2'],5,399,[0.12566305],88,44,hard,minus,dotcolour,beta,,,36,18,V,R,
145,19,19,3,1,27,53,1318,['n'],1,right,['1'],6,124,[-0.11694631],96,53,easy,minus,dotcolour,beta,,,36,18,V,R,
146,20,20,3,1,53,27,1250,['c'],1,left,['1'],6,254,[0.03484586],32,53,easy,minus,dotcolour,beta,,,36,18,V,R,
147,21,21,3,1,27,53,1633,['n'],1,right,['1'],6,148,[-0.14422701],98,53,easy,minus,dotcolour,beta,,,36,18,V,R,
148,22,22,3,1,27,53,1951,['n'],1,right,['1'],6,153,[-0.0544791],49,53,easy,minus,dotcolour,beta,,,36,18,V,R,
149,23,23,3,1,44,36,3084,['c'],1,left,['2'],5,457,[0.15987247],94,44,hard,minus,dotcolour,beta,,,36,18,V,R,
150,24,24,3,1,53,27,1050,['c'],1,left,['1'],6,670,[0.09770566],72,53,easy,minus,dotcolour,beta,,,36,18,V,R,
151,25,25,3,1,36,44,2350,['n'],1,right,['3'],4,206,[-0.08522708],76,44,hard,minus,dotcolour,beta,,,36,18,V,R,
152,26,26,3,1,47,33,1250,['n'],0,left,['3'],4,157,[-0.09512045],86,47,medium,minus,dotcolour,beta,,,36,18,V,R,
153,27,27,3,1,27,53,1750,['n'],1,right,['1'],6,921,[-0.34024408],100,53,easy,minus,dotcolour,beta,,,36,18,V,R,
154,28,28,3,1,44,36,2167,['c'],1,left,['1'],6,263,[0.13870606],95,44,hard,minus,dotcolour,beta,,,36,18,V,R,
155,29,29,3,1,36,44,800,['n'],1,right,['1'],6,134,[-0.09406454],87,44,hard,minus,dotcolour,beta,,,36,18,V,R,
156,30,30,3,1,47,33,617,['c'],1,left,['1'],6,169,[0.09455404],85,47,medium,minus,dotcolour,beta,,,36,18,V,R,
157,31,31,3,1,44,36,717,['n'],0,left,['1'],6,95,[-0.04875856],40,44,hard,minus,dotcolour,beta,,,36,18,V,R,
158,32,32,3,1,33,47,666,['c'],0,right,['1'],6,154,[0.01742447],15,47,medium,minus,dotcolour,beta,,,36,18,V,R,
159,33,33,3,1,44,36,1150,['c'],1,left,['1'],6,207,[0.09316396],82,44,hard,minus,dotcolour,beta,,,36,18,V,R,
160,34,34,3,1,53,27,1300,['c'],1,left,['1'],6,171,[0.13489806],97,53,easy,minus,dotcolour,beta,,,36,18,V,R,
161,35,35,3,1,44,36,1167,['n'],0,left,['1'],6,79,[-0.06797091],69,44,hard,minus,dotcolour,beta,,,36,18,V,R,
162,36,36,3,1,53,27,1967,['c'],1,left,['3'],4,223,[0.07852868],71,53,easy,minus,dotcolour,beta,,,36,18,V,R,
163,37,37,3,1,53,27,635,['c'],1,left,['3'],4,205,[0.07047005],64,53,easy,minus,dotcolour,beta,,,36,18,V,R,
164,38,38,3,1,36,44,1467,['n'],1,right,['1'],6,284,[-0.11332042],88,44,hard,minus,dotcolour,beta,,,36,18,V,R,
165,39,39,3,1,47,33,2017,['n'],0,left,['2'],5,106,[-0.05904826],55,47,medium,minus,dotcolour,beta,,,36,18,V,R,
166,40,40,3,1,47,33,1050,['c'],1,left,['2'],5,173,[0.04201007],36,47,medium,minus,dotcolour,beta,,,36,18,V,R,
167,41,41,3,1,33,47,2901,['n'],1,right,['2'],5,1500,[-0.11604097],71,47,medium,minus,dotcolour,beta,,,36,18,V,R,
168,42,0,4,1,47,33,2334,['c'],1,left,['2'],5,474,[0.06224],54,47,medium,minus,dotcolour,beta,,,36,18,V,R,
169,43,1,4,1,33,47,784,['n'],1,right,['2'],5,105,[-0.03329064],22,47,medium,minus,dotcolour,beta,,,36,18,V,R,
170,44,2,4,1,33,47,1950,['n'],1,right,['2'],5,392,[-0.19446273],98,47,medium,minus,dotcolour,beta,,,36,18,V,R,
171,45,3,4,1,44,36,1317,['c'],1,left,['2'],5,429,[0.04877334],45,44,hard,minus,dotcolour,beta,,,36,18,V,R,
172,46,4,4,1,44,36,1284,['c'],1,left,['2'],5,225,[0.0928034],80,44,hard,minus,dotcolour,beta,,,36,18,V,R,
173,47,5,4,1,27,53,533,['c'],0,right,['2'],5,156,[0.0156211],14,53,easy,minus,dotcolour,beta,,,36,18,V,R,
174,48,6,4,1,47,33,1100,['c'],1,left,['2'],5,211,[0.11034729],90,47,medium,minus,dotcolour,beta,,,36,18,V,R,
175,49,7,4,1,36,44,1534,['n'],1,right,['1'],6,110,[-0.1023058],93,44,hard,minus,dotcolour,beta,,,36,18,V,R,
176,50,8,4,1,47,33,1350,['c'],1,left,['2'],5,1094,[0.05159862],48,47,medium,minus,dotcolour,beta,,,36,18,V,R,
177,51,9,4,1,53,27,1050,['c'],1,left,['2'],5,176,[0.08365471],77,53,easy,minus,dotcolour,beta,,,36,18,V,R,
178,52,10,4,1,27,53,667,['n'],1,right,['2'],5,128,[-0.09251892],87,53,easy,minus,dotcolour,beta,,,36,18,V,R,
179,53,11,4,1,53,27,617,['n'],0,left,['2'],5,307,[0.00765754],11,53,easy,minus,dotcolour,beta,,,36,18,V,R,
180,54,12,4,1,36,44,667,['n'],1,right,['2'],5,93,[-0.05492849],49,44,hard,minus,dotcolour,beta,,,36,18,V,R,
181,55,13,4,1,33,47,1250,['n'],1,right,['1'],6,152,[-0.08501316],80,47,medium,minus,dotcolour,beta,,,36,18,V,R,
182,56,14,4,1,53,27,1283,['c'],1,left,['1'],6,160,[0.02337213],19,53,easy,minus,dotcolour,beta,,,36,18,V,R,
183,57,15,4,1,53,27,1101,['c'],1,left,['1'],6,175,[0.06032269],55,53,easy,minus,dotcolour,beta,,,36,18,V,R,
184,58,16,4,1,44,36,1350,['n'],0,left,['2'],5,331,[0.05980198],3,44,hard,minus,dotcolour,beta,,,36,18,V,R,
185,59,17,4,1,36,44,1167,['n'],1,right,['2'],5,121,[-0.091713],87,44,hard,minus,dotcolour,beta,,,36,18,V,R,
186,60,18,4,1,36,44,1334,['n'],1,right,['2'],5,104,[-0.06865335],68,44,hard,minus,dotcolour,beta,,,36,18,V,R,
187,61,19,4,1,53,27,2184,['c'],1,left,['2'],5,910,[0.28333232],99,53,easy,minus,dotcolour,beta,,,36,18,V,R,
188,62,20,4,1,44,36,1650,['n'],0,left,['2'],5,145,[-0.0902412],84,44,hard,minus,dotcolour,beta,,,36,18,V,R,
189,63,21,4,1,27,53,683,['n'],1,right,['2'],5,89,[-0.10351319],95,53,easy,minus,dotcolour,beta,,,36,18,V,R,
190,64,22,4,1,36,44,533,['n'],1,right,['2'],5,65,[-0.11618663],99,44,hard,minus,dotcolour,beta,,,36,18,V,R,
191,65,23,4,1,27,53,516,['n'],1,right,['2'],5,107,[-0.05240243],46,53,easy,minus,dotcolour,beta,,,36,18,V,R,
192,66,24,4,1,33,47,551,['n'],1,right,['2'],5,98,[-0.09267805],89,47,medium,minus,dotcolour,beta,,,36,18,V,R,
193,67,25,4,1,47,33,1383,['c'],1,left,['2'],5,352,[0.13227134],91,47,medium,minus,dotcolour,beta,,,36,18,V,R,
194,68,26,4,1,44,36,1716,['c'],1,left,['2'],5,183,[0.06020132],55,44,hard,minus,dotcolour,beta,,,36,18,V,R,
195,69,27,4,1,47,33,1867,['n'],0,left,['8'],3,3086,[0.16423293],10,47,medium,minus,dotcolour,beta,,,36,18,V,R,
196,70,28,4,1,47,33,1550,['c'],1,left,['3'],4,365,[0.02900365],31,47,medium,minus,dotcolour,beta,,,36,18,V,R,
197,71,29,4,1,44,36,2084,['c'],1,left,['3'],4,164,[0.07880768],74,44,hard,minus,dotcolour,beta,,,36,18,V,R,
198,72,30,4,1,53,27,1350,['c'],1,left,['2'],5,304,[0.10245664],82,53,easy,minus,dotcolour,beta,,,36,18,V,R,
199,73,31,4,1,27,53,967,['n'],1,right,['2'],5,271,[-0.09837221],81,53,easy,minus,dotcolour,beta,,,36,18,V,R,
200,74,32,4,1,53,27,1284,['c'],1,left,['2'],5,266,[0.10348333],84,53,easy,minus,dotcolour,beta,,,36,18,V,R,
201,75,33,4,1,47,33,1966,['c'],1,left,['3'],4,1394,[0.1143552],71,47,medium,minus,dotcolour,beta,,,36,18,V,R,
202,76,34,4,1,27,53,917,['n'],1,right,['2'],5,343,[-0.05878201],52,53,easy,minus,dotcolour,beta,,,36,18,V,R,
203,77,35,4,1,44,36,2235,['n'],0,left,['3'],4,209,[-0.11344889],91,44,hard,minus,dotcolour,beta,,,36,18,V,R,
204,78,36,4,1,33,47,1550,['n'],1,right,['3'],4,163,[-0.10303799],89,47,medium,minus,dotcolour,beta,,,36,18,V,R,
205,79,37,4,1,33,47,1016,['n'],1,right,['3'],4,158,[-0.04802878],42,47,medium,minus,dotcolour,beta,,,36,18,V,R,
206,80,38,4,1,33,47,2850,['n'],1,right,['1'],6,151,[-0.07302775],69,47,medium,minus,dotcolour,beta,,,36,18,V,R,
207,81,39,4,1,36,44,1050,['n'],1,right,['1'],6,119,[-0.05898504],54,44,hard,minus,dotcolour,beta,,,36,18,V,R,
208,82,40,4,1,36,44,1717,['n'],1,right,['2'],5,119,[-0.07943195],78,44,hard,minus,dotcolour,beta,,,36,18,V,R,
209,83,41,4,1,27,53,933,['n'],1,right,['1'],6,103,[-0.05169269],45,53,easy,minus,dotcolour,beta,,,36,18,V,R,
210,84,0,5,1,47,33,2450,['c'],1,left,['2'],5,1237,[0.26041413],96,47,medium,minus,dotcolour,beta,,,36,18,V,R,
211,85,1,5,1,27,53,850,['n'],1,right,['1'],6,258,[-0.17548564],99,53,easy,minus,dotcolour,beta,,,36,18,V,R,
212,86,2,5,1,27,53,917,['n'],1,right,['1'],6,236,[-0.13230644],94,53,easy,minus,dotcolour,beta,,,36,18,V,R,
213,87,3,5,1,53,27,1183,['c'],1,left,['1'],6,180,[0.06734018],62,53,easy,minus,dotcolour,beta,,,36,18,V,R,
214,88,4,5,1,33,47,583,['n'],1,right,['1'],6,112,[-0.08495674],83,47,medium,minus,dotcolour,beta,,,36,18,V,R,
215,89,5,5,1,27,53,417,['n'],1,right,['1'],6,68,[-0.11468729],98,53,easy,minus,dotcolour,beta,,,36,18,V,R,
216,90,6,5,1,44,36,1133,['n'],0,left,['1'],6,85,[-0.09006007],89,44,hard,minus,dotcolour,beta,,,36,18,V,R,
217,91,7,5,1,27,53,485,['n'],1,right,['1'],6,184,[-0.18596606],100,53,easy,minus,dotcolour,beta,,,36,18,V,R,
218,92,8,5,1,27,53,433,['n'],1,right,['1'],6,96,[-0.06487903],63,53,easy,minus,dotcolour,beta,,,36,18,V,R,
219,93,9,5,1,44,36,599,['n'],0,left,['1'],6,109,[-0.02320264],15,44,hard,minus,dotcolour,beta,,,36,18,V,R,
220,94,10,5,1,53,27,1433,['c'],1,left,['1'],6,169,[0.11694836],94,53,easy,minus,dotcolour,beta,,,36,18,V,R,
221,95,11,5,1,36,44,650,['n'],1,right,['1'],6,89,[-0.049719],41,44,hard,minus,dotcolour,beta,,,36,18,V,R,
222,96,12,5,1,44,36,950,['c'],1,left,['1'],6,265,[0.03759138],35,44,hard,minus,dotcolour,beta,,,36,18,V,R,
223,97,13,5,1,33,47,1183,['n'],1,right,['2'],5,433,[-0.23364901],99,47,medium,minus,dotcolour,beta,,,36,18,V,R,
224,98,14,5,1,53,27,1384,['c'],1,left,['2'],5,258,[0.1327932],94,53,easy,minus,dotcolour,beta,,,36,18,V,R,
225,99,15,5,1,44,36,767,['c'],1,left,['2'],5,306,[0.06324203],56,44,hard,minus,dotcolour,beta,,,36,18,V,R,
226,100,16,5,1,27,53,700,['n'],1,right,['1'],6,122,[-0.00813264],8,53,easy,minus,dotcolour,beta,,,36,18,V,R,
227,101,17,5,1,44,36,1333,['c'],1,left,['1'],6,290,[0.11811129],89,44,hard,minus,dotcolour,beta,,,36,18,V,R,
228,102,18,5,1,44,36,2400,['n'],0,left,['1'],6,135,[-0.06722215],64,44,hard,minus,dotcolour,beta,,,36,18,V,R,
229,103,19,5,1,36,44,1533,['n'],1,right,['2'],5,238,[-0.01406035],18,44,hard,minus,dotcolour,beta,,,36,18,V,R,
230,104,20,5,1,47,33,1117,['c'],1,left,['2'],5,225,[0.14106536],96,47,medium,minus,dotcolour,beta,,,36,18,V,R,
231,105,21,5,1,36,44,2717,['c'],0,right,['3'],4,1148,[0.08845907],63,44,hard,minus,dotcolour,beta,,,36,18,V,R,
232,106,22,5,1,36,44,1584,['n'],1,right,['1'],6,96,[-0.09502082],91,44,hard,minus,dotcolour,beta,,,36,18,V,R,
233,107,23,5,1,53,27,1867,['c'],1,left,['1'],6,130,[0.14066792],99,53,easy,minus,dotcolour,beta,,,36,18,V,R,
234,108,24,5,1,36,44,2467,['n'],1,right,['8'],3,476,[-0.15479796],93,44,hard,minus,dotcolour,beta,,,36,18,V,R,
235,109,25,5,1,53,27,4216,['c'],1,left,['3'],4,1417,[0.22711754],93,53,easy,minus,dotcolour,beta,,,36,18,V,R,
236,110,26,5,1,47,33,1084,['c'],1,left,['2'],5,1174,[0.22318738],94,47,medium,minus,dotcolour,beta,,,36,18,V,R,
237,111,27,5,1,36,44,801,['n'],1,right,['2'],5,272,[-0.07927808],69,44,hard,minus,dotcolour,beta,,,36,18,V,R,
238,112,28,5,1,47,33,833,['c'],1,left,['2'],5,149,[0.11588556],94,47,medium,minus,dotcolour,beta,,,36,18,V,R,
239,113,29,5,1,33,47,583,['n'],1,right,['1'],6,1241,[-0.15303185],83,47,medium,minus,dotcolour,beta,,,36,18,V,R,
240,114,30,5,1,27,53,616,['n'],1,right,['1'],6,159,[-0.09069104],83,53,easy,minus,dotcolour,beta,,,36,18,V,R,
241,115,31,5,1,47,33,1333,['c'],1,left,['2'],5,381,[0.07339764],63,47,medium,minus,dotcolour,beta,,,36,18,V,R,
242,116,32,5,1,47,33,1150,['n'],0,left,['2'],5,440,[-0.11851898],85,47,medium,minus,dotcolour,beta,,,36,18,V,R,
243,117,33,5,1,33,47,701,['n'],1,right,['2'],5,164,[-0.09027952],82,47,medium,minus,dotcolour,beta,,,36,18,V,R,
244,118,34,5,1,47,33,1250,['c'],1,left,['2'],5,309,[0.07936205],68,47,medium,minus,dotcolour,beta,,,36,18,V,R,
245,119,35,5,1,53,27,1016,['c'],1,left,['2'],5,225,[0.15305981],98,53,easy,minus,dotcolour,beta,,,36,18,V,R,
246,120,36,5,1,33,47,917,['n'],1,right,['1'],6,204,[-0.11417499],91,47,medium,minus,dotcolour,beta,,,36,18,V,R,
247,121,37,5,1,36,44,751,['n'],1,right,['1'],6,191,[-0.07284704],67,44,hard,minus,dotcolour,beta,,,36,18,V,R,
248,122,38,5,1,33,47,568,['n'],1,right,['1'],6,162,[-0.16716593],99,47,medium,minus,dotcolour,beta,,,36,18,V,R,
249,123,39,5,1,53,27,651,['n'],0,left,['2'],5,171,[-0.03587569],30,53,easy,minus,dotcolour,beta,,,36,18,V,R,
250,124,40,5,1,33,47,717,['n'],1,right,['1'],6,145,[-0.12177127],96,47,medium,minus,dotcolour,beta,,,36,18,V,R,
251,125,41,5,1,44,36,1083,['n'],0,left,['1'],6,257,[-0.04363195],40,44,hard,minus,dotcolour,beta,,,36,18,V,R,
252,0,0,6,2,53,27,1234,['c'],1,left,['2'],5,1026,[0.21542512],99,53,easy,plus,dotcolour,beta,,,36,18,V,R,
253,1,1,6,2,53,27,1300,['c'],1,left,['2'],5,55,[0.07332366],100,53,easy,plus,dotcolour,beta,,,36,18,V,R,
254,2,2,6,2,27,53,783,['n'],1,right,['2'],5,78,[-0.04634553],100,53,easy,plus,dotcolour,beta,,,36,18,V,R,
255,3,3,6,2,36,44,950,['n'],1,right,['2'],5,350,[-0.09838667],99,44,hard,plus,dotcolour,beta,,,36,18,V,R,
256,4,4,6,2,33,47,716,['n'],1,right,['2'],5,173,[-0.09377817],100,47,medium,plus,dotcolour,beta,,,36,18,V,R,
257,5,5,6,2,27,53,2000,['c'],0,right,['2'],5,150,[0.06021039],100,53,easy,plus,dotcolour,beta,,,36,18,V,R,
258,6,6,6,2,33,47,901,['n'],1,right,['2'],5,95,[-0.08700007],100,47,medium,plus,dotcolour,beta,,,36,18,V,R,
259,7,7,6,2,47,33,783,['c'],1,left,['2'],5,140,[0.11485221],100,47,medium,plus,dotcolour,beta,,,36,18,V,R,
260,8,8,6,2,47,33,1234,['c'],1,left,['2'],5,254,[0.08898151],99,47,medium,plus,dotcolour,beta,,,36,18,V,R,
261,9,9,6,2,44,36,916,['n'],0,left,['2'],5,97,[-0.12535882],100,44,hard,plus,dotcolour,beta,,,36,18,V,R,
262,10,10,6,2,53,27,700,['n'],0,left,['2'],5,114,[-0.08775304],100,53,easy,plus,dotcolour,beta,,,36,18,V,R,
263,11,11,6,2,47,33,684,['n'],0,left,['2'],5,116,[-0.05826347],100,47,medium,plus,dotcolour,beta,,,36,18,V,R,
264,12,12,6,2,47,33,1016,['c'],1,left,['2'],5,144,[0.04246328],99,47,medium,plus,dotcolour,beta,,,36,18,V,R,
265,13,13,6,2,44,36,1834,['c'],1,left,['2'],5,137,[0.09426453],100,44,hard,plus,dotcolour,beta,,,36,18,V,R,
266,14,14,6,2,36,44,1234,['n'],1,right,['1'],6,85,[-0.09086875],100,44,hard,plus,dotcolour,beta,,,36,18,V,R,
267,15,15,6,2,27,53,634,['n'],1,right,['1'],6,121,[-0.09631249],100,53,easy,plus,dotcolour,beta,,,36,18,V,R,
268,16,16,6,2,33,47,767,['n'],1,right,['1'],6,143,[-0.07624562],100,47,medium,plus,dotcolour,beta,,,36,18,V,R,
269,17,17,6,2,33,47,699,['n'],1,right,['1'],6,102,[-0.02892644],99,47,medium,plus,dotcolour,beta,,,36,18,V,R,
270,18,18,6,2,53,27,1567,['c'],1,left,['1'],6,173,[0.13254292],100,53,easy,plus,dotcolour,beta,,,36,18,V,R,
271,19,19,6,2,33,47,600,['n'],1,right,['1'],6,167,[-0.03631932],98,47,medium,plus,dotcolour,beta,,,36,18,V,R,
272,20,20,6,2,36,44,634,['n'],1,right,['1'],6,144,[-0.11849499],100,44,hard,plus,dotcolour,beta,,,36,18,V,R,
273,21,21,6,2,33,47,533,['n'],1,right,['1'],6,110,[-0.09402294],100,47,medium,plus,dotcolour,beta,,,36,18,V,R,
274,22,22,6,2,47,33,950,['c'],1,left,['1'],6,181,[0.11643312],100,47,medium,plus,dotcolour,beta,,,36,18,V,R,
275,23,23,6,2,27,53,533,['n'],1,right,['1'],6,82,[-0.07184937],100,53,easy,plus,dotcolour,beta,,,36,18,V,R,
276,24,24,6,2,27,53,500,['n'],1,right,['1'],6,132,[-0.03493947],99,53,easy,plus,dotcolour,beta,,,36,18,V,R,
277,25,25,6,2,47,33,784,['c'],1,left,['1'],6,177,[0.10856037],100,47,medium,plus,dotcolour,beta,,,36,18,V,R,
278,26,26,6,2,53,27,767,['c'],1,left,['1'],6,236,[0.14620677],100,53,easy,plus,dotcolour,beta,,,36,18,V,R,
279,27,27,6,2,53,27,718,['c'],1,left,['1'],6,231,[0.14725002],100,53,easy,plus,dotcolour,beta,,,36,18,V,R,
280,28,28,6,2,27,53,701,['n'],1,right,['1'],6,307,[-0.14493661],100,53,easy,plus,dotcolour,beta,,,36,18,V,R,
281,29,29,6,2,36,44,683,['n'],1,right,['1'],6,124,[-0.06443518],100,44,hard,plus,dotcolour,beta,,,36,18,V,R,
282,30,30,6,2,44,36,600,['c'],1,left,['1'],6,209,[0.09320998],100,44,hard,plus,dotcolour,beta,,,36,18,V,R,
283,31,31,6,2,44,36,800,['n'],0,left,['1'],6,121,[-0.0956101],100,44,hard,plus,dotcolour,beta,,,36,18,V,R,
284,32,32,6,2,47,33,684,['c'],1,left,['1'],6,251,[0.09376144],100,47,medium,plus,dotcolour,beta,,,36,18,V,R,
285,33,33,6,2,44,36,751,['n'],0,left,['8'],3,3116,[-0.03613736],72,44,hard,plus,dotcolour,beta,,,36,18,V,R,
286,34,34,6,2,44,36,1383,['c'],1,left,['1'],6,176,[0.06675603],99,44,hard,plus,dotcolour,beta,,,36,18,V,R,
287,35,35,6,2,36,44,733,['n'],1,right,['1'],6,78,[-0.10578019],100,44,hard,plus,dotcolour,beta,,,36,18,V,R,
288,36,36,6,2,44,36,767,['c'],1,left,['1'],6,124,[0.05150225],100,44,hard,plus,dotcolour,beta,,,36,18,V,R,
289,37,37,6,2,27,53,550,['n'],1,right,['1'],6,114,[-0.0857684],100,53,easy,plus,dotcolour,beta,,,36,18,V,R,
290,38,38,6,2,33,47,450,['n'],1,right,['1'],6,125,[-0.06157538],100,47,medium,plus,dotcolour,beta,,,36,18,V,R,
291,39,39,6,2,36,44,534,['n'],1,right,['1'],6,100,[-0.10021403],100,44,hard,plus,dotcolour,beta,,,36,18,V,R,
292,40,40,6,2,36,44,684,['n'],1,right,['1'],6,174,[-0.13449459],100,44,hard,plus,dotcolour,beta,,,36,18,V,R,
293,41,41,6,2,53,27,533,['c'],1,left,['1'],6,147,[0.12370391],100,53,easy,plus,dotcolour,beta,,,36,18,V,R,
294,42,0,7,2,44,36,2034,['n'],0,left,['1'],6,681,[-0.28373845],100,44,hard,plus,dotcolour,beta,,,36,18,V,R,
295,43,1,7,2,33,47,900,['n'],1,right,['2'],5,435,[-0.23684025],100,47,medium,plus,dotcolour,beta,,,36,18,V,R,
296,44,2,7,2,33,47,601,['n'],1,right,['2'],5,188,[-0.07565457],100,47,medium,plus,dotcolour,beta,,,36,18,V,R,
297,45,3,7,2,33,47,584,['n'],1,right,['2'],5,158,[-0.03788577],99,47,medium,plus,dotcolour,beta,,,36,18,V,R,
298,46,4,7,2,36,44,550,['n'],1,right,['2'],5,155,[-0.09913077],100,44,hard,plus,dotcolour,beta,,,36,18,V,R,
299,47,5,7,2,47,33,867,['n'],0,left,['2'],5,171,[-0.07518053],100,47,medium,plus,dotcolour,beta,,,36,18,V,R,
300,48,6,7,2,44,36,867,['n'],0,left,['2'],5,91,[-0.08314216],100,44,hard,plus,dotcolour,beta,,,36,18,V,R,
301,49,7,7,2,44,36,717,['c'],1,left,['2'],5,108,[0.04979041],100,44,hard,plus,dotcolour,beta,,,36,18,V,R,
302,50,8,7,2,47,33,950,['c'],1,left,['2'],5,107,[0.0269942],99,47,medium,plus,dotcolour,beta,,,36,18,V,R,
303,51,9,7,2,47,33,734,['n'],0,left,['2'],5,138,[-0.17732041],100,47,medium,plus,dotcolour,beta,,,36,18,V,R,
304,52,10,7,2,33,47,1084,['n'],1,right,['2'],5,67,[-0.09443007],100,47,medium,plus,dotcolour,beta,,,36,18,V,R,
305,53,11,7,2,27,53,917,['n'],1,right,['1'],6,149,[-0.09748614],100,53,easy,plus,dotcolour,beta,,,36,18,V,R,
306,54,12,7,2,36,44,917,['n'],1,right,['1'],6,228,[-0.12044876],100,44,hard,plus,dotcolour,beta,,,36,18,V,R,
307,55,13,7,2,47,33,1800,['c'],1,left,['2'],5,212,[0.12233461],100,47,medium,plus,dotcolour,beta,,,36,18,V,R,
308,56,14,7,2,47,33,2583,['c'],1,left,['9'],2,541,[0.1011185],98,47,medium,plus,dotcolour,beta,,,36,18,V,R,
309,57,15,7,2,36,44,1300,['n'],1,right,['2'],5,284,[-0.07824785],99,44,hard,plus,dotcolour,beta,,,36,18,V,R,
310,58,16,7,2,53,27,1466,['c'],1,left,['2'],5,448,[0.09776261],98,53,easy,plus,dotcolour,beta,,,36,18,V,R,
311,59,17,7,2,27,53,683,['n'],1,right,['1'],6,1084,[-0.14824344],97,53,easy,plus,dotcolour,beta,,,36,18,V,R,
312,60,18,7,2,27,53,1468,['n'],1,right,['1'],6,86,[-0.04837222],100,53,easy,plus,dotcolour,beta,,,36,18,V,R,
313,61,19,7,2,33,47,818,['n'],1,right,['1'],6,92,[-0.02037666],99,47,medium,plus,dotcolour,beta,,,36,18,V,R,
314,62,20,7,2,53,27,900,['c'],1,left,['1'],6,221,[0.17651638],100,53,easy,plus,dotcolour,beta,,,36,18,V,R,
315,63,21,7,2,53,27,1333,['n'],0,left,['2'],5,408,[-0.0067184],85,53,easy,plus,dotcolour,beta,,,36,18,V,R,
316,64,22,7,2,27,53,1050,['n'],1,right,['1'],6,151,[-0.04726581],99,53,easy,plus,dotcolour,beta,,,36,18,V,R,
317,65,23,7,2,53,27,834,['c'],1,left,['1'],6,233,[0.07744428],99,53,easy,plus,dotcolour,beta,,,36,18,V,R,
318,66,24,7,2,44,36,1017,['n'],0,left,['1'],6,152,[-0.04047458],99,44,hard,plus,dotcolour,beta,,,36,18,V,R,
319,67,25,7,2,27,53,634,['n'],1,right,['1'],6,66,[-0.08437813],100,53,easy,plus,dotcolour,beta,,,36,18,V,R,
320,68,26,7,2,44,36,801,['n'],0,left,['1'],6,129,[-0.04222214],99,44,hard,plus,dotcolour,beta,,,36,18,V,R,
321,69,27,7,2,36,44,717,['n'],1,right,['1'],6,136,[-0.0595874],100,44,hard,plus,dotcolour,beta,,,36,18,V,R,
322,70,28,7,2,47,33,766,['n'],0,left,['1'],6,158,[-0.11800586],100,47,medium,plus,dotcolour,beta,,,36,18,V,R,
323,71,29,7,2,44,36,700,['n'],0,left,['1'],6,181,[-0.15172516],100,44,hard,plus,dotcolour,beta,,,36,18,V,R,
324,72,30,7,2,33,47,817,['n'],1,right,['1'],6,302,[-0.05707822],98,47,medium,plus,dotcolour,beta,,,36,18,V,R,
325,73,31,7,2,53,27,718,['c'],1,left,['2'],5,39,[0.08229775],100,53,easy,plus,dotcolour,beta,,,36,18,V,R,
326,74,32,7,2,47,33,1116,['c'],1,left,['1'],6,98,[0.04848262],100,47,medium,plus,dotcolour,beta,,,36,18,V,R,
327,75,33,7,2,36,44,1200,['n'],1,right,['1'],6,15,[-0.07194596],100,44,hard,plus,dotcolour,beta,,,36,18,V,R,
328,76,34,7,2,33,47,1584,['n'],1,right,['1'],6,57,[-0.09545944],100,47,medium,plus,dotcolour,beta,,,36,18,V,R,
329,77,35,7,2,53,27,733,['c'],1,left,['1'],6,139,[0.08384553],100,53,easy,plus,dotcolour,beta,,,36,18,V,R,
330,78,36,7,2,27,53,600,['n'],1,right,['1'],6,39,[-0.05839822],100,53,easy,plus,dotcolour,beta,,,36,18,V,R,
331,79,37,7,2,36,44,500,['n'],1,right,['1'],6,91,[-0.10653978],100,44,hard,plus,dotcolour,beta,,,36,18,V,R,
332,80,38,7,2,44,36,733,['c'],1,left,['1'],6,18,[0.05583303],100,44,hard,plus,dotcolour,beta,,,36,18,V,R,
333,81,39,7,2,53,27,817,['n'],0,left,['1'],6,171,[-0.0943076],100,53,easy,plus,dotcolour,beta,,,36,18,V,R,
334,82,40,7,2,36,44,601,['n'],1,right,['1'],6,101,[-0.11335727],100,44,hard,plus,dotcolour,beta,,,36,18,V,R,
335,83,41,7,2,27,53,633,['n'],1,right,['1'],6,145,[-0.08061756],100,53,easy,plus,dotcolour,beta,,,36,18,V,R,
336,84,0,8,2,27,53,885,['n'],1,right,['1'],6,822,[-0.19474042],99,53,easy,plus,dotcolour,beta,,,36,18,V,R,
337,85,1,8,2,33,47,533,['n'],1,right,['1'],6,105,[-0.11207332],100,47,medium,plus,dotcolour,beta,,,36,18,V,R,
338,86,2,8,2,27,53,500,['n'],1,right,['1'],6,90,[-0.05994823],100,53,easy,plus,dotcolour,beta,,,36,18,V,R,
339,87,3,8,2,44,36,467,['n'],0,left,['1'],6,205,[-0.1074454],100,44,hard,plus,dotcolour,beta,,,36,18,V,R,
340,88,4,8,2,27,53,550,['n'],1,right,['1'],6,80,[-0.12575738],100,53,easy,plus,dotcolour,beta,,,36,18,V,R,
341,89,5,8,2,36,44,384,['n'],1,right,['1'],6,95,[-0.11143582],100,44,hard,plus,dotcolour,beta,,,36,18,V,R,
342,90,6,8,2,47,33,784,['c'],1,left,['1'],6,125,[0.09307677],100,47,medium,plus,dotcolour,beta,,,36,18,V,R,
343,91,7,8,2,36,44,550,['n'],1,right,['1'],6,59,[-0.08797912],100,44,hard,plus,dotcolour,beta,,,36,18,V,R,
344,92,8,8,2,47,33,783,['n'],0,left,['1'],6,178,[-0.02888403],97,47,medium,plus,dotcolour,beta,,,36,18,V,R,
345,93,9,8,2,53,27,683,['n'],0,left,['2'],5,377,[0.09779014],22,53,easy,plus,dotcolour,beta,,,36,18,V,R,
346,94,10,8,2,44,36,867,['c'],1,left,['2'],5,184,[0.03807941],98,44,hard,plus,dotcolour,beta,,,36,18,V,R,
347,95,11,8,2,36,44,1050,['n'],1,right,['1'],6,72,[-0.09001455],100,44,hard,plus,dotcolour,beta,,,36,18,V,R,
348,96,12,8,2,53,27,666,['c'],1,left,['2'],5,156,[0.15228226],100,53,easy,plus,dotcolour,beta,,,36,18,V,R,
349,97,13,8,2,36,44,783,['c'],0,right,['2'],5,168,[0.07121675],100,44,hard,plus,dotcolour,beta,,,36,18,V,R,
350,98,14,8,2,33,47,933,['n'],1,right,['2'],5,253,[-0.18804057],100,47,medium,plus,dotcolour,beta,,,36,18,V,R,
351,99,15,8,2,53,27,1034,['c'],1,left,['2'],5,171,[0.12785691],100,53,easy,plus,dotcolour,beta,,,36,18,V,R,
352,100,16,8,2,44,36,883,['n'],0,left,['2'],5,122,[-0.0710067],100,44,hard,plus,dotcolour,beta,,,36,18,V,R,
353,101,17,8,2,44,36,1367,['c'],1,left,['2'],5,192,[0.06905992],99,44,hard,plus,dotcolour,beta,,,36,18,V,R,
354,102,18,8,2,27,53,599,['n'],1,right,['2'],5,89,[-0.10557961],100,53,easy,plus,dotcolour,beta,,,36,18,V,R,
355,103,19,8,2,33,47,884,['n'],1,right,['2'],5,85,[-0.13642478],100,47,medium,plus,dotcolour,beta,,,36,18,V,R,
356,104,20,8,2,33,47,634,['n'],1,right,['2'],5,137,[-0.03319646],99,47,medium,plus,dotcolour,beta,,,36,18,V,R,
357,105,21,8,2,53,27,734,['c'],1,left,['2'],5,183,[0.17220031],100,53,easy,plus,dotcolour,beta,,,36,18,V,R,
358,106,22,8,2,44,36,1133,['c'],1,left,['2'],5,140,[0.13518427],100,44,hard,plus,dotcolour,beta,,,36,18,V,R,
359,107,23,8,2,47,33,733,['c'],1,left,['2'],5,130,[0.16317479],100,47,medium,plus,dotcolour,beta,,,36,18,V,R,
360,108,24,8,2,47,33,833,['n'],0,left,['2'],5,93,[-0.08393582],100,47,medium,plus,dotcolour,beta,,,36,18,V,R,
361,109,25,8,2,47,33,833,['n'],0,left,['2'],5,65,[-0.0495298],100,47,medium,plus,dotcolour,beta,,,36,18,V,R,
362,110,26,8,2,47,33,1399,['c'],1,left,['2'],5,152,[0.13677711],100,47,medium,plus,dotcolour,beta,,,36,18,V,R,
363,111,27,8,2,27,53,667,['n'],1,right,['2'],5,88,[-0.10471511],100,53,easy,plus,dotcolour,beta,,,36,18,V,R,
364,112,28,8,2,44,36,1217,['c'],1,left,['2'],5,126,[0.04342536],99,44,hard,plus,dotcolour,beta,,,36,18,V,R,
365,113,29,8,2,33,47,917,['n'],1,right,['2'],5,69,[-0.0541604],100,47,medium,plus,dotcolour,beta,,,36,18,V,R,
366,114,30,8,2,44,36,533,['c'],1,left,['2'],5,190,[0.05181417],99,44,hard,plus,dotcolour,beta,,,36,18,V,R,
367,115,31,8,2,53,27,683,['c'],1,left,['2'],5,156,[0.05338981],99,53,easy,plus,dotcolour,beta,,,36,18,V,R,
368,116,32,8,2,36,44,650,['n'],1,right,['1'],6,189,[-0.1344973],100,44,hard,plus,dotcolour,beta,,,36,18,V,R,
369,117,33,8,2,47,33,700,['c'],1,left,['2'],5,370,[0.0625489],97,47,medium,plus,dotcolour,beta,,,36,18,V,R,
370,118,34,8,2,36,44,585,['n'],1,right,['2'],5,174,[-0.10442766],100,44,hard,plus,dotcolour,beta,,,36,18,V,R,
371,119,35,8,2,53,27,785,['n'],0,left,['9'],2,2744,[0.49502608],1,53,easy,plus,dotcolour,beta,,,36,18,V,R,
372,120,36,8,2,27,53,1284,['n'],1,right,['2'],5,224,[-0.13659791],100,53,easy,plus,dotcolour,beta,,,36,18,V,R,
373,121,37,8,2,53,27,1617,['n'],0,left,['2'],5,71,[-0.05019109],100,53,easy,plus,dotcolour,beta,,,36,18,V,R,
374,122,38,8,2,36,44,833,['n'],1,right,['2'],5,124,[-0.08772964],100,44,hard,plus,dotcolour,beta,,,36,18,V,R,
375,123,39,8,2,27,53,667,['n'],1,right,['2'],5,214,[-0.09709107],100,53,easy,plus,dotcolour,beta,,,36,18,V,R,
376,124,40,8,2,33,47,683,['n'],1,right,['2'],5,139,[-0.1300126],100,47,medium,plus,dotcolour,beta,,,36,18,V,R,
377,125,41,8,2,33,47,600,['n'],1,right,['2'],5,119,[-0.08337184],100,47,medium,plus,dotcolour,beta,,,36,18,V,R,
378,0,0,9,3,33,47,1984,['n'],1,right,['1'],6,271,[-0.00772476],16,47,medium,minus,dotcolour,beta,,,36,18,V,R,
379,1,1,9,3,53,27,784,['c'],1,left,['2'],5,159,[0.03037066],24,53,easy,minus,dotcolour,beta,,,36,18,V,R,
380,2,2,9,3,44,36,1435,['c'],1,left,['2'],5,392,[0.07938374],66,44,hard,minus,dotcolour,beta,,,36,18,V,R,
381,3,3,9,3,27,53,634,['n'],1,right,['1'],6,328,[-0.15816975],96,53,easy,minus,dotcolour,beta,,,36,18,V,R,
382,4,4,9,3,33,47,550,['n'],1,right,['1'],6,190,[-0.0260607],23,47,medium,minus,dotcolour,beta,,,36,18,V,R,
383,5,5,9,3,47,33,567,['n'],0,left,['9'],2,1521,[0.08184316],12,47,medium,minus,dotcolour,beta,,,36,18,V,R,
384,6,6,9,3,44,36,983,['c'],1,left,['2'],5,181,[0.0400903],34,44,hard,minus,dotcolour,beta,,,36,18,V,R,
385,7,7,9,3,53,27,750,['c'],1,left,['3'],4,2769,[0.53648364],99,53,easy,minus,dotcolour,beta,,,36,18,V,R,
386,8,8,9,3,33,47,2200,['c'],0,right,['3'],4,379,[0.09094914],74,47,medium,minus,dotcolour,beta,,,36,18,V,R,
387,9,9,9,3,27,53,1582,['n'],1,right,['1'],6,102,[-0.09896167],92,53,easy,minus,dotcolour,beta,,,36,18,V,R,
388,10,10,9,3,44,36,2284,['c'],1,left,['3'],4,1776,[0.15982434],80,44,hard,minus,dotcolour,beta,,,36,18,V,R,
389,11,11,9,3,33,47,1200,['n'],1,right,['1'],6,129,[-0.15383229],99,47,medium,minus,dotcolour,beta,,,36,18,V,R,
390,12,12,9,3,36,44,567,['n'],1,right,['1'],6,79,[-0.04450367],33,44,hard,minus,dotcolour,beta,,,36,18,V,R,
391,13,13,9,3,36,44,934,['n'],1,right,['1'],6,95,[-0.01856984],10,44,hard,minus,dotcolour,beta,,,36,18,V,R,
392,14,14,9,3,47,33,1984,['c'],1,left,['1'],6,149,[0.09094225],84,47,medium,minus,dotcolour,beta,,,36,18,V,R,
393,15,15,9,3,44,36,1283,['n'],0,left,['2'],5,245,[-0.03157567],29,44,hard,minus,dotcolour,beta,,,36,18,V,R,
394,16,16,9,3,47,33,933,['c'],1,left,['2'],5,143,[0.05917344],54,47,medium,minus,dotcolour,beta,,,36,18,V,R,
395,17,17,9,3,44,36,850,['n'],0,left,['1'],6,105,[-0.01764257],11,44,hard,minus,dotcolour,beta,,,36,18,V,R,
396,18,18,9,3,33,47,850,['n'],1,right,['1'],6,76,[-0.07725955],80,47,medium,minus,dotcolour,beta,,,36,18,V,R,
397,19,19,9,3,44,36,983,['n'],0,left,['1'],6,122,[-0.04945282],42,44,hard,minus,dotcolour,beta,,,36,18,V,R,
398,20,20,9,3,36,44,734,['n'],1,right,['1'],6,65,[-0.10388513],97,44,hard,minus,dotcolour,beta,,,36,18,V,R,
399,21,21,9,3,27,53,599,['n'],1,right,['1'],6,120,[-0.14122106],99,53,easy,minus,dotcolour,beta,,,36,18,V,R,
400,22,22,9,3,27,53,499,['n'],1,right,['1'],6,72,[-0.08472659],88,53,easy,minus,dotcolour,beta,,,36,18,V,R,
401,23,23,9,3,27,53,550,['n'],1,right,['1'],6,106,[-0.05012275],43,53,easy,minus,dotcolour,beta,,,36,18,V,R,
402,24,24,9,3,47,33,1684,['c'],1,left,['3'],4,547,[0.03683405],39,47,medium,minus,dotcolour,beta,,,36,18,V,R,
403,25,25,9,3,53,27,1050,['c'],1,left,['3'],4,165,[0.05608477],51,53,easy,minus,dotcolour,beta,,,36,18,V,R,
404,26,26,9,3,47,33,750,['c'],1,left,['3'],4,73,[0.10144029],96,47,medium,minus,dotcolour,beta,,,36,18,V,R,
405,27,27,9,3,53,27,1217,['n'],0,left,['1'],6,1103,[0.12735243],4,53,easy,minus,dotcolour,beta,,,36,18,V,R,
406,28,28,9,3,36,44,2150,['c'],0,right,['3'],4,581,[0.12952597],85,44,hard,minus,dotcolour,beta,,,36,18,V,R,
407,29,29,9,3,53,27,984,['c'],1,left,['2'],5,344,[0.10649492],83,53,easy,minus,dotcolour,beta,,,36,18,V,R,
408,30,30,9,3,36,44,817,['n'],1,right,['1'],6,1467,[-0.22402846],92,44,hard,minus,dotcolour,beta,,,36,18,V,R,
409,31,31,9,3,33,47,767,['n'],1,right,['1'],6,163,[-0.10130652],88,47,medium,minus,dotcolour,beta,,,36,18,V,R,
410,32,32,9,3,53,27,1068,['c'],1,left,['1'],6,315,[0.13122158],92,53,easy,minus,dotcolour,beta,,,36,18,V,R,
411,33,33,9,3,27,53,552,['n'],1,right,['1'],6,105,[-0.06108344],58,53,easy,minus,dotcolour,beta,,,36,18,V,R,
412,34,34,9,3,36,44,517,['n'],1,right,['1'],6,105,[-0.13920554],99,44,hard,minus,dotcolour,beta,,,36,18,V,R,
413,35,35,9,3,36,44,550,['n'],1,right,['1'],6,153,[-0.13287687],97,44,hard,minus,dotcolour,beta,,,36,18,V,R,
414,36,36,9,3,53,27,885,['c'],1,left,['1'],6,209,[0.15594448],98,53,easy,minus,dotcolour,beta,,,36,18,V,R,
415,37,37,9,3,33,47,482,['n'],1,right,['1'],6,278,[-0.10498843],84,47,medium,minus,dotcolour,beta,,,36,18,V,R,
416,38,38,9,3,27,53,700,['n'],1,right,['1'],6,104,[-0.05929008],55,53,easy,minus,dotcolour,beta,,,36,18,V,R,
417,39,39,9,3,47,33,950,['c'],1,left,['2'],5,184,[0.03542811],30,47,medium,minus,dotcolour,beta,,,36,18,V,R,
418,40,40,9,3,47,33,1250,['n'],0,left,['1'],6,96,[-0.02598459],15,47,medium,minus,dotcolour,beta,,,36,18,V,R,
419,41,41,9,3,44,36,1100,['n'],0,left,['1'],6,161,[-0.0977249],87,44,hard,minus,dotcolour,beta,,,36,18,V,R,
420,42,0,10,3,33,47,884,['n'],1,right,['1'],6,81,[-0.08788149],89,47,medium,minus,dotcolour,beta,,,36,18,V,R,
421,43,1,10,3,36,44,467,['n'],1,right,['1'],6,109,[-0.09717006],91,44,hard,minus,dotcolour,beta,,,36,18,V,R,
422,44,2,10,3,47,33,301,['n'],0,left,['1'],6,126,[-0.03808781],29,47,medium,minus,dotcolour,beta,,,36,18,V,R,
423,45,3,10,3,53,27,917,['c'],1,left,['2'],5,125,[0.00304419],6,53,easy,minus,dotcolour,beta,,,36,18,V,R,
424,46,4,10,3,47,33,817,['n'],0,left,['1'],6,88,[-0.01913573],10,47,medium,minus,dotcolour,beta,,,36,18,V,R,
425,47,5,10,3,36,44,666,['n'],1,right,['1'],6,108,[-0.06702105],65,44,hard,minus,dotcolour,beta,,,36,18,V,R,
426,48,6,10,3,27,53,434,['n'],1,right,['1'],6,111,[-0.07864579],78,53,easy,minus,dotcolour,beta,,,36,18,V,R,
427,49,7,10,3,33,47,384,['n'],1,right,['1'],6,140,[-0.06174026],57,47,medium,minus,dotcolour,beta,,,36,18,V,R,
428,50,8,10,3,27,53,417,['n'],1,right,['1'],6,103,[-0.07436088],74,53,easy,minus,dotcolour,beta,,,36,18,V,R,
429,51,9,10,3,36,44,484,['n'],1,right,['1'],6,129,[-0.14878076],99,44,hard,minus,dotcolour,beta,,,36,18,V,R,
430,52,10,10,3,44,36,484,['n'],0,left,['1'],6,113,[-0.08256916],81,44,hard,minus,dotcolour,beta,,,36,18,V,R,
431,53,11,10,3,27,53,416,['n'],1,right,['1'],6,325,[0.00763772],12,53,easy,minus,dotcolour,beta,,,36,18,V,R,
432,54,12,10,3,36,44,417,['n'],1,right,['1'],6,105,[-0.03188749],21,44,hard,minus,dotcolour,beta,,,36,18,V,R,
433,55,13,10,3,36,44,366,['n'],1,right,['1'],6,104,[-0.09753294],91,44,hard,minus,dotcolour,beta,,,36,18,V,R,
434,56,14,10,3,33,47,450,['n'],1,right,['1'],6,131,[-0.15034269],99,47,medium,minus,dotcolour,beta,,,36,18,V,R,
435,57,15,10,3,47,33,533,['n'],0,left,['1'],6,82,[-0.07593643],78,47,medium,minus,dotcolour,beta,,,36,18,V,R,
436,58,16,10,3,27,53,449,['n'],1,right,['1'],6,102,[-0.07472606],75,53,easy,minus,dotcolour,beta,,,36,18,V,R,
437,59,17,10,3,44,36,334,['n'],0,left,['1'],6,102,[-0.04458629],35,44,hard,minus,dotcolour,beta,,,36,18,V,R,
438,60,18,10,3,33,47,433,['n'],1,right,['1'],6,82,[-0.07091387],72,47,medium,minus,dotcolour,beta,,,36,18,V,R,
439,61,19,10,3,53,27,384,['n'],0,left,['1'],6,137,[0.06323911],0,53,easy,minus,dotcolour,beta,,,36,18,V,R,
440,62,20,10,3,33,47,1117,['n'],1,right,['1'],6,72,[-0.07655189],80,47,medium,minus,dotcolour,beta,,,36,18,V,R,
441,63,21,10,3,53,27,833,['c'],1,left,['2'],5,286,[0.07828853],68,53,easy,minus,dotcolour,beta,,,36,18,V,R,
442,64,22,10,3,53,27,600,['c'],1,left,['2'],5,155,[0.09662617],87,53,easy,minus,dotcolour,beta,,,36,18,V,R,
443,65,23,10,3,36,44,900,['n'],1,right,['2'],5,138,[-0.04795546],41,44,hard,minus,dotcolour,beta,,,36,18,V,R,
444,66,24,10,3,36,44,684,['c'],0,right,['2'],5,99,[0.05398074],48,44,hard,minus,dotcolour,beta,,,36,18,V,R,
445,67,25,10,3,47,33,616,['c'],1,left,['2'],5,56,[0.08417415],90,47,medium,minus,dotcolour,beta,,,36,18,V,R,
446,68,26,10,3,33,47,667,['n'],1,right,['2'],5,69,[-0.05062386],42,47,medium,minus,dotcolour,beta,,,36,18,V,R,
447,69,27,10,3,47,33,566,['c'],1,left,['2'],5,76,[0.04676799],36,47,medium,minus,dotcolour,beta,,,36,18,V,R,
448,70,28,10,3,44,36,667,['n'],0,left,['2'],5,25,[-0.07518609],90,44,hard,minus,dotcolour,beta,,,36,18,V,R,
449,71,29,10,3,53,27,651,['c'],1,left,['2'],5,62,[0.09940761],96,53,easy,minus,dotcolour,beta,,,36,18,V,R,
450,72,30,10,3,33,47,867,['n'],1,right,['2'],5,82,[-0.09037784],90,47,medium,minus,dotcolour,beta,,,36,18,V,R,
451,73,31,10,3,47,33,918,['n'],0,left,['2'],5,147,[-0.02393277],18,47,medium,minus,dotcolour,beta,,,36,18,V,R,
452,74,32,10,3,27,53,650,['n'],1,right,['2'],5,108,[-0.02694716],17,53,easy,minus,dotcolour,beta,,,36,18,V,R,
453,75,33,10,3,44,36,1116,['c'],1,left,['2'],5,133,[0.03932366],31,44,hard,minus,dotcolour,beta,,,36,18,V,R,
454,76,34,10,3,53,27,884,['c'],1,left,['2'],5,85,[0.0890905],89,53,easy,minus,dotcolour,beta,,,36,18,V,R,
455,77,35,10,3,53,27,701,['c'],1,left,['2'],5,119,[0.09111662],86,53,easy,minus,dotcolour,beta,,,36,18,V,R,
456,78,36,10,3,44,36,668,['c'],1,left,['2'],5,122,[0.06770349],65,44,hard,minus,dotcolour,beta,,,36,18,V,R,
457,79,37,10,3,27,53,550,['n'],1,right,['2'],5,40,[-0.09733148],98,53,easy,minus,dotcolour,beta,,,36,18,V,R,
458,80,38,10,3,27,53,434,['n'],1,right,['2'],5,87,[-0.08093295],82,53,easy,minus,dotcolour,beta,,,36,18,V,R,
459,81,39,10,3,44,36,734,['c'],1,left,['2'],5,103,[0.05909924],55,44,hard,minus,dotcolour,beta,,,36,18,V,R,
460,82,40,10,3,47,33,717,['c'],1,left,['2'],5,104,[0.11565837],97,47,medium,minus,dotcolour,beta,,,36,18,V,R,
461,83,41,10,3,44,36,749,['n'],0,left,['2'],5,96,[-0.10695277],95,44,hard,minus,dotcolour,beta,,,36,18,V,R,
462,84,0,11,3,53,27,1317,['c'],1,left,['2'],5,20,[0.08403655],97,53,easy,minus,dotcolour,beta,,,36,18,V,R,
463,85,1,11,3,47,33,634,['c'],1,left,['2'],5,68,[0.1078602],97,47,medium,minus,dotcolour,beta,,,36,18,V,R,
464,86,2,11,3,53,27,834,['c'],1,left,['2'],5,881,[0.06911485],56,53,easy,minus,dotcolour,beta,,,36,18,V,R,
465,87,3,11,3,44,36,550,['c'],1,left,['2'],5,129,[0.13218046],98,44,hard,minus,dotcolour,beta,,,36,18,V,R,
466,88,4,11,3,53,27,450,['c'],1,left,['2'],5,99,[0.10686289],95,53,easy,minus,dotcolour,beta,,,36,18,V,R,
467,89,5,11,3,27,53,634,['n'],1,right,['2'],5,102,[-0.05906747],55,53,easy,minus,dotcolour,beta,,,36,18,V,R,
468,90,6,11,3,47,33,951,['c'],1,left,['2'],5,143,[0.06899338],65,47,medium,minus,dotcolour,beta,,,36,18,V,R,
469,91,7,11,3,36,44,716,['c'],0,right,['2'],5,165,[0.1175107],94,44,hard,minus,dotcolour,beta,,,36,18,V,R,
470,92,8,11,3,27,53,534,['n'],1,right,['2'],5,59,[-0.06653677],69,53,easy,minus,dotcolour,beta,,,36,18,V,R,
471,93,9,11,3,33,47,1234,['c'],0,right,['2'],5,80,[0.04748106],37,47,medium,minus,dotcolour,beta,,,36,18,V,R,
472,94,10,11,3,27,53,566,['n'],1,right,['2'],5,71,[-0.08766601],90,53,easy,minus,dotcolour,beta,,,36,18,V,R,
473,95,11,11,3,33,47,450,['n'],1,right,['2'],5,84,[-0.07150552],73,47,medium,minus,dotcolour,beta,,,36,18,V,R,
474,96,12,11,3,53,27,583,['c'],1,left,['2'],5,154,[0.11560155],94,53,easy,minus,dotcolour,beta,,,36,18,V,R,
475,97,13,11,3,36,44,566,['n'],1,right,['2'],5,175,[-0.07843662],73,44,hard,minus,dotcolour,beta,,,36,18,V,R,
476,98,14,11,3,33,47,667,['n'],1,right,['2'],5,102,[-0.03666491],26,47,medium,minus,dotcolour,beta,,,36,18,V,R,
477,99,15,11,3,47,33,616,['c'],1,left,['2'],5,83,[0.1093822],97,47,medium,minus,dotcolour,beta,,,36,18,V,R,
478,100,16,11,3,36,44,583,['c'],0,right,['2'],5,137,[0.10296534],91,44,hard,minus,dotcolour,beta,,,36,18,V,R,
479,101,17,11,3,47,33,749,['c'],1,left,['2'],5,16,[0.06800487],85,47,medium,minus,dotcolour,beta,,,36,18,V,R,
480,102,18,11,3,36,44,701,['n'],1,right,['2'],5,76,[-0.10860188],97,44,hard,minus,dotcolour,beta,,,36,18,V,R,
481,103,19,11,3,47,33,800,['n'],0,left,['2'],5,18,[-0.07251023],91,47,medium,minus,dotcolour,beta,,,36,18,V,R,
482,104,20,11,3,33,47,518,['n'],1,right,['2'],5,94,[-0.06708851],66,47,medium,minus,dotcolour,beta,,,36,18,V,R,
483,105,21,11,3,33,47,582,['n'],1,right,['2'],5,156,[-0.07160095],68,47,medium,minus,dotcolour,beta,,,36,18,V,R,
484,106,22,11,3,36,44,1734,['c'],0,right,['2'],5,137,[0.08237744],79,44,hard,minus,dotcolour,beta,,,36,18,V,R,
485,107,23,11,3,36,44,1367,['n'],1,right,['2'],5,127,[-0.04809327],41,44,hard,minus,dotcolour,beta,,,36,18,V,R,
486,108,24,11,3,53,27,1183,['c'],1,left,['2'],5,796,[0.25710777],98,53,easy,minus,dotcolour,beta,,,36,18,V,R,
487,109,25,11,3,33,47,800,['n'],1,right,['2'],5,404,[-0.15843073],95,47,medium,minus,dotcolour,beta,,,36,18,V,R,
488,110,26,11,3,36,44,1367,['c'],0,right,['3'],4,551,[0.11792672],82,44,hard,minus,dotcolour,beta,,,36,18,V,R,
489,111,27,11,3,27,53,583,['n'],1,right,['1'],6,131,[-0.12997544],98,53,easy,minus,dotcolour,beta,,,36,18,V,R,
490,112,28,11,3,44,36,1800,['c'],1,left,['3'],4,383,[0.05772967],52,44,hard,minus,dotcolour,beta,,,36,18,V,R,
491,113,29,11,3,44,36,949,['n'],0,left,['2'],5,324,[-0.07775713],67,44,hard,minus,dotcolour,beta,,,36,18,V,R,
492,114,30,11,3,47,33,950,['c'],1,left,['3'],4,202,[-0.00212765],9,47,medium,minus,dotcolour,beta,,,36,18,V,R,
493,115,31,11,3,27,53,700,['n'],1,right,['1'],6,238,[-0.1379174],95,53,easy,minus,dotcolour,beta,,,36,18,V,R,
494,116,32,11,3,27,53,767,['n'],1,right,['1'],6,1823,[-0.27337899],95,53,easy,minus,dotcolour,beta,,,36,18,V,R,
495,117,33,11,3,27,53,883,['n'],1,right,['1'],6,380,[-0.14111674],92,53,easy,minus,dotcolour,beta,,,36,18,V,R,
496,118,34,11,3,47,33,767,['c'],1,left,['1'],6,103,[0.11294043],96,47,medium,minus,dotcolour,beta,,,36,18,V,R,
497,119,35,11,3,44,36,667,['c'],1,left,['1'],6,98,[0.08899292],87,44,hard,minus,dotcolour,beta,,,36,18,V,R,
498,120,36,11,3,53,27,734,['c'],1,left,['1'],6,98,[0.06148343],58,53,easy,minus,dotcolour,beta,,,36,18,V,R,
499,121,37,11,3,44,36,817,['n'],0,left,['2'],5,511,[-0.06556957],56,44,hard,minus,dotcolour,beta,,,36,18,V,R,
500,122,38,11,3,53,27,501,['n'],0,left,['3'],4,199,[-0.09523093],83,53,easy,minus,dotcolour,beta,,,36,18,V,R,
501,123,39,11,3,44,36,566,['n'],0,left,['3'],4,178,[-0.07440367],69,44,hard,minus,dotcolour,beta,,,36,18,V,R,
502,124,40,11,3,44,36,651,['n'],0,left,['3'],4,98,[-0.09018385],88,44,hard,minus,dotcolour,beta,,,36,18,V,R,
503,125,41,11,3,33,47,700,['n'],1,right,['2'],5,116,[-0.07583054],74,47,medium,minus,dotcolour,beta,,,36,18,V,R,
504,0,0,12,4,47,33,1217,['n'],0,left,['2'],5,148,[-0.05741593],99,47,medium,plus,dotcolour,beta,,,36,18,V,R,
505,1,1,12,4,33,47,733,['n'],1,right,['2'],5,122,[-0.11060089],100,47,medium,plus,dotcolour,beta,,,36,18,V,R,
506,2,2,12,4,47,33,1218,['c'],1,left,['2'],5,198,[0.09244555],100,47,medium,plus,dotcolour,beta,,,36,18,V,R,
507,3,3,12,4,33,47,683,['n'],1,right,['2'],5,116,[-0.14009866],100,47,medium,plus,dotcolour,beta,,,36,18,V,R,
508,4,4,12,4,44,36,566,['n'],0,left,['2'],5,82,[-0.03012661],100,44,hard,plus,dotcolour,beta,,,36,18,V,R,
509,5,5,12,4,44,36,701,['c'],1,left,['2'],5,140,[0.09910163],100,44,hard,plus,dotcolour,beta,,,36,18,V,R,
510,6,6,12,4,33,47,683,['c'],0,right,['2'],5,60,[0.06200235],100,47,medium,plus,dotcolour,beta,,,36,18,V,R,
511,7,7,12,4,27,53,550,['c'],0,right,['2'],5,29,[0.06968869],100,53,easy,plus,dotcolour,beta,,,36,18,V,R,
512,8,8,12,4,27,53,517,['c'],0,right,['2'],5,88,[0.07377306],100,53,easy,plus,dotcolour,beta,,,36,18,V,R,
513,9,9,12,4,36,44,434,['c'],0,right,['2'],5,101,[0.07961456],100,44,hard,plus,dotcolour,beta,,,36,18,V,R,
514,10,10,12,4,47,33,817,['n'],0,left,['2'],5,9,[-0.07821219],100,47,medium,plus,dotcolour,beta,,,36,18,V,R,
515,11,11,12,4,33,47,534,['n'],1,right,['2'],5,93,[-0.07516525],100,47,medium,plus,dotcolour,beta,,,36,18,V,R,
516,12,12,12,4,44,36,967,['c'],1,left,['2'],5,100,[0.07485588],100,44,hard,plus,dotcolour,beta,,,36,18,V,R,
517,13,13,12,4,27,53,618,['n'],1,right,['2'],5,48,[-0.06270879],100,53,easy,plus,dotcolour,beta,,,36,18,V,R,
518,14,14,12,4,33,47,634,['c'],0,right,['2'],5,22,[0.07997894],100,47,medium,plus,dotcolour,beta,,,36,18,V,R,
519,15,15,12,4,27,53,1350,['n'],1,right,['8'],3,1497,[-0.24356391],99,53,easy,plus,dotcolour,beta,,,36,18,V,R,
520,16,16,12,4,44,36,1916,['c'],1,left,['2'],5,265,[0.02908672],95,44,hard,plus,dotcolour,beta,,,36,18,V,R,
521,17,17,12,4,53,27,1234,['c'],1,left,['1'],6,134,[0.14398663],100,53,easy,plus,dotcolour,beta,,,36,18,V,R,
522,18,18,12,4,53,27,1000,['n'],0,left,['1'],6,210,[-0.01014194],93,53,easy,plus,dotcolour,beta,,,36,18,V,R,
523,19,19,12,4,33,47,650,['n'],1,right,['2'],5,289,[-0.13183516],100,47,medium,plus,dotcolour,beta,,,36,18,V,R,
524,20,20,12,4,47,33,751,['c'],1,left,['2'],5,472,[0.13451692],99,47,medium,plus,dotcolour,beta,,,36,18,V,R,
525,21,21,12,4,47,33,1017,['n'],0,left,['2'],5,70,[-0.06957921],100,47,medium,plus,dotcolour,beta,,,36,18,V,R,
526,22,22,12,4,36,44,800,['n'],1,right,['2'],5,149,[-0.10307402],100,44,hard,plus,dotcolour,beta,,,36,18,V,R,
527,23,23,12,4,47,33,484,['n'],0,left,['2'],5,116,[-0.09158084],100,47,medium,plus,dotcolour,beta,,,36,18,V,R,
528,24,24,12,4,53,27,685,['c'],1,left,['2'],5,117,[0.17033729],100,53,easy,plus,dotcolour,beta,,,36,18,V,R,
529,25,25,12,4,36,44,617,['n'],1,right,['2'],5,41,[-0.08858376],100,44,hard,plus,dotcolour,beta,,,36,18,V,R,
530,26,26,12,4,44,36,701,['n'],0,left,['2'],5,69,[-0.08207872],100,44,hard,plus,dotcolour,beta,,,36,18,V,R,
531,27,27,12,4,53,27,400,['n'],0,left,['2'],5,99,[-0.0549644],100,53,easy,plus,dotcolour,beta,,,36,18,V,R,
532,28,28,12,4,53,27,501,['c'],1,left,['2'],5,133,[0.10395885],100,53,easy,plus,dotcolour,beta,,,36,18,V,R,
533,29,29,12,4,36,44,650,['n'],1,right,['2'],5,55,[-0.05241681],100,44,hard,plus,dotcolour,beta,,,36,18,V,R,
534,30,30,12,4,44,36,684,['c'],1,left,['2'],5,147,[0.0669884],100,44,hard,plus,dotcolour,beta,,,36,18,V,R,
535,31,31,12,4,47,33,1134,['n'],0,left,['2'],5,137,[-0.0554008],100,47,medium,plus,dotcolour,beta,,,36,18,V,R,
536,32,32,12,4,53,27,500,['c'],1,left,['2'],5,105,[0.04271434],100,53,easy,plus,dotcolour,beta,,,36,18,V,R,
537,33,33,12,4,33,47,585,['n'],1,right,['2'],5,47,[-0.10784432],100,47,medium,plus,dotcolour,beta,,,36,18,V,R,
538,34,34,12,4,44,36,1083,['c'],1,left,['2'],5,83,[0.08520756],100,44,hard,plus,dotcolour,beta,,,36,18,V,R,
539,35,35,12,4,27,53,483,['n'],1,right,['2'],5,86,[-0.06466886],100,53,easy,plus,dotcolour,beta,,,36,18,V,R,
540,36,36,12,4,27,53,734,['n'],1,right,['2'],5,78,[-0.11605365],100,53,easy,plus,dotcolour,beta,,,36,18,V,R,
541,37,37,12,4,36,44,1767,['n'],1,right,['2'],5,150,[-0.00546612],94,44,hard,plus,dotcolour,beta,,,36,18,V,R,
542,38,38,12,4,27,53,617,['n'],1,right,['2'],5,104,[-0.13243426],100,53,easy,plus,dotcolour,beta,,,36,18,V,R,
543,39,39,12,4,36,44,483,['n'],1,right,['1'],6,115,[-0.10633514],100,44,hard,plus,dotcolour,beta,,,36,18,V,R,
544,40,40,12,4,36,44,584,['n'],1,right,['1'],6,215,[-0.12919406],100,44,hard,plus,dotcolour,beta,,,36,18,V,R,
545,41,41,12,4,53,27,766,['c'],1,left,['2'],5,193,[0.15578107],100,53,easy,plus,dotcolour,beta,,,36,18,V,R,
546,42,0,13,4,47,33,1201,['c'],1,left,['2'],5,978,[0.25731166],100,47,medium,plus,dotcolour,beta,,,36,18,V,R,
547,43,1,13,4,27,53,701,['n'],1,right,['2'],5,87,[-0.08683024],100,53,easy,plus,dotcolour,beta,,,36,18,V,R,
548,44,2,13,4,27,53,583,['n'],1,right,['2'],5,94,[-0.0078129],98,53,easy,plus,dotcolour,beta,,,36,18,V,R,
549,45,3,13,4,36,44,1117,['c'],0,right,['1'],6,295,[0.04203753],96,44,hard,plus,dotcolour,beta,,,36,18,V,R,
550,46,4,13,4,36,44,1684,['n'],1,right,['8'],3,2745,[-0.18623997],93,44,hard,plus,dotcolour,beta,,,36,18,V,R,
551,47,5,13,4,47,33,1167,['n'],0,left,['8'],3,1230,[0.128728],23,47,medium,plus,dotcolour,beta,,,36,18,V,R,
552,48,6,13,4,33,47,817,['n'],1,right,['2'],5,116,[-0.1029782],100,47,medium,plus,dotcolour,beta,,,36,18,V,R,
553,49,7,13,4,27,53,400,['n'],1,right,['1'],6,73,[-0.12513551],100,53,easy,plus,dotcolour,beta,,,36,18,V,R,
554,50,8,13,4,53,27,1817,['n'],0,left,['2'],5,359,[-0.07671166],98,53,easy,plus,dotcolour,beta,,,36,18,V,R,
555,51,9,13,4,47,33,1150,['n'],0,left,['2'],5,148,[-0.07400663],100,47,medium,plus,dotcolour,beta,,,36,18,V,R,
556,52,10,13,4,44,36,683,['n'],0,left,['2'],5,116,[-0.08748294],100,44,hard,plus,dotcolour,beta,,,36,18,V,R,
557,53,11,13,4,33,47,500,['n'],1,right,['2'],5,109,[-0.08644754],100,47,medium,plus,dotcolour,beta,,,36,18,V,R,
558,54,12,13,4,33,47,516,['n'],1,right,['2'],5,117,[-0.12183577],100,47,medium,plus,dotcolour,beta,,,36,18,V,R,
559,55,13,13,4,44,36,484,['n'],0,left,['2'],5,149,[-0.10910394],100,44,hard,plus,dotcolour,beta,,,36,18,V,R,
560,56,14,13,4,36,44,616,['n'],1,right,['2'],5,80,[-0.07440568],100,44,hard,plus,dotcolour,beta,,,36,18,V,R,
561,57,15,13,4,36,44,383,['n'],1,right,['2'],5,103,[-0.00697949],97,44,hard,plus,dotcolour,beta,,,36,18,V,R,
562,58,16,13,4,36,44,633,['n'],1,right,['2'],5,75,[-0.04844231],100,44,hard,plus,dotcolour,beta,,,36,18,V,R,
563,59,17,13,4,27,53,449,['n'],1,right,['2'],5,55,[-0.07145481],100,53,easy,plus,dotcolour,beta,,,36,18,V,R,
564,60,18,13,4,33,47,317,['n'],1,right,['2'],5,82,[-0.08880479],100,47,medium,plus,dotcolour,beta,,,36,18,V,R,
565,61,19,13,4,44,36,366,['n'],0,left,['2'],5,154,[0.01573987],86,44,hard,plus,dotcolour,beta,,,36,18,V,R,
566,62,20,13,4,27,53,749,['n'],1,right,['2'],5,167,[-0.10648415],100,53,easy,plus,dotcolour,beta,,,36,18,V,R,
567,63,21,13,4,27,53,667,['n'],1,right,['2'],5,102,[-0.0694655],100,53,easy,plus,dotcolour,beta,,,36,18,V,R,
568,64,22,13,4,53,27,667,['n'],0,left,['2'],5,121,[-0.08993152],100,53,easy,plus,dotcolour,beta,,,36,18,V,R,
569,65,23,13,4,53,27,384,['n'],0,left,['2'],5,94,[-0.05399431],100,53,easy,plus,dotcolour,beta,,,36,18,V,R,
570,66,24,13,4,47,33,2150,['c'],1,left,['2'],5,174,[0.12697004],100,47,medium,plus,dotcolour,beta,,,36,18,V,R,
571,67,25,13,4,47,33,566,['c'],1,left,['2'],5,802,[0.21936272],100,47,medium,plus,dotcolour,beta,,,36,18,V,R,
572,68,26,13,4,47,33,583,['c'],1,left,['2'],5,19,[0.11306502],100,47,medium,plus,dotcolour,beta,,,36,18,V,R,
573,69,27,13,4,27,53,649,['n'],1,right,['2'],5,105,[-0.08229082],100,53,easy,plus,dotcolour,beta,,,36,18,V,R,
574,70,28,13,4,53,27,417,['n'],0,left,['2'],5,94,[-0.03224123],99,53,easy,plus,dotcolour,beta,,,36,18,V,R,
575,71,29,13,4,33,47,817,['n'],1,right,['2'],5,27,[-0.10952615],100,47,medium,plus,dotcolour,beta,,,36,18,V,R,
576,72,30,13,4,44,36,483,['n'],0,left,['2'],5,144,[-0.06567512],100,44,hard,plus,dotcolour,beta,,,36,18,V,R,
577,73,31,13,4,47,33,683,['n'],0,left,['2'],5,87,[-0.15105266],100,47,medium,plus,dotcolour,beta,,,36,18,V,R,
578,74,32,13,4,33,47,533,['n'],1,right,['2'],5,72,[-0.08357031],100,47,medium,plus,dotcolour,beta,,,36,18,V,R,
579,75,33,13,4,33,47,567,['n'],1,right,['2'],5,56,[-0.0808176],100,47,medium,plus,dotcolour,beta,,,36,18,V,R,
580,76,34,13,4,53,27,767,['c'],1,left,['2'],5,49,[0.0769589],100,53,easy,plus,dotcolour,beta,,,36,18,V,R,
581,77,35,13,4,36,44,2534,['n'],1,right,['1'],6,107,[-0.08527192],100,44,hard,plus,dotcolour,beta,,,36,18,V,R,
582,78,36,13,4,44,36,2000,['c'],1,left,['2'],5,191,[0.07222999],99,44,hard,plus,dotcolour,beta,,,36,18,V,R,
583,79,37,13,4,36,44,2183,['n'],1,right,['1'],6,145,[-0.06452722],100,44,hard,plus,dotcolour,beta,,,36,18,V,R,
584,80,38,13,4,44,36,700,['n'],0,left,['1'],6,96,[-0.05324226],100,44,hard,plus,dotcolour,beta,,,36,18,V,R,
585,81,39,13,4,44,36,468,['n'],0,left,['1'],6,67,[-0.10614084],100,44,hard,plus,dotcolour,beta,,,36,18,V,R,
586,82,40,13,4,53,27,583,['n'],0,left,['1'],6,83,[-0.02793377],99,53,easy,plus,dotcolour,beta,,,36,18,V,R,
587,83,41,13,4,53,27,883,['c'],1,left,['2'],5,133,[0.05801556],100,53,easy,plus,dotcolour,beta,,,36,18,V,R,
588,84,0,14,4,27,53,1334,['n'],1,right,['1'],6,53,[-0.08330402],100,53,easy,plus,dotcolour,beta,,,36,18,V,R,
589,85,1,14,4,47,33,468,['n'],0,left,['1'],6,41,[-0.0412971],100,47,medium,plus,dotcolour,beta,,,36,18,V,R,
590,86,2,14,4,36,44,500,['n'],1,right,['1'],6,93,[-0.08272446],100,44,hard,plus,dotcolour,beta,,,36,18,V,R,
591,87,3,14,4,53,27,583,['c'],1,left,['2'],5,115,[0.14131756],100,53,easy,plus,dotcolour,beta,,,36,18,V,R,
592,88,4,14,4,47,33,583,['n'],0,left,['1'],6,80,[-0.04061392],100,47,medium,plus,dotcolour,beta,,,36,18,V,R,
593,89,5,14,4,27,53,584,['n'],1,right,['1'],6,47,[-0.0862498],100,53,easy,plus,dotcolour,beta,,,36,18,V,R,
594,90,6,14,4,36,44,751,['n'],1,right,['1'],6,832,[-0.09015298],95,44,hard,plus,dotcolour,beta,,,36,18,V,R,
595,91,7,14,4,53,27,850,['c'],1,left,['2'],5,142,[0.12689454],100,53,easy,plus,dotcolour,beta,,,36,18,V,R,
596,92,8,14,4,44,36,817,['c'],1,left,['1'],6,178,[0.20013607],100,44,hard,plus,dotcolour,beta,,,36,18,V,R,
597,93,9,14,4,44,36,551,['n'],0,left,['1'],6,141,[-0.11172068],100,44,hard,plus,dotcolour,beta,,,36,18,V,R,
598,94,10,14,4,27,53,433,['n'],1,right,['1'],6,71,[-0.09863812],100,53,easy,plus,dotcolour,beta,,,36,18,V,R,
599,95,11,14,4,36,44,367,['n'],1,right,['1'],6,95,[-0.07163902],100,44,hard,plus,dotcolour,beta,,,36,18,V,R,
600,96,12,14,4,47,33,484,['n'],0,left,['1'],6,81,[-0.05307659],100,47,medium,plus,dotcolour,beta,,,36,18,V,R,
601,97,13,14,4,33,47,400,['n'],1,right,['1'],6,87,[-0.06238114],100,47,medium,plus,dotcolour,beta,,,36,18,V,R,
602,98,14,14,4,44,36,317,['n'],0,left,['1'],6,88,[-0.08031834],100,44,hard,plus,dotcolour,beta,,,36,18,V,R,
603,99,15,14,4,33,47,267,['n'],1,right,['1'],6,116,[-0.17240898],100,47,medium,plus,dotcolour,beta,,,36,18,V,R,
604,100,16,14,4,53,27,300,['n'],0,left,['1'],6,109,[-0.00657609],97,53,easy,plus,dotcolour,beta,,,36,18,V,R,
605,101,17,14,4,44,36,383,['n'],0,left,['1'],6,121,[-0.074203],100,44,hard,plus,dotcolour,beta,,,36,18,V,R,
606,102,18,14,4,53,27,600,['c'],1,left,['2'],5,150,[0.15486081],100,53,easy,plus,dotcolour,beta,,,36,18,V,R,
607,103,19,14,4,47,33,550,['c'],1,left,['2'],5,196,[0.08690037],100,47,medium,plus,dotcolour,beta,,,36,18,V,R,
608,104,20,14,4,27,53,599,['n'],1,right,['1'],6,102,[-0.10168509],100,53,easy,plus,dotcolour,beta,,,36,18,V,R,
609,105,21,14,4,53,27,633,['c'],1,left,['2'],5,153,[0.14831914],100,53,easy,plus,dotcolour,beta,,,36,18,V,R,
610,106,22,14,4,36,44,650,['n'],1,right,['1'],6,74,[-0.06769161],100,44,hard,plus,dotcolour,beta,,,36,18,V,R,
611,107,23,14,4,53,27,634,['c'],1,left,['2'],5,31,[0.07237943],100,53,easy,plus,dotcolour,beta,,,36,18,V,R,
612,108,24,14,4,47,33,917,['n'],0,left,['1'],6,58,[-0.09352913],100,47,medium,plus,dotcolour,beta,,,36,18,V,R,
613,109,25,14,4,36,44,650,['n'],1,right,['2'],5,111,[-0.04447176],100,44,hard,plus,dotcolour,beta,,,36,18,V,R,
614,110,26,14,4,33,47,633,['n'],1,right,['1'],6,66,[-0.02846482],100,47,medium,plus,dotcolour,beta,,,36,18,V,R,
615,111,27,14,4,44,36,801,['c'],1,left,['2'],5,145,[0.1284487],100,44,hard,plus,dotcolour,beta,,,36,18,V,R,
616,112,28,14,4,44,36,550,['n'],0,left,['1'],6,94,[-0.04577972],100,44,hard,plus,dotcolour,beta,,,36,18,V,R,
617,113,29,14,4,44,36,633,['n'],0,left,['1'],6,74,[-0.08216203],100,44,hard,plus,dotcolour,beta,,,36,18,V,R,
618,114,30,14,4,36,44,567,['n'],1,right,['1'],6,50,[-0.07297778],100,44,hard,plus,dotcolour,beta,,,36,18,V,R,
619,115,31,14,4,33,47,384,['n'],1,right,['1'],6,106,[-0.13140702],100,47,medium,plus,dotcolour,beta,,,36,18,V,R,
620,116,32,14,4,27,53,483,['n'],1,right,['1'],6,123,[-0.05197017],100,53,easy,plus,dotcolour,beta,,,36,18,V,R,
621,117,33,14,4,53,27,883,['c'],1,left,['2'],5,132,[0.10698214],100,53,easy,plus,dotcolour,beta,,,36,18,V,R,
622,118,34,14,4,33,47,633,['n'],1,right,['1'],6,62,[-0.0975387],100,47,medium,plus,dotcolour,beta,,,36,18,V,R,
623,119,35,14,4,47,33,517,['c'],1,left,['1'],6,136,[0.05745627],100,47,medium,plus,dotcolour,beta,,,36,18,V,R,
624,120,36,14,4,33,47,600,['n'],1,right,['1'],6,92,[-0.12328213],100,47,medium,plus,dotcolour,beta,,,36,18,V,R,
625,121,37,14,4,33,47,517,['n'],1,right,['1'],6,70,[-0.04114123],100,47,medium,plus,dotcolour,beta,,,36,18,V,R,
626,122,38,14,4,36,44,466,['n'],1,right,['1'],6,97,[-0.09039158],100,44,hard,plus,dotcolour,beta,,,36,18,V,R,
627,123,39,14,4,47,33,867,['c'],1,left,['2'],5,188,[0.05912652],99,47,medium,plus,dotcolour,beta,,,36,18,V,R,
628,124,40,14,4,27,53,550,['n'],1,right,['1'],6,80,[-0.08615502],100,53,easy,plus,dotcolour,beta,,,36,18,V,R,
629,125,41,14,4,27,53,750,['n'],1,right,['1'],6,96,[-0.06937879],100,53,easy,plus,dotcolour,beta,,,36,18,V,R,
630,0,0,15,5,36,44,1217,['c'],0,right,['2'],5,1898,[-0.06210949],18,44,hard,minus,dotcolour,beta,,,36,18,V,R,
631,1,1,15,5,44,36,702,['n'],0,left,['2'],5,204,[-0.05030294],45,44,hard,minus,dotcolour,beta,,,36,18,V,R,
632,2,2,15,5,53,27,817,['c'],1,left,['2'],5,156,[0.09352611],85,53,easy,minus,dotcolour,beta,,,36,18,V,R,
633,3,3,15,5,53,27,533,['c'],1,left,['1'],6,146,[0.07501552],71,53,easy,minus,dotcolour,beta,,,36,18,V,R,
634,4,4,15,5,36,44,651,['n'],1,right,['2'],5,91,[-0.08623675],86,44,hard,minus,dotcolour,beta,,,36,18,V,R,
635,5,5,15,5,33,47,933,['n'],1,right,['1'],6,451,[-0.21285996],99,47,medium,minus,dotcolour,beta,,,36,18,V,R,
636,6,6,15,5,44,36,1000,['n'],0,left,['2'],5,114,[-0.06897295],67,44,hard,minus,dotcolour,beta,,,36,18,V,R,
637,7,7,15,5,36,44,533,['n'],1,right,['2'],5,98,[-0.08132815],81,44,hard,minus,dotcolour,beta,,,36,18,V,R,
638,8,8,15,5,53,27,601,['n'],0,left,['2'],5,191,[-0.08228977],75,53,easy,minus,dotcolour,beta,,,36,18,V,R,
639,9,9,15,5,33,47,768,['n'],1,right,['1'],6,129,[-0.05427864],48,47,medium,minus,dotcolour,beta,,,36,18,V,R,
640,10,10,15,5,27,53,567,['n'],1,right,['1'],6,86,[-0.11871355],98,53,easy,minus,dotcolour,beta,,,36,18,V,R,
641,11,11,15,5,53,27,984,['c'],1,left,['2'],5,181,[0.10797379],90,53,easy,minus,dotcolour,beta,,,36,18,V,R,
642,12,12,15,5,27,53,550,['n'],1,right,['1'],6,249,[-0.14903012],97,53,easy,minus,dotcolour,beta,,,36,18,V,R,
643,13,13,15,5,33,47,483,['n'],1,right,['1'],6,101,[-0.05440243],48,47,medium,minus,dotcolour,beta,,,36,18,V,R,
644,14,14,15,5,47,33,1001,['c'],1,left,['1'],6,163,[0.11346942],93,47,medium,minus,dotcolour,beta,,,36,18,V,R,
645,15,15,15,5,47,33,1016,['c'],1,left,['1'],6,221,[0.08493081],75,47,medium,minus,dotcolour,beta,,,36,18,V,R,
646,16,16,15,5,44,36,617,['n'],0,left,['1'],6,125,[-0.05452286],49,44,hard,minus,dotcolour,beta,,,36,18,V,R,
647,17,17,15,5,27,53,700,['n'],1,right,['1'],6,61,[-0.07177198],77,53,easy,minus,dotcolour,beta,,,36,18,V,R,
648,18,18,15,5,27,53,650,['n'],1,right,['1'],6,81,[-0.05501718],49,53,easy,minus,dotcolour,beta,,,36,18,V,R,
649,19,19,15,5,33,47,750,['n'],1,right,['2'],5,442,[-0.17180737],96,47,medium,minus,dotcolour,beta,,,36,18,V,R,
650,20,20,15,5,27,53,550,['n'],1,right,['2'],5,131,[-0.08563687],82,53,easy,minus,dotcolour,beta,,,36,18,V,R,
651,21,21,15,5,36,44,599,['n'],1,right,['2'],5,103,[-0.09849496],92,44,hard,minus,dotcolour,beta,,,36,18,V,R,
652,22,22,15,5,53,27,350,['n'],0,left,['2'],5,142,[-0.05337134],47,53,easy,minus,dotcolour,beta,,,36,18,V,R,
653,23,23,15,5,33,47,267,['c'],0,right,['2'],5,39,[0.01658432],3,47,medium,minus,dotcolour,beta,,,36,18,V,R,
654,24,24,15,5,33,47,716,['n'],1,right,['2'],5,67,[-0.03536908],20,47,medium,minus,dotcolour,beta,,,36,18,V,R,
655,25,25,15,5,36,44,767,['n'],1,right,['2'],5,90,[-0.1052457],95,44,hard,minus,dotcolour,beta,,,36,18,V,R,
656,26,26,15,5,44,36,800,['n'],0,left,['2'],5,95,[-0.0681059],68,44,hard,minus,dotcolour,beta,,,36,18,V,R,
657,27,27,15,5,47,33,484,['n'],0,left,['2'],5,73,[-0.0416978],28,47,medium,minus,dotcolour,beta,,,36,18,V,R,
658,28,28,15,5,44,36,500,['n'],0,left,['2'],5,132,[-0.02684513],19,44,hard,minus,dotcolour,beta,,,36,18,V,R,
659,29,29,15,5,33,47,500,['n'],1,right,['2'],5,115,[-0.06998848],68,47,medium,minus,dotcolour,beta,,,36,18,V,R,
660,30,30,15,5,36,44,483,['n'],1,right,['2'],5,77,[-0.02562369],13,44,hard,minus,dotcolour,beta,,,36,18,V,R,
661,31,31,15,5,27,53,450,['n'],1,right,['1'],6,65,[-0.09792956],95,53,easy,minus,dotcolour,beta,,,36,18,V,R,
662,32,32,15,5,53,27,466,['n'],0,left,['8'],3,1605,[0.17042554],4,53,easy,minus,dotcolour,beta,,,36,18,V,R,
663,33,33,15,5,47,33,1433,['c'],1,left,['2'],5,268,[0.07709046],68,47,medium,minus,dotcolour,beta,,,36,18,V,R,
664,34,34,15,5,44,36,567,['n'],0,left,['2'],5,708,[-0.11373163],78,44,hard,minus,dotcolour,beta,,,36,18,V,R,
665,35,35,15,5,36,44,850,['n'],1,right,['2'],5,55,[-0.09754076],96,44,hard,minus,dotcolour,beta,,,36,18,V,R,
666,36,36,15,5,27,53,450,['n'],1,right,['2'],5,52,[-0.05427966],47,53,easy,minus,dotcolour,beta,,,36,18,V,R,
667,37,37,15,5,47,33,1067,['c'],1,left,['1'],6,145,[0.06135444],57,47,medium,minus,dotcolour,beta,,,36,18,V,R,
668,38,38,15,5,53,27,767,['c'],1,left,['1'],6,191,[0.11834791],93,53,easy,minus,dotcolour,beta,,,36,18,V,R,
669,39,39,15,5,44,36,1217,['c'],1,left,['1'],6,134,[-0.01537104],3,44,hard,minus,dotcolour,beta,,,36,18,V,R,
670,40,40,15,5,47,33,1216,['n'],0,left,['2'],5,162,[-0.03463178],28,47,medium,minus,dotcolour,beta,,,36,18,V,R,
671,41,41,15,5,47,33,1866,['c'],1,left,['2'],5,258,[0.10937235],87,47,medium,minus,dotcolour,beta,,,36,18,V,R,
672,42,0,16,5,53,27,1084,['c'],1,left,['2'],5,717,[0.28180359],99,53,easy,minus,dotcolour,beta,,,36,18,V,R,
673,43,1,16,5,47,33,750,['n'],0,left,['2'],5,92,[-0.08036757],81,47,medium,minus,dotcolour,beta,,,36,18,V,R,
674,44,2,16,5,47,33,834,['n'],0,left,['2'],5,80,[-0.01035149],5,47,medium,minus,dotcolour,beta,,,36,18,V,R,
675,45,3,16,5,47,33,734,['n'],0,left,['2'],5,73,[-0.04203024],29,47,medium,minus,dotcolour,beta,,,36,18,V,R,
676,46,4,16,5,27,53,751,['n'],1,right,['2'],5,249,[-0.05256345],47,53,easy,minus,dotcolour,beta,,,36,18,V,R,
677,47,5,16,5,53,27,1067,['n'],0,left,['2'],5,94,[-0.06416148],62,53,easy,minus,dotcolour,beta,,,36,18,V,R,
678,48,6,16,5,36,44,1316,['n'],1,right,['2'],5,55,[-0.08163967],88,44,hard,minus,dotcolour,beta,,,36,18,V,R,
679,49,7,16,5,44,36,567,['n'],0,left,['2'],5,55,[-0.06773719],72,44,hard,minus,dotcolour,beta,,,36,18,V,R,
680,50,8,16,5,44,36,599,['n'],0,left,['2'],5,79,[-0.08531936],87,44,hard,minus,dotcolour,beta,,,36,18,V,R,
681,51,9,16,5,33,47,1000,['n'],1,right,['2'],5,84,[-0.02166648],11,47,medium,minus,dotcolour,beta,,,36,18,V,R,
682,52,10,16,5,53,27,716,['c'],1,left,['2'],5,126,[0.08236047],80,53,easy,minus,dotcolour,beta,,,36,18,V,R,
683,53,11,16,5,36,44,483,['n'],1,right,['2'],5,78,[-0.07338698],76,44,hard,minus,dotcolour,beta,,,36,18,V,R,
684,54,12,16,5,33,47,466,['n'],1,right,['2'],5,82,[-0.05623359],51,47,medium,minus,dotcolour,beta,,,36,18,V,R,
685,55,13,16,5,44,36,467,['c'],1,left,['2'],5,77,[0.0849064],87,44,hard,minus,dotcolour,beta,,,36,18,V,R,
686,56,14,16,5,44,36,400,['n'],0,left,['2'],5,27,[-0.07601436],90,44,hard,minus,dotcolour,beta,,,36,18,V,R,
687,57,15,16,5,27,53,450,['n'],1,right,['2'],5,74,[-0.08699345],89,53,easy,minus,dotcolour,beta,,,36,18,V,R,
688,58,16,16,5,27,53,384,['n'],1,right,['2'],5,57,[-0.08789259],92,53,easy,minus,dotcolour,beta,,,36,18,V,R,
689,59,17,16,5,47,33,500,['n'],0,left,['8'],3,2164,[0.19589689],4,47,medium,minus,dotcolour,beta,,,36,18,V,R,
690,60,18,16,5,36,44,700,['n'],1,right,['3'],4,594,[-0.01508825],28,44,hard,minus,dotcolour,beta,,,36,18,V,R,
691,61,19,16,5,33,47,867,['n'],1,right,['2'],5,225,[-0.11771775],91,47,medium,minus,dotcolour,beta,,,36,18,V,R,
692,62,20,16,5,47,33,1199,['c'],1,left,['2'],5,97,[0.0584602],54,47,medium,minus,dotcolour,beta,,,36,18,V,R,
693,63,21,16,5,44,36,466,['n'],0,left,['2'],5,83,[-0.032904],20,44,hard,minus,dotcolour,beta,,,36,18,V,R,
694,64,22,16,5,33,47,584,['n'],1,right,['2'],5,66,[-0.06694258],69,47,medium,minus,dotcolour,beta,,,36,18,V,R,
695,65,23,16,5,47,33,383,['n'],0,left,['2'],5,89,[-0.05771928],53,47,medium,minus,dotcolour,beta,,,36,18,V,R,
696,66,24,16,5,44,36,466,['c'],1,left,['2'],5,140,[0.06534731],62,44,hard,minus,dotcolour,beta,,,36,18,V,R,
697,67,25,16,5,27,53,633,['n'],1,right,['2'],5,71,[-0.10746149],97,53,easy,minus,dotcolour,beta,,,36,18,V,R,
698,68,26,16,5,53,27,867,['c'],1,left,['2'],5,1251,[0.18177496],88,53,easy,minus,dotcolour,beta,,,36,18,V,R,
699,69,27,16,5,36,44,583,['n'],1,right,['1'],6,194,[-0.05500593],49,44,hard,minus,dotcolour,beta,,,36,18,V,R,
700,70,28,16,5,36,44,617,['n'],1,right,['2'],5,99,[-0.1077132],95,44,hard,minus,dotcolour,beta,,,36,18,V,R,
701,71,29,16,5,47,33,1233,['c'],1,left,['2'],5,118,[0.09685385],90,47,medium,minus,dotcolour,beta,,,36,18,V,R,
702,72,30,16,5,27,53,534,['n'],1,right,['2'],5,350,[-0.11000322],84,53,easy,minus,dotcolour,beta,,,36,18,V,R,
703,73,31,16,5,53,27,950,['c'],1,left,['2'],5,180,[0.08283482],76,53,easy,minus,dotcolour,beta,,,36,18,V,R,
704,74,32,16,5,33,47,467,['n'],1,right,['2'],5,83,[-0.12228339],98,47,medium,minus,dotcolour,beta,,,36,18,V,R,
705,75,33,16,5,27,53,435,['n'],1,right,['2'],5,71,[-0.08240118],86,53,easy,minus,dotcolour,beta,,,36,18,V,R,
706,76,34,16,5,44,36,567,['n'],0,left,['2'],5,71,[-0.0406977],27,44,hard,minus,dotcolour,beta,,,36,18,V,R,
707,77,35,16,5,36,44,400,['n'],1,right,['2'],5,62,[-0.09389833],94,44,hard,minus,dotcolour,beta,,,36,18,V,R,
708,78,36,16,5,53,27,767,['c'],1,left,['2'],5,22,[0.06424225],74,53,easy,minus,dotcolour,beta,,,36,18,V,R,
709,79,37,16,5,33,47,634,['n'],1,right,['2'],5,14,[-0.07428549],95,47,medium,minus,dotcolour,beta,,,36,18,V,R,
710,80,38,16,5,36,44,383,['n'],1,right,['2'],5,63,[-0.10685247],98,44,hard,minus,dotcolour,beta,,,36,18,V,R,
711,81,39,16,5,53,27,517,['c'],1,left,['2'],5,97,[0.09746363],92,53,easy,minus,dotcolour,beta,,,36,18,V,R,
712,82,40,16,5,27,53,450,['n'],1,right,['2'],5,44,[-0.05504034],49,53,easy,minus,dotcolour,beta,,,36,18,V,R,
713,83,41,16,5,33,47,617,['n'],1,right,['2'],5,115,[-0.02914368],20,47,medium,minus,dotcolour,beta,,,36,18,V,R,
714,84,0,17,5,36,44,617,['n'],1,right,['2'],5,47,[-0.05109293],41,44,hard,minus,dotcolour,beta,,,36,18,V,R,
715,85,1,17,5,44,36,383,['n'],0,left,['2'],5,55,[-0.0748948],82,44,hard,minus,dotcolour,beta,,,36,18,V,R,
716,86,2,17,5,36,44,517,['n'],1,right,['2'],5,42,[-0.0856905],93,44,hard,minus,dotcolour,beta,,,36,18,V,R,
717,87,3,17,5,53,27,567,['c'],1,left,['2'],5,587,[0.13851919],88,53,easy,minus,dotcolour,beta,,,36,18,V,R,
718,88,4,17,5,53,27,567,['c'],1,left,['2'],5,14,[0.07247043],93,53,easy,minus,dotcolour,beta,,,36,18,V,R,
719,89,5,17,5,33,47,383,['n'],1,right,['2'],5,23,[-0.07778837],93,47,medium,minus,dotcolour,beta,,,36,18,V,R,
720,90,6,17,5,33,47,349,['n'],1,right,['2'],5,66,[-0.11368165],98,47,medium,minus,dotcolour,beta,,,36,18,V,R,
721,91,7,17,5,47,33,483,['n'],0,left,['2'],5,85,[-0.03188152],19,47,medium,minus,dotcolour,beta,,,36,18,V,R,
722,92,8,17,5,33,47,634,['n'],1,right,['2'],5,42,[-0.07105809],80,47,medium,minus,dotcolour,beta,,,36,18,V,R,
723,93,9,17,5,27,53,550,['n'],1,right,['2'],5,43,[-0.08411455],92,53,easy,minus,dotcolour,beta,,,36,18,V,R,
724,94,10,17,5,47,33,850,['c'],1,left,['2'],5,104,[0.07403579],74,47,medium,minus,dotcolour,beta,,,36,18,V,R,
725,95,11,17,5,47,33,1067,['c'],1,left,['2'],5,3,[0.07213683],100,47,medium,minus,dotcolour,beta,,,36,18,V,R,
726,96,12,17,5,27,53,450,['n'],1,right,['2'],5,42,[-0.08947244],95,53,easy,minus,dotcolour,beta,,,36,18,V,R,
727,97,13,17,5,33,47,517,['n'],1,right,['2'],5,53,[-0.0803324],87,47,medium,minus,dotcolour,beta,,,36,18,V,R,
728,98,14,17,5,33,47,800,['c'],0,right,['2'],5,108,[0.07406077],73,47,medium,minus,dotcolour,beta,,,36,18,V,R,
729,99,15,17,5,33,47,684,['n'],1,right,['2'],5,61,[-0.07214826],77,47,medium,minus,dotcolour,beta,,,36,18,V,R,
730,100,16,17,5,44,36,533,['c'],1,left,['2'],5,111,[0.0694979],68,44,hard,minus,dotcolour,beta,,,36,18,V,R,
731,101,17,17,5,47,33,500,['n'],0,left,['2'],5,71,[-0.07504928],79,47,medium,minus,dotcolour,beta,,,36,18,V,R,
732,102,18,17,5,53,27,500,['c'],1,left,['2'],5,27,[0.08000736],94,53,easy,minus,dotcolour,beta,,,36,18,V,R,
733,103,19,17,5,53,27,433,['c'],1,left,['2'],5,33,[0.08156864],93,53,easy,minus,dotcolour,beta,,,36,18,V,R,
734,104,20,17,5,27,53,450,['n'],1,right,['2'],5,47,[-0.0917189],95,53,easy,minus,dotcolour,beta,,,36,18,V,R,
735,105,21,17,5,53,27,350,['n'],0,left,['2'],5,104,[-0.09420594],90,53,easy,minus,dotcolour,beta,,,36,18,V,R,
736,106,22,17,5,44,36,467,['n'],0,left,['2'],5,28,[-0.06289266],69,44,hard,minus,dotcolour,beta,,,36,18,V,R,
737,107,23,17,5,27,53,401,['c'],0,right,['2'],5,3,[0.07418227],100,53,easy,minus,dotcolour,beta,,,36,18,V,R,
738,108,24,17,5,36,44,750,['n'],1,right,['2'],5,62,[-0.0827164],88,44,hard,minus,dotcolour,beta,,,36,18,V,R,
739,109,25,17,5,47,33,651,['c'],1,left,['2'],5,75,[0.0668373],68,47,medium,minus,dotcolour,beta,,,36,18,V,R,
740,110,26,17,5,47,33,567,['c'],1,left,['2'],5,10,[0.08273854],99,47,medium,minus,dotcolour,beta,,,36,18,V,R,
741,111,27,17,5,27,53,451,['n'],1,right,['2'],5,66,[-0.08509594],89,53,easy,minus,dotcolour,beta,,,36,18,V,R,
742,112,28,17,5,36,44,417,['n'],1,right,['2'],5,72,[-0.06796241],70,44,hard,minus,dotcolour,beta,,,36,18,V,R,
743,113,29,17,5,27,53,334,['n'],1,right,['2'],5,48,[-0.12951085],100,53,easy,minus,dotcolour,beta,,,36,18,V,R,
744,114,30,17,5,44,36,466,['n'],0,left,['2'],5,101,[-0.05428702],48,44,hard,minus,dotcolour,beta,,,36,18,V,R,
745,115,31,17,5,33,47,550,['n'],1,right,['2'],5,44,[-0.08579032],93,47,medium,minus,dotcolour,beta,,,36,18,V,R,
746,116,32,17,5,44,36,367,['n'],0,left,['2'],5,61,[-0.07409825],79,44,hard,minus,dotcolour,beta,,,36,18,V,R,
747,117,33,17,5,53,27,684,['c'],1,left,['2'],5,24,[0.09177127],99,53,easy,minus,dotcolour,beta,,,36,18,V,R,
748,118,34,17,5,36,44,484,['n'],1,right,['2'],5,53,[-0.06304868],64,44,hard,minus,dotcolour,beta,,,36,18,V,R,
749,119,35,17,5,44,36,484,['n'],0,left,['2'],5,73,[-0.08386352],87,44,hard,minus,dotcolour,beta,,,36,18,V,R,
750,120,36,17,5,44,36,1134,['c'],1,left,['2'],5,1266,[-0.13117242],5,44,hard,minus,dotcolour,beta,,,36,18,V,R,
751,121,37,17,5,36,44,667,['n'],1,right,['2'],5,93,[-0.02715249],16,44,hard,minus,dotcolour,beta,,,36,18,V,R,
752,122,38,17,5,27,53,700,['n'],1,right,['2'],5,103,[-0.13097728],99,53,easy,minus,dotcolour,beta,,,36,18,V,R,
753,123,39,17,5,36,44,566,['n'],1,right,['2'],5,78,[-0.05554397],50,44,hard,minus,dotcolour,beta,,,36,18,V,R,
754,124,40,17,5,47,33,650,['c'],1,left,['2'],5,129,[0.12281839],97,47,medium,minus,dotcolour,beta,,,36,18,V,R,
755,125,41,17,5,53,27,550,['c'],1,left,['2'],5,39,[0.10332805],99,53,easy,minus,dotcolour,beta,,,36,18,V,R,
,,,,,,,,,,,,,,,,,,,,,1,"sommige momenten had ik vaak 100 procent achter elkaar, andere momenten scoorde
 ik redelijk laag",36,18,V,R,
,,,,,,,,,,,,,,,,,,,,,2,['g'],36,18,V,R,
,,,,,,,,,,,,,,,,,,,,,3,['g'],36,18,V,R,
,,,,,,,,,,,,,,,,,,,,,5,"['5', '3']",36,18,V,R,
