trial,withinphasetrial,withinblocktrial,block,phase,dotsLeft,dotsRight,rt,resp,cor,cresp,conf_press,cj,RTconf,ev,fb,diff,difflevel,condition,task,manip,questionID,questionResp,sub,age,gender,handedness,
0,0,0,0,0,36,44,2001,['n'],1,right,['0'],6,2799,[-0.11055337],64,44,hard,minus,dotcolour,beta,,,43,18,V,R,
1,1,1,0,0,53,27,717,['c'],1,left,['0'],6,1170,[0.24522931],96,53,easy,minus,dotcolour,beta,,,43,18,V,R,
2,2,2,0,0,33,47,984,['n'],1,right,['8'],4,1261,[-0.20853335],92,47,medium,minus,dotcolour,beta,,,43,18,V,R,
3,3,3,0,0,27,53,717,['n'],1,right,['9'],5,855,[-0.29115847],99,53,easy,minus,dotcolour,beta,,,43,18,V,R,
4,4,4,0,0,36,44,1684,['n'],1,right,['9'],5,802,[-0.03935977],42,44,hard,minus,dotcolour,beta,,,43,18,V,R,
5,5,5,0,0,36,44,1450,['n'],1,right,['9'],5,721,[-0.11794062],79,44,hard,minus,dotcolour,beta,,,43,18,V,R,
6,6,6,0,0,47,33,1134,['c'],1,left,['0'],6,1616,[0.15254335],80,47,medium,minus,dotcolour,beta,,,43,18,V,R,
7,7,7,0,0,33,47,733,['n'],1,right,['0'],6,1178,[-0.23747598],95,47,medium,minus,dotcolour,beta,,,43,18,V,R,
8,8,8,0,0,33,47,884,['c'],0,right,['9'],5,673,[-0.0425906],10,47,medium,minus,dotcolour,beta,,,43,18,V,R,
9,9,9,0,0,33,47,834,['n'],1,right,['0'],6,438,[-0.18984033],97,47,medium,minus,dotcolour,beta,,,43,18,V,R,
10,10,10,0,0,33,47,1467,['n'],1,right,['0'],6,458,[-0.12146967],85,47,medium,minus,dotcolour,beta,,,43,18,V,R,
11,11,11,0,0,33,47,1050,['n'],1,right,['0'],6,567,[-0.18468771],96,47,medium,minus,dotcolour,beta,,,43,18,V,R,
12,12,12,0,0,44,36,733,['c'],1,left,['8'],4,772,[0.1731579],92,44,hard,minus,dotcolour,beta,,,43,18,V,R,
13,13,13,0,0,33,47,883,['n'],1,right,['0'],6,323,[-0.11595066],87,47,medium,minus,dotcolour,beta,,,43,18,V,R,
14,14,14,0,0,36,44,650,['c'],0,right,['0'],6,373,[0.04413191],42,44,hard,minus,dotcolour,beta,,,43,18,V,R,
15,15,15,0,0,44,36,850,['c'],1,left,['0'],6,621,[0.22863184],98,44,hard,minus,dotcolour,beta,,,43,18,V,R,
16,16,16,0,0,36,44,600,['c'],0,right,['0'],6,325,[0.09835043],79,44,hard,minus,dotcolour,beta,,,43,18,V,R,
17,17,17,0,0,44,36,701,['c'],1,left,['8'],4,1269,[0.32752412],99,44,hard,minus,dotcolour,beta,,,43,18,V,R,
18,18,18,0,0,44,36,950,['c'],1,left,['0'],6,765,[-0.00106949],24,44,hard,minus,dotcolour,beta,,,43,18,V,R,
19,19,19,0,0,47,33,1834,['c'],1,left,['0'],6,798,[0.15108892],87,47,medium,minus,dotcolour,beta,,,43,18,V,R,
20,20,20,0,0,53,27,584,['c'],1,left,['0'],6,529,[0.28450773],100,53,easy,minus,dotcolour,beta,,,43,18,V,R,
21,21,21,0,0,27,53,816,['n'],1,right,['0'],6,459,[-0.2057263],98,53,easy,minus,dotcolour,beta,,,43,18,V,R,
22,22,22,0,0,27,53,983,['n'],1,right,['0'],6,515,[-0.16930326],95,53,easy,minus,dotcolour,beta,,,43,18,V,R,
23,23,23,0,0,44,36,684,['c'],1,left,['0'],6,364,[0.22301679],99,44,hard,minus,dotcolour,beta,,,43,18,V,R,
24,24,24,0,0,47,33,749,['c'],1,left,['0'],6,361,[0.0242439],28,47,medium,minus,dotcolour,beta,,,43,18,V,R,
25,25,25,0,0,36,44,749,['c'],0,right,['0'],6,358,[0.08002165],68,44,hard,minus,dotcolour,beta,,,43,18,V,R,
26,26,26,0,0,27,53,1017,['n'],1,right,['0'],6,384,[-0.07997828],67,53,easy,minus,dotcolour,beta,,,43,18,V,R,
27,27,27,0,0,47,33,716,['c'],1,left,['0'],6,421,[0.1730625],96,47,medium,minus,dotcolour,beta,,,43,18,V,R,
28,28,28,0,0,27,53,967,['n'],1,right,['0'],6,398,[-0.18913299],98,53,easy,minus,dotcolour,beta,,,43,18,V,R,
29,29,29,0,0,53,27,833,['c'],1,left,['0'],6,342,[0.06413605],57,53,easy,minus,dotcolour,beta,,,43,18,V,R,
30,30,30,0,0,53,27,734,['c'],1,left,['0'],6,284,[0.16583566],98,53,easy,minus,dotcolour,beta,,,43,18,V,R,
31,31,31,0,0,36,44,1299,['c'],0,right,['8'],4,454,[0.02973807],33,44,hard,minus,dotcolour,beta,,,43,18,V,R,
32,32,32,0,0,27,53,767,['n'],1,right,['0'],6,310,[0.00173277],14,53,easy,minus,dotcolour,beta,,,43,18,V,R,
33,33,33,0,0,53,27,833,['c'],1,left,['9'],5,1218,[0.17851294],88,53,easy,minus,dotcolour,beta,,,43,18,V,R,
34,34,34,0,0,47,33,632,['c'],1,left,['0'],6,288,[0.1399675],94,47,medium,minus,dotcolour,beta,,,43,18,V,R,
35,35,35,0,0,27,53,767,['n'],1,right,['8'],4,791,[-0.25124104],98,53,easy,minus,dotcolour,beta,,,43,18,V,R,
36,36,36,0,0,53,27,583,['c'],1,left,['0'],6,570,[0.0915827],70,53,easy,minus,dotcolour,beta,,,43,18,V,R,
37,37,37,0,0,47,33,650,['c'],1,left,['0'],6,290,[0.08154001],70,47,medium,minus,dotcolour,beta,,,43,18,V,R,
38,38,38,0,0,44,36,550,['c'],1,left,['0'],6,297,[0.01305418],20,44,hard,minus,dotcolour,beta,,,43,18,V,R,
39,39,39,0,0,44,36,851,['c'],1,left,['8'],4,781,[0.12272242],80,44,hard,minus,dotcolour,beta,,,43,18,V,R,
40,40,40,0,0,47,33,600,['c'],1,left,['9'],5,510,[0.13480823],88,47,medium,minus,dotcolour,beta,,,43,18,V,R,
41,41,41,0,0,53,27,617,['c'],1,left,['9'],5,267,[0.11870914],90,53,easy,minus,dotcolour,beta,,,43,18,V,R,
42,42,0,1,0,44,36,868,['c'],1,left,['8'],4,1229,[0.01759697],35,44,hard,minus,dotcolour,beta,,,43,18,V,R,
43,43,1,1,0,33,47,1000,['n'],1,right,['8'],4,517,[-0.15206902],92,47,medium,minus,dotcolour,beta,,,43,18,V,R,
44,44,2,1,0,33,47,1749,['n'],1,right,['8'],4,356,[-0.13999771],93,47,medium,minus,dotcolour,beta,,,43,18,V,R,
45,45,3,1,0,27,53,1000,['n'],1,right,['0'],6,327,[-0.15990622],96,53,easy,minus,dotcolour,beta,,,43,18,V,R,
46,46,4,1,0,27,53,933,['n'],1,right,['0'],6,373,[-0.15802794],95,53,easy,minus,dotcolour,beta,,,43,18,V,R,
47,47,5,1,0,53,27,800,['c'],1,left,['0'],6,327,[0.08857628],74,53,easy,minus,dotcolour,beta,,,43,18,V,R,
48,48,6,1,0,36,44,1100,['n'],1,right,['9'],5,967,[-0.20321111],94,44,hard,minus,dotcolour,beta,,,43,18,V,R,
49,49,7,1,0,36,44,1366,['n'],1,right,['8'],4,1243,[-0.06643432],54,44,hard,minus,dotcolour,beta,,,43,18,V,R,
50,50,8,1,0,36,44,3000,['c'],0,right,['8'],4,714,[0.07760005],62,44,hard,minus,dotcolour,beta,,,43,18,V,R,
51,51,9,1,0,47,33,651,['c'],1,left,['0'],6,349,[0.05132978],47,47,medium,minus,dotcolour,beta,,,43,18,V,R,
52,52,10,1,0,27,53,767,['n'],1,right,['0'],6,313,[-0.15860475],96,53,easy,minus,dotcolour,beta,,,43,18,V,R,
53,53,11,1,0,33,47,1650,['c'],0,right,['8'],4,1372,[-0.13238615],5,47,medium,minus,dotcolour,beta,,,43,18,V,R,
54,54,12,1,0,53,27,733,['c'],1,left,['0'],6,233,[0.1662549],98,53,easy,minus,dotcolour,beta,,,43,18,V,R,
55,55,13,1,0,27,53,717,['n'],1,right,['0'],6,228,[-0.06489768],59,53,easy,minus,dotcolour,beta,,,43,18,V,R,
56,56,14,1,0,44,36,800,['c'],1,left,['0'],6,204,[0.13954083],97,44,hard,minus,dotcolour,beta,,,43,18,V,R,
57,57,15,1,0,33,47,866,['n'],1,right,['8'],4,811,[-0.12835554],81,47,medium,minus,dotcolour,beta,,,43,18,V,R,
58,58,16,1,0,47,33,834,['c'],1,left,['0'],6,210,[0.14718261],97,47,medium,minus,dotcolour,beta,,,43,18,V,R,
59,59,17,1,0,53,27,667,['c'],1,left,['0'],6,216,[0.05139036],46,53,easy,minus,dotcolour,beta,,,43,18,V,R,
60,60,18,1,0,36,44,883,['c'],0,right,['9'],5,773,[-0.04435766],11,44,hard,minus,dotcolour,beta,,,43,18,V,R,
61,61,19,1,0,36,44,1050,['n'],1,right,['3'],3,1429,[-0.2449487],95,44,hard,minus,dotcolour,beta,,,43,18,V,R,
62,62,20,1,0,47,33,2250,['c'],1,left,['0'],6,379,[0.23349584],99,47,medium,minus,dotcolour,beta,,,43,18,V,R,
63,63,21,1,0,33,47,767,['n'],1,right,['0'],6,215,[-0.10899837],89,47,medium,minus,dotcolour,beta,,,43,18,V,R,
64,64,22,1,0,53,27,667,['c'],1,left,['0'],6,213,[0.07842033],71,53,easy,minus,dotcolour,beta,,,43,18,V,R,
65,65,23,1,0,44,36,1350,['c'],1,left,['9'],5,599,[0.10703085],77,44,hard,minus,dotcolour,beta,,,43,18,V,R,
66,66,24,1,0,47,33,733,['c'],1,left,['9'],5,276,[0.02564773],26,47,medium,minus,dotcolour,beta,,,43,18,V,R,
67,67,25,1,0,27,53,950,['n'],1,right,['0'],6,220,[-0.06010349],54,53,easy,minus,dotcolour,beta,,,43,18,V,R,
68,68,26,1,0,33,47,1017,['c'],0,right,['3'],3,2348,[-0.08138847],17,47,medium,minus,dotcolour,beta,,,43,18,V,R,
69,69,27,1,0,53,27,1851,['c'],1,left,['8'],4,332,[0.12281803],89,53,easy,minus,dotcolour,beta,,,43,18,V,R,
70,70,28,1,0,47,33,1017,['c'],1,left,['8'],4,216,[0.00460494],12,47,medium,minus,dotcolour,beta,,,43,18,V,R,
71,71,29,1,0,27,53,1168,['n'],1,right,['0'],6,249,[-0.08437714],74,53,easy,minus,dotcolour,beta,,,43,18,V,R,
72,72,30,1,0,53,27,717,['c'],1,left,['0'],6,268,[0.11025025],87,53,easy,minus,dotcolour,beta,,,43,18,V,R,
73,73,31,1,0,44,36,650,['c'],1,left,['0'],6,177,[0.10874375],91,44,hard,minus,dotcolour,beta,,,43,18,V,R,
74,74,32,1,0,36,44,851,['c'],0,right,['0'],6,161,[0.03699573],30,44,hard,minus,dotcolour,beta,,,43,18,V,R,
75,75,33,1,0,33,47,933,['c'],0,right,['0'],6,223,[0.02853304],26,47,medium,minus,dotcolour,beta,,,43,18,V,R,
76,76,34,1,0,36,44,683,['c'],0,right,['0'],6,235,[0.05056134],45,44,hard,minus,dotcolour,beta,,,43,18,V,R,
77,77,35,1,0,53,27,600,['c'],1,left,['0'],6,203,[0.07191107],66,53,easy,minus,dotcolour,beta,,,43,18,V,R,
78,78,36,1,0,44,36,933,['c'],1,left,['0'],6,135,[0.099945],90,44,hard,minus,dotcolour,beta,,,43,18,V,R,
79,79,37,1,0,27,53,734,['n'],1,right,['9'],5,830,[-0.23870256],97,53,easy,minus,dotcolour,beta,,,43,18,V,R,
80,80,38,1,0,44,36,816,['c'],1,left,['0'],6,269,[0.10350803],84,44,hard,minus,dotcolour,beta,,,43,18,V,R,
81,81,39,1,0,47,33,517,['c'],1,left,['0'],6,255,[0.06178227],56,47,medium,minus,dotcolour,beta,,,43,18,V,R,
82,82,40,1,0,47,33,634,['c'],1,left,['0'],6,324,[0.05062254],46,47,medium,minus,dotcolour,beta,,,43,18,V,R,
83,83,41,1,0,44,36,566,['c'],1,left,['0'],6,226,[0.13831285],96,44,hard,minus,dotcolour,beta,,,43,18,V,R,
84,84,0,2,0,44,36,1101,['c'],1,left,['0'],6,303,[0.05593745],50,44,hard,minus,dotcolour,beta,,,43,18,V,R,
85,85,1,2,0,53,27,550,['c'],1,left,['0'],6,182,[0.11080878],91,53,easy,minus,dotcolour,beta,,,43,18,V,R,
86,86,2,2,0,36,44,617,['c'],0,right,['0'],6,184,[0.05247284],47,44,hard,minus,dotcolour,beta,,,43,18,V,R,
87,87,3,2,0,53,27,650,['c'],1,left,['0'],6,136,[0.06184497],58,53,easy,minus,dotcolour,beta,,,43,18,V,R,
88,88,4,2,0,44,36,683,['c'],1,left,['3'],3,1145,[0.11000043],71,44,hard,minus,dotcolour,beta,,,43,18,V,R,
89,89,5,2,0,44,36,767,['c'],1,left,['0'],6,557,[0.20596323],97,44,hard,minus,dotcolour,beta,,,43,18,V,R,
90,90,6,2,0,44,36,433,['n'],0,left,['1'],1,1670,[0.01949421],26,44,hard,minus,dotcolour,beta,,,43,18,V,R,
91,91,7,2,0,27,53,2117,['n'],1,right,['3'],3,1208,[-0.45514585],100,53,easy,minus,dotcolour,beta,,,43,18,V,R,
92,92,8,2,0,27,53,1051,['n'],1,right,['0'],6,247,[-0.09020135],78,53,easy,minus,dotcolour,beta,,,43,18,V,R,
93,93,9,2,0,53,27,717,['c'],1,left,['0'],6,218,[0.05405496],49,53,easy,minus,dotcolour,beta,,,43,18,V,R,
94,94,10,2,0,47,33,650,['c'],1,left,['0'],6,240,[0.06609794],60,47,medium,minus,dotcolour,beta,,,43,18,V,R,
95,95,11,2,0,47,33,1533,['c'],1,left,['0'],6,194,[0.11144311],91,47,medium,minus,dotcolour,beta,,,43,18,V,R,
96,96,12,2,0,53,27,617,['c'],1,left,['0'],6,195,[0.1178497],93,53,easy,minus,dotcolour,beta,,,43,18,V,R,
97,97,13,2,0,53,27,567,['c'],1,left,['0'],6,286,[0.02687508],28,53,easy,minus,dotcolour,beta,,,43,18,V,R,
98,98,14,2,0,47,33,533,['c'],1,left,['0'],6,270,[0.10380744],84,47,medium,minus,dotcolour,beta,,,43,18,V,R,
99,99,15,2,0,33,47,900,['n'],1,right,['0'],6,232,[-0.1079668],88,47,medium,minus,dotcolour,beta,,,43,18,V,R,
100,100,16,2,0,27,53,1465,['n'],1,right,['9'],5,374,[-0.10328971],80,53,easy,minus,dotcolour,beta,,,43,18,V,R,
101,101,17,2,0,36,44,735,['c'],0,right,['9'],5,491,[0.09524358],73,44,hard,minus,dotcolour,beta,,,43,18,V,R,
102,102,18,2,0,53,27,883,['c'],1,left,['0'],6,220,[0.05677373],51,53,easy,minus,dotcolour,beta,,,43,18,V,R,
103,103,19,2,0,27,53,968,['n'],1,right,['0'],6,206,[-0.1723087],99,53,easy,minus,dotcolour,beta,,,43,18,V,R,
104,104,20,2,0,44,36,633,['c'],1,left,['0'],6,222,[0.07358887],67,44,hard,minus,dotcolour,beta,,,43,18,V,R,
105,105,21,2,0,27,53,1500,['n'],1,right,['0'],6,1011,[-0.18885449],92,53,easy,minus,dotcolour,beta,,,43,18,V,R,
106,106,22,2,0,44,36,732,['c'],1,left,['0'],6,207,[0.14689461],97,44,hard,minus,dotcolour,beta,,,43,18,V,R,
107,107,23,2,0,27,53,617,['n'],1,right,['9'],5,1102,[-0.14972189],83,53,easy,minus,dotcolour,beta,,,43,18,V,R,
108,108,24,2,0,33,47,1500,['c'],0,right,['8'],4,519,[0.00627007],23,47,medium,minus,dotcolour,beta,,,43,18,V,R,
109,109,25,2,0,47,33,734,['c'],1,left,['0'],6,390,[0.07942235],67,47,medium,minus,dotcolour,beta,,,43,18,V,R,
110,110,26,2,0,47,33,650,['c'],1,left,['0'],6,206,[0.1359952],96,47,medium,minus,dotcolour,beta,,,43,18,V,R,
111,111,27,2,0,47,33,1051,['c'],1,left,['0'],6,221,[0.14180869],96,47,medium,minus,dotcolour,beta,,,43,18,V,R,
112,112,28,2,0,33,47,1416,['c'],0,right,['8'],4,437,[-0.01298325],13,47,medium,minus,dotcolour,beta,,,43,18,V,R,
113,113,29,2,0,36,44,1067,['n'],1,right,['0'],6,314,[-0.14961244],95,44,hard,minus,dotcolour,beta,,,43,18,V,R,
114,114,30,2,0,33,47,1082,['c'],0,right,['8'],4,939,[-0.16398467],2,47,medium,minus,dotcolour,beta,,,43,18,V,R,
115,115,31,2,0,53,27,767,['c'],1,left,['9'],5,968,[0.25850023],98,53,easy,minus,dotcolour,beta,,,43,18,V,R,
116,116,32,2,0,33,47,2100,['n'],1,right,['8'],4,782,[-0.20493311],95,47,medium,minus,dotcolour,beta,,,43,18,V,R,
117,117,33,2,0,27,53,884,['c'],0,right,['1'],1,1069,[-0.08042017],9,53,easy,minus,dotcolour,beta,,,43,18,V,R,
118,118,34,2,0,36,44,784,['n'],1,right,['0'],6,300,[-0.05346113],48,44,hard,minus,dotcolour,beta,,,43,18,V,R,
119,119,35,2,0,36,44,1450,['c'],0,right,['8'],4,535,[0.04261584],42,44,hard,minus,dotcolour,beta,,,43,18,V,R,
120,120,36,2,0,33,47,850,['n'],1,right,['8'],4,937,[-0.35618099],100,47,medium,minus,dotcolour,beta,,,43,18,V,R,
121,121,37,2,0,36,44,917,['n'],1,right,['0'],6,359,[-0.05608388],50,44,hard,minus,dotcolour,beta,,,43,18,V,R,
122,122,38,2,0,33,47,3050,['n'],1,right,['9'],5,864,[-0.11795673],77,47,medium,minus,dotcolour,beta,,,43,18,V,R,
123,123,39,2,0,36,44,1050,['n'],1,right,['9'],5,317,[-0.03416194],34,44,hard,minus,dotcolour,beta,,,43,18,V,R,
124,124,40,2,0,47,33,817,['c'],1,left,['9'],5,897,[0.27543439],98,47,medium,minus,dotcolour,beta,,,43,18,V,R,
125,125,41,2,0,44,36,1001,['n'],0,left,['9'],5,270,[-0.11454229],89,44,hard,minus,dotcolour,beta,,,43,18,V,R,
126,0,0,3,1,44,36,2084,['c'],1,left,['0'],6,487,[0.2553087],100,44,hard,plus,dotcolour,beta,,,43,18,V,R,
127,1,1,3,1,36,44,1034,['n'],1,right,['9'],5,411,[-0.18431863],100,44,hard,plus,dotcolour,beta,,,43,18,V,R,
128,2,2,3,1,53,27,1084,['c'],1,left,['0'],6,241,[0.09079532],100,53,easy,plus,dotcolour,beta,,,43,18,V,R,
129,3,3,3,1,36,44,800,['c'],0,right,['0'],6,280,[0.03690779],96,44,hard,plus,dotcolour,beta,,,43,18,V,R,
130,4,4,3,1,36,44,667,['n'],1,right,['0'],6,340,[-0.1057187],99,44,hard,plus,dotcolour,beta,,,43,18,V,R,
131,5,5,3,1,33,47,682,['n'],1,right,['0'],6,180,[-0.15742551],100,47,medium,plus,dotcolour,beta,,,43,18,V,R,
132,6,6,3,1,44,36,516,['c'],1,left,['0'],6,169,[0.02216506],97,44,hard,plus,dotcolour,beta,,,43,18,V,R,
133,7,7,3,1,53,27,616,['c'],1,left,['0'],6,195,[0.1347226],100,53,easy,plus,dotcolour,beta,,,43,18,V,R,
134,8,8,3,1,44,36,433,['c'],1,left,['0'],6,203,[0.10847457],100,44,hard,plus,dotcolour,beta,,,43,18,V,R,
135,9,9,3,1,44,36,434,['c'],1,left,['0'],6,211,[0.01839558],95,44,hard,plus,dotcolour,beta,,,43,18,V,R,
136,10,10,3,1,53,27,633,['c'],1,left,['0'],6,154,[0.05592543],99,53,easy,plus,dotcolour,beta,,,43,18,V,R,
137,11,11,3,1,27,53,649,['n'],1,right,['0'],6,179,[-0.08261962],100,53,easy,plus,dotcolour,beta,,,43,18,V,R,
138,12,12,3,1,44,36,549,['c'],1,left,['0'],6,136,[0.09357079],100,44,hard,plus,dotcolour,beta,,,43,18,V,R,
139,13,13,3,1,36,44,433,['n'],1,right,['0'],6,154,[-0.09974706],100,44,hard,plus,dotcolour,beta,,,43,18,V,R,
140,14,14,3,1,47,33,549,['c'],1,left,['0'],6,144,[0.0213511],97,47,medium,plus,dotcolour,beta,,,43,18,V,R,
141,15,15,3,1,47,33,717,['c'],1,left,['0'],6,119,[0.11056808],100,47,medium,plus,dotcolour,beta,,,43,18,V,R,
142,16,16,3,1,33,47,1035,['c'],0,right,['0'],6,74,[0.07058408],100,47,medium,plus,dotcolour,beta,,,43,18,V,R,
143,17,17,3,1,36,44,833,['n'],1,right,['3'],3,967,[-0.20056274],99,44,hard,plus,dotcolour,beta,,,43,18,V,R,
144,18,18,3,1,47,33,750,['c'],1,left,['0'],6,186,[0.1035894],100,47,medium,plus,dotcolour,beta,,,43,18,V,R,
145,19,19,3,1,33,47,933,['n'],1,right,['0'],6,143,[-0.07648146],100,47,medium,plus,dotcolour,beta,,,43,18,V,R,
146,20,20,3,1,33,47,2567,['c'],0,right,['8'],4,268,[0.02226079],94,47,medium,plus,dotcolour,beta,,,43,18,V,R,
147,21,21,3,1,36,44,900,['c'],0,right,['0'],6,462,[0.10153363],98,44,hard,plus,dotcolour,beta,,,43,18,V,R,
148,22,22,3,1,44,36,617,['c'],1,left,['0'],6,308,[0.11404382],100,44,hard,plus,dotcolour,beta,,,43,18,V,R,
149,23,23,3,1,44,36,567,['c'],1,left,['0'],6,186,[0.04606427],99,44,hard,plus,dotcolour,beta,,,43,18,V,R,
150,24,24,3,1,47,33,734,['c'],1,left,['0'],6,143,[0.03257429],99,47,medium,plus,dotcolour,beta,,,43,18,V,R,
151,25,25,3,1,27,53,683,['n'],1,right,['0'],6,136,[-0.11700691],100,53,easy,plus,dotcolour,beta,,,43,18,V,R,
152,26,26,3,1,27,53,1050,['n'],1,right,['9'],5,201,[-0.0498043],99,53,easy,plus,dotcolour,beta,,,43,18,V,R,
153,27,27,3,1,33,47,834,['n'],1,right,['9'],5,465,[-0.16295579],100,47,medium,plus,dotcolour,beta,,,43,18,V,R,
154,28,28,3,1,47,33,818,['c'],1,left,['0'],6,319,[0.06660197],98,47,medium,plus,dotcolour,beta,,,43,18,V,R,
155,29,29,3,1,36,44,767,['n'],1,right,['0'],6,141,[-0.12407307],100,44,hard,plus,dotcolour,beta,,,43,18,V,R,
156,30,30,3,1,27,53,2567,['n'],1,right,['8'],4,394,[0.01892518],74,53,easy,plus,dotcolour,beta,,,43,18,V,R,
157,31,31,3,1,47,33,950,['c'],1,left,['0'],6,141,[0.10713039],100,47,medium,plus,dotcolour,beta,,,43,18,V,R,
158,32,32,3,1,33,47,1017,['n'],1,right,['0'],6,144,[-0.06426413],100,47,medium,plus,dotcolour,beta,,,43,18,V,R,
159,33,33,3,1,27,53,850,['c'],0,right,['0'],6,161,[0.00696774],94,53,easy,plus,dotcolour,beta,,,43,18,V,R,
160,34,34,3,1,27,53,1149,['n'],1,right,['0'],6,126,[-0.09349707],100,53,easy,plus,dotcolour,beta,,,43,18,V,R,
161,35,35,3,1,53,27,816,['c'],1,left,['0'],6,121,[0.10397623],100,53,easy,plus,dotcolour,beta,,,43,18,V,R,
162,36,36,3,1,27,53,699,['n'],1,right,['0'],6,114,[-0.0644391],100,53,easy,plus,dotcolour,beta,,,43,18,V,R,
163,37,37,3,1,53,27,750,['c'],1,left,['0'],6,120,[0.11146284],100,53,easy,plus,dotcolour,beta,,,43,18,V,R,
164,38,38,3,1,53,27,667,['c'],1,left,['0'],6,146,[0.14946704],100,53,easy,plus,dotcolour,beta,,,43,18,V,R,
165,39,39,3,1,47,33,683,['c'],1,left,['0'],6,186,[0.07418283],100,47,medium,plus,dotcolour,beta,,,43,18,V,R,
166,40,40,3,1,53,27,617,['c'],1,left,['0'],6,124,[0.06892452],100,53,easy,plus,dotcolour,beta,,,43,18,V,R,
167,41,41,3,1,33,47,768,['n'],1,right,['0'],6,121,[-0.11909519],100,47,medium,plus,dotcolour,beta,,,43,18,V,R,
168,42,0,4,1,53,27,616,['c'],1,left,['0'],6,139,[-0.0127875],89,53,easy,plus,dotcolour,beta,,,43,18,V,R,
169,43,1,4,1,53,27,983,['c'],1,left,['0'],6,159,[0.09603602],100,53,easy,plus,dotcolour,beta,,,43,18,V,R,
170,44,2,4,1,44,36,666,['c'],1,left,['0'],6,159,[0.07018086],100,44,hard,plus,dotcolour,beta,,,43,18,V,R,
171,45,3,4,1,27,53,416,['n'],1,right,['0'],6,105,[-0.09533883],100,53,easy,plus,dotcolour,beta,,,43,18,V,R,
172,46,4,4,1,44,36,500,['c'],1,left,['0'],6,131,[0.12173323],100,44,hard,plus,dotcolour,beta,,,43,18,V,R,
173,47,5,4,1,53,27,600,['c'],1,left,['0'],6,135,[0.02812676],98,53,easy,plus,dotcolour,beta,,,43,18,V,R,
174,48,6,4,1,36,44,451,['c'],0,right,['0'],6,153,[0.12112488],100,44,hard,plus,dotcolour,beta,,,43,18,V,R,
175,49,7,4,1,27,53,417,['c'],0,right,['0'],6,195,[0.03014862],97,53,easy,plus,dotcolour,beta,,,43,18,V,R,
176,50,8,4,1,44,36,650,['c'],1,left,['0'],6,106,[0.12117681],100,44,hard,plus,dotcolour,beta,,,43,18,V,R,
177,51,9,4,1,47,33,566,['c'],1,left,['0'],6,112,[0.01250098],97,47,medium,plus,dotcolour,beta,,,43,18,V,R,
178,52,10,4,1,36,44,700,['c'],0,right,['0'],6,153,[0.1246567],100,44,hard,plus,dotcolour,beta,,,43,18,V,R,
179,53,11,4,1,33,47,850,['n'],1,right,['0'],6,91,[-0.06587698],100,47,medium,plus,dotcolour,beta,,,43,18,V,R,
180,54,12,4,1,47,33,715,['c'],1,left,['0'],6,139,[0.08852685],100,47,medium,plus,dotcolour,beta,,,43,18,V,R,
181,55,13,4,1,36,44,899,['n'],1,right,['0'],6,99,[-0.09943972],100,44,hard,plus,dotcolour,beta,,,43,18,V,R,
182,56,14,4,1,47,33,634,['c'],1,left,['0'],6,144,[0.10676757],100,47,medium,plus,dotcolour,beta,,,43,18,V,R,
183,57,15,4,1,53,27,484,['c'],1,left,['0'],6,111,[0.04800812],100,53,easy,plus,dotcolour,beta,,,43,18,V,R,
184,58,16,4,1,33,47,1016,['n'],1,right,['0'],6,83,[-0.09598869],100,47,medium,plus,dotcolour,beta,,,43,18,V,R,
185,59,17,4,1,36,44,1766,['n'],1,right,['8'],4,411,[-0.11716498],99,44,hard,plus,dotcolour,beta,,,43,18,V,R,
186,60,18,4,1,27,53,800,['n'],1,right,['0'],6,243,[-0.12366439],100,53,easy,plus,dotcolour,beta,,,43,18,V,R,
187,61,19,4,1,36,44,783,['c'],0,right,['0'],6,115,[0.08786979],100,44,hard,plus,dotcolour,beta,,,43,18,V,R,
188,62,20,4,1,44,36,583,['c'],1,left,['0'],6,105,[0.0150698],98,44,hard,plus,dotcolour,beta,,,43,18,V,R,
189,63,21,4,1,47,33,600,['c'],1,left,['0'],6,150,[0.13006419],100,47,medium,plus,dotcolour,beta,,,43,18,V,R,
190,64,22,4,1,47,33,650,['c'],1,left,['0'],6,119,[0.04552481],99,47,medium,plus,dotcolour,beta,,,43,18,V,R,
191,65,23,4,1,47,33,534,['c'],1,left,['0'],6,135,[0.07203459],100,47,medium,plus,dotcolour,beta,,,43,18,V,R,
192,66,24,4,1,27,53,1167,['n'],1,right,['8'],4,388,[-0.15487029],100,53,easy,plus,dotcolour,beta,,,43,18,V,R,
193,67,25,4,1,44,36,567,['c'],1,left,['0'],6,127,[0.12550555],100,44,hard,plus,dotcolour,beta,,,43,18,V,R,
194,68,26,4,1,33,47,783,['n'],1,right,['0'],6,100,[-0.08957953],100,47,medium,plus,dotcolour,beta,,,43,18,V,R,
195,69,27,4,1,33,47,3134,['c'],0,right,['0'],6,155,[0.07254078],100,47,medium,plus,dotcolour,beta,,,43,18,V,R,
196,70,28,4,1,27,53,817,['n'],1,right,['0'],6,117,[-0.08791071],100,53,easy,plus,dotcolour,beta,,,43,18,V,R,
197,71,29,4,1,27,53,683,['n'],1,right,['0'],6,87,[-0.09827021],100,53,easy,plus,dotcolour,beta,,,43,18,V,R,
198,72,30,4,1,44,36,800,['c'],1,left,['0'],6,93,[0.06375194],100,44,hard,plus,dotcolour,beta,,,43,18,V,R,
199,73,31,4,1,53,27,484,['c'],1,left,['0'],6,103,[0.12491632],100,53,easy,plus,dotcolour,beta,,,43,18,V,R,
200,74,32,4,1,33,47,733,['n'],1,right,['0'],6,95,[-0.16059381],100,47,medium,plus,dotcolour,beta,,,43,18,V,R,
201,75,33,4,1,53,27,750,['c'],1,left,['0'],6,102,[0.14911097],100,53,easy,plus,dotcolour,beta,,,43,18,V,R,
202,76,34,4,1,36,44,534,['c'],0,right,['0'],6,110,[0.1012911],100,44,hard,plus,dotcolour,beta,,,43,18,V,R,
203,77,35,4,1,33,47,717,['c'],0,right,['0'],6,790,[-0.03047208],62,47,medium,plus,dotcolour,beta,,,43,18,V,R,
204,78,36,4,1,53,27,650,['c'],1,left,['0'],6,94,[0.16249795],100,53,easy,plus,dotcolour,beta,,,43,18,V,R,
205,79,37,4,1,27,53,800,['n'],1,right,['0'],6,99,[-0.10361261],100,53,easy,plus,dotcolour,beta,,,43,18,V,R,
206,80,38,4,1,44,36,567,['c'],1,left,['0'],6,90,[0.08557952],100,44,hard,plus,dotcolour,beta,,,43,18,V,R,
207,81,39,4,1,33,47,717,['n'],1,right,['0'],6,91,[-0.08452419],100,47,medium,plus,dotcolour,beta,,,43,18,V,R,
208,82,40,4,1,47,33,567,['c'],1,left,['0'],6,97,[0.05584473],100,47,medium,plus,dotcolour,beta,,,43,18,V,R,
209,83,41,4,1,36,44,1001,['n'],1,right,['0'],6,95,[-0.0371709],100,44,hard,plus,dotcolour,beta,,,43,18,V,R,
210,84,0,5,1,47,33,1350,['c'],1,left,['8'],4,414,[0.14823046],100,47,medium,plus,dotcolour,beta,,,43,18,V,R,
211,85,1,5,1,33,47,882,['n'],1,right,['0'],6,124,[-0.07712567],100,47,medium,plus,dotcolour,beta,,,43,18,V,R,
212,86,2,5,1,47,33,666,['n'],0,left,['0'],6,109,[-0.12268908],100,47,medium,plus,dotcolour,beta,,,43,18,V,R,
213,87,3,5,1,47,33,550,['c'],1,left,['0'],6,123,[0.09581559],100,47,medium,plus,dotcolour,beta,,,43,18,V,R,
214,88,4,5,1,53,27,651,['c'],1,left,['0'],6,93,[0.10609455],100,53,easy,plus,dotcolour,beta,,,43,18,V,R,
215,89,5,5,1,53,27,550,['c'],1,left,['0'],6,100,[0.09316598],100,53,easy,plus,dotcolour,beta,,,43,18,V,R,
216,90,6,5,1,36,44,816,['n'],1,right,['0'],6,1673,[-0.20420723],97,44,hard,plus,dotcolour,beta,,,43,18,V,R,
217,91,7,5,1,36,44,750,['n'],1,right,['0'],6,97,[-0.05738981],100,44,hard,plus,dotcolour,beta,,,43,18,V,R,
218,92,8,5,1,27,53,567,['n'],1,right,['0'],6,96,[-0.07452187],100,53,easy,plus,dotcolour,beta,,,43,18,V,R,
219,93,9,5,1,36,44,517,['n'],1,right,['0'],6,105,[-0.06170231],100,44,hard,plus,dotcolour,beta,,,43,18,V,R,
220,94,10,5,1,33,47,450,['n'],1,right,['0'],6,124,[-0.08230069],100,47,medium,plus,dotcolour,beta,,,43,18,V,R,
221,95,11,5,1,33,47,666,['c'],0,right,['0'],6,85,[0.0810228],100,47,medium,plus,dotcolour,beta,,,43,18,V,R,
222,96,12,5,1,36,44,517,['c'],0,right,['0'],6,103,[0.08472271],100,44,hard,plus,dotcolour,beta,,,43,18,V,R,
223,97,13,5,1,36,44,816,['n'],1,right,['0'],6,107,[-0.06776449],100,44,hard,plus,dotcolour,beta,,,43,18,V,R,
224,98,14,5,1,44,36,517,['c'],1,left,['0'],6,123,[0.05567397],100,44,hard,plus,dotcolour,beta,,,43,18,V,R,
225,99,15,5,1,47,33,734,['n'],0,left,['0'],6,114,[-0.04710746],100,47,medium,plus,dotcolour,beta,,,43,18,V,R,
226,100,16,5,1,44,36,1567,['c'],1,left,['0'],6,120,[0.11162175],100,44,hard,plus,dotcolour,beta,,,43,18,V,R,
227,101,17,5,1,36,44,583,['c'],0,right,['0'],6,165,[0.04521712],99,44,hard,plus,dotcolour,beta,,,43,18,V,R,
228,102,18,5,1,27,53,1816,['n'],1,right,['8'],4,295,[-0.13917042],100,53,easy,plus,dotcolour,beta,,,43,18,V,R,
229,103,19,5,1,47,33,1517,['n'],0,left,['9'],5,1224,[-0.09418242],92,47,medium,plus,dotcolour,beta,,,43,18,V,R,
230,104,20,5,1,53,27,900,['c'],1,left,['0'],6,132,[0.06841129],100,53,easy,plus,dotcolour,beta,,,43,18,V,R,
231,105,21,5,1,36,44,500,['c'],0,right,['0'],6,148,[0.13957129],100,44,hard,plus,dotcolour,beta,,,43,18,V,R,
232,106,22,5,1,47,33,500,['c'],1,left,['0'],6,115,[0.09473242],100,47,medium,plus,dotcolour,beta,,,43,18,V,R,
233,107,23,5,1,44,36,367,['c'],1,left,['0'],6,105,[0.08464347],100,44,hard,plus,dotcolour,beta,,,43,18,V,R,
234,108,24,5,1,44,36,367,['c'],1,left,['0'],6,88,[0.05056927],100,44,hard,plus,dotcolour,beta,,,43,18,V,R,
235,109,25,5,1,44,36,334,['c'],1,left,['0'],6,104,[0.12126741],100,44,hard,plus,dotcolour,beta,,,43,18,V,R,
236,110,26,5,1,53,27,350,['c'],1,left,['0'],6,112,[0.08958315],100,53,easy,plus,dotcolour,beta,,,43,18,V,R,
237,111,27,5,1,53,27,415,['c'],1,left,['0'],6,109,[0.0600298],100,53,easy,plus,dotcolour,beta,,,43,18,V,R,
238,112,28,5,1,47,33,366,['c'],1,left,['0'],6,115,[0.06250763],100,47,medium,plus,dotcolour,beta,,,43,18,V,R,
239,113,29,5,1,27,53,683,['n'],1,right,['0'],6,131,[-0.04518109],99,53,easy,plus,dotcolour,beta,,,43,18,V,R,
240,114,30,5,1,27,53,533,['n'],1,right,['0'],6,114,[-0.187809],100,53,easy,plus,dotcolour,beta,,,43,18,V,R,
241,115,31,5,1,33,47,2183,['n'],1,right,['8'],4,167,[-0.12096237],100,47,medium,plus,dotcolour,beta,,,43,18,V,R,
242,116,32,5,1,33,47,634,['n'],1,right,['8'],4,256,[-0.15792297],100,47,medium,plus,dotcolour,beta,,,43,18,V,R,
243,117,33,5,1,44,36,734,['c'],1,left,['0'],6,98,[0.09235673],100,44,hard,plus,dotcolour,beta,,,43,18,V,R,
244,118,34,5,1,27,53,667,['n'],1,right,['8'],4,317,[-0.0528698],97,53,easy,plus,dotcolour,beta,,,43,18,V,R,
245,119,35,5,1,33,47,767,['n'],1,right,['0'],6,123,[-0.07951195],100,47,medium,plus,dotcolour,beta,,,43,18,V,R,
246,120,36,5,1,53,27,633,['c'],1,left,['0'],6,109,[0.09722906],100,53,easy,plus,dotcolour,beta,,,43,18,V,R,
247,121,37,5,1,27,53,1617,['c'],0,right,['8'],4,121,[0.06014381],100,53,easy,plus,dotcolour,beta,,,43,18,V,R,
248,122,38,5,1,27,53,867,['c'],0,right,['1'],1,1643,[-0.30132924],3,53,easy,plus,dotcolour,beta,,,43,18,V,R,
249,123,39,5,1,33,47,3150,['n'],1,right,['1'],1,245,[-0.18414161],100,47,medium,plus,dotcolour,beta,,,43,18,V,R,
250,124,40,5,1,53,27,1250,['c'],1,left,['0'],6,130,[0.06681666],100,53,easy,plus,dotcolour,beta,,,43,18,V,R,
251,125,41,5,1,44,36,1416,['n'],0,left,['0'],6,93,[-0.08560274],100,44,hard,plus,dotcolour,beta,,,43,18,V,R,
252,0,0,6,2,27,53,768,['n'],1,right,['0'],6,103,[-0.05754739],53,53,easy,minus,dotcolour,beta,,,43,18,V,R,
253,1,1,6,2,47,33,484,['c'],1,left,['0'],6,97,[0.11015933],96,47,medium,minus,dotcolour,beta,,,43,18,V,R,
254,2,2,6,2,53,27,1167,['c'],1,left,['0'],6,71,[0.07732325],81,53,easy,minus,dotcolour,beta,,,43,18,V,R,
255,3,3,6,2,36,44,750,['n'],1,right,['1'],1,800,[-0.07566197],60,44,hard,minus,dotcolour,beta,,,43,18,V,R,
256,4,4,6,2,53,27,751,['c'],1,left,['0'],6,91,[0.08418859],85,53,easy,minus,dotcolour,beta,,,43,18,V,R,
257,5,5,6,2,27,53,650,['n'],1,right,['0'],6,87,[-0.08640617],87,53,easy,minus,dotcolour,beta,,,43,18,V,R,
258,6,6,6,2,27,53,1050,['c'],0,right,['0'],6,43,[0.07094975],79,53,easy,minus,dotcolour,beta,,,43,18,V,R,
259,7,7,6,2,53,27,517,['c'],1,left,['0'],6,117,[0.10138338],92,53,easy,minus,dotcolour,beta,,,43,18,V,R,
260,8,8,6,2,33,47,917,['n'],1,right,['0'],6,189,[-0.05063711],45,47,medium,minus,dotcolour,beta,,,43,18,V,R,
261,9,9,6,2,47,33,583,['c'],1,left,['0'],6,128,[0.02238987],16,47,medium,minus,dotcolour,beta,,,43,18,V,R,
262,10,10,6,2,36,44,2001,['n'],1,right,['8'],4,100,[-0.07518112],75,44,hard,minus,dotcolour,beta,,,43,18,V,R,
263,11,11,6,2,44,36,884,['c'],1,left,['0'],6,78,[0.0907001],91,44,hard,minus,dotcolour,beta,,,43,18,V,R,
264,12,12,6,2,27,53,717,['n'],1,right,['8'],4,111,[-0.03736208],27,53,easy,minus,dotcolour,beta,,,43,18,V,R,
265,13,13,6,2,47,33,650,['c'],1,left,['0'],6,137,[0.06867489],65,47,medium,minus,dotcolour,beta,,,43,18,V,R,
266,14,14,6,2,47,33,651,['c'],1,left,['0'],6,108,[0.08522497],84,47,medium,minus,dotcolour,beta,,,43,18,V,R,
267,15,15,6,2,44,36,584,['c'],1,left,['0'],6,88,[0.03293247],20,44,hard,minus,dotcolour,beta,,,43,18,V,R,
268,16,16,6,2,36,44,818,['n'],1,right,['0'],6,142,[-0.0434366],36,44,hard,minus,dotcolour,beta,,,43,18,V,R,
269,17,17,6,2,44,36,684,['c'],1,left,['0'],6,110,[0.15610047],100,44,hard,minus,dotcolour,beta,,,43,18,V,R,
270,18,18,6,2,44,36,484,['c'],1,left,['0'],6,151,[-0.0139163],4,44,hard,minus,dotcolour,beta,,,43,18,V,R,
271,19,19,6,2,27,53,801,['n'],1,right,['0'],6,107,[-0.0884987],86,53,easy,minus,dotcolour,beta,,,43,18,V,R,
272,20,20,6,2,47,33,634,['c'],1,left,['0'],6,158,[0.09230144],84,47,medium,minus,dotcolour,beta,,,43,18,V,R,
273,21,21,6,2,27,53,750,['n'],1,right,['0'],6,147,[-0.08470401],80,53,easy,minus,dotcolour,beta,,,43,18,V,R,
274,22,22,6,2,47,33,583,['c'],1,left,['0'],6,111,[0.04861005],41,47,medium,minus,dotcolour,beta,,,43,18,V,R,
275,23,23,6,2,36,44,834,['n'],1,right,['0'],6,114,[-0.08216769],81,44,hard,minus,dotcolour,beta,,,43,18,V,R,
276,24,24,6,2,44,36,500,['c'],1,left,['0'],6,171,[0.04755799],41,44,hard,minus,dotcolour,beta,,,43,18,V,R,
277,25,25,6,2,44,36,785,['c'],1,left,['0'],6,126,[0.08550548],82,44,hard,minus,dotcolour,beta,,,43,18,V,R,
278,26,26,6,2,33,47,999,['c'],0,right,['0'],6,82,[0.10321201],95,47,medium,minus,dotcolour,beta,,,43,18,V,R,
279,27,27,6,2,36,44,484,['n'],1,right,['0'],6,165,[-0.12250218],95,44,hard,minus,dotcolour,beta,,,43,18,V,R,
280,28,28,6,2,36,44,1700,['n'],1,right,['8'],4,92,[-0.11276756],97,44,hard,minus,dotcolour,beta,,,43,18,V,R,
281,29,29,6,2,47,33,350,['c'],1,left,['0'],6,123,[0.1294926],98,47,medium,minus,dotcolour,beta,,,43,18,V,R,
282,30,30,6,2,33,47,500,['c'],0,right,['0'],6,148,[0.04513944],38,47,medium,minus,dotcolour,beta,,,43,18,V,R,
283,31,31,6,2,27,53,850,['n'],1,right,['0'],6,85,[-0.06682853],67,53,easy,minus,dotcolour,beta,,,43,18,V,R,
284,32,32,6,2,33,47,483,['n'],1,right,['0'],6,88,[-0.04562648],35,47,medium,minus,dotcolour,beta,,,43,18,V,R,
285,33,33,6,2,53,27,517,['c'],1,left,['0'],6,121,[0.0942815],88,53,easy,minus,dotcolour,beta,,,43,18,V,R,
286,34,34,6,2,44,36,1867,['c'],1,left,['0'],6,83,[0.04331252],32,44,hard,minus,dotcolour,beta,,,43,18,V,R,
287,35,35,6,2,53,27,632,['c'],1,left,['0'],6,104,[0.09965128],92,53,easy,minus,dotcolour,beta,,,43,18,V,R,
288,36,36,6,2,53,27,399,['c'],1,left,['0'],6,85,[0.10320961],95,53,easy,minus,dotcolour,beta,,,43,18,V,R,
289,37,37,6,2,33,47,651,['n'],1,right,['0'],6,81,[-0.10524118],96,47,medium,minus,dotcolour,beta,,,43,18,V,R,
290,38,38,6,2,36,44,650,['n'],1,right,['0'],6,93,[-0.04909299],41,44,hard,minus,dotcolour,beta,,,43,18,V,R,
291,39,39,6,2,33,47,867,['n'],1,right,['0'],6,144,[-0.07810675],74,47,medium,minus,dotcolour,beta,,,43,18,V,R,
292,40,40,6,2,33,47,667,['c'],0,right,['0'],6,112,[0.07382133],73,47,medium,minus,dotcolour,beta,,,43,18,V,R,
293,41,41,6,2,53,27,550,['c'],1,left,['0'],6,79,[0.07350146],76,53,easy,minus,dotcolour,beta,,,43,18,V,R,
294,42,0,7,2,47,33,2417,['c'],1,left,['0'],6,112,[0.05005414],43,47,medium,minus,dotcolour,beta,,,43,18,V,R,
295,43,1,7,2,44,36,800,['n'],0,left,['0'],6,108,[-0.09328211],89,44,hard,minus,dotcolour,beta,,,43,18,V,R,
296,44,2,7,2,44,36,566,['c'],1,left,['0'],6,210,[0.07476399],68,44,hard,minus,dotcolour,beta,,,43,18,V,R,
297,45,3,7,2,36,44,767,['n'],1,right,['0'],6,116,[-0.12680508],98,44,hard,minus,dotcolour,beta,,,43,18,V,R,
298,46,4,7,2,27,53,1600,['n'],1,right,['1'],1,1129,[-0.26521523],97,53,easy,minus,dotcolour,beta,,,43,18,V,R,
299,47,5,7,2,36,44,483,['c'],0,right,['3'],3,1377,[-0.19564986],2,44,hard,minus,dotcolour,beta,,,43,18,V,R,
300,48,6,7,2,33,47,949,['n'],1,right,['0'],6,102,[-0.04548998],36,47,medium,minus,dotcolour,beta,,,43,18,V,R,
301,49,7,7,2,47,33,733,['n'],0,left,['0'],6,117,[-0.03527209],26,47,medium,minus,dotcolour,beta,,,43,18,V,R,
302,50,8,7,2,27,53,734,['n'],1,right,['0'],6,108,[-0.03009576],20,53,easy,minus,dotcolour,beta,,,43,18,V,R,
303,51,9,7,2,47,33,551,['c'],1,left,['0'],6,108,[0.04135123],31,47,medium,minus,dotcolour,beta,,,43,18,V,R,
304,52,10,7,2,44,36,1567,['c'],1,left,['0'],6,465,[0.11633694],83,44,hard,minus,dotcolour,beta,,,43,18,V,R,
305,53,11,7,2,53,27,533,['c'],1,left,['0'],6,155,[0.05638016],51,53,easy,minus,dotcolour,beta,,,43,18,V,R,
306,54,12,7,2,47,33,666,['c'],1,left,['0'],6,163,[0.12363125],95,47,medium,minus,dotcolour,beta,,,43,18,V,R,
307,55,13,7,2,27,53,1149,['n'],1,right,['8'],4,1792,[-0.33309677],98,53,easy,minus,dotcolour,beta,,,43,18,V,R,
308,56,14,7,2,47,33,700,['c'],1,left,['0'],6,117,[0.07105237],69,47,medium,minus,dotcolour,beta,,,43,18,V,R,
309,57,15,7,2,44,36,700,['n'],0,left,['0'],6,342,[-0.08640397],72,44,hard,minus,dotcolour,beta,,,43,18,V,R,
310,58,16,7,2,53,27,567,['c'],1,left,['0'],6,235,[0.08817391],77,53,easy,minus,dotcolour,beta,,,43,18,V,R,
311,59,17,7,2,53,27,585,['c'],1,left,['0'],6,179,[0.06050509],55,53,easy,minus,dotcolour,beta,,,43,18,V,R,
312,60,18,7,2,36,44,1467,['n'],1,right,['8'],4,131,[-0.08818935],84,44,hard,minus,dotcolour,beta,,,43,18,V,R,
313,61,19,7,2,36,44,1350,['n'],1,right,['8'],4,2441,[-0.10733681],64,44,hard,minus,dotcolour,beta,,,43,18,V,R,
314,62,20,7,2,27,53,833,['n'],1,right,['0'],6,110,[-0.02978731],20,53,easy,minus,dotcolour,beta,,,43,18,V,R,
315,63,21,7,2,27,53,1967,['n'],1,right,['0'],6,108,[-0.08306732],82,53,easy,minus,dotcolour,beta,,,43,18,V,R,
316,64,22,7,2,47,33,666,['c'],1,left,['0'],6,94,[0.13649846],99,47,medium,minus,dotcolour,beta,,,43,18,V,R,
317,65,23,7,2,27,53,750,['n'],1,right,['0'],6,94,[-0.05326537],47,53,easy,minus,dotcolour,beta,,,43,18,V,R,
318,66,24,7,2,36,44,2766,['c'],0,right,['0'],6,117,[0.05923361],55,44,hard,minus,dotcolour,beta,,,43,18,V,R,
319,67,25,7,2,33,47,666,['n'],1,right,['0'],6,110,[-0.03261235],22,47,medium,minus,dotcolour,beta,,,43,18,V,R,
320,68,26,7,2,44,36,717,['c'],1,left,['0'],6,102,[0.11177613],96,44,hard,minus,dotcolour,beta,,,43,18,V,R,
321,69,27,7,2,53,27,850,['c'],1,left,['0'],6,97,[0.06268284],60,53,easy,minus,dotcolour,beta,,,43,18,V,R,
322,70,28,7,2,36,44,634,['c'],0,right,['0'],6,133,[0.02989809],22,44,hard,minus,dotcolour,beta,,,43,18,V,R,
323,71,29,7,2,33,47,917,['n'],1,right,['0'],6,1277,[-0.26413992],97,47,medium,minus,dotcolour,beta,,,43,18,V,R,
324,72,30,7,2,36,44,750,['c'],0,right,['0'],6,165,[0.05847557],53,44,hard,minus,dotcolour,beta,,,43,18,V,R,
325,73,31,7,2,53,27,684,['c'],1,left,['0'],6,180,[0.11781591],93,53,easy,minus,dotcolour,beta,,,43,18,V,R,
326,74,32,7,2,44,36,784,['c'],1,left,['0'],6,142,[0.10771559],92,44,hard,minus,dotcolour,beta,,,43,18,V,R,
327,75,33,7,2,33,47,818,['n'],1,right,['0'],6,177,[-0.06549739],60,47,medium,minus,dotcolour,beta,,,43,18,V,R,
328,76,34,7,2,33,47,667,['c'],0,right,['0'],6,217,[0.09437485],82,47,medium,minus,dotcolour,beta,,,43,18,V,R,
329,77,35,7,2,33,47,1633,['c'],0,right,['1'],1,1512,[-0.02100498],25,47,medium,minus,dotcolour,beta,,,43,18,V,R,
330,78,36,7,2,47,33,550,['c'],1,left,['0'],6,422,[0.06903786],59,47,medium,minus,dotcolour,beta,,,43,18,V,R,
331,79,37,7,2,33,47,517,['c'],0,right,['8'],4,1082,[-0.00676925],25,47,medium,minus,dotcolour,beta,,,43,18,V,R,
332,80,38,7,2,44,36,651,['c'],1,left,['9'],5,1070,[0.05021039],48,44,hard,minus,dotcolour,beta,,,43,18,V,R,
333,81,39,7,2,53,27,633,['c'],1,left,['0'],6,267,[0.12572562],92,53,easy,minus,dotcolour,beta,,,43,18,V,R,
334,82,40,7,2,53,27,466,['c'],1,left,['0'],6,280,[0.11613395],89,53,easy,minus,dotcolour,beta,,,43,18,V,R,
335,83,41,7,2,27,53,800,['n'],1,right,['0'],6,197,[-0.09979011],86,53,easy,minus,dotcolour,beta,,,43,18,V,R,
336,84,0,8,2,36,44,867,['n'],1,right,['0'],6,147,[-0.09738328],88,44,hard,minus,dotcolour,beta,,,43,18,V,R,
337,85,1,8,2,53,27,550,['c'],1,left,['0'],6,112,[0.12812279],98,53,easy,minus,dotcolour,beta,,,43,18,V,R,
338,86,2,8,2,53,27,450,['c'],1,left,['0'],6,123,[0.07540762],73,53,easy,minus,dotcolour,beta,,,43,18,V,R,
339,87,3,8,2,47,33,534,['c'],1,left,['0'],6,162,[0.13737016],97,47,medium,minus,dotcolour,beta,,,43,18,V,R,
340,88,4,8,2,47,33,533,['c'],1,left,['0'],6,151,[0.16585621],99,47,medium,minus,dotcolour,beta,,,43,18,V,R,
341,89,5,8,2,27,53,750,['n'],1,right,['0'],6,108,[0.00321061],4,53,easy,minus,dotcolour,beta,,,43,18,V,R,
342,90,6,8,2,53,27,534,['c'],1,left,['0'],6,123,[0.13477049],98,53,easy,minus,dotcolour,beta,,,43,18,V,R,
343,91,7,8,2,36,44,650,['n'],1,right,['0'],6,110,[-0.10013285],92,44,hard,minus,dotcolour,beta,,,43,18,V,R,
344,92,8,8,2,33,47,567,['c'],0,right,['0'],6,108,[0.03011526],20,47,medium,minus,dotcolour,beta,,,43,18,V,R,
345,93,9,8,2,33,47,817,['c'],0,right,['0'],6,96,[0.0293428],18,47,medium,minus,dotcolour,beta,,,43,18,V,R,
346,94,10,8,2,53,27,450,['c'],1,left,['0'],6,123,[0.08958969],85,53,easy,minus,dotcolour,beta,,,43,18,V,R,
347,95,11,8,2,36,44,551,['c'],0,right,['0'],6,137,[0.1645919],100,44,hard,minus,dotcolour,beta,,,43,18,V,R,
348,96,12,8,2,33,47,2885,['c'],0,right,['8'],4,138,[0.02386707],18,47,medium,minus,dotcolour,beta,,,43,18,V,R,
349,97,13,8,2,44,36,1784,['n'],0,left,['8'],4,750,[0.01942867],17,44,hard,minus,dotcolour,beta,,,43,18,V,R,
350,98,14,8,2,47,33,483,['c'],1,left,['0'],6,102,[0.10943214],95,47,medium,minus,dotcolour,beta,,,43,18,V,R,
351,99,15,8,2,47,33,417,['c'],1,left,['0'],6,123,[0.09248893],87,47,medium,minus,dotcolour,beta,,,43,18,V,R,
352,100,16,8,2,27,53,699,['n'],1,right,['0'],6,83,[-0.11230581],97,53,easy,minus,dotcolour,beta,,,43,18,V,R,
353,101,17,8,2,44,36,834,['c'],1,left,['0'],6,112,[0.13529788],99,44,hard,minus,dotcolour,beta,,,43,18,V,R,
354,102,18,8,2,33,47,783,['n'],1,right,['0'],6,157,[-0.13008654],97,47,medium,minus,dotcolour,beta,,,43,18,V,R,
355,103,19,8,2,27,53,800,['n'],1,right,['0'],6,136,[-0.08782833],83,53,easy,minus,dotcolour,beta,,,43,18,V,R,
356,104,20,8,2,33,47,650,['n'],1,right,['0'],6,338,[-0.11075094],85,47,medium,minus,dotcolour,beta,,,43,18,V,R,
357,105,21,8,2,44,36,950,['c'],1,left,['1'],1,1439,[0.02179058],38,44,hard,minus,dotcolour,beta,,,43,18,V,R,
358,106,22,8,2,33,47,1000,['n'],1,right,['3'],3,2167,[-0.38507457],98,47,medium,minus,dotcolour,beta,,,43,18,V,R,
359,107,23,8,2,36,44,2284,['c'],0,right,['8'],4,366,[-0.12136073],1,44,hard,minus,dotcolour,beta,,,43,18,V,R,
360,108,24,8,2,53,27,617,['c'],1,left,['0'],6,191,[0.13995912],97,53,easy,minus,dotcolour,beta,,,43,18,V,R,
361,109,25,8,2,27,53,833,['n'],1,right,['9'],5,1032,[-0.1508371],84,53,easy,minus,dotcolour,beta,,,43,18,V,R,
362,110,26,8,2,36,44,3033,['c'],0,right,['0'],6,358,[0.16114535],96,44,hard,minus,dotcolour,beta,,,43,18,V,R,
363,111,27,8,2,44,36,749,['c'],1,left,['0'],6,179,[0.07618876],71,44,hard,minus,dotcolour,beta,,,43,18,V,R,
364,112,28,8,2,44,36,616,['c'],1,left,['0'],6,164,[0.04305918],36,44,hard,minus,dotcolour,beta,,,43,18,V,R,
365,113,29,8,2,27,53,750,['c'],0,right,['1'],1,769,[-0.092501],5,53,easy,minus,dotcolour,beta,,,43,18,V,R,
366,114,30,8,2,44,36,2050,['n'],0,left,['8'],4,329,[-0.05755666],52,44,hard,minus,dotcolour,beta,,,43,18,V,R,
367,115,31,8,2,27,53,667,['n'],1,right,['0'],6,4546,[-0.7871155],100,53,easy,minus,dotcolour,beta,,,43,18,V,R,
368,116,32,8,2,47,33,767,['c'],1,left,['0'],6,141,[0.04914986],42,47,medium,minus,dotcolour,beta,,,43,18,V,R,
369,117,33,8,2,53,27,583,['c'],1,left,['0'],6,106,[0.11247308],96,53,easy,minus,dotcolour,beta,,,43,18,V,R,
370,118,34,8,2,33,47,850,['n'],1,right,['0'],6,165,[-0.1653634],99,47,medium,minus,dotcolour,beta,,,43,18,V,R,
371,119,35,8,2,47,33,534,['c'],1,left,['0'],6,146,[0.01078016],11,47,medium,minus,dotcolour,beta,,,43,18,V,R,
372,120,36,8,2,27,53,684,['n'],1,right,['0'],6,122,[-0.07808006],76,53,easy,minus,dotcolour,beta,,,43,18,V,R,
373,121,37,8,2,36,44,517,['c'],0,right,['0'],6,146,[0.11415084],94,44,hard,minus,dotcolour,beta,,,43,18,V,R,
374,122,38,8,2,53,27,617,['c'],1,left,['0'],6,133,[0.15071327],99,53,easy,minus,dotcolour,beta,,,43,18,V,R,
375,123,39,8,2,44,36,1066,['c'],1,left,['0'],6,134,[0.08549803],81,44,hard,minus,dotcolour,beta,,,43,18,V,R,
376,124,40,8,2,36,44,683,['c'],0,right,['0'],6,150,[0.0792442],75,44,hard,minus,dotcolour,beta,,,43,18,V,R,
377,125,41,8,2,47,33,867,['c'],1,left,['0'],6,144,[0.0485449],42,47,medium,minus,dotcolour,beta,,,43,18,V,R,
378,0,0,9,3,53,27,1101,['c'],1,left,['0'],6,92,[0.06675357],100,53,easy,plus,dotcolour,beta,,,43,18,V,R,
379,1,1,9,3,27,53,633,['n'],1,right,['0'],6,89,[-0.09228586],100,53,easy,plus,dotcolour,beta,,,43,18,V,R,
380,2,2,9,3,44,36,500,['c'],1,left,['0'],6,114,[0.06631472],100,44,hard,plus,dotcolour,beta,,,43,18,V,R,
381,3,3,9,3,27,53,1051,['n'],1,right,['0'],6,132,[-0.12000658],100,53,easy,plus,dotcolour,beta,,,43,18,V,R,
382,4,4,9,3,44,36,651,['c'],1,left,['0'],6,111,[0.04481434],100,44,hard,plus,dotcolour,beta,,,43,18,V,R,
383,5,5,9,3,33,47,767,['n'],1,right,['0'],6,149,[-0.08561111],100,47,medium,plus,dotcolour,beta,,,43,18,V,R,
384,6,6,9,3,36,44,717,['c'],0,right,['0'],6,107,[0.07751821],100,44,hard,plus,dotcolour,beta,,,43,18,V,R,
385,7,7,9,3,53,27,550,['c'],1,left,['0'],6,106,[0.10741827],100,53,easy,plus,dotcolour,beta,,,43,18,V,R,
386,8,8,9,3,27,53,600,['n'],1,right,['0'],6,103,[-0.05424996],100,53,easy,plus,dotcolour,beta,,,43,18,V,R,
387,9,9,9,3,27,53,517,['c'],0,right,['0'],6,105,[0.02544005],99,53,easy,plus,dotcolour,beta,,,43,18,V,R,
388,10,10,9,3,36,44,900,['c'],0,right,['0'],6,58,[0.08042112],100,44,hard,plus,dotcolour,beta,,,43,18,V,R,
389,11,11,9,3,53,27,533,['c'],1,left,['0'],6,99,[0.07974132],100,53,easy,plus,dotcolour,beta,,,43,18,V,R,
390,12,12,9,3,33,47,1349,['c'],0,right,['0'],6,107,[0.03472107],99,47,medium,plus,dotcolour,beta,,,43,18,V,R,
391,13,13,9,3,47,33,516,['c'],1,left,['0'],6,122,[0.17833486],100,47,medium,plus,dotcolour,beta,,,43,18,V,R,
392,14,14,9,3,47,33,866,['c'],1,left,['0'],6,93,[0.09355874],100,47,medium,plus,dotcolour,beta,,,43,18,V,R,
393,15,15,9,3,36,44,1050,['c'],0,right,['0'],6,79,[0.05627098],100,44,hard,plus,dotcolour,beta,,,43,18,V,R,
394,16,16,9,3,36,44,517,['c'],0,right,['0'],6,137,[0.14795372],100,44,hard,plus,dotcolour,beta,,,43,18,V,R,
395,17,17,9,3,36,44,1000,['n'],1,right,['8'],4,486,[-0.04810416],94,44,hard,plus,dotcolour,beta,,,43,18,V,R,
396,18,18,9,3,44,36,749,['c'],1,left,['0'],6,181,[0.1496896],100,44,hard,plus,dotcolour,beta,,,43,18,V,R,
397,19,19,9,3,27,53,800,['n'],1,right,['0'],6,1207,[-0.12696713],95,53,easy,plus,dotcolour,beta,,,43,18,V,R,
398,20,20,9,3,33,47,716,['c'],0,right,['0'],6,155,[0.06828395],100,47,medium,plus,dotcolour,beta,,,43,18,V,R,
399,21,21,9,3,44,36,417,['c'],1,left,['0'],6,126,[0.08334974],100,44,hard,plus,dotcolour,beta,,,43,18,V,R,
400,22,22,9,3,36,44,434,['c'],0,right,['0'],6,160,[0.10133106],100,44,hard,plus,dotcolour,beta,,,43,18,V,R,
401,23,23,9,3,44,36,501,['c'],1,left,['0'],6,135,[0.08980039],100,44,hard,plus,dotcolour,beta,,,43,18,V,R,
402,24,24,9,3,27,53,716,['n'],1,right,['9'],5,871,[-0.25774328],100,53,easy,plus,dotcolour,beta,,,43,18,V,R,
403,25,25,9,3,36,44,833,['n'],1,right,['9'],5,259,[-0.08586554],99,44,hard,plus,dotcolour,beta,,,43,18,V,R,
404,26,26,9,3,53,27,534,['c'],1,left,['0'],6,189,[0.09518396],100,53,easy,plus,dotcolour,beta,,,43,18,V,R,
405,27,27,9,3,47,33,600,['c'],1,left,['0'],6,190,[0.04386509],98,47,medium,plus,dotcolour,beta,,,43,18,V,R,
406,28,28,9,3,44,36,417,['c'],1,left,['0'],6,143,[0.11196062],100,44,hard,plus,dotcolour,beta,,,43,18,V,R,
407,29,29,9,3,47,33,334,['c'],1,left,['0'],6,149,[0.12119916],100,47,medium,plus,dotcolour,beta,,,43,18,V,R,
408,30,30,9,3,33,47,416,['c'],0,right,['0'],6,184,[0.06785721],99,47,medium,plus,dotcolour,beta,,,43,18,V,R,
409,31,31,9,3,53,27,350,['c'],1,left,['0'],6,140,[0.15545447],100,53,easy,plus,dotcolour,beta,,,43,18,V,R,
410,32,32,9,3,44,36,416,['c'],1,left,['0'],6,151,[0.10572956],100,44,hard,plus,dotcolour,beta,,,43,18,V,R,
411,33,33,9,3,47,33,367,['c'],1,left,['0'],6,123,[0.04627065],99,47,medium,plus,dotcolour,beta,,,43,18,V,R,
412,34,34,9,3,53,27,350,['c'],1,left,['0'],6,137,[0.13707427],100,53,easy,plus,dotcolour,beta,,,43,18,V,R,
413,35,35,9,3,33,47,650,['c'],0,right,['0'],6,163,[0.09015676],100,47,medium,plus,dotcolour,beta,,,43,18,V,R,
414,36,36,9,3,47,33,567,['c'],1,left,['0'],6,111,[0.08694736],100,47,medium,plus,dotcolour,beta,,,43,18,V,R,
415,37,37,9,3,33,47,367,['c'],0,right,['0'],6,141,[-0.00828264],91,47,medium,plus,dotcolour,beta,,,43,18,V,R,
416,38,38,9,3,27,53,634,['n'],1,right,['0'],6,111,[-0.08098396],100,53,easy,plus,dotcolour,beta,,,43,18,V,R,
417,39,39,9,3,53,27,500,['c'],1,left,['0'],6,88,[0.10897125],100,53,easy,plus,dotcolour,beta,,,43,18,V,R,
418,40,40,9,3,33,47,500,['c'],0,right,['0'],6,130,[0.02971574],99,47,medium,plus,dotcolour,beta,,,43,18,V,R,
419,41,41,9,3,47,33,501,['c'],1,left,['0'],6,82,[0.10788432],100,47,medium,plus,dotcolour,beta,,,43,18,V,R,
420,42,0,10,3,33,47,818,['c'],0,right,['0'],6,209,[0.15816968],100,47,medium,plus,dotcolour,beta,,,43,18,V,R,
421,43,1,10,3,27,53,466,['n'],1,right,['0'],6,87,[-0.10087216],100,53,easy,plus,dotcolour,beta,,,43,18,V,R,
422,44,2,10,3,47,33,534,['c'],1,left,['0'],6,104,[0.10812432],100,47,medium,plus,dotcolour,beta,,,43,18,V,R,
423,45,3,10,3,47,33,417,['c'],1,left,['0'],6,124,[0.09631158],100,47,medium,plus,dotcolour,beta,,,43,18,V,R,
424,46,4,10,3,44,36,384,['c'],1,left,['0'],6,129,[0.02237147],98,44,hard,plus,dotcolour,beta,,,43,18,V,R,
425,47,5,10,3,36,44,317,['c'],0,right,['0'],6,297,[0.10867685],100,44,hard,plus,dotcolour,beta,,,43,18,V,R,
426,48,6,10,3,27,53,950,['n'],1,right,['0'],6,176,[-0.0931412],100,53,easy,plus,dotcolour,beta,,,43,18,V,R,
427,49,7,10,3,47,33,434,['n'],0,left,['1'],1,592,[0.00576844],76,47,medium,plus,dotcolour,beta,,,43,18,V,R,
428,50,8,10,3,53,27,500,['c'],1,left,['0'],6,126,[0.08911394],100,53,easy,plus,dotcolour,beta,,,43,18,V,R,
429,51,9,10,3,33,47,702,['n'],1,right,['0'],6,127,[-0.12911581],100,47,medium,plus,dotcolour,beta,,,43,18,V,R,
430,52,10,10,3,44,36,1350,['c'],1,left,['0'],6,36,[0.10396695],100,44,hard,plus,dotcolour,beta,,,43,18,V,R,
431,53,11,10,3,27,53,783,['n'],1,right,['0'],6,117,[-0.05476137],100,53,easy,plus,dotcolour,beta,,,43,18,V,R,
432,54,12,10,3,53,27,682,['c'],1,left,['0'],6,103,[0.0651439],100,53,easy,plus,dotcolour,beta,,,43,18,V,R,
433,55,13,10,3,33,47,1166,['c'],0,right,['0'],6,148,[0.06703871],100,47,medium,plus,dotcolour,beta,,,43,18,V,R,
434,56,14,10,3,47,33,733,['c'],1,left,['0'],6,147,[0.05007357],99,47,medium,plus,dotcolour,beta,,,43,18,V,R,
435,57,15,10,3,47,33,884,['n'],0,left,['1'],1,1914,[0.12578264],29,47,medium,plus,dotcolour,beta,,,43,18,V,R,
436,58,16,10,3,33,47,1034,['n'],1,right,['0'],6,141,[-0.02487581],98,47,medium,plus,dotcolour,beta,,,43,18,V,R,
437,59,17,10,3,53,27,517,['c'],1,left,['0'],6,140,[0.07266972],100,53,easy,plus,dotcolour,beta,,,43,18,V,R,
438,60,18,10,3,33,47,483,['c'],0,right,['1'],1,916,[-0.01649874],68,47,medium,plus,dotcolour,beta,,,43,18,V,R,
439,61,19,10,3,36,44,566,['c'],0,right,['0'],6,178,[-0.02936562],75,44,hard,plus,dotcolour,beta,,,43,18,V,R,
440,62,20,10,3,47,33,566,['c'],1,left,['0'],6,133,[0.0936247],100,47,medium,plus,dotcolour,beta,,,43,18,V,R,
441,63,21,10,3,36,44,1216,['n'],1,right,['3'],3,1633,[-0.03117335],77,44,hard,plus,dotcolour,beta,,,43,18,V,R,
442,64,22,10,3,44,36,700,['c'],1,left,['0'],6,100,[0.1284455],100,44,hard,plus,dotcolour,beta,,,43,18,V,R,
443,65,23,10,3,27,53,767,['n'],1,right,['0'],6,99,[-0.07332945],100,53,easy,plus,dotcolour,beta,,,43,18,V,R,
444,66,24,10,3,27,53,900,['n'],1,right,['0'],6,132,[-0.16283401],100,53,easy,plus,dotcolour,beta,,,43,18,V,R,
445,67,25,10,3,47,33,600,['c'],1,left,['0'],6,136,[0.06728842],100,47,medium,plus,dotcolour,beta,,,43,18,V,R,
446,68,26,10,3,53,27,568,['c'],1,left,['0'],6,118,[0.15099101],100,53,easy,plus,dotcolour,beta,,,43,18,V,R,
447,69,27,10,3,33,47,684,['c'],0,right,['0'],6,175,[0.05366868],99,47,medium,plus,dotcolour,beta,,,43,18,V,R,
448,70,28,10,3,53,27,684,['c'],1,left,['0'],6,181,[0.11425445],100,53,easy,plus,dotcolour,beta,,,43,18,V,R,
449,71,29,10,3,36,44,668,['c'],0,right,['0'],6,181,[0.01220244],95,44,hard,plus,dotcolour,beta,,,43,18,V,R,
450,72,30,10,3,53,27,517,['c'],1,left,['0'],6,130,[0.09300557],100,53,easy,plus,dotcolour,beta,,,43,18,V,R,
451,73,31,10,3,44,36,566,['c'],1,left,['0'],6,144,[0.06148442],100,44,hard,plus,dotcolour,beta,,,43,18,V,R,
452,74,32,10,3,36,44,484,['c'],0,right,['0'],6,208,[0.06710216],99,44,hard,plus,dotcolour,beta,,,43,18,V,R,
453,75,33,10,3,44,36,551,['c'],1,left,['0'],6,186,[0.23332577],100,44,hard,plus,dotcolour,beta,,,43,18,V,R,
454,76,34,10,3,36,44,651,['c'],0,right,['0'],6,162,[0.07311668],100,44,hard,plus,dotcolour,beta,,,43,18,V,R,
455,77,35,10,3,44,36,400,['c'],1,left,['0'],6,189,[0.12743344],100,44,hard,plus,dotcolour,beta,,,43,18,V,R,
456,78,36,10,3,36,44,650,['c'],0,right,['0'],6,172,[0.00330653],93,44,hard,plus,dotcolour,beta,,,43,18,V,R,
457,79,37,10,3,27,53,566,['n'],1,right,['0'],6,104,[-0.10439591],100,53,easy,plus,dotcolour,beta,,,43,18,V,R,
458,80,38,10,3,33,47,733,['n'],1,right,['0'],6,120,[-0.12036727],100,47,medium,plus,dotcolour,beta,,,43,18,V,R,
459,81,39,10,3,53,27,583,['c'],1,left,['0'],6,118,[0.03134858],99,53,easy,plus,dotcolour,beta,,,43,18,V,R,
460,82,40,10,3,27,53,767,['n'],1,right,['0'],6,107,[-0.12876457],100,53,easy,plus,dotcolour,beta,,,43,18,V,R,
461,83,41,10,3,44,36,633,['c'],1,left,['0'],6,135,[0.09584275],100,44,hard,plus,dotcolour,beta,,,43,18,V,R,
462,84,0,11,3,53,27,1417,['c'],1,left,['9'],5,108,[0.05223954],100,53,easy,plus,dotcolour,beta,,,43,18,V,R,
463,85,1,11,3,53,27,751,['c'],1,left,['9'],5,74,[0.1485144],100,53,easy,plus,dotcolour,beta,,,43,18,V,R,
464,86,2,11,3,47,33,434,['c'],1,left,['9'],5,135,[0.15008022],100,47,medium,plus,dotcolour,beta,,,43,18,V,R,
465,87,3,11,3,47,33,1250,['c'],1,left,['9'],5,153,[0.10045884],100,47,medium,plus,dotcolour,beta,,,43,18,V,R,
466,88,4,11,3,47,33,434,['c'],1,left,['9'],5,107,[0.14996284],100,47,medium,plus,dotcolour,beta,,,43,18,V,R,
467,89,5,11,3,44,36,332,['c'],1,left,['9'],5,170,[0.0839654],100,44,hard,plus,dotcolour,beta,,,43,18,V,R,
468,90,6,11,3,47,33,334,['c'],1,left,['9'],5,128,[0.10201855],100,47,medium,plus,dotcolour,beta,,,43,18,V,R,
469,91,7,11,3,36,44,249,['c'],0,right,['9'],5,154,[0.10179482],100,44,hard,plus,dotcolour,beta,,,43,18,V,R,
470,92,8,11,3,36,44,351,['c'],0,right,['9'],5,128,[0.11810222],100,44,hard,plus,dotcolour,beta,,,43,18,V,R,
471,93,9,11,3,36,44,349,['c'],0,right,['1'],1,886,[-0.17001412],10,44,hard,plus,dotcolour,beta,,,43,18,V,R,
472,94,10,11,3,27,53,866,['c'],0,right,['1'],1,472,[-0.0546355],51,53,easy,plus,dotcolour,beta,,,43,18,V,R,
473,95,11,11,3,33,47,916,['n'],1,right,['9'],5,129,[-0.0742357],100,47,medium,plus,dotcolour,beta,,,43,18,V,R,
474,96,12,11,3,27,53,766,['c'],0,right,['1'],1,687,[-0.02558044],66,53,easy,plus,dotcolour,beta,,,43,18,V,R,
475,97,13,11,3,27,53,1600,['n'],1,right,['8'],4,3636,[-0.02897773],69,53,easy,plus,dotcolour,beta,,,43,18,V,R,
476,98,14,11,3,47,33,2400,['n'],0,left,['8'],4,171,[-0.09982047],100,47,medium,plus,dotcolour,beta,,,43,18,V,R,
477,99,15,11,3,44,36,650,['c'],1,left,['0'],6,123,[0.00402427],96,44,hard,plus,dotcolour,beta,,,43,18,V,R,
478,100,16,11,3,27,53,950,['n'],1,right,['0'],6,129,[-0.05758397],100,53,easy,plus,dotcolour,beta,,,43,18,V,R,
479,101,17,11,3,36,44,850,['c'],0,right,['0'],6,131,[0.06488365],100,44,hard,plus,dotcolour,beta,,,43,18,V,R,
480,102,18,11,3,33,47,1067,['n'],1,right,['0'],6,116,[-0.10890541],100,47,medium,plus,dotcolour,beta,,,43,18,V,R,
481,103,19,11,3,47,33,1234,['c'],1,left,['0'],6,112,[0.10336462],100,47,medium,plus,dotcolour,beta,,,43,18,V,R,
482,104,20,11,3,44,36,600,['c'],1,left,['0'],6,333,[0.10558743],99,44,hard,plus,dotcolour,beta,,,43,18,V,R,
483,105,21,11,3,44,36,517,['c'],1,left,['0'],6,108,[0.05147833],100,44,hard,plus,dotcolour,beta,,,43,18,V,R,
484,106,22,11,3,53,27,417,['c'],1,left,['0'],6,136,[0.13003564],100,53,easy,plus,dotcolour,beta,,,43,18,V,R,
485,107,23,11,3,47,33,518,['c'],1,left,['0'],6,128,[0.10246473],100,47,medium,plus,dotcolour,beta,,,43,18,V,R,
486,108,24,11,3,53,27,783,['c'],1,left,['0'],6,197,[0.10678937],100,53,easy,plus,dotcolour,beta,,,43,18,V,R,
487,109,25,11,3,33,47,2584,['n'],1,right,['8'],4,142,[-0.06637566],100,47,medium,plus,dotcolour,beta,,,43,18,V,R,
488,110,26,11,3,27,53,616,['n'],1,right,['0'],6,104,[-0.03013124],99,53,easy,plus,dotcolour,beta,,,43,18,V,R,
489,111,27,11,3,53,27,534,['c'],1,left,['0'],6,128,[0.0961098],100,53,easy,plus,dotcolour,beta,,,43,18,V,R,
490,112,28,11,3,53,27,801,['c'],1,left,['0'],6,133,[0.06439254],100,53,easy,plus,dotcolour,beta,,,43,18,V,R,
491,113,29,11,3,27,53,968,['n'],1,right,['0'],6,66,[-0.09769564],100,53,easy,plus,dotcolour,beta,,,43,18,V,R,
492,114,30,11,3,27,53,667,['n'],1,right,['0'],6,110,[-0.11449267],100,53,easy,plus,dotcolour,beta,,,43,18,V,R,
493,115,31,11,3,33,47,685,['c'],0,right,['0'],6,103,[0.05021446],100,47,medium,plus,dotcolour,beta,,,43,18,V,R,
494,116,32,11,3,53,27,667,['c'],1,left,['0'],6,106,[0.06538206],100,53,easy,plus,dotcolour,beta,,,43,18,V,R,
495,117,33,11,3,44,36,500,['c'],1,left,['0'],6,131,[0.02627699],98,44,hard,plus,dotcolour,beta,,,43,18,V,R,
496,118,34,11,3,33,47,1217,['n'],1,right,['9'],5,622,[-0.20090224],100,47,medium,plus,dotcolour,beta,,,43,18,V,R,
497,119,35,11,3,33,47,667,['c'],0,right,['0'],6,155,[0.05623765],99,47,medium,plus,dotcolour,beta,,,43,18,V,R,
498,120,36,11,3,44,36,550,['c'],1,left,['0'],6,121,[0.04005212],99,44,hard,plus,dotcolour,beta,,,43,18,V,R,
499,121,37,11,3,36,44,768,['n'],1,right,['0'],6,103,[-0.12571918],100,44,hard,plus,dotcolour,beta,,,43,18,V,R,
500,122,38,11,3,44,36,866,['c'],1,left,['0'],6,97,[0.0573765],100,44,hard,plus,dotcolour,beta,,,43,18,V,R,
501,123,39,11,3,36,44,2267,['n'],1,right,['8'],4,84,[-0.0941302],100,44,hard,plus,dotcolour,beta,,,43,18,V,R,
502,124,40,11,3,36,44,566,['c'],0,right,['0'],6,340,[0.09793582],99,44,hard,plus,dotcolour,beta,,,43,18,V,R,
503,125,41,11,3,33,47,684,['c'],0,right,['0'],6,59,[0.07233695],100,47,medium,plus,dotcolour,beta,,,43,18,V,R,
504,0,0,12,4,44,36,684,['n'],0,left,['0'],6,90,[-0.09077047],89,44,hard,minus,dotcolour,beta,,,43,18,V,R,
505,1,1,12,4,44,36,618,['n'],0,left,['0'],6,87,[-0.05808111],54,44,hard,minus,dotcolour,beta,,,43,18,V,R,
506,2,2,12,4,47,33,567,['n'],0,left,['0'],6,87,[-0.07621723],78,47,medium,minus,dotcolour,beta,,,43,18,V,R,
507,3,3,12,4,47,33,551,['c'],1,left,['0'],6,86,[0.12313864],98,47,medium,minus,dotcolour,beta,,,43,18,V,R,
508,4,4,12,4,33,47,568,['n'],1,right,['0'],6,101,[-0.11155342],96,47,medium,minus,dotcolour,beta,,,43,18,V,R,
509,5,5,12,4,27,53,450,['n'],1,right,['0'],6,89,[-0.1271182],99,53,easy,minus,dotcolour,beta,,,43,18,V,R,
510,6,6,12,4,36,44,382,['c'],0,right,['0'],6,104,[0.09420094],90,44,hard,minus,dotcolour,beta,,,43,18,V,R,
511,7,7,12,4,33,47,366,['c'],0,right,['0'],6,127,[0.08321682],80,47,medium,minus,dotcolour,beta,,,43,18,V,R,
512,8,8,12,4,44,36,368,['n'],0,left,['1'],1,723,[-0.02919161],36,44,hard,minus,dotcolour,beta,,,43,18,V,R,
513,9,9,12,4,53,27,567,['c'],1,left,['0'],6,145,[0.02446898],19,53,easy,minus,dotcolour,beta,,,43,18,V,R,
514,10,10,12,4,36,44,383,['c'],0,right,['0'],6,189,[0.08874109],80,44,hard,minus,dotcolour,beta,,,43,18,V,R,
515,11,11,12,4,47,33,551,['c'],1,left,['0'],6,112,[0.08355931],82,47,medium,minus,dotcolour,beta,,,43,18,V,R,
516,12,12,12,4,47,33,534,['c'],1,left,['0'],6,87,[0.08879259],88,47,medium,minus,dotcolour,beta,,,43,18,V,R,
517,13,13,12,4,53,27,416,['c'],1,left,['0'],6,165,[0.04907624],43,53,easy,minus,dotcolour,beta,,,43,18,V,R,
518,14,14,12,4,47,33,350,['c'],1,left,['0'],6,209,[0.09462742],82,47,medium,minus,dotcolour,beta,,,43,18,V,R,
519,15,15,12,4,47,33,333,['c'],1,left,['0'],6,333,[0.0915497],75,47,medium,minus,dotcolour,beta,,,43,18,V,R,
520,16,16,12,4,44,36,566,['c'],1,left,['0'],6,131,[0.00845846],9,44,hard,minus,dotcolour,beta,,,43,18,V,R,
521,17,17,12,4,33,47,867,['n'],1,right,['9'],5,556,[-0.02708032],33,47,medium,minus,dotcolour,beta,,,43,18,V,R,
522,18,18,12,4,53,27,600,['c'],1,left,['0'],6,111,[0.12940129],98,53,easy,minus,dotcolour,beta,,,43,18,V,R,
523,19,19,12,4,27,53,634,['n'],1,right,['0'],6,106,[-0.07797582],78,53,easy,minus,dotcolour,beta,,,43,18,V,R,
524,20,20,12,4,53,27,917,['c'],1,left,['0'],6,106,[0.08266863],82,53,easy,minus,dotcolour,beta,,,43,18,V,R,
525,21,21,12,4,36,44,500,['c'],0,right,['8'],4,852,[-0.15153247],2,44,hard,minus,dotcolour,beta,,,43,18,V,R,
526,22,22,12,4,53,27,599,['c'],1,left,['0'],6,138,[0.03488684],27,53,easy,minus,dotcolour,beta,,,43,18,V,R,
527,23,23,12,4,27,53,750,['n'],1,right,['0'],6,81,[-0.11486542],98,53,easy,minus,dotcolour,beta,,,43,18,V,R,
528,24,24,12,4,33,47,2117,['n'],1,right,['8'],4,106,[-0.10292506],93,47,medium,minus,dotcolour,beta,,,43,18,V,R,
529,25,25,12,4,36,44,1032,['c'],0,right,['0'],6,229,[0.01338998],17,44,hard,minus,dotcolour,beta,,,43,18,V,R,
530,26,26,12,4,36,44,384,['c'],0,right,['0'],6,142,[0.06878154],65,44,hard,minus,dotcolour,beta,,,43,18,V,R,
531,27,27,12,4,44,36,451,['c'],1,left,['0'],6,159,[0.0740902],70,44,hard,minus,dotcolour,beta,,,43,18,V,R,
532,28,28,12,4,33,47,683,['n'],1,right,['0'],6,119,[-0.06964173],68,47,medium,minus,dotcolour,beta,,,43,18,V,R,
533,29,29,12,4,53,27,450,['c'],1,left,['0'],6,113,[0.10068197],92,53,easy,minus,dotcolour,beta,,,43,18,V,R,
534,30,30,12,4,27,53,1200,['c'],0,right,['0'],6,230,[0.10045016],84,53,easy,minus,dotcolour,beta,,,43,18,V,R,
535,31,31,12,4,47,33,550,['c'],1,left,['0'],6,88,[0.0617661],59,47,medium,minus,dotcolour,beta,,,43,18,V,R,
536,32,32,12,4,44,36,517,['c'],1,left,['0'],6,145,[0.09016377],84,44,hard,minus,dotcolour,beta,,,43,18,V,R,
537,33,33,12,4,27,53,600,['c'],0,right,['0'],6,180,[0.16376676],99,53,easy,minus,dotcolour,beta,,,43,18,V,R,
538,34,34,12,4,53,27,484,['c'],1,left,['0'],6,171,[0.07281193],68,53,easy,minus,dotcolour,beta,,,43,18,V,R,
539,35,35,12,4,36,44,650,['c'],0,right,['0'],6,124,[0.06614187],63,44,hard,minus,dotcolour,beta,,,43,18,V,R,
540,36,36,12,4,36,44,567,['c'],0,right,['0'],6,97,[0.03721837],26,44,hard,minus,dotcolour,beta,,,43,18,V,R,
541,37,37,12,4,33,47,567,['c'],0,right,['0'],6,176,[0.0339457],28,47,medium,minus,dotcolour,beta,,,43,18,V,R,
542,38,38,12,4,27,53,617,['n'],1,right,['0'],6,145,[-0.11093192],93,53,easy,minus,dotcolour,beta,,,43,18,V,R,
543,39,39,12,4,33,47,784,['c'],0,right,['0'],6,141,[0.08824759],83,47,medium,minus,dotcolour,beta,,,43,18,V,R,
544,40,40,12,4,44,36,1833,['c'],1,left,['0'],6,119,[0.1084999],94,44,hard,minus,dotcolour,beta,,,43,18,V,R,
545,41,41,12,4,27,53,1300,['n'],1,right,['8'],4,800,[-0.23046187],97,53,easy,minus,dotcolour,beta,,,43,18,V,R,
546,42,0,13,4,47,33,900,['n'],0,left,['0'],6,91,[-0.07628233],77,47,medium,minus,dotcolour,beta,,,43,18,V,R,
547,43,1,13,4,53,27,550,['c'],1,left,['0'],6,114,[0.14802534],99,53,easy,minus,dotcolour,beta,,,43,18,V,R,
548,44,2,13,4,27,53,817,['n'],1,right,['0'],6,126,[-0.15674762],99,53,easy,minus,dotcolour,beta,,,43,18,V,R,
549,45,3,13,4,44,36,584,['c'],1,left,['0'],6,147,[0.04687155],40,44,hard,minus,dotcolour,beta,,,43,18,V,R,
550,46,4,13,4,33,47,1184,['c'],0,right,['0'],6,127,[0.097453],89,47,medium,minus,dotcolour,beta,,,43,18,V,R,
551,47,5,13,4,36,44,533,['c'],0,right,['0'],6,133,[0.01538349],12,44,hard,minus,dotcolour,beta,,,43,18,V,R,
552,48,6,13,4,33,47,668,['c'],0,right,['0'],6,119,[0.03733579],28,47,medium,minus,dotcolour,beta,,,43,18,V,R,
553,49,7,13,4,47,33,567,['c'],1,left,['0'],6,133,[0.10155518],91,47,medium,minus,dotcolour,beta,,,43,18,V,R,
554,50,8,13,4,53,27,866,['c'],1,left,['0'],6,86,[0.10269872],95,53,easy,minus,dotcolour,beta,,,43,18,V,R,
555,51,9,13,4,53,27,400,['c'],1,left,['0'],6,172,[0.05241513],47,53,easy,minus,dotcolour,beta,,,43,18,V,R,
556,52,10,13,4,36,44,750,['n'],1,right,['0'],6,201,[-0.08657525],78,44,hard,minus,dotcolour,beta,,,43,18,V,R,
557,53,11,13,4,33,47,1950,['n'],1,right,['8'],4,428,[-0.12919368],88,47,medium,minus,dotcolour,beta,,,43,18,V,R,
558,54,12,13,4,53,27,534,['c'],1,left,['0'],6,111,[0.06272786],60,53,easy,minus,dotcolour,beta,,,43,18,V,R,
559,55,13,13,4,44,36,717,['c'],1,left,['0'],6,111,[0.09577034],90,44,hard,minus,dotcolour,beta,,,43,18,V,R,
560,56,14,13,4,27,53,734,['n'],1,right,['0'],6,110,[-0.14154529],99,53,easy,minus,dotcolour,beta,,,43,18,V,R,
561,57,15,13,4,44,36,817,['c'],1,left,['0'],6,98,[0.02326047],14,44,hard,minus,dotcolour,beta,,,43,18,V,R,
562,58,16,13,4,44,36,633,['c'],1,left,['0'],6,119,[0.06288623],59,44,hard,minus,dotcolour,beta,,,43,18,V,R,
563,59,17,13,4,47,33,567,['c'],1,left,['0'],6,108,[0.09138343],88,47,medium,minus,dotcolour,beta,,,43,18,V,R,
564,60,18,13,4,27,53,683,['n'],1,right,['0'],6,86,[-0.04711631],37,53,easy,minus,dotcolour,beta,,,43,18,V,R,
565,61,19,13,4,53,27,551,['c'],1,left,['0'],6,110,[0.10619761],94,53,easy,minus,dotcolour,beta,,,43,18,V,R,
566,62,20,13,4,33,47,1585,['c'],0,right,['1'],1,739,[-0.14964994],1,47,medium,minus,dotcolour,beta,,,43,18,V,R,
567,63,21,13,4,36,44,1333,['n'],1,right,['1'],1,721,[-0.13970889],86,44,hard,minus,dotcolour,beta,,,43,18,V,R,
568,64,22,13,4,44,36,417,['c'],1,left,['0'],6,108,[0.11994627],97,44,hard,minus,dotcolour,beta,,,43,18,V,R,
569,65,23,13,4,47,33,499,['c'],1,left,['0'],6,125,[0.11858362],96,47,medium,minus,dotcolour,beta,,,43,18,V,R,
570,66,24,13,4,47,33,366,['c'],1,left,['0'],6,147,[0.15970972],99,47,medium,minus,dotcolour,beta,,,43,18,V,R,
571,67,25,13,4,33,47,400,['c'],0,right,['0'],6,294,[0.03436989],33,47,medium,minus,dotcolour,beta,,,43,18,V,R,
572,68,26,13,4,36,44,717,['c'],0,right,['8'],4,1110,[0.03148744],40,44,hard,minus,dotcolour,beta,,,43,18,V,R,
573,69,27,13,4,44,36,516,['c'],1,left,['0'],6,102,[0.05696415],52,44,hard,minus,dotcolour,beta,,,43,18,V,R,
574,70,28,13,4,53,27,450,['c'],1,left,['0'],6,130,[0.09937591],90,53,easy,minus,dotcolour,beta,,,43,18,V,R,
575,71,29,13,4,53,27,584,['c'],1,left,['0'],6,174,[0.08773592],80,53,easy,minus,dotcolour,beta,,,43,18,V,R,
576,72,30,13,4,27,53,684,['n'],1,right,['0'],6,102,[-0.16272337],100,53,easy,minus,dotcolour,beta,,,43,18,V,R,
577,73,31,13,4,47,33,600,['c'],1,left,['0'],6,74,[0.07452897],78,47,medium,minus,dotcolour,beta,,,43,18,V,R,
578,74,32,13,4,36,44,1817,['c'],0,right,['8'],4,224,[0.01173225],16,44,hard,minus,dotcolour,beta,,,43,18,V,R,
579,75,33,13,4,47,33,549,['c'],1,left,['0'],6,130,[0.10967208],94,47,medium,minus,dotcolour,beta,,,43,18,V,R,
580,76,34,13,4,33,47,1834,['n'],1,right,['8'],4,709,[-0.01331179],29,47,medium,minus,dotcolour,beta,,,43,18,V,R,
581,77,35,13,4,27,53,533,['c'],0,right,['0'],6,99,[0.05278497],46,53,easy,minus,dotcolour,beta,,,43,18,V,R,
582,78,36,13,4,33,47,733,['c'],0,right,['9'],5,1108,[0.11195702],72,47,medium,minus,dotcolour,beta,,,43,18,V,R,
583,79,37,13,4,36,44,2100,['c'],0,right,['0'],6,501,[0.02863171],34,44,hard,minus,dotcolour,beta,,,43,18,V,R,
584,80,38,13,4,27,53,634,['n'],1,right,['0'],6,88,[-0.09013567],89,53,easy,minus,dotcolour,beta,,,43,18,V,R,
585,81,39,13,4,27,53,817,['n'],1,right,['0'],6,86,[-0.07002125],71,53,easy,minus,dotcolour,beta,,,43,18,V,R,
586,82,40,13,4,36,44,1417,['c'],0,right,['0'],6,107,[0.01189657],8,44,hard,minus,dotcolour,beta,,,43,18,V,R,
587,83,41,13,4,44,36,500,['c'],1,left,['0'],6,140,[0.07017445],67,44,hard,minus,dotcolour,beta,,,43,18,V,R,
588,84,0,14,4,36,44,818,['c'],0,right,['0'],6,101,[0.07076683],70,44,hard,minus,dotcolour,beta,,,43,18,V,R,
589,85,1,14,4,33,47,650,['n'],1,right,['0'],6,121,[-0.10291076],92,47,medium,minus,dotcolour,beta,,,43,18,V,R,
590,86,2,14,4,44,36,517,['c'],1,left,['0'],6,104,[0.14889174],99,44,hard,minus,dotcolour,beta,,,43,18,V,R,
591,87,3,14,4,53,27,450,['c'],1,left,['0'],6,141,[0.01054487],10,53,easy,minus,dotcolour,beta,,,43,18,V,R,
592,88,4,14,4,27,53,767,['n'],1,right,['0'],6,105,[-0.0972077],91,53,easy,minus,dotcolour,beta,,,43,18,V,R,
593,89,5,14,4,36,44,684,['c'],0,right,['0'],6,99,[0.04564743],36,44,hard,minus,dotcolour,beta,,,43,18,V,R,
594,90,6,14,4,53,27,667,['c'],1,left,['0'],6,109,[0.1619724],100,53,easy,minus,dotcolour,beta,,,43,18,V,R,
595,91,7,14,4,36,44,634,['n'],1,right,['0'],6,105,[-0.09981453],92,44,hard,minus,dotcolour,beta,,,43,18,V,R,
596,92,8,14,4,36,44,800,['c'],0,right,['0'],6,334,[0.09389259],77,44,hard,minus,dotcolour,beta,,,43,18,V,R,
597,93,9,14,4,33,47,584,['c'],0,right,['0'],6,123,[0.09945895],90,47,medium,minus,dotcolour,beta,,,43,18,V,R,
598,94,10,14,4,44,36,950,['c'],1,left,['0'],6,90,[0.10688575],96,44,hard,minus,dotcolour,beta,,,43,18,V,R,
599,95,11,14,4,27,53,916,['n'],1,right,['0'],6,91,[-0.09151254],90,53,easy,minus,dotcolour,beta,,,43,18,V,R,
600,96,12,14,4,47,33,567,['c'],1,left,['0'],6,138,[0.09167305],85,47,medium,minus,dotcolour,beta,,,43,18,V,R,
601,97,13,14,4,27,53,700,['n'],1,right,['0'],6,97,[-0.05347883],47,53,easy,minus,dotcolour,beta,,,43,18,V,R,
602,98,14,14,4,36,44,734,['c'],0,right,['0'],6,145,[0.11440536],94,44,hard,minus,dotcolour,beta,,,43,18,V,R,
603,99,15,14,4,53,27,433,['c'],1,left,['0'],6,75,[0.09937265],95,53,easy,minus,dotcolour,beta,,,43,18,V,R,
604,100,16,14,4,47,33,317,['c'],1,left,['0'],6,100,[0.07036812],70,47,medium,minus,dotcolour,beta,,,43,18,V,R,
605,101,17,14,4,27,53,466,['c'],0,right,['0'],6,87,[0.00518418],4,53,easy,minus,dotcolour,beta,,,43,18,V,R,
606,102,18,14,4,33,47,433,['c'],0,right,['1'],1,893,[-0.06989186],8,47,medium,minus,dotcolour,beta,,,43,18,V,R,
607,103,19,14,4,36,44,833,['n'],1,right,['0'],6,80,[-0.09047259],90,44,hard,minus,dotcolour,beta,,,43,18,V,R,
608,104,20,14,4,53,27,550,['c'],1,left,['0'],6,48,[0.09367027],96,53,easy,minus,dotcolour,beta,,,43,18,V,R,
609,105,21,14,4,44,36,517,['c'],1,left,['0'],6,115,[0.08835053],85,44,hard,minus,dotcolour,beta,,,43,18,V,R,
610,106,22,14,4,33,47,817,['c'],0,right,['0'],6,95,[0.06253352],60,47,medium,minus,dotcolour,beta,,,43,18,V,R,
611,107,23,14,4,53,27,435,['c'],1,left,['0'],6,83,[0.08788195],88,53,easy,minus,dotcolour,beta,,,43,18,V,R,
612,108,24,14,4,27,53,650,['n'],1,right,['0'],6,63,[-0.08188842],87,53,easy,minus,dotcolour,beta,,,43,18,V,R,
613,109,25,14,4,27,53,600,['n'],1,right,['0'],6,77,[-0.09682612],94,53,easy,minus,dotcolour,beta,,,43,18,V,R,
614,110,26,14,4,53,27,517,['c'],1,left,['0'],6,87,[0.07936157],81,53,easy,minus,dotcolour,beta,,,43,18,V,R,
615,111,27,14,4,47,33,434,['c'],1,left,['0'],6,115,[0.09466513],89,47,medium,minus,dotcolour,beta,,,43,18,V,R,
616,112,28,14,4,44,36,716,['n'],0,left,['0'],6,67,[-0.10176752],96,44,hard,minus,dotcolour,beta,,,43,18,V,R,
617,113,29,14,4,44,36,634,['c'],1,left,['0'],6,57,[0.08203855],88,44,hard,minus,dotcolour,beta,,,43,18,V,R,
618,114,30,14,4,47,33,550,['c'],1,left,['0'],6,49,[0.03324631],14,47,medium,minus,dotcolour,beta,,,43,18,V,R,
619,115,31,14,4,47,33,551,['c'],1,left,['0'],6,83,[0.07512581],77,47,medium,minus,dotcolour,beta,,,43,18,V,R,
620,116,32,14,4,44,36,434,['c'],1,left,['0'],6,88,[0.05897341],55,44,hard,minus,dotcolour,beta,,,43,18,V,R,
621,117,33,14,4,33,47,300,['c'],0,right,['0'],6,162,[0.05701007],52,47,medium,minus,dotcolour,beta,,,43,18,V,R,
622,118,34,14,4,27,53,333,['c'],0,right,['0'],6,183,[0.00690426],11,53,easy,minus,dotcolour,beta,,,43,18,V,R,
623,119,35,14,4,47,33,434,['c'],1,left,['0'],6,111,[0.12157196],97,47,medium,minus,dotcolour,beta,,,43,18,V,R,
624,120,36,14,4,33,47,1250,['n'],1,right,['0'],6,154,[-0.1360628],98,47,medium,minus,dotcolour,beta,,,43,18,V,R,
625,121,37,14,4,36,44,584,['c'],0,right,['0'],6,126,[0.10398131],92,44,hard,minus,dotcolour,beta,,,43,18,V,R,
626,122,38,14,4,47,33,583,['c'],1,left,['0'],6,75,[0.12037949],99,47,medium,minus,dotcolour,beta,,,43,18,V,R,
627,123,39,14,4,44,36,1134,['c'],1,left,['0'],6,140,[0.10312676],91,44,hard,minus,dotcolour,beta,,,43,18,V,R,
628,124,40,14,4,53,27,751,['c'],1,left,['0'],6,41,[0.09172527],96,53,easy,minus,dotcolour,beta,,,43,18,V,R,
629,125,41,14,4,33,47,832,['n'],1,right,['8'],4,728,[-0.23131287],98,47,medium,minus,dotcolour,beta,,,43,18,V,R,
630,0,0,15,5,53,27,651,['c'],1,left,['0'],6,100,[0.06512702],100,53,easy,plus,dotcolour,beta,,,43,18,V,R,
631,1,1,15,5,44,36,434,['c'],1,left,['0'],6,121,[0.08992338],100,44,hard,plus,dotcolour,beta,,,43,18,V,R,
632,2,2,15,5,33,47,400,['c'],0,right,['0'],6,213,[0.03514009],97,47,medium,plus,dotcolour,beta,,,43,18,V,R,
633,3,3,15,5,27,53,500,['c'],0,right,['0'],6,162,[0.0443766],99,53,easy,plus,dotcolour,beta,,,43,18,V,R,
634,4,4,15,5,53,27,417,['c'],1,left,['0'],6,116,[0.08986166],100,53,easy,plus,dotcolour,beta,,,43,18,V,R,
635,5,5,15,5,27,53,800,['n'],1,right,['0'],6,152,[-0.12940327],100,53,easy,plus,dotcolour,beta,,,43,18,V,R,
636,6,6,15,5,44,36,450,['c'],1,left,['0'],6,171,[0.08162432],100,44,hard,plus,dotcolour,beta,,,43,18,V,R,
637,7,7,15,5,53,27,400,['c'],1,left,['0'],6,117,[0.09328304],100,53,easy,plus,dotcolour,beta,,,43,18,V,R,
638,8,8,15,5,33,47,366,['c'],0,right,['0'],6,194,[0.04354012],98,47,medium,plus,dotcolour,beta,,,43,18,V,R,
639,9,9,15,5,33,47,451,['c'],0,right,['0'],6,138,[0.12563806],100,47,medium,plus,dotcolour,beta,,,43,18,V,R,
640,10,10,15,5,53,27,451,['c'],1,left,['0'],6,116,[0.06706075],100,53,easy,plus,dotcolour,beta,,,43,18,V,R,
641,11,11,15,5,33,47,783,['n'],1,right,['0'],6,121,[-0.07303367],100,47,medium,plus,dotcolour,beta,,,43,18,V,R,
642,12,12,15,5,36,44,533,['c'],0,right,['0'],6,137,[0.10697741],100,44,hard,plus,dotcolour,beta,,,43,18,V,R,
643,13,13,15,5,44,36,450,['c'],1,left,['0'],6,139,[0.03214443],99,44,hard,plus,dotcolour,beta,,,43,18,V,R,
644,14,14,15,5,27,53,466,['c'],0,right,['1'],1,676,[0.09311594],96,53,easy,plus,dotcolour,beta,,,43,18,V,R,
645,15,15,15,5,44,36,649,['c'],1,left,['0'],6,88,[0.0666387],100,44,hard,plus,dotcolour,beta,,,43,18,V,R,
646,16,16,15,5,47,33,518,['c'],1,left,['0'],6,113,[0.11051464],100,47,medium,plus,dotcolour,beta,,,43,18,V,R,
647,17,17,15,5,33,47,533,['c'],0,right,['1'],1,801,[0.09499451],95,47,medium,plus,dotcolour,beta,,,43,18,V,R,
648,18,18,15,5,27,53,1067,['n'],1,right,['0'],6,103,[-0.09927948],100,53,easy,plus,dotcolour,beta,,,43,18,V,R,
649,19,19,15,5,47,33,583,['c'],1,left,['0'],6,117,[0.08039497],100,47,medium,plus,dotcolour,beta,,,43,18,V,R,
650,20,20,15,5,44,36,584,['c'],1,left,['0'],6,114,[0.07098157],100,44,hard,plus,dotcolour,beta,,,43,18,V,R,
651,21,21,15,5,53,27,684,['c'],1,left,['0'],6,100,[0.11152066],100,53,easy,plus,dotcolour,beta,,,43,18,V,R,
652,22,22,15,5,27,53,567,['n'],1,right,['0'],6,90,[-0.09431935],100,53,easy,plus,dotcolour,beta,,,43,18,V,R,
653,23,23,15,5,27,53,567,['n'],1,right,['0'],6,89,[-0.07793187],100,53,easy,plus,dotcolour,beta,,,43,18,V,R,
654,24,24,15,5,53,27,517,['c'],1,left,['0'],6,82,[0.11704449],100,53,easy,plus,dotcolour,beta,,,43,18,V,R,
655,25,25,15,5,36,44,866,['c'],0,right,['0'],6,38,[0.05159794],100,44,hard,plus,dotcolour,beta,,,43,18,V,R,
656,26,26,15,5,36,44,584,['c'],0,right,['0'],6,110,[0.04322776],100,44,hard,plus,dotcolour,beta,,,43,18,V,R,
657,27,27,15,5,44,36,500,['c'],1,left,['0'],6,295,[0.12361722],100,44,hard,plus,dotcolour,beta,,,43,18,V,R,
658,28,28,15,5,47,33,550,['c'],1,left,['0'],6,87,[0.06745901],100,47,medium,plus,dotcolour,beta,,,43,18,V,R,
659,29,29,15,5,47,33,700,['n'],0,left,['0'],6,32,[-0.06412347],100,47,medium,plus,dotcolour,beta,,,43,18,V,R,
660,30,30,15,5,33,47,566,['c'],0,right,['0'],6,81,[0.09610663],100,47,medium,plus,dotcolour,beta,,,43,18,V,R,
661,31,31,15,5,47,33,517,['c'],1,left,['0'],6,82,[0.04696139],100,47,medium,plus,dotcolour,beta,,,43,18,V,R,
662,32,32,15,5,44,36,1017,['c'],1,left,['0'],6,88,[0.00896005],98,44,hard,plus,dotcolour,beta,,,43,18,V,R,
663,33,33,15,5,33,47,2183,['c'],0,right,['0'],6,343,[0.11564495],99,47,medium,plus,dotcolour,beta,,,43,18,V,R,
664,34,34,15,5,36,44,900,['n'],1,right,['0'],6,30,[-0.06205693],100,44,hard,plus,dotcolour,beta,,,43,18,V,R,
665,35,35,15,5,47,33,533,['c'],1,left,['0'],6,73,[0.08081067],100,47,medium,plus,dotcolour,beta,,,43,18,V,R,
666,36,36,15,5,27,53,667,['n'],1,right,['0'],6,101,[-0.12331191],100,53,easy,plus,dotcolour,beta,,,43,18,V,R,
667,37,37,15,5,36,44,583,['c'],0,right,['0'],6,147,[0.10141041],100,44,hard,plus,dotcolour,beta,,,43,18,V,R,
668,38,38,15,5,36,44,667,['c'],0,right,['0'],6,107,[0.057661],100,44,hard,plus,dotcolour,beta,,,43,18,V,R,
669,39,39,15,5,36,44,683,['n'],1,right,['0'],6,117,[-0.14044978],100,44,hard,plus,dotcolour,beta,,,43,18,V,R,
670,40,40,15,5,53,27,617,['c'],1,left,['0'],6,105,[0.06510467],100,53,easy,plus,dotcolour,beta,,,43,18,V,R,
671,41,41,15,5,47,33,567,['c'],1,left,['0'],6,103,[0.10545327],100,47,medium,plus,dotcolour,beta,,,43,18,V,R,
672,42,0,16,5,33,47,4901,['c'],0,right,['8'],4,124,[0.10161564],100,47,medium,plus,dotcolour,beta,,,43,18,V,R,
673,43,1,16,5,47,33,767,['c'],1,left,['0'],6,1146,[0.32688041],100,47,medium,plus,dotcolour,beta,,,43,18,V,R,
674,44,2,16,5,53,27,567,['c'],1,left,['0'],6,71,[0.06456652],100,53,easy,plus,dotcolour,beta,,,43,18,V,R,
675,45,3,16,5,47,33,517,['c'],1,left,['0'],6,104,[0.14515432],100,47,medium,plus,dotcolour,beta,,,43,18,V,R,
676,46,4,16,5,47,33,450,['c'],1,left,['0'],6,140,[0.12090298],100,47,medium,plus,dotcolour,beta,,,43,18,V,R,
677,47,5,16,5,44,36,433,['c'],1,left,['0'],6,110,[0.09996161],100,44,hard,plus,dotcolour,beta,,,43,18,V,R,
678,48,6,16,5,33,47,783,['n'],1,right,['0'],6,107,[-0.05263979],100,47,medium,plus,dotcolour,beta,,,43,18,V,R,
679,49,7,16,5,27,53,650,['c'],0,right,['0'],6,133,[0.08068563],100,53,easy,plus,dotcolour,beta,,,43,18,V,R,
680,50,8,16,5,36,44,484,['c'],0,right,['0'],6,126,[0.03653068],99,44,hard,plus,dotcolour,beta,,,43,18,V,R,
681,51,9,16,5,36,44,500,['c'],0,right,['0'],6,110,[0.05172011],100,44,hard,plus,dotcolour,beta,,,43,18,V,R,
682,52,10,16,5,33,47,1050,['n'],1,right,['0'],6,90,[-0.13769822],100,47,medium,plus,dotcolour,beta,,,43,18,V,R,
683,53,11,16,5,47,33,567,['c'],1,left,['0'],6,112,[0.05176746],100,47,medium,plus,dotcolour,beta,,,43,18,V,R,
684,54,12,16,5,53,27,500,['c'],1,left,['0'],6,137,[0.13194149],100,53,easy,plus,dotcolour,beta,,,43,18,V,R,
685,55,13,16,5,53,27,533,['c'],1,left,['0'],6,96,[0.09742803],100,53,easy,plus,dotcolour,beta,,,43,18,V,R,
686,56,14,16,5,33,47,800,['n'],1,right,['0'],6,109,[-0.11518201],100,47,medium,plus,dotcolour,beta,,,43,18,V,R,
687,57,15,16,5,44,36,566,['c'],1,left,['0'],6,99,[0.07698209],100,44,hard,plus,dotcolour,beta,,,43,18,V,R,
688,58,16,16,5,47,33,1234,['c'],1,left,['0'],6,95,[0.08717883],100,47,medium,plus,dotcolour,beta,,,43,18,V,R,
689,59,17,16,5,27,53,832,['n'],1,right,['0'],6,115,[-0.07619077],100,53,easy,plus,dotcolour,beta,,,43,18,V,R,
690,60,18,16,5,27,53,717,['n'],1,right,['0'],6,155,[-0.10822242],100,53,easy,plus,dotcolour,beta,,,43,18,V,R,
691,61,19,16,5,53,27,717,['c'],1,left,['0'],6,106,[0.04694449],100,53,easy,plus,dotcolour,beta,,,43,18,V,R,
692,62,20,16,5,53,27,917,['n'],0,left,['1'],1,922,[-0.08681875],94,53,easy,plus,dotcolour,beta,,,43,18,V,R,
693,63,21,16,5,53,27,601,['c'],1,left,['0'],6,110,[0.08242169],100,53,easy,plus,dotcolour,beta,,,43,18,V,R,
694,64,22,16,5,33,47,651,['n'],1,right,['8'],4,993,[-0.13863274],97,47,medium,plus,dotcolour,beta,,,43,18,V,R,
695,65,23,16,5,44,36,617,['c'],1,left,['0'],6,130,[0.02675735],98,44,hard,plus,dotcolour,beta,,,43,18,V,R,
696,66,24,16,5,36,44,433,['c'],0,right,['0'],6,220,[0.03116218],97,44,hard,plus,dotcolour,beta,,,43,18,V,R,
697,67,25,16,5,36,44,600,['c'],0,right,['0'],6,133,[0.10927609],100,44,hard,plus,dotcolour,beta,,,43,18,V,R,
698,68,26,16,5,44,36,950,['n'],0,left,['0'],6,123,[-0.0501792],100,44,hard,plus,dotcolour,beta,,,43,18,V,R,
699,69,27,16,5,36,44,867,['c'],0,right,['0'],6,148,[0.0210067],97,44,hard,plus,dotcolour,beta,,,43,18,V,R,
700,70,28,16,5,44,36,1517,['c'],1,left,['0'],6,107,[0.05634028],100,44,hard,plus,dotcolour,beta,,,43,18,V,R,
701,71,29,16,5,33,47,750,['n'],1,right,['0'],6,138,[-0.0728202],100,47,medium,plus,dotcolour,beta,,,43,18,V,R,
702,72,30,16,5,27,53,717,['c'],0,right,['1'],1,778,[0.05671888],91,53,easy,plus,dotcolour,beta,,,43,18,V,R,
703,73,31,16,5,53,27,716,['c'],1,left,['0'],6,118,[0.05889197],100,53,easy,plus,dotcolour,beta,,,43,18,V,R,
704,74,32,16,5,47,33,901,['c'],1,left,['0'],6,143,[0.1020359],100,47,medium,plus,dotcolour,beta,,,43,18,V,R,
705,75,33,16,5,44,36,566,['c'],1,left,['0'],6,404,[0.11674323],99,44,hard,plus,dotcolour,beta,,,43,18,V,R,
706,76,34,16,5,27,53,600,['n'],1,right,['0'],6,100,[-0.03324778],99,53,easy,plus,dotcolour,beta,,,43,18,V,R,
707,77,35,16,5,33,47,634,['n'],1,right,['0'],6,105,[-0.06976688],100,47,medium,plus,dotcolour,beta,,,43,18,V,R,
708,78,36,16,5,27,53,634,['c'],0,right,['0'],6,100,[0.00421756],97,53,easy,plus,dotcolour,beta,,,43,18,V,R,
709,79,37,16,5,47,33,467,['c'],1,left,['0'],6,31,[0.05763291],100,47,medium,plus,dotcolour,beta,,,43,18,V,R,
710,80,38,16,5,44,36,367,['c'],1,left,['0'],6,121,[0.0872015],100,44,hard,plus,dotcolour,beta,,,43,18,V,R,
711,81,39,16,5,36,44,600,['n'],1,right,['0'],6,93,[-0.08513334],100,44,hard,plus,dotcolour,beta,,,43,18,V,R,
712,82,40,16,5,27,53,501,['n'],1,right,['0'],6,103,[-0.13685695],100,53,easy,plus,dotcolour,beta,,,43,18,V,R,
713,83,41,16,5,36,44,633,['c'],0,right,['0'],6,90,[0.09639099],100,44,hard,plus,dotcolour,beta,,,43,18,V,R,
714,84,0,17,5,44,36,951,['c'],1,left,['0'],6,104,[0.06786237],100,44,hard,plus,dotcolour,beta,,,43,18,V,R,
715,85,1,17,5,27,53,550,['c'],0,right,['0'],6,88,[0.09013447],100,53,easy,plus,dotcolour,beta,,,43,18,V,R,
716,86,2,17,5,33,47,484,['c'],0,right,['0'],6,43,[0.07708046],100,47,medium,plus,dotcolour,beta,,,43,18,V,R,
717,87,3,17,5,44,36,433,['c'],1,left,['0'],6,89,[-0.02555125],86,44,hard,plus,dotcolour,beta,,,43,18,V,R,
718,88,4,17,5,33,47,617,['n'],1,right,['0'],6,126,[-0.08295675],100,47,medium,plus,dotcolour,beta,,,43,18,V,R,
719,89,5,17,5,47,33,368,['c'],1,left,['0'],6,91,[0.03337805],100,47,medium,plus,dotcolour,beta,,,43,18,V,R,
720,90,6,17,5,36,44,334,['c'],0,right,['0'],6,115,[0.0755282],100,44,hard,plus,dotcolour,beta,,,43,18,V,R,
721,91,7,17,5,36,44,367,['n'],1,right,['0'],6,153,[-0.06638218],100,44,hard,plus,dotcolour,beta,,,43,18,V,R,
722,92,8,17,5,47,33,350,['c'],1,left,['0'],6,94,[0.04426619],100,47,medium,plus,dotcolour,beta,,,43,18,V,R,
723,93,9,17,5,36,44,383,['c'],0,right,['0'],6,117,[0.08602848],100,44,hard,plus,dotcolour,beta,,,43,18,V,R,
724,94,10,17,5,27,53,283,['c'],0,right,['0'],6,110,[0.0232501],99,53,easy,plus,dotcolour,beta,,,43,18,V,R,
725,95,11,17,5,44,36,300,['c'],1,left,['0'],6,78,[0.08338046],100,44,hard,plus,dotcolour,beta,,,43,18,V,R,
726,96,12,17,5,44,36,284,['c'],1,left,['0'],6,98,[0.0488992],100,44,hard,plus,dotcolour,beta,,,43,18,V,R,
727,97,13,17,5,36,44,351,['c'],0,right,['0'],6,217,[0.12956676],100,44,hard,plus,dotcolour,beta,,,43,18,V,R,
728,98,14,17,5,36,44,333,['c'],0,right,['0'],6,124,[0.07537412],100,44,hard,plus,dotcolour,beta,,,43,18,V,R,
729,99,15,17,5,53,27,284,['c'],1,left,['0'],6,108,[0.08555477],100,53,easy,plus,dotcolour,beta,,,43,18,V,R,
730,100,16,17,5,36,44,333,['c'],0,right,['0'],6,100,[0.05164291],100,44,hard,plus,dotcolour,beta,,,43,18,V,R,
731,101,17,17,5,27,53,301,['c'],0,right,['0'],6,157,[0.03022028],98,53,easy,plus,dotcolour,beta,,,43,18,V,R,
732,102,18,17,5,53,27,333,['c'],1,left,['0'],6,154,[0.17346627],100,53,easy,plus,dotcolour,beta,,,43,18,V,R,
733,103,19,17,5,33,47,734,['c'],0,right,['0'],6,73,[0.07455219],100,47,medium,plus,dotcolour,beta,,,43,18,V,R,
734,104,20,17,5,33,47,450,['c'],0,right,['0'],6,166,[0.05353155],99,47,medium,plus,dotcolour,beta,,,43,18,V,R,
735,105,21,17,5,44,36,518,['c'],1,left,['0'],6,99,[0.04670964],100,44,hard,plus,dotcolour,beta,,,43,18,V,R,
736,106,22,17,5,47,33,400,['c'],1,left,['0'],6,121,[0.13595626],100,47,medium,plus,dotcolour,beta,,,43,18,V,R,
737,107,23,17,5,53,27,366,['c'],1,left,['0'],6,151,[0.10191266],100,53,easy,plus,dotcolour,beta,,,43,18,V,R,
738,108,24,17,5,53,27,334,['c'],1,left,['0'],6,165,[0.09038947],100,53,easy,plus,dotcolour,beta,,,43,18,V,R,
739,109,25,17,5,47,33,400,['c'],1,left,['0'],6,135,[0.06822665],100,47,medium,plus,dotcolour,beta,,,43,18,V,R,
740,110,26,17,5,27,53,400,['c'],0,right,['1'],1,1316,[-0.08872474],37,53,easy,plus,dotcolour,beta,,,43,18,V,R,
741,111,27,17,5,36,44,566,['c'],0,right,['0'],6,98,[0.07727369],100,44,hard,plus,dotcolour,beta,,,43,18,V,R,
742,112,28,17,5,33,47,400,['c'],0,right,['8'],4,1078,[0.03802404],84,47,medium,plus,dotcolour,beta,,,43,18,V,R,
743,113,29,17,5,53,27,418,['c'],1,left,['0'],6,147,[0.06104677],100,53,easy,plus,dotcolour,beta,,,43,18,V,R,
744,114,30,17,5,33,47,616,['n'],1,right,['0'],6,102,[-0.02675321],99,47,medium,plus,dotcolour,beta,,,43,18,V,R,
745,115,31,17,5,33,47,2516,['n'],1,right,['8'],4,151,[-0.11596878],100,47,medium,plus,dotcolour,beta,,,43,18,V,R,
746,116,32,17,5,53,27,500,['c'],1,left,['0'],6,118,[0.08640579],100,53,easy,plus,dotcolour,beta,,,43,18,V,R,
747,117,33,17,5,47,33,316,['c'],1,left,['0'],6,126,[0.05342599],100,47,medium,plus,dotcolour,beta,,,43,18,V,R,
748,118,34,17,5,27,53,334,['c'],0,right,['2'],2,1893,[-0.01468573],63,53,easy,plus,dotcolour,beta,,,43,18,V,R,
749,119,35,17,5,27,53,884,['n'],1,right,['0'],6,127,[-0.0677994],100,53,easy,plus,dotcolour,beta,,,43,18,V,R,
750,120,36,17,5,44,36,618,['c'],1,left,['0'],6,82,[0.08153709],100,44,hard,plus,dotcolour,beta,,,43,18,V,R,
751,121,37,17,5,53,27,450,['c'],1,left,['0'],6,142,[0.14195259],100,53,easy,plus,dotcolour,beta,,,43,18,V,R,
752,122,38,17,5,47,33,1884,['c'],1,left,['9'],5,22,[0.07134511],100,47,medium,plus,dotcolour,beta,,,43,18,V,R,
753,123,39,17,5,47,33,400,['c'],1,left,['0'],6,143,[0.10281497],100,47,medium,plus,dotcolour,beta,,,43,18,V,R,
754,124,40,17,5,44,36,616,['c'],1,left,['9'],5,546,[0.1558611],99,44,hard,plus,dotcolour,beta,,,43,18,V,R,
755,125,41,17,5,27,53,433,['c'],0,right,['1'],1,1268,[-0.11403712],28,53,easy,plus,dotcolour,beta,,,43,18,V,R,
,,,,,,,,,,,,,,,,,,,,,1,"de feedback leek nogal willekeurig en er werd weiniginfo gegeven over hoe ver j
e zat",43,18,V,R,
,,,,,,,,,,,,,,,,,,,,,2,['d'],43,18,V,R,
,,,,,,,,,,,,,,,,,,,,,3,['g'],43,18,V,R,
,,,,,,,,,,,,,,,,,,,,,5,['5'],43,18,V,R,
