trial,withinphasetrial,withinblocktrial,block,phase,dotsLeft,dotsRight,rt,resp,cor,cresp,conf_press,cj,RTconf,ev,fb,diff,difflevel,condition,task,manip,questionID,questionResp,sub,age,gender,handedness,
0,0,0,0,0,44,36,701,['n'],0,left,['9'],5,1495,[-0.12616965],94,44,hard,plus,dotcolour,beta,,,14,20,V,R,
1,1,1,0,0,47,33,1085,['c'],1,left,['9'],5,355,[0.15659582],100,47,medium,plus,dotcolour,beta,,,14,20,V,R,
2,2,2,0,0,53,27,601,['c'],1,left,['9'],5,268,[0.04466474],97,53,easy,plus,dotcolour,beta,,,14,20,V,R,
3,3,3,0,0,47,33,633,['c'],1,left,['9'],5,382,[0.19305178],100,47,medium,plus,dotcolour,beta,,,14,20,V,R,
4,4,4,0,0,53,27,585,['c'],1,left,['9'],5,222,[0.10362107],100,53,easy,plus,dotcolour,beta,,,14,20,V,R,
5,5,5,0,0,36,44,533,['n'],1,right,['9'],5,208,[-0.12183828],100,44,hard,plus,dotcolour,beta,,,14,20,V,R,
6,6,6,0,0,33,47,566,['n'],1,right,['9'],5,175,[-0.05934922],99,47,medium,plus,dotcolour,beta,,,14,20,V,R,
7,7,7,0,0,36,44,647,['n'],1,right,['9'],5,229,[-0.09858823],100,44,hard,plus,dotcolour,beta,,,14,20,V,R,
8,8,8,0,0,44,36,601,['c'],1,left,['8'],4,274,[0.08757364],99,44,hard,plus,dotcolour,beta,,,14,20,V,R,
9,9,9,0,0,33,47,968,['c'],0,right,['8'],4,215,[0.0516035],98,47,medium,plus,dotcolour,beta,,,14,20,V,R,
10,10,10,0,0,47,33,601,['c'],1,left,['9'],5,261,[0.0404763],97,47,medium,plus,dotcolour,beta,,,14,20,V,R,
11,11,11,0,0,27,53,650,['n'],1,right,['9'],5,191,[-0.03808304],98,53,easy,plus,dotcolour,beta,,,14,20,V,R,
12,12,12,0,0,33,47,550,['n'],1,right,['9'],5,192,[-0.01415664],95,47,medium,plus,dotcolour,beta,,,14,20,V,R,
13,13,13,0,0,33,47,516,['n'],1,right,['9'],5,299,[-0.01877809],92,47,medium,plus,dotcolour,beta,,,14,20,V,R,
14,14,14,0,0,53,27,500,['n'],0,left,['9'],5,250,[-0.08522726],99,53,easy,plus,dotcolour,beta,,,14,20,V,R,
15,15,15,0,0,36,44,699,['n'],1,right,['9'],5,315,[-0.08984726],99,44,hard,plus,dotcolour,beta,,,14,20,V,R,
16,16,16,0,0,36,44,866,['c'],0,right,['8'],4,210,[0.03830031],98,44,hard,plus,dotcolour,beta,,,14,20,V,R,
17,17,17,0,0,53,27,667,['n'],0,left,['9'],5,214,[-0.00717475],92,53,easy,plus,dotcolour,beta,,,14,20,V,R,
18,18,18,0,0,27,53,534,['c'],0,right,['9'],5,270,[-0.00691424],84,53,easy,plus,dotcolour,beta,,,14,20,V,R,
19,19,19,0,0,47,33,467,['n'],0,left,['0'],6,304,[-0.01878953],92,47,medium,plus,dotcolour,beta,,,14,20,V,R,
20,20,20,0,0,53,27,483,['n'],0,left,['0'],6,208,[0.00710368],87,53,easy,plus,dotcolour,beta,,,14,20,V,R,
21,21,21,0,0,47,33,934,['n'],0,left,['8'],4,193,[-0.14743858],100,47,medium,plus,dotcolour,beta,,,14,20,V,R,
22,22,22,0,0,33,47,801,['n'],1,right,['8'],4,247,[-0.15382715],100,47,medium,plus,dotcolour,beta,,,14,20,V,R,
23,23,23,0,0,36,44,683,['n'],1,right,['8'],4,201,[-0.13018137],100,44,hard,plus,dotcolour,beta,,,14,20,V,R,
24,24,24,0,0,33,47,567,['n'],1,right,['2'],2,833,[-0.17366218],99,47,medium,plus,dotcolour,beta,,,14,20,V,R,
25,25,25,0,0,44,36,1000,['n'],0,left,['8'],4,246,[-0.06918545],99,44,hard,plus,dotcolour,beta,,,14,20,V,R,
26,26,26,0,0,33,47,1349,['n'],1,right,['8'],4,188,[-0.05956078],99,47,medium,plus,dotcolour,beta,,,14,20,V,R,
27,27,27,0,0,44,36,717,['c'],1,left,['9'],5,351,[0.17708396],100,44,hard,plus,dotcolour,beta,,,14,20,V,R,
28,28,28,0,0,44,36,533,['c'],1,left,['9'],5,178,[0.07404995],100,44,hard,plus,dotcolour,beta,,,14,20,V,R,
29,29,29,0,0,27,53,616,['n'],1,right,['8'],4,217,[-0.14905521],100,53,easy,plus,dotcolour,beta,,,14,20,V,R,
30,30,30,0,0,44,36,599,['c'],1,left,['9'],5,231,[0.06562003],99,44,hard,plus,dotcolour,beta,,,14,20,V,R,
31,31,31,0,0,47,33,450,['c'],1,left,['9'],5,339,[0.1634831],100,47,medium,plus,dotcolour,beta,,,14,20,V,R,
32,32,32,0,0,27,53,550,['c'],0,right,['9'],5,285,[0.06843964],98,53,easy,plus,dotcolour,beta,,,14,20,V,R,
33,33,33,0,0,27,53,618,['c'],0,right,['8'],4,321,[0.01915189],91,53,easy,plus,dotcolour,beta,,,14,20,V,R,
34,34,34,0,0,44,36,799,['c'],1,left,['8'],4,234,[0.0968377],100,44,hard,plus,dotcolour,beta,,,14,20,V,R,
35,35,35,0,0,36,44,598,['c'],0,right,['8'],4,239,[0.04131736],97,44,hard,plus,dotcolour,beta,,,14,20,V,R,
36,36,36,0,0,27,53,617,['c'],0,right,['8'],4,235,[0.02753051],96,53,easy,plus,dotcolour,beta,,,14,20,V,R,
37,37,37,0,0,53,27,467,['c'],1,left,['8'],4,238,[0.13123265],100,53,easy,plus,dotcolour,beta,,,14,20,V,R,
38,38,38,0,0,53,27,501,['c'],1,left,['9'],5,199,[0.13799483],100,53,easy,plus,dotcolour,beta,,,14,20,V,R,
39,39,39,0,0,47,33,833,['n'],0,left,['8'],4,260,[-0.03236358],96,47,medium,plus,dotcolour,beta,,,14,20,V,R,
40,40,40,0,0,27,53,817,['n'],1,right,['9'],5,184,[-0.03314379],98,53,easy,plus,dotcolour,beta,,,14,20,V,R,
41,41,41,0,0,36,44,816,['c'],0,right,['8'],4,255,[-0.03321557],69,44,hard,plus,dotcolour,beta,,,14,20,V,R,
42,42,0,1,0,44,36,783,['c'],1,left,['9'],5,249,[0.14519037],100,44,hard,plus,dotcolour,beta,,,14,20,V,R,
43,43,1,1,0,44,36,416,['c'],1,left,['9'],5,229,[0.08533167],100,44,hard,plus,dotcolour,beta,,,14,20,V,R,
44,44,2,1,0,27,53,348,['c'],0,right,['2'],2,436,[0.03472374],92,53,easy,plus,dotcolour,beta,,,14,20,V,R,
45,45,3,1,0,47,33,500,['c'],1,left,['8'],4,206,[0.11187998],100,47,medium,plus,dotcolour,beta,,,14,20,V,R,
46,46,4,1,0,33,47,567,['n'],1,right,['9'],5,157,[-0.07003274],100,47,medium,plus,dotcolour,beta,,,14,20,V,R,
47,47,5,1,0,47,33,683,['c'],1,left,['9'],5,258,[0.16277767],100,47,medium,plus,dotcolour,beta,,,14,20,V,R,
48,48,6,1,0,47,33,452,['c'],1,left,['9'],5,404,[0.15060621],100,47,medium,plus,dotcolour,beta,,,14,20,V,R,
49,49,7,1,0,44,36,650,['c'],1,left,['9'],5,273,[0.15919334],100,44,hard,plus,dotcolour,beta,,,14,20,V,R,
50,50,8,1,0,33,47,749,['n'],1,right,['9'],5,215,[-0.05307129],99,47,medium,plus,dotcolour,beta,,,14,20,V,R,
51,51,9,1,0,27,53,767,['n'],1,right,['9'],5,247,[-0.09702378],100,53,easy,plus,dotcolour,beta,,,14,20,V,R,
52,52,10,1,0,27,53,650,['n'],1,right,['9'],5,289,[-0.08094627],99,53,easy,plus,dotcolour,beta,,,14,20,V,R,
53,53,11,1,0,53,27,533,['c'],1,left,['0'],6,327,[0.11990462],100,53,easy,plus,dotcolour,beta,,,14,20,V,R,
54,54,12,1,0,53,27,532,['c'],1,left,['9'],5,299,[0.05664283],98,53,easy,plus,dotcolour,beta,,,14,20,V,R,
55,55,13,1,0,33,47,583,['n'],1,right,['9'],5,215,[-0.14445276],100,47,medium,plus,dotcolour,beta,,,14,20,V,R,
56,56,14,1,0,36,44,500,['c'],0,right,['9'],5,297,[0.00820382],89,44,hard,plus,dotcolour,beta,,,14,20,V,R,
57,57,15,1,0,36,44,1400,['c'],0,right,['8'],4,235,[0.02031935],94,44,hard,plus,dotcolour,beta,,,14,20,V,R,
58,58,16,1,0,27,53,518,['n'],1,right,['9'],5,251,[-0.10991938],100,53,easy,plus,dotcolour,beta,,,14,20,V,R,
59,59,17,1,0,36,44,583,['n'],1,right,['9'],5,234,[-0.0132742],93,44,hard,plus,dotcolour,beta,,,14,20,V,R,
60,60,18,1,0,53,27,500,['c'],1,left,['0'],6,427,[0.10406963],99,53,easy,plus,dotcolour,beta,,,14,20,V,R,
61,61,19,1,0,33,47,616,['n'],1,right,['9'],5,216,[-0.11730106],100,47,medium,plus,dotcolour,beta,,,14,20,V,R,
62,62,20,1,0,36,44,649,['n'],1,right,['9'],5,188,[-0.11195551],100,44,hard,plus,dotcolour,beta,,,14,20,V,R,
63,63,21,1,0,33,47,984,['n'],1,right,['9'],5,316,[-0.15731629],100,47,medium,plus,dotcolour,beta,,,14,20,V,R,
64,64,22,1,0,53,27,418,['c'],1,left,['9'],5,262,[0.03877668],97,53,easy,plus,dotcolour,beta,,,14,20,V,R,
65,65,23,1,0,47,33,449,['c'],1,left,['9'],5,456,[0.23379757],100,47,medium,plus,dotcolour,beta,,,14,20,V,R,
66,66,24,1,0,44,36,1183,['c'],1,left,['9'],5,308,[0.09039584],99,44,hard,plus,dotcolour,beta,,,14,20,V,R,
67,67,25,1,0,27,53,784,['n'],1,right,['9'],5,255,[-0.12147261],100,53,easy,plus,dotcolour,beta,,,14,20,V,R,
68,68,26,1,0,53,27,651,['c'],1,left,['9'],5,273,[0.01986512],93,53,easy,plus,dotcolour,beta,,,14,20,V,R,
69,69,27,1,0,47,33,718,['c'],1,left,['9'],5,368,[0.13353469],100,47,medium,plus,dotcolour,beta,,,14,20,V,R,
70,70,28,1,0,47,33,549,['c'],1,left,['9'],5,289,[0.04431446],97,47,medium,plus,dotcolour,beta,,,14,20,V,R,
71,71,29,1,0,36,44,584,['n'],1,right,['9'],5,221,[-0.05395301],99,44,hard,plus,dotcolour,beta,,,14,20,V,R,
72,72,30,1,0,27,53,583,['n'],1,right,['9'],5,276,[-0.12305257],100,53,easy,plus,dotcolour,beta,,,14,20,V,R,
73,73,31,1,0,47,33,750,['c'],1,left,['8'],4,401,[0.18594356],100,47,medium,plus,dotcolour,beta,,,14,20,V,R,
74,74,32,1,0,33,47,600,['c'],0,right,['2'],2,640,[0.01287865],82,47,medium,plus,dotcolour,beta,,,14,20,V,R,
75,75,33,1,0,53,27,516,['n'],0,left,['0'],6,336,[-0.11049411],99,53,easy,plus,dotcolour,beta,,,14,20,V,R,
76,76,34,1,0,53,27,433,['n'],0,left,['9'],5,216,[-0.0267915],96,53,easy,plus,dotcolour,beta,,,14,20,V,R,
77,77,35,1,0,27,53,2503,['n'],1,right,['9'],5,160,[-0.08460938],100,53,easy,plus,dotcolour,beta,,,14,20,V,R,
78,78,36,1,0,44,36,951,['c'],1,left,['9'],5,194,[0.02434106],96,44,hard,plus,dotcolour,beta,,,14,20,V,R,
79,79,37,1,0,33,47,532,['n'],1,right,['9'],5,244,[-0.1342208],100,47,medium,plus,dotcolour,beta,,,14,20,V,R,
80,80,38,1,0,36,44,650,['c'],0,right,['9'],5,231,[0.07634215],99,44,hard,plus,dotcolour,beta,,,14,20,V,R,
81,81,39,1,0,36,44,866,['c'],0,right,['8'],4,194,[0.11421396],100,44,hard,plus,dotcolour,beta,,,14,20,V,R,
82,82,40,1,0,44,36,816,['n'],0,left,['8'],4,208,[-0.14843736],100,44,hard,plus,dotcolour,beta,,,14,20,V,R,
83,83,41,1,0,44,36,749,['n'],0,left,['9'],5,192,[-0.08444644],100,44,hard,plus,dotcolour,beta,,,14,20,V,R,
84,84,0,2,0,36,44,851,['n'],1,right,['9'],5,207,[-0.06853691],99,44,hard,plus,dotcolour,beta,,,14,20,V,R,
85,85,1,2,0,44,36,415,['n'],0,left,['9'],5,204,[-0.01551675],94,44,hard,plus,dotcolour,beta,,,14,20,V,R,
86,86,2,2,0,33,47,484,['n'],1,right,['9'],5,240,[-0.15996514],100,47,medium,plus,dotcolour,beta,,,14,20,V,R,
87,87,3,2,0,27,53,499,['n'],1,right,['9'],5,369,[-0.18339421],100,53,easy,plus,dotcolour,beta,,,14,20,V,R,
88,88,4,2,0,53,27,681,['c'],1,left,['9'],5,245,[0.1330862],100,53,easy,plus,dotcolour,beta,,,14,20,V,R,
89,89,5,2,0,27,53,466,['n'],1,right,['9'],5,247,[-0.13332738],100,53,easy,plus,dotcolour,beta,,,14,20,V,R,
90,90,6,2,0,27,53,468,['n'],1,right,['0'],6,249,[-0.10866775],100,53,easy,plus,dotcolour,beta,,,14,20,V,R,
91,91,7,2,0,36,44,733,['n'],1,right,['9'],5,209,[-0.03742266],97,44,hard,plus,dotcolour,beta,,,14,20,V,R,
92,92,8,2,0,36,44,516,['n'],1,right,['9'],5,218,[-0.04540177],98,44,hard,plus,dotcolour,beta,,,14,20,V,R,
93,93,9,2,0,44,36,816,['c'],1,left,['9'],5,224,[0.04256008],98,44,hard,plus,dotcolour,beta,,,14,20,V,R,
94,94,10,2,0,47,33,533,['c'],1,left,['9'],5,328,[0.11093577],99,47,medium,plus,dotcolour,beta,,,14,20,V,R,
95,95,11,2,0,44,36,566,['c'],1,left,['9'],5,267,[-0.00634331],85,44,hard,plus,dotcolour,beta,,,14,20,V,R,
96,96,12,2,0,47,33,634,['c'],1,left,['9'],5,238,[0.11780103],100,47,medium,plus,dotcolour,beta,,,14,20,V,R,
97,97,13,2,0,36,44,566,['n'],1,right,['9'],5,213,[-0.08014911],99,44,hard,plus,dotcolour,beta,,,14,20,V,R,
98,98,14,2,0,53,27,599,['c'],1,left,['9'],5,228,[0.07758523],99,53,easy,plus,dotcolour,beta,,,14,20,V,R,
99,99,15,2,0,27,53,515,['n'],1,right,['9'],5,420,[-0.12695129],99,53,easy,plus,dotcolour,beta,,,14,20,V,R,
100,100,16,2,0,53,27,399,['c'],1,left,['9'],5,251,[0.09143243],99,53,easy,plus,dotcolour,beta,,,14,20,V,R,
101,101,17,2,0,47,33,650,['c'],1,left,['9'],5,237,[0.12769379],100,47,medium,plus,dotcolour,beta,,,14,20,V,R,
102,102,18,2,0,53,27,749,['c'],1,left,['9'],5,252,[0.14336032],100,53,easy,plus,dotcolour,beta,,,14,20,V,R,
103,103,19,2,0,33,47,617,['n'],1,right,['9'],5,192,[-0.10432077],100,47,medium,plus,dotcolour,beta,,,14,20,V,R,
104,104,20,2,0,47,33,366,['c'],1,left,['9'],5,225,[0.07322331],99,47,medium,plus,dotcolour,beta,,,14,20,V,R,
105,105,21,2,0,36,44,766,['c'],0,right,['9'],5,240,[0.00503159],90,44,hard,plus,dotcolour,beta,,,14,20,V,R,
106,106,22,2,0,47,33,599,['c'],1,left,['9'],5,165,[0.06818562],100,47,medium,plus,dotcolour,beta,,,14,20,V,R,
107,107,23,2,0,27,53,584,['n'],1,right,['9'],5,223,[-0.08769784],100,53,easy,plus,dotcolour,beta,,,14,20,V,R,
108,108,24,2,0,33,47,750,['c'],0,right,['9'],5,335,[0.02932922],93,47,medium,plus,dotcolour,beta,,,14,20,V,R,
109,109,25,2,0,47,33,534,['c'],1,left,['9'],5,227,[0.11496674],100,47,medium,plus,dotcolour,beta,,,14,20,V,R,
110,110,26,2,0,53,27,568,['c'],1,left,['9'],5,354,[-0.02273402],73,53,easy,plus,dotcolour,beta,,,14,20,V,R,
111,111,27,2,0,27,53,584,['c'],0,right,['3'],3,1275,[0.03288728],80,53,easy,plus,dotcolour,beta,,,14,20,V,R,
112,112,28,2,0,47,33,867,['c'],1,left,['9'],5,162,[0.01672107],96,47,medium,plus,dotcolour,beta,,,14,20,V,R,
113,113,29,2,0,33,47,467,['c'],0,right,['9'],5,216,[0.04717884],98,47,medium,plus,dotcolour,beta,,,14,20,V,R,
114,114,30,2,0,33,47,418,['c'],0,right,['1'],1,494,[0.12135238],99,47,medium,plus,dotcolour,beta,,,14,20,V,R,
115,115,31,2,0,44,36,1484,['c'],1,left,['9'],5,244,[0.1260588],100,44,hard,plus,dotcolour,beta,,,14,20,V,R,
116,116,32,2,0,36,44,751,['n'],1,right,['9'],5,147,[-0.12392364],100,44,hard,plus,dotcolour,beta,,,14,20,V,R,
117,117,33,2,0,53,27,484,['c'],1,left,['9'],5,193,[0.16029145],100,53,easy,plus,dotcolour,beta,,,14,20,V,R,
118,118,34,2,0,53,27,535,['c'],1,left,['9'],5,290,[0.16624876],100,53,easy,plus,dotcolour,beta,,,14,20,V,R,
119,119,35,2,0,44,36,601,['c'],1,left,['2'],2,453,[0.11656422],99,44,hard,plus,dotcolour,beta,,,14,20,V,R,
120,120,36,2,0,44,36,785,['c'],1,left,['9'],5,275,[0.08257764],99,44,hard,plus,dotcolour,beta,,,14,20,V,R,
121,121,37,2,0,27,53,867,['n'],1,right,['9'],5,227,[-0.04863651],98,53,easy,plus,dotcolour,beta,,,14,20,V,R,
122,122,38,2,0,44,36,567,['c'],1,left,['9'],5,210,[0.10051981],100,44,hard,plus,dotcolour,beta,,,14,20,V,R,
123,123,39,2,0,33,47,533,['n'],1,right,['9'],5,179,[-0.12835107],100,47,medium,plus,dotcolour,beta,,,14,20,V,R,
124,124,40,2,0,36,44,450,['n'],1,right,['9'],5,177,[0.01536547],85,44,hard,plus,dotcolour,beta,,,14,20,V,R,
125,125,41,2,0,33,47,766,['n'],1,right,['9'],5,202,[-0.16368916],100,47,medium,plus,dotcolour,beta,,,14,20,V,R,
126,0,0,3,1,27,53,751,['n'],1,right,['9'],5,134,[-0.05800531],53,53,easy,minus,dotcolour,beta,,,14,20,V,R,
127,1,1,3,1,53,27,717,['c'],1,left,['9'],5,203,[0.16174681],99,53,easy,minus,dotcolour,beta,,,14,20,V,R,
128,2,2,3,1,47,33,533,['c'],1,left,['9'],5,197,[0.10456879],88,47,medium,minus,dotcolour,beta,,,14,20,V,R,
129,3,3,3,1,27,53,616,['n'],1,right,['9'],5,211,[-0.03323995],29,53,easy,minus,dotcolour,beta,,,14,20,V,R,
130,4,4,3,1,33,47,1734,['n'],1,right,['9'],5,130,[-0.08103286],78,47,medium,minus,dotcolour,beta,,,14,20,V,R,
131,5,5,3,1,27,53,550,['n'],1,right,['9'],5,166,[-0.06779769],63,53,easy,minus,dotcolour,beta,,,14,20,V,R,
132,6,6,3,1,44,36,650,['c'],1,left,['9'],5,213,[0.03555793],31,44,hard,minus,dotcolour,beta,,,14,20,V,R,
133,7,7,3,1,47,33,815,['n'],0,left,['9'],5,275,[0.00753746],10,47,medium,minus,dotcolour,beta,,,14,20,V,R,
134,8,8,3,1,44,36,884,['c'],1,left,['9'],5,226,[0.07341572],66,44,hard,minus,dotcolour,beta,,,14,20,V,R,
135,9,9,3,1,33,47,566,['c'],0,right,['8'],4,321,[0.03665529],35,47,medium,minus,dotcolour,beta,,,14,20,V,R,
136,10,10,3,1,47,33,598,['c'],1,left,['9'],5,251,[0.10790097],87,47,medium,minus,dotcolour,beta,,,14,20,V,R,
137,11,11,3,1,47,33,431,['c'],1,left,['9'],5,190,[0.12431418],94,47,medium,minus,dotcolour,beta,,,14,20,V,R,
138,12,12,3,1,44,36,482,['c'],1,left,['9'],5,243,[0.01812967],20,44,hard,minus,dotcolour,beta,,,14,20,V,R,
139,13,13,3,1,44,36,583,['c'],1,left,['9'],5,224,[0.06618401],60,44,hard,minus,dotcolour,beta,,,14,20,V,R,
140,14,14,3,1,36,44,466,['c'],0,right,['9'],5,307,[0.15933103],97,44,hard,minus,dotcolour,beta,,,14,20,V,R,
141,15,15,3,1,44,36,667,['c'],1,left,['9'],5,219,[0.08292662],74,44,hard,minus,dotcolour,beta,,,14,20,V,R,
142,16,16,3,1,53,27,532,['c'],1,left,['9'],5,228,[0.09859846],84,53,easy,minus,dotcolour,beta,,,14,20,V,R,
143,17,17,3,1,47,33,450,['c'],1,left,['9'],5,216,[0.13986009],96,47,medium,minus,dotcolour,beta,,,14,20,V,R,
144,18,18,3,1,27,53,534,['n'],1,right,['9'],5,137,[-0.09346661],86,53,easy,minus,dotcolour,beta,,,14,20,V,R,
145,19,19,3,1,53,27,515,['c'],1,left,['9'],5,246,[0.11785297],91,53,easy,minus,dotcolour,beta,,,14,20,V,R,
146,20,20,3,1,44,36,1000,['n'],0,left,['9'],5,194,[-0.0573258],52,44,hard,minus,dotcolour,beta,,,14,20,V,R,
147,21,21,3,1,53,27,565,['c'],1,left,['9'],5,163,[0.1398806],98,53,easy,minus,dotcolour,beta,,,14,20,V,R,
148,22,22,3,1,33,47,399,['c'],0,right,['9'],5,187,[0.02527494],22,47,medium,minus,dotcolour,beta,,,14,20,V,R,
149,23,23,3,1,53,27,466,['c'],1,left,['8'],4,217,[0.10568844],87,53,easy,minus,dotcolour,beta,,,14,20,V,R,
150,24,24,3,1,36,44,532,['c'],0,right,['9'],5,185,[0.05265185],47,44,hard,minus,dotcolour,beta,,,14,20,V,R,
151,25,25,3,1,33,47,550,['c'],0,right,['9'],5,202,[-0.03016922],3,47,medium,minus,dotcolour,beta,,,14,20,V,R,
152,26,26,3,1,53,27,417,['c'],1,left,['9'],5,184,[0.0416582],36,53,easy,minus,dotcolour,beta,,,14,20,V,R,
153,27,27,3,1,53,27,1218,['n'],0,left,['9'],5,150,[-0.08825686],82,53,easy,minus,dotcolour,beta,,,14,20,V,R,
154,28,28,3,1,33,47,666,['n'],1,right,['9'],5,157,[-0.10614031],91,47,medium,minus,dotcolour,beta,,,14,20,V,R,
155,29,29,3,1,27,53,382,['n'],1,right,['9'],5,143,[-0.0948435],87,53,easy,minus,dotcolour,beta,,,14,20,V,R,
156,30,30,3,1,36,44,566,['n'],1,right,['9'],5,201,[-0.12966961],95,44,hard,minus,dotcolour,beta,,,14,20,V,R,
157,31,31,3,1,36,44,633,['c'],0,right,['9'],5,279,[0.04910987],45,44,hard,minus,dotcolour,beta,,,14,20,V,R,
158,32,32,3,1,47,33,483,['c'],1,left,['9'],5,207,[0.07503568],68,47,medium,minus,dotcolour,beta,,,14,20,V,R,
159,33,33,3,1,36,44,366,['c'],0,right,['9'],5,303,[0.08615896],73,44,hard,minus,dotcolour,beta,,,14,20,V,R,
160,34,34,3,1,33,47,499,['c'],0,right,['8'],4,325,[0.1157099],87,47,medium,minus,dotcolour,beta,,,14,20,V,R,
161,35,35,3,1,44,36,516,['c'],1,left,['9'],5,138,[0.09337659],86,44,hard,minus,dotcolour,beta,,,14,20,V,R,
162,36,36,3,1,36,44,733,['c'],0,right,['9'],5,94,[0.07712889],78,44,hard,minus,dotcolour,beta,,,14,20,V,R,
163,37,37,3,1,33,47,533,['n'],1,right,['9'],5,148,[-0.16324566],99,47,medium,minus,dotcolour,beta,,,14,20,V,R,
164,38,38,3,1,47,33,500,['c'],1,left,['9'],5,217,[0.13856239],96,47,medium,minus,dotcolour,beta,,,14,20,V,R,
165,39,39,3,1,27,53,551,['c'],0,right,['9'],5,193,[0.12801032],95,53,easy,minus,dotcolour,beta,,,14,20,V,R,
166,40,40,3,1,36,44,749,['n'],1,right,['9'],5,210,[-0.07418794],68,44,hard,minus,dotcolour,beta,,,14,20,V,R,
167,41,41,3,1,27,53,932,['n'],1,right,['9'],5,155,[-0.11996527],95,53,easy,minus,dotcolour,beta,,,14,20,V,R,
168,42,0,4,1,33,47,784,['c'],0,right,['9'],5,174,[0.02375902],20,47,medium,minus,dotcolour,beta,,,14,20,V,R,
169,43,1,4,1,33,47,932,['n'],1,right,['9'],5,175,[-0.07745303],72,47,medium,minus,dotcolour,beta,,,14,20,V,R,
170,44,2,4,1,47,33,482,['c'],1,left,['9'],5,156,[-0.03237827],2,47,medium,minus,dotcolour,beta,,,14,20,V,R,
171,45,3,4,1,47,33,433,['c'],1,left,['9'],5,163,[0.12040189],95,47,medium,minus,dotcolour,beta,,,14,20,V,R,
172,46,4,4,1,47,33,583,['c'],1,left,['9'],5,228,[0.06117993],55,47,medium,minus,dotcolour,beta,,,14,20,V,R,
173,47,5,4,1,44,36,383,['c'],1,left,['9'],5,186,[0.07594302],70,44,hard,minus,dotcolour,beta,,,14,20,V,R,
174,48,6,4,1,44,36,465,['c'],1,left,['9'],5,159,[0.0639907],59,44,hard,minus,dotcolour,beta,,,14,20,V,R,
175,49,7,4,1,36,44,414,['c'],0,right,['9'],5,239,[-0.02240762],5,44,hard,minus,dotcolour,beta,,,14,20,V,R,
176,50,8,4,1,53,27,466,['c'],1,left,['9'],5,201,[0.10206369],87,53,easy,minus,dotcolour,beta,,,14,20,V,R,
177,51,9,4,1,53,27,532,['c'],1,left,['0'],6,210,[0.1472923],97,53,easy,minus,dotcolour,beta,,,14,20,V,R,
178,52,10,4,1,53,27,466,['c'],1,left,['0'],6,230,[0.08371061],74,53,easy,minus,dotcolour,beta,,,14,20,V,R,
179,53,11,4,1,27,53,666,['n'],1,right,['9'],5,201,[-0.16652017],99,53,easy,minus,dotcolour,beta,,,14,20,V,R,
180,54,12,4,1,36,44,500,['n'],1,right,['9'],5,276,[-0.12773538],92,44,hard,minus,dotcolour,beta,,,14,20,V,R,
181,55,13,4,1,36,44,550,['c'],0,right,['8'],4,786,[0.09294739],68,44,hard,minus,dotcolour,beta,,,14,20,V,R,
182,56,14,4,1,53,27,783,['c'],1,left,['0'],6,232,[0.12988468],94,53,easy,minus,dotcolour,beta,,,14,20,V,R,
183,57,15,4,1,53,27,450,['c'],1,left,['0'],6,308,[0.12689334],91,53,easy,minus,dotcolour,beta,,,14,20,V,R,
184,58,16,4,1,36,44,583,['n'],1,right,['8'],4,399,[-0.15923952],95,44,hard,minus,dotcolour,beta,,,14,20,V,R,
185,59,17,4,1,47,33,716,['c'],1,left,['9'],5,193,[0.15068789],98,47,medium,minus,dotcolour,beta,,,14,20,V,R,
186,60,18,4,1,47,33,483,['c'],1,left,['9'],5,245,[0.05956259],54,47,medium,minus,dotcolour,beta,,,14,20,V,R,
187,61,19,4,1,36,44,597,['n'],1,right,['9'],5,178,[-0.05902805],54,44,hard,minus,dotcolour,beta,,,14,20,V,R,
188,62,20,4,1,33,47,499,['n'],1,right,['9'],5,237,[-0.13555682],95,47,medium,minus,dotcolour,beta,,,14,20,V,R,
189,63,21,4,1,27,53,348,['n'],1,right,['9'],5,270,[-0.02440533],25,53,easy,minus,dotcolour,beta,,,14,20,V,R,
190,64,22,4,1,44,36,635,['c'],1,left,['9'],5,224,[0.06453195],58,44,hard,minus,dotcolour,beta,,,14,20,V,R,
191,65,23,4,1,33,47,468,['n'],1,right,['9'],5,171,[-0.07581017],71,47,medium,minus,dotcolour,beta,,,14,20,V,R,
192,66,24,4,1,27,53,868,['c'],0,right,['9'],5,161,[0.01364282],13,53,easy,minus,dotcolour,beta,,,14,20,V,R,
193,67,25,4,1,47,33,834,['n'],0,left,['9'],5,151,[-0.04261431],35,47,medium,minus,dotcolour,beta,,,14,20,V,R,
194,68,26,4,1,53,27,366,['n'],0,left,['9'],5,266,[0.05320714],2,53,easy,minus,dotcolour,beta,,,14,20,V,R,
195,69,27,4,1,44,36,633,['c'],1,left,['9'],5,212,[0.06956628],63,44,hard,minus,dotcolour,beta,,,14,20,V,R,
196,70,28,4,1,44,36,616,['c'],1,left,['9'],5,226,[0.03436932],31,44,hard,minus,dotcolour,beta,,,14,20,V,R,
197,71,29,4,1,33,47,448,['c'],0,right,['1'],1,1061,[-0.15375889],3,47,medium,minus,dotcolour,beta,,,14,20,V,R,
198,72,30,4,1,47,33,716,['n'],0,left,['9'],5,180,[-0.16823369],99,47,medium,minus,dotcolour,beta,,,14,20,V,R,
199,73,31,4,1,44,36,666,['n'],0,left,['9'],5,160,[-0.08076944],76,44,hard,minus,dotcolour,beta,,,14,20,V,R,
200,74,32,4,1,36,44,532,['n'],1,right,['9'],5,227,[-0.16146227],98,44,hard,minus,dotcolour,beta,,,14,20,V,R,
201,75,33,4,1,27,53,699,['n'],1,right,['9'],5,173,[-0.06800632],63,53,easy,minus,dotcolour,beta,,,14,20,V,R,
202,76,34,4,1,33,47,766,['n'],1,right,['9'],5,190,[-0.08133272],74,47,medium,minus,dotcolour,beta,,,14,20,V,R,
203,77,35,4,1,53,27,566,['c'],1,left,['0'],6,335,[0.14727766],95,53,easy,minus,dotcolour,beta,,,14,20,V,R,
204,78,36,4,1,27,53,783,['n'],1,right,['9'],5,208,[-0.09677886],84,53,easy,minus,dotcolour,beta,,,14,20,V,R,
205,79,37,4,1,36,44,515,['n'],1,right,['9'],5,194,[-0.13418996],96,44,hard,minus,dotcolour,beta,,,14,20,V,R,
206,80,38,4,1,27,53,449,['n'],1,right,['9'],5,287,[-0.11501867],88,53,easy,minus,dotcolour,beta,,,14,20,V,R,
207,81,39,4,1,33,47,699,['c'],0,right,['9'],5,382,[0.11012966],83,47,medium,minus,dotcolour,beta,,,14,20,V,R,
208,82,40,4,1,44,36,367,['c'],1,left,['9'],5,183,[0.07913289],73,44,hard,minus,dotcolour,beta,,,14,20,V,R,
209,83,41,4,1,27,53,600,['n'],1,right,['9'],5,118,[-0.10550151],93,53,easy,minus,dotcolour,beta,,,14,20,V,R,
210,84,0,5,1,53,27,601,['c'],1,left,['9'],5,135,[0.04564869],38,53,easy,minus,dotcolour,beta,,,14,20,V,R,
211,85,1,5,1,36,44,399,['c'],0,right,['9'],5,177,[0.01560743],15,44,hard,minus,dotcolour,beta,,,14,20,V,R,
212,86,2,5,1,53,27,282,['c'],1,left,['9'],5,198,[0.1269842],95,53,easy,minus,dotcolour,beta,,,14,20,V,R,
213,87,3,5,1,36,44,284,['c'],0,right,['9'],5,226,[0.06320433],57,44,hard,minus,dotcolour,beta,,,14,20,V,R,
214,88,4,5,1,36,44,484,['c'],0,right,['9'],5,172,[0.07687738],72,44,hard,minus,dotcolour,beta,,,14,20,V,R,
215,89,5,5,1,27,53,498,['n'],1,right,['9'],5,153,[-0.12302969],96,53,easy,minus,dotcolour,beta,,,14,20,V,R,
216,90,6,5,1,33,47,483,['n'],1,right,['9'],5,158,[-0.09510771],86,47,medium,minus,dotcolour,beta,,,14,20,V,R,
217,91,7,5,1,33,47,316,['n'],1,right,['9'],5,234,[-0.10508059],86,47,medium,minus,dotcolour,beta,,,14,20,V,R,
218,92,8,5,1,33,47,432,['n'],1,right,['9'],5,271,[-0.12161865],91,47,medium,minus,dotcolour,beta,,,14,20,V,R,
219,93,9,5,1,36,44,483,['n'],1,right,['9'],5,183,[-0.12978229],96,44,hard,minus,dotcolour,beta,,,14,20,V,R,
220,94,10,5,1,27,53,635,['n'],1,right,['9'],5,221,[-0.08765474],77,53,easy,minus,dotcolour,beta,,,14,20,V,R,
221,95,11,5,1,44,36,617,['c'],1,left,['9'],5,171,[0.03989441],34,44,hard,minus,dotcolour,beta,,,14,20,V,R,
222,96,12,5,1,47,33,417,['c'],1,left,['9'],5,243,[0.06491441],58,47,medium,minus,dotcolour,beta,,,14,20,V,R,
223,97,13,5,1,27,53,483,['n'],1,right,['9'],5,196,[-0.07066878],65,53,easy,minus,dotcolour,beta,,,14,20,V,R,
224,98,14,5,1,53,27,333,['n'],0,left,['2'],2,446,[-0.19990985],98,53,easy,minus,dotcolour,beta,,,14,20,V,R,
225,99,15,5,1,44,36,615,['n'],0,left,['2'],2,802,[0.14144973],2,44,hard,minus,dotcolour,beta,,,14,20,V,R,
226,100,16,5,1,44,36,716,['c'],1,left,['9'],5,260,[0.08044585],71,44,hard,minus,dotcolour,beta,,,14,20,V,R,
227,101,17,5,1,27,53,501,['c'],0,right,['9'],5,156,[0.02741745],22,53,easy,minus,dotcolour,beta,,,14,20,V,R,
228,102,18,5,1,36,44,466,['c'],0,right,['9'],5,162,[0.00704799],10,44,hard,minus,dotcolour,beta,,,14,20,V,R,
229,103,19,5,1,44,36,515,['n'],0,left,['9'],5,198,[-0.10453246],88,44,hard,minus,dotcolour,beta,,,14,20,V,R,
230,104,20,5,1,33,47,450,['c'],0,right,['9'],5,187,[0.05078739],45,47,medium,minus,dotcolour,beta,,,14,20,V,R,
231,105,21,5,1,47,33,551,['c'],1,left,['9'],5,132,[0.08967656],84,47,medium,minus,dotcolour,beta,,,14,20,V,R,
232,106,22,5,1,33,47,566,['n'],1,right,['9'],5,191,[-0.01826084],18,47,medium,minus,dotcolour,beta,,,14,20,V,R,
233,107,23,5,1,53,27,450,['c'],1,left,['9'],5,212,[-0.02360246],4,53,easy,minus,dotcolour,beta,,,14,20,V,R,
234,108,24,5,1,33,47,767,['n'],1,right,['9'],5,268,[-0.15250929],97,47,medium,minus,dotcolour,beta,,,14,20,V,R,
235,109,25,5,1,44,36,1402,['c'],1,left,['9'],5,271,[0.08001919],70,44,hard,minus,dotcolour,beta,,,14,20,V,R,
236,110,26,5,1,47,33,734,['c'],1,left,['9'],5,222,[0.00993235],15,47,medium,minus,dotcolour,beta,,,14,20,V,R,
237,111,27,5,1,36,44,884,['c'],0,right,['9'],5,200,[0.12706344],95,44,hard,minus,dotcolour,beta,,,14,20,V,R,
238,112,28,5,1,44,36,886,['c'],1,left,['9'],5,188,[0.02398442],21,44,hard,minus,dotcolour,beta,,,14,20,V,R,
239,113,29,5,1,27,53,534,['c'],0,right,['2'],2,582,[-0.13132579],1,53,easy,minus,dotcolour,beta,,,14,20,V,R,
240,114,30,5,1,27,53,650,['n'],1,right,['9'],5,219,[-0.12629709],94,53,easy,minus,dotcolour,beta,,,14,20,V,R,
241,115,31,5,1,27,53,416,['n'],1,right,['9'],5,233,[-0.10972877],88,53,easy,minus,dotcolour,beta,,,14,20,V,R,
242,116,32,5,1,53,27,649,['n'],0,left,['1'],1,469,[-0.12020321],85,53,easy,minus,dotcolour,beta,,,14,20,V,R,
243,117,33,5,1,33,47,1317,['c'],0,right,['9'],5,339,[0.06673536],59,47,medium,minus,dotcolour,beta,,,14,20,V,R,
244,118,34,5,1,47,33,483,['c'],1,left,['9'],5,224,[0.07917133],71,47,medium,minus,dotcolour,beta,,,14,20,V,R,
245,119,35,5,1,53,27,566,['c'],1,left,['9'],5,407,[0.0761447],64,53,easy,minus,dotcolour,beta,,,14,20,V,R,
246,120,36,5,1,47,33,551,['c'],1,left,['9'],5,207,[0.11206782],90,47,medium,minus,dotcolour,beta,,,14,20,V,R,
247,121,37,5,1,53,27,534,['c'],1,left,['9'],5,192,[0.20812383],100,53,easy,minus,dotcolour,beta,,,14,20,V,R,
248,122,38,5,1,36,44,818,['c'],0,right,['9'],5,231,[0.04333523],39,44,hard,minus,dotcolour,beta,,,14,20,V,R,
249,123,39,5,1,47,33,482,['c'],1,left,['9'],5,209,[0.1423818],97,47,medium,minus,dotcolour,beta,,,14,20,V,R,
250,124,40,5,1,47,33,448,['c'],1,left,['9'],5,261,[0.09242438],79,47,medium,minus,dotcolour,beta,,,14,20,V,R,
251,125,41,5,1,44,36,600,['c'],1,left,['9'],5,218,[0.10483774],87,44,hard,minus,dotcolour,beta,,,14,20,V,R,
252,0,0,6,2,36,44,601,['c'],0,right,['9'],5,195,[0.0272293],97,44,hard,plus,dotcolour,beta,,,14,20,V,R,
253,1,1,6,2,44,36,450,['c'],1,left,['9'],5,320,[0.07078446],98,44,hard,plus,dotcolour,beta,,,14,20,V,R,
254,2,2,6,2,33,47,567,['c'],0,right,['9'],5,260,[0.0733837],99,47,medium,plus,dotcolour,beta,,,14,20,V,R,
255,3,3,6,2,44,36,967,['c'],1,left,['9'],5,234,[0.07498199],99,44,hard,plus,dotcolour,beta,,,14,20,V,R,
256,4,4,6,2,27,53,435,['c'],0,right,['9'],5,253,[0.08601791],99,53,easy,plus,dotcolour,beta,,,14,20,V,R,
257,5,5,6,2,36,44,384,['c'],0,right,['9'],5,219,[0.01062673],93,44,hard,plus,dotcolour,beta,,,14,20,V,R,
258,6,6,6,2,27,53,434,['c'],0,right,['9'],5,265,[0.06132731],98,53,easy,plus,dotcolour,beta,,,14,20,V,R,
259,7,7,6,2,44,36,382,['c'],1,left,['9'],5,222,[0.16611362],100,44,hard,plus,dotcolour,beta,,,14,20,V,R,
260,8,8,6,2,53,27,584,['c'],1,left,['9'],5,220,[0.02152505],95,53,easy,plus,dotcolour,beta,,,14,20,V,R,
261,9,9,6,2,36,44,550,['c'],0,right,['9'],5,243,[0.09102361],100,44,hard,plus,dotcolour,beta,,,14,20,V,R,
262,10,10,6,2,36,44,467,['c'],0,right,['9'],5,230,[0.06850965],99,44,hard,plus,dotcolour,beta,,,14,20,V,R,
263,11,11,6,2,47,33,667,['c'],1,left,['9'],5,289,[0.1137922],100,47,medium,plus,dotcolour,beta,,,14,20,V,R,
264,12,12,6,2,33,47,583,['c'],0,right,['9'],5,173,[0.13080847],100,47,medium,plus,dotcolour,beta,,,14,20,V,R,
265,13,13,6,2,27,53,383,['c'],0,right,['9'],5,510,[0.08020778],97,53,easy,plus,dotcolour,beta,,,14,20,V,R,
266,14,14,6,2,53,27,383,['c'],1,left,['9'],5,136,[0.16589244],100,53,easy,plus,dotcolour,beta,,,14,20,V,R,
267,15,15,6,2,36,44,867,['n'],1,right,['9'],5,223,[-0.09900168],100,44,hard,plus,dotcolour,beta,,,14,20,V,R,
268,16,16,6,2,27,53,383,['n'],1,right,['9'],5,222,[-0.08099109],99,53,easy,plus,dotcolour,beta,,,14,20,V,R,
269,17,17,6,2,53,27,417,['c'],1,left,['9'],5,155,[0.1573826],100,53,easy,plus,dotcolour,beta,,,14,20,V,R,
270,18,18,6,2,44,36,466,['c'],1,left,['9'],5,162,[0.0302531],98,44,hard,plus,dotcolour,beta,,,14,20,V,R,
271,19,19,6,2,33,47,582,['n'],1,right,['9'],5,147,[-0.11859842],100,47,medium,plus,dotcolour,beta,,,14,20,V,R,
272,20,20,6,2,47,33,600,['c'],1,left,['9'],5,140,[0.11653135],100,47,medium,plus,dotcolour,beta,,,14,20,V,R,
273,21,21,6,2,53,27,516,['c'],1,left,['9'],5,128,[0.05223178],100,53,easy,plus,dotcolour,beta,,,14,20,V,R,
274,22,22,6,2,44,36,483,['c'],1,left,['9'],5,207,[0.09857875],100,44,hard,plus,dotcolour,beta,,,14,20,V,R,
275,23,23,6,2,36,44,551,['n'],1,right,['9'],5,175,[-0.03860644],98,44,hard,plus,dotcolour,beta,,,14,20,V,R,
276,24,24,6,2,33,47,667,['n'],1,right,['9'],5,228,[-0.07029822],99,47,medium,plus,dotcolour,beta,,,14,20,V,R,
277,25,25,6,2,27,53,1515,['c'],0,right,['9'],5,300,[0.03830946],96,53,easy,plus,dotcolour,beta,,,14,20,V,R,
278,26,26,6,2,53,27,366,['n'],0,left,['2'],2,441,[-0.015112],87,53,easy,plus,dotcolour,beta,,,14,20,V,R,
279,27,27,6,2,53,27,650,['c'],1,left,['9'],5,252,[0.14512646],100,53,easy,plus,dotcolour,beta,,,14,20,V,R,
280,28,28,6,2,47,33,484,['c'],1,left,['9'],5,157,[0.15114492],100,47,medium,plus,dotcolour,beta,,,14,20,V,R,
281,29,29,6,2,47,33,401,['c'],1,left,['9'],5,157,[0.14185964],100,47,medium,plus,dotcolour,beta,,,14,20,V,R,
282,30,30,6,2,27,53,500,['n'],1,right,['9'],5,170,[-0.0954444],100,53,easy,plus,dotcolour,beta,,,14,20,V,R,
283,31,31,6,2,33,47,433,['n'],1,right,['9'],5,154,[-0.091788],100,47,medium,plus,dotcolour,beta,,,14,20,V,R,
284,32,32,6,2,47,33,482,['c'],1,left,['9'],5,215,[-0.03323708],70,47,medium,plus,dotcolour,beta,,,14,20,V,R,
285,33,33,6,2,33,47,498,['c'],0,right,['2'],2,505,[0.08049057],97,47,medium,plus,dotcolour,beta,,,14,20,V,R,
286,34,34,6,2,47,33,433,['c'],1,left,['9'],5,218,[0.12470116],100,47,medium,plus,dotcolour,beta,,,14,20,V,R,
287,35,35,6,2,44,36,398,['c'],1,left,['9'],5,281,[0.10316082],100,44,hard,plus,dotcolour,beta,,,14,20,V,R,
288,36,36,6,2,44,36,599,['n'],0,left,['9'],5,196,[-0.04758916],99,44,hard,plus,dotcolour,beta,,,14,20,V,R,
289,37,37,6,2,47,33,466,['n'],0,left,['2'],2,425,[-0.04349965],94,47,medium,plus,dotcolour,beta,,,14,20,V,R,
290,38,38,6,2,33,47,918,['n'],1,right,['9'],5,169,[-0.10139375],100,47,medium,plus,dotcolour,beta,,,14,20,V,R,
291,39,39,6,2,53,27,434,['c'],1,left,['9'],5,160,[0.10029269],100,53,easy,plus,dotcolour,beta,,,14,20,V,R,
292,40,40,6,2,27,53,751,['n'],1,right,['9'],5,146,[-0.08941921],100,53,easy,plus,dotcolour,beta,,,14,20,V,R,
293,41,41,6,2,36,44,533,['n'],1,right,['9'],5,206,[0.02963979],74,44,hard,plus,dotcolour,beta,,,14,20,V,R,
294,42,0,7,2,44,36,618,['c'],1,left,['9'],5,116,[0.06739556],100,44,hard,plus,dotcolour,beta,,,14,20,V,R,
295,43,1,7,2,44,36,466,['c'],1,left,['9'],5,124,[0.08982803],100,44,hard,plus,dotcolour,beta,,,14,20,V,R,
296,44,2,7,2,53,27,415,['c'],1,left,['9'],5,133,[0.12808326],100,53,easy,plus,dotcolour,beta,,,14,20,V,R,
297,45,3,7,2,36,44,617,['n'],1,right,['9'],5,198,[-0.03092885],97,44,hard,plus,dotcolour,beta,,,14,20,V,R,
298,46,4,7,2,47,33,467,['c'],1,left,['9'],5,170,[0.15408166],100,47,medium,plus,dotcolour,beta,,,14,20,V,R,
299,47,5,7,2,47,33,466,['c'],1,left,['9'],5,151,[0.11670192],100,47,medium,plus,dotcolour,beta,,,14,20,V,R,
300,48,6,7,2,27,53,516,['n'],1,right,['9'],5,204,[-0.10098834],100,53,easy,plus,dotcolour,beta,,,14,20,V,R,
301,49,7,7,2,53,27,416,['c'],1,left,['9'],5,202,[0.03569076],97,53,easy,plus,dotcolour,beta,,,14,20,V,R,
302,50,8,7,2,33,47,516,['n'],1,right,['9'],5,364,[-0.01695158],90,47,medium,plus,dotcolour,beta,,,14,20,V,R,
303,51,9,7,2,33,47,448,['n'],1,right,['9'],5,451,[-0.03215815],91,47,medium,plus,dotcolour,beta,,,14,20,V,R,
304,52,10,7,2,53,27,601,['c'],1,left,['9'],5,136,[0.1144268],100,53,easy,plus,dotcolour,beta,,,14,20,V,R,
305,53,11,7,2,44,36,733,['c'],1,left,['9'],5,156,[0.03153203],98,44,hard,plus,dotcolour,beta,,,14,20,V,R,
306,54,12,7,2,53,27,700,['c'],1,left,['9'],5,160,[0.13008606],100,53,easy,plus,dotcolour,beta,,,14,20,V,R,
307,55,13,7,2,47,33,700,['c'],1,left,['9'],5,155,[0.12839632],100,47,medium,plus,dotcolour,beta,,,14,20,V,R,
308,56,14,7,2,53,27,634,['c'],1,left,['9'],5,275,[0.14702671],100,53,easy,plus,dotcolour,beta,,,14,20,V,R,
309,57,15,7,2,44,36,466,['c'],1,left,['9'],5,171,[0.05385307],99,44,hard,plus,dotcolour,beta,,,14,20,V,R,
310,58,16,7,2,44,36,417,['n'],0,left,['9'],5,235,[0.00357357],87,44,hard,plus,dotcolour,beta,,,14,20,V,R,
311,59,17,7,2,27,53,516,['n'],1,right,['9'],5,260,[-0.0941762],99,53,easy,plus,dotcolour,beta,,,14,20,V,R,
312,60,18,7,2,36,44,499,['n'],1,right,['9'],5,356,[-0.14118241],100,44,hard,plus,dotcolour,beta,,,14,20,V,R,
313,61,19,7,2,47,33,483,['c'],1,left,['9'],5,169,[0.10970117],100,47,medium,plus,dotcolour,beta,,,14,20,V,R,
314,62,20,7,2,33,47,683,['c'],0,right,['9'],5,270,[-0.02200223],76,47,medium,plus,dotcolour,beta,,,14,20,V,R,
315,63,21,7,2,27,53,650,['n'],1,right,['9'],5,248,[-0.04680028],98,53,easy,plus,dotcolour,beta,,,14,20,V,R,
316,64,22,7,2,33,47,566,['c'],0,right,['9'],5,295,[-0.00530599],84,47,medium,plus,dotcolour,beta,,,14,20,V,R,
317,65,23,7,2,27,53,767,['n'],1,right,['9'],5,226,[-0.1389299],100,53,easy,plus,dotcolour,beta,,,14,20,V,R,
318,66,24,7,2,33,47,597,['c'],0,right,['9'],5,248,[-0.02378795],76,47,medium,plus,dotcolour,beta,,,14,20,V,R,
319,67,25,7,2,47,33,532,['n'],0,left,['9'],5,240,[0.03849804],65,47,medium,plus,dotcolour,beta,,,14,20,V,R,
320,68,26,7,2,33,47,649,['n'],1,right,['9'],5,202,[-0.0452941],98,47,medium,plus,dotcolour,beta,,,14,20,V,R,
321,69,27,7,2,53,27,583,['n'],0,left,['9'],5,522,[0.01846885],72,53,easy,plus,dotcolour,beta,,,14,20,V,R,
322,70,28,7,2,27,53,583,['n'],1,right,['9'],5,331,[-0.06408994],98,53,easy,plus,dotcolour,beta,,,14,20,V,R,
323,71,29,7,2,36,44,617,['n'],1,right,['9'],5,204,[-0.04039029],98,44,hard,plus,dotcolour,beta,,,14,20,V,R,
324,72,30,7,2,36,44,817,['c'],0,right,['9'],5,170,[0.02273473],97,44,hard,plus,dotcolour,beta,,,14,20,V,R,
325,73,31,7,2,47,33,600,['c'],1,left,['9'],5,170,[0.0971968],100,47,medium,plus,dotcolour,beta,,,14,20,V,R,
326,74,32,7,2,36,44,550,['c'],0,right,['9'],5,237,[-0.05742585],48,44,hard,plus,dotcolour,beta,,,14,20,V,R,
327,75,33,7,2,33,47,499,['c'],0,right,['9'],5,254,[-0.03113095],71,47,medium,plus,dotcolour,beta,,,14,20,V,R,
328,76,34,7,2,36,44,665,['c'],0,right,['9'],5,336,[-0.00931738],81,44,hard,plus,dotcolour,beta,,,14,20,V,R,
329,77,35,7,2,27,53,665,['n'],1,right,['9'],5,206,[-0.10958089],100,53,easy,plus,dotcolour,beta,,,14,20,V,R,
330,78,36,7,2,27,53,598,['n'],1,right,['9'],5,197,[-0.13876396],100,53,easy,plus,dotcolour,beta,,,14,20,V,R,
331,79,37,7,2,44,36,833,['c'],1,left,['9'],5,178,[0.11737598],100,44,hard,plus,dotcolour,beta,,,14,20,V,R,
332,80,38,7,2,44,36,600,['c'],1,left,['9'],5,226,[0.08685975],100,44,hard,plus,dotcolour,beta,,,14,20,V,R,
333,81,39,7,2,36,44,633,['c'],0,right,['9'],5,206,[-0.06869064],37,44,hard,plus,dotcolour,beta,,,14,20,V,R,
334,82,40,7,2,53,27,732,['c'],1,left,['0'],6,264,[0.10285877],100,53,easy,plus,dotcolour,beta,,,14,20,V,R,
335,83,41,7,2,47,33,482,['n'],0,left,['9'],5,201,[-0.04908766],99,47,medium,plus,dotcolour,beta,,,14,20,V,R,
336,84,0,8,2,33,47,717,['n'],1,right,['9'],5,149,[-0.09421462],100,47,medium,plus,dotcolour,beta,,,14,20,V,R,
337,85,1,8,2,27,53,450,['n'],1,right,['9'],5,213,[-0.00301428],91,53,easy,plus,dotcolour,beta,,,14,20,V,R,
338,86,2,8,2,36,44,482,['n'],1,right,['9'],5,208,[-0.04749519],98,44,hard,plus,dotcolour,beta,,,14,20,V,R,
339,87,3,8,2,36,44,449,['n'],1,right,['9'],5,204,[-0.05337162],99,44,hard,plus,dotcolour,beta,,,14,20,V,R,
340,88,4,8,2,47,33,548,['c'],1,left,['9'],5,213,[0.11450123],100,47,medium,plus,dotcolour,beta,,,14,20,V,R,
341,89,5,8,2,36,44,599,['n'],1,right,['9'],5,275,[-0.05981574],98,44,hard,plus,dotcolour,beta,,,14,20,V,R,
342,90,6,8,2,47,33,466,['n'],0,left,['1'],1,452,[-0.04346561],93,47,medium,plus,dotcolour,beta,,,14,20,V,R,
343,91,7,8,2,47,33,500,['c'],1,left,['9'],5,172,[0.14968262],100,47,medium,plus,dotcolour,beta,,,14,20,V,R,
344,92,8,8,2,33,47,550,['n'],1,right,['9'],5,158,[-0.06496506],100,47,medium,plus,dotcolour,beta,,,14,20,V,R,
345,93,9,8,2,53,27,584,['c'],1,left,['9'],5,183,[0.15789671],100,53,easy,plus,dotcolour,beta,,,14,20,V,R,
346,94,10,8,2,53,27,499,['c'],1,left,['9'],5,147,[0.07604191],100,53,easy,plus,dotcolour,beta,,,14,20,V,R,
347,95,11,8,2,53,27,499,['c'],1,left,['9'],5,160,[0.07787809],100,53,easy,plus,dotcolour,beta,,,14,20,V,R,
348,96,12,8,2,47,33,449,['c'],1,left,['9'],5,230,[0.06609333],99,47,medium,plus,dotcolour,beta,,,14,20,V,R,
349,97,13,8,2,27,53,484,['n'],1,right,['9'],5,200,[-0.02928633],97,53,easy,plus,dotcolour,beta,,,14,20,V,R,
350,98,14,8,2,44,36,667,['c'],1,left,['9'],5,261,[0.0659498],99,44,hard,plus,dotcolour,beta,,,14,20,V,R,
351,99,15,8,2,47,33,783,['c'],1,left,['9'],5,178,[0.10894344],100,47,medium,plus,dotcolour,beta,,,14,20,V,R,
352,100,16,8,2,33,47,682,['n'],1,right,['9'],5,222,[0.07458812],33,47,medium,plus,dotcolour,beta,,,14,20,V,R,
353,101,17,8,2,53,27,717,['c'],1,left,['9'],5,400,[0.1578383],100,53,easy,plus,dotcolour,beta,,,14,20,V,R,
354,102,18,8,2,53,27,802,['c'],1,left,['9'],5,254,[0.13806886],100,53,easy,plus,dotcolour,beta,,,14,20,V,R,
355,103,19,8,2,44,36,768,['c'],1,left,['9'],5,259,[0.09296899],99,44,hard,plus,dotcolour,beta,,,14,20,V,R,
356,104,20,8,2,47,33,500,['c'],1,left,['9'],5,244,[0.09651202],100,47,medium,plus,dotcolour,beta,,,14,20,V,R,
357,105,21,8,2,33,47,567,['c'],0,right,['9'],5,194,[0.02257118],96,47,medium,plus,dotcolour,beta,,,14,20,V,R,
358,106,22,8,2,36,44,465,['c'],0,right,['9'],5,535,[0.11722186],99,44,hard,plus,dotcolour,beta,,,14,20,V,R,
359,107,23,8,2,36,44,466,['c'],0,right,['9'],5,149,[0.0044351],94,44,hard,plus,dotcolour,beta,,,14,20,V,R,
360,108,24,8,2,53,27,517,['c'],1,left,['9'],5,234,[0.0746494],99,53,easy,plus,dotcolour,beta,,,14,20,V,R,
361,109,25,8,2,44,36,565,['c'],1,left,['9'],5,192,[0.15039127],100,44,hard,plus,dotcolour,beta,,,14,20,V,R,
362,110,26,8,2,44,36,683,['c'],1,left,['9'],5,164,[0.09867636],100,44,hard,plus,dotcolour,beta,,,14,20,V,R,
363,111,27,8,2,44,36,634,['c'],1,left,['9'],5,155,[0.11521843],100,44,hard,plus,dotcolour,beta,,,14,20,V,R,
364,112,28,8,2,53,27,450,['c'],1,left,['9'],5,162,[0.12343687],100,53,easy,plus,dotcolour,beta,,,14,20,V,R,
365,113,29,8,2,27,53,1133,['n'],1,right,['9'],5,196,[-0.1244871],100,53,easy,plus,dotcolour,beta,,,14,20,V,R,
366,114,30,8,2,27,53,316,['n'],1,right,['9'],5,166,[-0.04396024],99,53,easy,plus,dotcolour,beta,,,14,20,V,R,
367,115,31,8,2,27,53,383,['n'],1,right,['9'],5,176,[-0.07306622],100,53,easy,plus,dotcolour,beta,,,14,20,V,R,
368,116,32,8,2,33,47,299,['n'],1,right,['9'],5,212,[-0.02955809],97,47,medium,plus,dotcolour,beta,,,14,20,V,R,
369,117,33,8,2,36,44,565,['n'],1,right,['9'],5,164,[-0.02049764],97,44,hard,plus,dotcolour,beta,,,14,20,V,R,
370,118,34,8,2,33,47,566,['n'],1,right,['9'],5,142,[-0.12973914],100,47,medium,plus,dotcolour,beta,,,14,20,V,R,
371,119,35,8,2,44,36,583,['n'],0,left,['9'],5,111,[-0.06332784],100,44,hard,plus,dotcolour,beta,,,14,20,V,R,
372,120,36,8,2,36,44,798,['c'],0,right,['9'],5,177,[-0.0117165],87,44,hard,plus,dotcolour,beta,,,14,20,V,R,
373,121,37,8,2,27,53,717,['c'],0,right,['9'],5,196,[-0.02100111],80,53,easy,plus,dotcolour,beta,,,14,20,V,R,
374,122,38,8,2,47,33,366,['c'],1,left,['2'],2,508,[0.10009631],98,47,medium,plus,dotcolour,beta,,,14,20,V,R,
375,123,39,8,2,44,36,1000,['c'],1,left,['9'],5,270,[0.12646345],100,44,hard,plus,dotcolour,beta,,,14,20,V,R,
376,124,40,8,2,33,47,583,['n'],1,right,['9'],5,147,[-0.0691938],100,47,medium,plus,dotcolour,beta,,,14,20,V,R,
377,125,41,8,2,27,53,367,['n'],1,right,['9'],5,158,[-0.05988691],99,53,easy,plus,dotcolour,beta,,,14,20,V,R,
378,0,0,9,3,47,33,701,['c'],1,left,['9'],5,142,[0.02235987],17,47,medium,minus,dotcolour,beta,,,14,20,V,R,
379,1,1,9,3,44,36,599,['c'],1,left,['9'],5,151,[-0.00123646],7,44,hard,minus,dotcolour,beta,,,14,20,V,R,
380,2,2,9,3,53,27,567,['c'],1,left,['9'],5,153,[0.11192196],93,53,easy,minus,dotcolour,beta,,,14,20,V,R,
381,3,3,9,3,53,27,399,['c'],1,left,['9'],5,194,[0.15412827],98,53,easy,minus,dotcolour,beta,,,14,20,V,R,
382,4,4,9,3,27,53,617,['n'],1,right,['9'],5,200,[-0.06572177],60,53,easy,minus,dotcolour,beta,,,14,20,V,R,
383,5,5,9,3,44,36,600,['c'],1,left,['9'],5,167,[0.06990734],65,44,hard,minus,dotcolour,beta,,,14,20,V,R,
384,6,6,9,3,44,36,550,['c'],1,left,['9'],5,233,[0.12326101],93,44,hard,minus,dotcolour,beta,,,14,20,V,R,
385,7,7,9,3,36,44,515,['c'],0,right,['8'],4,266,[0.04304155],39,44,hard,minus,dotcolour,beta,,,14,20,V,R,
386,8,8,9,3,36,44,800,['c'],0,right,['8'],4,198,[0.04731134],42,44,hard,minus,dotcolour,beta,,,14,20,V,R,
387,9,9,9,3,33,47,482,['c'],0,right,['2'],2,402,[0.14526733],93,47,medium,minus,dotcolour,beta,,,14,20,V,R,
388,10,10,9,3,36,44,933,['n'],1,right,['8'],4,1074,[-0.26763483],98,44,hard,minus,dotcolour,beta,,,14,20,V,R,
389,11,11,9,3,53,27,518,['c'],1,left,['9'],5,185,[0.0425238],37,53,easy,minus,dotcolour,beta,,,14,20,V,R,
390,12,12,9,3,53,27,433,['c'],1,left,['9'],5,183,[0.04274124],37,53,easy,minus,dotcolour,beta,,,14,20,V,R,
391,13,13,9,3,33,47,483,['c'],0,right,['8'],4,931,[0.05320031],49,47,medium,minus,dotcolour,beta,,,14,20,V,R,
392,14,14,9,3,36,44,600,['c'],0,right,['8'],4,173,[0.06689913],62,44,hard,minus,dotcolour,beta,,,14,20,V,R,
393,15,15,9,3,44,36,533,['c'],1,left,['8'],4,231,[0.14646569],97,44,hard,minus,dotcolour,beta,,,14,20,V,R,
394,16,16,9,3,44,36,367,['c'],1,left,['9'],5,246,[0.11682782],90,44,hard,minus,dotcolour,beta,,,14,20,V,R,
395,17,17,9,3,27,53,717,['n'],1,right,['9'],5,166,[-0.12666079],96,53,easy,minus,dotcolour,beta,,,14,20,V,R,
396,18,18,9,3,27,53,467,['n'],1,right,['9'],5,148,[-0.10637379],92,53,easy,minus,dotcolour,beta,,,14,20,V,R,
397,19,19,9,3,53,27,600,['n'],0,left,['9'],5,181,[-0.04265553],37,53,easy,minus,dotcolour,beta,,,14,20,V,R,
398,20,20,9,3,36,44,1282,['n'],1,right,['9'],5,225,[0.00344715],10,44,hard,minus,dotcolour,beta,,,14,20,V,R,
399,21,21,9,3,27,53,466,['n'],1,right,['9'],5,236,[-0.08456121],75,53,easy,minus,dotcolour,beta,,,14,20,V,R,
400,22,22,9,3,47,33,382,['n'],0,left,['9'],5,177,[-0.05433671],49,47,medium,minus,dotcolour,beta,,,14,20,V,R,
401,23,23,9,3,27,53,448,['n'],1,right,['9'],5,192,[-0.14178088],97,53,easy,minus,dotcolour,beta,,,14,20,V,R,
402,24,24,9,3,47,33,566,['c'],1,left,['9'],5,184,[0.06449413],59,47,medium,minus,dotcolour,beta,,,14,20,V,R,
403,25,25,9,3,33,47,499,['c'],0,right,['9'],5,180,[0.09369037],83,47,medium,minus,dotcolour,beta,,,14,20,V,R,
404,26,26,9,3,33,47,482,['c'],0,right,['9'],5,160,[0.08689113],80,47,medium,minus,dotcolour,beta,,,14,20,V,R,
405,27,27,9,3,33,47,549,['n'],1,right,['9'],5,130,[-0.09725445],89,47,medium,minus,dotcolour,beta,,,14,20,V,R,
406,28,28,9,3,27,53,433,['n'],1,right,['9'],5,203,[-0.07163255],66,53,easy,minus,dotcolour,beta,,,14,20,V,R,
407,29,29,9,3,27,53,349,['n'],1,right,['9'],5,172,[-0.03560453],30,53,easy,minus,dotcolour,beta,,,14,20,V,R,
408,30,30,9,3,33,47,450,['n'],1,right,['3'],3,842,[-0.13235903],82,47,medium,minus,dotcolour,beta,,,14,20,V,R,
409,31,31,9,3,36,44,549,['c'],0,right,['8'],4,288,[0.04192161],39,44,hard,minus,dotcolour,beta,,,14,20,V,R,
410,32,32,9,3,44,36,666,['c'],1,left,['8'],4,120,[0.12972102],98,44,hard,minus,dotcolour,beta,,,14,20,V,R,
411,33,33,9,3,47,33,698,['c'],1,left,['9'],5,255,[0.22446091],100,47,medium,minus,dotcolour,beta,,,14,20,V,R,
412,34,34,9,3,47,33,1017,['c'],1,left,['9'],5,114,[0.05855503],54,47,medium,minus,dotcolour,beta,,,14,20,V,R,
413,35,35,9,3,33,47,549,['n'],1,right,['9'],5,134,[-0.05809448],53,47,medium,minus,dotcolour,beta,,,14,20,V,R,
414,36,36,9,3,53,27,450,['c'],1,left,['9'],5,158,[0.14068957],98,53,easy,minus,dotcolour,beta,,,14,20,V,R,
415,37,37,9,3,47,33,550,['c'],1,left,['9'],5,217,[0.11304559],90,47,medium,minus,dotcolour,beta,,,14,20,V,R,
416,38,38,9,3,36,44,667,['c'],0,right,['9'],5,228,[0.03308993],30,44,hard,minus,dotcolour,beta,,,14,20,V,R,
417,39,39,9,3,44,36,581,['c'],1,left,['9'],5,235,[0.1201155],92,44,hard,minus,dotcolour,beta,,,14,20,V,R,
418,40,40,9,3,47,33,582,['c'],1,left,['9'],5,161,[0.14385572],98,47,medium,minus,dotcolour,beta,,,14,20,V,R,
419,41,41,9,3,53,27,734,['c'],1,left,['0'],6,220,[0.10819466],88,53,easy,minus,dotcolour,beta,,,14,20,V,R,
420,42,0,10,3,36,44,534,['n'],1,right,['9'],5,138,[-0.08618016],82,44,hard,minus,dotcolour,beta,,,14,20,V,R,
421,43,1,10,3,44,36,349,['n'],0,left,['9'],5,183,[0.05534516],1,44,hard,minus,dotcolour,beta,,,14,20,V,R,
422,44,2,10,3,47,33,499,['c'],1,left,['9'],5,130,[0.1181915],96,47,medium,minus,dotcolour,beta,,,14,20,V,R,
423,45,3,10,3,47,33,366,['c'],1,left,['9'],5,189,[0.07270452],67,47,medium,minus,dotcolour,beta,,,14,20,V,R,
424,46,4,10,3,33,47,818,['c'],0,right,['9'],5,155,[0.099059],88,47,medium,minus,dotcolour,beta,,,14,20,V,R,
425,47,5,10,3,44,36,585,['c'],1,left,['9'],5,204,[0.08346688],75,44,hard,minus,dotcolour,beta,,,14,20,V,R,
426,48,6,10,3,33,47,416,['c'],0,right,['8'],4,275,[-0.00545342],11,47,medium,minus,dotcolour,beta,,,14,20,V,R,
427,49,7,10,3,53,27,565,['n'],0,left,['2'],2,600,[-0.07273444],60,53,easy,minus,dotcolour,beta,,,14,20,V,R,
428,50,8,10,3,27,53,549,['n'],1,right,['9'],5,201,[-0.23000663],100,53,easy,minus,dotcolour,beta,,,14,20,V,R,
429,51,9,10,3,27,53,500,['n'],1,right,['9'],5,251,[-0.09854738],82,53,easy,minus,dotcolour,beta,,,14,20,V,R,
430,52,10,10,3,36,44,534,['c'],0,right,['9'],5,210,[-0.06504751],1,44,hard,minus,dotcolour,beta,,,14,20,V,R,
431,53,11,10,3,44,36,465,['c'],1,left,['8'],4,246,[0.08809666],77,44,hard,minus,dotcolour,beta,,,14,20,V,R,
432,54,12,10,3,44,36,516,['c'],1,left,['8'],4,143,[0.0747342],71,44,hard,minus,dotcolour,beta,,,14,20,V,R,
433,55,13,10,3,33,47,1001,['n'],1,right,['9'],5,159,[0.03093249],2,47,medium,minus,dotcolour,beta,,,14,20,V,R,
434,56,14,10,3,33,47,598,['n'],1,right,['9'],5,208,[-0.14914253],98,47,medium,minus,dotcolour,beta,,,14,20,V,R,
435,57,15,10,3,27,53,449,['n'],1,right,['9'],5,220,[-0.00133534],11,53,easy,minus,dotcolour,beta,,,14,20,V,R,
436,58,16,10,3,47,33,566,['c'],1,left,['9'],5,219,[0.11317262],90,47,medium,minus,dotcolour,beta,,,14,20,V,R,
437,59,17,10,3,53,27,549,['c'],1,left,['9'],5,220,[0.16407665],98,53,easy,minus,dotcolour,beta,,,14,20,V,R,
438,60,18,10,3,27,53,900,['n'],1,right,['9'],5,238,[-0.06294878],57,53,easy,minus,dotcolour,beta,,,14,20,V,R,
439,61,19,10,3,44,36,449,['c'],1,left,['9'],5,401,[0.04472638],42,44,hard,minus,dotcolour,beta,,,14,20,V,R,
440,62,20,10,3,53,27,651,['c'],1,left,['9'],5,197,[0.05504961],49,53,easy,minus,dotcolour,beta,,,14,20,V,R,
441,63,21,10,3,53,27,333,['c'],1,left,['9'],5,223,[0.09228205],80,53,easy,minus,dotcolour,beta,,,14,20,V,R,
442,64,22,10,3,47,33,618,['n'],0,left,['9'],5,157,[-0.05490282],49,47,medium,minus,dotcolour,beta,,,14,20,V,R,
443,65,23,10,3,33,47,584,['c'],0,right,['9'],5,214,[0.0499546],45,47,medium,minus,dotcolour,beta,,,14,20,V,R,
444,66,24,10,3,44,36,551,['c'],1,left,['9'],5,222,[-0.0035348],9,44,hard,minus,dotcolour,beta,,,14,20,V,R,
445,67,25,10,3,27,53,432,['c'],0,right,['2'],2,467,[0.11220609],82,53,easy,minus,dotcolour,beta,,,14,20,V,R,
446,68,26,10,3,53,27,984,['c'],1,left,['9'],5,527,[0.18455635],96,53,easy,minus,dotcolour,beta,,,14,20,V,R,
447,69,27,10,3,36,44,850,['c'],0,right,['9'],5,222,[0.06787433],62,44,hard,minus,dotcolour,beta,,,14,20,V,R,
448,70,28,10,3,36,44,633,['c'],0,right,['9'],5,178,[-0.01348384],5,44,hard,minus,dotcolour,beta,,,14,20,V,R,
449,71,29,10,3,36,44,583,['c'],0,right,['9'],5,186,[0.05424814],49,44,hard,minus,dotcolour,beta,,,14,20,V,R,
450,72,30,10,3,27,53,417,['c'],0,right,['2'],2,353,[-0.06667673],2,53,easy,minus,dotcolour,beta,,,14,20,V,R,
451,73,31,10,3,33,47,535,['n'],1,right,['9'],5,164,[-0.17132106],99,47,medium,minus,dotcolour,beta,,,14,20,V,R,
452,74,32,10,3,44,36,484,['c'],1,left,['9'],5,121,[0.06853559],66,44,hard,minus,dotcolour,beta,,,14,20,V,R,
453,75,33,10,3,36,44,467,['c'],0,right,['9'],5,114,[0.13206503],98,44,hard,minus,dotcolour,beta,,,14,20,V,R,
454,76,34,10,3,47,33,551,['c'],1,left,['9'],5,150,[0.18723402],100,47,medium,minus,dotcolour,beta,,,14,20,V,R,
455,77,35,10,3,33,47,566,['n'],1,right,['9'],5,136,[-0.04044783],32,47,medium,minus,dotcolour,beta,,,14,20,V,R,
456,78,36,10,3,47,33,651,['c'],1,left,['9'],5,199,[0.12435572],94,47,medium,minus,dotcolour,beta,,,14,20,V,R,
457,79,37,10,3,36,44,349,['c'],0,right,['9'],5,216,[0.08219411],74,44,hard,minus,dotcolour,beta,,,14,20,V,R,
458,80,38,10,3,53,27,416,['c'],1,left,['9'],5,158,[0.14539483],98,53,easy,minus,dotcolour,beta,,,14,20,V,R,
459,81,39,10,3,53,27,400,['c'],1,left,['9'],5,135,[0.10322226],91,53,easy,minus,dotcolour,beta,,,14,20,V,R,
460,82,40,10,3,27,53,615,['n'],1,right,['9'],5,256,[-0.12444483],92,53,easy,minus,dotcolour,beta,,,14,20,V,R,
461,83,41,10,3,47,33,414,['c'],1,left,['9'],5,203,[0.07691053],70,47,medium,minus,dotcolour,beta,,,14,20,V,R,
462,84,0,11,3,33,47,551,['c'],0,right,['9'],5,186,[0.08346916],76,47,medium,minus,dotcolour,beta,,,14,20,V,R,
463,85,1,11,3,44,36,1952,['c'],1,left,['9'],5,291,[0.14074437],94,44,hard,minus,dotcolour,beta,,,14,20,V,R,
464,86,2,11,3,53,27,499,['c'],1,left,['9'],5,137,[0.03871692],31,53,easy,minus,dotcolour,beta,,,14,20,V,R,
465,87,3,11,3,36,44,450,['n'],1,right,['9'],5,200,[0.00967208],7,44,hard,minus,dotcolour,beta,,,14,20,V,R,
466,88,4,11,3,47,33,516,['c'],1,left,['9'],5,171,[0.14178647],98,47,medium,minus,dotcolour,beta,,,14,20,V,R,
467,89,5,11,3,27,53,667,['n'],1,right,['9'],5,176,[-0.09439654],84,53,easy,minus,dotcolour,beta,,,14,20,V,R,
468,90,6,11,3,33,47,568,['c'],0,right,['9'],5,138,[0.00560257],8,47,medium,minus,dotcolour,beta,,,14,20,V,R,
469,91,7,11,3,36,44,465,['c'],0,right,['9'],5,176,[0.04615084],40,44,hard,minus,dotcolour,beta,,,14,20,V,R,
470,92,8,11,3,47,33,513,['c'],1,left,['9'],5,179,[0.15260525],98,47,medium,minus,dotcolour,beta,,,14,20,V,R,
471,93,9,11,3,47,33,515,['c'],1,left,['9'],5,206,[0.11827458],92,47,medium,minus,dotcolour,beta,,,14,20,V,R,
472,94,10,11,3,44,36,767,['n'],0,left,['9'],5,173,[-0.09810036],86,44,hard,minus,dotcolour,beta,,,14,20,V,R,
473,95,11,11,3,47,33,718,['c'],1,left,['9'],5,208,[0.1296363],95,47,medium,minus,dotcolour,beta,,,14,20,V,R,
474,96,12,11,3,27,53,582,['c'],0,right,['9'],5,184,[0.02896084],25,53,easy,minus,dotcolour,beta,,,14,20,V,R,
475,97,13,11,3,53,27,902,['c'],1,left,['9'],5,171,[0.07656422],71,53,easy,minus,dotcolour,beta,,,14,20,V,R,
476,98,14,11,3,44,36,600,['c'],1,left,['9'],5,195,[0.03492764],30,44,hard,minus,dotcolour,beta,,,14,20,V,R,
477,99,15,11,3,44,36,734,['c'],1,left,['9'],5,213,[0.2243329],100,44,hard,minus,dotcolour,beta,,,14,20,V,R,
478,100,16,11,3,33,47,749,['c'],0,right,['9'],5,205,[0.02181644],21,47,medium,minus,dotcolour,beta,,,14,20,V,R,
479,101,17,11,3,27,53,1083,['c'],0,right,['9'],5,184,[0.03806919],32,53,easy,minus,dotcolour,beta,,,14,20,V,R,
480,102,18,11,3,33,47,567,['c'],0,right,['9'],5,313,[0.03755359],36,47,medium,minus,dotcolour,beta,,,14,20,V,R,
481,103,19,11,3,33,47,484,['c'],0,right,['9'],5,223,[0.10304378],86,47,medium,minus,dotcolour,beta,,,14,20,V,R,
482,104,20,11,3,44,36,665,['c'],1,left,['9'],5,115,[0.08836032],85,44,hard,minus,dotcolour,beta,,,14,20,V,R,
483,105,21,11,3,47,33,484,['c'],1,left,['9'],5,178,[0.11557451],93,47,medium,minus,dotcolour,beta,,,14,20,V,R,
484,106,22,11,3,33,47,866,['n'],1,right,['9'],5,223,[-0.1818417],99,47,medium,minus,dotcolour,beta,,,14,20,V,R,
485,107,23,11,3,27,53,900,['n'],1,right,['9'],5,264,[-0.0907772],77,53,easy,minus,dotcolour,beta,,,14,20,V,R,
486,108,24,11,3,36,44,681,['n'],1,right,['9'],5,193,[-0.12034822],93,44,hard,minus,dotcolour,beta,,,14,20,V,R,
487,109,25,11,3,53,27,650,['n'],0,left,['9'],5,182,[-0.08129675],75,53,easy,minus,dotcolour,beta,,,14,20,V,R,
488,110,26,11,3,53,27,449,['c'],1,left,['9'],5,196,[0.10783678],89,53,easy,minus,dotcolour,beta,,,14,20,V,R,
489,111,27,11,3,53,27,349,['c'],1,left,['9'],5,173,[0.08776041],80,53,easy,minus,dotcolour,beta,,,14,20,V,R,
490,112,28,11,3,27,53,667,['c'],0,right,['9'],5,515,[0.0577591],51,53,easy,minus,dotcolour,beta,,,14,20,V,R,
491,113,29,11,3,44,36,399,['c'],1,left,['9'],5,189,[0.04821455],42,44,hard,minus,dotcolour,beta,,,14,20,V,R,
492,114,30,11,3,36,44,735,['c'],0,right,['9'],5,166,[-0.01453869],4,44,hard,minus,dotcolour,beta,,,14,20,V,R,
493,115,31,11,3,27,53,1615,['c'],0,right,['9'],5,133,[0.04864821],42,53,easy,minus,dotcolour,beta,,,14,20,V,R,
494,116,32,11,3,36,44,717,['n'],1,right,['9'],5,138,[-0.0682596],65,44,hard,minus,dotcolour,beta,,,14,20,V,R,
495,117,33,11,3,53,27,500,['c'],1,left,['9'],5,135,[0.03841404],30,53,easy,minus,dotcolour,beta,,,14,20,V,R,
496,118,34,11,3,44,36,549,['c'],1,left,['9'],5,123,[0.06878341],66,44,hard,minus,dotcolour,beta,,,14,20,V,R,
497,119,35,11,3,33,47,749,['c'],0,right,['9'],5,135,[0.04869271],42,47,medium,minus,dotcolour,beta,,,14,20,V,R,
498,120,36,11,3,47,33,633,['c'],1,left,['9'],5,119,[0.11442038],96,47,medium,minus,dotcolour,beta,,,14,20,V,R,
499,121,37,11,3,47,33,384,['c'],1,left,['9'],5,130,[0.10136389],91,47,medium,minus,dotcolour,beta,,,14,20,V,R,
500,122,38,11,3,27,53,383,['c'],0,right,['2'],2,517,[0.06444422],56,53,easy,minus,dotcolour,beta,,,14,20,V,R,
501,123,39,11,3,53,27,784,['c'],1,left,['9'],5,518,[0.20374954],98,53,easy,minus,dotcolour,beta,,,14,20,V,R,
502,124,40,11,3,36,44,484,['c'],0,right,['9'],5,205,[0.02767439],25,44,hard,minus,dotcolour,beta,,,14,20,V,R,
503,125,41,11,3,36,44,701,['c'],0,right,['9'],5,151,[0.04055579],33,44,hard,minus,dotcolour,beta,,,14,20,V,R,
504,0,0,12,4,44,36,884,['c'],1,left,['9'],5,232,[0.06167321],99,44,hard,plus,dotcolour,beta,,,14,20,V,R,
505,1,1,12,4,27,53,534,['n'],1,right,['9'],5,145,[-0.06767766],100,53,easy,plus,dotcolour,beta,,,14,20,V,R,
506,2,2,12,4,47,33,434,['c'],1,left,['9'],5,217,[0.12994205],100,47,medium,plus,dotcolour,beta,,,14,20,V,R,
507,3,3,12,4,33,47,466,['c'],0,right,['9'],5,204,[-0.08306462],25,47,medium,plus,dotcolour,beta,,,14,20,V,R,
508,4,4,12,4,47,33,649,['c'],1,left,['9'],5,145,[0.09872077],100,47,medium,plus,dotcolour,beta,,,14,20,V,R,
509,5,5,12,4,44,36,532,['c'],1,left,['9'],5,173,[0.08288887],100,44,hard,plus,dotcolour,beta,,,14,20,V,R,
510,6,6,12,4,53,27,467,['c'],1,left,['9'],5,147,[0.08395583],100,53,easy,plus,dotcolour,beta,,,14,20,V,R,
511,7,7,12,4,36,44,633,['n'],1,right,['9'],5,170,[-0.05560581],99,44,hard,plus,dotcolour,beta,,,14,20,V,R,
512,8,8,12,4,44,36,549,['n'],0,left,['9'],5,261,[-0.03232768],96,44,hard,plus,dotcolour,beta,,,14,20,V,R,
513,9,9,12,4,47,33,498,['c'],1,left,['9'],5,181,[0.09486611],100,47,medium,plus,dotcolour,beta,,,14,20,V,R,
514,10,10,12,4,53,27,500,['c'],1,left,['9'],5,193,[0.1460464],100,53,easy,plus,dotcolour,beta,,,14,20,V,R,
515,11,11,12,4,27,53,483,['c'],0,right,['9'],5,253,[0.01221541],92,53,easy,plus,dotcolour,beta,,,14,20,V,R,
516,12,12,12,4,33,47,616,['c'],0,right,['9'],5,345,[0.01981848],91,47,medium,plus,dotcolour,beta,,,14,20,V,R,
517,13,13,12,4,27,53,1133,['c'],0,right,['9'],5,244,[0.01382885],93,53,easy,plus,dotcolour,beta,,,14,20,V,R,
518,14,14,12,4,53,27,533,['c'],1,left,['9'],5,212,[0.12796026],100,53,easy,plus,dotcolour,beta,,,14,20,V,R,
519,15,15,12,4,44,36,417,['c'],1,left,['9'],5,217,[0.09241521],100,44,hard,plus,dotcolour,beta,,,14,20,V,R,
520,16,16,12,4,53,27,616,['c'],1,left,['9'],5,231,[0.15343071],100,53,easy,plus,dotcolour,beta,,,14,20,V,R,
521,17,17,12,4,36,44,882,['n'],1,right,['9'],5,201,[-0.05812913],99,44,hard,plus,dotcolour,beta,,,14,20,V,R,
522,18,18,12,4,27,53,516,['c'],0,right,['9'],5,227,[0.0561556],99,53,easy,plus,dotcolour,beta,,,14,20,V,R,
523,19,19,12,4,36,44,500,['c'],0,right,['9'],5,189,[0.05230098],99,44,hard,plus,dotcolour,beta,,,14,20,V,R,
524,20,20,12,4,47,33,700,['c'],1,left,['9'],5,153,[0.11757373],100,47,medium,plus,dotcolour,beta,,,14,20,V,R,
525,21,21,12,4,47,33,715,['c'],1,left,['9'],5,173,[0.20736145],100,47,medium,plus,dotcolour,beta,,,14,20,V,R,
526,22,22,12,4,47,33,651,['c'],1,left,['9'],5,186,[0.08083008],100,47,medium,plus,dotcolour,beta,,,14,20,V,R,
527,23,23,12,4,27,53,749,['n'],1,right,['9'],5,156,[-0.09495608],100,53,easy,plus,dotcolour,beta,,,14,20,V,R,
528,24,24,12,4,53,27,533,['c'],1,left,['9'],5,127,[0.06564856],100,53,easy,plus,dotcolour,beta,,,14,20,V,R,
529,25,25,12,4,36,44,500,['c'],0,right,['9'],5,189,[0.09654014],100,44,hard,plus,dotcolour,beta,,,14,20,V,R,
530,26,26,12,4,36,44,466,['c'],0,right,['9'],5,330,[0.12741693],100,44,hard,plus,dotcolour,beta,,,14,20,V,R,
531,27,27,12,4,44,36,717,['c'],1,left,['9'],5,166,[0.06303527],99,44,hard,plus,dotcolour,beta,,,14,20,V,R,
532,28,28,12,4,27,53,1234,['c'],0,right,['9'],5,165,[0.00824555],94,53,easy,plus,dotcolour,beta,,,14,20,V,R,
533,29,29,12,4,36,44,501,['c'],0,right,['9'],5,193,[0.10800563],100,44,hard,plus,dotcolour,beta,,,14,20,V,R,
534,30,30,12,4,33,47,618,['c'],0,right,['9'],5,168,[0.04606538],99,47,medium,plus,dotcolour,beta,,,14,20,V,R,
535,31,31,12,4,47,33,550,['c'],1,left,['9'],5,146,[0.09906478],100,47,medium,plus,dotcolour,beta,,,14,20,V,R,
536,32,32,12,4,53,27,549,['c'],1,left,['9'],5,181,[0.19512151],100,53,easy,plus,dotcolour,beta,,,14,20,V,R,
537,33,33,12,4,33,47,683,['c'],0,right,['9'],5,153,[0.04285235],99,47,medium,plus,dotcolour,beta,,,14,20,V,R,
538,34,34,12,4,33,47,799,['c'],0,right,['9'],5,146,[0.10639408],100,47,medium,plus,dotcolour,beta,,,14,20,V,R,
539,35,35,12,4,53,27,667,['c'],1,left,['9'],5,153,[0.06010206],100,53,easy,plus,dotcolour,beta,,,14,20,V,R,
540,36,36,12,4,36,44,732,['c'],0,right,['9'],5,315,[0.06489836],98,44,hard,plus,dotcolour,beta,,,14,20,V,R,
541,37,37,12,4,44,36,766,['c'],1,left,['9'],5,358,[0.10359394],99,44,hard,plus,dotcolour,beta,,,14,20,V,R,
542,38,38,12,4,27,53,951,['c'],0,right,['9'],5,217,[0.1009375],100,53,easy,plus,dotcolour,beta,,,14,20,V,R,
543,39,39,12,4,33,47,717,['c'],0,right,['9'],5,346,[0.01902901],91,47,medium,plus,dotcolour,beta,,,14,20,V,R,
544,40,40,12,4,33,47,683,['c'],0,right,['9'],5,175,[0.09883856],100,47,medium,plus,dotcolour,beta,,,14,20,V,R,
545,41,41,12,4,44,36,450,['c'],1,left,['9'],5,173,[0.07633418],100,44,hard,plus,dotcolour,beta,,,14,20,V,R,
546,42,0,13,4,27,53,717,['n'],1,right,['9'],5,161,[-0.13141635],100,53,easy,plus,dotcolour,beta,,,14,20,V,R,
547,43,1,13,4,36,44,383,['n'],1,right,['9'],5,178,[-0.0809168],100,44,hard,plus,dotcolour,beta,,,14,20,V,R,
548,44,2,13,4,33,47,367,['n'],1,right,['9'],5,147,[-0.08326985],100,47,medium,plus,dotcolour,beta,,,14,20,V,R,
549,45,3,13,4,44,36,401,['n'],0,left,['9'],5,220,[0.02288495],78,44,hard,plus,dotcolour,beta,,,14,20,V,R,
550,46,4,13,4,47,33,366,['c'],1,left,['9'],5,149,[0.17919739],100,47,medium,plus,dotcolour,beta,,,14,20,V,R,
551,47,5,13,4,36,44,349,['c'],0,right,['9'],5,176,[0.03141609],98,44,hard,plus,dotcolour,beta,,,14,20,V,R,
552,48,6,13,4,47,33,432,['c'],1,left,['9'],5,158,[0.07615212],100,47,medium,plus,dotcolour,beta,,,14,20,V,R,
553,49,7,13,4,44,36,399,['c'],1,left,['9'],5,127,[0.11009094],100,44,hard,plus,dotcolour,beta,,,14,20,V,R,
554,50,8,13,4,33,47,399,['c'],0,right,['2'],2,377,[0.05284071],96,47,medium,plus,dotcolour,beta,,,14,20,V,R,
555,51,9,13,4,27,53,399,['c'],0,right,['9'],5,208,[0.11664216],100,53,easy,plus,dotcolour,beta,,,14,20,V,R,
556,52,10,13,4,27,53,466,['c'],0,right,['9'],5,164,[0.03535438],98,53,easy,plus,dotcolour,beta,,,14,20,V,R,
557,53,11,13,4,36,44,699,['n'],1,right,['9'],5,120,[-0.05160914],100,44,hard,plus,dotcolour,beta,,,14,20,V,R,
558,54,12,13,4,33,47,650,['n'],1,right,['9'],5,128,[-0.08719226],100,47,medium,plus,dotcolour,beta,,,14,20,V,R,
559,55,13,13,4,53,27,933,['c'],1,left,['9'],5,180,[0.13275917],100,53,easy,plus,dotcolour,beta,,,14,20,V,R,
560,56,14,13,4,44,36,533,['c'],1,left,['9'],5,182,[0.04387303],99,44,hard,plus,dotcolour,beta,,,14,20,V,R,
561,57,15,13,4,53,27,450,['c'],1,left,['9'],5,188,[0.06635766],99,53,easy,plus,dotcolour,beta,,,14,20,V,R,
562,58,16,13,4,53,27,716,['c'],1,left,['9'],5,175,[0.04517163],99,53,easy,plus,dotcolour,beta,,,14,20,V,R,
563,59,17,13,4,47,33,301,['c'],1,left,['9'],5,179,[0.09863318],100,47,medium,plus,dotcolour,beta,,,14,20,V,R,
564,60,18,13,4,33,47,385,['c'],0,right,['9'],5,236,[0.05810104],99,47,medium,plus,dotcolour,beta,,,14,20,V,R,
565,61,19,13,4,53,27,317,['c'],1,left,['9'],5,229,[0.23056552],100,53,easy,plus,dotcolour,beta,,,14,20,V,R,
566,62,20,13,4,36,44,552,['n'],1,right,['9'],5,181,[-0.05523494],99,44,hard,plus,dotcolour,beta,,,14,20,V,R,
567,63,21,13,4,47,33,601,['n'],0,left,['9'],5,148,[-0.10409599],100,47,medium,plus,dotcolour,beta,,,14,20,V,R,
568,64,22,13,4,47,33,384,['c'],1,left,['9'],5,142,[0.07885727],100,47,medium,plus,dotcolour,beta,,,14,20,V,R,
569,65,23,13,4,33,47,517,['c'],0,right,['2'],2,411,[-0.00764138],79,47,medium,plus,dotcolour,beta,,,14,20,V,R,
570,66,24,13,4,53,27,551,['c'],1,left,['9'],5,171,[0.10868619],100,53,easy,plus,dotcolour,beta,,,14,20,V,R,
571,67,25,13,4,36,44,351,['c'],0,right,['9'],5,181,[0.12445198],100,44,hard,plus,dotcolour,beta,,,14,20,V,R,
572,68,26,13,4,33,47,451,['n'],1,right,['9'],5,219,[-0.05020707],98,47,medium,plus,dotcolour,beta,,,14,20,V,R,
573,69,27,13,4,44,36,751,['c'],1,left,['9'],5,147,[0.01495095],96,44,hard,plus,dotcolour,beta,,,14,20,V,R,
574,70,28,13,4,27,53,484,['n'],1,right,['9'],5,160,[-0.10518292],100,53,easy,plus,dotcolour,beta,,,14,20,V,R,
575,71,29,13,4,36,44,417,['n'],1,right,['9'],5,232,[-0.00423289],90,44,hard,plus,dotcolour,beta,,,14,20,V,R,
576,72,30,13,4,47,33,452,['n'],0,left,['9'],5,212,[-0.09041816],100,47,medium,plus,dotcolour,beta,,,14,20,V,R,
577,73,31,13,4,44,36,468,['n'],0,left,['9'],5,248,[-0.09346524],100,44,hard,plus,dotcolour,beta,,,14,20,V,R,
578,74,32,13,4,27,53,551,['n'],1,right,['9'],5,207,[-0.05014065],98,53,easy,plus,dotcolour,beta,,,14,20,V,R,
579,75,33,13,4,44,36,401,['n'],0,left,['9'],5,189,[-0.01885441],96,44,hard,plus,dotcolour,beta,,,14,20,V,R,
580,76,34,13,4,36,44,351,['n'],1,right,['9'],5,438,[0.02469746],70,44,hard,plus,dotcolour,beta,,,14,20,V,R,
581,77,35,13,4,53,27,334,['n'],0,left,['9'],5,319,[-0.04532403],96,53,easy,plus,dotcolour,beta,,,14,20,V,R,
582,78,36,13,4,33,47,368,['n'],1,right,['9'],5,162,[-0.13014986],100,47,medium,plus,dotcolour,beta,,,14,20,V,R,
583,79,37,13,4,27,53,468,['c'],0,right,['9'],5,240,[-0.00198317],88,53,easy,plus,dotcolour,beta,,,14,20,V,R,
584,80,38,13,4,27,53,317,['n'],1,right,['9'],5,168,[-0.15001659],100,53,easy,plus,dotcolour,beta,,,14,20,V,R,
585,81,39,13,4,47,33,334,['c'],1,left,['9'],5,211,[0.10651197],100,47,medium,plus,dotcolour,beta,,,14,20,V,R,
586,82,40,13,4,53,27,484,['c'],1,left,['9'],5,142,[0.09359088],100,53,easy,plus,dotcolour,beta,,,14,20,V,R,
587,83,41,13,4,44,36,418,['c'],1,left,['9'],5,127,[0.05217707],100,44,hard,plus,dotcolour,beta,,,14,20,V,R,
588,84,0,14,4,47,33,551,['n'],0,left,['9'],5,151,[-0.03833836],99,47,medium,plus,dotcolour,beta,,,14,20,V,R,
589,85,1,14,4,27,53,467,['n'],1,right,['9'],5,125,[-0.10532976],100,53,easy,plus,dotcolour,beta,,,14,20,V,R,
590,86,2,14,4,36,44,451,['n'],1,right,['9'],5,189,[-0.07991932],100,44,hard,plus,dotcolour,beta,,,14,20,V,R,
591,87,3,14,4,33,47,467,['n'],1,right,['9'],5,242,[-0.13249815],100,47,medium,plus,dotcolour,beta,,,14,20,V,R,
592,88,4,14,4,53,27,651,['c'],1,left,['9'],5,205,[0.15556769],100,53,easy,plus,dotcolour,beta,,,14,20,V,R,
593,89,5,14,4,33,47,852,['c'],0,right,['9'],5,209,[0.05870847],99,47,medium,plus,dotcolour,beta,,,14,20,V,R,
594,90,6,14,4,44,36,401,['c'],1,left,['9'],5,160,[0.02162784],97,44,hard,plus,dotcolour,beta,,,14,20,V,R,
595,91,7,14,4,53,27,534,['c'],1,left,['9'],5,355,[0.18726808],100,53,easy,plus,dotcolour,beta,,,14,20,V,R,
596,92,8,14,4,47,33,367,['c'],1,left,['9'],5,220,[0.12438694],100,47,medium,plus,dotcolour,beta,,,14,20,V,R,
597,93,9,14,4,33,47,584,['n'],1,right,['9'],5,172,[-0.14606],100,47,medium,plus,dotcolour,beta,,,14,20,V,R,
598,94,10,14,4,47,33,451,['c'],1,left,['9'],5,202,[0.13556601],100,47,medium,plus,dotcolour,beta,,,14,20,V,R,
599,95,11,14,4,44,36,701,['c'],1,left,['9'],5,245,[0.09483792],100,44,hard,plus,dotcolour,beta,,,14,20,V,R,
600,96,12,14,4,47,33,802,['c'],1,left,['9'],5,298,[0.19619984],100,47,medium,plus,dotcolour,beta,,,14,20,V,R,
601,97,13,14,4,53,27,567,['c'],1,left,['9'],5,190,[0.08811039],100,53,easy,plus,dotcolour,beta,,,14,20,V,R,
602,98,14,14,4,36,44,667,['n'],1,right,['9'],5,179,[-0.06922737],100,44,hard,plus,dotcolour,beta,,,14,20,V,R,
603,99,15,14,4,33,47,484,['c'],0,right,['9'],5,223,[-0.0614211],44,47,medium,plus,dotcolour,beta,,,14,20,V,R,
604,100,16,14,4,53,27,768,['c'],1,left,['9'],5,391,[0.23957072],100,53,easy,plus,dotcolour,beta,,,14,20,V,R,
605,101,17,14,4,44,36,568,['c'],1,left,['9'],5,191,[0.10771614],100,44,hard,plus,dotcolour,beta,,,14,20,V,R,
606,102,18,14,4,53,27,534,['c'],1,left,['9'],5,225,[0.17986507],100,53,easy,plus,dotcolour,beta,,,14,20,V,R,
607,103,19,14,4,27,53,751,['n'],1,right,['9'],5,216,[-0.07287659],99,53,easy,plus,dotcolour,beta,,,14,20,V,R,
608,104,20,14,4,47,33,651,['c'],1,left,['9'],5,292,[0.12653525],100,47,medium,plus,dotcolour,beta,,,14,20,V,R,
609,105,21,14,4,53,27,985,['c'],1,left,['9'],5,247,[0.10827028],100,53,easy,plus,dotcolour,beta,,,14,20,V,R,
610,106,22,14,4,47,33,702,['c'],1,left,['9'],5,248,[0.04424953],97,47,medium,plus,dotcolour,beta,,,14,20,V,R,
611,107,23,14,4,33,47,785,['c'],0,right,['9'],5,174,[0.0035608],93,47,medium,plus,dotcolour,beta,,,14,20,V,R,
612,108,24,14,4,36,44,835,['n'],1,right,['9'],5,172,[-0.06597336],99,44,hard,plus,dotcolour,beta,,,14,20,V,R,
613,109,25,14,4,36,44,718,['n'],1,right,['9'],5,176,[-0.11454031],100,44,hard,plus,dotcolour,beta,,,14,20,V,R,
614,110,26,14,4,33,47,667,['n'],1,right,['9'],5,189,[-0.10886184],100,47,medium,plus,dotcolour,beta,,,14,20,V,R,
615,111,27,14,4,33,47,568,['n'],1,right,['9'],5,198,[0.03985375],65,47,medium,plus,dotcolour,beta,,,14,20,V,R,
616,112,28,14,4,44,36,634,['c'],1,left,['9'],5,188,[0.07413043],100,44,hard,plus,dotcolour,beta,,,14,20,V,R,
617,113,29,14,4,36,44,501,['c'],0,right,['9'],5,223,[0.06748207],99,44,hard,plus,dotcolour,beta,,,14,20,V,R,
618,114,30,14,4,36,44,534,['c'],0,right,['9'],5,208,[-0.02130294],79,44,hard,plus,dotcolour,beta,,,14,20,V,R,
619,115,31,14,4,27,53,384,['n'],1,right,['9'],5,239,[-0.01004312],92,53,easy,plus,dotcolour,beta,,,14,20,V,R,
620,116,32,14,4,44,36,518,['n'],0,left,['9'],5,160,[-0.08059939],100,44,hard,plus,dotcolour,beta,,,14,20,V,R,
621,117,33,14,4,44,36,535,['c'],1,left,['9'],5,227,[0.11188249],100,44,hard,plus,dotcolour,beta,,,14,20,V,R,
622,118,34,14,4,27,53,568,['n'],1,right,['9'],5,234,[-0.10063061],100,53,easy,plus,dotcolour,beta,,,14,20,V,R,
623,119,35,14,4,27,53,552,['c'],0,right,['9'],5,242,[0.10237591],100,53,easy,plus,dotcolour,beta,,,14,20,V,R,
624,120,36,14,4,27,53,835,['c'],0,right,['9'],5,277,[0.09038979],99,53,easy,plus,dotcolour,beta,,,14,20,V,R,
625,121,37,14,4,53,27,801,['c'],1,left,['9'],5,232,[0.11744841],100,53,easy,plus,dotcolour,beta,,,14,20,V,R,
626,122,38,14,4,27,53,701,['n'],1,right,['9'],5,186,[-0.10345966],100,53,easy,plus,dotcolour,beta,,,14,20,V,R,
627,123,39,14,4,44,36,567,['n'],0,left,['2'],2,603,[-0.08407818],96,44,hard,plus,dotcolour,beta,,,14,20,V,R,
628,124,40,14,4,36,44,685,['c'],0,right,['9'],5,230,[-0.00040813],89,44,hard,plus,dotcolour,beta,,,14,20,V,R,
629,125,41,14,4,47,33,517,['c'],1,left,['9'],5,135,[0.08494229],100,47,medium,plus,dotcolour,beta,,,14,20,V,R,
630,0,0,15,5,36,44,784,['c'],0,right,['9'],5,662,[0.08302011],65,44,hard,minus,dotcolour,beta,,,14,20,V,R,
631,1,1,15,5,36,44,601,['n'],1,right,['9'],5,266,[-0.02528891],26,44,hard,minus,dotcolour,beta,,,14,20,V,R,
632,2,2,15,5,53,27,668,['n'],0,left,['2'],2,1099,[0.17983124],2,53,easy,minus,dotcolour,beta,,,14,20,V,R,
633,3,3,15,5,33,47,918,['n'],1,right,['9'],5,240,[-0.06363626],57,47,medium,minus,dotcolour,beta,,,14,20,V,R,
634,4,4,15,5,27,53,417,['n'],1,right,['9'],5,180,[-0.10372139],89,53,easy,minus,dotcolour,beta,,,14,20,V,R,
635,5,5,15,5,27,53,350,['n'],1,right,['9'],5,334,[-0.1329442],92,53,easy,minus,dotcolour,beta,,,14,20,V,R,
636,6,6,15,5,53,27,517,['c'],1,left,['9'],5,179,[0.10217413],88,53,easy,minus,dotcolour,beta,,,14,20,V,R,
637,7,7,15,5,27,53,602,['c'],0,right,['9'],5,219,[-0.07475016],1,53,easy,minus,dotcolour,beta,,,14,20,V,R,
638,8,8,15,5,44,36,734,['c'],1,left,['9'],5,156,[-0.01006542],5,44,hard,minus,dotcolour,beta,,,14,20,V,R,
639,9,9,15,5,47,33,535,['c'],1,left,['9'],5,176,[0.05183525],46,47,medium,minus,dotcolour,beta,,,14,20,V,R,
640,10,10,15,5,44,36,601,['c'],1,left,['9'],5,207,[0.03271437],29,44,hard,minus,dotcolour,beta,,,14,20,V,R,
641,11,11,15,5,47,33,485,['c'],1,left,['9'],5,179,[0.17030859],99,47,medium,minus,dotcolour,beta,,,14,20,V,R,
642,12,12,15,5,36,44,501,['n'],1,right,['9'],5,191,[-0.03379982],29,44,hard,minus,dotcolour,beta,,,14,20,V,R,
643,13,13,15,5,47,33,452,['c'],1,left,['9'],5,172,[0.11936517],94,47,medium,minus,dotcolour,beta,,,14,20,V,R,
644,14,14,15,5,44,36,468,['c'],1,left,['9'],5,178,[0.0459762],40,44,hard,minus,dotcolour,beta,,,14,20,V,R,
645,15,15,15,5,53,27,434,['c'],1,left,['9'],5,153,[0.16086935],99,53,easy,minus,dotcolour,beta,,,14,20,V,R,
646,16,16,15,5,27,53,501,['n'],1,right,['9'],5,215,[-0.13514405],96,53,easy,minus,dotcolour,beta,,,14,20,V,R,
647,17,17,15,5,44,36,618,['c'],1,left,['9'],5,195,[0.14886139],98,44,hard,minus,dotcolour,beta,,,14,20,V,R,
648,18,18,15,5,27,53,668,['c'],0,right,['9'],5,200,[0.04016571],35,53,easy,minus,dotcolour,beta,,,14,20,V,R,
649,19,19,15,5,47,33,952,['c'],1,left,['9'],5,344,[0.10545352],82,47,medium,minus,dotcolour,beta,,,14,20,V,R,
650,20,20,15,5,33,47,784,['c'],0,right,['9'],5,186,[0.03574818],30,47,medium,minus,dotcolour,beta,,,14,20,V,R,
651,21,21,15,5,33,47,684,['c'],0,right,['9'],5,190,[0.09003656],81,47,medium,minus,dotcolour,beta,,,14,20,V,R,
652,22,22,15,5,53,27,950,['c'],1,left,['9'],5,207,[0.13326938],96,53,easy,minus,dotcolour,beta,,,14,20,V,R,
653,23,23,15,5,27,53,835,['c'],0,right,['9'],5,284,[-0.06027119],2,53,easy,minus,dotcolour,beta,,,14,20,V,R,
654,24,24,15,5,53,27,418,['c'],1,left,['9'],5,174,[0.09149632],83,53,easy,minus,dotcolour,beta,,,14,20,V,R,
655,25,25,15,5,44,36,385,['c'],1,left,['9'],5,175,[0.1250628],95,44,hard,minus,dotcolour,beta,,,14,20,V,R,
656,26,26,15,5,47,33,585,['c'],1,left,['9'],5,191,[0.04021451],35,47,medium,minus,dotcolour,beta,,,14,20,V,R,
657,27,27,15,5,53,27,768,['c'],1,left,['9'],5,135,[0.02257059],17,53,easy,minus,dotcolour,beta,,,14,20,V,R,
658,28,28,15,5,53,27,401,['c'],1,left,['9'],5,169,[0.07386686],69,53,easy,minus,dotcolour,beta,,,14,20,V,R,
659,29,29,15,5,33,47,367,['c'],0,right,['9'],5,275,[0.01520402],20,47,medium,minus,dotcolour,beta,,,14,20,V,R,
660,30,30,15,5,47,33,418,['c'],1,left,['9'],5,166,[0.05051478],44,47,medium,minus,dotcolour,beta,,,14,20,V,R,
661,31,31,15,5,47,33,567,['n'],0,left,['9'],5,183,[-0.02427043],21,47,medium,minus,dotcolour,beta,,,14,20,V,R,
662,32,32,15,5,36,44,501,['n'],1,right,['9'],5,163,[-0.08851959],81,44,hard,minus,dotcolour,beta,,,14,20,V,R,
663,33,33,15,5,44,36,434,['c'],1,left,['9'],5,194,[0.0258999],23,44,hard,minus,dotcolour,beta,,,14,20,V,R,
664,34,34,15,5,36,44,518,['c'],0,right,['9'],5,205,[0.07650526],70,44,hard,minus,dotcolour,beta,,,14,20,V,R,
665,35,35,15,5,44,36,584,['c'],1,left,['9'],5,203,[0.03929239],34,44,hard,minus,dotcolour,beta,,,14,20,V,R,
666,36,36,15,5,33,47,501,['c'],0,right,['9'],5,175,[0.0707463],66,47,medium,minus,dotcolour,beta,,,14,20,V,R,
667,37,37,15,5,33,47,535,['c'],0,right,['9'],5,185,[-0.005049],7,47,medium,minus,dotcolour,beta,,,14,20,V,R,
668,38,38,15,5,27,53,701,['c'],0,right,['9'],5,429,[0.00734815],21,53,easy,minus,dotcolour,beta,,,14,20,V,R,
669,39,39,15,5,36,44,434,['c'],0,right,['9'],5,161,[0.12770399],96,44,hard,minus,dotcolour,beta,,,14,20,V,R,
670,40,40,15,5,33,47,551,['c'],0,right,['9'],5,155,[0.05326012],47,47,medium,minus,dotcolour,beta,,,14,20,V,R,
671,41,41,15,5,36,44,484,['c'],0,right,['9'],5,169,[0.0247893],21,44,hard,minus,dotcolour,beta,,,14,20,V,R,
672,42,0,16,5,47,33,484,['c'],1,left,['9'],5,156,[0.06637913],62,47,medium,minus,dotcolour,beta,,,14,20,V,R,
673,43,1,16,5,53,27,418,['c'],1,left,['9'],5,149,[0.12260662],96,53,easy,minus,dotcolour,beta,,,14,20,V,R,
674,44,2,16,5,44,36,368,['c'],1,left,['9'],5,159,[0.07728674],73,44,hard,minus,dotcolour,beta,,,14,20,V,R,
675,45,3,16,5,53,27,334,['c'],1,left,['9'],5,162,[0.07617353],72,53,easy,minus,dotcolour,beta,,,14,20,V,R,
676,46,4,16,5,44,36,368,['c'],1,left,['9'],5,188,[0.18600608],100,44,hard,minus,dotcolour,beta,,,14,20,V,R,
677,47,5,16,5,47,33,735,['n'],0,left,['9'],5,95,[-0.08465293],85,47,medium,minus,dotcolour,beta,,,14,20,V,R,
678,48,6,16,5,53,27,734,['n'],0,left,['9'],5,148,[-0.03002918],23,53,easy,minus,dotcolour,beta,,,14,20,V,R,
679,49,7,16,5,27,53,367,['n'],1,right,['9'],5,151,[-0.049276],43,53,easy,minus,dotcolour,beta,,,14,20,V,R,
680,50,8,16,5,27,53,368,['n'],1,right,['9'],5,114,[-0.1387109],99,53,easy,minus,dotcolour,beta,,,14,20,V,R,
681,51,9,16,5,33,47,501,['n'],1,right,['9'],5,160,[-0.05451719],49,47,medium,minus,dotcolour,beta,,,14,20,V,R,
682,52,10,16,5,36,44,468,['c'],0,right,['9'],5,158,[0.05038885],44,44,hard,minus,dotcolour,beta,,,14,20,V,R,
683,53,11,16,5,27,53,551,['n'],1,right,['9'],5,160,[0.04699869],1,53,easy,minus,dotcolour,beta,,,14,20,V,R,
684,54,12,16,5,33,47,1002,['c'],0,right,['9'],5,160,[0.07580722],71,47,medium,minus,dotcolour,beta,,,14,20,V,R,
685,55,13,16,5,27,53,517,['n'],1,right,['9'],5,140,[-0.08957709],84,53,easy,minus,dotcolour,beta,,,14,20,V,R,
686,56,14,16,5,47,33,567,['c'],1,left,['9'],5,191,[0.06199082],57,47,medium,minus,dotcolour,beta,,,14,20,V,R,
687,57,15,16,5,44,36,435,['c'],1,left,['9'],5,165,[0.0603497],55,44,hard,minus,dotcolour,beta,,,14,20,V,R,
688,58,16,16,5,33,47,485,['c'],0,right,['2'],2,386,[0.09308026],75,47,medium,minus,dotcolour,beta,,,14,20,V,R,
689,59,17,16,5,36,44,701,['n'],1,right,['9'],5,188,[-0.08143976],75,44,hard,minus,dotcolour,beta,,,14,20,V,R,
690,60,18,16,5,47,33,301,['n'],0,left,['9'],5,232,[0.01100607],8,47,medium,minus,dotcolour,beta,,,14,20,V,R,
691,61,19,16,5,53,27,434,['c'],1,left,['9'],5,149,[0.05434294],49,53,easy,minus,dotcolour,beta,,,14,20,V,R,
692,62,20,16,5,27,53,434,['n'],1,right,['9'],5,213,[-0.07875046],71,53,easy,minus,dotcolour,beta,,,14,20,V,R,
693,63,21,16,5,47,33,717,['c'],1,left,['9'],5,246,[0.17162221],99,47,medium,minus,dotcolour,beta,,,14,20,V,R,
694,64,22,16,5,44,36,401,['c'],1,left,['9'],5,131,[0.08493277],81,44,hard,minus,dotcolour,beta,,,14,20,V,R,
695,65,23,16,5,36,44,568,['c'],0,right,['9'],5,374,[-0.03072141],7,44,hard,minus,dotcolour,beta,,,14,20,V,R,
696,66,24,16,5,36,44,534,['c'],0,right,['9'],5,385,[0.07600409],64,44,hard,minus,dotcolour,beta,,,14,20,V,R,
697,67,25,16,5,36,44,718,['c'],0,right,['9'],5,291,[0.06163739],55,44,hard,minus,dotcolour,beta,,,14,20,V,R,
698,68,26,16,5,27,53,735,['c'],0,right,['9'],5,200,[-0.01845212],5,53,easy,minus,dotcolour,beta,,,14,20,V,R,
699,69,27,16,5,33,47,334,['c'],0,right,['9'],5,218,[0.19911537],100,47,medium,minus,dotcolour,beta,,,14,20,V,R,
700,70,28,16,5,33,47,452,['c'],0,right,['9'],5,158,[0.07623431],72,47,medium,minus,dotcolour,beta,,,14,20,V,R,
701,71,29,16,5,53,27,552,['c'],1,left,['9'],5,193,[0.0652677],60,53,easy,minus,dotcolour,beta,,,14,20,V,R,
702,72,30,16,5,36,44,601,['c'],0,right,['9'],5,200,[-0.00894523],7,44,hard,minus,dotcolour,beta,,,14,20,V,R,
703,73,31,16,5,44,36,584,['c'],1,left,['9'],5,175,[0.08406436],77,44,hard,minus,dotcolour,beta,,,14,20,V,R,
704,74,32,16,5,27,53,584,['n'],1,right,['9'],5,136,[-0.06698356],64,53,easy,minus,dotcolour,beta,,,14,20,V,R,
705,75,33,16,5,44,36,368,['n'],0,left,['9'],5,171,[-0.07985136],74,44,hard,minus,dotcolour,beta,,,14,20,V,R,
706,76,34,16,5,53,27,418,['n'],0,left,['9'],5,155,[-0.10276291],90,53,easy,minus,dotcolour,beta,,,14,20,V,R,
707,77,35,16,5,33,47,467,['n'],1,right,['9'],5,161,[-0.10084017],88,47,medium,minus,dotcolour,beta,,,14,20,V,R,
708,78,36,16,5,53,27,450,['c'],1,left,['9'],5,232,[0.17570179],99,53,easy,minus,dotcolour,beta,,,14,20,V,R,
709,79,37,16,5,44,36,635,['c'],1,left,['9'],5,188,[0.03031339],26,44,hard,minus,dotcolour,beta,,,14,20,V,R,
710,80,38,16,5,47,33,401,['n'],0,left,['9'],5,268,[-0.13722592],94,47,medium,minus,dotcolour,beta,,,14,20,V,R,
711,81,39,16,5,47,33,618,['c'],1,left,['9'],5,184,[0.01325945],14,47,medium,minus,dotcolour,beta,,,14,20,V,R,
712,82,40,16,5,36,44,617,['c'],0,right,['9'],5,214,[0.07832231],71,44,hard,minus,dotcolour,beta,,,14,20,V,R,
713,83,41,16,5,33,47,601,['c'],0,right,['9'],5,325,[0.05203735],47,47,medium,minus,dotcolour,beta,,,14,20,V,R,
714,84,0,17,5,33,47,668,['n'],1,right,['9'],5,131,[-0.07698995],74,47,medium,minus,dotcolour,beta,,,14,20,V,R,
715,85,1,17,5,44,36,417,['n'],0,left,['9'],5,164,[-0.06873287],64,44,hard,minus,dotcolour,beta,,,14,20,V,R,
716,86,2,17,5,44,36,568,['n'],0,left,['9'],5,206,[-0.09876675],85,44,hard,minus,dotcolour,beta,,,14,20,V,R,
717,87,3,17,5,33,47,468,['n'],1,right,['9'],5,177,[-0.09097335],82,47,medium,minus,dotcolour,beta,,,14,20,V,R,
718,88,4,17,5,33,47,368,['n'],1,right,['9'],5,195,[-0.03013292],26,47,medium,minus,dotcolour,beta,,,14,20,V,R,
719,89,5,17,5,36,44,384,['n'],1,right,['9'],5,315,[-0.18257412],98,44,hard,minus,dotcolour,beta,,,14,20,V,R,
720,90,6,17,5,53,27,450,['n'],0,left,['9'],5,443,[-0.07831149],65,53,easy,minus,dotcolour,beta,,,14,20,V,R,
721,91,7,17,5,53,27,485,['c'],1,left,['9'],5,157,[0.06525559],61,53,easy,minus,dotcolour,beta,,,14,20,V,R,
722,92,8,17,5,36,44,534,['n'],1,right,['9'],5,287,[-0.10497937],84,44,hard,minus,dotcolour,beta,,,14,20,V,R,
723,93,9,17,5,36,44,418,['n'],1,right,['9'],5,443,[-0.30514094],100,44,hard,minus,dotcolour,beta,,,14,20,V,R,
724,94,10,17,5,33,47,484,['n'],1,right,['9'],5,212,[-0.10011119],85,47,medium,minus,dotcolour,beta,,,14,20,V,R,
725,95,11,17,5,47,33,517,['c'],1,left,['9'],5,198,[0.04469591],39,47,medium,minus,dotcolour,beta,,,14,20,V,R,
726,96,12,17,5,27,53,517,['n'],1,right,['9'],5,176,[-0.11940231],94,53,easy,minus,dotcolour,beta,,,14,20,V,R,
727,97,13,17,5,36,44,518,['n'],1,right,['9'],5,203,[-0.07334985],67,44,hard,minus,dotcolour,beta,,,14,20,V,R,
728,98,14,17,5,27,53,401,['n'],1,right,['9'],5,282,[-0.13473439],94,53,easy,minus,dotcolour,beta,,,14,20,V,R,
729,99,15,17,5,47,33,601,['c'],1,left,['9'],5,198,[0.1754333],99,47,medium,minus,dotcolour,beta,,,14,20,V,R,
730,100,16,17,5,27,53,601,['n'],1,right,['9'],5,205,[-0.09049214],80,53,easy,minus,dotcolour,beta,,,14,20,V,R,
731,101,17,17,5,47,33,684,['c'],1,left,['9'],5,184,[0.04985073],44,47,medium,minus,dotcolour,beta,,,14,20,V,R,
732,102,18,17,5,47,33,534,['c'],1,left,['9'],5,211,[0.01433757],17,47,medium,minus,dotcolour,beta,,,14,20,V,R,
733,103,19,17,5,53,27,534,['c'],1,left,['9'],5,196,[0.11908104],93,53,easy,minus,dotcolour,beta,,,14,20,V,R,
734,104,20,17,5,53,27,551,['c'],1,left,['9'],5,413,[0.17914964],97,53,easy,minus,dotcolour,beta,,,14,20,V,R,
735,105,21,17,5,53,27,535,['c'],1,left,['9'],5,190,[0.08104587],74,53,easy,minus,dotcolour,beta,,,14,20,V,R,
736,106,22,17,5,27,53,401,['c'],0,right,['9'],5,238,[-0.00122056],11,53,easy,minus,dotcolour,beta,,,14,20,V,R,
737,107,23,17,5,44,36,835,['c'],1,left,['9'],5,170,[0.08761234],80,44,hard,minus,dotcolour,beta,,,14,20,V,R,
738,108,24,17,5,33,47,683,['n'],1,right,['9'],5,151,[-0.11258065],93,47,medium,minus,dotcolour,beta,,,14,20,V,R,
739,109,25,17,5,36,44,417,['c'],0,right,['9'],5,231,[0.00324017],12,44,hard,minus,dotcolour,beta,,,14,20,V,R,
740,110,26,17,5,27,53,634,['n'],1,right,['9'],5,283,[-0.18097095],99,53,easy,minus,dotcolour,beta,,,14,20,V,R,
741,111,27,17,5,36,44,467,['n'],1,right,['9'],5,485,[-0.15872715],94,44,hard,minus,dotcolour,beta,,,14,20,V,R,
742,112,28,17,5,47,33,834,['c'],1,left,['9'],5,190,[0.0712826],66,47,medium,minus,dotcolour,beta,,,14,20,V,R,
743,113,29,17,5,33,47,535,['n'],1,right,['9'],5,209,[-0.1028324],87,47,medium,minus,dotcolour,beta,,,14,20,V,R,
744,114,30,17,5,47,33,685,['n'],0,left,['2'],2,1228,[0.02761377],21,47,medium,minus,dotcolour,beta,,,14,20,V,R,
745,115,31,17,5,44,36,584,['c'],1,left,['9'],5,169,[0.07874069],73,44,hard,minus,dotcolour,beta,,,14,20,V,R,
746,116,32,17,5,44,36,417,['n'],0,left,['9'],5,145,[-0.10386865],91,44,hard,minus,dotcolour,beta,,,14,20,V,R,
747,117,33,17,5,27,53,735,['n'],1,right,['9'],5,132,[-0.13539765],98,53,easy,minus,dotcolour,beta,,,14,20,V,R,
748,118,34,17,5,53,27,384,['n'],0,left,['2'],2,695,[-0.05553271],50,53,easy,minus,dotcolour,beta,,,14,20,V,R,
749,119,35,17,5,53,27,568,['c'],1,left,['9'],5,155,[0.05092553],45,53,easy,minus,dotcolour,beta,,,14,20,V,R,
750,120,36,17,5,44,36,352,['c'],1,left,['9'],5,206,[0.09755517],84,44,hard,minus,dotcolour,beta,,,14,20,V,R,
751,121,37,17,5,27,53,551,['n'],1,right,['9'],5,174,[-0.11712656],93,53,easy,minus,dotcolour,beta,,,14,20,V,R,
752,122,38,17,5,33,47,400,['n'],1,right,['9'],5,199,[-0.12862643],95,47,medium,minus,dotcolour,beta,,,14,20,V,R,
753,123,39,17,5,36,44,284,['n'],1,right,['9'],5,235,[-0.16604064],98,44,hard,minus,dotcolour,beta,,,14,20,V,R,
754,124,40,17,5,47,33,501,['c'],1,left,['9'],5,173,[0.05893252],54,47,medium,minus,dotcolour,beta,,,14,20,V,R,
755,125,41,17,5,44,36,501,['c'],1,left,['9'],5,208,[0.02736103],25,44,hard,minus,dotcolour,beta,,,14,20,V,R,
,,,,,,,,,,,,,,,,,,,,,1,"dat de ene keer de feedback heel positief was en de andere keer net vrij negati
efn naar mijn mening vaak onterecht of onjuist",14,20,V,R,
,,,,,,,,,,,,,,,,,,,,,2,['f'],14,20,V,R,
,,,,,,,,,,,,,,,,,,,,,3,['f'],14,20,V,R,
,,,,,,,,,,,,,,,,,,,,,5,"['3', '5']",14,20,V,R,
