trial,withinphasetrial,withinblocktrial,block,phase,dotsLeft,dotsRight,rt,resp,cor,cresp,conf_press,cj,RTconf,ev,fb,diff,difflevel,condition,task,manip,questionID,questionResp,sub,age,gender,handedness,
0,0,0,0,0,53,27,750,['c'],1,left,['8'],3,1488,[0.25463282],99,53,easy,plus,dotcolour,beta,,,28,18,V,L,
1,1,1,0,0,47,33,883,['c'],1,left,['8'],3,563,[0.14125986],99,47,medium,plus,dotcolour,beta,,,28,18,V,L,
2,2,2,0,0,44,36,884,['c'],1,left,['2'],5,2147,[0.21136868],96,44,hard,plus,dotcolour,beta,,,28,18,V,L,
3,3,3,0,0,36,44,1201,['n'],1,right,['2'],5,861,[-0.16338404],99,44,hard,plus,dotcolour,beta,,,28,18,V,L,
4,4,4,0,0,47,33,1150,['c'],1,left,['2'],5,757,[0.1146043],97,47,medium,plus,dotcolour,beta,,,28,18,V,L,
5,5,5,0,0,53,27,833,['c'],1,left,['2'],5,263,[0.12659845],100,53,easy,plus,dotcolour,beta,,,28,18,V,L,
6,6,6,0,0,47,33,1766,['c'],1,left,['3'],4,1015,[0.07839802],92,47,medium,plus,dotcolour,beta,,,28,18,V,L,
7,7,7,0,0,27,53,900,['n'],1,right,['2'],5,667,[-0.04649943],90,53,easy,plus,dotcolour,beta,,,28,18,V,L,
8,8,8,0,0,27,53,933,['n'],1,right,['2'],5,228,[-0.03172889],96,53,easy,plus,dotcolour,beta,,,28,18,V,L,
9,9,9,0,0,53,27,734,['c'],1,left,['2'],5,287,[0.14759506],100,53,easy,plus,dotcolour,beta,,,28,18,V,L,
10,10,10,0,0,36,44,833,['n'],1,right,['2'],5,235,[-0.05534649],98,44,hard,plus,dotcolour,beta,,,28,18,V,L,
11,11,11,0,0,44,36,700,['n'],0,left,['2'],5,183,[-0.02102219],96,44,hard,plus,dotcolour,beta,,,28,18,V,L,
12,12,12,0,0,47,33,734,['n'],0,left,['3'],4,1236,[0.06952363],44,47,medium,plus,dotcolour,beta,,,28,18,V,L,
13,13,13,0,0,36,44,1033,['n'],1,right,['2'],5,194,[-0.05546804],99,44,hard,plus,dotcolour,beta,,,28,18,V,L,
14,14,14,0,0,47,33,800,['n'],0,left,['2'],5,420,[-0.06904792],97,47,medium,plus,dotcolour,beta,,,28,18,V,L,
15,15,15,0,0,53,27,717,['c'],1,left,['2'],5,288,[0.07261331],99,53,easy,plus,dotcolour,beta,,,28,18,V,L,
16,16,16,0,0,36,44,633,['n'],1,right,['2'],5,236,[-0.08458565],99,44,hard,plus,dotcolour,beta,,,28,18,V,L,
17,17,17,0,0,33,47,1051,['n'],1,right,['2'],5,194,[-0.08809026],100,47,medium,plus,dotcolour,beta,,,28,18,V,L,
18,18,18,0,0,36,44,1134,['c'],0,right,['2'],5,375,[0.07788898],98,44,hard,plus,dotcolour,beta,,,28,18,V,L,
19,19,19,0,0,27,53,750,['n'],1,right,['2'],5,186,[-0.10874663],100,53,easy,plus,dotcolour,beta,,,28,18,V,L,
20,20,20,0,0,33,47,617,['n'],1,right,['2'],5,187,[-0.11477381],100,47,medium,plus,dotcolour,beta,,,28,18,V,L,
21,21,21,0,0,36,44,766,['n'],1,right,['2'],5,215,[-0.00816903],92,44,hard,plus,dotcolour,beta,,,28,18,V,L,
22,22,22,0,0,27,53,600,['n'],1,right,['2'],5,128,[-0.0535057],100,53,easy,plus,dotcolour,beta,,,28,18,V,L,
23,23,23,0,0,33,47,650,['n'],1,right,['2'],5,114,[-0.1163065],100,47,medium,plus,dotcolour,beta,,,28,18,V,L,
24,24,24,0,0,53,27,717,['c'],1,left,['2'],5,258,[0.15873134],100,53,easy,plus,dotcolour,beta,,,28,18,V,L,
25,25,25,0,0,44,36,1017,['c'],1,left,['2'],5,256,[-0.01740377],80,44,hard,plus,dotcolour,beta,,,28,18,V,L,
26,26,26,0,0,44,36,901,['n'],0,left,['2'],5,122,[-0.06157795],100,44,hard,plus,dotcolour,beta,,,28,18,V,L,
27,27,27,0,0,47,33,1434,['c'],1,left,['2'],5,278,[0.13043759],100,47,medium,plus,dotcolour,beta,,,28,18,V,L,
28,28,28,0,0,44,36,867,['c'],1,left,['2'],5,305,[0.08661176],99,44,hard,plus,dotcolour,beta,,,28,18,V,L,
29,29,29,0,0,53,27,934,['c'],1,left,['2'],5,281,[0.12979692],100,53,easy,plus,dotcolour,beta,,,28,18,V,L,
30,30,30,0,0,27,53,633,['n'],1,right,['2'],5,181,[-0.0910499],100,53,easy,plus,dotcolour,beta,,,28,18,V,L,
31,31,31,0,0,33,47,901,['n'],1,right,['2'],5,147,[-0.13538166],100,47,medium,plus,dotcolour,beta,,,28,18,V,L,
32,32,32,0,0,27,53,583,['n'],1,right,['2'],5,111,[-0.11933146],100,53,easy,plus,dotcolour,beta,,,28,18,V,L,
33,33,33,0,0,44,36,1333,['n'],0,left,['2'],5,143,[-0.03233757],98,44,hard,plus,dotcolour,beta,,,28,18,V,L,
34,34,34,0,0,53,27,599,['c'],1,left,['2'],5,235,[0.13193991],100,53,easy,plus,dotcolour,beta,,,28,18,V,L,
35,35,35,0,0,33,47,900,['n'],1,right,['2'],5,22,[-0.08101584],100,47,medium,plus,dotcolour,beta,,,28,18,V,L,
36,36,36,0,0,33,47,1000,['n'],1,right,['2'],5,87,[-0.09069075],100,47,medium,plus,dotcolour,beta,,,28,18,V,L,
37,37,37,0,0,36,44,1200,['c'],0,right,['2'],5,253,[0.07303876],99,44,hard,plus,dotcolour,beta,,,28,18,V,L,
38,38,38,0,0,44,36,950,['c'],1,left,['2'],5,166,[0.08795016],100,44,hard,plus,dotcolour,beta,,,28,18,V,L,
39,39,39,0,0,33,47,1016,['n'],1,right,['2'],5,152,[-0.11946775],100,47,medium,plus,dotcolour,beta,,,28,18,V,L,
40,40,40,0,0,47,33,967,['c'],1,left,['2'],5,357,[0.22156162],100,47,medium,plus,dotcolour,beta,,,28,18,V,L,
41,41,41,0,0,27,53,618,['n'],1,right,['1'],6,327,[-0.17027889],100,53,easy,plus,dotcolour,beta,,,28,18,V,L,
42,42,0,1,0,36,44,1651,['c'],0,right,['1'],6,303,[0.14863622],100,44,hard,plus,dotcolour,beta,,,28,18,V,L,
43,43,1,1,0,47,33,1317,['n'],0,left,['3'],4,775,[-0.04628793],89,47,medium,plus,dotcolour,beta,,,28,18,V,L,
44,44,2,1,0,44,36,733,['c'],1,left,['1'],6,212,[0.07939811],99,44,hard,plus,dotcolour,beta,,,28,18,V,L,
45,45,3,1,0,33,47,718,['n'],1,right,['1'],6,136,[-0.08228369],100,47,medium,plus,dotcolour,beta,,,28,18,V,L,
46,46,4,1,0,27,53,550,['n'],1,right,['1'],6,125,[-0.10867861],100,53,easy,plus,dotcolour,beta,,,28,18,V,L,
47,47,5,1,0,53,27,550,['c'],1,left,['1'],6,212,[0.18112819],100,53,easy,plus,dotcolour,beta,,,28,18,V,L,
48,48,6,1,0,27,53,566,['n'],1,right,['1'],6,118,[-0.05664726],100,53,easy,plus,dotcolour,beta,,,28,18,V,L,
49,49,7,1,0,44,36,1050,['c'],1,left,['2'],5,297,[0.14357861],100,44,hard,plus,dotcolour,beta,,,28,18,V,L,
50,50,8,1,0,47,33,984,['c'],1,left,['1'],6,270,[0.12091936],100,47,medium,plus,dotcolour,beta,,,28,18,V,L,
51,51,9,1,0,53,27,784,['c'],1,left,['1'],6,190,[0.0533259],99,53,easy,plus,dotcolour,beta,,,28,18,V,L,
52,52,10,1,0,47,33,600,['c'],1,left,['1'],6,183,[0.15691234],100,47,medium,plus,dotcolour,beta,,,28,18,V,L,
53,53,11,1,0,47,33,467,['c'],1,left,['1'],6,166,[0.08462149],100,47,medium,plus,dotcolour,beta,,,28,18,V,L,
54,54,12,1,0,27,53,600,['n'],1,right,['1'],6,153,[-0.15679088],100,53,easy,plus,dotcolour,beta,,,28,18,V,L,
55,55,13,1,0,47,33,599,['c'],1,left,['1'],6,245,[0.12079924],100,47,medium,plus,dotcolour,beta,,,28,18,V,L,
56,56,14,1,0,44,36,1099,['c'],1,left,['3'],4,265,[0.10680928],100,44,hard,plus,dotcolour,beta,,,28,18,V,L,
57,57,15,1,0,44,36,601,['c'],1,left,['1'],6,167,[0.16153334],100,44,hard,plus,dotcolour,beta,,,28,18,V,L,
58,58,16,1,0,33,47,499,['n'],1,right,['1'],6,189,[-0.15452069],100,47,medium,plus,dotcolour,beta,,,28,18,V,L,
59,59,17,1,0,44,36,700,['c'],1,left,['2'],5,283,[0.06020329],98,44,hard,plus,dotcolour,beta,,,28,18,V,L,
60,60,18,1,0,47,33,767,['c'],1,left,['2'],5,338,[0.14829507],100,47,medium,plus,dotcolour,beta,,,28,18,V,L,
61,61,19,1,0,33,47,817,['n'],1,right,['2'],5,677,[-0.12204575],98,47,medium,plus,dotcolour,beta,,,28,18,V,L,
62,62,20,1,0,33,47,934,['n'],1,right,['1'],6,366,[-0.12752846],100,47,medium,plus,dotcolour,beta,,,28,18,V,L,
63,63,21,1,0,27,53,566,['n'],1,right,['1'],6,162,[-0.02211307],97,53,easy,plus,dotcolour,beta,,,28,18,V,L,
64,64,22,1,0,53,27,617,['c'],1,left,['1'],6,236,[0.15543496],100,53,easy,plus,dotcolour,beta,,,28,18,V,L,
65,65,23,1,0,53,27,784,['c'],1,left,['1'],6,317,[0.16824321],100,53,easy,plus,dotcolour,beta,,,28,18,V,L,
66,66,24,1,0,36,44,683,['n'],1,right,['1'],6,94,[-0.10979781],100,44,hard,plus,dotcolour,beta,,,28,18,V,L,
67,67,25,1,0,44,36,550,['c'],1,left,['1'],6,222,[0.05966132],99,44,hard,plus,dotcolour,beta,,,28,18,V,L,
68,68,26,1,0,27,53,584,['n'],1,right,['1'],6,142,[-0.12272404],100,53,easy,plus,dotcolour,beta,,,28,18,V,L,
69,69,27,1,0,33,47,650,['n'],1,right,['1'],6,112,[-0.0729509],100,47,medium,plus,dotcolour,beta,,,28,18,V,L,
70,70,28,1,0,53,27,567,['c'],1,left,['1'],6,238,[0.0547497],98,53,easy,plus,dotcolour,beta,,,28,18,V,L,
71,71,29,1,0,33,47,650,['n'],1,right,['1'],6,204,[-0.05396279],99,47,medium,plus,dotcolour,beta,,,28,18,V,L,
72,72,30,1,0,33,47,684,['n'],1,right,['1'],6,163,[-0.03741811],98,47,medium,plus,dotcolour,beta,,,28,18,V,L,
73,73,31,1,0,36,44,1117,['c'],0,right,['3'],4,216,[-0.01579789],82,44,hard,plus,dotcolour,beta,,,28,18,V,L,
74,74,32,1,0,47,33,817,['c'],1,left,['3'],4,264,[0.16019125],100,47,medium,plus,dotcolour,beta,,,28,18,V,L,
75,75,33,1,0,53,27,716,['c'],1,left,['1'],6,179,[0.15876345],100,53,easy,plus,dotcolour,beta,,,28,18,V,L,
76,76,34,1,0,53,27,734,['c'],1,left,['1'],6,183,[0.01221021],95,53,easy,plus,dotcolour,beta,,,28,18,V,L,
77,77,35,1,0,44,36,900,['c'],1,left,['3'],4,149,[0.09795502],100,44,hard,plus,dotcolour,beta,,,28,18,V,L,
78,78,36,1,0,36,44,717,['n'],1,right,['1'],6,132,[-0.04177955],99,44,hard,plus,dotcolour,beta,,,28,18,V,L,
79,79,37,1,0,36,44,617,['n'],1,right,['1'],6,263,[-0.02951921],95,44,hard,plus,dotcolour,beta,,,28,18,V,L,
80,80,38,1,0,27,53,533,['n'],1,right,['1'],6,104,[-0.0553483],100,53,easy,plus,dotcolour,beta,,,28,18,V,L,
81,81,39,1,0,36,44,484,['n'],1,right,['2'],5,266,[-0.13088716],100,44,hard,plus,dotcolour,beta,,,28,18,V,L,
82,82,40,1,0,36,44,683,['n'],1,right,['2'],5,182,[-0.15318931],100,44,hard,plus,dotcolour,beta,,,28,18,V,L,
83,83,41,1,0,27,53,517,['n'],1,right,['2'],5,163,[-0.09685873],100,53,easy,plus,dotcolour,beta,,,28,18,V,L,
84,84,0,2,0,44,36,701,['n'],0,left,['1'],6,184,[-0.09679314],100,44,hard,plus,dotcolour,beta,,,28,18,V,L,
85,85,1,2,0,33,47,550,['n'],1,right,['1'],6,116,[-0.13445829],100,47,medium,plus,dotcolour,beta,,,28,18,V,L,
86,86,2,2,0,47,33,767,['n'],0,left,['1'],6,138,[-0.07055763],100,47,medium,plus,dotcolour,beta,,,28,18,V,L,
87,87,3,2,0,47,33,649,['n'],0,left,['9'],2,1052,[-0.07574539],91,47,medium,plus,dotcolour,beta,,,28,18,V,L,
88,88,4,2,0,33,47,567,['n'],1,right,['1'],6,220,[-0.05936556],99,47,medium,plus,dotcolour,beta,,,28,18,V,L,
89,89,5,2,0,33,47,633,['n'],1,right,['1'],6,387,[-0.06498573],97,47,medium,plus,dotcolour,beta,,,28,18,V,L,
90,90,6,2,0,44,36,651,['n'],0,left,['3'],4,867,[-0.09634237],95,44,hard,plus,dotcolour,beta,,,28,18,V,L,
91,91,7,2,0,53,27,767,['c'],1,left,['3'],4,707,[0.25705894],100,53,easy,plus,dotcolour,beta,,,28,18,V,L,
92,92,8,2,0,53,27,584,['n'],0,left,['0'],1,1336,[0.08696213],38,53,easy,plus,dotcolour,beta,,,28,18,V,L,
93,93,9,2,0,27,53,884,['n'],1,right,['1'],6,576,[-0.1101914],98,53,easy,plus,dotcolour,beta,,,28,18,V,L,
94,94,10,2,0,53,27,883,['c'],1,left,['1'],6,543,[0.25492015],100,53,easy,plus,dotcolour,beta,,,28,18,V,L,
95,95,11,2,0,47,33,1133,['n'],0,left,['1'],6,461,[-0.16404359],100,47,medium,plus,dotcolour,beta,,,28,18,V,L,
96,96,12,2,0,36,44,667,['n'],1,right,['1'],6,129,[-0.14494804],100,44,hard,plus,dotcolour,beta,,,28,18,V,L,
97,97,13,2,0,33,47,567,['n'],1,right,['1'],6,238,[-0.08884364],100,47,medium,plus,dotcolour,beta,,,28,18,V,L,
98,98,14,2,0,36,44,534,['n'],1,right,['1'],6,153,[-0.08397154],100,44,hard,plus,dotcolour,beta,,,28,18,V,L,
99,99,15,2,0,27,53,466,['n'],1,right,['1'],6,122,[-0.04466135],99,53,easy,plus,dotcolour,beta,,,28,18,V,L,
100,100,16,2,0,47,33,616,['c'],1,left,['1'],6,261,[0.16589281],100,47,medium,plus,dotcolour,beta,,,28,18,V,L,
101,101,17,2,0,44,36,833,['n'],0,left,['1'],6,139,[-0.04623096],99,44,hard,plus,dotcolour,beta,,,28,18,V,L,
102,102,18,2,0,53,27,817,['c'],1,left,['1'],6,262,[0.16840999],100,53,easy,plus,dotcolour,beta,,,28,18,V,L,
103,103,19,2,0,47,33,567,['n'],0,left,['0'],1,710,[0.01649376],70,47,medium,plus,dotcolour,beta,,,28,18,V,L,
104,104,20,2,0,33,47,817,['n'],1,right,['1'],6,490,[-0.14791345],99,47,medium,plus,dotcolour,beta,,,28,18,V,L,
105,105,21,2,0,27,53,584,['n'],1,right,['1'],6,137,[-0.09196418],100,53,easy,plus,dotcolour,beta,,,28,18,V,L,
106,106,22,2,0,47,33,750,['c'],1,left,['1'],6,334,[0.02312464],92,47,medium,plus,dotcolour,beta,,,28,18,V,L,
107,107,23,2,0,44,36,584,['c'],1,left,['1'],6,267,[0.08975695],99,44,hard,plus,dotcolour,beta,,,28,18,V,L,
108,108,24,2,0,36,44,883,['n'],1,right,['1'],6,262,[-0.10079858],100,44,hard,plus,dotcolour,beta,,,28,18,V,L,
109,109,25,2,0,53,27,633,['c'],1,left,['1'],6,188,[0.05560212],99,53,easy,plus,dotcolour,beta,,,28,18,V,L,
110,110,26,2,0,33,47,650,['n'],1,right,['1'],6,388,[-0.08236733],98,47,medium,plus,dotcolour,beta,,,28,18,V,L,
111,111,27,2,0,44,36,901,['c'],1,left,['2'],5,330,[0.05727975],97,44,hard,plus,dotcolour,beta,,,28,18,V,L,
112,112,28,2,0,27,53,567,['n'],1,right,['1'],6,151,[-0.11985881],100,53,easy,plus,dotcolour,beta,,,28,18,V,L,
113,113,29,2,0,44,36,816,['c'],1,left,['2'],5,242,[0.11095678],100,44,hard,plus,dotcolour,beta,,,28,18,V,L,
114,114,30,2,0,47,33,633,['n'],0,left,['1'],6,215,[-0.13343119],100,47,medium,plus,dotcolour,beta,,,28,18,V,L,
115,115,31,2,0,36,44,984,['n'],1,right,['2'],5,593,[-0.22014395],100,44,hard,plus,dotcolour,beta,,,28,18,V,L,
116,116,32,2,0,53,27,884,['c'],1,left,['1'],6,215,[0.10081589],100,53,easy,plus,dotcolour,beta,,,28,18,V,L,
117,117,33,2,0,36,44,733,['n'],1,right,['8'],3,923,[-0.15442604],98,44,hard,plus,dotcolour,beta,,,28,18,V,L,
118,118,34,2,0,27,53,616,['n'],1,right,['1'],6,150,[-0.09277127],100,53,easy,plus,dotcolour,beta,,,28,18,V,L,
119,119,35,2,0,53,27,750,['c'],1,left,['1'],6,523,[0.19592725],100,53,easy,plus,dotcolour,beta,,,28,18,V,L,
120,120,36,2,0,33,47,684,['n'],1,right,['1'],6,116,[-0.08226871],100,47,medium,plus,dotcolour,beta,,,28,18,V,L,
121,121,37,2,0,36,44,733,['n'],1,right,['1'],6,139,[0.00651742],91,44,hard,plus,dotcolour,beta,,,28,18,V,L,
122,122,38,2,0,27,53,617,['n'],1,right,['1'],6,367,[-0.11334447],99,53,easy,plus,dotcolour,beta,,,28,18,V,L,
123,123,39,2,0,44,36,1167,['c'],1,left,['1'],6,299,[-0.05618398],49,44,hard,plus,dotcolour,beta,,,28,18,V,L,
124,124,40,2,0,27,53,684,['n'],1,right,['1'],6,181,[-0.17198911],100,53,easy,plus,dotcolour,beta,,,28,18,V,L,
125,125,41,2,0,36,44,1650,['c'],0,right,['3'],4,237,[0.08005627],99,44,hard,plus,dotcolour,beta,,,28,18,V,L,
126,0,0,3,1,33,47,751,['n'],1,right,['1'],6,142,[-0.14209736],98,47,medium,minus,dotcolour,beta,,,28,18,V,L,
127,1,1,3,1,44,36,851,['n'],0,left,['1'],6,151,[-0.03316779],26,44,hard,minus,dotcolour,beta,,,28,18,V,L,
128,2,2,3,1,47,33,650,['c'],1,left,['1'],6,209,[0.0574234],52,47,medium,minus,dotcolour,beta,,,28,18,V,L,
129,3,3,3,1,44,36,600,['n'],0,left,['1'],6,129,[0.01731891],3,44,hard,minus,dotcolour,beta,,,28,18,V,L,
130,4,4,3,1,53,27,1150,['c'],1,left,['1'],6,263,[0.19589801],99,53,easy,minus,dotcolour,beta,,,28,18,V,L,
131,5,5,3,1,47,33,984,['n'],0,left,['3'],4,239,[-0.06608999],60,47,medium,minus,dotcolour,beta,,,28,18,V,L,
132,6,6,3,1,47,33,684,['n'],0,left,['9'],2,795,[-0.0067052],27,47,medium,minus,dotcolour,beta,,,28,18,V,L,
133,7,7,3,1,36,44,1450,['c'],0,right,['1'],6,234,[0.01909886],20,44,hard,minus,dotcolour,beta,,,28,18,V,L,
134,8,8,3,1,33,47,665,['n'],1,right,['1'],6,176,[-0.1355818],97,47,medium,minus,dotcolour,beta,,,28,18,V,L,
135,9,9,3,1,33,47,800,['n'],1,right,['1'],6,98,[-0.06446651],63,47,medium,minus,dotcolour,beta,,,28,18,V,L,
136,10,10,3,1,27,53,600,['n'],1,right,['1'],6,175,[-0.10660751],90,53,easy,minus,dotcolour,beta,,,28,18,V,L,
137,11,11,3,1,44,36,1067,['c'],1,left,['3'],4,350,[0.19230569],98,44,hard,minus,dotcolour,beta,,,28,18,V,L,
138,12,12,3,1,36,44,1383,['c'],0,right,['3'],4,258,[0.04476493],41,44,hard,minus,dotcolour,beta,,,28,18,V,L,
139,13,13,3,1,27,53,1583,['n'],1,right,['3'],4,1706,[-0.38495343],99,53,easy,minus,dotcolour,beta,,,28,18,V,L,
140,14,14,3,1,33,47,734,['n'],1,right,['3'],4,209,[-0.09538957],83,47,medium,minus,dotcolour,beta,,,28,18,V,L,
141,15,15,3,1,27,53,516,['n'],1,right,['3'],4,109,[-0.04494527],36,53,easy,minus,dotcolour,beta,,,28,18,V,L,
142,16,16,3,1,47,33,734,['c'],1,left,['3'],4,196,[0.07755694],71,47,medium,minus,dotcolour,beta,,,28,18,V,L,
143,17,17,3,1,27,53,617,['n'],1,right,['1'],6,222,[-0.15977895],98,53,easy,minus,dotcolour,beta,,,28,18,V,L,
144,18,18,3,1,36,44,683,['n'],1,right,['3'],4,123,[-0.09253153],87,44,hard,minus,dotcolour,beta,,,28,18,V,L,
145,19,19,3,1,36,44,650,['n'],1,right,['2'],5,589,[-0.1491519],90,44,hard,minus,dotcolour,beta,,,28,18,V,L,
146,20,20,3,1,36,44,583,['n'],1,right,['2'],5,191,[-0.04375733],38,44,hard,minus,dotcolour,beta,,,28,18,V,L,
147,21,21,3,1,36,44,934,['n'],1,right,['2'],5,315,[-0.16675317],97,44,hard,minus,dotcolour,beta,,,28,18,V,L,
148,22,22,3,1,53,27,1167,['c'],1,left,['1'],6,224,[0.06388971],58,53,easy,minus,dotcolour,beta,,,28,18,V,L,
149,23,23,3,1,27,53,766,['n'],1,right,['1'],6,130,[-0.0676344],65,53,easy,minus,dotcolour,beta,,,28,18,V,L,
150,24,24,3,1,53,27,733,['c'],1,left,['1'],6,200,[0.1056904],88,53,easy,minus,dotcolour,beta,,,28,18,V,L,
151,25,25,3,1,53,27,882,['c'],1,left,['1'],6,175,[0.11672123],93,53,easy,minus,dotcolour,beta,,,28,18,V,L,
152,26,26,3,1,27,53,650,['n'],1,right,['1'],6,127,[-0.10380567],92,53,easy,minus,dotcolour,beta,,,28,18,V,L,
153,27,27,3,1,44,36,1367,['c'],1,left,['3'],4,268,[0.02431084],25,44,hard,minus,dotcolour,beta,,,28,18,V,L,
154,28,28,3,1,53,27,1633,['c'],1,left,['3'],4,193,[0.09005121],80,53,easy,minus,dotcolour,beta,,,28,18,V,L,
155,29,29,3,1,44,36,1183,['n'],0,left,['2'],5,707,[-0.24577263],98,44,hard,minus,dotcolour,beta,,,28,18,V,L,
156,30,30,3,1,53,27,666,['c'],1,left,['3'],4,221,[0.07235393],66,53,easy,minus,dotcolour,beta,,,28,18,V,L,
157,31,31,3,1,36,44,700,['n'],1,right,['2'],5,306,[-0.08832999],74,44,hard,minus,dotcolour,beta,,,28,18,V,L,
158,32,32,3,1,53,27,1251,['c'],1,left,['3'],4,173,[0.02515808],21,53,easy,minus,dotcolour,beta,,,28,18,V,L,
159,33,33,3,1,33,47,799,['c'],0,right,['3'],4,119,[0.04522493],37,47,medium,minus,dotcolour,beta,,,28,18,V,L,
160,34,34,3,1,33,47,617,['c'],0,right,['3'],4,227,[0.05006644],45,47,medium,minus,dotcolour,beta,,,28,18,V,L,
161,35,35,3,1,44,36,817,['n'],0,left,['3'],4,323,[-0.15147705],95,44,hard,minus,dotcolour,beta,,,28,18,V,L,
162,36,36,3,1,47,33,617,['n'],0,left,['3'],4,174,[-0.08250536],76,47,medium,minus,dotcolour,beta,,,28,18,V,L,
163,37,37,3,1,33,47,516,['n'],1,right,['3'],4,115,[-0.03699623],27,47,medium,minus,dotcolour,beta,,,28,18,V,L,
164,38,38,3,1,47,33,683,['c'],1,left,['3'],4,124,[0.11811349],96,47,medium,minus,dotcolour,beta,,,28,18,V,L,
165,39,39,3,1,47,33,733,['c'],1,left,['3'],4,195,[0.08558447],77,47,medium,minus,dotcolour,beta,,,28,18,V,L,
166,40,40,3,1,44,36,967,['c'],1,left,['3'],4,141,[0.10279067],91,44,hard,minus,dotcolour,beta,,,28,18,V,L,
167,41,41,3,1,27,53,384,['c'],0,right,['3'],4,18,[0.08264937],97,53,easy,minus,dotcolour,beta,,,28,18,V,L,
168,42,0,4,1,44,36,1217,['n'],0,left,['3'],4,193,[-0.08099017],74,44,hard,minus,dotcolour,beta,,,28,18,V,L,
169,43,1,4,1,27,53,567,['n'],1,right,['3'],4,115,[-0.08848013],85,53,easy,minus,dotcolour,beta,,,28,18,V,L,
170,44,2,4,1,53,27,567,['c'],1,left,['3'],4,97,[0.03571167],24,53,easy,minus,dotcolour,beta,,,28,18,V,L,
171,45,3,4,1,33,47,616,['n'],1,right,['3'],4,102,[-0.10970304],95,47,medium,minus,dotcolour,beta,,,28,18,V,L,
172,46,4,4,1,27,53,817,['n'],1,right,['8'],3,146,[-0.03065018],24,53,easy,minus,dotcolour,beta,,,28,18,V,L,
173,47,5,4,1,33,47,719,['n'],1,right,['3'],4,113,[-0.0245825],16,47,medium,minus,dotcolour,beta,,,28,18,V,L,
174,48,6,4,1,44,36,1134,['c'],1,left,['3'],4,232,[0.08422653],74,44,hard,minus,dotcolour,beta,,,28,18,V,L,
175,49,7,4,1,53,27,766,['c'],1,left,['3'],4,98,[0.10366108],94,53,easy,minus,dotcolour,beta,,,28,18,V,L,
176,50,8,4,1,27,53,533,['c'],0,right,['0'],1,882,[-0.0634603],9,53,easy,minus,dotcolour,beta,,,28,18,V,L,
177,51,9,4,1,33,47,651,['n'],1,right,['3'],4,174,[0.01808031],4,47,medium,minus,dotcolour,beta,,,28,18,V,L,
178,52,10,4,1,53,27,1367,['c'],1,left,['2'],5,674,[0.15692393],90,53,easy,minus,dotcolour,beta,,,28,18,V,L,
179,53,11,4,1,36,44,650,['n'],1,right,['2'],5,125,[-0.07118476],69,44,hard,minus,dotcolour,beta,,,28,18,V,L,
180,54,12,4,1,27,53,600,['n'],1,right,['2'],5,161,[-0.07694625],72,53,easy,minus,dotcolour,beta,,,28,18,V,L,
181,55,13,4,1,53,27,766,['c'],1,left,['1'],6,389,[0.09495266],76,53,easy,minus,dotcolour,beta,,,28,18,V,L,
182,56,14,4,1,47,33,1017,['c'],1,left,['1'],6,190,[0.17003604],99,47,medium,minus,dotcolour,beta,,,28,18,V,L,
183,57,15,4,1,33,47,584,['n'],1,right,['1'],6,104,[-0.11528255],97,47,medium,minus,dotcolour,beta,,,28,18,V,L,
184,58,16,4,1,27,53,533,['n'],1,right,['1'],6,80,[-0.14894285],100,53,easy,minus,dotcolour,beta,,,28,18,V,L,
185,59,17,4,1,53,27,867,['c'],1,left,['1'],6,179,[0.10238724],88,53,easy,minus,dotcolour,beta,,,28,18,V,L,
186,60,18,4,1,27,53,517,['n'],1,right,['1'],6,121,[-0.06561345],63,53,easy,minus,dotcolour,beta,,,28,18,V,L,
187,61,19,4,1,47,33,983,['c'],1,left,['3'],4,222,[0.1120982],90,47,medium,minus,dotcolour,beta,,,28,18,V,L,
188,62,20,4,1,36,44,584,['n'],1,right,['1'],6,103,[-0.10141851],93,44,hard,minus,dotcolour,beta,,,28,18,V,L,
189,63,21,4,1,44,36,651,['n'],0,left,['1'],6,107,[-0.09066944],87,44,hard,minus,dotcolour,beta,,,28,18,V,L,
190,64,22,4,1,33,47,550,['n'],1,right,['1'],6,113,[-0.05559336],50,47,medium,minus,dotcolour,beta,,,28,18,V,L,
191,65,23,4,1,36,44,567,['n'],1,right,['1'],6,151,[-0.02471083],19,44,hard,minus,dotcolour,beta,,,28,18,V,L,
192,66,24,4,1,33,47,583,['n'],1,right,['1'],6,123,[-0.09433353],88,47,medium,minus,dotcolour,beta,,,28,18,V,L,
193,67,25,4,1,36,44,1167,['c'],0,right,['1'],6,193,[0.04172544],36,44,hard,minus,dotcolour,beta,,,28,18,V,L,
194,68,26,4,1,36,44,566,['n'],1,right,['1'],6,84,[-0.04102968],29,44,hard,minus,dotcolour,beta,,,28,18,V,L,
195,69,27,4,1,44,36,1618,['c'],1,left,['3'],4,737,[0.17513589],92,44,hard,minus,dotcolour,beta,,,28,18,V,L,
196,70,28,4,1,44,36,1300,['c'],1,left,['3'],4,200,[0.12838676],95,44,hard,minus,dotcolour,beta,,,28,18,V,L,
197,71,29,4,1,53,27,633,['c'],1,left,['3'],4,297,[0.05132821],47,53,easy,minus,dotcolour,beta,,,28,18,V,L,
198,72,30,4,1,44,36,650,['c'],1,left,['3'],4,309,[0.12500023],90,44,hard,minus,dotcolour,beta,,,28,18,V,L,
199,73,31,4,1,53,27,800,['n'],0,left,['8'],3,144,[-0.03070616],24,53,easy,minus,dotcolour,beta,,,28,18,V,L,
200,74,32,4,1,33,47,734,['n'],1,right,['3'],4,246,[-0.07800923],69,47,medium,minus,dotcolour,beta,,,28,18,V,L,
201,75,33,4,1,36,44,933,['c'],0,right,['3'],4,72,[0.09850451],95,44,hard,minus,dotcolour,beta,,,28,18,V,L,
202,76,34,4,1,36,44,1166,['n'],1,right,['1'],6,472,[-0.15478299],93,44,hard,minus,dotcolour,beta,,,28,18,V,L,
203,77,35,4,1,47,33,1235,['c'],1,left,['3'],4,197,[0.08420033],76,47,medium,minus,dotcolour,beta,,,28,18,V,L,
204,78,36,4,1,47,33,700,['c'],1,left,['3'],4,163,[0.1771299],100,47,medium,minus,dotcolour,beta,,,28,18,V,L,
205,79,37,4,1,27,53,732,['n'],1,right,['1'],6,224,[-0.1305957],95,53,easy,minus,dotcolour,beta,,,28,18,V,L,
206,80,38,4,1,47,33,1517,['n'],0,left,['3'],4,204,[-0.05697366],51,47,medium,minus,dotcolour,beta,,,28,18,V,L,
207,81,39,4,1,47,33,784,['n'],0,left,['3'],4,165,[-0.14130711],98,47,medium,minus,dotcolour,beta,,,28,18,V,L,
208,82,40,4,1,47,33,867,['n'],0,left,['1'],6,213,[-0.00592262],13,47,medium,minus,dotcolour,beta,,,28,18,V,L,
209,83,41,4,1,44,36,983,['c'],1,left,['1'],6,255,[0.18145452],99,44,hard,minus,dotcolour,beta,,,28,18,V,L,
210,84,0,5,1,44,36,1218,['c'],1,left,['1'],6,250,[0.07384651],66,44,hard,minus,dotcolour,beta,,,28,18,V,L,
211,85,1,5,1,33,47,599,['n'],1,right,['1'],6,145,[-0.06418724],60,47,medium,minus,dotcolour,beta,,,28,18,V,L,
212,86,2,5,1,27,53,750,['n'],1,right,['1'],6,119,[-0.0898951],86,53,easy,minus,dotcolour,beta,,,28,18,V,L,
213,87,3,5,1,27,53,951,['n'],1,right,['1'],6,165,[-0.03595557],30,53,easy,minus,dotcolour,beta,,,28,18,V,L,
214,88,4,5,1,47,33,884,['c'],1,left,['1'],6,261,[0.08328135],73,47,medium,minus,dotcolour,beta,,,28,18,V,L,
215,89,5,5,1,53,27,867,['c'],1,left,['1'],6,169,[0.10451437],90,53,easy,minus,dotcolour,beta,,,28,18,V,L,
216,90,6,5,1,27,53,632,['n'],1,right,['1'],6,139,[-0.12851943],97,53,easy,minus,dotcolour,beta,,,28,18,V,L,
217,91,7,5,1,44,36,850,['c'],1,left,['1'],6,148,[0.09473056],86,44,hard,minus,dotcolour,beta,,,28,18,V,L,
218,92,8,5,1,44,36,701,['n'],0,left,['1'],6,107,[-0.02370377],15,44,hard,minus,dotcolour,beta,,,28,18,V,L,
219,93,9,5,1,53,27,634,['c'],1,left,['1'],6,111,[0.11707505],97,53,easy,minus,dotcolour,beta,,,28,18,V,L,
220,94,10,5,1,47,33,1450,['c'],1,left,['1'],6,169,[0.09415799],84,47,medium,minus,dotcolour,beta,,,28,18,V,L,
221,95,11,5,1,27,53,816,['n'],1,right,['1'],6,76,[-0.09571824],93,53,easy,minus,dotcolour,beta,,,28,18,V,L,
222,96,12,5,1,44,36,884,['c'],1,left,['1'],6,150,[0.03452585],27,44,hard,minus,dotcolour,beta,,,28,18,V,L,
223,97,13,5,1,47,33,899,['c'],1,left,['1'],6,174,[0.1170538],93,47,medium,minus,dotcolour,beta,,,28,18,V,L,
224,98,14,5,1,47,33,701,['n'],0,left,['1'],6,124,[-0.03338694],24,47,medium,minus,dotcolour,beta,,,28,18,V,L,
225,99,15,5,1,33,47,1133,['n'],1,right,['1'],6,202,[-0.06295904],57,47,medium,minus,dotcolour,beta,,,28,18,V,L,
226,100,16,5,1,36,44,1200,['c'],0,right,['1'],6,164,[0.11003823],92,44,hard,minus,dotcolour,beta,,,28,18,V,L,
227,101,17,5,1,44,36,850,['c'],1,left,['1'],6,116,[0.04263886],34,44,hard,minus,dotcolour,beta,,,28,18,V,L,
228,102,18,5,1,36,44,667,['n'],1,right,['1'],6,135,[-0.08410767],80,44,hard,minus,dotcolour,beta,,,28,18,V,L,
229,103,19,5,1,27,53,634,['n'],1,right,['1'],6,89,[-0.06139796],59,53,easy,minus,dotcolour,beta,,,28,18,V,L,
230,104,20,5,1,36,44,1217,['c'],0,right,['1'],6,166,[0.03978777],33,44,hard,minus,dotcolour,beta,,,28,18,V,L,
231,105,21,5,1,27,53,683,['n'],1,right,['1'],6,126,[-0.06826535],66,53,easy,minus,dotcolour,beta,,,28,18,V,L,
232,106,22,5,1,44,36,1017,['c'],1,left,['1'],6,97,[0.02707457],16,44,hard,minus,dotcolour,beta,,,28,18,V,L,
233,107,23,5,1,33,47,717,['n'],1,right,['1'],6,82,[-0.04451761],33,47,medium,minus,dotcolour,beta,,,28,18,V,L,
234,108,24,5,1,53,27,949,['c'],1,left,['1'],6,138,[0.0414996],34,53,easy,minus,dotcolour,beta,,,28,18,V,L,
235,109,25,5,1,53,27,782,['c'],1,left,['1'],6,95,[0.11369881],97,53,easy,minus,dotcolour,beta,,,28,18,V,L,
236,110,26,5,1,33,47,634,['n'],1,right,['1'],6,267,[-0.14993279],96,47,medium,minus,dotcolour,beta,,,28,18,V,L,
237,111,27,5,1,33,47,567,['n'],1,right,['1'],6,82,[-0.08217297],84,47,medium,minus,dotcolour,beta,,,28,18,V,L,
238,112,28,5,1,47,33,1050,['c'],1,left,['2'],5,223,[0.06728224],61,47,medium,minus,dotcolour,beta,,,28,18,V,L,
239,113,29,5,1,36,44,1700,['c'],0,right,['2'],5,154,[0.06376169],59,44,hard,minus,dotcolour,beta,,,28,18,V,L,
240,114,30,5,1,36,44,1133,['c'],0,right,['1'],6,177,[0.03119995],26,44,hard,minus,dotcolour,beta,,,28,18,V,L,
241,115,31,5,1,36,44,1017,['c'],0,right,['1'],6,178,[0.06601034],61,44,hard,minus,dotcolour,beta,,,28,18,V,L,
242,116,32,5,1,47,33,1350,['c'],1,left,['2'],5,166,[0.04913155],43,47,medium,minus,dotcolour,beta,,,28,18,V,L,
243,117,33,5,1,53,27,1066,['c'],1,left,['2'],5,134,[0.09653538],88,53,easy,minus,dotcolour,beta,,,28,18,V,L,
244,118,34,5,1,36,44,1133,['n'],1,right,['1'],6,229,[-0.09637745],82,44,hard,minus,dotcolour,beta,,,28,18,V,L,
245,119,35,5,1,44,36,900,['c'],1,left,['1'],6,441,[0.15819713],94,44,hard,minus,dotcolour,beta,,,28,18,V,L,
246,120,36,5,1,33,47,1233,['n'],1,right,['1'],6,199,[-0.15234358],98,47,medium,minus,dotcolour,beta,,,28,18,V,L,
247,121,37,5,1,53,27,583,['c'],1,left,['1'],6,3089,[0.53106083],99,53,easy,minus,dotcolour,beta,,,28,18,V,L,
248,122,38,5,1,33,47,1017,['n'],1,right,['1'],6,125,[-0.08080912],78,47,medium,minus,dotcolour,beta,,,28,18,V,L,
249,123,39,5,1,27,53,800,['n'],1,right,['3'],4,73,[-0.07230946],75,53,easy,minus,dotcolour,beta,,,28,18,V,L,
250,124,40,5,1,47,33,1150,['c'],1,left,['3'],4,433,[-0.00848078],15,47,medium,minus,dotcolour,beta,,,28,18,V,L,
251,125,41,5,1,53,27,817,['c'],1,left,['3'],4,89,[0.1351366],99,53,easy,minus,dotcolour,beta,,,28,18,V,L,
252,0,0,6,2,53,27,734,['c'],1,left,['3'],4,141,[0.07079818],100,53,easy,plus,dotcolour,beta,,,28,18,V,L,
253,1,1,6,2,53,27,635,['c'],1,left,['3'],4,47,[0.09500382],100,53,easy,plus,dotcolour,beta,,,28,18,V,L,
254,2,2,6,2,27,53,666,['n'],1,right,['1'],6,204,[-0.07742],100,53,easy,plus,dotcolour,beta,,,28,18,V,L,
255,3,3,6,2,27,53,533,['n'],1,right,['1'],6,96,[-0.12203427],100,53,easy,plus,dotcolour,beta,,,28,18,V,L,
256,4,4,6,2,36,44,551,['n'],1,right,['1'],6,111,[-0.08859563],100,44,hard,plus,dotcolour,beta,,,28,18,V,L,
257,5,5,6,2,53,27,650,['c'],1,left,['3'],4,89,[0.14740555],100,53,easy,plus,dotcolour,beta,,,28,18,V,L,
258,6,6,6,2,33,47,883,['n'],1,right,['1'],6,148,[-0.14811713],100,47,medium,plus,dotcolour,beta,,,28,18,V,L,
259,7,7,6,2,36,44,817,['n'],1,right,['1'],6,23,[-0.08183579],100,44,hard,plus,dotcolour,beta,,,28,18,V,L,
260,8,8,6,2,36,44,984,['c'],0,right,['1'],6,184,[0.13790916],100,44,hard,plus,dotcolour,beta,,,28,18,V,L,
261,9,9,6,2,47,33,1100,['c'],1,left,['3'],4,167,[0.05564738],99,47,medium,plus,dotcolour,beta,,,28,18,V,L,
262,10,10,6,2,44,36,1467,['c'],1,left,['3'],4,126,[0.08373393],100,44,hard,plus,dotcolour,beta,,,28,18,V,L,
263,11,11,6,2,27,53,717,['n'],1,right,['1'],6,126,[-0.11097596],100,53,easy,plus,dotcolour,beta,,,28,18,V,L,
264,12,12,6,2,33,47,817,['n'],1,right,['0'],1,177,[-0.12742918],100,47,medium,plus,dotcolour,beta,,,28,18,V,L,
265,13,13,6,2,33,47,716,['n'],1,right,['1'],6,231,[-0.21543415],100,47,medium,plus,dotcolour,beta,,,28,18,V,L,
266,14,14,6,2,53,27,767,['n'],0,left,['3'],4,152,[-0.09350034],100,53,easy,plus,dotcolour,beta,,,28,18,V,L,
267,15,15,6,2,44,36,666,['n'],0,left,['3'],4,121,[-0.11385168],100,44,hard,plus,dotcolour,beta,,,28,18,V,L,
268,16,16,6,2,36,44,666,['n'],1,right,['1'],6,211,[-0.05860509],99,44,hard,plus,dotcolour,beta,,,28,18,V,L,
269,17,17,6,2,27,53,600,['n'],1,right,['3'],4,115,[-0.11003573],100,53,easy,plus,dotcolour,beta,,,28,18,V,L,
270,18,18,6,2,44,36,467,['n'],0,left,['2'],5,109,[-0.07813381],100,44,hard,plus,dotcolour,beta,,,28,18,V,L,
271,19,19,6,2,36,44,633,['n'],1,right,['2'],5,105,[-0.05965575],100,44,hard,plus,dotcolour,beta,,,28,18,V,L,
272,20,20,6,2,33,47,500,['n'],1,right,['3'],4,122,[-0.12699798],100,47,medium,plus,dotcolour,beta,,,28,18,V,L,
273,21,21,6,2,47,33,600,['n'],0,left,['2'],5,143,[-0.04600612],99,47,medium,plus,dotcolour,beta,,,28,18,V,L,
274,22,22,6,2,47,33,567,['n'],0,left,['3'],4,115,[-0.01235415],97,47,medium,plus,dotcolour,beta,,,28,18,V,L,
275,23,23,6,2,47,33,816,['c'],1,left,['3'],4,248,[0.18964386],100,47,medium,plus,dotcolour,beta,,,28,18,V,L,
276,24,24,6,2,33,47,650,['c'],0,right,['3'],4,165,[0.17590051],100,47,medium,plus,dotcolour,beta,,,28,18,V,L,
277,25,25,6,2,47,33,683,['c'],1,left,['3'],4,132,[0.09421006],100,47,medium,plus,dotcolour,beta,,,28,18,V,L,
278,26,26,6,2,53,27,750,['c'],1,left,['2'],5,338,[0.14566696],100,53,easy,plus,dotcolour,beta,,,28,18,V,L,
279,27,27,6,2,36,44,1384,['c'],0,right,['2'],5,222,[0.17780877],100,44,hard,plus,dotcolour,beta,,,28,18,V,L,
280,28,28,6,2,47,33,1050,['c'],1,left,['2'],5,173,[0.08509508],100,47,medium,plus,dotcolour,beta,,,28,18,V,L,
281,29,29,6,2,53,27,684,['c'],1,left,['2'],5,428,[0.17895474],100,53,easy,plus,dotcolour,beta,,,28,18,V,L,
282,30,30,6,2,27,53,817,['n'],1,right,['2'],5,395,[-0.13262602],100,53,easy,plus,dotcolour,beta,,,28,18,V,L,
283,31,31,6,2,27,53,516,['n'],1,right,['2'],5,128,[-0.03511332],99,53,easy,plus,dotcolour,beta,,,28,18,V,L,
284,32,32,6,2,44,36,934,['n'],0,left,['2'],5,126,[-0.10849473],100,44,hard,plus,dotcolour,beta,,,28,18,V,L,
285,33,33,6,2,53,27,800,['c'],1,left,['2'],5,154,[0.08385105],100,53,easy,plus,dotcolour,beta,,,28,18,V,L,
286,34,34,6,2,36,44,700,['n'],1,right,['2'],5,306,[-0.01740545],91,44,hard,plus,dotcolour,beta,,,28,18,V,L,
287,35,35,6,2,27,53,467,['n'],1,right,['2'],5,156,[-0.12860375],100,53,easy,plus,dotcolour,beta,,,28,18,V,L,
288,36,36,6,2,33,47,551,['n'],1,right,['1'],6,169,[-0.06222029],99,47,medium,plus,dotcolour,beta,,,28,18,V,L,
289,37,37,6,2,47,33,584,['n'],0,left,['1'],6,68,[-0.08562446],100,47,medium,plus,dotcolour,beta,,,28,18,V,L,
290,38,38,6,2,44,36,1533,['c'],1,left,['2'],5,206,[0.09303626],100,44,hard,plus,dotcolour,beta,,,28,18,V,L,
291,39,39,6,2,33,47,750,['n'],1,right,['2'],5,248,[-0.04926411],98,47,medium,plus,dotcolour,beta,,,28,18,V,L,
292,40,40,6,2,44,36,984,['n'],0,left,['2'],5,352,[-0.03487095],94,44,hard,plus,dotcolour,beta,,,28,18,V,L,
293,41,41,6,2,44,36,1333,['c'],1,left,['8'],3,350,[0.11596907],99,44,hard,plus,dotcolour,beta,,,28,18,V,L,
294,42,0,7,2,44,36,1451,['n'],0,left,['1'],6,223,[-0.03733754],97,44,hard,plus,dotcolour,beta,,,28,18,V,L,
295,43,1,7,2,27,53,533,['n'],1,right,['1'],6,210,[-0.11277458],100,53,easy,plus,dotcolour,beta,,,28,18,V,L,
296,44,2,7,2,33,47,517,['n'],1,right,['1'],6,126,[-0.0555963],100,47,medium,plus,dotcolour,beta,,,28,18,V,L,
297,45,3,7,2,33,47,534,['n'],1,right,['1'],6,252,[-0.12737751],100,47,medium,plus,dotcolour,beta,,,28,18,V,L,
298,46,4,7,2,36,44,449,['n'],1,right,['1'],6,370,[-0.13153316],100,44,hard,plus,dotcolour,beta,,,28,18,V,L,
299,47,5,7,2,27,53,500,['n'],1,right,['1'],6,65,[-0.10217265],100,53,easy,plus,dotcolour,beta,,,28,18,V,L,
300,48,6,7,2,47,33,717,['c'],1,left,['1'],6,195,[0.12463613],100,47,medium,plus,dotcolour,beta,,,28,18,V,L,
301,49,7,7,2,36,44,550,['n'],1,right,['1'],6,118,[-0.05640731],100,44,hard,plus,dotcolour,beta,,,28,18,V,L,
302,50,8,7,2,27,53,516,['n'],1,right,['1'],6,79,[-0.08866186],100,53,easy,plus,dotcolour,beta,,,28,18,V,L,
303,51,9,7,2,36,44,550,['n'],1,right,['1'],6,22,[-0.05133188],100,44,hard,plus,dotcolour,beta,,,28,18,V,L,
304,52,10,7,2,33,47,933,['n'],1,right,['1'],6,185,[-0.01877292],96,47,medium,plus,dotcolour,beta,,,28,18,V,L,
305,53,11,7,2,53,27,483,['n'],0,left,['2'],5,176,[-0.06779838],99,53,easy,plus,dotcolour,beta,,,28,18,V,L,
306,54,12,7,2,27,53,649,['n'],1,right,['1'],6,192,[-0.10743266],100,53,easy,plus,dotcolour,beta,,,28,18,V,L,
307,55,13,7,2,47,33,867,['c'],1,left,['2'],5,119,[0.09467854],100,47,medium,plus,dotcolour,beta,,,28,18,V,L,
308,56,14,7,2,27,53,617,['n'],1,right,['1'],6,171,[-0.13179887],100,53,easy,plus,dotcolour,beta,,,28,18,V,L,
309,57,15,7,2,36,44,634,['n'],1,right,['1'],6,268,[-0.1034598],100,44,hard,plus,dotcolour,beta,,,28,18,V,L,
310,58,16,7,2,47,33,566,['c'],1,left,['2'],5,276,[0.06928324],99,47,medium,plus,dotcolour,beta,,,28,18,V,L,
311,59,17,7,2,27,53,1167,['n'],1,right,['2'],5,139,[-0.06633266],100,53,easy,plus,dotcolour,beta,,,28,18,V,L,
312,60,18,7,2,33,47,601,['n'],1,right,['1'],6,87,[-0.08591672],100,47,medium,plus,dotcolour,beta,,,28,18,V,L,
313,61,19,7,2,44,36,667,['c'],1,left,['2'],5,139,[0.05926258],100,44,hard,plus,dotcolour,beta,,,28,18,V,L,
314,62,20,7,2,33,47,1250,['n'],1,right,['2'],5,173,[-0.03790665],98,47,medium,plus,dotcolour,beta,,,28,18,V,L,
315,63,21,7,2,47,33,916,['c'],1,left,['2'],5,114,[0.02067924],98,47,medium,plus,dotcolour,beta,,,28,18,V,L,
316,64,22,7,2,53,27,549,['n'],0,left,['0'],1,785,[0.04813215],54,53,easy,plus,dotcolour,beta,,,28,18,V,L,
317,65,23,7,2,33,47,1366,['n'],1,right,['2'],5,396,[-0.12438198],99,47,medium,plus,dotcolour,beta,,,28,18,V,L,
318,66,24,7,2,53,27,600,['c'],1,left,['2'],5,133,[0.05822244],100,53,easy,plus,dotcolour,beta,,,28,18,V,L,
319,67,25,7,2,47,33,917,['c'],1,left,['2'],5,156,[0.14478185],100,47,medium,plus,dotcolour,beta,,,28,18,V,L,
320,68,26,7,2,27,53,633,['n'],1,right,['2'],5,158,[-0.07642574],100,53,easy,plus,dotcolour,beta,,,28,18,V,L,
321,69,27,7,2,53,27,700,['c'],1,left,['3'],4,221,[0.22910033],100,53,easy,plus,dotcolour,beta,,,28,18,V,L,
322,70,28,7,2,53,27,849,['c'],1,left,['2'],5,172,[0.09876917],100,53,easy,plus,dotcolour,beta,,,28,18,V,L,
323,71,29,7,2,53,27,585,['c'],1,left,['2'],5,142,[0.10759453],100,53,easy,plus,dotcolour,beta,,,28,18,V,L,
324,72,30,7,2,47,33,683,['c'],1,left,['2'],5,182,[0.05172997],99,47,medium,plus,dotcolour,beta,,,28,18,V,L,
325,73,31,7,2,44,36,983,['n'],0,left,['2'],5,66,[-0.04493135],100,44,hard,plus,dotcolour,beta,,,28,18,V,L,
326,74,32,7,2,36,44,732,['n'],1,right,['2'],5,162,[-0.07052015],100,44,hard,plus,dotcolour,beta,,,28,18,V,L,
327,75,33,7,2,36,44,500,['n'],1,right,['2'],5,57,[-0.07882186],100,44,hard,plus,dotcolour,beta,,,28,18,V,L,
328,76,34,7,2,47,33,767,['n'],0,left,['2'],5,129,[-0.02021105],98,47,medium,plus,dotcolour,beta,,,28,18,V,L,
329,77,35,7,2,33,47,667,['c'],0,right,['2'],5,379,[-0.01846855],75,47,medium,plus,dotcolour,beta,,,28,18,V,L,
330,78,36,7,2,44,36,600,['n'],0,left,['2'],5,92,[-0.08853555],100,44,hard,plus,dotcolour,beta,,,28,18,V,L,
331,79,37,7,2,53,27,767,['c'],1,left,['3'],4,115,[0.11193735],100,53,easy,plus,dotcolour,beta,,,28,18,V,L,
332,80,38,7,2,44,36,750,['c'],1,left,['2'],5,242,[0.08835613],99,44,hard,plus,dotcolour,beta,,,28,18,V,L,
333,81,39,7,2,44,36,1017,['c'],1,left,['3'],4,129,[0.03446831],99,44,hard,plus,dotcolour,beta,,,28,18,V,L,
334,82,40,7,2,44,36,733,['c'],1,left,['3'],4,111,[0.07607897],100,44,hard,plus,dotcolour,beta,,,28,18,V,L,
335,83,41,7,2,36,44,733,['n'],1,right,['2'],5,95,[-0.15801303],100,44,hard,plus,dotcolour,beta,,,28,18,V,L,
336,84,0,8,2,36,44,884,['n'],1,right,['3'],4,200,[-0.0798282],100,44,hard,plus,dotcolour,beta,,,28,18,V,L,
337,85,1,8,2,27,53,567,['n'],1,right,['3'],4,170,[-0.13143662],100,53,easy,plus,dotcolour,beta,,,28,18,V,L,
338,86,2,8,2,33,47,550,['n'],1,right,['3'],4,159,[-0.06601569],100,47,medium,plus,dotcolour,beta,,,28,18,V,L,
339,87,3,8,2,36,44,1384,['c'],0,right,['3'],4,762,[0.24159028],100,44,hard,plus,dotcolour,beta,,,28,18,V,L,
340,88,4,8,2,47,33,683,['c'],1,left,['3'],4,186,[0.10937186],100,47,medium,plus,dotcolour,beta,,,28,18,V,L,
341,89,5,8,2,47,33,617,['n'],0,left,['3'],4,99,[-0.14500068],100,47,medium,plus,dotcolour,beta,,,28,18,V,L,
342,90,6,8,2,44,36,817,['c'],1,left,['3'],4,111,[0.0869279],100,44,hard,plus,dotcolour,beta,,,28,18,V,L,
343,91,7,8,2,47,33,701,['n'],0,left,['3'],4,177,[-0.07370441],100,47,medium,plus,dotcolour,beta,,,28,18,V,L,
344,92,8,8,2,53,27,683,['n'],0,left,['3'],4,719,[0.12157697],20,53,easy,plus,dotcolour,beta,,,28,18,V,L,
345,93,9,8,2,36,44,751,['n'],1,right,['3'],4,134,[-0.06705427],100,44,hard,plus,dotcolour,beta,,,28,18,V,L,
346,94,10,8,2,44,36,766,['c'],1,left,['3'],4,202,[0.08479444],100,44,hard,plus,dotcolour,beta,,,28,18,V,L,
347,95,11,8,2,47,33,667,['n'],0,left,['3'],4,185,[-0.02273707],96,47,medium,plus,dotcolour,beta,,,28,18,V,L,
348,96,12,8,2,47,33,717,['n'],0,left,['3'],4,126,[-0.02912605],99,47,medium,plus,dotcolour,beta,,,28,18,V,L,
349,97,13,8,2,36,44,701,['c'],0,right,['3'],4,223,[0.0807407],99,44,hard,plus,dotcolour,beta,,,28,18,V,L,
350,98,14,8,2,27,53,1366,['n'],1,right,['3'],4,424,[-0.18140376],100,53,easy,plus,dotcolour,beta,,,28,18,V,L,
351,99,15,8,2,44,36,717,['c'],1,left,['3'],4,155,[0.0342723],98,44,hard,plus,dotcolour,beta,,,28,18,V,L,
352,100,16,8,2,33,47,733,['n'],1,right,['3'],4,89,[-0.0894163],100,47,medium,plus,dotcolour,beta,,,28,18,V,L,
353,101,17,8,2,53,27,767,['c'],1,left,['3'],4,152,[0.13498197],100,53,easy,plus,dotcolour,beta,,,28,18,V,L,
354,102,18,8,2,44,36,1384,['n'],0,left,['2'],5,108,[-0.09546377],100,44,hard,plus,dotcolour,beta,,,28,18,V,L,
355,103,19,8,2,33,47,600,['n'],1,right,['3'],4,145,[-0.09934083],100,47,medium,plus,dotcolour,beta,,,28,18,V,L,
356,104,20,8,2,36,44,566,['n'],1,right,['3'],4,254,[-0.19075088],100,44,hard,plus,dotcolour,beta,,,28,18,V,L,
357,105,21,8,2,44,36,750,['n'],0,left,['3'],4,103,[-0.07624],100,44,hard,plus,dotcolour,beta,,,28,18,V,L,
358,106,22,8,2,27,53,600,['n'],1,right,['3'],4,100,[-0.08423604],100,53,easy,plus,dotcolour,beta,,,28,18,V,L,
359,107,23,8,2,36,44,684,['n'],1,right,['3'],4,174,[-0.08985801],100,44,hard,plus,dotcolour,beta,,,28,18,V,L,
360,108,24,8,2,33,47,667,['n'],1,right,['2'],5,254,[-0.07957532],99,47,medium,plus,dotcolour,beta,,,28,18,V,L,
361,109,25,8,2,53,27,750,['c'],1,left,['3'],4,223,[0.10356446],100,53,easy,plus,dotcolour,beta,,,28,18,V,L,
362,110,26,8,2,33,47,767,['n'],1,right,['3'],4,33,[-0.06062268],100,47,medium,plus,dotcolour,beta,,,28,18,V,L,
363,111,27,8,2,27,53,817,['n'],1,right,['3'],4,224,[-0.14811215],100,53,easy,plus,dotcolour,beta,,,28,18,V,L,
364,112,28,8,2,47,33,867,['c'],1,left,['3'],4,101,[0.0735833],100,47,medium,plus,dotcolour,beta,,,28,18,V,L,
365,113,29,8,2,44,36,984,['c'],1,left,['3'],4,140,[0.08375514],100,44,hard,plus,dotcolour,beta,,,28,18,V,L,
366,114,30,8,2,27,53,566,['n'],1,right,['3'],4,177,[-0.0625479],99,53,easy,plus,dotcolour,beta,,,28,18,V,L,
367,115,31,8,2,36,44,650,['n'],1,right,['3'],4,440,[-0.09268889],98,44,hard,plus,dotcolour,beta,,,28,18,V,L,
368,116,32,8,2,44,36,1000,['n'],0,left,['3'],4,143,[-0.08217469],100,44,hard,plus,dotcolour,beta,,,28,18,V,L,
369,117,33,8,2,47,33,1500,['c'],1,left,['1'],6,344,[0.07439496],98,47,medium,plus,dotcolour,beta,,,28,18,V,L,
370,118,34,8,2,53,27,966,['c'],1,left,['2'],5,220,[0.14913613],100,53,easy,plus,dotcolour,beta,,,28,18,V,L,
371,119,35,8,2,53,27,699,['c'],1,left,['2'],5,112,[0.06050912],100,53,easy,plus,dotcolour,beta,,,28,18,V,L,
372,120,36,8,2,27,53,550,['n'],1,right,['2'],5,103,[-0.14714736],100,53,easy,plus,dotcolour,beta,,,28,18,V,L,
373,121,37,8,2,53,27,734,['c'],1,left,['2'],5,239,[0.12024083],100,53,easy,plus,dotcolour,beta,,,28,18,V,L,
374,122,38,8,2,33,47,517,['n'],1,right,['2'],5,50,[-0.05985353],100,47,medium,plus,dotcolour,beta,,,28,18,V,L,
375,123,39,8,2,27,53,583,['c'],0,right,['0'],1,794,[-0.06082911],47,53,easy,plus,dotcolour,beta,,,28,18,V,L,
376,124,40,8,2,33,47,566,['n'],1,right,['2'],5,68,[-0.06397663],100,47,medium,plus,dotcolour,beta,,,28,18,V,L,
377,125,41,8,2,53,27,817,['c'],1,left,['2'],5,82,[0.10458619],100,53,easy,plus,dotcolour,beta,,,28,18,V,L,
378,0,0,9,3,53,27,767,['c'],1,left,['2'],5,108,[0.07433917],74,53,easy,minus,dotcolour,beta,,,28,18,V,L,
379,1,1,9,3,27,53,583,['n'],1,right,['2'],5,50,[-0.03577758],17,53,easy,minus,dotcolour,beta,,,28,18,V,L,
380,2,2,9,3,47,33,516,['c'],1,left,['2'],5,101,[0.13218795],99,47,medium,minus,dotcolour,beta,,,28,18,V,L,
381,3,3,9,3,36,44,701,['n'],1,right,['2'],5,134,[-0.03554827],27,44,hard,minus,dotcolour,beta,,,28,18,V,L,
382,4,4,9,3,33,47,568,['n'],1,right,['2'],5,147,[-0.13325703],97,47,medium,minus,dotcolour,beta,,,28,18,V,L,
383,5,5,9,3,44,36,834,['c'],1,left,['2'],5,85,[0.07203303],73,44,hard,minus,dotcolour,beta,,,28,18,V,L,
384,6,6,9,3,27,53,550,['n'],1,right,['1'],6,277,[0.01073596],9,53,easy,minus,dotcolour,beta,,,28,18,V,L,
385,7,7,9,3,44,36,650,['c'],1,left,['2'],5,289,[0.0532828],48,44,hard,minus,dotcolour,beta,,,28,18,V,L,
386,8,8,9,3,44,36,1250,['n'],0,left,['2'],5,109,[-0.03708507],27,44,hard,minus,dotcolour,beta,,,28,18,V,L,
387,9,9,9,3,33,47,566,['n'],1,right,['2'],5,187,[0.03543229],2,47,medium,minus,dotcolour,beta,,,28,18,V,L,
388,10,10,9,3,47,33,1134,['n'],0,left,['2'],5,63,[-0.07888081],84,47,medium,minus,dotcolour,beta,,,28,18,V,L,
389,11,11,9,3,44,36,667,['n'],0,left,['2'],5,52,[-0.04977304],39,44,hard,minus,dotcolour,beta,,,28,18,V,L,
390,12,12,9,3,47,33,833,['n'],0,left,['2'],5,26,[-0.09292909],98,47,medium,minus,dotcolour,beta,,,28,18,V,L,
391,13,13,9,3,33,47,851,['n'],1,right,['2'],5,63,[-0.09844555],96,47,medium,minus,dotcolour,beta,,,28,18,V,L,
392,14,14,9,3,33,47,734,['n'],1,right,['2'],5,57,[-0.10038445],97,47,medium,minus,dotcolour,beta,,,28,18,V,L,
393,15,15,9,3,36,44,1534,['n'],1,right,['2'],5,131,[-0.0792299],76,44,hard,minus,dotcolour,beta,,,28,18,V,L,
394,16,16,9,3,33,47,850,['n'],1,right,['2'],5,61,[-0.08130909],87,47,medium,minus,dotcolour,beta,,,28,18,V,L,
395,17,17,9,3,47,33,966,['c'],1,left,['2'],5,101,[0.10567393],94,47,medium,minus,dotcolour,beta,,,28,18,V,L,
396,18,18,9,3,53,27,1017,['c'],1,left,['2'],5,82,[0.03760134],24,53,easy,minus,dotcolour,beta,,,28,18,V,L,
397,19,19,9,3,47,33,766,['c'],1,left,['2'],5,177,[0.15724384],99,47,medium,minus,dotcolour,beta,,,28,18,V,L,
398,20,20,9,3,53,27,584,['c'],1,left,['2'],5,123,[0.12075446],97,53,easy,minus,dotcolour,beta,,,28,18,V,L,
399,21,21,9,3,44,36,634,['c'],1,left,['2'],5,118,[0.05030356],43,44,hard,minus,dotcolour,beta,,,28,18,V,L,
400,22,22,9,3,53,27,2484,['c'],1,left,['2'],5,816,[0.14287527],85,53,easy,minus,dotcolour,beta,,,28,18,V,L,
401,23,23,9,3,27,53,700,['n'],1,right,['0'],1,188,[-0.12496151],95,53,easy,minus,dotcolour,beta,,,28,18,V,L,
402,24,24,9,3,53,27,667,['c'],1,left,['2'],5,76,[0.08421361],87,53,easy,minus,dotcolour,beta,,,28,18,V,L,
403,25,25,9,3,36,44,2067,['c'],0,right,['2'],5,2439,[-0.1034198],14,44,hard,minus,dotcolour,beta,,,28,18,V,L,
404,26,26,9,3,44,36,1083,['n'],0,left,['3'],4,722,[-0.07808708],62,44,hard,minus,dotcolour,beta,,,28,18,V,L,
405,27,27,9,3,36,44,750,['n'],1,right,['9'],2,1017,[-0.2028051],93,44,hard,minus,dotcolour,beta,,,28,18,V,L,
406,28,28,9,3,47,33,651,['c'],1,left,['2'],5,166,[0.00820479],11,47,medium,minus,dotcolour,beta,,,28,18,V,L,
407,29,29,9,3,36,44,1416,['n'],1,right,['2'],5,232,[-0.04297449],38,44,hard,minus,dotcolour,beta,,,28,18,V,L,
408,30,30,9,3,36,44,1033,['n'],1,right,['2'],5,255,[-0.11779714],90,44,hard,minus,dotcolour,beta,,,28,18,V,L,
409,31,31,9,3,33,47,583,['n'],1,right,['2'],5,118,[-0.10018072],91,47,medium,minus,dotcolour,beta,,,28,18,V,L,
410,32,32,9,3,53,27,667,['c'],1,left,['2'],5,169,[0.08947821],82,53,easy,minus,dotcolour,beta,,,28,18,V,L,
411,33,33,9,3,27,53,801,['n'],1,right,['2'],5,163,[-0.0672629],63,53,easy,minus,dotcolour,beta,,,28,18,V,L,
412,34,34,9,3,33,47,783,['n'],1,right,['2'],5,111,[-0.09676138],90,47,medium,minus,dotcolour,beta,,,28,18,V,L,
413,35,35,9,3,27,53,617,['n'],1,right,['2'],5,90,[-0.06510567],64,53,easy,minus,dotcolour,beta,,,28,18,V,L,
414,36,36,9,3,27,53,816,['n'],1,right,['2'],5,80,[-0.09976118],94,53,easy,minus,dotcolour,beta,,,28,18,V,L,
415,37,37,9,3,27,53,584,['n'],1,right,['2'],5,518,[-0.18989637],97,53,easy,minus,dotcolour,beta,,,28,18,V,L,
416,38,38,9,3,44,36,1434,['c'],1,left,['2'],5,122,[0.00457395],7,44,hard,minus,dotcolour,beta,,,28,18,V,L,
417,39,39,9,3,36,44,750,['n'],1,right,['2'],5,64,[-0.10155397],96,44,hard,minus,dotcolour,beta,,,28,18,V,L,
418,40,40,9,3,47,33,717,['n'],0,left,['2'],5,42,[-0.08101854],90,47,medium,minus,dotcolour,beta,,,28,18,V,L,
419,41,41,9,3,53,27,833,['n'],0,left,['2'],5,88,[0.0055818],2,53,easy,minus,dotcolour,beta,,,28,18,V,L,
420,42,0,10,3,53,27,867,['c'],1,left,['3'],4,103,[0.07575169],76,53,easy,minus,dotcolour,beta,,,28,18,V,L,
421,43,1,10,3,53,27,633,['c'],1,left,['3'],4,196,[0.04005703],35,53,easy,minus,dotcolour,beta,,,28,18,V,L,
422,44,2,10,3,44,36,1166,['c'],1,left,['3'],4,990,[-0.13540678],3,44,hard,minus,dotcolour,beta,,,28,18,V,L,
423,45,3,10,3,47,33,700,['c'],1,left,['3'],4,164,[0.15977579],99,47,medium,minus,dotcolour,beta,,,28,18,V,L,
424,46,4,10,3,53,27,534,['c'],1,left,['3'],4,81,[0.05383475],47,53,easy,minus,dotcolour,beta,,,28,18,V,L,
425,47,5,10,3,27,53,600,['n'],1,right,['3'],4,95,[-0.03735076],26,53,easy,minus,dotcolour,beta,,,28,18,V,L,
426,48,6,10,3,36,44,550,['n'],1,right,['3'],4,38,[-0.03907952],18,44,hard,minus,dotcolour,beta,,,28,18,V,L,
427,49,7,10,3,27,53,584,['n'],1,right,['3'],4,71,[-0.10106253],96,53,easy,minus,dotcolour,beta,,,28,18,V,L,
428,50,8,10,3,44,36,917,['n'],0,left,['2'],5,425,[0.04770038],5,44,hard,minus,dotcolour,beta,,,28,18,V,L,
429,51,9,10,3,53,27,666,['c'],1,left,['2'],5,199,[0.11903818],93,53,easy,minus,dotcolour,beta,,,28,18,V,L,
430,52,10,10,3,47,33,667,['n'],0,left,['2'],5,93,[-0.07711219],78,47,medium,minus,dotcolour,beta,,,28,18,V,L,
431,53,11,10,3,36,44,131,['c'],0,right,['3'],4,171,[0.04050127],34,44,hard,minus,dotcolour,beta,,,28,18,V,L,
432,54,12,10,3,47,33,582,['n'],0,left,['3'],4,79,[-0.05463722],49,47,medium,minus,dotcolour,beta,,,28,18,V,L,
433,55,13,10,3,33,47,668,['n'],1,right,['3'],4,57,[-0.07912649],86,47,medium,minus,dotcolour,beta,,,28,18,V,L,
434,56,14,10,3,36,44,517,['n'],1,right,['3'],4,84,[-0.14199709],100,44,hard,minus,dotcolour,beta,,,28,18,V,L,
435,57,15,10,3,27,53,517,['n'],1,right,['3'],4,69,[-0.06633901],68,53,easy,minus,dotcolour,beta,,,28,18,V,L,
436,58,16,10,3,47,33,684,['n'],0,left,['3'],4,32,[-0.08539577],95,47,medium,minus,dotcolour,beta,,,28,18,V,L,
437,59,17,10,3,44,36,584,['n'],0,left,['3'],4,41,[-0.10188691],98,44,hard,minus,dotcolour,beta,,,28,18,V,L,
438,60,18,10,3,27,53,667,['n'],1,right,['2'],5,1166,[-0.14056545],80,53,easy,minus,dotcolour,beta,,,28,18,V,L,
439,61,19,10,3,27,53,900,['c'],0,right,['3'],4,212,[0.04711504],42,53,easy,minus,dotcolour,beta,,,28,18,V,L,
440,62,20,10,3,44,36,884,['c'],1,left,['2'],5,610,[0.15525512],91,44,hard,minus,dotcolour,beta,,,28,18,V,L,
441,63,21,10,3,44,36,767,['n'],0,left,['2'],5,83,[-0.06423361],63,44,hard,minus,dotcolour,beta,,,28,18,V,L,
442,64,22,10,3,36,44,1117,['c'],0,right,['2'],5,437,[0.06126199],54,44,hard,minus,dotcolour,beta,,,28,18,V,L,
443,65,23,10,3,53,27,717,['c'],1,left,['2'],5,217,[0.07572212],69,53,easy,minus,dotcolour,beta,,,28,18,V,L,
444,66,24,10,3,33,47,800,['n'],1,right,['2'],5,177,[-0.06427381],59,47,medium,minus,dotcolour,beta,,,28,18,V,L,
445,67,25,10,3,47,33,767,['c'],1,left,['2'],5,180,[0.12694508],95,47,medium,minus,dotcolour,beta,,,28,18,V,L,
446,68,26,10,3,36,44,750,['c'],0,right,['2'],5,192,[0.09527322],84,44,hard,minus,dotcolour,beta,,,28,18,V,L,
447,69,27,10,3,53,27,550,['n'],0,left,['2'],5,644,[-0.03100401],37,53,easy,minus,dotcolour,beta,,,28,18,V,L,
448,70,28,10,3,33,47,1066,['n'],1,right,['2'],5,240,[-0.06464346],58,47,medium,minus,dotcolour,beta,,,28,18,V,L,
449,71,29,10,3,33,47,1051,['n'],1,right,['1'],6,277,[-0.09486747],79,47,medium,minus,dotcolour,beta,,,28,18,V,L,
450,72,30,10,3,33,47,732,['n'],1,right,['2'],5,582,[-0.19359482],96,47,medium,minus,dotcolour,beta,,,28,18,V,L,
451,73,31,10,3,36,44,600,['n'],1,right,['2'],5,128,[-0.12557958],97,44,hard,minus,dotcolour,beta,,,28,18,V,L,
452,74,32,10,3,27,53,618,['n'],1,right,['2'],5,163,[-0.0903179],82,53,easy,minus,dotcolour,beta,,,28,18,V,L,
453,75,33,10,3,36,44,901,['n'],1,right,['2'],5,74,[-0.05870659],55,44,hard,minus,dotcolour,beta,,,28,18,V,L,
454,76,34,10,3,27,53,634,['n'],1,right,['2'],5,655,[-0.19926606],96,53,easy,minus,dotcolour,beta,,,28,18,V,L,
455,77,35,10,3,44,36,583,['n'],0,left,['2'],5,142,[-0.11281245],94,44,hard,minus,dotcolour,beta,,,28,18,V,L,
456,78,36,10,3,33,47,483,['n'],1,right,['2'],5,143,[-0.08303065],79,47,medium,minus,dotcolour,beta,,,28,18,V,L,
457,79,37,10,3,47,33,767,['c'],1,left,['2'],5,91,[0.11067855],96,47,medium,minus,dotcolour,beta,,,28,18,V,L,
458,80,38,10,3,47,33,751,['c'],1,left,['2'],5,138,[0.09309114],86,47,medium,minus,dotcolour,beta,,,28,18,V,L,
459,81,39,10,3,44,36,916,['c'],1,left,['2'],5,122,[0.10582545],93,44,hard,minus,dotcolour,beta,,,28,18,V,L,
460,82,40,10,3,53,27,350,['c'],1,left,['2'],5,696,[0.29942169],99,53,easy,minus,dotcolour,beta,,,28,18,V,L,
461,83,41,10,3,33,47,516,['n'],1,right,['2'],5,129,[-0.05675555],52,47,medium,minus,dotcolour,beta,,,28,18,V,L,
462,84,0,11,3,33,47,801,['n'],1,right,['2'],5,101,[-0.08167904],81,47,medium,minus,dotcolour,beta,,,28,18,V,L,
463,85,1,11,3,44,36,1234,['c'],1,left,['2'],5,161,[0.15240318],99,44,hard,minus,dotcolour,beta,,,28,18,V,L,
464,86,2,11,3,27,53,1200,['n'],1,right,['3'],4,276,[-0.19058056],99,53,easy,minus,dotcolour,beta,,,28,18,V,L,
465,87,3,11,3,53,27,767,['n'],0,left,['2'],5,155,[-0.07488845],71,53,easy,minus,dotcolour,beta,,,28,18,V,L,
466,88,4,11,3,47,33,783,['c'],1,left,['2'],5,103,[0.11229203],96,47,medium,minus,dotcolour,beta,,,28,18,V,L,
467,89,5,11,3,44,36,933,['n'],0,left,['2'],5,135,[-0.01084909],10,44,hard,minus,dotcolour,beta,,,28,18,V,L,
468,90,6,11,3,27,53,600,['n'],1,right,['2'],5,131,[-0.06499673],62,53,easy,minus,dotcolour,beta,,,28,18,V,L,
469,91,7,11,3,44,36,634,['c'],1,left,['2'],5,214,[0.06167525],56,44,hard,minus,dotcolour,beta,,,28,18,V,L,
470,92,8,11,3,33,47,634,['n'],1,right,['2'],5,61,[-0.04644939],34,47,medium,minus,dotcolour,beta,,,28,18,V,L,
471,93,9,11,3,36,44,534,['n'],1,right,['2'],5,110,[-0.10781704],94,44,hard,minus,dotcolour,beta,,,28,18,V,L,
472,94,10,11,3,53,27,833,['c'],1,left,['2'],5,82,[0.06602981],66,53,easy,minus,dotcolour,beta,,,28,18,V,L,
473,95,11,11,3,44,36,734,['n'],0,left,['2'],5,58,[-0.04835593],37,44,hard,minus,dotcolour,beta,,,28,18,V,L,
474,96,12,11,3,36,44,800,['n'],1,right,['1'],6,130,[-0.05462325],49,44,hard,minus,dotcolour,beta,,,28,18,V,L,
475,97,13,11,3,27,53,551,['n'],1,right,['1'],6,247,[-0.08680505],76,53,easy,minus,dotcolour,beta,,,28,18,V,L,
476,98,14,11,3,44,36,949,['c'],1,left,['2'],5,184,[0.08157993],75,44,hard,minus,dotcolour,beta,,,28,18,V,L,
477,99,15,11,3,33,47,899,['c'],0,right,['2'],5,111,[0.0864187],84,47,medium,minus,dotcolour,beta,,,28,18,V,L,
478,100,16,11,3,27,53,633,['n'],1,right,['2'],5,146,[-0.02882593],22,53,easy,minus,dotcolour,beta,,,28,18,V,L,
479,101,17,11,3,47,33,934,['c'],1,left,['1'],6,208,[0.03927232],34,47,medium,minus,dotcolour,beta,,,28,18,V,L,
480,102,18,11,3,47,33,650,['c'],1,left,['2'],5,55,[0.09475558],95,47,medium,minus,dotcolour,beta,,,28,18,V,L,
481,103,19,11,3,33,47,567,['n'],1,right,['2'],5,95,[-0.05701776],52,47,medium,minus,dotcolour,beta,,,28,18,V,L,
482,104,20,11,3,53,27,834,['c'],1,left,['3'],4,35,[0.03992016],18,53,easy,minus,dotcolour,beta,,,28,18,V,L,
483,105,21,11,3,44,36,750,['c'],1,left,['2'],5,157,[0.01180146],12,44,hard,minus,dotcolour,beta,,,28,18,V,L,
484,106,22,11,3,36,44,734,['c'],0,right,['2'],5,899,[-0.07011004],8,44,hard,minus,dotcolour,beta,,,28,18,V,L,
485,107,23,11,3,27,53,550,['n'],1,right,['2'],5,66,[-0.07243122],77,53,easy,minus,dotcolour,beta,,,28,18,V,L,
486,108,24,11,3,36,44,1134,['c'],0,right,['2'],5,147,[0.08853397],82,44,hard,minus,dotcolour,beta,,,28,18,V,L,
487,109,25,11,3,47,33,667,['c'],1,left,['2'],5,60,[0.04701444],35,47,medium,minus,dotcolour,beta,,,28,18,V,L,
488,110,26,11,3,27,53,1033,['n'],1,right,['2'],5,313,[-0.14585758],95,53,easy,minus,dotcolour,beta,,,28,18,V,L,
489,111,27,11,3,47,33,717,['c'],1,left,['2'],5,281,[0.01506728],20,47,medium,minus,dotcolour,beta,,,28,18,V,L,
490,112,28,11,3,36,44,517,['n'],1,right,['2'],5,163,[-0.07871327],74,44,hard,minus,dotcolour,beta,,,28,18,V,L,
491,113,29,11,3,53,27,1200,['c'],1,left,['1'],6,213,[0.10487536],87,53,easy,minus,dotcolour,beta,,,28,18,V,L,
492,114,30,11,3,44,36,667,['n'],0,left,['0'],1,995,[-0.08210952],62,44,hard,minus,dotcolour,beta,,,28,18,V,L,
493,115,31,11,3,33,47,800,['n'],1,right,['1'],6,125,[-0.1562815],99,47,medium,minus,dotcolour,beta,,,28,18,V,L,
494,116,32,11,3,27,53,650,['n'],1,right,['1'],6,119,[-0.01812126],12,53,easy,minus,dotcolour,beta,,,28,18,V,L,
495,117,33,11,3,33,47,534,['n'],1,right,['1'],6,158,[-0.05374895],48,47,medium,minus,dotcolour,beta,,,28,18,V,L,
496,118,34,11,3,36,44,583,['n'],1,right,['1'],6,41,[-0.0437533],26,44,hard,minus,dotcolour,beta,,,28,18,V,L,
497,119,35,11,3,47,33,1334,['c'],1,left,['1'],6,1068,[0.30689026],99,47,medium,minus,dotcolour,beta,,,28,18,V,L,
498,120,36,11,3,33,47,600,['n'],1,right,['1'],6,137,[-0.01103062],10,47,medium,minus,dotcolour,beta,,,28,18,V,L,
499,121,37,11,3,47,33,1050,['c'],1,left,['2'],5,155,[0.05517979],50,47,medium,minus,dotcolour,beta,,,28,18,V,L,
500,122,38,11,3,53,27,917,['c'],1,left,['2'],5,114,[0.06470364],62,53,easy,minus,dotcolour,beta,,,28,18,V,L,
501,123,39,11,3,53,27,901,['c'],1,left,['1'],6,75,[0.06317518],62,53,easy,minus,dotcolour,beta,,,28,18,V,L,
502,124,40,11,3,53,27,783,['c'],1,left,['1'],6,65,[0.08014049],85,53,easy,minus,dotcolour,beta,,,28,18,V,L,
503,125,41,11,3,36,44,817,['n'],1,right,['1'],6,135,[-0.06874178],66,44,hard,minus,dotcolour,beta,,,28,18,V,L,
504,0,0,12,4,44,36,1018,['c'],1,left,['2'],5,84,[0.07230981],100,44,hard,plus,dotcolour,beta,,,28,18,V,L,
505,1,1,12,4,53,27,750,['c'],1,left,['2'],5,116,[0.08955918],100,53,easy,plus,dotcolour,beta,,,28,18,V,L,
506,2,2,12,4,36,44,917,['c'],0,right,['2'],5,516,[0.05742935],94,44,hard,plus,dotcolour,beta,,,28,18,V,L,
507,3,3,12,4,27,53,617,['n'],1,right,['2'],5,96,[-0.08680383],100,53,easy,plus,dotcolour,beta,,,28,18,V,L,
508,4,4,12,4,36,44,900,['n'],1,right,['2'],5,98,[-0.0758223],100,44,hard,plus,dotcolour,beta,,,28,18,V,L,
509,5,5,12,4,36,44,883,['n'],1,right,['2'],5,484,[-0.17637635],100,44,hard,plus,dotcolour,beta,,,28,18,V,L,
510,6,6,12,4,44,36,583,['n'],0,left,['2'],5,130,[-0.10665361],100,44,hard,plus,dotcolour,beta,,,28,18,V,L,
511,7,7,12,4,53,27,833,['c'],1,left,['2'],5,117,[0.14061761],100,53,easy,plus,dotcolour,beta,,,28,18,V,L,
512,8,8,12,4,44,36,650,['n'],0,left,['2'],5,48,[-0.03817107],100,44,hard,plus,dotcolour,beta,,,28,18,V,L,
513,9,9,12,4,53,27,800,['c'],1,left,['2'],5,199,[0.16504618],100,53,easy,plus,dotcolour,beta,,,28,18,V,L,
514,10,10,12,4,44,36,583,['n'],0,left,['1'],6,162,[-0.07722763],100,44,hard,plus,dotcolour,beta,,,28,18,V,L,
515,11,11,12,4,33,47,551,['n'],1,right,['1'],6,102,[-0.10139663],100,47,medium,plus,dotcolour,beta,,,28,18,V,L,
516,12,12,12,4,44,36,1033,['c'],1,left,['2'],5,90,[0.10766928],100,44,hard,plus,dotcolour,beta,,,28,18,V,L,
517,13,13,12,4,33,47,799,['n'],1,right,['1'],6,256,[-0.02845349],95,47,medium,plus,dotcolour,beta,,,28,18,V,L,
518,14,14,12,4,27,53,616,['n'],1,right,['1'],6,118,[-0.16500234],100,53,easy,plus,dotcolour,beta,,,28,18,V,L,
519,15,15,12,4,27,53,567,['n'],1,right,['1'],6,100,[-0.13431877],100,53,easy,plus,dotcolour,beta,,,28,18,V,L,
520,16,16,12,4,47,33,783,['c'],1,left,['2'],5,106,[0.10657035],100,47,medium,plus,dotcolour,beta,,,28,18,V,L,
521,17,17,12,4,36,44,668,['c'],0,right,['2'],5,92,[0.06744308],100,44,hard,plus,dotcolour,beta,,,28,18,V,L,
522,18,18,12,4,47,33,1017,['c'],1,left,['2'],5,129,[0.07772672],100,47,medium,plus,dotcolour,beta,,,28,18,V,L,
523,19,19,12,4,47,33,633,['c'],1,left,['2'],5,756,[0.29584698],100,47,medium,plus,dotcolour,beta,,,28,18,V,L,
524,20,20,12,4,33,47,583,['c'],0,right,['2'],5,135,[0.17225527],100,47,medium,plus,dotcolour,beta,,,28,18,V,L,
525,21,21,12,4,53,27,1034,['c'],1,left,['2'],5,122,[0.13354072],100,53,easy,plus,dotcolour,beta,,,28,18,V,L,
526,22,22,12,4,47,33,600,['c'],1,left,['2'],5,23,[0.07491703],100,47,medium,plus,dotcolour,beta,,,28,18,V,L,
527,23,23,12,4,27,53,817,['n'],1,right,['1'],6,407,[-0.14043852],100,53,easy,plus,dotcolour,beta,,,28,18,V,L,
528,24,24,12,4,44,36,951,['c'],1,left,['2'],5,138,[0.03706846],99,44,hard,plus,dotcolour,beta,,,28,18,V,L,
529,25,25,12,4,33,47,900,['c'],0,right,['2'],5,9,[0.06891906],100,47,medium,plus,dotcolour,beta,,,28,18,V,L,
530,26,26,12,4,53,27,867,['c'],1,left,['2'],5,48,[0.07548502],100,53,easy,plus,dotcolour,beta,,,28,18,V,L,
531,27,27,12,4,33,47,800,['n'],1,right,['2'],5,55,[-0.0628664],100,47,medium,plus,dotcolour,beta,,,28,18,V,L,
532,28,28,12,4,36,44,951,['n'],1,right,['2'],5,504,[-0.18510357],100,44,hard,plus,dotcolour,beta,,,28,18,V,L,
533,29,29,12,4,47,33,850,['c'],1,left,['2'],5,19,[0.05456539],100,47,medium,plus,dotcolour,beta,,,28,18,V,L,
534,30,30,12,4,36,44,1500,['c'],0,right,['2'],5,96,[0.08079514],100,44,hard,plus,dotcolour,beta,,,28,18,V,L,
535,31,31,12,4,27,53,751,['n'],1,right,['2'],5,87,[-0.12936807],100,53,easy,plus,dotcolour,beta,,,28,18,V,L,
536,32,32,12,4,53,27,700,['c'],1,left,['2'],5,26,[0.06895541],100,53,easy,plus,dotcolour,beta,,,28,18,V,L,
537,33,33,12,4,27,53,833,['n'],1,right,['2'],5,88,[-0.08570865],100,53,easy,plus,dotcolour,beta,,,28,18,V,L,
538,34,34,12,4,44,36,734,['c'],1,left,['2'],5,72,[0.08313578],100,44,hard,plus,dotcolour,beta,,,28,18,V,L,
539,35,35,12,4,33,47,1001,['c'],0,right,['2'],5,15,[0.07439007],100,47,medium,plus,dotcolour,beta,,,28,18,V,L,
540,36,36,12,4,36,44,800,['c'],0,right,['2'],5,120,[0.02454412],98,44,hard,plus,dotcolour,beta,,,28,18,V,L,
541,37,37,12,4,33,47,867,['n'],1,right,['2'],5,18,[-0.07163897],100,47,medium,plus,dotcolour,beta,,,28,18,V,L,
542,38,38,12,4,47,33,1284,['c'],1,left,['2'],5,79,[0.03473574],100,47,medium,plus,dotcolour,beta,,,28,18,V,L,
543,39,39,12,4,27,53,649,['n'],1,right,['2'],5,99,[-0.12803995],100,53,easy,plus,dotcolour,beta,,,28,18,V,L,
544,40,40,12,4,47,33,850,['c'],1,left,['2'],5,718,[0.02867954],86,47,medium,plus,dotcolour,beta,,,28,18,V,L,
545,41,41,12,4,53,27,783,['c'],1,left,['2'],5,84,[0.11386488],100,53,easy,plus,dotcolour,beta,,,28,18,V,L,
546,42,0,13,4,36,44,951,['c'],0,right,['2'],5,144,[0.05164008],99,44,hard,plus,dotcolour,beta,,,28,18,V,L,
547,43,1,13,4,36,44,634,['n'],1,right,['2'],5,50,[-0.04639316],100,44,hard,plus,dotcolour,beta,,,28,18,V,L,
548,44,2,13,4,53,27,566,['c'],1,left,['2'],5,91,[0.10732737],100,53,easy,plus,dotcolour,beta,,,28,18,V,L,
549,45,3,13,4,53,27,533,['c'],1,left,['2'],5,43,[0.087944],100,53,easy,plus,dotcolour,beta,,,28,18,V,L,
550,46,4,13,4,47,33,550,['c'],1,left,['2'],5,500,[0.09488106],98,47,medium,plus,dotcolour,beta,,,28,18,V,L,
551,47,5,13,4,53,27,550,['c'],1,left,['2'],5,451,[0.0651257],96,53,easy,plus,dotcolour,beta,,,28,18,V,L,
552,48,6,13,4,44,36,617,['c'],1,left,['2'],5,410,[0.09513952],99,44,hard,plus,dotcolour,beta,,,28,18,V,L,
553,49,7,13,4,27,53,617,['n'],1,right,['2'],5,75,[-0.07411974],100,53,easy,plus,dotcolour,beta,,,28,18,V,L,
554,50,8,13,4,27,53,783,['n'],1,right,['2'],5,168,[-0.09694425],100,53,easy,plus,dotcolour,beta,,,28,18,V,L,
555,51,9,13,4,33,47,633,['n'],1,right,['2'],5,74,[-0.03067651],100,47,medium,plus,dotcolour,beta,,,28,18,V,L,
556,52,10,13,4,33,47,566,['c'],0,right,['2'],5,473,[-0.00133305],81,47,medium,plus,dotcolour,beta,,,28,18,V,L,
557,53,11,13,4,27,53,450,['n'],1,right,['2'],5,14,[-0.0531612],100,53,easy,plus,dotcolour,beta,,,28,18,V,L,
558,54,12,13,4,53,27,750,['c'],1,left,['1'],6,128,[0.1316743],100,53,easy,plus,dotcolour,beta,,,28,18,V,L,
559,55,13,13,4,44,36,1000,['c'],1,left,['1'],6,100,[0.08352391],100,44,hard,plus,dotcolour,beta,,,28,18,V,L,
560,56,14,13,4,33,47,650,['n'],1,right,['1'],6,159,[-0.0764348],100,47,medium,plus,dotcolour,beta,,,28,18,V,L,
561,57,15,13,4,47,33,783,['c'],1,left,['1'],6,75,[0.13750471],100,47,medium,plus,dotcolour,beta,,,28,18,V,L,
562,58,16,13,4,44,36,917,['n'],0,left,['1'],6,108,[-0.0402945],99,44,hard,plus,dotcolour,beta,,,28,18,V,L,
563,59,17,13,4,44,36,717,['c'],1,left,['2'],5,61,[0.11020015],100,44,hard,plus,dotcolour,beta,,,28,18,V,L,
564,60,18,13,4,33,47,600,['n'],1,right,['1'],6,131,[-0.10986279],100,47,medium,plus,dotcolour,beta,,,28,18,V,L,
565,61,19,13,4,36,44,650,['n'],1,right,['2'],5,77,[-0.10121161],100,44,hard,plus,dotcolour,beta,,,28,18,V,L,
566,62,20,13,4,47,33,650,['c'],1,left,['2'],5,89,[0.08042204],100,47,medium,plus,dotcolour,beta,,,28,18,V,L,
567,63,21,13,4,47,33,617,['n'],0,left,['2'],5,327,[-0.02758802],93,47,medium,plus,dotcolour,beta,,,28,18,V,L,
568,64,22,13,4,47,33,683,['c'],1,left,['2'],5,79,[0.07470253],100,47,medium,plus,dotcolour,beta,,,28,18,V,L,
569,65,23,13,4,33,47,500,['n'],1,right,['2'],5,193,[-0.12583256],100,47,medium,plus,dotcolour,beta,,,28,18,V,L,
570,66,24,13,4,27,53,651,['n'],1,right,['2'],5,104,[-0.09621314],100,53,easy,plus,dotcolour,beta,,,28,18,V,L,
571,67,25,13,4,36,44,600,['n'],1,right,['2'],5,94,[-0.05790497],100,44,hard,plus,dotcolour,beta,,,28,18,V,L,
572,68,26,13,4,36,44,1366,['c'],0,right,['2'],5,532,[0.09206478],97,44,hard,plus,dotcolour,beta,,,28,18,V,L,
573,69,27,13,4,27,53,733,['n'],1,right,['2'],5,76,[-0.06331543],100,53,easy,plus,dotcolour,beta,,,28,18,V,L,
574,70,28,13,4,44,36,584,['n'],0,left,['2'],5,106,[-0.11602832],100,44,hard,plus,dotcolour,beta,,,28,18,V,L,
575,71,29,13,4,27,53,651,['n'],1,right,['2'],5,70,[-0.05776462],100,53,easy,plus,dotcolour,beta,,,28,18,V,L,
576,72,30,13,4,33,47,616,['c'],0,right,['2'],5,27,[0.06071996],100,47,medium,plus,dotcolour,beta,,,28,18,V,L,
577,73,31,13,4,44,36,850,['c'],1,left,['2'],5,89,[0.09993315],100,44,hard,plus,dotcolour,beta,,,28,18,V,L,
578,74,32,13,4,36,44,817,['c'],0,right,['2'],5,110,[0.08205378],100,44,hard,plus,dotcolour,beta,,,28,18,V,L,
579,75,33,13,4,27,53,967,['n'],1,right,['2'],5,108,[-0.03468331],99,53,easy,plus,dotcolour,beta,,,28,18,V,L,
580,76,34,13,4,47,33,650,['c'],1,left,['2'],5,23,[0.08430829],100,47,medium,plus,dotcolour,beta,,,28,18,V,L,
581,77,35,13,4,47,33,800,['c'],1,left,['2'],5,97,[0.10302375],100,47,medium,plus,dotcolour,beta,,,28,18,V,L,
582,78,36,13,4,33,47,817,['n'],1,right,['2'],5,101,[-0.04198654],100,47,medium,plus,dotcolour,beta,,,28,18,V,L,
583,79,37,13,4,53,27,817,['c'],1,left,['2'],5,73,[0.08506313],100,53,easy,plus,dotcolour,beta,,,28,18,V,L,
584,80,38,13,4,53,27,749,['c'],1,left,['2'],5,50,[0.05496122],100,53,easy,plus,dotcolour,beta,,,28,18,V,L,
585,81,39,13,4,44,36,634,['c'],1,left,['2'],5,703,[0.05876564],92,44,hard,plus,dotcolour,beta,,,28,18,V,L,
586,82,40,13,4,36,44,782,['n'],1,right,['2'],5,93,[-0.04495129],100,44,hard,plus,dotcolour,beta,,,28,18,V,L,
587,83,41,13,4,53,27,666,['c'],1,left,['2'],5,111,[0.14495205],100,53,easy,plus,dotcolour,beta,,,28,18,V,L,
588,84,0,14,4,44,36,767,['c'],1,left,['2'],5,98,[0.12195668],100,44,hard,plus,dotcolour,beta,,,28,18,V,L,
589,85,1,14,4,27,53,717,['n'],1,right,['2'],5,51,[-0.08072357],100,53,easy,plus,dotcolour,beta,,,28,18,V,L,
590,86,2,14,4,36,44,967,['c'],0,right,['2'],5,35,[0.08555537],100,44,hard,plus,dotcolour,beta,,,28,18,V,L,
591,87,3,14,4,27,53,667,['n'],1,right,['2'],5,73,[-0.07283504],100,53,easy,plus,dotcolour,beta,,,28,18,V,L,
592,88,4,14,4,33,47,517,['n'],1,right,['2'],5,35,[-0.12973405],100,47,medium,plus,dotcolour,beta,,,28,18,V,L,
593,89,5,14,4,44,36,883,['c'],1,left,['2'],5,40,[0.06711512],100,44,hard,plus,dotcolour,beta,,,28,18,V,L,
594,90,6,14,4,47,33,750,['c'],1,left,['2'],5,49,[0.09902119],100,47,medium,plus,dotcolour,beta,,,28,18,V,L,
595,91,7,14,4,36,44,550,['n'],1,right,['2'],5,43,[-0.03325994],100,44,hard,plus,dotcolour,beta,,,28,18,V,L,
596,92,8,14,4,47,33,650,['c'],1,left,['2'],5,9,[0.07859782],100,47,medium,plus,dotcolour,beta,,,28,18,V,L,
597,93,9,14,4,53,27,533,['c'],1,left,['2'],5,12,[0.07461686],100,53,easy,plus,dotcolour,beta,,,28,18,V,L,
598,94,10,14,4,47,33,833,['c'],1,left,['2'],5,3,[0.06384513],100,47,medium,plus,dotcolour,beta,,,28,18,V,L,
599,95,11,14,4,33,47,634,['n'],1,right,['2'],5,163,[-0.04588231],99,47,medium,plus,dotcolour,beta,,,28,18,V,L,
600,96,12,14,4,53,27,549,['n'],0,left,['0'],1,1664,[0.02773019],60,53,easy,plus,dotcolour,beta,,,28,18,V,L,
601,97,13,14,4,44,36,1033,['c'],1,left,['2'],5,13,[0.06766272],100,44,hard,plus,dotcolour,beta,,,28,18,V,L,
602,98,14,14,4,53,27,1100,['c'],1,left,['1'],6,1857,[0.36820877],100,53,easy,plus,dotcolour,beta,,,28,18,V,L,
603,99,15,14,4,36,44,766,['c'],0,right,['2'],5,218,[0.14080621],100,44,hard,plus,dotcolour,beta,,,28,18,V,L,
604,100,16,14,4,44,36,1033,['c'],1,left,['1'],6,248,[0.01481949],93,44,hard,plus,dotcolour,beta,,,28,18,V,L,
605,101,17,14,4,36,44,700,['n'],1,right,['1'],6,124,[-0.06893038],100,44,hard,plus,dotcolour,beta,,,28,18,V,L,
606,102,18,14,4,44,36,600,['c'],1,left,['2'],5,24,[0.04008313],100,44,hard,plus,dotcolour,beta,,,28,18,V,L,
607,103,19,14,4,53,27,634,['c'],1,left,['2'],5,95,[0.14868933],100,53,easy,plus,dotcolour,beta,,,28,18,V,L,
608,104,20,14,4,44,36,817,['c'],1,left,['2'],5,108,[0.04503079],100,44,hard,plus,dotcolour,beta,,,28,18,V,L,
609,105,21,14,4,33,47,665,['n'],1,right,['1'],6,182,[-0.07415478],100,47,medium,plus,dotcolour,beta,,,28,18,V,L,
610,106,22,14,4,36,44,650,['c'],0,right,['2'],5,54,[0.07676943],100,44,hard,plus,dotcolour,beta,,,28,18,V,L,
611,107,23,14,4,33,47,550,['c'],0,right,['2'],5,152,[0.08712717],100,47,medium,plus,dotcolour,beta,,,28,18,V,L,
612,108,24,14,4,27,53,550,['n'],1,right,['2'],5,252,[-0.1754811],100,53,easy,plus,dotcolour,beta,,,28,18,V,L,
613,109,25,14,4,47,33,867,['c'],1,left,['2'],5,89,[0.07986285],100,47,medium,plus,dotcolour,beta,,,28,18,V,L,
614,110,26,14,4,36,44,599,['n'],1,right,['2'],5,87,[-0.02708085],99,44,hard,plus,dotcolour,beta,,,28,18,V,L,
615,111,27,14,4,33,47,650,['n'],1,right,['2'],5,59,[-0.09880484],100,47,medium,plus,dotcolour,beta,,,28,18,V,L,
616,112,28,14,4,27,53,667,['n'],1,right,['2'],5,15,[-0.06590606],100,53,easy,plus,dotcolour,beta,,,28,18,V,L,
617,113,29,14,4,27,53,501,['n'],1,right,['2'],5,44,[-0.09366309],100,53,easy,plus,dotcolour,beta,,,28,18,V,L,
618,114,30,14,4,27,53,449,['n'],1,right,['2'],5,73,[-0.08888302],100,53,easy,plus,dotcolour,beta,,,28,18,V,L,
619,115,31,14,4,47,33,1234,['c'],1,left,['2'],5,198,[0.12510231],100,47,medium,plus,dotcolour,beta,,,28,18,V,L,
620,116,32,14,4,53,27,734,['c'],1,left,['2'],5,82,[0.10386057],100,53,easy,plus,dotcolour,beta,,,28,18,V,L,
621,117,33,14,4,33,47,617,['n'],1,right,['2'],5,576,[-0.32309904],100,47,medium,plus,dotcolour,beta,,,28,18,V,L,
622,118,34,14,4,33,47,584,['n'],1,right,['2'],5,75,[-0.11774078],100,47,medium,plus,dotcolour,beta,,,28,18,V,L,
623,119,35,14,4,47,33,950,['c'],1,left,['2'],5,27,[0.08224418],100,47,medium,plus,dotcolour,beta,,,28,18,V,L,
624,120,36,14,4,44,36,751,['c'],1,left,['2'],5,108,[0.15582911],100,44,hard,plus,dotcolour,beta,,,28,18,V,L,
625,121,37,14,4,47,33,817,['c'],1,left,['2'],5,832,[0.10230577],96,47,medium,plus,dotcolour,beta,,,28,18,V,L,
626,122,38,14,4,53,27,685,['c'],1,left,['2'],5,126,[0.05968112],100,53,easy,plus,dotcolour,beta,,,28,18,V,L,
627,123,39,14,4,53,27,683,['c'],1,left,['2'],5,470,[0.23083102],100,53,easy,plus,dotcolour,beta,,,28,18,V,L,
628,124,40,14,4,36,44,816,['n'],1,right,['2'],5,132,[-0.07463356],100,44,hard,plus,dotcolour,beta,,,28,18,V,L,
629,125,41,14,4,27,53,800,['n'],1,right,['2'],5,88,[-0.09851069],100,53,easy,plus,dotcolour,beta,,,28,18,V,L,
630,0,0,15,5,33,47,651,['n'],1,right,['2'],5,115,[-0.06523182],63,47,medium,minus,dotcolour,beta,,,28,18,V,L,
631,1,1,15,5,44,36,799,['c'],1,left,['2'],5,40,[0.1000472],98,44,hard,minus,dotcolour,beta,,,28,18,V,L,
632,2,2,15,5,44,36,834,['c'],1,left,['2'],5,134,[0.05178341],45,44,hard,minus,dotcolour,beta,,,28,18,V,L,
633,3,3,15,5,53,27,733,['c'],1,left,"['1', '2']",6,52,[0.09129304],94,53,easy,minus,dotcolour,beta,,,28,18,V,L,
634,4,4,15,5,27,53,717,['n'],1,right,['2'],5,79,[-0.07154546],74,53,easy,minus,dotcolour,beta,,,28,18,V,L,
635,5,5,15,5,27,53,584,['n'],1,right,['2'],5,78,[-0.06472545],64,53,easy,minus,dotcolour,beta,,,28,18,V,L,
636,6,6,15,5,47,33,1017,['c'],1,left,['1'],6,411,[0.11786668],85,47,medium,minus,dotcolour,beta,,,28,18,V,L,
637,7,7,15,5,44,36,784,['n'],0,left,['2'],5,84,[-0.04362486],32,44,hard,minus,dotcolour,beta,,,28,18,V,L,
638,8,8,15,5,44,36,733,['c'],1,left,['2'],5,45,[0.0654984],70,44,hard,minus,dotcolour,beta,,,28,18,V,L,
639,9,9,15,5,33,47,784,['n'],1,right,['2'],5,77,[-0.09778286],94,47,medium,minus,dotcolour,beta,,,28,18,V,L,
640,10,10,15,5,53,27,716,['c'],1,left,['2'],5,95,[0.15705927],100,53,easy,minus,dotcolour,beta,,,28,18,V,L,
641,11,11,15,5,27,53,700,['n'],1,right,['2'],5,160,[-0.11571783],94,53,easy,minus,dotcolour,beta,,,28,18,V,L,
642,12,12,15,5,36,44,1165,['c'],0,right,['2'],5,12,[0.06789873],88,44,hard,minus,dotcolour,beta,,,28,18,V,L,
643,13,13,15,5,47,33,717,['n'],0,left,['2'],5,479,[0.00454132],17,47,medium,minus,dotcolour,beta,,,28,18,V,L,
644,14,14,15,5,47,33,801,['c'],1,left,['2'],5,94,[0.06761324],67,47,medium,minus,dotcolour,beta,,,28,18,V,L,
645,15,15,15,5,36,44,568,['n'],1,right,['1'],6,141,[-0.06947304],66,44,hard,minus,dotcolour,beta,,,28,18,V,L,
646,16,16,15,5,36,44,617,['n'],1,right,['1'],6,183,[0.00250949],8,44,hard,minus,dotcolour,beta,,,28,18,V,L,
647,17,17,15,5,33,47,734,['n'],1,right,['2'],5,268,[-0.08658759],75,47,medium,minus,dotcolour,beta,,,28,18,V,L,
648,18,18,15,5,47,33,717,['c'],1,left,['2'],5,14,[0.07329436],94,47,medium,minus,dotcolour,beta,,,28,18,V,L,
649,19,19,15,5,44,36,717,['c'],1,left,['2'],5,627,[0.17131247],93,44,hard,minus,dotcolour,beta,,,28,18,V,L,
650,20,20,15,5,36,44,716,['n'],1,right,['2'],5,149,[-0.06167957],57,44,hard,minus,dotcolour,beta,,,28,18,V,L,
651,21,21,15,5,36,44,867,['n'],1,right,['2'],5,198,[-0.03447943],30,44,hard,minus,dotcolour,beta,,,28,18,V,L,
652,22,22,15,5,53,27,668,['c'],1,left,['2'],5,77,[0.10662792],96,53,easy,minus,dotcolour,beta,,,28,18,V,L,
653,23,23,15,5,33,47,734,['n'],1,right,['2'],5,133,[-0.10705143],93,47,medium,minus,dotcolour,beta,,,28,18,V,L,
654,24,24,15,5,47,33,600,['c'],1,left,['2'],5,81,[0.11748172],98,47,medium,minus,dotcolour,beta,,,28,18,V,L,
655,25,25,15,5,44,36,700,['c'],1,left,['2'],5,628,[-0.02883055],13,44,hard,minus,dotcolour,beta,,,28,18,V,L,
656,26,26,15,5,36,44,934,['n'],1,right,['2'],5,78,[-0.06194111],60,44,hard,minus,dotcolour,beta,,,28,18,V,L,
657,27,27,15,5,53,27,683,['c'],1,left,['2'],5,81,[0.05453556],48,53,easy,minus,dotcolour,beta,,,28,18,V,L,
658,28,28,15,5,53,27,684,['c'],1,left,['2'],5,451,[0.13824656],90,53,easy,minus,dotcolour,beta,,,28,18,V,L,
659,29,29,15,5,33,47,583,['n'],1,right,['2'],5,91,[-0.12256065],98,47,medium,minus,dotcolour,beta,,,28,18,V,L,
660,30,30,15,5,33,47,617,['n'],1,right,['2'],5,64,[-0.07010788],74,47,medium,minus,dotcolour,beta,,,28,18,V,L,
661,31,31,15,5,53,27,716,['c'],1,left,['2'],5,51,[0.05403156],47,53,easy,minus,dotcolour,beta,,,28,18,V,L,
662,32,32,15,5,27,53,633,['n'],1,right,['2'],5,17,[-0.0813241],97,53,easy,minus,dotcolour,beta,,,28,18,V,L,
663,33,33,15,5,33,47,567,['n'],1,right,['2'],5,59,[-0.08856948],92,47,medium,minus,dotcolour,beta,,,28,18,V,L,
664,34,34,15,5,47,33,700,['c'],1,left,['2'],5,101,[0.0641003],62,47,medium,minus,dotcolour,beta,,,28,18,V,L,
665,35,35,15,5,47,33,717,['c'],1,left,['2'],5,101,[0.1348082],99,47,medium,minus,dotcolour,beta,,,28,18,V,L,
666,36,36,15,5,27,53,634,['n'],1,right,['2'],5,90,[-0.07970345],81,53,easy,minus,dotcolour,beta,,,28,18,V,L,
667,37,37,15,5,53,27,667,['c'],1,left,['2'],5,45,[0.07423807],83,53,easy,minus,dotcolour,beta,,,28,18,V,L,
668,38,38,15,5,36,44,833,['c'],0,right,['2'],5,147,[0.02072466],16,44,hard,minus,dotcolour,beta,,,28,18,V,L,
669,39,39,15,5,27,53,600,['n'],1,right,['2'],5,174,[-0.13653539],97,53,easy,minus,dotcolour,beta,,,28,18,V,L,
670,40,40,15,5,27,53,618,['n'],1,right,['2'],5,136,[-0.12245413],96,53,easy,minus,dotcolour,beta,,,28,18,V,L,
671,41,41,15,5,44,36,667,['n'],0,left,['2'],5,177,[-0.03577222],30,44,hard,minus,dotcolour,beta,,,28,18,V,L,
672,42,0,16,5,33,47,667,['n'],1,right,['1'],6,154,[-0.12311066],96,47,medium,minus,dotcolour,beta,,,28,18,V,L,
673,43,1,16,5,44,36,783,['c'],1,left,['2'],5,78,[0.08175478],84,44,hard,minus,dotcolour,beta,,,28,18,V,L,
674,44,2,16,5,27,53,666,['n'],1,right,['1'],6,185,[-0.07865766],72,53,easy,minus,dotcolour,beta,,,28,18,V,L,
675,45,3,16,5,33,47,700,['n'],1,right,['2'],5,191,[-0.10379712],88,47,medium,minus,dotcolour,beta,,,28,18,V,L,
676,46,4,16,5,53,27,834,['c'],1,left,['2'],5,48,[0.09143302],95,53,easy,minus,dotcolour,beta,,,28,18,V,L,
677,47,5,16,5,53,27,834,['c'],1,left,['2'],5,198,[0.13181861],96,53,easy,minus,dotcolour,beta,,,28,18,V,L,
678,48,6,16,5,27,53,582,['n'],1,right,['2'],5,7,[-0.06973391],95,53,easy,minus,dotcolour,beta,,,28,18,V,L,
679,49,7,16,5,53,27,600,['c'],1,left,['2'],5,104,[0.0623655],59,53,easy,minus,dotcolour,beta,,,28,18,V,L,
680,50,8,16,5,33,47,633,['n'],1,right,['2'],5,44,[-0.0773264],87,47,medium,minus,dotcolour,beta,,,28,18,V,L,
681,51,9,16,5,44,36,733,['c'],1,left,['2'],5,142,[0.07783179],74,44,hard,minus,dotcolour,beta,,,28,18,V,L,
682,52,10,16,5,36,44,667,['c'],0,right,['2'],5,15,[0.07249827],92,44,hard,minus,dotcolour,beta,,,28,18,V,L,
683,53,11,16,5,47,33,650,['n'],0,left,['2'],5,149,[-0.01953024],16,47,medium,minus,dotcolour,beta,,,28,18,V,L,
684,54,12,16,5,36,44,783,['n'],1,right,['2'],5,114,[0.01662334],2,44,hard,minus,dotcolour,beta,,,28,18,V,L,
685,55,13,16,5,33,47,667,['n'],1,right,['2'],5,52,[-0.13088793],100,47,medium,minus,dotcolour,beta,,,28,18,V,L,
686,56,14,16,5,27,53,617,['n'],1,right,['2'],5,18,[-0.09588355],100,53,easy,minus,dotcolour,beta,,,28,18,V,L,
687,57,15,16,5,33,47,683,['n'],1,right,['2'],5,496,[-0.15601281],93,47,medium,minus,dotcolour,beta,,,28,18,V,L,
688,58,16,16,5,53,27,634,['c'],1,left,['2'],5,76,[0.13759292],100,53,easy,minus,dotcolour,beta,,,28,18,V,L,
689,59,17,16,5,47,33,617,['c'],1,left,['2'],5,89,[0.08207931],83,47,medium,minus,dotcolour,beta,,,28,18,V,L,
690,60,18,16,5,33,47,634,['n'],1,right,['2'],5,61,[-0.0417153],27,47,medium,minus,dotcolour,beta,,,28,18,V,L,
691,61,19,16,5,53,27,566,['c'],1,left,['2'],5,46,[0.06684486],72,53,easy,minus,dotcolour,beta,,,28,18,V,L,
692,62,20,16,5,53,27,567,['c'],1,left,['2'],5,22,[0.06786233],82,53,easy,minus,dotcolour,beta,,,28,18,V,L,
693,63,21,16,5,27,53,566,['n'],1,right,['2'],5,88,[-0.13249782],99,53,easy,minus,dotcolour,beta,,,28,18,V,L,
694,64,22,16,5,36,44,1067,['n'],1,right,['2'],5,28,[-0.05693919],54,44,hard,minus,dotcolour,beta,,,28,18,V,L,
695,65,23,16,5,47,33,684,['c'],1,left,['2'],5,128,[0.06236259],58,47,medium,minus,dotcolour,beta,,,28,18,V,L,
696,66,24,16,5,27,53,767,['n'],1,right,['2'],5,134,[-0.07542938],73,53,easy,minus,dotcolour,beta,,,28,18,V,L,
697,67,25,16,5,44,36,800,['c'],1,left,['2'],5,90,[0.08664277],87,44,hard,minus,dotcolour,beta,,,28,18,V,L,
698,68,26,16,5,53,27,783,['c'],1,left,['2'],5,72,[0.10694037],97,53,easy,minus,dotcolour,beta,,,28,18,V,L,
699,69,27,16,5,36,44,783,['c'],0,right,['2'],5,96,[0.07150066],72,44,hard,minus,dotcolour,beta,,,28,18,V,L,
700,70,28,16,5,36,44,617,['n'],1,right,['2'],5,140,[-0.07564121],72,44,hard,minus,dotcolour,beta,,,28,18,V,L,
701,71,29,16,5,44,36,716,['c'],1,left,['2'],5,60,[0.11385775],99,44,hard,minus,dotcolour,beta,,,28,18,V,L,
702,72,30,16,5,27,53,667,['n'],1,right,['2'],5,95,[-0.09867691],93,53,easy,minus,dotcolour,beta,,,28,18,V,L,
703,73,31,16,5,47,33,733,['c'],1,left,['2'],5,15,[0.05673105],54,47,medium,minus,dotcolour,beta,,,28,18,V,L,
704,74,32,16,5,47,33,667,['n'],0,left,['0'],1,902,[0.01190263],22,47,medium,minus,dotcolour,beta,,,28,18,V,L,
705,75,33,16,5,44,36,699,['c'],1,left,['2'],5,103,[0.08691609],85,44,hard,minus,dotcolour,beta,,,28,18,V,L,
706,76,34,16,5,47,33,850,['c'],1,left,['2'],5,233,[0.16226981],98,47,medium,minus,dotcolour,beta,,,28,18,V,L,
707,77,35,16,5,27,53,716,['n'],1,right,['2'],5,141,[-0.09341505],86,53,easy,minus,dotcolour,beta,,,28,18,V,L,
708,78,36,16,5,47,33,749,['c'],1,left,['2'],5,138,[0.11974272],96,47,medium,minus,dotcolour,beta,,,28,18,V,L,
709,79,37,16,5,36,44,800,['c'],0,right,['2'],5,158,[0.10660276],91,44,hard,minus,dotcolour,beta,,,28,18,V,L,
710,80,38,16,5,44,36,651,['c'],1,left,['2'],5,111,[0.09610411],90,44,hard,minus,dotcolour,beta,,,28,18,V,L,
711,81,39,16,5,36,44,834,['c'],0,right,['2'],5,498,[0.14538147],91,44,hard,minus,dotcolour,beta,,,28,18,V,L,
712,82,40,16,5,44,36,701,['c'],1,left,['2'],5,107,[0.06569694],64,44,hard,minus,dotcolour,beta,,,28,18,V,L,
713,83,41,16,5,33,47,650,['n'],1,right,['2'],5,102,[-0.06295837],60,47,medium,minus,dotcolour,beta,,,28,18,V,L,
714,84,0,17,5,33,47,717,['n'],1,right,['2'],5,132,[-0.09689905],89,47,medium,minus,dotcolour,beta,,,28,18,V,L,
715,85,1,17,5,53,27,634,['c'],1,left,['2'],5,151,[0.15979813],99,53,easy,minus,dotcolour,beta,,,28,18,V,L,
716,86,2,17,5,36,44,667,['c'],0,right,['2'],5,79,[-0.00216829],2,44,hard,minus,dotcolour,beta,,,28,18,V,L,
717,87,3,17,5,53,27,684,['c'],1,left,['2'],5,114,[0.12566321],98,53,easy,minus,dotcolour,beta,,,28,18,V,L,
718,88,4,17,5,36,44,567,['c'],0,right,['2'],5,88,[0.07905087],81,44,hard,minus,dotcolour,beta,,,28,18,V,L,
719,89,5,17,5,33,47,666,['c'],0,right,['2'],5,123,[0.03193606],23,47,medium,minus,dotcolour,beta,,,28,18,V,L,
720,90,6,17,5,47,33,317,['n'],0,left,['2'],5,99,[-0.07575096],76,47,medium,minus,dotcolour,beta,,,28,18,V,L,
721,91,7,17,5,27,53,1616,['n'],1,right,['2'],5,151,[-0.13896061],98,53,easy,minus,dotcolour,beta,,,28,18,V,L,
722,92,8,17,5,44,36,634,['c'],1,left,['2'],5,81,[0.03946333],27,44,hard,minus,dotcolour,beta,,,28,18,V,L,
723,93,9,17,5,44,36,383,['n'],0,left,['2'],5,81,[-0.10798825],96,44,hard,minus,dotcolour,beta,,,28,18,V,L,
724,94,10,17,5,53,27,633,['c'],1,left,['2'],5,173,[0.10888959],91,53,easy,minus,dotcolour,beta,,,28,18,V,L,
725,95,11,17,5,33,47,618,['n'],1,right,['2'],5,86,[-0.04669681],37,47,medium,minus,dotcolour,beta,,,28,18,V,L,
726,96,12,17,5,27,53,233,['c'],0,right,['2'],5,347,[0.08303587],70,53,easy,minus,dotcolour,beta,,,28,18,V,L,
727,97,13,17,5,47,33,733,['c'],1,left,['2'],5,25,[0.06473132],74,47,medium,minus,dotcolour,beta,,,28,18,V,L,
728,98,14,17,5,36,44,551,['n'],1,right,['2'],5,59,[-0.09402053],95,44,hard,minus,dotcolour,beta,,,28,18,V,L,
729,99,15,17,5,44,36,550,['c'],1,left,['2'],5,163,[0.00828148],11,44,hard,minus,dotcolour,beta,,,28,18,V,L,
730,100,16,17,5,44,36,967,['n'],0,left,['0'],1,624,[-0.09834502],73,44,hard,minus,dotcolour,beta,,,28,18,V,L,
731,101,17,17,5,33,47,784,['n'],1,right,['2'],5,121,[-0.12672716],98,47,medium,minus,dotcolour,beta,,,28,18,V,L,
732,102,18,17,5,47,33,950,['c'],1,left,['2'],5,175,[0.02032382],18,47,medium,minus,dotcolour,beta,,,28,18,V,L,
733,103,19,17,5,36,44,666,['n'],1,right,['2'],5,686,[0.02576746],15,44,hard,minus,dotcolour,beta,,,28,18,V,L,
734,104,20,17,5,44,36,766,['n'],0,left,['2'],5,14,[-0.0645364],80,44,hard,minus,dotcolour,beta,,,28,18,V,L,
735,105,21,17,5,44,36,783,['c'],1,left,['2'],5,87,[0.09602449],92,44,hard,minus,dotcolour,beta,,,28,18,V,L,
736,106,22,17,5,53,27,933,['n'],0,left,['2'],5,208,[-0.0297542],27,53,easy,minus,dotcolour,beta,,,28,18,V,L,
737,107,23,17,5,36,44,834,['n'],1,right,['2'],5,55,[-0.13419485],100,44,hard,minus,dotcolour,beta,,,28,18,V,L,
738,108,24,17,5,53,27,735,['c'],1,left,['2'],5,153,[0.06782142],64,53,easy,minus,dotcolour,beta,,,28,18,V,L,
739,109,25,17,5,53,27,916,['c'],1,left,['2'],5,128,[0.06431471],61,53,easy,minus,dotcolour,beta,,,28,18,V,L,
740,110,26,17,5,36,44,717,['c'],0,right,['2'],5,55,[0.09997356],97,44,hard,minus,dotcolour,beta,,,28,18,V,L,
741,111,27,17,5,27,53,534,['c'],0,right,['2'],5,72,[0.07679367],81,53,easy,minus,dotcolour,beta,,,28,18,V,L,
742,112,28,17,5,33,47,634,['n'],1,right,['2'],5,102,[-0.0567784],52,47,medium,minus,dotcolour,beta,,,28,18,V,L,
743,113,29,17,5,47,33,734,['c'],1,left,['2'],5,118,[0.07797677],76,47,medium,minus,dotcolour,beta,,,28,18,V,L,
744,114,30,17,5,47,33,766,['c'],1,left,['2'],5,140,[0.05527266],50,47,medium,minus,dotcolour,beta,,,28,18,V,L,
745,115,31,17,5,33,47,750,['n'],1,right,['2'],5,154,[-0.10022404],89,47,medium,minus,dotcolour,beta,,,28,18,V,L,
746,116,32,17,5,27,53,599,['n'],1,right,['2'],5,28,[-0.03688513],12,53,easy,minus,dotcolour,beta,,,28,18,V,L,
747,117,33,17,5,27,53,583,['n'],1,right,['2'],5,149,[-0.11717841],95,53,easy,minus,dotcolour,beta,,,28,18,V,L,
748,118,34,17,5,36,44,766,['c'],0,right,['2'],5,66,[0.08935589],91,44,hard,minus,dotcolour,beta,,,28,18,V,L,
749,119,35,17,5,27,53,717,['n'],1,right,['2'],5,108,[-0.09059761],87,53,easy,minus,dotcolour,beta,,,28,18,V,L,
750,120,36,17,5,53,27,800,['c'],1,left,['2'],5,113,[0.07969327],78,53,easy,minus,dotcolour,beta,,,28,18,V,L,
751,121,37,17,5,33,47,584,['c'],0,right,['2'],5,62,[0.04248918],28,47,medium,minus,dotcolour,beta,,,28,18,V,L,
752,122,38,17,5,47,33,633,['c'],1,left,['2'],5,611,[0.19107593],96,47,medium,minus,dotcolour,beta,,,28,18,V,L,
753,123,39,17,5,27,53,600,['n'],1,right,['2'],5,116,[-0.05548456],50,53,easy,minus,dotcolour,beta,,,28,18,V,L,
754,124,40,17,5,44,36,650,['c'],1,left,['2'],5,79,[0.06201093],60,44,hard,minus,dotcolour,beta,,,28,18,V,L,
755,125,41,17,5,47,33,734,['c'],1,left,['2'],5,63,[0.04521861],32,47,medium,minus,dotcolour,beta,,,28,18,V,L,
,,,,,,,,,,,,,,,,,,,,,1,"soms was ik erg zeker van mijn antwoord en gaf de computer aan dat het fout was
",28,18,V,L,
,,,,,,,,,,,,,,,,,,,,,2,['f'],28,18,V,L,
,,,,,,,,,,,,,,,,,,,,,3,['d'],28,18,V,L,
,,,,,,,,,,,,,,,,,,,,,5,[],28,18,V,L,
