trial,withinphasetrial,withinblocktrial,block,phase,dotsLeft,dotsRight,rt,resp,cor,cresp,conf_press,cj,RTconf,ev,fb,diff,difflevel,condition,task,manip,questionID,questionResp,sub,age,gender,handedness,
0,0,0,0,0,36,44,4300,['c'],0,right,['3'],3,2958,[0.15015706],69,44,hard,minus,dotcolour,alfa,,,103,18,M,R,
1,1,1,0,0,44,36,2033,['c'],1,left,['9'],5,1423,[0.11936341],71,44,hard,minus,dotcolour,alfa,,,103,18,M,R,
2,2,2,0,0,33,47,4017,['c'],0,right,['8'],4,2390,[-0.14169852],30,47,medium,minus,dotcolour,alfa,,,103,18,M,R,
3,3,3,0,0,47,33,3334,['n'],0,left,['8'],4,8154,[0.46413544],19,47,medium,minus,dotcolour,alfa,,,103,18,M,R,
4,4,4,0,0,27,53,5066,['c'],0,right,['3'],3,1928,[-0.48306631],4,53,easy,minus,dotcolour,alfa,,,103,18,M,R,
5,5,5,0,0,27,53,2234,['n'],1,right,['9'],5,1897,[-0.42043983],94,53,easy,minus,dotcolour,alfa,,,103,18,M,R,
6,6,6,0,0,53,27,1250,['c'],1,left,['9'],5,1101,[0.29012482],92,53,easy,minus,dotcolour,alfa,,,103,18,M,R,
7,7,7,0,0,47,33,1568,['c'],1,left,['0'],6,699,[0.16150634],85,47,medium,minus,dotcolour,alfa,,,103,18,M,R,
8,8,8,0,0,53,27,1517,['c'],1,left,['8'],4,859,[0.2325467],91,53,easy,minus,dotcolour,alfa,,,103,18,M,R,
9,9,9,0,0,36,44,1200,['n'],1,right,['9'],5,2098,[-0.08665136],63,44,hard,minus,dotcolour,alfa,,,103,18,M,R,
10,10,10,0,0,44,36,1951,['c'],1,left,['9'],5,1089,[0.28416774],92,44,hard,minus,dotcolour,alfa,,,103,18,M,R,
11,11,11,0,0,47,33,1584,['c'],1,left,['9'],5,1423,[0.02729065],55,47,medium,minus,dotcolour,alfa,,,103,18,M,R,
12,12,12,0,0,36,44,1199,['n'],1,right,['3'],3,759,[0.08026838],30,44,hard,minus,dotcolour,alfa,,,103,18,M,R,
13,13,13,0,0,33,47,1433,['n'],1,right,['9'],5,1152,[-0.18698806],83,47,medium,minus,dotcolour,alfa,,,103,18,M,R,
14,14,14,0,0,44,36,1283,['c'],1,left,['9'],5,1376,[0.23519696],86,44,hard,minus,dotcolour,alfa,,,103,18,M,R,
15,15,15,0,0,27,53,1417,['n'],1,right,['0'],6,577,[-0.23761072],94,53,easy,minus,dotcolour,alfa,,,103,18,M,R,
16,16,16,0,0,36,44,2417,['c'],0,right,['8'],4,914,[-0.08222981],32,44,hard,minus,dotcolour,alfa,,,103,18,M,R,
17,17,17,0,0,47,33,2317,['n'],0,left,['3'],3,1458,[-0.16869183],78,47,medium,minus,dotcolour,alfa,,,103,18,M,R,
18,18,18,0,0,33,47,1100,['n'],1,right,['9'],5,421,[-0.16305473],91,47,medium,minus,dotcolour,alfa,,,103,18,M,R,
19,19,19,0,0,33,47,1601,['n'],1,right,['9'],5,677,[-0.18071122],88,47,medium,minus,dotcolour,alfa,,,103,18,M,R,
20,20,20,0,0,53,27,933,['c'],1,left,['9'],5,670,[0.3122364],97,53,easy,minus,dotcolour,alfa,,,103,18,M,R,
21,21,21,0,0,44,36,968,['c'],1,left,['0'],6,429,[0.04752314],66,44,hard,minus,dotcolour,alfa,,,103,18,M,R,
22,22,22,0,0,36,44,1134,['n'],1,right,['0'],6,935,[-0.06650723],65,44,hard,minus,dotcolour,alfa,,,103,18,M,R,
23,23,23,0,0,33,47,1284,['n'],1,right,['9'],5,247,[-0.08051757],81,47,medium,minus,dotcolour,alfa,,,103,18,M,R,
24,24,24,0,0,53,27,801,['c'],1,left,['9'],5,447,[-0.00081312],50,53,easy,minus,dotcolour,alfa,,,103,18,M,R,
25,25,25,0,0,47,33,1583,['c'],1,left,['9'],5,638,[0.06681347],68,47,medium,minus,dotcolour,alfa,,,103,18,M,R,
26,26,26,0,0,47,33,1534,['c'],1,left,['9'],5,841,[0.17826327],85,47,medium,minus,dotcolour,alfa,,,103,18,M,R,
27,27,27,0,0,36,44,1451,['c'],0,right,['2'],2,1742,[-0.00587913],49,44,hard,minus,dotcolour,alfa,,,103,18,M,R,
28,28,28,0,0,33,47,1734,['n'],1,right,['8'],4,940,[-0.14820909],80,47,medium,minus,dotcolour,alfa,,,103,18,M,R,
29,29,29,0,0,27,53,917,['n'],1,right,['0'],6,307,[-0.14942677],92,53,easy,minus,dotcolour,alfa,,,103,18,M,R,
30,30,30,0,0,44,36,1517,['c'],1,left,['8'],4,379,[0.15889052],91,44,hard,minus,dotcolour,alfa,,,103,18,M,R,
31,31,31,0,0,53,27,5434,['c'],1,left,['3'],3,1331,[0.35757811],94,53,easy,minus,dotcolour,alfa,,,103,18,M,R,
32,32,32,0,0,47,33,2918,['n'],0,left,['9'],5,522,[0.03101785],40,47,medium,minus,dotcolour,alfa,,,103,18,M,R,
33,33,33,0,0,27,53,2034,['n'],1,right,['9'],5,893,[-0.45342533],99,53,easy,minus,dotcolour,alfa,,,103,18,M,R,
34,34,34,0,0,53,27,1284,['c'],1,left,['9'],5,967,[0.15055635],80,53,easy,minus,dotcolour,alfa,,,103,18,M,R,
35,35,35,0,0,44,36,1317,['c'],1,left,['0'],6,1060,[0.14745905],78,44,hard,minus,dotcolour,alfa,,,103,18,M,R,
36,36,36,0,0,27,53,884,['n'],1,right,['9'],5,824,[-0.20999215],89,53,easy,minus,dotcolour,alfa,,,103,18,M,R,
37,37,37,0,0,44,36,2784,['c'],1,left,['8'],4,312,[0.15769894],93,44,hard,minus,dotcolour,alfa,,,103,18,M,R,
38,38,38,0,0,53,27,934,['c'],1,left,['8'],4,320,[0.12942085],89,53,easy,minus,dotcolour,alfa,,,103,18,M,R,
39,39,39,0,0,36,44,2417,['n'],1,right,['8'],4,772,[-0.12283217],78,44,hard,minus,dotcolour,alfa,,,103,18,M,R,
40,40,40,0,0,27,53,1217,['n'],1,right,['9'],5,389,[-0.00755317],53,53,easy,minus,dotcolour,alfa,,,103,18,M,R,
41,41,41,0,0,33,47,1351,['n'],1,right,['9'],5,849,[-0.17556171],85,47,medium,minus,dotcolour,alfa,,,103,18,M,R,
42,42,0,1,0,47,33,1234,['c'],1,left,['9'],5,1117,[0.13243038],76,47,medium,minus,dotcolour,alfa,,,103,18,M,R,
43,43,1,1,0,33,47,817,['n'],1,right,['9'],5,536,[-0.14254501],85,47,medium,minus,dotcolour,alfa,,,103,18,M,R,
44,44,2,1,0,27,53,934,['n'],1,right,['9'],5,983,[-0.14019203],78,53,easy,minus,dotcolour,alfa,,,103,18,M,R,
45,45,3,1,0,36,44,1400,['c'],0,right,['8'],4,321,[0.06845626],75,44,hard,minus,dotcolour,alfa,,,103,18,M,R,
46,46,4,1,0,47,33,2118,['c'],1,left,['8'],4,985,[0.33639233],95,47,medium,minus,dotcolour,alfa,,,103,18,M,R,
47,47,5,1,0,47,33,1234,['c'],1,left,['9'],5,577,[0.19691287],91,47,medium,minus,dotcolour,alfa,,,103,18,M,R,
48,48,6,1,0,53,27,901,['c'],1,left,['9'],5,287,[0.21108952],97,53,easy,minus,dotcolour,alfa,,,103,18,M,R,
49,49,7,1,0,33,47,834,['n'],1,right,['9'],5,227,[-0.09116806],85,47,medium,minus,dotcolour,alfa,,,103,18,M,R,
50,50,8,1,0,33,47,1668,['n'],1,right,['8'],4,649,[-0.09349539],74,47,medium,minus,dotcolour,alfa,,,103,18,M,R,
51,51,9,1,0,36,44,1167,['c'],0,right,['9'],5,362,[-0.00634868],48,44,hard,minus,dotcolour,alfa,,,103,18,M,R,
52,52,10,1,0,27,53,1217,['n'],1,right,['9'],5,276,[-0.02250308],60,53,easy,minus,dotcolour,alfa,,,103,18,M,R,
53,53,11,1,0,44,36,1217,['c'],1,left,['9'],5,249,[0.0343911],65,44,hard,minus,dotcolour,alfa,,,103,18,M,R,
54,54,12,1,0,27,53,2534,['n'],1,right,['8'],4,771,[-0.3048661],96,53,easy,minus,dotcolour,alfa,,,103,18,M,R,
55,55,13,1,0,27,53,1100,['n'],1,right,['9'],5,881,[-0.3374388],96,53,easy,minus,dotcolour,alfa,,,103,18,M,R,
56,56,14,1,0,44,36,3050,['n'],0,left,['8'],4,1165,[-0.15468349],78,44,hard,minus,dotcolour,alfa,,,103,18,M,R,
57,57,15,1,0,47,33,884,['c'],1,left,['9'],5,524,[0.02707358],58,47,medium,minus,dotcolour,alfa,,,103,18,M,R,
58,58,16,1,0,47,33,2567,['c'],1,left,['9'],5,633,[0.08279258],72,47,medium,minus,dotcolour,alfa,,,103,18,M,R,
59,59,17,1,0,27,53,718,['n'],1,right,['0'],6,636,[-0.14123678],83,53,easy,minus,dotcolour,alfa,,,103,18,M,R,
60,60,18,1,0,53,27,900,['c'],1,left,['0'],6,232,[0.11810698],90,53,easy,minus,dotcolour,alfa,,,103,18,M,R,
61,61,19,1,0,47,33,1334,['n'],0,left,['8'],4,667,[-0.09943376],75,47,medium,minus,dotcolour,alfa,,,103,18,M,R,
62,62,20,1,0,44,36,3684,['c'],1,left,['8'],4,734,[0.08582345],71,44,hard,minus,dotcolour,alfa,,,103,18,M,R,
63,63,21,1,0,36,44,1750,['n'],1,right,['9'],5,284,[-0.10528029],86,44,hard,minus,dotcolour,alfa,,,103,18,M,R,
64,64,22,1,0,53,27,884,['c'],1,left,['9'],5,198,[0.03045556],65,53,easy,minus,dotcolour,alfa,,,103,18,M,R,
65,65,23,1,0,36,44,1084,['n'],1,right,['8'],4,749,[-0.12266134],78,44,hard,minus,dotcolour,alfa,,,103,18,M,R,
66,66,24,1,0,53,27,884,['c'],1,left,['9'],5,493,[0.03563887],61,53,easy,minus,dotcolour,alfa,,,103,18,M,R,
67,67,25,1,0,44,36,934,['c'],1,left,['0'],6,381,[0.08710331],78,44,hard,minus,dotcolour,alfa,,,103,18,M,R,
68,68,26,1,0,36,44,1017,['n'],1,right,['9'],5,478,[-0.07760489],73,44,hard,minus,dotcolour,alfa,,,103,18,M,R,
69,69,27,1,0,33,47,1283,['c'],0,right,['8'],4,665,[-0.05874466],34,47,medium,minus,dotcolour,alfa,,,103,18,M,R,
70,70,28,1,0,27,53,1250,['n'],1,right,['9'],5,645,[-0.21733845],92,53,easy,minus,dotcolour,alfa,,,103,18,M,R,
71,71,29,1,0,53,27,933,['c'],1,left,['9'],5,320,[0.14498749],91,53,easy,minus,dotcolour,alfa,,,103,18,M,R,
72,72,30,1,0,44,36,2133,['c'],1,left,['8'],4,511,[0.11483437],81,44,hard,minus,dotcolour,alfa,,,103,18,M,R,
73,73,31,1,0,47,33,1767,['c'],1,left,['9'],5,1061,[0.17293182],82,47,medium,minus,dotcolour,alfa,,,103,18,M,R,
74,74,32,1,0,36,44,1001,['n'],1,right,['9'],5,412,[-0.15000082],89,44,hard,minus,dotcolour,alfa,,,103,18,M,R,
75,75,33,1,0,27,53,950,['c'],0,right,['1'],1,1566,[-0.07246864],37,53,easy,minus,dotcolour,alfa,,,103,18,M,R,
76,76,34,1,0,44,36,1733,['c'],1,left,['0'],6,435,[0.00608285],52,44,hard,minus,dotcolour,alfa,,,103,18,M,R,
77,77,35,1,0,44,36,1883,['c'],1,left,['8'],4,472,[0.12689859],84,44,hard,minus,dotcolour,alfa,,,103,18,M,R,
78,78,36,1,0,33,47,1066,['n'],1,right,['0'],6,267,[-0.18000169],96,47,medium,minus,dotcolour,alfa,,,103,18,M,R,
79,79,37,1,0,53,27,951,['n'],0,left,['9'],5,388,[-0.04012455],64,53,easy,minus,dotcolour,alfa,,,103,18,M,R,
80,80,38,1,0,33,47,1167,['n'],1,right,['8'],4,790,[-0.24948658],93,47,medium,minus,dotcolour,alfa,,,103,18,M,R,
81,81,39,1,0,53,27,2434,['c'],1,left,['9'],5,1414,[-0.01026124],48,53,easy,minus,dotcolour,alfa,,,103,18,M,R,
82,82,40,1,0,33,47,1084,['n'],1,right,['8'],4,834,[-0.02228829],55,47,medium,minus,dotcolour,alfa,,,103,18,M,R,
83,83,41,1,0,36,44,1217,['n'],1,right,['9'],5,441,[-0.1038388],80,44,hard,minus,dotcolour,alfa,,,103,18,M,R,
84,84,0,2,0,33,47,934,['n'],1,right,['9'],5,631,[0.08472444],28,47,medium,minus,dotcolour,alfa,,,103,18,M,R,
85,85,1,2,0,36,44,833,['n'],1,right,['9'],5,198,[-0.03086559],65,44,hard,minus,dotcolour,alfa,,,103,18,M,R,
86,86,2,2,0,27,53,1183,['n'],1,right,['0'],6,415,[-0.23021559],96,53,easy,minus,dotcolour,alfa,,,103,18,M,R,
87,87,3,2,0,27,53,1367,['n'],1,right,['0'],6,265,[-0.22068769],98,53,easy,minus,dotcolour,alfa,,,103,18,M,R,
88,88,4,2,0,36,44,1417,['n'],1,right,['8'],4,376,[-0.15098415],90,44,hard,minus,dotcolour,alfa,,,103,18,M,R,
89,89,5,2,0,33,47,850,['n'],1,right,['9'],5,272,[-0.09483308],84,47,medium,minus,dotcolour,alfa,,,103,18,M,R,
90,90,6,2,0,44,36,884,['c'],1,left,['9'],5,251,[0.11983689],90,44,hard,minus,dotcolour,alfa,,,103,18,M,R,
91,91,7,2,0,44,36,667,['c'],1,left,['9'],5,239,[0.08850074],84,44,hard,minus,dotcolour,alfa,,,103,18,M,R,
92,92,8,2,0,33,47,783,['n'],1,right,['9'],5,223,[0.00464238],48,47,medium,minus,dotcolour,alfa,,,103,18,M,R,
93,93,9,2,0,53,27,683,['c'],1,left,['9'],5,332,[0.02623529],60,53,easy,minus,dotcolour,alfa,,,103,18,M,R,
94,94,10,2,0,33,47,817,['n'],1,right,['9'],5,279,[-0.00659741],53,47,medium,minus,dotcolour,alfa,,,103,18,M,R,
95,95,11,2,0,33,47,1084,['n'],1,right,['9'],5,322,[-0.04503402],67,47,medium,minus,dotcolour,alfa,,,103,18,M,R,
96,96,12,2,0,36,44,1633,['c'],0,right,['8'],4,885,[-0.10590043],27,44,hard,minus,dotcolour,alfa,,,103,18,M,R,
97,97,13,2,0,47,33,750,['c'],1,left,['9'],5,380,[0.10142857],81,47,medium,minus,dotcolour,alfa,,,103,18,M,R,
98,98,14,2,0,47,33,751,['c'],1,left,['9'],5,400,[0.16251389],91,47,medium,minus,dotcolour,alfa,,,103,18,M,R,
99,99,15,2,0,53,27,851,['c'],1,left,['0'],6,336,[0.10000398],83,53,easy,minus,dotcolour,alfa,,,103,18,M,R,
100,100,16,2,0,27,53,850,['n'],1,right,['0'],6,258,[-0.11667069],89,53,easy,minus,dotcolour,alfa,,,103,18,M,R,
101,101,17,2,0,53,27,917,['c'],1,left,['9'],5,628,[0.12257796],80,53,easy,minus,dotcolour,alfa,,,103,18,M,R,
102,102,18,2,0,27,53,1067,['n'],1,right,['0'],6,169,[-0.09093973],88,53,easy,minus,dotcolour,alfa,,,103,18,M,R,
103,103,19,2,0,36,44,884,['c'],0,right,['0'],6,296,[0.04537168],68,44,hard,minus,dotcolour,alfa,,,103,18,M,R,
104,104,20,2,0,44,36,1234,['c'],1,left,['9'],5,380,[-0.05319811],32,44,hard,minus,dotcolour,alfa,,,103,18,M,R,
105,105,21,2,0,27,53,1001,['n'],1,right,['9'],5,318,[-0.02760894],61,53,easy,minus,dotcolour,alfa,,,103,18,M,R,
106,106,22,2,0,44,36,1133,['c'],1,left,['9'],5,718,[0.03991166],60,44,hard,minus,dotcolour,alfa,,,103,18,M,R,
107,107,23,2,0,33,47,883,['n'],1,right,['9'],5,303,[-0.13333187],90,47,medium,minus,dotcolour,alfa,,,103,18,M,R,
108,108,24,2,0,36,44,934,['c'],0,right,['9'],5,255,[0.04251961],68,44,hard,minus,dotcolour,alfa,,,103,18,M,R,
109,109,25,2,0,36,44,984,['n'],1,right,['9'],5,727,[-0.03410649],59,44,hard,minus,dotcolour,alfa,,,103,18,M,R,
110,110,26,2,0,27,53,1650,['n'],1,right,['9'],5,393,[-0.09111276],79,53,easy,minus,dotcolour,alfa,,,103,18,M,R,
111,111,27,2,0,53,27,1034,['c'],1,left,['9'],5,1321,[0.38545739],95,53,easy,minus,dotcolour,alfa,,,103,18,M,R,
112,112,28,2,0,33,47,900,['n'],1,right,['8'],4,561,[-0.16664321],88,47,medium,minus,dotcolour,alfa,,,103,18,M,R,
113,113,29,2,0,53,27,784,['c'],1,left,['9'],5,421,[0.1584107],90,53,easy,minus,dotcolour,alfa,,,103,18,M,R,
114,114,30,2,0,53,27,717,['c'],1,left,['9'],5,393,[0.09617652],80,53,easy,minus,dotcolour,alfa,,,103,18,M,R,
115,115,31,2,0,53,27,684,['c'],1,left,['9'],5,502,[0.15189734],87,53,easy,minus,dotcolour,alfa,,,103,18,M,R,
116,116,32,2,0,47,33,800,['c'],1,left,['9'],5,404,[0.09549282],79,47,medium,minus,dotcolour,alfa,,,103,18,M,R,
117,117,33,2,0,47,33,684,['c'],1,left,['9'],5,722,[0.11812828],78,47,medium,minus,dotcolour,alfa,,,103,18,M,R,
118,118,34,2,0,44,36,851,['c'],1,left,['9'],5,476,[0.06513325],70,44,hard,minus,dotcolour,alfa,,,103,18,M,R,
119,119,35,2,0,44,36,917,['c'],1,left,['8'],4,453,[0.07870106],74,44,hard,minus,dotcolour,alfa,,,103,18,M,R,
120,120,36,2,0,47,33,951,['c'],1,left,['8'],4,479,[0.17633851],91,47,medium,minus,dotcolour,alfa,,,103,18,M,R,
121,121,37,2,0,36,44,2550,['n'],1,right,['8'],4,182,[-0.01347409],57,44,hard,minus,dotcolour,alfa,,,103,18,M,R,
122,122,38,2,0,27,53,683,['n'],1,right,['9'],5,685,[-0.15420684],84,53,easy,minus,dotcolour,alfa,,,103,18,M,R,
123,123,39,2,0,47,33,935,['c'],1,left,['8'],4,670,[0.10891708],77,47,medium,minus,dotcolour,alfa,,,103,18,M,R,
124,124,40,2,0,47,33,950,['c'],1,left,['9'],5,846,[0.10606612],74,47,medium,minus,dotcolour,alfa,,,103,18,M,R,
125,125,41,2,0,44,36,1483,['n'],0,left,['8'],4,714,[-0.10948492],76,44,hard,minus,dotcolour,alfa,,,103,18,M,R,
126,0,0,3,1,53,27,917,['c'],1,left,['9'],5,485,[0.22008532],100,53,easy,plus,dotcolour,alfa,,,103,18,M,R,
127,1,1,3,1,33,47,783,['n'],1,right,['9'],5,453,[-0.00225534],53,47,medium,plus,dotcolour,alfa,,,103,18,M,R,
128,2,2,3,1,53,27,1633,['c'],1,left,['9'],5,1187,[0.41208607],100,53,easy,plus,dotcolour,alfa,,,103,18,M,R,
129,3,3,3,1,53,27,1084,['c'],1,left,['9'],5,417,[0.16161653],100,53,easy,plus,dotcolour,alfa,,,103,18,M,R,
130,4,4,3,1,44,36,1482,['c'],1,left,['8'],4,558,[0.26608336],100,44,hard,plus,dotcolour,alfa,,,103,18,M,R,
131,5,5,3,1,33,47,934,['n'],1,right,['9'],5,922,[-0.19648411],100,47,medium,plus,dotcolour,alfa,,,103,18,M,R,
132,6,6,3,1,53,27,817,['c'],1,left,['0'],6,423,[0.10378557],100,53,easy,plus,dotcolour,alfa,,,103,18,M,R,
133,7,7,3,1,27,53,783,['n'],1,right,['0'],6,415,[-0.13939891],100,53,easy,plus,dotcolour,alfa,,,103,18,M,R,
134,8,8,3,1,44,36,1666,['c'],1,left,['8'],4,382,[0.11542405],100,44,hard,plus,dotcolour,alfa,,,103,18,M,R,
135,9,9,3,1,33,47,1585,['c'],0,right,['8'],4,904,[-0.03073116],24,47,medium,plus,dotcolour,alfa,,,103,18,M,R,
136,10,10,3,1,44,36,1883,['c'],1,left,['9'],5,450,[0.0904655],99,44,hard,plus,dotcolour,alfa,,,103,18,M,R,
137,11,11,3,1,27,53,834,['c'],0,right,['1'],1,1455,[-0.13086749],2,53,easy,plus,dotcolour,alfa,,,103,18,M,R,
138,12,12,3,1,47,33,1067,['c'],1,left,['8'],4,1420,[0.05339029],83,47,medium,plus,dotcolour,alfa,,,103,18,M,R,
139,13,13,3,1,33,47,650,['n'],1,right,['9'],5,497,[-0.12142503],100,47,medium,plus,dotcolour,alfa,,,103,18,M,R,
140,14,14,3,1,47,33,1449,['n'],0,left,['0'],6,525,[-0.09619958],99,47,medium,plus,dotcolour,alfa,,,103,18,M,R,
141,15,15,3,1,44,36,1284,['c'],1,left,['0'],6,430,[0.0700483],98,44,hard,plus,dotcolour,alfa,,,103,18,M,R,
142,16,16,3,1,27,53,1266,['n'],1,right,['0'],6,506,[-0.21775501],100,53,easy,plus,dotcolour,alfa,,,103,18,M,R,
143,17,17,3,1,36,44,1018,['n'],1,right,['9'],5,1039,[-0.10507587],98,44,hard,plus,dotcolour,alfa,,,103,18,M,R,
144,18,18,3,1,44,36,849,['c'],1,left,['9'],5,389,[0.19497406],100,44,hard,plus,dotcolour,alfa,,,103,18,M,R,
145,19,19,3,1,27,53,767,['n'],1,right,['9'],5,255,[-0.15657256],100,53,easy,plus,dotcolour,alfa,,,103,18,M,R,
146,20,20,3,1,33,47,783,['n'],1,right,['8'],4,551,[-0.17980442],100,47,medium,plus,dotcolour,alfa,,,103,18,M,R,
147,21,21,3,1,53,27,900,['c'],1,left,['9'],5,991,[0.13956329],99,53,easy,plus,dotcolour,alfa,,,103,18,M,R,
148,22,22,3,1,27,53,950,['n'],1,right,['9'],5,498,[-0.07230378],98,53,easy,plus,dotcolour,alfa,,,103,18,M,R,
149,23,23,3,1,53,27,1000,['c'],1,left,['9'],5,432,[0.1089953],100,53,easy,plus,dotcolour,alfa,,,103,18,M,R,
150,24,24,3,1,44,36,984,['c'],1,left,['9'],5,432,[0.08894778],99,44,hard,plus,dotcolour,alfa,,,103,18,M,R,
151,25,25,3,1,36,44,2333,['c'],0,right,['8'],4,1635,[-0.13782956],2,44,hard,plus,dotcolour,alfa,,,103,18,M,R,
152,26,26,3,1,36,44,2184,['n'],1,right,['9'],5,627,[-0.13040656],100,44,hard,plus,dotcolour,alfa,,,103,18,M,R,
153,27,27,3,1,47,33,1317,['c'],1,left,['8'],4,477,[0.16329364],100,47,medium,plus,dotcolour,alfa,,,103,18,M,R,
154,28,28,3,1,36,44,949,['c'],0,right,['8'],4,518,[0.09356649],99,44,hard,plus,dotcolour,alfa,,,103,18,M,R,
155,29,29,3,1,53,27,967,['c'],1,left,['9'],5,1164,[0.26698829],100,53,easy,plus,dotcolour,alfa,,,103,18,M,R,
156,30,30,3,1,44,36,2150,['c'],1,left,['9'],5,552,[-0.01978557],28,44,hard,plus,dotcolour,alfa,,,103,18,M,R,
157,31,31,3,1,33,47,4734,['c'],0,right,['9'],5,630,[0.09940321],99,47,medium,plus,dotcolour,alfa,,,103,18,M,R,
158,32,32,3,1,47,33,1034,['c'],1,left,['8'],4,1262,[0.07074098],91,47,medium,plus,dotcolour,alfa,,,103,18,M,R,
159,33,33,3,1,36,44,1383,['n'],1,right,['9'],5,628,[-0.11371463],99,44,hard,plus,dotcolour,alfa,,,103,18,M,R,
160,34,34,3,1,36,44,800,['n'],1,right,['9'],5,349,[-0.13146164],100,44,hard,plus,dotcolour,alfa,,,103,18,M,R,
161,35,35,3,1,33,47,800,['n'],1,right,['9'],5,216,[-0.15750812],100,47,medium,plus,dotcolour,alfa,,,103,18,M,R,
162,36,36,3,1,47,33,784,['c'],1,left,['9'],5,241,[0.11970995],100,47,medium,plus,dotcolour,alfa,,,103,18,M,R,
163,37,37,3,1,47,33,1050,['c'],1,left,['8'],4,199,[0.14540516],100,47,medium,plus,dotcolour,alfa,,,103,18,M,R,
164,38,38,3,1,47,33,716,['c'],1,left,['8'],4,204,[0.1069504],100,47,medium,plus,dotcolour,alfa,,,103,18,M,R,
165,39,39,3,1,27,53,900,['n'],1,right,['9'],5,145,[-0.11803516],100,53,easy,plus,dotcolour,alfa,,,103,18,M,R,
166,40,40,3,1,36,44,867,['c'],0,right,['9'],5,233,[0.09860163],100,44,hard,plus,dotcolour,alfa,,,103,18,M,R,
167,41,41,3,1,27,53,650,['n'],1,right,['9'],5,208,[-0.08959174],100,53,easy,plus,dotcolour,alfa,,,103,18,M,R,
168,42,0,4,1,53,27,685,['c'],1,left,['9'],5,218,[0.08426152],100,53,easy,plus,dotcolour,alfa,,,103,18,M,R,
169,43,1,4,1,44,36,683,['c'],1,left,['9'],5,271,[0.08552469],100,44,hard,plus,dotcolour,alfa,,,103,18,M,R,
170,44,2,4,1,44,36,718,['c'],1,left,['8'],4,425,[-0.03580797],12,44,hard,plus,dotcolour,alfa,,,103,18,M,R,
171,45,3,4,1,44,36,1318,['c'],1,left,['8'],4,261,[0.04193553],95,44,hard,plus,dotcolour,alfa,,,103,18,M,R,
172,46,4,4,1,47,33,718,['c'],1,left,['8'],4,559,[0.11450716],100,47,medium,plus,dotcolour,alfa,,,103,18,M,R,
173,47,5,4,1,44,36,851,['c'],1,left,['9'],5,440,[-0.01920468],26,44,hard,plus,dotcolour,alfa,,,103,18,M,R,
174,48,6,4,1,53,27,883,['c'],1,left,['8'],4,2228,[0.47618233],100,53,easy,plus,dotcolour,alfa,,,103,18,M,R,
175,49,7,4,1,27,53,917,['n'],1,right,['9'],5,262,[-0.0368687],93,53,easy,plus,dotcolour,alfa,,,103,18,M,R,
176,50,8,4,1,27,53,783,['n'],1,right,['0'],6,230,[-0.10684673],100,53,easy,plus,dotcolour,alfa,,,103,18,M,R,
177,51,9,4,1,27,53,734,['n'],1,right,['9'],5,200,[-0.07108894],100,53,easy,plus,dotcolour,alfa,,,103,18,M,R,
178,52,10,4,1,33,47,1267,['n'],1,right,['8'],4,215,[-0.08630549],100,47,medium,plus,dotcolour,alfa,,,103,18,M,R,
179,53,11,4,1,47,33,1751,['c'],1,left,['8'],4,1194,[0.09428118],96,47,medium,plus,dotcolour,alfa,,,103,18,M,R,
180,54,12,4,1,36,44,1132,['n'],1,right,['8'],4,295,[-0.03180467],89,44,hard,plus,dotcolour,alfa,,,103,18,M,R,
181,55,13,4,1,33,47,819,['c'],0,right,['8'],4,1898,[-0.30482997],0,47,medium,plus,dotcolour,alfa,,,103,18,M,R,
182,56,14,4,1,53,27,882,['c'],1,left,['9'],5,308,[0.11718563],100,53,easy,plus,dotcolour,alfa,,,103,18,M,R,
183,57,15,4,1,47,33,1467,['c'],1,left,['8'],4,318,[0.06141196],98,47,medium,plus,dotcolour,alfa,,,103,18,M,R,
184,58,16,4,1,53,27,717,['c'],1,left,['8'],4,190,[0.12193748],100,53,easy,plus,dotcolour,alfa,,,103,18,M,R,
185,59,17,4,1,36,44,701,['n'],1,right,['9'],5,251,[-0.07403672],100,44,hard,plus,dotcolour,alfa,,,103,18,M,R,
186,60,18,4,1,53,27,918,['c'],1,left,['0'],6,262,[0.06889539],99,53,easy,plus,dotcolour,alfa,,,103,18,M,R,
187,61,19,4,1,44,36,1051,['c'],1,left,['9'],5,298,[0.05388772],97,44,hard,plus,dotcolour,alfa,,,103,18,M,R,
188,62,20,4,1,53,27,634,['c'],1,left,['9'],5,214,[0.10503434],100,53,easy,plus,dotcolour,alfa,,,103,18,M,R,
189,63,21,4,1,33,47,851,['n'],1,right,['0'],6,261,[-0.13257197],100,47,medium,plus,dotcolour,alfa,,,103,18,M,R,
190,64,22,4,1,44,36,768,['c'],1,left,['9'],5,333,[0.00486272],58,44,hard,plus,dotcolour,alfa,,,103,18,M,R,
191,65,23,4,1,36,44,866,['n'],1,right,['9'],5,279,[-0.15161563],100,44,hard,plus,dotcolour,alfa,,,103,18,M,R,
192,66,24,4,1,36,44,734,['c'],0,right,['9'],5,288,[0.1485492],100,44,hard,plus,dotcolour,alfa,,,103,18,M,R,
193,67,25,4,1,33,47,4000,['n'],1,right,['9'],5,1014,[-0.25485975],100,47,medium,plus,dotcolour,alfa,,,103,18,M,R,
194,68,26,4,1,47,33,1132,['c'],1,left,['9'],5,225,[0.03855049],95,47,medium,plus,dotcolour,alfa,,,103,18,M,R,
195,69,27,4,1,27,53,1084,['n'],1,right,['8'],4,278,[-0.13056729],100,53,easy,plus,dotcolour,alfa,,,103,18,M,R,
196,70,28,4,1,36,44,1917,['c'],0,right,['8'],4,336,[0.0794421],99,44,hard,plus,dotcolour,alfa,,,103,18,M,R,
197,71,29,4,1,27,53,868,['n'],1,right,['8'],4,281,[-0.07456235],99,53,easy,plus,dotcolour,alfa,,,103,18,M,R,
198,72,30,4,1,44,36,1302,['c'],1,left,['9'],5,467,[0.20771687],100,44,hard,plus,dotcolour,alfa,,,103,18,M,R,
199,73,31,4,1,53,27,3016,['c'],1,left,['8'],4,2769,[0.21906877],99,53,easy,plus,dotcolour,alfa,,,103,18,M,R,
200,74,32,4,1,27,53,749,['n'],1,right,['9'],5,149,[-0.10679141],100,53,easy,plus,dotcolour,alfa,,,103,18,M,R,
201,75,33,4,1,47,33,766,['c'],1,left,['8'],4,1450,[0.12321371],98,47,medium,plus,dotcolour,alfa,,,103,18,M,R,
202,76,34,4,1,33,47,768,['n'],1,right,['9'],5,593,[-0.12028157],100,47,medium,plus,dotcolour,alfa,,,103,18,M,R,
203,77,35,4,1,36,44,1334,['n'],1,right,['8'],4,254,[-0.05957069],99,44,hard,plus,dotcolour,alfa,,,103,18,M,R,
204,78,36,4,1,47,33,882,['c'],1,left,['9'],5,1137,[0.16609611],100,47,medium,plus,dotcolour,alfa,,,103,18,M,R,
205,79,37,4,1,47,33,866,['n'],0,left,['8'],4,627,[-0.09148478],98,47,medium,plus,dotcolour,alfa,,,103,18,M,R,
206,80,38,4,1,33,47,1600,['n'],1,right,['8'],4,218,[-0.06774932],99,47,medium,plus,dotcolour,alfa,,,103,18,M,R,
207,81,39,4,1,33,47,1017,['n'],1,right,['8'],4,322,[-0.11640565],100,47,medium,plus,dotcolour,alfa,,,103,18,M,R,
208,82,40,4,1,27,53,1101,['n'],1,right,['9'],5,154,[-0.06314751],100,53,easy,plus,dotcolour,alfa,,,103,18,M,R,
209,83,41,4,1,36,44,1901,['n'],1,right,['8'],4,209,[-0.03812444],95,44,hard,plus,dotcolour,alfa,,,103,18,M,R,
210,84,0,5,1,53,27,801,['c'],1,left,['9'],5,297,[0.13110607],100,53,easy,plus,dotcolour,alfa,,,103,18,M,R,
211,85,1,5,1,47,33,917,['c'],1,left,['9'],5,259,[0.04097891],95,47,medium,plus,dotcolour,alfa,,,103,18,M,R,
212,86,2,5,1,27,53,718,['n'],1,right,['9'],5,708,[-0.26502462],100,53,easy,plus,dotcolour,alfa,,,103,18,M,R,
213,87,3,5,1,44,36,834,['c'],1,left,['9'],5,208,[0.08887617],100,44,hard,plus,dotcolour,alfa,,,103,18,M,R,
214,88,4,5,1,36,44,650,['n'],1,right,['9'],5,206,[-0.14553529],100,44,hard,plus,dotcolour,alfa,,,103,18,M,R,
215,89,5,5,1,27,53,699,['n'],1,right,['9'],5,715,[-0.05347235],91,53,easy,plus,dotcolour,alfa,,,103,18,M,R,
216,90,6,5,1,33,47,667,['n'],1,right,['9'],5,141,[-0.09915457],100,47,medium,plus,dotcolour,alfa,,,103,18,M,R,
217,91,7,5,1,53,27,700,['c'],1,left,['9'],5,141,[0.06961177],100,53,easy,plus,dotcolour,alfa,,,103,18,M,R,
218,92,8,5,1,47,33,635,['c'],1,left,['9'],5,199,[0.20178195],100,47,medium,plus,dotcolour,alfa,,,103,18,M,R,
219,93,9,5,1,33,47,650,['n'],1,right,['9'],5,158,[-0.06605725],100,47,medium,plus,dotcolour,alfa,,,103,18,M,R,
220,94,10,5,1,27,53,667,['n'],1,right,['9'],5,182,[-0.13731424],100,53,easy,plus,dotcolour,alfa,,,103,18,M,R,
221,95,11,5,1,47,33,950,['c'],1,left,['9'],5,546,[0.3047962],100,47,medium,plus,dotcolour,alfa,,,103,18,M,R,
222,96,12,5,1,53,27,518,['c'],1,left,['9'],5,136,[0.08747787],100,53,easy,plus,dotcolour,alfa,,,103,18,M,R,
223,97,13,5,1,33,47,551,['n'],1,right,['9'],5,134,[-0.09340929],100,47,medium,plus,dotcolour,alfa,,,103,18,M,R,
224,98,14,5,1,53,27,682,['c'],1,left,['9'],5,127,[0.15626918],100,53,easy,plus,dotcolour,alfa,,,103,18,M,R,
225,99,15,5,1,36,44,718,['n'],1,right,['9'],5,119,[-0.10475012],100,44,hard,plus,dotcolour,alfa,,,103,18,M,R,
226,100,16,5,1,44,36,767,['c'],1,left,['9'],5,148,[0.14517342],100,44,hard,plus,dotcolour,alfa,,,103,18,M,R,
227,101,17,5,1,47,33,750,['c'],1,left,['9'],5,186,[0.07903284],100,47,medium,plus,dotcolour,alfa,,,103,18,M,R,
228,102,18,5,1,33,47,684,['n'],1,right,['9'],5,184,[-0.07222815],100,47,medium,plus,dotcolour,alfa,,,103,18,M,R,
229,103,19,5,1,44,36,634,['c'],1,left,['9'],5,153,[0.02602541],92,44,hard,plus,dotcolour,alfa,,,103,18,M,R,
230,104,20,5,1,27,53,749,['n'],1,right,['9'],5,279,[-0.13629742],100,53,easy,plus,dotcolour,alfa,,,103,18,M,R,
231,105,21,5,1,47,33,882,['c'],1,left,['8'],4,202,[0.06825626],100,47,medium,plus,dotcolour,alfa,,,103,18,M,R,
232,106,22,5,1,36,44,734,['n'],1,right,['8'],4,517,[-0.04408972],90,44,hard,plus,dotcolour,alfa,,,103,18,M,R,
233,107,23,5,1,36,44,767,['c'],0,right,['8'],4,220,[0.10378648],100,44,hard,plus,dotcolour,alfa,,,103,18,M,R,
234,108,24,5,1,36,44,1351,['n'],1,right,['8'],4,174,[-0.0740136],100,44,hard,plus,dotcolour,alfa,,,103,18,M,R,
235,109,25,5,1,27,53,983,['c'],0,right,['9'],5,208,[0.04765711],98,53,easy,plus,dotcolour,alfa,,,103,18,M,R,
236,110,26,5,1,44,36,1116,['c'],1,left,['9'],5,237,[0.14854249],100,44,hard,plus,dotcolour,alfa,,,103,18,M,R,
237,111,27,5,1,53,27,767,['c'],1,left,['9'],5,335,[0.15960286],100,53,easy,plus,dotcolour,alfa,,,103,18,M,R,
238,112,28,5,1,36,44,717,['n'],1,right,['8'],4,173,[-0.03053992],93,44,hard,plus,dotcolour,alfa,,,103,18,M,R,
239,113,29,5,1,33,47,716,['c'],0,right,['8'],4,195,[0.00805886],66,47,medium,plus,dotcolour,alfa,,,103,18,M,R,
240,114,30,5,1,53,27,616,['c'],1,left,['9'],5,196,[0.11028291],100,53,easy,plus,dotcolour,alfa,,,103,18,M,R,
241,115,31,5,1,36,44,1150,['n'],1,right,['8'],4,543,[-0.12597364],100,44,hard,plus,dotcolour,alfa,,,103,18,M,R,
242,116,32,5,1,44,36,783,['c'],1,left,['9'],5,290,[0.12203902],100,44,hard,plus,dotcolour,alfa,,,103,18,M,R,
243,117,33,5,1,33,47,1033,['c'],0,right,['8'],4,255,[0.15860792],100,47,medium,plus,dotcolour,alfa,,,103,18,M,R,
244,118,34,5,1,33,47,649,['c'],0,right,['8'],4,212,[0.0441053],97,47,medium,plus,dotcolour,alfa,,,103,18,M,R,
245,119,35,5,1,53,27,1133,['c'],1,left,['8'],4,352,[0.19763317],100,53,easy,plus,dotcolour,alfa,,,103,18,M,R,
246,120,36,5,1,44,36,650,['c'],1,left,['9'],5,513,[0.05119628],93,44,hard,plus,dotcolour,alfa,,,103,18,M,R,
247,121,37,5,1,47,33,917,['c'],1,left,['9'],5,208,[0.08867871],100,47,medium,plus,dotcolour,alfa,,,103,18,M,R,
248,122,38,5,1,47,33,617,['c'],1,left,['9'],5,160,[0.14050037],100,47,medium,plus,dotcolour,alfa,,,103,18,M,R,
249,123,39,5,1,27,53,1084,['n'],1,right,['9'],5,144,[-0.06825459],100,53,easy,plus,dotcolour,alfa,,,103,18,M,R,
250,124,40,5,1,44,36,799,['c'],1,left,['9'],5,172,[0.09051556],100,44,hard,plus,dotcolour,alfa,,,103,18,M,R,
251,125,41,5,1,27,53,3149,['n'],1,right,['3'],3,944,[-0.26387821],100,53,easy,plus,dotcolour,alfa,,,103,18,M,R,
252,0,0,6,2,33,47,817,['n'],1,right,['9'],5,155,[-0.0849551],87,47,medium,minus,dotcolour,alfa,,,103,18,M,R,
253,1,1,6,2,27,53,649,['n'],1,right,['9'],5,197,[-0.11416998],91,53,easy,minus,dotcolour,alfa,,,103,18,M,R,
254,2,2,6,2,53,27,750,['c'],1,left,['9'],5,128,[0.08965189],91,53,easy,minus,dotcolour,alfa,,,103,18,M,R,
255,3,3,6,2,53,27,633,['c'],1,left,['9'],5,195,[0.13392187],94,53,easy,minus,dotcolour,alfa,,,103,18,M,R,
256,4,4,6,2,47,33,934,['c'],1,left,['9'],5,239,[0.05811524],74,47,medium,minus,dotcolour,alfa,,,103,18,M,R,
257,5,5,6,2,33,47,816,['n'],1,right,['9'],5,182,[-0.0249165],63,47,medium,minus,dotcolour,alfa,,,103,18,M,R,
258,6,6,6,2,36,44,717,['c'],0,right,['9'],5,164,[0.1019907],91,44,hard,minus,dotcolour,alfa,,,103,18,M,R,
259,7,7,6,2,27,53,734,['n'],1,right,['9'],5,169,[-0.06400205],80,53,easy,minus,dotcolour,alfa,,,103,18,M,R,
260,8,8,6,2,27,53,735,['n'],1,right,['9'],5,166,[-0.0710547],83,53,easy,minus,dotcolour,alfa,,,103,18,M,R,
261,9,9,6,2,33,47,750,['n'],1,right,['9'],5,130,[-0.02028361],62,47,medium,minus,dotcolour,alfa,,,103,18,M,R,
262,10,10,6,2,53,27,616,['c'],1,left,['9'],5,166,[0.10055505],90,53,easy,minus,dotcolour,alfa,,,103,18,M,R,
263,11,11,6,2,33,47,616,['n'],1,right,['9'],5,424,[-0.02996506],60,47,medium,minus,dotcolour,alfa,,,103,18,M,R,
264,12,12,6,2,53,27,1168,['c'],1,left,['9'],5,217,[0.11406968],90,53,easy,minus,dotcolour,alfa,,,103,18,M,R,
265,13,13,6,2,36,44,716,['n'],1,right,['9'],5,165,[-0.08527244],87,44,hard,minus,dotcolour,alfa,,,103,18,M,R,
266,14,14,6,2,44,36,617,['c'],1,left,['9'],5,160,[0.13663992],96,44,hard,minus,dotcolour,alfa,,,103,18,M,R,
267,15,15,6,2,44,36,684,['c'],1,left,['9'],5,215,[0.09485453],86,44,hard,minus,dotcolour,alfa,,,103,18,M,R,
268,16,16,6,2,44,36,734,['c'],1,left,['9'],5,218,[0.0955754],86,44,hard,minus,dotcolour,alfa,,,103,18,M,R,
269,17,17,6,2,36,44,601,['c'],0,right,['0'],6,435,[-0.05202998],33,44,hard,minus,dotcolour,alfa,,,103,18,M,R,
270,18,18,6,2,47,33,701,['c'],1,left,['9'],5,303,[0.10997385],86,47,medium,minus,dotcolour,alfa,,,103,18,M,R,
271,19,19,6,2,44,36,650,['c'],1,left,['0'],6,146,[0.10387575],92,44,hard,minus,dotcolour,alfa,,,103,18,M,R,
272,20,20,6,2,36,44,749,['c'],0,right,['2'],2,887,[0.14281943],80,44,hard,minus,dotcolour,alfa,,,103,18,M,R,
273,21,21,6,2,36,44,1401,['n'],1,right,['9'],5,253,[-0.10381072],87,44,hard,minus,dotcolour,alfa,,,103,18,M,R,
274,22,22,6,2,44,36,983,['c'],1,left,['9'],5,220,[0.10103904],87,44,hard,minus,dotcolour,alfa,,,103,18,M,R,
275,23,23,6,2,53,27,917,['c'],1,left,['9'],5,280,[0.07460633],78,53,easy,minus,dotcolour,alfa,,,103,18,M,R,
276,24,24,6,2,27,53,816,['n'],1,right,['9'],5,174,[-0.11354479],92,53,easy,minus,dotcolour,alfa,,,103,18,M,R,
277,25,25,6,2,36,44,833,['n'],1,right,['9'],5,391,[0.06806249],27,44,hard,minus,dotcolour,alfa,,,103,18,M,R,
278,26,26,6,2,27,53,700,['n'],1,right,['9'],5,156,[-0.09818495],90,53,easy,minus,dotcolour,alfa,,,103,18,M,R,
279,27,27,6,2,33,47,633,['n'],1,right,['9'],5,205,[-0.13771947],94,47,medium,minus,dotcolour,alfa,,,103,18,M,R,
280,28,28,6,2,47,33,617,['c'],1,left,['8'],4,335,[0.1711606],93,47,medium,minus,dotcolour,alfa,,,103,18,M,R,
281,29,29,6,2,44,36,1000,['c'],1,left,['8'],4,179,[0.0736211],83,44,hard,minus,dotcolour,alfa,,,103,18,M,R,
282,30,30,6,2,53,27,701,['c'],1,left,['9'],5,297,[0.05983979],73,53,easy,minus,dotcolour,alfa,,,103,18,M,R,
283,31,31,6,2,47,33,551,['c'],1,left,['9'],5,136,[0.0784754],87,47,medium,minus,dotcolour,alfa,,,103,18,M,R,
284,32,32,6,2,33,47,651,['c'],0,right,['8'],4,674,[0.06190482],66,47,medium,minus,dotcolour,alfa,,,103,18,M,R,
285,33,33,6,2,53,27,750,['c'],1,left,['9'],5,154,[0.10661261],92,53,easy,minus,dotcolour,alfa,,,103,18,M,R,
286,34,34,6,2,27,53,817,['n'],1,right,['9'],5,204,[-0.11669917],91,53,easy,minus,dotcolour,alfa,,,103,18,M,R,
287,35,35,6,2,33,47,733,['n'],1,right,['9'],5,201,[-0.2016538],98,47,medium,minus,dotcolour,alfa,,,103,18,M,R,
288,36,36,6,2,44,36,716,['c'],1,left,['9'],5,365,[0.09868029],81,44,hard,minus,dotcolour,alfa,,,103,18,M,R,
289,37,37,6,2,47,33,801,['c'],1,left,['8'],4,1248,[0.15478931],78,47,medium,minus,dotcolour,alfa,,,103,18,M,R,
290,38,38,6,2,27,53,1251,['c'],0,right,['2'],2,1341,[-0.07410251],36,53,easy,minus,dotcolour,alfa,,,103,18,M,R,
291,39,39,6,2,36,44,950,['n'],1,right,['9'],5,314,[-0.0253975],60,44,hard,minus,dotcolour,alfa,,,103,18,M,R,
292,40,40,6,2,47,33,851,['c'],1,left,['9'],5,190,[0.07864979],84,47,medium,minus,dotcolour,alfa,,,103,18,M,R,
293,41,41,6,2,47,33,834,['c'],1,left,['9'],5,558,[-0.07165921],30,47,medium,minus,dotcolour,alfa,,,103,18,M,R,
294,42,0,7,2,47,33,750,['c'],1,left,['9'],5,190,[0.14086915],95,47,medium,minus,dotcolour,alfa,,,103,18,M,R,
295,43,1,7,2,44,36,568,['c'],1,left,['9'],5,145,[0.1052904],92,44,hard,minus,dotcolour,alfa,,,103,18,M,R,
296,44,2,7,2,36,44,1067,['n'],1,right,['9'],5,138,[-0.01687711],60,44,hard,minus,dotcolour,alfa,,,103,18,M,R,
297,45,3,7,2,53,27,666,['c'],1,left,['9'],5,148,[0.06103895],81,53,easy,minus,dotcolour,alfa,,,103,18,M,R,
298,46,4,7,2,33,47,534,['n'],1,right,['9'],5,113,[-0.14168117],98,47,medium,minus,dotcolour,alfa,,,103,18,M,R,
299,47,5,7,2,53,27,534,['c'],1,left,['8'],4,217,[0.10424782],88,53,easy,minus,dotcolour,alfa,,,103,18,M,R,
300,48,6,7,2,27,53,751,['n'],1,right,['9'],5,308,[-0.16850325],94,53,easy,minus,dotcolour,alfa,,,103,18,M,R,
301,49,7,7,2,33,47,984,['n'],1,right,['8'],4,137,[-0.02952309],67,47,medium,minus,dotcolour,alfa,,,103,18,M,R,
302,50,8,7,2,27,53,868,['n'],1,right,['9'],5,187,[-0.13236753],94,53,easy,minus,dotcolour,alfa,,,103,18,M,R,
303,51,9,7,2,33,47,784,['n'],1,right,['9'],5,132,[-0.03121793],68,47,medium,minus,dotcolour,alfa,,,103,18,M,R,
304,52,10,7,2,33,47,832,['n'],1,right,['9'],5,208,[-0.05804197],76,47,medium,minus,dotcolour,alfa,,,103,18,M,R,
305,53,11,7,2,47,33,1182,['c'],1,left,['8'],4,193,[0.00972292],55,47,medium,minus,dotcolour,alfa,,,103,18,M,R,
306,54,12,7,2,36,44,782,['n'],1,right,['9'],5,139,[-0.03555886],70,44,hard,minus,dotcolour,alfa,,,103,18,M,R,
307,55,13,7,2,53,27,851,['c'],1,left,['0'],6,229,[0.07426463],80,53,easy,minus,dotcolour,alfa,,,103,18,M,R,
308,56,14,7,2,36,44,733,['n'],1,right,['9'],5,207,[-0.05451198],75,44,hard,minus,dotcolour,alfa,,,103,18,M,R,
309,57,15,7,2,27,53,1034,['n'],1,right,['9'],5,174,[-0.11437608],92,53,easy,minus,dotcolour,alfa,,,103,18,M,R,
310,58,16,7,2,47,33,883,['c'],1,left,['9'],5,469,[0.18517366],92,47,medium,minus,dotcolour,alfa,,,103,18,M,R,
311,59,17,7,2,44,36,734,['c'],1,left,['9'],5,351,[0.12519672],87,44,hard,minus,dotcolour,alfa,,,103,18,M,R,
312,60,18,7,2,44,36,782,['c'],1,left,['9'],5,532,[0.19199687],91,44,hard,minus,dotcolour,alfa,,,103,18,M,R,
313,61,19,7,2,36,44,1166,['n'],1,right,['9'],5,816,[-0.24551549],92,44,hard,minus,dotcolour,alfa,,,103,18,M,R,
314,62,20,7,2,44,36,1352,['c'],1,left,['8'],4,443,[-0.00202054],49,44,hard,minus,dotcolour,alfa,,,103,18,M,R,
315,63,21,7,2,33,47,650,['n'],1,right,['9'],5,137,[-0.08539856],89,47,medium,minus,dotcolour,alfa,,,103,18,M,R,
316,64,22,7,2,36,44,1183,['n'],1,right,['9'],5,205,[-0.07100885],80,44,hard,minus,dotcolour,alfa,,,103,18,M,R,
317,65,23,7,2,36,44,749,['c'],0,right,['9'],5,169,[0.01524552],58,44,hard,minus,dotcolour,alfa,,,103,18,M,R,
318,66,24,7,2,53,27,902,['c'],1,left,['9'],5,167,[0.12441994],94,53,easy,minus,dotcolour,alfa,,,103,18,M,R,
319,67,25,7,2,27,53,800,['n'],1,right,['9'],5,169,[-0.09721322],89,53,easy,minus,dotcolour,alfa,,,103,18,M,R,
320,68,26,7,2,53,27,750,['c'],1,left,['9'],5,166,[0.15547343],97,53,easy,minus,dotcolour,alfa,,,103,18,M,R,
321,69,27,7,2,27,53,867,['n'],1,right,['9'],5,135,[-0.13471061],96,53,easy,minus,dotcolour,alfa,,,103,18,M,R,
322,70,28,7,2,33,47,818,['n'],1,right,['9'],5,121,[-0.09778783],93,47,medium,minus,dotcolour,alfa,,,103,18,M,R,
323,71,29,7,2,44,36,801,['c'],1,left,['9'],5,222,[0.10141164],87,44,hard,minus,dotcolour,alfa,,,103,18,M,R,
324,72,30,7,2,27,53,817,['n'],1,right,['9'],5,181,[-0.09030255],87,53,easy,minus,dotcolour,alfa,,,103,18,M,R,
325,73,31,7,2,27,53,701,['n'],1,right,['9'],5,180,[-0.13023876],94,53,easy,minus,dotcolour,alfa,,,103,18,M,R,
326,74,32,7,2,47,33,734,['c'],1,left,['9'],5,153,[0.18680863],99,47,medium,minus,dotcolour,alfa,,,103,18,M,R,
327,75,33,7,2,44,36,734,['c'],1,left,['8'],4,686,[0.13047649],80,44,hard,minus,dotcolour,alfa,,,103,18,M,R,
328,76,34,7,2,44,36,716,['c'],1,left,['8'],4,400,[0.1238342],85,44,hard,minus,dotcolour,alfa,,,103,18,M,R,
329,77,35,7,2,53,27,733,['c'],1,left,['9'],5,220,[0.07249141],80,53,easy,minus,dotcolour,alfa,,,103,18,M,R,
330,78,36,7,2,53,27,700,['c'],1,left,['9'],5,216,[0.10394015],88,53,easy,minus,dotcolour,alfa,,,103,18,M,R,
331,79,37,7,2,33,47,918,['c'],0,right,['9'],5,308,[0.1755469],95,47,medium,minus,dotcolour,alfa,,,103,18,M,R,
332,80,38,7,2,47,33,766,['c'],1,left,['9'],5,266,[0.13252977],91,47,medium,minus,dotcolour,alfa,,,103,18,M,R,
333,81,39,7,2,47,33,1517,['c'],1,left,['8'],4,204,[0.19194752],98,47,medium,minus,dotcolour,alfa,,,103,18,M,R,
334,82,40,7,2,36,44,1000,['n'],1,right,['8'],4,358,[-0.01246258],55,44,hard,minus,dotcolour,alfa,,,103,18,M,R,
335,83,41,7,2,47,33,716,['c'],1,left,['9'],5,212,[0.14883648],95,47,medium,minus,dotcolour,alfa,,,103,18,M,R,
336,84,0,8,2,36,44,766,['n'],1,right,['8'],4,332,[0.02130234],42,44,hard,minus,dotcolour,alfa,,,103,18,M,R,
337,85,1,8,2,36,44,850,['n'],1,right,['8'],4,349,[-0.06295209],72,44,hard,minus,dotcolour,alfa,,,103,18,M,R,
338,86,2,8,2,44,36,833,['c'],1,left,['9'],5,279,[0.07257624],77,44,hard,minus,dotcolour,alfa,,,103,18,M,R,
339,87,3,8,2,27,53,666,['n'],1,right,['9'],5,306,[-0.20367559],96,53,easy,minus,dotcolour,alfa,,,103,18,M,R,
340,88,4,8,2,36,44,799,['n'],1,right,['9'],5,176,[-0.08696603],87,44,hard,minus,dotcolour,alfa,,,103,18,M,R,
341,89,5,8,2,44,36,1067,['c'],1,left,['9'],5,439,[0.1260986],85,44,hard,minus,dotcolour,alfa,,,103,18,M,R,
342,90,6,8,2,53,27,634,['c'],1,left,['9'],5,220,[0.15485242],95,53,easy,minus,dotcolour,alfa,,,103,18,M,R,
343,91,7,8,2,44,36,700,['c'],1,left,['9'],5,146,[0.04419795],74,44,hard,minus,dotcolour,alfa,,,103,18,M,R,
344,92,8,8,2,36,44,851,['n'],1,right,['9'],5,123,[-0.12213724],96,44,hard,minus,dotcolour,alfa,,,103,18,M,R,
345,93,9,8,2,53,27,649,['c'],1,left,['9'],5,117,[0.12266067],96,53,easy,minus,dotcolour,alfa,,,103,18,M,R,
346,94,10,8,2,53,27,699,['c'],1,left,['9'],5,126,[0.0913217],91,53,easy,minus,dotcolour,alfa,,,103,18,M,R,
347,95,11,8,2,33,47,1285,['n'],1,right,['8'],4,943,[-0.15161057],80,47,medium,minus,dotcolour,alfa,,,103,18,M,R,
348,96,12,8,2,47,33,883,['c'],1,left,['9'],5,159,[0.03790687],70,47,medium,minus,dotcolour,alfa,,,103,18,M,R,
349,97,13,8,2,44,36,600,['c'],1,left,['8'],4,1418,[0.21535011],84,44,hard,minus,dotcolour,alfa,,,103,18,M,R,
350,98,14,8,2,33,47,784,['n'],1,right,['9'],5,250,[-0.15119311],94,47,medium,minus,dotcolour,alfa,,,103,18,M,R,
351,99,15,8,2,27,53,651,['n'],1,right,['9'],5,200,[-0.07442158],82,53,easy,minus,dotcolour,alfa,,,103,18,M,R,
352,100,16,8,2,36,44,701,['n'],1,right,['9'],5,213,[-0.1195671],91,44,hard,minus,dotcolour,alfa,,,103,18,M,R,
353,101,17,8,2,33,47,1101,['n'],1,right,['0'],6,506,[-0.08855758],75,47,medium,minus,dotcolour,alfa,,,103,18,M,R,
354,102,18,8,2,47,33,867,['c'],1,left,['0'],6,259,[0.09649949],85,47,medium,minus,dotcolour,alfa,,,103,18,M,R,
355,103,19,8,2,47,33,1034,['c'],1,left,['0'],6,282,[0.10500066],86,47,medium,minus,dotcolour,alfa,,,103,18,M,R,
356,104,20,8,2,33,47,1132,['n'],1,right,['9'],5,250,[-0.1494481],94,47,medium,minus,dotcolour,alfa,,,103,18,M,R,
357,105,21,8,2,44,36,767,['c'],1,left,['0'],6,394,[0.09326457],79,44,hard,minus,dotcolour,alfa,,,103,18,M,R,
358,106,22,8,2,53,27,601,['c'],1,left,['0'],6,212,[0.11927108],91,53,easy,minus,dotcolour,alfa,,,103,18,M,R,
359,107,23,8,2,47,33,733,['c'],1,left,['8'],4,703,[0.16271433],85,47,medium,minus,dotcolour,alfa,,,103,18,M,R,
360,108,24,8,2,53,27,616,['c'],1,left,['9'],5,267,[-0.000926],50,53,easy,minus,dotcolour,alfa,,,103,18,M,R,
361,109,25,8,2,27,53,834,['n'],1,right,['9'],5,256,[-0.04920036],71,53,easy,minus,dotcolour,alfa,,,103,18,M,R,
362,110,26,8,2,53,27,683,['c'],1,left,['9'],5,220,[0.09613592],86,53,easy,minus,dotcolour,alfa,,,103,18,M,R,
363,111,27,8,2,53,27,634,['c'],1,left,['9'],5,267,[0.07396638],78,53,easy,minus,dotcolour,alfa,,,103,18,M,R,
364,112,28,8,2,36,44,699,['c'],0,right,['1'],1,1303,[0.01191004],52,44,hard,minus,dotcolour,alfa,,,103,18,M,R,
365,113,29,8,2,47,33,933,['c'],1,left,['9'],5,341,[0.04735232],67,47,medium,minus,dotcolour,alfa,,,103,18,M,R,
366,114,30,8,2,36,44,733,['n'],1,right,['8'],4,476,[-0.03264651],60,44,hard,minus,dotcolour,alfa,,,103,18,M,R,
367,115,31,8,2,27,53,600,['n'],1,right,['9'],5,345,[-0.12153453],87,53,easy,minus,dotcolour,alfa,,,103,18,M,R,
368,116,32,8,2,33,47,951,['n'],1,right,['9'],5,199,[-0.0589689],77,47,medium,minus,dotcolour,alfa,,,103,18,M,R,
369,117,33,8,2,27,53,667,['n'],1,right,['9'],5,214,[-0.18759854],97,53,easy,minus,dotcolour,alfa,,,103,18,M,R,
370,118,34,8,2,47,33,734,['c'],1,left,['9'],5,201,[0.07278385],81,47,medium,minus,dotcolour,alfa,,,103,18,M,R,
371,119,35,8,2,33,47,916,['c'],0,right,['1'],1,918,[-0.17296991],16,47,medium,minus,dotcolour,alfa,,,103,18,M,R,
372,120,36,8,2,47,33,733,['n'],0,left,['9'],5,212,[-0.11633307],91,47,medium,minus,dotcolour,alfa,,,103,18,M,R,
373,121,37,8,2,27,53,517,['n'],1,right,['9'],5,320,[-0.17995859],95,53,easy,minus,dotcolour,alfa,,,103,18,M,R,
374,122,38,8,2,44,36,1216,['c'],1,left,['9'],5,197,[0.05747969],76,44,hard,minus,dotcolour,alfa,,,103,18,M,R,
375,123,39,8,2,33,47,966,['n'],1,right,['9'],5,143,[-0.05315059],78,47,medium,minus,dotcolour,alfa,,,103,18,M,R,
376,124,40,8,2,44,36,2434,['n'],0,left,['3'],3,705,[-0.12437787],79,44,hard,minus,dotcolour,alfa,,,103,18,M,R,
377,125,41,8,2,27,53,800,['n'],1,right,['9'],5,270,[-0.09064021],83,53,easy,minus,dotcolour,alfa,,,103,18,M,R,
378,0,0,9,3,53,27,784,['c'],1,left,['9'],5,189,[0.16197836],100,53,easy,plus,dotcolour,alfa,,,103,18,M,R,
379,1,1,9,3,33,47,583,['n'],1,right,['9'],5,152,[-0.06754583],100,47,medium,plus,dotcolour,alfa,,,103,18,M,R,
380,2,2,9,3,36,44,717,['c'],0,right,['9'],5,151,[0.08226313],100,44,hard,plus,dotcolour,alfa,,,103,18,M,R,
381,3,3,9,3,47,33,817,['c'],1,left,['8'],4,210,[0.03101185],92,47,medium,plus,dotcolour,alfa,,,103,18,M,R,
382,4,4,9,3,27,53,533,['n'],1,right,['9'],5,125,[-0.10286166],100,53,easy,plus,dotcolour,alfa,,,103,18,M,R,
383,5,5,9,3,44,36,968,['c'],1,left,['8'],4,577,[0.18457347],100,44,hard,plus,dotcolour,alfa,,,103,18,M,R,
384,6,6,9,3,36,44,667,['n'],1,right,['9'],5,170,[-0.01868713],84,44,hard,plus,dotcolour,alfa,,,103,18,M,R,
385,7,7,9,3,27,53,717,['n'],1,right,['9'],5,159,[-0.0989376],100,53,easy,plus,dotcolour,alfa,,,103,18,M,R,
386,8,8,9,3,36,44,883,['c'],0,right,['9'],5,143,[0.10014175],100,44,hard,plus,dotcolour,alfa,,,103,18,M,R,
387,9,9,9,3,27,53,734,['n'],1,right,['9'],5,133,[-0.10492047],100,53,easy,plus,dotcolour,alfa,,,103,18,M,R,
388,10,10,9,3,44,36,701,['c'],1,left,['9'],5,140,[0.12545632],100,44,hard,plus,dotcolour,alfa,,,103,18,M,R,
389,11,11,9,3,53,27,700,['c'],1,left,['9'],5,196,[0.12969699],100,53,easy,plus,dotcolour,alfa,,,103,18,M,R,
390,12,12,9,3,44,36,1900,['n'],0,left,['8'],4,161,[-0.09378839],100,44,hard,plus,dotcolour,alfa,,,103,18,M,R,
391,13,13,9,3,44,36,717,['c'],1,left,['9'],5,159,[0.09992748],100,44,hard,plus,dotcolour,alfa,,,103,18,M,R,
392,14,14,9,3,36,44,1099,['n'],1,right,['9'],5,494,[-0.03853186],88,44,hard,plus,dotcolour,alfa,,,103,18,M,R,
393,15,15,9,3,27,53,783,['n'],1,right,['9'],5,156,[-0.0288096],93,53,easy,plus,dotcolour,alfa,,,103,18,M,R,
394,16,16,9,3,44,36,917,['c'],1,left,['9'],5,1003,[0.2983217],100,44,hard,plus,dotcolour,alfa,,,103,18,M,R,
395,17,17,9,3,47,33,866,['c'],1,left,['9'],5,569,[0.04460915],89,47,medium,plus,dotcolour,alfa,,,103,18,M,R,
396,18,18,9,3,33,47,849,['n'],1,right,['9'],5,250,[-0.04117502],95,47,medium,plus,dotcolour,alfa,,,103,18,M,R,
397,19,19,9,3,47,33,1068,['c'],1,left,['9'],5,1167,[0.19184977],100,47,medium,plus,dotcolour,alfa,,,103,18,M,R,
398,20,20,9,3,47,33,817,['c'],1,left,['9'],5,480,[0.1737637],100,47,medium,plus,dotcolour,alfa,,,103,18,M,R,
399,21,21,9,3,44,36,2367,['n'],0,left,['8'],4,647,[-0.09322689],98,44,hard,plus,dotcolour,alfa,,,103,18,M,R,
400,22,22,9,3,53,27,835,['n'],0,left,['1'],1,1141,[-0.03093511],74,53,easy,plus,dotcolour,alfa,,,103,18,M,R,
401,23,23,9,3,53,27,933,['c'],1,left,['9'],5,459,[0.0865746],99,53,easy,plus,dotcolour,alfa,,,103,18,M,R,
402,24,24,9,3,47,33,716,['c'],1,left,['9'],5,581,[0.10269345],99,47,medium,plus,dotcolour,alfa,,,103,18,M,R,
403,25,25,9,3,27,53,684,['n'],1,right,['9'],5,379,[-0.10136305],100,53,easy,plus,dotcolour,alfa,,,103,18,M,R,
404,26,26,9,3,27,53,817,['c'],0,right,['2'],2,1237,[-0.01894781],35,53,easy,plus,dotcolour,alfa,,,103,18,M,R,
405,27,27,9,3,47,33,1100,['c'],1,left,['9'],5,504,[0.10580328],100,47,medium,plus,dotcolour,alfa,,,103,18,M,R,
406,28,28,9,3,27,53,701,['n'],1,right,['9'],5,185,[-0.15491112],100,53,easy,plus,dotcolour,alfa,,,103,18,M,R,
407,29,29,9,3,33,47,618,['n'],1,right,['9'],5,122,[-0.03144212],96,47,medium,plus,dotcolour,alfa,,,103,18,M,R,
408,30,30,9,3,53,27,866,['c'],1,left,['9'],5,173,[0.1054015],100,53,easy,plus,dotcolour,alfa,,,103,18,M,R,
409,31,31,9,3,36,44,1567,['n'],1,right,['8'],4,289,[-0.17053171],100,44,hard,plus,dotcolour,alfa,,,103,18,M,R,
410,32,32,9,3,33,47,784,['n'],1,right,['9'],5,199,[-0.13342988],100,47,medium,plus,dotcolour,alfa,,,103,18,M,R,
411,33,33,9,3,36,44,967,['n'],1,right,['9'],5,498,[-0.08289576],99,44,hard,plus,dotcolour,alfa,,,103,18,M,R,
412,34,34,9,3,47,33,668,['c'],1,left,['9'],5,173,[0.15446875],100,47,medium,plus,dotcolour,alfa,,,103,18,M,R,
413,35,35,9,3,36,44,867,['c'],0,right,['8'],4,749,[0.01799779],68,44,hard,plus,dotcolour,alfa,,,103,18,M,R,
414,36,36,9,3,33,47,733,['n'],1,right,['9'],5,131,[-0.06736773],100,47,medium,plus,dotcolour,alfa,,,103,18,M,R,
415,37,37,9,3,53,27,650,['c'],1,left,['9'],5,197,[0.13031311],100,53,easy,plus,dotcolour,alfa,,,103,18,M,R,
416,38,38,9,3,53,27,684,['c'],1,left,['9'],5,202,[0.13781694],100,53,easy,plus,dotcolour,alfa,,,103,18,M,R,
417,39,39,9,3,44,36,933,['c'],1,left,['9'],5,215,[0.10555759],100,44,hard,plus,dotcolour,alfa,,,103,18,M,R,
418,40,40,9,3,33,47,834,['n'],1,right,['8'],4,702,[-0.08807279],98,47,medium,plus,dotcolour,alfa,,,103,18,M,R,
419,41,41,9,3,33,47,2100,['n'],1,right,['8'],4,384,[-0.12015439],100,47,medium,plus,dotcolour,alfa,,,103,18,M,R,
420,42,0,10,3,47,33,634,['c'],1,left,['9'],5,174,[0.11905361],100,47,medium,plus,dotcolour,alfa,,,103,18,M,R,
421,43,1,10,3,44,36,766,['c'],1,left,['8'],4,305,[0.07230335],99,44,hard,plus,dotcolour,alfa,,,103,18,M,R,
422,44,2,10,3,53,27,500,['c'],1,left,['9'],5,226,[0.14096244],100,53,easy,plus,dotcolour,alfa,,,103,18,M,R,
423,45,3,10,3,33,47,567,['n'],1,right,['9'],5,139,[-0.09062451],100,47,medium,plus,dotcolour,alfa,,,103,18,M,R,
424,46,4,10,3,44,36,650,['c'],1,left,['9'],5,253,[0.04776019],97,44,hard,plus,dotcolour,alfa,,,103,18,M,R,
425,47,5,10,3,44,36,800,['c'],1,left,['9'],5,132,[0.04285794],99,44,hard,plus,dotcolour,alfa,,,103,18,M,R,
426,48,6,10,3,47,33,650,['c'],1,left,['9'],5,118,[0.07002098],100,47,medium,plus,dotcolour,alfa,,,103,18,M,R,
427,49,7,10,3,44,36,567,['c'],1,left,['9'],5,149,[0.11571345],100,44,hard,plus,dotcolour,alfa,,,103,18,M,R,
428,50,8,10,3,47,33,452,['c'],1,left,['9'],5,134,[0.04764172],99,47,medium,plus,dotcolour,alfa,,,103,18,M,R,
429,51,9,10,3,33,47,833,['n'],1,right,['9'],5,313,[-0.10185374],100,47,medium,plus,dotcolour,alfa,,,103,18,M,R,
430,52,10,10,3,27,53,717,['n'],1,right,['9'],5,224,[-0.13802384],100,53,easy,plus,dotcolour,alfa,,,103,18,M,R,
431,53,11,10,3,47,33,584,['c'],1,left,['9'],5,129,[0.12559518],100,47,medium,plus,dotcolour,alfa,,,103,18,M,R,
432,54,12,10,3,36,44,1117,['n'],1,right,['9'],5,873,[-0.00130179],51,44,hard,plus,dotcolour,alfa,,,103,18,M,R,
433,55,13,10,3,36,44,1000,['n'],1,right,['9'],5,191,[0.01653461],20,44,hard,plus,dotcolour,alfa,,,103,18,M,R,
434,56,14,10,3,53,27,716,['c'],1,left,['9'],5,180,[0.1082968],100,53,easy,plus,dotcolour,alfa,,,103,18,M,R,
435,57,15,10,3,44,36,667,['c'],1,left,['9'],5,139,[0.04090564],98,44,hard,plus,dotcolour,alfa,,,103,18,M,R,
436,58,16,10,3,47,33,1000,['c'],1,left,['9'],5,479,[0.1462987],100,47,medium,plus,dotcolour,alfa,,,103,18,M,R,
437,59,17,10,3,33,47,933,['n'],1,right,['9'],5,136,[-0.12878574],100,47,medium,plus,dotcolour,alfa,,,103,18,M,R,
438,60,18,10,3,44,36,733,['c'],1,left,['9'],5,118,[0.0471073],99,44,hard,plus,dotcolour,alfa,,,103,18,M,R,
439,61,19,10,3,53,27,784,['c'],1,left,['9'],5,227,[0.11986536],100,53,easy,plus,dotcolour,alfa,,,103,18,M,R,
440,62,20,10,3,33,47,833,['n'],1,right,['9'],5,138,[-0.07358469],100,47,medium,plus,dotcolour,alfa,,,103,18,M,R,
441,63,21,10,3,27,53,701,['n'],1,right,['9'],5,146,[-0.0601791],100,53,easy,plus,dotcolour,alfa,,,103,18,M,R,
442,64,22,10,3,44,36,850,['c'],1,left,['9'],5,163,[0.02705209],92,44,hard,plus,dotcolour,alfa,,,103,18,M,R,
443,65,23,10,3,47,33,800,['c'],1,left,['9'],5,174,[0.14424218],100,47,medium,plus,dotcolour,alfa,,,103,18,M,R,
444,66,24,10,3,27,53,767,['n'],1,right,['9'],5,178,[-0.06574528],100,53,easy,plus,dotcolour,alfa,,,103,18,M,R,
445,67,25,10,3,33,47,1550,['n'],1,right,['9'],5,254,[-0.1098972],100,47,medium,plus,dotcolour,alfa,,,103,18,M,R,
446,68,26,10,3,33,47,618,['n'],1,right,['9'],5,188,[-0.10044752],100,47,medium,plus,dotcolour,alfa,,,103,18,M,R,
447,69,27,10,3,27,53,584,['n'],1,right,['9'],5,143,[-0.08998582],100,53,easy,plus,dotcolour,alfa,,,103,18,M,R,
448,70,28,10,3,53,27,734,['c'],1,left,['9'],5,197,[0.07784308],100,53,easy,plus,dotcolour,alfa,,,103,18,M,R,
449,71,29,10,3,27,53,800,['n'],1,right,['9'],5,310,[-0.12830852],100,53,easy,plus,dotcolour,alfa,,,103,18,M,R,
450,72,30,10,3,27,53,750,['n'],1,right,['0'],6,637,[-0.30104379],100,53,easy,plus,dotcolour,alfa,,,103,18,M,R,
451,73,31,10,3,36,44,1351,['c'],0,right,['8'],4,254,[0.02052978],81,44,hard,plus,dotcolour,alfa,,,103,18,M,R,
452,74,32,10,3,36,44,666,['n'],1,right,['9'],5,299,[-0.06645323],99,44,hard,plus,dotcolour,alfa,,,103,18,M,R,
453,75,33,10,3,36,44,1266,['c'],0,right,['8'],4,606,[-0.02548282],24,44,hard,plus,dotcolour,alfa,,,103,18,M,R,
454,76,34,10,3,36,44,1299,['n'],1,right,['9'],5,306,[-0.05485712],97,44,hard,plus,dotcolour,alfa,,,103,18,M,R,
455,77,35,10,3,53,27,1150,['c'],1,left,['9'],5,225,[0.10876189],100,53,easy,plus,dotcolour,alfa,,,103,18,M,R,
456,78,36,10,3,36,44,617,['n'],1,right,['9'],5,120,[-0.12493446],100,44,hard,plus,dotcolour,alfa,,,103,18,M,R,
457,79,37,10,3,27,53,666,['n'],1,right,['9'],5,123,[-0.076436],100,53,easy,plus,dotcolour,alfa,,,103,18,M,R,
458,80,38,10,3,53,27,534,['c'],1,left,['9'],5,146,[0.1411714],100,53,easy,plus,dotcolour,alfa,,,103,18,M,R,
459,81,39,10,3,47,33,550,['c'],1,left,['9'],5,175,[-0.00665469],36,47,medium,plus,dotcolour,alfa,,,103,18,M,R,
460,82,40,10,3,33,47,600,['n'],1,right,['9'],5,138,[-0.11799062],100,47,medium,plus,dotcolour,alfa,,,103,18,M,R,
461,83,41,10,3,53,27,700,['n'],0,left,['2'],2,1289,[0.14236843],1,53,easy,plus,dotcolour,alfa,,,103,18,M,R,
462,84,0,11,3,36,44,1468,['n'],1,right,['9'],5,221,[-0.14357358],100,44,hard,plus,dotcolour,alfa,,,103,18,M,R,
463,85,1,11,3,53,27,500,['c'],1,left,['9'],5,129,[0.09584884],100,53,easy,plus,dotcolour,alfa,,,103,18,M,R,
464,86,2,11,3,36,44,600,['n'],1,right,['9'],5,101,[-0.11575338],100,44,hard,plus,dotcolour,alfa,,,103,18,M,R,
465,87,3,11,3,27,53,701,['n'],1,right,['9'],5,183,[-0.1100639],100,53,easy,plus,dotcolour,alfa,,,103,18,M,R,
466,88,4,11,3,44,36,651,['c'],1,left,['9'],5,127,[0.04247599],99,44,hard,plus,dotcolour,alfa,,,103,18,M,R,
467,89,5,11,3,36,44,533,['n'],1,right,['9'],5,141,[-0.04141218],98,44,hard,plus,dotcolour,alfa,,,103,18,M,R,
468,90,6,11,3,44,36,783,['c'],1,left,['9'],5,289,[0.12605115],100,44,hard,plus,dotcolour,alfa,,,103,18,M,R,
469,91,7,11,3,27,53,816,['n'],1,right,['9'],5,134,[-0.10970574],100,53,easy,plus,dotcolour,alfa,,,103,18,M,R,
470,92,8,11,3,53,27,600,['c'],1,left,['0'],6,771,[0.2300883],100,53,easy,plus,dotcolour,alfa,,,103,18,M,R,
471,93,9,11,3,36,44,683,['c'],0,right,['2'],2,1394,[-0.07892019],8,44,hard,plus,dotcolour,alfa,,,103,18,M,R,
472,94,10,11,3,27,53,633,['n'],1,right,['9'],5,121,[-0.09326556],100,53,easy,plus,dotcolour,alfa,,,103,18,M,R,
473,95,11,11,3,47,33,1001,['c'],1,left,['9'],5,190,[0.01485996],77,47,medium,plus,dotcolour,alfa,,,103,18,M,R,
474,96,12,11,3,36,44,1101,['n'],1,right,['2'],2,1147,[-0.00731597],56,44,hard,plus,dotcolour,alfa,,,103,18,M,R,
475,97,13,11,3,44,36,1400,['c'],1,left,['9'],5,358,[0.19922919],100,44,hard,plus,dotcolour,alfa,,,103,18,M,R,
476,98,14,11,3,27,53,3867,['n'],1,right,['9'],5,846,[-0.17326117],100,53,easy,plus,dotcolour,alfa,,,103,18,M,R,
477,99,15,11,3,47,33,834,['c'],1,left,['9'],5,140,[0.08176488],100,47,medium,plus,dotcolour,alfa,,,103,18,M,R,
478,100,16,11,3,53,27,617,['c'],1,left,['0'],6,279,[0.2162418],100,53,easy,plus,dotcolour,alfa,,,103,18,M,R,
479,101,17,11,3,53,27,666,['c'],1,left,['0'],6,410,[0.21943482],100,53,easy,plus,dotcolour,alfa,,,103,18,M,R,
480,102,18,11,3,33,47,732,['n'],1,right,['9'],5,238,[0.00343556],44,47,medium,plus,dotcolour,alfa,,,103,18,M,R,
481,103,19,11,3,44,36,984,['c'],1,left,['0'],6,614,[0.13000144],100,44,hard,plus,dotcolour,alfa,,,103,18,M,R,
482,104,20,11,3,33,47,1182,['n'],1,right,['9'],5,256,[-0.14970208],100,47,medium,plus,dotcolour,alfa,,,103,18,M,R,
483,105,21,11,3,53,27,850,['c'],1,left,['9'],5,388,[0.15556561],100,53,easy,plus,dotcolour,alfa,,,103,18,M,R,
484,106,22,11,3,47,33,800,['c'],1,left,['0'],6,318,[0.06427005],98,47,medium,plus,dotcolour,alfa,,,103,18,M,R,
485,107,23,11,3,27,53,1217,['n'],1,right,['9'],5,202,[-0.05934845],99,53,easy,plus,dotcolour,alfa,,,103,18,M,R,
486,108,24,11,3,33,47,849,['n'],1,right,['9'],5,257,[-0.12876634],100,47,medium,plus,dotcolour,alfa,,,103,18,M,R,
487,109,25,11,3,36,44,700,['n'],1,right,['8'],4,244,[-0.0394743],95,44,hard,plus,dotcolour,alfa,,,103,18,M,R,
488,110,26,11,3,53,27,816,['c'],1,left,['9'],5,354,[0.13746597],100,53,easy,plus,dotcolour,alfa,,,103,18,M,R,
489,111,27,11,3,44,36,1717,['c'],1,left,['9'],5,169,[0.06130208],100,44,hard,plus,dotcolour,alfa,,,103,18,M,R,
490,112,28,11,3,33,47,717,['n'],1,right,['9'],5,128,[-0.08527237],100,47,medium,plus,dotcolour,alfa,,,103,18,M,R,
491,113,29,11,3,44,36,1416,['n'],0,left,['8'],4,203,[-0.0002244],50,44,hard,plus,dotcolour,alfa,,,103,18,M,R,
492,114,30,11,3,44,36,1117,['c'],1,left,['8'],4,255,[-0.01382183],27,44,hard,plus,dotcolour,alfa,,,103,18,M,R,
493,115,31,11,3,47,33,1268,['c'],1,left,['9'],5,779,[0.27103106],100,47,medium,plus,dotcolour,alfa,,,103,18,M,R,
494,116,32,11,3,33,47,818,['n'],1,right,['9'],5,205,[-0.02669762],89,47,medium,plus,dotcolour,alfa,,,103,18,M,R,
495,117,33,11,3,47,33,815,['c'],1,left,['9'],5,550,[0.11022473],100,47,medium,plus,dotcolour,alfa,,,103,18,M,R,
496,118,34,11,3,27,53,650,['n'],1,right,['9'],5,127,[-0.09870871],100,53,easy,plus,dotcolour,alfa,,,103,18,M,R,
497,119,35,11,3,27,53,2616,['n'],1,right,['9'],5,227,[-0.08993644],100,53,easy,plus,dotcolour,alfa,,,103,18,M,R,
498,120,36,11,3,47,33,801,['c'],1,left,['9'],5,122,[0.13107999],100,47,medium,plus,dotcolour,alfa,,,103,18,M,R,
499,121,37,11,3,33,47,1966,['n'],1,right,['9'],5,160,[-0.06472512],100,47,medium,plus,dotcolour,alfa,,,103,18,M,R,
500,122,38,11,3,36,44,699,['c'],0,right,['9'],5,199,[0.04520196],97,44,hard,plus,dotcolour,alfa,,,103,18,M,R,
501,123,39,11,3,33,47,500,['n'],1,right,['9'],5,140,[-0.14147976],100,47,medium,plus,dotcolour,alfa,,,103,18,M,R,
502,124,40,11,3,47,33,617,['c'],1,left,['9'],5,151,[0.00338152],58,47,medium,plus,dotcolour,alfa,,,103,18,M,R,
503,125,41,11,3,53,27,734,['c'],1,left,['9'],5,197,[0.13536998],100,53,easy,plus,dotcolour,alfa,,,103,18,M,R,
504,0,0,12,4,53,27,617,['c'],1,left,['9'],5,142,[0.0554338],79,53,easy,minus,dotcolour,alfa,,,103,18,M,R,
505,1,1,12,4,47,33,584,['c'],1,left,['9'],5,130,[0.04710156],76,47,medium,minus,dotcolour,alfa,,,103,18,M,R,
506,2,2,12,4,36,44,2617,['n'],1,right,['3'],3,958,[-0.31591973],95,44,hard,minus,dotcolour,alfa,,,103,18,M,R,
507,3,3,12,4,53,27,1000,['c'],1,left,['9'],5,161,[0.15224272],97,53,easy,minus,dotcolour,alfa,,,103,18,M,R,
508,4,4,12,4,36,44,917,['c'],0,right,['9'],5,1366,[0.08405884],66,44,hard,minus,dotcolour,alfa,,,103,18,M,R,
509,5,5,12,4,47,33,700,['c'],1,left,['9'],5,148,[0.10144456],91,47,medium,minus,dotcolour,alfa,,,103,18,M,R,
510,6,6,12,4,44,36,700,['n'],0,left,['9'],5,340,[-5.76419156e-05],50,44,hard,minus,dotcolour,alfa,,,103,18,M,R,
511,7,7,12,4,44,36,1133,['c'],1,left,['9'],5,194,[0.10616741],90,44,hard,minus,dotcolour,alfa,,,103,18,M,R,
512,8,8,12,4,47,33,600,['c'],1,left,['9'],5,179,[0.0839209],86,47,medium,minus,dotcolour,alfa,,,103,18,M,R,
513,9,9,12,4,47,33,616,['c'],1,left,['9'],5,348,[0.10064091],82,47,medium,minus,dotcolour,alfa,,,103,18,M,R,
514,10,10,12,4,27,53,1099,['n'],1,right,['9'],5,124,[-0.08130942],89,53,easy,minus,dotcolour,alfa,,,103,18,M,R,
515,11,11,12,4,53,27,767,['c'],1,left,['0'],6,329,[0.18977864],95,53,easy,minus,dotcolour,alfa,,,103,18,M,R,
516,12,12,12,4,47,33,1250,['c'],1,left,['8'],4,339,[0.10799434],84,47,medium,minus,dotcolour,alfa,,,103,18,M,R,
517,13,13,12,4,47,33,549,['c'],1,left,['9'],5,352,[0.26963284],98,47,medium,minus,dotcolour,alfa,,,103,18,M,R,
518,14,14,12,4,27,53,667,['n'],1,right,['9'],5,289,[-0.10219153],85,53,easy,minus,dotcolour,alfa,,,103,18,M,R,
519,15,15,12,4,27,53,734,['n'],1,right,['9'],5,194,[-0.02561645],63,53,easy,minus,dotcolour,alfa,,,103,18,M,R,
520,16,16,12,4,33,47,600,['n'],1,right,['0'],6,571,[-0.18546893],90,47,medium,minus,dotcolour,alfa,,,103,18,M,R,
521,17,17,12,4,53,27,867,['c'],1,left,['9'],5,194,[0.11587945],91,53,easy,minus,dotcolour,alfa,,,103,18,M,R,
522,18,18,12,4,47,33,899,['c'],1,left,['9'],5,168,[0.06892329],82,47,medium,minus,dotcolour,alfa,,,103,18,M,R,
523,19,19,12,4,33,47,650,['n'],1,right,['8'],4,593,[0.08142557],28,47,medium,minus,dotcolour,alfa,,,103,18,M,R,
524,20,20,12,4,44,36,1516,['n'],0,left,['8'],4,173,[-0.08882956],87,44,hard,minus,dotcolour,alfa,,,103,18,M,R,
525,21,21,12,4,33,47,1568,['n'],1,right,['8'],4,176,[-0.12418306],93,47,medium,minus,dotcolour,alfa,,,103,18,M,R,
526,22,22,12,4,33,47,700,['n'],1,right,['9'],5,246,[-0.13600813],92,47,medium,minus,dotcolour,alfa,,,103,18,M,R,
527,23,23,12,4,53,27,783,['c'],1,left,['9'],5,142,[0.09810718],91,53,easy,minus,dotcolour,alfa,,,103,18,M,R,
528,24,24,12,4,53,27,1335,['c'],1,left,['9'],5,237,[0.0945271],85,53,easy,minus,dotcolour,alfa,,,103,18,M,R,
529,25,25,12,4,27,53,584,['n'],1,right,['9'],5,197,[-0.13394855],94,53,easy,minus,dotcolour,alfa,,,103,18,M,R,
530,26,26,12,4,44,36,716,['c'],1,left,['9'],5,274,[0.01023908],54,44,hard,minus,dotcolour,alfa,,,103,18,M,R,
531,27,27,12,4,33,47,766,['n'],1,right,['9'],5,258,[-0.07406758],79,47,medium,minus,dotcolour,alfa,,,103,18,M,R,
532,28,28,12,4,27,53,783,['n'],1,right,['9'],5,153,[-0.08340852],87,53,easy,minus,dotcolour,alfa,,,103,18,M,R,
533,29,29,12,4,36,44,1183,['c'],0,right,['8'],4,221,[0.15074008],95,44,hard,minus,dotcolour,alfa,,,103,18,M,R,
534,30,30,12,4,36,44,700,['n'],1,right,['9'],5,209,[-0.08539746],84,44,hard,minus,dotcolour,alfa,,,103,18,M,R,
535,31,31,12,4,53,27,717,['c'],1,left,['9'],5,181,[0.08380979],85,53,easy,minus,dotcolour,alfa,,,103,18,M,R,
536,32,32,12,4,44,36,1116,['n'],0,left,['9'],5,227,[-0.07267408],80,44,hard,minus,dotcolour,alfa,,,103,18,M,R,
537,33,33,12,4,44,36,732,['c'],1,left,['9'],5,462,[-0.03160372],40,44,hard,minus,dotcolour,alfa,,,103,18,M,R,
538,34,34,12,4,44,36,951,['c'],1,left,['8'],4,879,[0.0208225],55,44,hard,minus,dotcolour,alfa,,,103,18,M,R,
539,35,35,12,4,33,47,750,['n'],1,right,['8'],4,270,[-0.14000215],92,47,medium,minus,dotcolour,alfa,,,103,18,M,R,
540,36,36,12,4,27,53,816,['n'],1,right,['9'],5,148,[-0.0919716],90,53,easy,minus,dotcolour,alfa,,,103,18,M,R,
541,37,37,12,4,36,44,849,['c'],0,right,['8'],4,574,[-0.12935463],18,44,hard,minus,dotcolour,alfa,,,103,18,M,R,
542,38,38,12,4,27,53,1417,['n'],1,right,['9'],5,294,[-0.14368384],92,53,easy,minus,dotcolour,alfa,,,103,18,M,R,
543,39,39,12,4,36,44,1417,['c'],0,right,['9'],5,179,[0.05930668],78,44,hard,minus,dotcolour,alfa,,,103,18,M,R,
544,40,40,12,4,36,44,951,['n'],1,right,['9'],5,264,[-0.05610595],73,44,hard,minus,dotcolour,alfa,,,103,18,M,R,
545,41,41,12,4,33,47,1450,['n'],1,right,['0'],6,477,[-0.09256012],77,47,medium,minus,dotcolour,alfa,,,103,18,M,R,
546,42,0,13,4,47,33,666,['c'],1,left,['0'],6,234,[0.09787702],86,47,medium,minus,dotcolour,alfa,,,103,18,M,R,
547,43,1,13,4,53,27,683,['c'],1,left,['0'],6,374,[0.17485284],93,53,easy,minus,dotcolour,alfa,,,103,18,M,R,
548,44,2,13,4,44,36,832,['n'],0,left,['9'],5,311,[-0.16510459],93,44,hard,minus,dotcolour,alfa,,,103,18,M,R,
549,45,3,13,4,53,27,667,['c'],1,left,['0'],6,177,[0.07617413],84,53,easy,minus,dotcolour,alfa,,,103,18,M,R,
550,46,4,13,4,47,33,1099,['c'],1,left,['8'],4,951,[0.34540827],96,47,medium,minus,dotcolour,alfa,,,103,18,M,R,
551,47,5,13,4,36,44,1051,['n'],1,right,['8'],4,320,[-0.06991504],75,44,hard,minus,dotcolour,alfa,,,103,18,M,R,
552,48,6,13,4,53,27,700,['c'],1,left,['9'],5,537,[0.18794459],91,53,easy,minus,dotcolour,alfa,,,103,18,M,R,
553,49,7,13,4,36,44,1351,['n'],1,right,['9'],5,238,[-0.09413021],85,44,hard,minus,dotcolour,alfa,,,103,18,M,R,
554,50,8,13,4,33,47,1166,['n'],1,right,['9'],5,903,[-0.21500202],88,47,medium,minus,dotcolour,alfa,,,103,18,M,R,
555,51,9,13,4,47,33,733,['c'],1,left,['9'],5,495,[0.19114269],92,47,medium,minus,dotcolour,alfa,,,103,18,M,R,
556,52,10,13,4,44,36,684,['c'],1,left,['0'],6,232,[0.12922909],92,44,hard,minus,dotcolour,alfa,,,103,18,M,R,
557,53,11,13,4,44,36,950,['c'],1,left,['8'],4,323,[0.12307761],88,44,hard,minus,dotcolour,alfa,,,103,18,M,R,
558,54,12,13,4,44,36,1051,['c'],1,left,['9'],5,357,[0.13195826],88,44,hard,minus,dotcolour,alfa,,,103,18,M,R,
559,55,13,13,4,36,44,800,['n'],1,right,['9'],5,175,[-0.06677934],81,44,hard,minus,dotcolour,alfa,,,103,18,M,R,
560,56,14,13,4,27,53,899,['n'],1,right,['0'],6,262,[-0.09871447],85,53,easy,minus,dotcolour,alfa,,,103,18,M,R,
561,57,15,13,4,36,44,1116,['n'],1,right,['0'],6,112,[-0.04459065],77,44,hard,minus,dotcolour,alfa,,,103,18,M,R,
562,58,16,13,4,33,47,1050,['n'],1,right,['9'],5,234,[-0.0960689],86,47,medium,minus,dotcolour,alfa,,,103,18,M,R,
563,59,17,13,4,47,33,767,['c'],1,left,['9'],5,308,[0.12696608],89,47,medium,minus,dotcolour,alfa,,,103,18,M,R,
564,60,18,13,4,53,27,616,['c'],1,left,['0'],6,199,[0.12148792],92,53,easy,minus,dotcolour,alfa,,,103,18,M,R,
565,61,19,13,4,47,33,682,['c'],1,left,['9'],5,319,[0.15032629],92,47,medium,minus,dotcolour,alfa,,,103,18,M,R,
566,62,20,13,4,33,47,732,['n'],1,right,['9'],5,182,[-0.07159119],82,47,medium,minus,dotcolour,alfa,,,103,18,M,R,
567,63,21,13,4,47,33,650,['c'],1,left,['9'],5,397,[0.05747397],69,47,medium,minus,dotcolour,alfa,,,103,18,M,R,
568,64,22,13,4,44,36,634,['c'],1,left,['9'],5,254,[0.05865558],74,44,hard,minus,dotcolour,alfa,,,103,18,M,R,
569,65,23,13,4,36,44,1000,['c'],0,right,['8'],4,876,[0.10485056],73,44,hard,minus,dotcolour,alfa,,,103,18,M,R,
570,66,24,13,4,53,27,1200,['c'],1,left,['0'],6,562,[0.24480441],95,53,easy,minus,dotcolour,alfa,,,103,18,M,R,
571,67,25,13,4,27,53,765,['n'],1,right,['9'],5,366,[-0.17643292],93,53,easy,minus,dotcolour,alfa,,,103,18,M,R,
572,68,26,13,4,53,27,784,['c'],1,left,['9'],5,402,[0.13175406],87,53,easy,minus,dotcolour,alfa,,,103,18,M,R,
573,69,27,13,4,36,44,632,['n'],1,right,['9'],5,218,[-0.0780027],82,44,hard,minus,dotcolour,alfa,,,103,18,M,R,
574,70,28,13,4,27,53,634,['n'],1,right,['0'],6,249,[-0.09875943],86,53,easy,minus,dotcolour,alfa,,,103,18,M,R,
575,71,29,13,4,27,53,700,['n'],1,right,['9'],5,244,[-0.17381231],96,53,easy,minus,dotcolour,alfa,,,103,18,M,R,
576,72,30,13,4,33,47,885,['n'],1,right,['9'],5,280,[-0.11084338],87,47,medium,minus,dotcolour,alfa,,,103,18,M,R,
577,73,31,13,4,47,33,717,['c'],1,left,['9'],5,194,[0.1504498],96,47,medium,minus,dotcolour,alfa,,,103,18,M,R,
578,74,32,13,4,44,36,1085,['c'],1,left,['9'],5,232,[0.01166934],55,44,hard,minus,dotcolour,alfa,,,103,18,M,R,
579,75,33,13,4,33,47,967,['n'],1,right,['9'],5,210,[-0.05388636],74,47,medium,minus,dotcolour,alfa,,,103,18,M,R,
580,76,34,13,4,53,27,816,['c'],1,left,['0'],6,466,[0.15923744],89,53,easy,minus,dotcolour,alfa,,,103,18,M,R,
581,77,35,13,4,36,44,850,['n'],1,right,['9'],5,478,[-0.25746772],97,44,hard,minus,dotcolour,alfa,,,103,18,M,R,
582,78,36,13,4,27,53,734,['n'],1,right,['0'],6,470,[-0.12652552],84,53,easy,minus,dotcolour,alfa,,,103,18,M,R,
583,79,37,13,4,33,47,1533,['n'],1,right,['9'],5,1159,[-0.28390624],91,47,medium,minus,dotcolour,alfa,,,103,18,M,R,
584,80,38,13,4,27,53,483,['n'],1,right,['9'],5,279,[-0.10579813],86,53,easy,minus,dotcolour,alfa,,,103,18,M,R,
585,81,39,13,4,33,47,550,['n'],1,right,['9'],5,327,[-0.10768132],84,47,medium,minus,dotcolour,alfa,,,103,18,M,R,
586,82,40,13,4,27,53,584,['n'],1,right,['9'],5,868,[-0.19351884],87,53,easy,minus,dotcolour,alfa,,,103,18,M,R,
587,83,41,13,4,44,36,617,['c'],1,left,['9'],5,201,[0.10799545],90,44,hard,minus,dotcolour,alfa,,,103,18,M,R,
588,84,0,14,4,27,53,650,['n'],1,right,['9'],5,188,[-0.14108363],95,53,easy,minus,dotcolour,alfa,,,103,18,M,R,
589,85,1,14,4,36,44,633,['n'],1,right,['9'],5,181,[-0.13096388],94,44,hard,minus,dotcolour,alfa,,,103,18,M,R,
590,86,2,14,4,47,33,1267,['c'],1,left,['9'],5,364,[0.23158154],97,47,medium,minus,dotcolour,alfa,,,103,18,M,R,
591,87,3,14,4,44,36,666,['c'],1,left,['8'],4,237,[0.08971408],84,44,hard,minus,dotcolour,alfa,,,103,18,M,R,
592,88,4,14,4,47,33,533,['c'],1,left,['9'],5,223,[0.07069898],79,47,medium,minus,dotcolour,alfa,,,103,18,M,R,
593,89,5,14,4,44,36,667,['c'],1,left,['0'],6,188,[0.12407534],93,44,hard,minus,dotcolour,alfa,,,103,18,M,R,
594,90,6,14,4,47,33,717,['c'],1,left,['0'],6,210,[0.09772817],87,47,medium,minus,dotcolour,alfa,,,103,18,M,R,
595,91,7,14,4,33,47,634,['n'],1,right,['9'],5,178,[-0.05233356],75,47,medium,minus,dotcolour,alfa,,,103,18,M,R,
596,92,8,14,4,53,27,917,['c'],1,left,['9'],5,558,[0.18441865],90,53,easy,minus,dotcolour,alfa,,,103,18,M,R,
597,93,9,14,4,47,33,650,['c'],1,left,['9'],5,191,[0.0544115],75,47,medium,minus,dotcolour,alfa,,,103,18,M,R,
598,94,10,14,4,47,33,700,['c'],1,left,['9'],5,220,[0.10524866],88,47,medium,minus,dotcolour,alfa,,,103,18,M,R,
599,95,11,14,4,44,36,717,['c'],1,left,['9'],5,656,[0.05409304],65,44,hard,minus,dotcolour,alfa,,,103,18,M,R,
600,96,12,14,4,36,44,634,['c'],0,right,['9'],5,246,[0.07020778],78,44,hard,minus,dotcolour,alfa,,,103,18,M,R,
601,97,13,14,4,33,47,635,['c'],0,right,['2'],2,1221,[0.06730296],63,47,medium,minus,dotcolour,alfa,,,103,18,M,R,
602,98,14,14,4,33,47,667,['n'],1,right,['9'],5,257,[-0.040889],67,47,medium,minus,dotcolour,alfa,,,103,18,M,R,
603,99,15,14,4,44,36,950,['n'],0,left,['9'],5,450,[-0.00070034],50,44,hard,minus,dotcolour,alfa,,,103,18,M,R,
604,100,16,14,4,33,47,984,['n'],1,right,['9'],5,194,[-0.09187238],87,47,medium,minus,dotcolour,alfa,,,103,18,M,R,
605,101,17,14,4,53,27,717,['c'],1,left,['9'],5,271,[0.23029389],98,53,easy,minus,dotcolour,alfa,,,103,18,M,R,
606,102,18,14,4,53,27,633,['c'],1,left,['9'],5,164,[0.08955065],88,53,easy,minus,dotcolour,alfa,,,103,18,M,R,
607,103,19,14,4,27,53,650,['n'],1,right,['9'],5,172,[-0.07321048],83,53,easy,minus,dotcolour,alfa,,,103,18,M,R,
608,104,20,14,4,33,47,850,['n'],1,right,['9'],5,565,[-0.21738461],93,47,medium,minus,dotcolour,alfa,,,103,18,M,R,
609,105,21,14,4,44,36,835,['c'],1,left,['9'],5,622,[0.15332368],85,44,hard,minus,dotcolour,alfa,,,103,18,M,R,
610,106,22,14,4,47,33,800,['c'],1,left,['0'],6,222,[0.18871248],97,47,medium,minus,dotcolour,alfa,,,103,18,M,R,
611,107,23,14,4,53,27,683,['c'],1,left,['0'],6,123,[0.06864878],85,53,easy,minus,dotcolour,alfa,,,103,18,M,R,
612,108,24,14,4,53,27,583,['c'],1,left,['0'],6,144,[0.12722656],95,53,easy,minus,dotcolour,alfa,,,103,18,M,R,
613,109,25,14,4,33,47,867,['n'],1,right,['9'],5,281,[-0.14321682],92,47,medium,minus,dotcolour,alfa,,,103,18,M,R,
614,110,26,14,4,44,36,766,['c'],1,left,['0'],6,225,[0.04815495],71,44,hard,minus,dotcolour,alfa,,,103,18,M,R,
615,111,27,14,4,36,44,984,['c'],0,right,['0'],6,168,[0.04471147],73,44,hard,minus,dotcolour,alfa,,,103,18,M,R,
616,112,28,14,4,53,27,684,['c'],1,left,['0'],6,153,[0.15128954],97,53,easy,minus,dotcolour,alfa,,,103,18,M,R,
617,113,29,14,4,44,36,568,['c'],1,left,['0'],6,117,[0.08744151],91,44,hard,minus,dotcolour,alfa,,,103,18,M,R,
618,114,30,14,4,27,53,549,['n'],1,right,['9'],5,107,[-0.09469236],93,53,easy,minus,dotcolour,alfa,,,103,18,M,R,
619,115,31,14,4,33,47,634,['n'],1,right,['9'],5,231,[-0.06299919],76,47,medium,minus,dotcolour,alfa,,,103,18,M,R,
620,116,32,14,4,27,53,700,['n'],1,right,['9'],5,203,[-0.15219022],95,53,easy,minus,dotcolour,alfa,,,103,18,M,R,
621,117,33,14,4,53,27,684,['c'],1,left,['0'],6,217,[0.13996769],94,53,easy,minus,dotcolour,alfa,,,103,18,M,R,
622,118,34,14,4,27,53,616,['n'],1,right,['9'],5,177,[-0.13220176],94,53,easy,minus,dotcolour,alfa,,,103,18,M,R,
623,119,35,14,4,36,44,4101,['n'],1,right,['8'],4,319,[-0.09668097],82,44,hard,minus,dotcolour,alfa,,,103,18,M,R,
624,120,36,14,4,36,44,699,['n'],1,right,['9'],5,232,[-0.14610535],94,44,hard,minus,dotcolour,alfa,,,103,18,M,R,
625,121,37,14,4,36,44,934,['n'],1,right,['9'],5,171,[-0.10865993],91,44,hard,minus,dotcolour,alfa,,,103,18,M,R,
626,122,38,14,4,36,44,782,['n'],1,right,['9'],5,134,[-0.04068415],73,44,hard,minus,dotcolour,alfa,,,103,18,M,R,
627,123,39,14,4,27,53,650,['n'],1,right,['9'],5,73,[-0.06904861],91,53,easy,minus,dotcolour,alfa,,,103,18,M,R,
628,124,40,14,4,47,33,586,['c'],1,left,['9'],5,135,[0.14686729],97,47,medium,minus,dotcolour,alfa,,,103,18,M,R,
629,125,41,14,4,27,53,518,['n'],1,right,['9'],5,94,[-0.0929749],94,53,easy,minus,dotcolour,alfa,,,103,18,M,R,
630,0,0,15,5,44,36,701,['c'],1,left,['9'],5,106,[0.07491124],100,44,hard,plus,dotcolour,alfa,,,103,18,M,R,
631,1,1,15,5,44,36,517,['c'],1,left,['9'],5,58,[0.07672172],100,44,hard,plus,dotcolour,alfa,,,103,18,M,R,
632,2,2,15,5,47,33,533,['c'],1,left,['0'],6,99,[0.09939687],100,47,medium,plus,dotcolour,alfa,,,103,18,M,R,
633,3,3,15,5,36,44,483,['n'],1,right,['9'],5,382,[-0.08889717],99,44,hard,plus,dotcolour,alfa,,,103,18,M,R,
634,4,4,15,5,27,53,650,['n'],1,right,['9'],5,126,[-0.04511828],99,53,easy,plus,dotcolour,alfa,,,103,18,M,R,
635,5,5,15,5,33,47,668,['c'],0,right,['8'],4,919,[-0.09499423],3,47,medium,plus,dotcolour,alfa,,,103,18,M,R,
636,6,6,15,5,36,44,1534,['c'],0,right,['9'],5,326,[0.00042404],51,44,hard,plus,dotcolour,alfa,,,103,18,M,R,
637,7,7,15,5,47,33,683,['c'],1,left,['9'],5,110,[0.06565882],100,47,medium,plus,dotcolour,alfa,,,103,18,M,R,
638,8,8,15,5,36,44,1051,['c'],0,right,['8'],4,153,[0.04185945],98,44,hard,plus,dotcolour,alfa,,,103,18,M,R,
639,9,9,15,5,47,33,766,['n'],0,left,['9'],5,134,[-0.06308801],100,47,medium,plus,dotcolour,alfa,,,103,18,M,R,
640,10,10,15,5,27,53,567,['n'],1,right,['8'],4,202,[-0.19778171],100,53,easy,plus,dotcolour,alfa,,,103,18,M,R,
641,11,11,15,5,47,33,583,['c'],1,left,['9'],5,156,[0.1466211],100,47,medium,plus,dotcolour,alfa,,,103,18,M,R,
642,12,12,15,5,36,44,799,['c'],0,right,['9'],5,200,[0.14237452],100,44,hard,plus,dotcolour,alfa,,,103,18,M,R,
643,13,13,15,5,36,44,734,['n'],1,right,['9'],5,75,[-0.05605653],100,44,hard,plus,dotcolour,alfa,,,103,18,M,R,
644,14,14,15,5,33,47,850,['n'],1,right,['9'],5,23,[-0.0678588],100,47,medium,plus,dotcolour,alfa,,,103,18,M,R,
645,15,15,15,5,44,36,1034,['c'],1,left,['9'],5,367,[0.0310105],86,44,hard,plus,dotcolour,alfa,,,103,18,M,R,
646,16,16,15,5,53,27,666,['c'],1,left,['9'],5,287,[0.1554573],100,53,easy,plus,dotcolour,alfa,,,103,18,M,R,
647,17,17,15,5,27,53,633,['n'],1,right,['0'],6,371,[-0.07261179],99,53,easy,plus,dotcolour,alfa,,,103,18,M,R,
648,18,18,15,5,36,44,1616,['c'],0,right,['8'],4,205,[0.07344353],100,44,hard,plus,dotcolour,alfa,,,103,18,M,R,
649,19,19,15,5,53,27,801,['c'],1,left,['9'],5,150,[0.07315927],100,53,easy,plus,dotcolour,alfa,,,103,18,M,R,
650,20,20,15,5,33,47,583,['n'],1,right,['9'],5,82,[-0.05131217],100,47,medium,plus,dotcolour,alfa,,,103,18,M,R,
651,21,21,15,5,53,27,666,['c'],1,left,['9'],5,110,[0.11294113],100,53,easy,plus,dotcolour,alfa,,,103,18,M,R,
652,22,22,15,5,44,36,550,['c'],1,left,['9'],5,141,[0.05911038],100,44,hard,plus,dotcolour,alfa,,,103,18,M,R,
653,23,23,15,5,53,27,534,['c'],1,left,['9'],5,114,[0.13286029],100,53,easy,plus,dotcolour,alfa,,,103,18,M,R,
654,24,24,15,5,53,27,500,['c'],1,left,['0'],6,140,[0.06831981],100,53,easy,plus,dotcolour,alfa,,,103,18,M,R,
655,25,25,15,5,27,53,567,['n'],1,right,['9'],5,296,[-0.09058338],100,53,easy,plus,dotcolour,alfa,,,103,18,M,R,
656,26,26,15,5,53,27,567,['c'],1,left,['0'],6,176,[0.10147102],100,53,easy,plus,dotcolour,alfa,,,103,18,M,R,
657,27,27,15,5,27,53,667,['n'],1,right,['9'],5,182,[-0.09858282],100,53,easy,plus,dotcolour,alfa,,,103,18,M,R,
658,28,28,15,5,47,33,900,['c'],1,left,['9'],5,389,[0.13553173],100,47,medium,plus,dotcolour,alfa,,,103,18,M,R,
659,29,29,15,5,47,33,650,['c'],1,left,['9'],5,300,[0.1426323],100,47,medium,plus,dotcolour,alfa,,,103,18,M,R,
660,30,30,15,5,33,47,452,['n'],1,right,['9'],5,79,[-0.094821],100,47,medium,plus,dotcolour,alfa,,,103,18,M,R,
661,31,31,15,5,44,36,500,['c'],1,left,['9'],5,97,[0.08328153],100,44,hard,plus,dotcolour,alfa,,,103,18,M,R,
662,32,32,15,5,27,53,517,['n'],1,right,['9'],5,42,[-0.03361042],100,53,easy,plus,dotcolour,alfa,,,103,18,M,R,
663,33,33,15,5,47,33,482,['c'],1,left,['9'],5,134,[0.10355151],100,47,medium,plus,dotcolour,alfa,,,103,18,M,R,
664,34,34,15,5,33,47,483,['n'],1,right,['9'],5,95,[-0.04979099],100,47,medium,plus,dotcolour,alfa,,,103,18,M,R,
665,35,35,15,5,44,36,483,['c'],1,left,['9'],5,129,[0.11906401],100,44,hard,plus,dotcolour,alfa,,,103,18,M,R,
666,36,36,15,5,53,27,600,['c'],1,left,['9'],5,108,[0.13560889],100,53,easy,plus,dotcolour,alfa,,,103,18,M,R,
667,37,37,15,5,27,53,449,['n'],1,right,['9'],5,112,[-0.06822893],100,53,easy,plus,dotcolour,alfa,,,103,18,M,R,
668,38,38,15,5,36,44,533,['c'],0,right,['0'],6,102,[0.03149502],97,44,hard,plus,dotcolour,alfa,,,103,18,M,R,
669,39,39,15,5,33,47,717,['n'],1,right,['0'],6,95,[-0.06447072],100,47,medium,plus,dotcolour,alfa,,,103,18,M,R,
670,40,40,15,5,33,47,1000,['n'],1,right,['0'],6,173,[-0.04909912],99,47,medium,plus,dotcolour,alfa,,,103,18,M,R,
671,41,41,15,5,44,36,999,['n'],0,left,['0'],6,87,[-0.05354605],100,44,hard,plus,dotcolour,alfa,,,103,18,M,R,
672,42,0,16,5,33,47,668,['n'],1,right,['0'],6,240,[-0.14794467],100,47,medium,plus,dotcolour,alfa,,,103,18,M,R,
673,43,1,16,5,47,33,516,['c'],1,left,['9'],5,123,[0.09777239],100,47,medium,plus,dotcolour,alfa,,,103,18,M,R,
674,44,2,16,5,53,27,634,['c'],1,left,['9'],5,142,[0.07272664],100,53,easy,plus,dotcolour,alfa,,,103,18,M,R,
675,45,3,16,5,53,27,516,['c'],1,left,['9'],5,101,[0.12214986],100,53,easy,plus,dotcolour,alfa,,,103,18,M,R,
676,46,4,16,5,44,36,483,['c'],1,left,['9'],5,134,[0.08396036],100,44,hard,plus,dotcolour,alfa,,,103,18,M,R,
677,47,5,16,5,47,33,433,['c'],1,left,['9'],5,130,[0.11358857],100,47,medium,plus,dotcolour,alfa,,,103,18,M,R,
678,48,6,16,5,33,47,599,['n'],1,right,['0'],6,189,[-0.09893439],100,47,medium,plus,dotcolour,alfa,,,103,18,M,R,
679,49,7,16,5,33,47,617,['n'],1,right,['9'],5,142,[-0.14618237],100,47,medium,plus,dotcolour,alfa,,,103,18,M,R,
680,50,8,16,5,36,44,1017,['n'],1,right,['0'],6,128,[-0.03727309],98,44,hard,plus,dotcolour,alfa,,,103,18,M,R,
681,51,9,16,5,36,44,932,['n'],1,right,['0'],6,80,[-0.05116913],100,44,hard,plus,dotcolour,alfa,,,103,18,M,R,
682,52,10,16,5,33,47,1217,['n'],1,right,['9'],5,236,[-0.14560294],100,47,medium,plus,dotcolour,alfa,,,103,18,M,R,
683,53,11,16,5,27,53,534,['n'],1,right,['9'],5,88,[-0.05590632],100,53,easy,plus,dotcolour,alfa,,,103,18,M,R,
684,54,12,16,5,44,36,733,['n'],0,left,['0'],6,153,[-0.07319205],100,44,hard,plus,dotcolour,alfa,,,103,18,M,R,
685,55,13,16,5,53,27,616,['c'],1,left,['0'],6,122,[0.07155216],100,53,easy,plus,dotcolour,alfa,,,103,18,M,R,
686,56,14,16,5,36,44,733,['n'],1,right,['9'],5,115,[-0.09975357],100,44,hard,plus,dotcolour,alfa,,,103,18,M,R,
687,57,15,16,5,36,44,633,['n'],1,right,['9'],5,101,[-0.05855516],100,44,hard,plus,dotcolour,alfa,,,103,18,M,R,
688,58,16,16,5,44,36,716,['c'],1,left,['9'],5,110,[0.12432372],100,44,hard,plus,dotcolour,alfa,,,103,18,M,R,
689,59,17,16,5,44,36,717,['c'],1,left,['9'],5,95,[0.05419228],100,44,hard,plus,dotcolour,alfa,,,103,18,M,R,
690,60,18,16,5,53,27,650,['c'],1,left,['0'],6,146,[0.03245575],96,53,easy,plus,dotcolour,alfa,,,103,18,M,R,
691,61,19,16,5,27,53,1265,['n'],1,right,['9'],5,99,[-0.10534353],100,53,easy,plus,dotcolour,alfa,,,103,18,M,R,
692,62,20,16,5,44,36,683,['c'],1,left,['9'],5,157,[0.10692245],100,44,hard,plus,dotcolour,alfa,,,103,18,M,R,
693,63,21,16,5,47,33,800,['c'],1,left,['9'],5,224,[0.155928],100,47,medium,plus,dotcolour,alfa,,,103,18,M,R,
694,64,22,16,5,36,44,767,['c'],0,right,['9'],5,170,[0.02766994],92,44,hard,plus,dotcolour,alfa,,,103,18,M,R,
695,65,23,16,5,47,33,550,['c'],1,left,['9'],5,94,[0.0334332],98,47,medium,plus,dotcolour,alfa,,,103,18,M,R,
696,66,24,16,5,33,47,916,['n'],1,right,['9'],5,110,[-0.07352279],100,47,medium,plus,dotcolour,alfa,,,103,18,M,R,
697,67,25,16,5,27,53,650,['n'],1,right,['9'],5,81,[-0.03451618],99,53,easy,plus,dotcolour,alfa,,,103,18,M,R,
698,68,26,16,5,47,33,600,['c'],1,left,['9'],5,95,[0.0922332],100,47,medium,plus,dotcolour,alfa,,,103,18,M,R,
699,69,27,16,5,36,44,1017,['n'],1,right,['9'],5,164,[-0.05735372],99,44,hard,plus,dotcolour,alfa,,,103,18,M,R,
700,70,28,16,5,44,36,550,['c'],1,left,['9'],5,80,[0.05798637],100,44,hard,plus,dotcolour,alfa,,,103,18,M,R,
701,71,29,16,5,47,33,733,['c'],1,left,['9'],5,81,[0.05307125],100,47,medium,plus,dotcolour,alfa,,,103,18,M,R,
702,72,30,16,5,44,36,534,['c'],1,left,['9'],5,106,[0.05644849],100,44,hard,plus,dotcolour,alfa,,,103,18,M,R,
703,73,31,16,5,27,53,483,['n'],1,right,['9'],5,132,[-0.09504686],100,53,easy,plus,dotcolour,alfa,,,103,18,M,R,
704,74,32,16,5,53,27,583,['c'],1,left,['0'],6,97,[0.11434662],100,53,easy,plus,dotcolour,alfa,,,103,18,M,R,
705,75,33,16,5,47,33,983,['c'],1,left,['8'],4,142,[0.03774485],97,47,medium,plus,dotcolour,alfa,,,103,18,M,R,
706,76,34,16,5,33,47,782,['n'],1,right,['9'],5,170,[-0.00419687],59,47,medium,plus,dotcolour,alfa,,,103,18,M,R,
707,77,35,16,5,27,53,634,['n'],1,right,['9'],5,260,[-0.10265705],100,53,easy,plus,dotcolour,alfa,,,103,18,M,R,
708,78,36,16,5,27,53,650,['n'],1,right,['9'],5,105,[-0.11248415],100,53,easy,plus,dotcolour,alfa,,,103,18,M,R,
709,79,37,16,5,53,27,601,['c'],1,left,['9'],5,470,[0.23394585],100,53,easy,plus,dotcolour,alfa,,,103,18,M,R,
710,80,38,16,5,33,47,783,['n'],1,right,['9'],5,549,[-0.12160633],100,47,medium,plus,dotcolour,alfa,,,103,18,M,R,
711,81,39,16,5,53,27,867,['c'],1,left,['0'],6,111,[0.09750483],100,53,easy,plus,dotcolour,alfa,,,103,18,M,R,
712,82,40,16,5,27,53,767,['n'],1,right,['9'],5,84,[-0.06514967],100,53,easy,plus,dotcolour,alfa,,,103,18,M,R,
713,83,41,16,5,36,44,1551,['c'],0,right,['8'],4,220,[0.01033862],69,44,hard,plus,dotcolour,alfa,,,103,18,M,R,
714,84,0,17,5,36,44,784,['c'],0,right,['9'],5,89,[0.10521679],100,44,hard,plus,dotcolour,alfa,,,103,18,M,R,
715,85,1,17,5,53,27,450,['c'],1,left,['9'],5,92,[0.06062551],100,53,easy,plus,dotcolour,alfa,,,103,18,M,R,
716,86,2,17,5,47,33,467,['c'],1,left,['9'],5,62,[0.0564186],100,47,medium,plus,dotcolour,alfa,,,103,18,M,R,
717,87,3,17,5,27,53,500,['n'],1,right,['9'],5,97,[-0.07910369],100,53,easy,plus,dotcolour,alfa,,,103,18,M,R,
718,88,4,17,5,44,36,600,['c'],1,left,['9'],5,143,[0.06811095],100,44,hard,plus,dotcolour,alfa,,,103,18,M,R,
719,89,5,17,5,44,36,517,['c'],1,left,['9'],5,197,[0.01696087],80,44,hard,plus,dotcolour,alfa,,,103,18,M,R,
720,90,6,17,5,44,36,484,['c'],1,left,['9'],5,83,[0.07143329],100,44,hard,plus,dotcolour,alfa,,,103,18,M,R,
721,91,7,17,5,36,44,566,['c'],0,right,['9'],5,483,[-0.00135814],48,44,hard,plus,dotcolour,alfa,,,103,18,M,R,
722,92,8,17,5,44,36,667,['c'],1,left,['9'],5,190,[0.04648102],98,44,hard,plus,dotcolour,alfa,,,103,18,M,R,
723,93,9,17,5,36,44,1167,['c'],0,right,['8'],4,113,[0.05099721],100,44,hard,plus,dotcolour,alfa,,,103,18,M,R,
724,94,10,17,5,27,53,650,['n'],1,right,['9'],5,140,[-0.07333978],100,53,easy,plus,dotcolour,alfa,,,103,18,M,R,
725,95,11,17,5,27,53,1500,['n'],1,right,['0'],6,195,[-0.16654726],100,53,easy,plus,dotcolour,alfa,,,103,18,M,R,
726,96,12,17,5,47,33,768,['c'],1,left,['9'],5,125,[0.13365934],100,47,medium,plus,dotcolour,alfa,,,103,18,M,R,
727,97,13,17,5,47,33,585,['c'],1,left,['9'],5,107,[0.06177578],100,47,medium,plus,dotcolour,alfa,,,103,18,M,R,
728,98,14,17,5,27,53,700,['c'],0,right,['1'],1,1059,[-0.19718159],0,53,easy,plus,dotcolour,alfa,,,103,18,M,R,
729,99,15,17,5,53,27,684,['n'],0,left,['1'],1,1222,[0.14554561],1,53,easy,plus,dotcolour,alfa,,,103,18,M,R,
730,100,16,17,5,36,44,1549,['c'],0,right,['9'],5,241,[0.08312626],100,44,hard,plus,dotcolour,alfa,,,103,18,M,R,
731,101,17,17,5,47,33,568,['c'],1,left,['0'],6,137,[0.00045819],51,47,medium,plus,dotcolour,alfa,,,103,18,M,R,
732,102,18,17,5,44,36,583,['c'],1,left,['0'],6,101,[0.07682373],100,44,hard,plus,dotcolour,alfa,,,103,18,M,R,
733,103,19,17,5,47,33,550,['c'],1,left,['0'],6,133,[0.06642043],100,47,medium,plus,dotcolour,alfa,,,103,18,M,R,
734,104,20,17,5,53,27,566,['c'],1,left,['0'],6,130,[0.06405403],100,53,easy,plus,dotcolour,alfa,,,103,18,M,R,
735,105,21,17,5,33,47,983,['c'],0,right,['0'],6,159,[0.0993743],100,47,medium,plus,dotcolour,alfa,,,103,18,M,R,
736,106,22,17,5,36,44,784,['c'],0,right,['0'],6,186,[0.16761938],100,44,hard,plus,dotcolour,alfa,,,103,18,M,R,
737,107,23,17,5,53,27,868,['c'],1,left,['0'],6,210,[0.10938105],100,53,easy,plus,dotcolour,alfa,,,103,18,M,R,
738,108,24,17,5,53,27,984,['c'],1,left,['0'],6,292,[0.12918723],100,53,easy,plus,dotcolour,alfa,,,103,18,M,R,
739,109,25,17,5,27,53,1317,['n'],1,right,['9'],5,364,[-0.18600383],100,53,easy,plus,dotcolour,alfa,,,103,18,M,R,
740,110,26,17,5,53,27,801,['c'],1,left,['0'],6,254,[0.08945229],100,53,easy,plus,dotcolour,alfa,,,103,18,M,R,
741,111,27,17,5,44,36,2867,['c'],1,left,['8'],4,1275,[0.25084393],100,44,hard,plus,dotcolour,alfa,,,103,18,M,R,
742,112,28,17,5,44,36,816,['c'],1,left,['9'],5,192,[0.08915633],100,44,hard,plus,dotcolour,alfa,,,103,18,M,R,
743,113,29,17,5,27,53,684,['n'],1,right,['9'],5,78,[-0.10092186],100,53,easy,plus,dotcolour,alfa,,,103,18,M,R,
744,114,30,17,5,33,47,983,['n'],1,right,['0'],6,126,[-0.08185114],100,47,medium,plus,dotcolour,alfa,,,103,18,M,R,
745,115,31,17,5,33,47,751,['n'],1,right,['0'],6,331,[-0.21427477],100,47,medium,plus,dotcolour,alfa,,,103,18,M,R,
746,116,32,17,5,36,44,833,['c'],0,right,['9'],5,1446,[0.13393855],98,44,hard,plus,dotcolour,alfa,,,103,18,M,R,
747,117,33,17,5,36,44,716,['n'],1,right,['9'],5,129,[-0.00574075],64,44,hard,plus,dotcolour,alfa,,,103,18,M,R,
748,118,34,17,5,33,47,499,['n'],1,right,['9'],5,65,[-0.11426851],100,47,medium,plus,dotcolour,alfa,,,103,18,M,R,
749,119,35,17,5,53,27,535,['c'],1,left,['9'],5,107,[0.15708568],100,53,easy,plus,dotcolour,alfa,,,103,18,M,R,
750,120,36,17,5,47,33,552,['c'],1,left,['9'],5,89,[0.10742474],100,47,medium,plus,dotcolour,alfa,,,103,18,M,R,
751,121,37,17,5,33,47,751,['n'],1,right,['9'],5,121,[-0.07604883],100,47,medium,plus,dotcolour,alfa,,,103,18,M,R,
752,122,38,17,5,33,47,799,['c'],0,right,['2'],2,1054,[0.00799696],57,47,medium,plus,dotcolour,alfa,,,103,18,M,R,
753,123,39,17,5,27,53,783,['n'],1,right,['0'],6,349,[-0.24186563],100,53,easy,plus,dotcolour,alfa,,,103,18,M,R,
754,124,40,17,5,33,47,584,['n'],1,right,['9'],5,129,[-0.10660774],100,47,medium,plus,dotcolour,alfa,,,103,18,M,R,
755,125,41,17,5,47,33,767,['c'],1,left,['9'],5,190,[0.06052856],99,47,medium,plus,dotcolour,alfa,,,103,18,M,R,
,,,,,,,,,,,,,,,,,,,,,1,nee,103,18,M,R,
,,,,,,,,,,,,,,,,,,,,,2,['g'],103,18,M,R,
,,,,,,,,,,,,,,,,,,,,,3,['h'],103,18,M,R,
,,,,,,,,,,,,,,,,,,,,,5,"['3', '5']",103,18,M,R,
