trial,withinphasetrial,withinblocktrial,block,phase,dotsLeft,dotsRight,rt,resp,cor,cresp,conf_press,cj,RTconf,ev,fb,diff,difflevel,condition,task,manip,questionID,questionResp,sub,age,gender,handedness,
0,0,0,0,0,47,33,3650,['c'],1,left,['3'],3,2118,[0.37202125],98,47,medium,minus,dotcolour,beta,,,31,21,V,R,
1,1,1,0,0,44,36,1318,['n'],0,left,['9'],5,1620,[0.12793426],7,44,hard,minus,dotcolour,beta,,,31,21,V,R,
2,2,2,0,0,47,33,1250,['c'],1,left,['1'],1,2027,[0.56344165],100,47,medium,minus,dotcolour,beta,,,31,21,V,R,
3,3,3,0,0,44,36,1267,['n'],0,left,['1'],1,1359,[-0.09526931],65,44,hard,minus,dotcolour,beta,,,31,21,V,R,
4,4,4,0,0,36,44,1484,['n'],1,right,['0'],6,1318,[0.02690126],22,44,hard,minus,dotcolour,beta,,,31,21,V,R,
5,5,5,0,0,47,33,1149,['c'],1,left,['1'],1,757,[0.04894169],47,47,medium,minus,dotcolour,beta,,,31,21,V,R,
6,6,6,0,0,44,36,1250,['c'],1,left,['3'],3,621,[0.18581482],95,44,hard,minus,dotcolour,beta,,,31,21,V,R,
7,7,7,0,0,53,27,1132,['c'],1,left,['9'],5,1520,[0.31119805],98,53,easy,minus,dotcolour,beta,,,31,21,V,R,
8,8,8,0,0,44,36,1300,['n'],0,left,['9'],5,480,[-0.06743987],58,44,hard,minus,dotcolour,beta,,,31,21,V,R,
9,9,9,0,0,53,27,1200,['c'],1,left,['9'],5,742,[0.14641955],87,53,easy,minus,dotcolour,beta,,,31,21,V,R,
10,10,10,0,0,33,47,865,['n'],1,right,['2'],2,518,[-0.11194437],80,47,medium,minus,dotcolour,beta,,,31,21,V,R,
11,11,11,0,0,36,44,1216,['n'],1,right,['3'],3,891,[0.04625717],13,44,hard,minus,dotcolour,beta,,,31,21,V,R,
12,12,12,0,0,27,53,950,['n'],1,right,['9'],5,386,[-0.06078369],54,53,easy,minus,dotcolour,beta,,,31,21,V,R,
13,13,13,0,0,53,27,867,['c'],1,left,['3'],3,505,[0.22900834],99,53,easy,minus,dotcolour,beta,,,31,21,V,R,
14,14,14,0,0,27,53,1050,['n'],1,right,['3'],3,468,[-0.15820142],94,53,easy,minus,dotcolour,beta,,,31,21,V,R,
15,15,15,0,0,53,27,816,['c'],1,left,['3'],3,330,[0.11452043],86,53,easy,minus,dotcolour,beta,,,31,21,V,R,
16,16,16,0,0,47,33,967,['c'],1,left,['9'],5,503,[0.15486049],93,47,medium,minus,dotcolour,beta,,,31,21,V,R,
17,17,17,0,0,44,36,950,['n'],0,left,['9'],5,494,[-0.00501861],22,44,hard,minus,dotcolour,beta,,,31,21,V,R,
18,18,18,0,0,47,33,1499,['c'],1,left,['3'],3,543,[0.09762976],74,47,medium,minus,dotcolour,beta,,,31,21,V,R,
19,19,19,0,0,53,27,716,['c'],1,left,['9'],5,558,[0.30412295],100,53,easy,minus,dotcolour,beta,,,31,21,V,R,
20,20,20,0,0,33,47,917,['n'],1,right,['9'],5,348,[-0.08406793],70,47,medium,minus,dotcolour,beta,,,31,21,V,R,
21,21,21,0,0,36,44,766,['n'],1,right,['9'],5,321,[-0.12212306],89,44,hard,minus,dotcolour,beta,,,31,21,V,R,
22,22,22,0,0,27,53,1083,['n'],1,right,['9'],5,234,[-0.13368669],95,53,easy,minus,dotcolour,beta,,,31,21,V,R,
23,23,23,0,0,27,53,767,['n'],1,right,['9'],5,236,[-0.11100668],89,53,easy,minus,dotcolour,beta,,,31,21,V,R,
24,24,24,0,0,47,33,783,['c'],1,left,['9'],5,252,[0.06753911],61,47,medium,minus,dotcolour,beta,,,31,21,V,R,
25,25,25,0,0,33,47,917,['n'],1,right,['9'],5,271,[-0.12858728],93,47,medium,minus,dotcolour,beta,,,31,21,V,R,
26,26,26,0,0,36,44,717,['n'],1,right,['9'],5,241,[-0.06660991],60,44,hard,minus,dotcolour,beta,,,31,21,V,R,
27,27,27,0,0,27,53,700,['c'],0,right,['9'],5,188,[0.09501354],84,53,easy,minus,dotcolour,beta,,,31,21,V,R,
28,28,28,0,0,33,47,1000,['n'],1,right,['9'],5,190,[-0.00266757],10,47,medium,minus,dotcolour,beta,,,31,21,V,R,
29,29,29,0,0,36,44,749,['c'],0,right,['9'],5,179,[0.07526503],70,44,hard,minus,dotcolour,beta,,,31,21,V,R,
30,30,30,0,0,53,27,1083,['n'],0,left,['2'],2,232,[-0.05369123],48,53,easy,minus,dotcolour,beta,,,31,21,V,R,
31,31,31,0,0,36,44,919,['n'],1,right,['9'],5,196,[-0.04720719],42,44,hard,minus,dotcolour,beta,,,31,21,V,R,
32,32,32,0,0,53,27,900,['c'],1,left,['9'],5,97,[0.0647915],63,53,easy,minus,dotcolour,beta,,,31,21,V,R,
33,33,33,0,0,44,36,767,['n'],0,left,['9'],5,176,[-0.1037418],89,44,hard,minus,dotcolour,beta,,,31,21,V,R,
34,34,34,0,0,33,47,667,['n'],1,right,['9'],5,207,[-0.11673357],92,47,medium,minus,dotcolour,beta,,,31,21,V,R,
35,35,35,0,0,27,53,650,['n'],1,right,['9'],5,174,[-0.15541704],99,53,easy,minus,dotcolour,beta,,,31,21,V,R,
36,36,36,0,0,44,36,1067,['n'],0,left,['9'],5,237,[-0.00648094],14,44,hard,minus,dotcolour,beta,,,31,21,V,R,
37,37,37,0,0,27,53,833,['n'],1,right,['9'],5,220,[-0.14749084],97,53,easy,minus,dotcolour,beta,,,31,21,V,R,
38,38,38,0,0,33,47,699,['n'],1,right,['9'],5,209,[-0.11718957],92,47,medium,minus,dotcolour,beta,,,31,21,V,R,
39,39,39,0,0,33,47,850,['n'],1,right,['9'],5,151,[-0.16230133],99,47,medium,minus,dotcolour,beta,,,31,21,V,R,
40,40,40,0,0,36,44,817,['n'],1,right,['9'],5,186,[-0.09072451],81,44,hard,minus,dotcolour,beta,,,31,21,V,R,
41,41,41,0,0,47,33,1917,['n'],0,left,['0'],6,287,[-0.02444183],26,47,medium,minus,dotcolour,beta,,,31,21,V,R,
42,42,0,1,0,47,33,1151,['c'],1,left,['9'],5,157,[0.0498354],44,47,medium,minus,dotcolour,beta,,,31,21,V,R,
43,43,1,1,0,53,27,700,['c'],1,left,['9'],5,188,[0.05557582],50,53,easy,minus,dotcolour,beta,,,31,21,V,R,
44,44,2,1,0,33,47,717,['n'],1,right,['9'],5,241,[-0.14074097],96,47,medium,minus,dotcolour,beta,,,31,21,V,R,
45,45,3,1,0,44,36,1083,['c'],1,left,['9'],5,166,[0.06342275],59,44,hard,minus,dotcolour,beta,,,31,21,V,R,
46,46,4,1,0,33,47,700,['n'],1,right,['9'],5,148,[-0.145992],99,47,medium,minus,dotcolour,beta,,,31,21,V,R,
47,47,5,1,0,36,44,733,['n'],1,right,['9'],5,171,[-0.10522552],90,44,hard,minus,dotcolour,beta,,,31,21,V,R,
48,48,6,1,0,53,27,800,['c'],1,left,['9'],5,141,[0.16316768],99,53,easy,minus,dotcolour,beta,,,31,21,V,R,
49,49,7,1,0,47,33,1084,['c'],1,left,['9'],5,205,[0.12237241],93,47,medium,minus,dotcolour,beta,,,31,21,V,R,
50,50,8,1,0,47,33,833,['n'],0,left,['0'],6,165,[-0.12340414],95,47,medium,minus,dotcolour,beta,,,31,21,V,R,
51,51,9,1,0,44,36,1100,['n'],0,left,['9'],5,179,[-0.11717333],93,44,hard,minus,dotcolour,beta,,,31,21,V,R,
52,52,10,1,0,36,44,1367,['n'],1,right,['0'],6,143,[-0.12975361],97,44,hard,minus,dotcolour,beta,,,31,21,V,R,
53,53,11,1,0,53,27,750,['c'],1,left,['0'],6,197,[0.10493542],88,53,easy,minus,dotcolour,beta,,,31,21,V,R,
54,54,12,1,0,33,47,701,['n'],1,right,['0'],6,194,[-0.06110828],56,47,medium,minus,dotcolour,beta,,,31,21,V,R,
55,55,13,1,0,36,44,667,['n'],1,right,['9'],5,193,[-0.14907532],98,44,hard,minus,dotcolour,beta,,,31,21,V,R,
56,56,14,1,0,44,36,784,['n'],0,left,['9'],5,179,[-0.11019618],91,44,hard,minus,dotcolour,beta,,,31,21,V,R,
57,57,15,1,0,36,44,701,['n'],1,right,['9'],5,152,[-0.04977739],43,44,hard,minus,dotcolour,beta,,,31,21,V,R,
58,58,16,1,0,44,36,750,['c'],1,left,['9'],5,110,[0.05863057],54,44,hard,minus,dotcolour,beta,,,31,21,V,R,
59,59,17,1,0,36,44,701,['n'],1,right,['9'],5,214,[-0.06990881],64,44,hard,minus,dotcolour,beta,,,31,21,V,R,
60,60,18,1,0,53,27,867,['n'],0,left,['9'],5,164,[-0.00679796],10,53,easy,minus,dotcolour,beta,,,31,21,V,R,
61,61,19,1,0,44,36,734,['c'],1,left,['9'],5,162,[0.07743468],73,44,hard,minus,dotcolour,beta,,,31,21,V,R,
62,62,20,1,0,47,33,667,['n'],0,left,['9'],5,138,[-0.0245139],18,47,medium,minus,dotcolour,beta,,,31,21,V,R,
63,63,21,1,0,47,33,800,['c'],1,left,['0'],6,214,[0.07725461],70,47,medium,minus,dotcolour,beta,,,31,21,V,R,
64,64,22,1,0,27,53,617,['n'],1,right,['0'],6,174,[-0.09684247],86,53,easy,minus,dotcolour,beta,,,31,21,V,R,
65,65,23,1,0,33,47,684,['n'],1,right,['0'],6,148,[-0.08124315],77,47,medium,minus,dotcolour,beta,,,31,21,V,R,
66,66,24,1,0,47,33,850,['c'],1,left,['0'],6,214,[0.11214569],90,47,medium,minus,dotcolour,beta,,,31,21,V,R,
67,67,25,1,0,27,53,600,['n'],1,right,['0'],6,151,[-0.08193296],77,53,easy,minus,dotcolour,beta,,,31,21,V,R,
68,68,26,1,0,27,53,1050,['n'],1,right,['0'],6,200,[-0.11342273],91,53,easy,minus,dotcolour,beta,,,31,21,V,R,
69,69,27,1,0,33,47,716,['n'],1,right,['0'],6,213,[-0.07201134],66,47,medium,minus,dotcolour,beta,,,31,21,V,R,
70,70,28,1,0,47,33,684,['c'],1,left,['0'],6,170,[0.09846824],87,47,medium,minus,dotcolour,beta,,,31,21,V,R,
71,71,29,1,0,44,36,833,['c'],1,left,['0'],6,187,[0.12406981],95,44,hard,minus,dotcolour,beta,,,31,21,V,R,
72,72,30,1,0,27,53,550,['n'],1,right,['0'],6,199,[-0.09349474],82,53,easy,minus,dotcolour,beta,,,31,21,V,R,
73,73,31,1,0,53,27,800,['c'],1,left,['0'],6,177,[0.10571177],90,53,easy,minus,dotcolour,beta,,,31,21,V,R,
74,74,32,1,0,27,53,683,['n'],1,right,['0'],6,183,[-0.05802895],53,53,easy,minus,dotcolour,beta,,,31,21,V,R,
75,75,33,1,0,36,44,618,['n'],1,right,['0'],6,201,[-0.1138396],91,44,hard,minus,dotcolour,beta,,,31,21,V,R,
76,76,34,1,0,53,27,549,['c'],1,left,['0'],6,180,[0.07018032],65,53,easy,minus,dotcolour,beta,,,31,21,V,R,
77,77,35,1,0,44,36,667,['c'],1,left,['0'],6,147,[0.05467758],49,44,hard,minus,dotcolour,beta,,,31,21,V,R,
78,78,36,1,0,53,27,583,['c'],1,left,['0'],6,175,[0.0734651],68,53,easy,minus,dotcolour,beta,,,31,21,V,R,
79,79,37,1,0,33,47,634,['n'],1,right,['0'],6,200,[-0.05551406],50,47,medium,minus,dotcolour,beta,,,31,21,V,R,
80,80,38,1,0,33,47,866,['n'],1,right,['9'],5,143,[-0.17924536],100,47,medium,minus,dotcolour,beta,,,31,21,V,R,
81,81,39,1,0,36,44,766,['n'],1,right,['9'],5,171,[-0.1819847],100,44,hard,minus,dotcolour,beta,,,31,21,V,R,
82,82,40,1,0,27,53,800,['n'],1,right,['9'],5,190,[-0.10779247],90,53,easy,minus,dotcolour,beta,,,31,21,V,R,
83,83,41,1,0,27,53,617,['n'],1,right,['9'],5,151,[-0.08968946],83,53,easy,minus,dotcolour,beta,,,31,21,V,R,
84,84,0,2,0,47,33,949,['c'],1,left,['9'],5,124,[0.11769836],96,47,medium,minus,dotcolour,beta,,,31,21,V,R,
85,85,1,2,0,36,44,600,['n'],1,right,['0'],6,320,[-0.190573],99,44,hard,minus,dotcolour,beta,,,31,21,V,R,
86,86,2,2,0,27,53,700,['n'],1,right,['0'],6,161,[-0.0831558],78,53,easy,minus,dotcolour,beta,,,31,21,V,R,
87,87,3,2,0,33,47,633,['n'],1,right,['9'],5,194,[-0.04231673],37,47,medium,minus,dotcolour,beta,,,31,21,V,R,
88,88,4,2,0,53,27,734,['c'],1,left,['0'],6,166,[0.16262864],99,53,easy,minus,dotcolour,beta,,,31,21,V,R,
89,89,5,2,0,44,36,834,['n'],0,left,['0'],6,151,[-0.03066867],24,44,hard,minus,dotcolour,beta,,,31,21,V,R,
90,90,6,2,0,53,27,883,['c'],1,left,['9'],5,104,[0.10060788],93,53,easy,minus,dotcolour,beta,,,31,21,V,R,
91,91,7,2,0,27,53,633,['n'],1,right,['9'],5,132,[-0.08254628],79,53,easy,minus,dotcolour,beta,,,31,21,V,R,
92,92,8,2,0,33,47,666,['n'],1,right,['9'],5,125,[-0.10977378],94,47,medium,minus,dotcolour,beta,,,31,21,V,R,
93,93,9,2,0,33,47,683,['n'],1,right,['0'],6,142,[-0.0879369],82,47,medium,minus,dotcolour,beta,,,31,21,V,R,
94,94,10,2,0,44,36,1100,['c'],1,left,['0'],6,149,[0.04839371],42,44,hard,minus,dotcolour,beta,,,31,21,V,R,
95,95,11,2,0,27,53,884,['n'],1,right,['0'],6,181,[-0.19248364],100,53,easy,minus,dotcolour,beta,,,31,21,V,R,
96,96,12,2,0,47,33,799,['c'],1,left,['0'],6,152,[0.14353518],98,47,medium,minus,dotcolour,beta,,,31,21,V,R,
97,97,13,2,0,33,47,600,['n'],1,right,['9'],5,210,[-0.11050453],90,47,medium,minus,dotcolour,beta,,,31,21,V,R,
98,98,14,2,0,33,47,717,['n'],1,right,['0'],6,270,[-0.05540229],50,47,medium,minus,dotcolour,beta,,,31,21,V,R,
99,99,15,2,0,36,44,800,['c'],0,right,['9'],5,237,[0.03720438],34,44,hard,minus,dotcolour,beta,,,31,21,V,R,
100,100,16,2,0,36,44,600,['n'],1,right,['0'],6,149,[-0.07839025],74,44,hard,minus,dotcolour,beta,,,31,21,V,R,
101,101,17,2,0,44,36,1016,['c'],1,left,['9'],5,280,[0.08455576],73,44,hard,minus,dotcolour,beta,,,31,21,V,R,
102,102,18,2,0,44,36,967,['c'],1,left,['0'],6,175,[0.03418008],29,44,hard,minus,dotcolour,beta,,,31,21,V,R,
103,103,19,2,0,27,53,1084,['n'],1,right,['0'],6,774,[-0.06479647],55,53,easy,minus,dotcolour,beta,,,31,21,V,R,
104,104,20,2,0,27,53,934,['n'],1,right,['9'],5,187,[0.01218138],6,53,easy,minus,dotcolour,beta,,,31,21,V,R,
105,105,21,2,0,47,33,1150,['c'],1,left,['9'],5,215,[0.18022998],99,47,medium,minus,dotcolour,beta,,,31,21,V,R,
106,106,22,2,0,53,27,849,['c'],1,left,['9'],5,126,[0.06874903],66,53,easy,minus,dotcolour,beta,,,31,21,V,R,
107,107,23,2,0,53,27,651,['c'],1,left,['8'],4,184,[0.08745669],79,53,easy,minus,dotcolour,beta,,,31,21,V,R,
108,108,24,2,0,47,33,900,['c'],1,left,['8'],4,166,[0.14068226],98,47,medium,minus,dotcolour,beta,,,31,21,V,R,
109,109,25,2,0,53,27,750,['c'],1,left,['8'],4,154,[0.06538255],61,53,easy,minus,dotcolour,beta,,,31,21,V,R,
110,110,26,2,0,47,33,1300,['n'],0,left,['9'],5,210,[-0.02659315],24,47,medium,minus,dotcolour,beta,,,31,21,V,R,
111,111,27,2,0,36,44,1249,['c'],0,right,['8'],4,168,[0.09462113],85,44,hard,minus,dotcolour,beta,,,31,21,V,R,
112,112,28,2,0,27,53,1567,['c'],0,right,['8'],4,132,[0.09711017],89,53,easy,minus,dotcolour,beta,,,31,21,V,R,
113,113,29,2,0,44,36,1067,['n'],0,left,['8'],4,221,[-0.00086505],11,44,hard,minus,dotcolour,beta,,,31,21,V,R,
114,114,30,2,0,33,47,801,['n'],1,right,['9'],5,246,[-0.14760222],97,47,medium,minus,dotcolour,beta,,,31,21,V,R,
115,115,31,2,0,36,44,816,['n'],1,right,['9'],5,157,[-0.1491802],99,44,hard,minus,dotcolour,beta,,,31,21,V,R,
116,116,32,2,0,27,53,633,['n'],1,right,['9'],5,134,[-0.11152479],94,53,easy,minus,dotcolour,beta,,,31,21,V,R,
117,117,33,2,0,53,27,684,['c'],1,left,['9'],5,175,[0.08827112],80,53,easy,minus,dotcolour,beta,,,31,21,V,R,
118,118,34,2,0,53,27,734,['c'],1,left,['8'],4,236,[0.15524853],98,53,easy,minus,dotcolour,beta,,,31,21,V,R,
119,119,35,2,0,44,36,1867,['n'],0,left,['9'],5,153,[-0.10245293],90,44,hard,minus,dotcolour,beta,,,31,21,V,R,
120,120,36,2,0,47,33,801,['c'],1,left,['9'],5,140,[0.0274268],21,47,medium,minus,dotcolour,beta,,,31,21,V,R,
121,121,37,2,0,36,44,717,['n'],1,right,['9'],5,163,[-0.10382139],90,44,hard,minus,dotcolour,beta,,,31,21,V,R,
122,122,38,2,0,36,44,701,['n'],1,right,['9'],5,114,[-0.05356091],47,44,hard,minus,dotcolour,beta,,,31,21,V,R,
123,123,39,2,0,44,36,717,['c'],1,left,['9'],5,105,[0.0002205],4,44,hard,minus,dotcolour,beta,,,31,21,V,R,
124,124,40,2,0,33,47,600,['c'],0,right,['8'],4,143,[0.00816983],9,47,medium,minus,dotcolour,beta,,,31,21,V,R,
125,125,41,2,0,47,33,717,['c'],1,left,['9'],5,150,[0.05335531],47,47,medium,minus,dotcolour,beta,,,31,21,V,R,
126,0,0,3,1,53,27,1001,['c'],1,left,['9'],5,183,[0.05173193],99,53,easy,plus,dotcolour,beta,,,31,21,V,R,
127,1,1,3,1,53,27,634,['c'],1,left,['9'],5,119,[0.1190351],100,53,easy,plus,dotcolour,beta,,,31,21,V,R,
128,2,2,3,1,36,44,834,['n'],1,right,['9'],5,162,[-0.06358253],100,44,hard,plus,dotcolour,beta,,,31,21,V,R,
129,3,3,3,1,33,47,883,['n'],1,right,['9'],5,154,[-0.1527307],100,47,medium,plus,dotcolour,beta,,,31,21,V,R,
130,4,4,3,1,47,33,649,['c'],1,left,['9'],5,108,[0.08386119],100,47,medium,plus,dotcolour,beta,,,31,21,V,R,
131,5,5,3,1,44,36,583,['c'],1,left,['9'],5,104,[0.10216815],100,44,hard,plus,dotcolour,beta,,,31,21,V,R,
132,6,6,3,1,33,47,617,['c'],0,right,['9'],5,125,[0.01512205],97,47,medium,plus,dotcolour,beta,,,31,21,V,R,
133,7,7,3,1,44,36,833,['n'],0,left,['9'],5,144,[-0.06175629],100,44,hard,plus,dotcolour,beta,,,31,21,V,R,
134,8,8,3,1,33,47,717,['n'],1,right,['9'],5,142,[0.01360191],88,47,medium,plus,dotcolour,beta,,,31,21,V,R,
135,9,9,3,1,44,36,483,['c'],1,left,['9'],5,110,[0.01723856],98,44,hard,plus,dotcolour,beta,,,31,21,V,R,
136,10,10,3,1,53,27,584,['c'],1,left,['9'],5,100,[0.0889728],100,53,easy,plus,dotcolour,beta,,,31,21,V,R,
137,11,11,3,1,27,53,600,['c'],0,right,['9'],5,90,[0.04925499],100,53,easy,plus,dotcolour,beta,,,31,21,V,R,
138,12,12,3,1,47,33,450,['c'],1,left,['9'],5,101,[0.05668076],100,47,medium,plus,dotcolour,beta,,,31,21,V,R,
139,13,13,3,1,27,53,633,['n'],1,right,['9'],5,105,[-0.11547573],100,53,easy,plus,dotcolour,beta,,,31,21,V,R,
140,14,14,3,1,36,44,567,['c'],0,right,['9'],5,120,[0.02073869],98,44,hard,plus,dotcolour,beta,,,31,21,V,R,
141,15,15,3,1,53,27,550,['c'],1,left,['9'],5,95,[0.05529379],100,53,easy,plus,dotcolour,beta,,,31,21,V,R,
142,16,16,3,1,53,27,517,['c'],1,left,['9'],5,88,[0.0685194],100,53,easy,plus,dotcolour,beta,,,31,21,V,R,
143,17,17,3,1,36,44,600,['c'],0,right,['2'],2,1021,[0.05495917],88,44,hard,plus,dotcolour,beta,,,31,21,V,R,
144,18,18,3,1,36,44,1066,['c'],0,right,['2'],2,187,[0.04721565],99,44,hard,plus,dotcolour,beta,,,31,21,V,R,
145,19,19,3,1,44,36,1034,['c'],1,left,['9'],5,124,[0.07956859],100,44,hard,plus,dotcolour,beta,,,31,21,V,R,
146,20,20,3,1,44,36,700,['n'],0,left,['9'],5,132,[-0.08225188],100,44,hard,plus,dotcolour,beta,,,31,21,V,R,
147,21,21,3,1,27,53,833,['n'],1,right,['9'],5,127,[-0.08063655],100,53,easy,plus,dotcolour,beta,,,31,21,V,R,
148,22,22,3,1,36,44,1234,['n'],1,right,['9'],5,129,[-0.03643819],99,44,hard,plus,dotcolour,beta,,,31,21,V,R,
149,23,23,3,1,33,47,934,['n'],1,right,['9'],5,151,[-0.08666604],100,47,medium,plus,dotcolour,beta,,,31,21,V,R,
150,24,24,3,1,47,33,1600,['n'],0,left,['9'],5,115,[-0.06145538],100,47,medium,plus,dotcolour,beta,,,31,21,V,R,
151,25,25,3,1,33,47,1800,['n'],1,right,['9'],5,296,[-0.11221105],100,47,medium,plus,dotcolour,beta,,,31,21,V,R,
152,26,26,3,1,44,36,1166,['c'],1,left,['9'],5,223,[0.10796982],100,44,hard,plus,dotcolour,beta,,,31,21,V,R,
153,27,27,3,1,36,44,1117,['n'],1,right,['9'],5,169,[-0.09880455],100,44,hard,plus,dotcolour,beta,,,31,21,V,R,
154,28,28,3,1,27,53,867,['n'],1,right,['9'],5,178,[-0.0880088],100,53,easy,plus,dotcolour,beta,,,31,21,V,R,
155,29,29,3,1,47,33,766,['c'],1,left,['9'],5,125,[0.08558973],100,47,medium,plus,dotcolour,beta,,,31,21,V,R,
156,30,30,3,1,47,33,835,['n'],0,left,['9'],5,144,[0.04713646],60,47,medium,plus,dotcolour,beta,,,31,21,V,R,
157,31,31,3,1,53,27,600,['c'],1,left,['9'],5,91,[0.11370252],100,53,easy,plus,dotcolour,beta,,,31,21,V,R,
158,32,32,3,1,27,53,700,['n'],1,right,['9'],5,140,[-0.14640525],100,53,easy,plus,dotcolour,beta,,,31,21,V,R,
159,33,33,3,1,47,33,716,['c'],1,left,['9'],5,91,[0.11550277],100,47,medium,plus,dotcolour,beta,,,31,21,V,R,
160,34,34,3,1,33,47,767,['n'],1,right,['9'],5,82,[-0.06190684],100,47,medium,plus,dotcolour,beta,,,31,21,V,R,
161,35,35,3,1,27,53,750,['c'],0,right,['9'],5,98,[0.10260067],100,53,easy,plus,dotcolour,beta,,,31,21,V,R,
162,36,36,3,1,44,36,817,['n'],0,left,['9'],5,103,[-0.06583798],100,44,hard,plus,dotcolour,beta,,,31,21,V,R,
163,37,37,3,1,27,53,617,['n'],1,right,['9'],5,116,[-0.16953245],100,53,easy,plus,dotcolour,beta,,,31,21,V,R,
164,38,38,3,1,53,27,599,['c'],1,left,['9'],5,120,[0.04962846],100,53,easy,plus,dotcolour,beta,,,31,21,V,R,
165,39,39,3,1,47,33,800,['n'],0,left,['9'],5,109,[-0.00586782],97,47,medium,plus,dotcolour,beta,,,31,21,V,R,
166,40,40,3,1,33,47,550,['c'],0,right,['9'],5,99,[0.02477903],99,47,medium,plus,dotcolour,beta,,,31,21,V,R,
167,41,41,3,1,36,44,516,['n'],1,right,['9'],5,132,[-0.10651464],100,44,hard,plus,dotcolour,beta,,,31,21,V,R,
168,42,0,4,1,36,44,717,['n'],1,right,['9'],5,112,[-0.1374902],100,44,hard,plus,dotcolour,beta,,,31,21,V,R,
169,43,1,4,1,44,36,467,['c'],1,left,['9'],5,186,[0.13414205],100,44,hard,plus,dotcolour,beta,,,31,21,V,R,
170,44,2,4,1,33,47,533,['n'],1,right,['9'],5,126,[-0.06590067],100,47,medium,plus,dotcolour,beta,,,31,21,V,R,
171,45,3,4,1,44,36,900,['n'],0,left,['9'],5,119,[-0.07058185],100,44,hard,plus,dotcolour,beta,,,31,21,V,R,
172,46,4,4,1,27,53,667,['n'],1,right,['9'],5,137,[-0.03444173],99,53,easy,plus,dotcolour,beta,,,31,21,V,R,
173,47,5,4,1,33,47,850,['n'],1,right,['9'],5,179,[-0.10509258],100,47,medium,plus,dotcolour,beta,,,31,21,V,R,
174,48,6,4,1,44,36,750,['n'],0,left,['9'],5,127,[-0.09092143],100,44,hard,plus,dotcolour,beta,,,31,21,V,R,
175,49,7,4,1,36,44,717,['n'],1,right,['9'],5,174,[-0.0394693],98,44,hard,plus,dotcolour,beta,,,31,21,V,R,
176,50,8,4,1,33,47,1083,['c'],0,right,['9'],5,124,[0.00135369],95,47,medium,plus,dotcolour,beta,,,31,21,V,R,
177,51,9,4,1,53,27,867,['n'],0,left,['9'],5,134,[-0.03513876],99,53,easy,plus,dotcolour,beta,,,31,21,V,R,
178,52,10,4,1,36,44,599,['n'],1,right,['9'],5,131,[-0.04020847],99,44,hard,plus,dotcolour,beta,,,31,21,V,R,
179,53,11,4,1,33,47,767,['n'],1,right,['9'],5,175,[-0.15524507],100,47,medium,plus,dotcolour,beta,,,31,21,V,R,
180,54,12,4,1,47,33,749,['c'],1,left,['9'],5,180,[0.19534667],100,47,medium,plus,dotcolour,beta,,,31,21,V,R,
181,55,13,4,1,53,27,683,['n'],0,left,['9'],5,154,[-0.03810936],99,53,easy,plus,dotcolour,beta,,,31,21,V,R,
182,56,14,4,1,47,33,849,['c'],1,left,['9'],5,116,[0.07895659],100,47,medium,plus,dotcolour,beta,,,31,21,V,R,
183,57,15,4,1,44,36,800,['n'],0,left,['9'],5,128,[-0.07938654],100,44,hard,plus,dotcolour,beta,,,31,21,V,R,
184,58,16,4,1,33,47,750,['n'],1,right,['9'],5,150,[-0.04572523],99,47,medium,plus,dotcolour,beta,,,31,21,V,R,
185,59,17,4,1,27,53,700,['n'],1,right,['9'],5,117,[-0.06570541],100,53,easy,plus,dotcolour,beta,,,31,21,V,R,
186,60,18,4,1,53,27,633,['c'],1,left,['9'],5,129,[0.06722815],100,53,easy,plus,dotcolour,beta,,,31,21,V,R,
187,61,19,4,1,27,53,700,['c'],0,right,['9'],5,121,[0.11710036],100,53,easy,plus,dotcolour,beta,,,31,21,V,R,
188,62,20,4,1,53,27,700,['n'],0,left,['9'],5,130,[-0.02264507],98,53,easy,plus,dotcolour,beta,,,31,21,V,R,
189,63,21,4,1,44,36,684,['c'],1,left,['9'],5,106,[0.1315982],100,44,hard,plus,dotcolour,beta,,,31,21,V,R,
190,64,22,4,1,47,33,666,['c'],1,left,['9'],5,132,[0.07271184],100,47,medium,plus,dotcolour,beta,,,31,21,V,R,
191,65,23,4,1,53,27,933,['n'],0,left,['9'],5,107,[-0.02753722],99,53,easy,plus,dotcolour,beta,,,31,21,V,R,
192,66,24,4,1,27,53,816,['n'],1,right,['9'],5,103,[-0.13514133],100,53,easy,plus,dotcolour,beta,,,31,21,V,R,
193,67,25,4,1,44,36,634,['c'],1,left,['9'],5,139,[0.07377525],100,44,hard,plus,dotcolour,beta,,,31,21,V,R,
194,68,26,4,1,36,44,567,['n'],1,right,['9'],5,192,[-0.09231132],100,44,hard,plus,dotcolour,beta,,,31,21,V,R,
195,69,27,4,1,33,47,617,['c'],0,right,['9'],5,105,[0.02235886],99,47,medium,plus,dotcolour,beta,,,31,21,V,R,
196,70,28,4,1,44,36,750,['n'],0,left,['9'],5,192,[-0.0633997],99,44,hard,plus,dotcolour,beta,,,31,21,V,R,
197,71,29,4,1,53,27,833,['n'],0,left,['9'],5,193,[-0.0153668],95,53,easy,plus,dotcolour,beta,,,31,21,V,R,
198,72,30,4,1,27,53,1017,['n'],1,right,['9'],5,97,[-0.14951344],100,53,easy,plus,dotcolour,beta,,,31,21,V,R,
199,73,31,4,1,47,33,916,['n'],0,left,['9'],5,138,[-0.05017777],99,47,medium,plus,dotcolour,beta,,,31,21,V,R,
200,74,32,4,1,47,33,616,['c'],1,left,['9'],5,197,[0.10236246],100,47,medium,plus,dotcolour,beta,,,31,21,V,R,
201,75,33,4,1,47,33,534,['c'],1,left,['9'],5,185,[0.07878381],100,47,medium,plus,dotcolour,beta,,,31,21,V,R,
202,76,34,4,1,36,44,584,['n'],1,right,['9'],5,148,[-0.00938537],95,44,hard,plus,dotcolour,beta,,,31,21,V,R,
203,77,35,4,1,27,53,651,['n'],1,right,['9'],5,173,[-0.10180202],100,53,easy,plus,dotcolour,beta,,,31,21,V,R,
204,78,36,4,1,27,53,667,['n'],1,right,['9'],5,213,[-0.06971344],99,53,easy,plus,dotcolour,beta,,,31,21,V,R,
205,79,37,4,1,33,47,633,['n'],1,right,['9'],5,220,[-0.12920398],100,47,medium,plus,dotcolour,beta,,,31,21,V,R,
206,80,38,4,1,36,44,884,['n'],1,right,['9'],5,137,[-0.12972703],100,44,hard,plus,dotcolour,beta,,,31,21,V,R,
207,81,39,4,1,53,27,700,['c'],1,left,['9'],5,129,[0.08674346],100,53,easy,plus,dotcolour,beta,,,31,21,V,R,
208,82,40,4,1,36,44,950,['n'],1,right,['9'],5,96,[-0.07374098],100,44,hard,plus,dotcolour,beta,,,31,21,V,R,
209,83,41,4,1,47,33,600,['c'],1,left,['9'],5,133,[0.10231512],100,47,medium,plus,dotcolour,beta,,,31,21,V,R,
210,84,0,5,1,27,53,1051,['n'],1,right,['9'],5,150,[-0.06209277],100,53,easy,plus,dotcolour,beta,,,31,21,V,R,
211,85,1,5,1,44,36,667,['c'],1,left,['9'],5,103,[0.07267824],100,44,hard,plus,dotcolour,beta,,,31,21,V,R,
212,86,2,5,1,44,36,684,['n'],0,left,['9'],5,137,[-0.07562129],100,44,hard,plus,dotcolour,beta,,,31,21,V,R,
213,87,3,5,1,27,53,616,['n'],1,right,['9'],5,108,[-0.11236136],100,53,easy,plus,dotcolour,beta,,,31,21,V,R,
214,88,4,5,1,33,47,651,['n'],1,right,['9'],5,183,[-0.10715252],100,47,medium,plus,dotcolour,beta,,,31,21,V,R,
215,89,5,5,1,44,36,650,['c'],1,left,['9'],5,199,[0.13883345],100,44,hard,plus,dotcolour,beta,,,31,21,V,R,
216,90,6,5,1,53,27,883,['c'],1,left,['9'],5,133,[0.02898138],98,53,easy,plus,dotcolour,beta,,,31,21,V,R,
217,91,7,5,1,27,53,584,['n'],1,right,['9'],5,209,[-0.16332197],100,53,easy,plus,dotcolour,beta,,,31,21,V,R,
218,92,8,5,1,36,44,1017,['n'],1,right,['9'],5,129,[-0.10927056],100,44,hard,plus,dotcolour,beta,,,31,21,V,R,
219,93,9,5,1,36,44,749,['n'],1,right,['9'],5,127,[-0.06024509],100,44,hard,plus,dotcolour,beta,,,31,21,V,R,
220,94,10,5,1,33,47,534,['n'],1,right,['9'],5,94,[-0.11135523],100,47,medium,plus,dotcolour,beta,,,31,21,V,R,
221,95,11,5,1,33,47,634,['n'],1,right,['9'],5,138,[-0.039816],99,47,medium,plus,dotcolour,beta,,,31,21,V,R,
222,96,12,5,1,53,27,651,['c'],1,left,['9'],5,108,[0.10648116],100,53,easy,plus,dotcolour,beta,,,31,21,V,R,
223,97,13,5,1,27,53,567,['n'],1,right,['9'],5,90,[-0.10902927],100,53,easy,plus,dotcolour,beta,,,31,21,V,R,
224,98,14,5,1,44,36,650,['n'],0,left,['9'],5,86,[-0.04398145],100,44,hard,plus,dotcolour,beta,,,31,21,V,R,
225,99,15,5,1,47,33,567,['c'],1,left,['9'],5,141,[0.04597576],99,47,medium,plus,dotcolour,beta,,,31,21,V,R,
226,100,16,5,1,33,47,517,['n'],1,right,['9'],5,132,[-0.11721726],100,47,medium,plus,dotcolour,beta,,,31,21,V,R,
227,101,17,5,1,44,36,700,['c'],1,left,['9'],5,132,[0.02662296],98,44,hard,plus,dotcolour,beta,,,31,21,V,R,
228,102,18,5,1,44,36,1001,['c'],1,left,['9'],5,103,[0.06647514],100,44,hard,plus,dotcolour,beta,,,31,21,V,R,
229,103,19,5,1,33,47,484,['n'],1,right,['9'],5,130,[-0.13491081],100,47,medium,plus,dotcolour,beta,,,31,21,V,R,
230,104,20,5,1,36,44,600,['n'],1,right,['9'],5,102,[-0.0628913],100,44,hard,plus,dotcolour,beta,,,31,21,V,R,
231,105,21,5,1,36,44,634,['n'],1,right,['9'],5,114,[-0.06720672],100,44,hard,plus,dotcolour,beta,,,31,21,V,R,
232,106,22,5,1,33,47,734,['c'],0,right,['9'],5,137,[0.09443755],100,47,medium,plus,dotcolour,beta,,,31,21,V,R,
233,107,23,5,1,47,33,667,['n'],0,left,['9'],5,146,[-0.0664499],100,47,medium,plus,dotcolour,beta,,,31,21,V,R,
234,108,24,5,1,44,36,700,['c'],1,left,['9'],5,138,[0.0307526],98,44,hard,plus,dotcolour,beta,,,31,21,V,R,
235,109,25,5,1,47,33,783,['n'],0,left,['9'],5,94,[-0.04414369],100,47,medium,plus,dotcolour,beta,,,31,21,V,R,
236,110,26,5,1,47,33,600,['c'],1,left,['9'],5,140,[0.08271146],100,47,medium,plus,dotcolour,beta,,,31,21,V,R,
237,111,27,5,1,47,33,667,['n'],0,left,['9'],5,125,[-0.08534797],100,47,medium,plus,dotcolour,beta,,,31,21,V,R,
238,112,28,5,1,53,27,634,['c'],1,left,['9'],5,95,[0.10001925],100,53,easy,plus,dotcolour,beta,,,31,21,V,R,
239,113,29,5,1,36,44,684,['n'],1,right,['9'],5,105,[-0.07319685],100,44,hard,plus,dotcolour,beta,,,31,21,V,R,
240,114,30,5,1,33,47,550,['c'],0,right,['9'],5,113,[0.00840687],97,47,medium,plus,dotcolour,beta,,,31,21,V,R,
241,115,31,5,1,47,33,567,['n'],0,left,['9'],5,103,[-0.06199674],100,47,medium,plus,dotcolour,beta,,,31,21,V,R,
242,116,32,5,1,27,53,551,['n'],1,right,['9'],5,118,[-0.11028378],100,53,easy,plus,dotcolour,beta,,,31,21,V,R,
243,117,33,5,1,53,27,500,['c'],1,left,['9'],5,127,[0.06739044],100,53,easy,plus,dotcolour,beta,,,31,21,V,R,
244,118,34,5,1,53,27,617,['c'],1,left,['9'],5,154,[0.07398054],100,53,easy,plus,dotcolour,beta,,,31,21,V,R,
245,119,35,5,1,27,53,583,['n'],1,right,['9'],5,94,[-0.03411401],99,53,easy,plus,dotcolour,beta,,,31,21,V,R,
246,120,36,5,1,36,44,767,['n'],1,right,['9'],5,101,[-0.02896178],99,44,hard,plus,dotcolour,beta,,,31,21,V,R,
247,121,37,5,1,36,44,1234,['n'],1,right,['9'],5,97,[-0.06868798],100,44,hard,plus,dotcolour,beta,,,31,21,V,R,
248,122,38,5,1,53,27,533,['c'],1,left,['9'],5,145,[0.11879092],100,53,easy,plus,dotcolour,beta,,,31,21,V,R,
249,123,39,5,1,47,33,534,['c'],1,left,['9'],5,143,[0.07951516],100,47,medium,plus,dotcolour,beta,,,31,21,V,R,
250,124,40,5,1,27,53,566,['n'],1,right,['9'],5,123,[-0.10094257],100,53,easy,plus,dotcolour,beta,,,31,21,V,R,
251,125,41,5,1,53,27,500,['c'],1,left,['9'],5,148,[-0.01036898],89,53,easy,plus,dotcolour,beta,,,31,21,V,R,
252,0,0,6,2,53,27,701,['c'],1,left,['9'],5,150,[0.08785341],82,53,easy,minus,dotcolour,beta,,,31,21,V,R,
253,1,1,6,2,27,53,584,['n'],1,right,['9'],5,106,[-0.07887119],78,53,easy,minus,dotcolour,beta,,,31,21,V,R,
254,2,2,6,2,53,27,717,['c'],1,left,['9'],5,98,[0.09496704],91,53,easy,minus,dotcolour,beta,,,31,21,V,R,
255,3,3,6,2,47,33,617,['c'],1,left,['9'],5,95,[0.08687929],86,47,medium,minus,dotcolour,beta,,,31,21,V,R,
256,4,4,6,2,44,36,667,['n'],0,left,['9'],5,113,[-0.0594728],55,44,hard,minus,dotcolour,beta,,,31,21,V,R,
257,5,5,6,2,47,33,734,['n'],0,left,['9'],5,89,[-0.10505749],95,47,medium,minus,dotcolour,beta,,,31,21,V,R,
258,6,6,6,2,44,36,583,['c'],1,left,['9'],5,104,[0.07827294],78,44,hard,minus,dotcolour,beta,,,31,21,V,R,
259,7,7,6,2,47,33,750,['n'],0,left,['9'],5,95,[-0.07418576],75,47,medium,minus,dotcolour,beta,,,31,21,V,R,
260,8,8,6,2,33,47,800,['n'],1,right,['9'],5,100,[-0.10631516],95,47,medium,minus,dotcolour,beta,,,31,21,V,R,
261,9,9,6,2,53,27,451,['c'],1,left,['9'],5,112,[0.12051386],97,53,easy,minus,dotcolour,beta,,,31,21,V,R,
262,10,10,6,2,53,27,566,['c'],1,left,['9'],5,110,[0.08350673],82,53,easy,minus,dotcolour,beta,,,31,21,V,R,
263,11,11,6,2,44,36,716,['n'],0,left,['9'],5,86,[-0.05656853],52,44,hard,minus,dotcolour,beta,,,31,21,V,R,
264,12,12,6,2,44,36,767,['n'],0,left,['9'],5,54,[-0.04335816],28,44,hard,minus,dotcolour,beta,,,31,21,V,R,
265,13,13,6,2,33,47,601,['c'],0,right,['9'],5,109,[0.10133557],92,47,medium,minus,dotcolour,beta,,,31,21,V,R,
266,14,14,6,2,27,53,466,['n'],1,right,['9'],5,87,[-0.1036892],95,53,easy,minus,dotcolour,beta,,,31,21,V,R,
267,15,15,6,2,53,27,467,['c'],1,left,['9'],5,98,[0.05639513],51,53,easy,minus,dotcolour,beta,,,31,21,V,R,
268,16,16,6,2,47,33,617,['c'],1,left,['9'],5,103,[0.06722631],66,47,medium,minus,dotcolour,beta,,,31,21,V,R,
269,17,17,6,2,44,36,733,['n'],0,left,['9'],5,86,[-0.07697241],79,44,hard,minus,dotcolour,beta,,,31,21,V,R,
270,18,18,6,2,27,53,817,['n'],1,right,['9'],5,116,[-0.06764811],65,53,easy,minus,dotcolour,beta,,,31,21,V,R,
271,19,19,6,2,36,44,750,['c'],0,right,['9'],5,114,[0.06367761],61,44,hard,minus,dotcolour,beta,,,31,21,V,R,
272,20,20,6,2,47,33,834,['n'],0,left,['9'],5,126,[-0.02487716],17,47,medium,minus,dotcolour,beta,,,31,21,V,R,
273,21,21,6,2,33,47,1517,['n'],1,right,['9'],5,206,[-0.10477011],88,47,medium,minus,dotcolour,beta,,,31,21,V,R,
274,22,22,6,2,36,44,716,['n'],1,right,['9'],5,74,[-0.07406981],77,44,hard,minus,dotcolour,beta,,,31,21,V,R,
275,23,23,6,2,36,44,966,['n'],1,right,['9'],5,1,[-0.07437821],100,44,hard,minus,dotcolour,beta,,,31,21,V,R,
276,24,24,6,2,44,36,700,['c'],1,left,['9'],5,86,[0.06670401],66,44,hard,minus,dotcolour,beta,,,31,21,V,R,
277,25,25,6,2,27,53,583,['n'],1,right,['9'],5,85,[-0.06061824],58,53,easy,minus,dotcolour,beta,,,31,21,V,R,
278,26,26,6,2,33,47,517,['n'],1,right,['9'],5,70,[0.01032051],1,47,medium,minus,dotcolour,beta,,,31,21,V,R,
279,27,27,6,2,33,47,1467,['n'],1,right,['9'],5,138,[-0.09420163],87,47,medium,minus,dotcolour,beta,,,31,21,V,R,
280,28,28,6,2,47,33,667,['c'],1,left,['9'],5,139,[0.03542287],27,47,medium,minus,dotcolour,beta,,,31,21,V,R,
281,29,29,6,2,47,33,750,['n'],0,left,['9'],5,97,[-0.04544415],36,47,medium,minus,dotcolour,beta,,,31,21,V,R,
282,30,30,6,2,27,53,1167,['n'],1,right,['9'],5,104,[-0.02762214],17,53,easy,minus,dotcolour,beta,,,31,21,V,R,
283,31,31,6,2,36,44,667,['c'],0,right,['9'],5,331,[0.16059534],96,44,hard,minus,dotcolour,beta,,,31,21,V,R,
284,32,32,6,2,44,36,867,['n'],0,left,['9'],5,76,[-0.03250611],18,44,hard,minus,dotcolour,beta,,,31,21,V,R,
285,33,33,6,2,27,53,884,['n'],1,right,['9'],5,71,[-0.12547811],99,53,easy,minus,dotcolour,beta,,,31,21,V,R,
286,34,34,6,2,36,44,1183,['n'],1,right,['9'],5,119,[-0.08026449],78,44,hard,minus,dotcolour,beta,,,31,21,V,R,
287,35,35,6,2,33,47,1116,['n'],1,right,['9'],5,118,[-0.07513899],74,47,medium,minus,dotcolour,beta,,,31,21,V,R,
288,36,36,6,2,36,44,1266,['c'],0,right,['3'],3,265,[0.02097332],23,44,hard,minus,dotcolour,beta,,,31,21,V,R,
289,37,37,6,2,36,44,1017,['n'],1,right,['9'],5,118,[-0.12256523],97,44,hard,minus,dotcolour,beta,,,31,21,V,R,
290,38,38,6,2,53,27,1101,['c'],1,left,['9'],5,111,[0.06987621],68,53,easy,minus,dotcolour,beta,,,31,21,V,R,
291,39,39,6,2,27,53,666,['n'],1,right,['9'],5,90,[-0.12546357],99,53,easy,minus,dotcolour,beta,,,31,21,V,R,
292,40,40,6,2,53,27,833,['c'],1,left,['9'],5,134,[0.08951411],84,53,easy,minus,dotcolour,beta,,,31,21,V,R,
293,41,41,6,2,33,47,684,['n'],1,right,['9'],5,118,[-0.04639407],38,47,medium,minus,dotcolour,beta,,,31,21,V,R,
294,42,0,7,2,47,33,884,['c'],1,left,['9'],5,107,[0.10435112],94,47,medium,minus,dotcolour,beta,,,31,21,V,R,
295,43,1,7,2,47,33,1084,['c'],1,left,['9'],5,85,[0.10407885],95,47,medium,minus,dotcolour,beta,,,31,21,V,R,
296,44,2,7,2,27,53,601,['n'],1,right,['9'],5,91,[-0.08977191],89,53,easy,minus,dotcolour,beta,,,31,21,V,R,
297,45,3,7,2,44,36,1050,['n'],0,left,['9'],5,62,[-0.06482945],66,44,hard,minus,dotcolour,beta,,,31,21,V,R,
298,46,4,7,2,53,27,934,['n'],0,left,['9'],5,103,[-0.06106164],58,53,easy,minus,dotcolour,beta,,,31,21,V,R,
299,47,5,7,2,27,53,683,['n'],1,right,['9'],5,81,[-0.10821566],97,53,easy,minus,dotcolour,beta,,,31,21,V,R,
300,48,6,7,2,44,36,1083,['n'],0,left,['9'],5,76,[-0.09555997],93,44,hard,minus,dotcolour,beta,,,31,21,V,R,
301,49,7,7,2,47,33,784,['c'],1,left,['9'],5,114,[0.03397914],24,47,medium,minus,dotcolour,beta,,,31,21,V,R,
302,50,8,7,2,27,53,584,['n'],1,right,['9'],5,80,[-0.08941255],90,53,easy,minus,dotcolour,beta,,,31,21,V,R,
303,51,9,7,2,33,47,550,['n'],1,right,['9'],5,64,[-0.11136538],98,47,medium,minus,dotcolour,beta,,,31,21,V,R,
304,52,10,7,2,47,33,934,['n'],0,left,['9'],5,74,[-0.04682156],36,47,medium,minus,dotcolour,beta,,,31,21,V,R,
305,53,11,7,2,36,44,551,['n'],1,right,['9'],5,74,[-0.08342054],86,44,hard,minus,dotcolour,beta,,,31,21,V,R,
306,54,12,7,2,53,27,766,['c'],1,left,['9'],5,65,[0.0876434],91,53,easy,minus,dotcolour,beta,,,31,21,V,R,
307,55,13,7,2,36,44,700,['n'],1,right,['9'],5,35,[-0.10230474],99,44,hard,minus,dotcolour,beta,,,31,21,V,R,
308,56,14,7,2,36,44,667,['n'],1,right,['9'],5,41,[-0.09319056],97,44,hard,minus,dotcolour,beta,,,31,21,V,R,
309,57,15,7,2,44,36,700,['n'],0,left,['9'],5,44,[-0.00571292],1,44,hard,minus,dotcolour,beta,,,31,21,V,R,
310,58,16,7,2,44,36,834,['c'],1,left,['9'],5,42,[0.03928609],19,44,hard,minus,dotcolour,beta,,,31,21,V,R,
311,59,17,7,2,44,36,650,['c'],1,left,['9'],5,56,[0.0720098],78,44,hard,minus,dotcolour,beta,,,31,21,V,R,
312,60,18,7,2,33,47,600,['n'],1,right,['9'],5,23,[-0.05783651],57,47,medium,minus,dotcolour,beta,,,31,21,V,R,
313,61,19,7,2,33,47,484,['n'],1,right,['9'],5,52,[-0.03898332],21,47,medium,minus,dotcolour,beta,,,31,21,V,R,
314,62,20,7,2,47,33,667,['n'],0,left,['9'],5,25,[-0.05350062],44,47,medium,minus,dotcolour,beta,,,31,21,V,R,
315,63,21,7,2,27,53,617,['n'],1,right,['9'],5,48,[-0.08996471],94,53,easy,minus,dotcolour,beta,,,31,21,V,R,
316,64,22,7,2,53,27,616,['c'],1,left,['9'],5,31,[0.10675414],99,53,easy,minus,dotcolour,beta,,,31,21,V,R,
317,65,23,7,2,44,36,650,['n'],0,left,['9'],5,77,[-0.07226963],75,44,hard,minus,dotcolour,beta,,,31,21,V,R,
318,66,24,7,2,27,53,534,['n'],1,right,['9'],5,30,[-0.06151764],65,53,easy,minus,dotcolour,beta,,,31,21,V,R,
319,67,25,7,2,53,27,615,['c'],1,left,['9'],5,94,[0.0606801],57,53,easy,minus,dotcolour,beta,,,31,21,V,R,
320,68,26,7,2,47,33,1200,['n'],0,left,['9'],5,82,[-0.08045159],83,47,medium,minus,dotcolour,beta,,,31,21,V,R,
321,69,27,7,2,53,27,650,['c'],1,left,['9'],5,86,[0.12719084],99,53,easy,minus,dotcolour,beta,,,31,21,V,R,
322,70,28,7,2,27,53,667,['n'],1,right,['9'],5,66,[-0.09387161],94,53,easy,minus,dotcolour,beta,,,31,21,V,R,
323,71,29,7,2,36,44,683,['n'],1,right,['9'],5,141,[-0.0769152],74,44,hard,minus,dotcolour,beta,,,31,21,V,R,
324,72,30,7,2,53,27,584,['c'],1,left,['9'],5,81,[0.11966783],98,53,easy,minus,dotcolour,beta,,,31,21,V,R,
325,73,31,7,2,36,44,634,['n'],1,right,['9'],5,110,[-0.15332795],100,44,hard,minus,dotcolour,beta,,,31,21,V,R,
326,74,32,7,2,36,44,733,['c'],0,right,['9'],5,69,[0.05799177],54,44,hard,minus,dotcolour,beta,,,31,21,V,R,
327,75,33,7,2,44,36,584,['n'],0,left,['9'],5,61,[-0.06642476],69,44,hard,minus,dotcolour,beta,,,31,21,V,R,
328,76,34,7,2,47,33,700,['c'],1,left,['9'],5,95,[0.10551058],95,47,medium,minus,dotcolour,beta,,,31,21,V,R,
329,77,35,7,2,53,27,650,['c'],1,left,['9'],5,98,[0.08247508],82,53,easy,minus,dotcolour,beta,,,31,21,V,R,
330,78,36,7,2,33,47,600,['n'],1,right,['9'],5,40,[-0.08493571],93,47,medium,minus,dotcolour,beta,,,31,21,V,R,
331,79,37,7,2,33,47,451,['c'],0,right,['9'],5,70,[0.05474283],49,47,medium,minus,dotcolour,beta,,,31,21,V,R,
332,80,38,7,2,36,44,1083,['n'],1,right,['9'],5,89,[-0.06631316],66,44,hard,minus,dotcolour,beta,,,31,21,V,R,
333,81,39,7,2,33,47,634,['n'],1,right,['9'],5,14,[-0.06690876],85,47,medium,minus,dotcolour,beta,,,31,21,V,R,
334,82,40,7,2,33,47,700,['n'],1,right,['9'],5,11,[-0.05853058],62,47,medium,minus,dotcolour,beta,,,31,21,V,R,
335,83,41,7,2,27,53,717,['n'],1,right,['9'],5,30,[-0.06649486],76,53,easy,minus,dotcolour,beta,,,31,21,V,R,
336,84,0,8,2,47,33,883,['c'],1,left,['9'],5,59,[0.08404404],89,47,medium,minus,dotcolour,beta,,,31,21,V,R,
337,85,1,8,2,33,47,783,['n'],1,right,['9'],5,106,[-0.09643031],91,47,medium,minus,dotcolour,beta,,,31,21,V,R,
338,86,2,8,2,33,47,717,['n'],1,right,['9'],5,43,[-0.07582706],85,47,medium,minus,dotcolour,beta,,,31,21,V,R,
339,87,3,8,2,47,33,700,['c'],1,left,['9'],5,94,[0.10186551],94,47,medium,minus,dotcolour,beta,,,31,21,V,R,
340,88,4,8,2,36,44,667,['c'],0,right,['9'],5,81,[0.04412452],33,44,hard,minus,dotcolour,beta,,,31,21,V,R,
341,89,5,8,2,44,36,567,['n'],0,left,['9'],5,40,[-0.0967099],98,44,hard,minus,dotcolour,beta,,,31,21,V,R,
342,90,6,8,2,53,27,617,['n'],0,left,['9'],5,7,[-0.06504157],89,53,easy,minus,dotcolour,beta,,,31,21,V,R,
343,91,7,8,2,33,47,1100,['n'],1,right,['9'],5,68,[-0.06467753],65,47,medium,minus,dotcolour,beta,,,31,21,V,R,
344,92,8,8,2,36,44,634,['n'],1,right,['9'],5,49,[-0.08511785],92,44,hard,minus,dotcolour,beta,,,31,21,V,R,
345,93,9,8,2,47,33,750,['c'],1,left,['9'],5,59,[0.09012564],93,47,medium,minus,dotcolour,beta,,,31,21,V,R,
346,94,10,8,2,33,47,550,['c'],0,right,['9'],5,75,[0.07345175],76,47,medium,minus,dotcolour,beta,,,31,21,V,R,
347,95,11,8,2,44,36,683,['n'],0,left,['9'],5,78,[-0.02720716],14,44,hard,minus,dotcolour,beta,,,31,21,V,R,
348,96,12,8,2,47,33,584,['c'],1,left,['9'],5,37,[0.04272607],23,47,medium,minus,dotcolour,beta,,,31,21,V,R,
349,97,13,8,2,53,27,483,['n'],0,left,['2'],2,1050,[0.14919166],3,53,easy,minus,dotcolour,beta,,,31,21,V,R,
350,98,14,8,2,27,53,850,['n'],1,right,['9'],5,94,[-0.10524091],95,53,easy,minus,dotcolour,beta,,,31,21,V,R,
351,99,15,8,2,53,27,717,['c'],1,left,['9'],5,31,[0.10509828],99,53,easy,minus,dotcolour,beta,,,31,21,V,R,
352,100,16,8,2,44,36,1099,['c'],1,left,['9'],5,35,[0.05507052],49,44,hard,minus,dotcolour,beta,,,31,21,V,R,
353,101,17,8,2,53,27,650,['c'],1,left,['9'],5,81,[0.10949875],97,53,easy,minus,dotcolour,beta,,,31,21,V,R,
354,102,18,8,2,44,36,850,['c'],1,left,['9'],5,37,[0.06589011],72,44,hard,minus,dotcolour,beta,,,31,21,V,R,
355,103,19,8,2,53,27,584,['c'],1,left,['9'],5,70,[0.05631965],51,53,easy,minus,dotcolour,beta,,,31,21,V,R,
356,104,20,8,2,36,44,600,['n'],1,right,['9'],5,108,[-0.08320891],82,44,hard,minus,dotcolour,beta,,,31,21,V,R,
357,105,21,8,2,36,44,617,['n'],1,right,['9'],5,88,[-0.0761263],78,44,hard,minus,dotcolour,beta,,,31,21,V,R,
358,106,22,8,2,27,53,567,['n'],1,right,['9'],5,64,[-0.12491444],99,53,easy,minus,dotcolour,beta,,,31,21,V,R,
359,107,23,8,2,36,44,1217,['n'],1,right,['9'],5,62,[-0.06459696],66,44,hard,minus,dotcolour,beta,,,31,21,V,R,
360,108,24,8,2,36,44,583,['n'],1,right,['9'],5,37,[-0.10648374],99,44,hard,minus,dotcolour,beta,,,31,21,V,R,
361,109,25,8,2,33,47,601,['n'],1,right,['9'],5,13,[-0.07072669],92,47,medium,minus,dotcolour,beta,,,31,21,V,R,
362,110,26,8,2,27,53,534,['n'],1,right,['9'],5,48,[-0.12590591],100,53,easy,minus,dotcolour,beta,,,31,21,V,R,
363,111,27,8,2,27,53,717,['n'],1,right,['9'],5,51,[-0.07314021],80,53,easy,minus,dotcolour,beta,,,31,21,V,R,
364,112,28,8,2,53,27,617,['c'],1,left,['9'],5,50,[0.07717637],85,53,easy,minus,dotcolour,beta,,,31,21,V,R,
365,113,29,8,2,36,44,617,['n'],1,right,['9'],5,72,[-0.06945285],72,44,hard,minus,dotcolour,beta,,,31,21,V,R,
366,114,30,8,2,27,53,600,['n'],1,right,['9'],5,63,[-0.08555855],90,53,easy,minus,dotcolour,beta,,,31,21,V,R,
367,115,31,8,2,44,36,583,['c'],1,left,['9'],5,86,[0.10648692],96,44,hard,minus,dotcolour,beta,,,31,21,V,R,
368,116,32,8,2,44,36,616,['n'],0,left,['9'],5,28,[-0.07435864],88,44,hard,minus,dotcolour,beta,,,31,21,V,R,
369,117,33,8,2,53,27,1366,['c'],1,left,['9'],5,45,[0.09670948],97,53,easy,minus,dotcolour,beta,,,31,21,V,R,
370,118,34,8,2,33,47,767,['n'],1,right,['9'],5,39,[-0.0671511],74,47,medium,minus,dotcolour,beta,,,31,21,V,R,
371,119,35,8,2,47,33,583,['c'],1,left,['9'],5,63,[0.09593144],95,47,medium,minus,dotcolour,beta,,,31,21,V,R,
372,120,36,8,2,27,53,600,['n'],1,right,['9'],5,53,[-0.10819427],98,53,easy,minus,dotcolour,beta,,,31,21,V,R,
373,121,37,8,2,47,33,935,['c'],1,left,['9'],5,72,[0.1412232],100,47,medium,minus,dotcolour,beta,,,31,21,V,R,
374,122,38,8,2,47,33,767,['c'],1,left,['9'],5,56,[0.08087509],87,47,medium,minus,dotcolour,beta,,,31,21,V,R,
375,123,39,8,2,27,53,517,['n'],1,right,['9'],5,130,[-0.05160064],45,53,easy,minus,dotcolour,beta,,,31,21,V,R,
376,124,40,8,2,44,36,800,['n'],0,left,['9'],5,102,[-0.02114125],13,44,hard,minus,dotcolour,beta,,,31,21,V,R,
377,125,41,8,2,33,47,783,['n'],1,right,['9'],5,92,[-0.08689671],87,47,medium,minus,dotcolour,beta,,,31,21,V,R,
378,0,0,9,3,33,47,667,['n'],1,right,['9'],5,56,[-0.06755271],100,47,medium,plus,dotcolour,beta,,,31,21,V,R,
379,1,1,9,3,47,33,717,['n'],0,left,['9'],5,43,[-0.0418811],100,47,medium,plus,dotcolour,beta,,,31,21,V,R,
380,2,2,9,3,36,44,767,['n'],1,right,['9'],5,2268,[-0.11866651],89,44,hard,plus,dotcolour,beta,,,31,21,V,R,
381,3,3,9,3,44,36,800,['c'],1,left,['9'],5,65,[0.06089548],100,44,hard,plus,dotcolour,beta,,,31,21,V,R,
382,4,4,9,3,47,33,734,['c'],1,left,['9'],5,91,[0.10786602],100,47,medium,plus,dotcolour,beta,,,31,21,V,R,
383,5,5,9,3,33,47,1633,['n'],1,right,['9'],5,1151,[-0.2731118],100,47,medium,plus,dotcolour,beta,,,31,21,V,R,
384,6,6,9,3,44,36,1483,['c'],1,left,['9'],5,398,[0.09220778],99,44,hard,plus,dotcolour,beta,,,31,21,V,R,
385,7,7,9,3,47,33,1116,['n'],0,left,['9'],5,459,[-0.17336122],100,47,medium,plus,dotcolour,beta,,,31,21,V,R,
386,8,8,9,3,53,27,883,['c'],1,left,['9'],5,334,[0.08138442],99,53,easy,plus,dotcolour,beta,,,31,21,V,R,
387,9,9,9,3,36,44,666,['n'],1,right,['9'],5,560,[-0.03220176],89,44,hard,plus,dotcolour,beta,,,31,21,V,R,
388,10,10,9,3,27,53,1001,['n'],1,right,['9'],5,83,[-0.10787485],100,53,easy,plus,dotcolour,beta,,,31,21,V,R,
389,11,11,9,3,53,27,700,['c'],1,left,['9'],5,84,[0.06617411],100,53,easy,plus,dotcolour,beta,,,31,21,V,R,
390,12,12,9,3,53,27,617,['n'],0,left,['9'],5,74,[-0.05766528],100,53,easy,plus,dotcolour,beta,,,31,21,V,R,
391,13,13,9,3,33,47,666,['n'],1,right,['9'],5,45,[-0.08616885],100,47,medium,plus,dotcolour,beta,,,31,21,V,R,
392,14,14,9,3,47,33,483,['c'],1,left,['9'],5,105,[0.07735897],100,47,medium,plus,dotcolour,beta,,,31,21,V,R,
393,15,15,9,3,27,53,667,['n'],1,right,['9'],5,28,[-0.08278282],100,53,easy,plus,dotcolour,beta,,,31,21,V,R,
394,16,16,9,3,44,36,933,['n'],0,left,['9'],5,6,[-0.07017165],100,44,hard,plus,dotcolour,beta,,,31,21,V,R,
395,17,17,9,3,47,33,765,['n'],0,left,['9'],5,18,[-0.07372995],100,47,medium,plus,dotcolour,beta,,,31,21,V,R,
396,18,18,9,3,44,36,617,['c'],1,left,['9'],5,82,[0.10487628],100,44,hard,plus,dotcolour,beta,,,31,21,V,R,
397,19,19,9,3,53,27,568,['c'],1,left,['9'],5,89,[0.05789169],100,53,easy,plus,dotcolour,beta,,,31,21,V,R,
398,20,20,9,3,27,53,517,['n'],1,right,['9'],5,34,[-0.08464343],100,53,easy,plus,dotcolour,beta,,,31,21,V,R,
399,21,21,9,3,44,36,1800,['c'],1,left,['9'],5,82,[0.05640273],100,44,hard,plus,dotcolour,beta,,,31,21,V,R,
400,22,22,9,3,33,47,583,['n'],1,right,['9'],5,80,[-0.13147295],100,47,medium,plus,dotcolour,beta,,,31,21,V,R,
401,23,23,9,3,27,53,884,['n'],1,right,['9'],5,107,[-0.07178676],100,53,easy,plus,dotcolour,beta,,,31,21,V,R,
402,24,24,9,3,36,44,632,['c'],0,right,['2'],2,1038,[-0.06093219],48,44,hard,plus,dotcolour,beta,,,31,21,V,R,
403,25,25,9,3,44,36,917,['c'],1,left,['9'],5,81,[0.0668478],100,44,hard,plus,dotcolour,beta,,,31,21,V,R,
404,26,26,9,3,27,53,550,['n'],1,right,['9'],5,122,[-0.04305799],99,53,easy,plus,dotcolour,beta,,,31,21,V,R,
405,27,27,9,3,33,47,767,['n'],1,right,['9'],5,40,[-0.07310354],100,47,medium,plus,dotcolour,beta,,,31,21,V,R,
406,28,28,9,3,36,44,1217,['n'],1,right,['9'],5,63,[-0.1069126],100,44,hard,plus,dotcolour,beta,,,31,21,V,R,
407,29,29,9,3,27,53,567,['n'],1,right,['9'],5,55,[-0.08196913],100,53,easy,plus,dotcolour,beta,,,31,21,V,R,
408,30,30,9,3,44,36,783,['c'],1,left,['9'],5,47,[0.0682701],100,44,hard,plus,dotcolour,beta,,,31,21,V,R,
409,31,31,9,3,36,44,583,['n'],1,right,['9'],5,79,[-0.07786212],100,44,hard,plus,dotcolour,beta,,,31,21,V,R,
410,32,32,9,3,47,33,617,['n'],0,left,['9'],5,84,[-0.02541348],99,47,medium,plus,dotcolour,beta,,,31,21,V,R,
411,33,33,9,3,33,47,600,['n'],1,right,['9'],5,82,[-0.07452443],100,47,medium,plus,dotcolour,beta,,,31,21,V,R,
412,34,34,9,3,33,47,1134,['c'],0,right,['9'],5,107,[0.01837902],98,47,medium,plus,dotcolour,beta,,,31,21,V,R,
413,35,35,9,3,53,27,883,['n'],0,left,['9'],5,77,[-0.07378518],100,53,easy,plus,dotcolour,beta,,,31,21,V,R,
414,36,36,9,3,53,27,899,['c'],1,left,['9'],5,95,[0.07668036],100,53,easy,plus,dotcolour,beta,,,31,21,V,R,
415,37,37,9,3,36,44,717,['n'],1,right,['9'],5,63,[-0.05426533],100,44,hard,plus,dotcolour,beta,,,31,21,V,R,
416,38,38,9,3,47,33,634,['n'],0,left,['9'],5,76,[-0.07515013],100,47,medium,plus,dotcolour,beta,,,31,21,V,R,
417,39,39,9,3,27,53,516,['n'],1,right,['9'],5,94,[-0.12504552],100,53,easy,plus,dotcolour,beta,,,31,21,V,R,
418,40,40,9,3,53,27,567,['c'],1,left,['9'],5,85,[0.09637311],100,53,easy,plus,dotcolour,beta,,,31,21,V,R,
419,41,41,9,3,36,44,566,['n'],1,right,['9'],5,76,[-0.11782387],100,44,hard,plus,dotcolour,beta,,,31,21,V,R,
420,42,0,10,3,47,33,783,['n'],0,left,['9'],5,84,[-0.09269362],100,47,medium,plus,dotcolour,beta,,,31,21,V,R,
421,43,1,10,3,53,27,550,['c'],1,left,['9'],5,124,[0.11693104],100,53,easy,plus,dotcolour,beta,,,31,21,V,R,
422,44,2,10,3,47,33,1082,['c'],1,left,['9'],5,78,[0.09913623],100,47,medium,plus,dotcolour,beta,,,31,21,V,R,
423,45,3,10,3,36,44,584,['n'],1,right,['9'],5,108,[-0.07486373],100,44,hard,plus,dotcolour,beta,,,31,21,V,R,
424,46,4,10,3,27,53,699,['n'],1,right,['9'],5,84,[-0.11839716],100,53,easy,plus,dotcolour,beta,,,31,21,V,R,
425,47,5,10,3,33,47,666,['n'],1,right,['9'],5,80,[-0.12740981],100,47,medium,plus,dotcolour,beta,,,31,21,V,R,
426,48,6,10,3,44,36,484,['c'],1,left,['9'],5,58,[0.04313316],100,44,hard,plus,dotcolour,beta,,,31,21,V,R,
427,49,7,10,3,27,53,567,['n'],1,right,['9'],5,82,[-0.03004708],100,53,easy,plus,dotcolour,beta,,,31,21,V,R,
428,50,8,10,3,47,33,834,['n'],0,left,['9'],5,63,[-0.05091981],100,47,medium,plus,dotcolour,beta,,,31,21,V,R,
429,51,9,10,3,53,27,583,['n'],0,left,['9'],5,71,[-0.08490229],100,53,easy,plus,dotcolour,beta,,,31,21,V,R,
430,52,10,10,3,44,36,717,['n'],0,left,['9'],5,72,[-0.11475837],100,44,hard,plus,dotcolour,beta,,,31,21,V,R,
431,53,11,10,3,44,36,650,['n'],0,left,['9'],5,53,[-0.12273187],100,44,hard,plus,dotcolour,beta,,,31,21,V,R,
432,54,12,10,3,27,53,583,['n'],1,right,['9'],5,61,[-0.0942676],100,53,easy,plus,dotcolour,beta,,,31,21,V,R,
433,55,13,10,3,44,36,533,['n'],0,left,['9'],5,62,[-0.05468471],100,44,hard,plus,dotcolour,beta,,,31,21,V,R,
434,56,14,10,3,33,47,584,['n'],1,right,['9'],5,102,[-0.13260274],100,47,medium,plus,dotcolour,beta,,,31,21,V,R,
435,57,15,10,3,36,44,517,['n'],1,right,['9'],5,87,[-0.12956241],100,44,hard,plus,dotcolour,beta,,,31,21,V,R,
436,58,16,10,3,27,53,516,['n'],1,right,['9'],5,96,[-0.10368773],100,53,easy,plus,dotcolour,beta,,,31,21,V,R,
437,59,17,10,3,27,53,483,['n'],1,right,['9'],5,90,[-0.09067726],100,53,easy,plus,dotcolour,beta,,,31,21,V,R,
438,60,18,10,3,36,44,617,['n'],1,right,['9'],5,87,[-0.01817997],99,44,hard,plus,dotcolour,beta,,,31,21,V,R,
439,61,19,10,3,33,47,1034,['n'],1,right,['9'],5,91,[-0.0807106],100,47,medium,plus,dotcolour,beta,,,31,21,V,R,
440,62,20,10,3,33,47,533,['n'],1,right,['9'],5,139,[-0.0573007],100,47,medium,plus,dotcolour,beta,,,31,21,V,R,
441,63,21,10,3,36,44,517,['n'],1,right,['9'],5,83,[-0.06450415],100,44,hard,plus,dotcolour,beta,,,31,21,V,R,
442,64,22,10,3,44,36,1117,['n'],0,left,['9'],5,92,[-0.03937105],100,44,hard,plus,dotcolour,beta,,,31,21,V,R,
443,65,23,10,3,53,27,784,['c'],1,left,['9'],5,106,[0.06125194],100,53,easy,plus,dotcolour,beta,,,31,21,V,R,
444,66,24,10,3,53,27,518,['c'],1,left,['9'],5,74,[0.08162647],100,53,easy,plus,dotcolour,beta,,,31,21,V,R,
445,67,25,10,3,27,53,716,['n'],1,right,['9'],5,147,[-0.12702213],100,53,easy,plus,dotcolour,beta,,,31,21,V,R,
446,68,26,10,3,53,27,517,['c'],1,left,['9'],5,82,[0.08862437],100,53,easy,plus,dotcolour,beta,,,31,21,V,R,
447,69,27,10,3,44,36,817,['c'],1,left,['9'],5,112,[0.09567491],100,44,hard,plus,dotcolour,beta,,,31,21,V,R,
448,70,28,10,3,36,44,717,['n'],1,right,['9'],5,88,[-0.03343812],100,44,hard,plus,dotcolour,beta,,,31,21,V,R,
449,71,29,10,3,47,33,767,['n'],0,left,['9'],5,103,[-0.03531768],99,47,medium,plus,dotcolour,beta,,,31,21,V,R,
450,72,30,10,3,47,33,534,['c'],1,left,['9'],5,79,[0.06871353],100,47,medium,plus,dotcolour,beta,,,31,21,V,R,
451,73,31,10,3,47,33,517,['c'],1,left,['9'],5,97,[0.0583376],100,47,medium,plus,dotcolour,beta,,,31,21,V,R,
452,74,32,10,3,47,33,550,['c'],1,left,['9'],5,96,[0.08628205],100,47,medium,plus,dotcolour,beta,,,31,21,V,R,
453,75,33,10,3,53,27,467,['c'],1,left,['9'],5,122,[0.10381659],100,53,easy,plus,dotcolour,beta,,,31,21,V,R,
454,76,34,10,3,33,47,849,['c'],0,right,['9'],5,93,[0.08461285],100,47,medium,plus,dotcolour,beta,,,31,21,V,R,
455,77,35,10,3,33,47,850,['n'],1,right,['9'],5,48,[-0.09090553],100,47,medium,plus,dotcolour,beta,,,31,21,V,R,
456,78,36,10,3,53,27,566,['c'],1,left,['9'],5,98,[0.1132779],100,53,easy,plus,dotcolour,beta,,,31,21,V,R,
457,79,37,10,3,44,36,800,['n'],0,left,['9'],5,102,[-0.05629532],100,44,hard,plus,dotcolour,beta,,,31,21,V,R,
458,80,38,10,3,33,47,650,['n'],1,right,['9'],5,122,[-0.03250267],99,47,medium,plus,dotcolour,beta,,,31,21,V,R,
459,81,39,10,3,27,53,816,['n'],1,right,['9'],5,118,[-0.06977292],100,53,easy,plus,dotcolour,beta,,,31,21,V,R,
460,82,40,10,3,36,44,733,['n'],1,right,['9'],5,61,[-0.09559509],100,44,hard,plus,dotcolour,beta,,,31,21,V,R,
461,83,41,10,3,36,44,717,['n'],1,right,['9'],5,39,[-0.10067136],100,44,hard,plus,dotcolour,beta,,,31,21,V,R,
462,84,0,11,3,47,33,701,['c'],1,left,['9'],5,86,[0.05358721],100,47,medium,plus,dotcolour,beta,,,31,21,V,R,
463,85,1,11,3,53,27,533,['c'],1,left,['9'],5,126,[0.06573694],100,53,easy,plus,dotcolour,beta,,,31,21,V,R,
464,86,2,11,3,27,53,583,['n'],1,right,['9'],5,155,[-0.25311707],100,53,easy,plus,dotcolour,beta,,,31,21,V,R,
465,87,3,11,3,44,36,616,['c'],1,left,['9'],5,158,[0.12928035],100,44,hard,plus,dotcolour,beta,,,31,21,V,R,
466,88,4,11,3,53,27,550,['c'],1,left,['9'],5,82,[0.11964779],100,53,easy,plus,dotcolour,beta,,,31,21,V,R,
467,89,5,11,3,47,33,517,['c'],1,left,['9'],5,59,[0.09057037],100,47,medium,plus,dotcolour,beta,,,31,21,V,R,
468,90,6,11,3,53,27,400,['c'],1,left,['9'],5,106,[0.05766827],100,53,easy,plus,dotcolour,beta,,,31,21,V,R,
469,91,7,11,3,27,53,617,['n'],1,right,['9'],5,119,[-0.07357924],100,53,easy,plus,dotcolour,beta,,,31,21,V,R,
470,92,8,11,3,36,44,717,['n'],1,right,['9'],5,87,[-0.14355471],100,44,hard,plus,dotcolour,beta,,,31,21,V,R,
471,93,9,11,3,33,47,567,['n'],1,right,['9'],5,133,[-0.09549428],100,47,medium,plus,dotcolour,beta,,,31,21,V,R,
472,94,10,11,3,33,47,917,['n'],1,right,['9'],5,85,[-0.11864113],100,47,medium,plus,dotcolour,beta,,,31,21,V,R,
473,95,11,11,3,33,47,533,['n'],1,right,['9'],5,95,[-0.1526352],100,47,medium,plus,dotcolour,beta,,,31,21,V,R,
474,96,12,11,3,47,33,634,['c'],1,left,['9'],5,147,[0.10605195],100,47,medium,plus,dotcolour,beta,,,31,21,V,R,
475,97,13,11,3,44,36,766,['n'],0,left,['9'],5,86,[-0.09512077],100,44,hard,plus,dotcolour,beta,,,31,21,V,R,
476,98,14,11,3,27,53,549,['n'],1,right,['9'],5,79,[-0.1171989],100,53,easy,plus,dotcolour,beta,,,31,21,V,R,
477,99,15,11,3,53,27,550,['c'],1,left,['9'],5,39,[0.08363098],100,53,easy,plus,dotcolour,beta,,,31,21,V,R,
478,100,16,11,3,44,36,533,['c'],1,left,['9'],5,82,[0.10564767],100,44,hard,plus,dotcolour,beta,,,31,21,V,R,
479,101,17,11,3,33,47,801,['n'],1,right,['9'],5,64,[-0.09358874],100,47,medium,plus,dotcolour,beta,,,31,21,V,R,
480,102,18,11,3,36,44,601,['n'],1,right,['9'],5,102,[-0.10447355],100,44,hard,plus,dotcolour,beta,,,31,21,V,R,
481,103,19,11,3,33,47,467,['c'],0,right,['9'],5,97,[0.0700203],100,47,medium,plus,dotcolour,beta,,,31,21,V,R,
482,104,20,11,3,47,33,467,['c'],1,left,['9'],5,99,[0.09100708],100,47,medium,plus,dotcolour,beta,,,31,21,V,R,
483,105,21,11,3,44,36,516,['c'],1,left,['9'],5,68,[0.0828472],100,44,hard,plus,dotcolour,beta,,,31,21,V,R,
484,106,22,11,3,33,47,667,['n'],1,right,['9'],5,88,[-0.12018891],100,47,medium,plus,dotcolour,beta,,,31,21,V,R,
485,107,23,11,3,53,27,601,['c'],1,left,['9'],5,78,[0.07820573],100,53,easy,plus,dotcolour,beta,,,31,21,V,R,
486,108,24,11,3,27,53,583,['n'],1,right,['9'],5,37,[-0.07623038],100,53,easy,plus,dotcolour,beta,,,31,21,V,R,
487,109,25,11,3,27,53,634,['n'],1,right,['9'],5,116,[-0.08479463],100,53,easy,plus,dotcolour,beta,,,31,21,V,R,
488,110,26,11,3,53,27,500,['c'],1,left,['9'],5,61,[0.0498605],100,53,easy,plus,dotcolour,beta,,,31,21,V,R,
489,111,27,11,3,47,33,701,['c'],1,left,['9'],5,79,[0.07393272],100,47,medium,plus,dotcolour,beta,,,31,21,V,R,
490,112,28,11,3,53,27,516,['c'],1,left,['9'],5,88,[0.07295111],100,53,easy,plus,dotcolour,beta,,,31,21,V,R,
491,113,29,11,3,44,36,501,['c'],1,left,['9'],5,51,[0.03180779],100,44,hard,plus,dotcolour,beta,,,31,21,V,R,
492,114,30,11,3,36,44,650,['n'],1,right,['9'],5,40,[-0.08730181],100,44,hard,plus,dotcolour,beta,,,31,21,V,R,
493,115,31,11,3,47,33,616,['c'],1,left,['9'],5,72,[0.08037905],100,47,medium,plus,dotcolour,beta,,,31,21,V,R,
494,116,32,11,3,44,36,582,['n'],0,left,['9'],5,63,[-0.10671864],100,44,hard,plus,dotcolour,beta,,,31,21,V,R,
495,117,33,11,3,36,44,683,['c'],0,right,['9'],5,42,[0.06743339],100,44,hard,plus,dotcolour,beta,,,31,21,V,R,
496,118,34,11,3,47,33,518,['c'],1,left,['9'],5,68,[0.0600495],100,47,medium,plus,dotcolour,beta,,,31,21,V,R,
497,119,35,11,3,36,44,716,['c'],0,right,['9'],5,103,[0.07120188],100,44,hard,plus,dotcolour,beta,,,31,21,V,R,
498,120,36,11,3,27,53,517,['n'],1,right,['9'],5,71,[-0.10655818],100,53,easy,plus,dotcolour,beta,,,31,21,V,R,
499,121,37,11,3,44,36,867,['c'],1,left,['9'],5,43,[0.05063831],100,44,hard,plus,dotcolour,beta,,,31,21,V,R,
500,122,38,11,3,27,53,600,['n'],1,right,['9'],5,99,[-0.06684861],100,53,easy,plus,dotcolour,beta,,,31,21,V,R,
501,123,39,11,3,36,44,732,['n'],1,right,['9'],5,43,[-0.10124194],100,44,hard,plus,dotcolour,beta,,,31,21,V,R,
502,124,40,11,3,36,44,583,['n'],1,right,['9'],5,75,[-0.03500695],100,44,hard,plus,dotcolour,beta,,,31,21,V,R,
503,125,41,11,3,33,47,884,['n'],1,right,['9'],5,54,[-0.05866969],100,47,medium,plus,dotcolour,beta,,,31,21,V,R,
504,0,0,12,4,53,27,933,['c'],1,left,['0'],6,113,[0.12102995],97,53,easy,minus,dotcolour,beta,,,31,21,V,R,
505,1,1,12,4,36,44,767,['n'],1,right,['9'],5,119,[-0.13705639],99,44,hard,minus,dotcolour,beta,,,31,21,V,R,
506,2,2,12,4,36,44,799,['n'],1,right,['9'],5,107,[-0.07955951],79,44,hard,minus,dotcolour,beta,,,31,21,V,R,
507,3,3,12,4,44,36,734,['c'],1,left,['9'],5,99,[0.12637957],98,44,hard,minus,dotcolour,beta,,,31,21,V,R,
508,4,4,12,4,47,33,783,['c'],1,left,['9'],5,137,[0.13546596],98,47,medium,minus,dotcolour,beta,,,31,21,V,R,
509,5,5,12,4,53,27,667,['n'],0,left,['9'],5,106,[-0.07715002],77,53,easy,minus,dotcolour,beta,,,31,21,V,R,
510,6,6,12,4,27,53,617,['n'],1,right,['9'],5,78,[-0.14155997],100,53,easy,minus,dotcolour,beta,,,31,21,V,R,
511,7,7,12,4,36,44,900,['n'],1,right,['9'],5,104,[-0.03688617],26,44,hard,minus,dotcolour,beta,,,31,21,V,R,
512,8,8,12,4,33,47,983,['n'],1,right,['9'],5,62,[-0.07345978],78,47,medium,minus,dotcolour,beta,,,31,21,V,R,
513,9,9,12,4,47,33,717,['c'],1,left,['9'],5,80,[0.05318207],46,47,medium,minus,dotcolour,beta,,,31,21,V,R,
514,10,10,12,4,44,36,800,['c'],1,left,['9'],5,134,[0.08441169],81,44,hard,minus,dotcolour,beta,,,31,21,V,R,
515,11,11,12,4,53,27,700,['c'],1,left,['9'],5,78,[0.07446024],77,53,easy,minus,dotcolour,beta,,,31,21,V,R,
516,12,12,12,4,44,36,917,['n'],0,left,['9'],5,23,[-0.03705827],10,44,hard,minus,dotcolour,beta,,,31,21,V,R,
517,13,13,12,4,47,33,1101,['c'],1,left,['9'],5,77,[0.08975732],90,47,medium,minus,dotcolour,beta,,,31,21,V,R,
518,14,14,12,4,44,36,983,['n'],0,left,['9'],5,67,[-0.06218324],61,44,hard,minus,dotcolour,beta,,,31,21,V,R,
519,15,15,12,4,53,27,550,['c'],1,left,['9'],5,100,[0.06923621],69,53,easy,minus,dotcolour,beta,,,31,21,V,R,
520,16,16,12,4,36,44,484,['c'],0,right,['9'],5,102,[0.04588521],37,44,hard,minus,dotcolour,beta,,,31,21,V,R,
521,17,17,12,4,53,27,717,['c'],1,left,['9'],5,78,[0.09825591],94,53,easy,minus,dotcolour,beta,,,31,21,V,R,
522,18,18,12,4,44,36,634,['n'],0,left,['9'],5,35,[-0.11060275],100,44,hard,minus,dotcolour,beta,,,31,21,V,R,
523,19,19,12,4,33,47,767,['n'],1,right,['9'],5,1404,[-0.2706425],96,47,medium,minus,dotcolour,beta,,,31,21,V,R,
524,20,20,12,4,47,33,734,['c'],1,left,['9'],5,80,[0.06874779],70,47,medium,minus,dotcolour,beta,,,31,21,V,R,
525,21,21,12,4,36,44,617,['n'],1,right,['9'],5,62,[-0.04300327],29,44,hard,minus,dotcolour,beta,,,31,21,V,R,
526,22,22,12,4,27,53,634,['c'],0,right,['9'],5,146,[0.08231917],78,53,easy,minus,dotcolour,beta,,,31,21,V,R,
527,23,23,12,4,53,27,900,['c'],1,left,['9'],5,66,[0.05428767],48,53,easy,minus,dotcolour,beta,,,31,21,V,R,
528,24,24,12,4,33,47,550,['n'],1,right,['9'],5,26,[-0.08219356],95,47,medium,minus,dotcolour,beta,,,31,21,V,R,
529,25,25,12,4,53,27,1352,['n'],0,left,['9'],5,61,[-0.02569051],10,53,easy,minus,dotcolour,beta,,,31,21,V,R,
530,26,26,12,4,27,53,650,['n'],1,right,['9'],5,41,[-0.07000054],78,53,easy,minus,dotcolour,beta,,,31,21,V,R,
531,27,27,12,4,36,44,1349,['n'],1,right,['0'],6,99,[-0.02562178],15,44,hard,minus,dotcolour,beta,,,31,21,V,R,
532,28,28,12,4,33,47,767,['n'],1,right,['0'],6,105,[-0.06281744],60,47,medium,minus,dotcolour,beta,,,31,21,V,R,
533,29,29,12,4,27,53,750,['n'],1,right,['0'],6,153,[-0.0590814],54,53,easy,minus,dotcolour,beta,,,31,21,V,R,
534,30,30,12,4,44,36,900,['n'],0,left,['9'],5,96,[0.00046093],4,44,hard,minus,dotcolour,beta,,,31,21,V,R,
535,31,31,12,4,33,47,700,['n'],1,right,['9'],5,82,[-0.05239729],45,47,medium,minus,dotcolour,beta,,,31,21,V,R,
536,32,32,12,4,27,53,784,['n'],1,right,['9'],5,40,[-0.10126435],98,53,easy,minus,dotcolour,beta,,,31,21,V,R,
537,33,33,12,4,33,47,533,['n'],1,right,['9'],5,51,[-0.06761018],72,47,medium,minus,dotcolour,beta,,,31,21,V,R,
538,34,34,12,4,33,47,649,['n'],1,right,['9'],5,81,[-0.07580854],78,47,medium,minus,dotcolour,beta,,,31,21,V,R,
539,35,35,12,4,27,53,616,['n'],1,right,['0'],6,150,[-0.14127007],98,53,easy,minus,dotcolour,beta,,,31,21,V,R,
540,36,36,12,4,44,36,950,['c'],1,left,['0'],6,155,[0.06396046],59,44,hard,minus,dotcolour,beta,,,31,21,V,R,
541,37,37,12,4,47,33,850,['c'],1,left,['0'],6,92,[0.08440283],85,47,medium,minus,dotcolour,beta,,,31,21,V,R,
542,38,38,12,4,36,44,1050,['n'],1,right,['0'],6,111,[-0.06011703],56,44,hard,minus,dotcolour,beta,,,31,21,V,R,
543,39,39,12,4,47,33,1050,['n'],0,left,['9'],5,234,[-0.03330956],30,47,medium,minus,dotcolour,beta,,,31,21,V,R,
544,40,40,12,4,27,53,567,['n'],1,right,['9'],5,163,[-0.06620501],62,53,easy,minus,dotcolour,beta,,,31,21,V,R,
545,41,41,12,4,47,33,466,['n'],0,left,['9'],5,75,[-0.049677],40,47,medium,minus,dotcolour,beta,,,31,21,V,R,
546,42,0,13,4,33,47,867,['n'],1,right,['9'],5,76,[-0.06850651],70,47,medium,minus,dotcolour,beta,,,31,21,V,R,
547,43,1,13,4,36,44,716,['n'],1,right,['9'],5,77,[-0.01687087],8,44,hard,minus,dotcolour,beta,,,31,21,V,R,
548,44,2,13,4,36,44,851,['n'],1,right,['9'],5,73,[-0.05852335],55,44,hard,minus,dotcolour,beta,,,31,21,V,R,
549,45,3,13,4,36,44,1117,['c'],0,right,['0'],6,107,[0.02621534],17,44,hard,minus,dotcolour,beta,,,31,21,V,R,
550,46,4,13,4,44,36,650,['n'],0,left,['0'],6,86,[-0.05025456],42,44,hard,minus,dotcolour,beta,,,31,21,V,R,
551,47,5,13,4,33,47,801,['n'],1,right,['0'],6,131,[-0.12009571],96,47,medium,minus,dotcolour,beta,,,31,21,V,R,
552,48,6,13,4,33,47,650,['n'],1,right,['0'],6,133,[-0.06807597],65,47,medium,minus,dotcolour,beta,,,31,21,V,R,
553,49,7,13,4,47,33,785,['c'],1,left,['9'],5,91,[-0.0031359],3,47,medium,minus,dotcolour,beta,,,31,21,V,R,
554,50,8,13,4,53,27,617,['c'],1,left,['9'],5,104,[0.15769693],100,53,easy,minus,dotcolour,beta,,,31,21,V,R,
555,51,9,13,4,44,36,633,['c'],1,left,['9'],5,59,[0.08095516],87,44,hard,minus,dotcolour,beta,,,31,21,V,R,
556,52,10,13,4,53,27,566,['c'],1,left,['9'],5,83,[0.05585148],50,53,easy,minus,dotcolour,beta,,,31,21,V,R,
557,53,11,13,4,44,36,550,['n'],0,left,['9'],5,83,[-0.05030351],42,44,hard,minus,dotcolour,beta,,,31,21,V,R,
558,54,12,13,4,44,36,716,['c'],1,left,['9'],5,93,[0.07636758],77,44,hard,minus,dotcolour,beta,,,31,21,V,R,
559,55,13,13,4,47,33,1267,['n'],0,left,['9'],5,127,[-0.03353518],25,47,medium,minus,dotcolour,beta,,,31,21,V,R,
560,56,14,13,4,33,47,517,['c'],0,right,['9'],5,150,[0.10290468],90,47,medium,minus,dotcolour,beta,,,31,21,V,R,
561,57,15,13,4,33,47,634,['c'],0,right,['9'],5,112,[-0.0109614],3,47,medium,minus,dotcolour,beta,,,31,21,V,R,
562,58,16,13,4,33,47,584,['n'],1,right,['9'],5,166,[-0.06188391],57,47,medium,minus,dotcolour,beta,,,31,21,V,R,
563,59,17,13,4,53,27,634,['c'],1,left,['9'],5,112,[0.10142835],92,53,easy,minus,dotcolour,beta,,,31,21,V,R,
564,60,18,13,4,47,33,617,['c'],1,left,['9'],5,68,[0.09480726],94,47,medium,minus,dotcolour,beta,,,31,21,V,R,
565,61,19,13,4,27,53,567,['c'],0,right,['9'],5,155,[0.02855766],23,53,easy,minus,dotcolour,beta,,,31,21,V,R,
566,62,20,13,4,27,53,750,['n'],1,right,['9'],5,104,[-0.04186295],32,53,easy,minus,dotcolour,beta,,,31,21,V,R,
567,63,21,13,4,36,44,1317,['n'],1,right,['9'],5,81,[-0.10097196],95,44,hard,minus,dotcolour,beta,,,31,21,V,R,
568,64,22,13,4,27,53,751,['n'],1,right,['9'],5,66,[-0.10443904],97,53,easy,minus,dotcolour,beta,,,31,21,V,R,
569,65,23,13,4,44,36,900,['n'],0,left,['9'],5,108,[-0.06354816],61,44,hard,minus,dotcolour,beta,,,31,21,V,R,
570,66,24,13,4,53,27,1000,['n'],0,left,['9'],5,65,[-0.07211239],76,53,easy,minus,dotcolour,beta,,,31,21,V,R,
571,67,25,13,4,36,44,650,['n'],1,right,['9'],5,69,[-0.05808452],54,44,hard,minus,dotcolour,beta,,,31,21,V,R,
572,68,26,13,4,27,53,484,['n'],1,right,['9'],5,73,[-0.0850307],88,53,easy,minus,dotcolour,beta,,,31,21,V,R,
573,69,27,13,4,27,53,1183,['n'],1,right,['9'],5,41,[-0.09229853],96,53,easy,minus,dotcolour,beta,,,31,21,V,R,
574,70,28,13,4,27,53,533,['n'],1,right,['9'],5,43,[-0.06394644],67,53,easy,minus,dotcolour,beta,,,31,21,V,R,
575,71,29,13,4,53,27,801,['c'],1,left,['9'],5,50,[0.08674344],92,53,easy,minus,dotcolour,beta,,,31,21,V,R,
576,72,30,13,4,47,33,701,['n'],0,left,['9'],5,69,[-0.14172829],100,47,medium,minus,dotcolour,beta,,,31,21,V,R,
577,73,31,13,4,53,27,783,['c'],1,left,['9'],5,93,[0.0218666],12,53,easy,minus,dotcolour,beta,,,31,21,V,R,
578,74,32,13,4,53,27,784,['c'],1,left,['0'],6,107,[0.0296555],19,53,easy,minus,dotcolour,beta,,,31,21,V,R,
579,75,33,13,4,44,36,583,['c'],1,left,['0'],6,96,[0.13857143],99,44,hard,minus,dotcolour,beta,,,31,21,V,R,
580,76,34,13,4,36,44,601,['n'],1,right,['0'],6,94,[-0.12583716],98,44,hard,minus,dotcolour,beta,,,31,21,V,R,
581,77,35,13,4,33,47,516,['n'],1,right,['0'],6,110,[-0.05406694],48,47,medium,minus,dotcolour,beta,,,31,21,V,R,
582,78,36,13,4,27,53,1067,['n'],1,right,['9'],5,113,[-0.0847744],83,53,easy,minus,dotcolour,beta,,,31,21,V,R,
583,79,37,13,4,36,44,684,['n'],1,right,['9'],5,58,[-0.05057759],41,44,hard,minus,dotcolour,beta,,,31,21,V,R,
584,80,38,13,4,47,33,1250,['n'],0,left,['9'],5,78,[-0.05115225],43,47,medium,minus,dotcolour,beta,,,31,21,V,R,
585,81,39,13,4,47,33,584,['c'],1,left,['0'],6,189,[0.15889817],99,47,medium,minus,dotcolour,beta,,,31,21,V,R,
586,82,40,13,4,44,36,750,['n'],0,left,['0'],6,105,[-0.09815294],91,44,hard,minus,dotcolour,beta,,,31,21,V,R,
587,83,41,13,4,47,33,584,['n'],0,left,['0'],6,159,[-0.07198189],68,47,medium,minus,dotcolour,beta,,,31,21,V,R,
588,84,0,14,4,27,53,1234,['n'],1,right,['0'],6,107,[-0.03723464],27,53,easy,minus,dotcolour,beta,,,31,21,V,R,
589,85,1,14,4,53,27,1300,['c'],1,left,['9'],5,132,[0.09032003],85,53,easy,minus,dotcolour,beta,,,31,21,V,R,
590,86,2,14,4,27,53,500,['n'],1,right,['0'],6,132,[-0.11477101],95,53,easy,minus,dotcolour,beta,,,31,21,V,R,
591,87,3,14,4,36,44,483,['n'],1,right,['0'],6,116,[-0.09482737],89,44,hard,minus,dotcolour,beta,,,31,21,V,R,
592,88,4,14,4,27,53,650,['n'],1,right,['0'],6,87,[-0.0878766],88,53,easy,minus,dotcolour,beta,,,31,21,V,R,
593,89,5,14,4,53,27,516,['c'],1,left,['9'],5,88,[0.11910853],98,53,easy,minus,dotcolour,beta,,,31,21,V,R,
594,90,6,14,4,53,27,584,['c'],1,left,['9'],5,95,[0.10571713],95,53,easy,minus,dotcolour,beta,,,31,21,V,R,
595,91,7,14,4,33,47,584,['n'],1,right,['9'],5,77,[-0.11099789],97,47,medium,minus,dotcolour,beta,,,31,21,V,R,
596,92,8,14,4,33,47,1317,['c'],0,right,['9'],5,87,[0.09727199],93,47,medium,minus,dotcolour,beta,,,31,21,V,R,
597,93,9,14,4,36,44,567,['n'],1,right,['9'],5,110,[-0.10663854],94,44,hard,minus,dotcolour,beta,,,31,21,V,R,
598,94,10,14,4,47,33,718,['c'],1,left,['9'],5,78,[0.11564864],98,47,medium,minus,dotcolour,beta,,,31,21,V,R,
599,95,11,14,4,33,47,517,['n'],1,right,['9'],5,56,[-0.06656696],70,47,medium,minus,dotcolour,beta,,,31,21,V,R,
600,96,12,14,4,44,36,667,['n'],0,left,['9'],5,4,[-0.07383047],99,44,hard,minus,dotcolour,beta,,,31,21,V,R,
601,97,13,14,4,44,36,700,['c'],1,left,['9'],5,57,[0.07434452],80,44,hard,minus,dotcolour,beta,,,31,21,V,R,
602,98,14,14,4,27,53,683,['n'],1,right,['9'],5,13,[-0.08313173],99,53,easy,minus,dotcolour,beta,,,31,21,V,R,
603,99,15,14,4,47,33,1049,['n'],0,left,['9'],5,91,[-0.06097145],58,47,medium,minus,dotcolour,beta,,,31,21,V,R,
604,100,16,14,4,36,44,1400,['n'],1,right,['9'],5,57,[-0.07066136],76,44,hard,minus,dotcolour,beta,,,31,21,V,R,
605,101,17,14,4,33,47,533,['n'],1,right,['9'],5,67,[-0.07809591],83,47,medium,minus,dotcolour,beta,,,31,21,V,R,
606,102,18,14,4,47,33,566,['c'],1,left,['9'],5,67,[0.07081284],74,47,medium,minus,dotcolour,beta,,,31,21,V,R,
607,103,19,14,4,53,27,484,['n'],0,left,['9'],5,71,[-0.07577845],80,53,easy,minus,dotcolour,beta,,,31,21,V,R,
608,104,20,14,4,27,53,567,['n'],1,right,['9'],5,46,[-0.07602123],85,53,easy,minus,dotcolour,beta,,,31,21,V,R,
609,105,21,14,4,53,27,667,['c'],1,left,['9'],5,67,[0.08399015],88,53,easy,minus,dotcolour,beta,,,31,21,V,R,
610,106,22,14,4,36,44,500,['n'],1,right,['9'],5,45,[-0.07889594],88,44,hard,minus,dotcolour,beta,,,31,21,V,R,
611,107,23,14,4,36,44,951,['c'],0,right,['9'],5,55,[0.08780951],92,44,hard,minus,dotcolour,beta,,,31,21,V,R,
612,108,24,14,4,53,27,1001,['c'],1,left,['9'],5,62,[0.10075437],96,53,easy,minus,dotcolour,beta,,,31,21,V,R,
613,109,25,14,4,53,27,600,['c'],1,left,['9'],5,93,[0.0906505],89,53,easy,minus,dotcolour,beta,,,31,21,V,R,
614,110,26,14,4,44,36,584,['n'],0,left,['9'],5,35,[-0.0923126],97,44,hard,minus,dotcolour,beta,,,31,21,V,R,
615,111,27,14,4,36,44,633,['n'],1,right,['9'],5,34,[-0.0655078],73,44,hard,minus,dotcolour,beta,,,31,21,V,R,
616,112,28,14,4,47,33,1068,['n'],0,left,['9'],5,55,[-0.05290067],45,47,medium,minus,dotcolour,beta,,,31,21,V,R,
617,113,29,14,4,47,33,550,['c'],1,left,['9'],5,72,[0.13010921],99,47,medium,minus,dotcolour,beta,,,31,21,V,R,
618,114,30,14,4,44,36,766,['n'],0,left,['9'],5,88,[-0.10653484],96,44,hard,minus,dotcolour,beta,,,31,21,V,R,
619,115,31,14,4,33,47,884,['c'],0,right,['9'],5,43,[0.08078006],90,47,medium,minus,dotcolour,beta,,,31,21,V,R,
620,116,32,14,4,44,36,900,['n'],0,left,['9'],5,47,[-0.07037888],77,44,hard,minus,dotcolour,beta,,,31,21,V,R,
621,117,33,14,4,33,47,500,['n'],1,right,['9'],5,82,[-0.06903083],70,47,medium,minus,dotcolour,beta,,,31,21,V,R,
622,118,34,14,4,27,53,500,['n'],1,right,['9'],5,52,[-0.06780211],72,53,easy,minus,dotcolour,beta,,,31,21,V,R,
623,119,35,14,4,47,33,633,['c'],1,left,['9'],5,58,[0.06980932],74,47,medium,minus,dotcolour,beta,,,31,21,V,R,
624,120,36,14,4,36,44,533,['n'],1,right,['9'],5,75,[-0.10568547],96,44,hard,minus,dotcolour,beta,,,31,21,V,R,
625,121,37,14,4,44,36,518,['n'],0,left,['9'],5,52,[-0.0785999],86,44,hard,minus,dotcolour,beta,,,31,21,V,R,
626,122,38,14,4,47,33,517,['n'],0,left,['9'],5,71,[-0.06828713],70,47,medium,minus,dotcolour,beta,,,31,21,V,R,
627,123,39,14,4,27,53,417,['n'],1,right,['9'],5,37,[-0.09104815],97,53,easy,minus,dotcolour,beta,,,31,21,V,R,
628,124,40,14,4,33,47,634,['c'],0,right,['9'],5,84,[0.05124098],43,47,medium,minus,dotcolour,beta,,,31,21,V,R,
629,125,41,14,4,44,36,883,['n'],0,left,['9'],5,63,[-0.06312003],63,44,hard,minus,dotcolour,beta,,,31,21,V,R,
630,0,0,15,5,44,36,984,['c'],1,left,['9'],5,118,[0.09241548],100,44,hard,plus,dotcolour,beta,,,31,21,V,R,
631,1,1,15,5,33,47,532,['n'],1,right,['9'],5,109,[-0.07518294],100,47,medium,plus,dotcolour,beta,,,31,21,V,R,
632,2,2,15,5,27,53,550,['n'],1,right,['9'],5,131,[-0.11640101],100,53,easy,plus,dotcolour,beta,,,31,21,V,R,
633,3,3,15,5,44,36,1000,['n'],0,left,['9'],5,143,[-0.08608652],100,44,hard,plus,dotcolour,beta,,,31,21,V,R,
634,4,4,15,5,53,27,583,['c'],1,left,['9'],5,83,[0.09250244],100,53,easy,plus,dotcolour,beta,,,31,21,V,R,
635,5,5,15,5,53,27,733,['c'],1,left,['9'],5,85,[0.07575352],100,53,easy,plus,dotcolour,beta,,,31,21,V,R,
636,6,6,15,5,44,36,1017,['c'],1,left,['9'],5,113,[0.07880612],100,44,hard,plus,dotcolour,beta,,,31,21,V,R,
637,7,7,15,5,47,33,884,['c'],1,left,['9'],5,35,[0.08563688],100,47,medium,plus,dotcolour,beta,,,31,21,V,R,
638,8,8,15,5,53,27,551,['c'],1,left,['9'],5,93,[0.04272194],100,53,easy,plus,dotcolour,beta,,,31,21,V,R,
639,9,9,15,5,27,53,634,['n'],1,right,['9'],5,89,[-0.06525502],100,53,easy,plus,dotcolour,beta,,,31,21,V,R,
640,10,10,15,5,44,36,800,['n'],0,left,['9'],5,111,[-0.09664398],100,44,hard,plus,dotcolour,beta,,,31,21,V,R,
641,11,11,15,5,36,44,950,['n'],1,right,['9'],5,117,[-0.10740135],100,44,hard,plus,dotcolour,beta,,,31,21,V,R,
642,12,12,15,5,36,44,667,['n'],1,right,['9'],5,71,[-0.07277693],100,44,hard,plus,dotcolour,beta,,,31,21,V,R,
643,13,13,15,5,53,27,650,['c'],1,left,['9'],5,76,[0.10103071],100,53,easy,plus,dotcolour,beta,,,31,21,V,R,
644,14,14,15,5,27,53,501,['n'],1,right,['9'],5,110,[-0.11806819],100,53,easy,plus,dotcolour,beta,,,31,21,V,R,
645,15,15,15,5,47,33,584,['c'],1,left,['9'],5,68,[0.09073387],100,47,medium,plus,dotcolour,beta,,,31,21,V,R,
646,16,16,15,5,44,36,600,['n'],0,left,['9'],5,106,[-0.03034635],99,44,hard,plus,dotcolour,beta,,,31,21,V,R,
647,17,17,15,5,33,47,817,['n'],1,right,['9'],5,47,[-0.08991025],100,47,medium,plus,dotcolour,beta,,,31,21,V,R,
648,18,18,15,5,47,33,567,['c'],1,left,['9'],5,47,[0.06520073],100,47,medium,plus,dotcolour,beta,,,31,21,V,R,
649,19,19,15,5,36,44,1083,['c'],0,right,['9'],5,99,[0.02621944],99,44,hard,plus,dotcolour,beta,,,31,21,V,R,
650,20,20,15,5,27,53,533,['n'],1,right,['9'],5,115,[-0.12745349],100,53,easy,plus,dotcolour,beta,,,31,21,V,R,
651,21,21,15,5,33,47,568,['n'],1,right,['9'],5,122,[-0.06406099],100,47,medium,plus,dotcolour,beta,,,31,21,V,R,
652,22,22,15,5,36,44,617,['n'],1,right,['9'],5,78,[-0.01271391],99,44,hard,plus,dotcolour,beta,,,31,21,V,R,
653,23,23,15,5,27,53,500,['n'],1,right,['9'],5,32,[-0.09956174],100,53,easy,plus,dotcolour,beta,,,31,21,V,R,
654,24,24,15,5,53,27,500,['c'],1,left,['9'],5,67,[0.04969429],100,53,easy,plus,dotcolour,beta,,,31,21,V,R,
655,25,25,15,5,44,36,567,['n'],0,left,['9'],5,36,[-0.05106078],100,44,hard,plus,dotcolour,beta,,,31,21,V,R,
656,26,26,15,5,36,44,467,['n'],1,right,['9'],5,49,[-0.11701579],100,44,hard,plus,dotcolour,beta,,,31,21,V,R,
657,27,27,15,5,33,47,750,['n'],1,right,['9'],5,34,[-0.06696267],100,47,medium,plus,dotcolour,beta,,,31,21,V,R,
658,28,28,15,5,47,33,717,['c'],1,left,['9'],5,30,[0.10334181],100,47,medium,plus,dotcolour,beta,,,31,21,V,R,
659,29,29,15,5,27,53,434,['n'],1,right,['9'],5,20,[-0.06237278],100,53,easy,plus,dotcolour,beta,,,31,21,V,R,
660,30,30,15,5,36,44,501,['n'],1,right,['9'],5,33,[-0.05844624],100,44,hard,plus,dotcolour,beta,,,31,21,V,R,
661,31,31,15,5,53,27,633,['c'],1,left,['9'],5,88,[0.05036316],100,53,easy,plus,dotcolour,beta,,,31,21,V,R,
662,32,32,15,5,27,53,716,['n'],1,right,['9'],5,49,[-0.08888192],100,53,easy,plus,dotcolour,beta,,,31,21,V,R,
663,33,33,15,5,33,47,500,['n'],1,right,['9'],5,61,[-0.09469571],100,47,medium,plus,dotcolour,beta,,,31,21,V,R,
664,34,34,15,5,47,33,484,['c'],1,left,['9'],5,32,[0.08724942],100,47,medium,plus,dotcolour,beta,,,31,21,V,R,
665,35,35,15,5,36,44,633,['n'],1,right,['9'],5,951,[-0.1870419],99,44,hard,plus,dotcolour,beta,,,31,21,V,R,
666,36,36,15,5,33,47,783,['c'],0,right,['9'],5,98,[0.0275426],99,47,medium,plus,dotcolour,beta,,,31,21,V,R,
667,37,37,15,5,53,27,884,['c'],1,left,['9'],5,116,[0.09391097],100,53,easy,plus,dotcolour,beta,,,31,21,V,R,
668,38,38,15,5,44,36,702,['n'],0,left,['9'],5,69,[-0.0579991],100,44,hard,plus,dotcolour,beta,,,31,21,V,R,
669,39,39,15,5,33,47,583,['n'],1,right,['9'],5,52,[-0.08644021],100,47,medium,plus,dotcolour,beta,,,31,21,V,R,
670,40,40,15,5,47,33,734,['n'],0,left,['9'],5,6,[-0.06925071],100,47,medium,plus,dotcolour,beta,,,31,21,V,R,
671,41,41,15,5,47,33,634,['c'],1,left,['9'],5,94,[0.10887633],100,47,medium,plus,dotcolour,beta,,,31,21,V,R,
672,42,0,16,5,36,44,768,['n'],1,right,['9'],5,18,[-0.07401344],100,44,hard,plus,dotcolour,beta,,,31,21,V,R,
673,43,1,16,5,27,53,516,['n'],1,right,['9'],5,30,[-0.09914197],100,53,easy,plus,dotcolour,beta,,,31,21,V,R,
674,44,2,16,5,44,36,600,['c'],1,left,['9'],5,70,[-0.00028343],98,44,hard,plus,dotcolour,beta,,,31,21,V,R,
675,45,3,16,5,27,53,550,['n'],1,right,['9'],5,23,[-0.0765648],100,53,easy,plus,dotcolour,beta,,,31,21,V,R,
676,46,4,16,5,36,44,484,['n'],1,right,['9'],5,60,[-0.05008932],100,44,hard,plus,dotcolour,beta,,,31,21,V,R,
677,47,5,16,5,27,53,566,['n'],1,right,['9'],5,36,[-0.07472996],100,53,easy,plus,dotcolour,beta,,,31,21,V,R,
678,48,6,16,5,36,44,550,['n'],1,right,['9'],5,71,[-0.11606995],100,44,hard,plus,dotcolour,beta,,,31,21,V,R,
679,49,7,16,5,44,36,517,['n'],0,left,['9'],5,40,[-0.06722269],100,44,hard,plus,dotcolour,beta,,,31,21,V,R,
680,50,8,16,5,47,33,767,['n'],0,left,['9'],5,10,[-0.08273148],100,47,medium,plus,dotcolour,beta,,,31,21,V,R,
681,51,9,16,5,36,44,500,['n'],1,right,['9'],5,38,[-0.09953942],100,44,hard,plus,dotcolour,beta,,,31,21,V,R,
682,52,10,16,5,47,33,685,['n'],0,left,['9'],5,27,[-0.06176206],100,47,medium,plus,dotcolour,beta,,,31,21,V,R,
683,53,11,16,5,47,33,484,['c'],1,left,['9'],5,80,[0.08764128],100,47,medium,plus,dotcolour,beta,,,31,21,V,R,
684,54,12,16,5,44,36,517,['n'],0,left,['9'],5,9,[-0.07759549],100,44,hard,plus,dotcolour,beta,,,31,21,V,R,
685,55,13,16,5,53,27,533,['n'],0,left,['9'],5,20,[-0.05976273],100,53,easy,plus,dotcolour,beta,,,31,21,V,R,
686,56,14,16,5,27,53,550,['n'],1,right,['9'],5,23,[-0.05029276],100,53,easy,plus,dotcolour,beta,,,31,21,V,R,
687,57,15,16,5,33,47,567,['n'],1,right,['9'],5,793,[-0.18605461],99,47,medium,plus,dotcolour,beta,,,31,21,V,R,
688,58,16,16,5,33,47,650,['n'],1,right,['9'],5,664,[-0.17340777],99,47,medium,plus,dotcolour,beta,,,31,21,V,R,
689,59,17,16,5,44,36,634,['n'],0,left,['9'],5,61,[-0.08948486],100,44,hard,plus,dotcolour,beta,,,31,21,V,R,
690,60,18,16,5,44,36,550,['n'],0,left,['9'],5,86,[-0.07782993],100,44,hard,plus,dotcolour,beta,,,31,21,V,R,
691,61,19,16,5,44,36,534,['n'],0,left,['9'],5,88,[-0.07595469],100,44,hard,plus,dotcolour,beta,,,31,21,V,R,
692,62,20,16,5,47,33,1849,['n'],0,left,['9'],5,131,[-0.11359046],100,47,medium,plus,dotcolour,beta,,,31,21,V,R,
693,63,21,16,5,33,47,500,['n'],1,right,['9'],5,115,[-0.10566142],100,47,medium,plus,dotcolour,beta,,,31,21,V,R,
694,64,22,16,5,33,47,484,['n'],1,right,['9'],5,101,[-0.0951652],100,47,medium,plus,dotcolour,beta,,,31,21,V,R,
695,65,23,16,5,47,33,484,['c'],1,left,['9'],5,103,[0.04770329],100,47,medium,plus,dotcolour,beta,,,31,21,V,R,
696,66,24,16,5,53,27,483,['c'],1,left,['9'],5,56,[0.06984177],100,53,easy,plus,dotcolour,beta,,,31,21,V,R,
697,67,25,16,5,27,53,567,['n'],1,right,['9'],5,97,[-0.08872276],100,53,easy,plus,dotcolour,beta,,,31,21,V,R,
698,68,26,16,5,27,53,500,['n'],1,right,['9'],5,75,[-0.12180222],100,53,easy,plus,dotcolour,beta,,,31,21,V,R,
699,69,27,16,5,33,47,516,['n'],1,right,['9'],5,52,[-0.09144248],100,47,medium,plus,dotcolour,beta,,,31,21,V,R,
700,70,28,16,5,44,36,967,['c'],1,left,['9'],5,189,[0.0662297],99,44,hard,plus,dotcolour,beta,,,31,21,V,R,
701,71,29,16,5,53,27,550,['c'],1,left,['9'],5,81,[0.05796446],100,53,easy,plus,dotcolour,beta,,,31,21,V,R,
702,72,30,16,5,53,27,900,['n'],0,left,['9'],5,82,[-0.08186315],100,53,easy,plus,dotcolour,beta,,,31,21,V,R,
703,73,31,16,5,27,53,484,['n'],1,right,['9'],5,85,[-0.04794906],100,53,easy,plus,dotcolour,beta,,,31,21,V,R,
704,74,32,16,5,36,44,867,['n'],1,right,['9'],5,73,[-0.06160352],100,44,hard,plus,dotcolour,beta,,,31,21,V,R,
705,75,33,16,5,47,33,617,['c'],1,left,['9'],5,95,[0.11157069],100,47,medium,plus,dotcolour,beta,,,31,21,V,R,
706,76,34,16,5,33,47,567,['n'],1,right,['9'],5,101,[-0.10392374],100,47,medium,plus,dotcolour,beta,,,31,21,V,R,
707,77,35,16,5,33,47,517,['n'],1,right,['9'],5,62,[-0.070736],100,47,medium,plus,dotcolour,beta,,,31,21,V,R,
708,78,36,16,5,47,33,751,['n'],0,left,['9'],5,55,[-0.03709719],100,47,medium,plus,dotcolour,beta,,,31,21,V,R,
709,79,37,16,5,36,44,634,['n'],1,right,['9'],5,53,[-0.09398261],100,44,hard,plus,dotcolour,beta,,,31,21,V,R,
710,80,38,16,5,53,27,550,['c'],1,left,['9'],5,127,[0.08370794],100,53,easy,plus,dotcolour,beta,,,31,21,V,R,
711,81,39,16,5,53,27,567,['c'],1,left,['9'],5,123,[0.07300071],100,53,easy,plus,dotcolour,beta,,,31,21,V,R,
712,82,40,16,5,53,27,483,['c'],1,left,['9'],5,100,[0.12496967],100,53,easy,plus,dotcolour,beta,,,31,21,V,R,
713,83,41,16,5,36,44,634,['n'],1,right,['9'],5,80,[-0.12962457],100,44,hard,plus,dotcolour,beta,,,31,21,V,R,
714,84,0,17,5,27,53,684,['n'],1,right,['9'],5,21,[-0.06878188],100,53,easy,plus,dotcolour,beta,,,31,21,V,R,
715,85,1,17,5,36,44,550,['n'],1,right,['9'],5,71,[-0.09215099],100,44,hard,plus,dotcolour,beta,,,31,21,V,R,
716,86,2,17,5,33,47,450,['n'],1,right,['9'],5,60,[-0.06916821],100,47,medium,plus,dotcolour,beta,,,31,21,V,R,
717,87,3,17,5,36,44,417,['n'],1,right,['9'],5,83,[-0.07789763],100,44,hard,plus,dotcolour,beta,,,31,21,V,R,
718,88,4,17,5,47,33,483,['c'],1,left,['9'],5,93,[0.10306674],100,47,medium,plus,dotcolour,beta,,,31,21,V,R,
719,89,5,17,5,44,36,850,['c'],1,left,['9'],5,96,[0.05918545],100,44,hard,plus,dotcolour,beta,,,31,21,V,R,
720,90,6,17,5,47,33,533,['c'],1,left,['9'],5,65,[0.08804209],100,47,medium,plus,dotcolour,beta,,,31,21,V,R,
721,91,7,17,5,53,27,517,['c'],1,left,['9'],5,106,[0.03587305],99,53,easy,plus,dotcolour,beta,,,31,21,V,R,
722,92,8,17,5,53,27,417,['c'],1,left,['9'],5,72,[0.10057979],100,53,easy,plus,dotcolour,beta,,,31,21,V,R,
723,93,9,17,5,27,53,501,['n'],1,right,['9'],5,42,[-0.05829748],100,53,easy,plus,dotcolour,beta,,,31,21,V,R,
724,94,10,17,5,27,53,618,['n'],1,right,['9'],5,40,[-0.09582453],100,53,easy,plus,dotcolour,beta,,,31,21,V,R,
725,95,11,17,5,44,36,467,['n'],0,left,['9'],5,77,[-0.05226969],100,44,hard,plus,dotcolour,beta,,,31,21,V,R,
726,96,12,17,5,53,27,500,['c'],1,left,['9'],5,88,[0.04976816],100,53,easy,plus,dotcolour,beta,,,31,21,V,R,
727,97,13,17,5,47,33,566,['n'],0,left,['9'],5,7,[-0.06781985],100,47,medium,plus,dotcolour,beta,,,31,21,V,R,
728,98,14,17,5,44,36,450,['n'],0,left,['9'],5,30,[-0.07859119],100,44,hard,plus,dotcolour,beta,,,31,21,V,R,
729,99,15,17,5,44,36,534,['n'],0,left,['9'],5,24,[-0.08799079],100,44,hard,plus,dotcolour,beta,,,31,21,V,R,
730,100,16,17,5,33,47,616,['n'],1,right,['9'],5,16,[-0.06866429],100,47,medium,plus,dotcolour,beta,,,31,21,V,R,
731,101,17,17,5,47,33,484,['c'],1,left,['9'],5,86,[0.14555027],100,47,medium,plus,dotcolour,beta,,,31,21,V,R,
732,102,18,17,5,36,44,483,['n'],1,right,['9'],5,16,[-0.04757838],100,44,hard,plus,dotcolour,beta,,,31,21,V,R,
733,103,19,17,5,53,27,616,['c'],1,left,['9'],5,64,[0.11608822],100,53,easy,plus,dotcolour,beta,,,31,21,V,R,
734,104,20,17,5,53,27,517,['c'],1,left,['9'],5,90,[0.02645134],99,53,easy,plus,dotcolour,beta,,,31,21,V,R,
735,105,21,17,5,36,44,483,['n'],1,right,['9'],5,12,[-0.06307029],100,44,hard,plus,dotcolour,beta,,,31,21,V,R,
736,106,22,17,5,33,47,483,['n'],1,right,['9'],5,17,[-0.07064884],100,47,medium,plus,dotcolour,beta,,,31,21,V,R,
737,107,23,17,5,27,53,884,['n'],1,right,['9'],5,6,[-0.08794534],100,53,easy,plus,dotcolour,beta,,,31,21,V,R,
738,108,24,17,5,33,47,400,['n'],1,right,['9'],5,39,[-0.10280164],100,47,medium,plus,dotcolour,beta,,,31,21,V,R,
739,109,25,17,5,53,27,633,['c'],1,left,['9'],5,94,[0.03305039],99,53,easy,plus,dotcolour,beta,,,31,21,V,R,
740,110,26,17,5,36,44,517,['n'],1,right,['9'],5,55,[-0.06166194],100,44,hard,plus,dotcolour,beta,,,31,21,V,R,
741,111,27,17,5,44,36,617,['c'],1,left,['9'],5,61,[0.0820878],100,44,hard,plus,dotcolour,beta,,,31,21,V,R,
742,112,28,17,5,47,33,567,['c'],1,left,['9'],5,69,[0.12444509],100,47,medium,plus,dotcolour,beta,,,31,21,V,R,
743,113,29,17,5,47,33,550,['c'],1,left,['9'],5,62,[0.10054519],100,47,medium,plus,dotcolour,beta,,,31,21,V,R,
744,114,30,17,5,27,53,434,['n'],1,right,['9'],5,3,[-0.06997056],100,53,easy,plus,dotcolour,beta,,,31,21,V,R,
745,115,31,17,5,27,53,783,['n'],1,right,['9'],5,14,[-0.07882155],100,53,easy,plus,dotcolour,beta,,,31,21,V,R,
746,116,32,17,5,36,44,616,['n'],1,right,['9'],5,30,[-0.05895875],100,44,hard,plus,dotcolour,beta,,,31,21,V,R,
747,117,33,17,5,53,27,566,['c'],1,left,['9'],5,71,[0.09401072],100,53,easy,plus,dotcolour,beta,,,31,21,V,R,
748,118,34,17,5,33,47,634,['n'],1,right,['9'],5,37,[-0.0686404],100,47,medium,plus,dotcolour,beta,,,31,21,V,R,
749,119,35,17,5,27,53,718,['n'],1,right,['9'],5,64,[-0.04826164],100,53,easy,plus,dotcolour,beta,,,31,21,V,R,
750,120,36,17,5,33,47,584,['n'],1,right,['9'],5,63,[-0.11588217],100,47,medium,plus,dotcolour,beta,,,31,21,V,R,
751,121,37,17,5,33,47,501,['n'],1,right,['9'],5,41,[-0.05288354],100,47,medium,plus,dotcolour,beta,,,31,21,V,R,
752,122,38,17,5,36,44,667,['n'],1,right,['9'],5,29,[-0.0697337],100,44,hard,plus,dotcolour,beta,,,31,21,V,R,
753,123,39,17,5,47,33,484,['c'],1,left,['9'],5,83,[0.07968643],100,47,medium,plus,dotcolour,beta,,,31,21,V,R,
754,124,40,17,5,44,36,650,['n'],0,left,['9'],5,31,[-0.07147521],100,44,hard,plus,dotcolour,beta,,,31,21,V,R,
755,125,41,17,5,44,36,449,['n'],0,left,['9'],5,53,[-0.08066286],100,44,hard,plus,dotcolour,beta,,,31,21,V,R,
,,,,,,,,,,,,,,,,,,,,,1,sommige foute antwoorden geven als uitkomst  juist,31,21,V,R,
,,,,,,,,,,,,,,,,,,,,,2,['d'],31,21,V,R,
,,,,,,,,,,,,,,,,,,,,,3,['d'],31,21,V,R,
,,,,,,,,,,,,,,,,,,,,,5,[],31,21,V,R,
