trial,withinphasetrial,withinblocktrial,block,phase,dotsLeft,dotsRight,rt,resp,cor,cresp,conf_press,cj,RTconf,ev,fb,diff,difflevel,condition,task,manip,questionID,questionResp,sub,age,gender,handedness,
0,0,0,0,0,36,44,2100,['c'],0,right,['8'],3,2613,[-0.26996539],0,44,hard,plus,dotcolour,alfa,,,80,18,V,R,
1,1,1,0,0,33,47,1015,['n'],1,right,['3'],4,564,[-0.12037309],100,47,medium,plus,dotcolour,alfa,,,80,18,V,R,
2,2,2,0,0,47,33,1800,['c'],1,left,['3'],4,759,[0.0578376],92,47,medium,plus,dotcolour,alfa,,,80,18,V,R,
3,3,3,0,0,53,27,1032,['c'],1,left,['2'],5,457,[0.13162673],100,53,easy,plus,dotcolour,alfa,,,80,18,V,R,
4,4,4,0,0,47,33,1132,['c'],1,left,['2'],5,657,[0.23574342],100,47,medium,plus,dotcolour,alfa,,,80,18,V,R,
5,5,5,0,0,36,44,798,['n'],1,right,['8'],3,584,[-0.10238985],99,44,hard,plus,dotcolour,alfa,,,80,18,V,R,
6,6,6,0,0,53,27,1032,['c'],1,left,['2'],5,337,[0.08156116],99,53,easy,plus,dotcolour,alfa,,,80,18,V,R,
7,7,7,0,0,44,36,1165,['c'],1,left,['3'],4,726,[0.20429033],100,44,hard,plus,dotcolour,alfa,,,80,18,V,R,
8,8,8,0,0,47,33,784,['c'],1,left,['3'],4,403,[0.09365958],100,47,medium,plus,dotcolour,alfa,,,80,18,V,R,
9,9,9,0,0,33,47,699,['n'],1,right,['8'],3,263,[-0.12032835],100,47,medium,plus,dotcolour,alfa,,,80,18,V,R,
10,10,10,0,0,27,53,783,['n'],1,right,['3'],4,511,[-0.22716614],100,53,easy,plus,dotcolour,alfa,,,80,18,V,R,
11,11,11,0,0,44,36,750,['c'],1,left,['2'],5,269,[0.15167997],100,44,hard,plus,dotcolour,alfa,,,80,18,V,R,
12,12,12,0,0,36,44,1216,['c'],0,right,['3'],4,939,[0.10138659],98,44,hard,plus,dotcolour,alfa,,,80,18,V,R,
13,13,13,0,0,33,47,682,['n'],1,right,['8'],3,227,[-0.15859779],100,47,medium,plus,dotcolour,alfa,,,80,18,V,R,
14,14,14,0,0,27,53,914,['n'],1,right,['3'],4,350,[-0.0285647],85,53,easy,plus,dotcolour,alfa,,,80,18,V,R,
15,15,15,0,0,27,53,1099,['n'],1,right,['3'],4,358,[-0.13079174],100,53,easy,plus,dotcolour,alfa,,,80,18,V,R,
16,16,16,0,0,33,47,664,['n'],1,right,['8'],3,253,[-0.04683209],97,47,medium,plus,dotcolour,alfa,,,80,18,V,R,
17,17,17,0,0,27,53,714,['n'],1,right,['2'],5,288,[-0.16203518],100,53,easy,plus,dotcolour,alfa,,,80,18,V,R,
18,18,18,0,0,36,44,1447,['c'],0,right,['2'],5,259,[0.07320672],99,44,hard,plus,dotcolour,alfa,,,80,18,V,R,
19,19,19,0,0,27,53,716,['n'],1,right,['3'],4,301,[0.00707634],39,53,easy,plus,dotcolour,alfa,,,80,18,V,R,
20,20,20,0,0,53,27,932,['c'],1,left,['3'],4,309,[0.10074353],100,53,easy,plus,dotcolour,alfa,,,80,18,V,R,
21,21,21,0,0,27,53,682,['n'],1,right,['2'],5,198,[-0.16455819],100,53,easy,plus,dotcolour,alfa,,,80,18,V,R,
22,22,22,0,0,36,44,882,['n'],1,right,['2'],5,245,[-0.13839321],100,44,hard,plus,dotcolour,alfa,,,80,18,V,R,
23,23,23,0,0,47,33,797,['c'],1,left,['3'],4,316,[0.08653757],100,47,medium,plus,dotcolour,alfa,,,80,18,V,R,
24,24,24,0,0,53,27,749,['c'],1,left,['3'],4,522,[0.08932121],99,53,easy,plus,dotcolour,alfa,,,80,18,V,R,
25,25,25,0,0,36,44,799,['c'],0,right,['2'],5,726,[-0.02224965],28,44,hard,plus,dotcolour,alfa,,,80,18,V,R,
26,26,26,0,0,53,27,1949,['n'],0,left,['8'],3,164,[-0.03764937],97,53,easy,plus,dotcolour,alfa,,,80,18,V,R,
27,27,27,0,0,44,36,1149,['c'],1,left,['3'],4,265,[0.09966024],100,44,hard,plus,dotcolour,alfa,,,80,18,V,R,
28,28,28,0,0,47,33,883,['c'],1,left,['2'],5,660,[-0.04987265],10,47,medium,plus,dotcolour,alfa,,,80,18,V,R,
29,29,29,0,0,33,47,1482,['n'],1,right,['8'],3,200,[-0.18521868],100,47,medium,plus,dotcolour,alfa,,,80,18,V,R,
30,30,30,0,0,44,36,1014,['c'],1,left,['3'],4,552,[0.11753151],100,44,hard,plus,dotcolour,alfa,,,80,18,V,R,
31,31,31,0,0,44,36,933,['c'],1,left,['3'],4,262,[0.06618057],99,44,hard,plus,dotcolour,alfa,,,80,18,V,R,
32,32,32,0,0,27,53,882,['n'],1,right,['8'],3,145,[-0.17114834],100,53,easy,plus,dotcolour,alfa,,,80,18,V,R,
33,33,33,0,0,33,47,832,['n'],1,right,['3'],4,203,[-0.04822651],98,47,medium,plus,dotcolour,alfa,,,80,18,V,R,
34,34,34,0,0,47,33,865,['c'],1,left,['2'],5,170,[0.15151081],100,47,medium,plus,dotcolour,alfa,,,80,18,V,R,
35,35,35,0,0,53,27,999,['c'],1,left,['2'],5,220,[0.05972312],99,53,easy,plus,dotcolour,alfa,,,80,18,V,R,
36,36,36,0,0,36,44,1365,['n'],1,right,['8'],3,246,[-0.06866574],99,44,hard,plus,dotcolour,alfa,,,80,18,V,R,
37,37,37,0,0,53,27,881,['c'],1,left,['2'],5,322,[0.18044252],100,53,easy,plus,dotcolour,alfa,,,80,18,V,R,
38,38,38,0,0,44,36,1065,['n'],0,left,['3'],4,284,[-0.08030835],100,44,hard,plus,dotcolour,alfa,,,80,18,V,R,
39,39,39,0,0,47,33,1233,['c'],1,left,['1'],6,200,[0.10269194],100,47,medium,plus,dotcolour,alfa,,,80,18,V,R,
40,40,40,0,0,33,47,964,['n'],1,right,['1'],6,219,[-0.16072927],100,47,medium,plus,dotcolour,alfa,,,80,18,V,R,
41,41,41,0,0,44,36,864,['n'],0,left,['2'],5,161,[-0.10044587],100,44,hard,plus,dotcolour,alfa,,,80,18,V,R,
42,42,0,1,0,44,36,1533,['c'],1,left,['3'],4,268,[0.05518805],98,44,hard,plus,dotcolour,alfa,,,80,18,V,R,
43,43,1,1,0,44,36,1098,['c'],1,left,['3'],4,198,[0.17447971],100,44,hard,plus,dotcolour,alfa,,,80,18,V,R,
44,44,2,1,0,44,36,682,['n'],0,left,['8'],3,148,[-0.08242958],100,44,hard,plus,dotcolour,alfa,,,80,18,V,R,
45,45,3,1,0,53,27,932,['c'],1,left,['3'],4,130,[0.03648908],97,53,easy,plus,dotcolour,alfa,,,80,18,V,R,
46,46,4,1,0,36,44,765,['n'],1,right,['2'],5,151,[-0.12648422],100,44,hard,plus,dotcolour,alfa,,,80,18,V,R,
47,47,5,1,0,36,44,965,['c'],0,right,['3'],4,180,[0.02006965],85,44,hard,plus,dotcolour,alfa,,,80,18,V,R,
48,48,6,1,0,47,33,1015,['c'],1,left,['3'],4,157,[0.11274652],100,47,medium,plus,dotcolour,alfa,,,80,18,V,R,
49,49,7,1,0,36,44,1016,['n'],1,right,['3'],4,143,[-0.13084991],100,44,hard,plus,dotcolour,alfa,,,80,18,V,R,
50,50,8,1,0,53,27,815,['c'],1,left,['3'],4,170,[0.0503452],99,53,easy,plus,dotcolour,alfa,,,80,18,V,R,
51,51,9,1,0,47,33,2113,['c'],1,left,['8'],3,143,[0.13210613],100,47,medium,plus,dotcolour,alfa,,,80,18,V,R,
52,52,10,1,0,53,27,1081,['c'],1,left,['2'],5,159,[0.1149451],100,53,easy,plus,dotcolour,alfa,,,80,18,V,R,
53,53,11,1,0,36,44,881,['n'],1,right,['2'],5,222,[-0.07258278],100,44,hard,plus,dotcolour,alfa,,,80,18,V,R,
54,54,12,1,0,27,53,750,['n'],1,right,['2'],5,144,[-0.16506619],100,53,easy,plus,dotcolour,alfa,,,80,18,V,R,
55,55,13,1,0,47,33,1133,['c'],1,left,['3'],4,214,[0.08696101],100,47,medium,plus,dotcolour,alfa,,,80,18,V,R,
56,56,14,1,0,27,53,813,['n'],1,right,['3'],4,166,[-0.04003541],97,53,easy,plus,dotcolour,alfa,,,80,18,V,R,
57,57,15,1,0,44,36,1065,['c'],1,left,['3'],4,182,[0.06360461],100,44,hard,plus,dotcolour,alfa,,,80,18,V,R,
58,58,16,1,0,33,47,899,['n'],1,right,['8'],3,116,[-0.11189397],100,47,medium,plus,dotcolour,alfa,,,80,18,V,R,
59,59,17,1,0,27,53,732,['n'],1,right,['8'],3,147,[-0.20758757],100,53,easy,plus,dotcolour,alfa,,,80,18,V,R,
60,60,18,1,0,47,33,882,['c'],1,left,['3'],4,1355,[0.23364292],100,47,medium,plus,dotcolour,alfa,,,80,18,V,R,
61,61,19,1,0,47,33,899,['n'],0,left,['3'],4,218,[-0.03893663],95,47,medium,plus,dotcolour,alfa,,,80,18,V,R,
62,62,20,1,0,36,44,897,['n'],1,right,['8'],3,286,[-0.20074612],100,44,hard,plus,dotcolour,alfa,,,80,18,V,R,
63,63,21,1,0,33,47,964,['n'],1,right,['2'],5,445,[-0.07091159],98,47,medium,plus,dotcolour,alfa,,,80,18,V,R,
64,64,22,1,0,53,27,1082,['c'],1,left,['2'],5,313,[0.10836269],100,53,easy,plus,dotcolour,alfa,,,80,18,V,R,
65,65,23,1,0,33,47,715,['n'],1,right,['8'],3,681,[-0.08306078],97,47,medium,plus,dotcolour,alfa,,,80,18,V,R,
66,66,24,1,0,33,47,998,['n'],1,right,['2'],5,231,[-0.08934377],100,47,medium,plus,dotcolour,alfa,,,80,18,V,R,
67,67,25,1,0,36,44,3833,['n'],1,right,['2'],5,157,[-0.08704012],100,44,hard,plus,dotcolour,alfa,,,80,18,V,R,
68,68,26,1,0,47,33,1048,['c'],1,left,['3'],4,126,[0.03701847],98,47,medium,plus,dotcolour,alfa,,,80,18,V,R,
69,69,27,1,0,47,33,1048,['c'],1,left,['2'],5,177,[0.0480442],98,47,medium,plus,dotcolour,alfa,,,80,18,V,R,
70,70,28,1,0,33,47,1349,['n'],1,right,['3'],4,132,[-0.03630729],97,47,medium,plus,dotcolour,alfa,,,80,18,V,R,
71,71,29,1,0,44,36,1298,['c'],1,left,['2'],5,196,[0.10340829],100,44,hard,plus,dotcolour,alfa,,,80,18,V,R,
72,72,30,1,0,36,44,866,['n'],1,right,['2'],5,115,[-0.05366293],100,44,hard,plus,dotcolour,alfa,,,80,18,V,R,
73,73,31,1,0,44,36,1265,['c'],1,left,['2'],5,189,[0.03706806],96,44,hard,plus,dotcolour,alfa,,,80,18,V,R,
74,74,32,1,0,44,36,899,['c'],1,left,['2'],5,162,[0.07683132],100,44,hard,plus,dotcolour,alfa,,,80,18,V,R,
75,75,33,1,0,27,53,965,['n'],1,right,['2'],5,174,[0.01030837],29,53,easy,plus,dotcolour,alfa,,,80,18,V,R,
76,76,34,1,0,53,27,1049,['c'],1,left,['2'],5,158,[0.07570864],100,53,easy,plus,dotcolour,alfa,,,80,18,V,R,
77,77,35,1,0,53,27,799,['c'],1,left,['2'],5,137,[0.10125319],100,53,easy,plus,dotcolour,alfa,,,80,18,V,R,
78,78,36,1,0,27,53,749,['n'],1,right,['2'],5,151,[-0.09393332],100,53,easy,plus,dotcolour,alfa,,,80,18,V,R,
79,79,37,1,0,27,53,598,['n'],1,right,['2'],5,130,[-0.08875551],100,53,easy,plus,dotcolour,alfa,,,80,18,V,R,
80,80,38,1,0,27,53,715,['n'],1,right,['2'],5,130,[-0.07564608],100,53,easy,plus,dotcolour,alfa,,,80,18,V,R,
81,81,39,1,0,33,47,749,['n'],1,right,['2'],5,128,[-0.06137397],100,47,medium,plus,dotcolour,alfa,,,80,18,V,R,
82,82,40,1,0,33,47,799,['n'],1,right,['2'],5,123,[-0.0640381],100,47,medium,plus,dotcolour,alfa,,,80,18,V,R,
83,83,41,1,0,53,27,949,['c'],1,left,['2'],5,218,[0.14453388],100,53,easy,plus,dotcolour,alfa,,,80,18,V,R,
84,84,0,2,0,27,53,849,['n'],1,right,['2'],5,106,[-0.05808056],100,53,easy,plus,dotcolour,alfa,,,80,18,V,R,
85,85,1,2,0,44,36,898,['c'],1,left,['2'],5,163,[0.10905245],100,44,hard,plus,dotcolour,alfa,,,80,18,V,R,
86,86,2,2,0,47,33,647,['c'],1,left,['2'],5,164,[0.05372138],99,47,medium,plus,dotcolour,alfa,,,80,18,V,R,
87,87,3,2,0,33,47,648,['n'],1,right,['2'],5,116,[-0.12240357],100,47,medium,plus,dotcolour,alfa,,,80,18,V,R,
88,88,4,2,0,33,47,615,['n'],1,right,['2'],5,104,[-0.13005158],100,47,medium,plus,dotcolour,alfa,,,80,18,V,R,
89,89,5,2,0,36,44,566,['n'],1,right,['2'],5,127,[-0.05060885],99,44,hard,plus,dotcolour,alfa,,,80,18,V,R,
90,90,6,2,0,53,27,1365,['c'],1,left,['2'],5,148,[0.10688225],100,53,easy,plus,dotcolour,alfa,,,80,18,V,R,
91,91,7,2,0,36,44,1048,['n'],1,right,['8'],3,118,[-0.14934842],100,44,hard,plus,dotcolour,alfa,,,80,18,V,R,
92,92,8,2,0,27,53,2232,['c'],0,right,['8'],3,128,[0.10740378],100,53,easy,plus,dotcolour,alfa,,,80,18,V,R,
93,93,9,2,0,27,53,764,['n'],1,right,['8'],3,238,[-0.1063534],100,53,easy,plus,dotcolour,alfa,,,80,18,V,R,
94,94,10,2,0,53,27,765,['c'],1,left,['2'],5,143,[0.10111977],100,53,easy,plus,dotcolour,alfa,,,80,18,V,R,
95,95,11,2,0,53,27,1850,['c'],1,left,['3'],4,144,[0.06810314],100,53,easy,plus,dotcolour,alfa,,,80,18,V,R,
96,96,12,2,0,44,36,1215,['n'],0,left,['8'],3,115,[-0.01570071],84,44,hard,plus,dotcolour,alfa,,,80,18,V,R,
97,97,13,2,0,36,44,1148,['n'],1,right,['3'],4,169,[-0.08932859],100,44,hard,plus,dotcolour,alfa,,,80,18,V,R,
98,98,14,2,0,27,53,730,['n'],1,right,['3'],4,134,[-0.04509531],99,53,easy,plus,dotcolour,alfa,,,80,18,V,R,
99,99,15,2,0,44,36,1464,['n'],0,left,['3'],4,128,[-0.04502528],99,44,hard,plus,dotcolour,alfa,,,80,18,V,R,
100,100,16,2,0,47,33,913,['c'],1,left,['3'],4,119,[0.06318286],100,47,medium,plus,dotcolour,alfa,,,80,18,V,R,
101,101,17,2,0,47,33,915,['c'],1,left,['2'],5,191,[0.06373693],99,47,medium,plus,dotcolour,alfa,,,80,18,V,R,
102,102,18,2,0,36,44,633,['c'],0,right,['2'],5,215,[0.05880785],99,44,hard,plus,dotcolour,alfa,,,80,18,V,R,
103,103,19,2,0,53,27,930,['c'],1,left,['1'],6,250,[0.13437575],100,53,easy,plus,dotcolour,alfa,,,80,18,V,R,
104,104,20,2,0,44,36,982,['n'],0,left,['2'],5,186,[-0.10095107],100,44,hard,plus,dotcolour,alfa,,,80,18,V,R,
105,105,21,2,0,44,36,832,['n'],0,left,['2'],5,106,[-0.05550153],100,44,hard,plus,dotcolour,alfa,,,80,18,V,R,
106,106,22,2,0,33,47,865,['n'],1,right,['3'],4,92,[-0.11981086],100,47,medium,plus,dotcolour,alfa,,,80,18,V,R,
107,107,23,2,0,27,53,565,['n'],1,right,['2'],5,155,[-0.07202044],100,53,easy,plus,dotcolour,alfa,,,80,18,V,R,
108,108,24,2,0,33,47,665,['n'],1,right,['2'],5,115,[-0.05525882],100,47,medium,plus,dotcolour,alfa,,,80,18,V,R,
109,109,25,2,0,47,33,848,['c'],1,left,['3'],4,157,[0.03813799],97,47,medium,plus,dotcolour,alfa,,,80,18,V,R,
110,110,26,2,0,27,53,682,['n'],1,right,['3'],4,117,[-0.17285643],100,53,easy,plus,dotcolour,alfa,,,80,18,V,R,
111,111,27,2,0,36,44,763,['c'],0,right,['3'],4,155,[0.0668522],100,44,hard,plus,dotcolour,alfa,,,80,18,V,R,
112,112,28,2,0,53,27,715,['c'],1,left,['3'],4,161,[0.11781373],100,53,easy,plus,dotcolour,alfa,,,80,18,V,R,
113,113,29,2,0,44,36,683,['c'],1,left,['3'],4,169,[0.15701702],100,44,hard,plus,dotcolour,alfa,,,80,18,V,R,
114,114,30,2,0,47,33,896,['c'],1,left,['2'],5,191,[0.08928319],100,47,medium,plus,dotcolour,alfa,,,80,18,V,R,
115,115,31,2,0,33,47,1116,['n'],1,right,['2'],5,172,[-0.06862853],100,47,medium,plus,dotcolour,alfa,,,80,18,V,R,
116,116,32,2,0,36,44,849,['c'],0,right,['2'],5,141,[0.0607591],100,44,hard,plus,dotcolour,alfa,,,80,18,V,R,
117,117,33,2,0,33,47,1098,['n'],1,right,['2'],5,157,[-0.05492485],99,47,medium,plus,dotcolour,alfa,,,80,18,V,R,
118,118,34,2,0,47,33,532,['c'],1,left,['1'],6,217,[0.07321482],100,47,medium,plus,dotcolour,alfa,,,80,18,V,R,
119,119,35,2,0,44,36,1048,['c'],1,left,['1'],6,160,[0.05722083],99,44,hard,plus,dotcolour,alfa,,,80,18,V,R,
120,120,36,2,0,53,27,665,['c'],1,left,['1'],6,224,[0.0991488],100,53,easy,plus,dotcolour,alfa,,,80,18,V,R,
121,121,37,2,0,47,33,699,['c'],1,left,['1'],6,188,[-0.0225574],13,47,medium,plus,dotcolour,alfa,,,80,18,V,R,
122,122,38,2,0,36,44,999,['n'],1,right,['1'],6,182,[-0.11847699],100,44,hard,plus,dotcolour,alfa,,,80,18,V,R,
123,123,39,2,0,33,47,882,['n'],1,right,['1'],6,61,[-0.07658068],100,47,medium,plus,dotcolour,alfa,,,80,18,V,R,
124,124,40,2,0,53,27,714,['c'],1,left,['1'],6,191,[0.0792151],100,53,easy,plus,dotcolour,alfa,,,80,18,V,R,
125,125,41,2,0,27,53,765,['n'],1,right,['1'],6,137,[-0.08169875],100,53,easy,plus,dotcolour,alfa,,,80,18,V,R,
126,0,0,3,1,53,27,850,['c'],1,left,['1'],6,190,[0.15394176],96,53,easy,minus,dotcolour,alfa,,,80,18,V,R,
127,1,1,3,1,27,53,566,['n'],1,right,['1'],6,113,[-0.08532703],91,53,easy,minus,dotcolour,alfa,,,80,18,V,R,
128,2,2,3,1,33,47,699,['n'],1,right,['1'],6,154,[-0.06100248],80,47,medium,minus,dotcolour,alfa,,,80,18,V,R,
129,3,3,3,1,27,53,599,['n'],1,right,['3'],4,253,[-0.09132868],84,53,easy,minus,dotcolour,alfa,,,80,18,V,R,
130,4,4,3,1,53,27,700,['c'],1,left,['2'],5,185,[0.11090587],91,53,easy,minus,dotcolour,alfa,,,80,18,V,R,
131,5,5,3,1,47,33,1115,['c'],1,left,['2'],5,206,[0.06913986],80,47,medium,minus,dotcolour,alfa,,,80,18,V,R,
132,6,6,3,1,33,47,950,['n'],1,right,['2'],5,105,[-0.11830078],96,47,medium,minus,dotcolour,alfa,,,80,18,V,R,
133,7,7,3,1,27,53,682,['c'],0,right,['2'],5,179,[0.05269746],75,53,easy,minus,dotcolour,alfa,,,80,18,V,R,
134,8,8,3,1,33,47,848,['n'],1,right,['2'],5,123,[-0.0736],87,47,medium,minus,dotcolour,alfa,,,80,18,V,R,
135,9,9,3,1,36,44,832,['n'],1,right,['2'],5,102,[-0.06720979],87,44,hard,minus,dotcolour,alfa,,,80,18,V,R,
136,10,10,3,1,27,53,665,['n'],1,right,['2'],5,169,[-0.09570267],89,53,easy,minus,dotcolour,alfa,,,80,18,V,R,
137,11,11,3,1,44,36,865,['c'],1,left,['2'],5,161,[0.10367128],91,44,hard,minus,dotcolour,alfa,,,80,18,V,R,
138,12,12,3,1,36,44,815,['c'],0,right,['2'],5,162,[0.09243535],89,44,hard,minus,dotcolour,alfa,,,80,18,V,R,
139,13,13,3,1,47,33,631,['n'],0,left,['2'],5,548,[0.13471182],16,47,medium,minus,dotcolour,alfa,,,80,18,V,R,
140,14,14,3,1,44,36,615,['c'],1,left,['2'],5,135,[0.11357158],94,44,hard,minus,dotcolour,alfa,,,80,18,V,R,
141,15,15,3,1,47,33,583,['c'],1,left,['1'],6,171,[0.10253357],90,47,medium,minus,dotcolour,alfa,,,80,18,V,R,
142,16,16,3,1,53,27,1248,['c'],1,left,['1'],6,187,[0.02614647],63,53,easy,minus,dotcolour,alfa,,,80,18,V,R,
143,17,17,3,1,27,53,915,['n'],1,right,['3'],4,176,[-0.08757362],87,53,easy,minus,dotcolour,alfa,,,80,18,V,R,
144,18,18,3,1,36,44,782,['n'],1,right,['3'],4,163,[-0.05189927],76,44,hard,minus,dotcolour,alfa,,,80,18,V,R,
145,19,19,3,1,33,47,699,['n'],1,right,['2'],5,121,[-0.10343121],94,47,medium,minus,dotcolour,alfa,,,80,18,V,R,
146,20,20,3,1,47,33,781,['c'],1,left,['2'],5,167,[0.09835166],90,47,medium,minus,dotcolour,alfa,,,80,18,V,R,
147,21,21,3,1,44,36,915,['c'],1,left,['3'],4,213,[0.05920987],76,44,hard,minus,dotcolour,alfa,,,80,18,V,R,
148,22,22,3,1,47,33,700,['c'],1,left,['2'],5,177,[0.16447598],97,47,medium,minus,dotcolour,alfa,,,80,18,V,R,
149,23,23,3,1,44,36,765,['c'],1,left,['2'],5,252,[0.09938601],86,44,hard,minus,dotcolour,alfa,,,80,18,V,R,
150,24,24,3,1,36,44,749,['c'],0,right,['2'],5,174,[-0.03134829],34,44,hard,minus,dotcolour,alfa,,,80,18,V,R,
151,25,25,3,1,44,36,2015,['c'],1,left,['2'],5,400,[0.03179742],61,44,hard,minus,dotcolour,alfa,,,80,18,V,R,
152,26,26,3,1,53,27,850,['c'],1,left,['2'],5,158,[0.09839674],90,53,easy,minus,dotcolour,alfa,,,80,18,V,R,
153,27,27,3,1,27,53,783,['n'],1,right,['3'],4,209,[-0.03883394],68,53,easy,minus,dotcolour,alfa,,,80,18,V,R,
154,28,28,3,1,53,27,965,['c'],1,left,['2'],5,187,[0.04727247],73,53,easy,minus,dotcolour,alfa,,,80,18,V,R,
155,29,29,3,1,36,44,1014,['n'],1,right,['2'],5,181,[-0.09176361],87,44,hard,minus,dotcolour,alfa,,,80,18,V,R,
156,30,30,3,1,53,27,1116,['c'],1,left,['3'],4,154,[0.09407161],90,53,easy,minus,dotcolour,alfa,,,80,18,V,R,
157,31,31,3,1,36,44,781,['n'],1,right,['3'],4,110,[-0.09941268],94,44,hard,minus,dotcolour,alfa,,,80,18,V,R,
158,32,32,3,1,53,27,815,['c'],1,left,['3'],4,209,[0.11482675],91,53,easy,minus,dotcolour,alfa,,,80,18,V,R,
159,33,33,3,1,44,36,1115,['n'],0,left,['3'],4,141,[-0.06709287],83,44,hard,minus,dotcolour,alfa,,,80,18,V,R,
160,34,34,3,1,47,33,748,['c'],1,left,['3'],4,146,[0.07907598],87,47,medium,minus,dotcolour,alfa,,,80,18,V,R,
161,35,35,3,1,33,47,999,['n'],1,right,['2'],5,94,[-0.1058034],96,47,medium,minus,dotcolour,alfa,,,80,18,V,R,
162,36,36,3,1,33,47,715,['n'],1,right,['2'],5,111,[-0.1193259],96,47,medium,minus,dotcolour,alfa,,,80,18,V,R,
163,37,37,3,1,44,36,981,['c'],1,left,['2'],5,116,[0.09151678],92,44,hard,minus,dotcolour,alfa,,,80,18,V,R,
164,38,38,3,1,36,44,698,['n'],1,right,['2'],5,124,[-0.05652298],81,44,hard,minus,dotcolour,alfa,,,80,18,V,R,
165,39,39,3,1,33,47,634,['n'],1,right,['3'],4,135,[-0.12128102],95,47,medium,minus,dotcolour,alfa,,,80,18,V,R,
166,40,40,3,1,47,33,830,['c'],1,left,['2'],5,178,[0.03501924],68,47,medium,minus,dotcolour,alfa,,,80,18,V,R,
167,41,41,3,1,27,53,682,['n'],1,right,['3'],4,128,[-0.14041824],97,53,easy,minus,dotcolour,alfa,,,80,18,V,R,
168,42,0,4,1,47,33,634,['c'],1,left,['3'],4,108,[0.0939338],93,47,medium,minus,dotcolour,alfa,,,80,18,V,R,
169,43,1,4,1,44,36,666,['c'],1,left,['2'],5,103,[0.05053227],80,44,hard,minus,dotcolour,alfa,,,80,18,V,R,
170,44,2,4,1,47,33,566,['c'],1,left,['2'],5,133,[0.11057137],94,47,medium,minus,dotcolour,alfa,,,80,18,V,R,
171,45,3,4,1,47,33,781,['c'],1,left,['2'],5,194,[0.04099541],70,47,medium,minus,dotcolour,alfa,,,80,18,V,R,
172,46,4,4,1,36,44,649,['n'],1,right,['2'],5,145,[-0.12660353],95,44,hard,minus,dotcolour,alfa,,,80,18,V,R,
173,47,5,4,1,53,27,597,['c'],1,left,['2'],5,164,[0.08592275],87,53,easy,minus,dotcolour,alfa,,,80,18,V,R,
174,48,6,4,1,33,47,582,['n'],1,right,['2'],5,120,[-0.09005086],91,47,medium,minus,dotcolour,alfa,,,80,18,V,R,
175,49,7,4,1,53,27,565,['c'],1,left,['2'],5,142,[0.10258063],92,53,easy,minus,dotcolour,alfa,,,80,18,V,R,
176,50,8,4,1,27,53,565,['n'],1,right,['2'],5,114,[-0.08306713],90,53,easy,minus,dotcolour,alfa,,,80,18,V,R,
177,51,9,4,1,33,47,564,['n'],1,right,['2'],5,113,[-0.06583638],85,47,medium,minus,dotcolour,alfa,,,80,18,V,R,
178,52,10,4,1,53,27,582,['c'],1,left,['3'],4,110,[0.07823215],89,53,easy,minus,dotcolour,alfa,,,80,18,V,R,
179,53,11,4,1,36,44,716,['n'],1,right,['3'],4,110,[-0.07843014],89,44,hard,minus,dotcolour,alfa,,,80,18,V,R,
180,54,12,4,1,33,47,783,['c'],0,right,['2'],5,107,[0.09348321],93,47,medium,minus,dotcolour,alfa,,,80,18,V,R,
181,55,13,4,1,36,44,1081,['n'],1,right,['2'],5,141,[-0.07622701],86,44,hard,minus,dotcolour,alfa,,,80,18,V,R,
182,56,14,4,1,27,53,732,['n'],1,right,['2'],5,163,[-0.14041716],96,53,easy,minus,dotcolour,alfa,,,80,18,V,R,
183,57,15,4,1,33,47,698,['n'],1,right,['2'],5,89,[-0.18608207],100,47,medium,minus,dotcolour,alfa,,,80,18,V,R,
184,58,16,4,1,36,44,2100,['c'],0,right,['8'],3,107,[0.05656292],83,44,hard,minus,dotcolour,alfa,,,80,18,V,R,
185,59,17,4,1,27,53,1032,['n'],1,right,['3'],4,94,[-0.08927629],93,53,easy,minus,dotcolour,alfa,,,80,18,V,R,
186,60,18,4,1,36,44,1050,['c'],0,right,['3'],4,90,[0.08853448],93,44,hard,minus,dotcolour,alfa,,,80,18,V,R,
187,61,19,4,1,33,47,965,['c'],0,right,['3'],4,121,[0.05242815],80,47,medium,minus,dotcolour,alfa,,,80,18,V,R,
188,62,20,4,1,47,33,782,['c'],1,left,['2'],5,127,[0.13527649],97,47,medium,minus,dotcolour,alfa,,,80,18,V,R,
189,63,21,4,1,47,33,732,['c'],1,left,['2'],5,125,[0.11720499],95,47,medium,minus,dotcolour,alfa,,,80,18,V,R,
190,64,22,4,1,27,53,699,['n'],1,right,['2'],5,141,[-0.11869888],95,53,easy,minus,dotcolour,alfa,,,80,18,V,R,
191,65,23,4,1,47,33,748,['n'],0,left,['2'],5,74,[-0.09432323],96,47,medium,minus,dotcolour,alfa,,,80,18,V,R,
192,66,24,4,1,36,44,665,['c'],0,right,['2'],5,126,[0.11644979],95,44,hard,minus,dotcolour,alfa,,,80,18,V,R,
193,67,25,4,1,53,27,1066,['c'],1,left,['2'],5,136,[0.07849046],87,53,easy,minus,dotcolour,alfa,,,80,18,V,R,
194,68,26,4,1,53,27,649,['c'],1,left,['2'],5,121,[0.08487124],90,53,easy,minus,dotcolour,alfa,,,80,18,V,R,
195,69,27,4,1,44,36,650,['c'],1,left,['2'],5,131,[0.13731425],97,44,hard,minus,dotcolour,alfa,,,80,18,V,R,
196,70,28,4,1,44,36,714,['c'],1,left,['2'],5,107,[0.01760908],62,44,hard,minus,dotcolour,alfa,,,80,18,V,R,
197,71,29,4,1,27,53,731,['n'],1,right,['2'],5,98,[-0.07606314],90,53,easy,minus,dotcolour,alfa,,,80,18,V,R,
198,72,30,4,1,33,47,1982,['n'],1,right,['8'],3,88,[-0.06923537],89,47,medium,minus,dotcolour,alfa,,,80,18,V,R,
199,73,31,4,1,44,36,1082,['c'],1,left,['2'],5,139,[0.04398729],74,44,hard,minus,dotcolour,alfa,,,80,18,V,R,
200,74,32,4,1,44,36,833,['c'],1,left,['2'],5,166,[0.08930373],88,44,hard,minus,dotcolour,alfa,,,80,18,V,R,
201,75,33,4,1,44,36,648,['c'],1,left,['3'],4,14,[0.07465174],100,44,hard,minus,dotcolour,alfa,,,80,18,V,R,
202,76,34,4,1,44,36,698,['c'],1,left,['3'],4,124,[0.05728401],81,44,hard,minus,dotcolour,alfa,,,80,18,V,R,
203,77,35,4,1,47,33,548,['c'],1,left,['3'],4,121,[0.05579529],81,47,medium,minus,dotcolour,alfa,,,80,18,V,R,
204,78,36,4,1,33,47,767,['n'],1,right,['3'],4,103,[-0.07890641],90,47,medium,minus,dotcolour,alfa,,,80,18,V,R,
205,79,37,4,1,27,53,833,['n'],1,right,['2'],5,179,[-0.09894433],89,53,easy,minus,dotcolour,alfa,,,80,18,V,R,
206,80,38,4,1,36,44,782,['n'],1,right,['3'],4,141,[-0.1126693],94,44,hard,minus,dotcolour,alfa,,,80,18,V,R,
207,81,39,4,1,53,27,799,['c'],1,left,['3'],4,177,[0.09519252],88,53,easy,minus,dotcolour,alfa,,,80,18,V,R,
208,82,40,4,1,53,27,648,['c'],1,left,['2'],5,217,[0.13448724],93,53,easy,minus,dotcolour,alfa,,,80,18,V,R,
209,83,41,4,1,27,53,764,['n'],1,right,['2'],5,163,[-0.09759681],90,53,easy,minus,dotcolour,alfa,,,80,18,V,R,
210,84,0,5,1,44,36,950,['c'],1,left,['2'],5,139,[0.09281965],90,44,hard,minus,dotcolour,alfa,,,80,18,V,R,
211,85,1,5,1,53,27,598,['c'],1,left,['2'],5,142,[0.04601336],75,53,easy,minus,dotcolour,alfa,,,80,18,V,R,
212,86,2,5,1,36,44,681,['n'],1,right,['2'],5,158,[-0.00481843],53,44,hard,minus,dotcolour,alfa,,,80,18,V,R,
213,87,3,5,1,44,36,750,['c'],1,left,['3'],4,99,[0.05367307],82,44,hard,minus,dotcolour,alfa,,,80,18,V,R,
214,88,4,5,1,27,53,581,['n'],1,right,['3'],4,185,[-0.1043421],90,53,easy,minus,dotcolour,alfa,,,80,18,V,R,
215,89,5,5,1,27,53,599,['n'],1,right,['3'],4,146,[-0.04621309],75,53,easy,minus,dotcolour,alfa,,,80,18,V,R,
216,90,6,5,1,44,36,683,['c'],1,left,['2'],5,114,[0.07746507],89,44,hard,minus,dotcolour,alfa,,,80,18,V,R,
217,91,7,5,1,44,36,767,['c'],1,left,['2'],5,112,[0.05997912],83,44,hard,minus,dotcolour,alfa,,,80,18,V,R,
218,92,8,5,1,53,27,748,['c'],1,left,['2'],5,103,[0.05624819],83,53,easy,minus,dotcolour,alfa,,,80,18,V,R,
219,93,9,5,1,44,36,915,['n'],0,left,['8'],3,112,[-0.02607493],67,44,hard,minus,dotcolour,alfa,,,80,18,V,R,
220,94,10,5,1,36,44,1165,['c'],0,right,['3'],4,53,[0.08197871],96,44,hard,minus,dotcolour,alfa,,,80,18,V,R,
221,95,11,5,1,33,47,1098,['n'],1,right,['2'],5,81,[-0.04938032],83,47,medium,minus,dotcolour,alfa,,,80,18,V,R,
222,96,12,5,1,53,27,798,['c'],1,left,['1'],6,191,[0.10424123],90,53,easy,minus,dotcolour,alfa,,,80,18,V,R,
223,97,13,5,1,44,36,849,['c'],1,left,['3'],4,190,[0.14500169],95,44,hard,minus,dotcolour,alfa,,,80,18,V,R,
224,98,14,5,1,36,44,816,['n'],1,right,['3'],4,79,[-0.11462279],98,44,hard,minus,dotcolour,alfa,,,80,18,V,R,
225,99,15,5,1,53,27,665,['c'],1,left,['2'],5,187,[0.13054236],94,53,easy,minus,dotcolour,alfa,,,80,18,V,R,
226,100,16,5,1,53,27,598,['c'],1,left,['1'],6,197,[0.18444472],98,53,easy,minus,dotcolour,alfa,,,80,18,V,R,
227,101,17,5,1,44,36,1533,['c'],1,left,['3'],4,129,[0.03898023],73,44,hard,minus,dotcolour,alfa,,,80,18,V,R,
228,102,18,5,1,47,33,798,['c'],1,left,['1'],6,141,[-0.00404767],48,47,medium,minus,dotcolour,alfa,,,80,18,V,R,
229,103,19,5,1,53,27,781,['c'],1,left,['1'],6,104,[0.01197605],58,53,easy,minus,dotcolour,alfa,,,80,18,V,R,
230,104,20,5,1,27,53,966,['n'],1,right,['1'],6,111,[-0.08907161],92,53,easy,minus,dotcolour,alfa,,,80,18,V,R,
231,105,21,5,1,36,44,982,['n'],1,right,['3'],4,156,[-0.10884354],92,44,hard,minus,dotcolour,alfa,,,80,18,V,R,
232,106,22,5,1,36,44,1098,['n'],1,right,['2'],5,83,[-0.06277348],88,44,hard,minus,dotcolour,alfa,,,80,18,V,R,
233,107,23,5,1,33,47,698,['n'],1,right,['2'],5,125,[-0.07482273],87,47,medium,minus,dotcolour,alfa,,,80,18,V,R,
234,108,24,5,1,47,33,1249,['c'],1,left,['3'],4,127,[0.08905598],90,47,medium,minus,dotcolour,alfa,,,80,18,V,R,
235,109,25,5,1,33,47,1083,['n'],1,right,['2'],5,160,[-0.12225404],94,47,medium,minus,dotcolour,alfa,,,80,18,V,R,
236,110,26,5,1,33,47,982,['n'],1,right,['2'],5,139,[-0.10126798],92,47,medium,minus,dotcolour,alfa,,,80,18,V,R,
237,111,27,5,1,36,44,1065,['n'],1,right,['2'],5,155,[-0.09760226],90,44,hard,minus,dotcolour,alfa,,,80,18,V,R,
238,112,28,5,1,33,47,983,['n'],1,right,['3'],4,175,[-0.02805027],65,47,medium,minus,dotcolour,alfa,,,80,18,V,R,
239,113,29,5,1,33,47,781,['n'],1,right,['3'],4,154,[-0.19432172],99,47,medium,minus,dotcolour,alfa,,,80,18,V,R,
240,114,30,5,1,27,53,716,['n'],1,right,['2'],5,176,[-0.00777627],54,53,easy,minus,dotcolour,alfa,,,80,18,V,R,
241,115,31,5,1,33,47,698,['n'],1,right,['3'],4,134,[-0.07821829],87,47,medium,minus,dotcolour,alfa,,,80,18,V,R,
242,116,32,5,1,47,33,783,['c'],1,left,['3'],4,147,[0.13928421],96,47,medium,minus,dotcolour,alfa,,,80,18,V,R,
243,117,33,5,1,47,33,797,['n'],0,left,['3'],4,126,[-0.0856246],90,47,medium,minus,dotcolour,alfa,,,80,18,V,R,
244,118,34,5,1,47,33,783,['c'],1,left,['3'],4,99,[0.14257823],98,47,medium,minus,dotcolour,alfa,,,80,18,V,R,
245,119,35,5,1,53,27,681,['c'],1,left,['3'],4,93,[0.0982191],95,53,easy,minus,dotcolour,alfa,,,80,18,V,R,
246,120,36,5,1,27,53,598,['n'],1,right,['3'],4,98,[-0.07281064],89,53,easy,minus,dotcolour,alfa,,,80,18,V,R,
247,121,37,5,1,27,53,632,['n'],1,right,['3'],4,110,[-0.11585354],96,53,easy,minus,dotcolour,alfa,,,80,18,V,R,
248,122,38,5,1,47,33,647,['c'],1,left,['3'],4,153,[0.04961247],76,47,medium,minus,dotcolour,alfa,,,80,18,V,R,
249,123,39,5,1,47,33,882,['c'],1,left,['3'],4,81,[0.0736979],91,47,medium,minus,dotcolour,alfa,,,80,18,V,R,
250,124,40,5,1,36,44,731,['n'],1,right,['3'],4,90,[-0.04056427],77,44,hard,minus,dotcolour,alfa,,,80,18,V,R,
251,125,41,5,1,27,53,749,['n'],1,right,['3'],4,98,[-0.11911198],97,53,easy,minus,dotcolour,alfa,,,80,18,V,R,
252,0,0,6,2,47,33,934,['c'],1,left,['3'],4,44,[0.0413959],100,47,medium,plus,dotcolour,alfa,,,80,18,V,R,
253,1,1,6,2,44,36,651,['n'],0,left,['3'],4,90,[-0.04044519],99,44,hard,plus,dotcolour,alfa,,,80,18,V,R,
254,2,2,6,2,27,53,647,['n'],1,right,['3'],4,77,[-0.04837314],100,53,easy,plus,dotcolour,alfa,,,80,18,V,R,
255,3,3,6,2,27,53,682,['n'],1,right,['3'],4,79,[-0.088732],100,53,easy,plus,dotcolour,alfa,,,80,18,V,R,
256,4,4,6,2,53,27,949,['c'],1,left,['2'],5,103,[0.09625578],100,53,easy,plus,dotcolour,alfa,,,80,18,V,R,
257,5,5,6,2,36,44,765,['n'],1,right,['2'],5,101,[-0.10335752],100,44,hard,plus,dotcolour,alfa,,,80,18,V,R,
258,6,6,6,2,36,44,849,['n'],1,right,['3'],4,169,[-0.13206351],100,44,hard,plus,dotcolour,alfa,,,80,18,V,R,
259,7,7,6,2,27,53,816,['c'],0,right,['3'],4,81,[0.06199591],100,53,easy,plus,dotcolour,alfa,,,80,18,V,R,
260,8,8,6,2,44,36,699,['c'],1,left,['2'],5,84,[0.10512545],100,44,hard,plus,dotcolour,alfa,,,80,18,V,R,
261,9,9,6,2,27,53,598,['n'],1,right,['2'],5,130,[-0.14898997],100,53,easy,plus,dotcolour,alfa,,,80,18,V,R,
262,10,10,6,2,53,27,765,['c'],1,left,['3'],4,128,[0.07386736],100,53,easy,plus,dotcolour,alfa,,,80,18,V,R,
263,11,11,6,2,53,27,665,['c'],1,left,['2'],5,113,[0.05397231],100,53,easy,plus,dotcolour,alfa,,,80,18,V,R,
264,12,12,6,2,27,53,649,['n'],1,right,['3'],4,115,[-0.07991283],100,53,easy,plus,dotcolour,alfa,,,80,18,V,R,
265,13,13,6,2,47,33,681,['c'],1,left,['2'],5,109,[0.15343893],100,47,medium,plus,dotcolour,alfa,,,80,18,V,R,
266,14,14,6,2,36,44,749,['c'],0,right,['2'],5,147,[0.03334465],96,44,hard,plus,dotcolour,alfa,,,80,18,V,R,
267,15,15,6,2,27,53,666,['n'],1,right,['3'],4,132,[-0.14257965],100,53,easy,plus,dotcolour,alfa,,,80,18,V,R,
268,16,16,6,2,44,36,898,['c'],1,left,['2'],5,172,[0.10378184],100,44,hard,plus,dotcolour,alfa,,,80,18,V,R,
269,17,17,6,2,36,44,1149,['n'],1,right,['3'],4,130,[-0.10264327],100,44,hard,plus,dotcolour,alfa,,,80,18,V,R,
270,18,18,6,2,44,36,931,['n'],0,left,['3'],4,183,[-0.07264591],100,44,hard,plus,dotcolour,alfa,,,80,18,V,R,
271,19,19,6,2,47,33,749,['c'],1,left,['2'],5,91,[0.10433581],100,47,medium,plus,dotcolour,alfa,,,80,18,V,R,
272,20,20,6,2,33,47,765,['n'],1,right,['3'],4,106,[-0.11481085],100,47,medium,plus,dotcolour,alfa,,,80,18,V,R,
273,21,21,6,2,36,44,783,['n'],1,right,['8'],3,231,[-0.07344807],100,44,hard,plus,dotcolour,alfa,,,80,18,V,R,
274,22,22,6,2,33,47,866,['n'],1,right,['3'],4,85,[-0.03082223],98,47,medium,plus,dotcolour,alfa,,,80,18,V,R,
275,23,23,6,2,47,33,931,['c'],1,left,['3'],4,21,[0.05484211],100,47,medium,plus,dotcolour,alfa,,,80,18,V,R,
276,24,24,6,2,33,47,1148,['n'],1,right,['3'],4,120,[-0.09723711],100,47,medium,plus,dotcolour,alfa,,,80,18,V,R,
277,25,25,6,2,33,47,1999,['n'],1,right,['3'],4,187,[-0.03774029],96,47,medium,plus,dotcolour,alfa,,,80,18,V,R,
278,26,26,6,2,53,27,2097,['c'],1,left,['2'],5,105,[0.13864424],100,53,easy,plus,dotcolour,alfa,,,80,18,V,R,
279,27,27,6,2,44,36,764,['c'],1,left,['2'],5,79,[0.08997477],100,44,hard,plus,dotcolour,alfa,,,80,18,V,R,
280,28,28,6,2,47,33,599,['n'],0,left,['3'],4,141,[-0.05104272],99,47,medium,plus,dotcolour,alfa,,,80,18,V,R,
281,29,29,6,2,47,33,1115,['c'],1,left,['2'],5,115,[0.11550687],100,47,medium,plus,dotcolour,alfa,,,80,18,V,R,
282,30,30,6,2,36,44,1099,['n'],1,right,['2'],5,132,[-0.02739417],94,44,hard,plus,dotcolour,alfa,,,80,18,V,R,
283,31,31,6,2,47,33,832,['c'],1,left,['3'],4,119,[0.04488232],99,47,medium,plus,dotcolour,alfa,,,80,18,V,R,
284,32,32,6,2,53,27,733,['c'],1,left,['3'],4,103,[0.08431175],100,53,easy,plus,dotcolour,alfa,,,80,18,V,R,
285,33,33,6,2,36,44,781,['n'],1,right,['2'],5,83,[-0.0879096],100,44,hard,plus,dotcolour,alfa,,,80,18,V,R,
286,34,34,6,2,33,47,767,['n'],1,right,['3'],4,91,[-0.10500225],100,47,medium,plus,dotcolour,alfa,,,80,18,V,R,
287,35,35,6,2,33,47,748,['n'],1,right,['3'],4,58,[-0.09183422],100,47,medium,plus,dotcolour,alfa,,,80,18,V,R,
288,36,36,6,2,53,27,832,['c'],1,left,['2'],5,95,[0.11893217],100,53,easy,plus,dotcolour,alfa,,,80,18,V,R,
289,37,37,6,2,44,36,764,['n'],0,left,['3'],4,102,[-0.04030388],99,44,hard,plus,dotcolour,alfa,,,80,18,V,R,
290,38,38,6,2,53,27,715,['c'],1,left,['2'],5,103,[0.06004276],100,53,easy,plus,dotcolour,alfa,,,80,18,V,R,
291,39,39,6,2,44,36,897,['c'],1,left,['2'],5,104,[0.05897755],100,44,hard,plus,dotcolour,alfa,,,80,18,V,R,
292,40,40,6,2,33,47,716,['n'],1,right,['2'],5,137,[-0.05280409],99,47,medium,plus,dotcolour,alfa,,,80,18,V,R,
293,41,41,6,2,27,53,715,['n'],1,right,['3'],4,144,[-0.08791523],100,53,easy,plus,dotcolour,alfa,,,80,18,V,R,
294,42,0,7,2,33,47,816,['n'],1,right,['3'],4,176,[-0.0872639],100,47,medium,plus,dotcolour,alfa,,,80,18,V,R,
295,43,1,7,2,47,33,732,['n'],0,left,['2'],5,117,[-0.11466892],100,47,medium,plus,dotcolour,alfa,,,80,18,V,R,
296,44,2,7,2,36,44,649,['n'],1,right,['2'],5,95,[-0.04885552],100,44,hard,plus,dotcolour,alfa,,,80,18,V,R,
297,45,3,7,2,27,53,715,['n'],1,right,['3'],4,136,[-0.08578324],100,53,easy,plus,dotcolour,alfa,,,80,18,V,R,
298,46,4,7,2,36,44,1231,['c'],0,right,['2'],5,171,[0.06974302],100,44,hard,plus,dotcolour,alfa,,,80,18,V,R,
299,47,5,7,2,27,53,815,['n'],1,right,['2'],5,93,[-0.08233041],100,53,easy,plus,dotcolour,alfa,,,80,18,V,R,
300,48,6,7,2,36,44,832,['c'],0,right,['2'],5,81,[0.06080105],100,44,hard,plus,dotcolour,alfa,,,80,18,V,R,
301,49,7,7,2,27,53,732,['n'],1,right,['2'],5,129,[-0.08349675],100,53,easy,plus,dotcolour,alfa,,,80,18,V,R,
302,50,8,7,2,53,27,764,['c'],1,left,['2'],5,119,[0.15079534],100,53,easy,plus,dotcolour,alfa,,,80,18,V,R,
303,51,9,7,2,53,27,649,['c'],1,left,['2'],5,145,[0.12077953],100,53,easy,plus,dotcolour,alfa,,,80,18,V,R,
304,52,10,7,2,47,33,999,['c'],1,left,['2'],5,45,[0.07549223],100,47,medium,plus,dotcolour,alfa,,,80,18,V,R,
305,53,11,7,2,33,47,749,['n'],1,right,['2'],5,54,[-0.0607875],100,47,medium,plus,dotcolour,alfa,,,80,18,V,R,
306,54,12,7,2,33,47,934,['n'],1,right,['2'],5,72,[-0.10981685],100,47,medium,plus,dotcolour,alfa,,,80,18,V,R,
307,55,13,7,2,36,44,750,['n'],1,right,['2'],5,17,[-0.07102806],100,44,hard,plus,dotcolour,alfa,,,80,18,V,R,
308,56,14,7,2,36,44,764,['c'],0,right,['2'],5,99,[0.03943306],99,44,hard,plus,dotcolour,alfa,,,80,18,V,R,
309,57,15,7,2,53,27,898,['c'],1,left,['2'],5,108,[0.10089316],100,53,easy,plus,dotcolour,alfa,,,80,18,V,R,
310,58,16,7,2,44,36,765,['c'],1,left,['2'],5,66,[0.07294132],100,44,hard,plus,dotcolour,alfa,,,80,18,V,R,
311,59,17,7,2,33,47,582,['n'],1,right,['2'],5,121,[-0.10301699],100,47,medium,plus,dotcolour,alfa,,,80,18,V,R,
312,60,18,7,2,44,36,648,['c'],1,left,['2'],5,140,[0.06450422],100,44,hard,plus,dotcolour,alfa,,,80,18,V,R,
313,61,19,7,2,27,53,797,['n'],1,right,['2'],5,95,[-0.07383771],100,53,easy,plus,dotcolour,alfa,,,80,18,V,R,
314,62,20,7,2,36,44,847,['c'],0,right,['2'],5,154,[0.0517985],99,44,hard,plus,dotcolour,alfa,,,80,18,V,R,
315,63,21,7,2,27,53,749,['c'],0,right,['0'],1,2175,[-0.00541413],47,53,easy,plus,dotcolour,alfa,,,80,18,V,R,
316,64,22,7,2,27,53,1882,['c'],0,right,['2'],5,13,[0.0720726],100,53,easy,plus,dotcolour,alfa,,,80,18,V,R,
317,65,23,7,2,44,36,982,['c'],1,left,['2'],5,111,[0.08236218],100,44,hard,plus,dotcolour,alfa,,,80,18,V,R,
318,66,24,7,2,47,33,1099,['c'],1,left,['2'],5,55,[0.05776022],100,47,medium,plus,dotcolour,alfa,,,80,18,V,R,
319,67,25,7,2,47,33,915,['c'],1,left,['2'],5,1314,[0.3008033],100,47,medium,plus,dotcolour,alfa,,,80,18,V,R,
320,68,26,7,2,44,36,1263,['n'],0,left,['2'],5,132,[-0.03448083],97,44,hard,plus,dotcolour,alfa,,,80,18,V,R,
321,69,27,7,2,27,53,767,['n'],1,right,['2'],5,97,[-0.11859077],100,53,easy,plus,dotcolour,alfa,,,80,18,V,R,
322,70,28,7,2,53,27,715,['c'],1,left,['2'],5,74,[0.11455704],100,53,easy,plus,dotcolour,alfa,,,80,18,V,R,
323,71,29,7,2,53,27,765,['c'],1,left,['2'],5,122,[0.01555474],83,53,easy,plus,dotcolour,alfa,,,80,18,V,R,
324,72,30,7,2,47,33,732,['c'],1,left,['2'],5,121,[0.10492129],100,47,medium,plus,dotcolour,alfa,,,80,18,V,R,
325,73,31,7,2,47,33,666,['c'],1,left,['2'],5,18,[0.07523081],100,47,medium,plus,dotcolour,alfa,,,80,18,V,R,
326,74,32,7,2,44,36,615,['c'],1,left,['2'],5,114,[0.04861322],99,44,hard,plus,dotcolour,alfa,,,80,18,V,R,
327,75,33,7,2,33,47,1463,['n'],1,right,['2'],5,260,[-0.12140606],100,47,medium,plus,dotcolour,alfa,,,80,18,V,R,
328,76,34,7,2,44,36,682,['c'],1,left,['2'],5,127,[0.08479884],100,44,hard,plus,dotcolour,alfa,,,80,18,V,R,
329,77,35,7,2,36,44,1099,['n'],1,right,['2'],5,95,[0.00534829],35,44,hard,plus,dotcolour,alfa,,,80,18,V,R,
330,78,36,7,2,33,47,650,['n'],1,right,['2'],5,155,[-0.11239192],100,47,medium,plus,dotcolour,alfa,,,80,18,V,R,
331,79,37,7,2,44,36,1048,['c'],1,left,['3'],4,155,[0.10229131],100,44,hard,plus,dotcolour,alfa,,,80,18,V,R,
332,80,38,7,2,53,27,650,['c'],1,left,['3'],4,84,[0.0959129],100,53,easy,plus,dotcolour,alfa,,,80,18,V,R,
333,81,39,7,2,33,47,682,['n'],1,right,['3'],4,127,[-0.11140936],100,47,medium,plus,dotcolour,alfa,,,80,18,V,R,
334,82,40,7,2,47,33,633,['c'],1,left,['3'],4,113,[0.02881946],96,47,medium,plus,dotcolour,alfa,,,80,18,V,R,
335,83,41,7,2,53,27,666,['c'],1,left,['3'],4,99,[0.10887204],100,53,easy,plus,dotcolour,alfa,,,80,18,V,R,
336,84,0,8,2,33,47,700,['n'],1,right,['3'],4,78,[-0.06078864],100,47,medium,plus,dotcolour,alfa,,,80,18,V,R,
337,85,1,8,2,27,53,1148,['n'],1,right,['3'],4,126,[-0.11902377],100,53,easy,plus,dotcolour,alfa,,,80,18,V,R,
338,86,2,8,2,33,47,849,['n'],1,right,['3'],4,80,[-0.04916454],100,47,medium,plus,dotcolour,alfa,,,80,18,V,R,
339,87,3,8,2,53,27,498,['c'],1,left,['3'],4,114,[0.11143379],100,53,easy,plus,dotcolour,alfa,,,80,18,V,R,
340,88,4,8,2,44,36,914,['n'],0,left,['2'],5,98,[-0.04110242],99,44,hard,plus,dotcolour,alfa,,,80,18,V,R,
341,89,5,8,2,53,27,733,['c'],1,left,['2'],5,74,[0.11836893],100,53,easy,plus,dotcolour,alfa,,,80,18,V,R,
342,90,6,8,2,53,27,650,['c'],1,left,['2'],5,46,[0.08072519],100,53,easy,plus,dotcolour,alfa,,,80,18,V,R,
343,91,7,8,2,53,27,699,['c'],1,left,['2'],5,1298,[0.31952599],100,53,easy,plus,dotcolour,alfa,,,80,18,V,R,
344,92,8,8,2,27,53,865,['c'],0,right,['2'],5,37,[0.06850453],100,53,easy,plus,dotcolour,alfa,,,80,18,V,R,
345,93,9,8,2,47,33,833,['n'],0,left,['3'],4,107,[-0.06724217],100,47,medium,plus,dotcolour,alfa,,,80,18,V,R,
346,94,10,8,2,36,44,750,['c'],0,right,['2'],5,50,[0.06236762],100,44,hard,plus,dotcolour,alfa,,,80,18,V,R,
347,95,11,8,2,33,47,782,['n'],1,right,['3'],4,146,[-0.1315204],100,47,medium,plus,dotcolour,alfa,,,80,18,V,R,
348,96,12,8,2,47,33,933,['c'],1,left,['3'],4,127,[0.09630521],100,47,medium,plus,dotcolour,alfa,,,80,18,V,R,
349,97,13,8,2,36,44,797,['c'],0,right,['3'],4,140,[0.05488997],99,44,hard,plus,dotcolour,alfa,,,80,18,V,R,
350,98,14,8,2,44,36,832,['c'],1,left,['2'],5,143,[0.11861302],100,44,hard,plus,dotcolour,alfa,,,80,18,V,R,
351,99,15,8,2,27,53,682,['n'],1,right,['3'],4,118,[-0.10652707],100,53,easy,plus,dotcolour,alfa,,,80,18,V,R,
352,100,16,8,2,27,53,763,['n'],1,right,['3'],4,77,[-0.11119618],100,53,easy,plus,dotcolour,alfa,,,80,18,V,R,
353,101,17,8,2,27,53,882,['n'],1,right,['3'],4,71,[-0.07719947],100,53,easy,plus,dotcolour,alfa,,,80,18,V,R,
354,102,18,8,2,33,47,1166,['n'],1,right,['3'],4,119,[-0.09350523],100,47,medium,plus,dotcolour,alfa,,,80,18,V,R,
355,103,19,8,2,47,33,915,['c'],1,left,['3'],4,174,[0.12874157],100,47,medium,plus,dotcolour,alfa,,,80,18,V,R,
356,104,20,8,2,27,53,783,['n'],1,right,['3'],4,113,[-0.04595775],99,53,easy,plus,dotcolour,alfa,,,80,18,V,R,
357,105,21,8,2,36,44,883,['n'],1,right,['3'],4,99,[-0.11100456],100,44,hard,plus,dotcolour,alfa,,,80,18,V,R,
358,106,22,8,2,47,33,883,['c'],1,left,['3'],4,108,[0.06108328],100,47,medium,plus,dotcolour,alfa,,,80,18,V,R,
359,107,23,8,2,27,53,849,['n'],1,right,['3'],4,143,[-0.07648463],100,53,easy,plus,dotcolour,alfa,,,80,18,V,R,
360,108,24,8,2,36,44,966,['c'],0,right,['3'],4,92,[0.06713196],100,44,hard,plus,dotcolour,alfa,,,80,18,V,R,
361,109,25,8,2,44,36,949,['c'],1,left,['3'],4,115,[0.05877082],100,44,hard,plus,dotcolour,alfa,,,80,18,V,R,
362,110,26,8,2,53,27,632,['c'],1,left,['3'],4,118,[0.11678349],100,53,easy,plus,dotcolour,alfa,,,80,18,V,R,
363,111,27,8,2,44,36,649,['c'],1,left,['3'],4,81,[0.06774147],100,44,hard,plus,dotcolour,alfa,,,80,18,V,R,
364,112,28,8,2,44,36,581,['c'],1,left,['3'],4,64,[0.06360082],100,44,hard,plus,dotcolour,alfa,,,80,18,V,R,
365,113,29,8,2,33,47,666,['n'],1,right,['2'],5,107,[-0.08279821],100,47,medium,plus,dotcolour,alfa,,,80,18,V,R,
366,114,30,8,2,33,47,681,['c'],0,right,['2'],5,966,[0.00605835],56,47,medium,plus,dotcolour,alfa,,,80,18,V,R,
367,115,31,8,2,33,47,732,['n'],1,right,['2'],5,115,[-0.10305883],100,47,medium,plus,dotcolour,alfa,,,80,18,V,R,
368,116,32,8,2,53,27,549,['c'],1,left,['2'],5,66,[0.10707742],100,53,easy,plus,dotcolour,alfa,,,80,18,V,R,
369,117,33,8,2,44,36,683,['n'],0,left,['2'],5,132,[-0.09311366],100,44,hard,plus,dotcolour,alfa,,,80,18,V,R,
370,118,34,8,2,53,27,515,['n'],0,left,['9'],2,964,[0.13875997],1,53,easy,plus,dotcolour,alfa,,,80,18,V,R,
371,119,35,8,2,47,33,1165,['c'],1,left,['3'],4,32,[0.09335705],100,47,medium,plus,dotcolour,alfa,,,80,18,V,R,
372,120,36,8,2,36,44,817,['c'],0,right,['3'],4,95,[0.0690866],100,44,hard,plus,dotcolour,alfa,,,80,18,V,R,
373,121,37,8,2,36,44,916,['n'],1,right,['3'],4,96,[-0.11130443],100,44,hard,plus,dotcolour,alfa,,,80,18,V,R,
374,122,38,8,2,44,36,649,['c'],1,left,['3'],4,91,[0.03756154],99,44,hard,plus,dotcolour,alfa,,,80,18,V,R,
375,123,39,8,2,36,44,748,['c'],0,right,['3'],4,90,[0.0850824],100,44,hard,plus,dotcolour,alfa,,,80,18,V,R,
376,124,40,8,2,47,33,649,['c'],1,left,['2'],5,110,[0.06142827],100,47,medium,plus,dotcolour,alfa,,,80,18,V,R,
377,125,41,8,2,47,33,1116,['n'],0,left,['3'],4,478,[-0.02188409],76,47,medium,plus,dotcolour,alfa,,,80,18,V,R,
378,0,0,9,3,47,33,1950,['n'],0,left,['8'],3,2271,[0.18066908],25,47,medium,minus,dotcolour,alfa,,,80,18,V,R,
379,1,1,9,3,47,33,681,['c'],1,left,['3'],4,89,[0.10763806],96,47,medium,minus,dotcolour,alfa,,,80,18,V,R,
380,2,2,9,3,53,27,1080,['c'],1,left,['2'],5,195,[0.04909692],73,53,easy,minus,dotcolour,alfa,,,80,18,V,R,
381,3,3,9,3,44,36,699,['c'],1,left,['2'],5,128,[0.17067473],99,44,hard,minus,dotcolour,alfa,,,80,18,V,R,
382,4,4,9,3,53,27,949,['c'],1,left,['2'],5,158,[0.10143045],91,53,easy,minus,dotcolour,alfa,,,80,18,V,R,
383,5,5,9,3,33,47,1215,['n'],1,right,['3'],4,112,[-0.1672205],99,47,medium,minus,dotcolour,alfa,,,80,18,V,R,
384,6,6,9,3,27,53,631,['n'],1,right,['3'],4,75,[-0.08823273],95,53,easy,minus,dotcolour,alfa,,,80,18,V,R,
385,7,7,9,3,33,47,682,['n'],1,right,['3'],4,182,[-0.11898854],92,47,medium,minus,dotcolour,alfa,,,80,18,V,R,
386,8,8,9,3,44,36,716,['c'],1,left,['3'],4,76,[0.04561335],82,44,hard,minus,dotcolour,alfa,,,80,18,V,R,
387,9,9,9,3,27,53,632,['n'],1,right,['3'],4,65,[-0.15487926],100,53,easy,minus,dotcolour,alfa,,,80,18,V,R,
388,10,10,9,3,33,47,698,['n'],1,right,['3'],4,67,[-0.0719391],92,47,medium,minus,dotcolour,alfa,,,80,18,V,R,
389,11,11,9,3,33,47,648,['n'],1,right,['3'],4,72,[-0.07077844],91,47,medium,minus,dotcolour,alfa,,,80,18,V,R,
390,12,12,9,3,44,36,898,['c'],1,left,['3'],4,146,[0.08799949],89,44,hard,minus,dotcolour,alfa,,,80,18,V,R,
391,13,13,9,3,36,44,797,['c'],0,right,['3'],4,134,[0.0411019],73,44,hard,minus,dotcolour,alfa,,,80,18,V,R,
392,14,14,9,3,33,47,633,['n'],1,right,['3'],4,104,[-0.13519123],98,47,medium,minus,dotcolour,alfa,,,80,18,V,R,
393,15,15,9,3,27,53,580,['n'],1,right,['3'],4,119,[-0.15166807],98,53,easy,minus,dotcolour,alfa,,,80,18,V,R,
394,16,16,9,3,44,36,949,['c'],1,left,['3'],4,653,[0.0438607],62,44,hard,minus,dotcolour,alfa,,,80,18,V,R,
395,17,17,9,3,33,47,1665,['n'],1,right,['8'],3,10,[-0.08372526],100,47,medium,minus,dotcolour,alfa,,,80,18,V,R,
396,18,18,9,3,47,33,833,['c'],1,left,['3'],4,97,[0.02923537],70,47,medium,minus,dotcolour,alfa,,,80,18,V,R,
397,19,19,9,3,53,27,649,['c'],1,left,['3'],4,140,[0.14492785],97,53,easy,minus,dotcolour,alfa,,,80,18,V,R,
398,20,20,9,3,27,53,714,['n'],1,right,['3'],4,99,[-0.1014343],95,53,easy,minus,dotcolour,alfa,,,80,18,V,R,
399,21,21,9,3,36,44,800,['n'],1,right,['3'],4,88,[-0.11657488],97,44,hard,minus,dotcolour,alfa,,,80,18,V,R,
400,22,22,9,3,47,33,683,['c'],1,left,['3'],4,130,[0.09361322],91,47,medium,minus,dotcolour,alfa,,,80,18,V,R,
401,23,23,9,3,44,36,732,['c'],1,left,['3'],4,41,[0.04612016],89,44,hard,minus,dotcolour,alfa,,,80,18,V,R,
402,24,24,9,3,53,27,730,['c'],1,left,['3'],4,115,[0.09542796],93,53,easy,minus,dotcolour,alfa,,,80,18,V,R,
403,25,25,9,3,53,27,632,['c'],1,left,['2'],5,830,[0.12186556],77,53,easy,minus,dotcolour,alfa,,,80,18,V,R,
404,26,26,9,3,27,53,766,['n'],1,right,['2'],5,160,[-0.09483161],89,53,easy,minus,dotcolour,alfa,,,80,18,V,R,
405,27,27,9,3,36,44,699,['c'],0,right,['2'],5,159,[0.07991855],86,44,hard,minus,dotcolour,alfa,,,80,18,V,R,
406,28,28,9,3,53,27,616,['c'],1,left,['2'],5,80,[0.08202534],93,53,easy,minus,dotcolour,alfa,,,80,18,V,R,
407,29,29,9,3,36,44,732,['c'],0,right,['2'],5,121,[0.10471811],94,44,hard,minus,dotcolour,alfa,,,80,18,V,R,
408,30,30,9,3,44,36,616,['c'],1,left,['2'],5,116,[0.0928533],92,44,hard,minus,dotcolour,alfa,,,80,18,V,R,
409,31,31,9,3,47,33,666,['c'],1,left,['2'],5,31,[0.07853615],98,47,medium,minus,dotcolour,alfa,,,80,18,V,R,
410,32,32,9,3,47,33,682,['c'],1,left,['2'],5,75,[0.07007619],91,47,medium,minus,dotcolour,alfa,,,80,18,V,R,
411,33,33,9,3,36,44,596,['c'],0,right,['2'],5,25,[0.08499539],99,44,hard,minus,dotcolour,alfa,,,80,18,V,R,
412,34,34,9,3,53,27,532,['c'],1,left,['2'],5,85,[0.1151393],97,53,easy,minus,dotcolour,alfa,,,80,18,V,R,
413,35,35,9,3,27,53,882,['n'],1,right,['2'],5,95,[-0.06174793],86,53,easy,minus,dotcolour,alfa,,,80,18,V,R,
414,36,36,9,3,36,44,714,['c'],0,right,['2'],5,79,[0.02361084],68,44,hard,minus,dotcolour,alfa,,,80,18,V,R,
415,37,37,9,3,33,47,616,['c'],0,right,['2'],5,13,[0.07434218],100,47,medium,minus,dotcolour,alfa,,,80,18,V,R,
416,38,38,9,3,36,44,898,['c'],0,right,['2'],5,57,[0.0562451],89,44,hard,minus,dotcolour,alfa,,,80,18,V,R,
417,39,39,9,3,27,53,1932,['n'],1,right,['2'],5,99,[-0.07770408],90,53,easy,minus,dotcolour,alfa,,,80,18,V,R,
418,40,40,9,3,44,36,848,['c'],1,left,['3'],4,2127,[0.23965265],81,44,hard,minus,dotcolour,alfa,,,80,18,V,R,
419,41,41,9,3,47,33,665,['c'],1,left,['3'],4,80,[0.11741573],98,47,medium,minus,dotcolour,alfa,,,80,18,V,R,
420,42,0,10,3,53,27,616,['c'],1,left,['3'],4,82,[0.07031599],90,53,easy,minus,dotcolour,alfa,,,80,18,V,R,
421,43,1,10,3,36,44,616,['n'],1,right,['2'],5,104,[-0.10438212],95,44,hard,minus,dotcolour,alfa,,,80,18,V,R,
422,44,2,10,3,27,53,781,['c'],0,right,['2'],5,46,[0.08586529],97,53,easy,minus,dotcolour,alfa,,,80,18,V,R,
423,45,3,10,3,47,33,748,['c'],1,left,['2'],5,39,[0.08172792],98,47,medium,minus,dotcolour,alfa,,,80,18,V,R,
424,46,4,10,3,27,53,532,['n'],1,right,['3'],4,97,[-0.1032304],95,53,easy,minus,dotcolour,alfa,,,80,18,V,R,
425,47,5,10,3,44,36,632,['c'],1,left,['3'],4,69,[0.09019595],96,44,hard,minus,dotcolour,alfa,,,80,18,V,R,
426,48,6,10,3,33,47,649,['n'],1,right,['3'],4,98,[-0.06045883],85,47,medium,minus,dotcolour,alfa,,,80,18,V,R,
427,49,7,10,3,33,47,732,['n'],1,right,['3'],4,82,[-0.07484612],91,47,medium,minus,dotcolour,alfa,,,80,18,V,R,
428,50,8,10,3,44,36,631,['c'],1,left,['3'],4,87,[0.12244807],98,44,hard,minus,dotcolour,alfa,,,80,18,V,R,
429,51,9,10,3,27,53,864,['n'],1,right,['3'],4,163,[-0.02649628],64,53,easy,minus,dotcolour,alfa,,,80,18,V,R,
430,52,10,10,3,47,33,599,['c'],1,left,['2'],5,53,[0.09407157],98,47,medium,minus,dotcolour,alfa,,,80,18,V,R,
431,53,11,10,3,44,36,733,['c'],1,left,['2'],5,31,[0.10330116],99,44,hard,minus,dotcolour,alfa,,,80,18,V,R,
432,54,12,10,3,47,33,698,['c'],1,left,['2'],5,83,[0.14100064],99,47,medium,minus,dotcolour,alfa,,,80,18,V,R,
433,55,13,10,3,27,53,813,['n'],1,right,['2'],5,88,[-0.10864905],96,53,easy,minus,dotcolour,alfa,,,80,18,V,R,
434,56,14,10,3,27,53,699,['n'],1,right,['2'],5,113,[-0.07372753],88,53,easy,minus,dotcolour,alfa,,,80,18,V,R,
435,57,15,10,3,47,33,666,['c'],1,left,['2'],5,148,[0.05711151],79,47,medium,minus,dotcolour,alfa,,,80,18,V,R,
436,58,16,10,3,47,33,682,['c'],1,left,['2'],5,163,[0.12273142],94,47,medium,minus,dotcolour,alfa,,,80,18,V,R,
437,59,17,10,3,33,47,815,['n'],1,right,['2'],5,109,[-0.09009854],92,47,medium,minus,dotcolour,alfa,,,80,18,V,R,
438,60,18,10,3,53,27,699,['c'],1,left,['2'],5,94,[0.04429922],79,53,easy,minus,dotcolour,alfa,,,80,18,V,R,
439,61,19,10,3,44,36,1283,['n'],0,left,['2'],5,129,[-0.09652139],92,44,hard,minus,dotcolour,alfa,,,80,18,V,R,
440,62,20,10,3,27,53,682,['n'],1,right,['2'],5,113,[-0.10793627],95,53,easy,minus,dotcolour,alfa,,,80,18,V,R,
441,63,21,10,3,27,53,581,['n'],1,right,['2'],5,94,[-0.09410876],94,53,easy,minus,dotcolour,alfa,,,80,18,V,R,
442,64,22,10,3,44,36,799,['c'],1,left,['2'],5,148,[0.10709439],92,44,hard,minus,dotcolour,alfa,,,80,18,V,R,
443,65,23,10,3,53,27,782,['c'],1,left,['2'],5,88,[0.13055277],98,53,easy,minus,dotcolour,alfa,,,80,18,V,R,
444,66,24,10,3,36,44,1032,['n'],1,right,['2'],5,108,[-0.09101326],92,44,hard,minus,dotcolour,alfa,,,80,18,V,R,
445,67,25,10,3,36,44,681,['n'],1,right,['2'],5,101,[-0.0672823],87,44,hard,minus,dotcolour,alfa,,,80,18,V,R,
446,68,26,10,3,36,44,798,['n'],1,right,['3'],4,154,[-0.0349671],69,44,hard,minus,dotcolour,alfa,,,80,18,V,R,
447,69,27,10,3,36,44,798,['c'],0,right,['3'],4,69,[0.06573656],90,44,hard,minus,dotcolour,alfa,,,80,18,V,R,
448,70,28,10,3,36,44,698,['n'],1,right,['3'],4,95,[-0.13127158],98,44,hard,minus,dotcolour,alfa,,,80,18,V,R,
449,71,29,10,3,33,47,781,['n'],1,right,['3'],4,118,[-0.09702107],93,47,medium,minus,dotcolour,alfa,,,80,18,V,R,
450,72,30,10,3,44,36,865,['c'],1,left,['3'],4,40,[0.08814866],98,44,hard,minus,dotcolour,alfa,,,80,18,V,R,
451,73,31,10,3,33,47,1230,['c'],0,right,['3'],4,54,[0.06009376],91,47,medium,minus,dotcolour,alfa,,,80,18,V,R,
452,74,32,10,3,47,33,684,['c'],1,left,['3'],4,105,[0.05781086],83,47,medium,minus,dotcolour,alfa,,,80,18,V,R,
453,75,33,10,3,33,47,849,['n'],1,right,['3'],4,132,[-0.03154605],69,47,medium,minus,dotcolour,alfa,,,80,18,V,R,
454,76,34,10,3,53,27,1614,['n'],0,left,['3'],4,47,[-0.10647549],99,53,easy,minus,dotcolour,alfa,,,80,18,V,R,
455,77,35,10,3,53,27,750,['c'],1,left,['3'],4,65,[0.10859237],98,53,easy,minus,dotcolour,alfa,,,80,18,V,R,
456,78,36,10,3,47,33,648,['c'],1,left,['3'],4,54,[0.06074749],91,47,medium,minus,dotcolour,alfa,,,80,18,V,R,
457,79,37,10,3,33,47,617,['n'],1,right,['3'],4,69,[-0.10613812],97,47,medium,minus,dotcolour,alfa,,,80,18,V,R,
458,80,38,10,3,44,36,948,['c'],1,left,['3'],4,117,[0.03929658],74,44,hard,minus,dotcolour,alfa,,,80,18,V,R,
459,81,39,10,3,53,27,648,['c'],1,left,['3'],4,135,[0.04411513],75,53,easy,minus,dotcolour,alfa,,,80,18,V,R,
460,82,40,10,3,53,27,3748,['c'],1,left,['3'],4,126,[0.06231148],83,53,easy,minus,dotcolour,alfa,,,80,18,V,R,
461,83,41,10,3,36,44,749,['n'],1,right,['2'],5,131,[-0.09578266],92,44,hard,minus,dotcolour,alfa,,,80,18,V,R,
462,84,0,11,3,47,33,766,['n'],0,left,['3'],4,89,[-0.04730585],81,47,medium,minus,dotcolour,alfa,,,80,18,V,R,
463,85,1,11,3,44,36,614,['n'],0,left,['3'],4,95,[-0.07464329],90,44,hard,minus,dotcolour,alfa,,,80,18,V,R,
464,86,2,11,3,33,47,532,['n'],1,right,['3'],4,79,[-0.11213136],97,47,medium,minus,dotcolour,alfa,,,80,18,V,R,
465,87,3,11,3,27,53,532,['n'],1,right,['3'],4,111,[-0.06983077],87,53,easy,minus,dotcolour,alfa,,,80,18,V,R,
466,88,4,11,3,53,27,649,['c'],1,left,['2'],5,90,[0.08362531],92,53,easy,minus,dotcolour,alfa,,,80,18,V,R,
467,89,5,11,3,53,27,666,['c'],1,left,['2'],5,133,[0.11471422],94,53,easy,minus,dotcolour,alfa,,,80,18,V,R,
468,90,6,11,3,53,27,715,['c'],1,left,['2'],5,4,[0.06805274],100,53,easy,minus,dotcolour,alfa,,,80,18,V,R,
469,91,7,11,3,47,33,914,['c'],1,left,['2'],5,17,[0.07850569],100,47,medium,minus,dotcolour,alfa,,,80,18,V,R,
470,92,8,11,3,44,36,599,['c'],1,left,['2'],5,74,[0.0994925],96,44,hard,minus,dotcolour,alfa,,,80,18,V,R,
471,93,9,11,3,27,53,800,['n'],1,right,['2'],5,120,[-0.14039957],97,53,easy,minus,dotcolour,alfa,,,80,18,V,R,
472,94,10,11,3,33,47,849,['n'],1,right,['8'],3,803,[-0.17209681],85,47,medium,minus,dotcolour,alfa,,,80,18,V,R,
473,95,11,11,3,53,27,882,['c'],1,left,['3'],4,81,[0.05163625],84,53,easy,minus,dotcolour,alfa,,,80,18,V,R,
474,96,12,11,3,27,53,1065,['c'],0,right,['2'],5,132,[0.09431883],91,53,easy,minus,dotcolour,alfa,,,80,18,V,R,
475,97,13,11,3,47,33,898,['c'],1,left,['2'],5,36,[0.0512301],92,47,medium,minus,dotcolour,alfa,,,80,18,V,R,
476,98,14,11,3,33,47,648,['n'],1,right,['3'],4,82,[-0.07795387],92,47,medium,minus,dotcolour,alfa,,,80,18,V,R,
477,99,15,11,3,33,47,633,['n'],1,right,['3'],4,95,[-0.04948927],81,47,medium,minus,dotcolour,alfa,,,80,18,V,R,
478,100,16,11,3,47,33,751,['c'],1,left,['3'],4,70,[0.08278889],94,47,medium,minus,dotcolour,alfa,,,80,18,V,R,
479,101,17,11,3,53,27,798,['c'],1,left,['3'],4,76,[0.08110291],93,53,easy,minus,dotcolour,alfa,,,80,18,V,R,
480,102,18,11,3,27,53,682,['n'],1,right,['3'],4,103,[-0.11401436],96,53,easy,minus,dotcolour,alfa,,,80,18,V,R,
481,103,19,11,3,47,33,948,['c'],1,left,['2'],5,175,[0.13229784],95,47,medium,minus,dotcolour,alfa,,,80,18,V,R,
482,104,20,11,3,44,36,831,['n'],0,left,['2'],5,111,[-0.03602136],73,44,hard,minus,dotcolour,alfa,,,80,18,V,R,
483,105,21,11,3,47,33,1014,['c'],1,left,['3'],4,35,[0.09212671],99,47,medium,minus,dotcolour,alfa,,,80,18,V,R,
484,106,22,11,3,53,27,633,['c'],1,left,['2'],5,74,[0.07066276],91,53,easy,minus,dotcolour,alfa,,,80,18,V,R,
485,107,23,11,3,33,47,563,['n'],1,right,['2'],5,114,[-0.08380396],90,47,medium,minus,dotcolour,alfa,,,80,18,V,R,
486,108,24,11,3,47,33,898,['c'],1,left,['3'],4,59,[0.06260292],91,47,medium,minus,dotcolour,alfa,,,80,18,V,R,
487,109,25,11,3,36,44,1014,['n'],1,right,['3'],4,105,[-0.04375775],77,44,hard,minus,dotcolour,alfa,,,80,18,V,R,
488,110,26,11,3,53,27,799,['c'],1,left,['3'],4,150,[0.05686695],79,53,easy,minus,dotcolour,alfa,,,80,18,V,R,
489,111,27,11,3,44,36,782,['n'],0,left,['3'],4,58,[-0.05826835],90,44,hard,minus,dotcolour,alfa,,,80,18,V,R,
490,112,28,11,3,27,53,765,['n'],1,right,['3'],4,787,[-0.0355322],59,53,easy,minus,dotcolour,alfa,,,80,18,V,R,
491,113,29,11,3,33,47,596,['n'],1,right,['3'],4,140,[-0.08050667],87,47,medium,minus,dotcolour,alfa,,,80,18,V,R,
492,114,30,11,3,44,36,1398,['n'],0,left,['3'],4,95,[-0.09080726],93,44,hard,minus,dotcolour,alfa,,,80,18,V,R,
493,115,31,11,3,36,44,1015,['n'],1,right,['3'],4,156,[-0.06202754],80,44,hard,minus,dotcolour,alfa,,,80,18,V,R,
494,116,32,11,3,36,44,749,['n'],1,right,['3'],4,136,[-0.03338552],69,44,hard,minus,dotcolour,alfa,,,80,18,V,R,
495,117,33,11,3,44,36,684,['c'],1,left,['3'],4,113,[0.01058666],57,44,hard,minus,dotcolour,alfa,,,80,18,V,R,
496,118,34,11,3,36,44,682,['c'],0,right,['3'],4,131,[0.04651789],76,44,hard,minus,dotcolour,alfa,,,80,18,V,R,
497,119,35,11,3,27,53,797,['n'],1,right,['3'],4,103,[-0.12588722],97,53,easy,minus,dotcolour,alfa,,,80,18,V,R,
498,120,36,11,3,36,44,998,['n'],1,right,['3'],4,100,[-0.11826624],97,44,hard,minus,dotcolour,alfa,,,80,18,V,R,
499,121,37,11,3,36,44,598,['n'],1,right,['3'],4,89,[-0.0579124],85,44,hard,minus,dotcolour,alfa,,,80,18,V,R,
500,122,38,11,3,33,47,648,['n'],1,right,['3'],4,85,[-0.07442037],91,47,medium,minus,dotcolour,alfa,,,80,18,V,R,
501,123,39,11,3,27,53,515,['n'],1,right,['3'],4,70,[-0.022826],68,53,easy,minus,dotcolour,alfa,,,80,18,V,R,
502,124,40,11,3,36,44,532,['n'],1,right,['3'],4,95,[-0.09325572],94,44,hard,minus,dotcolour,alfa,,,80,18,V,R,
503,125,41,11,3,44,36,431,['n'],0,left,['3'],4,75,[-0.09517848],96,44,hard,minus,dotcolour,alfa,,,80,18,V,R,
504,0,0,12,4,27,53,567,['n'],1,right,['3'],4,55,[-0.05864021],100,53,easy,plus,dotcolour,alfa,,,80,18,V,R,
505,1,1,12,4,27,53,516,['n'],1,right,['2'],5,57,[-0.11907908],100,53,easy,plus,dotcolour,alfa,,,80,18,V,R,
506,2,2,12,4,47,33,1165,['c'],1,left,['3'],4,89,[0.10492323],100,47,medium,plus,dotcolour,alfa,,,80,18,V,R,
507,3,3,12,4,53,27,815,['c'],1,left,['3'],4,15,[0.1016162],100,53,easy,plus,dotcolour,alfa,,,80,18,V,R,
508,4,4,12,4,47,33,682,['c'],1,left,['2'],5,604,[0.07018877],96,47,medium,plus,dotcolour,alfa,,,80,18,V,R,
509,5,5,12,4,47,33,782,['c'],1,left,['2'],5,53,[0.05542266],100,47,medium,plus,dotcolour,alfa,,,80,18,V,R,
510,6,6,12,4,44,36,631,['n'],0,left,['2'],5,115,[-0.04750042],99,44,hard,plus,dotcolour,alfa,,,80,18,V,R,
511,7,7,12,4,44,36,715,['c'],1,left,['2'],5,611,[0.23961564],100,44,hard,plus,dotcolour,alfa,,,80,18,V,R,
512,8,8,12,4,53,27,583,['c'],1,left,['2'],5,60,[0.09799225],100,53,easy,plus,dotcolour,alfa,,,80,18,V,R,
513,9,9,12,4,44,36,632,['c'],1,left,['2'],5,90,[0.05689907],100,44,hard,plus,dotcolour,alfa,,,80,18,V,R,
514,10,10,12,4,33,47,649,['n'],1,right,['2'],5,118,[-0.09793102],100,47,medium,plus,dotcolour,alfa,,,80,18,V,R,
515,11,11,12,4,33,47,648,['n'],1,right,['2'],5,120,[-0.1142331],100,47,medium,plus,dotcolour,alfa,,,80,18,V,R,
516,12,12,12,4,36,44,633,['n'],1,right,['2'],5,116,[-0.05787218],100,44,hard,plus,dotcolour,alfa,,,80,18,V,R,
517,13,13,12,4,33,47,899,['n'],1,right,['2'],5,148,[-0.09957702],100,47,medium,plus,dotcolour,alfa,,,80,18,V,R,
518,14,14,12,4,47,33,799,['n'],0,left,['2'],5,144,[-0.0503298],99,47,medium,plus,dotcolour,alfa,,,80,18,V,R,
519,15,15,12,4,36,44,649,['n'],1,right,['2'],5,121,[-0.04058395],99,44,hard,plus,dotcolour,alfa,,,80,18,V,R,
520,16,16,12,4,53,27,614,['c'],1,left,['2'],5,69,[0.05682199],100,53,easy,plus,dotcolour,alfa,,,80,18,V,R,
521,17,17,12,4,36,44,515,['n'],1,right,['2'],5,119,[-0.09059883],100,44,hard,plus,dotcolour,alfa,,,80,18,V,R,
522,18,18,12,4,53,27,682,['c'],1,left,['2'],5,88,[0.18054395],100,53,easy,plus,dotcolour,alfa,,,80,18,V,R,
523,19,19,12,4,27,53,465,['n'],1,right,['2'],5,124,[-0.10382192],100,53,easy,plus,dotcolour,alfa,,,80,18,V,R,
524,20,20,12,4,53,27,615,['c'],1,left,['2'],5,56,[0.06486832],100,53,easy,plus,dotcolour,alfa,,,80,18,V,R,
525,21,21,12,4,27,53,763,['n'],1,right,['2'],5,832,[-0.13304776],99,53,easy,plus,dotcolour,alfa,,,80,18,V,R,
526,22,22,12,4,36,44,1649,['c'],0,right,['2'],5,22,[0.08313624],100,44,hard,plus,dotcolour,alfa,,,80,18,V,R,
527,23,23,12,4,33,47,583,['n'],1,right,['2'],5,206,[-0.05219892],98,47,medium,plus,dotcolour,alfa,,,80,18,V,R,
528,24,24,12,4,27,53,782,['n'],1,right,['3'],4,129,[-0.09609446],100,53,easy,plus,dotcolour,alfa,,,80,18,V,R,
529,25,25,12,4,53,27,850,['c'],1,left,['3'],4,66,[0.07703383],100,53,easy,plus,dotcolour,alfa,,,80,18,V,R,
530,26,26,12,4,27,53,682,['n'],1,right,['3'],4,133,[-0.10232801],100,53,easy,plus,dotcolour,alfa,,,80,18,V,R,
531,27,27,12,4,44,36,699,['c'],1,left,['3'],4,77,[0.06362346],100,44,hard,plus,dotcolour,alfa,,,80,18,V,R,
532,28,28,12,4,36,44,547,['n'],1,right,['2'],5,109,[-0.1072639],100,44,hard,plus,dotcolour,alfa,,,80,18,V,R,
533,29,29,12,4,44,36,865,['c'],1,left,['2'],5,23,[0.06716641],100,44,hard,plus,dotcolour,alfa,,,80,18,V,R,
534,30,30,12,4,36,44,849,['c'],0,right,['2'],5,22,[0.06458738],100,44,hard,plus,dotcolour,alfa,,,80,18,V,R,
535,31,31,12,4,47,33,1048,['c'],1,left,['2'],5,852,[0.21478494],100,47,medium,plus,dotcolour,alfa,,,80,18,V,R,
536,32,32,12,4,33,47,682,['n'],1,right,['2'],5,136,[-0.13391399],100,47,medium,plus,dotcolour,alfa,,,80,18,V,R,
537,33,33,12,4,47,33,699,['c'],1,left,['2'],5,32,[0.07936087],100,47,medium,plus,dotcolour,alfa,,,80,18,V,R,
538,34,34,12,4,44,36,1000,['c'],1,left,['2'],5,320,[0.11774348],100,44,hard,plus,dotcolour,alfa,,,80,18,V,R,
539,35,35,12,4,33,47,899,['n'],1,right,['2'],5,136,[-0.07354332],100,47,medium,plus,dotcolour,alfa,,,80,18,V,R,
540,36,36,12,4,33,47,682,['n'],1,right,['3'],4,105,[-0.09536108],100,47,medium,plus,dotcolour,alfa,,,80,18,V,R,
541,37,37,12,4,36,44,699,['n'],1,right,['2'],5,137,[-0.13351705],100,44,hard,plus,dotcolour,alfa,,,80,18,V,R,
542,38,38,12,4,27,53,514,['n'],1,right,['2'],5,96,[-0.0903736],100,53,easy,plus,dotcolour,alfa,,,80,18,V,R,
543,39,39,12,4,47,33,598,['c'],1,left,['2'],5,69,[0.10730267],100,47,medium,plus,dotcolour,alfa,,,80,18,V,R,
544,40,40,12,4,53,27,1133,['c'],1,left,['2'],5,38,[0.06920168],100,53,easy,plus,dotcolour,alfa,,,80,18,V,R,
545,41,41,12,4,44,36,1199,['n'],0,left,['3'],4,134,[-0.05082806],99,44,hard,plus,dotcolour,alfa,,,80,18,V,R,
546,42,0,13,4,27,53,633,['n'],1,right,['3'],4,99,[-0.12882036],100,53,easy,plus,dotcolour,alfa,,,80,18,V,R,
547,43,1,13,4,36,44,515,['n'],1,right,['3'],4,124,[-0.02075311],89,44,hard,plus,dotcolour,alfa,,,80,18,V,R,
548,44,2,13,4,33,47,631,['n'],1,right,['3'],4,126,[-0.03388931],97,47,medium,plus,dotcolour,alfa,,,80,18,V,R,
549,45,3,13,4,53,27,782,['c'],1,left,['3'],4,108,[0.10268397],100,53,easy,plus,dotcolour,alfa,,,80,18,V,R,
550,46,4,13,4,53,27,732,['c'],1,left,['2'],5,107,[0.05291779],100,53,easy,plus,dotcolour,alfa,,,80,18,V,R,
551,47,5,13,4,27,53,681,['n'],1,right,['3'],4,149,[-0.07236526],100,53,easy,plus,dotcolour,alfa,,,80,18,V,R,
552,48,6,13,4,44,36,667,['n'],0,left,['8'],3,230,[-0.06997307],99,44,hard,plus,dotcolour,alfa,,,80,18,V,R,
553,49,7,13,4,33,47,666,['n'],1,right,['2'],5,67,[-0.05349966],100,47,medium,plus,dotcolour,alfa,,,80,18,V,R,
554,50,8,13,4,36,44,766,['n'],1,right,['3'],4,163,[-0.08244948],100,44,hard,plus,dotcolour,alfa,,,80,18,V,R,
555,51,9,13,4,53,27,883,['c'],1,left,['3'],4,90,[0.08198066],100,53,easy,plus,dotcolour,alfa,,,80,18,V,R,
556,52,10,13,4,47,33,5114,['c'],1,left,['2'],5,83,[0.07932574],100,47,medium,plus,dotcolour,alfa,,,80,18,V,R,
557,53,11,13,4,44,36,898,['c'],1,left,['2'],5,61,[0.07410197],100,44,hard,plus,dotcolour,alfa,,,80,18,V,R,
558,54,12,13,4,36,44,698,['n'],1,right,['2'],5,96,[-0.05718737],100,44,hard,plus,dotcolour,alfa,,,80,18,V,R,
559,55,13,13,4,47,33,715,['c'],1,left,['2'],5,56,[0.06979725],100,47,medium,plus,dotcolour,alfa,,,80,18,V,R,
560,56,14,13,4,27,53,465,['n'],1,right,['2'],5,124,[-0.06201138],100,53,easy,plus,dotcolour,alfa,,,80,18,V,R,
561,57,15,13,4,53,27,581,['c'],1,left,['2'],5,57,[0.07518624],100,53,easy,plus,dotcolour,alfa,,,80,18,V,R,
562,58,16,13,4,47,33,599,['c'],1,left,['2'],5,15,[0.06574121],100,47,medium,plus,dotcolour,alfa,,,80,18,V,R,
563,59,17,13,4,27,53,499,['n'],1,right,['2'],5,132,[-0.13020788],100,53,easy,plus,dotcolour,alfa,,,80,18,V,R,
564,60,18,13,4,33,47,582,['n'],1,right,['2'],5,161,[-0.13479366],100,47,medium,plus,dotcolour,alfa,,,80,18,V,R,
565,61,19,13,4,53,27,566,['c'],1,left,['2'],5,149,[0.10032972],100,53,easy,plus,dotcolour,alfa,,,80,18,V,R,
566,62,20,13,4,47,33,781,['c'],1,left,['2'],5,9,[0.08268362],100,47,medium,plus,dotcolour,alfa,,,80,18,V,R,
567,63,21,13,4,27,53,699,['n'],1,right,['2'],5,142,[-0.10220078],100,53,easy,plus,dotcolour,alfa,,,80,18,V,R,
568,64,22,13,4,47,33,680,['c'],1,left,['2'],5,54,[0.05604608],100,47,medium,plus,dotcolour,alfa,,,80,18,V,R,
569,65,23,13,4,27,53,482,['n'],1,right,['2'],5,193,[-0.04038162],96,53,easy,plus,dotcolour,alfa,,,80,18,V,R,
570,66,24,13,4,53,27,699,['c'],1,left,['2'],5,6,[0.07139055],100,53,easy,plus,dotcolour,alfa,,,80,18,V,R,
571,67,25,13,4,36,44,683,['n'],1,right,['2'],5,140,[-0.03578809],97,44,hard,plus,dotcolour,alfa,,,80,18,V,R,
572,68,26,13,4,33,47,949,['c'],0,right,['2'],5,1,[0.07248965],100,47,medium,plus,dotcolour,alfa,,,80,18,V,R,
573,69,27,13,4,47,33,784,['c'],1,left,['2'],5,1323,[0.06048607],87,47,medium,plus,dotcolour,alfa,,,80,18,V,R,
574,70,28,13,4,44,36,581,['n'],0,left,['2'],5,136,[-0.02166374],89,44,hard,plus,dotcolour,alfa,,,80,18,V,R,
575,71,29,13,4,47,33,682,['c'],1,left,['2'],5,24,[0.07383851],100,47,medium,plus,dotcolour,alfa,,,80,18,V,R,
576,72,30,13,4,44,36,965,['n'],0,left,['3'],4,98,[-0.05693271],100,44,hard,plus,dotcolour,alfa,,,80,18,V,R,
577,73,31,13,4,33,47,816,['c'],0,right,['2'],5,15,[0.07298288],100,47,medium,plus,dotcolour,alfa,,,80,18,V,R,
578,74,32,13,4,53,27,1183,['c'],1,left,['2'],5,161,[0.07755854],100,53,easy,plus,dotcolour,alfa,,,80,18,V,R,
579,75,33,13,4,44,36,699,['n'],0,left,['2'],5,103,[-0.04952829],100,44,hard,plus,dotcolour,alfa,,,80,18,V,R,
580,76,34,13,4,33,47,733,['n'],1,right,['2'],5,119,[-0.0576678],100,47,medium,plus,dotcolour,alfa,,,80,18,V,R,
581,77,35,13,4,36,44,600,['n'],1,right,['2'],5,91,[-0.09203813],100,44,hard,plus,dotcolour,alfa,,,80,18,V,R,
582,78,36,13,4,36,44,734,['n'],1,right,['2'],5,156,[-0.0276653],93,44,hard,plus,dotcolour,alfa,,,80,18,V,R,
583,79,37,13,4,44,36,949,['c'],1,left,['2'],5,3776,[-0.0246471],39,44,hard,plus,dotcolour,alfa,,,80,18,V,R,
584,80,38,13,4,33,47,4799,['c'],0,right,['3'],4,354,[0.09023194],100,47,medium,plus,dotcolour,alfa,,,80,18,V,R,
585,81,39,13,4,27,53,1449,['n'],1,right,['3'],4,163,[-0.14722519],100,53,easy,plus,dotcolour,alfa,,,80,18,V,R,
586,82,40,13,4,44,36,732,['c'],1,left,['2'],5,80,[0.05997751],100,44,hard,plus,dotcolour,alfa,,,80,18,V,R,
587,83,41,13,4,36,44,549,['n'],1,right,['2'],5,121,[-0.03741275],98,44,hard,plus,dotcolour,alfa,,,80,18,V,R,
588,84,0,14,4,27,53,1516,['n'],1,right,['8'],3,375,[-0.27261951],100,53,easy,plus,dotcolour,alfa,,,80,18,V,R,
589,85,1,14,4,53,27,747,['c'],1,left,['3'],4,67,[0.09338142],100,53,easy,plus,dotcolour,alfa,,,80,18,V,R,
590,86,2,14,4,33,47,767,['n'],1,right,['8'],3,619,[-0.22209452],100,47,medium,plus,dotcolour,alfa,,,80,18,V,R,
591,87,3,14,4,36,44,698,['n'],1,right,['3'],4,119,[-0.09984576],100,44,hard,plus,dotcolour,alfa,,,80,18,V,R,
592,88,4,14,4,53,27,748,['c'],1,left,['3'],4,86,[0.07645029],100,53,easy,plus,dotcolour,alfa,,,80,18,V,R,
593,89,5,14,4,53,27,798,['c'],1,left,['2'],5,148,[0.06024883],100,53,easy,plus,dotcolour,alfa,,,80,18,V,R,
594,90,6,14,4,44,36,816,['n'],0,left,['2'],5,95,[-0.06957223],100,44,hard,plus,dotcolour,alfa,,,80,18,V,R,
595,91,7,14,4,27,53,566,['n'],1,right,['2'],5,117,[-0.07787758],100,53,easy,plus,dotcolour,alfa,,,80,18,V,R,
596,92,8,14,4,36,44,732,['n'],1,right,['2'],5,197,[-0.05712682],99,44,hard,plus,dotcolour,alfa,,,80,18,V,R,
597,93,9,14,4,36,44,648,['n'],1,right,['2'],5,116,[-0.05586801],100,44,hard,plus,dotcolour,alfa,,,80,18,V,R,
598,94,10,14,4,53,27,764,['c'],1,left,['2'],5,522,[0.13233083],100,53,easy,plus,dotcolour,alfa,,,80,18,V,R,
599,95,11,14,4,33,47,798,['n'],1,right,['2'],5,118,[-0.03095792],96,47,medium,plus,dotcolour,alfa,,,80,18,V,R,
600,96,12,14,4,27,53,550,['n'],1,right,['2'],5,118,[-0.07024255],100,53,easy,plus,dotcolour,alfa,,,80,18,V,R,
601,97,13,14,4,47,33,699,['c'],1,left,['2'],5,5,[0.09195066],100,47,medium,plus,dotcolour,alfa,,,80,18,V,R,
602,98,14,14,4,47,33,732,['n'],0,left,['2'],5,145,[-0.08418864],100,47,medium,plus,dotcolour,alfa,,,80,18,V,R,
603,99,15,14,4,53,27,717,['c'],1,left,['3'],4,176,[0.06768314],100,53,easy,plus,dotcolour,alfa,,,80,18,V,R,
604,100,16,14,4,36,44,666,['n'],1,right,['2'],5,120,[-0.05550217],100,44,hard,plus,dotcolour,alfa,,,80,18,V,R,
605,101,17,14,4,27,53,631,['n'],1,right,['2'],5,130,[-0.13902643],100,53,easy,plus,dotcolour,alfa,,,80,18,V,R,
606,102,18,14,4,44,36,998,['c'],1,left,['2'],5,38,[0.07361067],100,44,hard,plus,dotcolour,alfa,,,80,18,V,R,
607,103,19,14,4,44,36,666,['c'],1,left,['2'],5,99,[0.09696261],100,44,hard,plus,dotcolour,alfa,,,80,18,V,R,
608,104,20,14,4,44,36,915,['c'],1,left,['2'],5,155,[0.00874365],69,44,hard,plus,dotcolour,alfa,,,80,18,V,R,
609,105,21,14,4,44,36,1331,['n'],0,left,['8'],3,257,[-0.05698311],98,44,hard,plus,dotcolour,alfa,,,80,18,V,R,
610,106,22,14,4,53,27,898,['c'],1,left,['3'],4,92,[0.11625963],100,53,easy,plus,dotcolour,alfa,,,80,18,V,R,
611,107,23,14,4,44,36,999,['c'],1,left,['3'],4,73,[0.02017875],94,44,hard,plus,dotcolour,alfa,,,80,18,V,R,
612,108,24,14,4,53,27,2349,['c'],1,left,['3'],4,97,[0.06847713],100,53,easy,plus,dotcolour,alfa,,,80,18,V,R,
613,109,25,14,4,33,47,715,['n'],1,right,['3'],4,98,[-0.0920709],100,47,medium,plus,dotcolour,alfa,,,80,18,V,R,
614,110,26,14,4,36,44,733,['n'],1,right,['3'],4,98,[-0.06744305],100,44,hard,plus,dotcolour,alfa,,,80,18,V,R,
615,111,27,14,4,33,47,1215,['c'],0,right,['3'],4,111,[0.06969142],100,47,medium,plus,dotcolour,alfa,,,80,18,V,R,
616,112,28,14,4,27,53,698,['n'],1,right,['3'],4,87,[-0.10307909],100,53,easy,plus,dotcolour,alfa,,,80,18,V,R,
617,113,29,14,4,47,33,815,['c'],1,left,['3'],4,4,[0.07552837],100,47,medium,plus,dotcolour,alfa,,,80,18,V,R,
618,114,30,14,4,47,33,783,['c'],1,left,['2'],5,118,[0.11882802],100,47,medium,plus,dotcolour,alfa,,,80,18,V,R,
619,115,31,14,4,36,44,782,['n'],1,right,['2'],5,243,[-0.05846145],99,44,hard,plus,dotcolour,alfa,,,80,18,V,R,
620,116,32,14,4,27,53,1748,['n'],1,right,['8'],3,109,[-0.12116737],100,53,easy,plus,dotcolour,alfa,,,80,18,V,R,
621,117,33,14,4,33,47,1646,['c'],0,right,['3'],4,48,[0.07442689],100,47,medium,plus,dotcolour,alfa,,,80,18,V,R,
622,118,34,14,4,44,36,781,['c'],1,left,['3'],4,664,[0.11751183],99,44,hard,plus,dotcolour,alfa,,,80,18,V,R,
623,119,35,14,4,47,33,715,['c'],1,left,['3'],4,170,[0.03516257],96,47,medium,plus,dotcolour,alfa,,,80,18,V,R,
624,120,36,14,4,47,33,1131,['n'],0,left,['2'],5,119,[-0.04605738],99,47,medium,plus,dotcolour,alfa,,,80,18,V,R,
625,121,37,14,4,36,44,781,['c'],0,right,['2'],5,108,[0.0288807],96,44,hard,plus,dotcolour,alfa,,,80,18,V,R,
626,122,38,14,4,33,47,866,['c'],0,right,['3'],4,94,[0.0663306],100,47,medium,plus,dotcolour,alfa,,,80,18,V,R,
627,123,39,14,4,33,47,900,['n'],1,right,['3'],4,95,[-0.05715813],100,47,medium,plus,dotcolour,alfa,,,80,18,V,R,
628,124,40,14,4,27,53,565,['n'],1,right,['3'],4,110,[-0.13082233],100,53,easy,plus,dotcolour,alfa,,,80,18,V,R,
629,125,41,14,4,47,33,831,['c'],1,left,['3'],4,201,[0.15580368],100,47,medium,plus,dotcolour,alfa,,,80,18,V,R,
630,0,0,15,5,27,53,817,['n'],1,right,['2'],5,122,[-0.07885005],88,53,easy,minus,dotcolour,alfa,,,80,18,V,R,
631,1,1,15,5,44,36,698,['n'],0,left,['3'],4,114,[-0.09449408],93,44,hard,minus,dotcolour,alfa,,,80,18,V,R,
632,2,2,15,5,47,33,765,['c'],1,left,['2'],5,48,[0.06181331],93,47,medium,minus,dotcolour,alfa,,,80,18,V,R,
633,3,3,15,5,53,27,798,['c'],1,left,['2'],5,71,[0.14865333],99,53,easy,minus,dotcolour,alfa,,,80,18,V,R,
634,4,4,15,5,27,53,630,['n'],1,right,['2'],5,117,[-0.07731996],88,53,easy,minus,dotcolour,alfa,,,80,18,V,R,
635,5,5,15,5,36,44,664,['n'],1,right,['2'],5,111,[-0.09247288],92,44,hard,minus,dotcolour,alfa,,,80,18,V,R,
636,6,6,15,5,27,53,532,['n'],1,right,['2'],5,118,[-0.14012411],98,53,easy,minus,dotcolour,alfa,,,80,18,V,R,
637,7,7,15,5,53,27,665,['c'],1,left,['2'],5,72,[0.07394225],92,53,easy,minus,dotcolour,alfa,,,80,18,V,R,
638,8,8,15,5,53,27,633,['c'],1,left,['2'],5,109,[0.10139735],94,53,easy,minus,dotcolour,alfa,,,80,18,V,R,
639,9,9,15,5,27,53,932,['n'],1,right,['2'],5,12,[-0.07910791],100,53,easy,minus,dotcolour,alfa,,,80,18,V,R,
640,10,10,15,5,47,33,665,['c'],1,left,['2'],5,50,[0.054877],90,47,medium,minus,dotcolour,alfa,,,80,18,V,R,
641,11,11,15,5,33,47,4549,['n'],1,right,['2'],5,91,[-0.07454163],90,47,medium,minus,dotcolour,alfa,,,80,18,V,R,
642,12,12,15,5,47,33,816,['c'],1,left,['2'],5,40,[0.09725395],99,47,medium,minus,dotcolour,alfa,,,80,18,V,R,
643,13,13,15,5,33,47,715,['n'],1,right,['2'],5,99,[-0.05773882],84,47,medium,minus,dotcolour,alfa,,,80,18,V,R,
644,14,14,15,5,44,36,680,['c'],1,left,['2'],5,29,[0.07075983],98,44,hard,minus,dotcolour,alfa,,,80,18,V,R,
645,15,15,15,5,36,44,849,['n'],1,right,['2'],5,155,[-0.06074512],80,44,hard,minus,dotcolour,alfa,,,80,18,V,R,
646,16,16,15,5,53,27,749,['c'],1,left,['2'],5,40,[0.05697693],93,53,easy,minus,dotcolour,alfa,,,80,18,V,R,
647,17,17,15,5,53,27,681,['c'],1,left,['2'],5,44,[0.08490977],97,53,easy,minus,dotcolour,alfa,,,80,18,V,R,
648,18,18,15,5,27,53,734,['n'],1,right,['2'],5,182,[-0.12184428],93,53,easy,minus,dotcolour,alfa,,,80,18,V,R,
649,19,19,15,5,44,36,765,['c'],1,left,['3'],4,129,[0.11533674],95,44,hard,minus,dotcolour,alfa,,,80,18,V,R,
650,20,20,15,5,44,36,1016,['n'],0,left,['8'],3,245,[-0.04034077],68,44,hard,minus,dotcolour,alfa,,,80,18,V,R,
651,21,21,15,5,53,27,582,['c'],1,left,['3'],4,92,[0.08865233],93,53,easy,minus,dotcolour,alfa,,,80,18,V,R,
652,22,22,15,5,36,44,816,['n'],1,right,['2'],5,113,[-0.13368386],97,44,hard,minus,dotcolour,alfa,,,80,18,V,R,
653,23,23,15,5,33,47,783,['n'],1,right,['2'],5,111,[-0.06445408],85,47,medium,minus,dotcolour,alfa,,,80,18,V,R,
654,24,24,15,5,33,47,965,['n'],1,right,['8'],3,892,[-0.12750037],77,47,medium,minus,dotcolour,alfa,,,80,18,V,R,
655,25,25,15,5,53,27,1915,['c'],1,left,['3'],4,1781,[0.39374986],93,53,easy,minus,dotcolour,alfa,,,80,18,V,R,
656,26,26,15,5,44,36,4381,['n'],0,left,['8'],3,175,[-0.06698825],81,44,hard,minus,dotcolour,alfa,,,80,18,V,R,
657,27,27,15,5,36,44,4066,['n'],1,right,['8'],3,575,[-0.16648972],88,44,hard,minus,dotcolour,alfa,,,80,18,V,R,
658,28,28,15,5,44,36,2249,['n'],0,left,['2'],5,726,[0.02909162],42,44,hard,minus,dotcolour,alfa,,,80,18,V,R,
659,29,29,15,5,44,36,965,['c'],1,left,['3'],4,92,[0.04529231],79,44,hard,minus,dotcolour,alfa,,,80,18,V,R,
660,30,30,15,5,47,33,816,['c'],1,left,['2'],5,729,[0.13216033],80,47,medium,minus,dotcolour,alfa,,,80,18,V,R,
661,31,31,15,5,47,33,747,['c'],1,left,['2'],5,71,[0.08494757],95,47,medium,minus,dotcolour,alfa,,,80,18,V,R,
662,32,32,15,5,36,44,866,['n'],1,right,['2'],5,218,[-0.03657195],67,44,hard,minus,dotcolour,alfa,,,80,18,V,R,
663,33,33,15,5,36,44,781,['n'],1,right,['2'],5,107,[-0.02801081],68,44,hard,minus,dotcolour,alfa,,,80,18,V,R,
664,34,34,15,5,27,53,699,['n'],1,right,['2'],5,108,[-0.09784221],94,53,easy,minus,dotcolour,alfa,,,80,18,V,R,
665,35,35,15,5,27,53,616,['n'],1,right,['3'],4,104,[-0.08038867],90,53,easy,minus,dotcolour,alfa,,,80,18,V,R,
666,36,36,15,5,33,47,581,['n'],1,right,['3'],4,151,[-0.03785181],71,47,medium,minus,dotcolour,alfa,,,80,18,V,R,
667,37,37,15,5,33,47,482,['n'],1,right,['3'],4,110,[-0.10202574],94,47,medium,minus,dotcolour,alfa,,,80,18,V,R,
668,38,38,15,5,36,44,580,['n'],1,right,['3'],4,100,[-0.05377654],82,44,hard,minus,dotcolour,alfa,,,80,18,V,R,
669,39,39,15,5,47,33,1049,['c'],1,left,['3'],4,23,[0.06442782],98,47,medium,minus,dotcolour,alfa,,,80,18,V,R,
670,40,40,15,5,33,47,616,['n'],1,right,['3'],4,63,[-0.08087806],95,47,medium,minus,dotcolour,alfa,,,80,18,V,R,
671,41,41,15,5,47,33,898,['c'],1,left,['3'],4,33,[0.07851426],98,47,medium,minus,dotcolour,alfa,,,80,18,V,R,
672,42,0,16,5,53,27,1849,['c'],1,left,['3'],4,173,[0.13056649],94,53,easy,minus,dotcolour,alfa,,,80,18,V,R,
673,43,1,16,5,53,27,830,['c'],1,left,['2'],5,111,[0.12994278],97,53,easy,minus,dotcolour,alfa,,,80,18,V,R,
674,44,2,16,5,47,33,515,['c'],1,left,['2'],5,127,[0.10047705],93,47,medium,minus,dotcolour,alfa,,,80,18,V,R,
675,45,3,16,5,53,27,566,['c'],1,left,['2'],5,2556,[0.61223109],97,53,easy,minus,dotcolour,alfa,,,80,18,V,R,
676,46,4,16,5,27,53,500,['n'],1,right,['2'],5,98,[-0.13871721],98,53,easy,minus,dotcolour,alfa,,,80,18,V,R,
677,47,5,16,5,36,44,815,['n'],1,right,['8'],3,142,[-0.12079736],95,44,hard,minus,dotcolour,alfa,,,80,18,V,R,
678,48,6,16,5,33,47,816,['c'],0,right,['3'],4,33,[0.07821148],98,47,medium,minus,dotcolour,alfa,,,80,18,V,R,
679,49,7,16,5,53,27,682,['c'],1,left,['3'],4,70,[0.03702698],78,53,easy,minus,dotcolour,alfa,,,80,18,V,R,
680,50,8,16,5,47,33,616,['c'],1,left,['3'],4,60,[0.09432412],97,47,medium,minus,dotcolour,alfa,,,80,18,V,R,
681,51,9,16,5,33,47,681,['n'],1,right,['8'],3,215,[-0.10430583],88,47,medium,minus,dotcolour,alfa,,,80,18,V,R,
682,52,10,16,5,27,53,548,['n'],1,right,['3'],4,122,[-0.08604122],90,53,easy,minus,dotcolour,alfa,,,80,18,V,R,
683,53,11,16,5,53,27,699,['c'],1,left,['3'],4,67,[0.11689842],98,53,easy,minus,dotcolour,alfa,,,80,18,V,R,
684,54,12,16,5,47,33,616,['c'],1,left,['2'],5,216,[0.06752149],79,47,medium,minus,dotcolour,alfa,,,80,18,V,R,
685,55,13,16,5,33,47,815,['n'],1,right,['2'],5,120,[-0.07694182],88,47,medium,minus,dotcolour,alfa,,,80,18,V,R,
686,56,14,16,5,27,53,1399,['n'],1,right,['3'],4,116,[-0.04143416],75,53,easy,minus,dotcolour,alfa,,,80,18,V,R,
687,57,15,16,5,44,36,1098,['c'],1,left,['3'],4,181,[0.11592706],92,44,hard,minus,dotcolour,alfa,,,80,18,V,R,
688,58,16,16,5,36,44,799,['n'],1,right,['3'],4,111,[-0.13287036],97,44,hard,minus,dotcolour,alfa,,,80,18,V,R,
689,59,17,16,5,44,36,748,['c'],1,left,['3'],4,190,[0.03645889],68,44,hard,minus,dotcolour,alfa,,,80,18,V,R,
690,60,18,16,5,47,33,999,['c'],1,left,['3'],4,7,[0.06902588],100,47,medium,minus,dotcolour,alfa,,,80,18,V,R,
691,61,19,16,5,36,44,782,['n'],1,right,['3'],4,145,[-0.05994096],80,44,hard,minus,dotcolour,alfa,,,80,18,V,R,
692,62,20,16,5,44,36,899,['c'],1,left,['3'],4,112,[0.08187265],90,44,hard,minus,dotcolour,alfa,,,80,18,V,R,
693,63,21,16,5,53,27,1150,['c'],1,left,['3'],4,807,[0.21261707],89,53,easy,minus,dotcolour,alfa,,,80,18,V,R,
694,64,22,16,5,33,47,1583,['n'],1,right,['3'],4,105,[-0.08405977],91,47,medium,minus,dotcolour,alfa,,,80,18,V,R,
695,65,23,16,5,47,33,1082,['c'],1,left,['2'],5,67,[0.08021786],94,47,medium,minus,dotcolour,alfa,,,80,18,V,R,
696,66,24,16,5,47,33,730,['c'],1,left,['2'],5,59,[0.10623962],98,47,medium,minus,dotcolour,alfa,,,80,18,V,R,
697,67,25,16,5,27,53,599,['n'],1,right,['3'],4,106,[-0.08686349],92,53,easy,minus,dotcolour,alfa,,,80,18,V,R,
698,68,26,16,5,44,36,882,['c'],1,left,['3'],4,213,[0.10885735],89,44,hard,minus,dotcolour,alfa,,,80,18,V,R,
699,69,27,16,5,33,47,1200,['n'],1,right,['8'],3,229,[-0.06419202],77,47,medium,minus,dotcolour,alfa,,,80,18,V,R,
700,70,28,16,5,44,36,1582,['n'],0,left,['3'],4,166,[-0.0393507],70,44,hard,minus,dotcolour,alfa,,,80,18,V,R,
701,71,29,16,5,33,47,565,['n'],1,right,['3'],4,105,[-0.09430083],93,47,medium,minus,dotcolour,alfa,,,80,18,V,R,
702,72,30,16,5,44,36,549,['n'],0,left,['3'],4,65,[-0.04391927],82,44,hard,minus,dotcolour,alfa,,,80,18,V,R,
703,73,31,16,5,36,44,664,['n'],1,right,['3'],4,77,[-0.05707048],86,44,hard,minus,dotcolour,alfa,,,80,18,V,R,
704,74,32,16,5,33,47,648,['n'],1,right,['3'],4,105,[-0.10878489],95,47,medium,minus,dotcolour,alfa,,,80,18,V,R,
705,75,33,16,5,47,33,1133,['c'],1,left,['3'],4,153,[0.06360057],81,47,medium,minus,dotcolour,alfa,,,80,18,V,R,
706,76,34,16,5,36,44,733,['n'],1,right,['2'],5,39,[-0.05234883],92,44,hard,minus,dotcolour,alfa,,,80,18,V,R,
707,77,35,16,5,27,53,717,['n'],1,right,['2'],5,59,[-0.0983242],97,53,easy,minus,dotcolour,alfa,,,80,18,V,R,
708,78,36,16,5,36,44,1300,['n'],1,right,['1'],6,53,[-0.08666705],97,44,hard,minus,dotcolour,alfa,,,80,18,V,R,
709,79,37,16,5,36,44,733,['n'],1,right,['1'],6,79,[-0.09556889],96,44,hard,minus,dotcolour,alfa,,,80,18,V,R,
710,80,38,16,5,27,53,731,['n'],1,right,['1'],6,104,[-0.08291999],91,53,easy,minus,dotcolour,alfa,,,80,18,V,R,
711,81,39,16,5,27,53,616,['n'],1,right,['1'],6,84,[-0.03801126],77,53,easy,minus,dotcolour,alfa,,,80,18,V,R,
712,82,40,16,5,53,27,714,['c'],1,left,['1'],6,118,[0.03046451],69,53,easy,minus,dotcolour,alfa,,,80,18,V,R,
713,83,41,16,5,44,36,681,['c'],1,left,['1'],6,135,[0.03273204],69,44,hard,minus,dotcolour,alfa,,,80,18,V,R,
714,84,0,17,5,53,27,583,['c'],1,left,['2'],5,107,[0.07899251],90,53,easy,minus,dotcolour,alfa,,,80,18,V,R,
715,85,1,17,5,47,33,565,['c'],1,left,['2'],5,8,[0.07161657],100,47,medium,minus,dotcolour,alfa,,,80,18,V,R,
716,86,2,17,5,53,27,565,['c'],1,left,['2'],5,107,[0.0375112],74,53,easy,minus,dotcolour,alfa,,,80,18,V,R,
717,87,3,17,5,53,27,533,['c'],1,left,['2'],5,835,[0.19426352],87,53,easy,minus,dotcolour,alfa,,,80,18,V,R,
718,88,4,17,5,27,53,766,['n'],1,right,['2'],5,196,[-0.08783464],86,53,easy,minus,dotcolour,alfa,,,80,18,V,R,
719,89,5,17,5,27,53,698,['n'],1,right,['3'],4,65,[-0.11330217],98,53,easy,minus,dotcolour,alfa,,,80,18,V,R,
720,90,6,17,5,36,44,1001,['n'],1,right,['3'],4,111,[-0.04161878],75,44,hard,minus,dotcolour,alfa,,,80,18,V,R,
721,91,7,17,5,27,53,933,['n'],1,right,['3'],4,103,[-0.07628203],89,53,easy,minus,dotcolour,alfa,,,80,18,V,R,
722,92,8,17,5,53,27,747,['n'],0,left,['3'],4,126,[-0.06974509],85,53,easy,minus,dotcolour,alfa,,,80,18,V,R,
723,93,9,17,5,33,47,1233,['n'],1,right,['3'],4,105,[-0.0963678],94,47,medium,minus,dotcolour,alfa,,,80,18,V,R,
724,94,10,17,5,27,53,648,['n'],1,right,['2'],5,84,[-0.09617797],95,53,easy,minus,dotcolour,alfa,,,80,18,V,R,
725,95,11,17,5,44,36,1082,['c'],1,left,['3'],4,127,[0.07277111],86,44,hard,minus,dotcolour,alfa,,,80,18,V,R,
726,96,12,17,5,36,44,816,['n'],1,right,['3'],4,74,[-0.0701046],91,44,hard,minus,dotcolour,alfa,,,80,18,V,R,
727,97,13,17,5,44,36,817,['c'],1,left,['3'],4,88,[0.07501948],91,44,hard,minus,dotcolour,alfa,,,80,18,V,R,
728,98,14,17,5,33,47,600,['n'],1,right,['3'],4,117,[-0.08211571],90,47,medium,minus,dotcolour,alfa,,,80,18,V,R,
729,99,15,17,5,36,44,965,['n'],1,right,['3'],4,116,[-0.04058597],75,44,hard,minus,dotcolour,alfa,,,80,18,V,R,
730,100,16,17,5,33,47,563,['n'],1,right,['3'],4,65,[-0.09681108],97,47,medium,minus,dotcolour,alfa,,,80,18,V,R,
731,101,17,17,5,36,44,682,['c'],0,right,['3'],4,117,[0.05090824],79,44,hard,minus,dotcolour,alfa,,,80,18,V,R,
732,102,18,17,5,53,27,648,['c'],1,left,['3'],4,103,[0.04433333],78,53,easy,minus,dotcolour,alfa,,,80,18,V,R,
733,103,19,17,5,33,47,1998,['n'],1,right,['3'],4,140,[-0.11765683],94,47,medium,minus,dotcolour,alfa,,,80,18,V,R,
734,104,20,17,5,33,47,582,['n'],1,right,['3'],4,96,[-0.13352333],98,47,medium,minus,dotcolour,alfa,,,80,18,V,R,
735,105,21,17,5,53,27,766,['c'],1,left,['3'],4,39,[0.05593533],93,53,easy,minus,dotcolour,alfa,,,80,18,V,R,
736,106,22,17,5,44,36,649,['c'],1,left,['3'],4,76,[0.07999043],93,44,hard,minus,dotcolour,alfa,,,80,18,V,R,
737,107,23,17,5,36,44,3115,['n'],1,right,['3'],4,229,[-0.09248468],85,44,hard,minus,dotcolour,alfa,,,80,18,V,R,
738,108,24,17,5,47,33,582,['c'],1,left,['3'],4,111,[0.08185587],90,47,medium,minus,dotcolour,alfa,,,80,18,V,R,
739,109,25,17,5,47,33,715,['c'],1,left,['2'],5,134,[0.09627642],91,47,medium,minus,dotcolour,alfa,,,80,18,V,R,
740,110,26,17,5,47,33,615,['c'],1,left,['2'],5,65,[0.06652856],91,47,medium,minus,dotcolour,alfa,,,80,18,V,R,
741,111,27,17,5,36,44,831,['n'],1,right,['2'],5,159,[-0.08633289],88,44,hard,minus,dotcolour,alfa,,,80,18,V,R,
742,112,28,17,5,27,53,1497,['n'],1,right,['2'],5,213,[-0.11609005],91,53,easy,minus,dotcolour,alfa,,,80,18,V,R,
743,113,29,17,5,33,47,666,['n'],1,right,['3'],4,108,[-0.11356078],96,47,medium,minus,dotcolour,alfa,,,80,18,V,R,
744,114,30,17,5,47,33,532,['c'],1,left,['3'],4,115,[0.09970334],93,47,medium,minus,dotcolour,alfa,,,80,18,V,R,
745,115,31,17,5,27,53,581,['n'],1,right,['3'],4,152,[-0.0878683],88,53,easy,minus,dotcolour,alfa,,,80,18,V,R,
746,116,32,17,5,44,36,1484,['n'],0,left,['3'],4,88,[-0.08110594],92,44,hard,minus,dotcolour,alfa,,,80,18,V,R,
747,117,33,17,5,44,36,798,['n'],0,left,['3'],4,125,[-0.1116739],94,44,hard,minus,dotcolour,alfa,,,80,18,V,R,
748,118,34,17,5,47,33,864,['c'],1,left,['3'],4,215,[0.08378157],84,47,medium,minus,dotcolour,alfa,,,80,18,V,R,
749,119,35,17,5,33,47,1366,['n'],1,right,['2'],5,216,[-0.10848438],89,47,medium,minus,dotcolour,alfa,,,80,18,V,R,
750,120,36,17,5,47,33,932,['c'],1,left,['3'],4,92,[0.08190906],92,47,medium,minus,dotcolour,alfa,,,80,18,V,R,
751,121,37,17,5,27,53,833,['n'],1,right,['3'],4,160,[-0.07381436],84,53,easy,minus,dotcolour,alfa,,,80,18,V,R,
752,122,38,17,5,36,44,1817,['n'],1,right,['3'],4,145,[-0.05562168],79,44,hard,minus,dotcolour,alfa,,,80,18,V,R,
753,123,39,17,5,53,27,748,['c'],1,left,['3'],4,47,[0.07899661],96,53,easy,minus,dotcolour,alfa,,,80,18,V,R,
754,124,40,17,5,44,36,815,['n'],0,left,['2'],5,125,[-0.07097217],86,44,hard,minus,dotcolour,alfa,,,80,18,V,R,
755,125,41,17,5,44,36,748,['n'],0,left,['2'],5,148,[-0.07309973],85,44,hard,minus,dotcolour,alfa,,,80,18,V,R,
,,,,,,,,,,,,,,,,,,,,,1,,80,18,V,R,
,,,,,,,,,,,,,,,,,,,,,2,['f'],80,18,V,R,
,,,,,,,,,,,,,,,,,,,,,3,['g'],80,18,V,R,
,,,,,,,,,,,,,,,,,,,,,5,['5'],80,18,V,R,
