trial,withinphasetrial,withinblocktrial,block,phase,dotsLeft,dotsRight,rt,resp,cor,cresp,conf_press,cj,RTconf,ev,fb,diff,difflevel,condition,task,manip,questionID,questionResp,sub,age,gender,handedness,
0,0,0,0,0,33,47,5767,['n'],1,right,['1'],6,4410,[-0.76031116],100,47,medium,minus,dotcolour,beta,,,61,19,V,R,
1,1,1,0,0,47,33,5566,['c'],1,left,['8'],3,6818,[0.8794812],100,47,medium,minus,dotcolour,beta,,,61,19,V,R,
2,2,2,0,0,47,33,2233,['c'],1,left,['3'],4,4464,[0.4116022],95,47,medium,minus,dotcolour,beta,,,61,19,V,R,
3,3,3,0,0,44,36,5800,['n'],0,left,['8'],3,2325,[0.27230286],2,44,hard,minus,dotcolour,beta,,,61,19,V,R,
4,4,4,0,0,27,53,2450,['c'],0,right,['3'],4,2575,[-0.34875521],1,53,easy,minus,dotcolour,beta,,,61,19,V,R,
5,5,5,0,0,36,44,2216,['c'],0,right,['8'],3,3743,[-0.27211468],5,44,hard,minus,dotcolour,beta,,,61,19,V,R,
6,6,6,0,0,53,27,1317,['c'],1,left,['3'],4,4878,[0.64487948],99,53,easy,minus,dotcolour,beta,,,61,19,V,R,
7,7,7,0,0,47,33,1450,['c'],1,left,['1'],6,1848,[0.45246648],99,47,medium,minus,dotcolour,beta,,,61,19,V,R,
8,8,8,0,0,33,47,2016,['c'],0,right,['2'],5,2943,[-0.33240025],2,47,medium,minus,dotcolour,beta,,,61,19,V,R,
9,9,9,0,0,53,27,1200,['c'],1,left,['1'],6,697,[0.18535281],94,53,easy,minus,dotcolour,beta,,,61,19,V,R,
10,10,10,0,0,53,27,3950,['c'],1,left,['8'],3,7136,[0.94454473],100,53,easy,minus,dotcolour,beta,,,61,19,V,R,
11,11,11,0,0,44,36,2150,['c'],1,left,['3'],4,3917,[-0.06715449],25,44,hard,minus,dotcolour,beta,,,61,19,V,R,
12,12,12,0,0,33,47,2683,['n'],1,right,['8'],3,1285,[-0.28003262],97,47,medium,minus,dotcolour,beta,,,61,19,V,R,
13,13,13,0,0,44,36,1067,['c'],1,left,['2'],5,1295,[0.21524383],93,44,hard,minus,dotcolour,beta,,,61,19,V,R,
14,14,14,0,0,47,33,967,['c'],1,left,['2'],5,893,[0.125175],79,47,medium,minus,dotcolour,beta,,,61,19,V,R,
15,15,15,0,0,36,44,3750,['c'],0,right,['2'],5,1317,[0.10799193],69,44,hard,minus,dotcolour,beta,,,61,19,V,R,
16,16,16,0,0,36,44,2184,['n'],1,right,['8'],3,1506,[-0.0330935],42,44,hard,minus,dotcolour,beta,,,61,19,V,R,
17,17,17,0,0,44,36,1516,['c'],1,left,['2'],5,1114,[0.09348947],66,44,hard,minus,dotcolour,beta,,,61,19,V,R,
18,18,18,0,0,47,33,1983,['c'],1,left,['1'],6,1007,[0.21327694],94,47,medium,minus,dotcolour,beta,,,61,19,V,R,
19,19,19,0,0,33,47,4284,['c'],0,right,['2'],5,3069,[-0.26601137],4,47,medium,minus,dotcolour,beta,,,61,19,V,R,
20,20,20,0,0,33,47,1717,['c'],0,right,['1'],6,1229,[0.03502471],42,47,medium,minus,dotcolour,beta,,,61,19,V,R,
21,21,21,0,0,33,47,1467,['n'],1,right,['3'],4,3180,[-0.130734],68,47,medium,minus,dotcolour,beta,,,61,19,V,R,
22,22,22,0,0,27,53,1067,['n'],1,right,['1'],6,746,[-0.13142041],83,53,easy,minus,dotcolour,beta,,,61,19,V,R,
23,23,23,0,0,53,27,866,['c'],1,left,['1'],6,778,[0.06345303],54,53,easy,minus,dotcolour,beta,,,61,19,V,R,
24,24,24,0,0,27,53,1167,['n'],1,right,['3'],4,1814,[-0.38824482],99,53,easy,minus,dotcolour,beta,,,61,19,V,R,
25,25,25,0,0,53,27,833,['c'],1,left,['1'],6,420,[0.24954083],100,53,easy,minus,dotcolour,beta,,,61,19,V,R,
26,26,26,0,0,36,44,1234,['n'],1,right,['2'],5,924,[-0.12134555],77,44,hard,minus,dotcolour,beta,,,61,19,V,R,
27,27,27,0,0,47,33,1150,['c'],1,left,['2'],5,826,[0.18651004],93,47,medium,minus,dotcolour,beta,,,61,19,V,R,
28,28,28,0,0,44,36,2400,['c'],1,left,['3'],4,2291,[0.28527583],94,44,hard,minus,dotcolour,beta,,,61,19,V,R,
29,29,29,0,0,44,36,817,['c'],1,left,['1'],6,535,[0.19145974],97,44,hard,minus,dotcolour,beta,,,61,19,V,R,
30,30,30,0,0,27,53,1449,['n'],1,right,['2'],5,881,[-0.09155427],67,53,easy,minus,dotcolour,beta,,,61,19,V,R,
31,31,31,0,0,36,44,1733,['c'],0,right,['3'],4,985,[-0.09442339],6,44,hard,minus,dotcolour,beta,,,61,19,V,R,
32,32,32,0,0,36,44,2334,['n'],1,right,['8'],3,1621,[-0.31891158],98,44,hard,minus,dotcolour,beta,,,61,19,V,R,
33,33,33,0,0,27,53,1834,['n'],1,right,['3'],4,1092,[-0.2245945],95,53,easy,minus,dotcolour,beta,,,61,19,V,R,
34,34,34,0,0,53,27,900,['c'],1,left,['1'],6,357,[0.15139298],95,53,easy,minus,dotcolour,beta,,,61,19,V,R,
35,35,35,0,0,27,53,883,['n'],1,right,['1'],6,453,[-0.24010229],99,53,easy,minus,dotcolour,beta,,,61,19,V,R,
36,36,36,0,0,33,47,2365,['c'],0,right,['2'],5,1374,[-0.25199342],1,47,medium,minus,dotcolour,beta,,,61,19,V,R,
37,37,37,0,0,36,44,1817,['c'],0,right,['8'],3,1343,[-0.07574659],12,44,hard,minus,dotcolour,beta,,,61,19,V,R,
38,38,38,0,0,27,53,1167,['n'],1,right,['1'],6,324,[-0.15020063],95,53,easy,minus,dotcolour,beta,,,61,19,V,R,
39,39,39,0,0,47,33,750,['c'],1,left,['1'],6,321,[0.14783533],95,47,medium,minus,dotcolour,beta,,,61,19,V,R,
40,40,40,0,0,44,36,2067,['c'],1,left,['1'],6,651,[0.20146904],96,44,hard,minus,dotcolour,beta,,,61,19,V,R,
41,41,41,0,0,53,27,1450,['c'],1,left,['1'],6,472,[0.10835843],80,53,easy,minus,dotcolour,beta,,,61,19,V,R,
42,42,0,1,0,53,27,1002,['c'],1,left,['1'],6,540,[0.20661659],98,53,easy,minus,dotcolour,beta,,,61,19,V,R,
43,43,1,1,0,36,44,1233,['c'],0,right,['2'],5,967,[0.05289498],49,44,hard,minus,dotcolour,beta,,,61,19,V,R,
44,44,2,1,0,36,44,2617,['n'],1,right,['8'],3,1672,[-0.19520373],87,44,hard,minus,dotcolour,beta,,,61,19,V,R,
45,45,3,1,0,33,47,2350,['n'],1,right,['3'],4,2984,[-0.49722829],99,47,medium,minus,dotcolour,beta,,,61,19,V,R,
46,46,4,1,0,44,36,2000,['c'],1,left,['8'],3,1554,[0.49673236],100,44,hard,minus,dotcolour,beta,,,61,19,V,R,
47,47,5,1,0,53,27,1200,['c'],1,left,['1'],6,316,[0.13053317],92,53,easy,minus,dotcolour,beta,,,61,19,V,R,
48,48,6,1,0,27,53,1450,['n'],1,right,['1'],6,1247,[-0.32928468],99,53,easy,minus,dotcolour,beta,,,61,19,V,R,
49,49,7,1,0,47,33,950,['c'],1,left,['1'],6,512,[0.1869677],96,47,medium,minus,dotcolour,beta,,,61,19,V,R,
50,50,8,1,0,44,36,1750,['c'],1,left,['8'],3,1479,[0.14502896],79,44,hard,minus,dotcolour,beta,,,61,19,V,R,
51,51,9,1,0,27,53,1800,['n'],1,right,['1'],6,589,[-0.20753697],97,53,easy,minus,dotcolour,beta,,,61,19,V,R,
52,52,10,1,0,36,44,2583,['c'],0,right,['8'],3,4671,[0.00061265],39,44,hard,minus,dotcolour,beta,,,61,19,V,R,
53,53,11,1,0,33,47,1750,['n'],1,right,['2'],5,1886,[-0.18086155],84,47,medium,minus,dotcolour,beta,,,61,19,V,R,
54,54,12,1,0,27,53,1067,['n'],1,right,['1'],6,281,[-0.02867657],29,53,easy,minus,dotcolour,beta,,,61,19,V,R,
55,55,13,1,0,53,27,1667,['c'],1,left,['1'],6,364,[0.12310866],88,53,easy,minus,dotcolour,beta,,,61,19,V,R,
56,56,14,1,0,33,47,3217,['n'],1,right,['8'],3,838,[-0.01616202],32,47,medium,minus,dotcolour,beta,,,61,19,V,R,
57,57,15,1,0,33,47,1483,['c'],0,right,['1'],6,330,[0.02239192],26,47,medium,minus,dotcolour,beta,,,61,19,V,R,
58,58,16,1,0,47,33,4316,['c'],1,left,['8'],3,2058,[0.39515346],99,47,medium,minus,dotcolour,beta,,,61,19,V,R,
59,59,17,1,0,33,47,1717,['n'],1,right,['3'],4,1668,[-0.21239901],90,47,medium,minus,dotcolour,beta,,,61,19,V,R,
60,60,18,1,0,47,33,1050,['c'],1,left,['1'],6,928,[0.03977071],43,47,medium,minus,dotcolour,beta,,,61,19,V,R,
61,61,19,1,0,27,53,900,['n'],1,right,['3'],4,1384,[-0.21098856],92,53,easy,minus,dotcolour,beta,,,61,19,V,R,
62,62,20,1,0,53,27,2082,['c'],1,left,['1'],6,422,[0.16869694],96,53,easy,minus,dotcolour,beta,,,61,19,V,R,
63,63,21,1,0,27,53,1583,['n'],1,right,['1'],6,958,[-0.05249733],49,53,easy,minus,dotcolour,beta,,,61,19,V,R,
64,64,22,1,0,44,36,1667,['c'],1,left,['2'],5,1151,[0.05193222],48,44,hard,minus,dotcolour,beta,,,61,19,V,R,
65,65,23,1,0,47,33,1367,['c'],1,left,['2'],5,907,[0.10164783],70,47,medium,minus,dotcolour,beta,,,61,19,V,R,
66,66,24,1,0,47,33,1100,['c'],1,left,['2'],5,1011,[0.02051668],35,47,medium,minus,dotcolour,beta,,,61,19,V,R,
67,67,25,1,0,44,36,3117,['c'],1,left,['8'],3,3736,[0.11129464],63,44,hard,minus,dotcolour,beta,,,61,19,V,R,
68,68,26,1,0,47,33,1334,['c'],1,left,['3'],4,4557,[0.62784582],99,47,medium,minus,dotcolour,beta,,,61,19,V,R,
69,69,27,1,0,33,47,1817,['n'],1,right,['8'],3,1206,[-0.09124509],64,47,medium,minus,dotcolour,beta,,,61,19,V,R,
70,70,28,1,0,44,36,1600,['c'],1,left,['2'],5,958,[0.22886769],96,44,hard,minus,dotcolour,beta,,,61,19,V,R,
71,71,29,1,0,53,27,1300,['c'],1,left,['2'],5,725,[0.2741757],99,53,easy,minus,dotcolour,beta,,,61,19,V,R,
72,72,30,1,0,33,47,1450,['n'],1,right,['1'],6,543,[-0.18236795],96,47,medium,minus,dotcolour,beta,,,61,19,V,R,
73,73,31,1,0,44,36,1650,['c'],1,left,['1'],6,1065,[-0.04509566],15,44,hard,minus,dotcolour,beta,,,61,19,V,R,
74,74,32,1,0,36,44,1550,['n'],1,right,['3'],4,1993,[-0.19627476],86,44,hard,minus,dotcolour,beta,,,61,19,V,R,
75,75,33,1,0,53,27,2083,['c'],1,left,['1'],6,710,[0.08531795],65,53,easy,minus,dotcolour,beta,,,61,19,V,R,
76,76,34,1,0,36,44,3949,['n'],1,right,['8'],3,501,[-0.01872914],28,44,hard,minus,dotcolour,beta,,,61,19,V,R,
77,77,35,1,0,36,44,2767,['c'],0,right,['3'],4,1892,[-0.19541919],4,44,hard,minus,dotcolour,beta,,,61,19,V,R,
78,78,36,1,0,47,33,1900,['c'],1,left,['3'],4,981,[0.02700022],37,47,medium,minus,dotcolour,beta,,,61,19,V,R,
79,79,37,1,0,27,53,1317,['n'],1,right,['3'],4,1690,[-0.30321864],97,53,easy,minus,dotcolour,beta,,,61,19,V,R,
80,80,38,1,0,36,44,2383,['c'],0,right,['8'],3,1489,[0.03480729],42,44,hard,minus,dotcolour,beta,,,61,19,V,R,
81,81,39,1,0,27,53,3666,['n'],1,right,['9'],2,2739,[-0.53909978],99,53,easy,minus,dotcolour,beta,,,61,19,V,R,
82,82,40,1,0,53,27,917,['c'],1,left,['1'],6,401,[-0.00215731],16,53,easy,minus,dotcolour,beta,,,61,19,V,R,
83,83,41,1,0,44,36,2100,['c'],1,left,['3'],4,591,[0.22793259],98,44,hard,minus,dotcolour,beta,,,61,19,V,R,
84,84,0,2,0,36,44,1317,['n'],1,right,['2'],5,987,[-0.17956924],90,44,hard,minus,dotcolour,beta,,,61,19,V,R,
85,85,1,2,0,53,27,1032,['c'],1,left,['2'],5,819,[0.12645866],80,53,easy,minus,dotcolour,beta,,,61,19,V,R,
86,86,2,2,0,44,36,1767,['c'],1,left,['3'],4,1076,[0.29778663],99,44,hard,minus,dotcolour,beta,,,61,19,V,R,
87,87,3,2,0,27,53,834,['n'],1,right,['2'],5,777,[-0.29950905],99,53,easy,minus,dotcolour,beta,,,61,19,V,R,
88,88,4,2,0,44,36,2100,['c'],1,left,['3'],4,1751,[0.21109378],89,44,hard,minus,dotcolour,beta,,,61,19,V,R,
89,89,5,2,0,36,44,2349,['n'],1,right,['3'],4,716,[0.03362618],13,44,hard,minus,dotcolour,beta,,,61,19,V,R,
90,90,6,2,0,33,47,2833,['c'],0,right,['2'],5,863,[-0.05480417],11,47,medium,minus,dotcolour,beta,,,61,19,V,R,
91,91,7,2,0,27,53,1184,['n'],1,right,['2'],5,1255,[-0.30758481],98,53,easy,minus,dotcolour,beta,,,61,19,V,R,
92,92,8,2,0,27,53,2734,['n'],1,right,['3'],4,1672,[-0.32833374],98,53,easy,minus,dotcolour,beta,,,61,19,V,R,
93,93,9,2,0,47,33,1167,['c'],1,left,['1'],6,799,[0.08710493],65,47,medium,minus,dotcolour,beta,,,61,19,V,R,
94,94,10,2,0,53,27,1167,['c'],1,left,['1'],6,290,[0.19372389],99,53,easy,minus,dotcolour,beta,,,61,19,V,R,
95,95,11,2,0,27,53,999,['n'],1,right,['1'],6,231,[-0.13133272],94,53,easy,minus,dotcolour,beta,,,61,19,V,R,
96,96,12,2,0,36,44,1850,['c'],0,right,['3'],4,829,[0.04746236],46,44,hard,minus,dotcolour,beta,,,61,19,V,R,
97,97,13,2,0,44,36,1084,['c'],1,left,['2'],5,666,[0.12442542],82,44,hard,minus,dotcolour,beta,,,61,19,V,R,
98,98,14,2,0,44,36,3267,['c'],1,left,['3'],4,566,[0.11253974],80,44,hard,minus,dotcolour,beta,,,61,19,V,R,
99,99,15,2,0,47,33,1334,['c'],1,left,['3'],4,388,[0.05684965],51,47,medium,minus,dotcolour,beta,,,61,19,V,R,
100,100,16,2,0,44,36,5434,['n'],0,left,['8'],3,2780,[-0.23070151],87,44,hard,minus,dotcolour,beta,,,61,19,V,R,
101,101,17,2,0,33,47,1484,['n'],1,right,['3'],4,898,[-0.07807514],61,47,medium,minus,dotcolour,beta,,,61,19,V,R,
102,102,18,2,0,53,27,1000,['c'],1,left,['1'],6,271,[0.11390606],88,53,easy,minus,dotcolour,beta,,,61,19,V,R,
103,103,19,2,0,47,33,700,['c'],1,left,['1'],6,234,[0.10172746],85,47,medium,minus,dotcolour,beta,,,61,19,V,R,
104,104,20,2,0,47,33,700,['c'],1,left,['1'],6,230,[0.05381996],48,47,medium,minus,dotcolour,beta,,,61,19,V,R,
105,105,21,2,0,44,36,1300,['c'],1,left,['3'],4,370,[0.09279685],75,44,hard,minus,dotcolour,beta,,,61,19,V,R,
106,106,22,2,0,33,47,1382,['n'],1,right,['2'],5,1917,[-0.11686073],69,47,medium,minus,dotcolour,beta,,,61,19,V,R,
107,107,23,2,0,47,33,1866,['c'],1,left,['2'],5,527,[0.27523188],100,47,medium,minus,dotcolour,beta,,,61,19,V,R,
108,108,24,2,0,53,27,1199,['c'],1,left,['1'],6,587,[0.18859553],96,53,easy,minus,dotcolour,beta,,,61,19,V,R,
109,109,25,2,0,36,44,2134,['n'],1,right,['8'],3,1503,[0.02147699],24,44,hard,minus,dotcolour,beta,,,61,19,V,R,
110,110,26,2,0,53,27,2600,['n'],0,left,['8'],3,780,[0.09026575],5,53,easy,minus,dotcolour,beta,,,61,19,V,R,
111,111,27,2,0,47,33,2133,['c'],1,left,['1'],6,433,[0.17342103],96,47,medium,minus,dotcolour,beta,,,61,19,V,R,
112,112,28,2,0,33,47,2066,['c'],0,right,['8'],3,1262,[0.03315571],41,47,medium,minus,dotcolour,beta,,,61,19,V,R,
113,113,29,2,0,27,53,1767,['n'],1,right,['3'],4,726,[-0.14967346],88,53,easy,minus,dotcolour,beta,,,61,19,V,R,
114,114,30,2,0,36,44,2200,['n'],1,right,['9'],2,1090,[-0.3261145],99,44,hard,minus,dotcolour,beta,,,61,19,V,R,
115,115,31,2,0,47,33,1816,['c'],1,left,['8'],3,2488,[0.27701906],93,47,medium,minus,dotcolour,beta,,,61,19,V,R,
116,116,32,2,0,33,47,2051,['n'],1,right,['3'],4,1434,[-0.30268805],98,47,medium,minus,dotcolour,beta,,,61,19,V,R,
117,117,33,2,0,44,36,1334,['c'],1,left,['3'],4,1540,[0.24659006],94,44,hard,minus,dotcolour,beta,,,61,19,V,R,
118,118,34,2,0,53,27,1051,['c'],1,left,['1'],6,254,[0.10578653],86,53,easy,minus,dotcolour,beta,,,61,19,V,R,
119,119,35,2,0,33,47,1083,['n'],1,right,['1'],6,689,[-0.01432279],29,47,medium,minus,dotcolour,beta,,,61,19,V,R,
120,120,36,2,0,36,44,1133,['c'],0,right,['3'],4,1266,[-0.06185348],13,44,hard,minus,dotcolour,beta,,,61,19,V,R,
121,121,37,2,0,27,53,1816,['n'],1,right,['2'],5,775,[-0.19943048],95,53,easy,minus,dotcolour,beta,,,61,19,V,R,
122,122,38,2,0,33,47,2416,['c'],0,right,['3'],4,968,[0.04846854],47,47,medium,minus,dotcolour,beta,,,61,19,V,R,
123,123,39,2,0,53,27,900,['c'],1,left,['1'],6,38,[0.07597029],87,53,easy,minus,dotcolour,beta,,,61,19,V,R,
124,124,40,2,0,27,53,950,['n'],1,right,['1'],6,192,[-0.08419945],76,53,easy,minus,dotcolour,beta,,,61,19,V,R,
125,125,41,2,0,36,44,3150,['n'],1,right,['8'],3,268,[-0.10807018],86,44,hard,minus,dotcolour,beta,,,61,19,V,R,
126,0,0,3,1,27,53,851,['n'],1,right,['2'],5,425,[-0.13982291],100,53,easy,plus,dotcolour,beta,,,61,19,V,R,
127,1,1,3,1,53,27,967,['c'],1,left,['2'],5,242,[0.1365955],100,53,easy,plus,dotcolour,beta,,,61,19,V,R,
128,2,2,3,1,33,47,1316,['c'],0,right,['2'],5,230,[0.05321856],98,47,medium,plus,dotcolour,beta,,,61,19,V,R,
129,3,3,3,1,27,53,816,['n'],1,right,['2'],5,229,[-0.13429904],100,53,easy,plus,dotcolour,beta,,,61,19,V,R,
130,4,4,3,1,53,27,800,['c'],1,left,['1'],6,276,[0.08841803],99,53,easy,plus,dotcolour,beta,,,61,19,V,R,
131,5,5,3,1,27,53,1133,['n'],1,right,['8'],3,373,[-0.18043461],100,53,easy,plus,dotcolour,beta,,,61,19,V,R,
132,6,6,3,1,33,47,1467,['n'],1,right,['1'],6,412,[-0.10903849],99,47,medium,plus,dotcolour,beta,,,61,19,V,R,
133,7,7,3,1,44,36,1700,['c'],1,left,['2'],5,1154,[0.1604315],97,44,hard,plus,dotcolour,beta,,,61,19,V,R,
134,8,8,3,1,47,33,900,['c'],1,left,['2'],5,512,[0.11583111],99,47,medium,plus,dotcolour,beta,,,61,19,V,R,
135,9,9,3,1,36,44,2017,['c'],0,right,['3'],4,1013,[0.04521629],86,44,hard,plus,dotcolour,beta,,,61,19,V,R,
136,10,10,3,1,36,44,1134,['n'],1,right,['3'],4,1111,[0.04173592],56,44,hard,plus,dotcolour,beta,,,61,19,V,R,
137,11,11,3,1,53,27,950,['c'],1,left,['1'],6,286,[0.13234162],100,53,easy,plus,dotcolour,beta,,,61,19,V,R,
138,12,12,3,1,44,36,733,['c'],1,left,['1'],6,223,[0.07032707],99,44,hard,plus,dotcolour,beta,,,61,19,V,R,
139,13,13,3,1,47,33,1350,['c'],1,left,['3'],4,1081,[0.17345542],98,47,medium,plus,dotcolour,beta,,,61,19,V,R,
140,14,14,3,1,44,36,683,['c'],1,left,['3'],4,275,[0.05404116],98,44,hard,plus,dotcolour,beta,,,61,19,V,R,
141,15,15,3,1,53,27,901,['c'],1,left,['1'],6,181,[0.15008378],100,53,easy,plus,dotcolour,beta,,,61,19,V,R,
142,16,16,3,1,36,44,1551,['n'],1,right,['3'],4,1009,[-0.1866041],99,44,hard,plus,dotcolour,beta,,,61,19,V,R,
143,17,17,3,1,47,33,666,['c'],1,left,['1'],6,223,[0.12789841],100,47,medium,plus,dotcolour,beta,,,61,19,V,R,
144,18,18,3,1,36,44,1267,['n'],1,right,['1'],6,333,[-0.13672098],100,44,hard,plus,dotcolour,beta,,,61,19,V,R,
145,19,19,3,1,53,27,700,['c'],1,left,['1'],6,165,[0.08688693],100,53,easy,plus,dotcolour,beta,,,61,19,V,R,
146,20,20,3,1,27,53,749,['n'],1,right,['1'],6,146,[-0.09309133],100,53,easy,plus,dotcolour,beta,,,61,19,V,R,
147,21,21,3,1,27,53,867,['n'],1,right,['1'],6,178,[-0.07034261],100,53,easy,plus,dotcolour,beta,,,61,19,V,R,
148,22,22,3,1,53,27,800,['c'],1,left,['1'],6,284,[0.16515987],100,53,easy,plus,dotcolour,beta,,,61,19,V,R,
149,23,23,3,1,27,53,834,['n'],1,right,['1'],6,161,[-0.09086468],100,53,easy,plus,dotcolour,beta,,,61,19,V,R,
150,24,24,3,1,33,47,2284,['c'],0,right,['8'],3,360,[-0.00310823],83,47,medium,plus,dotcolour,beta,,,61,19,V,R,
151,25,25,3,1,47,33,1250,['c'],1,left,['1'],6,209,[0.05169892],99,47,medium,plus,dotcolour,beta,,,61,19,V,R,
152,26,26,3,1,33,47,1434,['n'],1,right,['1'],6,352,[-0.06828376],98,47,medium,plus,dotcolour,beta,,,61,19,V,R,
153,27,27,3,1,33,47,3617,['c'],0,right,['8'],3,1651,[0.12294835],92,47,medium,plus,dotcolour,beta,,,61,19,V,R,
154,28,28,3,1,47,33,1684,['c'],1,left,['1'],6,382,[0.04438408],95,47,medium,plus,dotcolour,beta,,,61,19,V,R,
155,29,29,3,1,36,44,1517,['n'],1,right,['1'],6,316,[-0.03633225],95,44,hard,plus,dotcolour,beta,,,61,19,V,R,
156,30,30,3,1,36,44,1083,['n'],1,right,['1'],6,221,[-0.00885033],92,44,hard,plus,dotcolour,beta,,,61,19,V,R,
157,31,31,3,1,44,36,4667,['n'],0,left,['8'],3,900,[-0.02938096],83,44,hard,plus,dotcolour,beta,,,61,19,V,R,
158,32,32,3,1,44,36,3433,['c'],1,left,['2'],5,2007,[0.00029192],67,44,hard,plus,dotcolour,beta,,,61,19,V,R,
159,33,33,3,1,44,36,3850,['n'],0,left,['8'],3,390,[-0.03029418],92,44,hard,plus,dotcolour,beta,,,61,19,V,R,
160,34,34,3,1,53,27,750,['c'],1,left,['1'],6,217,[0.08182334],100,53,easy,plus,dotcolour,beta,,,61,19,V,R,
161,35,35,3,1,33,47,1266,['n'],1,right,['1'],6,167,[-0.083424],100,47,medium,plus,dotcolour,beta,,,61,19,V,R,
162,36,36,3,1,27,53,734,['n'],1,right,['1'],6,189,[-0.14244759],100,53,easy,plus,dotcolour,beta,,,61,19,V,R,
163,37,37,3,1,47,33,799,['c'],1,left,['1'],6,166,[0.17085433],100,47,medium,plus,dotcolour,beta,,,61,19,V,R,
164,38,38,3,1,44,36,717,['c'],1,left,['1'],6,157,[0.07397563],100,44,hard,plus,dotcolour,beta,,,61,19,V,R,
165,39,39,3,1,47,33,683,['c'],1,left,['1'],6,164,[0.10516409],100,47,medium,plus,dotcolour,beta,,,61,19,V,R,
166,40,40,3,1,33,47,1117,['n'],1,right,['1'],6,178,[-0.0681809],99,47,medium,plus,dotcolour,beta,,,61,19,V,R,
167,41,41,3,1,36,44,2902,['n'],1,right,['8'],3,280,[-0.07547951],99,44,hard,plus,dotcolour,beta,,,61,19,V,R,
168,42,0,4,1,47,33,835,['c'],1,left,['1'],6,184,[0.14558534],100,47,medium,plus,dotcolour,beta,,,61,19,V,R,
169,43,1,4,1,36,44,1400,['n'],1,right,['3'],4,946,[-0.16299182],98,44,hard,plus,dotcolour,beta,,,61,19,V,R,
170,44,2,4,1,44,36,1751,['n'],0,left,['3'],4,1168,[-0.09245386],92,44,hard,plus,dotcolour,beta,,,61,19,V,R,
171,45,3,4,1,44,36,1217,['c'],1,left,['3'],4,1017,[0.08057698],92,44,hard,plus,dotcolour,beta,,,61,19,V,R,
172,46,4,4,1,53,27,950,['c'],1,left,['1'],6,148,[0.05293346],99,53,easy,plus,dotcolour,beta,,,61,19,V,R,
173,47,5,4,1,36,44,1483,['n'],1,right,['3'],4,627,[-0.17876324],100,44,hard,plus,dotcolour,beta,,,61,19,V,R,
174,48,6,4,1,44,36,717,['c'],1,left,['1'],6,150,[0.12132771],100,44,hard,plus,dotcolour,beta,,,61,19,V,R,
175,49,7,4,1,53,27,566,['c'],1,left,['1'],6,155,[0.09289029],100,53,easy,plus,dotcolour,beta,,,61,19,V,R,
176,50,8,4,1,44,36,1299,['n'],0,left,['8'],3,1139,[-0.08906521],92,44,hard,plus,dotcolour,beta,,,61,19,V,R,
177,51,9,4,1,33,47,683,['c'],0,right,['0'],1,4203,[-0.31144586],10,47,medium,plus,dotcolour,beta,,,61,19,V,R,
178,52,10,4,1,36,44,1234,['c'],0,right,['2'],5,1058,[-0.01790065],66,44,hard,plus,dotcolour,beta,,,61,19,V,R,
179,53,11,4,1,47,33,833,['c'],1,left,['1'],6,183,[0.15143058],100,47,medium,plus,dotcolour,beta,,,61,19,V,R,
180,54,12,4,1,53,27,551,['c'],1,left,['1'],6,155,[0.05552265],99,53,easy,plus,dotcolour,beta,,,61,19,V,R,
181,55,13,4,1,33,47,2117,['n'],1,right,['3'],4,1378,[-0.17494621],97,47,medium,plus,dotcolour,beta,,,61,19,V,R,
182,56,14,4,1,53,27,585,['c'],1,left,['1'],6,164,[0.09190994],100,53,easy,plus,dotcolour,beta,,,61,19,V,R,
183,57,15,4,1,27,53,1000,['n'],1,right,['1'],6,279,[-0.13885247],100,53,easy,plus,dotcolour,beta,,,61,19,V,R,
184,58,16,4,1,33,47,3417,['n'],1,right,['3'],4,564,[-0.18245141],100,47,medium,plus,dotcolour,beta,,,61,19,V,R,
185,59,17,4,1,53,27,616,['n'],0,left,['0'],1,1183,[0.25930271],3,53,easy,plus,dotcolour,beta,,,61,19,V,R,
186,60,18,4,1,47,33,916,['c'],1,left,['1'],6,196,[0.13218146],100,47,medium,plus,dotcolour,beta,,,61,19,V,R,
187,61,19,4,1,33,47,1334,['n'],1,right,['1'],6,223,[0.00370404],88,47,medium,plus,dotcolour,beta,,,61,19,V,R,
188,62,20,4,1,47,33,850,['c'],1,left,['1'],6,173,[0.10506819],100,47,medium,plus,dotcolour,beta,,,61,19,V,R,
189,63,21,4,1,33,47,1134,['n'],1,right,['1'],6,185,[-0.10530875],100,47,medium,plus,dotcolour,beta,,,61,19,V,R,
190,64,22,4,1,53,27,1167,['c'],1,left,['1'],6,245,[0.09849355],100,53,easy,plus,dotcolour,beta,,,61,19,V,R,
191,65,23,4,1,36,44,1832,['n'],1,right,['8'],3,307,[-0.13399985],100,44,hard,plus,dotcolour,beta,,,61,19,V,R,
192,66,24,4,1,27,53,883,['n'],1,right,['1'],6,189,[-0.18848614],100,53,easy,plus,dotcolour,beta,,,61,19,V,R,
193,67,25,4,1,44,36,684,['c'],1,left,['1'],6,155,[0.10939125],100,44,hard,plus,dotcolour,beta,,,61,19,V,R,
194,68,26,4,1,33,47,2683,['c'],0,right,['3'],4,603,[-0.08998781],31,47,medium,plus,dotcolour,beta,,,61,19,V,R,
195,69,27,4,1,44,36,716,['c'],1,left,['1'],6,191,[0.13144782],100,44,hard,plus,dotcolour,beta,,,61,19,V,R,
196,70,28,4,1,44,36,2751,['c'],1,left,['3'],4,506,[0.13984743],99,44,hard,plus,dotcolour,beta,,,61,19,V,R,
197,71,29,4,1,47,33,633,['c'],1,left,['1'],6,109,[0.05738212],100,47,medium,plus,dotcolour,beta,,,61,19,V,R,
198,72,30,4,1,36,44,1483,['c'],0,right,['1'],6,167,[0.07529761],100,44,hard,plus,dotcolour,beta,,,61,19,V,R,
199,73,31,4,1,27,53,1134,['n'],1,right,['3'],4,749,[-0.17438009],99,53,easy,plus,dotcolour,beta,,,61,19,V,R,
200,74,32,4,1,27,53,834,['n'],1,right,['1'],6,134,[-0.16245099],100,53,easy,plus,dotcolour,beta,,,61,19,V,R,
201,75,33,4,1,27,53,517,['n'],1,right,['1'],6,126,[-0.07341696],100,53,easy,plus,dotcolour,beta,,,61,19,V,R,
202,76,34,4,1,36,44,384,['n'],1,right,['1'],6,194,[-0.05344804],99,44,hard,plus,dotcolour,beta,,,61,19,V,R,
203,77,35,4,1,53,27,966,['c'],1,left,['1'],6,125,[0.0815246],100,53,easy,plus,dotcolour,beta,,,61,19,V,R,
204,78,36,4,1,36,44,1067,['c'],0,right,['1'],6,126,[0.03502547],99,44,hard,plus,dotcolour,beta,,,61,19,V,R,
205,79,37,4,1,47,33,534,['c'],1,left,['1'],6,141,[0.07956298],100,47,medium,plus,dotcolour,beta,,,61,19,V,R,
206,80,38,4,1,27,53,883,['n'],1,right,['1'],6,93,[-0.07298756],100,53,easy,plus,dotcolour,beta,,,61,19,V,R,
207,81,39,4,1,47,33,917,['c'],1,left,['1'],6,1438,[0.48034221],100,47,medium,plus,dotcolour,beta,,,61,19,V,R,
208,82,40,4,1,27,53,1066,['n'],1,right,['1'],6,115,[-0.11183156],100,53,easy,plus,dotcolour,beta,,,61,19,V,R,
209,83,41,4,1,33,47,734,['c'],0,right,['1'],6,194,[0.06023195],99,47,medium,plus,dotcolour,beta,,,61,19,V,R,
210,84,0,5,1,27,53,701,['n'],1,right,['1'],6,137,[-0.1043418],100,53,easy,plus,dotcolour,beta,,,61,19,V,R,
211,85,1,5,1,47,33,584,['c'],1,left,['1'],6,134,[0.05064656],99,47,medium,plus,dotcolour,beta,,,61,19,V,R,
212,86,2,5,1,36,44,550,['n'],1,right,['1'],6,108,[-0.08559081],100,44,hard,plus,dotcolour,beta,,,61,19,V,R,
213,87,3,5,1,36,44,666,['c'],0,right,['1'],6,110,[0.13429979],100,44,hard,plus,dotcolour,beta,,,61,19,V,R,
214,88,4,5,1,53,27,1333,['c'],1,left,['1'],6,213,[0.08399595],100,53,easy,plus,dotcolour,beta,,,61,19,V,R,
215,89,5,5,1,33,47,1867,['n'],1,right,['3'],4,531,[-0.10971785],98,47,medium,plus,dotcolour,beta,,,61,19,V,R,
216,90,6,5,1,36,44,2016,['c'],0,right,['3'],4,263,[0.07528213],99,44,hard,plus,dotcolour,beta,,,61,19,V,R,
217,91,7,5,1,33,47,1267,['n'],1,right,['1'],6,155,[-0.1086604],100,47,medium,plus,dotcolour,beta,,,61,19,V,R,
218,92,8,5,1,53,27,768,['c'],1,left,['1'],6,159,[0.04593751],99,53,easy,plus,dotcolour,beta,,,61,19,V,R,
219,93,9,5,1,44,36,1167,['c'],1,left,['1'],6,171,[0.05681017],99,44,hard,plus,dotcolour,beta,,,61,19,V,R,
220,94,10,5,1,27,53,1084,['n'],1,right,['1'],6,202,[-0.13375058],100,53,easy,plus,dotcolour,beta,,,61,19,V,R,
221,95,11,5,1,53,27,684,['c'],1,left,['1'],6,120,[0.10963285],100,53,easy,plus,dotcolour,beta,,,61,19,V,R,
222,96,12,5,1,53,27,484,['c'],1,left,['1'],6,130,[0.13152634],100,53,easy,plus,dotcolour,beta,,,61,19,V,R,
223,97,13,5,1,33,47,834,['n'],1,right,['1'],6,84,[-0.0604485],100,47,medium,plus,dotcolour,beta,,,61,19,V,R,
224,98,14,5,1,33,47,2167,['n'],1,right,['3'],4,644,[-0.00201358],78,47,medium,plus,dotcolour,beta,,,61,19,V,R,
225,99,15,5,1,36,44,1750,['c'],0,right,['1'],6,205,[0.11971065],100,44,hard,plus,dotcolour,beta,,,61,19,V,R,
226,100,16,5,1,27,53,1484,['n'],1,right,['1'],6,204,[-0.04233283],98,53,easy,plus,dotcolour,beta,,,61,19,V,R,
227,101,17,5,1,27,53,700,['n'],1,right,['1'],6,168,[-0.05645486],99,53,easy,plus,dotcolour,beta,,,61,19,V,R,
228,102,18,5,1,36,44,1133,['c'],0,right,['2'],5,878,[0.08145909],93,44,hard,plus,dotcolour,beta,,,61,19,V,R,
229,103,19,5,1,47,33,900,['c'],1,left,['1'],6,128,[0.13768684],100,47,medium,plus,dotcolour,beta,,,61,19,V,R,
230,104,20,5,1,53,27,617,['c'],1,left,['1'],6,172,[0.1504771],100,53,easy,plus,dotcolour,beta,,,61,19,V,R,
231,105,21,5,1,36,44,1634,['n'],1,right,['3'],4,405,[-0.11071092],99,44,hard,plus,dotcolour,beta,,,61,19,V,R,
232,106,22,5,1,47,33,717,['c'],1,left,['1'],6,145,[0.15281173],100,47,medium,plus,dotcolour,beta,,,61,19,V,R,
233,107,23,5,1,47,33,617,['c'],1,left,['1'],6,172,[0.09803617],100,47,medium,plus,dotcolour,beta,,,61,19,V,R,
234,108,24,5,1,44,36,766,['c'],1,left,['1'],6,167,[0.03078026],98,44,hard,plus,dotcolour,beta,,,61,19,V,R,
235,109,25,5,1,44,36,3301,['c'],1,left,['3'],4,47,[0.05319482],100,44,hard,plus,dotcolour,beta,,,61,19,V,R,
236,110,26,5,1,53,27,834,['c'],1,left,['1'],6,228,[0.19633659],100,53,easy,plus,dotcolour,beta,,,61,19,V,R,
237,111,27,5,1,33,47,1850,['n'],1,right,['2'],5,203,[-0.03370783],97,47,medium,plus,dotcolour,beta,,,61,19,V,R,
238,112,28,5,1,44,36,1233,['c'],1,left,['2'],5,378,[0.18009767],100,44,hard,plus,dotcolour,beta,,,61,19,V,R,
239,113,29,5,1,27,53,1382,['n'],1,right,['2'],5,789,[-0.15391222],99,53,easy,plus,dotcolour,beta,,,61,19,V,R,
240,114,30,5,1,47,33,651,['c'],1,left,['1'],6,205,[0.05007921],99,47,medium,plus,dotcolour,beta,,,61,19,V,R,
241,115,31,5,1,47,33,767,['c'],1,left,['1'],6,255,[0.15164171],100,47,medium,plus,dotcolour,beta,,,61,19,V,R,
242,116,32,5,1,36,44,2217,['n'],1,right,['3'],4,470,[-0.13124186],99,44,hard,plus,dotcolour,beta,,,61,19,V,R,
243,117,33,5,1,44,36,650,['c'],1,left,['1'],6,146,[0.07921189],100,44,hard,plus,dotcolour,beta,,,61,19,V,R,
244,118,34,5,1,44,36,733,['c'],1,left,['1'],6,176,[-0.03801315],68,44,hard,plus,dotcolour,beta,,,61,19,V,R,
245,119,35,5,1,33,47,1433,['n'],1,right,['2'],5,329,[0.01027307],81,47,medium,plus,dotcolour,beta,,,61,19,V,R,
246,120,36,5,1,33,47,2650,['c'],0,right,['3'],4,307,[0.00457795],88,47,medium,plus,dotcolour,beta,,,61,19,V,R,
247,121,37,5,1,44,36,1284,['c'],1,left,['3'],4,564,[0.08973832],97,44,hard,plus,dotcolour,beta,,,61,19,V,R,
248,122,38,5,1,27,53,667,['c'],0,right,['0'],1,1509,[-0.03973718],56,53,easy,plus,dotcolour,beta,,,61,19,V,R,
249,123,39,5,1,27,53,700,['n'],1,right,['1'],6,389,[-0.02583578],91,53,easy,plus,dotcolour,beta,,,61,19,V,R,
250,124,40,5,1,47,33,883,['c'],1,left,['2'],5,563,[0.09396246],97,47,medium,plus,dotcolour,beta,,,61,19,V,R,
251,125,41,5,1,53,27,649,['c'],1,left,['1'],6,219,[-0.02309959],78,53,easy,plus,dotcolour,beta,,,61,19,V,R,
252,0,0,6,2,27,53,1017,['n'],1,right,['1'],6,384,[-0.12588641],89,53,easy,minus,dotcolour,beta,,,61,19,V,R,
253,1,1,6,2,47,33,600,['c'],1,left,['1'],6,610,[0.17579135],94,47,medium,minus,dotcolour,beta,,,61,19,V,R,
254,2,2,6,2,44,36,1149,['c'],1,left,['1'],6,133,[0.07359116],71,44,hard,minus,dotcolour,beta,,,61,19,V,R,
255,3,3,6,2,53,27,633,['c'],1,left,['1'],6,143,[0.16182043],99,53,easy,minus,dotcolour,beta,,,61,19,V,R,
256,4,4,6,2,27,53,717,['n'],1,right,['1'],6,359,[-0.12263348],88,53,easy,minus,dotcolour,beta,,,61,19,V,R,
257,5,5,6,2,53,27,633,['c'],1,left,['1'],6,119,[0.07113035],69,53,easy,minus,dotcolour,beta,,,61,19,V,R,
258,6,6,6,2,47,33,934,['c'],1,left,['1'],6,23,[0.08263663],96,47,medium,minus,dotcolour,beta,,,61,19,V,R,
259,7,7,6,2,33,47,1466,['n'],1,right,['2'],5,333,[-0.19470342],99,47,medium,minus,dotcolour,beta,,,61,19,V,R,
260,8,8,6,2,33,47,733,['n'],1,right,['2'],5,236,[-0.17709241],99,47,medium,minus,dotcolour,beta,,,61,19,V,R,
261,9,9,6,2,33,47,617,['n'],1,right,['2'],5,172,[-0.08050446],75,47,medium,minus,dotcolour,beta,,,61,19,V,R,
262,10,10,6,2,44,36,1434,['c'],1,left,['2'],5,308,[0.01255176],20,44,hard,minus,dotcolour,beta,,,61,19,V,R,
263,11,11,6,2,36,44,2701,['n'],1,right,['8'],3,1157,[-0.34846538],99,44,hard,minus,dotcolour,beta,,,61,19,V,R,
264,12,12,6,2,27,53,2500,['c'],0,right,['3'],4,1012,[-0.07862909],8,53,easy,minus,dotcolour,beta,,,61,19,V,R,
265,13,13,6,2,27,53,1000,['n'],1,right,['3'],4,1397,[-0.26703807],96,53,easy,minus,dotcolour,beta,,,61,19,V,R,
266,14,14,6,2,36,44,1950,['n'],1,right,['3'],4,847,[-0.14791782],86,44,hard,minus,dotcolour,beta,,,61,19,V,R,
267,15,15,6,2,47,33,850,['c'],1,left,['2'],5,669,[-0.05281171],8,47,medium,minus,dotcolour,beta,,,61,19,V,R,
268,16,16,6,2,44,36,3317,['n'],0,left,['3'],4,1774,[-0.17546164],83,44,hard,minus,dotcolour,beta,,,61,19,V,R,
269,17,17,6,2,47,33,882,['c'],1,left,['2'],5,790,[0.07733678],61,47,medium,minus,dotcolour,beta,,,61,19,V,R,
270,18,18,6,2,44,36,816,['c'],1,left,['2'],5,246,[0.20081978],99,44,hard,minus,dotcolour,beta,,,61,19,V,R,
271,19,19,6,2,53,27,566,['c'],1,left,['2'],5,199,[0.15652416],98,53,easy,minus,dotcolour,beta,,,61,19,V,R,
272,20,20,6,2,33,47,1417,['n'],1,right,['1'],6,207,[-0.22949101],100,47,medium,minus,dotcolour,beta,,,61,19,V,R,
273,21,21,6,2,36,44,1050,['c'],0,right,['1'],6,142,[0.12501031],97,44,hard,minus,dotcolour,beta,,,61,19,V,R,
274,22,22,6,2,36,44,700,['c'],0,right,['1'],6,181,[0.11658139],93,44,hard,minus,dotcolour,beta,,,61,19,V,R,
275,23,23,6,2,44,36,2083,['n'],0,left,['3'],4,468,[-0.16951346],95,44,hard,minus,dotcolour,beta,,,61,19,V,R,
276,24,24,6,2,53,27,633,['c'],1,left,['1'],6,185,[0.14124284],97,53,easy,minus,dotcolour,beta,,,61,19,V,R,
277,25,25,6,2,47,33,983,['c'],1,left,['1'],6,140,[0.08041639],77,47,medium,minus,dotcolour,beta,,,61,19,V,R,
278,26,26,6,2,47,33,2800,['n'],0,left,['8'],3,335,[-0.12480188],90,47,medium,minus,dotcolour,beta,,,61,19,V,R,
279,27,27,6,2,44,36,683,['c'],1,left,['1'],6,193,[0.07251194],67,44,hard,minus,dotcolour,beta,,,61,19,V,R,
280,28,28,6,2,27,53,1200,['c'],0,right,['1'],6,161,[0.02617589],21,53,easy,minus,dotcolour,beta,,,61,19,V,R,
281,29,29,6,2,44,36,800,['c'],1,left,['1'],6,196,[0.11507655],92,44,hard,minus,dotcolour,beta,,,61,19,V,R,
282,30,30,6,2,53,27,684,['c'],1,left,['1'],6,226,[0.09464456],81,53,easy,minus,dotcolour,beta,,,61,19,V,R,
283,31,31,6,2,33,47,1283,['n'],1,right,['2'],5,895,[-0.19717097],94,47,medium,minus,dotcolour,beta,,,61,19,V,R,
284,32,32,6,2,53,27,1065,['c'],1,left,['2'],5,274,[0.13482731],94,53,easy,minus,dotcolour,beta,,,61,19,V,R,
285,33,33,6,2,27,53,834,['n'],1,right,['2'],5,414,[-0.2044816],98,53,easy,minus,dotcolour,beta,,,61,19,V,R,
286,34,34,6,2,47,33,1016,['c'],1,left,['1'],6,206,[0.09532141],83,47,medium,minus,dotcolour,beta,,,61,19,V,R,
287,35,35,6,2,27,53,750,['n'],1,right,['1'],6,561,[-0.11029037],79,53,easy,minus,dotcolour,beta,,,61,19,V,R,
288,36,36,6,2,53,27,1251,['c'],1,left,['1'],6,186,[0.15680513],99,53,easy,minus,dotcolour,beta,,,61,19,V,R,
289,37,37,6,2,36,44,1450,['n'],1,right,['3'],4,370,[-0.16089259],96,44,hard,minus,dotcolour,beta,,,61,19,V,R,
290,38,38,6,2,33,47,1500,['n'],1,right,['3'],4,408,[-0.06551352],57,47,medium,minus,dotcolour,beta,,,61,19,V,R,
291,39,39,6,2,36,44,2633,['n'],1,right,['8'],3,927,[-0.10228546],71,44,hard,minus,dotcolour,beta,,,61,19,V,R,
292,40,40,6,2,36,44,600,['c'],0,right,['2'],5,483,[0.06763464],58,44,hard,minus,dotcolour,beta,,,61,19,V,R,
293,41,41,6,2,33,47,1851,['n'],1,right,['3'],4,871,[-0.08007625],62,47,medium,minus,dotcolour,beta,,,61,19,V,R,
294,42,0,7,2,36,44,1368,['n'],1,right,['3'],4,135,[-0.0906738],85,44,hard,minus,dotcolour,beta,,,61,19,V,R,
295,43,1,7,2,47,33,699,['c'],1,left,['1'],6,135,[0.08529178],81,47,medium,minus,dotcolour,beta,,,61,19,V,R,
296,44,2,7,2,53,27,899,['c'],1,left,['1'],6,127,[0.08634492],83,53,easy,minus,dotcolour,beta,,,61,19,V,R,
297,45,3,7,2,47,33,567,['c'],1,left,['2'],5,252,[0.20286714],99,47,medium,minus,dotcolour,beta,,,61,19,V,R,
298,46,4,7,2,33,47,984,['n'],1,right,['1'],6,116,[-0.08492165],83,47,medium,minus,dotcolour,beta,,,61,19,V,R,
299,47,5,7,2,53,27,633,['c'],1,left,['1'],6,128,[0.17498064],100,53,easy,minus,dotcolour,beta,,,61,19,V,R,
300,48,6,7,2,33,47,817,['n'],1,right,['1'],6,171,[-0.14684231],98,47,medium,minus,dotcolour,beta,,,61,19,V,R,
301,49,7,7,2,33,47,2018,['c'],0,right,['3'],4,413,[0.00040642],18,47,medium,minus,dotcolour,beta,,,61,19,V,R,
302,50,8,7,2,53,27,684,['c'],1,left,['1'],6,122,[0.05249921],46,53,easy,minus,dotcolour,beta,,,61,19,V,R,
303,51,9,7,2,44,36,1066,['c'],1,left,['1'],6,260,[0.05702226],51,44,hard,minus,dotcolour,beta,,,61,19,V,R,
304,52,10,7,2,47,33,599,['c'],1,left,['1'],6,163,[0.08086217],76,47,medium,minus,dotcolour,beta,,,61,19,V,R,
305,53,11,7,2,44,36,617,['c'],1,left,['2'],5,157,[0.07592228],72,44,hard,minus,dotcolour,beta,,,61,19,V,R,
306,54,12,7,2,47,33,516,['c'],1,left,['2'],5,219,[0.13554555],96,47,medium,minus,dotcolour,beta,,,61,19,V,R,
307,55,13,7,2,36,44,1850,['n'],1,right,['2'],5,386,[0.0759274],2,44,hard,minus,dotcolour,beta,,,61,19,V,R,
308,56,14,7,2,44,36,1017,['c'],1,left,['2'],5,803,[0.22715642],97,44,hard,minus,dotcolour,beta,,,61,19,V,R,
309,57,15,7,2,36,44,1683,['c'],0,right,['3'],4,1385,[-0.0654884],14,44,hard,minus,dotcolour,beta,,,61,19,V,R,
310,58,16,7,2,36,44,701,['c'],0,right,['2'],5,214,[0.07162561],65,44,hard,minus,dotcolour,beta,,,61,19,V,R,
311,59,17,7,2,36,44,2483,['n'],1,right,['8'],3,1219,[-0.03200642],41,44,hard,minus,dotcolour,beta,,,61,19,V,R,
312,60,18,7,2,27,53,884,['n'],1,right,['3'],4,824,[-0.33838499],100,53,easy,minus,dotcolour,beta,,,61,19,V,R,
313,61,19,7,2,53,27,684,['c'],1,left,['1'],6,533,[0.12288447],84,53,easy,minus,dotcolour,beta,,,61,19,V,R,
314,62,20,7,2,53,27,533,['c'],1,left,['1'],6,227,[0.13294194],95,53,easy,minus,dotcolour,beta,,,61,19,V,R,
315,63,21,7,2,27,53,1000,['n'],1,right,['1'],6,171,[-0.06551706],61,53,easy,minus,dotcolour,beta,,,61,19,V,R,
316,64,22,7,2,44,36,1300,['c'],1,left,['2'],5,370,[0.04459592],42,44,hard,minus,dotcolour,beta,,,61,19,V,R,
317,65,23,7,2,27,53,834,['n'],1,right,['2'],5,1235,[-0.2488155],96,53,easy,minus,dotcolour,beta,,,61,19,V,R,
318,66,24,7,2,53,27,800,['c'],1,left,['2'],5,291,[0.03414448],33,53,easy,minus,dotcolour,beta,,,61,19,V,R,
319,67,25,7,2,33,47,983,['n'],1,right,['1'],6,240,[-0.04888434],44,47,medium,minus,dotcolour,beta,,,61,19,V,R,
320,68,26,7,2,44,36,1566,['c'],1,left,['3'],4,465,[0.11437703],83,44,hard,minus,dotcolour,beta,,,61,19,V,R,
321,69,27,7,2,27,53,1117,['n'],1,right,['3'],4,259,[-0.07568609],67,53,easy,minus,dotcolour,beta,,,61,19,V,R,
322,70,28,7,2,33,47,2050,['n'],1,right,['3'],4,200,[-0.02297911],21,47,medium,minus,dotcolour,beta,,,61,19,V,R,
323,71,29,7,2,36,44,1817,['n'],1,right,['8'],3,409,[-0.14413039],92,44,hard,minus,dotcolour,beta,,,61,19,V,R,
324,72,30,7,2,44,36,1501,['c'],1,left,['3'],4,381,[0.1089828],83,44,hard,minus,dotcolour,beta,,,61,19,V,R,
325,73,31,7,2,33,47,2815,['n'],1,right,['3'],4,439,[-0.21025876],99,47,medium,minus,dotcolour,beta,,,61,19,V,R,
326,74,32,7,2,47,33,833,['c'],1,left,['2'],5,229,[0.12301527],93,47,medium,minus,dotcolour,beta,,,61,19,V,R,
327,75,33,7,2,27,53,883,['c'],0,right,['1'],6,177,[0.04890176],43,53,easy,minus,dotcolour,beta,,,61,19,V,R,
328,76,34,7,2,27,53,1084,['n'],1,right,['1'],6,1272,[-0.26116625],96,53,easy,minus,dotcolour,beta,,,61,19,V,R,
329,77,35,7,2,53,27,684,['c'],1,left,['1'],6,235,[0.11262359],89,53,easy,minus,dotcolour,beta,,,61,19,V,R,
330,78,36,7,2,33,47,1701,['n'],1,right,['2'],5,1031,[-0.26155404],97,47,medium,minus,dotcolour,beta,,,61,19,V,R,
331,79,37,7,2,47,33,684,['c'],1,left,['1'],6,236,[0.13808441],96,47,medium,minus,dotcolour,beta,,,61,19,V,R,
332,80,38,7,2,44,36,450,['c'],1,left,['1'],6,153,[0.104813],91,44,hard,minus,dotcolour,beta,,,61,19,V,R,
333,81,39,7,2,36,44,917,['n'],1,right,['1'],6,152,[0.02249338],3,44,hard,minus,dotcolour,beta,,,61,19,V,R,
334,82,40,7,2,27,53,1333,['n'],1,right,['2'],5,822,[-0.23524526],97,53,easy,minus,dotcolour,beta,,,61,19,V,R,
335,83,41,7,2,47,33,1317,['c'],1,left,['3'],4,554,[0.13725018],88,47,medium,minus,dotcolour,beta,,,61,19,V,R,
336,84,0,8,2,53,27,818,['c'],1,left,['1'],6,241,[0.10820322],87,53,easy,minus,dotcolour,beta,,,61,19,V,R,
337,85,1,8,2,44,36,1483,['n'],0,left,['3'],4,765,[-0.11447936],77,44,hard,minus,dotcolour,beta,,,61,19,V,R,
338,86,2,8,2,47,33,917,['c'],1,left,['3'],4,27,[0.07197289],86,47,medium,minus,dotcolour,beta,,,61,19,V,R,
339,87,3,8,2,36,44,1432,['c'],0,right,['3'],4,755,[-0.01055714],20,44,hard,minus,dotcolour,beta,,,61,19,V,R,
340,88,4,8,2,33,47,2083,['n'],1,right,['8'],3,377,[-0.17031228],97,47,medium,minus,dotcolour,beta,,,61,19,V,R,
341,89,5,8,2,33,47,1599,['n'],1,right,['3'],4,363,[-0.12013585],87,47,medium,minus,dotcolour,beta,,,61,19,V,R,
342,90,6,8,2,53,27,834,['c'],1,left,['3'],4,300,[0.14359678],95,53,easy,minus,dotcolour,beta,,,61,19,V,R,
343,91,7,8,2,47,33,801,['c'],1,left,['1'],6,162,[0.00924816],11,47,medium,minus,dotcolour,beta,,,61,19,V,R,
344,92,8,8,2,27,53,984,['n'],1,right,['1'],6,389,[-0.12217385],87,53,easy,minus,dotcolour,beta,,,61,19,V,R,
345,93,9,8,2,44,36,900,['c'],1,left,['2'],5,371,[0.09260098],75,44,hard,minus,dotcolour,beta,,,61,19,V,R,
346,94,10,8,2,27,53,750,['n'],1,right,['2'],5,288,[-0.09238458],77,53,easy,minus,dotcolour,beta,,,61,19,V,R,
347,95,11,8,2,36,44,1950,['n'],1,right,['3'],4,647,[-0.18566269],95,44,hard,minus,dotcolour,beta,,,61,19,V,R,
348,96,12,8,2,27,53,2251,['n'],1,right,['3'],4,333,[-0.13167183],91,53,easy,minus,dotcolour,beta,,,61,19,V,R,
349,97,13,8,2,47,33,1000,['c'],1,left,['3'],4,537,[0.1193888],83,47,medium,minus,dotcolour,beta,,,61,19,V,R,
350,98,14,8,2,36,44,3334,['n'],1,right,['8'],3,559,[-0.16362342],93,44,hard,minus,dotcolour,beta,,,61,19,V,R,
351,99,15,8,2,44,36,1616,['c'],1,left,['3'],4,361,[0.20008877],99,44,hard,minus,dotcolour,beta,,,61,19,V,R,
352,100,16,8,2,44,36,2233,['c'],1,left,['3'],4,410,[0.18250337],97,44,hard,minus,dotcolour,beta,,,61,19,V,R,
353,101,17,8,2,36,44,3300,['c'],0,right,['3'],4,407,[0.02305676],29,44,hard,minus,dotcolour,beta,,,61,19,V,R,
354,102,18,8,2,36,44,1616,['c'],0,right,['8'],3,1023,[-0.0506833],13,44,hard,minus,dotcolour,beta,,,61,19,V,R,
355,103,19,8,2,33,47,1701,['n'],1,right,['8'],3,875,[-0.0348925],40,47,medium,minus,dotcolour,beta,,,61,19,V,R,
356,104,20,8,2,33,47,1067,['c'],0,right,['2'],5,1062,[0.00533872],29,47,medium,minus,dotcolour,beta,,,61,19,V,R,
357,105,21,8,2,47,33,850,['c'],1,left,['2'],5,291,[0.16412251],97,47,medium,minus,dotcolour,beta,,,61,19,V,R,
358,106,22,8,2,36,44,1999,['c'],0,right,['3'],4,361,[0.05846653],52,44,hard,minus,dotcolour,beta,,,61,19,V,R,
359,107,23,8,2,33,47,883,['c'],0,right,['8'],3,1336,[-0.06059047],14,47,medium,minus,dotcolour,beta,,,61,19,V,R,
360,108,24,8,2,53,27,700,['c'],1,left,['2'],5,263,[0.10267495],84,53,easy,minus,dotcolour,beta,,,61,19,V,R,
361,109,25,8,2,27,53,1050,['n'],1,right,['2'],5,164,[-0.10071607],88,53,easy,minus,dotcolour,beta,,,61,19,V,R,
362,110,26,8,2,27,53,750,['n'],1,right,['1'],6,176,[-0.0284811],24,53,easy,minus,dotcolour,beta,,,61,19,V,R,
363,111,27,8,2,53,27,1067,['c'],1,left,['1'],6,144,[0.16206802],99,53,easy,minus,dotcolour,beta,,,61,19,V,R,
364,112,28,8,2,33,47,1117,['n'],1,right,['2'],5,422,[-0.10819977],81,47,medium,minus,dotcolour,beta,,,61,19,V,R,
365,113,29,8,2,47,33,999,['c'],1,left,['2'],5,487,[0.14427889],91,47,medium,minus,dotcolour,beta,,,61,19,V,R,
366,114,30,8,2,44,36,949,['c'],1,left,['2'],5,183,[0.12599032],95,44,hard,minus,dotcolour,beta,,,61,19,V,R,
367,115,31,8,2,27,53,668,['n'],1,right,['2'],5,182,[-0.13166971],96,53,easy,minus,dotcolour,beta,,,61,19,V,R,
368,116,32,8,2,36,44,1984,['n'],1,right,['3'],4,513,[-0.13749177],89,44,hard,minus,dotcolour,beta,,,61,19,V,R,
369,117,33,8,2,27,53,633,['n'],1,right,['1'],6,316,[0.01803517],9,53,easy,minus,dotcolour,beta,,,61,19,V,R,
370,118,34,8,2,53,27,1100,['c'],1,left,['1'],6,204,[0.16306412],99,53,easy,minus,dotcolour,beta,,,61,19,V,R,
371,119,35,8,2,53,27,600,['c'],1,left,['1'],6,166,[0.15009059],98,53,easy,minus,dotcolour,beta,,,61,19,V,R,
372,120,36,8,2,33,47,767,['n'],1,right,['1'],6,154,[-0.11976591],95,47,medium,minus,dotcolour,beta,,,61,19,V,R,
373,121,37,8,2,44,36,883,['c'],1,left,['1'],6,146,[0.08571552],81,44,hard,minus,dotcolour,beta,,,61,19,V,R,
374,122,38,8,2,53,27,867,['c'],1,left,['1'],6,123,[0.07787406],76,53,easy,minus,dotcolour,beta,,,61,19,V,R,
375,123,39,8,2,47,33,1918,['n'],0,left,['3'],4,426,[-0.00389013],19,47,medium,minus,dotcolour,beta,,,61,19,V,R,
376,124,40,8,2,44,36,1601,['n'],0,left,['3'],4,547,[-0.0070999],24,44,hard,minus,dotcolour,beta,,,61,19,V,R,
377,125,41,8,2,47,33,866,['c'],1,left,['3'],4,1491,[0.16583447],84,47,medium,minus,dotcolour,beta,,,61,19,V,R,
378,0,0,9,3,44,36,784,['c'],1,left,['1'],6,174,[0.11252305],100,44,hard,plus,dotcolour,beta,,,61,19,V,R,
379,1,1,9,3,33,47,1066,['n'],1,right,['3'],4,149,[-0.06693378],100,47,medium,plus,dotcolour,beta,,,61,19,V,R,
380,2,2,9,3,27,53,867,['n'],1,right,['3'],4,142,[-0.08497008],100,53,easy,plus,dotcolour,beta,,,61,19,V,R,
381,3,3,9,3,53,27,867,['c'],1,left,['1'],6,198,[0.0343556],97,53,easy,plus,dotcolour,beta,,,61,19,V,R,
382,4,4,9,3,33,47,917,['n'],1,right,['3'],4,284,[-0.13924911],100,47,medium,plus,dotcolour,beta,,,61,19,V,R,
383,5,5,9,3,44,36,633,['c'],1,left,['3'],4,184,[0.08776121],100,44,hard,plus,dotcolour,beta,,,61,19,V,R,
384,6,6,9,3,47,33,533,['c'],1,left,['1'],6,132,[0.04309874],99,47,medium,plus,dotcolour,beta,,,61,19,V,R,
385,7,7,9,3,27,53,867,['n'],1,right,['1'],6,110,[-0.12293486],100,53,easy,plus,dotcolour,beta,,,61,19,V,R,
386,8,8,9,3,53,27,583,['c'],1,left,['1'],6,115,[0.10197657],100,53,easy,plus,dotcolour,beta,,,61,19,V,R,
387,9,9,9,3,36,44,1467,['n'],1,right,['1'],6,277,[-0.01925414],93,44,hard,plus,dotcolour,beta,,,61,19,V,R,
388,10,10,9,3,27,53,916,['c'],0,right,['1'],6,119,[0.04997696],100,53,easy,plus,dotcolour,beta,,,61,19,V,R,
389,11,11,9,3,47,33,550,['c'],1,left,['1'],6,93,[0.06624328],100,47,medium,plus,dotcolour,beta,,,61,19,V,R,
390,12,12,9,3,47,33,551,['c'],1,left,['1'],6,133,[0.07217721],100,47,medium,plus,dotcolour,beta,,,61,19,V,R,
391,13,13,9,3,47,33,550,['c'],1,left,['1'],6,114,[0.088712],100,47,medium,plus,dotcolour,beta,,,61,19,V,R,
392,14,14,9,3,53,27,567,['c'],1,left,['1'],6,153,[0.11681659],100,53,easy,plus,dotcolour,beta,,,61,19,V,R,
393,15,15,9,3,44,36,500,['c'],1,left,['1'],6,144,[0.10020587],100,44,hard,plus,dotcolour,beta,,,61,19,V,R,
394,16,16,9,3,53,27,400,['c'],1,left,['1'],6,163,[0.11428427],100,53,easy,plus,dotcolour,beta,,,61,19,V,R,
395,17,17,9,3,36,44,584,['c'],0,right,['1'],6,103,[0.10619189],100,44,hard,plus,dotcolour,beta,,,61,19,V,R,
396,18,18,9,3,33,47,934,['n'],1,right,['1'],6,94,[-0.03909096],100,47,medium,plus,dotcolour,beta,,,61,19,V,R,
397,19,19,9,3,27,53,634,['n'],1,right,['1'],6,51,[-0.06721927],100,53,easy,plus,dotcolour,beta,,,61,19,V,R,
398,20,20,9,3,36,44,350,['n'],1,right,['1'],6,268,[-0.06175099],98,44,hard,plus,dotcolour,beta,,,61,19,V,R,
399,21,21,9,3,33,47,668,['c'],0,right,['1'],6,136,[0.07900804],100,47,medium,plus,dotcolour,beta,,,61,19,V,R,
400,22,22,9,3,47,33,534,['c'],1,left,['1'],6,143,[0.13000111],100,47,medium,plus,dotcolour,beta,,,61,19,V,R,
401,23,23,9,3,44,36,366,['c'],1,left,['1'],6,131,[0.117384],100,44,hard,plus,dotcolour,beta,,,61,19,V,R,
402,24,24,9,3,47,33,566,['c'],1,left,['1'],6,113,[0.11534691],100,47,medium,plus,dotcolour,beta,,,61,19,V,R,
403,25,25,9,3,27,53,550,['n'],1,right,['1'],6,111,[-0.06455869],100,53,easy,plus,dotcolour,beta,,,61,19,V,R,
404,26,26,9,3,27,53,551,['n'],1,right,['1'],6,70,[-0.04088494],100,53,easy,plus,dotcolour,beta,,,61,19,V,R,
405,27,27,9,3,44,36,1833,['n'],0,left,['3'],4,515,[-0.13349022],99,44,hard,plus,dotcolour,beta,,,61,19,V,R,
406,28,28,9,3,53,27,667,['c'],1,left,['1'],6,125,[0.09176371],100,53,easy,plus,dotcolour,beta,,,61,19,V,R,
407,29,29,9,3,36,44,1067,['n'],1,right,['2'],5,343,[-0.15043591],100,44,hard,plus,dotcolour,beta,,,61,19,V,R,
408,30,30,9,3,33,47,2616,['c'],0,right,['3'],4,234,[0.07855731],99,47,medium,plus,dotcolour,beta,,,61,19,V,R,
409,31,31,9,3,53,27,684,['c'],1,left,['1'],6,238,[0.1223813],100,53,easy,plus,dotcolour,beta,,,61,19,V,R,
410,32,32,9,3,44,36,1467,['n'],0,left,['2'],5,324,[-0.03468912],95,44,hard,plus,dotcolour,beta,,,61,19,V,R,
411,33,33,9,3,36,44,732,['c'],0,right,['1'],6,139,[0.02537966],98,44,hard,plus,dotcolour,beta,,,61,19,V,R,
412,34,34,9,3,36,44,1100,['n'],1,right,['2'],5,195,[-0.06885946],99,44,hard,plus,dotcolour,beta,,,61,19,V,R,
413,35,35,9,3,44,36,767,['c'],1,left,['2'],5,213,[0.0630693],99,44,hard,plus,dotcolour,beta,,,61,19,V,R,
414,36,36,9,3,33,47,500,['c'],0,right,['8'],3,1138,[0.06128879],88,47,medium,plus,dotcolour,beta,,,61,19,V,R,
415,37,37,9,3,27,53,834,['n'],1,right,['1'],6,212,[-0.08717037],100,53,easy,plus,dotcolour,beta,,,61,19,V,R,
416,38,38,9,3,47,33,850,['c'],1,left,['2'],5,250,[0.11580904],100,47,medium,plus,dotcolour,beta,,,61,19,V,R,
417,39,39,9,3,53,27,716,['c'],1,left,['1'],6,150,[0.08049517],100,53,easy,plus,dotcolour,beta,,,61,19,V,R,
418,40,40,9,3,36,44,833,['n'],1,right,['2'],5,343,[-0.16421272],100,44,hard,plus,dotcolour,beta,,,61,19,V,R,
419,41,41,9,3,33,47,1016,['n'],1,right,['2'],5,194,[-0.08081068],100,47,medium,plus,dotcolour,beta,,,61,19,V,R,
420,42,0,10,3,44,36,734,['c'],1,left,['1'],6,164,[0.09095515],100,44,hard,plus,dotcolour,beta,,,61,19,V,R,
421,43,1,10,3,36,44,684,['c'],0,right,['1'],6,139,[0.07138673],100,44,hard,plus,dotcolour,beta,,,61,19,V,R,
422,44,2,10,3,47,33,484,['c'],1,left,['1'],6,123,[0.06700564],100,47,medium,plus,dotcolour,beta,,,61,19,V,R,
423,45,3,10,3,47,33,484,['c'],1,left,['1'],6,132,[0.10333836],100,47,medium,plus,dotcolour,beta,,,61,19,V,R,
424,46,4,10,3,44,36,384,['c'],1,left,['1'],6,185,[0.12949727],100,44,hard,plus,dotcolour,beta,,,61,19,V,R,
425,47,5,10,3,47,33,383,['c'],1,left,['1'],6,171,[0.08924821],100,47,medium,plus,dotcolour,beta,,,61,19,V,R,
426,48,6,10,3,44,36,467,['c'],1,left,['1'],6,163,[0.11693463],100,44,hard,plus,dotcolour,beta,,,61,19,V,R,
427,49,7,10,3,53,27,467,['c'],1,left,['1'],6,148,[0.04329014],99,53,easy,plus,dotcolour,beta,,,61,19,V,R,
428,50,8,10,3,36,44,983,['n'],1,right,['1'],6,104,[-0.06082246],100,44,hard,plus,dotcolour,beta,,,61,19,V,R,
429,51,9,10,3,36,44,450,['n'],1,right,['1'],6,75,[-0.0694529],100,44,hard,plus,dotcolour,beta,,,61,19,V,R,
430,52,10,10,3,33,47,349,['n'],1,right,['1'],6,115,[-0.0125675],97,47,medium,plus,dotcolour,beta,,,61,19,V,R,
431,53,11,10,3,53,27,567,['c'],1,left,['1'],6,89,[0.03356363],100,53,easy,plus,dotcolour,beta,,,61,19,V,R,
432,54,12,10,3,27,53,566,['n'],1,right,['1'],6,96,[-0.05758146],100,53,easy,plus,dotcolour,beta,,,61,19,V,R,
433,55,13,10,3,44,36,650,['c'],1,left,['1'],6,115,[0.0289221],99,44,hard,plus,dotcolour,beta,,,61,19,V,R,
434,56,14,10,3,27,53,534,['n'],1,right,['1'],6,91,[-0.08638182],100,53,easy,plus,dotcolour,beta,,,61,19,V,R,
435,57,15,10,3,33,47,1334,['n'],1,right,['3'],4,363,[-0.13455894],100,47,medium,plus,dotcolour,beta,,,61,19,V,R,
436,58,16,10,3,53,27,534,['c'],1,left,['1'],6,128,[0.02396116],98,53,easy,plus,dotcolour,beta,,,61,19,V,R,
437,59,17,10,3,44,36,350,['c'],1,left,['1'],6,119,[0.02358039],98,44,hard,plus,dotcolour,beta,,,61,19,V,R,
438,60,18,10,3,27,53,800,['n'],1,right,['1'],6,419,[-0.16558121],100,53,easy,plus,dotcolour,beta,,,61,19,V,R,
439,61,19,10,3,27,53,550,['n'],1,right,['1'],6,94,[-0.04187248],100,53,easy,plus,dotcolour,beta,,,61,19,V,R,
440,62,20,10,3,27,53,600,['n'],1,right,['1'],6,91,[-0.11827016],100,53,easy,plus,dotcolour,beta,,,61,19,V,R,
441,63,21,10,3,27,53,2283,['n'],1,right,['1'],6,645,[-0.29433263],100,53,easy,plus,dotcolour,beta,,,61,19,V,R,
442,64,22,10,3,36,44,1166,['n'],1,right,['2'],5,350,[-0.04351218],95,44,hard,plus,dotcolour,beta,,,61,19,V,R,
443,65,23,10,3,27,53,650,['n'],1,right,['2'],5,159,[-0.14641035],100,53,easy,plus,dotcolour,beta,,,61,19,V,R,
444,66,24,10,3,33,47,2050,['c'],0,right,['2'],5,200,[0.03729267],98,47,medium,plus,dotcolour,beta,,,61,19,V,R,
445,67,25,10,3,47,33,716,['c'],1,left,['2'],5,140,[0.09059226],100,47,medium,plus,dotcolour,beta,,,61,19,V,R,
446,68,26,10,3,33,47,567,['n'],1,right,['2'],5,185,[-0.11766272],100,47,medium,plus,dotcolour,beta,,,61,19,V,R,
447,69,27,10,3,33,47,1117,['c'],0,right,['2'],5,655,[0.03816253],89,47,medium,plus,dotcolour,beta,,,61,19,V,R,
448,70,28,10,3,36,44,834,['c'],0,right,['1'],6,188,[0.03697961],98,44,hard,plus,dotcolour,beta,,,61,19,V,R,
449,71,29,10,3,47,33,667,['c'],1,left,['1'],6,163,[0.10414734],100,47,medium,plus,dotcolour,beta,,,61,19,V,R,
450,72,30,10,3,47,33,684,['c'],1,left,['1'],6,379,[0.06430501],97,47,medium,plus,dotcolour,beta,,,61,19,V,R,
451,73,31,10,3,44,36,701,['c'],1,left,['1'],6,121,[0.02518991],98,44,hard,plus,dotcolour,beta,,,61,19,V,R,
452,74,32,10,3,36,44,567,['c'],0,right,['1'],6,183,[0.08847882],100,44,hard,plus,dotcolour,beta,,,61,19,V,R,
453,75,33,10,3,47,33,584,['c'],1,left,['1'],6,162,[0.12360528],100,47,medium,plus,dotcolour,beta,,,61,19,V,R,
454,76,34,10,3,36,44,534,['c'],0,right,['1'],6,207,[-0.02105473],80,44,hard,plus,dotcolour,beta,,,61,19,V,R,
455,77,35,10,3,53,27,684,['c'],1,left,['1'],6,116,[0.06952711],100,53,easy,plus,dotcolour,beta,,,61,19,V,R,
456,78,36,10,3,53,27,834,['c'],1,left,['1'],6,296,[0.06607051],98,53,easy,plus,dotcolour,beta,,,61,19,V,R,
457,79,37,10,3,44,36,1367,['c'],1,left,['3'],4,158,[0.10277141],100,44,hard,plus,dotcolour,beta,,,61,19,V,R,
458,80,38,10,3,53,27,633,['c'],1,left,['2'],5,151,[0.10987683],100,53,easy,plus,dotcolour,beta,,,61,19,V,R,
459,81,39,10,3,53,27,467,['c'],1,left,['2'],5,121,[0.06419878],100,53,easy,plus,dotcolour,beta,,,61,19,V,R,
460,82,40,10,3,33,47,983,['n'],1,right,['2'],5,206,[-0.07545324],99,47,medium,plus,dotcolour,beta,,,61,19,V,R,
461,83,41,10,3,33,47,1433,['c'],0,right,['2'],5,173,[0.11493526],100,47,medium,plus,dotcolour,beta,,,61,19,V,R,
462,84,0,11,3,53,27,684,['c'],1,left,['1'],6,171,[0.09175468],100,53,easy,plus,dotcolour,beta,,,61,19,V,R,
463,85,1,11,3,44,36,468,['c'],1,left,['1'],6,171,[0.05240796],99,44,hard,plus,dotcolour,beta,,,61,19,V,R,
464,86,2,11,3,47,33,500,['c'],1,left,['1'],6,202,[0.15315002],100,47,medium,plus,dotcolour,beta,,,61,19,V,R,
465,87,3,11,3,33,47,851,['n'],1,right,['2'],5,201,[-0.04682401],98,47,medium,plus,dotcolour,beta,,,61,19,V,R,
466,88,4,11,3,33,47,1283,['n'],1,right,['2'],5,175,[-0.01662815],96,47,medium,plus,dotcolour,beta,,,61,19,V,R,
467,89,5,11,3,36,44,467,['n'],1,right,['3'],4,254,[-0.09164821],99,44,hard,plus,dotcolour,beta,,,61,19,V,R,
468,90,6,11,3,44,36,2050,['c'],1,left,['3'],4,356,[0.15388847],100,44,hard,plus,dotcolour,beta,,,61,19,V,R,
469,91,7,11,3,44,36,482,['c'],1,left,['1'],6,171,[0.06124672],99,44,hard,plus,dotcolour,beta,,,61,19,V,R,
470,92,8,11,3,27,53,917,['n'],1,right,['2'],5,153,[-0.03712308],99,53,easy,plus,dotcolour,beta,,,61,19,V,R,
471,93,9,11,3,53,27,550,['c'],1,left,['2'],5,206,[0.03867982],98,53,easy,plus,dotcolour,beta,,,61,19,V,R,
472,94,10,11,3,47,33,567,['c'],1,left,['2'],5,264,[0.09166154],99,47,medium,plus,dotcolour,beta,,,61,19,V,R,
473,95,11,11,3,53,27,783,['c'],1,left,['2'],5,240,[0.09897459],100,53,easy,plus,dotcolour,beta,,,61,19,V,R,
474,96,12,11,3,47,33,1200,['c'],1,left,['3'],4,391,[0.19772599],100,47,medium,plus,dotcolour,beta,,,61,19,V,R,
475,97,13,11,3,44,36,617,['c'],1,left,['2'],5,456,[0.11941565],99,44,hard,plus,dotcolour,beta,,,61,19,V,R,
476,98,14,11,3,27,53,1018,['n'],1,right,['2'],5,134,[-0.07288451],100,53,easy,plus,dotcolour,beta,,,61,19,V,R,
477,99,15,11,3,33,47,1883,['n'],1,right,['3'],4,535,[0.01452263],73,47,medium,plus,dotcolour,beta,,,61,19,V,R,
478,100,16,11,3,44,36,834,['c'],1,left,['3'],4,57,[0.07295829],100,44,hard,plus,dotcolour,beta,,,61,19,V,R,
479,101,17,11,3,27,53,1384,['n'],1,right,['3'],4,129,[-0.11807711],100,53,easy,plus,dotcolour,beta,,,61,19,V,R,
480,102,18,11,3,27,53,1017,['n'],1,right,['3'],4,196,[-0.13302174],100,53,easy,plus,dotcolour,beta,,,61,19,V,R,
481,103,19,11,3,33,47,1167,['n'],1,right,['3'],4,135,[-0.04779848],99,47,medium,plus,dotcolour,beta,,,61,19,V,R,
482,104,20,11,3,33,47,583,['n'],1,right,['3'],4,123,[-0.06123072],100,47,medium,plus,dotcolour,beta,,,61,19,V,R,
483,105,21,11,3,53,27,734,['c'],1,left,['1'],6,114,[0.14690881],100,53,easy,plus,dotcolour,beta,,,61,19,V,R,
484,106,22,11,3,53,27,850,['c'],1,left,['1'],6,141,[0.07996134],100,53,easy,plus,dotcolour,beta,,,61,19,V,R,
485,107,23,11,3,36,44,784,['n'],1,right,['1'],6,217,[-0.10779518],100,44,hard,plus,dotcolour,beta,,,61,19,V,R,
486,108,24,11,3,33,47,699,['n'],1,right,['1'],6,134,[-0.05559504],100,47,medium,plus,dotcolour,beta,,,61,19,V,R,
487,109,25,11,3,53,27,717,['c'],1,left,['1'],6,221,[0.06141767],99,53,easy,plus,dotcolour,beta,,,61,19,V,R,
488,110,26,11,3,36,44,501,['c'],0,right,['1'],6,145,[0.04055774],99,44,hard,plus,dotcolour,beta,,,61,19,V,R,
489,111,27,11,3,36,44,2100,['n'],1,right,['3'],4,361,[-0.06812316],98,44,hard,plus,dotcolour,beta,,,61,19,V,R,
490,112,28,11,3,33,47,2117,['c'],0,right,['3'],4,287,[0.06885609],98,47,medium,plus,dotcolour,beta,,,61,19,V,R,
491,113,29,11,3,27,53,1167,['n'],1,right,['1'],6,270,[-0.14039293],100,53,easy,plus,dotcolour,beta,,,61,19,V,R,
492,114,30,11,3,47,33,616,['c'],1,left,['1'],6,221,[0.06900943],99,47,medium,plus,dotcolour,beta,,,61,19,V,R,
493,115,31,11,3,47,33,700,['c'],1,left,['1'],6,129,[0.10058252],100,47,medium,plus,dotcolour,beta,,,61,19,V,R,
494,116,32,11,3,36,44,1250,['n'],1,right,['3'],4,195,[-0.02614603],97,44,hard,plus,dotcolour,beta,,,61,19,V,R,
495,117,33,11,3,36,44,1416,['c'],0,right,['3'],4,500,[0.1031845],98,44,hard,plus,dotcolour,beta,,,61,19,V,R,
496,118,34,11,3,47,33,899,['c'],1,left,['3'],4,53,[0.11835924],100,47,medium,plus,dotcolour,beta,,,61,19,V,R,
497,119,35,11,3,44,36,2285,['c'],1,left,['3'],4,1001,[0.08026353],92,44,hard,plus,dotcolour,beta,,,61,19,V,R,
498,120,36,11,3,44,36,666,['c'],1,left,['1'],6,143,[0.0596849],100,44,hard,plus,dotcolour,beta,,,61,19,V,R,
499,121,37,11,3,36,44,1551,['n'],1,right,['3'],4,1173,[0.0160187],66,44,hard,plus,dotcolour,beta,,,61,19,V,R,
500,122,38,11,3,53,27,501,['c'],1,left,['1'],6,122,[0.0769707],100,53,easy,plus,dotcolour,beta,,,61,19,V,R,
501,123,39,11,3,27,53,1033,['n'],1,right,['1'],6,102,[-0.06475791],100,53,easy,plus,dotcolour,beta,,,61,19,V,R,
502,124,40,11,3,47,33,634,['c'],1,left,['1'],6,122,[0.10110072],100,47,medium,plus,dotcolour,beta,,,61,19,V,R,
503,125,41,11,3,27,53,667,['n'],1,right,['1'],6,188,[-0.20787625],100,53,easy,plus,dotcolour,beta,,,61,19,V,R,
504,0,0,12,4,36,44,734,['n'],1,right,['1'],6,96,[-0.09268017],90,44,hard,minus,dotcolour,beta,,,61,19,V,R,
505,1,1,12,4,47,33,550,['c'],1,left,['1'],6,112,[0.08600139],84,47,medium,minus,dotcolour,beta,,,61,19,V,R,
506,2,2,12,4,53,27,819,['c'],1,left,['1'],6,100,[0.11679158],97,53,easy,minus,dotcolour,beta,,,61,19,V,R,
507,3,3,12,4,44,36,1217,['c'],1,left,['1'],6,72,[0.08711817],89,44,hard,minus,dotcolour,beta,,,61,19,V,R,
508,4,4,12,4,27,53,717,['n'],1,right,['1'],6,195,[-0.09393787],83,53,easy,minus,dotcolour,beta,,,61,19,V,R,
509,5,5,12,4,36,44,1250,['n'],1,right,['3'],4,419,[-0.0196203],27,44,hard,minus,dotcolour,beta,,,61,19,V,R,
510,6,6,12,4,27,53,800,['n'],1,right,['1'],6,50,[-0.02927935],11,53,easy,minus,dotcolour,beta,,,61,19,V,R,
511,7,7,12,4,44,36,1283,['c'],1,left,['1'],6,238,[0.0607228],55,44,hard,minus,dotcolour,beta,,,61,19,V,R,
512,8,8,12,4,27,53,901,['n'],1,right,['1'],6,131,[-0.10188691],91,53,easy,minus,dotcolour,beta,,,61,19,V,R,
513,9,9,12,4,33,47,550,['n'],1,right,['1'],6,104,[-0.05527617],50,47,medium,minus,dotcolour,beta,,,61,19,V,R,
514,10,10,12,4,53,27,733,['c'],1,left,['1'],6,96,[0.0519137],45,53,easy,minus,dotcolour,beta,,,61,19,V,R,
515,11,11,12,4,33,47,699,['n'],1,right,['1'],6,113,[-0.10059789],92,47,medium,minus,dotcolour,beta,,,61,19,V,R,
516,12,12,12,4,53,27,550,['c'],1,left,['1'],6,105,[0.06216304],59,53,easy,minus,dotcolour,beta,,,61,19,V,R,
517,13,13,12,4,33,47,917,['n'],1,right,['2'],5,81,[-0.15177314],100,47,medium,minus,dotcolour,beta,,,61,19,V,R,
518,14,14,12,4,44,36,634,['c'],1,left,['2'],5,126,[0.12773709],97,44,hard,minus,dotcolour,beta,,,61,19,V,R,
519,15,15,12,4,53,27,584,['c'],1,left,['2'],5,163,[0.07806121],73,53,easy,minus,dotcolour,beta,,,61,19,V,R,
520,16,16,12,4,47,33,283,['c'],1,left,['2'],5,138,[0.12569433],97,47,medium,minus,dotcolour,beta,,,61,19,V,R,
521,17,17,12,4,47,33,383,['c'],1,left,['2'],5,39,[0.06647099],73,47,medium,minus,dotcolour,beta,,,61,19,V,R,
522,18,18,12,4,44,36,300,['c'],1,left,['2'],5,114,[0.06858585],67,44,hard,minus,dotcolour,beta,,,61,19,V,R,
523,19,19,12,4,53,27,1033,['c'],1,left,['2'],5,334,[0.11794294],87,53,easy,minus,dotcolour,beta,,,61,19,V,R,
524,20,20,12,4,36,44,1200,['n'],1,right,['3'],4,354,[-0.06582465],58,44,hard,minus,dotcolour,beta,,,61,19,V,R,
525,21,21,12,4,27,53,650,['n'],1,right,['2'],5,251,[-0.04646328],42,53,easy,minus,dotcolour,beta,,,61,19,V,R,
526,22,22,12,4,47,33,884,['c'],1,left,['2'],5,175,[0.05956128],54,47,medium,minus,dotcolour,beta,,,61,19,V,R,
527,23,23,12,4,44,36,484,['c'],1,left,['1'],6,230,[0.10433799],86,44,hard,minus,dotcolour,beta,,,61,19,V,R,
528,24,24,12,4,33,47,565,['c'],0,right,['2'],5,1232,[0.09474459],65,47,medium,minus,dotcolour,beta,,,61,19,V,R,
529,25,25,12,4,44,36,466,['c'],1,left,['2'],5,164,[0.03679132],30,44,hard,minus,dotcolour,beta,,,61,19,V,R,
530,26,26,12,4,44,36,367,['c'],1,left,['2'],5,80,[0.07062365],72,44,hard,minus,dotcolour,beta,,,61,19,V,R,
531,27,27,12,4,36,44,333,['c'],0,right,['2'],5,104,[0.08766494],86,44,hard,minus,dotcolour,beta,,,61,19,V,R,
532,28,28,12,4,47,33,383,['c'],1,left,['2'],5,22,[0.08668218],98,47,medium,minus,dotcolour,beta,,,61,19,V,R,
533,29,29,12,4,47,33,317,['c'],1,left,['2'],5,66,[0.06225104],62,47,medium,minus,dotcolour,beta,,,61,19,V,R,
534,30,30,12,4,27,53,283,['c'],0,right,['2'],5,78,[0.0858449],88,53,easy,minus,dotcolour,beta,,,61,19,V,R,
535,31,31,12,4,27,53,851,['n'],1,right,['2'],5,154,[-0.05581932],50,53,easy,minus,dotcolour,beta,,,61,19,V,R,
536,32,32,12,4,36,44,2134,['n'],1,right,['8'],3,952,[-0.10974643],73,44,hard,minus,dotcolour,beta,,,61,19,V,R,
537,33,33,12,4,33,47,1032,['n'],1,right,['3'],4,169,[-0.08906481],81,47,medium,minus,dotcolour,beta,,,61,19,V,R,
538,34,34,12,4,53,27,600,['c'],1,left,['2'],5,140,[0.09412614],86,53,easy,minus,dotcolour,beta,,,61,19,V,R,
539,35,35,12,4,47,33,517,['c'],1,left,['1'],6,146,[0.07436666],71,47,medium,minus,dotcolour,beta,,,61,19,V,R,
540,36,36,12,4,27,53,917,['n'],1,right,['2'],5,201,[-0.2238346],100,53,easy,minus,dotcolour,beta,,,61,19,V,R,
541,37,37,12,4,36,44,1532,['c'],0,right,['3'],4,653,[0.09331194],70,44,hard,minus,dotcolour,beta,,,61,19,V,R,
542,38,38,12,4,53,27,817,['c'],1,left,['3'],4,347,[0.21856407],99,53,easy,minus,dotcolour,beta,,,61,19,V,R,
543,39,39,12,4,33,47,450,['c'],0,right,['0'],1,1901,[-0.18357573],4,47,medium,minus,dotcolour,beta,,,61,19,V,R,
544,40,40,12,4,36,44,1267,['c'],0,right,['1'],6,215,[0.0842546],75,44,hard,minus,dotcolour,beta,,,61,19,V,R,
545,41,41,12,4,33,47,634,['c'],0,right,['1'],6,158,[0.09608124],86,47,medium,minus,dotcolour,beta,,,61,19,V,R,
546,42,0,13,4,33,47,1350,['n'],1,right,['2'],5,163,[-0.12358406],95,47,medium,minus,dotcolour,beta,,,61,19,V,R,
547,43,1,13,4,47,33,1384,['n'],0,left,['3'],4,638,[-0.1132326],79,47,medium,minus,dotcolour,beta,,,61,19,V,R,
548,44,2,13,4,44,36,618,['c'],1,left,['2'],5,117,[0.12408436],97,44,hard,minus,dotcolour,beta,,,61,19,V,R,
549,45,3,13,4,33,47,683,['n'],1,right,['2'],5,110,[-0.02037766],13,47,medium,minus,dotcolour,beta,,,61,19,V,R,
550,46,4,13,4,53,27,716,['c'],1,left,['1'],6,190,[0.15346584],98,53,easy,minus,dotcolour,beta,,,61,19,V,R,
551,47,5,13,4,47,33,1117,['c'],1,left,['3'],4,435,[0.22382282],99,47,medium,minus,dotcolour,beta,,,61,19,V,R,
552,48,6,13,4,27,53,850,['n'],1,right,['1'],6,113,[-0.09568978],90,53,easy,minus,dotcolour,beta,,,61,19,V,R,
553,49,7,13,4,27,53,667,['n'],1,right,['1'],6,163,[-0.12164229],95,53,easy,minus,dotcolour,beta,,,61,19,V,R,
554,50,8,13,4,47,33,583,['c'],1,left,['1'],6,111,[0.06787131],66,47,medium,minus,dotcolour,beta,,,61,19,V,R,
555,51,9,13,4,27,53,600,['n'],1,right,['1'],6,187,[-0.07289617],67,53,easy,minus,dotcolour,beta,,,61,19,V,R,
556,52,10,13,4,36,44,882,['c'],0,right,['0'],1,2090,[-0.1797694],5,44,hard,minus,dotcolour,beta,,,61,19,V,R,
557,53,11,13,4,33,47,767,['n'],1,right,['2'],5,392,[-0.19593067],98,47,medium,minus,dotcolour,beta,,,61,19,V,R,
558,54,12,13,4,53,27,734,['n'],0,left,['1'],6,164,[-0.08071848],75,53,easy,minus,dotcolour,beta,,,61,19,V,R,
559,55,13,13,4,53,27,882,['c'],1,left,['1'],6,276,[0.11319745],88,53,easy,minus,dotcolour,beta,,,61,19,V,R,
560,56,14,13,4,47,33,450,['c'],1,left,['2'],5,152,[0.06085298],56,47,medium,minus,dotcolour,beta,,,61,19,V,R,
561,57,15,13,4,44,36,450,['c'],1,left,['2'],5,146,[0.12083528],96,44,hard,minus,dotcolour,beta,,,61,19,V,R,
562,58,16,13,4,33,47,1216,['n'],1,right,['2'],5,140,[-0.05929193],54,47,medium,minus,dotcolour,beta,,,61,19,V,R,
563,59,17,13,4,33,47,816,['c'],0,right,['2'],5,150,[0.10623247],91,47,medium,minus,dotcolour,beta,,,61,19,V,R,
564,60,18,13,4,44,36,1967,['c'],1,left,['2'],5,227,[0.09144024],80,44,hard,minus,dotcolour,beta,,,61,19,V,R,
565,61,19,13,4,27,53,1117,['n'],1,right,['2'],5,175,[-0.10517881],89,53,easy,minus,dotcolour,beta,,,61,19,V,R,
566,62,20,13,4,53,27,600,['c'],1,left,['2'],5,105,[0.04971317],42,53,easy,minus,dotcolour,beta,,,61,19,V,R,
567,63,21,13,4,36,44,1684,['n'],1,right,['3'],4,619,[-0.09379821],71,44,hard,minus,dotcolour,beta,,,61,19,V,R,
568,64,22,13,4,53,27,633,['c'],1,left,['2'],5,162,[0.08201908],77,53,easy,minus,dotcolour,beta,,,61,19,V,R,
569,65,23,13,4,53,27,650,['c'],1,left,['2'],5,139,[0.12808852],97,53,easy,minus,dotcolour,beta,,,61,19,V,R,
570,66,24,13,4,36,44,1000,['n'],1,right,['3'],4,438,[-0.13497808],90,44,hard,minus,dotcolour,beta,,,61,19,V,R,
571,67,25,13,4,44,36,567,['c'],1,left,['3'],4,359,[0.20968404],99,44,hard,minus,dotcolour,beta,,,61,19,V,R,
572,68,26,13,4,36,44,851,['n'],1,right,['3'],4,160,[-0.09022349],83,44,hard,minus,dotcolour,beta,,,61,19,V,R,
573,69,27,13,4,36,44,768,['c'],0,right,['3'],4,156,[0.02025865],17,44,hard,minus,dotcolour,beta,,,61,19,V,R,
574,70,28,13,4,47,33,616,['c'],1,left,['2'],5,269,[0.15859947],97,47,medium,minus,dotcolour,beta,,,61,19,V,R,
575,71,29,13,4,47,33,433,['c'],1,left,['2'],5,147,[0.00258965],8,47,medium,minus,dotcolour,beta,,,61,19,V,R,
576,72,30,13,4,44,36,434,['c'],1,left,['2'],5,165,[0.12235739],95,44,hard,minus,dotcolour,beta,,,61,19,V,R,
577,73,31,13,4,44,36,417,['c'],1,left,['2'],5,223,[0.08061683],72,44,hard,minus,dotcolour,beta,,,61,19,V,R,
578,74,32,13,4,36,44,334,['c'],0,right,['0'],1,1226,[0.12310278],75,44,hard,minus,dotcolour,beta,,,61,19,V,R,
579,75,33,13,4,44,36,567,['c'],1,left,['2'],5,155,[0.09335259],85,44,hard,minus,dotcolour,beta,,,61,19,V,R,
580,76,34,13,4,27,53,700,['c'],0,right,['0'],1,858,[-0.06073799],9,53,easy,minus,dotcolour,beta,,,61,19,V,R,
581,77,35,13,4,27,53,667,['n'],1,right,['3'],4,310,[-0.10899567],85,53,easy,minus,dotcolour,beta,,,61,19,V,R,
582,78,36,13,4,53,27,650,['c'],1,left,['1'],6,289,[0.02031489],24,53,easy,minus,dotcolour,beta,,,61,19,V,R,
583,79,37,13,4,33,47,1017,['c'],0,right,['2'],5,1158,[-0.07060149],11,47,medium,minus,dotcolour,beta,,,61,19,V,R,
584,80,38,13,4,47,33,650,['c'],1,left,['1'],6,286,[0.13159785],93,47,medium,minus,dotcolour,beta,,,61,19,V,R,
585,81,39,13,4,27,53,583,['n'],1,right,['1'],6,213,[-0.10083584],85,53,easy,minus,dotcolour,beta,,,61,19,V,R,
586,82,40,13,4,33,47,617,['c'],0,right,['1'],6,189,[0.04381081],38,47,medium,minus,dotcolour,beta,,,61,19,V,R,
587,83,41,13,4,36,44,1200,['n'],1,right,['1'],6,143,[-0.05108243],45,44,hard,minus,dotcolour,beta,,,61,19,V,R,
588,84,0,14,4,27,53,702,['n'],1,right,['1'],6,59,[-0.1046551],97,53,easy,minus,dotcolour,beta,,,61,19,V,R,
589,85,1,14,4,53,27,517,['c'],1,left,['1'],6,92,[0.0899091],88,53,easy,minus,dotcolour,beta,,,61,19,V,R,
590,86,2,14,4,36,44,1100,['n'],1,right,['1'],6,109,[-0.11134395],95,44,hard,minus,dotcolour,beta,,,61,19,V,R,
591,87,3,14,4,27,53,449,['n'],1,right,['1'],6,89,[-0.06683205],66,53,easy,minus,dotcolour,beta,,,61,19,V,R,
592,88,4,14,4,33,47,717,['n'],1,right,['1'],6,153,[-0.09464967],86,47,medium,minus,dotcolour,beta,,,61,19,V,R,
593,89,5,14,4,47,33,783,['c'],1,left,['1'],6,133,[0.03929398],31,47,medium,minus,dotcolour,beta,,,61,19,V,R,
594,90,6,14,4,47,33,1284,['c'],1,left,['2'],5,166,[0.012533],13,47,medium,minus,dotcolour,beta,,,61,19,V,R,
595,91,7,14,4,27,53,667,['n'],1,right,['1'],6,374,[-0.19682585],98,53,easy,minus,dotcolour,beta,,,61,19,V,R,
596,92,8,14,4,36,44,1751,['c'],0,right,['8'],3,1010,[0.02121589],35,44,hard,minus,dotcolour,beta,,,61,19,V,R,
597,93,9,14,4,33,47,784,['c'],0,right,['2'],5,468,[0.18659],97,47,medium,minus,dotcolour,beta,,,61,19,V,R,
598,94,10,14,4,44,36,633,['c'],1,left,['2'],5,209,[0.07561117],69,44,hard,minus,dotcolour,beta,,,61,19,V,R,
599,95,11,14,4,44,36,717,['c'],1,left,['2'],5,132,[0.0837295],80,44,hard,minus,dotcolour,beta,,,61,19,V,R,
600,96,12,14,4,33,47,600,['c'],0,right,['0'],1,873,[-0.16787481],1,47,medium,minus,dotcolour,beta,,,61,19,V,R,
601,97,13,14,4,44,36,783,['c'],1,left,['1'],6,191,[0.11175018],91,44,hard,minus,dotcolour,beta,,,61,19,V,R,
602,98,14,14,4,36,44,734,['c'],0,right,['1'],6,171,[-0.02317837],3,44,hard,minus,dotcolour,beta,,,61,19,V,R,
603,99,15,14,4,47,33,717,['c'],1,left,['1'],6,154,[0.06137372],57,47,medium,minus,dotcolour,beta,,,61,19,V,R,
604,100,16,14,4,27,53,1167,['n'],1,right,['2'],5,702,[-0.19333624],95,53,easy,minus,dotcolour,beta,,,61,19,V,R,
605,101,17,14,4,44,36,733,['c'],1,left,['1'],6,173,[0.0730658],68,44,hard,minus,dotcolour,beta,,,61,19,V,R,
606,102,18,14,4,36,44,716,['c'],0,right,['2'],5,403,[0.09264233],74,44,hard,minus,dotcolour,beta,,,61,19,V,R,
607,103,19,14,4,53,27,767,['c'],1,left,['2'],5,590,[0.23383825],98,53,easy,minus,dotcolour,beta,,,61,19,V,R,
608,104,20,14,4,53,27,550,['c'],1,left,['1'],6,201,[0.21918431],100,53,easy,minus,dotcolour,beta,,,61,19,V,R,
609,105,21,14,4,44,36,401,['c'],1,left,['1'],6,171,[0.07160317],67,44,hard,minus,dotcolour,beta,,,61,19,V,R,
610,106,22,14,4,33,47,1066,['n'],1,right,['2'],5,506,[-0.02998246],34,47,medium,minus,dotcolour,beta,,,61,19,V,R,
611,107,23,14,4,47,33,684,['c'],1,left,['2'],5,164,[0.07088933],66,47,medium,minus,dotcolour,beta,,,61,19,V,R,
612,108,24,14,4,53,27,617,['c'],1,left,['2'],5,197,[0.03880226],34,53,easy,minus,dotcolour,beta,,,61,19,V,R,
613,109,25,14,4,47,33,918,['c'],1,left,['2'],5,187,[0.10794633],90,47,medium,minus,dotcolour,beta,,,61,19,V,R,
614,110,26,14,4,53,27,416,['c'],1,left,['2'],5,156,[0.03821402],31,53,easy,minus,dotcolour,beta,,,61,19,V,R,
615,111,27,14,4,44,36,500,['c'],1,left,['1'],6,147,[0.00864817],10,44,hard,minus,dotcolour,beta,,,61,19,V,R,
616,112,28,14,4,36,44,601,['c'],0,right,['2'],5,158,[-0.00506804],6,44,hard,minus,dotcolour,beta,,,61,19,V,R,
617,113,29,14,4,27,53,1284,['n'],1,right,['2'],5,349,[-0.07426619],64,53,easy,minus,dotcolour,beta,,,61,19,V,R,
618,114,30,14,4,33,47,1550,['n'],1,right,['3'],4,266,[-0.10988081],87,47,medium,minus,dotcolour,beta,,,61,19,V,R,
619,115,31,14,4,36,44,1733,['n'],1,right,['8'],3,212,[-0.08447664],76,44,hard,minus,dotcolour,beta,,,61,19,V,R,
620,116,32,14,4,27,53,634,['n'],1,right,['3'],4,803,[-0.10933168],75,53,easy,minus,dotcolour,beta,,,61,19,V,R,
621,117,33,14,4,47,33,650,['c'],1,left,['1'],6,306,[0.05983223],53,47,medium,minus,dotcolour,beta,,,61,19,V,R,
622,118,34,14,4,27,53,800,['n'],1,right,['1'],6,110,[-0.12788237],98,53,easy,minus,dotcolour,beta,,,61,19,V,R,
623,119,35,14,4,33,47,1117,['n'],1,right,['2'],5,358,[-0.08295869],70,47,medium,minus,dotcolour,beta,,,61,19,V,R,
624,120,36,14,4,53,27,800,['c'],1,left,['1'],6,65,[0.09152601],93,53,easy,minus,dotcolour,beta,,,61,19,V,R,
625,121,37,14,4,53,27,583,['c'],1,left,['1'],6,73,[0.03601543],21,53,easy,minus,dotcolour,beta,,,61,19,V,R,
626,122,38,14,4,33,47,966,['n'],1,right,['2'],5,648,[-0.30485386],100,47,medium,minus,dotcolour,beta,,,61,19,V,R,
627,123,39,14,4,36,44,684,['n'],1,right,['2'],5,101,[-0.04564169],36,44,hard,minus,dotcolour,beta,,,61,19,V,R,
628,124,40,14,4,44,36,734,['c'],1,left,['1'],6,141,[0.03264893],25,44,hard,minus,dotcolour,beta,,,61,19,V,R,
629,125,41,14,4,47,33,450,['c'],1,left,['2'],5,158,[0.04711861],41,47,medium,minus,dotcolour,beta,,,61,19,V,R,
630,0,0,15,5,53,27,818,['c'],1,left,['2'],5,122,[0.08035964],100,53,easy,plus,dotcolour,beta,,,61,19,V,R,
631,1,1,15,5,33,47,750,['n'],1,right,['2'],5,89,[-0.13962673],100,47,medium,plus,dotcolour,beta,,,61,19,V,R,
632,2,2,15,5,47,33,583,['c'],1,left,['2'],5,95,[0.1060704],100,47,medium,plus,dotcolour,beta,,,61,19,V,R,
633,3,3,15,5,33,47,400,['c'],0,right,['2'],5,125,[0.0317872],99,47,medium,plus,dotcolour,beta,,,61,19,V,R,
634,4,4,15,5,27,53,800,['n'],1,right,['2'],5,169,[-0.05449631],99,53,easy,plus,dotcolour,beta,,,61,19,V,R,
635,5,5,15,5,36,44,416,['n'],1,right,['2'],5,106,[-0.09717274],100,44,hard,plus,dotcolour,beta,,,61,19,V,R,
636,6,6,15,5,53,27,534,['c'],1,left,['2'],5,82,[0.1299984],100,53,easy,plus,dotcolour,beta,,,61,19,V,R,
637,7,7,15,5,27,53,833,['n'],1,right,['2'],5,151,[-0.08685502],100,53,easy,plus,dotcolour,beta,,,61,19,V,R,
638,8,8,15,5,36,44,566,['c'],0,right,['2'],5,108,[0.06722146],100,44,hard,plus,dotcolour,beta,,,61,19,V,R,
639,9,9,15,5,36,44,851,['c'],0,right,['2'],5,31,[0.05859078],100,44,hard,plus,dotcolour,beta,,,61,19,V,R,
640,10,10,15,5,33,47,817,['n'],1,right,['2'],5,141,[-0.05896992],100,47,medium,plus,dotcolour,beta,,,61,19,V,R,
641,11,11,15,5,47,33,667,['n'],0,left,['1'],6,134,[-0.04770233],99,47,medium,plus,dotcolour,beta,,,61,19,V,R,
642,12,12,15,5,44,36,717,['c'],1,left,['1'],6,38,[0.06416114],100,44,hard,plus,dotcolour,beta,,,61,19,V,R,
643,13,13,15,5,27,53,816,['n'],1,right,['1'],6,405,[-0.0488764],95,53,easy,plus,dotcolour,beta,,,61,19,V,R,
644,14,14,15,5,44,36,567,['c'],1,left,['1'],6,111,[0.01978056],98,44,hard,plus,dotcolour,beta,,,61,19,V,R,
645,15,15,15,5,44,36,583,['c'],1,left,['1'],6,180,[0.16128873],100,44,hard,plus,dotcolour,beta,,,61,19,V,R,
646,16,16,15,5,36,44,1234,['n'],1,right,['1'],6,277,[-0.11444172],100,44,hard,plus,dotcolour,beta,,,61,19,V,R,
647,17,17,15,5,53,27,850,['c'],1,left,['1'],6,137,[0.08283205],100,53,easy,plus,dotcolour,beta,,,61,19,V,R,
648,18,18,15,5,27,53,601,['n'],1,right,['2'],5,189,[-0.12197695],100,53,easy,plus,dotcolour,beta,,,61,19,V,R,
649,19,19,15,5,47,33,617,['c'],1,left,['2'],5,158,[0.15347009],100,47,medium,plus,dotcolour,beta,,,61,19,V,R,
650,20,20,15,5,44,36,616,['c'],1,left,['2'],5,96,[0.08203436],100,44,hard,plus,dotcolour,beta,,,61,19,V,R,
651,21,21,15,5,53,27,566,['c'],1,left,['2'],5,118,[0.10683114],100,53,easy,plus,dotcolour,beta,,,61,19,V,R,
652,22,22,15,5,33,47,633,['n'],1,right,['1'],6,178,[-0.05649933],99,47,medium,plus,dotcolour,beta,,,61,19,V,R,
653,23,23,15,5,47,33,967,['c'],1,left,['1'],6,149,[0.06957654],100,47,medium,plus,dotcolour,beta,,,61,19,V,R,
654,24,24,15,5,27,53,600,['n'],1,right,['1'],6,72,[-0.12188662],100,53,easy,plus,dotcolour,beta,,,61,19,V,R,
655,25,25,15,5,47,33,651,['n'],0,left,['0'],1,1997,[0.21104217],12,47,medium,plus,dotcolour,beta,,,61,19,V,R,
656,26,26,15,5,47,33,1000,['c'],1,left,['1'],6,127,[0.09559821],100,47,medium,plus,dotcolour,beta,,,61,19,V,R,
657,27,27,15,5,36,44,666,['n'],1,right,['1'],6,103,[-0.1122982],100,44,hard,plus,dotcolour,beta,,,61,19,V,R,
658,28,28,15,5,44,36,617,['n'],0,left,['2'],5,332,[-0.03611899],95,44,hard,plus,dotcolour,beta,,,61,19,V,R,
659,29,29,15,5,36,44,534,['n'],1,right,['2'],5,139,[-0.06453424],100,44,hard,plus,dotcolour,beta,,,61,19,V,R,
660,30,30,15,5,53,27,434,['n'],0,left,['2'],5,117,[-0.05972638],100,53,easy,plus,dotcolour,beta,,,61,19,V,R,
661,31,31,15,5,44,36,433,['n'],0,left,['2'],5,81,[-0.06419898],100,44,hard,plus,dotcolour,beta,,,61,19,V,R,
662,32,32,15,5,33,47,416,['n'],1,right,['2'],5,102,[-0.05753926],100,47,medium,plus,dotcolour,beta,,,61,19,V,R,
663,33,33,15,5,44,36,568,['n'],0,left,['2'],5,900,[-0.00679735],77,44,hard,plus,dotcolour,beta,,,61,19,V,R,
664,34,34,15,5,47,33,416,['n'],0,left,['2'],5,89,[-0.00372188],97,47,medium,plus,dotcolour,beta,,,61,19,V,R,
665,35,35,15,5,53,27,784,['c'],1,left,['2'],5,128,[0.12379501],100,53,easy,plus,dotcolour,beta,,,61,19,V,R,
666,36,36,15,5,27,53,750,['n'],1,right,['2'],5,133,[-0.05919078],100,53,easy,plus,dotcolour,beta,,,61,19,V,R,
667,37,37,15,5,33,47,467,['n'],1,right,['2'],5,127,[-0.12088291],100,47,medium,plus,dotcolour,beta,,,61,19,V,R,
668,38,38,15,5,53,27,650,['c'],1,left,['2'],5,97,[0.09577918],100,53,easy,plus,dotcolour,beta,,,61,19,V,R,
669,39,39,15,5,27,53,484,['n'],1,right,['2'],5,107,[-0.07215387],100,53,easy,plus,dotcolour,beta,,,61,19,V,R,
670,40,40,15,5,36,44,416,['n'],1,right,['2'],5,87,[-0.05909385],100,44,hard,plus,dotcolour,beta,,,61,19,V,R,
671,41,41,15,5,33,47,417,['n'],1,right,['2'],5,100,[-0.07964294],100,47,medium,plus,dotcolour,beta,,,61,19,V,R,
672,42,0,16,5,47,33,650,['c'],1,left,['1'],6,132,[0.10527073],100,47,medium,plus,dotcolour,beta,,,61,19,V,R,
673,43,1,16,5,53,27,350,['c'],1,left,['1'],6,99,[0.09454315],100,53,easy,plus,dotcolour,beta,,,61,19,V,R,
674,44,2,16,5,47,33,333,['c'],1,left,['1'],6,115,[0.06600409],100,47,medium,plus,dotcolour,beta,,,61,19,V,R,
675,45,3,16,5,36,44,350,['c'],0,right,['1'],6,98,[0.08242134],100,44,hard,plus,dotcolour,beta,,,61,19,V,R,
676,46,4,16,5,47,33,617,['n'],0,left,['0'],1,790,[-0.0092616],79,47,medium,plus,dotcolour,beta,,,61,19,V,R,
677,47,5,16,5,44,36,400,['c'],1,left,['1'],6,96,[0.09556423],100,44,hard,plus,dotcolour,beta,,,61,19,V,R,
678,48,6,16,5,33,47,850,['n'],1,right,['1'],6,267,[-0.03968839],97,47,medium,plus,dotcolour,beta,,,61,19,V,R,
679,49,7,16,5,44,36,483,['c'],1,left,['1'],6,102,[0.08914541],100,44,hard,plus,dotcolour,beta,,,61,19,V,R,
680,50,8,16,5,27,53,650,['n'],1,right,['1'],6,58,[-0.09871392],100,53,easy,plus,dotcolour,beta,,,61,19,V,R,
681,51,9,16,5,44,36,550,['c'],1,left,['1'],6,74,[0.03650615],100,44,hard,plus,dotcolour,beta,,,61,19,V,R,
682,52,10,16,5,53,27,533,['n'],0,left,['1'],6,91,[-0.08425917],100,53,easy,plus,dotcolour,beta,,,61,19,V,R,
683,53,11,16,5,53,27,567,['c'],1,left,['1'],6,114,[0.07705333],100,53,easy,plus,dotcolour,beta,,,61,19,V,R,
684,54,12,16,5,47,33,484,['c'],1,left,['1'],6,147,[0.0572647],100,47,medium,plus,dotcolour,beta,,,61,19,V,R,
685,55,13,16,5,53,27,385,['c'],1,left,['1'],6,127,[0.1102562],100,53,easy,plus,dotcolour,beta,,,61,19,V,R,
686,56,14,16,5,27,53,616,['n'],1,right,['1'],6,114,[-0.11292123],100,53,easy,plus,dotcolour,beta,,,61,19,V,R,
687,57,15,16,5,33,47,767,['c'],0,right,['1'],6,96,[0.03775413],100,47,medium,plus,dotcolour,beta,,,61,19,V,R,
688,58,16,16,5,27,53,850,['n'],1,right,['1'],6,429,[-0.18472541],100,53,easy,plus,dotcolour,beta,,,61,19,V,R,
689,59,17,16,5,33,47,667,['n'],1,right,['1'],6,89,[-0.15383283],100,47,medium,plus,dotcolour,beta,,,61,19,V,R,
690,60,18,16,5,27,53,367,['n'],1,right,['1'],6,48,[-0.1021368],100,53,easy,plus,dotcolour,beta,,,61,19,V,R,
691,61,19,16,5,44,36,616,['c'],1,left,['1'],6,118,[0.02720557],99,44,hard,plus,dotcolour,beta,,,61,19,V,R,
692,62,20,16,5,33,47,734,['c'],0,right,['2'],5,430,[0.08621159],98,47,medium,plus,dotcolour,beta,,,61,19,V,R,
693,63,21,16,5,36,44,2083,['c'],0,right,['2'],5,275,[0.10695108],100,44,hard,plus,dotcolour,beta,,,61,19,V,R,
694,64,22,16,5,33,47,767,['n'],1,right,['2'],5,186,[-0.12121375],100,47,medium,plus,dotcolour,beta,,,61,19,V,R,
695,65,23,16,5,53,27,766,['c'],1,left,['3'],4,502,[0.23160687],100,53,easy,plus,dotcolour,beta,,,61,19,V,R,
696,66,24,16,5,27,53,617,['n'],1,right,['3'],4,322,[-0.10560633],99,53,easy,plus,dotcolour,beta,,,61,19,V,R,
697,67,25,16,5,53,27,600,['c'],1,left,['2'],5,118,[0.13035574],100,53,easy,plus,dotcolour,beta,,,61,19,V,R,
698,68,26,16,5,33,47,934,['n'],1,right,['3'],4,205,[-0.19137328],100,47,medium,plus,dotcolour,beta,,,61,19,V,R,
699,69,27,16,5,36,44,517,['n'],1,right,['3'],4,147,[-0.10413939],100,44,hard,plus,dotcolour,beta,,,61,19,V,R,
700,70,28,16,5,44,36,750,['c'],1,left,['1'],6,104,[0.0637589],100,44,hard,plus,dotcolour,beta,,,61,19,V,R,
701,71,29,16,5,36,44,1401,['n'],1,right,['1'],6,101,[-0.04635099],100,44,hard,plus,dotcolour,beta,,,61,19,V,R,
702,72,30,16,5,36,44,550,['c'],0,right,['1'],6,148,[0.06908411],100,44,hard,plus,dotcolour,beta,,,61,19,V,R,
703,73,31,16,5,27,53,450,['n'],1,right,['1'],6,197,[-0.13960528],100,53,easy,plus,dotcolour,beta,,,61,19,V,R,
704,74,32,16,5,27,53,350,['n'],1,right,['1'],6,105,[-0.08880402],100,53,easy,plus,dotcolour,beta,,,61,19,V,R,
705,75,33,16,5,44,36,367,['n'],0,left,['0'],1,1447,[-0.0767054],88,44,hard,plus,dotcolour,beta,,,61,19,V,R,
706,76,34,16,5,36,44,767,['c'],0,right,['1'],6,112,[0.04325036],100,44,hard,plus,dotcolour,beta,,,61,19,V,R,
707,77,35,16,5,44,36,533,['c'],1,left,['1'],6,31,[0.0391535],100,44,hard,plus,dotcolour,beta,,,61,19,V,R,
708,78,36,16,5,47,33,1183,['c'],1,left,['1'],6,160,[0.08899119],100,47,medium,plus,dotcolour,beta,,,61,19,V,R,
709,79,37,16,5,33,47,1166,['n'],1,right,['1'],6,171,[-0.09793216],100,47,medium,plus,dotcolour,beta,,,61,19,V,R,
710,80,38,16,5,47,33,701,['c'],1,left,['1'],6,186,[0.05195938],99,47,medium,plus,dotcolour,beta,,,61,19,V,R,
711,81,39,16,5,36,44,400,['c'],0,right,['1'],6,156,[0.0621641],100,44,hard,plus,dotcolour,beta,,,61,19,V,R,
712,82,40,16,5,53,27,567,['c'],1,left,['1'],6,97,[0.05064748],100,53,easy,plus,dotcolour,beta,,,61,19,V,R,
713,83,41,16,5,47,33,1717,['c'],1,left,['3'],4,217,[0.08978032],100,47,medium,plus,dotcolour,beta,,,61,19,V,R,
714,84,0,17,5,33,47,851,['n'],1,right,['1'],6,77,[-0.03635504],100,47,medium,plus,dotcolour,beta,,,61,19,V,R,
715,85,1,17,5,44,36,483,['c'],1,left,['1'],6,80,[0.0921535],100,44,hard,plus,dotcolour,beta,,,61,19,V,R,
716,86,2,17,5,53,27,533,['c'],1,left,['1'],6,80,[0.07759865],100,53,easy,plus,dotcolour,beta,,,61,19,V,R,
717,87,3,17,5,47,33,144,['c'],1,left,['2'],5,86,[0.09415036],100,47,medium,plus,dotcolour,beta,,,61,19,V,R,
718,88,4,17,5,36,44,384,['c'],0,right,['2'],5,157,[0.07133268],100,44,hard,plus,dotcolour,beta,,,61,19,V,R,
719,89,5,17,5,36,44,1416,['n'],1,right,['3'],4,127,[-0.11129243],100,44,hard,plus,dotcolour,beta,,,61,19,V,R,
720,90,6,17,5,36,44,683,['n'],1,right,['3'],4,119,[-0.05983402],100,44,hard,plus,dotcolour,beta,,,61,19,V,R,
721,91,7,17,5,44,36,733,['n'],0,left,['3'],4,135,[-0.02828527],98,44,hard,plus,dotcolour,beta,,,61,19,V,R,
722,92,8,17,5,27,53,383,['n'],1,right,['3'],4,115,[-0.13731535],100,53,easy,plus,dotcolour,beta,,,61,19,V,R,
723,93,9,17,5,53,27,300,['n'],0,left,['3'],4,116,[-0.01649227],98,53,easy,plus,dotcolour,beta,,,61,19,V,R,
724,94,10,17,5,27,53,885,['n'],1,right,['3'],4,158,[-0.12101362],100,53,easy,plus,dotcolour,beta,,,61,19,V,R,
725,95,11,17,5,36,44,617,['n'],1,right,['3'],4,112,[-0.09858942],100,44,hard,plus,dotcolour,beta,,,61,19,V,R,
726,96,12,17,5,44,36,667,['n'],0,left,['3'],4,137,[-0.10231742],100,44,hard,plus,dotcolour,beta,,,61,19,V,R,
727,97,13,17,5,33,47,267,['n'],1,right,['3'],4,115,[-0.11703714],100,47,medium,plus,dotcolour,beta,,,61,19,V,R,
728,98,14,17,5,27,53,583,['n'],1,right,['3'],4,104,[-0.11925372],100,53,easy,plus,dotcolour,beta,,,61,19,V,R,
729,99,15,17,5,44,36,767,['c'],1,left,['1'],6,119,[0.07185735],100,44,hard,plus,dotcolour,beta,,,61,19,V,R,
730,100,16,17,5,36,44,550,['c'],0,right,['1'],6,133,[0.11758175],100,44,hard,plus,dotcolour,beta,,,61,19,V,R,
731,101,17,17,5,47,33,1350,['n'],0,left,['0'],1,931,[-0.02691663],82,47,medium,plus,dotcolour,beta,,,61,19,V,R,
732,102,18,17,5,27,53,783,['n'],1,right,['1'],6,137,[-0.11561804],100,53,easy,plus,dotcolour,beta,,,61,19,V,R,
733,103,19,17,5,53,27,283,['n'],0,left,['0'],1,737,[-0.05713181],91,53,easy,plus,dotcolour,beta,,,61,19,V,R,
734,104,20,17,5,27,53,550,['n'],1,right,['1'],6,86,[-0.11255028],100,53,easy,plus,dotcolour,beta,,,61,19,V,R,
735,105,21,17,5,44,36,700,['c'],1,left,['1'],6,120,[0.08386806],100,44,hard,plus,dotcolour,beta,,,61,19,V,R,
736,106,22,17,5,44,36,584,['c'],1,left,['2'],5,110,[0.05867591],100,44,hard,plus,dotcolour,beta,,,61,19,V,R,
737,107,23,17,5,47,33,483,['c'],1,left,['2'],5,135,[0.1340603],100,47,medium,plus,dotcolour,beta,,,61,19,V,R,
738,108,24,17,5,53,27,450,['c'],1,left,['2'],5,153,[0.09012448],100,53,easy,plus,dotcolour,beta,,,61,19,V,R,
739,109,25,17,5,36,44,483,['c'],0,right,['2'],5,154,[0.03000276],98,44,hard,plus,dotcolour,beta,,,61,19,V,R,
740,110,26,17,5,53,27,534,['c'],1,left,['2'],5,191,[0.10192101],100,53,easy,plus,dotcolour,beta,,,61,19,V,R,
741,111,27,17,5,44,36,317,['c'],1,left,['2'],5,132,[0.04715809],99,44,hard,plus,dotcolour,beta,,,61,19,V,R,
742,112,28,17,5,47,33,433,['c'],1,left,['2'],5,167,[0.06848861],100,47,medium,plus,dotcolour,beta,,,61,19,V,R,
743,113,29,17,5,33,47,1150,['n'],1,right,['2'],5,132,[-0.10530423],100,47,medium,plus,dotcolour,beta,,,61,19,V,R,
744,114,30,17,5,36,44,1384,['n'],1,right,['3'],4,8,[-0.06477979],100,44,hard,plus,dotcolour,beta,,,61,19,V,R,
745,115,31,17,5,33,47,850,['n'],1,right,['3'],4,254,[-0.02147462],94,47,medium,plus,dotcolour,beta,,,61,19,V,R,
746,116,32,17,5,47,33,617,['n'],0,left,['2'],5,149,[-0.12552583],100,47,medium,plus,dotcolour,beta,,,61,19,V,R,
747,117,33,17,5,27,53,567,['n'],1,right,['2'],5,290,[-0.06508828],98,53,easy,plus,dotcolour,beta,,,61,19,V,R,
748,118,34,17,5,53,27,817,['c'],1,left,['1'],6,126,[0.09365806],100,53,easy,plus,dotcolour,beta,,,61,19,V,R,
749,119,35,17,5,33,47,1017,['n'],1,right,['3'],4,130,[-0.09279028],100,47,medium,plus,dotcolour,beta,,,61,19,V,R,
750,120,36,17,5,53,27,332,['n'],0,left,['0'],1,688,[0.09030386],32,53,easy,plus,dotcolour,beta,,,61,19,V,R,
751,121,37,17,5,47,33,601,['c'],1,left,['1'],6,166,[0.05689681],99,47,medium,plus,dotcolour,beta,,,61,19,V,R,
752,122,38,17,5,33,47,1117,['c'],0,right,['3'],4,180,[-0.03427566],71,47,medium,plus,dotcolour,beta,,,61,19,V,R,
753,123,39,17,5,47,33,533,['c'],1,left,['3'],4,120,[0.10385648],100,47,medium,plus,dotcolour,beta,,,61,19,V,R,
754,124,40,17,5,27,53,367,['c'],0,right,['0'],1,767,[0.11163218],97,53,easy,plus,dotcolour,beta,,,61,19,V,R,
755,125,41,17,5,33,47,950,['n'],1,right,['3'],4,107,[-0.11216864],100,47,medium,plus,dotcolour,beta,,,61,19,V,R,
,,,,,,,,,,,,,,,,,,,,,1,de beoordeling was soms te goed,61,19,V,R,
,,,,,,,,,,,,,,,,,,,,,2,['g'],61,19,V,R,
,,,,,,,,,,,,,,,,,,,,,3,['f'],61,19,V,R,
,,,,,,,,,,,,,,,,,,,,,5,"['1', '2', '3', '4', '5', '6']",61,19,V,R,
