trial,withinphasetrial,withinblocktrial,block,phase,dotsLeft,dotsRight,rt,resp,cor,cresp,conf_press,cj,RTconf,ev,fb,diff,difflevel,condition,task,manip,questionID,questionResp,sub,age,gender,handedness,
0,0,0,0,0,33,47,2083,['n'],1,right,['3'],4,9619,[-0.93626448],94,47,medium,minus,dotcolour,alfa,,,105,19,V,R,
1,1,1,0,0,53,27,3066,['c'],1,left,['3'],4,5326,[0.92079456],97,53,easy,minus,dotcolour,alfa,,,105,19,V,R,
2,2,2,0,0,33,47,2568,['c'],0,right,['1'],6,3161,[-0.21691982],25,47,medium,minus,dotcolour,alfa,,,105,19,V,R,
3,3,3,0,0,27,53,2934,['c'],0,right,['3'],4,5654,[-0.93412273],3,53,easy,minus,dotcolour,alfa,,,105,19,V,R,
4,4,4,0,0,47,33,2935,['c'],1,left,['2'],5,2615,[0.41306777],91,47,medium,minus,dotcolour,alfa,,,105,19,V,R,
5,5,5,0,0,27,53,1200,['c'],0,right,['2'],5,1319,[-0.16149968],22,53,easy,minus,dotcolour,alfa,,,105,19,V,R,
6,6,6,0,0,53,27,1867,['n'],0,left,['3'],4,9136,[1.4491904],1,53,easy,minus,dotcolour,alfa,,,105,19,V,R,
7,7,7,0,0,27,53,3432,['n'],1,right,['2'],5,2344,[-0.40774163],92,53,easy,minus,dotcolour,alfa,,,105,19,V,R,
8,8,8,0,0,44,36,2916,['c'],1,left,['3'],4,6262,[0.53318102],87,44,hard,minus,dotcolour,alfa,,,105,19,V,R,
9,9,9,0,0,36,44,1301,['n'],1,right,['2'],5,2007,[-0.16954524],75,44,hard,minus,dotcolour,alfa,,,105,19,V,R,
10,10,10,0,0,53,27,1583,['c'],1,left,['2'],5,1224,[0.01203269],52,53,easy,minus,dotcolour,alfa,,,105,19,V,R,
11,11,11,0,0,27,53,1801,['n'],1,right,['2'],5,1599,[-0.4298267],96,53,easy,minus,dotcolour,alfa,,,105,19,V,R,
12,12,12,0,0,44,36,1467,['c'],1,left,['2'],5,798,[0.20691992],89,44,hard,minus,dotcolour,alfa,,,105,19,V,R,
13,13,13,0,0,47,33,1567,['c'],1,left,['2'],5,1080,[0.15251053],79,47,medium,minus,dotcolour,alfa,,,105,19,V,R,
14,14,14,0,0,33,47,867,['n'],1,right,['2'],5,1171,[-0.47840319],98,47,medium,minus,dotcolour,alfa,,,105,19,V,R,
15,15,15,0,0,53,27,1000,['c'],1,left,['2'],5,2605,[0.37210128],89,53,easy,minus,dotcolour,alfa,,,105,19,V,R,
16,16,16,0,0,33,47,834,['n'],1,right,['2'],5,1468,[-0.14797309],75,47,medium,minus,dotcolour,alfa,,,105,19,V,R,
17,17,17,0,0,47,33,916,['c'],1,left,['2'],5,1661,[0.35462836],92,47,medium,minus,dotcolour,alfa,,,105,19,V,R,
18,18,18,0,0,36,44,1366,['n'],1,right,['2'],5,2029,[-0.3912732],92,44,hard,minus,dotcolour,alfa,,,105,19,V,R,
19,19,19,0,0,44,36,1532,['c'],1,left,['3'],4,1408,[0.02660185],55,44,hard,minus,dotcolour,alfa,,,105,19,V,R,
20,20,20,0,0,47,33,1232,['n'],0,left,['2'],5,1263,[0.13777806],25,47,medium,minus,dotcolour,alfa,,,105,19,V,R,
21,21,21,0,0,36,44,1100,['n'],1,right,['2'],5,1121,[0.00376989],49,44,hard,minus,dotcolour,alfa,,,105,19,V,R,
22,22,22,0,0,53,27,883,['c'],1,left,['2'],5,1274,[0.08459599],66,53,easy,minus,dotcolour,alfa,,,105,19,V,R,
23,23,23,0,0,44,36,801,['c'],1,left,['2'],5,2104,[0.21309541],79,44,hard,minus,dotcolour,alfa,,,105,19,V,R,
24,24,24,0,0,27,53,833,['n'],1,right,['2'],5,1228,[-0.15125478],77,53,easy,minus,dotcolour,alfa,,,105,19,V,R,
25,25,25,0,0,53,27,933,['c'],1,left,['2'],5,901,[0.16183901],82,53,easy,minus,dotcolour,alfa,,,105,19,V,R,
26,26,26,0,0,53,27,2101,['c'],1,left,['2'],5,503,[0.15075765],87,53,easy,minus,dotcolour,alfa,,,105,19,V,R,
27,27,27,0,0,44,36,2266,['c'],1,left,['2'],5,809,[0.11838851],77,44,hard,minus,dotcolour,alfa,,,105,19,V,R,
28,28,28,0,0,36,44,1583,['c'],0,right,['2'],5,667,[-0.13468059],18,44,hard,minus,dotcolour,alfa,,,105,19,V,R,
29,29,29,0,0,27,53,1317,['n'],1,right,['2'],5,725,[-0.12030184],78,53,easy,minus,dotcolour,alfa,,,105,19,V,R,
30,30,30,0,0,33,47,951,['n'],1,right,['2'],5,787,[-0.16278868],84,47,medium,minus,dotcolour,alfa,,,105,19,V,R,
31,31,31,0,0,47,33,2200,['n'],0,left,['2'],5,756,[0.06190679],35,47,medium,minus,dotcolour,alfa,,,105,19,V,R,
32,32,32,0,0,33,47,983,['n'],1,right,['2'],5,695,[-0.17639666],87,47,medium,minus,dotcolour,alfa,,,105,19,V,R,
33,33,33,0,0,47,33,3666,['c'],1,left,['3'],4,1834,[0.44958456],95,47,medium,minus,dotcolour,alfa,,,105,19,V,R,
34,34,34,0,0,36,44,4167,['n'],1,right,['3'],4,2907,[-0.0473604],56,44,hard,minus,dotcolour,alfa,,,105,19,V,R,
35,35,35,0,0,44,36,1702,['n'],0,left,['3'],4,2795,[-0.17743827],72,44,hard,minus,dotcolour,alfa,,,105,19,V,R,
36,36,36,0,0,44,36,966,['c'],1,left,['3'],4,2061,[0.090427],64,44,hard,minus,dotcolour,alfa,,,105,19,V,R,
37,37,37,0,0,33,47,1118,['n'],1,right,['2'],5,1142,[-0.17257224],81,47,medium,minus,dotcolour,alfa,,,105,19,V,R,
38,38,38,0,0,47,33,1202,['c'],1,left,['8'],3,5402,[0.7869188],95,47,medium,minus,dotcolour,alfa,,,105,19,V,R,
39,39,39,0,0,36,44,4417,['n'],1,right,['9'],2,2712,[-0.41123135],90,44,hard,minus,dotcolour,alfa,,,105,19,V,R,
40,40,40,0,0,36,44,2917,['c'],0,right,['3'],4,1632,[0.00182272],50,44,hard,minus,dotcolour,alfa,,,105,19,V,R,
41,41,41,0,0,27,53,2451,['n'],1,right,['3'],4,1165,[-0.40169929],97,53,easy,minus,dotcolour,alfa,,,105,19,V,R,
42,42,0,1,0,27,53,1917,['n'],1,right,['2'],5,8763,[-1.69607254],99,53,easy,minus,dotcolour,alfa,,,105,19,V,R,
43,43,1,1,0,36,44,950,['n'],1,right,['3'],4,2014,[-0.26595463],84,44,hard,minus,dotcolour,alfa,,,105,19,V,R,
44,44,2,1,0,36,44,1051,['n'],1,right,['3'],4,1532,[-0.22324102],84,44,hard,minus,dotcolour,alfa,,,105,19,V,R,
45,45,3,1,0,44,36,1217,['c'],1,left,['3'],4,1118,[0.16115131],80,44,hard,minus,dotcolour,alfa,,,105,19,V,R,
46,46,4,1,0,53,27,884,['c'],1,left,['3'],4,1303,[0.21290855],84,53,easy,minus,dotcolour,alfa,,,105,19,V,R,
47,47,5,1,0,53,27,850,['c'],1,left,['3'],4,1586,[0.42645321],95,53,easy,minus,dotcolour,alfa,,,105,19,V,R,
48,48,6,1,0,33,47,866,['n'],1,right,['3'],4,1337,[-0.07479024],64,47,medium,minus,dotcolour,alfa,,,105,19,V,R,
49,49,7,1,0,44,36,915,['c'],1,left,['3'],4,1671,[0.34359226],92,44,hard,minus,dotcolour,alfa,,,105,19,V,R,
50,50,8,1,0,36,44,1199,['n'],1,right,['3'],4,1294,[-0.32280554],93,44,hard,minus,dotcolour,alfa,,,105,19,V,R,
51,51,9,1,0,33,47,850,['n'],1,right,['3'],4,1168,[-0.09465042],69,47,medium,minus,dotcolour,alfa,,,105,19,V,R,
52,52,10,1,0,53,27,884,['c'],1,left,['3'],4,3439,[0.52193715],93,53,easy,minus,dotcolour,alfa,,,105,19,V,R,
53,53,11,1,0,33,47,1183,['c'],0,right,['3'],4,2671,[-0.26393573],19,47,medium,minus,dotcolour,alfa,,,105,19,V,R,
54,54,12,1,0,27,53,817,['n'],1,right,['2'],5,1459,[-0.3573437],93,53,easy,minus,dotcolour,alfa,,,105,19,V,R,
55,55,13,1,0,44,36,1084,['c'],1,left,['2'],5,1574,[0.16062356],76,44,hard,minus,dotcolour,alfa,,,105,19,V,R,
56,56,14,1,0,53,27,1033,['c'],1,left,['1'],6,1055,[0.16683623],81,53,easy,minus,dotcolour,alfa,,,105,19,V,R,
57,57,15,1,0,44,36,1118,['c'],1,left,['2'],5,913,[0.08301327],69,44,hard,minus,dotcolour,alfa,,,105,19,V,R,
58,58,16,1,0,53,27,768,['c'],1,left,['2'],5,1711,[0.31043382],89,53,easy,minus,dotcolour,alfa,,,105,19,V,R,
59,59,17,1,0,33,47,800,['n'],1,right,['2'],5,1323,[-0.06070056],62,47,medium,minus,dotcolour,alfa,,,105,19,V,R,
60,60,18,1,0,27,53,734,['n'],1,right,['2'],5,434,[-0.14970938],89,53,easy,minus,dotcolour,alfa,,,105,19,V,R,
61,61,19,1,0,27,53,784,['n'],1,right,['2'],5,355,[-0.03339856],62,53,easy,minus,dotcolour,alfa,,,105,19,V,R,
62,62,20,1,0,44,36,583,['n'],0,left,['2'],5,526,[-0.06282642],69,44,hard,minus,dotcolour,alfa,,,105,19,V,R,
63,63,21,1,0,36,44,633,['n'],1,right,['2'],5,681,[-0.29574361],96,44,hard,minus,dotcolour,alfa,,,105,19,V,R,
64,64,22,1,0,27,53,718,['n'],1,right,['2'],5,370,[-0.04565349],66,53,easy,minus,dotcolour,alfa,,,105,19,V,R,
65,65,23,1,0,33,47,602,['n'],1,right,['2'],5,308,[-0.06956957],76,47,medium,minus,dotcolour,alfa,,,105,19,V,R,
66,66,24,1,0,33,47,682,['n'],1,right,['2'],5,358,[-0.13109814],88,47,medium,minus,dotcolour,alfa,,,105,19,V,R,
67,67,25,1,0,33,47,569,['n'],1,right,['2'],5,322,[-0.21758983],97,47,medium,minus,dotcolour,alfa,,,105,19,V,R,
68,68,26,1,0,36,44,634,['n'],1,right,['2'],5,277,[-0.0834143],81,44,hard,minus,dotcolour,alfa,,,105,19,V,R,
69,69,27,1,0,53,27,919,['c'],1,left,['2'],5,558,[0.19808047],92,53,easy,minus,dotcolour,alfa,,,105,19,V,R,
70,70,28,1,0,44,36,1233,['c'],1,left,['2'],5,1048,[0.28127429],92,44,hard,minus,dotcolour,alfa,,,105,19,V,R,
71,71,29,1,0,53,27,783,['c'],1,left,['2'],5,687,[0.13842582],82,53,easy,minus,dotcolour,alfa,,,105,19,V,R,
72,72,30,1,0,47,33,683,['c'],1,left,['2'],5,1313,[0.27692926],90,47,medium,minus,dotcolour,alfa,,,105,19,V,R,
73,73,31,1,0,36,44,700,['n'],1,right,['2'],5,555,[-0.00447584],51,44,hard,minus,dotcolour,alfa,,,105,19,V,R,
74,74,32,1,0,47,33,1218,['c'],1,left,['2'],5,1132,[0.16233983],80,47,medium,minus,dotcolour,alfa,,,105,19,V,R,
75,75,33,1,0,47,33,900,['n'],0,left,['2'],5,836,[0.07439026],32,47,medium,minus,dotcolour,alfa,,,105,19,V,R,
76,76,34,1,0,47,33,1168,['c'],1,left,['2'],5,1132,[0.39120456],96,47,medium,minus,dotcolour,alfa,,,105,19,V,R,
77,77,35,1,0,27,53,816,['n'],1,right,['2'],5,760,[-0.22456153],91,53,easy,minus,dotcolour,alfa,,,105,19,V,R,
78,78,36,1,0,47,33,834,['c'],1,left,['2'],5,1248,[0.28917824],91,47,medium,minus,dotcolour,alfa,,,105,19,V,R,
79,79,37,1,0,47,33,816,['c'],1,left,['2'],5,782,[0.18796065],87,47,medium,minus,dotcolour,alfa,,,105,19,V,R,
80,80,38,1,0,36,44,2167,['n'],1,right,['2'],5,1275,[0.0552757],39,44,hard,minus,dotcolour,alfa,,,105,19,V,R,
81,81,39,1,0,47,33,735,['c'],1,left,['2'],5,2274,[0.33111232],88,47,medium,minus,dotcolour,alfa,,,105,19,V,R,
82,82,40,1,0,27,53,666,['n'],1,right,['2'],5,589,[-0.15634252],86,53,easy,minus,dotcolour,alfa,,,105,19,V,R,
83,83,41,1,0,44,36,717,['c'],1,left,['2'],5,1562,[0.31005815],90,44,hard,minus,dotcolour,alfa,,,105,19,V,R,
84,84,0,2,0,47,33,1434,['c'],1,left,['2'],5,1135,[0.32694838],94,47,medium,minus,dotcolour,alfa,,,105,19,V,R,
85,85,1,2,0,27,53,700,['n'],1,right,['2'],5,646,[-0.05156939],64,53,easy,minus,dotcolour,alfa,,,105,19,V,R,
86,86,2,2,0,44,36,967,['n'],0,left,['3'],4,1455,[-0.12188419],71,44,hard,minus,dotcolour,alfa,,,105,19,V,R,
87,87,3,2,0,36,44,867,['n'],1,right,['2'],5,636,[-0.13550947],82,44,hard,minus,dotcolour,alfa,,,105,19,V,R,
88,88,4,2,0,44,36,1051,['c'],1,left,['3'],4,3049,[0.02739791],54,44,hard,minus,dotcolour,alfa,,,105,19,V,R,
89,89,5,2,0,36,44,1150,['n'],1,right,['3'],4,1338,[-0.02763049],55,44,hard,minus,dotcolour,alfa,,,105,19,V,R,
90,90,6,2,0,27,53,683,['n'],1,right,['2'],5,1034,[-0.36106245],96,53,easy,minus,dotcolour,alfa,,,105,19,V,R,
91,91,7,2,0,47,33,1900,['c'],1,left,['1'],6,1653,[0.11193223],69,47,medium,minus,dotcolour,alfa,,,105,19,V,R,
92,92,8,2,0,44,36,1533,['n'],0,left,['3'],4,1807,[-0.10241959],66,44,hard,minus,dotcolour,alfa,,,105,19,V,R,
93,93,9,2,0,27,53,916,['n'],1,right,['2'],5,811,[-0.21080554],89,53,easy,minus,dotcolour,alfa,,,105,19,V,R,
94,94,10,2,0,27,53,766,['n'],1,right,['1'],6,597,[-0.15754432],86,53,easy,minus,dotcolour,alfa,,,105,19,V,R,
95,95,11,2,0,44,36,2100,['n'],0,left,['3'],4,1466,[-0.02187217],54,44,hard,minus,dotcolour,alfa,,,105,19,V,R,
96,96,12,2,0,33,47,750,['n'],1,right,['2'],5,970,[-0.06653066],65,47,medium,minus,dotcolour,alfa,,,105,19,V,R,
97,97,13,2,0,33,47,1417,['n'],1,right,['2'],5,580,[-0.14471345],85,47,medium,minus,dotcolour,alfa,,,105,19,V,R,
98,98,14,2,0,33,47,1816,['n'],1,right,['8'],3,6837,[-0.5549034],87,47,medium,minus,dotcolour,alfa,,,105,19,V,R,
99,99,15,2,0,33,47,1734,['n'],1,right,['3'],4,2229,[-0.63366878],98,47,medium,minus,dotcolour,alfa,,,105,19,V,R,
100,100,16,2,0,53,27,1250,['c'],1,left,['2'],5,331,[0.03337913],63,53,easy,minus,dotcolour,alfa,,,105,19,V,R,
101,101,17,2,0,53,27,1483,['n'],0,left,['2'],5,483,[0.08586426],25,53,easy,minus,dotcolour,alfa,,,105,19,V,R,
102,102,18,2,0,33,47,699,['n'],1,right,['2'],5,686,[-0.11573977],78,47,medium,minus,dotcolour,alfa,,,105,19,V,R,
103,103,19,2,0,53,27,1566,['c'],1,left,['2'],5,1756,[0.26663188],86,53,easy,minus,dotcolour,alfa,,,105,19,V,R,
104,104,20,2,0,53,27,817,['c'],1,left,['2'],5,910,[0.23502591],90,53,easy,minus,dotcolour,alfa,,,105,19,V,R,
105,105,21,2,0,36,44,700,['n'],1,right,['2'],5,1752,[-0.08671599],64,44,hard,minus,dotcolour,alfa,,,105,19,V,R,
106,106,22,2,0,27,53,817,['n'],1,right,['2'],5,441,[-0.16636952],91,53,easy,minus,dotcolour,alfa,,,105,19,V,R,
107,107,23,2,0,53,27,1100,['c'],1,left,['2'],5,1188,[0.35334552],95,53,easy,minus,dotcolour,alfa,,,105,19,V,R,
108,108,24,2,0,33,47,817,['n'],1,right,['2'],5,1965,[-0.12306553],69,47,medium,minus,dotcolour,alfa,,,105,19,V,R,
109,109,25,2,0,47,33,818,['c'],1,left,['2'],5,918,[0.11374858],74,47,medium,minus,dotcolour,alfa,,,105,19,V,R,
110,110,26,2,0,44,36,1600,['c'],1,left,['2'],5,946,[0.09351742],70,44,hard,minus,dotcolour,alfa,,,105,19,V,R,
111,111,27,2,0,33,47,634,['n'],1,right,['2'],5,556,[-0.02396026],57,47,medium,minus,dotcolour,alfa,,,105,19,V,R,
112,112,28,2,0,27,53,816,['n'],1,right,['2'],5,511,[-0.25717598],96,53,easy,minus,dotcolour,alfa,,,105,19,V,R,
113,113,29,2,0,36,44,667,['n'],1,right,['2'],5,345,[-0.06137638],72,44,hard,minus,dotcolour,alfa,,,105,19,V,R,
114,114,30,2,0,47,33,916,['c'],1,left,['2'],5,359,[0.11582901],85,47,medium,minus,dotcolour,alfa,,,105,19,V,R,
115,115,31,2,0,47,33,767,['c'],1,left,['2'],5,652,[0.09657191],75,47,medium,minus,dotcolour,alfa,,,105,19,V,R,
116,116,32,2,0,47,33,884,['c'],1,left,['2'],5,431,[0.10334036],80,47,medium,minus,dotcolour,alfa,,,105,19,V,R,
117,117,33,2,0,44,36,751,['c'],1,left,['2'],5,513,[0.05516613],67,44,hard,minus,dotcolour,alfa,,,105,19,V,R,
118,118,34,2,0,36,44,783,['n'],1,right,['2'],5,535,[-0.19563192],92,44,hard,minus,dotcolour,alfa,,,105,19,V,R,
119,119,35,2,0,53,27,668,['c'],1,left,['2'],5,497,[0.09751787],78,53,easy,minus,dotcolour,alfa,,,105,19,V,R,
120,120,36,2,0,53,27,650,['c'],1,left,['2'],5,452,[0.12174829],84,53,easy,minus,dotcolour,alfa,,,105,19,V,R,
121,121,37,2,0,44,36,783,['c'],1,left,['2'],5,475,[0.03906628],62,44,hard,minus,dotcolour,alfa,,,105,19,V,R,
122,122,38,2,0,47,33,1167,['c'],1,left,['2'],5,3179,[0.19748014],73,47,medium,minus,dotcolour,alfa,,,105,19,V,R,
123,123,39,2,0,36,44,1034,['n'],1,right,['3'],4,1851,[-0.29418603],87,44,hard,minus,dotcolour,alfa,,,105,19,V,R,
124,124,40,2,0,36,44,3033,['n'],1,right,['3'],4,664,[-0.07598238],70,44,hard,minus,dotcolour,alfa,,,105,19,V,R,
125,125,41,2,0,27,53,750,['n'],1,right,['2'],5,1209,[-0.2753385],90,53,easy,minus,dotcolour,alfa,,,105,19,V,R,
126,0,0,3,1,44,36,951,['c'],1,left,['3'],4,1417,[0.25030724],100,44,hard,plus,dotcolour,alfa,,,105,19,V,R,
127,1,1,3,1,36,44,2217,['n'],1,right,['8'],3,4448,[-0.52780804],100,44,hard,plus,dotcolour,alfa,,,105,19,V,R,
128,2,2,3,1,44,36,1401,['c'],1,left,['3'],4,4974,[0.44393147],100,44,hard,plus,dotcolour,alfa,,,105,19,V,R,
129,3,3,3,1,44,36,966,['n'],0,left,['8'],3,2952,[0.21472708],1,44,hard,plus,dotcolour,alfa,,,105,19,V,R,
130,4,4,3,1,33,47,3550,['n'],1,right,['3'],4,1804,[-0.16918492],99,47,medium,plus,dotcolour,alfa,,,105,19,V,R,
131,5,5,3,1,53,27,1684,['c'],1,left,['2'],5,2521,[0.3744871],100,53,easy,plus,dotcolour,alfa,,,105,19,V,R,
132,6,6,3,1,33,47,1749,['n'],1,right,['2'],5,2231,[-0.21153382],99,47,medium,plus,dotcolour,alfa,,,105,19,V,R,
133,7,7,3,1,44,36,950,['n'],0,left,['2'],5,1193,[0.13309357],1,44,hard,plus,dotcolour,alfa,,,105,19,V,R,
134,8,8,3,1,53,27,900,['c'],1,left,['2'],5,1014,[0.26826391],100,53,easy,plus,dotcolour,alfa,,,105,19,V,R,
135,9,9,3,1,27,53,852,['n'],1,right,['2'],5,1157,[-0.13116467],99,53,easy,plus,dotcolour,alfa,,,105,19,V,R,
136,10,10,3,1,33,47,683,['n'],1,right,['2'],5,740,[-0.12379204],99,47,medium,plus,dotcolour,alfa,,,105,19,V,R,
137,11,11,3,1,47,33,1251,['n'],0,left,['2'],5,597,[-0.04470253],89,47,medium,plus,dotcolour,alfa,,,105,19,V,R,
138,12,12,3,1,44,36,1033,['c'],1,left,['2'],5,622,[0.08035242],98,44,hard,plus,dotcolour,alfa,,,105,19,V,R,
139,13,13,3,1,36,44,850,['n'],1,right,['2'],5,523,[-0.082902],98,44,hard,plus,dotcolour,alfa,,,105,19,V,R,
140,14,14,3,1,47,33,767,['c'],1,left,['2'],5,633,[0.13774053],100,47,medium,plus,dotcolour,alfa,,,105,19,V,R,
141,15,15,3,1,27,53,1300,['c'],0,right,['8'],3,3397,[-0.2057823],2,53,easy,plus,dotcolour,alfa,,,105,19,V,R,
142,16,16,3,1,47,33,2466,['c'],1,left,['2'],5,1491,[0.15105195],99,47,medium,plus,dotcolour,alfa,,,105,19,V,R,
143,17,17,3,1,53,27,1867,['c'],1,left,['2'],5,718,[0.2405739],100,53,easy,plus,dotcolour,alfa,,,105,19,V,R,
144,18,18,3,1,27,53,1467,['n'],1,right,['8'],3,1856,[-0.3900383],100,53,easy,plus,dotcolour,alfa,,,105,19,V,R,
145,19,19,3,1,36,44,2484,['n'],1,right,['2'],5,363,[-0.09886767],100,44,hard,plus,dotcolour,alfa,,,105,19,V,R,
146,20,20,3,1,36,44,1950,['c'],0,right,['3'],4,1648,[-0.09460204],7,44,hard,plus,dotcolour,alfa,,,105,19,V,R,
147,21,21,3,1,36,44,1850,['n'],1,right,['2'],5,1029,[-0.13525477],99,44,hard,plus,dotcolour,alfa,,,105,19,V,R,
148,22,22,3,1,33,47,1950,['n'],1,right,['2'],5,1022,[-0.12958287],99,47,medium,plus,dotcolour,alfa,,,105,19,V,R,
149,23,23,3,1,53,27,2784,['n'],0,left,['2'],5,984,[-0.0769911],94,53,easy,plus,dotcolour,alfa,,,105,19,V,R,
150,24,24,3,1,33,47,1016,['n'],1,right,['2'],5,720,[-0.00199046],52,47,medium,plus,dotcolour,alfa,,,105,19,V,R,
151,25,25,3,1,27,53,852,['n'],1,right,['2'],5,362,[-0.07700874],99,53,easy,plus,dotcolour,alfa,,,105,19,V,R,
152,26,26,3,1,47,33,1100,['n'],0,left,['2'],5,201,[-0.09469726],100,47,medium,plus,dotcolour,alfa,,,105,19,V,R,
153,27,27,3,1,44,36,1217,['n'],0,left,['3'],4,1233,[-0.02766084],71,44,hard,plus,dotcolour,alfa,,,105,19,V,R,
154,28,28,3,1,27,53,1151,['n'],1,right,['2'],5,995,[-0.18171438],100,53,easy,plus,dotcolour,alfa,,,105,19,V,R,
155,29,29,3,1,27,53,783,['n'],1,right,['2'],5,469,[-0.19750185],100,53,easy,plus,dotcolour,alfa,,,105,19,V,R,
156,30,30,3,1,53,27,1634,['c'],1,left,['1'],6,650,[0.15404846],100,53,easy,plus,dotcolour,alfa,,,105,19,V,R,
157,31,31,3,1,36,44,1133,['n'],1,right,['1'],6,1620,[-0.05903834],84,44,hard,plus,dotcolour,alfa,,,105,19,V,R,
158,32,32,3,1,47,33,983,['c'],1,left,['2'],5,1397,[0.29508334],100,47,medium,plus,dotcolour,alfa,,,105,19,V,R,
159,33,33,3,1,44,36,1117,['n'],0,left,['2'],5,961,[-0.00143013],51,44,hard,plus,dotcolour,alfa,,,105,19,V,R,
160,34,34,3,1,47,33,900,['c'],1,left,['2'],5,832,[0.39305488],100,47,medium,plus,dotcolour,alfa,,,105,19,V,R,
161,35,35,3,1,47,33,2133,['n'],0,left,['2'],5,427,[-0.04334203],92,47,medium,plus,dotcolour,alfa,,,105,19,V,R,
162,36,36,3,1,53,27,851,['c'],1,left,['2'],5,353,[0.08588175],99,53,easy,plus,dotcolour,alfa,,,105,19,V,R,
163,37,37,3,1,33,47,750,['n'],1,right,['2'],5,254,[-0.08612259],100,47,medium,plus,dotcolour,alfa,,,105,19,V,R,
164,38,38,3,1,53,27,1267,['c'],1,left,['2'],5,426,[0.16832033],100,53,easy,plus,dotcolour,alfa,,,105,19,V,R,
165,39,39,3,1,36,44,767,['n'],1,right,['2'],5,387,[-0.0955532],100,44,hard,plus,dotcolour,alfa,,,105,19,V,R,
166,40,40,3,1,27,53,1116,['n'],1,right,['2'],5,201,[-0.1126568],100,53,easy,plus,dotcolour,alfa,,,105,19,V,R,
167,41,41,3,1,33,47,718,['n'],1,right,['2'],5,406,[-0.07598059],99,47,medium,plus,dotcolour,alfa,,,105,19,V,R,
168,42,0,4,1,36,44,817,['n'],1,right,['2'],5,678,[-0.05723964],92,44,hard,plus,dotcolour,alfa,,,105,19,V,R,
169,43,1,4,1,44,36,1117,['c'],1,left,['1'],6,968,[0.17595192],100,44,hard,plus,dotcolour,alfa,,,105,19,V,R,
170,44,2,4,1,33,47,833,['n'],1,right,['2'],5,1320,[-0.19552606],100,47,medium,plus,dotcolour,alfa,,,105,19,V,R,
171,45,3,4,1,47,33,1432,['n'],0,left,['3'],4,355,[-0.02984761],86,47,medium,plus,dotcolour,alfa,,,105,19,V,R,
172,46,4,4,1,53,27,1266,['c'],1,left,['2'],5,1547,[0.48729218],100,53,easy,plus,dotcolour,alfa,,,105,19,V,R,
173,47,5,4,1,33,47,668,['n'],1,right,['2'],5,475,[-0.0939983],99,47,medium,plus,dotcolour,alfa,,,105,19,V,R,
174,48,6,4,1,36,44,1884,['n'],1,right,['2'],5,374,[-0.14553162],100,44,hard,plus,dotcolour,alfa,,,105,19,V,R,
175,49,7,4,1,27,53,683,['n'],1,right,['2'],5,301,[-0.23018217],100,53,easy,plus,dotcolour,alfa,,,105,19,V,R,
176,50,8,4,1,53,27,966,['c'],1,left,['2'],5,819,[0.17420654],100,53,easy,plus,dotcolour,alfa,,,105,19,V,R,
177,51,9,4,1,27,53,750,['n'],1,right,['2'],5,317,[-0.11698368],100,53,easy,plus,dotcolour,alfa,,,105,19,V,R,
178,52,10,4,1,44,36,1684,['c'],1,left,['2'],5,1463,[0.14214051],99,44,hard,plus,dotcolour,alfa,,,105,19,V,R,
179,53,11,4,1,36,44,3717,['n'],1,right,['2'],5,2713,[-0.38221166],100,44,hard,plus,dotcolour,alfa,,,105,19,V,R,
180,54,12,4,1,47,33,850,['c'],1,left,['2'],5,458,[0.10387324],100,47,medium,plus,dotcolour,alfa,,,105,19,V,R,
181,55,13,4,1,47,33,4133,['c'],1,left,['2'],5,1403,[0.20566422],100,47,medium,plus,dotcolour,alfa,,,105,19,V,R,
182,56,14,4,1,53,27,717,['c'],1,left,['2'],5,535,[0.19949032],100,53,easy,plus,dotcolour,alfa,,,105,19,V,R,
183,57,15,4,1,33,47,867,['n'],1,right,['2'],5,465,[-0.21723787],100,47,medium,plus,dotcolour,alfa,,,105,19,V,R,
184,58,16,4,1,53,27,799,['c'],1,left,['2'],5,568,[0.23792557],100,53,easy,plus,dotcolour,alfa,,,105,19,V,R,
185,59,17,4,1,53,27,1333,['c'],1,left,['2'],5,549,[0.13327286],100,53,easy,plus,dotcolour,alfa,,,105,19,V,R,
186,60,18,4,1,44,36,816,['c'],1,left,['2'],5,351,[0.07496883],99,44,hard,plus,dotcolour,alfa,,,105,19,V,R,
187,61,19,4,1,47,33,701,['c'],1,left,['2'],5,367,[0.04941391],95,47,medium,plus,dotcolour,alfa,,,105,19,V,R,
188,62,20,4,1,27,53,1016,['c'],0,right,['2'],5,441,[-0.00890471],38,53,easy,plus,dotcolour,alfa,,,105,19,V,R,
189,63,21,4,1,47,33,801,['c'],1,left,['2'],5,304,[0.05484954],97,47,medium,plus,dotcolour,alfa,,,105,19,V,R,
190,64,22,4,1,47,33,683,['c'],1,left,['2'],5,466,[0.21357193],100,47,medium,plus,dotcolour,alfa,,,105,19,V,R,
191,65,23,4,1,36,44,1133,['n'],1,right,['2'],5,476,[-0.18615024],100,44,hard,plus,dotcolour,alfa,,,105,19,V,R,
192,66,24,4,1,44,36,850,['n'],0,left,['2'],5,448,[-0.13131976],100,44,hard,plus,dotcolour,alfa,,,105,19,V,R,
193,67,25,4,1,36,44,850,['n'],1,right,['2'],5,261,[-0.05159129],97,44,hard,plus,dotcolour,alfa,,,105,19,V,R,
194,68,26,4,1,53,27,733,['c'],1,left,['2'],5,431,[0.14154225],100,53,easy,plus,dotcolour,alfa,,,105,19,V,R,
195,69,27,4,1,47,33,767,['c'],1,left,['2'],5,400,[0.17818926],100,47,medium,plus,dotcolour,alfa,,,105,19,V,R,
196,70,28,4,1,36,44,833,['n'],1,right,['2'],5,288,[-0.06692692],99,44,hard,plus,dotcolour,alfa,,,105,19,V,R,
197,71,29,4,1,36,44,650,['n'],1,right,['2'],5,308,[-0.02395888],83,44,hard,plus,dotcolour,alfa,,,105,19,V,R,
198,72,30,4,1,27,53,634,['n'],1,right,['2'],5,215,[-0.03966968],96,53,easy,plus,dotcolour,alfa,,,105,19,V,R,
199,73,31,4,1,33,47,683,['n'],1,right,['2'],5,237,[-0.15705059],100,47,medium,plus,dotcolour,alfa,,,105,19,V,R,
200,74,32,4,1,27,53,750,['n'],1,right,['2'],5,190,[-0.11593345],100,53,easy,plus,dotcolour,alfa,,,105,19,V,R,
201,75,33,4,1,33,47,666,['n'],1,right,['2'],5,205,[-0.09608326],100,47,medium,plus,dotcolour,alfa,,,105,19,V,R,
202,76,34,4,1,27,53,766,['n'],1,right,['2'],5,184,[-0.02738306],91,53,easy,plus,dotcolour,alfa,,,105,19,V,R,
203,77,35,4,1,33,47,700,['n'],1,right,['2'],5,230,[-0.19181278],100,47,medium,plus,dotcolour,alfa,,,105,19,V,R,
204,78,36,4,1,33,47,633,['n'],1,right,['2'],5,197,[-0.11867462],100,47,medium,plus,dotcolour,alfa,,,105,19,V,R,
205,79,37,4,1,53,27,884,['c'],1,left,['2'],5,330,[0.07978903],99,53,easy,plus,dotcolour,alfa,,,105,19,V,R,
206,80,38,4,1,44,36,866,['c'],1,left,['2'],5,316,[-0.02600845],16,44,hard,plus,dotcolour,alfa,,,105,19,V,R,
207,81,39,4,1,44,36,1400,['c'],1,left,['3'],4,2113,[0.28305879],100,44,hard,plus,dotcolour,alfa,,,105,19,V,R,
208,82,40,4,1,27,53,783,['n'],1,right,['3'],4,1350,[-0.2380001],100,53,easy,plus,dotcolour,alfa,,,105,19,V,R,
209,83,41,4,1,44,36,750,['n'],0,left,['3'],4,970,[0.15304664],0,44,hard,plus,dotcolour,alfa,,,105,19,V,R,
210,84,0,5,1,27,53,850,['n'],1,right,['2'],5,1867,[-0.51824073],100,53,easy,plus,dotcolour,alfa,,,105,19,V,R,
211,85,1,5,1,47,33,1233,['c'],1,left,['2'],5,952,[0.20085852],100,47,medium,plus,dotcolour,alfa,,,105,19,V,R,
212,86,2,5,1,47,33,884,['c'],1,left,['2'],5,768,[0.13942315],100,47,medium,plus,dotcolour,alfa,,,105,19,V,R,
213,87,3,5,1,44,36,850,['c'],1,left,['2'],5,1016,[-0.02344842],30,44,hard,plus,dotcolour,alfa,,,105,19,V,R,
214,88,4,5,1,47,33,767,['c'],1,left,['2'],5,546,[0.06667495],96,47,medium,plus,dotcolour,alfa,,,105,19,V,R,
215,89,5,5,1,33,47,767,['n'],1,right,['2'],5,398,[-0.08630736],99,47,medium,plus,dotcolour,alfa,,,105,19,V,R,
216,90,6,5,1,53,27,716,['c'],1,left,['2'],5,499,[0.21471898],100,53,easy,plus,dotcolour,alfa,,,105,19,V,R,
217,91,7,5,1,53,27,1249,['c'],1,left,['3'],4,1654,[0.42341904],100,53,easy,plus,dotcolour,alfa,,,105,19,V,R,
218,92,8,5,1,36,44,799,['c'],0,right,['2'],5,1038,[0.06621854],91,44,hard,plus,dotcolour,alfa,,,105,19,V,R,
219,93,9,5,1,47,33,1767,['c'],1,left,['2'],5,406,[0.17969318],100,47,medium,plus,dotcolour,alfa,,,105,19,V,R,
220,94,10,5,1,36,44,2099,['n'],1,right,['2'],5,546,[-0.08666462],99,44,hard,plus,dotcolour,alfa,,,105,19,V,R,
221,95,11,5,1,33,47,750,['n'],1,right,['2'],5,960,[-0.17769401],100,47,medium,plus,dotcolour,alfa,,,105,19,V,R,
222,96,12,5,1,33,47,817,['n'],1,right,['2'],5,274,[-0.16045473],100,47,medium,plus,dotcolour,alfa,,,105,19,V,R,
223,97,13,5,1,44,36,967,['c'],1,left,['2'],5,345,[0.04394418],94,44,hard,plus,dotcolour,alfa,,,105,19,V,R,
224,98,14,5,1,44,36,950,['c'],1,left,['2'],5,622,[0.11380136],99,44,hard,plus,dotcolour,alfa,,,105,19,V,R,
225,99,15,5,1,53,27,667,['c'],1,left,['2'],5,331,[0.12299488],100,53,easy,plus,dotcolour,alfa,,,105,19,V,R,
226,100,16,5,1,36,44,801,['n'],1,right,['2'],5,328,[-0.07887223],99,44,hard,plus,dotcolour,alfa,,,105,19,V,R,
227,101,17,5,1,44,36,1000,['n'],0,left,['2'],5,276,[-0.0730442],99,44,hard,plus,dotcolour,alfa,,,105,19,V,R,
228,102,18,5,1,36,44,684,['n'],1,right,['2'],5,207,[-0.07183523],100,44,hard,plus,dotcolour,alfa,,,105,19,V,R,
229,103,19,5,1,47,33,750,['c'],1,left,['2'],5,353,[0.22934023],100,47,medium,plus,dotcolour,alfa,,,105,19,V,R,
230,104,20,5,1,27,53,684,['n'],1,right,['2'],5,273,[-0.14248569],100,53,easy,plus,dotcolour,alfa,,,105,19,V,R,
231,105,21,5,1,27,53,634,['n'],1,right,['2'],5,254,[-0.1573013],100,53,easy,plus,dotcolour,alfa,,,105,19,V,R,
232,106,22,5,1,33,47,716,['n'],1,right,['2'],5,224,[-0.13786028],100,47,medium,plus,dotcolour,alfa,,,105,19,V,R,
233,107,23,5,1,27,53,533,['n'],1,right,['2'],5,252,[-0.0703104],99,53,easy,plus,dotcolour,alfa,,,105,19,V,R,
234,108,24,5,1,36,44,1317,['n'],1,right,['2'],5,206,[-0.08021926],100,44,hard,plus,dotcolour,alfa,,,105,19,V,R,
235,109,25,5,1,27,53,618,['n'],1,right,['2'],5,231,[-0.13834821],100,53,easy,plus,dotcolour,alfa,,,105,19,V,R,
236,110,26,5,1,44,36,800,['c'],1,left,['2'],5,470,[0.30039144],100,44,hard,plus,dotcolour,alfa,,,105,19,V,R,
237,111,27,5,1,53,27,833,['n'],0,left,['2'],5,203,[0.02564105],11,53,easy,plus,dotcolour,alfa,,,105,19,V,R,
238,112,28,5,1,27,53,1250,['n'],1,right,['1'],6,298,[-0.16904886],100,53,easy,plus,dotcolour,alfa,,,105,19,V,R,
239,113,29,5,1,36,44,850,['n'],1,right,['1'],6,829,[-0.2906485],100,44,hard,plus,dotcolour,alfa,,,105,19,V,R,
240,114,30,5,1,44,36,1666,['c'],1,left,['1'],6,971,[0.32741959],100,44,hard,plus,dotcolour,alfa,,,105,19,V,R,
241,115,31,5,1,33,47,1349,['n'],1,right,['3'],4,1143,[-0.07128487],92,47,medium,plus,dotcolour,alfa,,,105,19,V,R,
242,116,32,5,1,47,33,2283,['c'],1,left,['2'],5,1015,[0.05442855],87,47,medium,plus,dotcolour,alfa,,,105,19,V,R,
243,117,33,5,1,53,27,934,['c'],1,left,['2'],5,946,[0.26339454],100,53,easy,plus,dotcolour,alfa,,,105,19,V,R,
244,118,34,5,1,47,33,1600,['c'],1,left,['2'],5,294,[0.11325167],100,47,medium,plus,dotcolour,alfa,,,105,19,V,R,
245,119,35,5,1,53,27,667,['c'],1,left,['2'],5,384,[0.14935079],100,53,easy,plus,dotcolour,alfa,,,105,19,V,R,
246,120,36,5,1,33,47,684,['n'],1,right,['2'],5,263,[-0.09250791],100,47,medium,plus,dotcolour,alfa,,,105,19,V,R,
247,121,37,5,1,36,44,1082,['c'],0,right,['2'],5,394,[0.03836805],90,44,hard,plus,dotcolour,alfa,,,105,19,V,R,
248,122,38,5,1,44,36,699,['c'],1,left,['2'],5,264,[0.13116214],100,44,hard,plus,dotcolour,alfa,,,105,19,V,R,
249,123,39,5,1,27,53,667,['n'],1,right,['2'],5,244,[-0.10564457],100,53,easy,plus,dotcolour,alfa,,,105,19,V,R,
250,124,40,5,1,53,27,733,['c'],1,left,['2'],5,358,[0.10595171],100,53,easy,plus,dotcolour,alfa,,,105,19,V,R,
251,125,41,5,1,33,47,666,['n'],1,right,['2'],5,270,[-0.06937165],99,47,medium,plus,dotcolour,alfa,,,105,19,V,R,
252,0,0,6,2,27,53,768,['n'],1,right,['1'],6,772,[-0.17892566],86,53,easy,minus,dotcolour,alfa,,,105,19,V,R,
253,1,1,6,2,47,33,1634,['n'],0,left,['2'],5,1036,[-0.11230898],73,47,medium,minus,dotcolour,alfa,,,105,19,V,R,
254,2,2,6,2,27,53,984,['n'],1,right,['1'],6,572,[-0.15151748],86,53,easy,minus,dotcolour,alfa,,,105,19,V,R,
255,3,3,6,2,47,33,1233,['c'],1,left,['1'],6,325,[0.15090014],92,47,medium,minus,dotcolour,alfa,,,105,19,V,R,
256,4,4,6,2,33,47,749,['n'],1,right,['1'],6,315,[-0.17723482],94,47,medium,minus,dotcolour,alfa,,,105,19,V,R,
257,5,5,6,2,36,44,1616,['n'],1,right,['2'],5,1375,[0.1462892],25,44,hard,minus,dotcolour,alfa,,,105,19,V,R,
258,6,6,6,2,53,27,1634,['c'],1,left,['1'],6,384,[0.08771184],78,53,easy,minus,dotcolour,alfa,,,105,19,V,R,
259,7,7,6,2,27,53,816,['n'],1,right,['1'],6,322,[-0.12472303],88,53,easy,minus,dotcolour,alfa,,,105,19,V,R,
260,8,8,6,2,53,27,2551,['c'],1,left,['3'],4,760,[0.16214112],84,53,easy,minus,dotcolour,alfa,,,105,19,V,R,
261,9,9,6,2,36,44,1350,['n'],1,right,['2'],5,1317,[-0.10748611],70,44,hard,minus,dotcolour,alfa,,,105,19,V,R,
262,10,10,6,2,44,36,1250,['n'],0,left,['3'],4,1094,[-0.21432751],86,44,hard,minus,dotcolour,alfa,,,105,19,V,R,
263,11,11,6,2,53,27,1683,['c'],1,left,['2'],5,537,[0.03733611],61,53,easy,minus,dotcolour,alfa,,,105,19,V,R,
264,12,12,6,2,47,33,1167,['n'],0,left,['3'],4,1845,[0.26005968],15,47,medium,minus,dotcolour,alfa,,,105,19,V,R,
265,13,13,6,2,36,44,1266,['n'],1,right,['3'],4,657,[-0.0470258],63,44,hard,minus,dotcolour,alfa,,,105,19,V,R,
266,14,14,6,2,44,36,2500,['n'],0,left,['3'],4,717,[0.03108008],42,44,hard,minus,dotcolour,alfa,,,105,19,V,R,
267,15,15,6,2,36,44,716,['n'],1,right,['3'],4,268,[-0.06816926],77,44,hard,minus,dotcolour,alfa,,,105,19,V,R,
268,16,16,6,2,44,36,1000,['n'],0,left,['3'],4,299,[-0.14027546],91,44,hard,minus,dotcolour,alfa,,,105,19,V,R,
269,17,17,6,2,47,33,1700,['c'],1,left,['2'],5,460,[0.16877802],90,47,medium,minus,dotcolour,alfa,,,105,19,V,R,
270,18,18,6,2,33,47,834,['n'],1,right,['2'],5,506,[-0.03772429],62,47,medium,minus,dotcolour,alfa,,,105,19,V,R,
271,19,19,6,2,53,27,1566,['c'],1,left,['1'],6,335,[0.10027364],83,53,easy,minus,dotcolour,alfa,,,105,19,V,R,
272,20,20,6,2,33,47,2500,['n'],1,right,['2'],5,2032,[-0.30172095],87,47,medium,minus,dotcolour,alfa,,,105,19,V,R,
273,21,21,6,2,33,47,850,['n'],1,right,['2'],5,693,[-0.05061035],63,47,medium,minus,dotcolour,alfa,,,105,19,V,R,
274,22,22,6,2,33,47,717,['n'],1,right,['2'],5,557,[-0.23911164],95,47,medium,minus,dotcolour,alfa,,,105,19,V,R,
275,23,23,6,2,47,33,1851,['c'],1,left,['1'],6,239,[0.0314532],64,47,medium,minus,dotcolour,alfa,,,105,19,V,R,
276,24,24,6,2,27,53,801,['n'],1,right,['1'],6,295,[-0.14331621],91,53,easy,minus,dotcolour,alfa,,,105,19,V,R,
277,25,25,6,2,44,36,2534,['c'],1,left,['3'],4,1214,[0.18617042],82,44,hard,minus,dotcolour,alfa,,,105,19,V,R,
278,26,26,6,2,53,27,1850,['c'],1,left,['1'],6,309,[0.1555585],93,53,easy,minus,dotcolour,alfa,,,105,19,V,R,
279,27,27,6,2,47,33,1584,['c'],1,left,['1'],6,306,[0.093992],82,47,medium,minus,dotcolour,alfa,,,105,19,V,R,
280,28,28,6,2,44,36,2817,['n'],0,left,['3'],4,1623,[-0.02883862],55,44,hard,minus,dotcolour,alfa,,,105,19,V,R,
281,29,29,6,2,44,36,1534,['c'],1,left,['1'],6,1825,[0.35391896],91,44,hard,minus,dotcolour,alfa,,,105,19,V,R,
282,30,30,6,2,27,53,2517,['n'],1,right,['2'],5,1629,[-0.30450164],90,53,easy,minus,dotcolour,alfa,,,105,19,V,R,
283,31,31,6,2,27,53,916,['n'],1,right,['2'],5,535,[-0.08774886],75,53,easy,minus,dotcolour,alfa,,,105,19,V,R,
284,32,32,6,2,36,44,1017,['c'],0,right,['2'],5,379,[0.02247113],58,44,hard,minus,dotcolour,alfa,,,105,19,V,R,
285,33,33,6,2,36,44,1166,['n'],1,right,['2'],5,494,[-0.02425987],58,44,hard,minus,dotcolour,alfa,,,105,19,V,R,
286,34,34,6,2,33,47,650,['n'],1,right,['2'],5,313,[-0.00312037],51,47,medium,minus,dotcolour,alfa,,,105,19,V,R,
287,35,35,6,2,27,53,866,['n'],1,right,['2'],5,411,[-0.15654711],90,53,easy,minus,dotcolour,alfa,,,105,19,V,R,
288,36,36,6,2,53,27,1434,['c'],1,left,['1'],6,267,[0.11957774],89,53,easy,minus,dotcolour,alfa,,,105,19,V,R,
289,37,37,6,2,33,47,900,['n'],1,right,['1'],6,814,[-0.13767519],80,47,medium,minus,dotcolour,alfa,,,105,19,V,R,
290,38,38,6,2,53,27,817,['c'],1,left,['1'],6,310,[0.12660542],89,53,easy,minus,dotcolour,alfa,,,105,19,V,R,
291,39,39,6,2,47,33,1166,['c'],1,left,['1'],6,315,[0.14843972],92,47,medium,minus,dotcolour,alfa,,,105,19,V,R,
292,40,40,6,2,36,44,1367,['c'],0,right,['1'],6,385,[0.10113585],81,44,hard,minus,dotcolour,alfa,,,105,19,V,R,
293,41,41,6,2,44,36,1734,['c'],1,left,['3'],4,1302,[0.20969846],84,44,hard,minus,dotcolour,alfa,,,105,19,V,R,
294,42,0,7,2,47,33,1884,['c'],1,left,['2'],5,1794,[0.12864875],70,47,medium,minus,dotcolour,alfa,,,105,19,V,R,
295,43,1,7,2,53,27,3851,['c'],1,left,['2'],5,441,[0.16850384],91,53,easy,minus,dotcolour,alfa,,,105,19,V,R,
296,44,2,7,2,47,33,2999,['n'],0,left,['3'],4,1344,[0.12692195],27,47,medium,minus,dotcolour,alfa,,,105,19,V,R,
297,45,3,7,2,36,44,1200,['n'],1,right,['3'],4,2180,[-0.40825856],92,44,hard,minus,dotcolour,alfa,,,105,19,V,R,
298,46,4,7,2,27,53,1600,['n'],1,right,['2'],5,1061,[-0.11748722],74,53,easy,minus,dotcolour,alfa,,,105,19,V,R,
299,47,5,7,2,36,44,2367,['n'],1,right,['2'],5,550,[-0.20440848],92,44,hard,minus,dotcolour,alfa,,,105,19,V,R,
300,48,6,7,2,47,33,1667,['c'],1,left,['2'],5,574,[0.14772962],85,47,medium,minus,dotcolour,alfa,,,105,19,V,R,
301,49,7,7,2,27,53,1433,['n'],1,right,['2'],5,862,[-0.09418971],71,53,easy,minus,dotcolour,alfa,,,105,19,V,R,
302,50,8,7,2,27,53,783,['n'],1,right,['2'],5,550,[-0.17381601],89,53,easy,minus,dotcolour,alfa,,,105,19,V,R,
303,51,9,7,2,33,47,967,['n'],1,right,['2'],5,242,[-0.12281306],90,47,medium,minus,dotcolour,alfa,,,105,19,V,R,
304,52,10,7,2,33,47,767,['n'],1,right,['2'],5,379,[-0.19342889],94,47,medium,minus,dotcolour,alfa,,,105,19,V,R,
305,53,11,7,2,33,47,767,['n'],1,right,['2'],5,326,[-0.05786038],71,47,medium,minus,dotcolour,alfa,,,105,19,V,R,
306,54,12,7,2,53,27,834,['c'],1,left,['2'],5,425,[0.12466835],85,53,easy,minus,dotcolour,alfa,,,105,19,V,R,
307,55,13,7,2,44,36,1233,['c'],1,left,['2'],5,472,[0.17941012],91,44,hard,minus,dotcolour,alfa,,,105,19,V,R,
308,56,14,7,2,44,36,1667,['c'],1,left,['2'],5,539,[0.13566998],84,44,hard,minus,dotcolour,alfa,,,105,19,V,R,
309,57,15,7,2,47,33,1100,['n'],0,left,['2'],5,275,[-0.09951772],85,47,medium,minus,dotcolour,alfa,,,105,19,V,R,
310,58,16,7,2,36,44,1016,['c'],0,right,['2'],5,480,[0.05958683],68,44,hard,minus,dotcolour,alfa,,,105,19,V,R,
311,59,17,7,2,47,33,1834,['c'],1,left,['3'],4,1068,[0.18494928],83,47,medium,minus,dotcolour,alfa,,,105,19,V,R,
312,60,18,7,2,33,47,1467,['c'],0,right,['3'],4,952,[-0.09015625],30,47,medium,minus,dotcolour,alfa,,,105,19,V,R,
313,61,19,7,2,44,36,1383,['n'],0,left,['3'],4,491,[0.04338494],36,44,hard,minus,dotcolour,alfa,,,105,19,V,R,
314,62,20,7,2,44,36,1484,['c'],1,left,['3'],4,470,[0.02261382],57,44,hard,minus,dotcolour,alfa,,,105,19,V,R,
315,63,21,7,2,53,27,833,['c'],1,left,['3'],4,340,[0.01897783],57,53,easy,minus,dotcolour,alfa,,,105,19,V,R,
316,64,22,7,2,53,27,933,['c'],1,left,['3'],4,394,[0.14042065],88,53,easy,minus,dotcolour,alfa,,,105,19,V,R,
317,65,23,7,2,33,47,950,['n'],1,right,['3'],4,388,[-0.08320584],77,47,medium,minus,dotcolour,alfa,,,105,19,V,R,
318,66,24,7,2,53,27,901,['c'],1,left,['3'],4,378,[0.09060068],79,53,easy,minus,dotcolour,alfa,,,105,19,V,R,
319,67,25,7,2,36,44,716,['n'],1,right,['3'],4,279,[-0.11269318],87,44,hard,minus,dotcolour,alfa,,,105,19,V,R,
320,68,26,7,2,53,27,783,['c'],1,left,['3'],4,390,[0.09978293],81,53,easy,minus,dotcolour,alfa,,,105,19,V,R,
321,69,27,7,2,33,47,717,['n'],1,right,['3'],4,298,[-0.16194997],94,47,medium,minus,dotcolour,alfa,,,105,19,V,R,
322,70,28,7,2,44,36,1000,['n'],0,left,['3'],4,424,[-0.05994516],70,44,hard,minus,dotcolour,alfa,,,105,19,V,R,
323,71,29,7,2,27,53,816,['n'],1,right,['3'],4,335,[-0.12883035],88,53,easy,minus,dotcolour,alfa,,,105,19,V,R,
324,72,30,7,2,44,36,834,['c'],1,left,['3'],4,369,[0.06330418],72,44,hard,minus,dotcolour,alfa,,,105,19,V,R,
325,73,31,7,2,33,47,1067,['n'],1,right,['3'],4,410,[-0.12320738],85,47,medium,minus,dotcolour,alfa,,,105,19,V,R,
326,74,32,7,2,27,53,833,['n'],1,right,['3'],4,329,[-0.04430232],67,53,easy,minus,dotcolour,alfa,,,105,19,V,R,
327,75,33,7,2,36,44,1066,['c'],0,right,['1'],6,1699,[-0.15380187],26,44,hard,minus,dotcolour,alfa,,,105,19,V,R,
328,76,34,7,2,27,53,750,['n'],1,right,['1'],6,281,[-0.12351742],89,53,easy,minus,dotcolour,alfa,,,105,19,V,R,
329,77,35,7,2,36,44,900,['n'],1,right,['1'],6,219,[-0.07736406],82,44,hard,minus,dotcolour,alfa,,,105,19,V,R,
330,78,36,7,2,47,33,2034,['c'],1,left,['3'],4,746,[0.2319606],92,47,medium,minus,dotcolour,alfa,,,105,19,V,R,
331,79,37,7,2,53,27,1584,['c'],1,left,['2'],5,1063,[0.19534009],85,53,easy,minus,dotcolour,alfa,,,105,19,V,R,
332,80,38,7,2,27,53,749,['n'],1,right,['1'],6,864,[-0.15637572],82,53,easy,minus,dotcolour,alfa,,,105,19,V,R,
333,81,39,7,2,36,44,1850,['n'],1,right,['1'],6,556,[-0.12698136],82,44,hard,minus,dotcolour,alfa,,,105,19,V,R,
334,82,40,7,2,47,33,1600,['c'],1,left,['1'],6,318,[0.02749498],61,47,medium,minus,dotcolour,alfa,,,105,19,V,R,
335,83,41,7,2,44,36,1616,['c'],1,left,['2'],5,1131,[0.26083236],90,44,hard,minus,dotcolour,alfa,,,105,19,V,R,
336,84,0,8,2,44,36,1284,['c'],1,left,['2'],5,1428,[0.02742806],55,44,hard,minus,dotcolour,alfa,,,105,19,V,R,
337,85,1,8,2,53,27,650,['c'],1,left,['2'],5,546,[0.07410757],71,53,easy,minus,dotcolour,alfa,,,105,19,V,R,
338,86,2,8,2,36,44,1633,['n'],1,right,['2'],5,244,[-0.13000815],91,44,hard,minus,dotcolour,alfa,,,105,19,V,R,
339,87,3,8,2,33,47,833,['n'],1,right,['2'],5,194,[-0.05739197],76,47,medium,minus,dotcolour,alfa,,,105,19,V,R,
340,88,4,8,2,27,53,1000,['n'],1,right,['1'],6,267,[-0.13978481],92,53,easy,minus,dotcolour,alfa,,,105,19,V,R,
341,89,5,8,2,36,44,1468,['n'],1,right,['1'],6,303,[-0.12361443],88,44,hard,minus,dotcolour,alfa,,,105,19,V,R,
342,90,6,8,2,36,44,700,['c'],0,right,['1'],6,913,[-0.05031551],38,44,hard,minus,dotcolour,alfa,,,105,19,V,R,
343,91,7,8,2,53,27,1234,['c'],1,left,['1'],6,268,[0.17359218],95,53,easy,minus,dotcolour,alfa,,,105,19,V,R,
344,92,8,8,2,44,36,1800,['n'],0,left,['3'],4,275,[-0.08796319],82,44,hard,minus,dotcolour,alfa,,,105,19,V,R,
345,93,9,8,2,27,53,750,['n'],1,right,['1'],6,291,[-0.00097336],50,53,easy,minus,dotcolour,alfa,,,105,19,V,R,
346,94,10,8,2,33,47,1334,['c'],0,right,['1'],6,227,[0.06139571],76,47,medium,minus,dotcolour,alfa,,,105,19,V,R,
347,95,11,8,2,27,53,884,['n'],1,right,['1'],6,151,[-0.0725886],84,53,easy,minus,dotcolour,alfa,,,105,19,V,R,
348,96,12,8,2,44,36,1433,['c'],1,left,['1'],6,233,[0.02679333],62,44,hard,minus,dotcolour,alfa,,,105,19,V,R,
349,97,13,8,2,47,33,717,['c'],1,left,['1'],6,317,[0.08096897],78,47,medium,minus,dotcolour,alfa,,,105,19,V,R,
350,98,14,8,2,27,53,750,['n'],1,right,['1'],6,259,[-0.04451151],69,53,easy,minus,dotcolour,alfa,,,105,19,V,R,
351,99,15,8,2,27,53,700,['n'],1,right,['1'],6,191,[-0.1280993],93,53,easy,minus,dotcolour,alfa,,,105,19,V,R,
352,100,16,8,2,44,36,1083,['n'],0,left,['1'],6,252,[-0.06691059],77,44,hard,minus,dotcolour,alfa,,,105,19,V,R,
353,101,17,8,2,36,44,1335,['c'],0,right,['3'],4,518,[-0.01309588],46,44,hard,minus,dotcolour,alfa,,,105,19,V,R,
354,102,18,8,2,33,47,1267,['c'],0,right,['3'],4,376,[0.05443395],69,47,medium,minus,dotcolour,alfa,,,105,19,V,R,
355,103,19,8,2,47,33,1234,['c'],1,left,['2'],5,689,[0.1447056],83,47,medium,minus,dotcolour,alfa,,,105,19,V,R,
356,104,20,8,2,47,33,1250,['c'],1,left,['2'],5,564,[0.08722845],74,47,medium,minus,dotcolour,alfa,,,105,19,V,R,
357,105,21,8,2,27,53,1200,['n'],1,right,['2'],5,327,[-0.10068966],83,53,easy,minus,dotcolour,alfa,,,105,19,V,R,
358,106,22,8,2,53,27,1367,['c'],1,left,['2'],5,492,[0.21175823],94,53,easy,minus,dotcolour,alfa,,,105,19,V,R,
359,107,23,8,2,33,47,1434,['n'],1,right,['2'],5,248,[-0.13971093],93,47,medium,minus,dotcolour,alfa,,,105,19,V,R,
360,108,24,8,2,44,36,1433,['c'],1,left,['2'],5,654,[0.06783926],68,44,hard,minus,dotcolour,alfa,,,105,19,V,R,
361,109,25,8,2,36,44,1350,['c'],0,right,['8'],3,2711,[-0.04399898],44,44,hard,minus,dotcolour,alfa,,,105,19,V,R,
362,110,26,8,2,33,47,3183,['n'],1,right,['2'],5,4700,[-0.5173777],90,47,medium,minus,dotcolour,alfa,,,105,19,V,R,
363,111,27,8,2,53,27,784,['c'],1,left,['2'],5,1265,[0.32586092],93,53,easy,minus,dotcolour,alfa,,,105,19,V,R,
364,112,28,8,2,44,36,567,['n'],0,left,['2'],5,752,[-0.03266069],58,44,hard,minus,dotcolour,alfa,,,105,19,V,R,
365,113,29,8,2,47,33,767,['c'],1,left,['2'],5,484,[0.09187061],77,47,medium,minus,dotcolour,alfa,,,105,19,V,R,
366,114,30,8,2,36,44,1700,['c'],0,right,['2'],5,374,[0.03872421],64,44,hard,minus,dotcolour,alfa,,,105,19,V,R,
367,115,31,8,2,47,33,950,['c'],1,left,['2'],5,298,[0.13450633],90,47,medium,minus,dotcolour,alfa,,,105,19,V,R,
368,116,32,8,2,47,33,817,['c'],1,left,['2'],5,295,[0.06056689],73,47,medium,minus,dotcolour,alfa,,,105,19,V,R,
369,117,33,8,2,27,53,1217,['n'],1,right,['2'],5,283,[-0.11585291],88,53,easy,minus,dotcolour,alfa,,,105,19,V,R,
370,118,34,8,2,36,44,3133,['c'],0,right,['2'],5,308,[0.04489872],67,44,hard,minus,dotcolour,alfa,,,105,19,V,R,
371,119,35,8,2,33,47,2717,['n'],1,right,['0'],1,1956,[-0.24638853],83,47,medium,minus,dotcolour,alfa,,,105,19,V,R,
372,120,36,8,2,53,27,900,['c'],1,left,['2'],5,683,[0.20949112],91,53,easy,minus,dotcolour,alfa,,,105,19,V,R,
373,121,37,8,2,44,36,1667,['c'],1,left,['2'],5,527,[0.16659876],89,44,hard,minus,dotcolour,alfa,,,105,19,V,R,
374,122,38,8,2,53,27,1884,['n'],0,left,['2'],5,207,[-0.00495574],52,53,easy,minus,dotcolour,alfa,,,105,19,V,R,
375,123,39,8,2,33,47,1949,['c'],0,right,['2'],5,1682,[0.10963209],68,47,medium,minus,dotcolour,alfa,,,105,19,V,R,
376,124,40,8,2,47,33,801,['c'],1,left,['2'],5,287,[0.07931925],79,47,medium,minus,dotcolour,alfa,,,105,19,V,R,
377,125,41,8,2,53,27,1650,['c'],1,left,['2'],5,203,[0.12688715],93,53,easy,minus,dotcolour,alfa,,,105,19,V,R,
378,0,0,9,3,47,33,934,['c'],1,left,['2'],5,934,[0.1148225],99,47,medium,plus,dotcolour,alfa,,,105,19,V,R,
379,1,1,9,3,33,47,817,['c'],0,right,['2'],5,225,[0.0353583],94,47,medium,plus,dotcolour,alfa,,,105,19,V,R,
380,2,2,9,3,36,44,733,['n'],1,right,['2'],5,236,[-0.00076689],51,44,hard,plus,dotcolour,alfa,,,105,19,V,R,
381,3,3,9,3,44,36,983,['c'],1,left,['2'],5,332,[0.03715549],91,44,hard,plus,dotcolour,alfa,,,105,19,V,R,
382,4,4,9,3,27,53,816,['n'],1,right,['2'],5,335,[-0.11320056],100,53,easy,plus,dotcolour,alfa,,,105,19,V,R,
383,5,5,9,3,27,53,900,['n'],1,right,['2'],5,248,[-0.21256661],100,53,easy,plus,dotcolour,alfa,,,105,19,V,R,
384,6,6,9,3,44,36,884,['c'],1,left,['2'],5,260,[0.16310952],100,44,hard,plus,dotcolour,alfa,,,105,19,V,R,
385,7,7,9,3,47,33,768,['c'],1,left,['2'],5,276,[0.10984917],100,47,medium,plus,dotcolour,alfa,,,105,19,V,R,
386,8,8,9,3,53,27,816,['c'],1,left,['2'],5,265,[0.12745198],100,53,easy,plus,dotcolour,alfa,,,105,19,V,R,
387,9,9,9,3,33,47,1166,['c'],0,right,['2'],5,218,[0.02693332],89,47,medium,plus,dotcolour,alfa,,,105,19,V,R,
388,10,10,9,3,47,33,650,['c'],1,left,['2'],5,352,[0.08858173],100,47,medium,plus,dotcolour,alfa,,,105,19,V,R,
389,11,11,9,3,27,53,951,['n'],1,right,['2'],5,302,[-0.06542241],99,53,easy,plus,dotcolour,alfa,,,105,19,V,R,
390,12,12,9,3,53,27,1250,['c'],1,left,['2'],5,273,[0.1221981],100,53,easy,plus,dotcolour,alfa,,,105,19,V,R,
391,13,13,9,3,47,33,750,['c'],1,left,['2'],5,328,[0.22272069],100,47,medium,plus,dotcolour,alfa,,,105,19,V,R,
392,14,14,9,3,27,53,983,['n'],1,right,['2'],5,237,[-0.04423793],96,53,easy,plus,dotcolour,alfa,,,105,19,V,R,
393,15,15,9,3,44,36,884,['c'],1,left,['2'],5,250,[0.02477864],86,44,hard,plus,dotcolour,alfa,,,105,19,V,R,
394,16,16,9,3,47,33,783,['c'],1,left,['2'],5,331,[0.01796626],75,47,medium,plus,dotcolour,alfa,,,105,19,V,R,
395,17,17,9,3,33,47,766,['n'],1,right,['2'],5,191,[-0.06627763],100,47,medium,plus,dotcolour,alfa,,,105,19,V,R,
396,18,18,9,3,27,53,685,['n'],1,right,['2'],5,165,[-0.04404489],98,53,easy,plus,dotcolour,alfa,,,105,19,V,R,
397,19,19,9,3,44,36,1217,['n'],0,left,['2'],5,119,[-0.08817628],100,44,hard,plus,dotcolour,alfa,,,105,19,V,R,
398,20,20,9,3,47,33,717,['c'],1,left,['2'],5,335,[0.10688024],100,47,medium,plus,dotcolour,alfa,,,105,19,V,R,
399,21,21,9,3,36,44,851,['c'],0,right,['2'],5,338,[0.0873437],100,44,hard,plus,dotcolour,alfa,,,105,19,V,R,
400,22,22,9,3,53,27,800,['c'],1,left,['2'],5,229,[0.07940167],100,53,easy,plus,dotcolour,alfa,,,105,19,V,R,
401,23,23,9,3,44,36,734,['c'],1,left,['2'],5,248,[0.07019246],99,44,hard,plus,dotcolour,alfa,,,105,19,V,R,
402,24,24,9,3,47,33,650,['c'],1,left,['2'],5,205,[0.08767662],100,47,medium,plus,dotcolour,alfa,,,105,19,V,R,
403,25,25,9,3,33,47,750,['n'],1,right,['2'],5,136,[-0.12086193],100,47,medium,plus,dotcolour,alfa,,,105,19,V,R,
404,26,26,9,3,36,44,800,['c'],0,right,['2'],5,492,[0.06645028],97,44,hard,plus,dotcolour,alfa,,,105,19,V,R,
405,27,27,9,3,36,44,749,['n'],1,right,['2'],5,204,[-0.120746],100,44,hard,plus,dotcolour,alfa,,,105,19,V,R,
406,28,28,9,3,53,27,1467,['c'],1,left,['2'],5,250,[0.04275495],96,53,easy,plus,dotcolour,alfa,,,105,19,V,R,
407,29,29,9,3,53,27,667,['c'],1,left,['2'],5,360,[0.11174912],100,53,easy,plus,dotcolour,alfa,,,105,19,V,R,
408,30,30,9,3,36,44,649,['n'],1,right,['2'],5,167,[-0.12969644],100,44,hard,plus,dotcolour,alfa,,,105,19,V,R,
409,31,31,9,3,44,36,701,['c'],1,left,['2'],5,302,[0.00823069],63,44,hard,plus,dotcolour,alfa,,,105,19,V,R,
410,32,32,9,3,33,47,734,['n'],1,right,['2'],5,174,[-0.13882096],100,47,medium,plus,dotcolour,alfa,,,105,19,V,R,
411,33,33,9,3,33,47,750,['n'],1,right,['2'],5,163,[-0.11738751],100,47,medium,plus,dotcolour,alfa,,,105,19,V,R,
412,34,34,9,3,53,27,751,['c'],1,left,['2'],5,239,[0.14485456],100,53,easy,plus,dotcolour,alfa,,,105,19,V,R,
413,35,35,9,3,44,36,734,['c'],1,left,['2'],5,225,[0.06479081],99,44,hard,plus,dotcolour,alfa,,,105,19,V,R,
414,36,36,9,3,53,27,633,['c'],1,left,['2'],5,231,[0.06952752],99,53,easy,plus,dotcolour,alfa,,,105,19,V,R,
415,37,37,9,3,33,47,1016,['n'],1,right,['2'],5,143,[-0.16138477],100,47,medium,plus,dotcolour,alfa,,,105,19,V,R,
416,38,38,9,3,27,53,750,['n'],1,right,['2'],5,157,[-0.02672841],92,53,easy,plus,dotcolour,alfa,,,105,19,V,R,
417,39,39,9,3,27,53,650,['n'],1,right,['2'],5,261,[-0.08457031],100,53,easy,plus,dotcolour,alfa,,,105,19,V,R,
418,40,40,9,3,36,44,700,['n'],1,right,['2'],5,224,[-0.10556241],100,44,hard,plus,dotcolour,alfa,,,105,19,V,R,
419,41,41,9,3,36,44,1534,['c'],0,right,['2'],5,211,[0.04377462],97,44,hard,plus,dotcolour,alfa,,,105,19,V,R,
420,42,0,10,3,47,33,1567,['c'],1,left,['1'],6,223,[0.13029541],100,47,medium,plus,dotcolour,alfa,,,105,19,V,R,
421,43,1,10,3,47,33,1517,['c'],1,left,['1'],6,186,[0.12988104],100,47,medium,plus,dotcolour,alfa,,,105,19,V,R,
422,44,2,10,3,44,36,2850,['n'],0,left,['3'],4,227,[-0.03793973],95,44,hard,plus,dotcolour,alfa,,,105,19,V,R,
423,45,3,10,3,27,53,7284,['n'],1,right,['0'],1,527,[-0.09131255],99,53,easy,plus,dotcolour,alfa,,,105,19,V,R,
424,46,4,10,3,36,44,2450,['n'],1,right,['3'],4,793,[-0.24183474],100,44,hard,plus,dotcolour,alfa,,,105,19,V,R,
425,47,5,10,3,36,44,2500,['n'],1,right,['3'],4,751,[-0.10264761],99,44,hard,plus,dotcolour,alfa,,,105,19,V,R,
426,48,6,10,3,33,47,2117,['n'],1,right,['1'],6,237,[-0.11979468],100,47,medium,plus,dotcolour,alfa,,,105,19,V,R,
427,49,7,10,3,33,47,3199,['n'],1,right,['1'],6,470,[-0.13313822],100,47,medium,plus,dotcolour,alfa,,,105,19,V,R,
428,50,8,10,3,27,53,917,['n'],1,right,['1'],6,335,[-0.12739191],100,53,easy,plus,dotcolour,alfa,,,105,19,V,R,
429,51,9,10,3,53,27,1300,['c'],1,left,['1'],6,368,[0.26839279],100,53,easy,plus,dotcolour,alfa,,,105,19,V,R,
430,52,10,10,3,44,36,1518,['c'],1,left,['1'],6,366,[0.1020551],100,44,hard,plus,dotcolour,alfa,,,105,19,V,R,
431,53,11,10,3,36,44,1216,['c'],0,right,['2'],5,1168,[-0.05329208],14,44,hard,plus,dotcolour,alfa,,,105,19,V,R,
432,54,12,10,3,36,44,1768,['n'],1,right,['1'],6,363,[-0.04125326],92,44,hard,plus,dotcolour,alfa,,,105,19,V,R,
433,55,13,10,3,53,27,1333,['c'],1,left,['1'],6,353,[-0.02977972],14,53,easy,plus,dotcolour,alfa,,,105,19,V,R,
434,56,14,10,3,27,53,1550,['n'],1,right,['2'],5,494,[-0.15820236],100,53,easy,plus,dotcolour,alfa,,,105,19,V,R,
435,57,15,10,3,47,33,1401,['c'],1,left,['2'],5,547,[0.2063031],100,47,medium,plus,dotcolour,alfa,,,105,19,V,R,
436,58,16,10,3,33,47,3450,['c'],0,right,['3'],4,493,[0.03906492],88,47,medium,plus,dotcolour,alfa,,,105,19,V,R,
437,59,17,10,3,53,27,1267,['c'],1,left,['3'],4,687,[0.206986],100,53,easy,plus,dotcolour,alfa,,,105,19,V,R,
438,60,18,10,3,47,33,1917,['n'],0,left,['3'],4,2312,[0.2569931],0,47,medium,plus,dotcolour,alfa,,,105,19,V,R,
439,61,19,10,3,33,47,1050,['n'],1,right,['2'],5,587,[-0.180153],100,47,medium,plus,dotcolour,alfa,,,105,19,V,R,
440,62,20,10,3,47,33,1850,['c'],1,left,['2'],5,521,[0.04464977],90,47,medium,plus,dotcolour,alfa,,,105,19,V,R,
441,63,21,10,3,27,53,1183,['n'],1,right,['1'],6,1551,[-0.30457497],100,53,easy,plus,dotcolour,alfa,,,105,19,V,R,
442,64,22,10,3,36,44,1300,['c'],0,right,['3'],4,1205,[-0.09954752],4,44,hard,plus,dotcolour,alfa,,,105,19,V,R,
443,65,23,10,3,36,44,1000,['n'],1,right,['3'],4,1086,[-0.46515557],100,44,hard,plus,dotcolour,alfa,,,105,19,V,R,
444,66,24,10,3,27,53,1417,['n'],1,right,['3'],4,714,[-0.14890792],100,53,easy,plus,dotcolour,alfa,,,105,19,V,R,
445,67,25,10,3,53,27,934,['c'],1,left,['1'],6,314,[0.027133],85,53,easy,plus,dotcolour,alfa,,,105,19,V,R,
446,68,26,10,3,27,53,1884,['n'],1,right,['1'],6,412,[-0.25211665],100,53,easy,plus,dotcolour,alfa,,,105,19,V,R,
447,69,27,10,3,36,44,1933,['c'],0,right,['1'],6,423,[0.07411059],98,44,hard,plus,dotcolour,alfa,,,105,19,V,R,
448,70,28,10,3,53,27,1850,['c'],1,left,['1'],6,421,[0.23892276],100,53,easy,plus,dotcolour,alfa,,,105,19,V,R,
449,71,29,10,3,33,47,1516,['n'],1,right,['0'],1,368,[-0.14401933],100,47,medium,plus,dotcolour,alfa,,,105,19,V,R,
450,72,30,10,3,53,27,866,['c'],1,left,['1'],6,400,[0.128669],100,53,easy,plus,dotcolour,alfa,,,105,19,V,R,
451,73,31,10,3,33,47,1916,['n'],1,right,['3'],4,3630,[-0.59153351],100,47,medium,plus,dotcolour,alfa,,,105,19,V,R,
452,74,32,10,3,44,36,1968,['c'],1,left,['1'],6,406,[0.04714059],93,44,hard,plus,dotcolour,alfa,,,105,19,V,R,
453,75,33,10,3,44,36,1983,['c'],1,left,['1'],6,375,[0.19246361],100,44,hard,plus,dotcolour,alfa,,,105,19,V,R,
454,76,34,10,3,47,33,802,['c'],1,left,['1'],6,409,[0.04087438],91,47,medium,plus,dotcolour,alfa,,,105,19,V,R,
455,77,35,10,3,53,27,701,['c'],1,left,['1'],6,334,[0.04866961],95,53,easy,plus,dotcolour,alfa,,,105,19,V,R,
456,78,36,10,3,47,33,767,['c'],1,left,['1'],6,339,[0.20818419],100,47,medium,plus,dotcolour,alfa,,,105,19,V,R,
457,79,37,10,3,33,47,1916,['n'],1,right,['1'],6,266,[-0.23721823],100,47,medium,plus,dotcolour,alfa,,,105,19,V,R,
458,80,38,10,3,44,36,1400,['n'],0,left,['3'],4,328,[-0.04537554],95,44,hard,plus,dotcolour,alfa,,,105,19,V,R,
459,81,39,10,3,27,53,2300,['n'],1,right,['2'],5,2297,[-0.48175114],100,53,easy,plus,dotcolour,alfa,,,105,19,V,R,
460,82,40,10,3,44,36,1118,['c'],1,left,['2'],5,600,[0.02019545],72,44,hard,plus,dotcolour,alfa,,,105,19,V,R,
461,83,41,10,3,44,36,1868,['c'],1,left,['2'],5,415,[0.09710923],100,44,hard,plus,dotcolour,alfa,,,105,19,V,R,
462,84,0,11,3,27,53,1318,['n'],1,right,['1'],6,661,[-0.19426134],100,53,easy,plus,dotcolour,alfa,,,105,19,V,R,
463,85,1,11,3,53,27,1217,['c'],1,left,['1'],6,323,[0.13411313],100,53,easy,plus,dotcolour,alfa,,,105,19,V,R,
464,86,2,11,3,47,33,1818,['c'],1,left,['1'],6,422,[0.08505563],99,47,medium,plus,dotcolour,alfa,,,105,19,V,R,
465,87,3,11,3,47,33,1400,['c'],1,left,['1'],6,478,[0.09483654],99,47,medium,plus,dotcolour,alfa,,,105,19,V,R,
466,88,4,11,3,36,44,1966,['n'],1,right,['1'],6,325,[-0.12000879],100,44,hard,plus,dotcolour,alfa,,,105,19,V,R,
467,89,5,11,3,27,53,1317,['n'],1,right,['1'],6,549,[-0.20102455],100,53,easy,plus,dotcolour,alfa,,,105,19,V,R,
468,90,6,11,3,44,36,1067,['c'],1,left,['1'],6,430,[0.00504046],57,44,hard,plus,dotcolour,alfa,,,105,19,V,R,
469,91,7,11,3,53,27,1533,['c'],1,left,['2'],5,1760,[0.33420567],100,53,easy,plus,dotcolour,alfa,,,105,19,V,R,
470,92,8,11,3,44,36,2733,['c'],1,left,['2'],5,509,[0.09450575],99,44,hard,plus,dotcolour,alfa,,,105,19,V,R,
471,93,9,11,3,33,47,3550,['n'],1,right,['2'],5,1212,[-0.34448194],100,47,medium,plus,dotcolour,alfa,,,105,19,V,R,
472,94,10,11,3,44,36,2117,['c'],1,left,['2'],5,1128,[-0.02617537],29,44,hard,plus,dotcolour,alfa,,,105,19,V,R,
473,95,11,11,3,44,36,1833,['c'],1,left,['2'],5,523,[0.17765747],100,44,hard,plus,dotcolour,alfa,,,105,19,V,R,
474,96,12,11,3,27,53,2051,['n'],1,right,['2'],5,1141,[-0.39842337],100,53,easy,plus,dotcolour,alfa,,,105,19,V,R,
475,97,13,11,3,53,27,1649,['c'],1,left,['2'],5,454,[0.1283501],100,53,easy,plus,dotcolour,alfa,,,105,19,V,R,
476,98,14,11,3,47,33,1618,['c'],1,left,['2'],5,357,[0.09103434],100,47,medium,plus,dotcolour,alfa,,,105,19,V,R,
477,99,15,11,3,36,44,1534,['n'],1,right,['2'],5,2610,[-0.40124726],100,44,hard,plus,dotcolour,alfa,,,105,19,V,R,
478,100,16,11,3,36,44,3050,['n'],1,right,['2'],5,736,[-0.00438468],55,44,hard,plus,dotcolour,alfa,,,105,19,V,R,
479,101,17,11,3,53,27,1750,['c'],1,left,['2'],5,405,[0.11120636],100,53,easy,plus,dotcolour,alfa,,,105,19,V,R,
480,102,18,11,3,33,47,1617,['n'],1,right,['2'],5,717,[-0.07430378],96,47,medium,plus,dotcolour,alfa,,,105,19,V,R,
481,103,19,11,3,47,33,1450,['c'],1,left,['2'],5,352,[0.17097712],100,47,medium,plus,dotcolour,alfa,,,105,19,V,R,
482,104,20,11,3,36,44,1866,['n'],1,right,['2'],5,248,[-0.05913214],99,44,hard,plus,dotcolour,alfa,,,105,19,V,R,
483,105,21,11,3,53,27,950,['c'],1,left,['2'],5,618,[0.16823884],100,53,easy,plus,dotcolour,alfa,,,105,19,V,R,
484,106,22,11,3,47,33,1116,['c'],1,left,['2'],5,398,[0.06446124],98,47,medium,plus,dotcolour,alfa,,,105,19,V,R,
485,107,23,11,3,33,47,1849,['c'],0,right,['0'],1,2342,[-0.26374116],0,47,medium,plus,dotcolour,alfa,,,105,19,V,R,
486,108,24,11,3,27,53,1266,['n'],1,right,['3'],4,1286,[-0.40763499],100,53,easy,plus,dotcolour,alfa,,,105,19,V,R,
487,109,25,11,3,33,47,1917,['n'],1,right,['3'],4,494,[-0.18626861],100,47,medium,plus,dotcolour,alfa,,,105,19,V,R,
488,110,26,11,3,44,36,3199,['c'],1,left,['2'],5,836,[0.03418084],79,44,hard,plus,dotcolour,alfa,,,105,19,V,R,
489,111,27,11,3,33,47,1850,['n'],1,right,['2'],5,617,[0.0150192],33,47,medium,plus,dotcolour,alfa,,,105,19,V,R,
490,112,28,11,3,36,44,917,['n'],1,right,['3'],4,1021,[-0.21872564],100,44,hard,plus,dotcolour,alfa,,,105,19,V,R,
491,113,29,11,3,53,27,900,['c'],1,left,['2'],5,297,[0.13437882],100,53,easy,plus,dotcolour,alfa,,,105,19,V,R,
492,114,30,11,3,36,44,2168,['c'],0,right,['3'],4,1407,[-0.02734315],30,44,hard,plus,dotcolour,alfa,,,105,19,V,R,
493,115,31,11,3,27,53,1301,['n'],1,right,['3'],4,268,[-0.19292821],100,53,easy,plus,dotcolour,alfa,,,105,19,V,R,
494,116,32,11,3,33,47,1466,['c'],0,right,['2'],5,408,[0.06719822],98,47,medium,plus,dotcolour,alfa,,,105,19,V,R,
495,117,33,11,3,36,44,1167,['n'],1,right,['2'],5,298,[-0.02595957],85,44,hard,plus,dotcolour,alfa,,,105,19,V,R,
496,118,34,11,3,47,33,983,['c'],1,left,['2'],5,392,[0.0924761],100,47,medium,plus,dotcolour,alfa,,,105,19,V,R,
497,119,35,11,3,27,53,867,['n'],1,right,['2'],5,279,[-0.06789611],99,53,easy,plus,dotcolour,alfa,,,105,19,V,R,
498,120,36,11,3,44,36,1233,['c'],1,left,['2'],5,371,[0.15056979],100,44,hard,plus,dotcolour,alfa,,,105,19,V,R,
499,121,37,11,3,44,36,935,['n'],0,left,['2'],5,256,[-0.05159006],98,44,hard,plus,dotcolour,alfa,,,105,19,V,R,
500,122,38,11,3,53,27,1916,['n'],0,left,['2'],5,226,[-0.10863751],100,53,easy,plus,dotcolour,alfa,,,105,19,V,R,
501,123,39,11,3,33,47,899,['n'],1,right,['2'],5,350,[-0.01155452],67,47,medium,plus,dotcolour,alfa,,,105,19,V,R,
502,124,40,11,3,47,33,1149,['c'],1,left,['2'],5,372,[0.06874604],98,47,medium,plus,dotcolour,alfa,,,105,19,V,R,
503,125,41,11,3,27,53,732,['n'],1,right,['2'],5,329,[-0.1739784],100,53,easy,plus,dotcolour,alfa,,,105,19,V,R,
504,0,0,12,4,47,33,3951,['n'],0,left,['0'],1,324,[-0.08680342],80,47,medium,minus,dotcolour,alfa,,,105,19,V,R,
505,1,1,12,4,47,33,1084,['c'],1,left,['2'],5,1589,[0.00415768],51,47,medium,minus,dotcolour,alfa,,,105,19,V,R,
506,2,2,12,4,53,27,1267,['c'],1,left,['2'],5,491,[0.17429666],90,53,easy,minus,dotcolour,alfa,,,105,19,V,R,
507,3,3,12,4,47,33,1267,['c'],1,left,['2'],5,398,[0.01915182],57,47,medium,minus,dotcolour,alfa,,,105,19,V,R,
508,4,4,12,4,36,44,950,['n'],1,right,['2'],5,457,[0.00467226],48,44,hard,minus,dotcolour,alfa,,,105,19,V,R,
509,5,5,12,4,53,27,767,['c'],1,left,['2'],5,441,[0.08881441],77,53,easy,minus,dotcolour,alfa,,,105,19,V,R,
510,6,6,12,4,27,53,767,['n'],1,right,['2'],5,258,[-0.13453621],92,53,easy,minus,dotcolour,alfa,,,105,19,V,R,
511,7,7,12,4,27,53,767,['n'],1,right,['2'],5,298,[-0.0032775],51,53,easy,minus,dotcolour,alfa,,,105,19,V,R,
512,8,8,12,4,27,53,784,['n'],1,right,['2'],5,216,[-0.12627024],92,53,easy,minus,dotcolour,alfa,,,105,19,V,R,
513,9,9,12,4,44,36,784,['n'],0,left,['2'],5,258,[-0.04233995],68,44,hard,minus,dotcolour,alfa,,,105,19,V,R,
514,10,10,12,4,27,53,649,['n'],1,right,['2'],5,206,[-0.13786426],94,53,easy,minus,dotcolour,alfa,,,105,19,V,R,
515,11,11,12,4,53,27,1034,['c'],1,left,['2'],5,317,[0.16431655],93,53,easy,minus,dotcolour,alfa,,,105,19,V,R,
516,12,12,12,4,36,44,917,['n'],1,right,['2'],5,221,[-0.01668696],58,44,hard,minus,dotcolour,alfa,,,105,19,V,R,
517,13,13,12,4,47,33,1167,['c'],1,left,['2'],5,359,[0.04342354],66,47,medium,minus,dotcolour,alfa,,,105,19,V,R,
518,14,14,12,4,44,36,1367,['c'],1,left,['2'],5,476,[0.0368202],62,44,hard,minus,dotcolour,alfa,,,105,19,V,R,
519,15,15,12,4,33,47,650,['n'],1,right,['2'],5,279,[-0.06526936],75,47,medium,minus,dotcolour,alfa,,,105,19,V,R,
520,16,16,12,4,27,53,900,['n'],1,right,['2'],5,258,[-0.14042451],92,53,easy,minus,dotcolour,alfa,,,105,19,V,R,
521,17,17,12,4,44,36,834,['c'],1,left,['2'],5,487,[0.1365482],85,44,hard,minus,dotcolour,alfa,,,105,19,V,R,
522,18,18,12,4,53,27,900,['c'],1,left,['2'],5,441,[0.22826392],96,53,easy,minus,dotcolour,alfa,,,105,19,V,R,
523,19,19,12,4,33,47,951,['n'],1,right,['2'],5,242,[-0.08105023],81,47,medium,minus,dotcolour,alfa,,,105,19,V,R,
524,20,20,12,4,53,27,800,['c'],1,left,['2'],5,385,[-0.03501502],38,53,easy,minus,dotcolour,alfa,,,105,19,V,R,
525,21,21,12,4,44,36,800,['c'],1,left,['2'],5,371,[0.07558924],75,44,hard,minus,dotcolour,alfa,,,105,19,V,R,
526,22,22,12,4,44,36,933,['c'],1,left,['2'],5,376,[0.0809904],77,44,hard,minus,dotcolour,alfa,,,105,19,V,R,
527,23,23,12,4,53,27,668,['c'],1,left,['2'],5,288,[0.14327784],92,53,easy,minus,dotcolour,alfa,,,105,19,V,R,
528,24,24,12,4,36,44,834,['n'],1,right,['2'],5,236,[-0.01777532],58,44,hard,minus,dotcolour,alfa,,,105,19,V,R,
529,25,25,12,4,47,33,749,['c'],1,left,['2'],5,327,[0.0993004],83,47,medium,minus,dotcolour,alfa,,,105,19,V,R,
530,26,26,12,4,36,44,1067,['n'],1,right,['2'],5,344,[-0.03919217],65,44,hard,minus,dotcolour,alfa,,,105,19,V,R,
531,27,27,12,4,33,47,1600,['n'],1,right,['2'],5,211,[-0.05593988],75,47,medium,minus,dotcolour,alfa,,,105,19,V,R,
532,28,28,12,4,33,47,1151,['n'],1,right,['3'],4,406,[-0.1994195],94,47,medium,minus,dotcolour,alfa,,,105,19,V,R,
533,29,29,12,4,44,36,1250,['n'],0,left,['2'],5,237,[-0.02196783],60,44,hard,minus,dotcolour,alfa,,,105,19,V,R,
534,30,30,12,4,47,33,1867,['n'],0,left,['1'],6,522,[0.0725763],29,47,medium,minus,dotcolour,alfa,,,105,19,V,R,
535,31,31,12,4,53,27,1100,['n'],0,left,['1'],6,138,[-0.10879387],93,53,easy,minus,dotcolour,alfa,,,105,19,V,R,
536,32,32,12,4,36,44,1050,['n'],1,right,['1'],6,188,[-0.16974207],97,44,hard,minus,dotcolour,alfa,,,105,19,V,R,
537,33,33,12,4,44,36,1734,['c'],1,left,['1'],6,289,[0.01786804],57,44,hard,minus,dotcolour,alfa,,,105,19,V,R,
538,34,34,12,4,36,44,800,['n'],1,right,['1'],6,198,[-0.12480623],93,44,hard,minus,dotcolour,alfa,,,105,19,V,R,
539,35,35,12,4,33,47,1917,['c'],0,right,['2'],5,443,[0.21551575],95,47,medium,minus,dotcolour,alfa,,,105,19,V,R,
540,36,36,12,4,47,33,1366,['c'],1,left,['1'],6,267,[0.11567561],88,47,medium,minus,dotcolour,alfa,,,105,19,V,R,
541,37,37,12,4,27,53,767,['n'],1,right,['1'],6,171,[-0.12771445],94,53,easy,minus,dotcolour,alfa,,,105,19,V,R,
542,38,38,12,4,33,47,834,['c'],0,right,['1'],6,405,[-0.03533372],38,47,medium,minus,dotcolour,alfa,,,105,19,V,R,
543,39,39,12,4,27,53,1267,['n'],1,right,['1'],6,211,[-0.10887143],89,53,easy,minus,dotcolour,alfa,,,105,19,V,R,
544,40,40,12,4,33,47,1117,['c'],0,right,['1'],6,287,[0.0358997],65,47,medium,minus,dotcolour,alfa,,,105,19,V,R,
545,41,41,12,4,36,44,1868,['c'],0,right,['1'],6,314,[0.03844505],65,44,hard,minus,dotcolour,alfa,,,105,19,V,R,
546,42,0,13,4,33,47,751,['n'],1,right,['1'],6,258,[-0.08594376],82,47,medium,minus,dotcolour,alfa,,,105,19,V,R,
547,43,1,13,4,36,44,1833,['n'],1,right,['2'],5,823,[-0.04656724],61,44,hard,minus,dotcolour,alfa,,,105,19,V,R,
548,44,2,13,4,47,33,1650,['c'],1,left,['1'],6,261,[0.14935803],93,47,medium,minus,dotcolour,alfa,,,105,19,V,R,
549,45,3,13,4,33,47,866,['n'],1,right,['1'],6,194,[-0.02860623],64,47,medium,minus,dotcolour,alfa,,,105,19,V,R,
550,46,4,13,4,27,53,1301,['n'],1,right,['1'],6,159,[-0.09235378],89,53,easy,minus,dotcolour,alfa,,,105,19,V,R,
551,47,5,13,4,44,36,3318,['c'],1,left,['3'],4,533,[0.21175117],93,44,hard,minus,dotcolour,alfa,,,105,19,V,R,
552,48,6,13,4,27,53,783,['n'],1,right,['3'],4,715,[-0.18221152],87,53,easy,minus,dotcolour,alfa,,,105,19,V,R,
553,49,7,13,4,27,53,700,['n'],1,right,['3'],4,298,[-0.15376421],93,53,easy,minus,dotcolour,alfa,,,105,19,V,R,
554,50,8,13,4,53,27,1467,['c'],1,left,['1'],6,349,[0.13988851],89,53,easy,minus,dotcolour,alfa,,,105,19,V,R,
555,51,9,13,4,44,36,1517,['c'],1,left,['1'],6,324,[0.11228683],86,44,hard,minus,dotcolour,alfa,,,105,19,V,R,
556,52,10,13,4,44,36,1400,['c'],1,left,['1'],6,280,[0.07425551],78,44,hard,minus,dotcolour,alfa,,,105,19,V,R,
557,53,11,13,4,36,44,1617,['n'],1,right,['1'],6,197,[-0.02558511],63,44,hard,minus,dotcolour,alfa,,,105,19,V,R,
558,54,12,13,4,47,33,1018,['c'],1,left,['1'],6,302,[0.11608147],87,47,medium,minus,dotcolour,alfa,,,105,19,V,R,
559,55,13,13,4,53,27,1117,['c'],1,left,['1'],6,326,[0.15627167],92,53,easy,minus,dotcolour,alfa,,,105,19,V,R,
560,56,14,13,4,53,27,1133,['c'],1,left,['1'],6,310,[0.08491213],80,53,easy,minus,dotcolour,alfa,,,105,19,V,R,
561,57,15,13,4,47,33,1384,['c'],1,left,['1'],6,250,[0.14626289],93,47,medium,minus,dotcolour,alfa,,,105,19,V,R,
562,58,16,13,4,53,27,900,['c'],1,left,['1'],6,254,[0.03726563],66,53,easy,minus,dotcolour,alfa,,,105,19,V,R,
563,59,17,13,4,47,33,901,['c'],1,left,['1'],6,241,[0.06307046],76,47,medium,minus,dotcolour,alfa,,,105,19,V,R,
564,60,18,13,4,27,53,1134,['n'],1,right,['2'],5,596,[-0.09269275],75,53,easy,minus,dotcolour,alfa,,,105,19,V,R,
565,61,19,13,4,44,36,1116,['c'],1,left,['1'],6,184,[0.0986564],89,44,hard,minus,dotcolour,alfa,,,105,19,V,R,
566,62,20,13,4,47,33,1084,['c'],1,left,['1'],6,198,[0.10787308],90,47,medium,minus,dotcolour,alfa,,,105,19,V,R,
567,63,21,13,4,36,44,1050,['c'],0,right,['1'],6,182,[0.06396069],79,44,hard,minus,dotcolour,alfa,,,105,19,V,R,
568,64,22,13,4,33,47,2300,['n'],1,right,['2'],5,716,[-0.1365399],81,47,medium,minus,dotcolour,alfa,,,105,19,V,R,
569,65,23,13,4,53,27,951,['n'],0,left,['2'],5,339,[0.05357927],30,53,easy,minus,dotcolour,alfa,,,105,19,V,R,
570,66,24,13,4,33,47,1350,['n'],1,right,['2'],5,360,[-0.17738912],93,47,medium,minus,dotcolour,alfa,,,105,19,V,R,
571,67,25,13,4,27,53,1151,['n'],1,right,['2'],5,309,[0.02445944],40,53,easy,minus,dotcolour,alfa,,,105,19,V,R,
572,68,26,13,4,53,27,1151,['c'],1,left,['2'],5,524,[0.192148],92,53,easy,minus,dotcolour,alfa,,,105,19,V,R,
573,69,27,13,4,33,47,1166,['c'],0,right,['2'],5,297,[0.05665512],72,47,medium,minus,dotcolour,alfa,,,105,19,V,R,
574,70,28,13,4,47,33,817,['n'],0,left,['2'],5,214,[-0.00755667],54,47,medium,minus,dotcolour,alfa,,,105,19,V,R,
575,71,29,13,4,27,53,834,['n'],1,right,['2'],5,517,[-0.29578926],98,53,easy,minus,dotcolour,alfa,,,105,19,V,R,
576,72,30,13,4,44,36,900,['c'],1,left,['2'],5,326,[0.04245307],66,44,hard,minus,dotcolour,alfa,,,105,19,V,R,
577,73,31,13,4,36,44,1033,['c'],0,right,['2'],5,329,[0.06537228],74,44,hard,minus,dotcolour,alfa,,,105,19,V,R,
578,74,32,13,4,44,36,1050,['c'],1,left,['2'],5,314,[0.12432625],88,44,hard,minus,dotcolour,alfa,,,105,19,V,R,
579,75,33,13,4,27,53,850,['n'],1,right,['2'],5,277,[-0.11302367],87,53,easy,minus,dotcolour,alfa,,,105,19,V,R,
580,76,34,13,4,36,44,950,['c'],0,right,['2'],5,381,[0.00108989],50,44,hard,minus,dotcolour,alfa,,,105,19,V,R,
581,77,35,13,4,53,27,701,['c'],1,left,['2'],5,371,[-0.01976321],43,53,easy,minus,dotcolour,alfa,,,105,19,V,R,
582,78,36,13,4,44,36,1150,['c'],1,left,['3'],4,343,[0.1118709],85,44,hard,minus,dotcolour,alfa,,,105,19,V,R,
583,79,37,13,4,33,47,850,['n'],1,right,['3'],4,192,[-0.15786105],96,47,medium,minus,dotcolour,alfa,,,105,19,V,R,
584,80,38,13,4,47,33,984,['c'],1,left,['3'],4,370,[0.04503497],66,47,medium,minus,dotcolour,alfa,,,105,19,V,R,
585,81,39,13,4,36,44,833,['n'],1,right,['3'],4,164,[-0.08664721],87,44,hard,minus,dotcolour,alfa,,,105,19,V,R,
586,82,40,13,4,36,44,733,['n'],1,right,['3'],4,170,[-0.09944113],90,44,hard,minus,dotcolour,alfa,,,105,19,V,R,
587,83,41,13,4,33,47,666,['n'],1,right,['3'],4,185,[-0.11032742],91,47,medium,minus,dotcolour,alfa,,,105,19,V,R,
588,84,0,14,4,44,36,918,['c'],1,left,['3'],4,406,[0.09757805],80,44,hard,minus,dotcolour,alfa,,,105,19,V,R,
589,85,1,14,4,36,44,1217,['c'],0,right,['3'],4,350,[0.03576832],63,44,hard,minus,dotcolour,alfa,,,105,19,V,R,
590,86,2,14,4,53,27,716,['c'],1,left,['3'],4,292,[0.13387047],90,53,easy,minus,dotcolour,alfa,,,105,19,V,R,
591,87,3,14,4,27,53,700,['n'],1,right,['3'],4,222,[-0.18424609],97,53,easy,minus,dotcolour,alfa,,,105,19,V,R,
592,88,4,14,4,36,44,1218,['n'],1,right,['3'],4,206,[-0.14494697],95,44,hard,minus,dotcolour,alfa,,,105,19,V,R,
593,89,5,14,4,36,44,751,['n'],1,right,['3'],4,168,[-0.06554932],81,44,hard,minus,dotcolour,alfa,,,105,19,V,R,
594,90,6,14,4,27,53,667,['n'],1,right,['3'],4,209,[-0.03675111],67,53,easy,minus,dotcolour,alfa,,,105,19,V,R,
595,91,7,14,4,47,33,934,['c'],1,left,['3'],4,308,[0.07811841],78,47,medium,minus,dotcolour,alfa,,,105,19,V,R,
596,92,8,14,4,36,44,667,['n'],1,right,['3'],4,198,[-0.01927533],60,44,hard,minus,dotcolour,alfa,,,105,19,V,R,
597,93,9,14,4,27,53,700,['n'],1,right,['3'],4,275,[-0.11997142],89,53,easy,minus,dotcolour,alfa,,,105,19,V,R,
598,94,10,14,4,47,33,1301,['c'],1,left,['3'],4,437,[0.04874071],66,47,medium,minus,dotcolour,alfa,,,105,19,V,R,
599,95,11,14,4,33,47,733,['n'],1,right,['3'],4,191,[-0.12781961],93,47,medium,minus,dotcolour,alfa,,,105,19,V,R,
600,96,12,14,4,53,27,800,['c'],1,left,['3'],4,353,[0.01027088],54,53,easy,minus,dotcolour,alfa,,,105,19,V,R,
601,97,13,14,4,53,27,817,['c'],1,left,['3'],4,323,[0.13648123],90,53,easy,minus,dotcolour,alfa,,,105,19,V,R,
602,98,14,14,4,44,36,717,['c'],1,left,['3'],4,1059,[0.11114728],73,44,hard,minus,dotcolour,alfa,,,105,19,V,R,
603,99,15,14,4,47,33,750,['c'],1,left,['3'],4,275,[0.08757143],82,47,medium,minus,dotcolour,alfa,,,105,19,V,R,
604,100,16,14,4,27,53,733,['n'],1,right,['3'],4,253,[-0.07920443],80,53,easy,minus,dotcolour,alfa,,,105,19,V,R,
605,101,17,14,4,44,36,766,['c'],1,left,['3'],4,293,[0.00958359],54,44,hard,minus,dotcolour,alfa,,,105,19,V,R,
606,102,18,14,4,44,36,733,['c'],1,left,['3'],4,453,[0.17016763],91,44,hard,minus,dotcolour,alfa,,,105,19,V,R,
607,103,19,14,4,36,44,783,['n'],1,right,['3'],4,245,[-0.03583568],66,44,hard,minus,dotcolour,alfa,,,105,19,V,R,
608,104,20,14,4,44,36,700,['n'],0,left,['3'],4,185,[-0.08413699],85,44,hard,minus,dotcolour,alfa,,,105,19,V,R,
609,105,21,14,4,47,33,734,['c'],1,left,['3'],4,285,[0.04748397],69,47,medium,minus,dotcolour,alfa,,,105,19,V,R,
610,106,22,14,4,33,47,867,['n'],1,right,['3'],4,184,[-0.09232917],87,47,medium,minus,dotcolour,alfa,,,105,19,V,R,
611,107,23,14,4,27,53,584,['n'],1,right,['3'],4,171,[-0.13775877],95,53,easy,minus,dotcolour,alfa,,,105,19,V,R,
612,108,24,14,4,44,36,851,['c'],1,left,['3'],4,268,[0.10890943],87,44,hard,minus,dotcolour,alfa,,,105,19,V,R,
613,109,25,14,4,33,47,783,['n'],1,right,['2'],5,139,[-0.11520419],94,47,medium,minus,dotcolour,alfa,,,105,19,V,R,
614,110,26,14,4,36,44,1101,['c'],0,right,['2'],5,219,[-0.01838647],41,44,hard,minus,dotcolour,alfa,,,105,19,V,R,
615,111,27,14,4,53,27,2100,['c'],1,left,['2'],5,256,[0.11338836],88,53,easy,minus,dotcolour,alfa,,,105,19,V,R,
616,112,28,14,4,36,44,1450,['n'],1,right,['3'],4,364,[-0.05071476],68,44,hard,minus,dotcolour,alfa,,,105,19,V,R,
617,113,29,14,4,33,47,1233,['n'],1,right,['3'],4,262,[-0.11203786],88,47,medium,minus,dotcolour,alfa,,,105,19,V,R,
618,114,30,14,4,53,27,1067,['c'],1,left,['3'],4,314,[0.13431572],90,53,easy,minus,dotcolour,alfa,,,105,19,V,R,
619,115,31,14,4,47,33,967,['n'],0,left,['3'],4,184,[-0.0517609],75,47,medium,minus,dotcolour,alfa,,,105,19,V,R,
620,116,32,14,4,33,47,1050,['n'],1,right,['3'],4,224,[-0.07060666],79,47,medium,minus,dotcolour,alfa,,,105,19,V,R,
621,117,33,14,4,53,27,1500,['c'],1,left,['3'],4,348,[0.17076429],93,53,easy,minus,dotcolour,alfa,,,105,19,V,R,
622,118,34,14,4,47,33,1199,['c'],1,left,['2'],5,287,[0.06942704],76,47,medium,minus,dotcolour,alfa,,,105,19,V,R,
623,119,35,14,4,27,53,783,['n'],1,right,['2'],5,254,[-0.10738568],87,53,easy,minus,dotcolour,alfa,,,105,19,V,R,
624,120,36,14,4,33,47,733,['n'],1,right,['2'],5,312,[-0.05061961],69,47,medium,minus,dotcolour,alfa,,,105,19,V,R,
625,121,37,14,4,33,47,684,['n'],1,right,['2'],5,161,[-0.06333946],81,47,medium,minus,dotcolour,alfa,,,105,19,V,R,
626,122,38,14,4,47,33,1134,['n'],0,left,['1'],6,543,[-0.02834394],59,47,medium,minus,dotcolour,alfa,,,105,19,V,R,
627,123,39,14,4,27,53,867,['n'],1,right,['2'],5,599,[-0.1803136],89,53,easy,minus,dotcolour,alfa,,,105,19,V,R,
628,124,40,14,4,53,27,1383,['c'],1,left,['1'],6,217,[0.07351044],81,53,easy,minus,dotcolour,alfa,,,105,19,V,R,
629,125,41,14,4,44,36,1650,['c'],1,left,['1'],6,208,[0.09079433],86,44,hard,minus,dotcolour,alfa,,,105,19,V,R,
630,0,0,15,5,27,53,817,['n'],1,right,['2'],5,357,[-0.13479402],100,53,easy,plus,dotcolour,alfa,,,105,19,V,R,
631,1,1,15,5,53,27,1167,['c'],1,left,['1'],6,344,[0.05290972],96,53,easy,plus,dotcolour,alfa,,,105,19,V,R,
632,2,2,15,5,36,44,1567,['c'],0,right,['1'],6,261,[0.09318223],100,44,hard,plus,dotcolour,alfa,,,105,19,V,R,
633,3,3,15,5,33,47,816,['n'],1,right,['1'],6,203,[-0.09857945],100,47,medium,plus,dotcolour,alfa,,,105,19,V,R,
634,4,4,15,5,33,47,850,['n'],1,right,['1'],6,138,[-0.08013604],100,47,medium,plus,dotcolour,alfa,,,105,19,V,R,
635,5,5,15,5,27,53,685,['n'],1,right,['1'],6,155,[-0.09104915],100,53,easy,plus,dotcolour,alfa,,,105,19,V,R,
636,6,6,15,5,53,27,1167,['c'],1,left,['1'],6,271,[0.07115914],99,53,easy,plus,dotcolour,alfa,,,105,19,V,R,
637,7,7,15,5,44,36,1150,['n'],0,left,['1'],6,168,[0.01816236],17,44,hard,plus,dotcolour,alfa,,,105,19,V,R,
638,8,8,15,5,27,53,1533,['n'],1,right,['1'],6,214,[-0.1652416],100,53,easy,plus,dotcolour,alfa,,,105,19,V,R,
639,9,9,15,5,47,33,834,['c'],1,left,['1'],6,325,[0.1346],100,47,medium,plus,dotcolour,alfa,,,105,19,V,R,
640,10,10,15,5,33,47,699,['n'],1,right,['1'],6,181,[-0.11221392],100,47,medium,plus,dotcolour,alfa,,,105,19,V,R,
641,11,11,15,5,36,44,767,['n'],1,right,['1'],6,176,[-0.11182205],100,44,hard,plus,dotcolour,alfa,,,105,19,V,R,
642,12,12,15,5,53,27,916,['c'],1,left,['1'],6,230,[0.08729951],100,53,easy,plus,dotcolour,alfa,,,105,19,V,R,
643,13,13,15,5,36,44,767,['n'],1,right,['1'],6,167,[-0.07361211],100,44,hard,plus,dotcolour,alfa,,,105,19,V,R,
644,14,14,15,5,53,27,767,['c'],1,left,['1'],6,235,[0.0830494],100,53,easy,plus,dotcolour,alfa,,,105,19,V,R,
645,15,15,15,5,27,53,684,['n'],1,right,['1'],6,208,[-0.13678675],100,53,easy,plus,dotcolour,alfa,,,105,19,V,R,
646,16,16,15,5,44,36,884,['c'],1,left,['1'],6,245,[0.03767011],94,44,hard,plus,dotcolour,alfa,,,105,19,V,R,
647,17,17,15,5,47,33,1033,['c'],1,left,['1'],6,355,[0.15844756],100,47,medium,plus,dotcolour,alfa,,,105,19,V,R,
648,18,18,15,5,47,33,850,['n'],0,left,['1'],6,212,[-0.01038184],69,47,medium,plus,dotcolour,alfa,,,105,19,V,R,
649,19,19,15,5,36,44,950,['n'],1,right,['2'],5,591,[-0.0093608],61,44,hard,plus,dotcolour,alfa,,,105,19,V,R,
650,20,20,15,5,53,27,983,['c'],1,left,['2'],5,464,[0.04692315],92,53,easy,plus,dotcolour,alfa,,,105,19,V,R,
651,21,21,15,5,44,36,851,['c'],1,left,['2'],5,357,[0.16094898],100,44,hard,plus,dotcolour,alfa,,,105,19,V,R,
652,22,22,15,5,47,33,833,['c'],1,left,['2'],5,374,[0.09473887],100,47,medium,plus,dotcolour,alfa,,,105,19,V,R,
653,23,23,15,5,36,44,733,['c'],0,right,['2'],5,275,[0.05394087],98,44,hard,plus,dotcolour,alfa,,,105,19,V,R,
654,24,24,15,5,44,36,851,['c'],1,left,['2'],5,271,[0.08611968],100,44,hard,plus,dotcolour,alfa,,,105,19,V,R,
655,25,25,15,5,44,36,800,['c'],1,left,['2'],5,302,[0.08663346],100,44,hard,plus,dotcolour,alfa,,,105,19,V,R,
656,26,26,15,5,47,33,700,['c'],1,left,['2'],5,224,[0.10498962],100,47,medium,plus,dotcolour,alfa,,,105,19,V,R,
657,27,27,15,5,53,27,799,['c'],1,left,['2'],5,248,[0.2200119],100,53,easy,plus,dotcolour,alfa,,,105,19,V,R,
658,28,28,15,5,27,53,766,['n'],1,right,['2'],5,184,[-0.12988951],100,53,easy,plus,dotcolour,alfa,,,105,19,V,R,
659,29,29,15,5,27,53,701,['n'],1,right,['2'],5,230,[-0.12170971],100,53,easy,plus,dotcolour,alfa,,,105,19,V,R,
660,30,30,15,5,33,47,1783,['c'],0,right,['2'],5,2031,[-0.47103222],0,47,medium,plus,dotcolour,alfa,,,105,19,V,R,
661,31,31,15,5,47,33,1600,['n'],0,left,['2'],5,158,[-0.00575014],63,47,medium,plus,dotcolour,alfa,,,105,19,V,R,
662,32,32,15,5,33,47,851,['n'],1,right,['2'],5,303,[-0.16902637],100,47,medium,plus,dotcolour,alfa,,,105,19,V,R,
663,33,33,15,5,47,33,2400,['n'],0,left,['3'],4,180,[-0.08721728],100,47,medium,plus,dotcolour,alfa,,,105,19,V,R,
664,34,34,15,5,53,27,1183,['n'],0,left,['3'],4,367,[-0.03203846],87,53,easy,plus,dotcolour,alfa,,,105,19,V,R,
665,35,35,15,5,44,36,867,['n'],0,left,['3'],4,239,[-0.1077126],100,44,hard,plus,dotcolour,alfa,,,105,19,V,R,
666,36,36,15,5,36,44,833,['n'],1,right,['3'],4,213,[-0.07905773],100,44,hard,plus,dotcolour,alfa,,,105,19,V,R,
667,37,37,15,5,44,36,1784,['c'],1,left,['3'],4,350,[0.10465895],100,44,hard,plus,dotcolour,alfa,,,105,19,V,R,
668,38,38,15,5,33,47,849,['n'],1,right,['2'],5,159,[-0.09354698],100,47,medium,plus,dotcolour,alfa,,,105,19,V,R,
669,39,39,15,5,33,47,1666,['c'],0,right,['3'],4,255,[-0.00513542],41,47,medium,plus,dotcolour,alfa,,,105,19,V,R,
670,40,40,15,5,27,53,784,['n'],1,right,['3'],4,207,[-0.04829584],98,53,easy,plus,dotcolour,alfa,,,105,19,V,R,
671,41,41,15,5,36,44,2000,['c'],0,right,['2'],5,183,[0.0902734],100,44,hard,plus,dotcolour,alfa,,,105,19,V,R,
672,42,0,16,5,27,53,817,['n'],1,right,['2'],5,464,[-0.26482212],100,53,easy,plus,dotcolour,alfa,,,105,19,V,R,
673,43,1,16,5,47,33,1283,['c'],1,left,['2'],5,347,[0.09137663],100,47,medium,plus,dotcolour,alfa,,,105,19,V,R,
674,44,2,16,5,33,47,667,['n'],1,right,['3'],4,196,[-0.04588313],98,47,medium,plus,dotcolour,alfa,,,105,19,V,R,
675,45,3,16,5,33,47,1033,['n'],1,right,['3'],4,172,[-0.05465656],99,47,medium,plus,dotcolour,alfa,,,105,19,V,R,
676,46,4,16,5,47,33,617,['c'],1,left,['3'],4,294,[0.06079912],98,47,medium,plus,dotcolour,alfa,,,105,19,V,R,
677,47,5,16,5,27,53,717,['n'],1,right,['3'],4,207,[-0.14607844],100,53,easy,plus,dotcolour,alfa,,,105,19,V,R,
678,48,6,16,5,53,27,816,['c'],1,left,['3'],4,270,[0.08888286],100,53,easy,plus,dotcolour,alfa,,,105,19,V,R,
679,49,7,16,5,44,36,1050,['n'],0,left,['3'],4,155,[-0.08068149],100,44,hard,plus,dotcolour,alfa,,,105,19,V,R,
680,50,8,16,5,36,44,1367,['n'],1,right,['3'],4,136,[-0.09785141],100,44,hard,plus,dotcolour,alfa,,,105,19,V,R,
681,51,9,16,5,53,27,1317,['c'],1,left,['2'],5,247,[0.02494333],86,53,easy,plus,dotcolour,alfa,,,105,19,V,R,
682,52,10,16,5,47,33,1251,['c'],1,left,['2'],5,204,[0.06133799],99,47,medium,plus,dotcolour,alfa,,,105,19,V,R,
683,53,11,16,5,36,44,1166,['n'],1,right,['2'],5,199,[-0.11136992],100,44,hard,plus,dotcolour,alfa,,,105,19,V,R,
684,54,12,16,5,27,53,667,['n'],1,right,['2'],5,158,[-0.10080038],100,53,easy,plus,dotcolour,alfa,,,105,19,V,R,
685,55,13,16,5,33,47,1634,['n'],1,right,['2'],5,119,[-0.0465507],99,47,medium,plus,dotcolour,alfa,,,105,19,V,R,
686,56,14,16,5,44,36,1417,['c'],1,left,['2'],5,251,[0.1965201],100,44,hard,plus,dotcolour,alfa,,,105,19,V,R,
687,57,15,16,5,27,53,666,['n'],1,right,['2'],5,152,[-0.0819444],100,53,easy,plus,dotcolour,alfa,,,105,19,V,R,
688,58,16,16,5,44,36,1084,['c'],1,left,['3'],4,200,[0.09119663],100,44,hard,plus,dotcolour,alfa,,,105,19,V,R,
689,59,17,16,5,44,36,1684,['c'],1,left,['3'],4,646,[0.06817275],95,44,hard,plus,dotcolour,alfa,,,105,19,V,R,
690,60,18,16,5,36,44,1467,['c'],0,right,['3'],4,226,[0.12108902],100,44,hard,plus,dotcolour,alfa,,,105,19,V,R,
691,61,19,16,5,44,36,1050,['c'],1,left,['3'],4,241,[0.11201771],100,44,hard,plus,dotcolour,alfa,,,105,19,V,R,
692,62,20,16,5,27,53,767,['n'],1,right,['3'],4,137,[-0.07972544],100,53,easy,plus,dotcolour,alfa,,,105,19,V,R,
693,63,21,16,5,36,44,1200,['c'],0,right,['3'],4,221,[-0.06317768],1,44,hard,plus,dotcolour,alfa,,,105,19,V,R,
694,64,22,16,5,36,44,1033,['n'],1,right,['3'],4,133,[-0.07879674],100,44,hard,plus,dotcolour,alfa,,,105,19,V,R,
695,65,23,16,5,53,27,784,['c'],1,left,['3'],4,209,[0.1149019],100,53,easy,plus,dotcolour,alfa,,,105,19,V,R,
696,66,24,16,5,47,33,1000,['n'],0,left,['3'],4,147,[0.0013693],47,47,medium,plus,dotcolour,alfa,,,105,19,V,R,
697,67,25,16,5,33,47,1484,['n'],1,right,['3'],4,290,[-0.10759809],100,47,medium,plus,dotcolour,alfa,,,105,19,V,R,
698,68,26,16,5,53,27,783,['c'],1,left,['2'],5,288,[0.0316573],89,53,easy,plus,dotcolour,alfa,,,105,19,V,R,
699,69,27,16,5,53,27,1416,['c'],1,left,['1'],6,182,[0.16950865],100,53,easy,plus,dotcolour,alfa,,,105,19,V,R,
700,70,28,16,5,36,44,1067,['c'],0,right,['3'],4,325,[0.0618886],98,44,hard,plus,dotcolour,alfa,,,105,19,V,R,
701,71,29,16,5,27,53,699,['n'],1,right,['2'],5,333,[-0.08957043],100,53,easy,plus,dotcolour,alfa,,,105,19,V,R,
702,72,30,16,5,53,27,1066,['n'],0,left,['2'],5,174,[-0.01108715],72,53,easy,plus,dotcolour,alfa,,,105,19,V,R,
703,73,31,16,5,27,53,1201,['n'],1,right,['2'],5,112,[-0.17535954],100,53,easy,plus,dotcolour,alfa,,,105,19,V,R,
704,74,32,16,5,47,33,934,['n'],0,left,['2'],5,104,[-0.03246438],97,47,medium,plus,dotcolour,alfa,,,105,19,V,R,
705,75,33,16,5,33,47,1150,['n'],1,right,['2'],5,767,[-0.11327275],99,47,medium,plus,dotcolour,alfa,,,105,19,V,R,
706,76,34,16,5,33,47,984,['n'],1,right,['2'],5,146,[-0.01070979],73,47,medium,plus,dotcolour,alfa,,,105,19,V,R,
707,77,35,16,5,44,36,1284,['c'],1,left,['2'],5,219,[0.11583788],100,44,hard,plus,dotcolour,alfa,,,105,19,V,R,
708,78,36,16,5,47,33,1167,['c'],1,left,['2'],5,236,[0.05237902],98,47,medium,plus,dotcolour,alfa,,,105,19,V,R,
709,79,37,16,5,36,44,1033,['c'],0,right,['2'],5,219,[-0.00568857],39,44,hard,plus,dotcolour,alfa,,,105,19,V,R,
710,80,38,16,5,53,27,1000,['n'],0,left,['0'],1,1844,[0.14258517],2,53,easy,plus,dotcolour,alfa,,,105,19,V,R,
711,81,39,16,5,33,47,1350,['c'],0,right,['2'],5,436,[0.0212751],76,47,medium,plus,dotcolour,alfa,,,105,19,V,R,
712,82,40,16,5,47,33,1134,['c'],1,left,['2'],5,303,[0.02333589],82,47,medium,plus,dotcolour,alfa,,,105,19,V,R,
713,83,41,16,5,44,36,1401,['n'],0,left,['2'],5,172,[-0.05846431],99,44,hard,plus,dotcolour,alfa,,,105,19,V,R,
714,84,0,17,5,33,47,1050,['n'],1,right,['2'],5,1132,[-0.22870417],100,47,medium,plus,dotcolour,alfa,,,105,19,V,R,
715,85,1,17,5,53,27,1817,['c'],1,left,['3'],4,288,[0.12796798],100,53,easy,plus,dotcolour,alfa,,,105,19,V,R,
716,86,2,17,5,47,33,1101,['c'],1,left,['3'],4,321,[0.22353422],100,47,medium,plus,dotcolour,alfa,,,105,19,V,R,
717,87,3,17,5,53,27,884,['c'],1,left,['3'],4,274,[0.06040614],98,53,easy,plus,dotcolour,alfa,,,105,19,V,R,
718,88,4,17,5,44,36,1033,['c'],1,left,['3'],4,279,[0.14199981],100,44,hard,plus,dotcolour,alfa,,,105,19,V,R,
719,89,5,17,5,44,36,1200,['c'],1,left,['3'],4,340,[0.05974187],98,44,hard,plus,dotcolour,alfa,,,105,19,V,R,
720,90,6,17,5,44,36,850,['c'],1,left,['3'],4,486,[0.05488762],94,44,hard,plus,dotcolour,alfa,,,105,19,V,R,
721,91,7,17,5,27,53,801,['c'],0,right,['0'],1,1460,[-0.19281543],0,53,easy,plus,dotcolour,alfa,,,105,19,V,R,
722,92,8,17,5,27,53,2251,['n'],1,right,['3'],4,185,[-0.09398175],100,53,easy,plus,dotcolour,alfa,,,105,19,V,R,
723,93,9,17,5,33,47,1067,['n'],1,right,['3'],4,160,[-0.13411524],100,47,medium,plus,dotcolour,alfa,,,105,19,V,R,
724,94,10,17,5,33,47,1167,['n'],1,right,['3'],4,228,[-0.17637323],100,47,medium,plus,dotcolour,alfa,,,105,19,V,R,
725,95,11,17,5,44,36,1117,['c'],1,left,['3'],4,279,[0.15868124],100,44,hard,plus,dotcolour,alfa,,,105,19,V,R,
726,96,12,17,5,53,27,733,['c'],1,left,['3'],4,224,[0.00721891],63,53,easy,plus,dotcolour,alfa,,,105,19,V,R,
727,97,13,17,5,27,53,684,['n'],1,right,['3'],4,245,[-0.02323616],84,53,easy,plus,dotcolour,alfa,,,105,19,V,R,
728,98,14,17,5,27,53,900,['n'],1,right,['2'],5,216,[-0.16173332],100,53,easy,plus,dotcolour,alfa,,,105,19,V,R,
729,99,15,17,5,47,33,900,['c'],1,left,['2'],5,301,[0.07532788],99,47,medium,plus,dotcolour,alfa,,,105,19,V,R,
730,100,16,17,5,53,27,1233,['c'],1,left,['3'],4,385,[0.09814897],100,53,easy,plus,dotcolour,alfa,,,105,19,V,R,
731,101,17,17,5,53,27,900,['c'],1,left,['2'],5,327,[0.13603341],100,53,easy,plus,dotcolour,alfa,,,105,19,V,R,
732,102,18,17,5,47,33,1649,['c'],1,left,['2'],5,265,[0.11444559],100,47,medium,plus,dotcolour,alfa,,,105,19,V,R,
733,103,19,17,5,53,27,1367,['c'],1,left,['2'],5,313,[0.12841133],100,53,easy,plus,dotcolour,alfa,,,105,19,V,R,
734,104,20,17,5,27,53,867,['n'],1,right,['3'],4,179,[-0.14191789],100,53,easy,plus,dotcolour,alfa,,,105,19,V,R,
735,105,21,17,5,47,33,1250,['c'],1,left,['2'],5,251,[0.14751468],100,47,medium,plus,dotcolour,alfa,,,105,19,V,R,
736,106,22,17,5,33,47,1784,['c'],0,right,['2'],5,315,[0.00886995],64,47,medium,plus,dotcolour,alfa,,,105,19,V,R,
737,107,23,17,5,47,33,1350,['c'],1,left,['2'],5,306,[0.18938347],100,47,medium,plus,dotcolour,alfa,,,105,19,V,R,
738,108,24,17,5,47,33,767,['c'],1,left,['2'],5,272,[0.07063508],99,47,medium,plus,dotcolour,alfa,,,105,19,V,R,
739,109,25,17,5,36,44,1499,['c'],0,right,['2'],5,251,[0.00528771],59,44,hard,plus,dotcolour,alfa,,,105,19,V,R,
740,110,26,17,5,36,44,1184,['n'],1,right,['2'],5,155,[-0.19093278],100,44,hard,plus,dotcolour,alfa,,,105,19,V,R,
741,111,27,17,5,27,53,767,['n'],1,right,['1'],6,567,[-0.09757062],99,53,easy,plus,dotcolour,alfa,,,105,19,V,R,
742,112,28,17,5,33,47,1516,['c'],0,right,['3'],4,429,[-0.00079166],49,47,medium,plus,dotcolour,alfa,,,105,19,V,R,
743,113,29,17,5,36,44,1834,['c'],0,right,['2'],5,276,[0.03797435],93,44,hard,plus,dotcolour,alfa,,,105,19,V,R,
744,114,30,17,5,36,44,1550,['c'],0,right,['2'],5,260,[-0.00282089],45,44,hard,plus,dotcolour,alfa,,,105,19,V,R,
745,115,31,17,5,33,47,2199,['n'],1,right,['2'],5,194,[-0.15478966],100,47,medium,plus,dotcolour,alfa,,,105,19,V,R,
746,116,32,17,5,44,36,950,['c'],1,left,['2'],5,246,[0.09017504],100,44,hard,plus,dotcolour,alfa,,,105,19,V,R,
747,117,33,17,5,33,47,1634,['c'],0,right,['2'],5,228,[0.02785697],89,47,medium,plus,dotcolour,alfa,,,105,19,V,R,
748,118,34,17,5,44,36,1233,['c'],1,left,['2'],5,202,[0.03169725],93,44,hard,plus,dotcolour,alfa,,,105,19,V,R,
749,119,35,17,5,53,27,933,['c'],1,left,['2'],5,239,[0.13441941],100,53,easy,plus,dotcolour,alfa,,,105,19,V,R,
750,120,36,17,5,36,44,800,['n'],1,right,['3'],4,335,[-0.12376352],100,44,hard,plus,dotcolour,alfa,,,105,19,V,R,
751,121,37,17,5,36,44,950,['c'],0,right,['3'],4,1300,[-0.08122563],7,44,hard,plus,dotcolour,alfa,,,105,19,V,R,
752,122,38,17,5,36,44,1033,['n'],1,right,['3'],4,200,[-0.08859952],100,44,hard,plus,dotcolour,alfa,,,105,19,V,R,
753,123,39,17,5,27,53,900,['n'],1,right,['3'],4,174,[-0.117983],100,53,easy,plus,dotcolour,alfa,,,105,19,V,R,
754,124,40,17,5,47,33,750,['c'],1,left,['2'],5,377,[0.12859063],100,47,medium,plus,dotcolour,alfa,,,105,19,V,R,
755,125,41,17,5,44,36,1051,['c'],1,left,['2'],5,194,[0.10160573],100,44,hard,plus,dotcolour,alfa,,,105,19,V,R,
,,,,,,,,,,,,,,,,,,,,,1,nee,105,19,V,R,
,,,,,,,,,,,,,,,,,,,,,2,['g'],105,19,V,R,
,,,,,,,,,,,,,,,,,,,,,3,['f'],105,19,V,R,
,,,,,,,,,,,,,,,,,,,,,5,"['1', '2', '3', '4', '5', '6']",105,19,V,R,
