trial,withinphasetrial,withinblocktrial,block,phase,dotsLeft,dotsRight,rt,resp,cor,cresp,conf_press,cj,RTconf,ev,fb,diff,difflevel,condition,task,manip,questionID,questionResp,sub,age,gender,handedness,
0,0,0,0,0,33,47,1566,['n'],1,right,['2'],2,1678,[-0.10422941],90,47,medium,plus,dotcolour,beta,,,10,18,V,R,
1,1,1,0,0,53,27,1767,['c'],1,left,['8'],4,2261,[0.4402811],100,53,easy,plus,dotcolour,beta,,,10,18,V,R,
2,2,2,0,0,36,44,1333,['n'],1,right,['8'],4,1790,[-0.38676989],100,44,hard,plus,dotcolour,beta,,,10,18,V,R,
3,3,3,0,0,27,53,2900,['c'],0,right,['2'],2,764,[0.06248276],92,53,easy,plus,dotcolour,beta,,,10,18,V,R,
4,4,4,0,0,44,36,1766,['n'],0,left,['8'],4,768,[0.03495619],60,44,hard,plus,dotcolour,beta,,,10,18,V,R,
5,5,5,0,0,27,53,1049,['n'],1,right,['8'],4,520,[-0.12393235],99,53,easy,plus,dotcolour,beta,,,10,18,V,R,
6,6,6,0,0,27,53,950,['n'],1,right,['0'],6,703,[-0.166394],99,53,easy,plus,dotcolour,beta,,,10,18,V,R,
7,7,7,0,0,33,47,950,['n'],1,right,['9'],5,542,[-0.01500551],85,47,medium,plus,dotcolour,beta,,,10,18,V,R,
8,8,8,0,0,33,47,1517,['n'],1,right,['8'],4,2381,[-0.21733454],96,47,medium,plus,dotcolour,beta,,,10,18,V,R,
9,9,9,0,0,33,47,1333,['n'],1,right,['8'],4,482,[0.0357219],63,47,medium,plus,dotcolour,beta,,,10,18,V,R,
10,10,10,0,0,47,33,1117,['c'],1,left,['9'],5,1067,[0.07365318],90,47,medium,plus,dotcolour,beta,,,10,18,V,R,
11,11,11,0,0,44,36,2700,['c'],1,left,['3'],3,1271,[0.11523848],94,44,hard,plus,dotcolour,beta,,,10,18,V,R,
12,12,12,0,0,27,53,2484,['n'],1,right,['9'],5,793,[-0.1918035],99,53,easy,plus,dotcolour,beta,,,10,18,V,R,
13,13,13,0,0,53,27,1549,['c'],1,left,['8'],4,1069,[0.11928462],95,53,easy,plus,dotcolour,beta,,,10,18,V,R,
14,14,14,0,0,33,47,1100,['n'],1,right,['8'],4,487,[-0.23176283],100,47,medium,plus,dotcolour,beta,,,10,18,V,R,
15,15,15,0,0,44,36,934,['c'],1,left,['8'],4,384,[0.11413958],99,44,hard,plus,dotcolour,beta,,,10,18,V,R,
16,16,16,0,0,53,27,717,['c'],1,left,['0'],6,702,[0.15142866],99,53,easy,plus,dotcolour,beta,,,10,18,V,R,
17,17,17,0,0,53,27,900,['c'],1,left,['0'],6,639,[0.25561727],100,53,easy,plus,dotcolour,beta,,,10,18,V,R,
18,18,18,0,0,47,33,799,['n'],0,left,['8'],4,567,[0.07945134],36,47,medium,plus,dotcolour,beta,,,10,18,V,R,
19,19,19,0,0,36,44,1433,['n'],1,right,['9'],5,601,[-0.07762075],96,44,hard,plus,dotcolour,beta,,,10,18,V,R,
20,20,20,0,0,47,33,1383,['c'],1,left,['8'],4,683,[0.09415269],96,47,medium,plus,dotcolour,beta,,,10,18,V,R,
21,21,21,0,0,36,44,683,['n'],1,right,['8'],4,702,[-0.13373515],98,44,hard,plus,dotcolour,beta,,,10,18,V,R,
22,22,22,0,0,33,47,899,['n'],1,right,['8'],4,359,[-0.19985853],100,47,medium,plus,dotcolour,beta,,,10,18,V,R,
23,23,23,0,0,27,53,683,['n'],1,right,['8'],4,319,[0.03451933],66,53,easy,plus,dotcolour,beta,,,10,18,V,R,
24,24,24,0,0,36,44,800,['c'],0,right,['9'],5,508,[0.20569699],100,44,hard,plus,dotcolour,beta,,,10,18,V,R,
25,25,25,0,0,44,36,1016,['c'],1,left,['9'],5,384,[0.12833369],100,44,hard,plus,dotcolour,beta,,,10,18,V,R,
26,26,26,0,0,36,44,999,['n'],1,right,['9'],5,603,[-0.07666154],96,44,hard,plus,dotcolour,beta,,,10,18,V,R,
27,27,27,0,0,44,36,883,['c'],1,left,['9'],5,536,[0.14179313],99,44,hard,plus,dotcolour,beta,,,10,18,V,R,
28,28,28,0,0,47,33,1066,['n'],0,left,['8'],4,434,[-0.05738522],96,47,medium,plus,dotcolour,beta,,,10,18,V,R,
29,29,29,0,0,47,33,817,['c'],1,left,['8'],4,298,[0.09803491],99,47,medium,plus,dotcolour,beta,,,10,18,V,R,
30,30,30,0,0,36,44,916,['n'],1,right,['8'],4,267,[-0.08678102],99,44,hard,plus,dotcolour,beta,,,10,18,V,R,
31,31,31,0,0,53,27,650,['c'],1,left,['9'],5,600,[0.14038308],99,53,easy,plus,dotcolour,beta,,,10,18,V,R,
32,32,32,0,0,27,53,1249,['n'],1,right,['8'],4,248,[-0.0923595],100,53,easy,plus,dotcolour,beta,,,10,18,V,R,
33,33,33,0,0,53,27,617,['c'],1,left,['0'],6,583,[0.1196029],98,53,easy,plus,dotcolour,beta,,,10,18,V,R,
34,34,34,0,0,33,47,901,['n'],1,right,['9'],5,356,[-0.02572501],92,47,medium,plus,dotcolour,beta,,,10,18,V,R,
35,35,35,0,0,53,27,917,['c'],1,left,['9'],5,459,[0.1952129],100,53,easy,plus,dotcolour,beta,,,10,18,V,R,
36,36,36,0,0,47,33,716,['c'],1,left,['9'],5,253,[0.13144048],100,47,medium,plus,dotcolour,beta,,,10,18,V,R,
37,37,37,0,0,44,36,716,['c'],1,left,['0'],6,392,[0.05691886],96,44,hard,plus,dotcolour,beta,,,10,18,V,R,
38,38,38,0,0,27,53,1233,['c'],0,right,['0'],6,280,[-0.06448852],42,53,easy,plus,dotcolour,beta,,,10,18,V,R,
39,39,39,0,0,47,33,1216,['c'],1,left,['0'],6,326,[0.12407838],100,47,medium,plus,dotcolour,beta,,,10,18,V,R,
40,40,40,0,0,44,36,850,['c'],1,left,['8'],4,304,[0.12305199],100,44,hard,plus,dotcolour,beta,,,10,18,V,R,
41,41,41,0,0,36,44,866,['c'],0,right,['8'],4,250,[0.11528388],100,44,hard,plus,dotcolour,beta,,,10,18,V,R,
42,42,0,1,0,27,53,983,['n'],1,right,['8'],4,378,[-0.21719428],100,53,easy,plus,dotcolour,beta,,,10,18,V,R,
43,43,1,1,0,47,33,817,['c'],1,left,['8'],4,1396,[0.27467436],99,47,medium,plus,dotcolour,beta,,,10,18,V,R,
44,44,2,1,0,36,44,1649,['c'],0,right,['8'],4,603,[0.00946908],82,44,hard,plus,dotcolour,beta,,,10,18,V,R,
45,45,3,1,0,36,44,1267,['n'],1,right,['8'],4,306,[-0.09730179],99,44,hard,plus,dotcolour,beta,,,10,18,V,R,
46,46,4,1,0,27,53,1417,['n'],1,right,['0'],6,415,[-0.11015444],99,53,easy,plus,dotcolour,beta,,,10,18,V,R,
47,47,5,1,0,33,47,1399,['n'],1,right,['8'],4,264,[-0.07975538],99,47,medium,plus,dotcolour,beta,,,10,18,V,R,
48,48,6,1,0,44,36,866,['c'],1,left,['8'],4,220,[0.09673884],100,44,hard,plus,dotcolour,beta,,,10,18,V,R,
49,49,7,1,0,47,33,966,['c'],1,left,['8'],4,278,[0.14483756],100,47,medium,plus,dotcolour,beta,,,10,18,V,R,
50,50,8,1,0,27,53,699,['n'],1,right,['9'],5,785,[-0.06701815],92,53,easy,plus,dotcolour,beta,,,10,18,V,R,
51,51,9,1,0,47,33,866,['c'],1,left,['8'],4,281,[0.05174779],97,47,medium,plus,dotcolour,beta,,,10,18,V,R,
52,52,10,1,0,36,44,1133,['c'],0,right,['8'],4,546,[0.03478928],90,44,hard,plus,dotcolour,beta,,,10,18,V,R,
53,53,11,1,0,33,47,1017,['n'],1,right,['8'],4,997,[-0.3181985],100,47,medium,plus,dotcolour,beta,,,10,18,V,R,
54,54,12,1,0,33,47,1032,['n'],1,right,['9'],5,837,[0.01286233],70,47,medium,plus,dotcolour,beta,,,10,18,V,R,
55,55,13,1,0,44,36,1366,['c'],1,left,['8'],4,534,[0.01745405],86,44,hard,plus,dotcolour,beta,,,10,18,V,R,
56,56,14,1,0,53,27,800,['c'],1,left,['0'],6,379,[0.21618865],100,53,easy,plus,dotcolour,beta,,,10,18,V,R,
57,57,15,1,0,47,33,983,['n'],0,left,['9'],5,286,[-0.04262543],96,47,medium,plus,dotcolour,beta,,,10,18,V,R,
58,58,16,1,0,44,36,1033,['c'],1,left,['8'],4,611,[0.20651981],100,44,hard,plus,dotcolour,beta,,,10,18,V,R,
59,59,17,1,0,53,27,833,['c'],1,left,['9'],5,259,[0.09749011],100,53,easy,plus,dotcolour,beta,,,10,18,V,R,
60,60,18,1,0,33,47,733,['n'],1,right,['9'],5,404,[-0.06326844],97,47,medium,plus,dotcolour,beta,,,10,18,V,R,
61,61,19,1,0,33,47,1166,['n'],1,right,['8'],4,271,[0.02459115],74,47,medium,plus,dotcolour,beta,,,10,18,V,R,
62,62,20,1,0,53,27,916,['c'],1,left,['9'],5,281,[0.06661497],98,53,easy,plus,dotcolour,beta,,,10,18,V,R,
63,63,21,1,0,36,44,1100,['n'],1,right,['8'],4,235,[-0.0964999],100,44,hard,plus,dotcolour,beta,,,10,18,V,R,
64,64,22,1,0,44,36,1317,['c'],1,left,['8'],4,311,[0.05410076],97,44,hard,plus,dotcolour,beta,,,10,18,V,R,
65,65,23,1,0,33,47,2500,['c'],0,right,['3'],3,736,[0.07040885],93,47,medium,plus,dotcolour,beta,,,10,18,V,R,
66,66,24,1,0,36,44,1232,['n'],1,right,['8'],4,483,[0.01779819],73,44,hard,plus,dotcolour,beta,,,10,18,V,R,
67,67,25,1,0,36,44,1167,['c'],0,right,['8'],4,322,[0.00622809],88,44,hard,plus,dotcolour,beta,,,10,18,V,R,
68,68,26,1,0,47,33,933,['c'],1,left,['8'],4,297,[0.12456973],100,47,medium,plus,dotcolour,beta,,,10,18,V,R,
69,69,27,1,0,44,36,1216,['n'],0,left,['8'],4,399,[0.01083327],78,44,hard,plus,dotcolour,beta,,,10,18,V,R,
70,70,28,1,0,53,27,1550,['c'],1,left,['8'],4,522,[0.09689869],98,53,easy,plus,dotcolour,beta,,,10,18,V,R,
71,71,29,1,0,27,53,901,['n'],1,right,['9'],5,363,[-0.15005875],100,53,easy,plus,dotcolour,beta,,,10,18,V,R,
72,72,30,1,0,36,44,1132,['n'],1,right,['8'],4,264,[-0.06288783],98,44,hard,plus,dotcolour,beta,,,10,18,V,R,
73,73,31,1,0,53,27,1133,['c'],1,left,['0'],6,338,[0.13337864],100,53,easy,plus,dotcolour,beta,,,10,18,V,R,
74,74,32,1,0,53,27,883,['c'],1,left,['0'],6,330,[0.11753059],100,53,easy,plus,dotcolour,beta,,,10,18,V,R,
75,75,33,1,0,44,36,934,['c'],1,left,['0'],6,241,[-0.02480653],76,44,hard,plus,dotcolour,beta,,,10,18,V,R,
76,76,34,1,0,27,53,833,['n'],1,right,['9'],5,336,[-0.12329951],100,53,easy,plus,dotcolour,beta,,,10,18,V,R,
77,77,35,1,0,44,36,700,['c'],1,left,['0'],6,311,[0.10318788],99,44,hard,plus,dotcolour,beta,,,10,18,V,R,
78,78,36,1,0,33,47,900,['n'],1,right,['9'],5,256,[-0.16359264],100,47,medium,plus,dotcolour,beta,,,10,18,V,R,
79,79,37,1,0,27,53,916,['n'],1,right,['9'],5,259,[-0.15966484],100,53,easy,plus,dotcolour,beta,,,10,18,V,R,
80,80,38,1,0,47,33,867,['c'],1,left,['9'],5,279,[0.14351418],100,47,medium,plus,dotcolour,beta,,,10,18,V,R,
81,81,39,1,0,47,33,1150,['c'],1,left,['8'],4,391,[0.16993556],100,47,medium,plus,dotcolour,beta,,,10,18,V,R,
82,82,40,1,0,53,27,666,['c'],1,left,['0'],6,334,[0.02877781],93,53,easy,plus,dotcolour,beta,,,10,18,V,R,
83,83,41,1,0,27,53,967,['n'],1,right,['9'],5,324,[-0.11562088],100,53,easy,plus,dotcolour,beta,,,10,18,V,R,
84,84,0,2,0,53,27,1799,['c'],1,left,['9'],5,757,[0.25417936],100,53,easy,plus,dotcolour,beta,,,10,18,V,R,
85,85,1,2,0,36,44,1384,['c'],0,right,['8'],4,288,[-0.01089807],82,44,hard,plus,dotcolour,beta,,,10,18,V,R,
86,86,2,2,0,44,36,967,['n'],0,left,['9'],5,1120,[0.06130292],48,44,hard,plus,dotcolour,beta,,,10,18,V,R,
87,87,3,2,0,44,36,1916,['c'],1,left,['8'],4,296,[0.01607843],91,44,hard,plus,dotcolour,beta,,,10,18,V,R,
88,88,4,2,0,27,53,1201,['n'],1,right,['0'],6,502,[-0.16316709],100,53,easy,plus,dotcolour,beta,,,10,18,V,R,
89,89,5,2,0,27,53,867,['n'],1,right,['9'],5,329,[-0.06165293],98,53,easy,plus,dotcolour,beta,,,10,18,V,R,
90,90,6,2,0,44,36,1167,['n'],0,left,['8'],4,278,[-0.1142431],100,44,hard,plus,dotcolour,beta,,,10,18,V,R,
91,91,7,2,0,47,33,883,['c'],1,left,['9'],5,353,[0.1159058],99,47,medium,plus,dotcolour,beta,,,10,18,V,R,
92,92,8,2,0,44,36,1299,['c'],1,left,['8'],4,432,[0.00495812],84,44,hard,plus,dotcolour,beta,,,10,18,V,R,
93,93,9,2,0,27,53,1583,['n'],1,right,['9'],5,274,[-0.07989421],99,53,easy,plus,dotcolour,beta,,,10,18,V,R,
94,94,10,2,0,36,44,683,['n'],1,right,['8'],4,509,[-0.06287849],95,44,hard,plus,dotcolour,beta,,,10,18,V,R,
95,95,11,2,0,27,53,700,['n'],1,right,['8'],4,294,[-0.07921699],99,53,easy,plus,dotcolour,beta,,,10,18,V,R,
96,96,12,2,0,33,47,566,['n'],1,right,['8'],4,236,[-0.12643115],100,47,medium,plus,dotcolour,beta,,,10,18,V,R,
97,97,13,2,0,36,44,717,['n'],1,right,['8'],4,344,[-0.20463962],100,44,hard,plus,dotcolour,beta,,,10,18,V,R,
98,98,14,2,0,27,53,750,['n'],1,right,['9'],5,238,[-0.16236521],100,53,easy,plus,dotcolour,beta,,,10,18,V,R,
99,99,15,2,0,53,27,733,['c'],1,left,['9'],5,273,[0.15796249],100,53,easy,plus,dotcolour,beta,,,10,18,V,R,
100,100,16,2,0,44,36,633,['n'],0,left,['8'],4,470,[-0.10733544],99,44,hard,plus,dotcolour,beta,,,10,18,V,R,
101,101,17,2,0,33,47,851,['n'],1,right,['8'],4,346,[-0.04622428],96,47,medium,plus,dotcolour,beta,,,10,18,V,R,
102,102,18,2,0,44,36,900,['c'],1,left,['8'],4,306,[0.14406816],100,44,hard,plus,dotcolour,beta,,,10,18,V,R,
103,103,19,2,0,44,36,716,['n'],0,left,['8'],4,211,[-0.08348367],100,44,hard,plus,dotcolour,beta,,,10,18,V,R,
104,104,20,2,0,53,27,800,['c'],1,left,['9'],5,324,[0.07138245],98,53,easy,plus,dotcolour,beta,,,10,18,V,R,
105,105,21,2,0,53,27,651,['c'],1,left,['9'],5,310,[0.09066801],99,53,easy,plus,dotcolour,beta,,,10,18,V,R,
106,106,22,2,0,33,47,932,['n'],1,right,['9'],5,230,[-0.10860888],100,47,medium,plus,dotcolour,beta,,,10,18,V,R,
107,107,23,2,0,36,44,800,['c'],0,right,['8'],4,262,[0.06011922],98,44,hard,plus,dotcolour,beta,,,10,18,V,R,
108,108,24,2,0,33,47,883,['n'],1,right,['8'],4,306,[-0.10982795],100,47,medium,plus,dotcolour,beta,,,10,18,V,R,
109,109,25,2,0,36,44,800,['c'],0,right,['8'],4,279,[0.08413724],99,44,hard,plus,dotcolour,beta,,,10,18,V,R,
110,110,26,2,0,27,53,700,['n'],1,right,['8'],4,209,[-0.06154756],99,53,easy,plus,dotcolour,beta,,,10,18,V,R,
111,111,27,2,0,36,44,1633,['c'],0,right,['3'],3,761,[0.17106213],99,44,hard,plus,dotcolour,beta,,,10,18,V,R,
112,112,28,2,0,53,27,800,['c'],1,left,['0'],6,276,[-0.00619671],84,53,easy,plus,dotcolour,beta,,,10,18,V,R,
113,113,29,2,0,47,33,866,['c'],1,left,['9'],5,312,[0.07900509],99,47,medium,plus,dotcolour,beta,,,10,18,V,R,
114,114,30,2,0,33,47,700,['c'],0,right,['9'],5,241,[0.10585109],100,47,medium,plus,dotcolour,beta,,,10,18,V,R,
115,115,31,2,0,27,53,783,['n'],1,right,['8'],4,257,[-0.21125055],100,53,easy,plus,dotcolour,beta,,,10,18,V,R,
116,116,32,2,0,47,33,650,['c'],1,left,['8'],4,422,[0.06912983],97,47,medium,plus,dotcolour,beta,,,10,18,V,R,
117,117,33,2,0,47,33,733,['c'],1,left,['9'],5,369,[0.13180075],100,47,medium,plus,dotcolour,beta,,,10,18,V,R,
118,118,34,2,0,53,27,566,['c'],1,left,['0'],6,269,[0.12390522],100,53,easy,plus,dotcolour,beta,,,10,18,V,R,
119,119,35,2,0,33,47,982,['n'],1,right,['8'],4,397,[-0.12866202],99,47,medium,plus,dotcolour,beta,,,10,18,V,R,
120,120,36,2,0,36,44,667,['c'],0,right,['8'],4,1068,[-0.03436446],59,44,hard,plus,dotcolour,beta,,,10,18,V,R,
121,121,37,2,0,47,33,3067,['n'],0,left,['8'],4,272,[-0.01042524],91,47,medium,plus,dotcolour,beta,,,10,18,V,R,
122,122,38,2,0,47,33,966,['c'],1,left,['8'],4,600,[0.04491989],91,47,medium,plus,dotcolour,beta,,,10,18,V,R,
123,123,39,2,0,53,27,949,['c'],1,left,['9'],5,299,[0.07154957],98,53,easy,plus,dotcolour,beta,,,10,18,V,R,
124,124,40,2,0,47,33,733,['c'],1,left,['0'],6,316,[0.05796666],97,47,medium,plus,dotcolour,beta,,,10,18,V,R,
125,125,41,2,0,33,47,1033,['c'],0,right,['8'],4,263,[0.06324653],98,47,medium,plus,dotcolour,beta,,,10,18,V,R,
126,0,0,3,1,44,36,1083,['c'],1,left,['9'],5,625,[0.17467202],94,44,hard,minus,dotcolour,beta,,,10,18,V,R,
127,1,1,3,1,47,33,717,['n'],0,left,['1'],1,2196,[0.11018312],12,47,medium,minus,dotcolour,beta,,,10,18,V,R,
128,2,2,3,1,44,36,1050,['c'],1,left,['9'],5,444,[0.23921353],99,44,hard,minus,dotcolour,beta,,,10,18,V,R,
129,3,3,3,1,44,36,1349,['c'],1,left,['0'],6,541,[0.01762396],28,44,hard,minus,dotcolour,beta,,,10,18,V,R,
130,4,4,3,1,47,33,1233,['c'],1,left,['9'],5,256,[0.13043088],93,47,medium,minus,dotcolour,beta,,,10,18,V,R,
131,5,5,3,1,53,27,683,['c'],1,left,['9'],5,252,[0.13714828],95,53,easy,minus,dotcolour,beta,,,10,18,V,R,
132,6,6,3,1,53,27,683,['c'],1,left,['9'],5,280,[0.09441267],79,53,easy,minus,dotcolour,beta,,,10,18,V,R,
133,7,7,3,1,27,53,1149,['n'],1,right,['9'],5,265,[-0.04937629],45,53,easy,minus,dotcolour,beta,,,10,18,V,R,
134,8,8,3,1,33,47,1067,['n'],1,right,['8'],4,285,[-0.09582567],80,47,medium,minus,dotcolour,beta,,,10,18,V,R,
135,9,9,3,1,53,27,950,['c'],1,left,['0'],6,236,[0.11465838],90,53,easy,minus,dotcolour,beta,,,10,18,V,R,
136,10,10,3,1,47,33,700,['c'],1,left,['0'],6,417,[0.17159675],96,47,medium,minus,dotcolour,beta,,,10,18,V,R,
137,11,11,3,1,36,44,1166,['n'],1,right,['8'],4,292,[-0.13298593],93,44,hard,minus,dotcolour,beta,,,10,18,V,R,
138,12,12,3,1,36,44,1017,['n'],1,right,['8'],4,232,[-0.10782479],88,44,hard,minus,dotcolour,beta,,,10,18,V,R,
139,13,13,3,1,44,36,850,['c'],1,left,['9'],5,183,[0.04994433],44,44,hard,minus,dotcolour,beta,,,10,18,V,R,
140,14,14,3,1,27,53,1033,['n'],1,right,['8'],4,216,[-0.15904977],98,53,easy,minus,dotcolour,beta,,,10,18,V,R,
141,15,15,3,1,44,36,1700,['c'],1,left,['8'],4,341,[0.01112362],20,44,hard,minus,dotcolour,beta,,,10,18,V,R,
142,16,16,3,1,47,33,3500,['c'],1,left,['8'],4,349,[0.1096844],84,47,medium,minus,dotcolour,beta,,,10,18,V,R,
143,17,17,3,1,53,27,733,['c'],1,left,['9'],5,315,[0.08044869],69,53,easy,minus,dotcolour,beta,,,10,18,V,R,
144,18,18,3,1,47,33,649,['c'],1,left,['9'],5,254,[-0.00759518],9,47,medium,minus,dotcolour,beta,,,10,18,V,R,
145,19,19,3,1,33,47,633,['c'],0,right,['8'],4,236,[0.08522195],75,47,medium,minus,dotcolour,beta,,,10,18,V,R,
146,20,20,3,1,44,36,649,['c'],1,left,['8'],4,242,[0.14625637],97,44,hard,minus,dotcolour,beta,,,10,18,V,R,
147,21,21,3,1,27,53,1066,['n'],1,right,['8'],4,263,[-0.02824054],28,53,easy,minus,dotcolour,beta,,,10,18,V,R,
148,22,22,3,1,53,27,833,['c'],1,left,['9'],5,709,[0.23874199],98,53,easy,minus,dotcolour,beta,,,10,18,V,R,
149,23,23,3,1,27,53,833,['n'],1,right,['9'],5,753,[-0.20395618],96,53,easy,minus,dotcolour,beta,,,10,18,V,R,
150,24,24,3,1,33,47,750,['n'],1,right,['9'],5,254,[-0.00944048],16,47,medium,minus,dotcolour,beta,,,10,18,V,R,
151,25,25,3,1,33,47,1800,['c'],0,right,['8'],4,453,[0.12416553],86,47,medium,minus,dotcolour,beta,,,10,18,V,R,
152,26,26,3,1,27,53,750,['n'],1,right,['8'],4,279,[-0.079091],69,53,easy,minus,dotcolour,beta,,,10,18,V,R,
153,27,27,3,1,53,27,817,['c'],1,left,['9'],5,285,[0.10318223],83,53,easy,minus,dotcolour,beta,,,10,18,V,R,
154,28,28,3,1,36,44,1083,['n'],1,right,['8'],4,248,[-0.12910534],93,44,hard,minus,dotcolour,beta,,,10,18,V,R,
155,29,29,3,1,33,47,1366,['n'],1,right,['8'],4,289,[-0.03861063],36,47,medium,minus,dotcolour,beta,,,10,18,V,R,
156,30,30,3,1,36,44,1133,['n'],1,right,['8'],4,273,[-0.02858144],28,44,hard,minus,dotcolour,beta,,,10,18,V,R,
157,31,31,3,1,27,53,816,['n'],1,right,['8'],4,287,[-0.11142508],87,53,easy,minus,dotcolour,beta,,,10,18,V,R,
158,32,32,3,1,27,53,734,['n'],1,right,['8'],4,240,[-0.02452321],24,53,easy,minus,dotcolour,beta,,,10,18,V,R,
159,33,33,3,1,44,36,949,['c'],1,left,['8'],4,242,[0.06672545],60,44,hard,minus,dotcolour,beta,,,10,18,V,R,
160,34,34,3,1,33,47,1618,['c'],0,right,['8'],4,225,[0.03952486],35,47,medium,minus,dotcolour,beta,,,10,18,V,R,
161,35,35,3,1,36,44,649,['c'],0,right,['8'],4,191,[0.06721466],62,44,hard,minus,dotcolour,beta,,,10,18,V,R,
162,36,36,3,1,33,47,701,['c'],0,right,['8'],4,197,[0.1018795],87,47,medium,minus,dotcolour,beta,,,10,18,V,R,
163,37,37,3,1,47,33,834,['c'],1,left,['9'],5,222,[0.03788908],34,47,medium,minus,dotcolour,beta,,,10,18,V,R,
164,38,38,3,1,36,44,616,['c'],0,right,['9'],5,229,[0.01459874],18,44,hard,minus,dotcolour,beta,,,10,18,V,R,
165,39,39,3,1,47,33,466,['c'],1,left,['9'],5,331,[0.17614249],98,47,medium,minus,dotcolour,beta,,,10,18,V,R,
166,40,40,3,1,36,44,1217,['c'],0,right,['8'],4,246,[0.06875556],62,44,hard,minus,dotcolour,beta,,,10,18,V,R,
167,41,41,3,1,53,27,416,['c'],1,left,['0'],6,557,[0.10770958],78,53,easy,minus,dotcolour,beta,,,10,18,V,R,
168,42,0,4,1,33,47,767,['n'],1,right,['8'],4,221,[-0.12130118],93,47,medium,minus,dotcolour,beta,,,10,18,V,R,
169,43,1,4,1,36,44,1299,['c'],0,right,['8'],4,242,[0.0567691],51,44,hard,minus,dotcolour,beta,,,10,18,V,R,
170,44,2,4,1,53,27,616,['c'],1,left,['9'],5,249,[0.18089337],99,53,easy,minus,dotcolour,beta,,,10,18,V,R,
171,45,3,4,1,27,53,734,['n'],1,right,['8'],4,236,[-0.14133739],96,53,easy,minus,dotcolour,beta,,,10,18,V,R,
172,46,4,4,1,44,36,600,['c'],1,left,['8'],4,235,[0.16007202],98,44,hard,minus,dotcolour,beta,,,10,18,V,R,
173,47,5,4,1,47,33,500,['c'],1,left,['8'],4,207,[0.13611549],96,47,medium,minus,dotcolour,beta,,,10,18,V,R,
174,48,6,4,1,44,36,451,['c'],1,left,['8'],4,246,[0.08451433],74,44,hard,minus,dotcolour,beta,,,10,18,V,R,
175,49,7,4,1,36,44,467,['c'],0,right,['8'],4,260,[0.04201515],38,44,hard,minus,dotcolour,beta,,,10,18,V,R,
176,50,8,4,1,36,44,433,['c'],0,right,['8'],4,313,[0.06870004],60,44,hard,minus,dotcolour,beta,,,10,18,V,R,
177,51,9,4,1,47,33,367,['c'],1,left,['9'],5,279,[0.05835356],52,47,medium,minus,dotcolour,beta,,,10,18,V,R,
178,52,10,4,1,27,53,983,['n'],1,right,['8'],4,262,[-0.04452143],40,53,easy,minus,dotcolour,beta,,,10,18,V,R,
179,53,11,4,1,27,53,1000,['n'],1,right,['8'],4,237,[-0.09052652],78,53,easy,minus,dotcolour,beta,,,10,18,V,R,
180,54,12,4,1,27,53,666,['n'],1,right,['9'],5,211,[-0.12561425],94,53,easy,minus,dotcolour,beta,,,10,18,V,R,
181,55,13,4,1,53,27,633,['c'],1,left,['9'],5,299,[0.22271448],100,53,easy,minus,dotcolour,beta,,,10,18,V,R,
182,56,14,4,1,44,36,650,['c'],1,left,['9'],5,270,[-0.0170618],7,44,hard,minus,dotcolour,beta,,,10,18,V,R,
183,57,15,4,1,36,44,1067,['c'],0,right,['9'],5,218,[0.07671777],69,44,hard,minus,dotcolour,beta,,,10,18,V,R,
184,58,16,4,1,44,36,567,['c'],1,left,['9'],5,252,[0.0450905],41,44,hard,minus,dotcolour,beta,,,10,18,V,R,
185,59,17,4,1,47,33,567,['c'],1,left,['0'],6,357,[0.10395607],81,47,medium,minus,dotcolour,beta,,,10,18,V,R,
186,60,18,4,1,44,36,882,['c'],1,left,['8'],4,261,[0.02991112],29,44,hard,minus,dotcolour,beta,,,10,18,V,R,
187,61,19,4,1,33,47,733,['c'],0,right,['9'],5,190,[0.11018871],91,47,medium,minus,dotcolour,beta,,,10,18,V,R,
188,62,20,4,1,27,53,550,['c'],0,right,['2'],2,1346,[-0.09513835],9,53,easy,minus,dotcolour,beta,,,10,18,V,R,
189,63,21,4,1,53,27,1217,['c'],1,left,['0'],6,358,[0.01300015],22,53,easy,minus,dotcolour,beta,,,10,18,V,R,
190,64,22,4,1,47,33,833,['c'],1,left,['9'],5,191,[0.07588866],70,47,medium,minus,dotcolour,beta,,,10,18,V,R,
191,65,23,4,1,33,47,1100,['n'],1,right,['8'],4,269,[-0.00082951],13,47,medium,minus,dotcolour,beta,,,10,18,V,R,
192,66,24,4,1,47,33,716,['c'],1,left,['9'],5,327,[0.07621589],66,47,medium,minus,dotcolour,beta,,,10,18,V,R,
193,67,25,4,1,27,53,816,['n'],1,right,['8'],4,187,[-0.07893868],73,53,easy,minus,dotcolour,beta,,,10,18,V,R,
194,68,26,4,1,44,36,3900,['c'],1,left,['9'],5,113,[0.02579287],17,44,hard,minus,dotcolour,beta,,,10,18,V,R,
195,69,27,4,1,53,27,633,['c'],1,left,['0'],6,381,[0.19726323],98,53,easy,minus,dotcolour,beta,,,10,18,V,R,
196,70,28,4,1,33,47,816,['n'],1,right,['8'],4,159,[-0.03011937],24,47,medium,minus,dotcolour,beta,,,10,18,V,R,
197,71,29,4,1,33,47,651,['n'],1,right,['8'],4,208,[-0.07557051],69,47,medium,minus,dotcolour,beta,,,10,18,V,R,
198,72,30,4,1,27,53,851,['n'],1,right,['8'],4,183,[-0.13611966],97,53,easy,minus,dotcolour,beta,,,10,18,V,R,
199,73,31,4,1,33,47,650,['n'],1,right,['8'],4,199,[-0.07161622],66,47,medium,minus,dotcolour,beta,,,10,18,V,R,
200,74,32,4,1,53,27,933,['c'],1,left,['9'],5,227,[0.08621395],76,53,easy,minus,dotcolour,beta,,,10,18,V,R,
201,75,33,4,1,53,27,517,['c'],1,left,['9'],5,207,[0.0076794],13,53,easy,minus,dotcolour,beta,,,10,18,V,R,
202,76,34,4,1,47,33,534,['c'],1,left,['0'],6,235,[0.15282551],97,47,medium,minus,dotcolour,beta,,,10,18,V,R,
203,77,35,4,1,36,44,900,['n'],1,right,['8'],4,472,[-0.16029026],94,44,hard,minus,dotcolour,beta,,,10,18,V,R,
204,78,36,4,1,36,44,1133,['n'],1,right,['8'],4,209,[0.0105787],7,44,hard,minus,dotcolour,beta,,,10,18,V,R,
205,79,37,4,1,33,47,634,['n'],1,right,['8'],4,201,[-0.10419019],88,47,medium,minus,dotcolour,beta,,,10,18,V,R,
206,80,38,4,1,47,33,583,['c'],1,left,['9'],5,235,[0.05479276],49,47,medium,minus,dotcolour,beta,,,10,18,V,R,
207,81,39,4,1,53,27,634,['c'],1,left,['9'],5,330,[0.02354387],27,53,easy,minus,dotcolour,beta,,,10,18,V,R,
208,82,40,4,1,44,36,601,['c'],1,left,['9'],5,230,[0.17788508],99,44,hard,minus,dotcolour,beta,,,10,18,V,R,
209,83,41,4,1,36,44,433,['c'],0,right,['9'],5,205,[0.09717401],84,44,hard,minus,dotcolour,beta,,,10,18,V,R,
210,84,0,5,1,27,53,917,['n'],1,right,['8'],4,197,[-0.03744029],32,53,easy,minus,dotcolour,beta,,,10,18,V,R,
211,85,1,5,1,27,53,716,['n'],1,right,['8'],4,299,[-0.1397716],94,53,easy,minus,dotcolour,beta,,,10,18,V,R,
212,86,2,5,1,36,44,650,['n'],1,right,['8'],4,166,[-0.1280849],96,44,hard,minus,dotcolour,beta,,,10,18,V,R,
213,87,3,5,1,53,27,700,['c'],1,left,['9'],5,205,[0.09570563],83,53,easy,minus,dotcolour,beta,,,10,18,V,R,
214,88,4,5,1,44,36,467,['c'],1,left,['9'],5,299,[0.07473473],65,44,hard,minus,dotcolour,beta,,,10,18,V,R,
215,89,5,5,1,44,36,467,['c'],1,left,['9'],5,262,[0.05123661],46,44,hard,minus,dotcolour,beta,,,10,18,V,R,
216,90,6,5,1,33,47,850,['n'],1,right,['8'],4,187,[-0.12576105],95,47,medium,minus,dotcolour,beta,,,10,18,V,R,
217,91,7,5,1,33,47,683,['c'],0,right,['8'],4,210,[0.0605917],55,47,medium,minus,dotcolour,beta,,,10,18,V,R,
218,92,8,5,1,27,53,717,['n'],1,right,['8'],4,174,[-0.05483784],49,53,easy,minus,dotcolour,beta,,,10,18,V,R,
219,93,9,5,1,27,53,667,['n'],1,right,['8'],4,182,[-0.13198114],96,53,easy,minus,dotcolour,beta,,,10,18,V,R,
220,94,10,5,1,33,47,867,['n'],1,right,['8'],4,222,[-0.10636376],87,47,medium,minus,dotcolour,beta,,,10,18,V,R,
221,95,11,5,1,33,47,667,['n'],1,right,['8'],4,196,[-0.08209768],75,47,medium,minus,dotcolour,beta,,,10,18,V,R,
222,96,12,5,1,44,36,849,['c'],1,left,['8'],4,188,[0.12101075],94,44,hard,minus,dotcolour,beta,,,10,18,V,R,
223,97,13,5,1,53,27,617,['c'],1,left,['8'],4,197,[0.17135787],99,53,easy,minus,dotcolour,beta,,,10,18,V,R,
224,98,14,5,1,33,47,781,['n'],1,right,['8'],4,176,[-0.09707801],86,47,medium,minus,dotcolour,beta,,,10,18,V,R,
225,99,15,5,1,53,27,582,['c'],1,left,['8'],4,170,[0.00190377],9,53,easy,minus,dotcolour,beta,,,10,18,V,R,
226,100,16,5,1,36,44,834,['n'],1,right,['8'],4,196,[-0.03943134],34,44,hard,minus,dotcolour,beta,,,10,18,V,R,
227,101,17,5,1,44,36,917,['c'],1,left,['9'],5,161,[0.10764097],91,44,hard,minus,dotcolour,beta,,,10,18,V,R,
228,102,18,5,1,53,27,550,['c'],1,left,['0'],6,318,[0.08917341],75,53,easy,minus,dotcolour,beta,,,10,18,V,R,
229,103,19,5,1,27,53,816,['n'],1,right,['8'],4,499,[-0.17564174],96,53,easy,minus,dotcolour,beta,,,10,18,V,R,
230,104,20,5,1,47,33,850,['c'],1,left,['9'],5,198,[0.15563346],98,47,medium,minus,dotcolour,beta,,,10,18,V,R,
231,105,21,5,1,36,44,1233,['n'],1,right,['8'],4,239,[-0.07534525],67,44,hard,minus,dotcolour,beta,,,10,18,V,R,
232,106,22,5,1,47,33,782,['c'],1,left,['9'],5,239,[0.03562922],32,47,medium,minus,dotcolour,beta,,,10,18,V,R,
233,107,23,5,1,27,53,1032,['n'],1,right,['8'],4,222,[-0.12234469],93,53,easy,minus,dotcolour,beta,,,10,18,V,R,
234,108,24,5,1,47,33,733,['c'],1,left,['8'],4,241,[0.0956744],81,47,medium,minus,dotcolour,beta,,,10,18,V,R,
235,109,25,5,1,36,44,484,['c'],0,right,['8'],4,317,[0.01955923],24,44,hard,minus,dotcolour,beta,,,10,18,V,R,
236,110,26,5,1,44,36,716,['c'],1,left,['9'],5,165,[-0.00963249],5,44,hard,minus,dotcolour,beta,,,10,18,V,R,
237,111,27,5,1,27,53,1031,['n'],1,right,['8'],4,175,[-0.04305228],37,53,easy,minus,dotcolour,beta,,,10,18,V,R,
238,112,28,5,1,47,33,566,['c'],1,left,['8'],4,154,[0.0875624],81,47,medium,minus,dotcolour,beta,,,10,18,V,R,
239,113,29,5,1,53,27,448,['c'],1,left,['8'],4,164,[0.11845212],94,53,easy,minus,dotcolour,beta,,,10,18,V,R,
240,114,30,5,1,44,36,549,['c'],1,left,['9'],5,144,[0.10644646],92,44,hard,minus,dotcolour,beta,,,10,18,V,R,
241,115,31,5,1,53,27,415,['c'],1,left,['9'],5,179,[0.15910058],99,53,easy,minus,dotcolour,beta,,,10,18,V,R,
242,116,32,5,1,33,47,782,['n'],1,right,['8'],4,143,[-0.14819949],99,47,medium,minus,dotcolour,beta,,,10,18,V,R,
243,117,33,5,1,36,44,582,['c'],0,right,['8'],4,211,[0.03264367],29,44,hard,minus,dotcolour,beta,,,10,18,V,R,
244,118,34,5,1,47,33,467,['c'],1,left,['9'],5,377,[0.15626456],95,47,medium,minus,dotcolour,beta,,,10,18,V,R,
245,119,35,5,1,36,44,465,['c'],0,right,['9'],5,257,[0.02323806],24,44,hard,minus,dotcolour,beta,,,10,18,V,R,
246,120,36,5,1,44,36,633,['c'],1,left,['9'],5,199,[0.02225589],21,44,hard,minus,dotcolour,beta,,,10,18,V,R,
247,121,37,5,1,53,27,633,['c'],1,left,['9'],5,455,[0.27995083],100,53,easy,minus,dotcolour,beta,,,10,18,V,R,
248,122,38,5,1,33,47,834,['n'],1,right,['8'],4,198,[-0.07729534],71,47,medium,minus,dotcolour,beta,,,10,18,V,R,
249,123,39,5,1,47,33,500,['c'],1,left,['8'],4,331,[0.09455443],77,47,medium,minus,dotcolour,beta,,,10,18,V,R,
250,124,40,5,1,47,33,682,['c'],1,left,['9'],5,196,[0.09410618],83,47,medium,minus,dotcolour,beta,,,10,18,V,R,
251,125,41,5,1,36,44,766,['n'],1,right,['8'],4,168,[-0.08565275],79,44,hard,minus,dotcolour,beta,,,10,18,V,R,
252,0,0,6,2,27,53,700,['n'],1,right,['8'],4,208,[-0.12135781],100,53,easy,plus,dotcolour,beta,,,10,18,V,R,
253,1,1,6,2,36,44,749,['c'],0,right,['8'],4,148,[0.02355634],98,44,hard,plus,dotcolour,beta,,,10,18,V,R,
254,2,2,6,2,47,33,799,['c'],1,left,['9'],5,199,[0.04326345],98,47,medium,plus,dotcolour,beta,,,10,18,V,R,
255,3,3,6,2,47,33,465,['c'],1,left,['9'],5,150,[0.09240294],100,47,medium,plus,dotcolour,beta,,,10,18,V,R,
256,4,4,6,2,27,53,650,['n'],1,right,['9'],5,312,[-0.0825566],99,53,easy,plus,dotcolour,beta,,,10,18,V,R,
257,5,5,6,2,53,27,532,['c'],1,left,['9'],5,183,[0.04893284],99,53,easy,plus,dotcolour,beta,,,10,18,V,R,
258,6,6,6,2,36,44,715,['n'],1,right,['8'],4,197,[-0.10471635],100,44,hard,plus,dotcolour,beta,,,10,18,V,R,
259,7,7,6,2,47,33,581,['c'],1,left,['9'],5,247,[0.09654598],100,47,medium,plus,dotcolour,beta,,,10,18,V,R,
260,8,8,6,2,44,36,799,['c'],1,left,['9'],5,263,[0.04905451],98,44,hard,plus,dotcolour,beta,,,10,18,V,R,
261,9,9,6,2,53,27,665,['c'],1,left,['9'],5,171,[0.07119336],100,53,easy,plus,dotcolour,beta,,,10,18,V,R,
262,10,10,6,2,44,36,747,['c'],1,left,['9'],5,176,[0.0910814],100,44,hard,plus,dotcolour,beta,,,10,18,V,R,
263,11,11,6,2,44,36,467,['c'],1,left,['9'],5,191,[0.10061853],100,44,hard,plus,dotcolour,beta,,,10,18,V,R,
264,12,12,6,2,27,53,1249,['n'],1,right,['8'],4,207,[-0.10988239],100,53,easy,plus,dotcolour,beta,,,10,18,V,R,
265,13,13,6,2,53,27,699,['c'],1,left,['9'],5,189,[0.0068028],93,53,easy,plus,dotcolour,beta,,,10,18,V,R,
266,14,14,6,2,36,44,949,['n'],1,right,['8'],4,217,[-0.05420423],99,44,hard,plus,dotcolour,beta,,,10,18,V,R,
267,15,15,6,2,33,47,1000,['n'],1,right,['8'],4,178,[-0.05642347],99,47,medium,plus,dotcolour,beta,,,10,18,V,R,
268,16,16,6,2,33,47,967,['n'],1,right,['8'],4,174,[-0.17475657],100,47,medium,plus,dotcolour,beta,,,10,18,V,R,
269,17,17,6,2,36,44,1015,['n'],1,right,['8'],4,168,[-0.10999341],100,44,hard,plus,dotcolour,beta,,,10,18,V,R,
270,18,18,6,2,47,33,849,['n'],0,left,['8'],4,193,[-0.03896026],98,47,medium,plus,dotcolour,beta,,,10,18,V,R,
271,19,19,6,2,44,36,966,['c'],1,left,['8'],4,180,[0.05384306],99,44,hard,plus,dotcolour,beta,,,10,18,V,R,
272,20,20,6,2,53,27,881,['c'],1,left,['8'],4,211,[0.08080289],100,53,easy,plus,dotcolour,beta,,,10,18,V,R,
273,21,21,6,2,33,47,599,['n'],1,right,['8'],4,156,[-0.01611452],96,47,medium,plus,dotcolour,beta,,,10,18,V,R,
274,22,22,6,2,27,53,396,['n'],1,right,['8'],4,159,[-0.12210581],100,53,easy,plus,dotcolour,beta,,,10,18,V,R,
275,23,23,6,2,36,44,1198,['n'],1,right,['8'],4,170,[-0.06923871],100,44,hard,plus,dotcolour,beta,,,10,18,V,R,
276,24,24,6,2,33,47,1165,['n'],1,right,['8'],4,191,[-0.03054722],97,47,medium,plus,dotcolour,beta,,,10,18,V,R,
277,25,25,6,2,47,33,599,['c'],1,left,['9'],5,281,[0.04514667],97,47,medium,plus,dotcolour,beta,,,10,18,V,R,
278,26,26,6,2,44,36,715,['c'],1,left,['8'],4,179,[0.07054496],100,44,hard,plus,dotcolour,beta,,,10,18,V,R,
279,27,27,6,2,53,27,516,['c'],1,left,['9'],5,233,[0.11435642],100,53,easy,plus,dotcolour,beta,,,10,18,V,R,
280,28,28,6,2,33,47,1466,['n'],1,right,['8'],4,182,[-0.09691117],100,47,medium,plus,dotcolour,beta,,,10,18,V,R,
281,29,29,6,2,36,44,682,['n'],1,right,['8'],4,221,[-0.14192037],100,44,hard,plus,dotcolour,beta,,,10,18,V,R,
282,30,30,6,2,33,47,1384,['n'],1,right,['8'],4,134,[-0.09782703],100,47,medium,plus,dotcolour,beta,,,10,18,V,R,
283,31,31,6,2,44,36,715,['n'],0,left,['8'],4,190,[-0.02989766],97,44,hard,plus,dotcolour,beta,,,10,18,V,R,
284,32,32,6,2,33,47,1048,['n'],1,right,['8'],4,166,[-0.06334927],99,47,medium,plus,dotcolour,beta,,,10,18,V,R,
285,33,33,6,2,27,53,663,['n'],1,right,['8'],4,166,[-0.08104462],100,53,easy,plus,dotcolour,beta,,,10,18,V,R,
286,34,34,6,2,47,33,732,['c'],1,left,['0'],6,204,[0.12339068],100,47,medium,plus,dotcolour,beta,,,10,18,V,R,
287,35,35,6,2,44,36,1082,['c'],1,left,['8'],4,298,[-0.03268321],68,44,hard,plus,dotcolour,beta,,,10,18,V,R,
288,36,36,6,2,27,53,1300,['n'],1,right,['8'],4,180,[-0.14106238],100,53,easy,plus,dotcolour,beta,,,10,18,V,R,
289,37,37,6,2,47,33,1432,['c'],1,left,['9'],5,253,[0.05945192],98,47,medium,plus,dotcolour,beta,,,10,18,V,R,
290,38,38,6,2,36,44,932,['n'],1,right,['8'],4,160,[-0.02799695],98,44,hard,plus,dotcolour,beta,,,10,18,V,R,
291,39,39,6,2,53,27,765,['c'],1,left,['9'],5,203,[0.07493574],99,53,easy,plus,dotcolour,beta,,,10,18,V,R,
292,40,40,6,2,27,53,566,['n'],1,right,['8'],4,198,[-0.06750237],99,53,easy,plus,dotcolour,beta,,,10,18,V,R,
293,41,41,6,2,53,27,499,['c'],1,left,['9'],5,187,[0.16122212],100,53,easy,plus,dotcolour,beta,,,10,18,V,R,
294,42,0,7,2,33,47,1332,['n'],1,right,['8'],4,160,[-0.11929177],100,47,medium,plus,dotcolour,beta,,,10,18,V,R,
295,43,1,7,2,47,33,598,['c'],1,left,['8'],4,163,[0.03173946],98,47,medium,plus,dotcolour,beta,,,10,18,V,R,
296,44,2,7,2,53,27,533,['c'],1,left,['9'],5,144,[0.10552106],100,53,easy,plus,dotcolour,beta,,,10,18,V,R,
297,45,3,7,2,27,53,1049,['n'],1,right,['8'],4,170,[-0.11480195],100,53,easy,plus,dotcolour,beta,,,10,18,V,R,
298,46,4,7,2,33,47,599,['n'],1,right,['8'],4,165,[0.00611036],90,47,medium,plus,dotcolour,beta,,,10,18,V,R,
299,47,5,7,2,36,44,549,['n'],1,right,['8'],4,170,[-0.09194431],100,44,hard,plus,dotcolour,beta,,,10,18,V,R,
300,48,6,7,2,33,47,666,['n'],1,right,['8'],4,170,[-0.0149636],96,47,medium,plus,dotcolour,beta,,,10,18,V,R,
301,49,7,7,2,53,27,532,['c'],1,left,['9'],5,200,[0.13547548],100,53,easy,plus,dotcolour,beta,,,10,18,V,R,
302,50,8,7,2,36,44,381,['c'],0,right,['9'],5,234,[0.04480188],98,44,hard,plus,dotcolour,beta,,,10,18,V,R,
303,51,9,7,2,53,27,514,['c'],1,left,['9'],5,198,[0.10677796],100,53,easy,plus,dotcolour,beta,,,10,18,V,R,
304,52,10,7,2,53,27,432,['c'],1,left,['9'],5,214,[0.09920258],100,53,easy,plus,dotcolour,beta,,,10,18,V,R,
305,53,11,7,2,44,36,698,['n'],0,left,['8'],4,203,[-0.02578585],96,44,hard,plus,dotcolour,beta,,,10,18,V,R,
306,54,12,7,2,53,27,732,['c'],1,left,['0'],6,231,[0.04094143],97,53,easy,plus,dotcolour,beta,,,10,18,V,R,
307,55,13,7,2,33,47,681,['n'],1,right,['8'],4,188,[-0.130774],100,47,medium,plus,dotcolour,beta,,,10,18,V,R,
308,56,14,7,2,27,53,582,['n'],1,right,['9'],5,199,[-0.11997388],100,53,easy,plus,dotcolour,beta,,,10,18,V,R,
309,57,15,7,2,44,36,1215,['n'],0,left,['8'],4,208,[-0.1497901],100,44,hard,plus,dotcolour,beta,,,10,18,V,R,
310,58,16,7,2,47,33,1781,['c'],1,left,['8'],4,274,[0.05941839],98,47,medium,plus,dotcolour,beta,,,10,18,V,R,
311,59,17,7,2,27,53,667,['n'],1,right,['8'],4,206,[-0.11404603],100,53,easy,plus,dotcolour,beta,,,10,18,V,R,
312,60,18,7,2,44,36,483,['n'],0,left,['8'],4,195,[-0.06630871],99,44,hard,plus,dotcolour,beta,,,10,18,V,R,
313,61,19,7,2,47,33,682,['n'],0,left,['8'],4,305,[0.00463043],84,47,medium,plus,dotcolour,beta,,,10,18,V,R,
314,62,20,7,2,36,44,565,['n'],1,right,['8'],4,192,[-0.04226413],98,44,hard,plus,dotcolour,beta,,,10,18,V,R,
315,63,21,7,2,33,47,483,['n'],1,right,['8'],4,174,[-0.05782242],99,47,medium,plus,dotcolour,beta,,,10,18,V,R,
316,64,22,7,2,47,33,665,['n'],0,left,['8'],4,182,[-0.00846807],94,47,medium,plus,dotcolour,beta,,,10,18,V,R,
317,65,23,7,2,27,53,499,['n'],1,right,['8'],4,364,[-0.16328828],100,53,easy,plus,dotcolour,beta,,,10,18,V,R,
318,66,24,7,2,36,44,582,['n'],1,right,['8'],4,192,[-0.04594408],98,44,hard,plus,dotcolour,beta,,,10,18,V,R,
319,67,25,7,2,36,44,382,['n'],1,right,['8'],4,170,[-0.11674409],100,44,hard,plus,dotcolour,beta,,,10,18,V,R,
320,68,26,7,2,44,36,516,['c'],1,left,['8'],4,176,[0.10074413],100,44,hard,plus,dotcolour,beta,,,10,18,V,R,
321,69,27,7,2,44,36,498,['n'],0,left,['8'],4,166,[-0.13117924],100,44,hard,plus,dotcolour,beta,,,10,18,V,R,
322,70,28,7,2,36,44,830,['c'],0,right,['8'],4,128,[0.04862634],99,44,hard,plus,dotcolour,beta,,,10,18,V,R,
323,71,29,7,2,27,53,599,['n'],1,right,['8'],4,164,[-0.11031921],100,53,easy,plus,dotcolour,beta,,,10,18,V,R,
324,72,30,7,2,33,47,1149,['n'],1,right,['8'],4,145,[-0.05798838],100,47,medium,plus,dotcolour,beta,,,10,18,V,R,
325,73,31,7,2,44,36,732,['c'],1,left,['8'],4,128,[0.10415161],100,44,hard,plus,dotcolour,beta,,,10,18,V,R,
326,74,32,7,2,53,27,965,['c'],1,left,['8'],4,214,[0.09290064],100,53,easy,plus,dotcolour,beta,,,10,18,V,R,
327,75,33,7,2,33,47,2032,['n'],1,right,['8'],4,181,[-0.11098275],100,47,medium,plus,dotcolour,beta,,,10,18,V,R,
328,76,34,7,2,36,44,833,['n'],1,right,['8'],4,158,[-0.06348219],100,44,hard,plus,dotcolour,beta,,,10,18,V,R,
329,77,35,7,2,44,36,699,['c'],1,left,['8'],4,221,[0.09329812],100,44,hard,plus,dotcolour,beta,,,10,18,V,R,
330,78,36,7,2,27,53,866,['n'],1,right,['9'],5,179,[-0.07608319],100,53,easy,plus,dotcolour,beta,,,10,18,V,R,
331,79,37,7,2,47,33,914,['c'],1,left,['9'],5,225,[0.13607712],100,47,medium,plus,dotcolour,beta,,,10,18,V,R,
332,80,38,7,2,27,53,782,['n'],1,right,['9'],5,218,[-0.20444284],100,53,easy,plus,dotcolour,beta,,,10,18,V,R,
333,81,39,7,2,47,33,982,['c'],1,left,['0'],6,180,[0.07555831],100,47,medium,plus,dotcolour,beta,,,10,18,V,R,
334,82,40,7,2,47,33,899,['c'],1,left,['8'],4,178,[0.09441066],100,47,medium,plus,dotcolour,beta,,,10,18,V,R,
335,83,41,7,2,53,27,582,['c'],1,left,['8'],4,197,[0.07905025],100,53,easy,plus,dotcolour,beta,,,10,18,V,R,
336,84,0,8,2,53,27,949,['c'],1,left,['8'],4,163,[0.09375547],100,53,easy,plus,dotcolour,beta,,,10,18,V,R,
337,85,1,8,2,53,27,632,['c'],1,left,['9'],5,221,[0.15075538],100,53,easy,plus,dotcolour,beta,,,10,18,V,R,
338,86,2,8,2,33,47,699,['n'],1,right,['8'],4,402,[-0.19249405],100,47,medium,plus,dotcolour,beta,,,10,18,V,R,
339,87,3,8,2,36,44,765,['c'],0,right,['8'],4,204,[0.00539109],92,44,hard,plus,dotcolour,beta,,,10,18,V,R,
340,88,4,8,2,27,53,948,['n'],1,right,['8'],4,296,[-0.21785506],100,53,easy,plus,dotcolour,beta,,,10,18,V,R,
341,89,5,8,2,44,36,583,['c'],1,left,['9'],5,262,[0.10167418],100,44,hard,plus,dotcolour,beta,,,10,18,V,R,
342,90,6,8,2,53,27,548,['c'],1,left,['9'],5,199,[0.07643884],100,53,easy,plus,dotcolour,beta,,,10,18,V,R,
343,91,7,8,2,47,33,632,['c'],1,left,['9'],5,167,[0.10794263],100,47,medium,plus,dotcolour,beta,,,10,18,V,R,
344,92,8,8,2,33,47,781,['n'],1,right,['8'],4,179,[-0.10305129],100,47,medium,plus,dotcolour,beta,,,10,18,V,R,
345,93,9,8,2,53,27,667,['c'],1,left,['9'],5,259,[0.1001199],100,53,easy,plus,dotcolour,beta,,,10,18,V,R,
346,94,10,8,2,44,36,481,['c'],1,left,['9'],5,150,[0.0714707],100,44,hard,plus,dotcolour,beta,,,10,18,V,R,
347,95,11,8,2,36,44,416,['c'],0,right,['9'],5,177,[0.08093839],100,44,hard,plus,dotcolour,beta,,,10,18,V,R,
348,96,12,8,2,27,53,717,['n'],1,right,['8'],4,191,[-0.15553227],100,53,easy,plus,dotcolour,beta,,,10,18,V,R,
349,97,13,8,2,33,47,550,['n'],1,right,['8'],4,194,[-0.04801369],99,47,medium,plus,dotcolour,beta,,,10,18,V,R,
350,98,14,8,2,44,36,566,['c'],1,left,['8'],4,173,[0.0223433],97,44,hard,plus,dotcolour,beta,,,10,18,V,R,
351,99,15,8,2,36,44,617,['c'],0,right,['8'],4,215,[0.0189419],95,44,hard,plus,dotcolour,beta,,,10,18,V,R,
352,100,16,8,2,27,53,816,['n'],1,right,['8'],4,207,[-0.12903474],100,53,easy,plus,dotcolour,beta,,,10,18,V,R,
353,101,17,8,2,33,47,663,['n'],1,right,['8'],4,173,[-0.15474227],100,47,medium,plus,dotcolour,beta,,,10,18,V,R,
354,102,18,8,2,47,33,883,['c'],1,left,['8'],4,220,[0.10338],100,47,medium,plus,dotcolour,beta,,,10,18,V,R,
355,103,19,8,2,47,33,534,['c'],1,left,['8'],4,176,[0.07652325],100,47,medium,plus,dotcolour,beta,,,10,18,V,R,
356,104,20,8,2,44,36,433,['c'],1,left,['8'],4,225,[0.097302],100,44,hard,plus,dotcolour,beta,,,10,18,V,R,
357,105,21,8,2,47,33,349,['c'],1,left,['8'],4,147,[0.12006823],100,47,medium,plus,dotcolour,beta,,,10,18,V,R,
358,106,22,8,2,44,36,482,['c'],1,left,['9'],5,164,[0.17303779],100,44,hard,plus,dotcolour,beta,,,10,18,V,R,
359,107,23,8,2,47,33,366,['c'],1,left,['9'],5,176,[0.10537673],100,47,medium,plus,dotcolour,beta,,,10,18,V,R,
360,108,24,8,2,47,33,349,['c'],1,left,['9'],5,140,[0.02913118],98,47,medium,plus,dotcolour,beta,,,10,18,V,R,
361,109,25,8,2,27,53,582,['n'],1,right,['9'],5,201,[-0.09424313],100,53,easy,plus,dotcolour,beta,,,10,18,V,R,
362,110,26,8,2,33,47,565,['c'],0,right,['8'],4,211,[0.10379682],100,47,medium,plus,dotcolour,beta,,,10,18,V,R,
363,111,27,8,2,44,36,548,['c'],1,left,['8'],4,190,[0.17413307],100,44,hard,plus,dotcolour,beta,,,10,18,V,R,
364,112,28,8,2,27,53,949,['n'],1,right,['8'],4,170,[-0.06951621],100,53,easy,plus,dotcolour,beta,,,10,18,V,R,
365,113,29,8,2,33,47,465,['c'],0,right,['8'],4,170,[0.10243967],100,47,medium,plus,dotcolour,beta,,,10,18,V,R,
366,114,30,8,2,27,53,665,['n'],1,right,['8'],4,283,[-0.05478324],98,53,easy,plus,dotcolour,beta,,,10,18,V,R,
367,115,31,8,2,47,33,432,['n'],0,left,['2'],2,1152,[0.04415057],55,47,medium,plus,dotcolour,beta,,,10,18,V,R,
368,116,32,8,2,27,53,899,['n'],1,right,['8'],4,270,[-0.15864984],100,53,easy,plus,dotcolour,beta,,,10,18,V,R,
369,117,33,8,2,36,44,598,['n'],1,right,['8'],4,173,[-0.05432768],99,44,hard,plus,dotcolour,beta,,,10,18,V,R,
370,118,34,8,2,36,44,683,['c'],0,right,['8'],4,165,[-0.04525521],61,44,hard,plus,dotcolour,beta,,,10,18,V,R,
371,119,35,8,2,53,27,1050,['c'],1,left,['9'],5,214,[0.04544959],98,53,easy,plus,dotcolour,beta,,,10,18,V,R,
372,120,36,8,2,53,27,915,['c'],1,left,['8'],4,186,[0.02398254],97,53,easy,plus,dotcolour,beta,,,10,18,V,R,
373,121,37,8,2,53,27,765,['c'],1,left,['9'],5,206,[0.10091808],100,53,easy,plus,dotcolour,beta,,,10,18,V,R,
374,122,38,8,2,44,36,615,['c'],1,left,['9'],5,230,[0.05560847],98,44,hard,plus,dotcolour,beta,,,10,18,V,R,
375,123,39,8,2,36,44,1132,['n'],1,right,['8'],4,185,[-0.14905989],100,44,hard,plus,dotcolour,beta,,,10,18,V,R,
376,124,40,8,2,33,47,632,['c'],0,right,['8'],4,155,[-0.01137478],88,47,medium,plus,dotcolour,beta,,,10,18,V,R,
377,125,41,8,2,36,44,715,['c'],0,right,['8'],4,169,[0.12227809],100,44,hard,plus,dotcolour,beta,,,10,18,V,R,
378,0,0,9,3,47,33,800,['c'],1,left,['8'],4,196,[0.03310499],29,47,medium,minus,dotcolour,beta,,,10,18,V,R,
379,1,1,9,3,33,47,699,['n'],1,right,['8'],4,153,[-0.0741484],70,47,medium,minus,dotcolour,beta,,,10,18,V,R,
380,2,2,9,3,27,53,966,['n'],1,right,['8'],4,246,[-0.06743071],61,53,easy,minus,dotcolour,beta,,,10,18,V,R,
381,3,3,9,3,36,44,533,['c'],0,right,['8'],4,153,[0.0360884],29,44,hard,minus,dotcolour,beta,,,10,18,V,R,
382,4,4,9,3,53,27,548,['c'],1,left,['8'],4,190,[0.23553619],100,53,easy,minus,dotcolour,beta,,,10,18,V,R,
383,5,5,9,3,27,53,699,['n'],1,right,['8'],4,196,[-0.06154685],56,53,easy,minus,dotcolour,beta,,,10,18,V,R,
384,6,6,9,3,53,27,699,['c'],1,left,['9'],5,194,[0.0480874],42,53,easy,minus,dotcolour,beta,,,10,18,V,R,
385,7,7,9,3,27,53,1115,['n'],1,right,['8'],4,239,[-0.20168362],100,53,easy,minus,dotcolour,beta,,,10,18,V,R,
386,8,8,9,3,53,27,780,['c'],1,left,['9'],5,207,[0.13928144],96,53,easy,minus,dotcolour,beta,,,10,18,V,R,
387,9,9,9,3,44,36,966,['c'],1,left,['0'],6,234,[0.08901059],78,44,hard,minus,dotcolour,beta,,,10,18,V,R,
388,10,10,9,3,27,53,748,['n'],1,right,['8'],4,203,[-0.06698464],61,53,easy,minus,dotcolour,beta,,,10,18,V,R,
389,11,11,9,3,27,53,765,['n'],1,right,['9'],5,166,[-0.0901729],82,53,easy,minus,dotcolour,beta,,,10,18,V,R,
390,12,12,9,3,33,47,716,['n'],1,right,['8'],4,164,[-0.03648677],30,47,medium,minus,dotcolour,beta,,,10,18,V,R,
391,13,13,9,3,47,33,649,['c'],1,left,['9'],5,174,[0.0544654],49,47,medium,minus,dotcolour,beta,,,10,18,V,R,
392,14,14,9,3,47,33,448,['c'],1,left,['0'],6,182,[0.12778143],95,47,medium,minus,dotcolour,beta,,,10,18,V,R,
393,15,15,9,3,36,44,417,['c'],0,right,['9'],5,327,[0.13471739],92,44,hard,minus,dotcolour,beta,,,10,18,V,R,
394,16,16,9,3,47,33,584,['n'],0,left,['8'],4,220,[-0.04346572],39,47,medium,minus,dotcolour,beta,,,10,18,V,R,
395,17,17,9,3,47,33,1216,['c'],1,left,['8'],4,213,[0.15210657],98,47,medium,minus,dotcolour,beta,,,10,18,V,R,
396,18,18,9,3,44,36,463,['c'],1,left,['8'],4,99,[0.02917868],18,44,hard,minus,dotcolour,beta,,,10,18,V,R,
397,19,19,9,3,53,27,432,['c'],1,left,['8'],4,152,[0.11639195],94,53,easy,minus,dotcolour,beta,,,10,18,V,R,
398,20,20,9,3,36,44,416,['c'],0,right,['8'],4,170,[0.04648871],40,44,hard,minus,dotcolour,beta,,,10,18,V,R,
399,21,21,9,3,27,53,932,['n'],1,right,['8'],4,200,[-0.07345033],67,53,easy,minus,dotcolour,beta,,,10,18,V,R,
400,22,22,9,3,53,27,797,['c'],1,left,['8'],4,169,[0.11796482],94,53,easy,minus,dotcolour,beta,,,10,18,V,R,
401,23,23,9,3,44,36,698,['c'],1,left,['8'],4,192,[0.06722696],62,44,hard,minus,dotcolour,beta,,,10,18,V,R,
402,24,24,9,3,36,44,630,['c'],0,right,['8'],4,129,[0.03397709],25,44,hard,minus,dotcolour,beta,,,10,18,V,R,
403,25,25,9,3,44,36,433,['c'],1,left,['8'],4,180,[-0.00424459],7,44,hard,minus,dotcolour,beta,,,10,18,V,R,
404,26,26,9,3,44,36,399,['c'],1,left,['8'],4,182,[0.0909588],82,44,hard,minus,dotcolour,beta,,,10,18,V,R,
405,27,27,9,3,33,47,396,['c'],0,right,['3'],3,1169,[0.09773921],67,47,medium,minus,dotcolour,beta,,,10,18,V,R,
406,28,28,9,3,47,33,1234,['c'],1,left,['8'],4,282,[0.12422381],91,47,medium,minus,dotcolour,beta,,,10,18,V,R,
407,29,29,9,3,53,27,650,['c'],1,left,['9'],5,197,[0.01274413],15,53,easy,minus,dotcolour,beta,,,10,18,V,R,
408,30,30,9,3,36,44,1049,['n'],1,right,['8'],4,165,[-0.10444911],90,44,hard,minus,dotcolour,beta,,,10,18,V,R,
409,31,31,9,3,53,27,946,['c'],1,left,['8'],4,234,[0.13104954],94,53,easy,minus,dotcolour,beta,,,10,18,V,R,
410,32,32,9,3,27,53,1616,['n'],1,right,['9'],5,282,[-0.08247753],71,53,easy,minus,dotcolour,beta,,,10,18,V,R,
411,33,33,9,3,36,44,1515,['c'],0,right,['8'],4,179,[0.06403674],59,44,hard,minus,dotcolour,beta,,,10,18,V,R,
412,34,34,9,3,44,36,965,['n'],0,left,['8'],4,191,[-0.07937722],73,44,hard,minus,dotcolour,beta,,,10,18,V,R,
413,35,35,9,3,33,47,1082,['n'],1,right,['9'],5,381,[-0.02465895],29,47,medium,minus,dotcolour,beta,,,10,18,V,R,
414,36,36,9,3,33,47,683,['n'],1,right,['8'],4,180,[0.00117027],8,47,medium,minus,dotcolour,beta,,,10,18,V,R,
415,37,37,9,3,36,44,864,['n'],1,right,['9'],5,204,[-0.14492763],97,44,hard,minus,dotcolour,beta,,,10,18,V,R,
416,38,38,9,3,33,47,798,['n'],1,right,['8'],4,174,[-0.08186918],76,47,medium,minus,dotcolour,beta,,,10,18,V,R,
417,39,39,9,3,47,33,764,['c'],1,left,['8'],4,177,[0.07526971],70,47,medium,minus,dotcolour,beta,,,10,18,V,R,
418,40,40,9,3,33,47,982,['n'],1,right,['8'],4,180,[-0.08843817],80,47,medium,minus,dotcolour,beta,,,10,18,V,R,
419,41,41,9,3,44,36,682,['n'],0,left,['8'],4,163,[-0.07014553],66,44,hard,minus,dotcolour,beta,,,10,18,V,R,
420,42,0,10,3,33,47,950,['n'],1,right,['8'],4,209,[-0.08443056],76,47,medium,minus,dotcolour,beta,,,10,18,V,R,
421,43,1,10,3,36,44,715,['n'],1,right,['8'],4,197,[-0.11175599],91,44,hard,minus,dotcolour,beta,,,10,18,V,R,
422,44,2,10,3,27,53,615,['n'],1,right,['8'],4,174,[-0.13972989],97,53,easy,minus,dotcolour,beta,,,10,18,V,R,
423,45,3,10,3,27,53,633,['n'],1,right,['8'],4,166,[-0.10569698],90,53,easy,minus,dotcolour,beta,,,10,18,V,R,
424,46,4,10,3,53,27,715,['c'],1,left,['8'],4,149,[0.11391997],94,53,easy,minus,dotcolour,beta,,,10,18,V,R,
425,47,5,10,3,27,53,1182,['n'],1,right,['8'],4,209,[-0.13061469],95,53,easy,minus,dotcolour,beta,,,10,18,V,R,
426,48,6,10,3,27,53,766,['n'],1,right,['8'],4,163,[-0.13135351],97,53,easy,minus,dotcolour,beta,,,10,18,V,R,
427,49,7,10,3,47,33,748,['c'],1,left,['8'],4,193,[-0.0111776],6,47,medium,minus,dotcolour,beta,,,10,18,V,R,
428,50,8,10,3,53,27,680,['c'],1,left,['8'],4,207,[0.07326305],67,53,easy,minus,dotcolour,beta,,,10,18,V,R,
429,51,9,10,3,47,33,615,['c'],1,left,['9'],5,199,[0.02607567],23,47,medium,minus,dotcolour,beta,,,10,18,V,R,
430,52,10,10,3,47,33,449,['c'],1,left,['9'],5,183,[0.08760472],79,47,medium,minus,dotcolour,beta,,,10,18,V,R,
431,53,11,10,3,33,47,617,['n'],1,right,['8'],4,160,[-0.09881792],88,47,medium,minus,dotcolour,beta,,,10,18,V,R,
432,54,12,10,3,33,47,499,['c'],0,right,['8'],4,199,[0.06908563],63,47,medium,minus,dotcolour,beta,,,10,18,V,R,
433,55,13,10,3,53,27,682,['c'],1,left,['9'],5,182,[0.07410276],69,53,easy,minus,dotcolour,beta,,,10,18,V,R,
434,56,14,10,3,44,36,432,['c'],1,left,['8'],4,158,[0.11343186],93,44,hard,minus,dotcolour,beta,,,10,18,V,R,
435,57,15,10,3,53,27,448,['c'],1,left,['9'],5,216,[0.06493739],59,53,easy,minus,dotcolour,beta,,,10,18,V,R,
436,58,16,10,3,53,27,415,['c'],1,left,['9'],5,264,[0.16099963],98,53,easy,minus,dotcolour,beta,,,10,18,V,R,
437,59,17,10,3,53,27,481,['c'],1,left,['9'],5,323,[0.07230752],63,53,easy,minus,dotcolour,beta,,,10,18,V,R,
438,60,18,10,3,47,33,415,['c'],1,left,['9'],5,159,[0.08707988],81,47,medium,minus,dotcolour,beta,,,10,18,V,R,
439,61,19,10,3,33,47,348,['c'],0,right,['8'],4,276,[0.00184232],14,47,medium,minus,dotcolour,beta,,,10,18,V,R,
440,62,20,10,3,33,47,649,['n'],1,right,['8'],4,176,[-0.06394389],59,47,medium,minus,dotcolour,beta,,,10,18,V,R,
441,63,21,10,3,47,33,515,['c'],1,left,['8'],4,190,[0.11464221],92,47,medium,minus,dotcolour,beta,,,10,18,V,R,
442,64,22,10,3,44,36,649,['n'],0,left,['8'],4,190,[-0.09861794],86,44,hard,minus,dotcolour,beta,,,10,18,V,R,
443,65,23,10,3,44,36,632,['c'],1,left,['8'],4,143,[0.04174154],34,44,hard,minus,dotcolour,beta,,,10,18,V,R,
444,66,24,10,3,47,33,415,['c'],1,left,['8'],4,129,[0.09519785],88,47,medium,minus,dotcolour,beta,,,10,18,V,R,
445,67,25,10,3,36,44,1000,['c'],0,right,['8'],4,494,[0.19926971],98,44,hard,minus,dotcolour,beta,,,10,18,V,R,
446,68,26,10,3,44,36,531,['c'],1,left,['8'],4,134,[0.03198138],24,44,hard,minus,dotcolour,beta,,,10,18,V,R,
447,69,27,10,3,36,44,682,['c'],0,right,['8'],4,151,[0.11347582],94,44,hard,minus,dotcolour,beta,,,10,18,V,R,
448,70,28,10,3,33,47,1348,['n'],1,right,['8'],4,197,[-0.01754379],18,47,medium,minus,dotcolour,beta,,,10,18,V,R,
449,71,29,10,3,33,47,1049,['n'],1,right,['8'],4,332,[-0.19196682],99,47,medium,minus,dotcolour,beta,,,10,18,V,R,
450,72,30,10,3,44,36,532,['c'],1,left,['8'],4,131,[0.09581814],88,44,hard,minus,dotcolour,beta,,,10,18,V,R,
451,73,31,10,3,44,36,615,['c'],1,left,['8'],4,103,[0.0561056],51,44,hard,minus,dotcolour,beta,,,10,18,V,R,
452,74,32,10,3,36,44,682,['c'],0,right,['8'],4,137,[0.03270997],25,44,hard,minus,dotcolour,beta,,,10,18,V,R,
453,75,33,10,3,36,44,597,['n'],1,right,['8'],4,141,[-0.08341544],79,44,hard,minus,dotcolour,beta,,,10,18,V,R,
454,76,34,10,3,27,53,465,['n'],1,right,['8'],4,206,[-0.07529944],69,53,easy,minus,dotcolour,beta,,,10,18,V,R,
455,77,35,10,3,47,33,647,['c'],1,left,['9'],5,229,[0.11814093],91,47,medium,minus,dotcolour,beta,,,10,18,V,R,
456,78,36,10,3,53,27,599,['c'],1,left,['0'],6,150,[0.1477658],99,53,easy,minus,dotcolour,beta,,,10,18,V,R,
457,79,37,10,3,27,53,814,['n'],1,right,['0'],6,169,[-0.09135978],83,53,easy,minus,dotcolour,beta,,,10,18,V,R,
458,80,38,10,3,36,44,983,['n'],1,right,['9'],5,260,[-0.13299624],94,44,hard,minus,dotcolour,beta,,,10,18,V,R,
459,81,39,10,3,44,36,1199,['c'],1,left,['8'],4,139,[0.013192],11,44,hard,minus,dotcolour,beta,,,10,18,V,R,
460,82,40,10,3,27,53,866,['n'],1,right,['9'],5,412,[-0.04113463],40,53,easy,minus,dotcolour,beta,,,10,18,V,R,
461,83,41,10,3,36,44,531,['n'],1,right,['8'],4,584,[-0.02776764],34,44,hard,minus,dotcolour,beta,,,10,18,V,R,
462,84,0,11,3,53,27,683,['c'],1,left,['8'],4,141,[0.08549893],81,53,easy,minus,dotcolour,beta,,,10,18,V,R,
463,85,1,11,3,33,47,600,['n'],1,right,['9'],5,177,[-0.10284442],88,47,medium,minus,dotcolour,beta,,,10,18,V,R,
464,86,2,11,3,36,44,732,['c'],0,right,['8'],4,182,[0.08320445],76,44,hard,minus,dotcolour,beta,,,10,18,V,R,
465,87,3,11,3,36,44,667,['n'],1,right,['8'],4,189,[-0.0532571],48,44,hard,minus,dotcolour,beta,,,10,18,V,R,
466,88,4,11,3,44,36,748,['c'],1,left,['8'],4,178,[0.07932373],73,44,hard,minus,dotcolour,beta,,,10,18,V,R,
467,89,5,11,3,44,36,832,['n'],0,left,['8'],4,203,[-0.06759623],62,44,hard,minus,dotcolour,beta,,,10,18,V,R,
468,90,6,11,3,27,53,715,['n'],1,right,['9'],5,311,[-0.03361751],33,53,easy,minus,dotcolour,beta,,,10,18,V,R,
469,91,7,11,3,33,47,533,['n'],1,right,['8'],4,183,[-0.17272703],99,47,medium,minus,dotcolour,beta,,,10,18,V,R,
470,92,8,11,3,27,53,532,['n'],1,right,['8'],4,155,[-0.13061867],97,53,easy,minus,dotcolour,beta,,,10,18,V,R,
471,93,9,11,3,27,53,564,['n'],1,right,['8'],4,184,[-0.04514832],39,53,easy,minus,dotcolour,beta,,,10,18,V,R,
472,94,10,11,3,44,36,815,['c'],1,left,['8'],4,162,[0.07770453],73,44,hard,minus,dotcolour,beta,,,10,18,V,R,
473,95,11,11,3,27,53,615,['n'],1,right,['8'],4,156,[-0.05597761],50,53,easy,minus,dotcolour,beta,,,10,18,V,R,
474,96,12,11,3,44,36,882,['c'],1,left,['8'],4,165,[0.05891292],54,44,hard,minus,dotcolour,beta,,,10,18,V,R,
475,97,13,11,3,44,36,732,['c'],1,left,['9'],5,290,[0.09812766],81,44,hard,minus,dotcolour,beta,,,10,18,V,R,
476,98,14,11,3,53,27,497,['c'],1,left,['9'],5,380,[0.17983778],97,53,easy,minus,dotcolour,beta,,,10,18,V,R,
477,99,15,11,3,36,44,481,['c'],0,right,['9'],5,203,[0.07026548],64,44,hard,minus,dotcolour,beta,,,10,18,V,R,
478,100,16,11,3,47,33,482,['c'],1,left,['9'],5,257,[0.13969586],95,47,medium,minus,dotcolour,beta,,,10,18,V,R,
479,101,17,11,3,44,36,530,['c'],1,left,['0'],6,186,[0.10034969],87,44,hard,minus,dotcolour,beta,,,10,18,V,R,
480,102,18,11,3,47,33,481,['c'],1,left,['0'],6,169,[0.12919595],96,47,medium,minus,dotcolour,beta,,,10,18,V,R,
481,103,19,11,3,27,53,732,['n'],1,right,['9'],5,231,[-0.04363758],39,53,easy,minus,dotcolour,beta,,,10,18,V,R,
482,104,20,11,3,53,27,681,['c'],1,left,['0'],6,164,[0.11856311],94,53,easy,minus,dotcolour,beta,,,10,18,V,R,
483,105,21,11,3,36,44,1182,['c'],0,right,['8'],4,192,[0.10748266],89,44,hard,minus,dotcolour,beta,,,10,18,V,R,
484,106,22,11,3,33,47,599,['c'],0,right,['8'],4,145,[0.04050532],33,47,medium,minus,dotcolour,beta,,,10,18,V,R,
485,107,23,11,3,27,53,1016,['n'],1,right,['9'],5,260,[-0.07110009],63,53,easy,minus,dotcolour,beta,,,10,18,V,R,
486,108,24,11,3,33,47,615,['n'],1,right,['8'],4,219,[-0.10924269],89,47,medium,minus,dotcolour,beta,,,10,18,V,R,
487,109,25,11,3,47,33,515,['c'],1,left,['8'],4,159,[0.12775432],96,47,medium,minus,dotcolour,beta,,,10,18,V,R,
488,110,26,11,3,53,27,716,['c'],1,left,['9'],5,261,[0.08283365],72,53,easy,minus,dotcolour,beta,,,10,18,V,R,
489,111,27,11,3,47,33,598,['c'],1,left,['9'],5,236,[0.08318986],74,47,medium,minus,dotcolour,beta,,,10,18,V,R,
490,112,28,11,3,47,33,548,['c'],1,left,['9'],5,158,[0.09080438],83,47,medium,minus,dotcolour,beta,,,10,18,V,R,
491,113,29,11,3,27,53,750,['n'],1,right,['9'],5,315,[-0.11020208],85,53,easy,minus,dotcolour,beta,,,10,18,V,R,
492,114,30,11,3,33,47,699,['n'],1,right,['8'],4,165,[-0.06433763],60,47,medium,minus,dotcolour,beta,,,10,18,V,R,
493,115,31,11,3,53,27,616,['c'],1,left,['9'],5,174,[0.0927049],83,53,easy,minus,dotcolour,beta,,,10,18,V,R,
494,116,32,11,3,47,33,583,['c'],1,left,['9'],5,329,[0.08639478],72,47,medium,minus,dotcolour,beta,,,10,18,V,R,
495,117,33,11,3,33,47,347,['c'],0,right,['9'],5,216,[0.10179382],86,47,medium,minus,dotcolour,beta,,,10,18,V,R,
496,118,34,11,3,47,33,582,['c'],1,left,['9'],5,329,[0.12497133],90,47,medium,minus,dotcolour,beta,,,10,18,V,R,
497,119,35,11,3,36,44,498,['c'],0,right,['9'],5,194,[0.02855905],25,44,hard,minus,dotcolour,beta,,,10,18,V,R,
498,120,36,11,3,44,36,598,['c'],1,left,['8'],4,284,[0.02840849],29,44,hard,minus,dotcolour,beta,,,10,18,V,R,
499,121,37,11,3,53,27,497,['c'],1,left,['9'],5,213,[0.03886283],34,53,easy,minus,dotcolour,beta,,,10,18,V,R,
500,122,38,11,3,53,27,582,['c'],1,left,['9'],5,198,[0.07404412],68,53,easy,minus,dotcolour,beta,,,10,18,V,R,
501,123,39,11,3,36,44,332,['c'],0,right,['9'],5,235,[-0.03468947],3,44,hard,minus,dotcolour,beta,,,10,18,V,R,
502,124,40,11,3,36,44,349,['c'],0,right,['9'],5,157,[0.02918798],23,44,hard,minus,dotcolour,beta,,,10,18,V,R,
503,125,41,11,3,33,47,865,['n'],1,right,['8'],4,206,[-0.09604121],83,47,medium,minus,dotcolour,beta,,,10,18,V,R,
504,0,0,12,4,53,27,1233,['c'],1,left,['8'],4,142,[0.08798153],100,53,easy,plus,dotcolour,beta,,,10,18,V,R,
505,1,1,12,4,53,27,498,['c'],1,left,['9'],5,157,[0.13460207],100,53,easy,plus,dotcolour,beta,,,10,18,V,R,
506,2,2,12,4,36,44,433,['c'],0,right,['9'],5,167,[0.07295941],100,44,hard,plus,dotcolour,beta,,,10,18,V,R,
507,3,3,12,4,53,27,465,['c'],1,left,['9'],5,175,[0.12966201],100,53,easy,plus,dotcolour,beta,,,10,18,V,R,
508,4,4,12,4,44,36,315,['c'],1,left,['9'],5,149,[0.05676307],99,44,hard,plus,dotcolour,beta,,,10,18,V,R,
509,5,5,12,4,27,53,482,['c'],0,right,['9'],5,165,[0.10898368],100,53,easy,plus,dotcolour,beta,,,10,18,V,R,
510,6,6,12,4,47,33,449,['c'],1,left,['8'],4,190,[0.0701617],99,47,medium,plus,dotcolour,beta,,,10,18,V,R,
511,7,7,12,4,47,33,466,['c'],1,left,['9'],5,181,[0.07777128],100,47,medium,plus,dotcolour,beta,,,10,18,V,R,
512,8,8,12,4,27,53,648,['n'],1,right,['9'],5,277,[-0.10408696],100,53,easy,plus,dotcolour,beta,,,10,18,V,R,
513,9,9,12,4,44,36,515,['c'],1,left,['8'],4,143,[0.17209501],100,44,hard,plus,dotcolour,beta,,,10,18,V,R,
514,10,10,12,4,36,44,848,['n'],1,right,['8'],4,257,[-0.06574709],99,44,hard,plus,dotcolour,beta,,,10,18,V,R,
515,11,11,12,4,44,36,598,['c'],1,left,['8'],4,144,[0.12086572],100,44,hard,plus,dotcolour,beta,,,10,18,V,R,
516,12,12,12,4,33,47,832,['n'],1,right,['8'],4,218,[-0.07714354],99,47,medium,plus,dotcolour,beta,,,10,18,V,R,
517,13,13,12,4,33,47,615,['n'],1,right,['8'],4,153,[-0.12824438],100,47,medium,plus,dotcolour,beta,,,10,18,V,R,
518,14,14,12,4,27,53,799,['n'],1,right,['9'],5,196,[-0.03061376],97,53,easy,plus,dotcolour,beta,,,10,18,V,R,
519,15,15,12,4,47,33,982,['n'],0,left,['8'],4,191,[-0.12444125],100,47,medium,plus,dotcolour,beta,,,10,18,V,R,
520,16,16,12,4,44,36,1049,['c'],1,left,['8'],4,166,[0.11103207],100,44,hard,plus,dotcolour,beta,,,10,18,V,R,
521,17,17,12,4,47,33,432,['c'],1,left,['9'],5,320,[0.11672614],100,47,medium,plus,dotcolour,beta,,,10,18,V,R,
522,18,18,12,4,53,27,482,['c'],1,left,['9'],5,218,[0.13450229],100,53,easy,plus,dotcolour,beta,,,10,18,V,R,
523,19,19,12,4,47,33,732,['c'],1,left,['9'],5,181,[0.07866109],100,47,medium,plus,dotcolour,beta,,,10,18,V,R,
524,20,20,12,4,33,47,681,['c'],0,right,['9'],5,140,[0.13213636],100,47,medium,plus,dotcolour,beta,,,10,18,V,R,
525,21,21,12,4,27,53,365,['c'],0,right,['9'],5,161,[0.03007294],98,53,easy,plus,dotcolour,beta,,,10,18,V,R,
526,22,22,12,4,33,47,617,['c'],0,right,['9'],5,172,[0.09276552],100,47,medium,plus,dotcolour,beta,,,10,18,V,R,
527,23,23,12,4,33,47,766,['n'],1,right,['8'],4,176,[-0.06599936],99,47,medium,plus,dotcolour,beta,,,10,18,V,R,
528,24,24,12,4,53,27,515,['n'],0,left,['2'],2,1806,[0.02822551],59,53,easy,plus,dotcolour,beta,,,10,18,V,R,
529,25,25,12,4,33,47,1065,['n'],1,right,['8'],4,196,[-0.10686651],100,47,medium,plus,dotcolour,beta,,,10,18,V,R,
530,26,26,12,4,36,44,499,['n'],1,right,['8'],4,186,[-0.04816659],99,44,hard,plus,dotcolour,beta,,,10,18,V,R,
531,27,27,12,4,36,44,915,['n'],1,right,['8'],4,159,[-0.12399617],100,44,hard,plus,dotcolour,beta,,,10,18,V,R,
532,28,28,12,4,44,36,448,['c'],1,left,['9'],5,384,[0.20614409],100,44,hard,plus,dotcolour,beta,,,10,18,V,R,
533,29,29,12,4,36,44,1066,['c'],0,right,['8'],4,168,[0.14136982],100,44,hard,plus,dotcolour,beta,,,10,18,V,R,
534,30,30,12,4,27,53,849,['n'],1,right,['9'],5,209,[-0.05680181],99,53,easy,plus,dotcolour,beta,,,10,18,V,R,
535,31,31,12,4,53,27,581,['c'],1,left,['9'],5,243,[0.16410218],100,53,easy,plus,dotcolour,beta,,,10,18,V,R,
536,32,32,12,4,44,36,733,['c'],1,left,['9'],5,501,[0.16916905],100,44,hard,plus,dotcolour,beta,,,10,18,V,R,
537,33,33,12,4,36,44,398,['c'],0,right,['9'],5,186,[0.10600658],100,44,hard,plus,dotcolour,beta,,,10,18,V,R,
538,34,34,12,4,53,27,549,['c'],1,left,['9'],5,135,[0.11370084],100,53,easy,plus,dotcolour,beta,,,10,18,V,R,
539,35,35,12,4,36,44,448,['c'],0,right,['9'],5,313,[0.09585501],99,44,hard,plus,dotcolour,beta,,,10,18,V,R,
540,36,36,12,4,47,33,482,['c'],1,left,['9'],5,139,[0.03592437],99,47,medium,plus,dotcolour,beta,,,10,18,V,R,
541,37,37,12,4,27,53,763,['n'],1,right,['8'],4,160,[-0.07155583],100,53,easy,plus,dotcolour,beta,,,10,18,V,R,
542,38,38,12,4,33,47,1080,['n'],1,right,['8'],4,176,[-0.18471856],100,47,medium,plus,dotcolour,beta,,,10,18,V,R,
543,39,39,12,4,27,53,483,['n'],1,right,['8'],4,167,[-0.12653762],100,53,easy,plus,dotcolour,beta,,,10,18,V,R,
544,40,40,12,4,44,36,632,['c'],1,left,['8'],4,129,[0.06777045],100,44,hard,plus,dotcolour,beta,,,10,18,V,R,
545,41,41,12,4,47,33,582,['c'],1,left,['9'],5,174,[0.04360656],99,47,medium,plus,dotcolour,beta,,,10,18,V,R,
546,42,0,13,4,47,33,884,['c'],1,left,['8'],4,120,[0.14407974],100,47,medium,plus,dotcolour,beta,,,10,18,V,R,
547,43,1,13,4,47,33,548,['c'],1,left,['9'],5,151,[0.04126817],99,47,medium,plus,dotcolour,beta,,,10,18,V,R,
548,44,2,13,4,44,36,565,['c'],1,left,['8'],4,108,[0.04604312],100,44,hard,plus,dotcolour,beta,,,10,18,V,R,
549,45,3,13,4,27,53,415,['c'],0,right,['8'],4,185,[0.11113401],100,53,easy,plus,dotcolour,beta,,,10,18,V,R,
550,46,4,13,4,47,33,463,['c'],1,left,['8'],4,192,[0.01950744],96,47,medium,plus,dotcolour,beta,,,10,18,V,R,
551,47,5,13,4,33,47,1199,['n'],1,right,['8'],4,194,[-0.10337119],100,47,medium,plus,dotcolour,beta,,,10,18,V,R,
552,48,6,13,4,33,47,1049,['n'],1,right,['9'],5,209,[-0.08599864],100,47,medium,plus,dotcolour,beta,,,10,18,V,R,
553,49,7,13,4,36,44,615,['c'],0,right,['8'],4,98,[0.10973718],100,44,hard,plus,dotcolour,beta,,,10,18,V,R,
554,50,8,13,4,44,36,847,['c'],1,left,['8'],4,158,[0.13000351],100,44,hard,plus,dotcolour,beta,,,10,18,V,R,
555,51,9,13,4,53,27,516,['c'],1,left,['8'],4,220,[0.07686207],99,53,easy,plus,dotcolour,beta,,,10,18,V,R,
556,52,10,13,4,36,44,615,['c'],0,right,['8'],4,116,[0.11341885],100,44,hard,plus,dotcolour,beta,,,10,18,V,R,
557,53,11,13,4,33,47,881,['n'],1,right,['8'],4,222,[-0.10260873],100,47,medium,plus,dotcolour,beta,,,10,18,V,R,
558,54,12,13,4,27,53,582,['n'],1,right,['8'],4,143,[-0.05015514],99,53,easy,plus,dotcolour,beta,,,10,18,V,R,
559,55,13,13,4,33,47,765,['n'],1,right,['9'],5,180,[-0.05392902],99,47,medium,plus,dotcolour,beta,,,10,18,V,R,
560,56,14,13,4,53,27,1032,['c'],1,left,['9'],5,261,[0.08704931],99,53,easy,plus,dotcolour,beta,,,10,18,V,R,
561,57,15,13,4,33,47,767,['n'],1,right,['8'],4,190,[-0.0482033],99,47,medium,plus,dotcolour,beta,,,10,18,V,R,
562,58,16,13,4,44,36,1166,['c'],1,left,['8'],4,169,[0.07232163],100,44,hard,plus,dotcolour,beta,,,10,18,V,R,
563,59,17,13,4,44,36,765,['c'],1,left,['8'],4,180,[0.116621],100,44,hard,plus,dotcolour,beta,,,10,18,V,R,
564,60,18,13,4,36,44,649,['c'],0,right,['8'],4,117,[0.07218253],100,44,hard,plus,dotcolour,beta,,,10,18,V,R,
565,61,19,13,4,27,53,616,['n'],1,right,['9'],5,161,[-0.03935923],99,53,easy,plus,dotcolour,beta,,,10,18,V,R,
566,62,20,13,4,33,47,447,['n'],1,right,['8'],4,178,[-0.11120274],100,47,medium,plus,dotcolour,beta,,,10,18,V,R,
567,63,21,13,4,27,53,550,['n'],1,right,['9'],5,230,[-0.10958776],100,53,easy,plus,dotcolour,beta,,,10,18,V,R,
568,64,22,13,4,53,27,484,['c'],1,left,['9'],5,195,[0.09241507],100,53,easy,plus,dotcolour,beta,,,10,18,V,R,
569,65,23,13,4,27,53,1050,['n'],1,right,['9'],5,219,[-0.1304657],100,53,easy,plus,dotcolour,beta,,,10,18,V,R,
570,66,24,13,4,36,44,849,['c'],0,right,['8'],4,146,[0.06323574],100,44,hard,plus,dotcolour,beta,,,10,18,V,R,
571,67,25,13,4,47,33,649,['c'],1,left,['9'],5,171,[0.03410921],98,47,medium,plus,dotcolour,beta,,,10,18,V,R,
572,68,26,13,4,53,27,517,['c'],1,left,['9'],5,114,[0.09225668],100,53,easy,plus,dotcolour,beta,,,10,18,V,R,
573,69,27,13,4,33,47,500,['c'],0,right,['2'],2,803,[-0.06873647],43,47,medium,plus,dotcolour,beta,,,10,18,V,R,
574,70,28,13,4,47,33,532,['c'],1,left,['8'],4,230,[0.18954102],100,47,medium,plus,dotcolour,beta,,,10,18,V,R,
575,71,29,13,4,44,36,715,['c'],1,left,['8'],4,122,[0.09266105],100,44,hard,plus,dotcolour,beta,,,10,18,V,R,
576,72,30,13,4,36,44,581,['n'],1,right,['8'],4,199,[-0.12655076],100,44,hard,plus,dotcolour,beta,,,10,18,V,R,
577,73,31,13,4,47,33,582,['c'],1,left,['8'],4,89,[0.08431236],100,47,medium,plus,dotcolour,beta,,,10,18,V,R,
578,74,32,13,4,36,44,582,['n'],1,right,['8'],4,152,[-0.04672004],99,44,hard,plus,dotcolour,beta,,,10,18,V,R,
579,75,33,13,4,44,36,730,['c'],1,left,['8'],4,134,[0.07036201],100,44,hard,plus,dotcolour,beta,,,10,18,V,R,
580,76,34,13,4,47,33,914,['c'],1,left,['8'],4,134,[0.13453405],100,47,medium,plus,dotcolour,beta,,,10,18,V,R,
581,77,35,13,4,27,53,633,['n'],1,right,['9'],5,385,[-0.12071168],99,53,easy,plus,dotcolour,beta,,,10,18,V,R,
582,78,36,13,4,36,44,1299,['n'],1,right,['8'],4,215,[-0.06652349],99,44,hard,plus,dotcolour,beta,,,10,18,V,R,
583,79,37,13,4,27,53,832,['n'],1,right,['8'],4,207,[-0.14002579],100,53,easy,plus,dotcolour,beta,,,10,18,V,R,
584,80,38,13,4,53,27,614,['c'],1,left,['9'],5,432,[0.12481083],99,53,easy,plus,dotcolour,beta,,,10,18,V,R,
585,81,39,13,4,53,27,564,['c'],1,left,['0'],6,169,[0.04772603],99,53,easy,plus,dotcolour,beta,,,10,18,V,R,
586,82,40,13,4,44,36,633,['c'],1,left,['0'],6,163,[0.08833521],100,44,hard,plus,dotcolour,beta,,,10,18,V,R,
587,83,41,13,4,53,27,381,['c'],1,left,['9'],5,255,[0.19710642],100,53,easy,plus,dotcolour,beta,,,10,18,V,R,
588,84,0,14,4,33,47,1217,['n'],1,right,['8'],4,174,[-0.07728881],100,47,medium,plus,dotcolour,beta,,,10,18,V,R,
589,85,1,14,4,33,47,633,['n'],1,right,['8'],4,159,[-0.12369415],100,47,medium,plus,dotcolour,beta,,,10,18,V,R,
590,86,2,14,4,27,53,447,['n'],1,right,['9'],5,184,[-0.02971605],97,53,easy,plus,dotcolour,beta,,,10,18,V,R,
591,87,3,14,4,36,44,582,['c'],0,right,['8'],4,219,[0.0570779],99,44,hard,plus,dotcolour,beta,,,10,18,V,R,
592,88,4,14,4,36,44,733,['n'],1,right,['8'],4,150,[-0.12055],100,44,hard,plus,dotcolour,beta,,,10,18,V,R,
593,89,5,14,4,53,27,484,['c'],1,left,['8'],4,183,[0.07360614],100,53,easy,plus,dotcolour,beta,,,10,18,V,R,
594,90,6,14,4,27,53,716,['n'],1,right,['8'],4,148,[-0.04558526],99,53,easy,plus,dotcolour,beta,,,10,18,V,R,
595,91,7,14,4,47,33,415,['c'],1,left,['9'],5,143,[0.12861573],100,47,medium,plus,dotcolour,beta,,,10,18,V,R,
596,92,8,14,4,33,47,731,['n'],1,right,['9'],5,318,[-0.16037006],100,47,medium,plus,dotcolour,beta,,,10,18,V,R,
597,93,9,14,4,53,27,531,['c'],1,left,['9'],5,245,[0.14780793],100,53,easy,plus,dotcolour,beta,,,10,18,V,R,
598,94,10,14,4,27,53,782,['n'],1,right,['8'],4,189,[-0.07486544],100,53,easy,plus,dotcolour,beta,,,10,18,V,R,
599,95,11,14,4,36,44,1616,['c'],0,right,['8'],4,167,[0.09232173],100,44,hard,plus,dotcolour,beta,,,10,18,V,R,
600,96,12,14,4,36,44,882,['c'],0,right,['8'],4,207,[0.04643547],98,44,hard,plus,dotcolour,beta,,,10,18,V,R,
601,97,13,14,4,27,53,782,['n'],1,right,['8'],4,177,[-0.15715836],100,53,easy,plus,dotcolour,beta,,,10,18,V,R,
602,98,14,14,4,44,36,1182,['n'],0,left,['8'],4,220,[-0.12026044],100,44,hard,plus,dotcolour,beta,,,10,18,V,R,
603,99,15,14,4,44,36,630,['c'],1,left,['8'],4,140,[0.07428508],100,44,hard,plus,dotcolour,beta,,,10,18,V,R,
604,100,16,14,4,44,36,865,['n'],0,left,['8'],4,173,[-0.10142601],100,44,hard,plus,dotcolour,beta,,,10,18,V,R,
605,101,17,14,4,27,53,732,['n'],1,right,['8'],4,178,[-0.09076555],100,53,easy,plus,dotcolour,beta,,,10,18,V,R,
606,102,18,14,4,36,44,715,['n'],1,right,['8'],4,200,[-0.12074849],100,44,hard,plus,dotcolour,beta,,,10,18,V,R,
607,103,19,14,4,44,36,665,['c'],1,left,['8'],4,159,[0.09418972],100,44,hard,plus,dotcolour,beta,,,10,18,V,R,
608,104,20,14,4,36,44,682,['n'],1,right,['8'],4,191,[-0.02905931],97,44,hard,plus,dotcolour,beta,,,10,18,V,R,
609,105,21,14,4,44,36,549,['c'],1,left,['8'],4,155,[0.0546738],99,44,hard,plus,dotcolour,beta,,,10,18,V,R,
610,106,22,14,4,53,27,497,['c'],1,left,['8'],4,153,[0.14784256],100,53,easy,plus,dotcolour,beta,,,10,18,V,R,
611,107,23,14,4,53,27,565,['c'],1,left,['8'],4,141,[0.08960382],100,53,easy,plus,dotcolour,beta,,,10,18,V,R,
612,108,24,14,4,53,27,447,['c'],1,left,['9'],5,143,[0.11697663],100,53,easy,plus,dotcolour,beta,,,10,18,V,R,
613,109,25,14,4,47,33,432,['c'],1,left,['9'],5,345,[0.17593861],100,47,medium,plus,dotcolour,beta,,,10,18,V,R,
614,110,26,14,4,44,36,615,['c'],1,left,['8'],4,93,[0.05139634],100,44,hard,plus,dotcolour,beta,,,10,18,V,R,
615,111,27,14,4,27,53,716,['n'],1,right,['8'],4,165,[-0.0604214],99,53,easy,plus,dotcolour,beta,,,10,18,V,R,
616,112,28,14,4,47,33,646,['c'],1,left,['9'],5,142,[0.07598085],100,47,medium,plus,dotcolour,beta,,,10,18,V,R,
617,113,29,14,4,53,27,482,['c'],1,left,['9'],5,135,[0.07922844],100,53,easy,plus,dotcolour,beta,,,10,18,V,R,
618,114,30,14,4,33,47,1032,['n'],1,right,['8'],4,210,[-0.09688148],100,47,medium,plus,dotcolour,beta,,,10,18,V,R,
619,115,31,14,4,47,33,916,['c'],1,left,['8'],4,158,[0.08866841],100,47,medium,plus,dotcolour,beta,,,10,18,V,R,
620,116,32,14,4,47,33,1216,['c'],1,left,['9'],5,144,[0.08427334],100,47,medium,plus,dotcolour,beta,,,10,18,V,R,
621,117,33,14,4,33,47,815,['n'],1,right,['8'],4,179,[-0.09321824],100,47,medium,plus,dotcolour,beta,,,10,18,V,R,
622,118,34,14,4,27,53,1165,['n'],1,right,['8'],4,207,[-0.09480874],100,53,easy,plus,dotcolour,beta,,,10,18,V,R,
623,119,35,14,4,44,36,616,['c'],1,left,['8'],4,120,[0.16786947],100,44,hard,plus,dotcolour,beta,,,10,18,V,R,
624,120,36,14,4,53,27,548,['c'],1,left,['8'],4,135,[0.14844642],100,53,easy,plus,dotcolour,beta,,,10,18,V,R,
625,121,37,14,4,36,44,882,['n'],1,right,['8'],4,184,[-0.05182406],99,44,hard,plus,dotcolour,beta,,,10,18,V,R,
626,122,38,14,4,47,33,616,['c'],1,left,['9'],5,153,[0.01514664],96,47,medium,plus,dotcolour,beta,,,10,18,V,R,
627,123,39,14,4,33,47,732,['n'],1,right,['9'],5,264,[-0.07331885],99,47,medium,plus,dotcolour,beta,,,10,18,V,R,
628,124,40,14,4,47,33,549,['c'],1,left,['9'],5,129,[0.1001987],100,47,medium,plus,dotcolour,beta,,,10,18,V,R,
629,125,41,14,4,33,47,750,['n'],1,right,['8'],4,175,[-0.09745475],100,47,medium,plus,dotcolour,beta,,,10,18,V,R,
630,0,0,15,5,47,33,966,['c'],1,left,['9'],5,207,[0.06934115],63,47,medium,minus,dotcolour,beta,,,10,18,V,R,
631,1,1,15,5,33,47,630,['n'],1,right,['9'],5,327,[-0.01986202],25,47,medium,minus,dotcolour,beta,,,10,18,V,R,
632,2,2,15,5,44,36,832,['c'],1,left,['8'],4,218,[0.03612928],32,44,hard,minus,dotcolour,beta,,,10,18,V,R,
633,3,3,15,5,44,36,464,['c'],1,left,['8'],4,408,[0.13636857],91,44,hard,minus,dotcolour,beta,,,10,18,V,R,
634,4,4,15,5,53,27,766,['c'],1,left,['9'],5,171,[0.12002441],94,53,easy,minus,dotcolour,beta,,,10,18,V,R,
635,5,5,15,5,36,44,866,['n'],1,right,['8'],4,179,[-0.07454599],69,44,hard,minus,dotcolour,beta,,,10,18,V,R,
636,6,6,15,5,47,33,915,['c'],1,left,['8'],4,192,[0.10303088],88,47,medium,minus,dotcolour,beta,,,10,18,V,R,
637,7,7,15,5,53,27,415,['c'],1,left,['9'],5,313,[0.10902155],85,53,easy,minus,dotcolour,beta,,,10,18,V,R,
638,8,8,15,5,27,53,582,['n'],1,right,['9'],5,279,[-0.1229358],91,53,easy,minus,dotcolour,beta,,,10,18,V,R,
639,9,9,15,5,36,44,1067,['n'],1,right,['9'],5,171,[-0.08036617],75,44,hard,minus,dotcolour,beta,,,10,18,V,R,
640,10,10,15,5,44,36,732,['c'],1,left,['9'],5,168,[0.1019226],88,44,hard,minus,dotcolour,beta,,,10,18,V,R,
641,11,11,15,5,27,53,649,['c'],0,right,['9'],5,193,[-0.04308524],2,53,easy,minus,dotcolour,beta,,,10,18,V,R,
642,12,12,15,5,53,27,832,['c'],1,left,['8'],4,106,[0.04993422],42,53,easy,minus,dotcolour,beta,,,10,18,V,R,
643,13,13,15,5,27,53,315,['c'],0,right,['8'],4,210,[-0.08672456],0,53,easy,minus,dotcolour,beta,,,10,18,V,R,
644,14,14,15,5,44,36,714,['n'],0,left,['8'],4,166,[-0.01919861],17,44,hard,minus,dotcolour,beta,,,10,18,V,R,
645,15,15,15,5,33,47,717,['n'],1,right,['8'],4,228,[-0.07764118],70,47,medium,minus,dotcolour,beta,,,10,18,V,R,
646,16,16,15,5,27,53,648,['n'],1,right,['8'],4,178,[-0.06468105],60,53,easy,minus,dotcolour,beta,,,10,18,V,R,
647,17,17,15,5,47,33,565,['c'],1,left,['8'],4,190,[0.06300203],58,47,medium,minus,dotcolour,beta,,,10,18,V,R,
648,18,18,15,5,53,27,682,['c'],1,left,['9'],5,269,[0.11062837],87,53,easy,minus,dotcolour,beta,,,10,18,V,R,
649,19,19,15,5,47,33,348,['c'],1,left,['9'],5,470,[0.09392329],73,47,medium,minus,dotcolour,beta,,,10,18,V,R,
650,20,20,15,5,27,53,564,['n'],1,right,['9'],5,222,[-0.18836039],99,53,easy,minus,dotcolour,beta,,,10,18,V,R,
651,21,21,15,5,36,44,649,['n'],1,right,['9'],5,268,[0.01949891],7,44,hard,minus,dotcolour,beta,,,10,18,V,R,
652,22,22,15,5,27,53,699,['n'],1,right,['9'],5,167,[-0.11298445],93,53,easy,minus,dotcolour,beta,,,10,18,V,R,
653,23,23,15,5,53,27,531,['c'],1,left,['0'],6,341,[0.09386971],77,53,easy,minus,dotcolour,beta,,,10,18,V,R,
654,24,24,15,5,44,36,1115,['c'],1,left,['9'],5,123,[0.1071363],93,44,hard,minus,dotcolour,beta,,,10,18,V,R,
655,25,25,15,5,33,47,882,['c'],0,right,['0'],6,126,[0.02226175],16,47,medium,minus,dotcolour,beta,,,10,18,V,R,
656,26,26,15,5,27,53,947,['n'],1,right,['8'],4,243,[-0.09386669],80,53,easy,minus,dotcolour,beta,,,10,18,V,R,
657,27,27,15,5,36,44,1398,['c'],0,right,['9'],5,179,[0.0351427],30,44,hard,minus,dotcolour,beta,,,10,18,V,R,
658,28,28,15,5,47,33,699,['c'],1,left,['9'],5,154,[0.013773],13,47,medium,minus,dotcolour,beta,,,10,18,V,R,
659,29,29,15,5,36,44,549,['c'],0,right,['8'],4,167,[0.14129252],98,44,hard,minus,dotcolour,beta,,,10,18,V,R,
660,30,30,15,5,36,44,465,['c'],0,right,['8'],4,135,[0.02077246],15,44,hard,minus,dotcolour,beta,,,10,18,V,R,
661,31,31,15,5,47,33,2615,['n'],0,left,['8'],4,155,[-0.02145044],17,47,medium,minus,dotcolour,beta,,,10,18,V,R,
662,32,32,15,5,33,47,1217,['n'],1,right,['8'],4,213,[-0.11397434],91,47,medium,minus,dotcolour,beta,,,10,18,V,R,
663,33,33,15,5,47,33,582,['n'],0,left,['8'],4,167,[-0.08542951],79,47,medium,minus,dotcolour,beta,,,10,18,V,R,
664,34,34,15,5,53,27,499,['n'],0,left,['8'],4,254,[-0.06510139],58,53,easy,minus,dotcolour,beta,,,10,18,V,R,
665,35,35,15,5,53,27,849,['n'],0,left,['8'],4,155,[-0.00530923],9,53,easy,minus,dotcolour,beta,,,10,18,V,R,
666,36,36,15,5,44,36,581,['n'],0,left,['8'],4,167,[-0.00459816],10,44,hard,minus,dotcolour,beta,,,10,18,V,R,
667,37,37,15,5,33,47,699,['n'],1,right,['8'],4,174,[-0.14046391],98,47,medium,minus,dotcolour,beta,,,10,18,V,R,
668,38,38,15,5,44,36,449,['c'],1,left,['8'],4,159,[0.0905751],83,44,hard,minus,dotcolour,beta,,,10,18,V,R,
669,39,39,15,5,33,47,582,['n'],1,right,['8'],4,147,[-0.12135247],96,47,medium,minus,dotcolour,beta,,,10,18,V,R,
670,40,40,15,5,36,44,584,['n'],1,right,['8'],4,199,[-0.05153117],46,44,hard,minus,dotcolour,beta,,,10,18,V,R,
671,41,41,15,5,33,47,649,['n'],1,right,['8'],4,222,[-0.12871437],94,47,medium,minus,dotcolour,beta,,,10,18,V,R,
672,42,0,16,5,47,33,699,['c'],1,left,['8'],4,224,[0.11780244],91,47,medium,minus,dotcolour,beta,,,10,18,V,R,
673,43,1,16,5,53,27,533,['c'],1,left,['8'],4,155,[0.07538149],71,53,easy,minus,dotcolour,beta,,,10,18,V,R,
674,44,2,16,5,53,27,466,['c'],1,left,['8'],4,147,[0.0824382],78,53,easy,minus,dotcolour,beta,,,10,18,V,R,
675,45,3,16,5,44,36,597,['c'],1,left,['8'],4,142,[0.06595761],62,44,hard,minus,dotcolour,beta,,,10,18,V,R,
676,46,4,16,5,27,53,382,['c'],0,right,['2'],2,875,[-0.04687829],12,53,easy,minus,dotcolour,beta,,,10,18,V,R,
677,47,5,16,5,33,47,984,['n'],1,right,['8'],4,202,[-0.12671208],95,47,medium,minus,dotcolour,beta,,,10,18,V,R,
678,48,6,16,5,47,33,464,['c'],1,left,['8'],4,169,[0.15526106],99,47,medium,minus,dotcolour,beta,,,10,18,V,R,
679,49,7,16,5,36,44,598,['c'],0,right,['8'],4,156,[0.02768861],22,44,hard,minus,dotcolour,beta,,,10,18,V,R,
680,50,8,16,5,47,33,631,['c'],1,left,['8'],4,102,[0.11066825],96,47,medium,minus,dotcolour,beta,,,10,18,V,R,
681,51,9,16,5,27,53,748,['n'],1,right,['8'],4,157,[-0.09319334],85,53,easy,minus,dotcolour,beta,,,10,18,V,R,
682,52,10,16,5,44,36,632,['n'],0,left,['8'],4,215,[-0.07295626],66,44,hard,minus,dotcolour,beta,,,10,18,V,R,
683,53,11,16,5,33,47,563,['n'],1,right,['8'],4,169,[-0.099447],87,47,medium,minus,dotcolour,beta,,,10,18,V,R,
684,54,12,16,5,36,44,782,['n'],1,right,['9'],5,205,[-0.01469366],16,44,hard,minus,dotcolour,beta,,,10,18,V,R,
685,55,13,16,5,33,47,648,['n'],1,right,['9'],5,132,[-0.08690311],83,47,medium,minus,dotcolour,beta,,,10,18,V,R,
686,56,14,16,5,27,53,447,['n'],1,right,['9'],5,215,[-0.06934334],63,53,easy,minus,dotcolour,beta,,,10,18,V,R,
687,57,15,16,5,27,53,382,['n'],1,right,['8'],4,152,[-0.12040465],95,53,easy,minus,dotcolour,beta,,,10,18,V,R,
688,58,16,16,5,36,44,533,['n'],1,right,['9'],5,167,[-0.06935348],65,44,hard,minus,dotcolour,beta,,,10,18,V,R,
689,59,17,16,5,33,47,465,['n'],1,right,['8'],4,151,[-0.11468633],94,47,medium,minus,dotcolour,beta,,,10,18,V,R,
690,60,18,16,5,27,53,367,['n'],1,right,['8'],4,148,[-0.03193247],25,53,easy,minus,dotcolour,beta,,,10,18,V,R,
691,61,19,16,5,44,36,682,['c'],1,left,['8'],4,124,[0.09973437],91,44,hard,minus,dotcolour,beta,,,10,18,V,R,
692,62,20,16,5,44,36,632,['c'],1,left,['8'],4,111,[0.03732616],27,44,hard,minus,dotcolour,beta,,,10,18,V,R,
693,63,21,16,5,53,27,531,['c'],1,left,['9'],5,111,[0.08252096],81,53,easy,minus,dotcolour,beta,,,10,18,V,R,
694,64,22,16,5,44,36,449,['c'],1,left,['9'],5,121,[0.05149325],45,44,hard,minus,dotcolour,beta,,,10,18,V,R,
695,65,23,16,5,27,53,866,['n'],1,right,['8'],4,164,[-0.06443439],60,53,easy,minus,dotcolour,beta,,,10,18,V,R,
696,66,24,16,5,47,33,1115,['c'],1,left,['8'],4,106,[0.11145987],96,47,medium,minus,dotcolour,beta,,,10,18,V,R,
697,67,25,16,5,27,53,949,['n'],1,right,['9'],5,162,[-0.13539282],97,53,easy,minus,dotcolour,beta,,,10,18,V,R,
698,68,26,16,5,33,47,832,['n'],1,right,['8'],4,147,[-0.11309136],94,47,medium,minus,dotcolour,beta,,,10,18,V,R,
699,69,27,16,5,44,36,898,['c'],1,left,['8'],4,187,[0.05004236],44,44,hard,minus,dotcolour,beta,,,10,18,V,R,
700,70,28,16,5,33,47,681,['n'],1,right,['8'],4,138,[-0.05373724],48,47,medium,minus,dotcolour,beta,,,10,18,V,R,
701,71,29,16,5,47,33,866,['c'],1,left,['8'],4,108,[0.02825481],18,47,medium,minus,dotcolour,beta,,,10,18,V,R,
702,72,30,16,5,53,27,632,['c'],1,left,['8'],4,128,[0.12004354],96,53,easy,minus,dotcolour,beta,,,10,18,V,R,
703,73,31,16,5,36,44,1099,['n'],1,right,['8'],4,168,[-0.05332994],48,44,hard,minus,dotcolour,beta,,,10,18,V,R,
704,74,32,16,5,53,27,716,['n'],0,left,['8'],4,150,[-0.04599442],39,53,easy,minus,dotcolour,beta,,,10,18,V,R,
705,75,33,16,5,53,27,882,['n'],0,left,['8'],4,143,[-0.0322192],25,53,easy,minus,dotcolour,beta,,,10,18,V,R,
706,76,34,16,5,36,44,748,['n'],1,right,['8'],4,141,[-0.12876668],97,44,hard,minus,dotcolour,beta,,,10,18,V,R,
707,77,35,16,5,33,47,564,['n'],1,right,['8'],4,154,[-0.05354696],48,47,medium,minus,dotcolour,beta,,,10,18,V,R,
708,78,36,16,5,47,33,531,['c'],1,left,['8'],4,177,[0.12228952],95,47,medium,minus,dotcolour,beta,,,10,18,V,R,
709,79,37,16,5,36,44,482,['c'],0,right,['8'],4,183,[0.13687346],97,44,hard,minus,dotcolour,beta,,,10,18,V,R,
710,80,38,16,5,36,44,1132,['n'],1,right,['8'],4,165,[-0.12321075],95,44,hard,minus,dotcolour,beta,,,10,18,V,R,
711,81,39,16,5,53,27,532,['c'],1,left,['9'],5,234,[0.08220428],73,53,easy,minus,dotcolour,beta,,,10,18,V,R,
712,82,40,16,5,44,36,499,['c'],1,left,['9'],5,134,[0.10855478],93,44,hard,minus,dotcolour,beta,,,10,18,V,R,
713,83,41,16,5,47,33,749,['n'],0,left,['8'],4,181,[-0.00512286],11,47,medium,minus,dotcolour,beta,,,10,18,V,R,
714,84,0,17,5,36,44,733,['n'],1,right,['8'],4,166,[-0.05196015],46,44,hard,minus,dotcolour,beta,,,10,18,V,R,
715,85,1,17,5,27,53,549,['n'],1,right,['8'],4,387,[-0.18029668],97,53,easy,minus,dotcolour,beta,,,10,18,V,R,
716,86,2,17,5,36,44,750,['c'],0,right,['8'],4,158,[0.10052503],88,44,hard,minus,dotcolour,beta,,,10,18,V,R,
717,87,3,17,5,36,44,1501,['c'],0,right,['8'],4,125,[0.03665068],28,44,hard,minus,dotcolour,beta,,,10,18,V,R,
718,88,4,17,5,53,27,682,['c'],1,left,['8'],4,255,[0.15877078],98,53,easy,minus,dotcolour,beta,,,10,18,V,R,
719,89,5,17,5,27,53,666,['n'],1,right,['8'],4,179,[-0.07223375],67,53,easy,minus,dotcolour,beta,,,10,18,V,R,
720,90,6,17,5,27,53,949,['n'],1,right,['8'],4,143,[-0.10622483],92,53,easy,minus,dotcolour,beta,,,10,18,V,R,
721,91,7,17,5,44,36,915,['n'],0,left,['8'],4,150,[-0.0837286],79,44,hard,minus,dotcolour,beta,,,10,18,V,R,
722,92,8,17,5,53,27,1115,['c'],1,left,['8'],4,149,[0.10005528],89,53,easy,minus,dotcolour,beta,,,10,18,V,R,
723,93,9,17,5,27,53,648,['n'],1,right,['8'],4,167,[-0.13238003],97,53,easy,minus,dotcolour,beta,,,10,18,V,R,
724,94,10,17,5,27,53,765,['n'],1,right,['8'],4,155,[0.02971999],2,53,easy,minus,dotcolour,beta,,,10,18,V,R,
725,95,11,17,5,44,36,681,['c'],1,left,['8'],4,99,[0.08155509],82,44,hard,minus,dotcolour,beta,,,10,18,V,R,
726,96,12,17,5,47,33,649,['c'],1,left,['8'],4,110,[0.13557579],99,47,medium,minus,dotcolour,beta,,,10,18,V,R,
727,97,13,17,5,33,47,649,['n'],1,right,['8'],4,129,[-0.02609665],19,47,medium,minus,dotcolour,beta,,,10,18,V,R,
728,98,14,17,5,27,53,749,['c'],0,right,['8'],4,128,[0.02219627],16,53,easy,minus,dotcolour,beta,,,10,18,V,R,
729,99,15,17,5,36,44,866,['c'],0,right,['8'],4,97,[0.11445282],97,44,hard,minus,dotcolour,beta,,,10,18,V,R,
730,100,16,17,5,44,36,714,['n'],0,left,['8'],4,162,[-0.0283854],23,44,hard,minus,dotcolour,beta,,,10,18,V,R,
731,101,17,17,5,47,33,582,['c'],1,left,['9'],5,238,[-0.00329404],10,47,medium,minus,dotcolour,beta,,,10,18,V,R,
732,102,18,17,5,36,44,499,['c'],0,right,['9'],5,217,[0.14419985],97,44,hard,minus,dotcolour,beta,,,10,18,V,R,
733,103,19,17,5,47,33,465,['c'],1,left,['8'],4,152,[0.09385601],85,47,medium,minus,dotcolour,beta,,,10,18,V,R,
734,104,20,17,5,53,27,666,['c'],1,left,['8'],4,416,[0.12514042],87,53,easy,minus,dotcolour,beta,,,10,18,V,R,
735,105,21,17,5,36,44,598,['n'],1,right,['8'],4,161,[-0.05576523],50,44,hard,minus,dotcolour,beta,,,10,18,V,R,
736,106,22,17,5,33,47,948,['n'],1,right,['8'],4,142,[-0.10983856],93,47,medium,minus,dotcolour,beta,,,10,18,V,R,
737,107,23,17,5,44,36,432,['c'],1,left,['9'],5,184,[0.04739319],42,44,hard,minus,dotcolour,beta,,,10,18,V,R,
738,108,24,17,5,47,33,499,['c'],1,left,['9'],5,127,[0.02470611],17,47,medium,minus,dotcolour,beta,,,10,18,V,R,
739,109,25,17,5,33,47,748,['n'],1,right,['8'],4,189,[-0.19879376],100,47,medium,minus,dotcolour,beta,,,10,18,V,R,
740,110,26,17,5,44,36,815,['c'],1,left,['9'],5,190,[0.03182884],27,44,hard,minus,dotcolour,beta,,,10,18,V,R,
741,111,27,17,5,47,33,566,['c'],1,left,['9'],5,138,[0.07630155],73,47,medium,minus,dotcolour,beta,,,10,18,V,R,
742,112,28,17,5,53,27,580,['c'],1,left,['9'],5,174,[0.12054617],94,53,easy,minus,dotcolour,beta,,,10,18,V,R,
743,113,29,17,5,44,36,317,['c'],1,left,['9'],5,196,[0.13169484],96,44,hard,minus,dotcolour,beta,,,10,18,V,R,
744,114,30,17,5,53,27,382,['c'],1,left,['9'],5,158,[0.09023135],83,53,easy,minus,dotcolour,beta,,,10,18,V,R,
745,115,31,17,5,33,47,598,['n'],1,right,['8'],4,169,[-0.06125047],56,47,medium,minus,dotcolour,beta,,,10,18,V,R,
746,116,32,17,5,53,27,782,['c'],1,left,['8'],4,117,[0.11173744],95,53,easy,minus,dotcolour,beta,,,10,18,V,R,
747,117,33,17,5,47,33,600,['c'],1,left,['8'],4,114,[0.11082013],95,47,medium,minus,dotcolour,beta,,,10,18,V,R,
748,118,34,17,5,47,33,465,['c'],1,left,['8'],4,140,[0.08350704],79,47,medium,minus,dotcolour,beta,,,10,18,V,R,
749,119,35,17,5,36,44,499,['c'],0,right,['8'],4,220,[0.06388173],58,44,hard,minus,dotcolour,beta,,,10,18,V,R,
750,120,36,17,5,33,47,547,['n'],1,right,['9'],5,223,[-0.10479021],87,47,medium,minus,dotcolour,beta,,,10,18,V,R,
751,121,37,17,5,53,27,831,['c'],1,left,['9'],5,382,[0.10597169],81,53,easy,minus,dotcolour,beta,,,10,18,V,R,
752,122,38,17,5,27,53,980,['n'],1,right,['8'],4,169,[-0.11589254],93,53,easy,minus,dotcolour,beta,,,10,18,V,R,
753,123,39,17,5,33,47,481,['c'],0,right,['8'],4,129,[0.09142593],86,47,medium,minus,dotcolour,beta,,,10,18,V,R,
754,124,40,17,5,33,47,715,['c'],0,right,['8'],4,193,[0.08857563],79,47,medium,minus,dotcolour,beta,,,10,18,V,R,
755,125,41,17,5,44,36,749,['n'],0,left,['8'],4,164,[-0.08212606],77,44,hard,minus,dotcolour,beta,,,10,18,V,R,
,,,,,,,,,,,,,,,,,,,,,1,de mate van zekerheid stonden vaak in een andere volgorde op de balk ,10,18,V,R,
,,,,,,,,,,,,,,,,,,,,,2,['f'],10,18,V,R,
,,,,,,,,,,,,,,,,,,,,,3,['d'],10,18,V,R,
,,,,,,,,,,,,,,,,,,,,,5,['1'],10,18,V,R,
