trial,withinphasetrial,withinblocktrial,block,phase,dotsLeft,dotsRight,rt,resp,cor,cresp,conf_press,cj,RTconf,ev,fb,diff,difflevel,condition,task,manip,questionID,questionResp,sub,age,gender,handedness,
0,0,0,0,0,44,36,1969,['n'],0,left,['8'],4,4502,[0.19495608],30,44,hard,minus,dotcolour,alfa,,,115,19,V,R,
1,1,1,0,0,44,36,2951,['c'],1,left,['8'],4,1171,[0.21350796],86,44,hard,minus,dotcolour,alfa,,,115,19,V,R,
2,2,2,0,0,53,27,2134,['c'],1,left,['0'],6,1335,[0.11145333],70,53,easy,minus,dotcolour,alfa,,,115,19,V,R,
3,3,3,0,0,33,47,1517,['n'],1,right,['9'],5,2478,[-0.3534312],88,47,medium,minus,dotcolour,alfa,,,115,19,V,R,
4,4,4,0,0,44,36,1452,['c'],1,left,['8'],4,1113,[-0.04865209],40,44,hard,minus,dotcolour,alfa,,,115,19,V,R,
5,5,5,0,0,53,27,1500,['c'],1,left,['8'],4,1417,[0.12419686],72,53,easy,minus,dotcolour,alfa,,,115,19,V,R,
6,6,6,0,0,36,44,2018,['c'],0,right,['3'],3,624,[0.08414168],72,44,hard,minus,dotcolour,alfa,,,115,19,V,R,
7,7,7,0,0,47,33,1068,['c'],1,left,['3'],3,470,[0.09094004],77,47,medium,minus,dotcolour,alfa,,,115,19,V,R,
8,8,8,0,0,27,53,883,['n'],1,right,['0'],6,1144,[-0.29164155],92,53,easy,minus,dotcolour,alfa,,,115,19,V,R,
9,9,9,0,0,33,47,1066,['n'],1,right,['9'],5,858,[-0.0518027],62,47,medium,minus,dotcolour,alfa,,,115,19,V,R,
10,10,10,0,0,27,53,916,['n'],1,right,['9'],5,603,[-0.19754342],91,53,easy,minus,dotcolour,alfa,,,115,19,V,R,
11,11,11,0,0,47,33,918,['c'],1,left,['9'],5,1287,[0.12819168],73,47,medium,minus,dotcolour,alfa,,,115,19,V,R,
12,12,12,0,0,33,47,934,['n'],1,right,['0'],6,736,[-0.12931394],80,47,medium,minus,dotcolour,alfa,,,115,19,V,R,
13,13,13,0,0,44,36,1050,['c'],1,left,['8'],4,1040,[0.12746521],75,44,hard,minus,dotcolour,alfa,,,115,19,V,R,
14,14,14,0,0,27,53,883,['n'],1,right,['0'],6,1020,[-0.23777344],89,53,easy,minus,dotcolour,alfa,,,115,19,V,R,
15,15,15,0,0,53,27,1184,['c'],1,left,['0'],6,2109,[0.09137587],64,53,easy,minus,dotcolour,alfa,,,115,19,V,R,
16,16,16,0,0,36,44,1733,['n'],1,right,['8'],4,477,[-0.16020394],89,44,hard,minus,dotcolour,alfa,,,115,19,V,R,
17,17,17,0,0,47,33,1850,['c'],1,left,['8'],4,648,[0.21534047],92,47,medium,minus,dotcolour,alfa,,,115,19,V,R,
18,18,18,0,0,33,47,1401,['n'],1,right,['0'],6,663,[-0.10997441],77,47,medium,minus,dotcolour,alfa,,,115,19,V,R,
19,19,19,0,0,53,27,1101,['n'],0,left,['0'],6,594,[0.09386474],25,53,easy,minus,dotcolour,alfa,,,115,19,V,R,
20,20,20,0,0,36,44,1784,['c'],0,right,['8'],4,1180,[-0.07919483],34,44,hard,minus,dotcolour,alfa,,,115,19,V,R,
21,21,21,0,0,36,44,1583,['n'],1,right,['9'],5,943,[-0.01284689],53,44,hard,minus,dotcolour,alfa,,,115,19,V,R,
22,22,22,0,0,53,27,1334,['c'],1,left,['9'],5,739,[0.12840079],79,53,easy,minus,dotcolour,alfa,,,115,19,V,R,
23,23,23,0,0,27,53,1017,['n'],1,right,['0'],6,814,[-0.25824931],93,53,easy,minus,dotcolour,alfa,,,115,19,V,R,
24,24,24,0,0,47,33,2115,['n'],0,left,['8'],4,754,[-0.03133473],58,47,medium,minus,dotcolour,alfa,,,115,19,V,R,
25,25,25,0,0,47,33,1384,['c'],1,left,['8'],4,1782,[0.2940919],88,47,medium,minus,dotcolour,alfa,,,115,19,V,R,
26,26,26,0,0,53,27,1101,['c'],1,left,['9'],5,923,[0.31062296],95,53,easy,minus,dotcolour,alfa,,,115,19,V,R,
27,27,27,0,0,36,44,1201,['n'],1,right,['8'],4,655,[-0.15462981],85,44,hard,minus,dotcolour,alfa,,,115,19,V,R,
28,28,28,0,0,47,33,1083,['c'],1,left,['9'],5,1010,[0.13339773],77,47,medium,minus,dotcolour,alfa,,,115,19,V,R,
29,29,29,0,0,36,44,883,['n'],1,right,['0'],6,768,[-0.03710657],59,44,hard,minus,dotcolour,alfa,,,115,19,V,R,
30,30,30,0,0,33,47,1251,['c'],0,right,['8'],4,623,[0.08313711],72,47,medium,minus,dotcolour,alfa,,,115,19,V,R,
31,31,31,0,0,44,36,1000,['c'],1,left,['8'],4,704,[0.17797155],87,44,hard,minus,dotcolour,alfa,,,115,19,V,R,
32,32,32,0,0,44,36,1101,['n'],0,left,['0'],6,648,[0.02385915],43,44,hard,minus,dotcolour,alfa,,,115,19,V,R,
33,33,33,0,0,33,47,1251,['n'],1,right,['0'],6,493,[-0.1439908],86,47,medium,minus,dotcolour,alfa,,,115,19,V,R,
34,34,34,0,0,44,36,1200,['c'],1,left,['3'],3,1355,[-0.01191761],48,44,hard,minus,dotcolour,alfa,,,115,19,V,R,
35,35,35,0,0,27,53,684,['n'],1,right,['0'],6,1299,[-0.32500824],93,53,easy,minus,dotcolour,alfa,,,115,19,V,R,
36,36,36,0,0,53,27,1184,['c'],1,left,['8'],4,1240,[0.20356047],84,53,easy,minus,dotcolour,alfa,,,115,19,V,R,
37,37,37,0,0,33,47,851,['n'],1,right,['0'],6,573,[-0.11668424],80,47,medium,minus,dotcolour,alfa,,,115,19,V,R,
38,38,38,0,0,36,44,1117,['n'],1,right,['2'],2,2010,[-0.22427768],81,44,hard,minus,dotcolour,alfa,,,115,19,V,R,
39,39,39,0,0,27,53,1068,['n'],1,right,['0'],6,751,[-0.20220349],89,53,easy,minus,dotcolour,alfa,,,115,19,V,R,
40,40,40,0,0,47,33,1400,['c'],1,left,['9'],5,962,[0.12081325],75,47,medium,minus,dotcolour,alfa,,,115,19,V,R,
41,41,41,0,0,27,53,1450,['n'],1,right,['8'],4,836,[-0.35881442],97,53,easy,minus,dotcolour,alfa,,,115,19,V,R,
42,42,0,1,0,36,44,1032,['n'],1,right,['0'],6,676,[-0.13189193],81,44,hard,minus,dotcolour,alfa,,,115,19,V,R,
43,43,1,1,0,44,36,2432,['c'],1,left,['8'],4,417,[0.01261857],54,44,hard,minus,dotcolour,alfa,,,115,19,V,R,
44,44,2,1,0,36,44,1066,['n'],1,right,['0'],6,831,[-0.28403079],94,44,hard,minus,dotcolour,alfa,,,115,19,V,R,
45,45,3,1,0,47,33,983,['c'],1,left,['8'],4,479,[0.1804232],91,47,medium,minus,dotcolour,alfa,,,115,19,V,R,
46,46,4,1,0,47,33,1034,['c'],1,left,['8'],4,348,[0.09431121],81,47,medium,minus,dotcolour,alfa,,,115,19,V,R,
47,47,5,1,0,44,36,1467,['n'],0,left,['0'],6,493,[-0.07675304],73,44,hard,minus,dotcolour,alfa,,,115,19,V,R,
48,48,6,1,0,53,27,1667,['c'],1,left,['9'],5,471,[0.2353016],96,53,easy,minus,dotcolour,alfa,,,115,19,V,R,
49,49,7,1,0,47,33,1835,['c'],1,left,['9'],5,364,[0.0571421],70,47,medium,minus,dotcolour,alfa,,,115,19,V,R,
50,50,8,1,0,27,53,1219,['n'],1,right,['9'],5,1126,[-0.29288868],92,53,easy,minus,dotcolour,alfa,,,115,19,V,R,
51,51,9,1,0,53,27,1034,['c'],1,left,['9'],5,456,[0.27589945],98,53,easy,minus,dotcolour,alfa,,,115,19,V,R,
52,52,10,1,0,53,27,734,['c'],1,left,['0'],6,465,[0.19891898],93,53,easy,minus,dotcolour,alfa,,,115,19,V,R,
53,53,11,1,0,33,47,817,['n'],1,right,['0'],6,408,[-0.20029187],94,47,medium,minus,dotcolour,alfa,,,115,19,V,R,
54,54,12,1,0,33,47,1317,['c'],0,right,['9'],5,572,[-0.02203642],43,47,medium,minus,dotcolour,alfa,,,115,19,V,R,
55,55,13,1,0,36,44,1917,['n'],1,right,['9'],5,625,[-0.01557882],54,44,hard,minus,dotcolour,alfa,,,115,19,V,R,
56,56,14,1,0,47,33,1101,['c'],1,left,['9'],5,356,[0.10381362],83,47,medium,minus,dotcolour,alfa,,,115,19,V,R,
57,57,15,1,0,27,53,1234,['n'],1,right,['0'],6,398,[-0.18880564],94,53,easy,minus,dotcolour,alfa,,,115,19,V,R,
58,58,16,1,0,53,27,1351,['c'],1,left,['9'],5,314,[0.05057754],69,53,easy,minus,dotcolour,alfa,,,115,19,V,R,
59,59,17,1,0,36,44,866,['c'],0,right,['9'],5,275,[-0.0023836],49,44,hard,minus,dotcolour,alfa,,,115,19,V,R,
60,60,18,1,0,36,44,1733,['n'],1,right,['9'],5,508,[-0.01942885],56,44,hard,minus,dotcolour,alfa,,,115,19,V,R,
61,61,19,1,0,33,47,1151,['c'],0,right,['9'],5,411,[-0.0227972],42,47,medium,minus,dotcolour,alfa,,,115,19,V,R,
62,62,20,1,0,44,36,1500,['c'],1,left,['9'],5,440,[0.28177693],98,44,hard,minus,dotcolour,alfa,,,115,19,V,R,
63,63,21,1,0,53,27,850,['c'],1,left,['9'],5,389,[0.21299446],96,53,easy,minus,dotcolour,alfa,,,115,19,V,R,
64,64,22,1,0,33,47,1785,['c'],0,right,['0'],6,558,[0.01448772],54,47,medium,minus,dotcolour,alfa,,,115,19,V,R,
65,65,23,1,0,44,36,784,['n'],0,left,['9'],5,450,[-0.06175048],70,44,hard,minus,dotcolour,alfa,,,115,19,V,R,
66,66,24,1,0,47,33,1017,['n'],0,left,['9'],5,401,[-0.05049574],67,47,medium,minus,dotcolour,alfa,,,115,19,V,R,
67,67,25,1,0,44,36,1185,['c'],1,left,['9'],5,395,[0.08427566],77,44,hard,minus,dotcolour,alfa,,,115,19,V,R,
68,68,26,1,0,53,27,1401,['c'],1,left,['9'],5,316,[0.12435403],88,53,easy,minus,dotcolour,alfa,,,115,19,V,R,
69,69,27,1,0,33,47,1234,['n'],1,right,['9'],5,359,[-0.12604323],87,47,medium,minus,dotcolour,alfa,,,115,19,V,R,
70,70,28,1,0,44,36,1234,['c'],1,left,['9'],5,273,[0.13652236],91,44,hard,minus,dotcolour,alfa,,,115,19,V,R,
71,71,29,1,0,27,53,984,['n'],1,right,['0'],6,383,[-0.07778816],76,53,easy,minus,dotcolour,alfa,,,115,19,V,R,
72,72,30,1,0,33,47,1465,['n'],1,right,['0'],6,344,[-0.03502196],63,47,medium,minus,dotcolour,alfa,,,115,19,V,R,
73,73,31,1,0,27,53,883,['n'],1,right,['0'],6,367,[-0.08768369],79,53,easy,minus,dotcolour,alfa,,,115,19,V,R,
74,74,32,1,0,53,27,1233,['c'],1,left,['9'],5,320,[0.12457864],88,53,easy,minus,dotcolour,alfa,,,115,19,V,R,
75,75,33,1,0,36,44,900,['n'],1,right,['9'],5,377,[-0.11074224],84,44,hard,minus,dotcolour,alfa,,,115,19,V,R,
76,76,34,1,0,27,53,916,['n'],1,right,['0'],6,517,[-0.14608302],86,53,easy,minus,dotcolour,alfa,,,115,19,V,R,
77,77,35,1,0,47,33,718,['c'],1,left,['9'],5,429,[0.03159665],61,47,medium,minus,dotcolour,alfa,,,115,19,V,R,
78,78,36,1,0,44,36,899,['c'],1,left,['9'],5,459,[0.08003668],74,44,hard,minus,dotcolour,alfa,,,115,19,V,R,
79,79,37,1,0,36,44,1001,['n'],1,right,['9'],5,489,[-0.05360674],67,44,hard,minus,dotcolour,alfa,,,115,19,V,R,
80,80,38,1,0,47,33,818,['c'],1,left,['9'],5,477,[0.14432307],87,47,medium,minus,dotcolour,alfa,,,115,19,V,R,
81,81,39,1,0,27,53,700,['n'],1,right,['0'],6,415,[-0.132686],86,53,easy,minus,dotcolour,alfa,,,115,19,V,R,
82,82,40,1,0,27,53,701,['n'],1,right,['0'],6,340,[-0.09126429],80,53,easy,minus,dotcolour,alfa,,,115,19,V,R,
83,83,41,1,0,33,47,1267,['n'],1,right,['0'],6,349,[-0.20764436],96,47,medium,minus,dotcolour,alfa,,,115,19,V,R,
84,84,0,2,0,44,36,1468,['c'],1,left,['9'],5,262,[0.03082725],63,44,hard,minus,dotcolour,alfa,,,115,19,V,R,
85,85,1,2,0,33,47,684,['n'],1,right,['0'],6,313,[-0.00145246],51,47,medium,minus,dotcolour,alfa,,,115,19,V,R,
86,86,2,2,0,44,36,1101,['c'],1,left,['8'],4,274,[0.0530071],71,44,hard,minus,dotcolour,alfa,,,115,19,V,R,
87,87,3,2,0,27,53,1117,['n'],1,right,['0'],6,516,[0.00290266],49,53,easy,minus,dotcolour,alfa,,,115,19,V,R,
88,88,4,2,0,53,27,900,['c'],1,left,['0'],6,396,[0.06408223],71,53,easy,minus,dotcolour,alfa,,,115,19,V,R,
89,89,5,2,0,33,47,1484,['n'],1,right,['0'],6,617,[-0.05214492],65,47,medium,minus,dotcolour,alfa,,,115,19,V,R,
90,90,6,2,0,53,27,884,['c'],1,left,['0'],6,399,[0.19265379],94,53,easy,minus,dotcolour,alfa,,,115,19,V,R,
91,91,7,2,0,36,44,982,['n'],1,right,['3'],3,2376,[-0.16682084],73,44,hard,minus,dotcolour,alfa,,,115,19,V,R,
92,92,8,2,0,53,27,1184,['c'],1,left,['9'],5,282,[0.05681169],72,53,easy,minus,dotcolour,alfa,,,115,19,V,R,
93,93,9,2,0,47,33,2050,['n'],0,left,['9'],5,774,[-0.15665957],83,47,medium,minus,dotcolour,alfa,,,115,19,V,R,
94,94,10,2,0,47,33,2767,['n'],0,left,['0'],6,1746,[0.06749895],39,47,medium,minus,dotcolour,alfa,,,115,19,V,R,
95,95,11,2,0,33,47,1333,['n'],1,right,['9'],5,464,[-0.18112258],92,47,medium,minus,dotcolour,alfa,,,115,19,V,R,
96,96,12,2,0,44,36,1084,['c'],1,left,['8'],4,594,[0.10104314],76,44,hard,minus,dotcolour,alfa,,,115,19,V,R,
97,97,13,2,0,33,47,701,['n'],1,right,['9'],5,431,[-0.12518192],85,47,medium,minus,dotcolour,alfa,,,115,19,V,R,
98,98,14,2,0,27,53,784,['n'],1,right,['0'],6,384,[-0.08005986],76,53,easy,minus,dotcolour,alfa,,,115,19,V,R,
99,99,15,2,0,27,53,700,['n'],1,right,['0'],6,366,[-0.09962427],81,53,easy,minus,dotcolour,alfa,,,115,19,V,R,
100,100,16,2,0,36,44,1051,['n'],1,right,['0'],6,327,[-0.05216388],69,44,hard,minus,dotcolour,alfa,,,115,19,V,R,
101,101,17,2,0,27,53,1316,['n'],1,right,['9'],5,615,[-0.13017856],82,53,easy,minus,dotcolour,alfa,,,115,19,V,R,
102,102,18,2,0,44,36,767,['c'],1,left,['9'],5,448,[-0.03070902],40,44,hard,minus,dotcolour,alfa,,,115,19,V,R,
103,103,19,2,0,27,53,983,['n'],1,right,['9'],5,432,[-0.14534589],88,53,easy,minus,dotcolour,alfa,,,115,19,V,R,
104,104,20,2,0,36,44,949,['n'],1,right,['9'],5,490,[-0.04386271],64,44,hard,minus,dotcolour,alfa,,,115,19,V,R,
105,105,21,2,0,27,53,817,['n'],1,right,['0'],6,487,[-0.13480043],85,53,easy,minus,dotcolour,alfa,,,115,19,V,R,
106,106,22,2,0,47,33,700,['c'],1,left,['0'],6,568,[0.16861639],88,47,medium,minus,dotcolour,alfa,,,115,19,V,R,
107,107,23,2,0,36,44,883,['n'],1,right,['0'],6,359,[0.00912372],47,44,hard,minus,dotcolour,alfa,,,115,19,V,R,
108,108,24,2,0,53,27,901,['n'],0,left,['3'],3,1390,[-0.0061555],51,53,easy,minus,dotcolour,alfa,,,115,19,V,R,
109,109,25,2,0,47,33,1117,['c'],1,left,['0'],6,306,[0.10061856],84,47,medium,minus,dotcolour,alfa,,,115,19,V,R,
110,110,26,2,0,47,33,1100,['c'],1,left,['0'],6,283,[0.10868421],86,47,medium,minus,dotcolour,alfa,,,115,19,V,R,
111,111,27,2,0,53,27,701,['c'],1,left,['0'],6,340,[0.15037959],91,53,easy,minus,dotcolour,alfa,,,115,19,V,R,
112,112,28,2,0,44,36,835,['c'],1,left,['9'],5,807,[0.04098372],60,44,hard,minus,dotcolour,alfa,,,115,19,V,R,
113,113,29,2,0,44,36,1135,['n'],0,left,['8'],4,627,[-0.01112747],53,44,hard,minus,dotcolour,alfa,,,115,19,V,R,
114,114,30,2,0,36,44,1117,['n'],1,right,['9'],5,429,[-0.12492146],85,44,hard,minus,dotcolour,alfa,,,115,19,V,R,
115,115,31,2,0,33,47,1267,['n'],1,right,['8'],4,731,[-0.06957617],68,47,medium,minus,dotcolour,alfa,,,115,19,V,R,
116,116,32,2,0,53,27,816,['c'],1,left,['0'],6,366,[0.18308204],94,53,easy,minus,dotcolour,alfa,,,115,19,V,R,
117,117,33,2,0,36,44,866,['n'],1,right,['8'],4,359,[-0.18319244],94,44,hard,minus,dotcolour,alfa,,,115,19,V,R,
118,118,34,2,0,47,33,750,['c'],1,left,['0'],6,283,[0.0591887],73,47,medium,minus,dotcolour,alfa,,,115,19,V,R,
119,119,35,2,0,44,36,985,['n'],0,left,['0'],6,354,[-0.09274741],80,44,hard,minus,dotcolour,alfa,,,115,19,V,R,
120,120,36,2,0,33,47,1017,['n'],1,right,['8'],4,419,[-0.03890445],63,47,medium,minus,dotcolour,alfa,,,115,19,V,R,
121,121,37,2,0,47,33,1384,['c'],1,left,['9'],5,556,[0.17244443],89,47,medium,minus,dotcolour,alfa,,,115,19,V,R,
122,122,38,2,0,33,47,1166,['n'],1,right,['0'],6,408,[-0.07416257],74,47,medium,minus,dotcolour,alfa,,,115,19,V,R,
123,123,39,2,0,27,53,934,['n'],1,right,['9'],5,419,[-0.12181961],84,53,easy,minus,dotcolour,alfa,,,115,19,V,R,
124,124,40,2,0,36,44,800,['n'],1,right,['3'],3,1381,[-0.31410731],92,44,hard,minus,dotcolour,alfa,,,115,19,V,R,
125,125,41,2,0,53,27,1001,['c'],1,left,['0'],6,261,[0.10591761],87,53,easy,minus,dotcolour,alfa,,,115,19,V,R,
126,0,0,3,1,44,36,1651,['c'],1,left,['9'],5,405,[0.10899493],100,44,hard,plus,dotcolour,alfa,,,115,19,V,R,
127,1,1,3,1,33,47,1267,['n'],1,right,['0'],6,491,[-0.10328655],100,47,medium,plus,dotcolour,alfa,,,115,19,V,R,
128,2,2,3,1,33,47,1701,['n'],1,right,['0'],6,332,[-0.02671933],84,47,medium,plus,dotcolour,alfa,,,115,19,V,R,
129,3,3,3,1,44,36,1383,['c'],1,left,['9'],5,401,[0.05029448],95,44,hard,plus,dotcolour,alfa,,,115,19,V,R,
130,4,4,3,1,47,33,1084,['c'],1,left,['0'],6,231,[0.09923487],100,47,medium,plus,dotcolour,alfa,,,115,19,V,R,
131,5,5,3,1,33,47,950,['n'],1,right,['0'],6,274,[-0.04643846],96,47,medium,plus,dotcolour,alfa,,,115,19,V,R,
132,6,6,3,1,36,44,1251,['c'],0,right,['9'],5,269,[0.00843486],64,44,hard,plus,dotcolour,alfa,,,115,19,V,R,
133,7,7,3,1,53,27,866,['c'],1,left,['0'],6,321,[0.16238818],100,53,easy,plus,dotcolour,alfa,,,115,19,V,R,
134,8,8,3,1,47,33,1034,['n'],0,left,['0'],6,251,[-0.12565826],100,47,medium,plus,dotcolour,alfa,,,115,19,V,R,
135,9,9,3,1,33,47,1017,['n'],1,right,['0'],6,218,[-0.15762794],100,47,medium,plus,dotcolour,alfa,,,115,19,V,R,
136,10,10,3,1,53,27,700,['c'],1,left,['0'],6,191,[0.1362902],100,53,easy,plus,dotcolour,alfa,,,115,19,V,R,
137,11,11,3,1,33,47,934,['n'],1,right,['0'],6,211,[-0.08290036],100,47,medium,plus,dotcolour,alfa,,,115,19,V,R,
138,12,12,3,1,47,33,683,['c'],1,left,['0'],6,161,[0.08046716],100,47,medium,plus,dotcolour,alfa,,,115,19,V,R,
139,13,13,3,1,44,36,1017,['c'],1,left,['0'],6,306,[-0.02797199],14,44,hard,plus,dotcolour,alfa,,,115,19,V,R,
140,14,14,3,1,27,53,1067,['n'],1,right,['0'],6,324,[-0.06240669],98,53,easy,plus,dotcolour,alfa,,,115,19,V,R,
141,15,15,3,1,33,47,801,['c'],0,right,['2'],2,3840,[-0.35895569],0,47,medium,plus,dotcolour,alfa,,,115,19,V,R,
142,16,16,3,1,44,36,1417,['n'],0,left,['0'],6,334,[-0.05961425],98,44,hard,plus,dotcolour,alfa,,,115,19,V,R,
143,17,17,3,1,27,53,1350,['n'],1,right,['0'],6,348,[-0.13659793],100,53,easy,plus,dotcolour,alfa,,,115,19,V,R,
144,18,18,3,1,44,36,1136,['c'],1,left,['0'],6,282,[0.03177843],90,44,hard,plus,dotcolour,alfa,,,115,19,V,R,
145,19,19,3,1,53,27,1000,['c'],1,left,['0'],6,128,[-0.00867927],29,53,easy,plus,dotcolour,alfa,,,115,19,V,R,
146,20,20,3,1,47,33,1550,['c'],1,left,['0'],6,158,[0.12267478],100,47,medium,plus,dotcolour,alfa,,,115,19,V,R,
147,21,21,3,1,44,36,1233,['c'],1,left,['0'],6,104,[0.07530269],100,44,hard,plus,dotcolour,alfa,,,115,19,V,R,
148,22,22,3,1,36,44,951,['n'],1,right,['0'],6,263,[-0.13538043],100,44,hard,plus,dotcolour,alfa,,,115,19,V,R,
149,23,23,3,1,33,47,1716,['c'],0,right,['9'],5,441,[0.07309578],98,47,medium,plus,dotcolour,alfa,,,115,19,V,R,
150,24,24,3,1,36,44,1235,['n'],1,right,['0'],6,239,[-0.06592046],99,44,hard,plus,dotcolour,alfa,,,115,19,V,R,
151,25,25,3,1,27,53,1034,['n'],1,right,['0'],6,229,[-0.06155692],99,53,easy,plus,dotcolour,alfa,,,115,19,V,R,
152,26,26,3,1,47,33,984,['n'],0,left,['0'],6,270,[-0.11264745],100,47,medium,plus,dotcolour,alfa,,,115,19,V,R,
153,27,27,3,1,27,53,1017,['n'],1,right,['0'],6,266,[-0.1049399],100,53,easy,plus,dotcolour,alfa,,,115,19,V,R,
154,28,28,3,1,36,44,1683,['c'],0,right,['9'],5,230,[0.06215075],99,44,hard,plus,dotcolour,alfa,,,115,19,V,R,
155,29,29,3,1,27,53,750,['n'],1,right,['0'],6,240,[-0.25464172],100,53,easy,plus,dotcolour,alfa,,,115,19,V,R,
156,30,30,3,1,27,53,734,['n'],1,right,['0'],6,226,[-0.07843209],100,53,easy,plus,dotcolour,alfa,,,115,19,V,R,
157,31,31,3,1,36,44,801,['n'],1,right,['0'],6,194,[-0.08809255],100,44,hard,plus,dotcolour,alfa,,,115,19,V,R,
158,32,32,3,1,47,33,717,['c'],1,left,['0'],6,263,[0.1528282],100,47,medium,plus,dotcolour,alfa,,,115,19,V,R,
159,33,33,3,1,53,27,999,['c'],1,left,['0'],6,334,[0.05247306],96,53,easy,plus,dotcolour,alfa,,,115,19,V,R,
160,34,34,3,1,36,44,817,['n'],1,right,['0'],6,345,[-0.07388008],99,44,hard,plus,dotcolour,alfa,,,115,19,V,R,
161,35,35,3,1,53,27,817,['c'],1,left,['0'],6,227,[0.18391245],100,53,easy,plus,dotcolour,alfa,,,115,19,V,R,
162,36,36,3,1,36,44,833,['n'],1,right,['0'],6,258,[0.00423265],43,44,hard,plus,dotcolour,alfa,,,115,19,V,R,
163,37,37,3,1,47,33,584,['c'],1,left,['0'],6,233,[0.08829793],100,47,medium,plus,dotcolour,alfa,,,115,19,V,R,
164,38,38,3,1,44,36,567,['c'],1,left,['0'],6,195,[0.11262715],100,44,hard,plus,dotcolour,alfa,,,115,19,V,R,
165,39,39,3,1,53,27,1184,['n'],0,left,['9'],5,245,[-0.06990672],99,53,easy,plus,dotcolour,alfa,,,115,19,V,R,
166,40,40,3,1,27,53,1083,['n'],1,right,['0'],6,217,[-0.05572496],99,53,easy,plus,dotcolour,alfa,,,115,19,V,R,
167,41,41,3,1,53,27,633,['c'],1,left,['0'],6,200,[0.07047678],100,53,easy,plus,dotcolour,alfa,,,115,19,V,R,
168,42,0,4,1,47,33,768,['c'],1,left,['0'],6,245,[0.10557522],100,47,medium,plus,dotcolour,alfa,,,115,19,V,R,
169,43,1,4,1,36,44,699,['n'],1,right,['0'],6,250,[-0.12503126],100,44,hard,plus,dotcolour,alfa,,,115,19,V,R,
170,44,2,4,1,47,33,700,['c'],1,left,['0'],6,212,[0.05507065],99,47,medium,plus,dotcolour,alfa,,,115,19,V,R,
171,45,3,4,1,36,44,701,['c'],0,right,['9'],5,1049,[0.17858617],100,44,hard,plus,dotcolour,alfa,,,115,19,V,R,
172,46,4,4,1,36,44,917,['n'],1,right,['0'],6,195,[-0.12666377],100,44,hard,plus,dotcolour,alfa,,,115,19,V,R,
173,47,5,4,1,33,47,984,['n'],1,right,['0'],6,405,[-0.03473488],88,47,medium,plus,dotcolour,alfa,,,115,19,V,R,
174,48,6,4,1,36,44,1084,['c'],0,right,['0'],6,210,[0.00265132],55,44,hard,plus,dotcolour,alfa,,,115,19,V,R,
175,49,7,4,1,27,53,667,['n'],1,right,['0'],6,224,[-0.1139647],100,53,easy,plus,dotcolour,alfa,,,115,19,V,R,
176,50,8,4,1,44,36,1200,['n'],0,left,['9'],5,1232,[-0.0557569],86,44,hard,plus,dotcolour,alfa,,,115,19,V,R,
177,51,9,4,1,53,27,1066,['c'],1,left,['0'],6,180,[0.09744244],100,53,easy,plus,dotcolour,alfa,,,115,19,V,R,
178,52,10,4,1,33,47,1301,['n'],1,right,['0'],6,179,[-0.11030016],100,47,medium,plus,dotcolour,alfa,,,115,19,V,R,
179,53,11,4,1,33,47,1001,['n'],1,right,['0'],6,173,[-0.04324351],98,47,medium,plus,dotcolour,alfa,,,115,19,V,R,
180,54,12,4,1,27,53,766,['n'],1,right,['0'],6,192,[-0.02993849],92,53,easy,plus,dotcolour,alfa,,,115,19,V,R,
181,55,13,4,1,33,47,1418,['c'],0,right,['9'],5,306,[0.04492514],95,47,medium,plus,dotcolour,alfa,,,115,19,V,R,
182,56,14,4,1,47,33,967,['n'],0,left,['0'],6,207,[-0.13687959],100,47,medium,plus,dotcolour,alfa,,,115,19,V,R,
183,57,15,4,1,44,36,1619,['c'],1,left,['0'],6,143,[0.01112717],74,44,hard,plus,dotcolour,alfa,,,115,19,V,R,
184,58,16,4,1,53,27,1166,['c'],1,left,['0'],6,156,[0.08408726],100,53,easy,plus,dotcolour,alfa,,,115,19,V,R,
185,59,17,4,1,36,44,1734,['n'],1,right,['8'],4,432,[-0.06038265],96,44,hard,plus,dotcolour,alfa,,,115,19,V,R,
186,60,18,4,1,53,27,800,['c'],1,left,['0'],6,193,[0.11467194],100,53,easy,plus,dotcolour,alfa,,,115,19,V,R,
187,61,19,4,1,47,33,817,['c'],1,left,['0'],6,170,[0.06171578],100,47,medium,plus,dotcolour,alfa,,,115,19,V,R,
188,62,20,4,1,47,33,1118,['n'],0,left,['0'],6,207,[0.01075861],30,47,medium,plus,dotcolour,alfa,,,115,19,V,R,
189,63,21,4,1,27,53,1484,['n'],1,right,['0'],6,182,[-0.07276254],100,53,easy,plus,dotcolour,alfa,,,115,19,V,R,
190,64,22,4,1,27,53,818,['n'],1,right,['0'],6,238,[-0.11597989],100,53,easy,plus,dotcolour,alfa,,,115,19,V,R,
191,65,23,4,1,53,27,1201,['c'],1,left,['0'],6,197,[0.12298184],100,53,easy,plus,dotcolour,alfa,,,115,19,V,R,
192,66,24,4,1,27,53,917,['n'],1,right,['0'],6,242,[-0.06501871],99,53,easy,plus,dotcolour,alfa,,,115,19,V,R,
193,67,25,4,1,27,53,1267,['c'],0,right,['9'],5,239,[0.08955479],100,53,easy,plus,dotcolour,alfa,,,115,19,V,R,
194,68,26,4,1,44,36,918,['c'],1,left,['9'],5,177,[0.11195573],100,44,hard,plus,dotcolour,alfa,,,115,19,V,R,
195,69,27,4,1,47,33,1184,['c'],1,left,['9'],5,604,[0.16192804],100,47,medium,plus,dotcolour,alfa,,,115,19,V,R,
196,70,28,4,1,44,36,1334,['c'],1,left,['0'],6,144,[0.08457966],100,44,hard,plus,dotcolour,alfa,,,115,19,V,R,
197,71,29,4,1,33,47,1133,['c'],0,right,['0'],6,191,[0.01606661],79,47,medium,plus,dotcolour,alfa,,,115,19,V,R,
198,72,30,4,1,53,27,835,['c'],1,left,['0'],6,182,[0.1120256],100,53,easy,plus,dotcolour,alfa,,,115,19,V,R,
199,73,31,4,1,33,47,700,['n'],1,right,['0'],6,196,[-0.10308906],100,47,medium,plus,dotcolour,alfa,,,115,19,V,R,
200,74,32,4,1,33,47,1150,['n'],1,right,['0'],6,399,[-0.24469376],100,47,medium,plus,dotcolour,alfa,,,115,19,V,R,
201,75,33,4,1,53,27,651,['c'],1,left,['0'],6,175,[0.0560644],99,53,easy,plus,dotcolour,alfa,,,115,19,V,R,
202,76,34,4,1,27,53,768,['n'],1,right,['0'],6,218,[-0.14130509],100,53,easy,plus,dotcolour,alfa,,,115,19,V,R,
203,77,35,4,1,53,27,1068,['c'],1,left,['0'],6,200,[0.08705247],100,53,easy,plus,dotcolour,alfa,,,115,19,V,R,
204,78,36,4,1,44,36,752,['n'],0,left,['2'],2,1347,[0.04482493],20,44,hard,plus,dotcolour,alfa,,,115,19,V,R,
205,79,37,4,1,36,44,1967,['n'],1,right,['0'],6,215,[-0.07614874],100,44,hard,plus,dotcolour,alfa,,,115,19,V,R,
206,80,38,4,1,36,44,832,['c'],0,right,['0'],6,200,[0.05436101],99,44,hard,plus,dotcolour,alfa,,,115,19,V,R,
207,81,39,4,1,44,36,1084,['n'],0,left,['0'],6,220,[-0.21822286],100,44,hard,plus,dotcolour,alfa,,,115,19,V,R,
208,82,40,4,1,47,33,1052,['c'],1,left,['0'],6,147,[0.09889026],100,47,medium,plus,dotcolour,alfa,,,115,19,V,R,
209,83,41,4,1,44,36,701,['n'],0,left,['1'],1,1209,[-0.01228606],60,44,hard,plus,dotcolour,alfa,,,115,19,V,R,
210,84,0,5,1,27,53,1268,['n'],1,right,['0'],6,198,[-0.06957184],100,53,easy,plus,dotcolour,alfa,,,115,19,V,R,
211,85,1,5,1,47,33,900,['c'],1,left,['0'],6,188,[0.1942595],100,47,medium,plus,dotcolour,alfa,,,115,19,V,R,
212,86,2,5,1,27,53,684,['n'],1,right,['0'],6,209,[-0.10745443],100,53,easy,plus,dotcolour,alfa,,,115,19,V,R,
213,87,3,5,1,53,27,802,['c'],1,left,['0'],6,138,[0.07585607],100,53,easy,plus,dotcolour,alfa,,,115,19,V,R,
214,88,4,5,1,47,33,716,['c'],1,left,['0'],6,125,[0.10895224],100,47,medium,plus,dotcolour,alfa,,,115,19,V,R,
215,89,5,5,1,47,33,684,['c'],1,left,['0'],6,166,[0.08934356],100,47,medium,plus,dotcolour,alfa,,,115,19,V,R,
216,90,6,5,1,53,27,1101,['c'],1,left,['0'],6,156,[0.07251677],100,53,easy,plus,dotcolour,alfa,,,115,19,V,R,
217,91,7,5,1,27,53,868,['n'],1,right,['0'],6,188,[-0.15333406],100,53,easy,plus,dotcolour,alfa,,,115,19,V,R,
218,92,8,5,1,53,27,599,['c'],1,left,['0'],6,101,[0.01255612],81,53,easy,plus,dotcolour,alfa,,,115,19,V,R,
219,93,9,5,1,36,44,934,['n'],1,right,['0'],6,150,[-0.13959226],100,44,hard,plus,dotcolour,alfa,,,115,19,V,R,
220,94,10,5,1,44,36,668,['c'],1,left,['0'],6,134,[0.16913684],100,44,hard,plus,dotcolour,alfa,,,115,19,V,R,
221,95,11,5,1,33,47,951,['c'],0,right,['0'],6,124,[0.00289461],57,47,medium,plus,dotcolour,alfa,,,115,19,V,R,
222,96,12,5,1,33,47,967,['c'],0,right,['0'],6,129,[0.02523798],93,47,medium,plus,dotcolour,alfa,,,115,19,V,R,
223,97,13,5,1,44,36,700,['c'],1,left,['0'],6,121,[0.06478536],100,44,hard,plus,dotcolour,alfa,,,115,19,V,R,
224,98,14,5,1,27,53,666,['n'],1,right,['0'],6,178,[-0.17246339],100,53,easy,plus,dotcolour,alfa,,,115,19,V,R,
225,99,15,5,1,27,53,751,['n'],1,right,['0'],6,190,[-0.06271474],99,53,easy,plus,dotcolour,alfa,,,115,19,V,R,
226,100,16,5,1,36,44,768,['n'],1,right,['0'],6,177,[-0.03581698],96,44,hard,plus,dotcolour,alfa,,,115,19,V,R,
227,101,17,5,1,36,44,1134,['c'],0,right,['0'],6,158,[0.14668161],100,44,hard,plus,dotcolour,alfa,,,115,19,V,R,
228,102,18,5,1,53,27,701,['c'],1,left,['0'],6,165,[0.1286818],100,53,easy,plus,dotcolour,alfa,,,115,19,V,R,
229,103,19,5,1,36,44,1201,['c'],0,right,['9'],5,159,[0.05427172],99,44,hard,plus,dotcolour,alfa,,,115,19,V,R,
230,104,20,5,1,33,47,1067,['n'],1,right,['0'],6,207,[-0.01671625],79,47,medium,plus,dotcolour,alfa,,,115,19,V,R,
231,105,21,5,1,47,33,717,['c'],1,left,['9'],5,251,[0.14807027],100,47,medium,plus,dotcolour,alfa,,,115,19,V,R,
232,106,22,5,1,53,27,901,['c'],1,left,['0'],6,151,[0.1155857],100,53,easy,plus,dotcolour,alfa,,,115,19,V,R,
233,107,23,5,1,44,36,850,['c'],1,left,['0'],6,160,[0.14562815],100,44,hard,plus,dotcolour,alfa,,,115,19,V,R,
234,108,24,5,1,47,33,818,['c'],1,left,['0'],6,122,[0.14937864],100,47,medium,plus,dotcolour,alfa,,,115,19,V,R,
235,109,25,5,1,33,47,784,['n'],1,right,['0'],6,190,[-0.05894406],99,47,medium,plus,dotcolour,alfa,,,115,19,V,R,
236,110,26,5,1,44,36,817,['c'],1,left,['0'],6,127,[0.08252521],100,44,hard,plus,dotcolour,alfa,,,115,19,V,R,
237,111,27,5,1,33,47,751,['c'],0,right,['0'],6,157,[0.02144767],88,47,medium,plus,dotcolour,alfa,,,115,19,V,R,
238,112,28,5,1,27,53,717,['n'],1,right,['0'],6,243,[-0.0275874],88,53,easy,plus,dotcolour,alfa,,,115,19,V,R,
239,113,29,5,1,53,27,651,['c'],1,left,['0'],6,152,[0.15905341],100,53,easy,plus,dotcolour,alfa,,,115,19,V,R,
240,114,30,5,1,36,44,700,['n'],1,right,['0'],6,175,[-0.04558995],98,44,hard,plus,dotcolour,alfa,,,115,19,V,R,
241,115,31,5,1,33,47,633,['n'],1,right,['0'],6,200,[-0.08283625],100,47,medium,plus,dotcolour,alfa,,,115,19,V,R,
242,116,32,5,1,44,36,700,['c'],1,left,['0'],6,181,[0.11338372],100,44,hard,plus,dotcolour,alfa,,,115,19,V,R,
243,117,33,5,1,44,36,1317,['c'],1,left,['9'],5,163,[0.14103351],100,44,hard,plus,dotcolour,alfa,,,115,19,V,R,
244,118,34,5,1,53,27,767,['n'],0,left,['2'],2,1079,[0.07449107],7,53,easy,plus,dotcolour,alfa,,,115,19,V,R,
245,119,35,5,1,36,44,1234,['c'],0,right,['0'],6,203,[0.01570246],78,44,hard,plus,dotcolour,alfa,,,115,19,V,R,
246,120,36,5,1,27,53,785,['n'],1,right,['0'],6,238,[-0.07691156],100,53,easy,plus,dotcolour,alfa,,,115,19,V,R,
247,121,37,5,1,47,33,918,['c'],1,left,['0'],6,184,[0.04721039],98,47,medium,plus,dotcolour,alfa,,,115,19,V,R,
248,122,38,5,1,36,44,868,['n'],1,right,['0'],6,199,[-0.08605401],100,44,hard,plus,dotcolour,alfa,,,115,19,V,R,
249,123,39,5,1,47,33,819,['c'],1,left,['0'],6,208,[0.12799247],100,47,medium,plus,dotcolour,alfa,,,115,19,V,R,
250,124,40,5,1,33,47,1000,['n'],1,right,['0'],6,201,[-0.0391119],96,47,medium,plus,dotcolour,alfa,,,115,19,V,R,
251,125,41,5,1,44,36,866,['c'],1,left,['0'],6,167,[0.03988313],97,44,hard,plus,dotcolour,alfa,,,115,19,V,R,
252,0,0,6,2,44,36,918,['c'],1,left,['0'],6,160,[0.02814638],65,44,hard,minus,dotcolour,alfa,,,115,19,V,R,
253,1,1,6,2,27,53,1167,['n'],1,right,['0'],6,267,[-0.1488581],93,53,easy,minus,dotcolour,alfa,,,115,19,V,R,
254,2,2,6,2,47,33,601,['c'],1,left,['0'],6,162,[0.0507387],76,47,medium,minus,dotcolour,alfa,,,115,19,V,R,
255,3,3,6,2,27,53,1033,['n'],1,right,['0'],6,221,[-0.07147203],80,53,easy,minus,dotcolour,alfa,,,115,19,V,R,
256,4,4,6,2,36,44,1048,['c'],0,right,['2'],2,867,[0.1482582],81,44,hard,minus,dotcolour,alfa,,,115,19,V,R,
257,5,5,6,2,47,33,1365,['c'],1,left,['0'],6,146,[0.04302889],73,47,medium,minus,dotcolour,alfa,,,115,19,V,R,
258,6,6,6,2,33,47,767,['n'],1,right,['0'],6,197,[-0.02967977],65,47,medium,minus,dotcolour,alfa,,,115,19,V,R,
259,7,7,6,2,27,53,751,['n'],1,right,['0'],6,169,[-0.1078682],91,53,easy,minus,dotcolour,alfa,,,115,19,V,R,
260,8,8,6,2,27,53,1034,['n'],1,right,['0'],6,162,[-0.049733],75,53,easy,minus,dotcolour,alfa,,,115,19,V,R,
261,9,9,6,2,27,53,734,['n'],1,right,['0'],6,351,[-0.12433763],87,53,easy,minus,dotcolour,alfa,,,115,19,V,R,
262,10,10,6,2,47,33,866,['c'],1,left,['0'],6,120,[0.12154046],96,47,medium,minus,dotcolour,alfa,,,115,19,V,R,
263,11,11,6,2,27,53,1434,['n'],1,right,['0'],6,563,[-0.17743088],89,53,easy,minus,dotcolour,alfa,,,115,19,V,R,
264,12,12,6,2,36,44,1484,['n'],1,right,['0'],6,228,[-0.18733763],97,44,hard,minus,dotcolour,alfa,,,115,19,V,R,
265,13,13,6,2,47,33,718,['c'],1,left,['0'],6,118,[0.02952565],68,47,medium,minus,dotcolour,alfa,,,115,19,V,R,
266,14,14,6,2,47,33,985,['n'],0,left,['0'],6,172,[-0.08619398],87,47,medium,minus,dotcolour,alfa,,,115,19,V,R,
267,15,15,6,2,33,47,752,['c'],0,right,['0'],6,367,[-0.06917442],26,47,medium,minus,dotcolour,alfa,,,115,19,V,R,
268,16,16,6,2,53,27,1365,['c'],1,left,['0'],6,188,[0.12530636],93,53,easy,minus,dotcolour,alfa,,,115,19,V,R,
269,17,17,6,2,44,36,1267,['n'],0,left,['0'],6,178,[-0.08369011],86,44,hard,minus,dotcolour,alfa,,,115,19,V,R,
270,18,18,6,2,33,47,1435,['n'],1,right,['0'],6,187,[-0.11018041],91,47,medium,minus,dotcolour,alfa,,,115,19,V,R,
271,19,19,6,2,33,47,784,['n'],1,right,['0'],6,189,[-0.0550106],76,47,medium,minus,dotcolour,alfa,,,115,19,V,R,
272,20,20,6,2,36,44,1050,['n'],1,right,['0'],6,180,[-0.09928981],89,44,hard,minus,dotcolour,alfa,,,115,19,V,R,
273,21,21,6,2,33,47,767,['n'],1,right,['0'],6,200,[-0.10886131],90,47,medium,minus,dotcolour,alfa,,,115,19,V,R,
274,22,22,6,2,36,44,2200,['n'],1,right,['8'],4,410,[-0.15219589],89,44,hard,minus,dotcolour,alfa,,,115,19,V,R,
275,23,23,6,2,36,44,1268,['n'],1,right,['3'],3,175,[-0.05260666],76,44,hard,minus,dotcolour,alfa,,,115,19,V,R,
276,24,24,6,2,33,47,1184,['n'],1,right,['0'],6,153,[-0.07443205],85,47,medium,minus,dotcolour,alfa,,,115,19,V,R,
277,25,25,6,2,53,27,1283,['c'],1,left,['9'],5,250,[0.10797042],87,53,easy,minus,dotcolour,alfa,,,115,19,V,R,
278,26,26,6,2,36,44,1001,['n'],1,right,['0'],6,185,[-0.04927384],74,44,hard,minus,dotcolour,alfa,,,115,19,V,R,
279,27,27,6,2,44,36,1017,['c'],1,left,['9'],5,394,[0.12038346],85,44,hard,minus,dotcolour,alfa,,,115,19,V,R,
280,28,28,6,2,44,36,1167,['c'],1,left,['0'],6,173,[0.06624059],81,44,hard,minus,dotcolour,alfa,,,115,19,V,R,
281,29,29,6,2,53,27,717,['c'],1,left,['0'],6,178,[0.04137552],71,53,easy,minus,dotcolour,alfa,,,115,19,V,R,
282,30,30,6,2,44,36,717,['c'],1,left,['0'],6,127,[0.06635396],84,44,hard,minus,dotcolour,alfa,,,115,19,V,R,
283,31,31,6,2,33,47,917,['n'],1,right,['0'],6,247,[-0.11491835],89,47,medium,minus,dotcolour,alfa,,,115,19,V,R,
284,32,32,6,2,44,36,734,['c'],1,left,['9'],5,249,[0.05757267],74,44,hard,minus,dotcolour,alfa,,,115,19,V,R,
285,33,33,6,2,27,53,1234,['n'],1,right,['0'],6,255,[-0.17183756],96,53,easy,minus,dotcolour,alfa,,,115,19,V,R,
286,34,34,6,2,47,33,851,['c'],1,left,['0'],6,195,[0.11376172],91,47,medium,minus,dotcolour,alfa,,,115,19,V,R,
287,35,35,6,2,53,27,750,['c'],1,left,['0'],6,167,[0.13850845],95,53,easy,minus,dotcolour,alfa,,,115,19,V,R,
288,36,36,6,2,53,27,618,['c'],1,left,['0'],6,97,[0.02507431],67,53,easy,minus,dotcolour,alfa,,,115,19,V,R,
289,37,37,6,2,53,27,585,['c'],1,left,['0'],6,119,[0.07269664],87,53,easy,minus,dotcolour,alfa,,,115,19,V,R,
290,38,38,6,2,44,36,850,['c'],1,left,['0'],6,314,[0.05343076],70,44,hard,minus,dotcolour,alfa,,,115,19,V,R,
291,39,39,6,2,36,44,668,['n'],1,right,['0'],6,179,[-0.11706347],92,44,hard,minus,dotcolour,alfa,,,115,19,V,R,
292,40,40,6,2,53,27,700,['c'],1,left,['0'],6,177,[0.06191803],79,53,easy,minus,dotcolour,alfa,,,115,19,V,R,
293,41,41,6,2,47,33,1167,['c'],1,left,['9'],5,109,[0.11768634],96,47,medium,minus,dotcolour,alfa,,,115,19,V,R,
294,42,0,7,2,27,53,1085,['n'],1,right,['0'],6,179,[-0.03937329],70,53,easy,minus,dotcolour,alfa,,,115,19,V,R,
295,43,1,7,2,53,27,549,['c'],1,left,['0'],6,145,[0.10692663],93,53,easy,minus,dotcolour,alfa,,,115,19,V,R,
296,44,2,7,2,33,47,600,['n'],1,right,['0'],6,203,[-0.05563578],75,47,medium,minus,dotcolour,alfa,,,115,19,V,R,
297,45,3,7,2,53,27,518,['c'],1,left,['0'],6,167,[0.05052298],75,53,easy,minus,dotcolour,alfa,,,115,19,V,R,
298,46,4,7,2,44,36,1234,['n'],0,left,['0'],6,225,[-0.02704412],63,44,hard,minus,dotcolour,alfa,,,115,19,V,R,
299,47,5,7,2,47,33,735,['c'],1,left,['0'],6,156,[0.07801405],86,47,medium,minus,dotcolour,alfa,,,115,19,V,R,
300,48,6,7,2,27,53,618,['n'],1,right,['0'],6,190,[-0.0758975],83,53,easy,minus,dotcolour,alfa,,,115,19,V,R,
301,49,7,7,2,47,33,718,['c'],1,left,['0'],6,131,[0.05545855],80,47,medium,minus,dotcolour,alfa,,,115,19,V,R,
302,50,8,7,2,36,44,885,['c'],0,right,['0'],6,195,[0.07421544],82,44,hard,minus,dotcolour,alfa,,,115,19,V,R,
303,51,9,7,2,36,44,1002,['c'],0,right,['9'],5,189,[0.01431461],57,44,hard,minus,dotcolour,alfa,,,115,19,V,R,
304,52,10,7,2,53,27,733,['c'],1,left,['0'],6,105,[0.03953969],75,53,easy,minus,dotcolour,alfa,,,115,19,V,R,
305,53,11,7,2,27,53,801,['n'],1,right,['0'],6,205,[-0.15864402],96,53,easy,minus,dotcolour,alfa,,,115,19,V,R,
306,54,12,7,2,53,27,684,['c'],1,left,['0'],6,154,[0.09198736],89,53,easy,minus,dotcolour,alfa,,,115,19,V,R,
307,55,13,7,2,27,53,684,['n'],1,right,['0'],6,201,[-0.03433633],67,53,easy,minus,dotcolour,alfa,,,115,19,V,R,
308,56,14,7,2,33,47,732,['n'],1,right,['0'],6,175,[-0.10728782],91,47,medium,minus,dotcolour,alfa,,,115,19,V,R,
309,57,15,7,2,27,53,1250,['n'],1,right,['0'],6,246,[-0.15397753],94,53,easy,minus,dotcolour,alfa,,,115,19,V,R,
310,58,16,7,2,47,33,633,['c'],1,left,['0'],6,124,[0.12182694],96,47,medium,minus,dotcolour,alfa,,,115,19,V,R,
311,59,17,7,2,44,36,833,['c'],1,left,['0'],6,150,[0.02994257],67,44,hard,minus,dotcolour,alfa,,,115,19,V,R,
312,60,18,7,2,36,44,667,['n'],1,right,['0'],6,191,[-0.09684752],88,44,hard,minus,dotcolour,alfa,,,115,19,V,R,
313,61,19,7,2,53,27,667,['c'],1,left,['0'],6,182,[0.06132592],78,53,easy,minus,dotcolour,alfa,,,115,19,V,R,
314,62,20,7,2,33,47,683,['n'],1,right,['0'],6,180,[-0.05247926],75,47,medium,minus,dotcolour,alfa,,,115,19,V,R,
315,63,21,7,2,27,53,850,['n'],1,right,['0'],6,164,[-0.04021145],71,53,easy,minus,dotcolour,alfa,,,115,19,V,R,
316,64,22,7,2,27,53,501,['n'],1,right,['0'],6,188,[-0.06725433],80,53,easy,minus,dotcolour,alfa,,,115,19,V,R,
317,65,23,7,2,36,44,1034,['n'],1,right,['0'],6,147,[-0.09289406],90,44,hard,minus,dotcolour,alfa,,,115,19,V,R,
318,66,24,7,2,53,27,834,['c'],1,left,['9'],5,253,[0.07987269],81,53,easy,minus,dotcolour,alfa,,,115,19,V,R,
319,67,25,7,2,47,33,818,['c'],1,left,['0'],6,220,[0.21300697],98,47,medium,minus,dotcolour,alfa,,,115,19,V,R,
320,68,26,7,2,47,33,550,['c'],1,left,['0'],6,141,[0.11296223],94,47,medium,minus,dotcolour,alfa,,,115,19,V,R,
321,69,27,7,2,44,36,1217,['n'],0,left,['0'],6,248,[-0.16524232],95,44,hard,minus,dotcolour,alfa,,,115,19,V,R,
322,70,28,7,2,47,33,819,['c'],1,left,['9'],5,375,[0.16684504],92,47,medium,minus,dotcolour,alfa,,,115,19,V,R,
323,71,29,7,2,33,47,1301,['n'],1,right,['0'],6,237,[-0.08618394],83,47,medium,minus,dotcolour,alfa,,,115,19,V,R,
324,72,30,7,2,44,36,717,['c'],1,left,['0'],6,312,[0.13915612],90,44,hard,minus,dotcolour,alfa,,,115,19,V,R,
325,73,31,7,2,33,47,818,['n'],1,right,['0'],6,1092,[0.02994064],44,47,medium,minus,dotcolour,alfa,,,115,19,V,R,
326,74,32,7,2,36,44,951,['n'],1,right,['0'],6,220,[-0.13928735],94,44,hard,minus,dotcolour,alfa,,,115,19,V,R,
327,75,33,7,2,44,36,1000,['c'],1,left,['9'],5,179,[0.13136532],94,44,hard,minus,dotcolour,alfa,,,115,19,V,R,
328,76,34,7,2,36,44,883,['n'],1,right,['0'],6,218,[-0.07658276],81,44,hard,minus,dotcolour,alfa,,,115,19,V,R,
329,77,35,7,2,47,33,650,['c'],1,left,['0'],6,289,[0.06881075],76,47,medium,minus,dotcolour,alfa,,,115,19,V,R,
330,78,36,7,2,44,36,784,['c'],1,left,['0'],6,134,[0.10413302],93,44,hard,minus,dotcolour,alfa,,,115,19,V,R,
331,79,37,7,2,33,47,817,['n'],1,right,['0'],6,178,[-0.09119317],87,47,medium,minus,dotcolour,alfa,,,115,19,V,R,
332,80,38,7,2,44,36,1017,['c'],1,left,['0'],6,187,[0.09324921],87,44,hard,minus,dotcolour,alfa,,,115,19,V,R,
333,81,39,7,2,53,27,617,['n'],0,left,['0'],6,172,[-0.05282654],76,53,easy,minus,dotcolour,alfa,,,115,19,V,R,
334,82,40,7,2,33,47,817,['c'],0,right,['0'],6,221,[0.07275921],80,47,medium,minus,dotcolour,alfa,,,115,19,V,R,
335,83,41,7,2,36,44,900,['c'],0,right,['9'],5,194,[0.09777675],88,44,hard,minus,dotcolour,alfa,,,115,19,V,R,
336,84,0,8,2,33,47,786,['n'],1,right,['0'],6,220,[-0.02835942],63,47,medium,minus,dotcolour,alfa,,,115,19,V,R,
337,85,1,8,2,44,36,567,['c'],1,left,['0'],6,174,[0.08809334],87,44,hard,minus,dotcolour,alfa,,,115,19,V,R,
338,86,2,8,2,27,53,750,['n'],1,right,['0'],6,402,[-0.22767756],96,53,easy,minus,dotcolour,alfa,,,115,19,V,R,
339,87,3,8,2,36,44,1033,['c'],0,right,['0'],6,227,[0.13294072],92,44,hard,minus,dotcolour,alfa,,,115,19,V,R,
340,88,4,8,2,53,27,552,['c'],1,left,['0'],6,171,[0.09500868],89,53,easy,minus,dotcolour,alfa,,,115,19,V,R,
341,89,5,8,2,36,44,733,['n'],1,right,['0'],6,224,[-0.01949533],59,44,hard,minus,dotcolour,alfa,,,115,19,V,R,
342,90,6,8,2,47,33,1201,['n'],0,left,['0'],6,376,[-0.03069236],61,47,medium,minus,dotcolour,alfa,,,115,19,V,R,
343,91,7,8,2,47,33,1750,['n'],0,left,['0'],6,244,[0.02413126],39,47,medium,minus,dotcolour,alfa,,,115,19,V,R,
344,92,8,8,2,47,33,801,['c'],1,left,['0'],6,147,[0.09209329],90,47,medium,minus,dotcolour,alfa,,,115,19,V,R,
345,93,9,8,2,27,53,682,['n'],1,right,['0'],6,204,[-0.00488211],52,53,easy,minus,dotcolour,alfa,,,115,19,V,R,
346,94,10,8,2,27,53,1000,['n'],1,right,['0'],6,157,[-0.09244508],89,53,easy,minus,dotcolour,alfa,,,115,19,V,R,
347,95,11,8,2,53,27,582,['c'],1,left,['0'],6,136,[0.14750162],97,53,easy,minus,dotcolour,alfa,,,115,19,V,R,
348,96,12,8,2,33,47,800,['n'],1,right,['0'],6,171,[-0.10661425],91,47,medium,minus,dotcolour,alfa,,,115,19,V,R,
349,97,13,8,2,53,27,768,['c'],1,left,['0'],6,144,[0.06705089],83,53,easy,minus,dotcolour,alfa,,,115,19,V,R,
350,98,14,8,2,33,47,1050,['n'],1,right,['0'],6,161,[-0.12365015],94,47,medium,minus,dotcolour,alfa,,,115,19,V,R,
351,99,15,8,2,44,36,1467,['c'],1,left,['9'],5,81,[0.03967796],78,44,hard,minus,dotcolour,alfa,,,115,19,V,R,
352,100,16,8,2,33,47,918,['n'],1,right,['0'],6,170,[-0.10409466],91,47,medium,minus,dotcolour,alfa,,,115,19,V,R,
353,101,17,8,2,44,36,1367,['c'],1,left,['9'],5,158,[0.02466826],64,44,hard,minus,dotcolour,alfa,,,115,19,V,R,
354,102,18,8,2,47,33,1166,['c'],1,left,['0'],6,130,[0.07756849],87,47,medium,minus,dotcolour,alfa,,,115,19,V,R,
355,103,19,8,2,27,53,635,['n'],1,right,['0'],6,189,[-0.14489095],95,53,easy,minus,dotcolour,alfa,,,115,19,V,R,
356,104,20,8,2,53,27,583,['n'],0,left,['2'],2,1022,[0.24923302],10,53,easy,minus,dotcolour,alfa,,,115,19,V,R,
357,105,21,8,2,53,27,817,['n'],0,left,['0'],6,174,[0.01184487],44,53,easy,minus,dotcolour,alfa,,,115,19,V,R,
358,106,22,8,2,44,36,1133,['c'],1,left,['0'],6,234,[0.12022355],90,44,hard,minus,dotcolour,alfa,,,115,19,V,R,
359,107,23,8,2,36,44,734,['n'],1,right,['0'],6,173,[-0.16042469],97,44,hard,minus,dotcolour,alfa,,,115,19,V,R,
360,108,24,8,2,36,44,1067,['c'],0,right,['9'],5,180,[0.08610609],86,44,hard,minus,dotcolour,alfa,,,115,19,V,R,
361,109,25,8,2,27,53,1850,['n'],1,right,['0'],6,276,[0.02416531],40,53,easy,minus,dotcolour,alfa,,,115,19,V,R,
362,110,26,8,2,44,36,684,['c'],1,left,['0'],6,255,[0.09257154],84,44,hard,minus,dotcolour,alfa,,,115,19,V,R,
363,111,27,8,2,47,33,633,['c'],1,left,['0'],6,132,[0.07953277],88,47,medium,minus,dotcolour,alfa,,,115,19,V,R,
364,112,28,8,2,53,27,901,['n'],0,left,['0'],6,212,[-0.11011223],90,53,easy,minus,dotcolour,alfa,,,115,19,V,R,
365,113,29,8,2,36,44,968,['c'],0,right,['0'],6,238,[0.0548757],73,44,hard,minus,dotcolour,alfa,,,115,19,V,R,
366,114,30,8,2,33,47,1068,['n'],1,right,['0'],6,259,[-0.11257247],88,47,medium,minus,dotcolour,alfa,,,115,19,V,R,
367,115,31,8,2,47,33,685,['c'],1,left,['0'],6,174,[0.09513018],89,47,medium,minus,dotcolour,alfa,,,115,19,V,R,
368,116,32,8,2,47,33,835,['n'],0,left,['0'],6,223,[0.00523021],48,47,medium,minus,dotcolour,alfa,,,115,19,V,R,
369,117,33,8,2,44,36,934,['c'],1,left,['0'],6,130,[0.07492112],87,44,hard,minus,dotcolour,alfa,,,115,19,V,R,
370,118,34,8,2,27,53,719,['n'],1,right,['0'],6,153,[-0.13361625],96,53,easy,minus,dotcolour,alfa,,,115,19,V,R,
371,119,35,8,2,36,44,850,['c'],0,right,['0'],6,130,[0.03392926],70,44,hard,minus,dotcolour,alfa,,,115,19,V,R,
372,120,36,8,2,36,44,1067,['c'],0,right,['0'],6,171,[0.07160671],83,44,hard,minus,dotcolour,alfa,,,115,19,V,R,
373,121,37,8,2,44,36,650,['n'],0,left,['0'],6,163,[-0.01887386],60,44,hard,minus,dotcolour,alfa,,,115,19,V,R,
374,122,38,8,2,33,47,800,['n'],1,right,['0'],6,142,[-0.04408597],74,47,medium,minus,dotcolour,alfa,,,115,19,V,R,
375,123,39,8,2,33,47,917,['n'],1,right,['0'],6,150,[-0.0622775],81,47,medium,minus,dotcolour,alfa,,,115,19,V,R,
376,124,40,8,2,53,27,751,['c'],1,left,['0'],6,91,[0.13719954],98,53,easy,minus,dotcolour,alfa,,,115,19,V,R,
377,125,41,8,2,27,53,685,['n'],1,right,['0'],6,156,[-0.14536105],96,53,easy,minus,dotcolour,alfa,,,115,19,V,R,
378,0,0,9,3,27,53,1201,['n'],1,right,['0'],6,157,[-0.1059609],100,53,easy,plus,dotcolour,alfa,,,115,19,V,R,
379,1,1,9,3,36,44,817,['c'],0,right,['0'],6,151,[0.09054997],100,44,hard,plus,dotcolour,alfa,,,115,19,V,R,
380,2,2,9,3,44,36,934,['c'],1,left,['0'],6,109,[0.0989126],100,44,hard,plus,dotcolour,alfa,,,115,19,V,R,
381,3,3,9,3,53,27,1201,['c'],1,left,['0'],6,113,[0.08751904],100,53,easy,plus,dotcolour,alfa,,,115,19,V,R,
382,4,4,9,3,33,47,1033,['n'],1,right,['0'],6,205,[-0.14685357],100,47,medium,plus,dotcolour,alfa,,,115,19,V,R,
383,5,5,9,3,33,47,751,['n'],1,right,['0'],6,207,[-0.09325945],100,47,medium,plus,dotcolour,alfa,,,115,19,V,R,
384,6,6,9,3,33,47,851,['n'],1,right,['0'],6,238,[-0.20021448],100,47,medium,plus,dotcolour,alfa,,,115,19,V,R,
385,7,7,9,3,27,53,684,['n'],1,right,['0'],6,202,[-0.1917132],100,53,easy,plus,dotcolour,alfa,,,115,19,V,R,
386,8,8,9,3,53,27,667,['c'],1,left,['0'],6,177,[0.12206349],100,53,easy,plus,dotcolour,alfa,,,115,19,V,R,
387,9,9,9,3,44,36,767,['c'],1,left,['0'],6,180,[0.01555321],79,44,hard,plus,dotcolour,alfa,,,115,19,V,R,
388,10,10,9,3,53,27,833,['c'],1,left,['0'],6,109,[0.09172362],100,53,easy,plus,dotcolour,alfa,,,115,19,V,R,
389,11,11,9,3,33,47,667,['n'],1,right,['0'],6,175,[-0.10206096],100,47,medium,plus,dotcolour,alfa,,,115,19,V,R,
390,12,12,9,3,44,36,766,['c'],1,left,['0'],6,186,[0.05369635],99,44,hard,plus,dotcolour,alfa,,,115,19,V,R,
391,13,13,9,3,44,36,584,['n'],0,left,['0'],6,181,[-0.12317926],100,44,hard,plus,dotcolour,alfa,,,115,19,V,R,
392,14,14,9,3,47,33,567,['c'],1,left,['0'],6,225,[0.09961316],100,47,medium,plus,dotcolour,alfa,,,115,19,V,R,
393,15,15,9,3,47,33,601,['c'],1,left,['0'],6,129,[0.09962034],100,47,medium,plus,dotcolour,alfa,,,115,19,V,R,
394,16,16,9,3,36,44,718,['n'],1,right,['0'],6,168,[-0.04539713],98,44,hard,plus,dotcolour,alfa,,,115,19,V,R,
395,17,17,9,3,47,33,518,['c'],1,left,['0'],6,93,[0.07221488],100,47,medium,plus,dotcolour,alfa,,,115,19,V,R,
396,18,18,9,3,53,27,518,['c'],1,left,['0'],6,142,[0.08122078],100,53,easy,plus,dotcolour,alfa,,,115,19,V,R,
397,19,19,9,3,27,53,583,['n'],1,right,['0'],6,154,[-0.08872692],100,53,easy,plus,dotcolour,alfa,,,115,19,V,R,
398,20,20,9,3,27,53,868,['n'],1,right,['0'],6,123,[-0.05964548],100,53,easy,plus,dotcolour,alfa,,,115,19,V,R,
399,21,21,9,3,47,33,600,['c'],1,left,['0'],6,110,[0.07415887],100,47,medium,plus,dotcolour,alfa,,,115,19,V,R,
400,22,22,9,3,36,44,734,['c'],0,right,['0'],6,78,[0.09268748],100,44,hard,plus,dotcolour,alfa,,,115,19,V,R,
401,23,23,9,3,27,53,551,['n'],1,right,['0'],6,142,[-0.06379489],100,53,easy,plus,dotcolour,alfa,,,115,19,V,R,
402,24,24,9,3,36,44,534,['n'],1,right,['0'],6,147,[-0.13107629],100,44,hard,plus,dotcolour,alfa,,,115,19,V,R,
403,25,25,9,3,44,36,550,['c'],1,left,['0'],6,105,[0.09752539],100,44,hard,plus,dotcolour,alfa,,,115,19,V,R,
404,26,26,9,3,36,44,518,['c'],0,right,['2'],2,882,[0.19570792],100,44,hard,plus,dotcolour,alfa,,,115,19,V,R,
405,27,27,9,3,33,47,851,['n'],1,right,['0'],6,156,[-0.11940251],100,47,medium,plus,dotcolour,alfa,,,115,19,V,R,
406,28,28,9,3,27,53,583,['n'],1,right,['0'],6,167,[-0.09612376],100,53,easy,plus,dotcolour,alfa,,,115,19,V,R,
407,29,29,9,3,33,47,666,['n'],1,right,['0'],6,175,[-0.04041741],97,47,medium,plus,dotcolour,alfa,,,115,19,V,R,
408,30,30,9,3,47,33,599,['c'],1,left,['0'],6,130,[0.05308975],100,47,medium,plus,dotcolour,alfa,,,115,19,V,R,
409,31,31,9,3,36,44,635,['c'],0,right,['0'],6,108,[0.0857969],100,44,hard,plus,dotcolour,alfa,,,115,19,V,R,
410,32,32,9,3,53,27,601,['c'],1,left,['0'],6,145,[0.18937817],100,53,easy,plus,dotcolour,alfa,,,115,19,V,R,
411,33,33,9,3,44,36,733,['c'],1,left,['0'],6,111,[0.08776828],100,44,hard,plus,dotcolour,alfa,,,115,19,V,R,
412,34,34,9,3,33,47,618,['c'],0,right,['0'],6,83,[0.07782048],100,47,medium,plus,dotcolour,alfa,,,115,19,V,R,
413,35,35,9,3,44,36,685,['c'],1,left,['0'],6,102,[0.11273937],100,44,hard,plus,dotcolour,alfa,,,115,19,V,R,
414,36,36,9,3,47,33,1101,['c'],1,left,['0'],6,111,[0.06813804],100,47,medium,plus,dotcolour,alfa,,,115,19,V,R,
415,37,37,9,3,27,53,585,['n'],1,right,['0'],6,156,[-0.12516254],100,53,easy,plus,dotcolour,alfa,,,115,19,V,R,
416,38,38,9,3,53,27,567,['c'],1,left,['0'],6,88,[0.05366263],100,53,easy,plus,dotcolour,alfa,,,115,19,V,R,
417,39,39,9,3,53,27,668,['c'],1,left,['0'],6,99,[0.0714493],100,53,easy,plus,dotcolour,alfa,,,115,19,V,R,
418,40,40,9,3,47,33,568,['n'],0,left,['0'],6,154,[-0.10473237],100,47,medium,plus,dotcolour,alfa,,,115,19,V,R,
419,41,41,9,3,36,44,567,['n'],1,right,['0'],6,142,[-0.11325517],100,44,hard,plus,dotcolour,alfa,,,115,19,V,R,
420,42,0,10,3,53,27,584,['c'],1,left,['0'],6,132,[0.06606542],100,53,easy,plus,dotcolour,alfa,,,115,19,V,R,
421,43,1,10,3,44,36,484,['c'],1,left,['0'],6,110,[0.05418422],100,44,hard,plus,dotcolour,alfa,,,115,19,V,R,
422,44,2,10,3,36,44,618,['n'],1,right,['0'],6,170,[-0.04684004],98,44,hard,plus,dotcolour,alfa,,,115,19,V,R,
423,45,3,10,3,33,47,766,['n'],1,right,['0'],6,189,[-0.1204651],100,47,medium,plus,dotcolour,alfa,,,115,19,V,R,
424,46,4,10,3,33,47,551,['c'],0,right,['0'],6,89,[0.10687033],100,47,medium,plus,dotcolour,alfa,,,115,19,V,R,
425,47,5,10,3,27,53,584,['n'],1,right,['0'],6,120,[-0.08588234],100,53,easy,plus,dotcolour,alfa,,,115,19,V,R,
426,48,6,10,3,33,47,551,['n'],1,right,['0'],6,158,[-0.10157328],100,47,medium,plus,dotcolour,alfa,,,115,19,V,R,
427,49,7,10,3,27,53,584,['c'],0,right,['3'],3,665,[-0.00283384],47,53,easy,plus,dotcolour,alfa,,,115,19,V,R,
428,50,8,10,3,53,27,716,['c'],1,left,['0'],6,155,[0.06941266],100,53,easy,plus,dotcolour,alfa,,,115,19,V,R,
429,51,9,10,3,36,44,667,['c'],0,right,['0'],6,228,[0.11980898],100,44,hard,plus,dotcolour,alfa,,,115,19,V,R,
430,52,10,10,3,36,44,884,['c'],0,right,['0'],6,584,[0.08986798],99,44,hard,plus,dotcolour,alfa,,,115,19,V,R,
431,53,11,10,3,44,36,634,['c'],1,left,['0'],6,64,[0.07301652],100,44,hard,plus,dotcolour,alfa,,,115,19,V,R,
432,54,12,10,3,53,27,867,['c'],1,left,['0'],6,133,[0.13251406],100,53,easy,plus,dotcolour,alfa,,,115,19,V,R,
433,55,13,10,3,53,27,535,['c'],1,left,['0'],6,99,[0.11269845],100,53,easy,plus,dotcolour,alfa,,,115,19,V,R,
434,56,14,10,3,33,47,918,['n'],1,right,['0'],6,139,[-0.06926323],100,47,medium,plus,dotcolour,alfa,,,115,19,V,R,
435,57,15,10,3,33,47,600,['c'],0,right,['0'],6,175,[0.06227807],100,47,medium,plus,dotcolour,alfa,,,115,19,V,R,
436,58,16,10,3,53,27,784,['c'],1,left,['0'],6,51,[0.06670165],100,53,easy,plus,dotcolour,alfa,,,115,19,V,R,
437,59,17,10,3,27,53,601,['n'],1,right,['0'],6,152,[-0.11314387],100,53,easy,plus,dotcolour,alfa,,,115,19,V,R,
438,60,18,10,3,44,36,617,['c'],1,left,['0'],6,139,[0.10308778],100,44,hard,plus,dotcolour,alfa,,,115,19,V,R,
439,61,19,10,3,47,33,617,['c'],1,left,['0'],6,126,[0.10720709],100,47,medium,plus,dotcolour,alfa,,,115,19,V,R,
440,62,20,10,3,27,53,584,['n'],1,right,['0'],6,147,[-0.06003696],100,53,easy,plus,dotcolour,alfa,,,115,19,V,R,
441,63,21,10,3,47,33,617,['n'],0,left,['0'],6,197,[-0.05693123],99,47,medium,plus,dotcolour,alfa,,,115,19,V,R,
442,64,22,10,3,33,47,749,['n'],1,right,['0'],6,153,[-0.07285429],100,47,medium,plus,dotcolour,alfa,,,115,19,V,R,
443,65,23,10,3,44,36,700,['c'],1,left,['0'],6,152,[0.03396284],96,44,hard,plus,dotcolour,alfa,,,115,19,V,R,
444,66,24,10,3,47,33,766,['c'],1,left,['0'],6,109,[0.06274453],100,47,medium,plus,dotcolour,alfa,,,115,19,V,R,
445,67,25,10,3,36,44,832,['n'],1,right,['0'],6,136,[-0.05480835],100,44,hard,plus,dotcolour,alfa,,,115,19,V,R,
446,68,26,10,3,36,44,551,['n'],1,right,['0'],6,174,[-0.06637219],100,44,hard,plus,dotcolour,alfa,,,115,19,V,R,
447,69,27,10,3,27,53,584,['n'],1,right,['0'],6,169,[-0.07004465],100,53,easy,plus,dotcolour,alfa,,,115,19,V,R,
448,70,28,10,3,44,36,550,['c'],1,left,['0'],6,110,[0.05424973],100,44,hard,plus,dotcolour,alfa,,,115,19,V,R,
449,71,29,10,3,47,33,785,['c'],1,left,['0'],6,171,[0.09608512],100,47,medium,plus,dotcolour,alfa,,,115,19,V,R,
450,72,30,10,3,36,44,750,['n'],1,right,['0'],6,231,[-0.03031121],91,44,hard,plus,dotcolour,alfa,,,115,19,V,R,
451,73,31,10,3,47,33,534,['c'],1,left,['0'],6,146,[0.11663379],100,47,medium,plus,dotcolour,alfa,,,115,19,V,R,
452,74,32,10,3,53,27,534,['c'],1,left,['0'],6,151,[0.09569014],100,53,easy,plus,dotcolour,alfa,,,115,19,V,R,
453,75,33,10,3,36,44,751,['n'],1,right,['0'],6,189,[-0.0370381],96,44,hard,plus,dotcolour,alfa,,,115,19,V,R,
454,76,34,10,3,44,36,749,['n'],0,left,['0'],6,209,[0.02257906],14,44,hard,plus,dotcolour,alfa,,,115,19,V,R,
455,77,35,10,3,27,53,534,['c'],0,right,['0'],6,165,[0.10750674],100,53,easy,plus,dotcolour,alfa,,,115,19,V,R,
456,78,36,10,3,53,27,817,['c'],1,left,['0'],6,110,[0.06371172],100,53,easy,plus,dotcolour,alfa,,,115,19,V,R,
457,79,37,10,3,33,47,833,['n'],1,right,['0'],6,201,[-0.07500782],100,47,medium,plus,dotcolour,alfa,,,115,19,V,R,
458,80,38,10,3,47,33,567,['c'],1,left,['0'],6,115,[0.07973293],100,47,medium,plus,dotcolour,alfa,,,115,19,V,R,
459,81,39,10,3,47,33,585,['c'],1,left,['0'],6,145,[0.06746828],100,47,medium,plus,dotcolour,alfa,,,115,19,V,R,
460,82,40,10,3,27,53,567,['n'],1,right,['0'],6,150,[-0.06353416],100,53,easy,plus,dotcolour,alfa,,,115,19,V,R,
461,83,41,10,3,44,36,584,['c'],1,left,['0'],6,82,[0.04998644],100,44,hard,plus,dotcolour,alfa,,,115,19,V,R,
462,84,0,11,3,44,36,735,['c'],1,left,['0'],6,133,[0.05099485],99,44,hard,plus,dotcolour,alfa,,,115,19,V,R,
463,85,1,11,3,44,36,699,['c'],1,left,['0'],6,78,[0.02095992],94,44,hard,plus,dotcolour,alfa,,,115,19,V,R,
464,86,2,11,3,27,53,601,['n'],1,right,['0'],6,148,[-0.1073976],100,53,easy,plus,dotcolour,alfa,,,115,19,V,R,
465,87,3,11,3,53,27,501,['c'],1,left,['0'],6,107,[0.07033243],100,53,easy,plus,dotcolour,alfa,,,115,19,V,R,
466,88,4,11,3,36,44,567,['c'],0,right,['0'],6,121,[0.06162377],100,44,hard,plus,dotcolour,alfa,,,115,19,V,R,
467,89,5,11,3,47,33,599,['c'],1,left,['0'],6,109,[0.01888032],89,47,medium,plus,dotcolour,alfa,,,115,19,V,R,
468,90,6,11,3,44,36,516,['c'],1,left,['0'],6,133,[0.04771032],99,44,hard,plus,dotcolour,alfa,,,115,19,V,R,
469,91,7,11,3,44,36,584,['c'],1,left,['0'],6,98,[0.08467318],100,44,hard,plus,dotcolour,alfa,,,115,19,V,R,
470,92,8,11,3,33,47,767,['c'],0,right,['0'],6,160,[0.04769291],99,47,medium,plus,dotcolour,alfa,,,115,19,V,R,
471,93,9,11,3,36,44,517,['n'],1,right,['0'],6,150,[-0.01257246],76,44,hard,plus,dotcolour,alfa,,,115,19,V,R,
472,94,10,11,3,53,27,549,['c'],1,left,['0'],6,140,[0.10062059],100,53,easy,plus,dotcolour,alfa,,,115,19,V,R,
473,95,11,11,3,33,47,518,['n'],1,right,['0'],6,122,[-0.08955232],100,47,medium,plus,dotcolour,alfa,,,115,19,V,R,
474,96,12,11,3,36,44,385,['c'],0,right,['0'],6,199,[0.06985338],100,44,hard,plus,dotcolour,alfa,,,115,19,V,R,
475,97,13,11,3,53,27,483,['c'],1,left,['0'],6,117,[0.10582759],100,53,easy,plus,dotcolour,alfa,,,115,19,V,R,
476,98,14,11,3,36,44,682,['n'],1,right,['0'],6,215,[-0.04451424],97,44,hard,plus,dotcolour,alfa,,,115,19,V,R,
477,99,15,11,3,47,33,650,['c'],1,left,['0'],6,125,[0.10031028],100,47,medium,plus,dotcolour,alfa,,,115,19,V,R,
478,100,16,11,3,47,33,617,['c'],1,left,['0'],6,176,[0.12680083],100,47,medium,plus,dotcolour,alfa,,,115,19,V,R,
479,101,17,11,3,47,33,551,['c'],1,left,['0'],6,156,[0.07493902],100,47,medium,plus,dotcolour,alfa,,,115,19,V,R,
480,102,18,11,3,47,33,650,['c'],1,left,['0'],6,189,[0.05458694],99,47,medium,plus,dotcolour,alfa,,,115,19,V,R,
481,103,19,11,3,27,53,617,['n'],1,right,['0'],6,198,[-0.11898336],100,53,easy,plus,dotcolour,alfa,,,115,19,V,R,
482,104,20,11,3,44,36,452,['n'],0,left,['0'],6,173,[-0.05540709],99,44,hard,plus,dotcolour,alfa,,,115,19,V,R,
483,105,21,11,3,33,47,534,['n'],1,right,['0'],6,179,[-0.01629422],80,47,medium,plus,dotcolour,alfa,,,115,19,V,R,
484,106,22,11,3,53,27,451,['c'],1,left,['0'],6,73,[0.11304636],100,53,easy,plus,dotcolour,alfa,,,115,19,V,R,
485,107,23,11,3,53,27,400,['c'],1,left,['0'],6,96,[-0.03458565],2,53,easy,plus,dotcolour,alfa,,,115,19,V,R,
486,108,24,11,3,33,47,734,['c'],0,right,['0'],6,136,[0.07601977],100,47,medium,plus,dotcolour,alfa,,,115,19,V,R,
487,109,25,11,3,44,36,566,['c'],1,left,['0'],6,157,[0.01011238],71,44,hard,plus,dotcolour,alfa,,,115,19,V,R,
488,110,26,11,3,27,53,501,['n'],1,right,['0'],6,164,[-0.05692123],99,53,easy,plus,dotcolour,alfa,,,115,19,V,R,
489,111,27,11,3,27,53,717,['n'],1,right,['0'],6,178,[-0.04692364],98,53,easy,plus,dotcolour,alfa,,,115,19,V,R,
490,112,28,11,3,36,44,567,['c'],0,right,['0'],6,141,[0.10335014],100,44,hard,plus,dotcolour,alfa,,,115,19,V,R,
491,113,29,11,3,53,27,518,['c'],1,left,['0'],6,195,[0.10208026],100,53,easy,plus,dotcolour,alfa,,,115,19,V,R,
492,114,30,11,3,36,44,400,['c'],0,right,['0'],6,181,[0.03985643],97,44,hard,plus,dotcolour,alfa,,,115,19,V,R,
493,115,31,11,3,27,53,517,['n'],1,right,['0'],6,162,[-0.11553306],100,53,easy,plus,dotcolour,alfa,,,115,19,V,R,
494,116,32,11,3,27,53,450,['n'],1,right,['0'],6,154,[-0.13711488],100,53,easy,plus,dotcolour,alfa,,,115,19,V,R,
495,117,33,11,3,27,53,551,['c'],0,right,['0'],6,119,[0.03979099],98,53,easy,plus,dotcolour,alfa,,,115,19,V,R,
496,118,34,11,3,47,33,433,['n'],0,left,['0'],6,131,[-0.03147484],96,47,medium,plus,dotcolour,alfa,,,115,19,V,R,
497,119,35,11,3,53,27,450,['c'],1,left,['0'],6,110,[0.06922224],100,53,easy,plus,dotcolour,alfa,,,115,19,V,R,
498,120,36,11,3,33,47,483,['n'],1,right,['0'],6,142,[-0.04515201],99,47,medium,plus,dotcolour,alfa,,,115,19,V,R,
499,121,37,11,3,33,47,401,['c'],0,right,['0'],6,122,[0.08944918],100,47,medium,plus,dotcolour,alfa,,,115,19,V,R,
500,122,38,11,3,44,36,485,['c'],1,left,['0'],6,122,[0.16812416],100,44,hard,plus,dotcolour,alfa,,,115,19,V,R,
501,123,39,11,3,47,33,551,['n'],0,left,['0'],6,168,[-0.00962644],70,47,medium,plus,dotcolour,alfa,,,115,19,V,R,
502,124,40,11,3,36,44,384,['c'],0,right,['0'],6,195,[0.07787136],100,44,hard,plus,dotcolour,alfa,,,115,19,V,R,
503,125,41,11,3,33,47,568,['c'],0,right,['0'],6,135,[0.13363298],100,47,medium,plus,dotcolour,alfa,,,115,19,V,R,
504,0,0,12,4,47,33,734,['c'],1,left,['0'],6,144,[0.04173765],73,47,medium,minus,dotcolour,alfa,,,115,19,V,R,
505,1,1,12,4,44,36,682,['n'],0,left,['0'],6,241,[-0.07851862],81,44,hard,minus,dotcolour,alfa,,,115,19,V,R,
506,2,2,12,4,44,36,633,['c'],1,left,['0'],6,94,[0.12869628],98,44,hard,minus,dotcolour,alfa,,,115,19,V,R,
507,3,3,12,4,53,27,465,['c'],1,left,['0'],6,114,[0.1032947],94,53,easy,minus,dotcolour,alfa,,,115,19,V,R,
508,4,4,12,4,44,36,399,['c'],1,left,['0'],6,93,[0.10722929],96,44,hard,minus,dotcolour,alfa,,,115,19,V,R,
509,5,5,12,4,27,53,450,['n'],1,right,['0'],6,154,[-0.11376506],93,53,easy,minus,dotcolour,alfa,,,115,19,V,R,
510,6,6,12,4,36,44,484,['c'],0,right,['0'],6,137,[0.04094609],73,44,hard,minus,dotcolour,alfa,,,115,19,V,R,
511,7,7,12,4,27,53,500,['n'],1,right,['0'],6,177,[-0.14155914],95,53,easy,minus,dotcolour,alfa,,,115,19,V,R,
512,8,8,12,4,47,33,517,['c'],1,left,['0'],6,71,[0.07734787],93,47,medium,minus,dotcolour,alfa,,,115,19,V,R,
513,9,9,12,4,27,53,550,['n'],1,right,['0'],6,143,[-0.05640607],79,53,easy,minus,dotcolour,alfa,,,115,19,V,R,
514,10,10,12,4,44,36,717,['c'],1,left,['0'],6,53,[0.05593939],90,44,hard,minus,dotcolour,alfa,,,115,19,V,R,
515,11,11,12,4,33,47,583,['n'],1,right,['0'],6,141,[-0.09921963],92,47,medium,minus,dotcolour,alfa,,,115,19,V,R,
516,12,12,12,4,53,27,551,['c'],1,left,['0'],6,107,[0.15398584],99,53,easy,minus,dotcolour,alfa,,,115,19,V,R,
517,13,13,12,4,44,36,602,['c'],1,left,['0'],6,144,[0.12049266],95,44,hard,minus,dotcolour,alfa,,,115,19,V,R,
518,14,14,12,4,27,53,517,['n'],1,right,['0'],6,126,[-0.06152063],83,53,easy,minus,dotcolour,alfa,,,115,19,V,R,
519,15,15,12,4,27,53,600,['c'],0,right,['0'],6,106,[0.06663287],86,53,easy,minus,dotcolour,alfa,,,115,19,V,R,
520,16,16,12,4,47,33,750,['c'],1,left,['0'],6,1081,[0.31605507],94,47,medium,minus,dotcolour,alfa,,,115,19,V,R,
521,17,17,12,4,33,47,1019,['n'],1,right,['0'],6,150,[-0.08960178],89,47,medium,minus,dotcolour,alfa,,,115,19,V,R,
522,18,18,12,4,44,36,600,['c'],1,left,['0'],6,97,[0.06087119],85,44,hard,minus,dotcolour,alfa,,,115,19,V,R,
523,19,19,12,4,47,33,584,['n'],0,left,['0'],6,191,[-0.00166501],51,47,medium,minus,dotcolour,alfa,,,115,19,V,R,
524,20,20,12,4,36,44,801,['c'],0,right,['0'],6,136,[0.09354178],91,44,hard,minus,dotcolour,alfa,,,115,19,V,R,
525,21,21,12,4,27,53,617,['n'],1,right,['0'],6,147,[-0.05554385],79,53,easy,minus,dotcolour,alfa,,,115,19,V,R,
526,22,22,12,4,33,47,918,['n'],1,right,['0'],6,146,[-0.05687043],79,47,medium,minus,dotcolour,alfa,,,115,19,V,R,
527,23,23,12,4,27,53,567,['n'],1,right,['0'],6,183,[-0.11914312],92,53,easy,minus,dotcolour,alfa,,,115,19,V,R,
528,24,24,12,4,36,44,467,['n'],1,right,['0'],6,191,[-0.0081467],54,44,hard,minus,dotcolour,alfa,,,115,19,V,R,
529,25,25,12,4,36,44,615,['n'],1,right,['0'],6,223,[-0.17270218],96,44,hard,minus,dotcolour,alfa,,,115,19,V,R,
530,26,26,12,4,33,47,551,['c'],0,right,['0'],6,169,[0.10408883],91,47,medium,minus,dotcolour,alfa,,,115,19,V,R,
531,27,27,12,4,47,33,682,['c'],1,left,['0'],6,169,[0.08742322],87,47,medium,minus,dotcolour,alfa,,,115,19,V,R,
532,28,28,12,4,53,27,583,['c'],1,left,['0'],6,124,[0.06063341],82,53,easy,minus,dotcolour,alfa,,,115,19,V,R,
533,29,29,12,4,36,44,432,['c'],0,right,['0'],6,102,[0.06745371],87,44,hard,minus,dotcolour,alfa,,,115,19,V,R,
534,30,30,12,4,36,44,549,['n'],1,right,['0'],6,150,[-0.06890097],83,44,hard,minus,dotcolour,alfa,,,115,19,V,R,
535,31,31,12,4,53,27,483,['c'],1,left,['0'],6,135,[0.1242556],95,53,easy,minus,dotcolour,alfa,,,115,19,V,R,
536,32,32,12,4,53,27,382,['c'],1,left,['0'],6,148,[0.06342964],82,53,easy,minus,dotcolour,alfa,,,115,19,V,R,
537,33,33,12,4,47,33,435,['c'],1,left,['0'],6,101,[0.05379806],82,47,medium,minus,dotcolour,alfa,,,115,19,V,R,
538,34,34,12,4,33,47,433,['c'],0,right,['0'],6,233,[0.02530068],62,47,medium,minus,dotcolour,alfa,,,115,19,V,R,
539,35,35,12,4,53,27,468,['c'],1,left,['0'],6,86,[0.11089818],97,53,easy,minus,dotcolour,alfa,,,115,19,V,R,
540,36,36,12,4,47,33,750,['c'],1,left,['0'],6,102,[0.08973514],93,47,medium,minus,dotcolour,alfa,,,115,19,V,R,
541,37,37,12,4,36,44,850,['n'],1,right,['0'],6,123,[-0.02420348],65,44,hard,minus,dotcolour,alfa,,,115,19,V,R,
542,38,38,12,4,33,47,717,['n'],1,right,['0'],6,145,[-0.12543409],95,47,medium,minus,dotcolour,alfa,,,115,19,V,R,
543,39,39,12,4,53,27,666,['c'],1,left,['0'],6,289,[0.11600007],87,53,easy,minus,dotcolour,alfa,,,115,19,V,R,
544,40,40,12,4,44,36,884,['n'],0,left,['0'],6,139,[-0.04825541],76,44,hard,minus,dotcolour,alfa,,,115,19,V,R,
545,41,41,12,4,33,47,516,['c'],0,right,['0'],6,122,[-0.00989228],44,47,medium,minus,dotcolour,alfa,,,115,19,V,R,
546,42,0,13,4,47,33,635,['c'],1,left,['0'],6,116,[0.07884334],89,47,medium,minus,dotcolour,alfa,,,115,19,V,R,
547,43,1,13,4,33,47,585,['c'],0,right,['0'],6,193,[0.07514446],82,47,medium,minus,dotcolour,alfa,,,115,19,V,R,
548,44,2,13,4,36,44,601,['n'],1,right,['0'],6,147,[-0.051647],77,44,hard,minus,dotcolour,alfa,,,115,19,V,R,
549,45,3,13,4,33,47,583,['n'],1,right,['0'],6,167,[-0.08359308],86,47,medium,minus,dotcolour,alfa,,,115,19,V,R,
550,46,4,13,4,53,27,599,['c'],1,left,['0'],6,130,[0.03578126],71,53,easy,minus,dotcolour,alfa,,,115,19,V,R,
551,47,5,13,4,27,53,867,['n'],1,right,['0'],6,219,[-0.14254509],94,53,easy,minus,dotcolour,alfa,,,115,19,V,R,
552,48,6,13,4,33,47,683,['n'],1,right,['0'],6,176,[-0.09620565],89,47,medium,minus,dotcolour,alfa,,,115,19,V,R,
553,49,7,13,4,53,27,534,['c'],1,left,['0'],6,125,[0.07727688],88,53,easy,minus,dotcolour,alfa,,,115,19,V,R,
554,50,8,13,4,33,47,584,['n'],1,right,['0'],6,170,[-0.03143788],67,47,medium,minus,dotcolour,alfa,,,115,19,V,R,
555,51,9,13,4,47,33,468,['c'],1,left,['0'],6,89,[0.04714208],81,47,medium,minus,dotcolour,alfa,,,115,19,V,R,
556,52,10,13,4,27,53,634,['n'],1,right,['0'],6,166,[-0.11606226],93,53,easy,minus,dotcolour,alfa,,,115,19,V,R,
557,53,11,13,4,27,53,451,['n'],1,right,['0'],6,190,[-0.10486657],90,53,easy,minus,dotcolour,alfa,,,115,19,V,R,
558,54,12,13,4,44,36,668,['c'],1,left,['0'],6,101,[0.09274444],93,44,hard,minus,dotcolour,alfa,,,115,19,V,R,
559,55,13,13,4,27,53,483,['n'],1,right,['0'],6,151,[-0.0422425],73,53,easy,minus,dotcolour,alfa,,,115,19,V,R,
560,56,14,13,4,47,33,549,['c'],1,left,['0'],6,84,[0.09346721],95,47,medium,minus,dotcolour,alfa,,,115,19,V,R,
561,57,15,13,4,44,36,651,['c'],1,left,['0'],6,825,[0.13054823],78,44,hard,minus,dotcolour,alfa,,,115,19,V,R,
562,58,16,13,4,53,27,484,['c'],1,left,['0'],6,85,[0.05468807],84,53,easy,minus,dotcolour,alfa,,,115,19,V,R,
563,59,17,13,4,36,44,433,['n'],1,right,['0'],6,178,[-0.09431865],88,44,hard,minus,dotcolour,alfa,,,115,19,V,R,
564,60,18,13,4,33,47,482,['c'],0,right,['0'],6,169,[0.01614159],59,47,medium,minus,dotcolour,alfa,,,115,19,V,R,
565,61,19,13,4,47,33,600,['c'],1,left,['0'],6,107,[0.11281784],96,47,medium,minus,dotcolour,alfa,,,115,19,V,R,
566,62,20,13,4,47,33,483,['c'],1,left,['0'],6,108,[0.05906973],83,47,medium,minus,dotcolour,alfa,,,115,19,V,R,
567,63,21,13,4,44,36,484,['c'],1,left,['0'],6,126,[0.03875799],73,44,hard,minus,dotcolour,alfa,,,115,19,V,R,
568,64,22,13,4,36,44,649,['n'],1,right,['0'],6,144,[-0.05733573],80,44,hard,minus,dotcolour,alfa,,,115,19,V,R,
569,65,23,13,4,27,53,517,['n'],1,right,['0'],6,158,[-0.0893508],88,53,easy,minus,dotcolour,alfa,,,115,19,V,R,
570,66,24,13,4,33,47,600,['c'],0,right,['0'],6,122,[0.02705089],67,47,medium,minus,dotcolour,alfa,,,115,19,V,R,
571,67,25,13,4,44,36,667,['c'],1,left,['0'],6,99,[0.07455992],89,44,hard,minus,dotcolour,alfa,,,115,19,V,R,
572,68,26,13,4,53,27,500,['c'],1,left,['0'],6,116,[0.06961264],86,53,easy,minus,dotcolour,alfa,,,115,19,V,R,
573,69,27,13,4,47,33,433,['c'],1,left,['0'],6,95,[0.08085158],91,47,medium,minus,dotcolour,alfa,,,115,19,V,R,
574,70,28,13,4,44,36,517,['c'],1,left,['0'],6,216,[0.11988029],91,44,hard,minus,dotcolour,alfa,,,115,19,V,R,
575,71,29,13,4,36,44,567,['n'],1,right,['0'],6,162,[-0.05882234],79,44,hard,minus,dotcolour,alfa,,,115,19,V,R,
576,72,30,13,4,53,27,534,['c'],1,left,['9'],5,119,[0.08628817],90,53,easy,minus,dotcolour,alfa,,,115,19,V,R,
577,73,31,13,4,44,36,466,['c'],1,left,['0'],6,81,[0.01906439],65,44,hard,minus,dotcolour,alfa,,,115,19,V,R,
578,74,32,13,4,53,27,484,['c'],1,left,['0'],6,107,[0.12017158],96,53,easy,minus,dotcolour,alfa,,,115,19,V,R,
579,75,33,13,4,27,53,584,['n'],1,right,['0'],6,153,[-0.1156741],93,53,easy,minus,dotcolour,alfa,,,115,19,V,R,
580,76,34,13,4,36,44,434,['n'],1,right,['0'],6,179,[-0.02602447],63,44,hard,minus,dotcolour,alfa,,,115,19,V,R,
581,77,35,13,4,27,53,384,['n'],1,right,['0'],6,174,[-0.09772255],89,53,easy,minus,dotcolour,alfa,,,115,19,V,R,
582,78,36,13,4,47,33,366,['n'],0,left,['0'],6,177,[-0.03690277],69,47,medium,minus,dotcolour,alfa,,,115,19,V,R,
583,79,37,13,4,33,47,551,['n'],1,right,['0'],6,133,[-0.05287216],79,47,medium,minus,dotcolour,alfa,,,115,19,V,R,
584,80,38,13,4,36,44,483,['c'],0,right,['0'],6,118,[0.05971304],83,44,hard,minus,dotcolour,alfa,,,115,19,V,R,
585,81,39,13,4,36,44,599,['c'],0,right,['0'],6,98,[0.07138041],89,44,hard,minus,dotcolour,alfa,,,115,19,V,R,
586,82,40,13,4,53,27,500,['n'],0,left,['0'],6,140,[-0.11727588],94,53,easy,minus,dotcolour,alfa,,,115,19,V,R,
587,83,41,13,4,44,36,567,['c'],1,left,['0'],6,72,[0.11943938],98,44,hard,minus,dotcolour,alfa,,,115,19,V,R,
588,84,0,14,4,47,33,752,['c'],1,left,['0'],6,149,[0.07446462],85,47,medium,minus,dotcolour,alfa,,,115,19,V,R,
589,85,1,14,4,36,44,716,['n'],1,right,['0'],6,204,[-0.10646031],89,44,hard,minus,dotcolour,alfa,,,115,19,V,R,
590,86,2,14,4,44,36,584,['c'],1,left,['0'],6,101,[0.08491923],92,44,hard,minus,dotcolour,alfa,,,115,19,V,R,
591,87,3,14,4,44,36,584,['c'],1,left,['0'],6,140,[0.07203855],85,44,hard,minus,dotcolour,alfa,,,115,19,V,R,
592,88,4,14,4,33,47,434,['n'],1,right,['0'],6,149,[-0.1333945],96,47,medium,minus,dotcolour,alfa,,,115,19,V,R,
593,89,5,14,4,44,36,384,['c'],1,left,['0'],6,145,[0.04838357],76,44,hard,minus,dotcolour,alfa,,,115,19,V,R,
594,90,6,14,4,36,44,684,['c'],0,right,['0'],6,122,[0.03274264],70,44,hard,minus,dotcolour,alfa,,,115,19,V,R,
595,91,7,14,4,33,47,567,['n'],1,right,['0'],6,32,[-0.10437047],99,47,medium,minus,dotcolour,alfa,,,115,19,V,R,
596,92,8,14,4,36,44,750,['n'],1,right,['0'],6,145,[-0.14909478],97,44,hard,minus,dotcolour,alfa,,,115,19,V,R,
597,93,9,14,4,27,53,532,['n'],1,right,['0'],6,143,[-0.09520402],91,53,easy,minus,dotcolour,alfa,,,115,19,V,R,
598,94,10,14,4,47,33,717,['c'],1,left,['0'],6,158,[0.15492926],97,47,medium,minus,dotcolour,alfa,,,115,19,V,R,
599,95,11,14,4,27,53,585,['n'],1,right,['0'],6,170,[-0.14406234],96,53,easy,minus,dotcolour,alfa,,,115,19,V,R,
600,96,12,14,4,53,27,549,['c'],1,left,['0'],6,141,[0.08057114],87,53,easy,minus,dotcolour,alfa,,,115,19,V,R,
601,97,13,14,4,44,36,634,['n'],0,left,['0'],6,183,[-0.00749764],54,44,hard,minus,dotcolour,alfa,,,115,19,V,R,
602,98,14,14,4,36,44,799,['c'],0,right,['0'],6,122,[0.06154802],83,44,hard,minus,dotcolour,alfa,,,115,19,V,R,
603,99,15,14,4,44,36,602,['n'],0,left,['0'],6,182,[0.06461834],20,44,hard,minus,dotcolour,alfa,,,115,19,V,R,
604,100,16,14,4,27,53,534,['c'],0,right,['0'],6,362,[0.0464159],67,53,easy,minus,dotcolour,alfa,,,115,19,V,R,
605,101,17,14,4,33,47,701,['n'],1,right,['0'],6,129,[-0.14471007],97,47,medium,minus,dotcolour,alfa,,,115,19,V,R,
606,102,18,14,4,47,33,567,['c'],1,left,['0'],6,134,[0.10009561],92,47,medium,minus,dotcolour,alfa,,,115,19,V,R,
607,103,19,14,4,36,44,550,['c'],0,right,['0'],6,132,[0.0851542],89,44,hard,minus,dotcolour,alfa,,,115,19,V,R,
608,104,20,14,4,47,33,766,['c'],1,left,['0'],6,1,[0.07271454],100,47,medium,minus,dotcolour,alfa,,,115,19,V,R,
609,105,21,14,4,33,47,683,['n'],1,right,['0'],6,96,[-0.1054397],96,47,medium,minus,dotcolour,alfa,,,115,19,V,R,
610,106,22,14,4,44,36,651,['n'],0,left,['0'],6,155,[-0.05873965],79,44,hard,minus,dotcolour,alfa,,,115,19,V,R,
611,107,23,14,4,36,44,434,['c'],0,right,['0'],6,285,[0.06396559],75,44,hard,minus,dotcolour,alfa,,,115,19,V,R,
612,108,24,14,4,53,27,534,['c'],1,left,['0'],6,109,[0.15852052],99,53,easy,minus,dotcolour,alfa,,,115,19,V,R,
613,109,25,14,4,27,53,701,['n'],1,right,['0'],6,126,[-0.12455194],96,53,easy,minus,dotcolour,alfa,,,115,19,V,R,
614,110,26,14,4,53,27,518,['c'],1,left,['0'],6,109,[0.10097097],94,53,easy,minus,dotcolour,alfa,,,115,19,V,R,
615,111,27,14,4,53,27,516,['c'],1,left,['0'],6,109,[0.10786325],95,53,easy,minus,dotcolour,alfa,,,115,19,V,R,
616,112,28,14,4,27,53,501,['n'],1,right,['0'],6,126,[-0.09003476],91,53,easy,minus,dotcolour,alfa,,,115,19,V,R,
617,113,29,14,4,33,47,517,['c'],0,right,['0'],6,125,[0.02746036],67,47,medium,minus,dotcolour,alfa,,,115,19,V,R,
618,114,30,14,4,47,33,551,['n'],0,left,['0'],6,171,[-0.06039577],79,47,medium,minus,dotcolour,alfa,,,115,19,V,R,
619,115,31,14,4,44,36,567,['c'],1,left,['0'],6,134,[0.08070501],88,44,hard,minus,dotcolour,alfa,,,115,19,V,R,
620,116,32,14,4,47,33,650,['c'],1,left,['0'],6,128,[0.11179348],94,47,medium,minus,dotcolour,alfa,,,115,19,V,R,
621,117,33,14,4,33,47,668,['n'],1,right,['0'],6,178,[-0.07763394],84,47,medium,minus,dotcolour,alfa,,,115,19,V,R,
622,118,34,14,4,47,33,801,['c'],1,left,['0'],6,116,[0.09415073],92,47,medium,minus,dotcolour,alfa,,,115,19,V,R,
623,119,35,14,4,53,27,566,['n'],0,left,['0'],6,137,[-0.03893083],72,53,easy,minus,dotcolour,alfa,,,115,19,V,R,
624,120,36,14,4,33,47,967,['n'],1,right,['0'],6,126,[-0.10908318],94,47,medium,minus,dotcolour,alfa,,,115,19,V,R,
625,121,37,14,4,36,44,817,['c'],0,right,['0'],6,106,[0.07755041],90,44,hard,minus,dotcolour,alfa,,,115,19,V,R,
626,122,38,14,4,53,27,517,['c'],1,left,['0'],6,81,[0.11845214],98,53,easy,minus,dotcolour,alfa,,,115,19,V,R,
627,123,39,14,4,27,53,568,['n'],1,right,['0'],6,186,[-0.13732657],95,53,easy,minus,dotcolour,alfa,,,115,19,V,R,
628,124,40,14,4,53,27,466,['c'],1,left,['0'],6,120,[0.10390529],94,53,easy,minus,dotcolour,alfa,,,115,19,V,R,
629,125,41,14,4,27,53,685,['n'],1,right,['0'],6,145,[-0.0045476],53,53,easy,minus,dotcolour,alfa,,,115,19,V,R,
630,0,0,15,5,47,33,618,['c'],1,left,['0'],6,117,[0.1177395],100,47,medium,plus,dotcolour,alfa,,,115,19,V,R,
631,1,1,15,5,47,33,566,['c'],1,left,['0'],6,163,[0.08892365],100,47,medium,plus,dotcolour,alfa,,,115,19,V,R,
632,2,2,15,5,44,36,618,['c'],1,left,['0'],6,110,[0.12525214],100,44,hard,plus,dotcolour,alfa,,,115,19,V,R,
633,3,3,15,5,47,33,567,['c'],1,left,['0'],6,187,[0.078688],100,47,medium,plus,dotcolour,alfa,,,115,19,V,R,
634,4,4,15,5,36,44,551,['c'],0,right,['0'],6,216,[0.04754343],98,44,hard,plus,dotcolour,alfa,,,115,19,V,R,
635,5,5,15,5,27,53,449,['c'],0,right,['0'],6,125,[0.08441811],100,53,easy,plus,dotcolour,alfa,,,115,19,V,R,
636,6,6,15,5,36,44,768,['n'],1,right,['0'],6,179,[-0.04647264],98,44,hard,plus,dotcolour,alfa,,,115,19,V,R,
637,7,7,15,5,36,44,552,['c'],0,right,['0'],6,223,[0.09565173],100,44,hard,plus,dotcolour,alfa,,,115,19,V,R,
638,8,8,15,5,44,36,616,['c'],1,left,['0'],6,78,[0.06898436],100,44,hard,plus,dotcolour,alfa,,,115,19,V,R,
639,9,9,15,5,47,33,667,['n'],0,left,['0'],6,154,[-0.05873647],100,47,medium,plus,dotcolour,alfa,,,115,19,V,R,
640,10,10,15,5,27,53,634,['c'],0,right,['0'],6,228,[0.00779234],64,53,easy,plus,dotcolour,alfa,,,115,19,V,R,
641,11,11,15,5,33,47,567,['n'],1,right,['0'],6,149,[-0.01690479],83,47,medium,plus,dotcolour,alfa,,,115,19,V,R,
642,12,12,15,5,47,33,516,['c'],1,left,['0'],6,77,[0.03640313],99,47,medium,plus,dotcolour,alfa,,,115,19,V,R,
643,13,13,15,5,53,27,551,['c'],1,left,['0'],6,108,[0.05850208],100,53,easy,plus,dotcolour,alfa,,,115,19,V,R,
644,14,14,15,5,36,44,616,['c'],0,right,['0'],6,80,[0.0795594],100,44,hard,plus,dotcolour,alfa,,,115,19,V,R,
645,15,15,15,5,27,53,499,['c'],0,right,['0'],6,138,[0.0743881],100,53,easy,plus,dotcolour,alfa,,,115,19,V,R,
646,16,16,15,5,53,27,668,['c'],1,left,['0'],6,66,[0.10950679],100,53,easy,plus,dotcolour,alfa,,,115,19,V,R,
647,17,17,15,5,53,27,533,['c'],1,left,['0'],6,75,[0.05340459],100,53,easy,plus,dotcolour,alfa,,,115,19,V,R,
648,18,18,15,5,47,33,467,['c'],1,left,['0'],6,87,[0.1178267],100,47,medium,plus,dotcolour,alfa,,,115,19,V,R,
649,19,19,15,5,27,53,583,['n'],1,right,['0'],6,134,[-0.2087186],100,53,easy,plus,dotcolour,alfa,,,115,19,V,R,
650,20,20,15,5,53,27,500,['c'],1,left,['0'],6,62,[0.09392947],100,53,easy,plus,dotcolour,alfa,,,115,19,V,R,
651,21,21,15,5,36,44,533,['c'],0,right,['0'],6,47,[0.04943992],100,44,hard,plus,dotcolour,alfa,,,115,19,V,R,
652,22,22,15,5,27,53,518,['n'],1,right,['0'],6,129,[-0.09734905],100,53,easy,plus,dotcolour,alfa,,,115,19,V,R,
653,23,23,15,5,33,47,450,['c'],0,right,['0'],6,107,[0.08088465],100,47,medium,plus,dotcolour,alfa,,,115,19,V,R,
654,24,24,15,5,33,47,667,['c'],0,right,['0'],6,21,[0.05880091],100,47,medium,plus,dotcolour,alfa,,,115,19,V,R,
655,25,25,15,5,36,44,582,['n'],1,right,['0'],6,135,[-0.08473931],100,44,hard,plus,dotcolour,alfa,,,115,19,V,R,
656,26,26,15,5,33,47,450,['n'],1,right,['9'],5,192,[-0.15342018],100,47,medium,plus,dotcolour,alfa,,,115,19,V,R,
657,27,27,15,5,53,27,701,['c'],1,left,['0'],6,126,[0.06077516],100,53,easy,plus,dotcolour,alfa,,,115,19,V,R,
658,28,28,15,5,33,47,418,['c'],0,right,['0'],6,137,[0.0843344],100,47,medium,plus,dotcolour,alfa,,,115,19,V,R,
659,29,29,15,5,44,36,549,['c'],1,left,['0'],6,95,[0.06721331],100,44,hard,plus,dotcolour,alfa,,,115,19,V,R,
660,30,30,15,5,27,53,519,['n'],1,right,['0'],6,111,[-0.08411119],100,53,easy,plus,dotcolour,alfa,,,115,19,V,R,
661,31,31,15,5,53,27,484,['c'],1,left,['0'],6,97,[0.11671834],100,53,easy,plus,dotcolour,alfa,,,115,19,V,R,
662,32,32,15,5,44,36,518,['c'],1,left,['0'],6,89,[0.11983139],100,44,hard,plus,dotcolour,alfa,,,115,19,V,R,
663,33,33,15,5,44,36,417,['c'],1,left,['0'],6,95,[0.03947294],99,44,hard,plus,dotcolour,alfa,,,115,19,V,R,
664,34,34,15,5,27,53,567,['n'],1,right,['0'],6,125,[-0.06010057],100,53,easy,plus,dotcolour,alfa,,,115,19,V,R,
665,35,35,15,5,53,27,467,['c'],1,left,['0'],6,39,[0.08667169],100,53,easy,plus,dotcolour,alfa,,,115,19,V,R,
666,36,36,15,5,33,47,451,['c'],0,right,['0'],6,35,[0.04461389],100,47,medium,plus,dotcolour,alfa,,,115,19,V,R,
667,37,37,15,5,47,33,551,['n'],0,left,['0'],6,222,[-0.05854032],99,47,medium,plus,dotcolour,alfa,,,115,19,V,R,
668,38,38,15,5,36,44,634,['c'],0,right,['0'],6,84,[0.01615649],88,44,hard,plus,dotcolour,alfa,,,115,19,V,R,
669,39,39,15,5,33,47,484,['c'],0,right,['0'],6,79,[0.06033605],100,47,medium,plus,dotcolour,alfa,,,115,19,V,R,
670,40,40,15,5,44,36,500,['n'],0,left,['0'],6,41,[-0.04208912],100,44,hard,plus,dotcolour,alfa,,,115,19,V,R,
671,41,41,15,5,44,36,450,['c'],1,left,['0'],6,70,[0.09267066],100,44,hard,plus,dotcolour,alfa,,,115,19,V,R,
672,42,0,16,5,47,33,719,['c'],1,left,['0'],6,77,[0.02787084],97,47,medium,plus,dotcolour,alfa,,,115,19,V,R,
673,43,1,16,5,33,47,417,['c'],0,right,['0'],6,148,[0.05813673],100,47,medium,plus,dotcolour,alfa,,,115,19,V,R,
674,44,2,16,5,44,36,335,['c'],1,left,['0'],6,129,[0.07429687],100,44,hard,plus,dotcolour,alfa,,,115,19,V,R,
675,45,3,16,5,53,27,451,['c'],1,left,['0'],6,115,[0.05584003],100,53,easy,plus,dotcolour,alfa,,,115,19,V,R,
676,46,4,16,5,33,47,451,['c'],0,right,['0'],6,126,[0.0215734],90,47,medium,plus,dotcolour,alfa,,,115,19,V,R,
677,47,5,16,5,53,27,416,['c'],1,left,['0'],6,98,[0.0071271],69,53,easy,plus,dotcolour,alfa,,,115,19,V,R,
678,48,6,16,5,53,27,601,['c'],1,left,['0'],6,22,[0.07980494],100,53,easy,plus,dotcolour,alfa,,,115,19,V,R,
679,49,7,16,5,47,33,418,['c'],1,left,['0'],6,118,[0.08652662],100,47,medium,plus,dotcolour,alfa,,,115,19,V,R,
680,50,8,16,5,33,47,517,['c'],0,right,['2'],2,942,[-0.01098866],40,47,medium,plus,dotcolour,alfa,,,115,19,V,R,
681,51,9,16,5,47,33,968,['c'],1,left,['0'],6,107,[0.09220466],100,47,medium,plus,dotcolour,alfa,,,115,19,V,R,
682,52,10,16,5,44,36,667,['c'],1,left,['0'],6,124,[0.08852337],100,44,hard,plus,dotcolour,alfa,,,115,19,V,R,
683,53,11,16,5,27,53,449,['n'],1,right,['0'],6,158,[-0.13896408],100,53,easy,plus,dotcolour,alfa,,,115,19,V,R,
684,54,12,16,5,33,47,601,['n'],1,right,['0'],6,169,[-0.14360683],100,47,medium,plus,dotcolour,alfa,,,115,19,V,R,
685,55,13,16,5,47,33,550,['c'],1,left,['0'],6,109,[0.0994773],100,47,medium,plus,dotcolour,alfa,,,115,19,V,R,
686,56,14,16,5,36,44,718,['c'],0,right,['0'],6,189,[0.04008872],97,44,hard,plus,dotcolour,alfa,,,115,19,V,R,
687,57,15,16,5,44,36,934,['c'],1,left,['0'],6,82,[0.12726664],100,44,hard,plus,dotcolour,alfa,,,115,19,V,R,
688,58,16,16,5,27,53,550,['n'],1,right,['0'],6,130,[-0.04683606],99,53,easy,plus,dotcolour,alfa,,,115,19,V,R,
689,59,17,16,5,33,47,585,['c'],0,right,['0'],6,111,[0.11047488],100,47,medium,plus,dotcolour,alfa,,,115,19,V,R,
690,60,18,16,5,33,47,767,['n'],1,right,['0'],6,180,[-0.12317066],100,47,medium,plus,dotcolour,alfa,,,115,19,V,R,
691,61,19,16,5,27,53,785,['c'],0,right,['0'],6,135,[-0.0073438],33,53,easy,plus,dotcolour,alfa,,,115,19,V,R,
692,62,20,16,5,27,53,666,['n'],1,right,['0'],6,169,[-0.11326993],100,53,easy,plus,dotcolour,alfa,,,115,19,V,R,
693,63,21,16,5,53,27,551,['c'],1,left,['0'],6,53,[0.08437631],100,53,easy,plus,dotcolour,alfa,,,115,19,V,R,
694,64,22,16,5,36,44,766,['n'],1,right,['0'],6,134,[-0.10088402],100,44,hard,plus,dotcolour,alfa,,,115,19,V,R,
695,65,23,16,5,36,44,685,['n'],1,right,['0'],6,118,[-0.15325982],100,44,hard,plus,dotcolour,alfa,,,115,19,V,R,
696,66,24,16,5,36,44,950,['n'],1,right,['0'],6,125,[-0.16066133],100,44,hard,plus,dotcolour,alfa,,,115,19,V,R,
697,67,25,16,5,36,44,818,['n'],1,right,['0'],6,232,[-0.02144292],83,44,hard,plus,dotcolour,alfa,,,115,19,V,R,
698,68,26,16,5,47,33,699,['c'],1,left,['0'],6,125,[0.05444323],100,47,medium,plus,dotcolour,alfa,,,115,19,V,R,
699,69,27,16,5,47,33,802,['c'],1,left,['0'],6,136,[0.07429946],100,47,medium,plus,dotcolour,alfa,,,115,19,V,R,
700,70,28,16,5,36,44,800,['n'],1,right,['0'],6,172,[-0.03498991],95,44,hard,plus,dotcolour,alfa,,,115,19,V,R,
701,71,29,16,5,27,53,568,['c'],0,right,['0'],6,215,[0.11667074],100,53,easy,plus,dotcolour,alfa,,,115,19,V,R,
702,72,30,16,5,53,27,667,['c'],1,left,['0'],6,142,[0.06819824],100,53,easy,plus,dotcolour,alfa,,,115,19,V,R,
703,73,31,16,5,33,47,619,['n'],1,right,['0'],6,160,[-0.11057683],100,47,medium,plus,dotcolour,alfa,,,115,19,V,R,
704,74,32,16,5,53,27,667,['c'],1,left,['0'],6,89,[0.08668525],100,53,easy,plus,dotcolour,alfa,,,115,19,V,R,
705,75,33,16,5,36,44,667,['n'],1,right,['0'],6,163,[-0.10230343],100,44,hard,plus,dotcolour,alfa,,,115,19,V,R,
706,76,34,16,5,44,36,734,['n'],0,left,['0'],6,153,[-0.10034235],100,44,hard,plus,dotcolour,alfa,,,115,19,V,R,
707,77,35,16,5,27,53,551,['n'],1,right,['0'],6,142,[-0.11932588],100,53,easy,plus,dotcolour,alfa,,,115,19,V,R,
708,78,36,16,5,53,27,566,['c'],1,left,['0'],6,115,[0.04905921],99,53,easy,plus,dotcolour,alfa,,,115,19,V,R,
709,79,37,16,5,44,36,1385,['c'],1,left,['0'],6,120,[0.08930583],100,44,hard,plus,dotcolour,alfa,,,115,19,V,R,
710,80,38,16,5,27,53,567,['n'],1,right,['0'],6,149,[-0.04702302],99,53,easy,plus,dotcolour,alfa,,,115,19,V,R,
711,81,39,16,5,44,36,551,['c'],1,left,['0'],6,83,[0.08842882],100,44,hard,plus,dotcolour,alfa,,,115,19,V,R,
712,82,40,16,5,44,36,617,['n'],0,left,['0'],6,153,[-0.10494972],100,44,hard,plus,dotcolour,alfa,,,115,19,V,R,
713,83,41,16,5,47,33,649,['c'],1,left,['0'],6,107,[0.07968219],100,47,medium,plus,dotcolour,alfa,,,115,19,V,R,
714,84,0,17,5,44,36,652,['c'],1,left,['0'],6,109,[0.14539664],100,44,hard,plus,dotcolour,alfa,,,115,19,V,R,
715,85,1,17,5,44,36,518,['c'],1,left,['0'],6,133,[0.13336552],100,44,hard,plus,dotcolour,alfa,,,115,19,V,R,
716,86,2,17,5,33,47,434,['c'],0,right,['0'],6,168,[0.07114017],100,47,medium,plus,dotcolour,alfa,,,115,19,V,R,
717,87,3,17,5,33,47,616,['c'],0,right,['0'],6,355,[0.02213477],79,47,medium,plus,dotcolour,alfa,,,115,19,V,R,
718,88,4,17,5,27,53,467,['n'],1,right,['0'],6,178,[-0.05798544],99,53,easy,plus,dotcolour,alfa,,,115,19,V,R,
719,89,5,17,5,53,27,517,['c'],1,left,['0'],6,87,[0.06437656],100,53,easy,plus,dotcolour,alfa,,,115,19,V,R,
720,90,6,17,5,27,53,635,['n'],1,right,['0'],6,123,[-0.11969529],100,53,easy,plus,dotcolour,alfa,,,115,19,V,R,
721,91,7,17,5,44,36,601,['c'],1,left,['0'],6,71,[0.1032966],100,44,hard,plus,dotcolour,alfa,,,115,19,V,R,
722,92,8,17,5,36,44,668,['n'],1,right,['0'],6,99,[-0.13633824],100,44,hard,plus,dotcolour,alfa,,,115,19,V,R,
723,93,9,17,5,33,47,651,['n'],1,right,['0'],6,102,[-0.11416479],100,47,medium,plus,dotcolour,alfa,,,115,19,V,R,
724,94,10,17,5,33,47,534,['c'],0,right,['0'],6,302,[0.01473635],72,47,medium,plus,dotcolour,alfa,,,115,19,V,R,
725,95,11,17,5,44,36,966,['c'],1,left,['0'],6,69,[0.04164261],100,44,hard,plus,dotcolour,alfa,,,115,19,V,R,
726,96,12,17,5,53,27,518,['c'],1,left,['0'],6,79,[0.08168161],100,53,easy,plus,dotcolour,alfa,,,115,19,V,R,
727,97,13,17,5,44,36,619,['c'],1,left,['0'],6,76,[0.134874],100,44,hard,plus,dotcolour,alfa,,,115,19,V,R,
728,98,14,17,5,47,33,600,['c'],1,left,['0'],6,98,[0.10168673],100,47,medium,plus,dotcolour,alfa,,,115,19,V,R,
729,99,15,17,5,33,47,583,['n'],1,right,['0'],6,120,[-0.04256064],99,47,medium,plus,dotcolour,alfa,,,115,19,V,R,
730,100,16,17,5,53,27,518,['c'],1,left,['0'],6,49,[0.09347725],100,53,easy,plus,dotcolour,alfa,,,115,19,V,R,
731,101,17,17,5,27,53,601,['n'],1,right,['0'],6,55,[-0.10386493],100,53,easy,plus,dotcolour,alfa,,,115,19,V,R,
732,102,18,17,5,53,27,499,['c'],1,left,['0'],6,66,[0.0790872],100,53,easy,plus,dotcolour,alfa,,,115,19,V,R,
733,103,19,17,5,33,47,801,['n'],1,right,['0'],6,105,[-0.09892379],100,47,medium,plus,dotcolour,alfa,,,115,19,V,R,
734,104,20,17,5,47,33,601,['c'],1,left,['0'],6,885,[0.21682089],100,47,medium,plus,dotcolour,alfa,,,115,19,V,R,
735,105,21,17,5,47,33,633,['c'],1,left,['0'],6,106,[0.1113981],100,47,medium,plus,dotcolour,alfa,,,115,19,V,R,
736,106,22,17,5,36,44,617,['n'],1,right,['0'],6,30,[-0.09067229],100,44,hard,plus,dotcolour,alfa,,,115,19,V,R,
737,107,23,17,5,53,27,535,['c'],1,left,['0'],6,73,[0.08824218],100,53,easy,plus,dotcolour,alfa,,,115,19,V,R,
738,108,24,17,5,27,53,534,['n'],1,right,['0'],6,144,[-0.09811694],100,53,easy,plus,dotcolour,alfa,,,115,19,V,R,
739,109,25,17,5,44,36,600,['c'],1,left,['0'],6,92,[0.11063057],100,44,hard,plus,dotcolour,alfa,,,115,19,V,R,
740,110,26,17,5,27,53,516,['n'],1,right,['0'],6,109,[-0.109363],100,53,easy,plus,dotcolour,alfa,,,115,19,V,R,
741,111,27,17,5,53,27,584,['n'],0,left,['0'],6,43,[-0.1050233],100,53,easy,plus,dotcolour,alfa,,,115,19,V,R,
742,112,28,17,5,47,33,634,['n'],0,left,['0'],6,64,[-0.10946017],100,47,medium,plus,dotcolour,alfa,,,115,19,V,R,
743,113,29,17,5,47,33,666,['c'],1,left,['0'],6,116,[0.10213531],100,47,medium,plus,dotcolour,alfa,,,115,19,V,R,
744,114,30,17,5,27,53,551,['n'],1,right,['0'],6,116,[-0.04401935],99,53,easy,plus,dotcolour,alfa,,,115,19,V,R,
745,115,31,17,5,44,36,484,['c'],1,left,['0'],6,125,[0.17935326],100,44,hard,plus,dotcolour,alfa,,,115,19,V,R,
746,116,32,17,5,36,44,551,['c'],0,right,['0'],6,82,[0.0645656],100,44,hard,plus,dotcolour,alfa,,,115,19,V,R,
747,117,33,17,5,36,44,616,['c'],0,right,['0'],6,104,[0.049603],100,44,hard,plus,dotcolour,alfa,,,115,19,V,R,
748,118,34,17,5,36,44,517,['n'],1,right,['0'],6,105,[-0.09858616],100,44,hard,plus,dotcolour,alfa,,,115,19,V,R,
749,119,35,17,5,53,27,500,['c'],1,left,['0'],6,81,[0.08092341],100,53,easy,plus,dotcolour,alfa,,,115,19,V,R,
750,120,36,17,5,27,53,550,['n'],1,right,['0'],6,97,[-0.05187218],100,53,easy,plus,dotcolour,alfa,,,115,19,V,R,
751,121,37,17,5,47,33,516,['c'],1,left,['0'],6,19,[0.07232301],100,47,medium,plus,dotcolour,alfa,,,115,19,V,R,
752,122,38,17,5,47,33,533,['c'],1,left,['0'],6,101,[0.10384512],100,47,medium,plus,dotcolour,alfa,,,115,19,V,R,
753,123,39,17,5,36,44,618,['n'],1,right,['0'],6,122,[-0.07827205],100,44,hard,plus,dotcolour,alfa,,,115,19,V,R,
754,124,40,17,5,33,47,350,['c'],0,right,['0'],6,120,[0.04345689],99,47,medium,plus,dotcolour,alfa,,,115,19,V,R,
755,125,41,17,5,36,44,534,['c'],0,right,['0'],6,64,[0.05041926],100,44,hard,plus,dotcolour,alfa,,,115,19,V,R,
,,,,,,,,,,,,,,,,,,,,,1,nee,115,19,V,R,
,,,,,,,,,,,,,,,,,,,,,2,['f'],115,19,V,R,
,,,,,,,,,,,,,,,,,,,,,3,['f'],115,19,V,R,
,,,,,,,,,,,,,,,,,,,,,5,['3'],115,19,V,R,
