trial,withinphasetrial,withinblocktrial,block,phase,dotsLeft,dotsRight,rt,resp,cor,cresp,conf_press,cj,RTconf,ev,fb,diff,difflevel,condition,task,manip,questionID,questionResp,sub,age,gender,handedness,
0,0,0,0,0,53,27,2416,['c'],1,left,['3'],3,3187,[0.69214235],100,53,easy,plus,dotcolour,beta,,,26,19,V,R,
1,1,1,0,0,44,36,1282,['c'],1,left,['8'],4,832,[0.09233606],95,44,hard,plus,dotcolour,beta,,,26,19,V,R,
2,2,2,0,0,36,44,1816,['n'],1,right,['8'],4,1087,[-0.13762814],97,44,hard,plus,dotcolour,beta,,,26,19,V,R,
3,3,3,0,0,47,33,1816,['c'],1,left,['0'],6,972,[0.21539234],99,47,medium,plus,dotcolour,beta,,,26,19,V,R,
4,4,4,0,0,47,33,1450,['c'],1,left,['0'],6,588,[0.03107005],88,47,medium,plus,dotcolour,beta,,,26,19,V,R,
5,5,5,0,0,33,47,1315,['n'],1,right,['8'],4,497,[-0.14494629],99,47,medium,plus,dotcolour,beta,,,26,19,V,R,
6,6,6,0,0,27,53,1350,['n'],1,right,['0'],6,504,[-0.2354354],100,53,easy,plus,dotcolour,beta,,,26,19,V,R,
7,7,7,0,0,27,53,1382,['n'],1,right,['3'],3,542,[-0.10295722],98,53,easy,plus,dotcolour,beta,,,26,19,V,R,
8,8,8,0,0,33,47,1432,['c'],0,right,['0'],6,480,[-0.04234511],58,47,medium,plus,dotcolour,beta,,,26,19,V,R,
9,9,9,0,0,27,53,913,['n'],1,right,['8'],4,481,[-0.08230363],97,53,easy,plus,dotcolour,beta,,,26,19,V,R,
10,10,10,0,0,36,44,1198,['c'],0,right,['0'],6,367,[0.08696755],99,44,hard,plus,dotcolour,beta,,,26,19,V,R,
11,11,11,0,0,27,53,915,['n'],1,right,['0'],6,405,[-0.20015207],100,53,easy,plus,dotcolour,beta,,,26,19,V,R,
12,12,12,0,0,53,27,983,['c'],1,left,['0'],6,302,[0.10600714],99,53,easy,plus,dotcolour,beta,,,26,19,V,R,
13,13,13,0,0,36,44,1232,['n'],1,right,['8'],4,354,[-0.14220783],100,44,hard,plus,dotcolour,beta,,,26,19,V,R,
14,14,14,0,0,33,47,949,['n'],1,right,['9'],5,399,[-0.16039639],100,47,medium,plus,dotcolour,beta,,,26,19,V,R,
15,15,15,0,0,53,27,682,['c'],1,left,['0'],6,341,[0.10127345],99,53,easy,plus,dotcolour,beta,,,26,19,V,R,
16,16,16,0,0,53,27,713,['c'],1,left,['0'],6,371,[0.09852356],99,53,easy,plus,dotcolour,beta,,,26,19,V,R,
17,17,17,0,0,36,44,1799,['n'],1,right,['3'],3,390,[-0.09741871],99,44,hard,plus,dotcolour,beta,,,26,19,V,R,
18,18,18,0,0,33,47,1715,['c'],0,right,['8'],4,347,[0.01227056],89,47,medium,plus,dotcolour,beta,,,26,19,V,R,
19,19,19,0,0,36,44,897,['n'],1,right,['0'],6,251,[-0.1226923],100,44,hard,plus,dotcolour,beta,,,26,19,V,R,
20,20,20,0,0,27,53,1049,['n'],1,right,['8'],4,272,[-0.08649652],99,53,easy,plus,dotcolour,beta,,,26,19,V,R,
21,21,21,0,0,47,33,1181,['c'],1,left,['0'],6,333,[0.1672074],100,47,medium,plus,dotcolour,beta,,,26,19,V,R,
22,22,22,0,0,44,36,1148,['n'],0,left,['8'],4,332,[0.0019531],84,44,hard,plus,dotcolour,beta,,,26,19,V,R,
23,23,23,0,0,33,47,1231,['n'],1,right,['9'],5,407,[-0.14932019],100,47,medium,plus,dotcolour,beta,,,26,19,V,R,
24,24,24,0,0,36,44,1117,['n'],1,right,['0'],6,322,[-0.02162507],92,44,hard,plus,dotcolour,beta,,,26,19,V,R,
25,25,25,0,0,44,36,1117,['c'],1,left,['9'],5,362,[0.03995499],95,44,hard,plus,dotcolour,beta,,,26,19,V,R,
26,26,26,0,0,36,44,1514,['n'],1,right,['8'],4,400,[-0.11636387],99,44,hard,plus,dotcolour,beta,,,26,19,V,R,
27,27,27,0,0,44,36,1032,['c'],1,left,['9'],5,336,[0.05376252],97,44,hard,plus,dotcolour,beta,,,26,19,V,R,
28,28,28,0,0,44,36,982,['c'],1,left,['0'],6,325,[0.12339683],100,44,hard,plus,dotcolour,beta,,,26,19,V,R,
29,29,29,0,0,27,53,1013,['n'],1,right,['9'],5,312,[-0.08621521],99,53,easy,plus,dotcolour,beta,,,26,19,V,R,
30,30,30,0,0,47,33,998,['c'],1,left,['0'],6,405,[0.21449241],100,47,medium,plus,dotcolour,beta,,,26,19,V,R,
31,31,31,0,0,47,33,830,['c'],1,left,['9'],5,324,[0.0369464],95,47,medium,plus,dotcolour,beta,,,26,19,V,R,
32,32,32,0,0,33,47,1048,['n'],1,right,['8'],4,390,[-0.16363795],100,47,medium,plus,dotcolour,beta,,,26,19,V,R,
33,33,33,0,0,27,53,917,['n'],1,right,['0'],6,227,[-0.11712688],100,53,easy,plus,dotcolour,beta,,,26,19,V,R,
34,34,34,0,0,44,36,847,['c'],1,left,['9'],5,313,[0.01331605],90,44,hard,plus,dotcolour,beta,,,26,19,V,R,
35,35,35,0,0,53,27,1166,['c'],1,left,['0'],6,263,[0.07592438],99,53,easy,plus,dotcolour,beta,,,26,19,V,R,
36,36,36,0,0,53,27,782,['c'],1,left,['0'],6,222,[0.06043929],99,53,easy,plus,dotcolour,beta,,,26,19,V,R,
37,37,37,0,0,47,33,581,['c'],1,left,['0'],6,223,[0.14080275],100,47,medium,plus,dotcolour,beta,,,26,19,V,R,
38,38,38,0,0,44,36,764,['c'],1,left,['0'],6,265,[0.03979464],97,44,hard,plus,dotcolour,beta,,,26,19,V,R,
39,39,39,0,0,47,33,630,['c'],1,left,['0'],6,222,[0.09589057],100,47,medium,plus,dotcolour,beta,,,26,19,V,R,
40,40,40,0,0,33,47,815,['n'],1,right,['0'],6,205,[-0.11758299],100,47,medium,plus,dotcolour,beta,,,26,19,V,R,
41,41,41,0,0,53,27,581,['c'],1,left,['9'],5,311,[0.1575574],100,53,easy,plus,dotcolour,beta,,,26,19,V,R,
42,42,0,1,0,27,53,983,['n'],1,right,['0'],6,213,[-0.09007267],100,53,easy,plus,dotcolour,beta,,,26,19,V,R,
43,43,1,1,0,33,47,1016,['n'],1,right,['9'],5,238,[-0.12013415],100,47,medium,plus,dotcolour,beta,,,26,19,V,R,
44,44,2,1,0,27,53,796,['n'],1,right,['8'],4,238,[-0.05528219],98,53,easy,plus,dotcolour,beta,,,26,19,V,R,
45,45,3,1,0,53,27,482,['c'],1,left,['0'],6,266,[0.19289242],100,53,easy,plus,dotcolour,beta,,,26,19,V,R,
46,46,4,1,0,47,33,681,['c'],1,left,['0'],6,205,[0.11617683],100,47,medium,plus,dotcolour,beta,,,26,19,V,R,
47,47,5,1,0,33,47,947,['c'],0,right,['0'],6,407,[0.00265797],84,47,medium,plus,dotcolour,beta,,,26,19,V,R,
48,48,6,1,0,47,33,1032,['c'],1,left,['9'],5,247,[0.07140896],99,47,medium,plus,dotcolour,beta,,,26,19,V,R,
49,49,7,1,0,36,44,1097,['n'],1,right,['9'],5,258,[-0.04885273],98,44,hard,plus,dotcolour,beta,,,26,19,V,R,
50,50,8,1,0,36,44,915,['c'],0,right,['1'],1,1196,[0.1196855],95,44,hard,plus,dotcolour,beta,,,26,19,V,R,
51,51,9,1,0,44,36,1300,['c'],1,left,['9'],5,201,[0.03364803],97,44,hard,plus,dotcolour,beta,,,26,19,V,R,
52,52,10,1,0,36,44,1449,['c'],0,right,['9'],5,288,[0.05529308],98,44,hard,plus,dotcolour,beta,,,26,19,V,R,
53,53,11,1,0,53,27,1148,['c'],1,left,['0'],6,199,[0.14484444],100,53,easy,plus,dotcolour,beta,,,26,19,V,R,
54,54,12,1,0,33,47,1065,['n'],1,right,['9'],5,198,[-0.02331105],96,47,medium,plus,dotcolour,beta,,,26,19,V,R,
55,55,13,1,0,44,36,647,['c'],1,left,['0'],6,381,[0.20705829],100,44,hard,plus,dotcolour,beta,,,26,19,V,R,
56,56,14,1,0,53,27,582,['c'],1,left,['0'],6,264,[0.16186817],100,53,easy,plus,dotcolour,beta,,,26,19,V,R,
57,57,15,1,0,27,53,749,['n'],1,right,['8'],4,280,[-0.0272296],94,53,easy,plus,dotcolour,beta,,,26,19,V,R,
58,58,16,1,0,44,36,599,['c'],1,left,['9'],5,263,[0.01679498],93,44,hard,plus,dotcolour,beta,,,26,19,V,R,
59,59,17,1,0,44,36,731,['c'],1,left,['0'],6,200,[0.01557799],95,44,hard,plus,dotcolour,beta,,,26,19,V,R,
60,60,18,1,0,33,47,666,['n'],1,right,['9'],5,207,[-0.12168011],100,47,medium,plus,dotcolour,beta,,,26,19,V,R,
61,61,19,1,0,44,36,598,['c'],1,left,['0'],6,295,[0.0212911],93,44,hard,plus,dotcolour,beta,,,26,19,V,R,
62,62,20,1,0,47,33,833,['c'],1,left,['9'],5,227,[0.09155424],100,47,medium,plus,dotcolour,beta,,,26,19,V,R,
63,63,21,1,0,53,27,715,['c'],1,left,['0'],6,231,[0.16894635],100,53,easy,plus,dotcolour,beta,,,26,19,V,R,
64,64,22,1,0,47,33,1349,['n'],0,left,['8'],4,249,[0.01560604],81,47,medium,plus,dotcolour,beta,,,26,19,V,R,
65,65,23,1,0,33,47,999,['n'],1,right,['9'],5,248,[-0.07776558],99,47,medium,plus,dotcolour,beta,,,26,19,V,R,
66,66,24,1,0,27,53,883,['n'],1,right,['0'],6,164,[-0.12880723],100,53,easy,plus,dotcolour,beta,,,26,19,V,R,
67,67,25,1,0,33,47,1149,['n'],1,right,['8'],4,353,[-0.23242118],100,47,medium,plus,dotcolour,beta,,,26,19,V,R,
68,68,26,1,0,33,47,885,['c'],0,right,['9'],5,313,[0.06202075],98,47,medium,plus,dotcolour,beta,,,26,19,V,R,
69,69,27,1,0,27,53,1199,['c'],0,right,['0'],6,702,[0.0041459],78,53,easy,plus,dotcolour,beta,,,26,19,V,R,
70,70,28,1,0,47,33,1449,['c'],1,left,['8'],4,224,[0.09516085],100,47,medium,plus,dotcolour,beta,,,26,19,V,R,
71,71,29,1,0,44,36,732,['c'],1,left,['9'],5,195,[0.14752448],100,44,hard,plus,dotcolour,beta,,,26,19,V,R,
72,72,30,1,0,36,44,949,['n'],1,right,['9'],5,223,[-0.09000904],100,44,hard,plus,dotcolour,beta,,,26,19,V,R,
73,73,31,1,0,44,36,1965,['c'],1,left,['0'],6,360,[-0.01734704],76,44,hard,plus,dotcolour,beta,,,26,19,V,R,
74,74,32,1,0,53,27,632,['c'],1,left,['9'],5,233,[0.15029311],100,53,easy,plus,dotcolour,beta,,,26,19,V,R,
75,75,33,1,0,27,53,900,['n'],1,right,['0'],6,205,[-0.16498266],100,53,easy,plus,dotcolour,beta,,,26,19,V,R,
76,76,34,1,0,53,27,798,['c'],1,left,['9'],5,390,[0.06260239],97,53,easy,plus,dotcolour,beta,,,26,19,V,R,
77,77,35,1,0,53,27,716,['c'],1,left,['0'],6,171,[0.00262007],93,53,easy,plus,dotcolour,beta,,,26,19,V,R,
78,78,36,1,0,27,53,616,['n'],1,right,['0'],6,221,[-0.17263286],100,53,easy,plus,dotcolour,beta,,,26,19,V,R,
79,79,37,1,0,36,44,1299,['c'],0,right,['0'],6,145,[0.04256988],99,44,hard,plus,dotcolour,beta,,,26,19,V,R,
80,80,38,1,0,47,33,598,['c'],1,left,['0'],6,172,[0.17537554],100,47,medium,plus,dotcolour,beta,,,26,19,V,R,
81,81,39,1,0,36,44,1615,['n'],1,right,['8'],4,206,[-0.06159839],99,44,hard,plus,dotcolour,beta,,,26,19,V,R,
82,82,40,1,0,36,44,748,['n'],1,right,['0'],6,216,[-0.03938542],98,44,hard,plus,dotcolour,beta,,,26,19,V,R,
83,83,41,1,0,47,33,665,['c'],1,left,['0'],6,190,[0.04950121],99,47,medium,plus,dotcolour,beta,,,26,19,V,R,
84,84,0,2,0,36,44,900,['n'],1,right,['0'],6,212,[-0.12855996],100,44,hard,plus,dotcolour,beta,,,26,19,V,R,
85,85,1,2,0,53,27,599,['c'],1,left,['0'],6,181,[0.11482056],100,53,easy,plus,dotcolour,beta,,,26,19,V,R,
86,86,2,2,0,44,36,1298,['n'],0,left,['0'],6,155,[-0.01576174],96,44,hard,plus,dotcolour,beta,,,26,19,V,R,
87,87,3,2,0,53,27,781,['c'],1,left,['0'],6,175,[0.03971736],98,53,easy,plus,dotcolour,beta,,,26,19,V,R,
88,88,4,2,0,33,47,1249,['n'],1,right,['9'],5,271,[-0.13140684],100,47,medium,plus,dotcolour,beta,,,26,19,V,R,
89,89,5,2,0,44,36,617,['c'],1,left,['0'],6,156,[-0.02216821],82,44,hard,plus,dotcolour,beta,,,26,19,V,R,
90,90,6,2,0,27,53,1996,['n'],1,right,['0'],6,302,[-0.15410356],100,53,easy,plus,dotcolour,beta,,,26,19,V,R,
91,91,7,2,0,27,53,1480,['c'],0,right,['0'],6,168,[0.0623755],99,53,easy,plus,dotcolour,beta,,,26,19,V,R,
92,92,8,2,0,53,27,631,['c'],1,left,['0'],6,137,[0.10458416],100,53,easy,plus,dotcolour,beta,,,26,19,V,R,
93,93,9,2,0,27,53,733,['n'],1,right,['0'],6,312,[-0.06935015],98,53,easy,plus,dotcolour,beta,,,26,19,V,R,
94,94,10,2,0,33,47,1749,['n'],1,right,['0'],6,647,[-0.10815131],97,47,medium,plus,dotcolour,beta,,,26,19,V,R,
95,95,11,2,0,53,27,698,['c'],1,left,['9'],5,258,[0.1151205],100,53,easy,plus,dotcolour,beta,,,26,19,V,R,
96,96,12,2,0,27,53,1499,['n'],1,right,['9'],5,228,[-0.07432643],99,53,easy,plus,dotcolour,beta,,,26,19,V,R,
97,97,13,2,0,36,44,1499,['n'],1,right,['9'],5,256,[-0.01737187],93,44,hard,plus,dotcolour,beta,,,26,19,V,R,
98,98,14,2,0,47,33,616,['c'],1,left,['9'],5,246,[0.08285794],99,47,medium,plus,dotcolour,beta,,,26,19,V,R,
99,99,15,2,0,44,36,715,['c'],1,left,['9'],5,217,[0.02780848],96,44,hard,plus,dotcolour,beta,,,26,19,V,R,
100,100,16,2,0,44,36,615,['n'],0,left,['9'],5,257,[-0.01759658],93,44,hard,plus,dotcolour,beta,,,26,19,V,R,
101,101,17,2,0,53,27,1416,['n'],0,left,['9'],5,191,[-0.08920239],100,53,easy,plus,dotcolour,beta,,,26,19,V,R,
102,102,18,2,0,53,27,815,['c'],1,left,['9'],5,192,[0.1454703],100,53,easy,plus,dotcolour,beta,,,26,19,V,R,
103,103,19,2,0,47,33,599,['c'],1,left,['9'],5,385,[0.09566649],99,47,medium,plus,dotcolour,beta,,,26,19,V,R,
104,104,20,2,0,36,44,1017,['n'],1,right,['0'],6,298,[-0.09459256],99,44,hard,plus,dotcolour,beta,,,26,19,V,R,
105,105,21,2,0,44,36,1216,['c'],1,left,['0'],6,207,[0.08448549],100,44,hard,plus,dotcolour,beta,,,26,19,V,R,
106,106,22,2,0,44,36,815,['c'],1,left,['0'],6,216,[0.02643724],96,44,hard,plus,dotcolour,beta,,,26,19,V,R,
107,107,23,2,0,27,53,1365,['n'],1,right,['0'],6,546,[-0.17093861],100,53,easy,plus,dotcolour,beta,,,26,19,V,R,
108,108,24,2,0,47,33,1917,['c'],1,left,['8'],4,633,[0.13942001],99,47,medium,plus,dotcolour,beta,,,26,19,V,R,
109,109,25,2,0,27,53,834,['n'],1,right,['0'],6,231,[-0.09621586],100,53,easy,plus,dotcolour,beta,,,26,19,V,R,
110,110,26,2,0,53,27,684,['c'],1,left,['0'],6,212,[0.04068086],98,53,easy,plus,dotcolour,beta,,,26,19,V,R,
111,111,27,2,0,44,36,733,['c'],1,left,['0'],6,175,[0.10479394],100,44,hard,plus,dotcolour,beta,,,26,19,V,R,
112,112,28,2,0,36,44,1151,['n'],1,right,['0'],6,187,[-0.0905137],100,44,hard,plus,dotcolour,beta,,,26,19,V,R,
113,113,29,2,0,36,44,967,['c'],0,right,['0'],6,175,[0.10795143],100,44,hard,plus,dotcolour,beta,,,26,19,V,R,
114,114,30,2,0,47,33,951,['n'],0,left,['0'],6,195,[0.05711144],48,47,medium,plus,dotcolour,beta,,,26,19,V,R,
115,115,31,2,0,33,47,2384,['c'],0,right,['0'],6,181,[0.04548338],99,47,medium,plus,dotcolour,beta,,,26,19,V,R,
116,116,32,2,0,33,47,1467,['n'],1,right,['0'],6,196,[-0.17878355],100,47,medium,plus,dotcolour,beta,,,26,19,V,R,
117,117,33,2,0,47,33,1100,['c'],1,left,['0'],6,153,[0.0595417],100,47,medium,plus,dotcolour,beta,,,26,19,V,R,
118,118,34,2,0,47,33,1100,['c'],1,left,['0'],6,281,[0.13021466],100,47,medium,plus,dotcolour,beta,,,26,19,V,R,
119,119,35,2,0,33,47,933,['n'],1,right,['0'],6,154,[-0.11111199],100,47,medium,plus,dotcolour,beta,,,26,19,V,R,
120,120,36,2,0,33,47,1183,['n'],1,right,['0'],6,182,[-0.13478476],100,47,medium,plus,dotcolour,beta,,,26,19,V,R,
121,121,37,2,0,47,33,684,['c'],1,left,['0'],6,196,[0.10388774],100,47,medium,plus,dotcolour,beta,,,26,19,V,R,
122,122,38,2,0,27,53,750,['n'],1,right,['0'],6,151,[-0.10174106],100,53,easy,plus,dotcolour,beta,,,26,19,V,R,
123,123,39,2,0,33,47,983,['c'],0,right,['0'],6,140,[0.00380889],95,47,medium,plus,dotcolour,beta,,,26,19,V,R,
124,124,40,2,0,36,44,1216,['c'],0,right,['0'],6,215,[0.07498696],99,44,hard,plus,dotcolour,beta,,,26,19,V,R,
125,125,41,2,0,36,44,1032,['c'],0,right,['0'],6,222,[0.00733856],92,44,hard,plus,dotcolour,beta,,,26,19,V,R,
126,0,0,3,1,44,36,1516,['c'],1,left,['0'],6,183,[0.01299913],14,44,hard,minus,dotcolour,beta,,,26,19,V,R,
127,1,1,3,1,33,47,1099,['n'],1,right,['0'],6,245,[-0.09166361],79,47,medium,minus,dotcolour,beta,,,26,19,V,R,
128,2,2,3,1,47,33,2099,['c'],1,left,['8'],4,521,[0.1931984],97,47,medium,minus,dotcolour,beta,,,26,19,V,R,
129,3,3,3,1,53,27,815,['c'],1,left,['9'],5,349,[0.23740229],100,53,easy,minus,dotcolour,beta,,,26,19,V,R,
130,4,4,3,1,27,53,830,['n'],1,right,['9'],5,238,[-0.0832469],74,53,easy,minus,dotcolour,beta,,,26,19,V,R,
131,5,5,3,1,36,44,1617,['n'],1,right,['0'],6,157,[-0.11267984],93,44,hard,minus,dotcolour,beta,,,26,19,V,R,
132,6,6,3,1,53,27,714,['c'],1,left,['0'],6,228,[0.16333252],98,53,easy,minus,dotcolour,beta,,,26,19,V,R,
133,7,7,3,1,44,36,1332,['n'],0,left,['9'],5,439,[0.00951652],15,44,hard,minus,dotcolour,beta,,,26,19,V,R,
134,8,8,3,1,44,36,1066,['c'],1,left,['0'],6,172,[0.10605766],90,44,hard,minus,dotcolour,beta,,,26,19,V,R,
135,9,9,3,1,36,44,1799,['n'],1,right,['9'],5,446,[-0.00074943],19,44,hard,minus,dotcolour,beta,,,26,19,V,R,
136,10,10,3,1,47,33,1065,['c'],1,left,['9'],5,355,[0.10626533],82,47,medium,minus,dotcolour,beta,,,26,19,V,R,
137,11,11,3,1,27,53,949,['n'],1,right,['0'],6,232,[-0.11782943],91,53,easy,minus,dotcolour,beta,,,26,19,V,R,
138,12,12,3,1,53,27,1099,['c'],1,left,['0'],6,132,[0.04620728],39,53,easy,minus,dotcolour,beta,,,26,19,V,R,
139,13,13,3,1,27,53,1149,['n'],1,right,['0'],6,386,[-0.21466323],99,53,easy,minus,dotcolour,beta,,,26,19,V,R,
140,14,14,3,1,44,36,1032,['c'],1,left,['0'],6,306,[0.13627797],93,44,hard,minus,dotcolour,beta,,,26,19,V,R,
141,15,15,3,1,53,27,1215,['c'],1,left,['0'],6,214,[0.10712143],88,53,easy,minus,dotcolour,beta,,,26,19,V,R,
142,16,16,3,1,53,27,766,['c'],1,left,['0'],6,168,[0.0694631],65,53,easy,minus,dotcolour,beta,,,26,19,V,R,
143,17,17,3,1,36,44,1565,['n'],1,right,['8'],4,484,[-0.13377192],88,44,hard,minus,dotcolour,beta,,,26,19,V,R,
144,18,18,3,1,36,44,1265,['c'],0,right,['9'],5,191,[0.06763723],62,44,hard,minus,dotcolour,beta,,,26,19,V,R,
145,19,19,3,1,27,53,949,['n'],1,right,['9'],5,210,[-0.06030647],55,53,easy,minus,dotcolour,beta,,,26,19,V,R,
146,20,20,3,1,36,44,1449,['c'],0,right,['3'],3,1017,[-0.2072991],1,44,hard,minus,dotcolour,beta,,,26,19,V,R,
147,21,21,3,1,33,47,1148,['n'],1,right,['0'],6,445,[-0.13637642],90,47,medium,minus,dotcolour,beta,,,26,19,V,R,
148,22,22,3,1,44,36,1115,['c'],1,left,['9'],5,231,[0.11518039],90,44,hard,minus,dotcolour,beta,,,26,19,V,R,
149,23,23,3,1,33,47,1268,['n'],1,right,['8'],4,364,[-0.09231931],75,47,medium,minus,dotcolour,beta,,,26,19,V,R,
150,24,24,3,1,36,44,998,['c'],0,right,['8'],4,423,[0.17998144],97,44,hard,minus,dotcolour,beta,,,26,19,V,R,
151,25,25,3,1,47,33,850,['c'],1,left,['9'],5,261,[0.03801464],35,47,medium,minus,dotcolour,beta,,,26,19,V,R,
152,26,26,3,1,53,27,950,['c'],1,left,['0'],6,374,[0.10977677],83,53,easy,minus,dotcolour,beta,,,26,19,V,R,
153,27,27,3,1,33,47,1631,['n'],1,right,['8'],4,342,[-0.17746617],98,47,medium,minus,dotcolour,beta,,,26,19,V,R,
154,28,28,3,1,36,44,1065,['n'],1,right,['9'],5,215,[-0.01601378],18,44,hard,minus,dotcolour,beta,,,26,19,V,R,
155,29,29,3,1,44,36,1215,['n'],0,left,['3'],3,3479,[0.21841883],7,44,hard,minus,dotcolour,beta,,,26,19,V,R,
156,30,30,3,1,27,53,848,['n'],1,right,['0'],6,211,[-0.0551923],50,53,easy,minus,dotcolour,beta,,,26,19,V,R,
157,31,31,3,1,33,47,1315,['n'],1,right,['0'],6,247,[-0.0532541],48,47,medium,minus,dotcolour,beta,,,26,19,V,R,
158,32,32,3,1,47,33,1231,['c'],1,left,['9'],5,765,[0.06292499],54,47,medium,minus,dotcolour,beta,,,26,19,V,R,
159,33,33,3,1,33,47,1100,['n'],1,right,['0'],6,155,[-0.10635075],91,47,medium,minus,dotcolour,beta,,,26,19,V,R,
160,34,34,3,1,44,36,2314,['c'],1,left,['8'],4,553,[0.06053389],53,44,hard,minus,dotcolour,beta,,,26,19,V,R,
161,35,35,3,1,27,53,932,['n'],1,right,['0'],6,246,[-0.18519022],99,53,easy,minus,dotcolour,beta,,,26,19,V,R,
162,36,36,3,1,53,27,1249,['c'],1,left,['0'],6,172,[0.04223154],36,53,easy,minus,dotcolour,beta,,,26,19,V,R,
163,37,37,3,1,33,47,1649,['n'],1,right,['0'],6,388,[-0.01973301],26,47,medium,minus,dotcolour,beta,,,26,19,V,R,
164,38,38,3,1,47,33,1100,['c'],1,left,['3'],3,889,[0.1678601],90,47,medium,minus,dotcolour,beta,,,26,19,V,R,
165,39,39,3,1,47,33,1466,['c'],1,left,['9'],5,308,[0.15199586],96,47,medium,minus,dotcolour,beta,,,26,19,V,R,
166,40,40,3,1,27,53,1149,['n'],1,right,['9'],5,283,[-0.08334678],72,53,easy,minus,dotcolour,beta,,,26,19,V,R,
167,41,41,3,1,47,33,1233,['c'],1,left,['0'],6,135,[0.11416837],95,47,medium,minus,dotcolour,beta,,,26,19,V,R,
168,42,0,4,1,44,36,1549,['c'],1,left,['0'],6,213,[0.0980042],84,44,hard,minus,dotcolour,beta,,,26,19,V,R,
169,43,1,4,1,47,33,831,['c'],1,left,['9'],5,292,[0.08001552],69,47,medium,minus,dotcolour,beta,,,26,19,V,R,
170,44,2,4,1,53,27,766,['c'],1,left,['9'],5,298,[0.15835223],97,53,easy,minus,dotcolour,beta,,,26,19,V,R,
171,45,3,4,1,33,47,1215,['n'],1,right,['3'],3,504,[0.04163796],8,47,medium,minus,dotcolour,beta,,,26,19,V,R,
172,46,4,4,1,47,33,1032,['c'],1,left,['0'],6,219,[0.07899328],71,47,medium,minus,dotcolour,beta,,,26,19,V,R,
173,47,5,4,1,47,33,630,['c'],1,left,['9'],5,194,[0.06221648],57,47,medium,minus,dotcolour,beta,,,26,19,V,R,
174,48,6,4,1,36,44,1331,['n'],1,right,['9'],5,278,[-0.07844228],69,44,hard,minus,dotcolour,beta,,,26,19,V,R,
175,49,7,4,1,53,27,782,['c'],1,left,['0'],6,157,[0.08758702],81,53,easy,minus,dotcolour,beta,,,26,19,V,R,
176,50,8,4,1,36,44,915,['n'],1,right,['0'],6,188,[-0.0652334],60,44,hard,minus,dotcolour,beta,,,26,19,V,R,
177,51,9,4,1,33,47,1681,['c'],0,right,['3'],3,618,[-0.06793851],6,47,medium,minus,dotcolour,beta,,,26,19,V,R,
178,52,10,4,1,36,44,1597,['c'],0,right,['9'],5,171,[0.07228695],67,44,hard,minus,dotcolour,beta,,,26,19,V,R,
179,53,11,4,1,47,33,898,['c'],1,left,['0'],6,193,[0.07607827],70,47,medium,minus,dotcolour,beta,,,26,19,V,R,
180,54,12,4,1,44,36,1648,['c'],1,left,['8'],4,521,[0.14197596],90,44,hard,minus,dotcolour,beta,,,26,19,V,R,
181,55,13,4,1,36,44,832,['c'],0,right,['8'],4,252,[0.12909565],93,44,hard,minus,dotcolour,beta,,,26,19,V,R,
182,56,14,4,1,27,53,1066,['n'],1,right,['3'],3,249,[-0.15465791],97,53,easy,minus,dotcolour,beta,,,26,19,V,R,
183,57,15,4,1,53,27,916,['c'],1,left,['9'],5,588,[0.12970253],85,53,easy,minus,dotcolour,beta,,,26,19,V,R,
184,58,16,4,1,36,44,2015,['n'],1,right,['3'],3,180,[-0.06897405],64,44,hard,minus,dotcolour,beta,,,26,19,V,R,
185,59,17,4,1,44,36,764,['c'],1,left,['8'],4,151,[0.06261848],58,44,hard,minus,dotcolour,beta,,,26,19,V,R,
186,60,18,4,1,27,53,1065,['n'],1,right,['9'],5,200,[-0.09210822],81,53,easy,minus,dotcolour,beta,,,26,19,V,R,
187,61,19,4,1,44,36,1083,['c'],1,left,['0'],6,694,[0.19064183],95,44,hard,minus,dotcolour,beta,,,26,19,V,R,
188,62,20,4,1,33,47,897,['n'],1,right,['9'],5,327,[-0.06215297],55,47,medium,minus,dotcolour,beta,,,26,19,V,R,
189,63,21,4,1,47,33,848,['c'],1,left,['0'],6,257,[0.04165841],38,47,medium,minus,dotcolour,beta,,,26,19,V,R,
190,64,22,4,1,53,27,932,['c'],1,left,['9'],5,250,[-0.05243155],2,53,easy,minus,dotcolour,beta,,,26,19,V,R,
191,65,23,4,1,53,27,866,['c'],1,left,['0'],6,127,[0.01703275],13,53,easy,minus,dotcolour,beta,,,26,19,V,R,
192,66,24,4,1,27,53,1700,['n'],1,right,['8'],4,311,[-0.14176754],94,53,easy,minus,dotcolour,beta,,,26,19,V,R,
193,67,25,4,1,47,33,649,['c'],1,left,['9'],5,210,[0.11242182],90,47,medium,minus,dotcolour,beta,,,26,19,V,R,
194,68,26,4,1,44,36,832,['c'],1,left,['9'],5,209,[-0.01160823],7,44,hard,minus,dotcolour,beta,,,26,19,V,R,
195,69,27,4,1,33,47,899,['n'],1,right,['9'],5,197,[-0.12881915],95,47,medium,minus,dotcolour,beta,,,26,19,V,R,
196,70,28,4,1,27,53,931,['n'],1,right,['9'],5,194,[-0.10476466],88,53,easy,minus,dotcolour,beta,,,26,19,V,R,
197,71,29,4,1,27,53,866,['n'],1,right,['9'],5,168,[-0.11930203],94,53,easy,minus,dotcolour,beta,,,26,19,V,R,
198,72,30,4,1,27,53,749,['n'],1,right,['9'],5,189,[-0.1613864],99,53,easy,minus,dotcolour,beta,,,26,19,V,R,
199,73,31,4,1,36,44,749,['n'],1,right,['9'],5,112,[-0.11487352],96,44,hard,minus,dotcolour,beta,,,26,19,V,R,
200,74,32,4,1,33,47,614,['n'],1,right,['9'],5,132,[-0.02969516],22,47,medium,minus,dotcolour,beta,,,26,19,V,R,
201,75,33,4,1,53,27,915,['c'],1,left,['9'],5,211,[0.11789911],92,53,easy,minus,dotcolour,beta,,,26,19,V,R,
202,76,34,4,1,53,27,516,['c'],1,left,['9'],5,223,[0.09731024],83,53,easy,minus,dotcolour,beta,,,26,19,V,R,
203,77,35,4,1,44,36,1333,['c'],1,left,['9'],5,154,[0.1032445],90,44,hard,minus,dotcolour,beta,,,26,19,V,R,
204,78,36,4,1,33,47,1282,['n'],1,right,['8'],4,154,[-0.09189791],84,47,medium,minus,dotcolour,beta,,,26,19,V,R,
205,79,37,4,1,44,36,1249,['c'],1,left,['9'],5,243,[0.11259585],89,44,hard,minus,dotcolour,beta,,,26,19,V,R,
206,80,38,4,1,27,53,800,['n'],1,right,['9'],5,187,[-0.03130355],27,53,easy,minus,dotcolour,beta,,,26,19,V,R,
207,81,39,4,1,33,47,1364,['c'],0,right,['9'],5,253,[-0.03527055],4,47,medium,minus,dotcolour,beta,,,26,19,V,R,
208,82,40,4,1,47,33,1648,['c'],1,left,['9'],5,274,[0.12621325],92,47,medium,minus,dotcolour,beta,,,26,19,V,R,
209,83,41,4,1,36,44,1033,['c'],0,right,['9'],5,175,[0.04158911],35,44,hard,minus,dotcolour,beta,,,26,19,V,R,
210,84,0,5,1,27,53,783,['n'],1,right,['8'],4,746,[-0.20577301],96,53,easy,minus,dotcolour,beta,,,26,19,V,R,
211,85,1,5,1,36,44,882,['c'],0,right,['8'],4,321,[0.04797793],44,44,hard,minus,dotcolour,beta,,,26,19,V,R,
212,86,2,5,1,47,33,782,['c'],1,left,['9'],5,255,[0.08118471],71,47,medium,minus,dotcolour,beta,,,26,19,V,R,
213,87,3,5,1,47,33,648,['c'],1,left,['9'],5,220,[0.17567266],99,47,medium,minus,dotcolour,beta,,,26,19,V,R,
214,88,4,5,1,36,44,782,['n'],1,right,['8'],4,126,[-0.04411748],36,44,hard,minus,dotcolour,beta,,,26,19,V,R,
215,89,5,5,1,27,53,1132,['n'],1,right,['9'],5,188,[-0.08304096],76,53,easy,minus,dotcolour,beta,,,26,19,V,R,
216,90,6,5,1,53,27,781,['c'],1,left,['9'],5,223,[0.10883183],88,53,easy,minus,dotcolour,beta,,,26,19,V,R,
217,91,7,5,1,44,36,599,['c'],1,left,['0'],6,127,[0.07344049],71,44,hard,minus,dotcolour,beta,,,26,19,V,R,
218,92,8,5,1,33,47,1115,['n'],1,right,['8'],4,206,[-0.11691422],92,47,medium,minus,dotcolour,beta,,,26,19,V,R,
219,93,9,5,1,33,47,930,['n'],1,right,['9'],5,794,[-0.09382083],68,47,medium,minus,dotcolour,beta,,,26,19,V,R,
220,94,10,5,1,44,36,1166,['c'],1,left,['9'],5,196,[0.02753101],24,44,hard,minus,dotcolour,beta,,,26,19,V,R,
221,95,11,5,1,33,47,831,['n'],1,right,['0'],6,797,[-0.24645123],98,47,medium,minus,dotcolour,beta,,,26,19,V,R,
222,96,12,5,1,53,27,747,['c'],1,left,['0'],6,199,[0.12663115],95,53,easy,minus,dotcolour,beta,,,26,19,V,R,
223,97,13,5,1,27,53,1599,['n'],1,right,['9'],5,281,[-0.09965522],82,53,easy,minus,dotcolour,beta,,,26,19,V,R,
224,98,14,5,1,36,44,1132,['n'],1,right,['9'],5,290,[-0.05631622],51,44,hard,minus,dotcolour,beta,,,26,19,V,R,
225,99,15,5,1,36,44,1414,['n'],1,right,['0'],6,126,[-0.12563935],97,44,hard,minus,dotcolour,beta,,,26,19,V,R,
226,100,16,5,1,44,36,648,['c'],1,left,['0'],6,185,[0.12749301],95,44,hard,minus,dotcolour,beta,,,26,19,V,R,
227,101,17,5,1,53,27,632,['c'],1,left,['0'],6,193,[0.18915829],100,53,easy,minus,dotcolour,beta,,,26,19,V,R,
228,102,18,5,1,47,33,500,['c'],1,left,['0'],6,214,[0.09475709],82,47,medium,minus,dotcolour,beta,,,26,19,V,R,
229,103,19,5,1,53,27,699,['c'],1,left,['0'],6,187,[0.10411832],88,53,easy,minus,dotcolour,beta,,,26,19,V,R,
230,104,20,5,1,53,27,882,['c'],1,left,['0'],6,210,[0.0782921],71,53,easy,minus,dotcolour,beta,,,26,19,V,R,
231,105,21,5,1,33,47,699,['n'],1,right,['9'],5,190,[-0.06591108],61,47,medium,minus,dotcolour,beta,,,26,19,V,R,
232,106,22,5,1,44,36,966,['c'],1,left,['8'],4,417,[0.12880247],89,44,hard,minus,dotcolour,beta,,,26,19,V,R,
233,107,23,5,1,27,53,782,['n'],1,right,['0'],6,122,[-0.03618583],27,53,easy,minus,dotcolour,beta,,,26,19,V,R,
234,108,24,5,1,36,44,799,['c'],0,right,['0'],6,303,[0.03733488],36,44,hard,minus,dotcolour,beta,,,26,19,V,R,
235,109,25,5,1,44,36,632,['c'],1,left,['0'],6,211,[0.07105198],65,44,hard,minus,dotcolour,beta,,,26,19,V,R,
236,110,26,5,1,33,47,916,['n'],1,right,['0'],6,239,[-0.09165961],79,47,medium,minus,dotcolour,beta,,,26,19,V,R,
237,111,27,5,1,47,33,982,['c'],1,left,['0'],6,224,[0.15223168],98,47,medium,minus,dotcolour,beta,,,26,19,V,R,
238,112,28,5,1,27,53,915,['n'],1,right,['9'],5,323,[-0.01158947],20,53,easy,minus,dotcolour,beta,,,26,19,V,R,
239,113,29,5,1,44,36,1681,['c'],1,left,['9'],5,940,[0.13160604],80,44,hard,minus,dotcolour,beta,,,26,19,V,R,
240,114,30,5,1,27,53,999,['n'],1,right,['0'],6,271,[-0.03266611],31,53,easy,minus,dotcolour,beta,,,26,19,V,R,
241,115,31,5,1,47,33,899,['c'],1,left,['9'],5,330,[0.0676737],59,47,medium,minus,dotcolour,beta,,,26,19,V,R,
242,116,32,5,1,36,44,1181,['c'],0,right,['9'],5,343,[0.10142132],80,44,hard,minus,dotcolour,beta,,,26,19,V,R,
243,117,33,5,1,33,47,2665,['n'],1,right,['1'],1,368,[0.0863155],1,47,medium,minus,dotcolour,beta,,,26,19,V,R,
244,118,34,5,1,53,27,1014,['c'],1,left,['0'],6,234,[0.15009969],97,53,easy,minus,dotcolour,beta,,,26,19,V,R,
245,119,35,5,1,53,27,698,['c'],1,left,['0'],6,397,[0.1740426],97,53,easy,minus,dotcolour,beta,,,26,19,V,R,
246,120,36,5,1,33,47,1216,['c'],0,right,['9'],5,214,[0.04537924],40,47,medium,minus,dotcolour,beta,,,26,19,V,R,
247,121,37,5,1,27,53,815,['n'],1,right,['8'],4,166,[-0.04792449],42,53,easy,minus,dotcolour,beta,,,26,19,V,R,
248,122,38,5,1,47,33,815,['c'],1,left,['9'],5,184,[0.10984515],91,47,medium,minus,dotcolour,beta,,,26,19,V,R,
249,123,39,5,1,47,33,749,['c'],1,left,['9'],5,244,[0.15704183],98,47,medium,minus,dotcolour,beta,,,26,19,V,R,
250,124,40,5,1,44,36,632,['c'],1,left,['9'],5,210,[0.02852957],26,44,hard,minus,dotcolour,beta,,,26,19,V,R,
251,125,41,5,1,36,44,1017,['n'],1,right,['9'],5,146,[-0.05597941],50,44,hard,minus,dotcolour,beta,,,26,19,V,R,
252,0,0,6,2,47,33,950,['c'],1,left,['9'],5,198,[0.04819091],99,47,medium,plus,dotcolour,beta,,,26,19,V,R,
253,1,1,6,2,33,47,749,['n'],1,right,['9'],5,137,[-0.11511803],100,47,medium,plus,dotcolour,beta,,,26,19,V,R,
254,2,2,6,2,47,33,999,['c'],1,left,['0'],6,189,[0.0295267],97,47,medium,plus,dotcolour,beta,,,26,19,V,R,
255,3,3,6,2,47,33,682,['c'],1,left,['0'],6,212,[0.09850692],100,47,medium,plus,dotcolour,beta,,,26,19,V,R,
256,4,4,6,2,53,27,614,['c'],1,left,['9'],5,308,[0.16065369],100,53,easy,plus,dotcolour,beta,,,26,19,V,R,
257,5,5,6,2,53,27,447,['c'],1,left,['0'],6,247,[0.03856046],97,53,easy,plus,dotcolour,beta,,,26,19,V,R,
258,6,6,6,2,44,36,515,['c'],1,left,['0'],6,274,[0.02884322],95,44,hard,plus,dotcolour,beta,,,26,19,V,R,
259,7,7,6,2,44,36,565,['c'],1,left,['9'],5,224,[0.13779511],100,44,hard,plus,dotcolour,beta,,,26,19,V,R,
260,8,8,6,2,27,53,583,['n'],1,right,['8'],4,473,[-0.14565376],99,53,easy,plus,dotcolour,beta,,,26,19,V,R,
261,9,9,6,2,36,44,1848,['n'],1,right,['9'],5,261,[-0.04509773],97,44,hard,plus,dotcolour,beta,,,26,19,V,R,
262,10,10,6,2,44,36,582,['c'],1,left,['9'],5,309,[0.07841533],99,44,hard,plus,dotcolour,beta,,,26,19,V,R,
263,11,11,6,2,53,27,581,['c'],1,left,['9'],5,474,[0.32855741],100,53,easy,plus,dotcolour,beta,,,26,19,V,R,
264,12,12,6,2,36,44,465,['c'],0,right,['2'],2,1302,[-0.05306275],51,44,hard,plus,dotcolour,beta,,,26,19,V,R,
265,13,13,6,2,33,47,849,['n'],1,right,['9'],5,288,[-0.15828379],100,47,medium,plus,dotcolour,beta,,,26,19,V,R,
266,14,14,6,2,47,33,682,['c'],1,left,['0'],6,330,[0.01505523],90,47,medium,plus,dotcolour,beta,,,26,19,V,R,
267,15,15,6,2,44,36,1414,['c'],1,left,['9'],5,285,[0.02160779],93,44,hard,plus,dotcolour,beta,,,26,19,V,R,
268,16,16,6,2,27,53,665,['n'],1,right,['9'],5,257,[-0.09463286],100,53,easy,plus,dotcolour,beta,,,26,19,V,R,
269,17,17,6,2,36,44,915,['n'],1,right,['9'],5,355,[-0.09752334],99,44,hard,plus,dotcolour,beta,,,26,19,V,R,
270,18,18,6,2,27,53,765,['n'],1,right,['0'],6,247,[-0.05511378],98,53,easy,plus,dotcolour,beta,,,26,19,V,R,
271,19,19,6,2,44,36,766,['n'],0,left,['9'],5,248,[-0.00794565],91,44,hard,plus,dotcolour,beta,,,26,19,V,R,
272,20,20,6,2,36,44,930,['n'],1,right,['0'],6,218,[-0.11399368],100,44,hard,plus,dotcolour,beta,,,26,19,V,R,
273,21,21,6,2,36,44,731,['n'],1,right,['9'],5,221,[-0.09425608],100,44,hard,plus,dotcolour,beta,,,26,19,V,R,
274,22,22,6,2,36,44,766,['n'],1,right,['9'],5,343,[-0.10068331],99,44,hard,plus,dotcolour,beta,,,26,19,V,R,
275,23,23,6,2,53,27,583,['c'],1,left,['0'],6,275,[0.16538191],100,53,easy,plus,dotcolour,beta,,,26,19,V,R,
276,24,24,6,2,33,47,583,['n'],1,right,['0'],6,537,[0.01070961],75,47,medium,plus,dotcolour,beta,,,26,19,V,R,
277,25,25,6,2,53,27,698,['c'],1,left,['0'],6,266,[0.18469974],100,53,easy,plus,dotcolour,beta,,,26,19,V,R,
278,26,26,6,2,33,47,848,['n'],1,right,['0'],6,254,[-0.20050066],100,47,medium,plus,dotcolour,beta,,,26,19,V,R,
279,27,27,6,2,44,36,734,['c'],1,left,['0'],6,256,[0.04828586],98,44,hard,plus,dotcolour,beta,,,26,19,V,R,
280,28,28,6,2,33,47,765,['n'],1,right,['0'],6,264,[-0.16208031],100,47,medium,plus,dotcolour,beta,,,26,19,V,R,
281,29,29,6,2,27,53,782,['n'],1,right,['0'],6,360,[-0.16838535],100,53,easy,plus,dotcolour,beta,,,26,19,V,R,
282,30,30,6,2,53,27,780,['c'],1,left,['0'],6,523,[0.17198813],100,53,easy,plus,dotcolour,beta,,,26,19,V,R,
283,31,31,6,2,47,33,780,['c'],1,left,['0'],6,192,[0.11401013],100,47,medium,plus,dotcolour,beta,,,26,19,V,R,
284,32,32,6,2,27,53,698,['n'],1,right,['0'],6,221,[-0.20288121],100,53,easy,plus,dotcolour,beta,,,26,19,V,R,
285,33,33,6,2,27,53,798,['n'],1,right,['0'],6,213,[-0.10416108],100,53,easy,plus,dotcolour,beta,,,26,19,V,R,
286,34,34,6,2,47,33,1114,['c'],1,left,['9'],5,330,[0.04869395],96,47,medium,plus,dotcolour,beta,,,26,19,V,R,
287,35,35,6,2,27,53,564,['n'],1,right,['0'],6,206,[-0.13530247],100,53,easy,plus,dotcolour,beta,,,26,19,V,R,
288,36,36,6,2,33,47,765,['n'],1,right,['0'],6,249,[-0.02447076],95,47,medium,plus,dotcolour,beta,,,26,19,V,R,
289,37,37,6,2,53,27,748,['c'],1,left,['0'],6,314,[0.16749023],100,53,easy,plus,dotcolour,beta,,,26,19,V,R,
290,38,38,6,2,47,33,764,['c'],1,left,['9'],5,296,[-0.01178516],81,47,medium,plus,dotcolour,beta,,,26,19,V,R,
291,39,39,6,2,44,36,982,['n'],0,left,['0'],6,150,[-0.02804196],98,44,hard,plus,dotcolour,beta,,,26,19,V,R,
292,40,40,6,2,36,44,783,['n'],1,right,['0'],6,203,[-0.05167137],99,44,hard,plus,dotcolour,beta,,,26,19,V,R,
293,41,41,6,2,33,47,1198,['n'],1,right,['9'],5,227,[-0.16729689],100,47,medium,plus,dotcolour,beta,,,26,19,V,R,
294,42,0,7,2,36,44,633,['n'],1,right,['9'],5,290,[-0.02765754],94,44,hard,plus,dotcolour,beta,,,26,19,V,R,
295,43,1,7,2,33,47,750,['n'],1,right,['0'],6,209,[-0.00898278],93,47,medium,plus,dotcolour,beta,,,26,19,V,R,
296,44,2,7,2,27,53,514,['n'],1,right,['9'],5,270,[-0.18777275],100,53,easy,plus,dotcolour,beta,,,26,19,V,R,
297,45,3,7,2,33,47,648,['n'],1,right,['8'],4,202,[-0.05507919],99,47,medium,plus,dotcolour,beta,,,26,19,V,R,
298,46,4,7,2,36,44,450,['n'],1,right,['9'],5,369,[-0.17572876],100,44,hard,plus,dotcolour,beta,,,26,19,V,R,
299,47,5,7,2,53,27,600,['n'],0,left,['1'],1,883,[-0.04827312],88,53,easy,plus,dotcolour,beta,,,26,19,V,R,
300,48,6,7,2,27,53,650,['n'],1,right,['9'],5,263,[-0.10107327],100,53,easy,plus,dotcolour,beta,,,26,19,V,R,
301,49,7,7,2,33,47,814,['n'],1,right,['9'],5,341,[-0.02235023],92,47,medium,plus,dotcolour,beta,,,26,19,V,R,
302,50,8,7,2,27,53,699,['n'],1,right,['0'],6,197,[-0.10250273],100,53,easy,plus,dotcolour,beta,,,26,19,V,R,
303,51,9,7,2,36,44,597,['n'],1,right,['8'],4,262,[-0.13918894],100,44,hard,plus,dotcolour,beta,,,26,19,V,R,
304,52,10,7,2,33,47,632,['n'],1,right,['9'],5,211,[-0.09984724],100,47,medium,plus,dotcolour,beta,,,26,19,V,R,
305,53,11,7,2,44,36,1165,['c'],1,left,['8'],4,325,[0.01671721],91,44,hard,plus,dotcolour,beta,,,26,19,V,R,
306,54,12,7,2,36,44,849,['n'],1,right,['9'],5,263,[-0.00341336],89,44,hard,plus,dotcolour,beta,,,26,19,V,R,
307,55,13,7,2,44,36,900,['c'],1,left,['1'],1,938,[0.05063992],88,44,hard,plus,dotcolour,beta,,,26,19,V,R,
308,56,14,7,2,27,53,682,['n'],1,right,['9'],5,258,[-0.11984729],100,53,easy,plus,dotcolour,beta,,,26,19,V,R,
309,57,15,7,2,27,53,648,['n'],1,right,['0'],6,262,[-0.08228934],99,53,easy,plus,dotcolour,beta,,,26,19,V,R,
310,58,16,7,2,47,33,1033,['c'],1,left,['0'],6,268,[0.07744751],99,47,medium,plus,dotcolour,beta,,,26,19,V,R,
311,59,17,7,2,33,47,615,['n'],1,right,['0'],6,242,[-0.05739517],98,47,medium,plus,dotcolour,beta,,,26,19,V,R,
312,60,18,7,2,53,27,582,['c'],1,left,['0'],6,266,[0.06284673],98,53,easy,plus,dotcolour,beta,,,26,19,V,R,
313,61,19,7,2,53,27,864,['c'],1,left,['0'],6,342,[0.07755371],98,53,easy,plus,dotcolour,beta,,,26,19,V,R,
314,62,20,7,2,27,53,749,['n'],1,right,['0'],6,227,[-0.08544682],100,53,easy,plus,dotcolour,beta,,,26,19,V,R,
315,63,21,7,2,33,47,967,['c'],0,right,['0'],6,245,[0.02623984],95,47,medium,plus,dotcolour,beta,,,26,19,V,R,
316,64,22,7,2,36,44,715,['n'],1,right,['0'],6,247,[-0.03514323],96,44,hard,plus,dotcolour,beta,,,26,19,V,R,
317,65,23,7,2,53,27,632,['c'],1,left,['0'],6,277,[0.14644238],100,53,easy,plus,dotcolour,beta,,,26,19,V,R,
318,66,24,7,2,47,33,848,['c'],1,left,['9'],5,377,[0.05535686],96,47,medium,plus,dotcolour,beta,,,26,19,V,R,
319,67,25,7,2,27,53,616,['n'],1,right,['0'],6,275,[-0.07722225],99,53,easy,plus,dotcolour,beta,,,26,19,V,R,
320,68,26,7,2,47,33,799,['c'],1,left,['9'],5,337,[0.14805447],100,47,medium,plus,dotcolour,beta,,,26,19,V,R,
321,69,27,7,2,47,33,732,['n'],0,left,['1'],1,615,[0.10399892],25,47,medium,plus,dotcolour,beta,,,26,19,V,R,
322,70,28,7,2,44,36,1081,['n'],0,left,['0'],6,237,[-0.07191462],99,44,hard,plus,dotcolour,beta,,,26,19,V,R,
323,71,29,7,2,47,33,900,['c'],1,left,['8'],4,264,[0.14275338],100,47,medium,plus,dotcolour,beta,,,26,19,V,R,
324,72,30,7,2,53,27,633,['c'],1,left,['9'],5,269,[0.12571249],100,53,easy,plus,dotcolour,beta,,,26,19,V,R,
325,73,31,7,2,36,44,747,['c'],0,right,['0'],6,230,[-0.01361622],83,44,hard,plus,dotcolour,beta,,,26,19,V,R,
326,74,32,7,2,44,36,984,['n'],0,left,['8'],4,215,[-0.05995498],99,44,hard,plus,dotcolour,beta,,,26,19,V,R,
327,75,33,7,2,44,36,1665,['n'],0,left,['3'],3,213,[-0.07575411],99,44,hard,plus,dotcolour,beta,,,26,19,V,R,
328,76,34,7,2,44,36,665,['c'],1,left,['9'],5,283,[-0.00157898],86,44,hard,plus,dotcolour,beta,,,26,19,V,R,
329,77,35,7,2,33,47,1397,['n'],1,right,['0'],6,224,[-0.04427718],98,47,medium,plus,dotcolour,beta,,,26,19,V,R,
330,78,36,7,2,47,33,666,['c'],1,left,['9'],5,342,[0.15236102],100,47,medium,plus,dotcolour,beta,,,26,19,V,R,
331,79,37,7,2,53,27,715,['c'],1,left,['8'],4,316,[0.0460119],96,53,easy,plus,dotcolour,beta,,,26,19,V,R,
332,80,38,7,2,47,33,648,['c'],1,left,['9'],5,263,[0.11103677],100,47,medium,plus,dotcolour,beta,,,26,19,V,R,
333,81,39,7,2,44,36,1148,['n'],0,left,['8'],4,208,[-0.01778771],95,44,hard,plus,dotcolour,beta,,,26,19,V,R,
334,82,40,7,2,53,27,547,['c'],1,left,['9'],5,306,[0.03496888],95,53,easy,plus,dotcolour,beta,,,26,19,V,R,
335,83,41,7,2,36,44,1816,['n'],1,right,['9'],5,719,[-0.12788116],98,44,hard,plus,dotcolour,beta,,,26,19,V,R,
336,84,0,8,2,36,44,733,['n'],1,right,['8'],4,255,[-0.0717481],99,44,hard,plus,dotcolour,beta,,,26,19,V,R,
337,85,1,8,2,36,44,1097,['c'],0,right,['9'],5,210,[0.15887224],100,44,hard,plus,dotcolour,beta,,,26,19,V,R,
338,86,2,8,2,47,33,915,['c'],1,left,['8'],4,190,[0.09953721],100,47,medium,plus,dotcolour,beta,,,26,19,V,R,
339,87,3,8,2,36,44,1032,['n'],1,right,['9'],5,311,[-0.05101794],97,44,hard,plus,dotcolour,beta,,,26,19,V,R,
340,88,4,8,2,27,53,749,['n'],1,right,['8'],4,254,[-0.10532141],100,53,easy,plus,dotcolour,beta,,,26,19,V,R,
341,89,5,8,2,36,44,682,['n'],1,right,['9'],5,233,[-0.04884711],98,44,hard,plus,dotcolour,beta,,,26,19,V,R,
342,90,6,8,2,47,33,732,['c'],1,left,['9'],5,268,[0.08199605],99,47,medium,plus,dotcolour,beta,,,26,19,V,R,
343,91,7,8,2,36,44,848,['n'],1,right,['9'],5,217,[-0.10432824],100,44,hard,plus,dotcolour,beta,,,26,19,V,R,
344,92,8,8,2,47,33,699,['c'],1,left,['9'],5,237,[0.04371563],98,47,medium,plus,dotcolour,beta,,,26,19,V,R,
345,93,9,8,2,27,53,664,['n'],1,right,['8'],4,307,[-0.13783627],100,53,easy,plus,dotcolour,beta,,,26,19,V,R,
346,94,10,8,2,27,53,667,['n'],1,right,['0'],6,213,[-0.12950987],100,53,easy,plus,dotcolour,beta,,,26,19,V,R,
347,95,11,8,2,44,36,749,['c'],1,left,['9'],5,223,[-0.01553456],82,44,hard,plus,dotcolour,beta,,,26,19,V,R,
348,96,12,8,2,44,36,615,['c'],1,left,['0'],6,367,[-0.00678152],81,44,hard,plus,dotcolour,beta,,,26,19,V,R,
349,97,13,8,2,27,53,598,['n'],1,right,['9'],5,217,[-0.14459045],100,53,easy,plus,dotcolour,beta,,,26,19,V,R,
350,98,14,8,2,44,36,998,['c'],1,left,['9'],5,258,[0.09879825],100,44,hard,plus,dotcolour,beta,,,26,19,V,R,
351,99,15,8,2,33,47,549,['n'],1,right,['0'],6,251,[-0.12128809],100,47,medium,plus,dotcolour,beta,,,26,19,V,R,
352,100,16,8,2,53,27,583,['c'],1,left,['0'],6,186,[0.12561531],100,53,easy,plus,dotcolour,beta,,,26,19,V,R,
353,101,17,8,2,33,47,714,['n'],1,right,['0'],6,239,[-0.14074501],100,47,medium,plus,dotcolour,beta,,,26,19,V,R,
354,102,18,8,2,53,27,847,['c'],1,left,['9'],5,245,[0.17278834],100,53,easy,plus,dotcolour,beta,,,26,19,V,R,
355,103,19,8,2,44,36,932,['c'],1,left,['0'],6,255,[0.07726819],99,44,hard,plus,dotcolour,beta,,,26,19,V,R,
356,104,20,8,2,33,47,665,['n'],1,right,['0'],6,268,[-0.07589647],99,47,medium,plus,dotcolour,beta,,,26,19,V,R,
357,105,21,8,2,44,36,732,['c'],1,left,['9'],5,301,[0.03184634],95,44,hard,plus,dotcolour,beta,,,26,19,V,R,
358,106,22,8,2,44,36,814,['c'],1,left,['9'],5,226,[0.13847074],100,44,hard,plus,dotcolour,beta,,,26,19,V,R,
359,107,23,8,2,53,27,882,['c'],1,left,['0'],6,270,[0.05565912],98,53,easy,plus,dotcolour,beta,,,26,19,V,R,
360,108,24,8,2,33,47,666,['n'],1,right,['9'],5,362,[-0.1542304],100,47,medium,plus,dotcolour,beta,,,26,19,V,R,
361,109,25,8,2,33,47,1348,['n'],1,right,['0'],6,199,[-0.20014773],100,47,medium,plus,dotcolour,beta,,,26,19,V,R,
362,110,26,8,2,27,53,965,['n'],1,right,['9'],5,273,[-0.1766368],100,53,easy,plus,dotcolour,beta,,,26,19,V,R,
363,111,27,8,2,53,27,882,['c'],1,left,['0'],6,324,[0.09185058],99,53,easy,plus,dotcolour,beta,,,26,19,V,R,
364,112,28,8,2,47,33,565,['c'],1,left,['9'],5,353,[0.13365122],100,47,medium,plus,dotcolour,beta,,,26,19,V,R,
365,113,29,8,2,33,47,798,['n'],1,right,['0'],6,260,[-0.08540069],99,47,medium,plus,dotcolour,beta,,,26,19,V,R,
366,114,30,8,2,47,33,799,['c'],1,left,['9'],5,234,[0.08187214],99,47,medium,plus,dotcolour,beta,,,26,19,V,R,
367,115,31,8,2,44,36,732,['c'],1,left,['9'],5,237,[0.13921746],100,44,hard,plus,dotcolour,beta,,,26,19,V,R,
368,116,32,8,2,53,27,549,['c'],1,left,['9'],5,214,[0.16106745],100,53,easy,plus,dotcolour,beta,,,26,19,V,R,
369,117,33,8,2,47,33,515,['c'],1,left,['0'],6,282,[0.10991911],100,47,medium,plus,dotcolour,beta,,,26,19,V,R,
370,118,34,8,2,36,44,580,['n'],1,right,['0'],6,249,[-0.17881714],100,44,hard,plus,dotcolour,beta,,,26,19,V,R,
371,119,35,8,2,47,33,998,['c'],1,left,['9'],5,193,[0.09298839],100,47,medium,plus,dotcolour,beta,,,26,19,V,R,
372,120,36,8,2,53,27,616,['c'],1,left,['0'],6,209,[0.08586974],100,53,easy,plus,dotcolour,beta,,,26,19,V,R,
373,121,37,8,2,36,44,734,['n'],1,right,['9'],5,189,[-0.05596069],99,44,hard,plus,dotcolour,beta,,,26,19,V,R,
374,122,38,8,2,53,27,732,['c'],1,left,['0'],6,242,[0.13999375],100,53,easy,plus,dotcolour,beta,,,26,19,V,R,
375,123,39,8,2,27,53,850,['n'],1,right,['9'],5,206,[-0.05147505],99,53,easy,plus,dotcolour,beta,,,26,19,V,R,
376,124,40,8,2,27,53,1215,['c'],0,right,['8'],4,463,[0.06480736],96,53,easy,plus,dotcolour,beta,,,26,19,V,R,
377,125,41,8,2,33,47,647,['n'],1,right,['0'],6,243,[-0.11921312],100,47,medium,plus,dotcolour,beta,,,26,19,V,R,
378,0,0,9,3,47,33,799,['c'],1,left,['8'],4,235,[0.10531124],86,47,medium,minus,dotcolour,beta,,,26,19,V,R,
379,1,1,9,3,36,44,1564,['c'],0,right,['9'],5,196,[0.00989628],14,44,hard,minus,dotcolour,beta,,,26,19,V,R,
380,2,2,9,3,27,53,616,['n'],1,right,['9'],5,213,[-0.14155052],97,53,easy,minus,dotcolour,beta,,,26,19,V,R,
381,3,3,9,3,44,36,649,['c'],1,left,['0'],6,339,[0.15750106],96,44,hard,minus,dotcolour,beta,,,26,19,V,R,
382,4,4,9,3,33,47,566,['n'],1,right,['9'],5,265,[-0.11560074],89,47,medium,minus,dotcolour,beta,,,26,19,V,R,
383,5,5,9,3,27,53,615,['n'],1,right,['0'],6,207,[-0.03246689],29,53,easy,minus,dotcolour,beta,,,26,19,V,R,
384,6,6,9,3,47,33,966,['c'],1,left,['0'],6,217,[0.07375268],67,47,medium,minus,dotcolour,beta,,,26,19,V,R,
385,7,7,9,3,47,33,683,['n'],0,left,['1'],1,1086,[0.03909569],16,47,medium,minus,dotcolour,beta,,,26,19,V,R,
386,8,8,9,3,47,33,1915,['c'],1,left,['0'],6,615,[0.27020811],99,47,medium,minus,dotcolour,beta,,,26,19,V,R,
387,9,9,9,3,33,47,649,['n'],1,right,['0'],6,237,[-0.07601725],68,47,medium,minus,dotcolour,beta,,,26,19,V,R,
388,10,10,9,3,44,36,983,['c'],1,left,['0'],6,174,[0.03724119],31,44,hard,minus,dotcolour,beta,,,26,19,V,R,
389,11,11,9,3,44,36,548,['c'],1,left,['9'],5,266,[0.03583229],33,44,hard,minus,dotcolour,beta,,,26,19,V,R,
390,12,12,9,3,44,36,665,['n'],0,left,['9'],5,198,[0.0397207],2,44,hard,minus,dotcolour,beta,,,26,19,V,R,
391,13,13,9,3,53,27,715,['c'],1,left,['0'],6,243,[0.10759633],87,53,easy,minus,dotcolour,beta,,,26,19,V,R,
392,14,14,9,3,53,27,547,['c'],1,left,['0'],6,220,[0.19713621],100,53,easy,minus,dotcolour,beta,,,26,19,V,R,
393,15,15,9,3,36,44,832,['n'],1,right,['3'],3,276,[-0.1352075],94,44,hard,minus,dotcolour,beta,,,26,19,V,R,
394,16,16,9,3,36,44,932,['n'],1,right,['8'],4,365,[-0.11513169],86,44,hard,minus,dotcolour,beta,,,26,19,V,R,
395,17,17,9,3,27,53,849,['n'],1,right,['0'],6,197,[-0.08228929],75,53,easy,minus,dotcolour,beta,,,26,19,V,R,
396,18,18,9,3,33,47,1400,['n'],1,right,['0'],6,239,[-0.03522516],32,47,medium,minus,dotcolour,beta,,,26,19,V,R,
397,19,19,9,3,44,36,916,['c'],1,left,['8'],4,185,[0.07200711],67,44,hard,minus,dotcolour,beta,,,26,19,V,R,
398,20,20,9,3,44,36,1099,['c'],1,left,['9'],5,479,[0.05669685],51,44,hard,minus,dotcolour,beta,,,26,19,V,R,
399,21,21,9,3,27,53,682,['n'],1,right,['0'],6,177,[-0.04673749],41,53,easy,minus,dotcolour,beta,,,26,19,V,R,
400,22,22,9,3,47,33,698,['c'],1,left,['9'],5,343,[0.11105947],85,47,medium,minus,dotcolour,beta,,,26,19,V,R,
401,23,23,9,3,33,47,1732,['n'],1,right,['8'],4,589,[-0.21733816],98,47,medium,minus,dotcolour,beta,,,26,19,V,R,
402,24,24,9,3,27,53,799,['n'],1,right,['0'],6,271,[-0.09523767],80,53,easy,minus,dotcolour,beta,,,26,19,V,R,
403,25,25,9,3,36,44,816,['n'],1,right,['0'],6,220,[-0.0117221],16,44,hard,minus,dotcolour,beta,,,26,19,V,R,
404,26,26,9,3,36,44,714,['n'],1,right,['9'],5,440,[-0.09417841],74,44,hard,minus,dotcolour,beta,,,26,19,V,R,
405,27,27,9,3,44,36,715,['c'],1,left,['9'],5,267,[0.0736391],65,44,hard,minus,dotcolour,beta,,,26,19,V,R,
406,28,28,9,3,36,44,715,['n'],1,right,['0'],6,245,[0.01392843],7,44,hard,minus,dotcolour,beta,,,26,19,V,R,
407,29,29,9,3,33,47,617,['n'],1,right,['0'],6,236,[-0.12180338],92,47,medium,minus,dotcolour,beta,,,26,19,V,R,
408,30,30,9,3,27,53,632,['n'],1,right,['0'],6,250,[-0.05078515],46,53,easy,minus,dotcolour,beta,,,26,19,V,R,
409,31,31,9,3,33,47,864,['n'],1,right,['8'],4,207,[-0.03373281],30,47,medium,minus,dotcolour,beta,,,26,19,V,R,
410,32,32,9,3,53,27,980,['c'],1,left,['0'],6,416,[0.06787955],59,53,easy,minus,dotcolour,beta,,,26,19,V,R,
411,33,33,9,3,53,27,681,['c'],1,left,['0'],6,246,[0.21053255],100,53,easy,minus,dotcolour,beta,,,26,19,V,R,
412,34,34,9,3,47,33,665,['c'],1,left,['0'],6,410,[0.09188141],74,47,medium,minus,dotcolour,beta,,,26,19,V,R,
413,35,35,9,3,36,44,917,['n'],1,right,['9'],5,366,[0.00322259],15,44,hard,minus,dotcolour,beta,,,26,19,V,R,
414,36,36,9,3,53,27,664,['c'],1,left,['9'],5,262,[0.1460269],96,53,easy,minus,dotcolour,beta,,,26,19,V,R,
415,37,37,9,3,33,47,649,['n'],1,right,['9'],5,259,[-0.0808625],71,47,medium,minus,dotcolour,beta,,,26,19,V,R,
416,38,38,9,3,47,33,833,['c'],1,left,['8'],4,224,[0.08198824],73,47,medium,minus,dotcolour,beta,,,26,19,V,R,
417,39,39,9,3,27,53,665,['n'],1,right,['9'],5,238,[-0.1350978],95,53,easy,minus,dotcolour,beta,,,26,19,V,R,
418,40,40,9,3,53,27,632,['c'],1,left,['9'],5,220,[0.13093867],95,53,easy,minus,dotcolour,beta,,,26,19,V,R,
419,41,41,9,3,53,27,567,['c'],1,left,['9'],5,286,[0.07297231],64,53,easy,minus,dotcolour,beta,,,26,19,V,R,
420,42,0,10,3,47,33,850,['c'],1,left,['9'],5,179,[0.11598645],93,47,medium,minus,dotcolour,beta,,,26,19,V,R,
421,43,1,10,3,44,36,1482,['n'],0,left,['8'],4,177,[-0.04362229],38,44,hard,minus,dotcolour,beta,,,26,19,V,R,
422,44,2,10,3,47,33,715,['c'],1,left,['9'],5,199,[0.01459556],16,47,medium,minus,dotcolour,beta,,,26,19,V,R,
423,45,3,10,3,33,47,648,['n'],1,right,['0'],6,190,[-0.16253738],99,47,medium,minus,dotcolour,beta,,,26,19,V,R,
424,46,4,10,3,44,36,1015,['c'],1,left,['0'],6,175,[0.10724136],90,44,hard,minus,dotcolour,beta,,,26,19,V,R,
425,47,5,10,3,44,36,533,['c'],1,left,['0'],6,211,[0.05352183],48,44,hard,minus,dotcolour,beta,,,26,19,V,R,
426,48,6,10,3,33,47,649,['n'],1,right,['0'],6,170,[-0.07455835],70,47,medium,minus,dotcolour,beta,,,26,19,V,R,
427,49,7,10,3,36,44,1099,['n'],1,right,['9'],5,257,[-0.02650949],26,44,hard,minus,dotcolour,beta,,,26,19,V,R,
428,50,8,10,3,44,36,1916,['c'],1,left,['3'],3,451,[0.10999348],81,44,hard,minus,dotcolour,beta,,,26,19,V,R,
429,51,9,10,3,53,27,1281,['c'],1,left,['8'],4,318,[0.17437607],98,53,easy,minus,dotcolour,beta,,,26,19,V,R,
430,52,10,10,3,27,53,764,['n'],1,right,['0'],6,252,[-0.12144405],91,53,easy,minus,dotcolour,beta,,,26,19,V,R,
431,53,11,10,3,53,27,782,['c'],1,left,['9'],5,188,[0.05806598],53,53,easy,minus,dotcolour,beta,,,26,19,V,R,
432,54,12,10,3,53,27,999,['c'],1,left,['0'],6,198,[0.08708705],78,53,easy,minus,dotcolour,beta,,,26,19,V,R,
433,55,13,10,3,44,36,631,['c'],1,left,['0'],6,222,[0.11190006],90,44,hard,minus,dotcolour,beta,,,26,19,V,R,
434,56,14,10,3,36,44,982,['n'],1,right,['9'],5,239,[-0.12483828],93,44,hard,minus,dotcolour,beta,,,26,19,V,R,
435,57,15,10,3,47,33,799,['c'],1,left,['9'],5,270,[0.17823222],99,47,medium,minus,dotcolour,beta,,,26,19,V,R,
436,58,16,10,3,36,44,931,['n'],1,right,['0'],6,288,[-0.13450226],93,44,hard,minus,dotcolour,beta,,,26,19,V,R,
437,59,17,10,3,33,47,581,['c'],0,right,['9'],5,294,[0.09199375],77,47,medium,minus,dotcolour,beta,,,26,19,V,R,
438,60,18,10,3,27,53,715,['n'],1,right,['0'],6,215,[-0.04064788],36,53,easy,minus,dotcolour,beta,,,26,19,V,R,
439,61,19,10,3,27,53,916,['n'],1,right,['8'],4,339,[-0.10966392],84,53,easy,minus,dotcolour,beta,,,26,19,V,R,
440,62,20,10,3,47,33,682,['c'],1,left,['0'],6,203,[0.18036095],99,47,medium,minus,dotcolour,beta,,,26,19,V,R,
441,63,21,10,3,53,27,749,['c'],1,left,['9'],5,286,[0.06864824],61,53,easy,minus,dotcolour,beta,,,26,19,V,R,
442,64,22,10,3,33,47,648,['n'],1,right,['0'],6,194,[-0.11339038],91,47,medium,minus,dotcolour,beta,,,26,19,V,R,
443,65,23,10,3,27,53,616,['n'],1,right,['0'],6,259,[-0.14719959],96,53,easy,minus,dotcolour,beta,,,26,19,V,R,
444,66,24,10,3,33,47,833,['n'],1,right,['9'],5,288,[-0.13497692],93,47,medium,minus,dotcolour,beta,,,26,19,V,R,
445,67,25,10,3,36,44,999,['c'],0,right,['0'],6,287,[0.00909029],17,44,hard,minus,dotcolour,beta,,,26,19,V,R,
446,68,26,10,3,44,36,650,['n'],0,left,['8'],4,202,[-0.1256137],94,44,hard,minus,dotcolour,beta,,,26,19,V,R,
447,69,27,10,3,33,47,931,['n'],1,right,['3'],3,269,[-0.07621292],67,47,medium,minus,dotcolour,beta,,,26,19,V,R,
448,70,28,10,3,36,44,848,['n'],1,right,['3'],3,226,[-0.07434139],67,44,hard,minus,dotcolour,beta,,,26,19,V,R,
449,71,29,10,3,53,27,766,['c'],1,left,['0'],6,187,[0.07194552],66,53,easy,minus,dotcolour,beta,,,26,19,V,R,
450,72,30,10,3,27,53,815,['n'],1,right,['9'],5,284,[-0.17274731],98,53,easy,minus,dotcolour,beta,,,26,19,V,R,
451,73,31,10,3,36,44,648,['n'],1,right,['0'],6,408,[-0.07713251],65,44,hard,minus,dotcolour,beta,,,26,19,V,R,
452,74,32,10,3,36,44,916,['c'],0,right,['3'],3,349,[0.0098001],20,44,hard,minus,dotcolour,beta,,,26,19,V,R,
453,75,33,10,3,27,53,648,['n'],1,right,['0'],6,206,[-0.07645479],70,53,easy,minus,dotcolour,beta,,,26,19,V,R,
454,76,34,10,3,44,36,733,['c'],1,left,['0'],6,169,[0.07201267],67,44,hard,minus,dotcolour,beta,,,26,19,V,R,
455,77,35,10,3,47,33,681,['c'],1,left,['0'],6,168,[0.07135682],67,47,medium,minus,dotcolour,beta,,,26,19,V,R,
456,78,36,10,3,27,53,781,['n'],1,right,['0'],6,340,[-0.15205778],95,53,easy,minus,dotcolour,beta,,,26,19,V,R,
457,79,37,10,3,47,33,615,['c'],1,left,['0'],6,206,[0.11654288],92,47,medium,minus,dotcolour,beta,,,26,19,V,R,
458,80,38,10,3,47,33,899,['c'],1,left,['8'],4,331,[0.08274946],70,47,medium,minus,dotcolour,beta,,,26,19,V,R,
459,81,39,10,3,33,47,599,['n'],1,right,['0'],6,239,[-0.15271833],97,47,medium,minus,dotcolour,beta,,,26,19,V,R,
460,82,40,10,3,53,27,797,['c'],1,left,['0'],6,174,[0.05977505],55,53,easy,minus,dotcolour,beta,,,26,19,V,R,
461,83,41,10,3,53,27,1316,['c'],1,left,['0'],6,251,[0.14056911],95,53,easy,minus,dotcolour,beta,,,26,19,V,R,
462,84,0,11,3,36,44,949,['n'],1,right,['0'],6,203,[-0.07273448],67,44,hard,minus,dotcolour,beta,,,26,19,V,R,
463,85,1,11,3,44,36,1033,['c'],1,left,['9'],5,275,[0.11762603],89,44,hard,minus,dotcolour,beta,,,26,19,V,R,
464,86,2,11,3,36,44,533,['c'],0,right,['0'],6,268,[0.13847356],95,44,hard,minus,dotcolour,beta,,,26,19,V,R,
465,87,3,11,3,33,47,564,['n'],1,right,['9'],5,300,[-0.18560547],99,47,medium,minus,dotcolour,beta,,,26,19,V,R,
466,88,4,11,3,44,36,482,['c'],1,left,['0'],6,222,[0.18713447],99,44,hard,minus,dotcolour,beta,,,26,19,V,R,
467,89,5,11,3,53,27,531,['c'],1,left,['9'],5,417,[0.21802676],99,53,easy,minus,dotcolour,beta,,,26,19,V,R,
468,90,6,11,3,44,36,598,['c'],1,left,['8'],4,361,[0.1123389],85,44,hard,minus,dotcolour,beta,,,26,19,V,R,
469,91,7,11,3,44,36,866,['c'],1,left,['3'],3,370,[0.13580904],91,44,hard,minus,dotcolour,beta,,,26,19,V,R,
470,92,8,11,3,44,36,950,['c'],1,left,['8'],4,94,[0.078888],80,44,hard,minus,dotcolour,beta,,,26,19,V,R,
471,93,9,11,3,27,53,497,['n'],1,right,['9'],5,176,[-0.07699525],72,53,easy,minus,dotcolour,beta,,,26,19,V,R,
472,94,10,11,3,53,27,632,['c'],1,left,['9'],5,216,[0.00068081],11,53,easy,minus,dotcolour,beta,,,26,19,V,R,
473,95,11,11,3,27,53,682,['c'],0,right,['0'],6,197,[0.00988841],14,53,easy,minus,dotcolour,beta,,,26,19,V,R,
474,96,12,11,3,36,44,997,['c'],0,right,['3'],3,775,[0.02888484],37,44,hard,minus,dotcolour,beta,,,26,19,V,R,
475,97,13,11,3,47,33,599,['c'],1,left,['0'],6,249,[0.05682569],51,47,medium,minus,dotcolour,beta,,,26,19,V,R,
476,98,14,11,3,47,33,783,['n'],0,left,['8'],4,57,[-0.09715051],96,47,medium,minus,dotcolour,beta,,,26,19,V,R,
477,99,15,11,3,44,36,616,['c'],1,left,['0'],6,128,[0.04860167],41,44,hard,minus,dotcolour,beta,,,26,19,V,R,
478,100,16,11,3,33,47,797,['n'],1,right,['8'],4,316,[-0.11901963],88,47,medium,minus,dotcolour,beta,,,26,19,V,R,
479,101,17,11,3,47,33,666,['c'],1,left,['8'],4,158,[0.08047407],76,47,medium,minus,dotcolour,beta,,,26,19,V,R,
480,102,18,11,3,27,53,813,['n'],1,right,['0'],6,216,[-0.07383607],67,53,easy,minus,dotcolour,beta,,,26,19,V,R,
481,103,19,11,3,44,36,915,['c'],1,left,['8'],4,972,[0.18051858],91,44,hard,minus,dotcolour,beta,,,26,19,V,R,
482,104,20,11,3,33,47,748,['n'],1,right,['9'],5,184,[-0.04979133],44,47,medium,minus,dotcolour,beta,,,26,19,V,R,
483,105,21,11,3,47,33,681,['c'],1,left,['0'],6,199,[0.01793484],18,47,medium,minus,dotcolour,beta,,,26,19,V,R,
484,106,22,11,3,53,27,732,['n'],0,left,['1'],1,883,[0.10322968],5,53,easy,minus,dotcolour,beta,,,26,19,V,R,
485,107,23,11,3,27,53,1198,['n'],1,right,['0'],6,128,[-0.06681182],64,53,easy,minus,dotcolour,beta,,,26,19,V,R,
486,108,24,11,3,53,27,632,['c'],1,left,['9'],5,235,[0.11886628],91,53,easy,minus,dotcolour,beta,,,26,19,V,R,
487,109,25,11,3,27,53,681,['n'],1,right,['0'],6,231,[-0.20234755],100,53,easy,minus,dotcolour,beta,,,26,19,V,R,
488,110,26,11,3,33,47,615,['n'],1,right,['0'],6,166,[-0.05975407],55,47,medium,minus,dotcolour,beta,,,26,19,V,R,
489,111,27,11,3,36,44,931,['c'],0,right,['9'],5,252,[0.10437702],85,44,hard,minus,dotcolour,beta,,,26,19,V,R,
490,112,28,11,3,33,47,883,['n'],1,right,['0'],6,247,[-0.07889283],70,47,medium,minus,dotcolour,beta,,,26,19,V,R,
491,113,29,11,3,27,53,982,['c'],0,right,['9'],5,255,[0.06137261],55,53,easy,minus,dotcolour,beta,,,26,19,V,R,
492,114,30,11,3,33,47,1232,['n'],1,right,['0'],6,189,[-0.06720172],62,47,medium,minus,dotcolour,beta,,,26,19,V,R,
493,115,31,11,3,27,53,868,['n'],1,right,['9'],5,340,[-0.19174473],99,53,easy,minus,dotcolour,beta,,,26,19,V,R,
494,116,32,11,3,36,44,767,['c'],0,right,['9'],5,193,[0.11126373],91,44,hard,minus,dotcolour,beta,,,26,19,V,R,
495,117,33,11,3,53,27,664,['c'],1,left,['9'],5,232,[0.14945146],97,53,easy,minus,dotcolour,beta,,,26,19,V,R,
496,118,34,11,3,36,44,1098,['n'],1,right,['9'],5,275,[-0.07012728],62,44,hard,minus,dotcolour,beta,,,26,19,V,R,
497,119,35,11,3,47,33,900,['c'],1,left,['0'],6,246,[0.10635587],86,47,medium,minus,dotcolour,beta,,,26,19,V,R,
498,120,36,11,3,47,33,1200,['n'],0,left,['9'],5,277,[-0.0659627],59,47,medium,minus,dotcolour,beta,,,26,19,V,R,
499,121,37,11,3,47,33,866,['c'],1,left,['9'],5,240,[0.12997073],94,47,medium,minus,dotcolour,beta,,,26,19,V,R,
500,122,38,11,3,53,27,1047,['c'],1,left,['8'],4,189,[0.09741706],85,53,easy,minus,dotcolour,beta,,,26,19,V,R,
501,123,39,11,3,33,47,715,['n'],1,right,['0'],6,322,[-0.05085726],46,47,medium,minus,dotcolour,beta,,,26,19,V,R,
502,124,40,11,3,53,27,1099,['c'],1,left,['8'],4,394,[0.14685854],93,53,easy,minus,dotcolour,beta,,,26,19,V,R,
503,125,41,11,3,36,44,932,['n'],1,right,['9'],5,223,[-0.0096628],15,44,hard,minus,dotcolour,beta,,,26,19,V,R,
504,0,0,12,4,47,33,716,['c'],1,left,['0'],6,240,[0.11240847],100,47,medium,plus,dotcolour,beta,,,26,19,V,R,
505,1,1,12,4,33,47,1016,['n'],1,right,['9'],5,230,[-0.13564426],100,47,medium,plus,dotcolour,beta,,,26,19,V,R,
506,2,2,12,4,47,33,581,['c'],1,left,['8'],4,167,[0.02666087],97,47,medium,plus,dotcolour,beta,,,26,19,V,R,
507,3,3,12,4,36,44,2116,['n'],1,right,['1'],1,173,[-0.10128979],100,44,hard,plus,dotcolour,beta,,,26,19,V,R,
508,4,4,12,4,44,36,1415,['n'],0,left,['9'],5,230,[-0.01828918],94,44,hard,plus,dotcolour,beta,,,26,19,V,R,
509,5,5,12,4,53,27,583,['c'],1,left,['8'],4,215,[0.06133377],99,53,easy,plus,dotcolour,beta,,,26,19,V,R,
510,6,6,12,4,33,47,1197,['n'],1,right,['9'],5,160,[-0.07190322],100,47,medium,plus,dotcolour,beta,,,26,19,V,R,
511,7,7,12,4,27,53,582,['n'],1,right,['0'],6,267,[-0.10055788],100,53,easy,plus,dotcolour,beta,,,26,19,V,R,
512,8,8,12,4,53,27,732,['c'],1,left,['9'],5,277,[0.09290272],99,53,easy,plus,dotcolour,beta,,,26,19,V,R,
513,9,9,12,4,44,36,1347,['c'],1,left,['8'],4,213,[0.12791738],100,44,hard,plus,dotcolour,beta,,,26,19,V,R,
514,10,10,12,4,47,33,583,['c'],1,left,['9'],5,238,[0.0702022],99,47,medium,plus,dotcolour,beta,,,26,19,V,R,
515,11,11,12,4,44,36,799,['c'],1,left,['9'],5,349,[0.15786927],100,44,hard,plus,dotcolour,beta,,,26,19,V,R,
516,12,12,12,4,44,36,665,['c'],1,left,['0'],6,230,[0.02222438],95,44,hard,plus,dotcolour,beta,,,26,19,V,R,
517,13,13,12,4,27,53,1032,['n'],1,right,['9'],5,245,[-0.09942685],100,53,easy,plus,dotcolour,beta,,,26,19,V,R,
518,14,14,12,4,47,33,548,['c'],1,left,['9'],5,294,[0.01582015],91,47,medium,plus,dotcolour,beta,,,26,19,V,R,
519,15,15,12,4,33,47,1282,['n'],1,right,['9'],5,208,[-0.0471225],98,47,medium,plus,dotcolour,beta,,,26,19,V,R,
520,16,16,12,4,33,47,982,['n'],1,right,['8'],4,314,[-0.11159826],100,47,medium,plus,dotcolour,beta,,,26,19,V,R,
521,17,17,12,4,27,53,798,['n'],1,right,['9'],5,230,[-0.06739703],99,53,easy,plus,dotcolour,beta,,,26,19,V,R,
522,18,18,12,4,47,33,563,['c'],1,left,['9'],5,280,[-0.00190206],86,47,medium,plus,dotcolour,beta,,,26,19,V,R,
523,19,19,12,4,44,36,799,['c'],1,left,['9'],5,318,[0.2205695],100,44,hard,plus,dotcolour,beta,,,26,19,V,R,
524,20,20,12,4,47,33,532,['c'],1,left,['8'],4,284,[0.15003763],100,47,medium,plus,dotcolour,beta,,,26,19,V,R,
525,21,21,12,4,47,33,633,['c'],1,left,['0'],6,297,[0.0686791],98,47,medium,plus,dotcolour,beta,,,26,19,V,R,
526,22,22,12,4,53,27,531,['c'],1,left,['9'],5,289,[0.12051644],100,53,easy,plus,dotcolour,beta,,,26,19,V,R,
527,23,23,12,4,53,27,566,['c'],1,left,['0'],6,176,[0.09908748],100,53,easy,plus,dotcolour,beta,,,26,19,V,R,
528,24,24,12,4,33,47,865,['n'],1,right,['9'],5,231,[-0.1099632],100,47,medium,plus,dotcolour,beta,,,26,19,V,R,
529,25,25,12,4,36,44,1433,['c'],0,right,['9'],5,254,[-0.05393403],51,44,hard,plus,dotcolour,beta,,,26,19,V,R,
530,26,26,12,4,53,27,666,['c'],1,left,['0'],6,171,[0.14969627],100,53,easy,plus,dotcolour,beta,,,26,19,V,R,
531,27,27,12,4,27,53,965,['n'],1,right,['2'],2,1519,[-0.17988577],97,53,easy,plus,dotcolour,beta,,,26,19,V,R,
532,28,28,12,4,44,36,4850,['n'],0,left,['9'],5,905,[-0.07429599],92,44,hard,plus,dotcolour,beta,,,26,19,V,R,
533,29,29,12,4,27,53,581,['n'],1,right,['8'],4,318,[-0.1307938],100,53,easy,plus,dotcolour,beta,,,26,19,V,R,
534,30,30,12,4,33,47,766,['n'],1,right,['9'],5,395,[-0.1469336],100,47,medium,plus,dotcolour,beta,,,26,19,V,R,
535,31,31,12,4,53,27,564,['c'],1,left,['0'],6,302,[0.17150903],100,53,easy,plus,dotcolour,beta,,,26,19,V,R,
536,32,32,12,4,36,44,530,['n'],1,right,['8'],4,222,[-0.03819422],97,44,hard,plus,dotcolour,beta,,,26,19,V,R,
537,33,33,12,4,36,44,781,['n'],1,right,['9'],5,190,[-0.12177518],100,44,hard,plus,dotcolour,beta,,,26,19,V,R,
538,34,34,12,4,36,44,1082,['n'],1,right,['9'],5,205,[-0.07934811],100,44,hard,plus,dotcolour,beta,,,26,19,V,R,
539,35,35,12,4,27,53,600,['n'],1,right,['0'],6,214,[-0.08354069],100,53,easy,plus,dotcolour,beta,,,26,19,V,R,
540,36,36,12,4,27,53,582,['n'],1,right,['8'],4,559,[-0.07666241],96,53,easy,plus,dotcolour,beta,,,26,19,V,R,
541,37,37,12,4,53,27,699,['c'],1,left,['0'],6,205,[0.14928625],100,53,easy,plus,dotcolour,beta,,,26,19,V,R,
542,38,38,12,4,33,47,715,['n'],1,right,['9'],5,289,[-0.04270354],96,47,medium,plus,dotcolour,beta,,,26,19,V,R,
543,39,39,12,4,36,44,1196,['n'],1,right,['8'],4,144,[-0.0322663],98,44,hard,plus,dotcolour,beta,,,26,19,V,R,
544,40,40,12,4,44,36,1316,['c'],1,left,['3'],3,246,[0.05236832],98,44,hard,plus,dotcolour,beta,,,26,19,V,R,
545,41,41,12,4,36,44,832,['n'],1,right,['0'],6,212,[-0.11961501],100,44,hard,plus,dotcolour,beta,,,26,19,V,R,
546,42,0,13,4,47,33,1267,['c'],1,left,['8'],4,303,[0.04055858],96,47,medium,plus,dotcolour,beta,,,26,19,V,R,
547,43,1,13,4,53,27,548,['c'],1,left,['9'],5,286,[0.19285194],100,53,easy,plus,dotcolour,beta,,,26,19,V,R,
548,44,2,13,4,47,33,599,['c'],1,left,['0'],6,260,[0.15510066],100,47,medium,plus,dotcolour,beta,,,26,19,V,R,
549,45,3,13,4,44,36,681,['c'],1,left,['8'],4,176,[0.13265701],100,44,hard,plus,dotcolour,beta,,,26,19,V,R,
550,46,4,13,4,36,44,749,['n'],1,right,['8'],4,196,[-0.0519792],99,44,hard,plus,dotcolour,beta,,,26,19,V,R,
551,47,5,13,4,36,44,1031,['n'],1,right,['9'],5,244,[-0.03111772],96,44,hard,plus,dotcolour,beta,,,26,19,V,R,
552,48,6,13,4,27,53,600,['n'],1,right,['9'],5,203,[-0.0672537],99,53,easy,plus,dotcolour,beta,,,26,19,V,R,
553,49,7,13,4,47,33,782,['c'],1,left,['8'],4,229,[0.11344441],100,47,medium,plus,dotcolour,beta,,,26,19,V,R,
554,50,8,13,4,36,44,698,['n'],1,right,['9'],5,217,[-0.15459031],100,44,hard,plus,dotcolour,beta,,,26,19,V,R,
555,51,9,13,4,27,53,583,['n'],1,right,['0'],6,243,[-0.12389456],100,53,easy,plus,dotcolour,beta,,,26,19,V,R,
556,52,10,13,4,33,47,698,['n'],1,right,['0'],6,302,[-0.1446416],100,47,medium,plus,dotcolour,beta,,,26,19,V,R,
557,53,11,13,4,36,44,733,['n'],1,right,['3'],3,422,[-0.0781712],98,44,hard,plus,dotcolour,beta,,,26,19,V,R,
558,54,12,13,4,44,36,1365,['n'],0,left,['1'],1,719,[0.02077031],68,44,hard,plus,dotcolour,beta,,,26,19,V,R,
559,55,13,13,4,27,53,731,['n'],1,right,['0'],6,214,[-0.07235572],99,53,easy,plus,dotcolour,beta,,,26,19,V,R,
560,56,14,13,4,47,33,798,['c'],1,left,['9'],5,232,[0.03199448],96,47,medium,plus,dotcolour,beta,,,26,19,V,R,
561,57,15,13,4,27,53,632,['n'],1,right,['0'],6,230,[-0.08309535],99,53,easy,plus,dotcolour,beta,,,26,19,V,R,
562,58,16,13,4,47,33,533,['c'],1,left,['9'],5,241,[0.12810928],100,47,medium,plus,dotcolour,beta,,,26,19,V,R,
563,59,17,13,4,36,44,599,['n'],1,right,['0'],6,440,[-0.09340328],98,44,hard,plus,dotcolour,beta,,,26,19,V,R,
564,60,18,13,4,44,36,500,['c'],1,left,['0'],6,323,[0.02553968],93,44,hard,plus,dotcolour,beta,,,26,19,V,R,
565,61,19,13,4,47,33,1098,['n'],0,left,['1'],1,955,[0.04976617],53,47,medium,plus,dotcolour,beta,,,26,19,V,R,
566,62,20,13,4,36,44,1200,['n'],1,right,['8'],4,230,[-0.0540928],98,44,hard,plus,dotcolour,beta,,,26,19,V,R,
567,63,21,13,4,53,27,999,['c'],1,left,['0'],6,254,[0.11851561],100,53,easy,plus,dotcolour,beta,,,26,19,V,R,
568,64,22,13,4,53,27,531,['c'],1,left,['9'],5,232,[0.02768829],96,53,easy,plus,dotcolour,beta,,,26,19,V,R,
569,65,23,13,4,44,36,499,['c'],1,left,['0'],6,196,[0.07665952],100,44,hard,plus,dotcolour,beta,,,26,19,V,R,
570,66,24,13,4,33,47,749,['n'],1,right,['0'],6,184,[-0.04799685],99,47,medium,plus,dotcolour,beta,,,26,19,V,R,
571,67,25,13,4,33,47,1132,['n'],1,right,['9'],5,284,[-0.0749301],99,47,medium,plus,dotcolour,beta,,,26,19,V,R,
572,68,26,13,4,27,53,750,['n'],1,right,['9'],5,323,[-0.09360695],99,53,easy,plus,dotcolour,beta,,,26,19,V,R,
573,69,27,13,4,53,27,815,['c'],1,left,['0'],6,295,[0.08185651],99,53,easy,plus,dotcolour,beta,,,26,19,V,R,
574,70,28,13,4,44,36,1065,['n'],0,left,['1'],1,570,[0.12681113],15,44,hard,plus,dotcolour,beta,,,26,19,V,R,
575,71,29,13,4,53,27,732,['c'],1,left,['0'],6,262,[0.09241112],99,53,easy,plus,dotcolour,beta,,,26,19,V,R,
576,72,30,13,4,44,36,1081,['c'],1,left,['0'],6,361,[-0.04953795],54,44,hard,plus,dotcolour,beta,,,26,19,V,R,
577,73,31,13,4,33,47,1615,['n'],1,right,['8'],4,211,[-0.12916017],100,47,medium,plus,dotcolour,beta,,,26,19,V,R,
578,74,32,13,4,44,36,1397,['c'],1,left,['9'],5,276,[0.07968288],99,44,hard,plus,dotcolour,beta,,,26,19,V,R,
579,75,33,13,4,53,27,600,['c'],1,left,['9'],5,442,[0.16501524],100,53,easy,plus,dotcolour,beta,,,26,19,V,R,
580,76,34,13,4,27,53,765,['n'],1,right,['9'],5,243,[-0.11161474],100,53,easy,plus,dotcolour,beta,,,26,19,V,R,
581,77,35,13,4,33,47,665,['c'],0,right,['9'],5,296,[0.10197569],99,47,medium,plus,dotcolour,beta,,,26,19,V,R,
582,78,36,13,4,27,53,1066,['n'],1,right,['0'],6,258,[-0.06631624],99,53,easy,plus,dotcolour,beta,,,26,19,V,R,
583,79,37,13,4,33,47,1114,['n'],1,right,['0'],6,284,[-0.17914838],100,47,medium,plus,dotcolour,beta,,,26,19,V,R,
584,80,38,13,4,53,27,831,['c'],1,left,['8'],4,281,[0.06897122],99,53,easy,plus,dotcolour,beta,,,26,19,V,R,
585,81,39,13,4,36,44,998,['c'],0,right,['0'],6,302,[-0.01441531],79,44,hard,plus,dotcolour,beta,,,26,19,V,R,
586,82,40,13,4,47,33,781,['c'],1,left,['9'],5,276,[0.08213623],99,47,medium,plus,dotcolour,beta,,,26,19,V,R,
587,83,41,13,4,33,47,632,['n'],1,right,['0'],6,217,[-0.05191111],98,47,medium,plus,dotcolour,beta,,,26,19,V,R,
588,84,0,14,4,44,36,1133,['c'],1,left,['3'],3,293,[0.02505488],94,44,hard,plus,dotcolour,beta,,,26,19,V,R,
589,85,1,14,4,44,36,697,['c'],1,left,['9'],5,214,[0.11003296],100,44,hard,plus,dotcolour,beta,,,26,19,V,R,
590,86,2,14,4,33,47,615,['n'],1,right,['0'],6,262,[-0.10149445],100,47,medium,plus,dotcolour,beta,,,26,19,V,R,
591,87,3,14,4,36,44,900,['n'],1,right,['0'],6,256,[-0.13057518],100,44,hard,plus,dotcolour,beta,,,26,19,V,R,
592,88,4,14,4,27,53,865,['n'],1,right,['8'],4,221,[-0.08207477],99,53,easy,plus,dotcolour,beta,,,26,19,V,R,
593,89,5,14,4,47,33,648,['c'],1,left,['9'],5,251,[0.10765144],100,47,medium,plus,dotcolour,beta,,,26,19,V,R,
594,90,6,14,4,53,27,532,['c'],1,left,['0'],6,237,[0.06153265],99,53,easy,plus,dotcolour,beta,,,26,19,V,R,
595,91,7,14,4,44,36,483,['c'],1,left,['9'],5,233,[0.04496938],98,44,hard,plus,dotcolour,beta,,,26,19,V,R,
596,92,8,14,4,44,36,566,['c'],1,left,['8'],4,243,[0.0023245],89,44,hard,plus,dotcolour,beta,,,26,19,V,R,
597,93,9,14,4,33,47,698,['n'],1,right,['8'],4,190,[-0.11006283],100,47,medium,plus,dotcolour,beta,,,26,19,V,R,
598,94,10,14,4,36,44,648,['c'],0,right,['9'],5,197,[0.12881588],100,44,hard,plus,dotcolour,beta,,,26,19,V,R,
599,95,11,14,4,27,53,964,['n'],1,right,['9'],5,216,[-0.10683494],100,53,easy,plus,dotcolour,beta,,,26,19,V,R,
600,96,12,14,4,53,27,515,['c'],1,left,['9'],5,236,[0.16399919],100,53,easy,plus,dotcolour,beta,,,26,19,V,R,
601,97,13,14,4,53,27,550,['c'],1,left,['9'],5,261,[0.05530186],98,53,easy,plus,dotcolour,beta,,,26,19,V,R,
602,98,14,14,4,33,47,648,['n'],1,right,['0'],6,178,[-0.14908806],100,47,medium,plus,dotcolour,beta,,,26,19,V,R,
603,99,15,14,4,47,33,564,['c'],1,left,['9'],5,421,[0.12427478],99,47,medium,plus,dotcolour,beta,,,26,19,V,R,
604,100,16,14,4,27,53,580,['n'],1,right,['0'],6,207,[-0.17849278],100,53,easy,plus,dotcolour,beta,,,26,19,V,R,
605,101,17,14,4,27,53,700,['n'],1,right,['0'],6,244,[-0.2452044],100,53,easy,plus,dotcolour,beta,,,26,19,V,R,
606,102,18,14,4,47,33,832,['n'],0,left,['9'],5,305,[-0.04007295],96,47,medium,plus,dotcolour,beta,,,26,19,V,R,
607,103,19,14,4,27,53,698,['n'],1,right,['9'],5,226,[-0.17483373],100,53,easy,plus,dotcolour,beta,,,26,19,V,R,
608,104,20,14,4,36,44,497,['c'],0,right,['0'],6,430,[0.1368312],99,44,hard,plus,dotcolour,beta,,,26,19,V,R,
609,105,21,14,4,33,47,764,['n'],1,right,['8'],4,239,[-0.11892259],100,47,medium,plus,dotcolour,beta,,,26,19,V,R,
610,106,22,14,4,36,44,567,['n'],1,right,['9'],5,192,[-0.12857526],100,44,hard,plus,dotcolour,beta,,,26,19,V,R,
611,107,23,14,4,27,53,881,['n'],1,right,['9'],5,238,[-0.07132671],99,53,easy,plus,dotcolour,beta,,,26,19,V,R,
612,108,24,14,4,47,33,580,['c'],1,left,['0'],6,295,[0.06232416],98,47,medium,plus,dotcolour,beta,,,26,19,V,R,
613,109,25,14,4,47,33,515,['c'],1,left,['0'],6,224,[0.1071808],100,47,medium,plus,dotcolour,beta,,,26,19,V,R,
614,110,26,14,4,53,27,433,['c'],1,left,['0'],6,231,[0.20919319],100,53,easy,plus,dotcolour,beta,,,26,19,V,R,
615,111,27,14,4,44,36,667,['c'],1,left,['0'],6,308,[0.04279965],96,44,hard,plus,dotcolour,beta,,,26,19,V,R,
616,112,28,14,4,36,44,513,['c'],0,right,['8'],4,716,[-0.14582992],13,44,hard,plus,dotcolour,beta,,,26,19,V,R,
617,113,29,14,4,33,47,914,['n'],1,right,['9'],5,228,[-0.06758148],99,47,medium,plus,dotcolour,beta,,,26,19,V,R,
618,114,30,14,4,53,27,648,['c'],1,left,['9'],5,290,[0.021238],93,53,easy,plus,dotcolour,beta,,,26,19,V,R,
619,115,31,14,4,36,44,782,['n'],1,right,['0'],6,313,[-0.1297985],100,44,hard,plus,dotcolour,beta,,,26,19,V,R,
620,116,32,14,4,33,47,965,['n'],1,right,['9'],5,318,[0.01726648],77,47,medium,plus,dotcolour,beta,,,26,19,V,R,
621,117,33,14,4,33,47,732,['c'],0,right,['0'],6,230,[0.05686867],99,47,medium,plus,dotcolour,beta,,,26,19,V,R,
622,118,34,14,4,36,44,414,['c'],0,right,['9'],5,333,[0.03766652],95,44,hard,plus,dotcolour,beta,,,26,19,V,R,
623,119,35,14,4,47,33,599,['c'],1,left,['9'],5,201,[0.14861176],100,47,medium,plus,dotcolour,beta,,,26,19,V,R,
624,120,36,14,4,44,36,683,['c'],1,left,['8'],4,279,[0.13901081],100,44,hard,plus,dotcolour,beta,,,26,19,V,R,
625,121,37,14,4,27,53,514,['n'],1,right,['0'],6,241,[-0.15137979],100,53,easy,plus,dotcolour,beta,,,26,19,V,R,
626,122,38,14,4,53,27,715,['c'],1,left,['9'],5,235,[0.02692988],96,53,easy,plus,dotcolour,beta,,,26,19,V,R,
627,123,39,14,4,47,33,466,['c'],1,left,['0'],6,280,[0.12152418],100,47,medium,plus,dotcolour,beta,,,26,19,V,R,
628,124,40,14,4,44,36,432,['c'],1,left,['0'],6,309,[0.09333538],99,44,hard,plus,dotcolour,beta,,,26,19,V,R,
629,125,41,14,4,53,27,581,['c'],1,left,['0'],6,411,[0.14097494],100,53,easy,plus,dotcolour,beta,,,26,19,V,R,
630,0,0,15,5,33,47,800,['n'],1,right,['9'],5,157,[-0.11508735],94,47,medium,minus,dotcolour,beta,,,26,19,V,R,
631,1,1,15,5,53,27,416,['c'],1,left,['9'],5,215,[0.11288521],90,53,easy,minus,dotcolour,beta,,,26,19,V,R,
632,2,2,15,5,47,33,431,['c'],1,left,['0'],6,174,[0.08086185],75,47,medium,minus,dotcolour,beta,,,26,19,V,R,
633,3,3,15,5,36,44,566,['c'],0,right,['1'],1,714,[0.05135111],48,44,hard,minus,dotcolour,beta,,,26,19,V,R,
634,4,4,15,5,33,47,797,['n'],1,right,['9'],5,198,[-0.14274041],97,47,medium,minus,dotcolour,beta,,,26,19,V,R,
635,5,5,15,5,53,27,466,['c'],1,left,['0'],6,149,[0.09890566],88,53,easy,minus,dotcolour,beta,,,26,19,V,R,
636,6,6,15,5,27,53,650,['n'],1,right,['9'],5,134,[-0.06030717],56,53,easy,minus,dotcolour,beta,,,26,19,V,R,
637,7,7,15,5,27,53,1280,['n'],1,right,['0'],6,151,[-0.10759244],92,53,easy,minus,dotcolour,beta,,,26,19,V,R,
638,8,8,15,5,53,27,615,['c'],1,left,['9'],5,226,[0.05961671],54,53,easy,minus,dotcolour,beta,,,26,19,V,R,
639,9,9,15,5,33,47,616,['c'],0,right,['0'],6,153,[0.09161144],84,47,medium,minus,dotcolour,beta,,,26,19,V,R,
640,10,10,15,5,47,33,450,['c'],1,left,['9'],5,185,[0.02764165],24,47,medium,minus,dotcolour,beta,,,26,19,V,R,
641,11,11,15,5,27,53,749,['n'],1,right,['9'],5,198,[-0.07131917],65,53,easy,minus,dotcolour,beta,,,26,19,V,R,
642,12,12,15,5,27,53,1430,['n'],1,right,['0'],6,638,[-0.11128672],78,53,easy,minus,dotcolour,beta,,,26,19,V,R,
643,13,13,15,5,44,36,1248,['c'],1,left,['9'],5,291,[0.02022872],24,44,hard,minus,dotcolour,beta,,,26,19,V,R,
644,14,14,15,5,53,27,430,['c'],1,left,['0'],6,167,[0.12101001],95,53,easy,minus,dotcolour,beta,,,26,19,V,R,
645,15,15,15,5,47,33,831,['c'],1,left,['0'],6,217,[0.13842723],96,47,medium,minus,dotcolour,beta,,,26,19,V,R,
646,16,16,15,5,44,36,449,['c'],1,left,['9'],5,223,[0.08714287],77,44,hard,minus,dotcolour,beta,,,26,19,V,R,
647,17,17,15,5,47,33,465,['c'],1,left,['0'],6,181,[0.05059194],45,47,medium,minus,dotcolour,beta,,,26,19,V,R,
648,18,18,15,5,53,27,582,['c'],1,left,['0'],6,168,[0.07793338],73,53,easy,minus,dotcolour,beta,,,26,19,V,R,
649,19,19,15,5,53,27,432,['c'],1,left,['0'],6,161,[0.09512798],86,53,easy,minus,dotcolour,beta,,,26,19,V,R,
650,20,20,15,5,47,33,432,['c'],1,left,['0'],6,139,[0.13495004],98,47,medium,minus,dotcolour,beta,,,26,19,V,R,
651,21,21,15,5,33,47,665,['n'],1,right,['9'],5,220,[-0.1314502],95,47,medium,minus,dotcolour,beta,,,26,19,V,R,
652,22,22,15,5,47,33,397,['c'],1,left,['9'],5,324,[0.11565894],87,47,medium,minus,dotcolour,beta,,,26,19,V,R,
653,23,23,15,5,44,36,800,['n'],0,left,['9'],5,224,[-0.01053283],15,44,hard,minus,dotcolour,beta,,,26,19,V,R,
654,24,24,15,5,33,47,983,['n'],1,right,['8'],4,281,[-0.13111742],93,47,medium,minus,dotcolour,beta,,,26,19,V,R,
655,25,25,15,5,44,36,565,['c'],1,left,['0'],6,320,[0.07151083],62,44,hard,minus,dotcolour,beta,,,26,19,V,R,
656,26,26,15,5,44,36,766,['c'],1,left,['0'],6,327,[0.12772552],91,44,hard,minus,dotcolour,beta,,,26,19,V,R,
657,27,27,15,5,36,44,831,['n'],1,right,['8'],4,338,[-0.01155654],20,44,hard,minus,dotcolour,beta,,,26,19,V,R,
658,28,28,15,5,27,53,1049,['n'],1,right,['0'],6,299,[-0.06060789],54,53,easy,minus,dotcolour,beta,,,26,19,V,R,
659,29,29,15,5,53,27,633,['c'],1,left,['0'],6,199,[0.10188035],87,53,easy,minus,dotcolour,beta,,,26,19,V,R,
660,30,30,15,5,36,44,615,['c'],0,right,['0'],6,215,[0.08566872],76,44,hard,minus,dotcolour,beta,,,26,19,V,R,
661,31,31,15,5,36,44,498,['n'],1,right,['9'],5,388,[-0.12542667],88,44,hard,minus,dotcolour,beta,,,26,19,V,R,
662,32,32,15,5,33,47,715,['c'],0,right,['9'],5,225,[0.12613258],94,47,medium,minus,dotcolour,beta,,,26,19,V,R,
663,33,33,15,5,36,44,648,['n'],1,right,['0'],6,199,[-0.030356],27,44,hard,minus,dotcolour,beta,,,26,19,V,R,
664,34,34,15,5,33,47,1283,['n'],1,right,['0'],6,229,[-0.07853026],70,47,medium,minus,dotcolour,beta,,,26,19,V,R,
665,35,35,15,5,27,53,684,['n'],1,right,['0'],6,186,[-0.10474715],89,53,easy,minus,dotcolour,beta,,,26,19,V,R,
666,36,36,15,5,47,33,382,['c'],1,left,['0'],6,195,[0.14187958],97,47,medium,minus,dotcolour,beta,,,26,19,V,R,
667,37,37,15,5,44,36,1465,['n'],0,left,['0'],6,258,[-0.07712491],68,44,hard,minus,dotcolour,beta,,,26,19,V,R,
668,38,38,15,5,44,36,584,['c'],1,left,['0'],6,250,[0.09484494],80,44,hard,minus,dotcolour,beta,,,26,19,V,R,
669,39,39,15,5,36,44,582,['n'],1,right,['0'],6,178,[-0.05613795],51,44,hard,minus,dotcolour,beta,,,26,19,V,R,
670,40,40,15,5,36,44,616,['c'],0,right,['0'],6,219,[0.06038166],55,44,hard,minus,dotcolour,beta,,,26,19,V,R,
671,41,41,15,5,27,53,732,['n'],1,right,['0'],6,222,[-0.1155739],91,53,easy,minus,dotcolour,beta,,,26,19,V,R,
672,42,0,16,5,47,33,1349,['c'],1,left,['0'],6,223,[0.00273117],12,47,medium,minus,dotcolour,beta,,,26,19,V,R,
673,43,1,16,5,27,53,781,['n'],1,right,['0'],6,303,[-0.12134361],90,53,easy,minus,dotcolour,beta,,,26,19,V,R,
674,44,2,16,5,47,33,1097,['c'],1,left,['0'],6,177,[0.02204372],19,47,medium,minus,dotcolour,beta,,,26,19,V,R,
675,45,3,16,5,36,44,699,['n'],1,right,['0'],6,198,[-0.10554783],88,44,hard,minus,dotcolour,beta,,,26,19,V,R,
676,46,4,16,5,27,53,931,['n'],1,right,['0'],6,394,[-0.05298578],48,53,easy,minus,dotcolour,beta,,,26,19,V,R,
677,47,5,16,5,53,27,649,['c'],1,left,['0'],6,154,[0.13527319],97,53,easy,minus,dotcolour,beta,,,26,19,V,R,
678,48,6,16,5,33,47,616,['n'],1,right,['0'],6,204,[-0.12145019],93,47,medium,minus,dotcolour,beta,,,26,19,V,R,
679,49,7,16,5,27,53,665,['n'],1,right,['0'],6,234,[-0.15716038],98,53,easy,minus,dotcolour,beta,,,26,19,V,R,
680,50,8,16,5,33,47,700,['c'],0,right,['0'],6,270,[0.06585024],59,47,medium,minus,dotcolour,beta,,,26,19,V,R,
681,51,9,16,5,36,44,915,['n'],1,right,['9'],5,216,[0.03040118],3,44,hard,minus,dotcolour,beta,,,26,19,V,R,
682,52,10,16,5,33,47,548,['c'],0,right,['0'],6,251,[0.03100779],29,47,medium,minus,dotcolour,beta,,,26,19,V,R,
683,53,11,16,5,47,33,681,['c'],1,left,['9'],5,199,[0.06300347],57,47,medium,minus,dotcolour,beta,,,26,19,V,R,
684,54,12,16,5,36,44,849,['n'],1,right,['0'],6,174,[-0.0472273],41,44,hard,minus,dotcolour,beta,,,26,19,V,R,
685,55,13,16,5,53,27,549,['c'],1,left,['9'],5,258,[0.04557761],41,53,easy,minus,dotcolour,beta,,,26,19,V,R,
686,56,14,16,5,53,27,531,['c'],1,left,['0'],6,171,[0.13856698],97,53,easy,minus,dotcolour,beta,,,26,19,V,R,
687,57,15,16,5,36,44,566,['n'],1,right,['0'],6,135,[-0.09483289],87,44,hard,minus,dotcolour,beta,,,26,19,V,R,
688,58,16,16,5,27,53,533,['n'],1,right,['0'],6,183,[-0.06529185],60,53,easy,minus,dotcolour,beta,,,26,19,V,R,
689,59,17,16,5,44,36,816,['c'],1,left,['9'],5,135,[0.14636259],99,44,hard,minus,dotcolour,beta,,,26,19,V,R,
690,60,18,16,5,44,36,567,['c'],1,left,['9'],5,269,[0.11706931],89,44,hard,minus,dotcolour,beta,,,26,19,V,R,
691,61,19,16,5,53,27,415,['c'],1,left,['9'],5,146,[0.12158479],96,53,easy,minus,dotcolour,beta,,,26,19,V,R,
692,62,20,16,5,44,36,781,['c'],1,left,['0'],6,166,[0.03422701],28,44,hard,minus,dotcolour,beta,,,26,19,V,R,
693,63,21,16,5,33,47,1381,['n'],1,right,['9'],5,258,[-0.07283776],65,47,medium,minus,dotcolour,beta,,,26,19,V,R,
694,64,22,16,5,27,53,717,['n'],1,right,['0'],6,179,[-0.13359713],97,53,easy,minus,dotcolour,beta,,,26,19,V,R,
695,65,23,16,5,36,44,616,['n'],1,right,['0'],6,181,[-0.02585905],22,44,hard,minus,dotcolour,beta,,,26,19,V,R,
696,66,24,16,5,44,36,866,['c'],1,left,['9'],5,172,[0.06818214],63,44,hard,minus,dotcolour,beta,,,26,19,V,R,
697,67,25,16,5,27,53,549,['c'],0,right,['0'],6,177,[-0.00044446],8,53,easy,minus,dotcolour,beta,,,26,19,V,R,
698,68,26,16,5,33,47,665,['n'],1,right,['0'],6,192,[-0.11262742],91,47,medium,minus,dotcolour,beta,,,26,19,V,R,
699,69,27,16,5,27,53,899,['n'],1,right,['0'],6,422,[-0.13607699],90,53,easy,minus,dotcolour,beta,,,26,19,V,R,
700,70,28,16,5,47,33,582,['c'],1,left,['9'],5,223,[0.04808599],43,47,medium,minus,dotcolour,beta,,,26,19,V,R,
701,71,29,16,5,36,44,782,['c'],0,right,['9'],5,232,[0.04489145],40,44,hard,minus,dotcolour,beta,,,26,19,V,R,
702,72,30,16,5,44,36,781,['c'],1,left,['0'],6,184,[0.0170429],17,44,hard,minus,dotcolour,beta,,,26,19,V,R,
703,73,31,16,5,47,33,531,['c'],1,left,['9'],5,212,[0.10345375],87,47,medium,minus,dotcolour,beta,,,26,19,V,R,
704,74,32,16,5,33,47,780,['n'],1,right,['9'],5,230,[-0.05924698],53,47,medium,minus,dotcolour,beta,,,26,19,V,R,
705,75,33,16,5,47,33,650,['c'],1,left,['9'],5,260,[0.08144638],71,47,medium,minus,dotcolour,beta,,,26,19,V,R,
706,76,34,16,5,53,27,965,['c'],1,left,['0'],6,380,[0.11461532],85,53,easy,minus,dotcolour,beta,,,26,19,V,R,
707,77,35,16,5,44,36,1099,['n'],0,left,['9'],5,242,[-0.14623003],97,44,hard,minus,dotcolour,beta,,,26,19,V,R,
708,78,36,16,5,47,33,584,['c'],1,left,['0'],6,250,[0.06708644],60,47,medium,minus,dotcolour,beta,,,26,19,V,R,
709,79,37,16,5,53,27,648,['c'],1,left,['9'],5,687,[0.06858912],57,53,easy,minus,dotcolour,beta,,,26,19,V,R,
710,80,38,16,5,53,27,564,['c'],1,left,['0'],6,230,[0.12457353],93,53,easy,minus,dotcolour,beta,,,26,19,V,R,
711,81,39,16,5,33,47,698,['n'],1,right,['0'],6,170,[-0.11340736],93,47,medium,minus,dotcolour,beta,,,26,19,V,R,
712,82,40,16,5,36,44,932,['c'],0,right,['9'],5,151,[0.05292982],47,44,hard,minus,dotcolour,beta,,,26,19,V,R,
713,83,41,16,5,44,36,881,['c'],1,left,['0'],6,551,[0.28763625],100,44,hard,minus,dotcolour,beta,,,26,19,V,R,
714,84,0,17,5,33,47,1083,['c'],0,right,['9'],5,157,[0.00703695],10,47,medium,minus,dotcolour,beta,,,26,19,V,R,
715,85,1,17,5,47,33,584,['c'],1,left,['0'],6,209,[0.20191945],100,47,medium,minus,dotcolour,beta,,,26,19,V,R,
716,86,2,17,5,36,44,566,['c'],0,right,['9'],5,259,[-0.00303166],11,44,hard,minus,dotcolour,beta,,,26,19,V,R,
717,87,3,17,5,47,33,617,['c'],1,left,['0'],6,233,[0.12704535],93,47,medium,minus,dotcolour,beta,,,26,19,V,R,
718,88,4,17,5,27,53,866,['n'],1,right,['8'],4,294,[-0.09454161],78,53,easy,minus,dotcolour,beta,,,26,19,V,R,
719,89,5,17,5,44,36,982,['c'],1,left,['8'],4,228,[0.05737416],52,44,hard,minus,dotcolour,beta,,,26,19,V,R,
720,90,6,17,5,27,53,783,['n'],1,right,['0'],6,269,[-0.13819033],95,53,easy,minus,dotcolour,beta,,,26,19,V,R,
721,91,7,17,5,36,44,998,['n'],1,right,['8'],4,219,[-0.0837182],75,44,hard,minus,dotcolour,beta,,,26,19,V,R,
722,92,8,17,5,27,53,864,['n'],1,right,['0'],6,193,[-0.11577197],92,53,easy,minus,dotcolour,beta,,,26,19,V,R,
723,93,9,17,5,44,36,665,['c'],1,left,['0'],6,248,[0.05418314],49,44,hard,minus,dotcolour,beta,,,26,19,V,R,
724,94,10,17,5,53,27,766,['c'],1,left,['9'],5,225,[0.05170086],46,53,easy,minus,dotcolour,beta,,,26,19,V,R,
725,95,11,17,5,36,44,632,['n'],1,right,['0'],6,216,[-0.08300276],74,44,hard,minus,dotcolour,beta,,,26,19,V,R,
726,96,12,17,5,53,27,698,['c'],1,left,['0'],6,212,[0.08529147],76,53,easy,minus,dotcolour,beta,,,26,19,V,R,
727,97,13,17,5,53,27,516,['c'],1,left,['0'],6,168,[0.0652977],61,53,easy,minus,dotcolour,beta,,,26,19,V,R,
728,98,14,17,5,47,33,548,['c'],1,left,['0'],6,197,[0.06333417],58,47,medium,minus,dotcolour,beta,,,26,19,V,R,
729,99,15,17,5,27,53,599,['n'],1,right,['0'],6,166,[-0.02827037],23,53,easy,minus,dotcolour,beta,,,26,19,V,R,
730,100,16,17,5,27,53,965,['n'],1,right,['0'],6,202,[-0.15720923],98,53,easy,minus,dotcolour,beta,,,26,19,V,R,
731,101,17,17,5,47,33,581,['c'],1,left,['0'],6,149,[0.15884045],99,47,medium,minus,dotcolour,beta,,,26,19,V,R,
732,102,18,17,5,27,53,1315,['n'],1,right,['0'],6,499,[-0.20728888],98,53,easy,minus,dotcolour,beta,,,26,19,V,R,
733,103,19,17,5,44,36,482,['c'],1,left,['0'],6,149,[0.12793395],97,44,hard,minus,dotcolour,beta,,,26,19,V,R,
734,104,20,17,5,33,47,649,['n'],1,right,['0'],6,150,[-0.05577385],50,47,medium,minus,dotcolour,beta,,,26,19,V,R,
735,105,21,17,5,33,47,531,['c'],0,right,['0'],6,204,[0.07538624],69,47,medium,minus,dotcolour,beta,,,26,19,V,R,
736,106,22,17,5,53,27,715,['c'],1,left,['8'],4,177,[0.16728172],99,53,easy,minus,dotcolour,beta,,,26,19,V,R,
737,107,23,17,5,53,27,616,['c'],1,left,['9'],5,242,[0.197611],99,53,easy,minus,dotcolour,beta,,,26,19,V,R,
738,108,24,17,5,33,47,648,['n'],1,right,['9'],5,175,[-0.07639319],71,47,medium,minus,dotcolour,beta,,,26,19,V,R,
739,109,25,17,5,44,36,582,['c'],1,left,['0'],6,138,[0.06340765],59,44,hard,minus,dotcolour,beta,,,26,19,V,R,
740,110,26,17,5,47,33,431,['c'],1,left,['0'],6,157,[0.06771778],63,47,medium,minus,dotcolour,beta,,,26,19,V,R,
741,111,27,17,5,33,47,898,['c'],0,right,['0'],6,196,[0.11536071],92,47,medium,minus,dotcolour,beta,,,26,19,V,R,
742,112,28,17,5,33,47,2783,['c'],0,right,['3'],3,318,[0.07429364],65,47,medium,minus,dotcolour,beta,,,26,19,V,R,
743,113,29,17,5,36,44,649,['n'],1,right,['0'],6,329,[-0.1471124],95,44,hard,minus,dotcolour,beta,,,26,19,V,R,
744,114,30,17,5,47,33,666,['c'],1,left,['0'],6,282,[0.12624831],92,47,medium,minus,dotcolour,beta,,,26,19,V,R,
745,115,31,17,5,36,44,798,['n'],1,right,['9'],5,264,[-0.09222022],78,44,hard,minus,dotcolour,beta,,,26,19,V,R,
746,116,32,17,5,47,33,698,['c'],1,left,['8'],4,235,[0.104855],86,47,medium,minus,dotcolour,beta,,,26,19,V,R,
747,117,33,17,5,27,53,1266,['n'],1,right,['9'],5,472,[-0.09430181],73,53,easy,minus,dotcolour,beta,,,26,19,V,R,
748,118,34,17,5,36,44,850,['c'],0,right,['0'],6,204,[0.10364934],87,44,hard,minus,dotcolour,beta,,,26,19,V,R,
749,119,35,17,5,44,36,716,['c'],1,left,['9'],5,168,[0.02040935],18,44,hard,minus,dotcolour,beta,,,26,19,V,R,
750,120,36,17,5,36,44,648,['n'],1,right,['0'],6,177,[-0.018732],17,44,hard,minus,dotcolour,beta,,,26,19,V,R,
751,121,37,17,5,33,47,1081,['n'],1,right,['8'],4,191,[-0.10137984],87,47,medium,minus,dotcolour,beta,,,26,19,V,R,
752,122,38,17,5,53,27,683,['c'],1,left,['9'],5,189,[0.13481786],96,53,easy,minus,dotcolour,beta,,,26,19,V,R,
753,123,39,17,5,44,36,866,['n'],0,left,['8'],4,156,[-0.0768143],72,44,hard,minus,dotcolour,beta,,,26,19,V,R,
754,124,40,17,5,44,36,1182,['c'],1,left,['3'],3,551,[0.02203502],31,44,hard,minus,dotcolour,beta,,,26,19,V,R,
755,125,41,17,5,53,27,883,['c'],1,left,['9'],5,631,[0.22466375],98,53,easy,minus,dotcolour,beta,,,26,19,V,R,
,,,,,,,,,,,,,,,,,,,,,1,nee,26,19,V,R,
,,,,,,,,,,,,,,,,,,,,,2,['h'],26,19,V,R,
,,,,,,,,,,,,,,,,,,,,,3,['h'],26,19,V,R,
,,,,,,,,,,,,,,,,,,,,,5,['5'],26,19,V,R,
