trial,withinphasetrial,withinblocktrial,block,phase,dotsLeft,dotsRight,rt,resp,cor,cresp,conf_press,cj,RTconf,ev,fb,diff,difflevel,condition,task,manip,sub,age,gender,handedness,
0,0,0,0,0,27,53,1500,['n'],1,right,['9'],5,1396,[-0.41307431],96,53,easy,minus,dotcolour,alfa,119,17,M,R,
1,1,1,0,0,27,53,865,['n'],1,right,['0'],6,601,[-0.23770213],94,53,easy,minus,dotcolour,alfa,119,17,M,R,
2,2,2,0,0,53,27,1997,['c'],1,left,['1'],1,331,[0.06822211],74,53,easy,minus,dotcolour,alfa,119,17,M,R,
3,3,3,0,0,27,53,1148,['n'],1,right,['0'],6,721,[-0.2045753],90,53,easy,minus,dotcolour,alfa,119,17,M,R,
4,4,4,0,0,53,27,932,['c'],1,left,['0'],6,352,[0.07657378],76,53,easy,minus,dotcolour,alfa,119,17,M,R,
5,5,5,0,0,27,53,1048,['n'],1,right,['8'],4,416,[-0.01802984],56,53,easy,minus,dotcolour,alfa,119,17,M,R,
6,6,6,0,0,44,36,1083,['c'],1,left,['2'],2,1382,[0.01386519],53,44,hard,minus,dotcolour,alfa,119,17,M,R,
7,7,7,0,0,53,27,1064,['c'],1,left,['0'],6,500,[0.17869314],91,53,easy,minus,dotcolour,alfa,119,17,M,R,
8,8,8,0,0,53,27,897,['c'],1,left,['0'],6,261,[0.08928306],83,53,easy,minus,dotcolour,alfa,119,17,M,R,
9,9,9,0,0,36,44,1248,['c'],0,right,['8'],4,281,[0.11656487],88,44,hard,minus,dotcolour,alfa,119,17,M,R,
10,10,10,0,0,47,33,850,['c'],1,left,['9'],5,357,[0.12789634],87,47,medium,minus,dotcolour,alfa,119,17,M,R,
11,11,11,0,0,27,53,815,['n'],1,right,['8'],4,599,[-0.17567053],89,53,easy,minus,dotcolour,alfa,119,17,M,R,
12,12,12,0,0,47,33,882,['c'],1,left,['8'],4,437,[0.14896115],88,47,medium,minus,dotcolour,alfa,119,17,M,R,
13,13,13,0,0,36,44,1797,['c'],0,right,['8'],4,1965,[-0.06223975],40,44,hard,minus,dotcolour,alfa,119,17,M,R,
14,14,14,0,0,33,47,832,['n'],1,right,['8'],4,342,[-0.14228081],90,47,medium,minus,dotcolour,alfa,119,17,M,R,
15,15,15,0,0,44,36,665,['c'],1,left,['0'],6,527,[0.0515387],65,44,hard,minus,dotcolour,alfa,119,17,M,R,
16,16,16,0,0,53,27,565,['c'],1,left,['0'],6,116,[0.06011355],83,53,easy,minus,dotcolour,alfa,119,17,M,R,
17,17,17,0,0,33,47,1050,['c'],0,right,['8'],4,102,[0.09166248],93,47,medium,minus,dotcolour,alfa,119,17,M,R,
18,18,18,0,0,53,27,815,['c'],1,left,['9'],5,227,[0.11337742],89,53,easy,minus,dotcolour,alfa,119,17,M,R,
19,19,19,0,0,44,36,682,['c'],1,left,['0'],6,88,[0.11861177],97,44,hard,minus,dotcolour,alfa,119,17,M,R,
20,20,20,0,0,47,33,733,['c'],1,left,['9'],5,177,[0.05757796],77,47,medium,minus,dotcolour,alfa,119,17,M,R,
21,21,21,0,0,33,47,2084,['c'],0,right,['8'],4,207,[0.04621676],71,47,medium,minus,dotcolour,alfa,119,17,M,R,
22,22,22,0,0,47,33,616,['c'],1,left,['8'],4,327,[0.1159838],86,47,medium,minus,dotcolour,alfa,119,17,M,R,
23,23,23,0,0,44,36,816,['c'],1,left,['9'],5,163,[0.06009586],79,44,hard,minus,dotcolour,alfa,119,17,M,R,
24,24,24,0,0,44,36,815,['c'],1,left,['8'],4,165,[0.13639388],95,44,hard,minus,dotcolour,alfa,119,17,M,R,
25,25,25,0,0,36,44,864,['c'],0,right,['8'],4,125,[0.07676635],88,44,hard,minus,dotcolour,alfa,119,17,M,R,
26,26,26,0,0,47,33,664,['c'],1,left,['8'],4,150,[0.09995808],91,47,medium,minus,dotcolour,alfa,119,17,M,R,
27,27,27,0,0,33,47,682,['c'],0,right,['9'],5,374,[0.13074914],87,47,medium,minus,dotcolour,alfa,119,17,M,R,
28,28,28,0,0,36,44,649,['c'],0,right,['8'],4,166,[0.07514393],84,44,hard,minus,dotcolour,alfa,119,17,M,R,
29,29,29,0,0,44,36,1050,['c'],1,left,['9'],5,175,[0.1108334],92,44,hard,minus,dotcolour,alfa,119,17,M,R,
30,30,30,0,0,44,36,632,['c'],1,left,['8'],4,95,[0.05312516],83,44,hard,minus,dotcolour,alfa,119,17,M,R,
31,31,31,0,0,36,44,449,['c'],0,right,['8'],4,74,[0.11493134],98,44,hard,minus,dotcolour,alfa,119,17,M,R,
32,32,32,0,0,33,47,600,['c'],0,right,['9'],5,72,[0.09310776],96,47,medium,minus,dotcolour,alfa,119,17,M,R,
33,33,33,0,0,33,47,648,['c'],0,right,['8'],4,101,[0.05476884],83,47,medium,minus,dotcolour,alfa,119,17,M,R,
34,34,34,0,0,47,33,599,['c'],1,left,['8'],4,163,[0.05538134],77,47,medium,minus,dotcolour,alfa,119,17,M,R,
35,35,35,0,0,36,44,599,['c'],0,right,['8'],4,117,[0.09056891],92,44,hard,minus,dotcolour,alfa,119,17,M,R,
36,36,36,0,0,47,33,696,['c'],1,left,['8'],4,70,[0.0807127],94,47,medium,minus,dotcolour,alfa,119,17,M,R,
37,37,37,0,0,27,53,932,['n'],1,right,['3'],3,263,[-0.13094554],91,53,easy,minus,dotcolour,alfa,119,17,M,R,
38,38,38,0,0,27,53,1315,['n'],1,right,['9'],5,185,[-0.14549823],95,53,easy,minus,dotcolour,alfa,119,17,M,R,
39,39,39,0,0,53,27,999,['c'],1,left,['8'],4,107,[0.10897092],95,53,easy,minus,dotcolour,alfa,119,17,M,R,
40,40,40,0,0,36,44,782,['c'],0,right,['8'],4,72,[0.09818657],96,44,hard,minus,dotcolour,alfa,119,17,M,R,
41,41,41,0,0,33,47,615,['c'],0,right,['8'],4,70,[0.06212618],89,47,medium,minus,dotcolour,alfa,119,17,M,R,
42,42,0,1,0,27,53,1166,['n'],1,right,['9'],5,134,[-0.0946217],91,53,easy,minus,dotcolour,alfa,119,17,M,R,
43,43,1,1,0,44,36,630,['c'],1,left,['8'],4,105,[0.04811513],79,44,hard,minus,dotcolour,alfa,119,17,M,R,
44,44,2,1,0,47,33,799,['c'],1,left,['9'],5,62,[0.10020989],97,47,medium,minus,dotcolour,alfa,119,17,M,R,
45,45,3,1,0,27,53,714,['c'],0,right,['0'],6,240,[0.00362907],52,53,easy,minus,dotcolour,alfa,119,17,M,R,
46,46,4,1,0,27,53,615,['c'],0,right,['9'],5,118,[0.09985899],93,53,easy,minus,dotcolour,alfa,119,17,M,R,
47,47,5,1,0,53,27,680,['n'],0,left,['8'],4,103,[-0.02810298],69,53,easy,minus,dotcolour,alfa,119,17,M,R,
48,48,6,1,0,36,44,566,['c'],0,right,['9'],5,118,[0.05338477],80,44,hard,minus,dotcolour,alfa,119,17,M,R,
49,49,7,1,0,33,47,1183,['n'],1,right,['8'],4,219,[-0.10671284],89,47,medium,minus,dotcolour,alfa,119,17,M,R,
50,50,8,1,0,27,53,713,['n'],1,right,['9'],5,143,[-0.08533773],88,53,easy,minus,dotcolour,alfa,119,17,M,R,
51,51,9,1,0,36,44,1348,['n'],1,right,['9'],5,636,[-0.05653408],65,44,hard,minus,dotcolour,alfa,119,17,M,R,
52,52,10,1,0,33,47,549,['c'],0,right,['9'],5,142,[0.05266018],78,47,medium,minus,dotcolour,alfa,119,17,M,R,
53,53,11,1,0,36,44,298,['n'],1,right,['9'],5,189,[-0.11345454],91,44,hard,minus,dotcolour,alfa,119,17,M,R,
54,54,12,1,0,44,36,79,['c'],1,left,['8'],4,31,[0.08496272],99,44,hard,minus,dotcolour,alfa,119,17,M,R,
55,55,13,1,0,47,33,600,['c'],1,left,['8'],4,63,[0.03281644],76,47,medium,minus,dotcolour,alfa,119,17,M,R,
56,56,14,1,0,47,33,415,['n'],0,left,['0'],6,156,[-0.06241805],81,47,medium,minus,dotcolour,alfa,119,17,M,R,
57,57,15,1,0,44,36,282,['n'],0,left,['9'],5,148,[-0.08278094],87,44,hard,minus,dotcolour,alfa,119,17,M,R,
58,58,16,1,0,53,27,498,['c'],1,left,['8'],4,99,[0.08871984],93,53,easy,minus,dotcolour,alfa,119,17,M,R,
59,59,17,1,0,53,27,416,['c'],1,left,['9'],5,48,[0.09747911],98,53,easy,minus,dotcolour,alfa,119,17,M,R,
60,60,18,1,0,44,36,349,['c'],1,left,['9'],5,65,[0.11157829],98,44,hard,minus,dotcolour,alfa,119,17,M,R,
61,61,19,1,0,27,53,782,['n'],1,right,['0'],6,232,[-0.12911265],92,53,easy,minus,dotcolour,alfa,119,17,M,R,
62,62,20,1,0,44,36,597,['n'],0,left,['8'],4,40,[-0.08824899],98,44,hard,minus,dotcolour,alfa,119,17,M,R,
63,63,21,1,0,36,44,383,['c'],0,right,['9'],5,65,[0.03762658],79,44,hard,minus,dotcolour,alfa,119,17,M,R,
64,64,22,1,0,36,44,233,['n'],1,right,['9'],5,142,[-0.07229971],85,44,hard,minus,dotcolour,alfa,119,17,M,R,
65,65,23,1,0,27,53,532,['n'],1,right,['0'],6,93,[-0.07613157],90,53,easy,minus,dotcolour,alfa,119,17,M,R,
66,66,24,1,0,53,27,549,['c'],1,left,['9'],5,108,[0.09843087],94,53,easy,minus,dotcolour,alfa,119,17,M,R,
67,67,25,1,0,47,33,483,['c'],1,left,['9'],5,133,[0.03138223],68,47,medium,minus,dotcolour,alfa,119,17,M,R,
68,68,26,1,0,47,33,766,['c'],1,left,['9'],5,19,[0.07072905],99,47,medium,minus,dotcolour,alfa,119,17,M,R,
69,69,27,1,0,33,47,900,['n'],1,right,['0'],6,215,[-0.10411612],88,47,medium,minus,dotcolour,alfa,119,17,M,R,
70,70,28,1,0,44,36,582,['c'],1,left,['9'],5,64,[0.06616947],91,44,hard,minus,dotcolour,alfa,119,17,M,R,
71,71,29,1,0,33,47,382,['c'],0,right,['0'],6,168,[0.07506914],84,47,medium,minus,dotcolour,alfa,119,17,M,R,
72,72,30,1,0,47,33,1198,['c'],1,left,['9'],5,26,[0.08338158],99,47,medium,minus,dotcolour,alfa,119,17,M,R,
73,73,31,1,0,36,44,666,['c'],0,right,['9'],5,88,[0.07800278],91,44,hard,minus,dotcolour,alfa,119,17,M,R,
74,74,32,1,0,33,47,899,['c'],0,right,['8'],4,90,[0.05301714],83,47,medium,minus,dotcolour,alfa,119,17,M,R,
75,75,33,1,0,33,47,1315,['n'],1,right,['9'],5,139,[-0.08839266],89,47,medium,minus,dotcolour,alfa,119,17,M,R,
76,76,34,1,0,27,53,1582,['c'],0,right,['9'],5,48,[0.0737964],95,53,easy,minus,dotcolour,alfa,119,17,M,R,
77,77,35,1,0,53,27,596,['c'],1,left,['9'],5,95,[0.0737797],90,53,easy,minus,dotcolour,alfa,119,17,M,R,
78,78,36,1,0,33,47,1183,['c'],0,right,['8'],4,85,[0.08737219],94,47,medium,minus,dotcolour,alfa,119,17,M,R,
79,79,37,1,0,53,27,750,['c'],1,left,['0'],6,141,[0.10521373],93,53,easy,minus,dotcolour,alfa,119,17,M,R,
80,80,38,1,0,44,36,631,['c'],1,left,['0'],6,127,[0.1328323],97,44,hard,minus,dotcolour,alfa,119,17,M,R,
81,81,39,1,0,53,27,798,['c'],1,left,['9'],5,107,[0.06615977],86,53,easy,minus,dotcolour,alfa,119,17,M,R,
82,82,40,1,0,47,33,699,['c'],1,left,['0'],6,92,[0.07637815],91,47,medium,minus,dotcolour,alfa,119,17,M,R,
83,83,41,1,0,36,44,782,['c'],0,right,['9'],5,986,[-0.09005007],31,44,hard,minus,dotcolour,alfa,119,17,M,R,
84,84,0,2,0,53,27,1600,['c'],1,left,['9'],5,210,[0.13020874],93,53,easy,minus,dotcolour,alfa,119,17,M,R,
85,85,1,2,0,53,27,982,['c'],1,left,['9'],5,147,[0.03641865],70,53,easy,minus,dotcolour,alfa,119,17,M,R,
86,86,2,2,0,47,33,2532,['n'],0,left,['2'],2,1809,[0.16574652],25,47,medium,minus,dotcolour,alfa,119,17,M,R,
87,87,3,2,0,27,53,615,['c'],0,right,['0'],6,433,[-0.10736547],19,53,easy,minus,dotcolour,alfa,119,17,M,R,
88,88,4,2,0,44,36,782,['c'],1,left,['9'],5,114,[0.09502133],93,44,hard,minus,dotcolour,alfa,119,17,M,R,
89,89,5,2,0,44,36,649,['c'],1,left,['0'],6,189,[0.14433474],95,44,hard,minus,dotcolour,alfa,119,17,M,R,
90,90,6,2,0,44,36,1032,['n'],0,left,['9'],5,220,[-0.01087286],55,44,hard,minus,dotcolour,alfa,119,17,M,R,
91,91,7,2,0,53,27,699,['c'],1,left,['0'],6,72,[0.07768964],93,53,easy,minus,dotcolour,alfa,119,17,M,R,
92,92,8,2,0,44,36,682,['c'],1,left,['0'],6,140,[0.00955756],56,44,hard,minus,dotcolour,alfa,119,17,M,R,
93,93,9,2,0,27,53,499,['c'],0,right,['9'],5,131,[0.02243176],64,53,easy,minus,dotcolour,alfa,119,17,M,R,
94,94,10,2,0,33,47,665,['c'],0,right,['1'],1,1484,[0.01436409],53,47,medium,minus,dotcolour,alfa,119,17,M,R,
95,95,11,2,0,36,44,1782,['n'],1,right,['8'],4,259,[-0.10534038],87,44,hard,minus,dotcolour,alfa,119,17,M,R,
96,96,12,2,0,36,44,2149,['n'],1,right,['9'],5,139,[-0.07629698],86,44,hard,minus,dotcolour,alfa,119,17,M,R,
97,97,13,2,0,47,33,899,['c'],1,left,['0'],6,211,[0.08271424],83,47,medium,minus,dotcolour,alfa,119,17,M,R,
98,98,14,2,0,33,47,1030,['n'],1,right,['9'],5,234,[-0.12450289],91,47,medium,minus,dotcolour,alfa,119,17,M,R,
99,99,15,2,0,44,36,1132,['n'],0,left,['0'],6,301,[-0.09001812],81,44,hard,minus,dotcolour,alfa,119,17,M,R,
100,100,16,2,0,33,47,967,['c'],0,right,['1'],1,900,[0.00666276],52,47,medium,minus,dotcolour,alfa,119,17,M,R,
101,101,17,2,0,47,33,1064,['c'],1,left,['0'],6,390,[0.08114498],76,47,medium,minus,dotcolour,alfa,119,17,M,R,
102,102,18,2,0,36,44,782,['n'],1,right,['9'],5,240,[-0.20929724],98,44,hard,minus,dotcolour,alfa,119,17,M,R,
103,103,19,2,0,47,33,749,['c'],1,left,['0'],6,146,[0.05417657],78,47,medium,minus,dotcolour,alfa,119,17,M,R,
104,104,20,2,0,53,27,566,['c'],1,left,['0'],6,86,[0.06534402],88,53,easy,minus,dotcolour,alfa,119,17,M,R,
105,105,21,2,0,27,53,766,['n'],1,right,['8'],4,134,[-0.02976544],68,53,easy,minus,dotcolour,alfa,119,17,M,R,
106,106,22,2,0,33,47,647,['n'],1,right,['9'],5,119,[-0.12333154],96,47,medium,minus,dotcolour,alfa,119,17,M,R,
107,107,23,2,0,33,47,1233,['n'],1,right,['9'],5,82,[-0.07600333],92,47,medium,minus,dotcolour,alfa,119,17,M,R,
108,108,24,2,0,36,44,749,['n'],1,right,['0'],6,146,[-0.14166929],97,44,hard,minus,dotcolour,alfa,119,17,M,R,
109,109,25,2,0,53,27,882,['c'],1,left,['0'],6,138,[0.14284286],97,53,easy,minus,dotcolour,alfa,119,17,M,R,
110,110,26,2,0,36,44,699,['c'],0,right,['0'],6,98,[0.08431077],92,44,hard,minus,dotcolour,alfa,119,17,M,R,
111,111,27,2,0,36,44,699,['c'],0,right,['0'],6,116,[0.03667922],72,44,hard,minus,dotcolour,alfa,119,17,M,R,
112,112,28,2,0,53,27,665,['c'],1,left,['0'],6,102,[0.09509377],94,53,easy,minus,dotcolour,alfa,119,17,M,R,
113,113,29,2,0,27,53,766,['n'],1,right,['0'],6,108,[-0.08853088],92,53,easy,minus,dotcolour,alfa,119,17,M,R,
114,114,30,2,0,47,33,1149,['n'],0,left,['9'],5,171,[0.00959121],45,47,medium,minus,dotcolour,alfa,119,17,M,R,
115,115,31,2,0,36,44,547,['n'],1,right,['0'],6,159,[-0.07554281],85,44,hard,minus,dotcolour,alfa,119,17,M,R,
116,116,32,2,0,44,36,715,['c'],1,left,['0'],6,213,[0.0231654],61,44,hard,minus,dotcolour,alfa,119,17,M,R,
117,117,33,2,0,27,53,1183,['n'],1,right,['0'],6,143,[-0.05449716],79,53,easy,minus,dotcolour,alfa,119,17,M,R,
118,118,34,2,0,27,53,614,['n'],1,right,['0'],6,170,[-0.11821684],93,53,easy,minus,dotcolour,alfa,119,17,M,R,
119,119,35,2,0,47,33,1416,['c'],1,left,['9'],5,59,[0.12597558],99,47,medium,minus,dotcolour,alfa,119,17,M,R,
120,120,36,2,0,33,47,699,['n'],1,right,['0'],6,94,[-0.11927662],97,47,medium,minus,dotcolour,alfa,119,17,M,R,
121,121,37,2,0,44,36,565,['n'],0,left,['0'],6,148,[-0.0231535],63,44,hard,minus,dotcolour,alfa,119,17,M,R,
122,122,38,2,0,53,27,713,['c'],1,left,['9'],5,155,[0.05994764],80,53,easy,minus,dotcolour,alfa,119,17,M,R,
123,123,39,2,0,33,47,731,['c'],0,right,['0'],6,185,[0.00933433],55,47,medium,minus,dotcolour,alfa,119,17,M,R,
124,124,40,2,0,27,53,548,['n'],1,right,['0'],6,109,[-0.13510671],98,53,easy,minus,dotcolour,alfa,119,17,M,R,
125,125,41,2,0,47,33,846,['c'],1,left,['0'],6,232,[0.11590603],90,47,medium,minus,dotcolour,alfa,119,17,M,R,
126,0,0,3,1,53,27,750,['n'],0,left,['1'],1,1031,[0.02546938],29,53,easy,plus,dotcolour,alfa,119,17,M,R,
127,1,1,3,1,33,47,583,['n'],1,right,['0'],6,103,[-0.06844724],100,47,medium,plus,dotcolour,alfa,119,17,M,R,
128,2,2,3,1,44,36,1549,['c'],1,left,['9'],5,471,[0.13467754],100,44,hard,plus,dotcolour,alfa,119,17,M,R,
129,3,3,3,1,47,33,1866,['n'],0,left,['8'],4,210,[-0.00996082],69,47,medium,plus,dotcolour,alfa,119,17,M,R,
130,4,4,3,1,47,33,682,['n'],0,left,['9'],5,399,[0.03432897],12,47,medium,plus,dotcolour,alfa,119,17,M,R,
131,5,5,3,1,47,33,833,['c'],1,left,['0'],6,175,[0.07711079],100,47,medium,plus,dotcolour,alfa,119,17,M,R,
132,6,6,3,1,44,36,615,['c'],1,left,['9'],5,160,[0.05555017],99,44,hard,plus,dotcolour,alfa,119,17,M,R,
133,7,7,3,1,27,53,665,['n'],1,right,['0'],6,1736,[-0.06330438],85,53,easy,plus,dotcolour,alfa,119,17,M,R,
134,8,8,3,1,44,36,783,['c'],1,left,['9'],5,172,[0.0019103],54,44,hard,plus,dotcolour,alfa,119,17,M,R,
135,9,9,3,1,53,27,531,['c'],1,left,['0'],6,234,[0.00030183],51,53,easy,plus,dotcolour,alfa,119,17,M,R,
136,10,10,3,1,33,47,732,['n'],1,right,['0'],6,116,[-0.07151546],100,47,medium,plus,dotcolour,alfa,119,17,M,R,
137,11,11,3,1,53,27,682,['c'],1,left,['0'],6,126,[0.12568236],100,53,easy,plus,dotcolour,alfa,119,17,M,R,
138,12,12,3,1,53,27,564,['c'],1,left,['0'],6,139,[0.15197918],100,53,easy,plus,dotcolour,alfa,119,17,M,R,
139,13,13,3,1,36,44,631,['c'],0,right,['0'],6,85,[0.09775279],100,44,hard,plus,dotcolour,alfa,119,17,M,R,
140,14,14,3,1,44,36,1017,['c'],1,left,['8'],4,226,[0.10827776],100,44,hard,plus,dotcolour,alfa,119,17,M,R,
141,15,15,3,1,44,36,615,['c'],1,left,['9'],5,161,[0.02176772],88,44,hard,plus,dotcolour,alfa,119,17,M,R,
142,16,16,3,1,36,44,598,['c'],0,right,['8'],4,556,[-0.02376264],24,44,hard,plus,dotcolour,alfa,119,17,M,R,
143,17,17,3,1,27,53,716,['c'],0,right,['9'],5,322,[0.00696064],61,53,easy,plus,dotcolour,alfa,119,17,M,R,
144,18,18,3,1,27,53,781,['n'],1,right,['0'],6,143,[-0.08175507],100,53,easy,plus,dotcolour,alfa,119,17,M,R,
145,19,19,3,1,36,44,699,['c'],0,right,['0'],6,134,[0.03708535],97,44,hard,plus,dotcolour,alfa,119,17,M,R,
146,20,20,3,1,33,47,831,['n'],1,right,['0'],6,177,[-0.13811074],100,47,medium,plus,dotcolour,alfa,119,17,M,R,
147,21,21,3,1,36,44,1130,['c'],0,right,['8'],4,229,[0.12880487],100,44,hard,plus,dotcolour,alfa,119,17,M,R,
148,22,22,3,1,53,27,949,['c'],1,left,['0'],6,111,[0.06188046],100,53,easy,plus,dotcolour,alfa,119,17,M,R,
149,23,23,3,1,27,53,732,['n'],1,right,['9'],5,335,[-0.23979218],100,53,easy,plus,dotcolour,alfa,119,17,M,R,
150,24,24,3,1,27,53,748,['n'],1,right,['0'],6,237,[-0.07425249],100,53,easy,plus,dotcolour,alfa,119,17,M,R,
151,25,25,3,1,33,47,815,['c'],0,right,['9'],5,180,[0.07594984],100,47,medium,plus,dotcolour,alfa,119,17,M,R,
152,26,26,3,1,47,33,798,['c'],1,left,['9'],5,422,[-0.01230323],34,47,medium,plus,dotcolour,alfa,119,17,M,R,
153,27,27,3,1,44,36,783,['c'],1,left,['9'],5,215,[0.04184648],96,44,hard,plus,dotcolour,alfa,119,17,M,R,
154,28,28,3,1,53,27,533,['c'],1,left,['9'],5,1194,[0.10476309],97,53,easy,plus,dotcolour,alfa,119,17,M,R,
155,29,29,3,1,33,47,698,['c'],0,right,['8'],4,207,[0.09160871],100,47,medium,plus,dotcolour,alfa,119,17,M,R,
156,30,30,3,1,53,27,699,['c'],1,left,['0'],6,132,[0.0539075],100,53,easy,plus,dotcolour,alfa,119,17,M,R,
157,31,31,3,1,27,53,916,['n'],1,right,['0'],6,188,[-0.0772624],100,53,easy,plus,dotcolour,alfa,119,17,M,R,
158,32,32,3,1,33,47,1298,['n'],1,right,['3'],3,2137,[-0.15082063],98,47,medium,plus,dotcolour,alfa,119,17,M,R,
159,33,33,3,1,36,44,1849,['c'],0,right,['8'],4,242,[0.10996887],100,44,hard,plus,dotcolour,alfa,119,17,M,R,
160,34,34,3,1,33,47,914,['n'],1,right,['0'],6,221,[0.06226319],1,47,medium,plus,dotcolour,alfa,119,17,M,R,
161,35,35,3,1,36,44,782,['c'],0,right,['0'],6,118,[0.04655864],99,44,hard,plus,dotcolour,alfa,119,17,M,R,
162,36,36,3,1,47,33,698,['n'],0,left,['0'],6,1287,[-0.05594065],86,47,medium,plus,dotcolour,alfa,119,17,M,R,
163,37,37,3,1,27,53,615,['c'],0,right,['8'],4,387,[-0.01122922],34,53,easy,plus,dotcolour,alfa,119,17,M,R,
164,38,38,3,1,36,44,648,['c'],0,right,['9'],5,147,[0.00286896],57,44,hard,plus,dotcolour,alfa,119,17,M,R,
165,39,39,3,1,44,36,1516,['n'],0,left,['0'],6,98,[-0.09941057],100,44,hard,plus,dotcolour,alfa,119,17,M,R,
166,40,40,3,1,47,33,798,['c'],1,left,['9'],5,167,[0.10105855],100,47,medium,plus,dotcolour,alfa,119,17,M,R,
167,41,41,3,1,47,33,614,['c'],1,left,['9'],5,352,[0.08033894],99,47,medium,plus,dotcolour,alfa,119,17,M,R,
168,42,0,4,1,27,53,600,['c'],0,right,['0'],6,132,[0.06690245],100,53,easy,plus,dotcolour,alfa,119,17,M,R,
169,43,1,4,1,36,44,549,['n'],1,right,['0'],6,226,[-0.15542911],100,44,hard,plus,dotcolour,alfa,119,17,M,R,
170,44,2,4,1,44,36,582,['c'],1,left,['9'],5,179,[0.1281086],100,44,hard,plus,dotcolour,alfa,119,17,M,R,
171,45,3,4,1,36,44,549,['n'],1,right,['9'],5,174,[-0.14584763],100,44,hard,plus,dotcolour,alfa,119,17,M,R,
172,46,4,4,1,53,27,548,['c'],1,left,['8'],4,195,[0.14053577],100,53,easy,plus,dotcolour,alfa,119,17,M,R,
173,47,5,4,1,36,44,615,['n'],1,right,['9'],5,91,[-0.06640096],100,44,hard,plus,dotcolour,alfa,119,17,M,R,
174,48,6,4,1,53,27,599,['c'],1,left,['9'],5,185,[0.0728657],100,53,easy,plus,dotcolour,alfa,119,17,M,R,
175,49,7,4,1,53,27,549,['c'],1,left,['0'],6,173,[0.15523878],100,53,easy,plus,dotcolour,alfa,119,17,M,R,
176,50,8,4,1,33,47,982,['c'],0,right,['8'],4,927,[-0.0322801],23,47,medium,plus,dotcolour,alfa,119,17,M,R,
177,51,9,4,1,33,47,600,['n'],1,right,['0'],6,211,[-0.09293915],100,47,medium,plus,dotcolour,alfa,119,17,M,R,
178,52,10,4,1,33,47,482,['n'],1,right,['0'],6,209,[-0.05711197],99,47,medium,plus,dotcolour,alfa,119,17,M,R,
179,53,11,4,1,47,33,682,['c'],1,left,['0'],6,134,[0.03718488],97,47,medium,plus,dotcolour,alfa,119,17,M,R,
180,54,12,4,1,36,44,1765,['n'],1,right,['8'],4,195,[-0.11754683],100,44,hard,plus,dotcolour,alfa,119,17,M,R,
181,55,13,4,1,53,27,865,['n'],0,left,['0'],6,490,[0.01810359],28,53,easy,plus,dotcolour,alfa,119,17,M,R,
182,56,14,4,1,44,36,799,['c'],1,left,['0'],6,79,[0.04543522],100,44,hard,plus,dotcolour,alfa,119,17,M,R,
183,57,15,4,1,27,53,915,['n'],1,right,['0'],6,112,[-0.10238774],100,53,easy,plus,dotcolour,alfa,119,17,M,R,
184,58,16,4,1,44,36,632,['c'],1,left,['0'],6,84,[0.118546],100,44,hard,plus,dotcolour,alfa,119,17,M,R,
185,59,17,4,1,44,36,600,['c'],1,left,['0'],6,98,[0.04272163],99,44,hard,plus,dotcolour,alfa,119,17,M,R,
186,60,18,4,1,47,33,664,['n'],0,left,['0'],6,245,[-0.13270591],100,47,medium,plus,dotcolour,alfa,119,17,M,R,
187,61,19,4,1,47,33,648,['c'],1,left,['0'],6,42,[0.09378061],100,47,medium,plus,dotcolour,alfa,119,17,M,R,
188,62,20,4,1,33,47,1115,['n'],1,right,['8'],4,382,[-0.08182758],99,47,medium,plus,dotcolour,alfa,119,17,M,R,
189,63,21,4,1,36,44,1216,['n'],1,right,['0'],6,142,[-0.11482201],100,44,hard,plus,dotcolour,alfa,119,17,M,R,
190,64,22,4,1,27,53,1098,['c'],0,right,['8'],4,134,[0.04191152],98,53,easy,plus,dotcolour,alfa,119,17,M,R,
191,65,23,4,1,27,53,914,['n'],1,right,['0'],6,157,[-0.12273197],100,53,easy,plus,dotcolour,alfa,119,17,M,R,
192,66,24,4,1,33,47,1082,['n'],1,right,['0'],6,284,[-0.00614604],60,47,medium,plus,dotcolour,alfa,119,17,M,R,
193,67,25,4,1,44,36,1565,['c'],1,left,['9'],5,355,[0.09203273],100,44,hard,plus,dotcolour,alfa,119,17,M,R,
194,68,26,4,1,36,44,665,['n'],1,right,['0'],6,91,[-0.10017721],100,44,hard,plus,dotcolour,alfa,119,17,M,R,
195,69,27,4,1,36,44,1232,['c'],0,right,['8'],4,168,[0.0862836],100,44,hard,plus,dotcolour,alfa,119,17,M,R,
196,70,28,4,1,47,33,981,['c'],1,left,['8'],4,75,[0.07887874],100,47,medium,plus,dotcolour,alfa,119,17,M,R,
197,71,29,4,1,27,53,1032,['n'],1,right,['8'],4,104,[-0.04955126],100,53,easy,plus,dotcolour,alfa,119,17,M,R,
198,72,30,4,1,47,33,630,['c'],1,left,['9'],5,124,[0.02108632],90,47,medium,plus,dotcolour,alfa,119,17,M,R,
199,73,31,4,1,53,27,714,['c'],1,left,['0'],6,179,[0.0980818],100,53,easy,plus,dotcolour,alfa,119,17,M,R,
200,74,32,4,1,27,53,732,['c'],0,right,['8'],4,112,[0.04672051],99,53,easy,plus,dotcolour,alfa,119,17,M,R,
201,75,33,4,1,47,33,800,['c'],1,left,['9'],5,141,[0.15807403],100,47,medium,plus,dotcolour,alfa,119,17,M,R,
202,76,34,4,1,44,36,633,['c'],1,left,['9'],5,118,[0.12185543],100,44,hard,plus,dotcolour,alfa,119,17,M,R,
203,77,35,4,1,44,36,866,['c'],1,left,['8'],4,137,[0.07590043],100,44,hard,plus,dotcolour,alfa,119,17,M,R,
204,78,36,4,1,33,47,799,['c'],0,right,['3'],3,708,[-0.0200961],30,47,medium,plus,dotcolour,alfa,119,17,M,R,
205,79,37,4,1,33,47,1165,['n'],1,right,['9'],5,89,[-0.1149306],100,47,medium,plus,dotcolour,alfa,119,17,M,R,
206,80,38,4,1,47,33,798,['c'],1,left,['9'],5,480,[0.06190911],96,47,medium,plus,dotcolour,alfa,119,17,M,R,
207,81,39,4,1,53,27,564,['c'],1,left,['8'],4,95,[0.08470044],100,53,easy,plus,dotcolour,alfa,119,17,M,R,
208,82,40,4,1,53,27,698,['c'],1,left,['9'],5,137,[0.01302882],78,53,easy,plus,dotcolour,alfa,119,17,M,R,
209,83,41,4,1,27,53,932,['n'],1,right,['9'],5,134,[-0.12174091],100,53,easy,plus,dotcolour,alfa,119,17,M,R,
210,84,0,5,1,33,47,666,['c'],0,right,['9'],5,225,[0.00706421],63,47,medium,plus,dotcolour,alfa,119,17,M,R,
211,85,1,5,1,53,27,667,['c'],1,left,['8'],4,134,[0.08412086],100,53,easy,plus,dotcolour,alfa,119,17,M,R,
212,86,2,5,1,44,36,382,['c'],1,left,['9'],5,75,[0.08501357],100,44,hard,plus,dotcolour,alfa,119,17,M,R,
213,87,3,5,1,53,27,366,['c'],1,left,['9'],5,75,[0.06942495],100,53,easy,plus,dotcolour,alfa,119,17,M,R,
214,88,4,5,1,47,33,916,['n'],0,left,['9'],5,84,[-0.0530518],100,47,medium,plus,dotcolour,alfa,119,17,M,R,
215,89,5,5,1,47,33,433,['c'],1,left,['9'],5,80,[0.06370718],100,47,medium,plus,dotcolour,alfa,119,17,M,R,
216,90,6,5,1,47,33,398,['c'],1,left,['9'],5,62,[0.07379055],100,47,medium,plus,dotcolour,alfa,119,17,M,R,
217,91,7,5,1,27,53,733,['n'],1,right,['9'],5,63,[-0.06780472],100,53,easy,plus,dotcolour,alfa,119,17,M,R,
218,92,8,5,1,44,36,415,['c'],1,left,['9'],5,46,[0.10910893],100,44,hard,plus,dotcolour,alfa,119,17,M,R,
219,93,9,5,1,44,36,748,['c'],1,left,['8'],4,103,[0.03538933],98,44,hard,plus,dotcolour,alfa,119,17,M,R,
220,94,10,5,1,44,36,697,['c'],1,left,['9'],5,88,[0.08336783],100,44,hard,plus,dotcolour,alfa,119,17,M,R,
221,95,11,5,1,47,33,564,['c'],1,left,['9'],5,48,[0.02443969],98,47,medium,plus,dotcolour,alfa,119,17,M,R,
222,96,12,5,1,36,44,1064,['c'],0,right,['3'],3,1109,[0.22534875],100,44,hard,plus,dotcolour,alfa,119,17,M,R,
223,97,13,5,1,44,36,666,['c'],1,left,['9'],5,79,[0.08160858],100,44,hard,plus,dotcolour,alfa,119,17,M,R,
224,98,14,5,1,27,53,815,['n'],1,right,['9'],5,84,[-0.10865507],100,53,easy,plus,dotcolour,alfa,119,17,M,R,
225,99,15,5,1,27,53,984,['n'],1,right,['9'],5,162,[-0.07378],100,53,easy,plus,dotcolour,alfa,119,17,M,R,
226,100,16,5,1,36,44,1116,['c'],0,right,['8'],4,89,[0.06812196],100,44,hard,plus,dotcolour,alfa,119,17,M,R,
227,101,17,5,1,27,53,1067,['n'],1,right,['9'],5,67,[-0.12428763],100,53,easy,plus,dotcolour,alfa,119,17,M,R,
228,102,18,5,1,53,27,683,['c'],1,left,['9'],5,174,[0.11870098],100,53,easy,plus,dotcolour,alfa,119,17,M,R,
229,103,19,5,1,33,47,766,['c'],0,right,['9'],5,106,[0.08088517],100,47,medium,plus,dotcolour,alfa,119,17,M,R,
230,104,20,5,1,53,27,581,['c'],1,left,['9'],5,72,[0.0865935],100,53,easy,plus,dotcolour,alfa,119,17,M,R,
231,105,21,5,1,44,36,582,['c'],1,left,['9'],5,102,[0.07915241],100,44,hard,plus,dotcolour,alfa,119,17,M,R,
232,106,22,5,1,33,47,1166,['c'],0,right,['8'],4,69,[0.04873052],100,47,medium,plus,dotcolour,alfa,119,17,M,R,
233,107,23,5,1,36,44,683,['c'],0,right,['8'],4,104,[0.06601964],100,44,hard,plus,dotcolour,alfa,119,17,M,R,
234,108,24,5,1,36,44,1648,['n'],1,right,['9'],5,108,[-0.06612845],100,44,hard,plus,dotcolour,alfa,119,17,M,R,
235,109,25,5,1,47,33,515,['c'],1,left,['9'],5,116,[0.01998007],89,47,medium,plus,dotcolour,alfa,119,17,M,R,
236,110,26,5,1,33,47,448,['n'],1,right,['9'],5,110,[-0.0966029],100,47,medium,plus,dotcolour,alfa,119,17,M,R,
237,111,27,5,1,53,27,464,['c'],1,left,['9'],5,136,[0.07947407],100,53,easy,plus,dotcolour,alfa,119,17,M,R,
238,112,28,5,1,53,27,414,['n'],0,left,['2'],2,852,[0.13487183],1,53,easy,plus,dotcolour,alfa,119,17,M,R,
239,113,29,5,1,47,33,599,['c'],1,left,['9'],5,106,[0.03321075],98,47,medium,plus,dotcolour,alfa,119,17,M,R,
240,114,30,5,1,53,27,615,['c'],1,left,['9'],5,103,[0.07585259],100,53,easy,plus,dotcolour,alfa,119,17,M,R,
241,115,31,5,1,27,53,763,['n'],1,right,['9'],5,85,[-0.04842675],100,53,easy,plus,dotcolour,alfa,119,17,M,R,
242,116,32,5,1,36,44,731,['c'],0,right,['9'],5,78,[0.09290609],100,44,hard,plus,dotcolour,alfa,119,17,M,R,
243,117,33,5,1,33,47,763,['n'],1,right,['9'],5,246,[-0.12952639],100,47,medium,plus,dotcolour,alfa,119,17,M,R,
244,118,34,5,1,33,47,747,['c'],0,right,['0'],6,87,[0.1001965],100,47,medium,plus,dotcolour,alfa,119,17,M,R,
245,119,35,5,1,33,47,1132,['n'],1,right,['0'],6,128,[-0.03359332],97,47,medium,plus,dotcolour,alfa,119,17,M,R,
246,120,36,5,1,36,44,684,['c'],0,right,['9'],5,128,[0.08698248],100,44,hard,plus,dotcolour,alfa,119,17,M,R,
247,121,37,5,1,27,53,732,['c'],0,right,['9'],5,95,[0.1024999],100,53,easy,plus,dotcolour,alfa,119,17,M,R,
248,122,38,5,1,27,53,766,['n'],1,right,['0'],6,102,[-0.09178906],100,53,easy,plus,dotcolour,alfa,119,17,M,R,
249,123,39,5,1,36,44,717,['c'],0,right,['9'],5,351,[0.03878885],91,44,hard,plus,dotcolour,alfa,119,17,M,R,
250,124,40,5,1,44,36,982,['c'],1,left,['0'],6,98,[0.10559169],100,44,hard,plus,dotcolour,alfa,119,17,M,R,
251,125,41,5,1,47,33,499,['c'],1,left,['0'],6,123,[0.1461178],100,47,medium,plus,dotcolour,alfa,119,17,M,R,
252,0,0,6,2,44,36,1116,['n'],0,left,['0'],6,103,[-0.10240893],95,44,hard,minus,dotcolour,alfa,119,17,M,R,
253,1,1,6,2,44,36,699,['c'],1,left,['9'],5,81,[0.08689384],94,44,hard,minus,dotcolour,alfa,119,17,M,R,
254,2,2,6,2,27,53,765,['n'],1,right,['9'],5,48,[-0.05321782],90,53,easy,minus,dotcolour,alfa,119,17,M,R,
255,3,3,6,2,27,53,583,['n'],1,right,['9'],5,104,[-0.05218191],81,53,easy,minus,dotcolour,alfa,119,17,M,R,
256,4,4,6,2,27,53,566,['n'],1,right,['0'],6,126,[-0.07632084],87,53,easy,minus,dotcolour,alfa,119,17,M,R,
257,5,5,6,2,53,27,532,['c'],1,left,['9'],5,93,[0.08631351],93,53,easy,minus,dotcolour,alfa,119,17,M,R,
258,6,6,6,2,53,27,482,['c'],1,left,['9'],5,55,[0.11946604],99,53,easy,minus,dotcolour,alfa,119,17,M,R,
259,7,7,6,2,33,47,582,['n'],1,right,['9'],5,111,[-0.11806186],96,47,medium,minus,dotcolour,alfa,119,17,M,R,
260,8,8,6,2,53,27,517,['c'],1,left,['0'],6,142,[0.10066697],92,53,easy,minus,dotcolour,alfa,119,17,M,R,
261,9,9,6,2,47,33,597,['c'],1,left,['0'],6,41,[0.05053244],90,47,medium,minus,dotcolour,alfa,119,17,M,R,
262,10,10,6,2,47,33,499,['c'],1,left,['0'],6,21,[0.09662208],100,47,medium,minus,dotcolour,alfa,119,17,M,R,
263,11,11,6,2,27,53,699,['n'],1,right,['9'],5,113,[-0.10530971],94,53,easy,minus,dotcolour,alfa,119,17,M,R,
264,12,12,6,2,36,44,516,['c'],0,right,['0'],6,74,[0.05257535],85,44,hard,minus,dotcolour,alfa,119,17,M,R,
265,13,13,6,2,36,44,615,['c'],0,right,['9'],5,63,[0.06493987],91,44,hard,minus,dotcolour,alfa,119,17,M,R,
266,14,14,6,2,33,47,866,['n'],1,right,['9'],5,83,[-0.06972293],90,47,medium,minus,dotcolour,alfa,119,17,M,R,
267,15,15,6,2,53,27,715,['c'],1,left,['9'],5,940,[0.10661837],73,53,easy,minus,dotcolour,alfa,119,17,M,R,
268,16,16,6,2,33,47,749,['n'],1,right,['0'],6,1001,[-0.26683653],92,47,medium,minus,dotcolour,alfa,119,17,M,R,
269,17,17,6,2,47,33,599,['c'],1,left,['0'],6,130,[0.13999263],97,47,medium,minus,dotcolour,alfa,119,17,M,R,
270,18,18,6,2,47,33,666,['c'],1,left,['8'],4,244,[0.06738036],77,47,medium,minus,dotcolour,alfa,119,17,M,R,
271,19,19,6,2,36,44,864,['n'],1,right,['0'],6,48,[-0.04232923],85,44,hard,minus,dotcolour,alfa,119,17,M,R,
272,20,20,6,2,33,47,700,['c'],0,right,['9'],5,92,[0.08104675],92,47,medium,minus,dotcolour,alfa,119,17,M,R,
273,21,21,6,2,27,53,799,['n'],1,right,['0'],6,65,[-0.08052723],94,53,easy,minus,dotcolour,alfa,119,17,M,R,
274,22,22,6,2,44,36,716,['n'],0,left,['0'],6,91,[-0.03639829],75,44,hard,minus,dotcolour,alfa,119,17,M,R,
275,23,23,6,2,47,33,648,['n'],0,left,['0'],6,111,[-0.07896732],89,47,medium,minus,dotcolour,alfa,119,17,M,R,
276,24,24,6,2,44,36,548,['c'],1,left,['0'],6,101,[0.04757261],79,44,hard,minus,dotcolour,alfa,119,17,M,R,
277,25,25,6,2,44,36,598,['c'],1,left,['0'],6,50,[0.02386195],72,44,hard,minus,dotcolour,alfa,119,17,M,R,
278,26,26,6,2,36,44,548,['n'],1,right,['0'],6,84,[-0.11179229],97,44,hard,minus,dotcolour,alfa,119,17,M,R,
279,27,27,6,2,44,36,515,['c'],1,left,['0'],6,53,[0.15731648],100,44,hard,minus,dotcolour,alfa,119,17,M,R,
280,28,28,6,2,47,33,497,['c'],1,left,['0'],6,33,[0.07475236],98,47,medium,minus,dotcolour,alfa,119,17,M,R,
281,29,29,6,2,27,53,450,['c'],0,right,['0'],6,55,[0.02031663],69,53,easy,minus,dotcolour,alfa,119,17,M,R,
282,30,30,6,2,36,44,698,['n'],1,right,['9'],5,50,[-0.05652211],91,44,hard,minus,dotcolour,alfa,119,17,M,R,
283,31,31,6,2,53,27,916,['c'],1,left,['9'],5,165,[0.13631387],95,53,easy,minus,dotcolour,alfa,119,17,M,R,
284,32,32,6,2,44,36,1064,['n'],0,left,['0'],6,37,[-0.05576208],93,44,hard,minus,dotcolour,alfa,119,17,M,R,
285,33,33,6,2,53,27,500,['c'],1,left,['0'],6,33,[0.04933969],92,53,easy,minus,dotcolour,alfa,119,17,M,R,
286,34,34,6,2,47,33,564,['c'],1,left,['0'],6,26,[0.07917172],99,47,medium,minus,dotcolour,alfa,119,17,M,R,
287,35,35,6,2,33,47,782,['n'],1,right,['0'],6,59,[-0.07744147],95,47,medium,minus,dotcolour,alfa,119,17,M,R,
288,36,36,6,2,33,47,598,['c'],0,right,['0'],6,18,[0.09485031],100,47,medium,minus,dotcolour,alfa,119,17,M,R,
289,37,37,6,2,27,53,1333,['n'],1,right,['9'],5,85,[-0.09434207],95,53,easy,minus,dotcolour,alfa,119,17,M,R,
290,38,38,6,2,36,44,734,['c'],0,right,['0'],6,78,[0.09307146],95,44,hard,minus,dotcolour,alfa,119,17,M,R,
291,39,39,6,2,36,44,767,['n'],1,right,['8'],4,357,[-0.00185104],51,44,hard,minus,dotcolour,alfa,119,17,M,R,
292,40,40,6,2,33,47,1283,['n'],1,right,['8'],4,141,[-0.097036],91,47,medium,minus,dotcolour,alfa,119,17,M,R,
293,41,41,6,2,53,27,599,['c'],1,left,['0'],6,40,[0.11577913],99,53,easy,minus,dotcolour,alfa,119,17,M,R,
294,42,0,7,2,33,47,684,['c'],0,right,['9'],5,60,[0.06376427],91,47,medium,minus,dotcolour,alfa,119,17,M,R,
295,43,1,7,2,44,36,699,['c'],1,left,['0'],6,55,[0.11886393],99,44,hard,minus,dotcolour,alfa,119,17,M,R,
296,44,2,7,2,53,27,417,['c'],1,left,['0'],6,22,[0.08339569],99,53,easy,minus,dotcolour,alfa,119,17,M,R,
297,45,3,7,2,47,33,397,['c'],1,left,['0'],6,22,[0.08775403],100,47,medium,minus,dotcolour,alfa,119,17,M,R,
298,46,4,7,2,27,53,699,['n'],1,right,['9'],5,35,[-0.08477611],98,53,easy,minus,dotcolour,alfa,119,17,M,R,
299,47,5,7,2,36,44,1100,['c'],0,right,['0'],6,23,[0.07273229],99,44,hard,minus,dotcolour,alfa,119,17,M,R,
300,48,6,7,2,47,33,482,['c'],1,left,['0'],6,20,[0.07616646],99,47,medium,minus,dotcolour,alfa,119,17,M,R,
301,49,7,7,2,53,27,464,['c'],1,left,['0'],6,26,[0.06303518],97,53,easy,minus,dotcolour,alfa,119,17,M,R,
302,50,8,7,2,36,44,918,['n'],1,right,['9'],5,69,[-0.10015433],97,44,hard,minus,dotcolour,alfa,119,17,M,R,
303,51,9,7,2,27,53,582,['c'],0,right,['9'],5,508,[-0.11016693],20,53,easy,minus,dotcolour,alfa,119,17,M,R,
304,52,10,7,2,44,36,783,['c'],1,left,['0'],6,674,[0.12800184],80,44,hard,minus,dotcolour,alfa,119,17,M,R,
305,53,11,7,2,44,36,565,['c'],1,left,['0'],6,529,[0.15147947],87,44,hard,minus,dotcolour,alfa,119,17,M,R,
306,54,12,7,2,47,33,564,['c'],1,left,['0'],6,39,[0.0910884],98,47,medium,minus,dotcolour,alfa,119,17,M,R,
307,55,13,7,2,36,44,731,['n'],1,right,['9'],5,81,[-0.12280421],98,44,hard,minus,dotcolour,alfa,119,17,M,R,
308,56,14,7,2,53,27,648,['n'],0,left,['9'],5,77,[-0.02383976],68,53,easy,minus,dotcolour,alfa,119,17,M,R,
309,57,15,7,2,27,53,583,['n'],1,right,['9'],5,100,[-0.11448517],96,53,easy,minus,dotcolour,alfa,119,17,M,R,
310,58,16,7,2,33,47,750,['n'],1,right,['9'],5,76,[-0.06648504],90,47,medium,minus,dotcolour,alfa,119,17,M,R,
311,59,17,7,2,27,53,1116,['n'],1,right,['9'],5,45,[-0.07829144],97,53,easy,minus,dotcolour,alfa,119,17,M,R,
312,60,18,7,2,44,36,847,['c'],1,left,['0'],6,74,[0.08672299],95,44,hard,minus,dotcolour,alfa,119,17,M,R,
313,61,19,7,2,44,36,516,['c'],1,left,['0'],6,403,[0.03967844],64,44,hard,minus,dotcolour,alfa,119,17,M,R,
314,62,20,7,2,33,47,881,['n'],1,right,['9'],5,73,[-0.04671828],83,47,medium,minus,dotcolour,alfa,119,17,M,R,
315,63,21,7,2,47,33,547,['n'],0,left,['9'],5,41,[-0.09427286],99,47,medium,minus,dotcolour,alfa,119,17,M,R,
316,64,22,7,2,44,36,631,['c'],1,left,['0'],6,135,[0.00379291],52,44,hard,minus,dotcolour,alfa,119,17,M,R,
317,65,23,7,2,36,44,749,['n'],1,right,['9'],5,52,[-0.03575033],80,44,hard,minus,dotcolour,alfa,119,17,M,R,
318,66,24,7,2,33,47,1633,['c'],0,right,['9'],5,18,[0.06086451],98,47,medium,minus,dotcolour,alfa,119,17,M,R,
319,67,25,7,2,36,44,683,['n'],1,right,['9'],5,128,[-0.09845869],92,44,hard,minus,dotcolour,alfa,119,17,M,R,
320,68,26,7,2,53,27,1298,['c'],1,left,['0'],6,56,[0.0930734],97,53,easy,minus,dotcolour,alfa,119,17,M,R,
321,69,27,7,2,36,44,748,['n'],1,right,['9'],5,89,[-0.08848786],94,44,hard,minus,dotcolour,alfa,119,17,M,R,
322,70,28,7,2,33,47,798,['n'],1,right,['9'],5,87,[-0.09121835],94,47,medium,minus,dotcolour,alfa,119,17,M,R,
323,71,29,7,2,53,27,917,['n'],0,left,['9'],5,112,[-0.03411725],71,53,easy,minus,dotcolour,alfa,119,17,M,R,
324,72,30,7,2,53,27,532,['c'],1,left,['0'],6,39,[0.0618405],94,53,easy,minus,dotcolour,alfa,119,17,M,R,
325,73,31,7,2,27,53,399,['c'],0,right,['9'],5,447,[-0.01349177],45,53,easy,minus,dotcolour,alfa,119,17,M,R,
326,74,32,7,2,47,33,326,['n'],0,left,['8'],4,144,[-0.08046919],87,47,medium,minus,dotcolour,alfa,119,17,M,R,
327,75,33,7,2,47,33,76,['n'],0,left,['9'],5,1235,[0.12293918],27,47,medium,minus,dotcolour,alfa,119,17,M,R,
328,76,34,7,2,33,47,848,['c'],0,right,['0'],6,56,[0.05532769],89,47,medium,minus,dotcolour,alfa,119,17,M,R,
329,77,35,7,2,33,47,998,['n'],1,right,['8'],4,144,[-0.0919642],90,47,medium,minus,dotcolour,alfa,119,17,M,R,
330,78,36,7,2,53,27,614,['n'],0,left,['9'],5,66,[-0.07282849],93,53,easy,minus,dotcolour,alfa,119,17,M,R,
331,79,37,7,2,44,36,499,['n'],0,left,['0'],6,917,[0.1092813],26,44,hard,minus,dotcolour,alfa,119,17,M,R,
332,80,38,7,2,27,53,299,['c'],0,right,['9'],5,149,[0.07563385],85,53,easy,minus,dotcolour,alfa,119,17,M,R,
333,81,39,7,2,47,33,680,['c'],1,left,['0'],6,77,[0.03155917],74,47,medium,minus,dotcolour,alfa,119,17,M,R,
334,82,40,7,2,27,53,532,['n'],1,right,['0'],6,110,[-0.06874263],87,53,easy,minus,dotcolour,alfa,119,17,M,R,
335,83,41,7,2,36,44,734,['c'],0,right,['9'],5,589,[-0.01504193],46,44,hard,minus,dotcolour,alfa,119,17,M,R,
336,84,0,8,2,44,36,999,['c'],1,left,['0'],6,475,[0.07984022],74,44,hard,minus,dotcolour,alfa,119,17,M,R,
337,85,1,8,2,27,53,665,['n'],1,right,['0'],6,54,[-0.09917013],98,53,easy,minus,dotcolour,alfa,119,17,M,R,
338,86,2,8,2,36,44,583,['c'],0,right,['9'],5,102,[0.03082019],70,44,hard,minus,dotcolour,alfa,119,17,M,R,
339,87,3,8,2,33,47,632,['n'],1,right,['9'],5,130,[-0.15056282],98,47,medium,minus,dotcolour,alfa,119,17,M,R,
340,88,4,8,2,36,44,1000,['c'],0,right,['0'],6,30,[0.06222382],96,44,hard,minus,dotcolour,alfa,119,17,M,R,
341,89,5,8,2,27,53,831,['n'],1,right,['9'],5,173,[-0.15793122],97,53,easy,minus,dotcolour,alfa,119,17,M,R,
342,90,6,8,2,33,47,733,['c'],0,right,['0'],6,90,[0.15818005],99,47,medium,minus,dotcolour,alfa,119,17,M,R,
343,91,7,8,2,44,36,1132,['n'],0,left,['0'],6,154,[-0.06947489],83,44,hard,minus,dotcolour,alfa,119,17,M,R,
344,92,8,8,2,33,47,665,['c'],0,right,['9'],5,106,[0.0725129],88,47,medium,minus,dotcolour,alfa,119,17,M,R,
345,93,9,8,2,53,27,632,['c'],1,left,['0'],6,134,[0.09554209],91,53,easy,minus,dotcolour,alfa,119,17,M,R,
346,94,10,8,2,53,27,664,['c'],1,left,['0'],6,391,[0.13838263],88,53,easy,minus,dotcolour,alfa,119,17,M,R,
347,95,11,8,2,36,44,899,['n'],1,right,['0'],6,221,[-0.11422202],90,44,hard,minus,dotcolour,alfa,119,17,M,R,
348,96,12,8,2,33,47,731,['c'],0,right,['9'],5,88,[0.03359532],73,47,medium,minus,dotcolour,alfa,119,17,M,R,
349,97,13,8,2,47,33,931,['n'],0,left,['0'],6,105,[0.00938278],44,47,medium,minus,dotcolour,alfa,119,17,M,R,
350,98,14,8,2,33,47,1315,['c'],0,right,['9'],5,25,[0.05056013],95,47,medium,minus,dotcolour,alfa,119,17,M,R,
351,99,15,8,2,53,27,698,['c'],1,left,['0'],6,93,[0.09223977],94,53,easy,minus,dotcolour,alfa,119,17,M,R,
352,100,16,8,2,33,47,567,['n'],1,right,['0'],6,149,[-0.0923607],90,47,medium,minus,dotcolour,alfa,119,17,M,R,
353,101,17,8,2,27,53,666,['c'],0,right,['9'],5,77,[0.0218929],67,53,easy,minus,dotcolour,alfa,119,17,M,R,
354,102,18,8,2,36,44,782,['c'],0,right,['0'],6,12,[0.08590064],100,44,hard,minus,dotcolour,alfa,119,17,M,R,
355,103,19,8,2,44,36,781,['c'],1,left,['0'],6,45,[0.06650847],94,44,hard,minus,dotcolour,alfa,119,17,M,R,
356,104,20,8,2,53,27,649,['n'],0,left,['0'],6,138,[-0.09764045],91,53,easy,minus,dotcolour,alfa,119,17,M,R,
357,105,21,8,2,53,27,700,['c'],1,left,['9'],5,67,[0.09222842],96,53,easy,minus,dotcolour,alfa,119,17,M,R,
358,106,22,8,2,33,47,549,['n'],1,right,['0'],6,243,[-0.14512383],93,47,medium,minus,dotcolour,alfa,119,17,M,R,
359,107,23,8,2,27,53,564,['c'],0,right,['9'],5,83,[0.04770519],82,53,easy,minus,dotcolour,alfa,119,17,M,R,
360,108,24,8,2,47,33,998,['c'],1,left,['9'],5,146,[0.0515569],77,47,medium,minus,dotcolour,alfa,119,17,M,R,
361,109,25,8,2,47,33,1583,['n'],0,left,['0'],6,38,[-0.07238668],97,47,medium,minus,dotcolour,alfa,119,17,M,R,
362,110,26,8,2,53,27,566,['c'],1,left,['0'],6,79,[0.08976937],95,53,easy,minus,dotcolour,alfa,119,17,M,R,
363,111,27,8,2,27,53,767,['n'],1,right,['0'],6,327,[-0.25582117],98,53,easy,minus,dotcolour,alfa,119,17,M,R,
364,112,28,8,2,47,33,601,['c'],1,left,['0'],6,90,[0.11709584],97,47,medium,minus,dotcolour,alfa,119,17,M,R,
365,113,29,8,2,44,36,683,['c'],1,left,['0'],6,85,[0.08923915],94,44,hard,minus,dotcolour,alfa,119,17,M,R,
366,114,30,8,2,36,44,683,['n'],1,right,['0'],6,704,[-0.17400308],87,44,hard,minus,dotcolour,alfa,119,17,M,R,
367,115,31,8,2,27,53,764,['c'],0,right,['9'],5,86,[0.05519172],84,53,easy,minus,dotcolour,alfa,119,17,M,R,
368,116,32,8,2,36,44,732,['c'],0,right,['0'],6,806,[-0.07034514],33,44,hard,minus,dotcolour,alfa,119,17,M,R,
369,117,33,8,2,44,36,582,['c'],1,left,['0'],6,39,[0.06710348],96,44,hard,minus,dotcolour,alfa,119,17,M,R,
370,118,34,8,2,47,33,332,['c'],1,left,['9'],5,73,[0.06385267],89,47,medium,minus,dotcolour,alfa,119,17,M,R,
371,119,35,8,2,27,53,932,['n'],1,right,['9'],5,58,[-0.07171887],94,53,easy,minus,dotcolour,alfa,119,17,M,R,
372,120,36,8,2,53,27,316,['n'],0,left,['0'],6,77,[-0.11951256],98,53,easy,minus,dotcolour,alfa,119,17,M,R,
373,121,37,8,2,36,44,633,['c'],0,right,['9'],5,17,[0.0723902],99,44,hard,minus,dotcolour,alfa,119,17,M,R,
374,122,38,8,2,44,36,266,['c'],1,left,['9'],5,63,[0.07514846],94,44,hard,minus,dotcolour,alfa,119,17,M,R,
375,123,39,8,2,44,36,399,['c'],1,left,['9'],5,453,[0.01028514],53,44,hard,minus,dotcolour,alfa,119,17,M,R,
376,124,40,8,2,47,33,415,['c'],1,left,['9'],5,52,[0.10765801],99,47,medium,minus,dotcolour,alfa,119,17,M,R,
377,125,41,8,2,47,33,615,['n'],0,left,['9'],5,99,[-0.01308718],59,47,medium,minus,dotcolour,alfa,119,17,M,R,
378,0,0,9,3,36,44,649,['c'],0,right,['0'],6,88,[0.10991897],100,44,hard,plus,dotcolour,alfa,119,17,M,R,
379,1,1,9,3,36,44,316,['c'],0,right,['9'],5,185,[0.116721],100,44,hard,plus,dotcolour,alfa,119,17,M,R,
380,2,2,9,3,27,53,122,['c'],0,right,['9'],5,19,[0.08289283],100,53,easy,plus,dotcolour,alfa,119,17,M,R,
381,3,3,9,3,53,27,59,['n'],0,left,['9'],5,700,[-0.04357826],87,53,easy,plus,dotcolour,alfa,119,17,M,R,
382,4,4,9,3,53,27,248,['n'],0,left,['9'],5,86,[-0.08366073],100,53,easy,plus,dotcolour,alfa,119,17,M,R,
383,5,5,9,3,47,33,281,['c'],1,left,['2'],2,65,[0.08311853],100,47,medium,plus,dotcolour,alfa,119,17,M,R,
384,6,6,9,3,47,33,366,['n'],0,left,['9'],5,57,[-0.04491156],100,47,medium,plus,dotcolour,alfa,119,17,M,R,
385,7,7,9,3,53,27,281,['n'],0,left,['0'],6,53,[-0.05783796],100,53,easy,plus,dotcolour,alfa,119,17,M,R,
386,8,8,9,3,44,36,265,['n'],0,left,['8'],4,81,[-0.0730048],100,44,hard,plus,dotcolour,alfa,119,17,M,R,
387,9,9,9,3,33,47,197,['c'],0,right,['3'],3,39,[0.08511733],100,47,medium,plus,dotcolour,alfa,119,17,M,R,
388,10,10,9,3,44,36,17,['n'],0,left,['9'],5,1391,[-0.2352287],100,44,hard,plus,dotcolour,alfa,119,17,M,R,
389,11,11,9,3,27,53,265,['n'],1,right,['0'],6,733,[-0.2399034],100,53,easy,plus,dotcolour,alfa,119,17,M,R,
390,12,12,9,3,33,47,266,['n'],1,right,['0'],6,55,[-0.09690498],100,47,medium,plus,dotcolour,alfa,119,17,M,R,
391,13,13,9,3,53,27,231,['c'],1,left,['2'],2,77,[0.0922128],100,53,easy,plus,dotcolour,alfa,119,17,M,R,
392,14,14,9,3,27,53,66,['c'],0,right,['3'],3,11,[0.05557085],100,53,easy,plus,dotcolour,alfa,119,17,M,R,
393,15,15,9,3,33,47,99,['c'],0,right,['3'],3,36,[0.0680145],100,47,medium,plus,dotcolour,alfa,119,17,M,R,
394,16,16,9,3,36,44,715,['n'],1,right,['9'],5,127,[-0.04267656],99,44,hard,plus,dotcolour,alfa,119,17,M,R,
395,17,17,9,3,53,27,249,['n'],0,left,['8'],4,313,[-0.01892839],77,53,easy,plus,dotcolour,alfa,119,17,M,R,
396,18,18,9,3,27,53,190,['n'],1,right,['8'],4,37,[-0.09565707],100,53,easy,plus,dotcolour,alfa,119,17,M,R,
397,19,19,9,3,47,33,232,['n'],0,left,['9'],5,44,[-0.08151443],100,47,medium,plus,dotcolour,alfa,119,17,M,R,
398,20,20,9,3,53,27,282,['c'],1,left,['0'],6,656,[0.15021083],100,53,easy,plus,dotcolour,alfa,119,17,M,R,
399,21,21,9,3,33,47,548,['n'],1,right,['9'],5,129,[-0.04393987],99,47,medium,plus,dotcolour,alfa,119,17,M,R,
400,22,22,9,3,44,36,315,['c'],1,left,['0'],6,752,[0.12275361],99,44,hard,plus,dotcolour,alfa,119,17,M,R,
401,23,23,9,3,36,44,249,['n'],1,right,['8'],4,90,[-0.10846253],100,44,hard,plus,dotcolour,alfa,119,17,M,R,
402,24,24,9,3,27,53,332,['n'],1,right,['9'],5,113,[-0.08869936],100,53,easy,plus,dotcolour,alfa,119,17,M,R,
403,25,25,9,3,44,36,247,['c'],1,left,['9'],5,84,[0.13162525],100,44,hard,plus,dotcolour,alfa,119,17,M,R,
404,26,26,9,3,47,33,231,['c'],1,left,['9'],5,9,[0.06757503],100,47,medium,plus,dotcolour,alfa,119,17,M,R,
405,27,27,9,3,27,53,280,['c'],0,right,['9'],5,14,[0.06543015],100,53,easy,plus,dotcolour,alfa,119,17,M,R,
406,28,28,9,3,44,36,190,['n'],0,left,['9'],5,95,[-0.09173523],100,44,hard,plus,dotcolour,alfa,119,17,M,R,
407,29,29,9,3,44,36,149,['c'],1,left,['9'],5,20,[0.08082258],100,44,hard,plus,dotcolour,alfa,119,17,M,R,
408,30,30,9,3,33,47,107,['c'],0,right,['0'],6,20,[0.0659034],100,47,medium,plus,dotcolour,alfa,119,17,M,R,
409,31,31,9,3,44,36,125,['c'],1,left,['9'],5,12,[0.07246624],100,44,hard,plus,dotcolour,alfa,119,17,M,R,
410,32,32,9,3,33,47,36,['c'],0,right,['8'],4,653,[0.04745596],89,47,medium,plus,dotcolour,alfa,119,17,M,R,
411,33,33,9,3,33,47,18,['c'],0,right,['9'],5,2460,[-0.46783851],0,47,medium,plus,dotcolour,alfa,119,17,M,R,
412,34,34,9,3,47,33,248,['c'],1,left,['9'],5,80,[0.09312445],100,47,medium,plus,dotcolour,alfa,119,17,M,R,
413,35,35,9,3,36,44,214,['c'],0,right,['0'],6,30,[0.08622149],100,44,hard,plus,dotcolour,alfa,119,17,M,R,
414,36,36,9,3,27,53,215,['n'],1,right,['9'],5,77,[-0.02140715],94,53,easy,plus,dotcolour,alfa,119,17,M,R,
415,37,37,9,3,36,44,349,['c'],0,right,['9'],5,29,[0.07138486],100,44,hard,plus,dotcolour,alfa,119,17,M,R,
416,38,38,9,3,47,33,498,['c'],1,left,['9'],5,25,[0.08339588],100,47,medium,plus,dotcolour,alfa,119,17,M,R,
417,39,39,9,3,47,33,233,['c'],1,left,['0'],6,8,[0.08034516],100,47,medium,plus,dotcolour,alfa,119,17,M,R,
418,40,40,9,3,36,44,265,['n'],1,right,['0'],6,79,[-0.08705354],100,44,hard,plus,dotcolour,alfa,119,17,M,R,
419,41,41,9,3,53,27,298,['n'],0,left,['9'],5,600,[0.04114322],13,53,easy,plus,dotcolour,alfa,119,17,M,R,
420,42,0,10,3,27,53,417,['c'],0,right,['9'],5,45,[0.07391417],100,53,easy,plus,dotcolour,alfa,119,17,M,R,
421,43,1,10,3,27,53,197,['c'],0,right,['9'],5,964,[-0.04066517],18,53,easy,plus,dotcolour,alfa,119,17,M,R,
422,44,2,10,3,53,27,349,['n'],0,left,['3'],3,761,[0.06029096],8,53,easy,plus,dotcolour,alfa,119,17,M,R,
423,45,3,10,3,33,47,332,['c'],0,right,['9'],5,54,[0.08206089],100,47,medium,plus,dotcolour,alfa,119,17,M,R,
424,46,4,10,3,44,36,107,['c'],1,left,['0'],6,21,[0.06916506],100,44,hard,plus,dotcolour,alfa,119,17,M,R,
425,47,5,10,3,33,47,189,['c'],0,right,['0'],6,14,[0.07560424],100,47,medium,plus,dotcolour,alfa,119,17,M,R,
426,48,6,10,3,33,47,87,['n'],1,right,['9'],5,543,[-0.1671256],100,47,medium,plus,dotcolour,alfa,119,17,M,R,
427,49,7,10,3,53,27,193,['n'],0,left,['9'],5,290,[0.02319893],17,53,easy,plus,dotcolour,alfa,119,17,M,R,
428,50,8,10,3,33,47,182,['c'],0,right,['0'],6,687,[0.07606765],96,47,medium,plus,dotcolour,alfa,119,17,M,R,
429,51,9,10,3,53,27,315,['c'],1,left,['3'],3,152,[0.10880622],100,53,easy,plus,dotcolour,alfa,119,17,M,R,
430,52,10,10,3,47,33,194,['c'],1,left,['3'],3,59,[0.08491258],100,47,medium,plus,dotcolour,alfa,119,17,M,R,
431,53,11,10,3,44,36,179,['c'],1,left,['3'],3,66,[0.05018865],100,44,hard,plus,dotcolour,alfa,119,17,M,R,
432,54,12,10,3,27,53,184,['n'],1,right,['2'],2,73,[-0.05506893],100,53,easy,plus,dotcolour,alfa,119,17,M,R,
433,55,13,10,3,36,44,127,['n'],1,right,['2'],2,16,[-0.08245602],100,44,hard,plus,dotcolour,alfa,119,17,M,R,
434,56,14,10,3,27,53,175,['c'],0,right,['3'],3,80,[0.032251],98,53,easy,plus,dotcolour,alfa,119,17,M,R,
435,57,15,10,3,44,36,125,['c'],1,left,['8'],4,22,[0.10687306],100,44,hard,plus,dotcolour,alfa,119,17,M,R,
436,58,16,10,3,36,44,190,['c'],0,right,['3'],3,71,[0.05049883],100,44,hard,plus,dotcolour,alfa,119,17,M,R,
437,59,17,10,3,44,36,249,['n'],0,left,['8'],4,99,[0.00033506],49,44,hard,plus,dotcolour,alfa,119,17,M,R,
438,60,18,10,3,47,33,65,['c'],1,left,['2'],2,561,[0.00516134],56,47,medium,plus,dotcolour,alfa,119,17,M,R,
439,61,19,10,3,44,36,92,['n'],0,left,['9'],5,531,[0.01090711],37,44,hard,plus,dotcolour,alfa,119,17,M,R,
440,62,20,10,3,53,27,398,['n'],0,left,['0'],6,104,[-0.00126594],54,53,easy,plus,dotcolour,alfa,119,17,M,R,
441,63,21,10,3,47,33,281,['c'],1,left,['2'],2,113,[0.04114727],99,47,medium,plus,dotcolour,alfa,119,17,M,R,
442,64,22,10,3,27,53,282,['c'],0,right,['3'],3,58,[0.08036697],100,53,easy,plus,dotcolour,alfa,119,17,M,R,
443,65,23,10,3,36,44,382,['c'],0,right,['3'],3,130,[0.03916336],98,44,hard,plus,dotcolour,alfa,119,17,M,R,
444,66,24,10,3,53,27,250,['c'],1,left,['3'],3,60,[0.0744206],100,53,easy,plus,dotcolour,alfa,119,17,M,R,
445,67,25,10,3,36,44,232,['c'],0,right,['8'],4,98,[0.06125706],100,44,hard,plus,dotcolour,alfa,119,17,M,R,
446,68,26,10,3,33,47,466,['n'],1,right,['9'],5,100,[-0.00540093],65,47,medium,plus,dotcolour,alfa,119,17,M,R,
447,69,27,10,3,36,44,232,['n'],1,right,['9'],5,16,[-0.0683884],100,44,hard,plus,dotcolour,alfa,119,17,M,R,
448,70,28,10,3,44,36,299,['n'],0,left,['9'],5,108,[-0.10075881],100,44,hard,plus,dotcolour,alfa,119,17,M,R,
449,71,29,10,3,47,33,466,['c'],1,left,['9'],5,46,[0.09804651],100,47,medium,plus,dotcolour,alfa,119,17,M,R,
450,72,30,10,3,53,27,126,['c'],1,left,['9'],5,54,[0.0865961],100,53,easy,plus,dotcolour,alfa,119,17,M,R,
451,73,31,10,3,47,33,1613,['c'],1,left,['8'],4,76,[0.07142523],100,47,medium,plus,dotcolour,alfa,119,17,M,R,
452,74,32,10,3,33,47,233,['n'],1,right,['3'],3,8,[-0.06678699],100,47,medium,plus,dotcolour,alfa,119,17,M,R,
453,75,33,10,3,27,53,466,['n'],1,right,['9'],5,79,[-0.04192023],100,53,easy,plus,dotcolour,alfa,119,17,M,R,
454,76,34,10,3,33,47,181,['n'],1,right,['9'],5,76,[-0.1370715],100,47,medium,plus,dotcolour,alfa,119,17,M,R,
455,77,35,10,3,27,53,398,['n'],1,right,['9'],5,154,[-0.03608623],96,53,easy,plus,dotcolour,alfa,119,17,M,R,
456,78,36,10,3,36,44,250,['n'],1,right,['9'],5,108,[-0.08890347],100,44,hard,plus,dotcolour,alfa,119,17,M,R,
457,79,37,10,3,36,44,175,['n'],1,right,['3'],3,57,[-0.10198849],100,44,hard,plus,dotcolour,alfa,119,17,M,R,
458,80,38,10,3,47,33,127,['n'],0,left,['9'],5,431,[-0.07644387],99,47,medium,plus,dotcolour,alfa,119,17,M,R,
459,81,39,10,3,53,27,516,['n'],0,left,['0'],6,75,[-0.05173647],100,53,easy,plus,dotcolour,alfa,119,17,M,R,
460,82,40,10,3,47,33,365,['n'],0,left,['9'],5,314,[0.00604681],40,47,medium,plus,dotcolour,alfa,119,17,M,R,
461,83,41,10,3,44,36,499,['n'],0,left,['0'],6,123,[-0.0277728],95,44,hard,plus,dotcolour,alfa,119,17,M,R,
462,84,0,11,3,53,27,566,['n'],0,left,['0'],6,176,[-0.06430505],100,53,easy,plus,dotcolour,alfa,119,17,M,R,
463,85,1,11,3,36,44,398,['c'],0,right,['0'],6,2,[0.0758995],100,44,hard,plus,dotcolour,alfa,119,17,M,R,
464,86,2,11,3,53,27,398,['c'],1,left,['9'],5,3,[0.07357195],100,53,easy,plus,dotcolour,alfa,119,17,M,R,
465,87,3,11,3,47,33,232,['c'],1,left,['0'],6,3,[0.07524534],100,47,medium,plus,dotcolour,alfa,119,17,M,R,
466,88,4,11,3,53,27,315,['c'],1,left,['0'],6,456,[0.16238684],100,53,easy,plus,dotcolour,alfa,119,17,M,R,
467,89,5,11,3,47,33,232,['c'],1,left,['0'],6,38,[0.08616092],100,47,medium,plus,dotcolour,alfa,119,17,M,R,
468,90,6,11,3,33,47,215,['n'],1,right,['9'],5,68,[-0.07842744],100,47,medium,plus,dotcolour,alfa,119,17,M,R,
469,91,7,11,3,33,47,399,['n'],1,right,['8'],4,98,[-0.06205825],100,47,medium,plus,dotcolour,alfa,119,17,M,R,
470,92,8,11,3,44,36,665,['n'],0,left,['0'],6,77,[-0.07334609],100,44,hard,plus,dotcolour,alfa,119,17,M,R,
471,93,9,11,3,36,44,1198,['n'],1,right,['8'],4,75,[-0.04099719],100,44,hard,plus,dotcolour,alfa,119,17,M,R,
472,94,10,11,3,44,36,648,['c'],1,left,['0'],6,23,[0.07633745],100,44,hard,plus,dotcolour,alfa,119,17,M,R,
473,95,11,11,3,47,33,533,['c'],1,left,['0'],6,27,[0.05169595],100,47,medium,plus,dotcolour,alfa,119,17,M,R,
474,96,12,11,3,27,53,448,['c'],0,right,['9'],5,176,[0.08677666],100,53,easy,plus,dotcolour,alfa,119,17,M,R,
475,97,13,11,3,44,36,399,['n'],0,left,['9'],5,99,[-0.04831216],100,44,hard,plus,dotcolour,alfa,119,17,M,R,
476,98,14,11,3,33,47,433,['n'],1,right,['0'],6,134,[-0.1124155],100,47,medium,plus,dotcolour,alfa,119,17,M,R,
477,99,15,11,3,53,27,550,['n'],0,left,['0'],6,84,[-0.07064611],100,53,easy,plus,dotcolour,alfa,119,17,M,R,
478,100,16,11,3,27,53,1081,['n'],1,right,['0'],6,247,[-0.11382962],100,53,easy,plus,dotcolour,alfa,119,17,M,R,
479,101,17,11,3,33,47,631,['c'],0,right,['9'],5,37,[0.0522618],100,47,medium,plus,dotcolour,alfa,119,17,M,R,
480,102,18,11,3,27,53,448,['c'],0,right,['9'],5,3,[0.076194],100,53,easy,plus,dotcolour,alfa,119,17,M,R,
481,103,19,11,3,44,36,516,['n'],0,left,['0'],6,208,[-0.00686126],63,44,hard,plus,dotcolour,alfa,119,17,M,R,
482,104,20,11,3,36,44,732,['n'],1,right,['0'],6,83,[-0.02095352],93,44,hard,plus,dotcolour,alfa,119,17,M,R,
483,105,21,11,3,53,27,317,['n'],0,left,['9'],5,124,[-0.14027151],100,53,easy,plus,dotcolour,alfa,119,17,M,R,
484,106,22,11,3,44,36,317,['n'],0,left,['0'],6,84,[-0.09294349],100,44,hard,plus,dotcolour,alfa,119,17,M,R,
485,107,23,11,3,47,33,333,['n'],0,left,['0'],6,44,[-0.05219089],100,47,medium,plus,dotcolour,alfa,119,17,M,R,
