trial,withinphasetrial,withinblocktrial,block,phase,dotsLeft,dotsRight,rt,resp,cor,cresp,conf_press,cj,RTconf,ev,fb,diff,difflevel,condition,task,manip,questionID,questionResp,sub,age,gender,handedness,
0,0,0,0,0,33,47,3820,['c'],0,right,['3'],4,4770,[-0.3940944],0,47,medium,plus,dotcolour,alfa,,,84,18,V,R,
1,1,1,0,0,47,33,4720,['c'],1,left,['3'],4,6181,[0.66038234],100,47,medium,plus,dotcolour,alfa,,,84,18,V,R,
2,2,2,0,0,27,53,2901,['n'],1,right,['8'],3,1888,[-0.23278534],100,53,easy,plus,dotcolour,alfa,,,84,18,V,R,
3,3,3,0,0,47,33,2502,['c'],1,left,['2'],5,1588,[0.35611391],100,47,medium,plus,dotcolour,alfa,,,84,18,V,R,
4,4,4,0,0,27,53,1584,['n'],1,right,['2'],5,1522,[-0.354035],100,53,easy,plus,dotcolour,alfa,,,84,18,V,R,
5,5,5,0,0,36,44,2301,['n'],1,right,['8'],3,1725,[-0.13804167],98,44,hard,plus,dotcolour,alfa,,,84,18,V,R,
6,6,6,0,0,33,47,1283,['n'],1,right,['2'],5,2209,[-0.60254179],100,47,medium,plus,dotcolour,alfa,,,84,18,V,R,
7,7,7,0,0,33,47,1682,['n'],1,right,['1'],6,969,[-0.01753242],66,47,medium,plus,dotcolour,alfa,,,84,18,V,R,
8,8,8,0,0,27,53,1550,['n'],1,right,['8'],3,1209,[-0.16518383],100,53,easy,plus,dotcolour,alfa,,,84,18,V,R,
9,9,9,0,0,44,36,1866,['c'],1,left,['2'],5,2395,[0.14399831],97,44,hard,plus,dotcolour,alfa,,,84,18,V,R,
10,10,10,0,0,47,33,3302,['c'],1,left,['2'],5,1169,[0.21854365],100,47,medium,plus,dotcolour,alfa,,,84,18,V,R,
11,11,11,0,0,53,27,1267,['c'],1,left,['2'],5,677,[0.06875539],95,53,easy,plus,dotcolour,alfa,,,84,18,V,R,
12,12,12,0,0,53,27,934,['c'],1,left,['1'],6,659,[0.14965428],100,53,easy,plus,dotcolour,alfa,,,84,18,V,R,
13,13,13,0,0,33,47,1100,['n'],1,right,['1'],6,499,[-0.08728655],99,47,medium,plus,dotcolour,alfa,,,84,18,V,R,
14,14,14,0,0,44,36,1099,['n'],0,left,['2'],5,577,[-0.14428864],100,44,hard,plus,dotcolour,alfa,,,84,18,V,R,
15,15,15,0,0,47,33,1435,['c'],1,left,['2'],5,695,[0.18748199],100,47,medium,plus,dotcolour,alfa,,,84,18,V,R,
16,16,16,0,0,36,44,1653,['n'],1,right,['2'],5,534,[-0.20802905],100,44,hard,plus,dotcolour,alfa,,,84,18,V,R,
17,17,17,0,0,47,33,1333,['c'],1,left,['2'],5,546,[0.15066896],100,47,medium,plus,dotcolour,alfa,,,84,18,V,R,
18,18,18,0,0,36,44,1082,['n'],1,right,['2'],5,999,[-0.28977229],100,44,hard,plus,dotcolour,alfa,,,84,18,V,R,
19,19,19,0,0,36,44,932,['n'],1,right,['1'],6,479,[-0.05529479],95,44,hard,plus,dotcolour,alfa,,,84,18,V,R,
20,20,20,0,0,36,44,916,['n'],1,right,['2'],5,373,[-0.04778488],94,44,hard,plus,dotcolour,alfa,,,84,18,V,R,
21,21,21,0,0,27,53,834,['n'],1,right,['2'],5,500,[-0.12465615],100,53,easy,plus,dotcolour,alfa,,,84,18,V,R,
22,22,22,0,0,27,53,1750,['c'],0,right,['8'],3,2632,[0.15810731],97,53,easy,plus,dotcolour,alfa,,,84,18,V,R,
23,23,23,0,0,36,44,1217,['n'],1,right,['2'],5,689,[-0.12461815],100,44,hard,plus,dotcolour,alfa,,,84,18,V,R,
24,24,24,0,0,47,33,1216,['c'],1,left,['2'],5,563,[0.14721255],100,47,medium,plus,dotcolour,alfa,,,84,18,V,R,
25,25,25,0,0,53,27,766,['c'],1,left,['2'],5,532,[0.11737662],100,53,easy,plus,dotcolour,alfa,,,84,18,V,R,
26,26,26,0,0,44,36,1018,['c'],1,left,['2'],5,1053,[0.01227158],61,44,hard,plus,dotcolour,alfa,,,84,18,V,R,
27,27,27,0,0,36,44,1667,['n'],1,right,['2'],5,901,[-0.158544],100,44,hard,plus,dotcolour,alfa,,,84,18,V,R,
28,28,28,0,0,53,27,866,['c'],1,left,['2'],5,524,[0.26660501],100,53,easy,plus,dotcolour,alfa,,,84,18,V,R,
29,29,29,0,0,27,53,966,['n'],1,right,['1'],6,439,[-0.12903783],100,53,easy,plus,dotcolour,alfa,,,84,18,V,R,
30,30,30,0,0,47,33,1317,['c'],1,left,['1'],6,535,[0.23993021],100,47,medium,plus,dotcolour,alfa,,,84,18,V,R,
31,31,31,0,0,53,27,967,['c'],1,left,['1'],6,353,[0.15429357],100,53,easy,plus,dotcolour,alfa,,,84,18,V,R,
32,32,32,0,0,33,47,1433,['n'],1,right,['1'],6,1248,[-0.20085268],100,47,medium,plus,dotcolour,alfa,,,84,18,V,R,
33,33,33,0,0,44,36,715,['n'],0,left,['1'],6,343,[-0.12282669],100,44,hard,plus,dotcolour,alfa,,,84,18,V,R,
34,34,34,0,0,33,47,768,['n'],1,right,['1'],6,313,[-0.1091145],100,47,medium,plus,dotcolour,alfa,,,84,18,V,R,
35,35,35,0,0,27,53,683,['n'],1,right,['1'],6,272,[0.00584453],40,53,easy,plus,dotcolour,alfa,,,84,18,V,R,
36,36,36,0,0,44,36,2220,['c'],1,left,['1'],6,722,[0.06721043],95,44,hard,plus,dotcolour,alfa,,,84,18,V,R,
37,37,37,0,0,33,47,700,['n'],1,right,['1'],6,519,[-0.11046384],100,47,medium,plus,dotcolour,alfa,,,84,18,V,R,
38,38,38,0,0,44,36,1333,['n'],0,left,['3'],4,1604,[0.04875142],20,44,hard,plus,dotcolour,alfa,,,84,18,V,R,
39,39,39,0,0,44,36,2453,['c'],1,left,['1'],6,974,[0.10758704],98,44,hard,plus,dotcolour,alfa,,,84,18,V,R,
40,40,40,0,0,53,27,2735,['n'],0,left,['8'],3,2502,[0.21071081],1,53,easy,plus,dotcolour,alfa,,,84,18,V,R,
41,41,41,0,0,53,27,2152,['n'],0,left,['3'],4,1199,[0.1041364],3,53,easy,plus,dotcolour,alfa,,,84,18,V,R,
42,42,0,1,0,44,36,1117,['c'],1,left,['3'],4,3552,[0.19465598],98,44,hard,plus,dotcolour,alfa,,,84,18,V,R,
43,43,1,1,0,36,44,1534,['n'],1,right,['3'],4,1927,[-0.09637237],92,44,hard,plus,dotcolour,alfa,,,84,18,V,R,
44,44,2,1,0,53,27,733,['c'],1,left,['1'],6,466,[0.10316206],100,53,easy,plus,dotcolour,alfa,,,84,18,V,R,
45,45,3,1,0,44,36,1835,['c'],1,left,['2'],5,1132,[0.22053219],100,44,hard,plus,dotcolour,alfa,,,84,18,V,R,
46,46,4,1,0,53,27,1050,['c'],1,left,['1'],6,651,[0.25426916],100,53,easy,plus,dotcolour,alfa,,,84,18,V,R,
47,47,5,1,0,44,36,1300,['c'],1,left,['2'],5,754,[-0.00959869],40,44,hard,plus,dotcolour,alfa,,,84,18,V,R,
48,48,6,1,0,33,47,783,['n'],1,right,['1'],6,939,[-0.28994228],100,47,medium,plus,dotcolour,alfa,,,84,18,V,R,
49,49,7,1,0,36,44,1168,['n'],1,right,['2'],5,373,[-0.12142061],100,44,hard,plus,dotcolour,alfa,,,84,18,V,R,
50,50,8,1,0,27,53,1018,['n'],1,right,['1'],6,572,[-0.26479669],100,53,easy,plus,dotcolour,alfa,,,84,18,V,R,
51,51,9,1,0,33,47,1133,['n'],1,right,['1'],6,445,[-0.10304074],100,47,medium,plus,dotcolour,alfa,,,84,18,V,R,
52,52,10,1,0,47,33,1618,['c'],1,left,['1'],6,609,[0.06034513],94,47,medium,plus,dotcolour,alfa,,,84,18,V,R,
53,53,11,1,0,27,53,834,['n'],1,right,['1'],6,326,[-0.16442724],100,53,easy,plus,dotcolour,alfa,,,84,18,V,R,
54,54,12,1,0,27,53,600,['n'],1,right,['1'],6,568,[-0.28936644],100,53,easy,plus,dotcolour,alfa,,,84,18,V,R,
55,55,13,1,0,33,47,716,['n'],1,right,['1'],6,379,[-0.01708953],73,47,medium,plus,dotcolour,alfa,,,84,18,V,R,
56,56,14,1,0,53,27,983,['c'],1,left,['1'],6,627,[0.086747],98,53,easy,plus,dotcolour,alfa,,,84,18,V,R,
57,57,15,1,0,44,36,733,['c'],1,left,['2'],5,547,[0.19959911],100,44,hard,plus,dotcolour,alfa,,,84,18,V,R,
58,58,16,1,0,44,36,1783,['c'],1,left,['2'],5,612,[0.0348838],83,44,hard,plus,dotcolour,alfa,,,84,18,V,R,
59,59,17,1,0,36,44,985,['n'],1,right,['2'],5,595,[-0.23760196],100,44,hard,plus,dotcolour,alfa,,,84,18,V,R,
60,60,18,1,0,44,36,1517,['c'],1,left,['2'],5,460,[0.22862453],100,44,hard,plus,dotcolour,alfa,,,84,18,V,R,
61,61,19,1,0,36,44,1918,['n'],1,right,['2'],5,707,[-0.10489347],99,44,hard,plus,dotcolour,alfa,,,84,18,V,R,
62,62,20,1,0,33,47,800,['n'],1,right,['2'],5,373,[-0.16012908],100,47,medium,plus,dotcolour,alfa,,,84,18,V,R,
63,63,21,1,0,53,27,750,['c'],1,left,['2'],5,486,[0.01929658],73,53,easy,plus,dotcolour,alfa,,,84,18,V,R,
64,64,22,1,0,47,33,967,['c'],1,left,['2'],5,715,[0.13039212],100,47,medium,plus,dotcolour,alfa,,,84,18,V,R,
65,65,23,1,0,47,33,1400,['n'],0,left,['3'],4,773,[0.00013204],50,47,medium,plus,dotcolour,alfa,,,84,18,V,R,
66,66,24,1,0,53,27,800,['c'],1,left,['1'],6,452,[0.2451695],100,53,easy,plus,dotcolour,alfa,,,84,18,V,R,
67,67,25,1,0,36,44,733,['n'],1,right,['1'],6,371,[-0.16367326],100,44,hard,plus,dotcolour,alfa,,,84,18,V,R,
68,68,26,1,0,27,53,900,['n'],1,right,['2'],5,487,[-0.14613558],100,53,easy,plus,dotcolour,alfa,,,84,18,V,R,
69,69,27,1,0,47,33,1550,['c'],1,left,['2'],5,1428,[0.17911509],100,47,medium,plus,dotcolour,alfa,,,84,18,V,R,
70,70,28,1,0,27,53,1467,['n'],1,right,['1'],6,1182,[-0.22284505],100,53,easy,plus,dotcolour,alfa,,,84,18,V,R,
71,71,29,1,0,47,33,915,['n'],0,left,['1'],6,343,[-0.00583045],59,47,medium,plus,dotcolour,alfa,,,84,18,V,R,
72,72,30,1,0,53,27,799,['c'],1,left,['2'],5,728,[0.39871709],100,53,easy,plus,dotcolour,alfa,,,84,18,V,R,
73,73,31,1,0,33,47,1500,['c'],0,right,['2'],5,629,[-0.11403894],1,47,medium,plus,dotcolour,alfa,,,84,18,V,R,
74,74,32,1,0,44,36,1149,['n'],0,left,['3'],4,1844,[-0.0425149],76,44,hard,plus,dotcolour,alfa,,,84,18,V,R,
75,75,33,1,0,33,47,1182,['c'],0,right,['2'],5,760,[-0.12046223],1,47,medium,plus,dotcolour,alfa,,,84,18,V,R,
76,76,34,1,0,36,44,2300,['n'],1,right,['8'],3,859,[0.05541642],10,44,hard,plus,dotcolour,alfa,,,84,18,V,R,
77,77,35,1,0,27,53,1235,['n'],1,right,['3'],4,1221,[-0.10046275],96,53,easy,plus,dotcolour,alfa,,,84,18,V,R,
78,78,36,1,0,33,47,2402,['n'],1,right,['3'],4,680,[-0.16977753],100,47,medium,plus,dotcolour,alfa,,,84,18,V,R,
79,79,37,1,0,27,53,600,['n'],1,right,['3'],4,684,[-0.29199242],100,53,easy,plus,dotcolour,alfa,,,84,18,V,R,
80,80,38,1,0,47,33,2051,['c'],1,left,['2'],5,1636,[0.17131511],99,47,medium,plus,dotcolour,alfa,,,84,18,V,R,
81,81,39,1,0,47,33,1366,['c'],1,left,['2'],5,544,[0.01879312],71,47,medium,plus,dotcolour,alfa,,,84,18,V,R,
82,82,40,1,0,53,27,950,['c'],1,left,['2'],5,435,[0.09267573],99,53,easy,plus,dotcolour,alfa,,,84,18,V,R,
83,83,41,1,0,36,44,1249,['n'],1,right,['2'],5,414,[-0.14170158],100,44,hard,plus,dotcolour,alfa,,,84,18,V,R,
84,84,0,2,0,44,36,1335,['n'],0,left,['2'],5,1515,[-0.03322604],73,44,hard,plus,dotcolour,alfa,,,84,18,V,R,
85,85,1,2,0,36,44,966,['n'],1,right,['2'],5,301,[-0.03562417],91,44,hard,plus,dotcolour,alfa,,,84,18,V,R,
86,86,2,2,0,27,53,818,['n'],1,right,['1'],6,495,[-0.12288303],100,53,easy,plus,dotcolour,alfa,,,84,18,V,R,
87,87,3,2,0,27,53,635,['n'],1,right,['1'],6,281,[-0.118055],100,53,easy,plus,dotcolour,alfa,,,84,18,V,R,
88,88,4,2,0,53,27,967,['c'],1,left,['1'],6,782,[0.25811032],100,53,easy,plus,dotcolour,alfa,,,84,18,V,R,
89,89,5,2,0,53,27,899,['c'],1,left,['1'],6,353,[0.14664989],100,53,easy,plus,dotcolour,alfa,,,84,18,V,R,
90,90,6,2,0,36,44,833,['n'],1,right,['1'],6,288,[-0.0617906],98,44,hard,plus,dotcolour,alfa,,,84,18,V,R,
91,91,7,2,0,27,53,733,['n'],1,right,['1'],6,814,[-0.13150867],99,53,easy,plus,dotcolour,alfa,,,84,18,V,R,
92,92,8,2,0,47,33,1651,['c'],1,left,['2'],5,681,[0.05123241],90,47,medium,plus,dotcolour,alfa,,,84,18,V,R,
93,93,9,2,0,44,36,950,['c'],1,left,['2'],5,430,[-0.0270636],18,44,hard,plus,dotcolour,alfa,,,84,18,V,R,
94,94,10,2,0,47,33,916,['c'],1,left,['2'],5,799,[-0.03424166],20,47,medium,plus,dotcolour,alfa,,,84,18,V,R,
95,95,11,2,0,27,53,717,['n'],1,right,['1'],6,329,[-0.09849819],100,53,easy,plus,dotcolour,alfa,,,84,18,V,R,
96,96,12,2,0,33,47,1017,['n'],1,right,['1'],6,337,[-0.05433344],97,47,medium,plus,dotcolour,alfa,,,84,18,V,R,
97,97,13,2,0,47,33,1718,['c'],1,left,['1'],6,2278,[0.23155632],100,47,medium,plus,dotcolour,alfa,,,84,18,V,R,
98,98,14,2,0,53,27,833,['c'],1,left,['1'],6,309,[0.10731878],100,53,easy,plus,dotcolour,alfa,,,84,18,V,R,
99,99,15,2,0,33,47,1318,['n'],1,right,['2'],5,946,[-0.07678902],94,47,medium,plus,dotcolour,alfa,,,84,18,V,R,
100,100,16,2,0,36,44,650,['n'],1,right,['1'],6,360,[-0.05514672],96,44,hard,plus,dotcolour,alfa,,,84,18,V,R,
101,101,17,2,0,47,33,1384,['c'],1,left,['1'],6,457,[-0.00629608],42,47,medium,plus,dotcolour,alfa,,,84,18,V,R,
102,102,18,2,0,36,44,633,['n'],1,right,['3'],4,1036,[-0.09702709],97,44,hard,plus,dotcolour,alfa,,,84,18,V,R,
103,103,19,2,0,36,44,1032,['n'],1,right,['3'],4,366,[-0.05526779],96,44,hard,plus,dotcolour,alfa,,,84,18,V,R,
104,104,20,2,0,44,36,1433,['c'],1,left,['3'],4,429,[0.07767999],99,44,hard,plus,dotcolour,alfa,,,84,18,V,R,
105,105,21,2,0,36,44,651,['n'],1,right,['1'],6,409,[0.01042547],36,44,hard,plus,dotcolour,alfa,,,84,18,V,R,
106,106,22,2,0,53,27,816,['c'],1,left,['1'],6,1134,[0.21164073],100,53,easy,plus,dotcolour,alfa,,,84,18,V,R,
107,107,23,2,0,44,36,1968,['c'],1,left,['3'],4,544,[0.09454799],99,44,hard,plus,dotcolour,alfa,,,84,18,V,R,
108,108,24,2,0,33,47,684,['n'],1,right,['3'],4,509,[-0.12349122],100,47,medium,plus,dotcolour,alfa,,,84,18,V,R,
109,109,25,2,0,36,44,650,['n'],1,right,['1'],6,406,[-0.08008544],99,44,hard,plus,dotcolour,alfa,,,84,18,V,R,
110,110,26,2,0,27,53,648,['n'],1,right,['1'],6,530,[-0.24365673],100,53,easy,plus,dotcolour,alfa,,,84,18,V,R,
111,111,27,2,0,33,47,882,['n'],1,right,['3'],4,696,[-0.17349491],100,47,medium,plus,dotcolour,alfa,,,84,18,V,R,
112,112,28,2,0,27,53,584,['n'],1,right,['3'],4,427,[-0.17072319],100,53,easy,plus,dotcolour,alfa,,,84,18,V,R,
113,113,29,2,0,33,47,649,['n'],1,right,['3'],4,335,[-0.15071146],100,47,medium,plus,dotcolour,alfa,,,84,18,V,R,
114,114,30,2,0,44,36,2469,['c'],1,left,['2'],5,1165,[0.27369744],100,44,hard,plus,dotcolour,alfa,,,84,18,V,R,
115,115,31,2,0,44,36,866,['n'],0,left,['2'],5,370,[-0.12904614],100,44,hard,plus,dotcolour,alfa,,,84,18,V,R,
116,116,32,2,0,33,47,1467,['c'],0,right,['2'],5,702,[-0.02758287],23,47,medium,plus,dotcolour,alfa,,,84,18,V,R,
117,117,33,2,0,47,33,2534,['c'],1,left,['2'],5,962,[0.21966062],100,47,medium,plus,dotcolour,alfa,,,84,18,V,R,
118,118,34,2,0,53,27,2135,['c'],1,left,['2'],5,771,[0.23315061],100,53,easy,plus,dotcolour,alfa,,,84,18,V,R,
119,119,35,2,0,47,33,966,['c'],1,left,['1'],6,876,[0.19344299],100,47,medium,plus,dotcolour,alfa,,,84,18,V,R,
120,120,36,2,0,53,27,1467,['c'],1,left,['3'],4,715,[0.06970493],95,53,easy,plus,dotcolour,alfa,,,84,18,V,R,
121,121,37,2,0,47,33,1784,['c'],1,left,['1'],6,397,[0.06328719],97,47,medium,plus,dotcolour,alfa,,,84,18,V,R,
122,122,38,2,0,27,53,684,['n'],1,right,['1'],6,361,[-0.16961744],100,53,easy,plus,dotcolour,alfa,,,84,18,V,R,
123,123,39,2,0,44,36,734,['n'],0,left,['2'],5,1140,[0.07659805],7,44,hard,plus,dotcolour,alfa,,,84,18,V,R,
124,124,40,2,0,53,27,967,['c'],1,left,['1'],6,686,[0.16306457],100,53,easy,plus,dotcolour,alfa,,,84,18,V,R,
125,125,41,2,0,33,47,2051,['n'],1,right,['9'],2,1965,[-0.30641524],100,47,medium,plus,dotcolour,alfa,,,84,18,V,R,
126,0,0,3,1,36,44,1802,['n'],1,right,['9'],2,3318,[-0.2763588],80,44,hard,minus,dotcolour,alfa,,,84,18,V,R,
127,1,1,3,1,27,53,1033,['n'],1,right,['1'],6,362,[-0.05448495],69,53,easy,minus,dotcolour,alfa,,,84,18,V,R,
128,2,2,3,1,33,47,1384,['n'],1,right,['9'],2,1650,[-0.26322412],86,47,medium,minus,dotcolour,alfa,,,84,18,V,R,
129,3,3,3,1,33,47,2201,['n'],1,right,['2'],5,1332,[-0.01564945],53,47,medium,minus,dotcolour,alfa,,,84,18,V,R,
130,4,4,3,1,47,33,2117,['c'],1,left,['2'],5,910,[0.2522829],92,47,medium,minus,dotcolour,alfa,,,84,18,V,R,
131,5,5,3,1,27,53,1049,['n'],1,right,['1'],6,374,[-0.17008931],92,53,easy,minus,dotcolour,alfa,,,84,18,V,R,
132,6,6,3,1,36,44,1516,['c'],0,right,['2'],5,921,[-0.1605888],18,44,hard,minus,dotcolour,alfa,,,84,18,V,R,
133,7,7,3,1,33,47,700,['n'],1,right,['1'],6,286,[-0.10354175],85,47,medium,minus,dotcolour,alfa,,,84,18,V,R,
134,8,8,3,1,27,53,582,['n'],1,right,['1'],6,434,[0.02777908],41,53,easy,minus,dotcolour,alfa,,,84,18,V,R,
135,9,9,3,1,47,33,867,['c'],1,left,['2'],5,812,[0.09399393],72,47,medium,minus,dotcolour,alfa,,,84,18,V,R,
136,10,10,3,1,33,47,1083,['n'],1,right,['1'],6,1279,[-0.29401549],91,47,medium,minus,dotcolour,alfa,,,84,18,V,R,
137,11,11,3,1,27,53,699,['n'],1,right,['1'],6,334,[-0.09226381],81,53,easy,minus,dotcolour,alfa,,,84,18,V,R,
138,12,12,3,1,53,27,1951,['c'],1,left,['3'],4,1192,[0.27412967],91,53,easy,minus,dotcolour,alfa,,,84,18,V,R,
139,13,13,3,1,53,27,734,['c'],1,left,['3'],4,457,[0.04143626],63,53,easy,minus,dotcolour,alfa,,,84,18,V,R,
140,14,14,3,1,44,36,1401,['c'],1,left,['2'],5,684,[0.03661347],60,44,hard,minus,dotcolour,alfa,,,84,18,V,R,
141,15,15,3,1,47,33,700,['n'],0,left,['3'],4,1732,[0.1084503],32,47,medium,minus,dotcolour,alfa,,,84,18,V,R,
142,16,16,3,1,47,33,984,['c'],1,left,['1'],6,492,[0.14628114],87,47,medium,minus,dotcolour,alfa,,,84,18,V,R,
143,17,17,3,1,27,53,767,['n'],1,right,['1'],6,272,[-0.19264744],97,53,easy,minus,dotcolour,alfa,,,84,18,V,R,
144,18,18,3,1,33,47,617,['n'],1,right,['1'],6,300,[-0.08978307],81,47,medium,minus,dotcolour,alfa,,,84,18,V,R,
145,19,19,3,1,36,44,699,['n'],1,right,['1'],6,387,[-0.18476344],94,44,hard,minus,dotcolour,alfa,,,84,18,V,R,
146,20,20,3,1,44,36,1083,['c'],1,left,['2'],5,1031,[0.21516616],87,44,hard,minus,dotcolour,alfa,,,84,18,V,R,
147,21,21,3,1,53,27,1100,['c'],1,left,['3'],4,1143,[0.24692307],89,53,easy,minus,dotcolour,alfa,,,84,18,V,R,
148,22,22,3,1,44,36,1067,['c'],1,left,['2'],5,645,[0.15669771],85,44,hard,minus,dotcolour,alfa,,,84,18,V,R,
149,23,23,3,1,36,44,1985,['n'],1,right,['2'],5,770,[-0.10443045],74,44,hard,minus,dotcolour,alfa,,,84,18,V,R,
150,24,24,3,1,36,44,801,['n'],1,right,['2'],5,352,[-0.07678815],76,44,hard,minus,dotcolour,alfa,,,84,18,V,R,
151,25,25,3,1,36,44,583,['n'],1,right,['2'],5,1082,[-0.09069786],69,44,hard,minus,dotcolour,alfa,,,84,18,V,R,
152,26,26,3,1,36,44,901,['n'],1,right,['3'],4,616,[-0.13297102],82,44,hard,minus,dotcolour,alfa,,,84,18,V,R,
153,27,27,3,1,44,36,1034,['c'],1,left,['2'],5,997,[0.21905924],88,44,hard,minus,dotcolour,alfa,,,84,18,V,R,
154,28,28,3,1,33,47,1417,['n'],1,right,['3'],4,1586,[-0.25986273],86,47,medium,minus,dotcolour,alfa,,,84,18,V,R,
155,29,29,3,1,53,27,1033,['c'],1,left,['2'],5,1183,[0.22014434],86,53,easy,minus,dotcolour,alfa,,,84,18,V,R,
156,30,30,3,1,27,53,766,['n'],1,right,['3'],4,654,[-0.10996454],77,53,easy,minus,dotcolour,alfa,,,84,18,V,R,
157,31,31,3,1,44,36,917,['n'],0,left,['3'],4,861,[0.13263139],22,44,hard,minus,dotcolour,alfa,,,84,18,V,R,
158,32,32,3,1,47,33,1450,['c'],1,left,['1'],6,407,[0.11063858],83,47,medium,minus,dotcolour,alfa,,,84,18,V,R,
159,33,33,3,1,53,27,800,['c'],1,left,['1'],6,333,[0.13702207],89,53,easy,minus,dotcolour,alfa,,,84,18,V,R,
160,34,34,3,1,44,36,582,['c'],1,left,['2'],5,568,[0.11179207],79,44,hard,minus,dotcolour,alfa,,,84,18,V,R,
161,35,35,3,1,27,53,632,['n'],1,right,['1'],6,302,[-0.04084385],66,53,easy,minus,dotcolour,alfa,,,84,18,V,R,
162,36,36,3,1,53,27,1118,['c'],1,left,['2'],5,741,[0.18521614],87,53,easy,minus,dotcolour,alfa,,,84,18,V,R,
163,37,37,3,1,47,33,1052,['c'],1,left,['2'],5,635,[0.07067022],69,47,medium,minus,dotcolour,alfa,,,84,18,V,R,
164,38,38,3,1,33,47,684,['n'],1,right,['1'],6,380,[0.00744137],47,47,medium,minus,dotcolour,alfa,,,84,18,V,R,
165,39,39,3,1,47,33,1067,['c'],1,left,['3'],4,1689,[0.28807511],88,47,medium,minus,dotcolour,alfa,,,84,18,V,R,
166,40,40,3,1,44,36,1684,['c'],1,left,['3'],4,399,[0.12244888],85,44,hard,minus,dotcolour,alfa,,,84,18,V,R,
167,41,41,3,1,53,27,1368,['n'],0,left,['3'],4,846,[0.14467353],20,53,easy,minus,dotcolour,alfa,,,84,18,V,R,
168,42,0,4,1,33,47,1134,['c'],0,right,['1'],6,878,[-0.08547822],31,47,medium,minus,dotcolour,alfa,,,84,18,V,R,
169,43,1,4,1,36,44,2135,['c'],0,right,['2'],5,875,[0.23232439],90,44,hard,minus,dotcolour,alfa,,,84,18,V,R,
170,44,2,4,1,47,33,1416,['n'],0,left,['2'],5,461,[-0.09476398],78,47,medium,minus,dotcolour,alfa,,,84,18,V,R,
171,45,3,4,1,36,44,1368,['n'],1,right,['8'],3,1250,[-0.30187459],92,44,hard,minus,dotcolour,alfa,,,84,18,V,R,
172,46,4,4,1,44,36,3054,['n'],0,left,['2'],5,1066,[0.04006424],41,44,hard,minus,dotcolour,alfa,,,84,18,V,R,
173,47,5,4,1,47,33,1250,['c'],1,left,['8'],3,483,[0.03030508],60,47,medium,minus,dotcolour,alfa,,,84,18,V,R,
174,48,6,4,1,47,33,1184,['c'],1,left,['2'],5,807,[0.04903983],62,47,medium,minus,dotcolour,alfa,,,84,18,V,R,
175,49,7,4,1,47,33,1034,['n'],0,left,['9'],2,755,[-0.05057412],63,47,medium,minus,dotcolour,alfa,,,84,18,V,R,
176,50,8,4,1,47,33,1518,['c'],1,left,['9'],2,581,[0.23887184],94,47,medium,minus,dotcolour,alfa,,,84,18,V,R,
177,51,9,4,1,53,27,749,['c'],1,left,['1'],6,295,[0.15451498],93,53,easy,minus,dotcolour,alfa,,,84,18,V,R,
178,52,10,4,1,33,47,1917,['n'],1,right,['2'],5,372,[-0.11242519],84,47,medium,minus,dotcolour,alfa,,,84,18,V,R,
179,53,11,4,1,44,36,2586,['c'],1,left,['2'],5,1132,[0.03698963],58,44,hard,minus,dotcolour,alfa,,,84,18,V,R,
180,54,12,4,1,36,44,700,['n'],1,right,['1'],6,408,[-0.23160867],96,44,hard,minus,dotcolour,alfa,,,84,18,V,R,
181,55,13,4,1,33,47,651,['n'],1,right,['1'],6,541,[-0.04516023],63,47,medium,minus,dotcolour,alfa,,,84,18,V,R,
182,56,14,4,1,27,53,530,['n'],1,right,['1'],6,280,[-0.08708164],81,53,easy,minus,dotcolour,alfa,,,84,18,V,R,
183,57,15,4,1,33,47,1033,['n'],1,right,['2'],5,419,[-0.13932885],87,47,medium,minus,dotcolour,alfa,,,84,18,V,R,
184,58,16,4,1,44,36,799,['c'],1,left,['2'],5,1120,[0.15369933],79,44,hard,minus,dotcolour,alfa,,,84,18,V,R,
185,59,17,4,1,36,44,650,['n'],1,right,['1'],6,871,[-0.11870099],76,44,hard,minus,dotcolour,alfa,,,84,18,V,R,
186,60,18,4,1,27,53,483,['n'],1,right,['1'],6,343,[-0.13602683],89,53,easy,minus,dotcolour,alfa,,,84,18,V,R,
187,61,19,4,1,53,27,1100,['c'],1,left,['1'],6,404,[-0.0355418],38,53,easy,minus,dotcolour,alfa,,,84,18,V,R,
188,62,20,4,1,27,53,549,['n'],1,right,['1'],6,349,[-0.01908493],57,53,easy,minus,dotcolour,alfa,,,84,18,V,R,
189,63,21,4,1,27,53,698,['n'],1,right,['2'],5,386,[-0.092636],79,53,easy,minus,dotcolour,alfa,,,84,18,V,R,
190,64,22,4,1,53,27,867,['c'],1,left,['2'],5,766,[0.21996969],91,53,easy,minus,dotcolour,alfa,,,84,18,V,R,
191,65,23,4,1,53,27,1402,['c'],1,left,['2'],5,549,[0.15687742],87,53,easy,minus,dotcolour,alfa,,,84,18,V,R,
192,66,24,4,1,36,44,1302,['n'],1,right,['9'],2,2066,[-0.0340799],55,44,hard,minus,dotcolour,alfa,,,84,18,V,R,
193,67,25,4,1,36,44,567,['n'],1,right,['2'],5,677,[-0.14205397],83,44,hard,minus,dotcolour,alfa,,,84,18,V,R,
194,68,26,4,1,47,33,900,['c'],1,left,['2'],5,533,[0.16568852],89,47,medium,minus,dotcolour,alfa,,,84,18,V,R,
195,69,27,4,1,44,36,1051,['n'],0,left,['2'],5,636,[0.00986396],47,44,hard,minus,dotcolour,alfa,,,84,18,V,R,
196,70,28,4,1,53,27,1133,['c'],1,left,['9'],2,819,[0.216982],90,53,easy,minus,dotcolour,alfa,,,84,18,V,R,
197,71,29,4,1,27,53,633,['n'],1,right,['1'],6,528,[-0.2052282],93,53,easy,minus,dotcolour,alfa,,,84,18,V,R,
198,72,30,4,1,44,36,2367,['n'],0,left,['2'],5,617,[-0.05177181],64,44,hard,minus,dotcolour,alfa,,,84,18,V,R,
199,73,31,4,1,53,27,950,['c'],1,left,['1'],6,610,[0.21974843],93,53,easy,minus,dotcolour,alfa,,,84,18,V,R,
200,74,32,4,1,33,47,649,['n'],1,right,['1'],6,462,[-0.2055132],94,47,medium,minus,dotcolour,alfa,,,84,18,V,R,
201,75,33,4,1,33,47,917,['n'],1,right,['1'],6,438,[-0.10158232],80,47,medium,minus,dotcolour,alfa,,,84,18,V,R,
202,76,34,4,1,47,33,684,['c'],1,left,['2'],5,703,[0.05044381],63,47,medium,minus,dotcolour,alfa,,,84,18,V,R,
203,77,35,4,1,27,53,599,['n'],1,right,['1'],6,289,[-0.14342683],92,53,easy,minus,dotcolour,alfa,,,84,18,V,R,
204,78,36,4,1,44,36,983,['c'],1,left,['2'],5,461,[0.01756267],56,44,hard,minus,dotcolour,alfa,,,84,18,V,R,
205,79,37,4,1,33,47,682,['n'],1,right,['1'],6,350,[-0.10297864],83,47,medium,minus,dotcolour,alfa,,,84,18,V,R,
206,80,38,4,1,53,27,1017,['c'],1,left,['1'],6,847,[0.19043686],87,53,easy,minus,dotcolour,alfa,,,84,18,V,R,
207,81,39,4,1,44,36,1000,['n'],0,left,['1'],6,363,[-0.03614783],63,44,hard,minus,dotcolour,alfa,,,84,18,V,R,
208,82,40,4,1,27,53,783,['n'],1,right,['1'],6,251,[-0.12530021],90,53,easy,minus,dotcolour,alfa,,,84,18,V,R,
209,83,41,4,1,36,44,583,['n'],1,right,['1'],6,442,[-0.02259467],58,44,hard,minus,dotcolour,alfa,,,84,18,V,R,
210,84,0,5,1,33,47,901,['n'],1,right,['2'],5,1864,[-0.0494251],58,47,medium,minus,dotcolour,alfa,,,84,18,V,R,
211,85,1,5,1,33,47,1217,['c'],0,right,['9'],2,936,[0.05644053],63,47,medium,minus,dotcolour,alfa,,,84,18,V,R,
212,86,2,5,1,27,53,716,['n'],1,right,['1'],6,412,[-0.31911326],99,53,easy,minus,dotcolour,alfa,,,84,18,V,R,
213,87,3,5,1,33,47,751,['n'],1,right,['2'],5,332,[-0.0968975],82,47,medium,minus,dotcolour,alfa,,,84,18,V,R,
214,88,4,5,1,36,44,685,['n'],1,right,['2'],5,755,[-0.25911038],94,44,hard,minus,dotcolour,alfa,,,84,18,V,R,
215,89,5,5,1,33,47,551,['n'],1,right,['2'],5,349,[-0.11487632],85,47,medium,minus,dotcolour,alfa,,,84,18,V,R,
216,90,6,5,1,27,53,617,['n'],1,right,['2'],5,317,[-0.06191293],73,53,easy,minus,dotcolour,alfa,,,84,18,V,R,
217,91,7,5,1,44,36,1067,['c'],1,left,['2'],5,653,[0.0873328],73,44,hard,minus,dotcolour,alfa,,,84,18,V,R,
218,92,8,5,1,36,44,1318,['n'],1,right,['2'],5,589,[-0.06064787],67,44,hard,minus,dotcolour,alfa,,,84,18,V,R,
219,93,9,5,1,47,33,1052,['c'],1,left,['1'],6,473,[0.18776788],92,47,medium,minus,dotcolour,alfa,,,84,18,V,R,
220,94,10,5,1,53,27,815,['c'],1,left,['1'],6,348,[0.09483082],81,53,easy,minus,dotcolour,alfa,,,84,18,V,R,
221,95,11,5,1,47,33,1533,['c'],1,left,['2'],5,479,[0.27625152],97,47,medium,minus,dotcolour,alfa,,,84,18,V,R,
222,96,12,5,1,36,44,650,['n'],1,right,['2'],5,849,[-0.14133837],80,44,hard,minus,dotcolour,alfa,,,84,18,V,R,
223,97,13,5,1,27,53,735,['n'],1,right,['1'],6,295,[-0.12324575],89,53,easy,minus,dotcolour,alfa,,,84,18,V,R,
224,98,14,5,1,27,53,650,['n'],1,right,['1'],6,288,[-0.05251026],71,53,easy,minus,dotcolour,alfa,,,84,18,V,R,
225,99,15,5,1,36,44,899,['c'],0,right,['2'],5,592,[0.02648756],58,44,hard,minus,dotcolour,alfa,,,84,18,V,R,
226,100,16,5,1,53,27,1185,['c'],1,left,['1'],6,711,[0.19271768],89,53,easy,minus,dotcolour,alfa,,,84,18,V,R,
227,101,17,5,1,36,44,833,['n'],1,right,['3'],4,592,[-0.23245345],94,44,hard,minus,dotcolour,alfa,,,84,18,V,R,
228,102,18,5,1,53,27,983,['c'],1,left,['3'],4,423,[0.20464133],94,53,easy,minus,dotcolour,alfa,,,84,18,V,R,
229,103,19,5,1,47,33,1167,['c'],1,left,['1'],6,429,[0.19521584],94,47,medium,minus,dotcolour,alfa,,,84,18,V,R,
230,104,20,5,1,27,53,700,['n'],1,right,['3'],4,543,[-0.11280674],80,53,easy,minus,dotcolour,alfa,,,84,18,V,R,
231,105,21,5,1,44,36,983,['c'],1,left,['1'],6,481,[0.08830217],76,44,hard,minus,dotcolour,alfa,,,84,18,V,R,
232,106,22,5,1,44,36,1167,['n'],0,left,['2'],5,973,[-0.01963798],54,44,hard,minus,dotcolour,alfa,,,84,18,V,R,
233,107,23,5,1,47,33,784,['c'],1,left,['3'],4,757,[0.17507496],86,47,medium,minus,dotcolour,alfa,,,84,18,V,R,
234,108,24,5,1,36,44,1451,['n'],1,right,['3'],4,362,[0.01001157],46,44,hard,minus,dotcolour,alfa,,,84,18,V,R,
235,109,25,5,1,44,36,1267,['c'],1,left,['1'],6,560,[0.02975195],59,44,hard,minus,dotcolour,alfa,,,84,18,V,R,
236,110,26,5,1,33,47,633,['n'],1,right,['2'],5,535,[-0.21265331],93,47,medium,minus,dotcolour,alfa,,,84,18,V,R,
237,111,27,5,1,53,27,999,['c'],1,left,['2'],5,527,[0.17578308],90,53,easy,minus,dotcolour,alfa,,,84,18,V,R,
238,112,28,5,1,33,47,783,['n'],1,right,['1'],6,345,[-0.11522719],85,47,medium,minus,dotcolour,alfa,,,84,18,V,R,
239,113,29,5,1,47,33,1001,['c'],1,left,['2'],5,610,[-0.04208946],38,47,medium,minus,dotcolour,alfa,,,84,18,V,R,
240,114,30,5,1,53,27,1433,['c'],1,left,['9'],2,678,[0.08238755],71,53,easy,minus,dotcolour,alfa,,,84,18,V,R,
241,115,31,5,1,47,33,1285,['c'],1,left,['9'],2,670,[0.09541045],74,47,medium,minus,dotcolour,alfa,,,84,18,V,R,
242,116,32,5,1,33,47,1283,['n'],1,right,['9'],2,758,[-0.14630597],82,47,medium,minus,dotcolour,alfa,,,84,18,V,R,
243,117,33,5,1,47,33,1183,['c'],1,left,['2'],5,559,[0.12944015],83,47,medium,minus,dotcolour,alfa,,,84,18,V,R,
244,118,34,5,1,27,53,899,['n'],1,right,['1'],6,274,[-0.09487342],84,53,easy,minus,dotcolour,alfa,,,84,18,V,R,
245,119,35,5,1,36,44,984,['n'],1,right,['2'],5,495,[-0.14099586],86,44,hard,minus,dotcolour,alfa,,,84,18,V,R,
246,120,36,5,1,44,36,1450,['c'],1,left,['2'],5,391,[0.19141121],94,44,hard,minus,dotcolour,alfa,,,84,18,V,R,
247,121,37,5,1,53,27,884,['c'],1,left,['1'],6,378,[0.18185055],93,53,easy,minus,dotcolour,alfa,,,84,18,V,R,
248,122,38,5,1,44,36,915,['c'],1,left,['2'],5,366,[0.12099479],86,44,hard,minus,dotcolour,alfa,,,84,18,V,R,
249,123,39,5,1,44,36,665,['c'],1,left,['2'],5,315,[0.11639312],87,44,hard,minus,dotcolour,alfa,,,84,18,V,R,
250,124,40,5,1,27,53,934,['n'],1,right,['2'],5,1184,[-0.22827848],87,53,easy,minus,dotcolour,alfa,,,84,18,V,R,
251,125,41,5,1,53,27,766,['c'],1,left,['2'],5,448,[0.1587683],89,53,easy,minus,dotcolour,alfa,,,84,18,V,R,
252,0,0,6,2,53,27,751,['c'],1,left,['2'],5,364,[0.07454748],99,53,easy,plus,dotcolour,alfa,,,84,18,V,R,
253,1,1,6,2,44,36,1166,['n'],0,left,['2'],5,357,[-0.09550921],100,44,hard,plus,dotcolour,alfa,,,84,18,V,R,
254,2,2,6,2,47,33,1650,['c'],1,left,['2'],5,355,[0.01483719],71,47,medium,plus,dotcolour,alfa,,,84,18,V,R,
255,3,3,6,2,53,27,1083,['c'],1,left,['3'],4,1248,[0.04512901],81,53,easy,plus,dotcolour,alfa,,,84,18,V,R,
256,4,4,6,2,27,53,616,['n'],1,right,['3'],4,595,[-0.27484829],100,53,easy,plus,dotcolour,alfa,,,84,18,V,R,
257,5,5,6,2,44,36,1118,['c'],1,left,['2'],5,468,[0.13063993],100,44,hard,plus,dotcolour,alfa,,,84,18,V,R,
258,6,6,6,2,47,33,1183,['n'],0,left,['1'],6,953,[0.11080523],2,47,medium,plus,dotcolour,alfa,,,84,18,V,R,
259,7,7,6,2,27,53,867,['n'],1,right,['3'],4,590,[-0.20131952],100,53,easy,plus,dotcolour,alfa,,,84,18,V,R,
260,8,8,6,2,44,36,1384,['n'],0,left,['2'],5,717,[-0.05228777],90,44,hard,plus,dotcolour,alfa,,,84,18,V,R,
261,9,9,6,2,33,47,632,['n'],1,right,['2'],5,422,[-0.0434216],92,47,medium,plus,dotcolour,alfa,,,84,18,V,R,
262,10,10,6,2,44,36,767,['n'],0,left,['2'],5,294,[-0.10838786],100,44,hard,plus,dotcolour,alfa,,,84,18,V,R,
263,11,11,6,2,44,36,1034,['c'],1,left,['2'],5,727,[0.12965211],100,44,hard,plus,dotcolour,alfa,,,84,18,V,R,
264,12,12,6,2,36,44,1168,['n'],1,right,['2'],5,385,[-0.01367044],69,44,hard,plus,dotcolour,alfa,,,84,18,V,R,
265,13,13,6,2,33,47,668,['n'],1,right,['2'],5,335,[-0.14568907],100,47,medium,plus,dotcolour,alfa,,,84,18,V,R,
266,14,14,6,2,47,33,2069,['c'],1,left,['9'],2,1164,[0.02904714],72,47,medium,plus,dotcolour,alfa,,,84,18,V,R,
267,15,15,6,2,47,33,1283,['c'],1,left,['2'],5,495,[0.10658271],100,47,medium,plus,dotcolour,alfa,,,84,18,V,R,
268,16,16,6,2,44,36,783,['c'],1,left,['2'],5,362,[0.12196552],100,44,hard,plus,dotcolour,alfa,,,84,18,V,R,
269,17,17,6,2,27,53,766,['n'],1,right,['2'],5,324,[-0.17079781],100,53,easy,plus,dotcolour,alfa,,,84,18,V,R,
270,18,18,6,2,36,44,882,['n'],1,right,['2'],5,274,[-0.02204471],82,44,hard,plus,dotcolour,alfa,,,84,18,V,R,
271,19,19,6,2,53,27,716,['c'],1,left,['2'],5,249,[0.03857971],94,53,easy,plus,dotcolour,alfa,,,84,18,V,R,
272,20,20,6,2,33,47,766,['n'],1,right,['2'],5,240,[-0.09641757],100,47,medium,plus,dotcolour,alfa,,,84,18,V,R,
273,21,21,6,2,53,27,666,['c'],1,left,['2'],5,290,[0.08407743],100,53,easy,plus,dotcolour,alfa,,,84,18,V,R,
274,22,22,6,2,27,53,700,['n'],1,right,['2'],5,281,[-0.188497],100,53,easy,plus,dotcolour,alfa,,,84,18,V,R,
275,23,23,6,2,36,44,599,['n'],1,right,['2'],5,445,[0.01311537],33,44,hard,plus,dotcolour,alfa,,,84,18,V,R,
276,24,24,6,2,53,27,666,['c'],1,left,['2'],5,336,[0.17663513],100,53,easy,plus,dotcolour,alfa,,,84,18,V,R,
277,25,25,6,2,47,33,832,['c'],1,left,['1'],6,344,[0.10489222],100,47,medium,plus,dotcolour,alfa,,,84,18,V,R,
278,26,26,6,2,53,27,584,['c'],1,left,['1'],6,306,[0.14474721],100,53,easy,plus,dotcolour,alfa,,,84,18,V,R,
279,27,27,6,2,33,47,768,['n'],1,right,['1'],6,365,[-0.07187041],99,47,medium,plus,dotcolour,alfa,,,84,18,V,R,
280,28,28,6,2,47,33,1251,['c'],1,left,['2'],5,579,[0.12680128],100,47,medium,plus,dotcolour,alfa,,,84,18,V,R,
281,29,29,6,2,47,33,1099,['c'],1,left,['1'],6,350,[0.16814275],100,47,medium,plus,dotcolour,alfa,,,84,18,V,R,
282,30,30,6,2,53,27,768,['c'],1,left,['2'],5,465,[0.32372413],100,53,easy,plus,dotcolour,alfa,,,84,18,V,R,
283,31,31,6,2,27,53,468,['n'],1,right,['2'],5,291,[-0.17600688],100,53,easy,plus,dotcolour,alfa,,,84,18,V,R,
284,32,32,6,2,44,36,665,['n'],0,left,['2'],5,283,[-0.06932479],99,44,hard,plus,dotcolour,alfa,,,84,18,V,R,
285,33,33,6,2,36,44,549,['c'],0,right,['2'],5,409,[0.16265821],100,44,hard,plus,dotcolour,alfa,,,84,18,V,R,
286,34,34,6,2,27,53,883,['n'],1,right,['2'],5,252,[0.01641155],24,53,easy,plus,dotcolour,alfa,,,84,18,V,R,
287,35,35,6,2,36,44,1286,['c'],0,right,['9'],2,669,[0.05458151],92,44,hard,plus,dotcolour,alfa,,,84,18,V,R,
288,36,36,6,2,36,44,784,['c'],0,right,['2'],5,569,[0.12002448],100,44,hard,plus,dotcolour,alfa,,,84,18,V,R,
289,37,37,6,2,36,44,783,['n'],1,right,['2'],5,241,[-0.13149565],100,44,hard,plus,dotcolour,alfa,,,84,18,V,R,
290,38,38,6,2,33,47,548,['n'],1,right,['2'],5,249,[-0.0782584],100,47,medium,plus,dotcolour,alfa,,,84,18,V,R,
291,39,39,6,2,27,53,550,['n'],1,right,['2'],5,200,[-0.06787524],100,53,easy,plus,dotcolour,alfa,,,84,18,V,R,
292,40,40,6,2,33,47,500,['n'],1,right,['2'],5,499,[-0.05044601],93,47,medium,plus,dotcolour,alfa,,,84,18,V,R,
293,41,41,6,2,33,47,551,['n'],1,right,['2'],5,192,[-0.1052204],100,47,medium,plus,dotcolour,alfa,,,84,18,V,R,
294,42,0,7,2,27,53,617,['n'],1,right,['2'],5,160,[-0.09704769],100,53,easy,plus,dotcolour,alfa,,,84,18,V,R,
295,43,1,7,2,33,47,499,['n'],1,right,['2'],5,228,[-0.04456783],97,47,medium,plus,dotcolour,alfa,,,84,18,V,R,
296,44,2,7,2,36,44,983,['n'],1,right,['2'],5,371,[-0.05691854],97,44,hard,plus,dotcolour,alfa,,,84,18,V,R,
297,45,3,7,2,47,33,616,['c'],1,left,['2'],5,259,[0.06354971],99,47,medium,plus,dotcolour,alfa,,,84,18,V,R,
298,46,4,7,2,44,36,600,['n'],0,left,['9'],2,1199,[0.16302008],0,44,hard,plus,dotcolour,alfa,,,84,18,V,R,
299,47,5,7,2,47,33,1132,['c'],1,left,['2'],5,479,[0.14729627],100,47,medium,plus,dotcolour,alfa,,,84,18,V,R,
300,48,6,7,2,27,53,716,['n'],1,right,['2'],5,542,[-0.17207433],100,53,easy,plus,dotcolour,alfa,,,84,18,V,R,
301,49,7,7,2,33,47,650,['n'],1,right,['2'],5,621,[-0.13768857],100,47,medium,plus,dotcolour,alfa,,,84,18,V,R,
302,50,8,7,2,47,33,1482,['c'],1,left,['2'],5,695,[0.19421054],100,47,medium,plus,dotcolour,alfa,,,84,18,V,R,
303,51,9,7,2,36,44,635,['n'],1,right,['2'],5,457,[0.06870975],3,44,hard,plus,dotcolour,alfa,,,84,18,V,R,
304,52,10,7,2,33,47,783,['n'],1,right,['2'],5,261,[-0.05257207],98,47,medium,plus,dotcolour,alfa,,,84,18,V,R,
305,53,11,7,2,47,33,1766,['c'],1,left,['2'],5,490,[0.12499285],100,47,medium,plus,dotcolour,alfa,,,84,18,V,R,
306,54,12,7,2,44,36,616,['c'],1,left,['2'],5,1373,[0.28915711],100,44,hard,plus,dotcolour,alfa,,,84,18,V,R,
307,55,13,7,2,27,53,715,['n'],1,right,['1'],6,351,[-0.18006248],100,53,easy,plus,dotcolour,alfa,,,84,18,V,R,
308,56,14,7,2,27,53,684,['n'],1,right,['3'],4,477,[-0.12810919],100,53,easy,plus,dotcolour,alfa,,,84,18,V,R,
309,57,15,7,2,53,27,884,['c'],1,left,['3'],4,461,[0.21128507],100,53,easy,plus,dotcolour,alfa,,,84,18,V,R,
310,58,16,7,2,33,47,667,['n'],1,right,['3'],4,902,[-0.09565596],97,47,medium,plus,dotcolour,alfa,,,84,18,V,R,
311,59,17,7,2,53,27,1785,['c'],1,left,['2'],5,665,[0.18411152],100,53,easy,plus,dotcolour,alfa,,,84,18,V,R,
312,60,18,7,2,47,33,833,['c'],1,left,['3'],4,572,[0.16974928],100,47,medium,plus,dotcolour,alfa,,,84,18,V,R,
313,61,19,7,2,27,53,1101,['n'],1,right,['3'],4,559,[-0.22879468],100,53,easy,plus,dotcolour,alfa,,,84,18,V,R,
314,62,20,7,2,27,53,834,['n'],1,right,['3'],4,454,[-0.07624636],98,53,easy,plus,dotcolour,alfa,,,84,18,V,R,
315,63,21,7,2,47,33,1067,['c'],1,left,['1'],6,1159,[0.27875361],100,47,medium,plus,dotcolour,alfa,,,84,18,V,R,
316,64,22,7,2,44,36,1167,['n'],0,left,['2'],5,687,[-0.06566831],95,44,hard,plus,dotcolour,alfa,,,84,18,V,R,
317,65,23,7,2,36,44,1550,['n'],1,right,['2'],5,683,[-0.11338091],99,44,hard,plus,dotcolour,alfa,,,84,18,V,R,
318,66,24,7,2,44,36,1300,['c'],1,left,['2'],5,1306,[0.18859606],100,44,hard,plus,dotcolour,alfa,,,84,18,V,R,
319,67,25,7,2,36,44,1150,['c'],0,right,['2'],5,789,[0.18866714],100,44,hard,plus,dotcolour,alfa,,,84,18,V,R,
320,68,26,7,2,33,47,682,['n'],1,right,['2'],5,400,[-0.08267465],99,47,medium,plus,dotcolour,alfa,,,84,18,V,R,
321,69,27,7,2,36,44,916,['c'],0,right,['9'],2,1619,[-0.03610892],26,44,hard,plus,dotcolour,alfa,,,84,18,V,R,
322,70,28,7,2,44,36,1017,['c'],1,left,['2'],5,574,[-0.05237294],8,44,hard,plus,dotcolour,alfa,,,84,18,V,R,
323,71,29,7,2,36,44,700,['n'],1,right,['2'],5,474,[0.00289572],46,44,hard,plus,dotcolour,alfa,,,84,18,V,R,
324,72,30,7,2,53,27,666,['c'],1,left,['1'],6,443,[0.00724075],60,53,easy,plus,dotcolour,alfa,,,84,18,V,R,
325,73,31,7,2,53,27,700,['c'],1,left,['1'],6,403,[0.20899558],100,53,easy,plus,dotcolour,alfa,,,84,18,V,R,
326,74,32,7,2,27,53,633,['n'],1,right,['1'],6,312,[-0.11721392],100,53,easy,plus,dotcolour,alfa,,,84,18,V,R,
327,75,33,7,2,33,47,933,['c'],0,right,['2'],5,413,[-0.00507696],43,47,medium,plus,dotcolour,alfa,,,84,18,V,R,
328,76,34,7,2,44,36,750,['c'],1,left,['2'],5,382,[0.06522485],98,44,hard,plus,dotcolour,alfa,,,84,18,V,R,
329,77,35,7,2,47,33,783,['c'],1,left,['2'],5,390,[0.07716052],99,47,medium,plus,dotcolour,alfa,,,84,18,V,R,
330,78,36,7,2,33,47,516,['n'],1,right,['1'],6,512,[0.07364756],2,47,medium,plus,dotcolour,alfa,,,84,18,V,R,
331,79,37,7,2,44,36,1235,['c'],1,left,['2'],5,905,[0.09183151],97,44,hard,plus,dotcolour,alfa,,,84,18,V,R,
332,80,38,7,2,53,27,1202,['c'],1,left,['2'],5,458,[0.09875248],99,53,easy,plus,dotcolour,alfa,,,84,18,V,R,
333,81,39,7,2,53,27,599,['c'],1,left,['2'],5,319,[0.20985032],100,53,easy,plus,dotcolour,alfa,,,84,18,V,R,
334,82,40,7,2,53,27,615,['c'],1,left,['1'],6,473,[-0.0549286],5,53,easy,plus,dotcolour,alfa,,,84,18,V,R,
335,83,41,7,2,36,44,1067,['c'],0,right,['9'],2,1281,[0.16848219],100,44,hard,plus,dotcolour,alfa,,,84,18,V,R,
336,84,0,8,2,53,27,952,['c'],1,left,['1'],6,564,[0.01909671],71,53,easy,plus,dotcolour,alfa,,,84,18,V,R,
337,85,1,8,2,27,53,750,['n'],1,right,['1'],6,397,[-0.09240261],99,53,easy,plus,dotcolour,alfa,,,84,18,V,R,
338,86,2,8,2,47,33,2334,['c'],1,left,['2'],5,566,[0.10771007],99,47,medium,plus,dotcolour,alfa,,,84,18,V,R,
339,87,3,8,2,47,33,1050,['n'],0,left,['9'],2,860,[0.06941747],6,47,medium,plus,dotcolour,alfa,,,84,18,V,R,
340,88,4,8,2,27,53,699,['n'],1,right,['1'],6,316,[-0.1855521],100,53,easy,plus,dotcolour,alfa,,,84,18,V,R,
341,89,5,8,2,36,44,650,['n'],1,right,['1'],6,524,[-0.0996429],99,44,hard,plus,dotcolour,alfa,,,84,18,V,R,
342,90,6,8,2,36,44,649,['n'],1,right,['2'],5,316,[-0.13579972],100,44,hard,plus,dotcolour,alfa,,,84,18,V,R,
343,91,7,8,2,33,47,584,['n'],1,right,['2'],5,615,[-0.18229736],100,47,medium,plus,dotcolour,alfa,,,84,18,V,R,
344,92,8,8,2,33,47,565,['n'],1,right,['1'],6,702,[-0.12985331],100,47,medium,plus,dotcolour,alfa,,,84,18,V,R,
345,93,9,8,2,44,36,801,['c'],1,left,['2'],5,545,[0.25545987],100,44,hard,plus,dotcolour,alfa,,,84,18,V,R,
346,94,10,8,2,27,53,566,['n'],1,right,['1'],6,683,[-0.16688539],100,53,easy,plus,dotcolour,alfa,,,84,18,V,R,
347,95,11,8,2,44,36,917,['c'],1,left,['2'],5,778,[-0.00917672],41,44,hard,plus,dotcolour,alfa,,,84,18,V,R,
348,96,12,8,2,53,27,732,['c'],1,left,['1'],6,636,[0.25251267],100,53,easy,plus,dotcolour,alfa,,,84,18,V,R,
349,97,13,8,2,53,27,965,['c'],1,left,['1'],6,451,[0.14097294],100,53,easy,plus,dotcolour,alfa,,,84,18,V,R,
350,98,14,8,2,36,44,750,['n'],1,right,['2'],5,410,[-0.1042271],100,44,hard,plus,dotcolour,alfa,,,84,18,V,R,
351,99,15,8,2,27,53,734,['n'],1,right,['1'],6,507,[-0.25231782],100,53,easy,plus,dotcolour,alfa,,,84,18,V,R,
352,100,16,8,2,27,53,682,['n'],1,right,['1'],6,521,[-0.15451248],100,53,easy,plus,dotcolour,alfa,,,84,18,V,R,
353,101,17,8,2,53,27,834,['c'],1,left,['1'],6,730,[0.30314472],100,53,easy,plus,dotcolour,alfa,,,84,18,V,R,
354,102,18,8,2,36,44,899,['n'],1,right,['2'],5,320,[-0.03387996],90,44,hard,plus,dotcolour,alfa,,,84,18,V,R,
355,103,19,8,2,53,27,549,['c'],1,left,['3'],4,405,[0.210112],100,53,easy,plus,dotcolour,alfa,,,84,18,V,R,
356,104,20,8,2,33,47,1433,['n'],1,right,['2'],5,649,[-0.05651561],93,47,medium,plus,dotcolour,alfa,,,84,18,V,R,
357,105,21,8,2,44,36,965,['c'],1,left,['1'],6,422,[0.09062547],99,44,hard,plus,dotcolour,alfa,,,84,18,V,R,
358,106,22,8,2,36,44,734,['n'],1,right,['2'],5,447,[-0.07378818],98,44,hard,plus,dotcolour,alfa,,,84,18,V,R,
359,107,23,8,2,33,47,2336,['n'],1,right,['2'],5,390,[-0.01993479],76,47,medium,plus,dotcolour,alfa,,,84,18,V,R,
360,108,24,8,2,27,53,784,['n'],1,right,['1'],6,349,[-0.19609394],100,53,easy,plus,dotcolour,alfa,,,84,18,V,R,
361,109,25,8,2,44,36,1135,['c'],1,left,['2'],5,559,[0.04624738],90,44,hard,plus,dotcolour,alfa,,,84,18,V,R,
362,110,26,8,2,47,33,1168,['n'],0,left,['9'],2,1536,[0.18299428],0,47,medium,plus,dotcolour,alfa,,,84,18,V,R,
363,111,27,8,2,33,47,684,['n'],1,right,['1'],6,261,[-0.07986633],100,47,medium,plus,dotcolour,alfa,,,84,18,V,R,
364,112,28,8,2,36,44,901,['n'],1,right,['2'],5,542,[-0.1919009],100,44,hard,plus,dotcolour,alfa,,,84,18,V,R,
365,113,29,8,2,33,47,701,['n'],1,right,['2'],5,602,[-0.09429365],99,47,medium,plus,dotcolour,alfa,,,84,18,V,R,
366,114,30,8,2,27,53,532,['n'],1,right,['1'],6,675,[-0.20942219],100,53,easy,plus,dotcolour,alfa,,,84,18,V,R,
367,115,31,8,2,44,36,1400,['c'],1,left,['2'],5,846,[0.17404028],100,44,hard,plus,dotcolour,alfa,,,84,18,V,R,
368,116,32,8,2,47,33,750,['c'],1,left,['2'],5,261,[0.09088343],100,47,medium,plus,dotcolour,alfa,,,84,18,V,R,
369,117,33,8,2,47,33,1150,['c'],1,left,['2'],5,235,[0.17145131],100,47,medium,plus,dotcolour,alfa,,,84,18,V,R,
370,118,34,8,2,36,44,649,['n'],1,right,['2'],5,583,[0.00627528],43,44,hard,plus,dotcolour,alfa,,,84,18,V,R,
371,119,35,8,2,33,47,566,['n'],1,right,['2'],5,1632,[-0.31906774],100,47,medium,plus,dotcolour,alfa,,,84,18,V,R,
372,120,36,8,2,47,33,1284,['c'],1,left,['2'],5,320,[0.12144412],100,47,medium,plus,dotcolour,alfa,,,84,18,V,R,
373,121,37,8,2,44,36,785,['c'],1,left,['2'],5,290,[0.15223154],100,44,hard,plus,dotcolour,alfa,,,84,18,V,R,
374,122,38,8,2,47,33,767,['c'],1,left,['2'],5,543,[0.09907574],99,47,medium,plus,dotcolour,alfa,,,84,18,V,R,
375,123,39,8,2,53,27,1284,['c'],1,left,['2'],5,556,[0.17368759],100,53,easy,plus,dotcolour,alfa,,,84,18,V,R,
376,124,40,8,2,44,36,1200,['n'],0,left,['2'],5,356,[-0.04086432],92,44,hard,plus,dotcolour,alfa,,,84,18,V,R,
377,125,41,8,2,53,27,649,['c'],1,left,['1'],6,322,[0.05916747],98,53,easy,plus,dotcolour,alfa,,,84,18,V,R,
378,0,0,9,3,27,53,918,['n'],1,right,['1'],6,316,[-0.03871377],65,53,easy,minus,dotcolour,alfa,,,84,18,V,R,
379,1,1,9,3,53,27,749,['c'],1,left,['1'],6,257,[0.17789282],96,53,easy,minus,dotcolour,alfa,,,84,18,V,R,
380,2,2,9,3,44,36,933,['n'],0,left,['2'],5,440,[-0.0722742],73,44,hard,minus,dotcolour,alfa,,,84,18,V,R,
381,3,3,9,3,47,33,1050,['n'],0,left,['2'],5,178,[-0.07478237],83,47,medium,minus,dotcolour,alfa,,,84,18,V,R,
382,4,4,9,3,47,33,867,['n'],0,left,['2'],5,239,[-0.00704936],53,47,medium,minus,dotcolour,alfa,,,84,18,V,R,
383,5,5,9,3,33,47,650,['n'],1,right,['1'],6,563,[-0.18954386],91,47,medium,minus,dotcolour,alfa,,,84,18,V,R,
384,6,6,9,3,36,44,684,['n'],1,right,['1'],6,248,[-0.05570794],73,44,hard,minus,dotcolour,alfa,,,84,18,V,R,
385,7,7,9,3,53,27,567,['c'],1,left,['1'],6,350,[0.21229956],96,53,easy,minus,dotcolour,alfa,,,84,18,V,R,
386,8,8,9,3,36,44,882,['n'],1,right,['2'],5,219,[-0.09531137],86,44,hard,minus,dotcolour,alfa,,,84,18,V,R,
387,9,9,9,3,44,36,1518,['c'],1,left,['2'],5,396,[0.06853913],73,44,hard,minus,dotcolour,alfa,,,84,18,V,R,
388,10,10,9,3,47,33,1483,['c'],1,left,['2'],5,327,[0.08476755],79,47,medium,minus,dotcolour,alfa,,,84,18,V,R,
389,11,11,9,3,53,27,1034,['c'],1,left,['2'],5,359,[0.17997511],94,53,easy,minus,dotcolour,alfa,,,84,18,V,R,
390,12,12,9,3,33,47,616,['n'],1,right,['1'],6,207,[-0.15025562],95,47,medium,minus,dotcolour,alfa,,,84,18,V,R,
391,13,13,9,3,44,36,716,['c'],1,left,['2'],5,649,[0.11282098],78,44,hard,minus,dotcolour,alfa,,,84,18,V,R,
392,14,14,9,3,27,53,783,['n'],1,right,['1'],6,614,[-0.13218824],82,53,easy,minus,dotcolour,alfa,,,84,18,V,R,
393,15,15,9,3,44,36,899,['c'],1,left,['3'],4,399,[0.08311731],77,44,hard,minus,dotcolour,alfa,,,84,18,V,R,
394,16,16,9,3,27,53,650,['n'],1,right,['1'],6,396,[-0.15847573],91,53,easy,minus,dotcolour,alfa,,,84,18,V,R,
395,17,17,9,3,36,44,767,['n'],1,right,['2'],5,300,[-0.0617514],73,44,hard,minus,dotcolour,alfa,,,84,18,V,R,
396,18,18,9,3,36,44,533,['n'],1,right,['1'],6,330,[-0.1135045],86,44,hard,minus,dotcolour,alfa,,,84,18,V,R,
397,19,19,9,3,53,27,1033,['c'],1,left,['1'],6,754,[0.26612493],94,53,easy,minus,dotcolour,alfa,,,84,18,V,R,
398,20,20,9,3,27,53,1749,['n'],1,right,['1'],6,1364,[-0.40994995],96,53,easy,minus,dotcolour,alfa,,,84,18,V,R,
399,21,21,9,3,36,44,649,['n'],1,right,['1'],6,232,[-0.08781452],84,44,hard,minus,dotcolour,alfa,,,84,18,V,R,
400,22,22,9,3,36,44,567,['n'],1,right,['2'],5,312,[-0.07183296],76,44,hard,minus,dotcolour,alfa,,,84,18,V,R,
401,23,23,9,3,27,53,498,['n'],1,right,['1'],6,262,[-0.13304586],91,53,easy,minus,dotcolour,alfa,,,84,18,V,R,
402,24,24,9,3,47,33,833,['c'],1,left,['1'],6,337,[0.04462667],67,47,medium,minus,dotcolour,alfa,,,84,18,V,R,
403,25,25,9,3,47,33,884,['n'],0,left,['2'],5,311,[-0.06595433],74,47,medium,minus,dotcolour,alfa,,,84,18,V,R,
404,26,26,9,3,27,53,585,['n'],1,right,['1'],6,410,[-0.11243209],83,53,easy,minus,dotcolour,alfa,,,84,18,V,R,
405,27,27,9,3,53,27,600,['c'],1,left,['1'],6,352,[0.09270279],80,53,easy,minus,dotcolour,alfa,,,84,18,V,R,
406,28,28,9,3,47,33,983,['c'],1,left,['2'],5,522,[0.10136926],78,47,medium,minus,dotcolour,alfa,,,84,18,V,R,
407,29,29,9,3,33,47,533,['n'],1,right,['1'],6,271,[-0.12313977],89,47,medium,minus,dotcolour,alfa,,,84,18,V,R,
408,30,30,9,3,47,33,1234,['c'],1,left,['2'],5,1962,[0.37362201],92,47,medium,minus,dotcolour,alfa,,,84,18,V,R,
409,31,31,9,3,53,27,783,['c'],1,left,['1'],6,361,[0.06006691],71,53,easy,minus,dotcolour,alfa,,,84,18,V,R,
410,32,32,9,3,33,47,950,['n'],1,right,['2'],5,371,[-0.09333251],80,47,medium,minus,dotcolour,alfa,,,84,18,V,R,
411,33,33,9,3,33,47,866,['c'],0,right,['2'],5,297,[-0.04305781],33,47,medium,minus,dotcolour,alfa,,,84,18,V,R,
412,34,34,9,3,53,27,1083,['n'],0,left,['2'],5,473,[-0.00616267],52,53,easy,minus,dotcolour,alfa,,,84,18,V,R,
413,35,35,9,3,36,44,1168,['n'],1,right,['1'],6,341,[-0.10238867],83,44,hard,minus,dotcolour,alfa,,,84,18,V,R,
414,36,36,9,3,33,47,533,['n'],1,right,['1'],6,208,[-0.10152236],88,47,medium,minus,dotcolour,alfa,,,84,18,V,R,
415,37,37,9,3,33,47,550,['n'],1,right,['1'],6,177,[-0.17146241],98,47,medium,minus,dotcolour,alfa,,,84,18,V,R,
416,38,38,9,3,44,36,1034,['c'],1,left,['1'],6,360,[0.06539379],73,44,hard,minus,dotcolour,alfa,,,84,18,V,R,
417,39,39,9,3,44,36,1569,['c'],1,left,['2'],5,569,[0.05133228],65,44,hard,minus,dotcolour,alfa,,,84,18,V,R,
418,40,40,9,3,44,36,983,['c'],1,left,['2'],5,553,[0.09377479],76,44,hard,minus,dotcolour,alfa,,,84,18,V,R,
419,41,41,9,3,27,53,717,['n'],1,right,['1'],6,357,[-0.1312664],88,53,easy,minus,dotcolour,alfa,,,84,18,V,R,
420,42,0,10,3,33,47,750,['n'],1,right,['1'],6,496,[-0.14751677],87,47,medium,minus,dotcolour,alfa,,,84,18,V,R,
421,43,1,10,3,53,27,849,['c'],1,left,['2'],5,449,[0.2221616],95,53,easy,minus,dotcolour,alfa,,,84,18,V,R,
422,44,2,10,3,47,33,966,['c'],1,left,['1'],6,446,[0.11095996],82,47,medium,minus,dotcolour,alfa,,,84,18,V,R,
423,45,3,10,3,27,53,483,['n'],1,right,['1'],6,281,[-0.04565748],68,53,easy,minus,dotcolour,alfa,,,84,18,V,R,
424,46,4,10,3,53,27,1384,['c'],1,left,['3'],4,348,[0.09981994],82,53,easy,minus,dotcolour,alfa,,,84,18,V,R,
425,47,5,10,3,36,44,816,['n'],1,right,['3'],4,389,[-0.20631191],95,44,hard,minus,dotcolour,alfa,,,84,18,V,R,
426,48,6,10,3,53,27,1084,['c'],1,left,['3'],4,257,[0.1015841],86,53,easy,minus,dotcolour,alfa,,,84,18,V,R,
427,49,7,10,3,36,44,764,['n'],1,right,['2'],5,278,[-0.11926848],88,44,hard,minus,dotcolour,alfa,,,84,18,V,R,
428,50,8,10,3,44,36,1816,['c'],1,left,['3'],4,593,[0.06560027],68,44,hard,minus,dotcolour,alfa,,,84,18,V,R,
429,51,9,10,3,47,33,1016,['c'],1,left,['3'],4,230,[0.10231649],87,47,medium,minus,dotcolour,alfa,,,84,18,V,R,
430,52,10,10,3,47,33,1035,['c'],1,left,['1'],6,851,[0.26905902],93,47,medium,minus,dotcolour,alfa,,,84,18,V,R,
431,53,11,10,3,33,47,700,['n'],1,right,['1'],6,172,[-0.06736925],81,47,medium,minus,dotcolour,alfa,,,84,18,V,R,
432,54,12,10,3,53,27,583,['c'],1,left,['1'],6,213,[0.01764921],59,53,easy,minus,dotcolour,alfa,,,84,18,V,R,
433,55,13,10,3,47,33,733,['c'],1,left,['3'],4,710,[0.12735719],80,47,medium,minus,dotcolour,alfa,,,84,18,V,R,
434,56,14,10,3,33,47,750,['n'],1,right,['3'],4,322,[-0.17681613],94,47,medium,minus,dotcolour,alfa,,,84,18,V,R,
435,57,15,10,3,53,27,799,['c'],1,left,['3'],4,547,[0.18827287],91,53,easy,minus,dotcolour,alfa,,,84,18,V,R,
436,58,16,10,3,44,36,583,['c'],1,left,['3'],4,341,[0.0290495],61,44,hard,minus,dotcolour,alfa,,,84,18,V,R,
437,59,17,10,3,53,27,531,['c'],1,left,['1'],6,577,[0.20639863],92,53,easy,minus,dotcolour,alfa,,,84,18,V,R,
438,60,18,10,3,44,36,1002,['n'],0,left,['2'],5,649,[-0.00529033],51,44,hard,minus,dotcolour,alfa,,,84,18,V,R,
439,61,19,10,3,33,47,617,['n'],1,right,['3'],4,340,[-0.07795036],77,47,medium,minus,dotcolour,alfa,,,84,18,V,R,
440,62,20,10,3,27,53,733,['n'],1,right,['3'],4,265,[-0.14449039],93,53,easy,minus,dotcolour,alfa,,,84,18,V,R,
441,63,21,10,3,27,53,1017,['n'],1,right,['1'],6,332,[-0.09959519],83,53,easy,minus,dotcolour,alfa,,,84,18,V,R,
442,64,22,10,3,33,47,518,['n'],1,right,['3'],4,369,[-0.18145487],94,47,medium,minus,dotcolour,alfa,,,84,18,V,R,
443,65,23,10,3,27,53,466,['n'],1,right,['3'],4,158,[-0.05464358],78,53,easy,minus,dotcolour,alfa,,,84,18,V,R,
444,66,24,10,3,47,33,1132,['c'],1,left,['2'],5,425,[0.10033081],80,47,medium,minus,dotcolour,alfa,,,84,18,V,R,
445,67,25,10,3,36,44,1334,['n'],1,right,['2'],5,569,[-0.12773604],82,44,hard,minus,dotcolour,alfa,,,84,18,V,R,
446,68,26,10,3,27,53,716,['n'],1,right,['1'],6,292,[-0.12025794],88,53,easy,minus,dotcolour,alfa,,,84,18,V,R,
447,69,27,10,3,33,47,466,['n'],1,right,['1'],6,205,[-0.09909391],88,47,medium,minus,dotcolour,alfa,,,84,18,V,R,
448,70,28,10,3,36,44,434,['n'],1,right,['1'],6,146,[-0.01986671],61,44,hard,minus,dotcolour,alfa,,,84,18,V,R,
449,71,29,10,3,47,33,833,['c'],1,left,['1'],6,250,[0.10474508],87,47,medium,minus,dotcolour,alfa,,,84,18,V,R,
450,72,30,10,3,44,36,1117,['c'],1,left,['2'],5,402,[0.01015826],54,44,hard,minus,dotcolour,alfa,,,84,18,V,R,
451,73,31,10,3,44,36,1068,['n'],0,left,['2'],5,302,[-0.05553446],71,44,hard,minus,dotcolour,alfa,,,84,18,V,R,
452,74,32,10,3,36,44,934,['c'],0,right,['2'],5,403,[0.1123798],83,44,hard,minus,dotcolour,alfa,,,84,18,V,R,
453,75,33,10,3,36,44,567,['n'],1,right,['2'],5,347,[-0.05089015],69,44,hard,minus,dotcolour,alfa,,,84,18,V,R,
454,76,34,10,3,47,33,1301,['c'],1,left,['2'],5,624,[0.13397523],82,47,medium,minus,dotcolour,alfa,,,84,18,V,R,
455,77,35,10,3,53,27,917,['c'],1,left,['1'],6,528,[0.07079382],71,53,easy,minus,dotcolour,alfa,,,84,18,V,R,
456,78,36,10,3,44,36,867,['c'],1,left,['3'],4,263,[0.2064361],97,44,hard,minus,dotcolour,alfa,,,84,18,V,R,
457,79,37,10,3,27,53,551,['n'],1,right,['3'],4,254,[-0.16443431],95,53,easy,minus,dotcolour,alfa,,,84,18,V,R,
458,80,38,10,3,33,47,715,['n'],1,right,['1'],6,509,[-0.06115039],68,47,medium,minus,dotcolour,alfa,,,84,18,V,R,
459,81,39,10,3,27,53,516,['n'],1,right,['3'],4,499,[-0.11983259],82,53,easy,minus,dotcolour,alfa,,,84,18,V,R,
460,82,40,10,3,36,44,666,['n'],1,right,['3'],4,283,[-0.0854703],81,44,hard,minus,dotcolour,alfa,,,84,18,V,R,
461,83,41,10,3,44,36,651,['n'],0,left,['3'],4,461,[-0.17100965],91,44,hard,minus,dotcolour,alfa,,,84,18,V,R,
462,84,0,11,3,36,44,1452,['c'],0,right,['2'],5,618,[0.02449353],57,44,hard,minus,dotcolour,alfa,,,84,18,V,R,
463,85,1,11,3,53,27,1135,['c'],1,left,['1'],6,322,[0.19007492],95,53,easy,minus,dotcolour,alfa,,,84,18,V,R,
464,86,2,11,3,44,36,1082,['c'],1,left,['1'],6,489,[0.08610559],75,44,hard,minus,dotcolour,alfa,,,84,18,V,R,
465,87,3,11,3,33,47,1284,['n'],1,right,['2'],5,400,[-0.17115201],92,47,medium,minus,dotcolour,alfa,,,84,18,V,R,
466,88,4,11,3,47,33,716,['c'],1,left,['2'],5,650,[0.13107133],81,47,medium,minus,dotcolour,alfa,,,84,18,V,R,
467,89,5,11,3,36,44,1201,['n'],1,right,['1'],6,334,[-0.08057226],78,44,hard,minus,dotcolour,alfa,,,84,18,V,R,
468,90,6,11,3,36,44,1333,['c'],0,right,['2'],5,786,[0.09253572],72,44,hard,minus,dotcolour,alfa,,,84,18,V,R,
469,91,7,11,3,53,27,1185,['n'],0,left,['2'],5,330,[-0.01687489],57,53,easy,minus,dotcolour,alfa,,,84,18,V,R,
470,92,8,11,3,27,53,550,['n'],1,right,['1'],6,366,[-0.09991353],82,53,easy,minus,dotcolour,alfa,,,84,18,V,R,
471,93,9,11,3,47,33,850,['c'],1,left,['3'],4,372,[0.104673],82,47,medium,minus,dotcolour,alfa,,,84,18,V,R,
472,94,10,11,3,33,47,601,['n'],1,right,['3'],4,252,[-0.13486543],92,47,medium,minus,dotcolour,alfa,,,84,18,V,R,
473,95,11,11,3,44,36,1800,['c'],1,left,['3'],4,391,[0.0599311],70,44,hard,minus,dotcolour,alfa,,,84,18,V,R,
474,96,12,11,3,36,44,617,['n'],1,right,['3'],4,454,[-0.07526647],73,44,hard,minus,dotcolour,alfa,,,84,18,V,R,
475,97,13,11,3,53,27,950,['c'],1,left,['1'],6,269,[0.03779375],66,53,easy,minus,dotcolour,alfa,,,84,18,V,R,
476,98,14,11,3,53,27,750,['c'],1,left,['1'],6,330,[0.07064273],75,53,easy,minus,dotcolour,alfa,,,84,18,V,R,
477,99,15,11,3,47,33,699,['c'],1,left,['2'],5,336,[-0.02582967],40,47,medium,minus,dotcolour,alfa,,,84,18,V,R,
478,100,16,11,3,33,47,666,['n'],1,right,['2'],5,486,[-0.08339601],75,47,medium,minus,dotcolour,alfa,,,84,18,V,R,
479,101,17,11,3,44,36,1199,['n'],0,left,['2'],5,226,[-0.05239833],73,44,hard,minus,dotcolour,alfa,,,84,18,V,R,
480,102,18,11,3,53,27,681,['c'],1,left,['2'],5,316,[0.12790609],89,53,easy,minus,dotcolour,alfa,,,84,18,V,R,
481,103,19,11,3,47,33,734,['c'],1,left,['2'],5,769,[0.08934678],71,47,medium,minus,dotcolour,alfa,,,84,18,V,R,
482,104,20,11,3,33,47,748,['n'],1,right,['1'],6,163,[-0.03975935],71,47,medium,minus,dotcolour,alfa,,,84,18,V,R,
483,105,21,11,3,27,53,514,['n'],1,right,['1'],6,247,[-0.0705857],78,53,easy,minus,dotcolour,alfa,,,84,18,V,R,
484,106,22,11,3,44,36,900,['n'],0,left,['3'],4,223,[0.01008361],45,44,hard,minus,dotcolour,alfa,,,84,18,V,R,
485,107,23,11,3,47,33,634,['c'],1,left,['3'],4,300,[0.11716593],87,47,medium,minus,dotcolour,alfa,,,84,18,V,R,
486,108,24,11,3,44,36,567,['c'],1,left,['1'],6,305,[0.0712269],76,44,hard,minus,dotcolour,alfa,,,84,18,V,R,
487,109,25,11,3,47,33,664,['c'],1,left,['3'],4,481,[0.22082047],95,47,medium,minus,dotcolour,alfa,,,84,18,V,R,
488,110,26,11,3,33,47,634,['n'],1,right,['1'],6,483,[-0.18527304],92,47,medium,minus,dotcolour,alfa,,,84,18,V,R,
489,111,27,11,3,53,27,1750,['c'],1,left,['1'],6,551,[0.13585139],84,53,easy,minus,dotcolour,alfa,,,84,18,V,R,
490,112,28,11,3,27,53,666,['n'],1,right,['1'],6,285,[-0.15466927],93,53,easy,minus,dotcolour,alfa,,,84,18,V,R,
491,113,29,11,3,44,36,950,['c'],1,left,['3'],4,1195,[0.02874278],56,44,hard,minus,dotcolour,alfa,,,84,18,V,R,
492,114,30,11,3,27,53,484,['n'],1,right,['3'],4,485,[-0.20428389],93,53,easy,minus,dotcolour,alfa,,,84,18,V,R,
493,115,31,11,3,33,47,1000,['n'],1,right,['2'],5,265,[-0.0964729],84,47,medium,minus,dotcolour,alfa,,,84,18,V,R,
494,116,32,11,3,27,53,566,['n'],1,right,['1'],6,311,[-0.12631255],88,53,easy,minus,dotcolour,alfa,,,84,18,V,R,
495,117,33,11,3,47,33,499,['c'],1,left,['2'],5,557,[0.04426842],63,47,medium,minus,dotcolour,alfa,,,84,18,V,R,
496,118,34,11,3,36,44,483,['n'],1,right,['1'],6,258,[-0.06354872],76,44,hard,minus,dotcolour,alfa,,,84,18,V,R,
497,119,35,11,3,53,27,867,['c'],1,left,['1'],6,300,[0.08395532],80,53,easy,minus,dotcolour,alfa,,,84,18,V,R,
498,120,36,11,3,44,36,833,['c'],1,left,['2'],5,286,[0.03799164],65,44,hard,minus,dotcolour,alfa,,,84,18,V,R,
499,121,37,11,3,36,44,482,['n'],1,right,['2'],5,262,[0.00212295],49,44,hard,minus,dotcolour,alfa,,,84,18,V,R,
500,122,38,11,3,27,53,450,['n'],1,right,['1'],6,184,[-0.04153883],71,53,easy,minus,dotcolour,alfa,,,84,18,V,R,
501,123,39,11,3,27,53,399,['n'],1,right,['3'],4,384,[-0.12866103],87,53,easy,minus,dotcolour,alfa,,,84,18,V,R,
502,124,40,11,3,36,44,516,['n'],1,right,['2'],5,587,[-0.03311249],60,44,hard,minus,dotcolour,alfa,,,84,18,V,R,
503,125,41,11,3,33,47,582,['n'],1,right,['2'],5,219,[-0.09892247],87,47,medium,minus,dotcolour,alfa,,,84,18,V,R,
504,0,0,12,4,53,27,601,['c'],1,left,['1'],6,230,[0.02877775],90,53,easy,plus,dotcolour,alfa,,,84,18,V,R,
505,1,1,12,4,44,36,583,['c'],1,left,['2'],5,404,[0.18126393],100,44,hard,plus,dotcolour,alfa,,,84,18,V,R,
506,2,2,12,4,36,44,1018,['c'],0,right,['2'],5,235,[-0.01535727],24,44,hard,plus,dotcolour,alfa,,,84,18,V,R,
507,3,3,12,4,27,53,600,['n'],1,right,['1'],6,233,[-0.08739862],100,53,easy,plus,dotcolour,alfa,,,84,18,V,R,
508,4,4,12,4,53,27,664,['c'],1,left,['1'],6,212,[0.06770541],100,53,easy,plus,dotcolour,alfa,,,84,18,V,R,
509,5,5,12,4,47,33,1101,['c'],1,left,['2'],5,302,[0.00338021],56,47,medium,plus,dotcolour,alfa,,,84,18,V,R,
510,6,6,12,4,44,36,917,['n'],0,left,['2'],5,180,[-0.07284463],100,44,hard,plus,dotcolour,alfa,,,84,18,V,R,
511,7,7,12,4,36,44,552,['n'],1,right,['2'],5,206,[0.00962584],32,44,hard,plus,dotcolour,alfa,,,84,18,V,R,
512,8,8,12,4,36,44,565,['n'],1,right,['1'],6,263,[-0.07898738],100,44,hard,plus,dotcolour,alfa,,,84,18,V,R,
513,9,9,12,4,53,27,617,['c'],1,left,['1'],6,235,[0.20595219],100,53,easy,plus,dotcolour,alfa,,,84,18,V,R,
514,10,10,12,4,33,47,1534,['c'],0,right,['2'],5,346,[-0.01136696],33,47,medium,plus,dotcolour,alfa,,,84,18,V,R,
515,11,11,12,4,44,36,583,['n'],0,left,['2'],5,260,[0.06268611],1,44,hard,plus,dotcolour,alfa,,,84,18,V,R,
516,12,12,12,4,33,47,583,['n'],1,right,['1'],6,202,[-0.08461546],100,47,medium,plus,dotcolour,alfa,,,84,18,V,R,
517,13,13,12,4,44,36,815,['c'],1,left,['1'],6,240,[0.1240024],100,44,hard,plus,dotcolour,alfa,,,84,18,V,R,
518,14,14,12,4,36,44,816,['n'],1,right,['1'],6,444,[-0.07327708],98,44,hard,plus,dotcolour,alfa,,,84,18,V,R,
519,15,15,12,4,47,33,1184,['c'],1,left,['2'],5,818,[0.1618784],100,47,medium,plus,dotcolour,alfa,,,84,18,V,R,
520,16,16,12,4,44,36,1000,['c'],1,left,['2'],5,327,[0.07940465],99,44,hard,plus,dotcolour,alfa,,,84,18,V,R,
521,17,17,12,4,36,44,749,['c'],0,right,['2'],5,251,[0.10857946],100,44,hard,plus,dotcolour,alfa,,,84,18,V,R,
522,18,18,12,4,27,53,782,['n'],1,right,['1'],6,193,[-0.08266488],100,53,easy,plus,dotcolour,alfa,,,84,18,V,R,
523,19,19,12,4,27,53,583,['n'],1,right,['1'],6,217,[-0.13468138],100,53,easy,plus,dotcolour,alfa,,,84,18,V,R,
524,20,20,12,4,36,44,1500,['c'],0,right,['2'],5,555,[0.04030786],88,44,hard,plus,dotcolour,alfa,,,84,18,V,R,
525,21,21,12,4,36,44,784,['n'],1,right,['1'],6,347,[-0.10755419],100,44,hard,plus,dotcolour,alfa,,,84,18,V,R,
526,22,22,12,4,47,33,1166,['c'],1,left,['2'],5,390,[0.00181748],53,47,medium,plus,dotcolour,alfa,,,84,18,V,R,
527,23,23,12,4,27,53,532,['n'],1,right,['1'],6,160,[-0.11814542],100,53,easy,plus,dotcolour,alfa,,,84,18,V,R,
528,24,24,12,4,27,53,465,['n'],1,right,['1'],6,165,[-0.13426938],100,53,easy,plus,dotcolour,alfa,,,84,18,V,R,
529,25,25,12,4,47,33,901,['c'],1,left,['2'],5,490,[0.12482999],100,47,medium,plus,dotcolour,alfa,,,84,18,V,R,
530,26,26,12,4,33,47,667,['n'],1,right,['1'],6,410,[-0.0019969],53,47,medium,plus,dotcolour,alfa,,,84,18,V,R,
531,27,27,12,4,27,53,434,['n'],1,right,['2'],5,367,[-0.17027411],100,53,easy,plus,dotcolour,alfa,,,84,18,V,R,
532,28,28,12,4,33,47,466,['n'],1,right,['2'],5,277,[-0.1777928],100,47,medium,plus,dotcolour,alfa,,,84,18,V,R,
533,29,29,12,4,27,53,449,['n'],1,right,['2'],5,159,[-0.0497169],99,53,easy,plus,dotcolour,alfa,,,84,18,V,R,
534,30,30,12,4,33,47,500,['n'],1,right,['1'],6,323,[-0.20439924],100,47,medium,plus,dotcolour,alfa,,,84,18,V,R,
535,31,31,12,4,47,33,768,['c'],1,left,['2'],5,462,[0.21326957],100,47,medium,plus,dotcolour,alfa,,,84,18,V,R,
536,32,32,12,4,53,27,1217,['c'],1,left,['2'],5,674,[0.1758703],100,53,easy,plus,dotcolour,alfa,,,84,18,V,R,
537,33,33,12,4,33,47,583,['n'],1,right,['1'],6,246,[-0.13959976],100,47,medium,plus,dotcolour,alfa,,,84,18,V,R,
538,34,34,12,4,47,33,901,['n'],0,left,['1'],6,599,[-0.08183895],98,47,medium,plus,dotcolour,alfa,,,84,18,V,R,
539,35,35,12,4,53,27,584,['c'],1,left,['1'],6,382,[0.09748539],100,53,easy,plus,dotcolour,alfa,,,84,18,V,R,
540,36,36,12,4,53,27,633,['c'],1,left,['1'],6,301,[0.00476998],58,53,easy,plus,dotcolour,alfa,,,84,18,V,R,
541,37,37,12,4,47,33,899,['n'],0,left,['2'],5,332,[-0.08411296],99,47,medium,plus,dotcolour,alfa,,,84,18,V,R,
542,38,38,12,4,33,47,600,['n'],1,right,['1'],6,478,[-0.18407733],100,47,medium,plus,dotcolour,alfa,,,84,18,V,R,
543,39,39,12,4,44,36,798,['c'],1,left,['2'],5,321,[0.09433788],100,44,hard,plus,dotcolour,alfa,,,84,18,V,R,
544,40,40,12,4,44,36,516,['c'],1,left,['2'],5,310,[0.1408386],100,44,hard,plus,dotcolour,alfa,,,84,18,V,R,
545,41,41,12,4,53,27,532,['c'],1,left,['1'],6,363,[0.20033808],100,53,easy,plus,dotcolour,alfa,,,84,18,V,R,
546,42,0,13,4,53,27,1068,['c'],1,left,['2'],5,674,[0.22115959],100,53,easy,plus,dotcolour,alfa,,,84,18,V,R,
547,43,1,13,4,33,47,585,['n'],1,right,['1'],6,350,[-0.07781627],99,47,medium,plus,dotcolour,alfa,,,84,18,V,R,
548,44,2,13,4,53,27,549,['c'],1,left,['1'],6,330,[0.1511019],100,53,easy,plus,dotcolour,alfa,,,84,18,V,R,
549,45,3,13,4,36,44,815,['n'],1,right,['2'],5,443,[-0.08995009],99,44,hard,plus,dotcolour,alfa,,,84,18,V,R,
550,46,4,13,4,47,33,566,['c'],1,left,['2'],5,321,[0.17617084],100,47,medium,plus,dotcolour,alfa,,,84,18,V,R,
551,47,5,13,4,36,44,531,['n'],1,right,['2'],5,206,[-0.0614784],99,44,hard,plus,dotcolour,alfa,,,84,18,V,R,
552,48,6,13,4,33,47,616,['n'],1,right,['2'],5,181,[-0.07412124],100,47,medium,plus,dotcolour,alfa,,,84,18,V,R,
553,49,7,13,4,44,36,566,['n'],0,left,['2'],5,158,[-0.08249204],100,44,hard,plus,dotcolour,alfa,,,84,18,V,R,
554,50,8,13,4,27,53,482,['n'],1,right,['2'],5,163,[-0.19610473],100,53,easy,plus,dotcolour,alfa,,,84,18,V,R,
555,51,9,13,4,47,33,983,['n'],0,left,['2'],5,197,[-0.12361816],100,47,medium,plus,dotcolour,alfa,,,84,18,V,R,
556,52,10,13,4,53,27,1083,['c'],1,left,['2'],5,184,[0.09313452],100,53,easy,plus,dotcolour,alfa,,,84,18,V,R,
557,53,11,13,4,33,47,1168,['n'],1,right,['2'],5,225,[-0.19005739],100,47,medium,plus,dotcolour,alfa,,,84,18,V,R,
558,54,12,13,4,27,53,601,['n'],1,right,['2'],5,167,[-0.05096348],99,53,easy,plus,dotcolour,alfa,,,84,18,V,R,
559,55,13,13,4,53,27,551,['c'],1,left,['1'],6,217,[0.05311267],98,53,easy,plus,dotcolour,alfa,,,84,18,V,R,
560,56,14,13,4,47,33,984,['c'],1,left,['2'],5,336,[0.07434339],99,47,medium,plus,dotcolour,alfa,,,84,18,V,R,
561,57,15,13,4,53,27,1184,['c'],1,left,['1'],6,274,[0.03638855],92,53,easy,plus,dotcolour,alfa,,,84,18,V,R,
562,58,16,13,4,27,53,767,['n'],1,right,['3'],4,223,[-0.04231331],96,53,easy,plus,dotcolour,alfa,,,84,18,V,R,
563,59,17,13,4,47,33,817,['n'],0,left,['2'],5,228,[-0.07875441],100,47,medium,plus,dotcolour,alfa,,,84,18,V,R,
564,60,18,13,4,33,47,551,['n'],1,right,['2'],5,212,[-0.0486392],98,47,medium,plus,dotcolour,alfa,,,84,18,V,R,
565,61,19,13,4,33,47,1802,['c'],0,right,['2'],5,249,[-0.03997051],5,47,medium,plus,dotcolour,alfa,,,84,18,V,R,
566,62,20,13,4,36,44,1184,['c'],0,right,['2'],5,279,[0.08764547],100,44,hard,plus,dotcolour,alfa,,,84,18,V,R,
567,63,21,13,4,27,53,550,['n'],1,right,['1'],6,253,[-0.0483935],97,53,easy,plus,dotcolour,alfa,,,84,18,V,R,
568,64,22,13,4,47,33,1133,['c'],1,left,['2'],5,436,[-0.00451494],44,47,medium,plus,dotcolour,alfa,,,84,18,V,R,
569,65,23,13,4,47,33,1200,['c'],1,left,['2'],5,393,[0.09587452],100,47,medium,plus,dotcolour,alfa,,,84,18,V,R,
570,66,24,13,4,47,33,716,['c'],1,left,['2'],5,388,[0.1249891],100,47,medium,plus,dotcolour,alfa,,,84,18,V,R,
571,67,25,13,4,33,47,934,['n'],1,right,['2'],5,262,[-0.05365617],98,47,medium,plus,dotcolour,alfa,,,84,18,V,R,
572,68,26,13,4,44,36,767,['c'],1,left,['2'],5,220,[0.125646],100,44,hard,plus,dotcolour,alfa,,,84,18,V,R,
573,69,27,13,4,44,36,834,['c'],1,left,['2'],5,185,[0.13420643],100,44,hard,plus,dotcolour,alfa,,,84,18,V,R,
574,70,28,13,4,27,53,535,['n'],1,right,['1'],6,411,[-0.11571451],100,53,easy,plus,dotcolour,alfa,,,84,18,V,R,
575,71,29,13,4,27,53,433,['n'],1,right,['1'],6,240,[-0.13577269],100,53,easy,plus,dotcolour,alfa,,,84,18,V,R,
576,72,30,13,4,44,36,766,['c'],1,left,['2'],5,279,[0.11083288],100,44,hard,plus,dotcolour,alfa,,,84,18,V,R,
577,73,31,13,4,44,36,681,['c'],1,left,['2'],5,679,[0.12077587],99,44,hard,plus,dotcolour,alfa,,,84,18,V,R,
578,74,32,13,4,33,47,1216,['n'],1,right,['2'],5,233,[-0.09744254],100,47,medium,plus,dotcolour,alfa,,,84,18,V,R,
579,75,33,13,4,36,44,751,['n'],1,right,['2'],5,265,[-0.05194272],97,44,hard,plus,dotcolour,alfa,,,84,18,V,R,
580,76,34,13,4,36,44,566,['n'],1,right,['2'],5,183,[-0.10346705],100,44,hard,plus,dotcolour,alfa,,,84,18,V,R,
581,77,35,13,4,36,44,684,['n'],1,right,['2'],5,235,[-0.11263065],100,44,hard,plus,dotcolour,alfa,,,84,18,V,R,
582,78,36,13,4,44,36,568,['n'],0,left,['2'],5,675,[0.00196687],48,44,hard,plus,dotcolour,alfa,,,84,18,V,R,
583,79,37,13,4,53,27,535,['c'],1,left,['2'],5,297,[0.19469427],100,53,easy,plus,dotcolour,alfa,,,84,18,V,R,
584,80,38,13,4,36,44,701,['n'],1,right,['2'],5,248,[-0.02175891],83,44,hard,plus,dotcolour,alfa,,,84,18,V,R,
585,81,39,13,4,44,36,915,['n'],0,left,['2'],5,256,[-0.12641907],100,44,hard,plus,dotcolour,alfa,,,84,18,V,R,
586,82,40,13,4,27,53,467,['n'],1,right,['2'],5,306,[-0.23212476],100,53,easy,plus,dotcolour,alfa,,,84,18,V,R,
587,83,41,13,4,53,27,683,['c'],1,left,['1'],6,226,[0.0668323],99,53,easy,plus,dotcolour,alfa,,,84,18,V,R,
588,84,0,14,4,36,44,601,['n'],1,right,['1'],6,278,[-0.18137209],100,44,hard,plus,dotcolour,alfa,,,84,18,V,R,
589,85,1,14,4,53,27,716,['c'],1,left,['1'],6,269,[0.10547829],100,53,easy,plus,dotcolour,alfa,,,84,18,V,R,
590,86,2,14,4,44,36,1900,['c'],1,left,['2'],5,339,[0.05747426],97,44,hard,plus,dotcolour,alfa,,,84,18,V,R,
591,87,3,14,4,44,36,733,['c'],1,left,['2'],5,447,[0.08638321],99,44,hard,plus,dotcolour,alfa,,,84,18,V,R,
592,88,4,14,4,47,33,1201,['c'],1,left,['2'],5,275,[0.03341007],91,47,medium,plus,dotcolour,alfa,,,84,18,V,R,
593,89,5,14,4,36,44,565,['n'],1,right,['2'],5,217,[-0.0493711],98,44,hard,plus,dotcolour,alfa,,,84,18,V,R,
594,90,6,14,4,27,53,597,['n'],1,right,['2'],5,167,[-0.13257511],100,53,easy,plus,dotcolour,alfa,,,84,18,V,R,
595,91,7,14,4,36,44,850,['n'],1,right,['2'],5,206,[-0.11948262],100,44,hard,plus,dotcolour,alfa,,,84,18,V,R,
596,92,8,14,4,53,27,582,['c'],1,left,['1'],6,221,[0.07371983],100,53,easy,plus,dotcolour,alfa,,,84,18,V,R,
597,93,9,14,4,47,33,1285,['c'],1,left,['1'],6,432,[0.10411946],100,47,medium,plus,dotcolour,alfa,,,84,18,V,R,
598,94,10,14,4,36,44,816,['n'],1,right,['3'],4,229,[-0.05911249],99,44,hard,plus,dotcolour,alfa,,,84,18,V,R,
599,95,11,14,4,47,33,817,['c'],1,left,['2'],5,274,[0.1127862],100,47,medium,plus,dotcolour,alfa,,,84,18,V,R,
600,96,12,14,4,36,44,1218,['n'],1,right,['2'],5,277,[-0.05669534],98,44,hard,plus,dotcolour,alfa,,,84,18,V,R,
601,97,13,14,4,27,53,599,['n'],1,right,['2'],5,288,[-0.173276],100,53,easy,plus,dotcolour,alfa,,,84,18,V,R,
602,98,14,14,4,47,33,900,['c'],1,left,['2'],5,279,[0.03425356],91,47,medium,plus,dotcolour,alfa,,,84,18,V,R,
603,99,15,14,4,27,53,533,['n'],1,right,['1'],6,302,[-0.04493669],95,53,easy,plus,dotcolour,alfa,,,84,18,V,R,
604,100,16,14,4,27,53,650,['n'],1,right,['1'],6,239,[-0.14488614],100,53,easy,plus,dotcolour,alfa,,,84,18,V,R,
605,101,17,14,4,53,27,715,['c'],1,left,['1'],6,223,[0.06571159],99,53,easy,plus,dotcolour,alfa,,,84,18,V,R,
606,102,18,14,4,53,27,1016,['c'],1,left,['1'],6,229,[0.0173475],79,53,easy,plus,dotcolour,alfa,,,84,18,V,R,
607,103,19,14,4,44,36,518,['c'],1,left,['2'],5,222,[0.03652227],94,44,hard,plus,dotcolour,alfa,,,84,18,V,R,
608,104,20,14,4,27,53,467,['n'],1,right,['1'],6,242,[-0.24761056],100,53,easy,plus,dotcolour,alfa,,,84,18,V,R,
609,105,21,14,4,33,47,516,['n'],1,right,['2'],5,251,[-0.09443378],100,47,medium,plus,dotcolour,alfa,,,84,18,V,R,
610,106,22,14,4,36,44,599,['n'],1,right,['2'],5,240,[-0.05694256],98,44,hard,plus,dotcolour,alfa,,,84,18,V,R,
611,107,23,14,4,44,36,933,['c'],1,left,['1'],6,272,[0.14810273],100,44,hard,plus,dotcolour,alfa,,,84,18,V,R,
612,108,24,14,4,33,47,583,['n'],1,right,['2'],5,861,[-0.22110098],100,47,medium,plus,dotcolour,alfa,,,84,18,V,R,
613,109,25,14,4,47,33,1217,['c'],1,left,['2'],5,584,[0.10613929],99,47,medium,plus,dotcolour,alfa,,,84,18,V,R,
614,110,26,14,4,53,27,1016,['c'],1,left,['1'],6,238,[0.03074091],91,53,easy,plus,dotcolour,alfa,,,84,18,V,R,
615,111,27,14,4,27,53,733,['n'],1,right,['3'],4,246,[-0.1279118],100,53,easy,plus,dotcolour,alfa,,,84,18,V,R,
616,112,28,14,4,47,33,799,['c'],1,left,['3'],4,259,[0.02227127],83,47,medium,plus,dotcolour,alfa,,,84,18,V,R,
617,113,29,14,4,53,27,650,['c'],1,left,['1'],6,238,[0.11069195],100,53,easy,plus,dotcolour,alfa,,,84,18,V,R,
618,114,30,14,4,44,36,1484,['c'],1,left,['1'],6,424,[0.12249389],100,44,hard,plus,dotcolour,alfa,,,84,18,V,R,
619,115,31,14,4,33,47,932,['n'],1,right,['2'],5,432,[-0.16238036],100,47,medium,plus,dotcolour,alfa,,,84,18,V,R,
620,116,32,14,4,47,33,567,['c'],1,left,['2'],5,335,[0.196893],100,47,medium,plus,dotcolour,alfa,,,84,18,V,R,
621,117,33,14,4,27,53,684,['n'],1,right,['1'],6,301,[-0.09536815],100,53,easy,plus,dotcolour,alfa,,,84,18,V,R,
622,118,34,14,4,33,47,1016,['c'],0,right,['2'],5,238,[0.07337018],100,47,medium,plus,dotcolour,alfa,,,84,18,V,R,
623,119,35,14,4,33,47,1184,['n'],1,right,['2'],5,364,[-0.09866821],100,47,medium,plus,dotcolour,alfa,,,84,18,V,R,
624,120,36,14,4,36,44,1016,['n'],1,right,['2'],5,419,[-0.01013186],64,44,hard,plus,dotcolour,alfa,,,84,18,V,R,
625,121,37,14,4,44,36,1099,['n'],0,left,['1'],6,285,[0.01061767],33,44,hard,plus,dotcolour,alfa,,,84,18,V,R,
626,122,38,14,4,33,47,649,['n'],1,right,['2'],5,383,[-0.12249425],100,47,medium,plus,dotcolour,alfa,,,84,18,V,R,
627,123,39,14,4,53,27,684,['c'],1,left,['1'],6,252,[0.10524292],100,53,easy,plus,dotcolour,alfa,,,84,18,V,R,
628,124,40,14,4,44,36,885,['c'],1,left,['2'],5,237,[0.09496519],100,44,hard,plus,dotcolour,alfa,,,84,18,V,R,
629,125,41,14,4,33,47,583,['n'],1,right,['1'],6,203,[-0.07839821],100,47,medium,plus,dotcolour,alfa,,,84,18,V,R,
630,0,0,15,5,44,36,1286,['c'],1,left,['2'],5,268,[0.08027391],80,44,hard,minus,dotcolour,alfa,,,84,18,V,R,
631,1,1,15,5,33,47,550,['n'],1,right,['2'],5,235,[-0.17487481],96,47,medium,minus,dotcolour,alfa,,,84,18,V,R,
632,2,2,15,5,53,27,883,['c'],1,left,['2'],5,302,[0.0934997],82,53,easy,minus,dotcolour,alfa,,,84,18,V,R,
633,3,3,15,5,33,47,700,['n'],1,right,['1'],6,244,[-0.01924839],59,47,medium,minus,dotcolour,alfa,,,84,18,V,R,
634,4,4,15,5,44,36,917,['c'],1,left,['2'],5,267,[0.09128388],83,44,hard,minus,dotcolour,alfa,,,84,18,V,R,
635,5,5,15,5,33,47,751,['n'],1,right,['2'],5,195,[-0.13712363],94,47,medium,minus,dotcolour,alfa,,,84,18,V,R,
636,6,6,15,5,47,33,1100,['c'],1,left,['2'],5,189,[0.0593032],77,47,medium,minus,dotcolour,alfa,,,84,18,V,R,
637,7,7,15,5,36,44,649,['n'],1,right,['2'],5,227,[-0.12269759],91,44,hard,minus,dotcolour,alfa,,,84,18,V,R,
638,8,8,15,5,33,47,584,['n'],1,right,['2'],5,153,[-0.12414188],95,47,medium,minus,dotcolour,alfa,,,84,18,V,R,
639,9,9,15,5,33,47,616,['n'],1,right,['2'],5,202,[-0.06594332],79,47,medium,minus,dotcolour,alfa,,,84,18,V,R,
640,10,10,15,5,27,53,632,['n'],1,right,['3'],4,560,[-0.03752202],61,53,easy,minus,dotcolour,alfa,,,84,18,V,R,
641,11,11,15,5,44,36,919,['c'],1,left,['3'],4,443,[-0.00543348],48,44,hard,minus,dotcolour,alfa,,,84,18,V,R,
642,12,12,15,5,47,33,633,['c'],1,left,['2'],5,375,[0.29306697],99,47,medium,minus,dotcolour,alfa,,,84,18,V,R,
643,13,13,15,5,53,27,1651,['c'],1,left,['2'],5,268,[0.1341987],91,53,easy,minus,dotcolour,alfa,,,84,18,V,R,
644,14,14,15,5,36,44,749,['n'],1,right,['2'],5,217,[-0.1818289],97,44,hard,minus,dotcolour,alfa,,,84,18,V,R,
645,15,15,15,5,36,44,950,['n'],1,right,['2'],5,194,[-0.14181807],95,44,hard,minus,dotcolour,alfa,,,84,18,V,R,
646,16,16,15,5,53,27,600,['c'],1,left,['2'],5,554,[0.19528814],91,53,easy,minus,dotcolour,alfa,,,84,18,V,R,
647,17,17,15,5,33,47,649,['n'],1,right,['1'],6,280,[-0.15550629],93,47,medium,minus,dotcolour,alfa,,,84,18,V,R,
648,18,18,15,5,53,27,731,['c'],1,left,['2'],5,198,[0.13876132],94,53,easy,minus,dotcolour,alfa,,,84,18,V,R,
649,19,19,15,5,27,53,533,['n'],1,right,['1'],6,264,[-0.2323475],98,53,easy,minus,dotcolour,alfa,,,84,18,V,R,
650,20,20,15,5,36,44,899,['n'],1,right,['2'],5,233,[-0.12933137],92,44,hard,minus,dotcolour,alfa,,,84,18,V,R,
651,21,21,15,5,27,53,499,['n'],1,right,['2'],5,195,[-0.15209995],96,53,easy,minus,dotcolour,alfa,,,84,18,V,R,
652,22,22,15,5,44,36,1502,['c'],1,left,['2'],5,269,[0.14029842],92,44,hard,minus,dotcolour,alfa,,,84,18,V,R,
653,23,23,15,5,27,53,533,['n'],1,right,['1'],6,573,[-0.15934694],87,53,easy,minus,dotcolour,alfa,,,84,18,V,R,
654,24,24,15,5,47,33,1184,['c'],1,left,['2'],5,380,[0.09192626],79,47,medium,minus,dotcolour,alfa,,,84,18,V,R,
655,25,25,15,5,36,44,585,['n'],1,right,['2'],5,237,[-0.08624602],83,44,hard,minus,dotcolour,alfa,,,84,18,V,R,
656,26,26,15,5,47,33,885,['c'],1,left,['1'],6,279,[0.16360115],94,47,medium,minus,dotcolour,alfa,,,84,18,V,R,
657,27,27,15,5,47,33,1401,['c'],1,left,['2'],5,210,[0.20223758],98,47,medium,minus,dotcolour,alfa,,,84,18,V,R,
658,28,28,15,5,53,27,1017,['c'],1,left,['2'],5,176,[0.17669094],98,53,easy,minus,dotcolour,alfa,,,84,18,V,R,
659,29,29,15,5,53,27,798,['c'],1,left,['1'],6,176,[0.14957802],96,53,easy,minus,dotcolour,alfa,,,84,18,V,R,
660,30,30,15,5,27,53,901,['n'],1,right,['2'],5,195,[-0.09026021],86,53,easy,minus,dotcolour,alfa,,,84,18,V,R,
661,31,31,15,5,44,36,1033,['n'],0,left,['2'],5,201,[-0.05217962],74,44,hard,minus,dotcolour,alfa,,,84,18,V,R,
662,32,32,15,5,36,44,817,['n'],1,right,['2'],5,151,[-0.08503756],88,44,hard,minus,dotcolour,alfa,,,84,18,V,R,
663,33,33,15,5,27,53,533,['n'],1,right,['2'],5,147,[-0.04645188],75,53,easy,minus,dotcolour,alfa,,,84,18,V,R,
664,34,34,15,5,33,47,582,['n'],1,right,['1'],6,197,[-0.13133943],93,47,medium,minus,dotcolour,alfa,,,84,18,V,R,
665,35,35,15,5,47,33,833,['n'],0,left,['2'],5,139,[-0.03219465],69,47,medium,minus,dotcolour,alfa,,,84,18,V,R,
666,36,36,15,5,27,53,566,['n'],1,right,['1'],6,254,[-0.11612704],89,53,easy,minus,dotcolour,alfa,,,84,18,V,R,
667,37,37,15,5,44,36,1835,['n'],0,left,['2'],5,456,[-0.05389876],67,44,hard,minus,dotcolour,alfa,,,84,18,V,R,
668,38,38,15,5,36,44,868,['n'],1,right,['9'],2,386,[0.05576163],31,44,hard,minus,dotcolour,alfa,,,84,18,V,R,
669,39,39,15,5,47,33,766,['c'],1,left,['1'],6,186,[0.11774073],92,47,medium,minus,dotcolour,alfa,,,84,18,V,R,
670,40,40,15,5,53,27,517,['c'],1,left,['2'],5,213,[0.12986531],93,53,easy,minus,dotcolour,alfa,,,84,18,V,R,
671,41,41,15,5,44,36,699,['c'],1,left,['1'],6,184,[0.07315799],82,44,hard,minus,dotcolour,alfa,,,84,18,V,R,
672,42,0,16,5,27,53,734,['n'],1,right,['2'],5,770,[-0.24545709],93,53,easy,minus,dotcolour,alfa,,,84,18,V,R,
673,43,1,16,5,27,53,666,['n'],1,right,['2'],5,199,[-0.09657292],88,53,easy,minus,dotcolour,alfa,,,84,18,V,R,
674,44,2,16,5,53,27,666,['c'],1,left,['2'],5,203,[0.08403438],84,53,easy,minus,dotcolour,alfa,,,84,18,V,R,
675,45,3,16,5,27,53,482,['n'],1,right,['2'],5,199,[-0.08110363],84,53,easy,minus,dotcolour,alfa,,,84,18,V,R,
676,46,4,16,5,53,27,733,['c'],1,left,['1'],6,258,[0.05235946],72,53,easy,minus,dotcolour,alfa,,,84,18,V,R,
677,47,5,16,5,33,47,634,['n'],1,right,['2'],5,172,[-0.03495106],68,47,medium,minus,dotcolour,alfa,,,84,18,V,R,
678,48,6,16,5,33,47,634,['c'],0,right,['2'],5,228,[0.05691834],75,47,medium,minus,dotcolour,alfa,,,84,18,V,R,
679,49,7,16,5,36,44,533,['c'],0,right,['9'],2,1212,[-0.00444661],49,44,hard,minus,dotcolour,alfa,,,84,18,V,R,
680,50,8,16,5,33,47,567,['n'],1,right,['2'],5,211,[-0.07884135],82,47,medium,minus,dotcolour,alfa,,,84,18,V,R,
681,51,9,16,5,44,36,868,['c'],1,left,['1'],6,302,[0.07708831],78,44,hard,minus,dotcolour,alfa,,,84,18,V,R,
682,52,10,16,5,44,36,784,['n'],0,left,['2'],5,209,[-0.05829127],76,44,hard,minus,dotcolour,alfa,,,84,18,V,R,
683,53,11,16,5,44,36,1068,['c'],1,left,['2'],5,229,[0.18306784],97,44,hard,minus,dotcolour,alfa,,,84,18,V,R,
684,54,12,16,5,47,33,1118,['c'],1,left,['2'],5,166,[0.10118512],90,47,medium,minus,dotcolour,alfa,,,84,18,V,R,
685,55,13,16,5,36,44,1101,['c'],0,right,['2'],5,202,[0.19278009],98,44,hard,minus,dotcolour,alfa,,,84,18,V,R,
686,56,14,16,5,33,47,917,['n'],1,right,['2'],5,204,[-0.11855124],91,47,medium,minus,dotcolour,alfa,,,84,18,V,R,
687,57,15,16,5,47,33,1051,['n'],0,left,['2'],5,193,[-0.06773753],80,47,medium,minus,dotcolour,alfa,,,84,18,V,R,
688,58,16,16,5,33,47,583,['n'],1,right,['2'],5,153,[-0.08878566],89,47,medium,minus,dotcolour,alfa,,,84,18,V,R,
689,59,17,16,5,53,27,817,['c'],1,left,['2'],5,137,[0.06068924],81,53,easy,minus,dotcolour,alfa,,,84,18,V,R,
690,60,18,16,5,44,36,734,['n'],0,left,['2'],5,134,[-0.09094078],90,44,hard,minus,dotcolour,alfa,,,84,18,V,R,
691,61,19,16,5,47,33,1066,['c'],1,left,['2'],5,549,[0.06636812],69,47,medium,minus,dotcolour,alfa,,,84,18,V,R,
692,62,20,16,5,47,33,1802,['n'],0,left,['2'],5,228,[-0.07677242],81,47,medium,minus,dotcolour,alfa,,,84,18,V,R,
693,63,21,16,5,36,44,549,['n'],1,right,['2'],5,156,[-0.06165229],80,44,hard,minus,dotcolour,alfa,,,84,18,V,R,
694,64,22,16,5,36,44,883,['n'],1,right,['2'],5,162,[-0.09513954],89,44,hard,minus,dotcolour,alfa,,,84,18,V,R,
695,65,23,16,5,27,53,599,['n'],1,right,['1'],6,283,[-0.17417148],95,53,easy,minus,dotcolour,alfa,,,84,18,V,R,
696,66,24,16,5,47,33,733,['n'],0,left,['2'],5,225,[-0.05473274],74,47,medium,minus,dotcolour,alfa,,,84,18,V,R,
697,67,25,16,5,47,33,900,['n'],0,left,['2'],5,203,[-0.03513879],67,47,medium,minus,dotcolour,alfa,,,84,18,V,R,
698,68,26,16,5,33,47,615,['n'],1,right,['1'],6,233,[-0.10230827],87,47,medium,minus,dotcolour,alfa,,,84,18,V,R,
699,69,27,16,5,53,27,1216,['c'],1,left,['1'],6,422,[0.07010851],73,53,easy,minus,dotcolour,alfa,,,84,18,V,R,
700,70,28,16,5,53,27,481,['c'],1,left,['2'],5,281,[0.0649558],75,53,easy,minus,dotcolour,alfa,,,84,18,V,R,
701,71,29,16,5,44,36,650,['c'],1,left,['2'],5,186,[0.13938801],95,44,hard,minus,dotcolour,alfa,,,84,18,V,R,
702,72,30,16,5,44,36,1250,['n'],0,left,['2'],5,184,[-0.0521785],75,44,hard,minus,dotcolour,alfa,,,84,18,V,R,
703,73,31,16,5,53,27,1250,['c'],1,left,['2'],5,212,[0.16575303],96,53,easy,minus,dotcolour,alfa,,,84,18,V,R,
704,74,32,16,5,36,44,785,['c'],0,right,['2'],5,196,[0.06343785],78,44,hard,minus,dotcolour,alfa,,,84,18,V,R,
705,75,33,16,5,36,44,831,['c'],0,right,['2'],5,178,[0.00834623],54,44,hard,minus,dotcolour,alfa,,,84,18,V,R,
706,76,34,16,5,44,36,1218,['c'],1,left,['2'],5,208,[0.08483175],84,44,hard,minus,dotcolour,alfa,,,84,18,V,R,
707,77,35,16,5,53,27,699,['c'],1,left,['1'],6,163,[0.12115574],94,53,easy,minus,dotcolour,alfa,,,84,18,V,R,
708,78,36,16,5,27,53,683,['n'],1,right,['1'],6,192,[-0.07992589],84,53,easy,minus,dotcolour,alfa,,,84,18,V,R,
709,79,37,16,5,36,44,951,['c'],0,right,['2'],5,441,[0.17750031],92,44,hard,minus,dotcolour,alfa,,,84,18,V,R,
710,80,38,16,5,47,33,884,['c'],1,left,['3'],4,1043,[0.08574282],68,47,medium,minus,dotcolour,alfa,,,84,18,V,R,
711,81,39,16,5,33,47,799,['n'],1,right,['1'],6,175,[-0.09629638],89,47,medium,minus,dotcolour,alfa,,,84,18,V,R,
712,82,40,16,5,27,53,633,['n'],1,right,['1'],6,181,[-0.06403624],79,53,easy,minus,dotcolour,alfa,,,84,18,V,R,
713,83,41,16,5,27,53,449,['n'],1,right,['2'],5,172,[-0.0497432],75,53,easy,minus,dotcolour,alfa,,,84,18,V,R,
714,84,0,17,5,53,27,634,['c'],1,left,['1'],6,230,[0.11688575],90,53,easy,minus,dotcolour,alfa,,,84,18,V,R,
715,85,1,17,5,47,33,883,['c'],1,left,['1'],6,184,[0.13191016],94,47,medium,minus,dotcolour,alfa,,,84,18,V,R,
716,86,2,17,5,47,33,633,['c'],1,left,['1'],6,238,[0.2049738],98,47,medium,minus,dotcolour,alfa,,,84,18,V,R,
717,87,3,17,5,27,53,632,['n'],1,right,['1'],6,171,[-0.01847779],60,53,easy,minus,dotcolour,alfa,,,84,18,V,R,
718,88,4,17,5,44,36,650,['c'],1,left,['1'],6,201,[0.05496637],75,44,hard,minus,dotcolour,alfa,,,84,18,V,R,
719,89,5,17,5,53,27,650,['c'],1,left,['2'],5,215,[0.15168777],95,53,easy,minus,dotcolour,alfa,,,84,18,V,R,
720,90,6,17,5,27,53,533,['n'],1,right,['2'],5,192,[-0.11105887],91,53,easy,minus,dotcolour,alfa,,,84,18,V,R,
721,91,7,17,5,33,47,632,['n'],1,right,['2'],5,142,[-0.02053562],62,47,medium,minus,dotcolour,alfa,,,84,18,V,R,
722,92,8,17,5,47,33,465,['c'],1,left,['2'],5,165,[0.17780477],98,47,medium,minus,dotcolour,alfa,,,84,18,V,R,
723,93,9,17,5,53,27,817,['c'],1,left,['2'],5,212,[0.10841812],89,53,easy,minus,dotcolour,alfa,,,84,18,V,R,
724,94,10,17,5,44,36,901,['n'],0,left,['2'],5,351,[-0.11491934],85,44,hard,minus,dotcolour,alfa,,,84,18,V,R,
725,95,11,17,5,27,53,615,['n'],1,right,['2'],5,399,[-0.04066298],64,53,easy,minus,dotcolour,alfa,,,84,18,V,R,
726,96,12,17,5,36,44,716,['n'],1,right,['1'],6,586,[-0.13002752],82,44,hard,minus,dotcolour,alfa,,,84,18,V,R,
727,97,13,17,5,47,33,432,['c'],1,left,['2'],5,287,[0.06856314],76,47,medium,minus,dotcolour,alfa,,,84,18,V,R,
728,98,14,17,5,33,47,1236,['c'],0,right,['2'],5,257,[0.00654426],53,47,medium,minus,dotcolour,alfa,,,84,18,V,R,
729,99,15,17,5,36,44,634,['n'],1,right,['2'],5,133,[-0.08338448],89,44,hard,minus,dotcolour,alfa,,,84,18,V,R,
730,100,16,17,5,44,36,782,['c'],1,left,['2'],5,175,[0.06455751],80,44,hard,minus,dotcolour,alfa,,,84,18,V,R,
731,101,17,17,5,36,44,866,['c'],0,right,['2'],5,181,[0.00170135],51,44,hard,minus,dotcolour,alfa,,,84,18,V,R,
732,102,18,17,5,53,27,466,['c'],1,left,['2'],5,186,[0.1505319],96,53,easy,minus,dotcolour,alfa,,,84,18,V,R,
733,103,19,17,5,36,44,682,['n'],1,right,['2'],5,158,[-0.04084067],72,44,hard,minus,dotcolour,alfa,,,84,18,V,R,
734,104,20,17,5,27,53,584,['n'],1,right,['1'],6,359,[-0.11287348],84,53,easy,minus,dotcolour,alfa,,,84,18,V,R,
735,105,21,17,5,47,33,566,['c'],1,left,['3'],4,858,[0.13506058],79,47,medium,minus,dotcolour,alfa,,,84,18,V,R,
736,106,22,17,5,27,53,750,['n'],1,right,['3'],4,255,[-0.09354371],84,53,easy,minus,dotcolour,alfa,,,84,18,V,R,
737,107,23,17,5,33,47,516,['n'],1,right,['3'],4,199,[-0.08421421],85,47,medium,minus,dotcolour,alfa,,,84,18,V,R,
738,108,24,17,5,36,44,500,['n'],1,right,['3'],4,235,[-0.0396985],68,44,hard,minus,dotcolour,alfa,,,84,18,V,R,
739,109,25,17,5,47,33,850,['c'],1,left,['2'],5,183,[0.13457644],94,47,medium,minus,dotcolour,alfa,,,84,18,V,R,
740,110,26,17,5,44,36,1116,['n'],0,left,['2'],5,169,[-0.06683718],81,44,hard,minus,dotcolour,alfa,,,84,18,V,R,
741,111,27,17,5,33,47,633,['n'],1,right,['2'],5,177,[-0.07595796],84,47,medium,minus,dotcolour,alfa,,,84,18,V,R,
742,112,28,17,5,33,47,549,['n'],1,right,['2'],5,170,[-0.06482752],80,47,medium,minus,dotcolour,alfa,,,84,18,V,R,
743,113,29,17,5,53,27,516,['c'],1,left,['2'],5,190,[0.17356034],97,53,easy,minus,dotcolour,alfa,,,84,18,V,R,
744,114,30,17,5,36,44,549,['c'],0,right,['2'],5,137,[0.08970749],90,44,hard,minus,dotcolour,alfa,,,84,18,V,R,
745,115,31,17,5,44,36,616,['c'],1,left,['2'],5,186,[0.11593329],92,44,hard,minus,dotcolour,alfa,,,84,18,V,R,
746,116,32,17,5,36,44,616,['c'],0,right,['2'],5,120,[0.08592294],90,44,hard,minus,dotcolour,alfa,,,84,18,V,R,
747,117,33,17,5,53,27,866,['c'],1,left,['2'],5,184,[0.02766169],64,53,easy,minus,dotcolour,alfa,,,84,18,V,R,
748,118,34,17,5,53,27,2118,['c'],1,left,['1'],6,346,[0.15502728],91,53,easy,minus,dotcolour,alfa,,,84,18,V,R,
749,119,35,17,5,33,47,1168,['c'],0,right,['2'],5,323,[0.17834361],94,47,medium,minus,dotcolour,alfa,,,84,18,V,R,
750,120,36,17,5,44,36,666,['c'],1,left,['2'],5,210,[0.0077711],54,44,hard,minus,dotcolour,alfa,,,84,18,V,R,
751,121,37,17,5,33,47,668,['n'],1,right,['2'],5,174,[-0.00643145],53,47,medium,minus,dotcolour,alfa,,,84,18,V,R,
752,122,38,17,5,27,53,465,['n'],1,right,['1'],6,188,[-0.07325378],82,53,easy,minus,dotcolour,alfa,,,84,18,V,R,
753,123,39,17,5,27,53,483,['n'],1,right,['1'],6,161,[-0.1852994],98,53,easy,minus,dotcolour,alfa,,,84,18,V,R,
754,124,40,17,5,44,36,567,['c'],1,left,['2'],5,219,[0.15205402],95,44,hard,minus,dotcolour,alfa,,,84,18,V,R,
755,125,41,17,5,47,33,735,['c'],1,left,['2'],5,220,[0.11065966],89,47,medium,minus,dotcolour,alfa,,,84,18,V,R,
,,,,,,,,,,,,,,,,,,,,,1,nee,84,18,V,R,
,,,,,,,,,,,,,,,,,,,,,2,['g'],84,18,V,R,
,,,,,,,,,,,,,,,,,,,,,3,['g'],84,18,V,R,
,,,,,,,,,,,,,,,,,,,,,5,['5'],84,18,V,R,
