trial,withinphasetrial,withinblocktrial,block,phase,dotsLeft,dotsRight,rt,resp,cor,cresp,conf_press,cj,RTconf,ev,fb,diff,difflevel,condition,task,manip,questionID,questionResp,sub,age,gender,handedness,
0,0,0,0,0,53,27,2050,['n'],0,left,['3'],3,2185,[0.28153945],0,53,easy,plus,dotcolour,alfa,,,94,18,V,R,
1,1,1,0,0,36,44,1283,['n'],1,right,['8'],4,789,[-0.02720147],75,44,hard,plus,dotcolour,alfa,,,94,18,V,R,
2,2,2,0,0,36,44,950,['c'],0,right,['8'],4,849,[0.04548472],86,44,hard,plus,dotcolour,alfa,,,94,18,V,R,
3,3,3,0,0,53,27,933,['c'],1,left,['0'],6,699,[0.27638315],100,53,easy,plus,dotcolour,alfa,,,94,18,V,R,
4,4,4,0,0,36,44,1016,['c'],0,right,['8'],4,710,[0.09064371],98,44,hard,plus,dotcolour,alfa,,,94,18,V,R,
5,5,5,0,0,53,27,1036,['c'],1,left,['3'],3,73,[0.0781467],100,53,easy,plus,dotcolour,alfa,,,94,18,V,R,
6,6,6,0,0,53,27,884,['c'],1,left,['0'],6,676,[0.15438395],100,53,easy,plus,dotcolour,alfa,,,94,18,V,R,
7,7,7,0,0,47,33,900,['c'],1,left,['0'],6,606,[0.17697046],100,47,medium,plus,dotcolour,alfa,,,94,18,V,R,
8,8,8,0,0,53,27,784,['c'],1,left,['0'],6,384,[0.17355936],100,53,easy,plus,dotcolour,alfa,,,94,18,V,R,
9,9,9,0,0,27,53,667,['n'],1,right,['0'],6,391,[-0.16651581],100,53,easy,plus,dotcolour,alfa,,,94,18,V,R,
10,10,10,0,0,33,47,718,['n'],1,right,['9'],5,484,[-0.07080888],98,47,medium,plus,dotcolour,alfa,,,94,18,V,R,
11,11,11,0,0,33,47,867,['n'],1,right,['9'],5,608,[-0.15926241],100,47,medium,plus,dotcolour,alfa,,,94,18,V,R,
12,12,12,0,0,44,36,1067,['c'],1,left,['9'],5,549,[0.05621534],94,44,hard,plus,dotcolour,alfa,,,94,18,V,R,
13,13,13,0,0,44,36,1433,['n'],0,left,['8'],4,1008,[0.08403882],5,44,hard,plus,dotcolour,alfa,,,94,18,V,R,
14,14,14,0,0,47,33,1034,['c'],1,left,['9'],5,551,[0.23163929],100,47,medium,plus,dotcolour,alfa,,,94,18,V,R,
15,15,15,0,0,33,47,801,['n'],1,right,['9'],5,450,[-0.09782946],99,47,medium,plus,dotcolour,alfa,,,94,18,V,R,
16,16,16,0,0,33,47,734,['n'],1,right,['3'],3,956,[-0.13378191],99,47,medium,plus,dotcolour,alfa,,,94,18,V,R,
17,17,17,0,0,47,33,1168,['c'],1,left,['9'],5,712,[0.13850492],100,47,medium,plus,dotcolour,alfa,,,94,18,V,R,
18,18,18,0,0,44,36,1200,['c'],1,left,['9'],5,501,[0.0698218],97,44,hard,plus,dotcolour,alfa,,,94,18,V,R,
19,19,19,0,0,27,53,599,['n'],1,right,['0'],6,418,[-0.13475396],100,53,easy,plus,dotcolour,alfa,,,94,18,V,R,
20,20,20,0,0,53,27,784,['c'],1,left,['0'],6,411,[0.14297654],100,53,easy,plus,dotcolour,alfa,,,94,18,V,R,
21,21,21,0,0,27,53,700,['n'],1,right,['0'],6,608,[-0.19688934],100,53,easy,plus,dotcolour,alfa,,,94,18,V,R,
22,22,22,0,0,27,53,650,['n'],1,right,['0'],6,382,[-0.15701026],100,53,easy,plus,dotcolour,alfa,,,94,18,V,R,
23,23,23,0,0,44,36,833,['c'],1,left,['9'],5,471,[-0.10758173],0,44,hard,plus,dotcolour,alfa,,,94,18,V,R,
24,24,24,0,0,27,53,702,['n'],1,right,['0'],6,353,[-0.06505528],98,53,easy,plus,dotcolour,alfa,,,94,18,V,R,
25,25,25,0,0,36,44,601,['n'],1,right,['0'],6,484,[-0.09192823],99,44,hard,plus,dotcolour,alfa,,,94,18,V,R,
26,26,26,0,0,47,33,834,['c'],1,left,['0'],6,416,[0.06107009],97,47,medium,plus,dotcolour,alfa,,,94,18,V,R,
27,27,27,0,0,33,47,617,['n'],1,right,['0'],6,393,[-0.05028948],95,47,medium,plus,dotcolour,alfa,,,94,18,V,R,
28,28,28,0,0,44,36,667,['n'],0,left,['1'],1,1256,[-0.00102326],51,44,hard,plus,dotcolour,alfa,,,94,18,V,R,
29,29,29,0,0,36,44,618,['n'],1,right,['9'],5,645,[-0.19931212],100,44,hard,plus,dotcolour,alfa,,,94,18,V,R,
30,30,30,0,0,33,47,634,['n'],1,right,['0'],6,404,[-0.13802478],100,47,medium,plus,dotcolour,alfa,,,94,18,V,R,
31,31,31,0,0,47,33,701,['c'],1,left,['9'],5,552,[0.08983456],99,47,medium,plus,dotcolour,alfa,,,94,18,V,R,
32,32,32,0,0,36,44,917,['n'],1,right,['8'],4,758,[-0.22371116],100,44,hard,plus,dotcolour,alfa,,,94,18,V,R,
33,33,33,0,0,36,44,750,['n'],1,right,['9'],5,370,[-0.00081089],51,44,hard,plus,dotcolour,alfa,,,94,18,V,R,
34,34,34,0,0,27,53,601,['n'],1,right,['0'],6,485,[-0.22370394],100,53,easy,plus,dotcolour,alfa,,,94,18,V,R,
35,35,35,0,0,33,47,599,['n'],1,right,['0'],6,395,[-0.06802318],98,47,medium,plus,dotcolour,alfa,,,94,18,V,R,
36,36,36,0,0,53,27,883,['c'],1,left,['0'],6,344,[0.01001032],65,53,easy,plus,dotcolour,alfa,,,94,18,V,R,
37,37,37,0,0,47,33,867,['n'],0,left,['1'],1,777,[0.03399687],20,47,medium,plus,dotcolour,alfa,,,94,18,V,R,
38,38,38,0,0,47,33,1316,['c'],1,left,['9'],5,854,[0.25398898],100,47,medium,plus,dotcolour,alfa,,,94,18,V,R,
39,39,39,0,0,44,36,851,['c'],1,left,['9'],5,404,[0.11106232],100,44,hard,plus,dotcolour,alfa,,,94,18,V,R,
40,40,40,0,0,44,36,834,['c'],1,left,['9'],5,395,[0.04630263],93,44,hard,plus,dotcolour,alfa,,,94,18,V,R,
41,41,41,0,0,27,53,768,['n'],1,right,['9'],5,517,[-0.14926881],100,53,easy,plus,dotcolour,alfa,,,94,18,V,R,
42,42,0,1,0,33,47,717,['n'],1,right,['9'],5,471,[-0.12807294],100,47,medium,plus,dotcolour,alfa,,,94,18,V,R,
43,43,1,1,0,33,47,634,['n'],1,right,['0'],6,516,[-0.06215129],96,47,medium,plus,dotcolour,alfa,,,94,18,V,R,
44,44,2,1,0,27,53,717,['n'],1,right,['0'],6,291,[-0.10312268],100,53,easy,plus,dotcolour,alfa,,,94,18,V,R,
45,45,3,1,0,36,44,884,['n'],1,right,['0'],6,269,[-0.05746176],98,44,hard,plus,dotcolour,alfa,,,94,18,V,R,
46,46,4,1,0,53,27,617,['c'],1,left,['0'],6,364,[0.12267362],100,53,easy,plus,dotcolour,alfa,,,94,18,V,R,
47,47,5,1,0,33,47,634,['n'],1,right,['0'],6,285,[-0.03872647],93,47,medium,plus,dotcolour,alfa,,,94,18,V,R,
48,48,6,1,0,44,36,702,['n'],0,left,['9'],5,446,[-0.05890845],96,44,hard,plus,dotcolour,alfa,,,94,18,V,R,
49,49,7,1,0,53,27,716,['c'],1,left,['0'],6,361,[0.1590494],100,53,easy,plus,dotcolour,alfa,,,94,18,V,R,
50,50,8,1,0,47,33,1001,['c'],1,left,['9'],5,364,[0.04297101],93,47,medium,plus,dotcolour,alfa,,,94,18,V,R,
51,51,9,1,0,47,33,666,['c'],1,left,['9'],5,340,[0.0188057],76,47,medium,plus,dotcolour,alfa,,,94,18,V,R,
52,52,10,1,0,53,27,667,['c'],1,left,['0'],6,244,[0.17226268],100,53,easy,plus,dotcolour,alfa,,,94,18,V,R,
53,53,11,1,0,44,36,768,['n'],0,left,['9'],5,734,[-0.02040895],70,44,hard,plus,dotcolour,alfa,,,94,18,V,R,
54,54,12,1,0,47,33,716,['c'],1,left,['9'],5,452,[0.12274413],100,47,medium,plus,dotcolour,alfa,,,94,18,V,R,
55,55,13,1,0,27,53,501,['n'],1,right,['9'],5,350,[-0.18631305],100,53,easy,plus,dotcolour,alfa,,,94,18,V,R,
56,56,14,1,0,33,47,884,['n'],1,right,['0'],6,294,[-0.08639704],100,47,medium,plus,dotcolour,alfa,,,94,18,V,R,
57,57,15,1,0,36,44,684,['n'],1,right,['9'],5,673,[-0.08285879],97,44,hard,plus,dotcolour,alfa,,,94,18,V,R,
58,58,16,1,0,44,36,700,['c'],1,left,['0'],6,363,[0.14273066],100,44,hard,plus,dotcolour,alfa,,,94,18,V,R,
59,59,17,1,0,36,44,584,['n'],1,right,['0'],6,326,[-0.06900893],99,44,hard,plus,dotcolour,alfa,,,94,18,V,R,
60,60,18,1,0,27,53,600,['n'],1,right,['0'],6,242,[0.00398436],43,53,easy,plus,dotcolour,alfa,,,94,18,V,R,
61,61,19,1,0,36,44,934,['n'],1,right,['9'],5,428,[-0.07911134],99,44,hard,plus,dotcolour,alfa,,,94,18,V,R,
62,62,20,1,0,53,27,618,['c'],1,left,['9'],5,563,[0.1607544],100,53,easy,plus,dotcolour,alfa,,,94,18,V,R,
63,63,21,1,0,44,36,867,['c'],1,left,['9'],5,420,[0.12848833],100,44,hard,plus,dotcolour,alfa,,,94,18,V,R,
64,64,22,1,0,44,36,816,['n'],0,left,['9'],5,428,[-0.04456111],92,44,hard,plus,dotcolour,alfa,,,94,18,V,R,
65,65,23,1,0,53,27,666,['c'],1,left,['9'],5,584,[0.0755067],97,53,easy,plus,dotcolour,alfa,,,94,18,V,R,
66,66,24,1,0,33,47,783,['n'],1,right,['9'],5,578,[-0.08237576],98,47,medium,plus,dotcolour,alfa,,,94,18,V,R,
67,67,25,1,0,53,27,601,['c'],1,left,['9'],5,501,[0.19188008],100,53,easy,plus,dotcolour,alfa,,,94,18,V,R,
68,68,26,1,0,36,44,800,['n'],1,right,['9'],5,450,[-0.12089111],100,44,hard,plus,dotcolour,alfa,,,94,18,V,R,
69,69,27,1,0,33,47,617,['n'],1,right,['9'],5,384,[-0.14472774],100,47,medium,plus,dotcolour,alfa,,,94,18,V,R,
70,70,28,1,0,47,33,683,['c'],1,left,['9'],5,391,[0.14245351],100,47,medium,plus,dotcolour,alfa,,,94,18,V,R,
71,71,29,1,0,53,27,635,['c'],1,left,['9'],5,479,[0.19724302],100,53,easy,plus,dotcolour,alfa,,,94,18,V,R,
72,72,30,1,0,36,44,684,['c'],0,right,['0'],6,299,[0.10481582],100,44,hard,plus,dotcolour,alfa,,,94,18,V,R,
73,73,31,1,0,44,36,633,['c'],1,left,['0'],6,222,[0.06748213],99,44,hard,plus,dotcolour,alfa,,,94,18,V,R,
74,74,32,1,0,27,53,550,['n'],1,right,['9'],5,272,[-0.03863196],94,53,easy,plus,dotcolour,alfa,,,94,18,V,R,
75,75,33,1,0,36,44,985,['n'],1,right,['8'],4,751,[-0.04125996],85,44,hard,plus,dotcolour,alfa,,,94,18,V,R,
76,76,34,1,0,27,53,551,['n'],1,right,['9'],5,563,[-0.24271014],100,53,easy,plus,dotcolour,alfa,,,94,18,V,R,
77,77,35,1,0,47,33,2851,['n'],0,left,['1'],1,628,[0.0158881],33,47,medium,plus,dotcolour,alfa,,,94,18,V,R,
78,78,36,1,0,27,53,700,['n'],1,right,['9'],5,464,[-0.33179616],100,53,easy,plus,dotcolour,alfa,,,94,18,V,R,
79,79,37,1,0,47,33,650,['c'],1,left,['9'],5,381,[0.08147078],99,47,medium,plus,dotcolour,alfa,,,94,18,V,R,
80,80,38,1,0,44,36,717,['n'],0,left,['9'],5,578,[-0.02548417],77,44,hard,plus,dotcolour,alfa,,,94,18,V,R,
81,81,39,1,0,27,53,683,['n'],1,right,['0'],6,369,[-0.088271],99,53,easy,plus,dotcolour,alfa,,,94,18,V,R,
82,82,40,1,0,33,47,517,['n'],1,right,['0'],6,311,[-0.05768959],98,47,medium,plus,dotcolour,alfa,,,94,18,V,R,
83,83,41,1,0,47,33,567,['c'],1,left,['9'],5,365,[0.10413506],100,47,medium,plus,dotcolour,alfa,,,94,18,V,R,
84,84,0,2,0,53,27,752,['c'],1,left,['9'],5,356,[0.08961568],100,53,easy,plus,dotcolour,alfa,,,94,18,V,R,
85,85,1,2,0,44,36,850,['c'],1,left,['9'],5,244,[0.01643518],77,44,hard,plus,dotcolour,alfa,,,94,18,V,R,
86,86,2,2,0,33,47,634,['n'],1,right,['9'],5,491,[-0.16937317],100,47,medium,plus,dotcolour,alfa,,,94,18,V,R,
87,87,3,2,0,44,36,767,['c'],1,left,['0'],6,177,[0.05363177],99,44,hard,plus,dotcolour,alfa,,,94,18,V,R,
88,88,4,2,0,47,33,767,['c'],1,left,['9'],5,229,[0.06551095],99,47,medium,plus,dotcolour,alfa,,,94,18,V,R,
89,89,5,2,0,27,53,566,['n'],1,right,['9'],5,486,[-0.03305522],85,53,easy,plus,dotcolour,alfa,,,94,18,V,R,
90,90,6,2,0,33,47,585,['n'],1,right,['0'],6,236,[-0.17638911],100,47,medium,plus,dotcolour,alfa,,,94,18,V,R,
91,91,7,2,0,47,33,600,['c'],1,left,['0'],6,331,[0.1797195],100,47,medium,plus,dotcolour,alfa,,,94,18,V,R,
92,92,8,2,0,47,33,852,['c'],1,left,['0'],6,134,[0.0584675],100,47,medium,plus,dotcolour,alfa,,,94,18,V,R,
93,93,9,2,0,27,53,901,['n'],1,right,['0'],6,526,[-0.04211747],89,53,easy,plus,dotcolour,alfa,,,94,18,V,R,
94,94,10,2,0,44,36,701,['n'],0,left,['9'],5,390,[-0.06344807],97,44,hard,plus,dotcolour,alfa,,,94,18,V,R,
95,95,11,2,0,36,44,535,['n'],1,right,['9'],5,266,[-0.09802613],100,44,hard,plus,dotcolour,alfa,,,94,18,V,R,
96,96,12,2,0,27,53,584,['n'],1,right,['0'],6,265,[-0.09264532],100,53,easy,plus,dotcolour,alfa,,,94,18,V,R,
97,97,13,2,0,27,53,501,['n'],1,right,['0'],6,204,[-0.13397351],100,53,easy,plus,dotcolour,alfa,,,94,18,V,R,
98,98,14,2,0,33,47,500,['n'],1,right,['9'],5,321,[-0.16939748],100,47,medium,plus,dotcolour,alfa,,,94,18,V,R,
99,99,15,2,0,53,27,849,['c'],1,left,['0'],6,371,[0.19277378],100,53,easy,plus,dotcolour,alfa,,,94,18,V,R,
100,100,16,2,0,53,27,617,['c'],1,left,['0'],6,436,[0.17978571],100,53,easy,plus,dotcolour,alfa,,,94,18,V,R,
101,101,17,2,0,44,36,518,['c'],1,left,['0'],6,255,[0.05712694],98,44,hard,plus,dotcolour,alfa,,,94,18,V,R,
102,102,18,2,0,33,47,533,['n'],1,right,['0'],6,208,[-0.1171814],100,47,medium,plus,dotcolour,alfa,,,94,18,V,R,
103,103,19,2,0,36,44,484,['n'],1,right,['0'],6,189,[-0.10585103],100,44,hard,plus,dotcolour,alfa,,,94,18,V,R,
104,104,20,2,0,47,33,516,['c'],1,left,['0'],6,170,[0.10114092],100,47,medium,plus,dotcolour,alfa,,,94,18,V,R,
105,105,21,2,0,44,36,517,['n'],0,left,['1'],1,721,[-0.00055966],51,44,hard,plus,dotcolour,alfa,,,94,18,V,R,
106,106,22,2,0,53,27,666,['c'],1,left,['0'],6,281,[-0.04929325],3,53,easy,plus,dotcolour,alfa,,,94,18,V,R,
107,107,23,2,0,33,47,617,['n'],1,right,['0'],6,264,[-0.08361186],100,47,medium,plus,dotcolour,alfa,,,94,18,V,R,
108,108,24,2,0,36,44,1184,['c'],0,right,['9'],5,662,[0.07089628],96,44,hard,plus,dotcolour,alfa,,,94,18,V,R,
109,109,25,2,0,53,27,852,['c'],1,left,['0'],6,340,[0.08747575],100,53,easy,plus,dotcolour,alfa,,,94,18,V,R,
110,110,26,2,0,27,53,666,['n'],1,right,['9'],5,875,[-0.16635336],100,53,easy,plus,dotcolour,alfa,,,94,18,V,R,
111,111,27,2,0,47,33,1235,['n'],0,left,['9'],5,360,[0.02884434],15,47,medium,plus,dotcolour,alfa,,,94,18,V,R,
112,112,28,2,0,36,44,867,['n'],1,right,['9'],5,464,[-0.09156193],99,44,hard,plus,dotcolour,alfa,,,94,18,V,R,
113,113,29,2,0,47,33,800,['c'],1,left,['0'],6,352,[0.16386536],100,47,medium,plus,dotcolour,alfa,,,94,18,V,R,
114,114,30,2,0,47,33,818,['c'],1,left,['8'],4,739,[0.04226271],85,47,medium,plus,dotcolour,alfa,,,94,18,V,R,
115,115,31,2,0,36,44,551,['n'],1,right,['9'],5,343,[-0.06831097],99,44,hard,plus,dotcolour,alfa,,,94,18,V,R,
116,116,32,2,0,53,27,701,['c'],1,left,['0'],6,391,[0.04565637],93,53,easy,plus,dotcolour,alfa,,,94,18,V,R,
117,117,33,2,0,27,53,567,['n'],1,right,['9'],5,402,[-0.10716966],100,53,easy,plus,dotcolour,alfa,,,94,18,V,R,
118,118,34,2,0,36,44,717,['c'],0,right,['9'],5,494,[0.11153806],100,44,hard,plus,dotcolour,alfa,,,94,18,V,R,
119,119,35,2,0,53,27,567,['c'],1,left,['9'],5,525,[0.24130997],100,53,easy,plus,dotcolour,alfa,,,94,18,V,R,
120,120,36,2,0,44,36,866,['c'],1,left,['9'],5,247,[0.13228128],100,44,hard,plus,dotcolour,alfa,,,94,18,V,R,
121,121,37,2,0,36,44,700,['n'],1,right,['0'],6,241,[-0.21230489],100,44,hard,plus,dotcolour,alfa,,,94,18,V,R,
122,122,38,2,0,44,36,601,['c'],1,left,['9'],5,361,[-0.00952509],36,44,hard,plus,dotcolour,alfa,,,94,18,V,R,
123,123,39,2,0,33,47,684,['n'],1,right,['0'],6,224,[-0.00585642],61,47,medium,plus,dotcolour,alfa,,,94,18,V,R,
124,124,40,2,0,27,53,633,['n'],1,right,['0'],6,486,[0.02606982],21,53,easy,plus,dotcolour,alfa,,,94,18,V,R,
125,125,41,2,0,33,47,1034,['n'],1,right,['9'],5,266,[-0.14779697],100,47,medium,plus,dotcolour,alfa,,,94,18,V,R,
126,0,0,3,1,36,44,1251,['c'],0,right,['9'],5,253,[0.03028001],63,44,hard,minus,dotcolour,alfa,,,94,18,V,R,
127,1,1,3,1,27,53,518,['c'],0,right,['0'],6,310,[0.11711046],87,53,easy,minus,dotcolour,alfa,,,94,18,V,R,
128,2,2,3,1,33,47,618,['c'],0,right,['9'],5,611,[0.0802937],72,47,medium,minus,dotcolour,alfa,,,94,18,V,R,
129,3,3,3,1,33,47,733,['n'],1,right,['9'],5,334,[-0.12383889],87,47,medium,minus,dotcolour,alfa,,,94,18,V,R,
130,4,4,3,1,53,27,634,['c'],1,left,['0'],6,361,[0.05836501],71,53,easy,minus,dotcolour,alfa,,,94,18,V,R,
131,5,5,3,1,27,53,618,['n'],1,right,['9'],5,443,[0.00863735],47,53,easy,minus,dotcolour,alfa,,,94,18,V,R,
132,6,6,3,1,36,44,866,['n'],1,right,['8'],4,832,[-0.03614527],59,44,hard,minus,dotcolour,alfa,,,94,18,V,R,
133,7,7,3,1,36,44,1149,['n'],1,right,['9'],5,1427,[-0.30077111],91,44,hard,minus,dotcolour,alfa,,,94,18,V,R,
134,8,8,3,1,53,27,733,['c'],1,left,['0'],6,246,[0.06225377],76,53,easy,minus,dotcolour,alfa,,,94,18,V,R,
135,9,9,3,1,33,47,1800,['c'],0,right,['0'],6,381,[0.05964466],70,47,medium,minus,dotcolour,alfa,,,94,18,V,R,
136,10,10,3,1,47,33,600,['n'],0,left,['1'],1,1543,[0.17879329],22,47,medium,minus,dotcolour,alfa,,,94,18,V,R,
137,11,11,3,1,47,33,784,['c'],1,left,['9'],5,346,[0.1115265],85,47,medium,minus,dotcolour,alfa,,,94,18,V,R,
138,12,12,3,1,44,36,668,['c'],1,left,['9'],5,403,[0.03992428],64,44,hard,minus,dotcolour,alfa,,,94,18,V,R,
139,13,13,3,1,27,53,467,['n'],1,right,['9'],5,233,[-0.04782575],71,53,easy,minus,dotcolour,alfa,,,94,18,V,R,
140,14,14,3,1,36,44,618,['c'],0,right,['0'],6,631,[0.08985339],73,44,hard,minus,dotcolour,alfa,,,94,18,V,R,
141,15,15,3,1,33,47,867,['c'],0,right,['0'],6,220,[0.02721767],63,47,medium,minus,dotcolour,alfa,,,94,18,V,R,
142,16,16,3,1,36,44,834,['c'],0,right,['9'],5,267,[0.10286012],86,44,hard,minus,dotcolour,alfa,,,94,18,V,R,
143,17,17,3,1,27,53,633,['n'],1,right,['9'],5,417,[-0.15915446],90,53,easy,minus,dotcolour,alfa,,,94,18,V,R,
144,18,18,3,1,27,53,584,['n'],1,right,['9'],5,322,[-0.05992883],72,53,easy,minus,dotcolour,alfa,,,94,18,V,R,
145,19,19,3,1,53,27,600,['c'],1,left,['0'],6,374,[0.16563916],92,53,easy,minus,dotcolour,alfa,,,94,18,V,R,
146,20,20,3,1,47,33,634,['c'],1,left,['9'],5,390,[0.09646557],80,47,medium,minus,dotcolour,alfa,,,94,18,V,R,
147,21,21,3,1,44,36,634,['n'],0,left,['8'],4,902,[0.18879457],14,44,hard,minus,dotcolour,alfa,,,94,18,V,R,
148,22,22,3,1,53,27,934,['c'],1,left,['9'],5,198,[0.1418675],95,53,easy,minus,dotcolour,alfa,,,94,18,V,R,
149,23,23,3,1,47,33,1134,['n'],0,left,['9'],5,554,[-0.13217351],83,47,medium,minus,dotcolour,alfa,,,94,18,V,R,
150,24,24,3,1,33,47,867,['c'],0,right,['9'],5,370,[-0.02546416],41,47,medium,minus,dotcolour,alfa,,,94,18,V,R,
151,25,25,3,1,44,36,601,['c'],1,left,['9'],5,444,[0.12712186],85,44,hard,minus,dotcolour,alfa,,,94,18,V,R,
152,26,26,3,1,47,33,584,['n'],0,left,['1'],1,1084,[0.07174447],35,47,medium,minus,dotcolour,alfa,,,94,18,V,R,
153,27,27,3,1,44,36,1016,['n'],0,left,['9'],5,409,[-0.04260106],65,44,hard,minus,dotcolour,alfa,,,94,18,V,R,
154,28,28,3,1,47,33,633,['c'],1,left,['0'],6,552,[0.06601452],69,47,medium,minus,dotcolour,alfa,,,94,18,V,R,
155,29,29,3,1,44,36,651,['c'],1,left,['0'],6,161,[0.09125162],89,44,hard,minus,dotcolour,alfa,,,94,18,V,R,
156,30,30,3,1,53,27,516,['c'],1,left,['0'],6,183,[0.10589408],90,53,easy,minus,dotcolour,alfa,,,94,18,V,R,
157,31,31,3,1,53,27,551,['c'],1,left,['0'],6,139,[0.08564281],89,53,easy,minus,dotcolour,alfa,,,94,18,V,R,
158,32,32,3,1,47,33,600,['c'],1,left,['9'],5,549,[0.02465538],57,47,medium,minus,dotcolour,alfa,,,94,18,V,R,
159,33,33,3,1,36,44,651,['n'],1,right,['9'],5,214,[-0.03682923],67,44,hard,minus,dotcolour,alfa,,,94,18,V,R,
160,34,34,3,1,33,47,1017,['n'],1,right,['9'],5,174,[-0.12582882],94,47,medium,minus,dotcolour,alfa,,,94,18,V,R,
161,35,35,3,1,53,27,783,['c'],1,left,['9'],5,209,[0.17125202],97,53,easy,minus,dotcolour,alfa,,,94,18,V,R,
162,36,36,3,1,27,53,550,['n'],1,right,['0'],6,340,[-0.12404366],87,53,easy,minus,dotcolour,alfa,,,94,18,V,R,
163,37,37,3,1,44,36,833,['c'],1,left,['9'],5,406,[0.10084188],81,44,hard,minus,dotcolour,alfa,,,94,18,V,R,
164,38,38,3,1,36,44,651,['n'],1,right,['9'],5,220,[-0.07010575],79,44,hard,minus,dotcolour,alfa,,,94,18,V,R,
165,39,39,3,1,44,36,701,['c'],1,left,['0'],6,361,[0.1256723],87,44,hard,minus,dotcolour,alfa,,,94,18,V,R,
166,40,40,3,1,27,53,518,['n'],1,right,['9'],5,367,[-0.09253706],80,53,easy,minus,dotcolour,alfa,,,94,18,V,R,
167,41,41,3,1,33,47,566,['c'],0,right,['1'],1,835,[0.1547221],82,47,medium,minus,dotcolour,alfa,,,94,18,V,R,
168,42,0,4,1,33,47,668,['n'],1,right,['9'],5,373,[-0.202098],95,47,medium,minus,dotcolour,alfa,,,94,18,V,R,
169,43,1,4,1,27,53,501,['n'],1,right,['0'],6,410,[-0.14560914],89,53,easy,minus,dotcolour,alfa,,,94,18,V,R,
170,44,2,4,1,27,53,516,['n'],1,right,['0'],6,335,[-0.15182877],91,53,easy,minus,dotcolour,alfa,,,94,18,V,R,
171,45,3,4,1,33,47,551,['n'],1,right,['9'],5,421,[-0.07263127],73,47,medium,minus,dotcolour,alfa,,,94,18,V,R,
172,46,4,4,1,36,44,468,['n'],1,right,['0'],6,250,[-0.0834332],82,44,hard,minus,dotcolour,alfa,,,94,18,V,R,
173,47,5,4,1,27,53,485,['n'],1,right,['0'],6,230,[-0.17015729],96,53,easy,minus,dotcolour,alfa,,,94,18,V,R,
174,48,6,4,1,36,44,450,['n'],1,right,['0'],6,181,[-0.09288392],88,44,hard,minus,dotcolour,alfa,,,94,18,V,R,
175,49,7,4,1,27,53,483,['n'],1,right,['0'],6,196,[-0.17496623],97,53,easy,minus,dotcolour,alfa,,,94,18,V,R,
176,50,8,4,1,47,33,900,['c'],1,left,['9'],5,577,[0.21165944],92,47,medium,minus,dotcolour,alfa,,,94,18,V,R,
177,51,9,4,1,33,47,484,['n'],1,right,['0'],6,176,[-0.09209996],88,47,medium,minus,dotcolour,alfa,,,94,18,V,R,
178,52,10,4,1,36,44,750,['n'],1,right,['8'],4,876,[-0.13033986],78,44,hard,minus,dotcolour,alfa,,,94,18,V,R,
179,53,11,4,1,33,47,866,['n'],1,right,['8'],4,230,[-0.06981764],79,47,medium,minus,dotcolour,alfa,,,94,18,V,R,
180,54,12,4,1,44,36,934,['c'],1,left,['9'],5,409,[0.09321375],79,44,hard,minus,dotcolour,alfa,,,94,18,V,R,
181,55,13,4,1,44,36,901,['c'],1,left,['9'],5,542,[0.08748273],74,44,hard,minus,dotcolour,alfa,,,94,18,V,R,
182,56,14,4,1,36,44,783,['c'],0,right,['9'],5,330,[0.05755472],71,44,hard,minus,dotcolour,alfa,,,94,18,V,R,
183,57,15,4,1,53,27,617,['c'],1,left,['0'],6,285,[0.08799259],82,53,easy,minus,dotcolour,alfa,,,94,18,V,R,
184,58,16,4,1,27,53,534,['n'],1,right,['0'],6,574,[-0.14952114],86,53,easy,minus,dotcolour,alfa,,,94,18,V,R,
185,59,17,4,1,44,36,867,['c'],1,left,['9'],5,205,[0.13638571],94,44,hard,minus,dotcolour,alfa,,,94,18,V,R,
186,60,18,4,1,47,33,717,['c'],1,left,['9'],5,314,[0.03817072],65,47,medium,minus,dotcolour,alfa,,,94,18,V,R,
187,61,19,4,1,36,44,535,['n'],1,right,['9'],5,441,[0.00436335],49,44,hard,minus,dotcolour,alfa,,,94,18,V,R,
188,62,20,4,1,44,36,834,['n'],0,left,['9'],5,367,[-0.1096038],84,44,hard,minus,dotcolour,alfa,,,94,18,V,R,
189,63,21,4,1,44,36,784,['c'],1,left,['0'],6,322,[0.20909253],96,44,hard,minus,dotcolour,alfa,,,94,18,V,R,
190,64,22,4,1,27,53,485,['n'],1,right,['0'],6,243,[-0.12195035],90,53,easy,minus,dotcolour,alfa,,,94,18,V,R,
191,65,23,4,1,33,47,635,['c'],0,right,['0'],6,481,[0.12208623],83,47,medium,minus,dotcolour,alfa,,,94,18,V,R,
192,66,24,4,1,53,27,650,['c'],1,left,['0'],6,340,[0.11814357],86,53,easy,minus,dotcolour,alfa,,,94,18,V,R,
193,67,25,4,1,53,27,583,['c'],1,left,['0'],6,264,[0.21335618],98,53,easy,minus,dotcolour,alfa,,,94,18,V,R,
194,68,26,4,1,36,44,535,['n'],1,right,['9'],5,395,[-0.1623411],91,44,hard,minus,dotcolour,alfa,,,94,18,V,R,
195,69,27,4,1,27,53,600,['n'],1,right,['9'],5,339,[-0.1865788],95,53,easy,minus,dotcolour,alfa,,,94,18,V,R,
196,70,28,4,1,53,27,600,['c'],1,left,['0'],6,311,[0.2095961],97,53,easy,minus,dotcolour,alfa,,,94,18,V,R,
197,71,29,4,1,47,33,634,['c'],1,left,['0'],6,298,[0.07208475],77,47,medium,minus,dotcolour,alfa,,,94,18,V,R,
198,72,30,4,1,47,33,516,['c'],1,left,['0'],6,179,[0.05116502],75,47,medium,minus,dotcolour,alfa,,,94,18,V,R,
199,73,31,4,1,33,47,533,['n'],1,right,['0'],6,160,[-0.06520646],81,47,medium,minus,dotcolour,alfa,,,94,18,V,R,
200,74,32,4,1,44,36,617,['c'],1,left,['0'],6,186,[0.04357949],71,44,hard,minus,dotcolour,alfa,,,94,18,V,R,
201,75,33,4,1,44,36,567,['c'],1,left,['0'],6,132,[0.07195509],86,44,hard,minus,dotcolour,alfa,,,94,18,V,R,
202,76,34,4,1,53,27,483,['c'],1,left,['0'],6,199,[0.1258228],93,53,easy,minus,dotcolour,alfa,,,94,18,V,R,
203,77,35,4,1,33,47,584,['n'],1,right,['0'],6,168,[-0.06817627],82,47,medium,minus,dotcolour,alfa,,,94,18,V,R,
204,78,36,4,1,53,27,584,['c'],1,left,['9'],5,195,[0.05927053],77,53,easy,minus,dotcolour,alfa,,,94,18,V,R,
205,79,37,4,1,53,27,634,['c'],1,left,['9'],5,380,[0.0848219],78,53,easy,minus,dotcolour,alfa,,,94,18,V,R,
206,80,38,4,1,36,44,450,['n'],1,right,['9'],5,283,[-0.06921958],76,44,hard,minus,dotcolour,alfa,,,94,18,V,R,
207,81,39,4,1,47,33,534,['n'],0,left,['9'],5,412,[-0.0331302],61,47,medium,minus,dotcolour,alfa,,,94,18,V,R,
208,82,40,4,1,47,33,501,['n'],0,left,['9'],5,432,[-0.01083106],54,47,medium,minus,dotcolour,alfa,,,94,18,V,R,
209,83,41,4,1,47,33,501,['c'],1,left,['0'],6,525,[0.18013036],90,47,medium,minus,dotcolour,alfa,,,94,18,V,R,
210,84,0,5,1,36,44,685,['n'],1,right,['9'],5,528,[-0.12235386],82,44,hard,minus,dotcolour,alfa,,,94,18,V,R,
211,85,1,5,1,53,27,534,['c'],1,left,['9'],5,159,[0.06798777],82,53,easy,minus,dotcolour,alfa,,,94,18,V,R,
212,86,2,5,1,27,53,517,['n'],1,right,['9'],5,261,[-0.09452964],84,53,easy,minus,dotcolour,alfa,,,94,18,V,R,
213,87,3,5,1,53,27,484,['c'],1,left,['9'],5,137,[0.08337434],88,53,easy,minus,dotcolour,alfa,,,94,18,V,R,
214,88,4,5,1,53,27,432,['c'],1,left,['9'],5,235,[0.04441028],70,53,easy,minus,dotcolour,alfa,,,94,18,V,R,
215,89,5,5,1,33,47,550,['n'],1,right,['9'],5,173,[-0.01228727],57,47,medium,minus,dotcolour,alfa,,,94,18,V,R,
216,90,6,5,1,44,36,501,['c'],1,left,['0'],6,194,[0.04767966],73,44,hard,minus,dotcolour,alfa,,,94,18,V,R,
217,91,7,5,1,47,33,483,['c'],1,left,['0'],6,248,[0.03653971],66,47,medium,minus,dotcolour,alfa,,,94,18,V,R,
218,92,8,5,1,44,36,467,['c'],1,left,['0'],6,165,[0.02611741],64,44,hard,minus,dotcolour,alfa,,,94,18,V,R,
219,93,9,5,1,33,47,617,['n'],1,right,['9'],5,183,[-0.13950861],95,47,medium,minus,dotcolour,alfa,,,94,18,V,R,
220,94,10,5,1,44,36,484,['c'],1,left,['9'],5,222,[0.0689771],79,44,hard,minus,dotcolour,alfa,,,94,18,V,R,
221,95,11,5,1,27,53,515,['n'],1,right,['9'],5,211,[-0.14439345],94,53,easy,minus,dotcolour,alfa,,,94,18,V,R,
222,96,12,5,1,47,33,467,['c'],1,left,['9'],5,297,[0.14083577],91,47,medium,minus,dotcolour,alfa,,,94,18,V,R,
223,97,13,5,1,47,33,718,['c'],1,left,['0'],6,177,[0.04371706],72,47,medium,minus,dotcolour,alfa,,,94,18,V,R,
224,98,14,5,1,27,53,468,['n'],1,right,['9'],5,185,[-0.14770036],96,53,easy,minus,dotcolour,alfa,,,94,18,V,R,
225,99,15,5,1,44,36,516,['n'],0,left,['9'],5,198,[-0.11347537],91,44,hard,minus,dotcolour,alfa,,,94,18,V,R,
226,100,16,5,1,36,44,584,['n'],1,right,['9'],5,144,[-0.00764191],55,44,hard,minus,dotcolour,alfa,,,94,18,V,R,
227,101,17,5,1,36,44,483,['n'],1,right,['9'],5,255,[-0.07969876],81,44,hard,minus,dotcolour,alfa,,,94,18,V,R,
228,102,18,5,1,36,44,533,['n'],1,right,['0'],6,297,[0.0405838],34,44,hard,minus,dotcolour,alfa,,,94,18,V,R,
229,103,19,5,1,33,47,617,['n'],1,right,['0'],6,350,[-0.11679908],86,47,medium,minus,dotcolour,alfa,,,94,18,V,R,
230,104,20,5,1,47,33,685,['c'],1,left,['0'],6,245,[0.06856109],78,47,medium,minus,dotcolour,alfa,,,94,18,V,R,
231,105,21,5,1,44,36,600,['n'],0,left,['9'],5,317,[0.07338718],24,44,hard,minus,dotcolour,alfa,,,94,18,V,R,
232,106,22,5,1,33,47,700,['n'],1,right,['8'],4,269,[-0.150436],93,47,medium,minus,dotcolour,alfa,,,94,18,V,R,
233,107,23,5,1,33,47,566,['n'],1,right,['0'],6,246,[-0.11295301],89,47,medium,minus,dotcolour,alfa,,,94,18,V,R,
234,108,24,5,1,47,33,634,['c'],1,left,['8'],4,524,[0.05277886],66,47,medium,minus,dotcolour,alfa,,,94,18,V,R,
235,109,25,5,1,53,27,584,['n'],0,left,['1'],1,1136,[-0.08131199],67,53,easy,minus,dotcolour,alfa,,,94,18,V,R,
236,110,26,5,1,27,53,783,['n'],1,right,['0'],6,196,[-0.09369077],87,53,easy,minus,dotcolour,alfa,,,94,18,V,R,
237,111,27,5,1,27,53,502,['n'],1,right,['0'],6,161,[-0.08394855],87,53,easy,minus,dotcolour,alfa,,,94,18,V,R,
238,112,28,5,1,33,47,600,['n'],1,right,['9'],5,204,[-0.14982423],95,47,medium,minus,dotcolour,alfa,,,94,18,V,R,
239,113,29,5,1,53,27,700,['c'],1,left,['0'],6,464,[0.20094463],93,53,easy,minus,dotcolour,alfa,,,94,18,V,R,
240,114,30,5,1,36,44,1085,['n'],1,right,['9'],5,652,[0.02075388],44,44,hard,minus,dotcolour,alfa,,,94,18,V,R,
241,115,31,5,1,44,36,732,['c'],1,left,['9'],5,205,[0.10947265],90,44,hard,minus,dotcolour,alfa,,,94,18,V,R,
242,116,32,5,1,53,27,784,['c'],1,left,['0'],6,279,[0.09464927],83,53,easy,minus,dotcolour,alfa,,,94,18,V,R,
243,117,33,5,1,47,33,567,['c'],1,left,['9'],5,278,[0.01544824],57,47,medium,minus,dotcolour,alfa,,,94,18,V,R,
244,118,34,5,1,53,27,717,['c'],1,left,['0'],6,223,[0.11748007],90,53,easy,minus,dotcolour,alfa,,,94,18,V,R,
245,119,35,5,1,33,47,700,['n'],1,right,['9'],5,339,[-0.13572411],89,47,medium,minus,dotcolour,alfa,,,94,18,V,R,
246,120,36,5,1,36,44,618,['c'],0,right,['9'],5,366,[0.09416676],80,44,hard,minus,dotcolour,alfa,,,94,18,V,R,
247,121,37,5,1,44,36,867,['c'],1,left,['9'],5,254,[0.14360816],93,44,hard,minus,dotcolour,alfa,,,94,18,V,R,
248,122,38,5,1,36,44,751,['n'],1,right,['9'],5,263,[-0.08586415],82,44,hard,minus,dotcolour,alfa,,,94,18,V,R,
249,123,39,5,1,27,53,783,['n'],1,right,['9'],5,135,[-0.10865695],93,53,easy,minus,dotcolour,alfa,,,94,18,V,R,
250,124,40,5,1,47,33,600,['c'],1,left,['9'],5,187,[0.13577827],94,47,medium,minus,dotcolour,alfa,,,94,18,V,R,
251,125,41,5,1,27,53,583,['n'],1,right,['9'],5,165,[-0.0748282],84,53,easy,minus,dotcolour,alfa,,,94,18,V,R,
252,0,0,6,2,27,53,1233,['n'],1,right,['9'],5,143,[-0.10383249],100,53,easy,plus,dotcolour,alfa,,,94,18,V,R,
253,1,1,6,2,53,27,617,['c'],1,left,['0'],6,240,[0.12490519],100,53,easy,plus,dotcolour,alfa,,,94,18,V,R,
254,2,2,6,2,27,53,517,['n'],1,right,['0'],6,171,[-0.08729083],100,53,easy,plus,dotcolour,alfa,,,94,18,V,R,
255,3,3,6,2,47,33,666,['c'],1,left,['0'],6,187,[0.08277314],100,47,medium,plus,dotcolour,alfa,,,94,18,V,R,
256,4,4,6,2,47,33,685,['c'],1,left,['0'],6,152,[0.07360652],100,47,medium,plus,dotcolour,alfa,,,94,18,V,R,
257,5,5,6,2,53,27,683,['c'],1,left,['0'],6,73,[0.05621687],100,53,easy,plus,dotcolour,alfa,,,94,18,V,R,
258,6,6,6,2,36,44,550,['n'],1,right,['9'],5,345,[-0.0549047],97,44,hard,plus,dotcolour,alfa,,,94,18,V,R,
259,7,7,6,2,53,27,635,['c'],1,left,['0'],6,202,[0.05892813],99,53,easy,plus,dotcolour,alfa,,,94,18,V,R,
260,8,8,6,2,33,47,519,['n'],1,right,['0'],6,159,[-0.04339995],98,47,medium,plus,dotcolour,alfa,,,94,18,V,R,
261,9,9,6,2,44,36,518,['c'],1,left,['0'],6,134,[0.09756466],100,44,hard,plus,dotcolour,alfa,,,94,18,V,R,
262,10,10,6,2,27,53,500,['n'],1,right,['0'],6,173,[-0.04028362],97,53,easy,plus,dotcolour,alfa,,,94,18,V,R,
263,11,11,6,2,47,33,568,['c'],1,left,['0'],6,153,[0.07380296],100,47,medium,plus,dotcolour,alfa,,,94,18,V,R,
264,12,12,6,2,44,36,567,['c'],1,left,['9'],5,205,[0.0903456],100,44,hard,plus,dotcolour,alfa,,,94,18,V,R,
265,13,13,6,2,47,33,552,['c'],1,left,['9'],5,160,[0.10359846],100,47,medium,plus,dotcolour,alfa,,,94,18,V,R,
266,14,14,6,2,33,47,617,['n'],1,right,['9'],5,186,[-0.11858746],100,47,medium,plus,dotcolour,alfa,,,94,18,V,R,
267,15,15,6,2,33,47,683,['n'],1,right,['9'],5,233,[-0.1094909],100,47,medium,plus,dotcolour,alfa,,,94,18,V,R,
268,16,16,6,2,53,27,484,['c'],1,left,['9'],5,286,[0.12387561],100,53,easy,plus,dotcolour,alfa,,,94,18,V,R,
269,17,17,6,2,36,44,816,['n'],1,right,['9'],5,187,[-0.11929566],100,44,hard,plus,dotcolour,alfa,,,94,18,V,R,
270,18,18,6,2,53,27,501,['c'],1,left,['0'],6,281,[0.08619357],100,53,easy,plus,dotcolour,alfa,,,94,18,V,R,
271,19,19,6,2,36,44,483,['n'],1,right,['0'],6,156,[-0.04192626],98,44,hard,plus,dotcolour,alfa,,,94,18,V,R,
272,20,20,6,2,47,33,567,['c'],1,left,['9'],5,168,[0.09971821],100,47,medium,plus,dotcolour,alfa,,,94,18,V,R,
273,21,21,6,2,36,44,634,['n'],1,right,['9'],5,490,[-0.10760479],100,44,hard,plus,dotcolour,alfa,,,94,18,V,R,
274,22,22,6,2,33,47,534,['n'],1,right,['9'],5,193,[-0.10272719],100,47,medium,plus,dotcolour,alfa,,,94,18,V,R,
275,23,23,6,2,33,47,585,['c'],0,right,['1'],1,667,[-0.06976836],4,47,medium,plus,dotcolour,alfa,,,94,18,V,R,
276,24,24,6,2,33,47,517,['n'],1,right,['9'],5,268,[-0.19576727],100,47,medium,plus,dotcolour,alfa,,,94,18,V,R,
277,25,25,6,2,36,44,550,['n'],1,right,['9'],5,189,[-0.13291508],100,44,hard,plus,dotcolour,alfa,,,94,18,V,R,
278,26,26,6,2,36,44,483,['n'],1,right,['0'],6,291,[-0.09664426],100,44,hard,plus,dotcolour,alfa,,,94,18,V,R,
279,27,27,6,2,27,53,432,['n'],1,right,['0'],6,184,[-0.11639821],100,53,easy,plus,dotcolour,alfa,,,94,18,V,R,
280,28,28,6,2,53,27,599,['c'],1,left,['0'],6,185,[0.07069388],100,53,easy,plus,dotcolour,alfa,,,94,18,V,R,
281,29,29,6,2,44,36,668,['n'],0,left,['9'],5,313,[-0.03583138],91,44,hard,plus,dotcolour,alfa,,,94,18,V,R,
282,30,30,6,2,47,33,601,['c'],1,left,['0'],6,213,[0.1250962],100,47,medium,plus,dotcolour,alfa,,,94,18,V,R,
283,31,31,6,2,44,36,634,['n'],0,left,['9'],5,252,[-0.16183469],100,44,hard,plus,dotcolour,alfa,,,94,18,V,R,
284,32,32,6,2,44,36,483,['n'],0,left,['9'],5,209,[-0.08042407],100,44,hard,plus,dotcolour,alfa,,,94,18,V,R,
285,33,33,6,2,36,44,617,['n'],1,right,['9'],5,160,[-0.10921155],100,44,hard,plus,dotcolour,alfa,,,94,18,V,R,
286,34,34,6,2,27,53,533,['n'],1,right,['0'],6,247,[-0.11539274],100,53,easy,plus,dotcolour,alfa,,,94,18,V,R,
287,35,35,6,2,47,33,534,['c'],1,left,['9'],5,216,[0.06739522],99,47,medium,plus,dotcolour,alfa,,,94,18,V,R,
288,36,36,6,2,33,47,534,['n'],1,right,['9'],5,275,[-0.10386701],100,47,medium,plus,dotcolour,alfa,,,94,18,V,R,
289,37,37,6,2,27,53,467,['n'],1,right,['0'],6,223,[-0.08243366],100,53,easy,plus,dotcolour,alfa,,,94,18,V,R,
290,38,38,6,2,44,36,684,['c'],1,left,['0'],6,187,[0.11341933],100,44,hard,plus,dotcolour,alfa,,,94,18,V,R,
291,39,39,6,2,44,36,551,['c'],1,left,['0'],6,190,[0.01964392],84,44,hard,plus,dotcolour,alfa,,,94,18,V,R,
292,40,40,6,2,27,53,518,['n'],1,right,['0'],6,171,[-0.13060692],100,53,easy,plus,dotcolour,alfa,,,94,18,V,R,
293,41,41,6,2,53,27,484,['n'],0,left,['0'],6,202,[-0.01463499],76,53,easy,plus,dotcolour,alfa,,,94,18,V,R,
294,42,0,7,2,47,33,785,['c'],1,left,['0'],6,138,[0.10228023],100,47,medium,plus,dotcolour,alfa,,,94,18,V,R,
295,43,1,7,2,36,44,885,['n'],1,right,['9'],5,225,[-0.05008858],98,44,hard,plus,dotcolour,alfa,,,94,18,V,R,
296,44,2,7,2,53,27,484,['c'],1,left,['0'],6,134,[0.07695452],100,53,easy,plus,dotcolour,alfa,,,94,18,V,R,
297,45,3,7,2,53,27,501,['c'],1,left,['0'],6,119,[0.08653414],100,53,easy,plus,dotcolour,alfa,,,94,18,V,R,
298,46,4,7,2,44,36,516,['c'],1,left,['9'],5,447,[0.07271375],98,44,hard,plus,dotcolour,alfa,,,94,18,V,R,
299,47,5,7,2,27,53,451,['n'],1,right,['0'],6,148,[-0.03445682],96,53,easy,plus,dotcolour,alfa,,,94,18,V,R,
300,48,6,7,2,36,44,532,['c'],0,right,['0'],6,138,[0.09427577],100,44,hard,plus,dotcolour,alfa,,,94,18,V,R,
301,49,7,7,2,44,36,534,['c'],1,left,['9'],5,168,[0.05934516],99,44,hard,plus,dotcolour,alfa,,,94,18,V,R,
302,50,8,7,2,53,27,517,['n'],0,left,['9'],5,254,[-0.09708989],100,53,easy,plus,dotcolour,alfa,,,94,18,V,R,
303,51,9,7,2,44,36,800,['c'],1,left,['9'],5,125,[0.11634742],100,44,hard,plus,dotcolour,alfa,,,94,18,V,R,
304,52,10,7,2,27,53,466,['n'],1,right,['0'],6,174,[-0.0921507],100,53,easy,plus,dotcolour,alfa,,,94,18,V,R,
305,53,11,7,2,53,27,683,['c'],1,left,['9'],5,204,[0.12884602],100,53,easy,plus,dotcolour,alfa,,,94,18,V,R,
306,54,12,7,2,27,53,735,['n'],1,right,['9'],5,248,[-0.08338204],100,53,easy,plus,dotcolour,alfa,,,94,18,V,R,
307,55,13,7,2,47,33,601,['c'],1,left,['9'],5,215,[0.06917515],100,47,medium,plus,dotcolour,alfa,,,94,18,V,R,
308,56,14,7,2,33,47,483,['n'],1,right,['9'],5,341,[-0.07725126],99,47,medium,plus,dotcolour,alfa,,,94,18,V,R,
309,57,15,7,2,44,36,634,['c'],1,left,['0'],6,183,[0.04835415],98,44,hard,plus,dotcolour,alfa,,,94,18,V,R,
310,58,16,7,2,47,33,584,['c'],1,left,['9'],5,250,[0.01829711],79,47,medium,plus,dotcolour,alfa,,,94,18,V,R,
311,59,17,7,2,33,47,652,['n'],1,right,['9'],5,239,[-0.13767861],100,47,medium,plus,dotcolour,alfa,,,94,18,V,R,
312,60,18,7,2,36,44,617,['n'],1,right,['9'],5,157,[0.01838319],16,44,hard,plus,dotcolour,alfa,,,94,18,V,R,
313,61,19,7,2,53,27,584,['c'],1,left,['0'],6,209,[0.08067772],100,53,easy,plus,dotcolour,alfa,,,94,18,V,R,
314,62,20,7,2,47,33,568,['c'],1,left,['0'],6,194,[0.11401606],100,47,medium,plus,dotcolour,alfa,,,94,18,V,R,
315,63,21,7,2,33,47,483,['n'],1,right,['0'],6,128,[-0.06865934],100,47,medium,plus,dotcolour,alfa,,,94,18,V,R,
316,64,22,7,2,36,44,534,['n'],1,right,['0'],6,168,[-0.11278237],100,44,hard,plus,dotcolour,alfa,,,94,18,V,R,
317,65,23,7,2,47,33,517,['c'],1,left,['0'],6,109,[0.04749725],99,47,medium,plus,dotcolour,alfa,,,94,18,V,R,
318,66,24,7,2,53,27,535,['n'],0,left,['1'],1,805,[0.15702427],0,53,easy,plus,dotcolour,alfa,,,94,18,V,R,
319,67,25,7,2,47,33,699,['c'],1,left,['0'],6,114,[0.06670735],100,47,medium,plus,dotcolour,alfa,,,94,18,V,R,
320,68,26,7,2,47,33,851,['c'],1,left,['9'],5,261,[0.07807002],100,47,medium,plus,dotcolour,alfa,,,94,18,V,R,
321,69,27,7,2,27,53,516,['n'],1,right,['9'],5,198,[-0.06506751],99,53,easy,plus,dotcolour,alfa,,,94,18,V,R,
322,70,28,7,2,27,53,617,['n'],1,right,['9'],5,135,[-0.02399309],91,53,easy,plus,dotcolour,alfa,,,94,18,V,R,
323,71,29,7,2,27,53,450,['n'],1,right,['9'],5,185,[-0.09235112],100,53,easy,plus,dotcolour,alfa,,,94,18,V,R,
324,72,30,7,2,27,53,1200,['n'],1,right,['3'],3,1210,[-0.04410298],81,53,easy,plus,dotcolour,alfa,,,94,18,V,R,
325,73,31,7,2,33,47,550,['n'],1,right,['0'],6,214,[-0.10396],100,47,medium,plus,dotcolour,alfa,,,94,18,V,R,
326,74,32,7,2,44,36,1015,['c'],1,left,['9'],5,165,[0.10844186],100,44,hard,plus,dotcolour,alfa,,,94,18,V,R,
327,75,33,7,2,53,27,517,['c'],1,left,['9'],5,212,[0.143957],100,53,easy,plus,dotcolour,alfa,,,94,18,V,R,
328,76,34,7,2,36,44,601,['n'],1,right,['9'],5,172,[-0.0415418],97,44,hard,plus,dotcolour,alfa,,,94,18,V,R,
329,77,35,7,2,44,36,618,['c'],1,left,['8'],4,326,[0.05802137],97,44,hard,plus,dotcolour,alfa,,,94,18,V,R,
330,78,36,7,2,36,44,1017,['n'],1,right,['8'],4,473,[-0.06910871],97,44,hard,plus,dotcolour,alfa,,,94,18,V,R,
331,79,37,7,2,33,47,734,['n'],1,right,['0'],6,290,[-0.18083377],100,47,medium,plus,dotcolour,alfa,,,94,18,V,R,
332,80,38,7,2,44,36,582,['n'],0,left,['3'],3,1336,[-0.16873656],99,44,hard,plus,dotcolour,alfa,,,94,18,V,R,
333,81,39,7,2,33,47,734,['n'],1,right,['8'],4,222,[-0.09407568],100,47,medium,plus,dotcolour,alfa,,,94,18,V,R,
334,82,40,7,2,36,44,584,['n'],1,right,['9'],5,647,[-0.12351463],100,44,hard,plus,dotcolour,alfa,,,94,18,V,R,
335,83,41,7,2,33,47,650,['n'],1,right,['8'],4,708,[-0.14909051],100,47,medium,plus,dotcolour,alfa,,,94,18,V,R,
336,84,0,8,2,27,53,835,['n'],1,right,['8'],4,234,[-0.12347008],100,53,easy,plus,dotcolour,alfa,,,94,18,V,R,
337,85,1,8,2,53,27,667,['c'],1,left,['0'],6,159,[0.08518317],100,53,easy,plus,dotcolour,alfa,,,94,18,V,R,
338,86,2,8,2,33,47,700,['n'],1,right,['9'],5,214,[-0.01317768],74,47,medium,plus,dotcolour,alfa,,,94,18,V,R,
339,87,3,8,2,53,27,600,['c'],1,left,['0'],6,143,[0.07421442],100,53,easy,plus,dotcolour,alfa,,,94,18,V,R,
340,88,4,8,2,27,53,601,['n'],1,right,['0'],6,146,[-0.08489061],100,53,easy,plus,dotcolour,alfa,,,94,18,V,R,
341,89,5,8,2,44,36,533,['c'],1,left,['0'],6,136,[0.07578271],100,44,hard,plus,dotcolour,alfa,,,94,18,V,R,
342,90,6,8,2,47,33,633,['c'],1,left,['0'],6,99,[0.04705974],100,47,medium,plus,dotcolour,alfa,,,94,18,V,R,
343,91,7,8,2,27,53,600,['n'],1,right,['0'],6,145,[-0.07723843],100,53,easy,plus,dotcolour,alfa,,,94,18,V,R,
344,92,8,8,2,44,36,1031,['c'],1,left,['8'],4,370,[0.06639584],98,44,hard,plus,dotcolour,alfa,,,94,18,V,R,
345,93,9,8,2,44,36,651,['c'],1,left,['0'],6,146,[0.02694432],93,44,hard,plus,dotcolour,alfa,,,94,18,V,R,
346,94,10,8,2,44,36,699,['c'],1,left,['9'],5,186,[-0.00372543],42,44,hard,plus,dotcolour,alfa,,,94,18,V,R,
347,95,11,8,2,36,44,684,['c'],0,right,['9'],5,200,[0.07280738],100,44,hard,plus,dotcolour,alfa,,,94,18,V,R,
348,96,12,8,2,47,33,535,['c'],1,left,['0'],6,124,[0.1244054],100,47,medium,plus,dotcolour,alfa,,,94,18,V,R,
349,97,13,8,2,36,44,585,['c'],0,right,['9'],5,145,[0.05515833],99,44,hard,plus,dotcolour,alfa,,,94,18,V,R,
350,98,14,8,2,27,53,601,['n'],1,right,['0'],6,156,[-0.10325581],100,53,easy,plus,dotcolour,alfa,,,94,18,V,R,
351,99,15,8,2,44,36,868,['c'],1,left,['9'],5,156,[0.05214721],99,44,hard,plus,dotcolour,alfa,,,94,18,V,R,
352,100,16,8,2,33,47,767,['n'],1,right,['9'],5,321,[-0.16468751],100,47,medium,plus,dotcolour,alfa,,,94,18,V,R,
353,101,17,8,2,47,33,685,['c'],1,left,['9'],5,185,[0.01080996],71,47,medium,plus,dotcolour,alfa,,,94,18,V,R,
354,102,18,8,2,33,47,617,['n'],1,right,['9'],5,218,[-0.05658937],99,47,medium,plus,dotcolour,alfa,,,94,18,V,R,
355,103,19,8,2,36,44,517,['n'],1,right,['0'],6,239,[-0.06877849],99,44,hard,plus,dotcolour,alfa,,,94,18,V,R,
356,104,20,8,2,33,47,399,['n'],1,right,['0'],6,158,[-0.12134153],100,47,medium,plus,dotcolour,alfa,,,94,18,V,R,
357,105,21,8,2,44,36,567,['c'],1,left,['0'],6,82,[0.11075055],100,44,hard,plus,dotcolour,alfa,,,94,18,V,R,
358,106,22,8,2,53,27,599,['c'],1,left,['0'],6,89,[0.11726794],100,53,easy,plus,dotcolour,alfa,,,94,18,V,R,
359,107,23,8,2,33,47,632,['n'],1,right,['0'],6,124,[-0.0265715],94,47,medium,plus,dotcolour,alfa,,,94,18,V,R,
360,108,24,8,2,36,44,467,['n'],1,right,['0'],6,118,[-0.04990403],99,44,hard,plus,dotcolour,alfa,,,94,18,V,R,
361,109,25,8,2,53,27,517,['c'],1,left,['0'],6,150,[0.08260121],100,53,easy,plus,dotcolour,alfa,,,94,18,V,R,
362,110,26,8,2,33,47,583,['n'],1,right,['0'],6,130,[-0.04425219],99,47,medium,plus,dotcolour,alfa,,,94,18,V,R,
363,111,27,8,2,53,27,633,['c'],1,left,['0'],6,141,[0.11226639],100,53,easy,plus,dotcolour,alfa,,,94,18,V,R,
364,112,28,8,2,47,33,550,['n'],0,left,['0'],6,194,[-0.04727372],98,47,medium,plus,dotcolour,alfa,,,94,18,V,R,
365,113,29,8,2,44,36,800,['n'],0,left,['9'],5,308,[0.01981372],22,44,hard,plus,dotcolour,alfa,,,94,18,V,R,
366,114,30,8,2,36,44,782,['n'],1,right,['0'],6,153,[-0.09594668],100,44,hard,plus,dotcolour,alfa,,,94,18,V,R,
367,115,31,8,2,27,53,450,['n'],1,right,['0'],6,146,[-0.04633822],99,53,easy,plus,dotcolour,alfa,,,94,18,V,R,
368,116,32,8,2,36,44,451,['n'],1,right,['0'],6,196,[-0.10228278],100,44,hard,plus,dotcolour,alfa,,,94,18,V,R,
369,117,33,8,2,47,33,617,['n'],0,left,['0'],6,332,[0.02746349],15,47,medium,plus,dotcolour,alfa,,,94,18,V,R,
370,118,34,8,2,47,33,651,['c'],1,left,['9'],5,255,[0.06849552],99,47,medium,plus,dotcolour,alfa,,,94,18,V,R,
371,119,35,8,2,36,44,551,['n'],1,right,['9'],5,199,[-0.09629818],100,44,hard,plus,dotcolour,alfa,,,94,18,V,R,
372,120,36,8,2,33,47,483,['n'],1,right,['9'],5,189,[-0.07697943],100,47,medium,plus,dotcolour,alfa,,,94,18,V,R,
373,121,37,8,2,53,27,600,['c'],1,left,['0'],6,174,[0.12202665],100,53,easy,plus,dotcolour,alfa,,,94,18,V,R,
374,122,38,8,2,47,33,649,['c'],1,left,['9'],5,215,[0.04345955],97,47,medium,plus,dotcolour,alfa,,,94,18,V,R,
375,123,39,8,2,27,53,500,['n'],1,right,['9'],5,299,[-0.05081894],97,53,easy,plus,dotcolour,alfa,,,94,18,V,R,
376,124,40,8,2,53,27,551,['c'],1,left,['0'],6,234,[0.07982186],100,53,easy,plus,dotcolour,alfa,,,94,18,V,R,
377,125,41,8,2,27,53,568,['n'],1,right,['9'],5,172,[-0.03505405],95,53,easy,plus,dotcolour,alfa,,,94,18,V,R,
378,0,0,9,3,44,36,751,['c'],1,left,['9'],5,161,[0.07700877],85,44,hard,minus,dotcolour,alfa,,,94,18,V,R,
379,1,1,9,3,36,44,433,['n'],1,right,['0'],6,162,[-0.10979463],92,44,hard,minus,dotcolour,alfa,,,94,18,V,R,
380,2,2,9,3,27,53,584,['n'],1,right,['9'],5,190,[-0.09785801],88,53,easy,minus,dotcolour,alfa,,,94,18,V,R,
381,3,3,9,3,33,47,718,['c'],0,right,['9'],5,147,[0.02271183],63,47,medium,minus,dotcolour,alfa,,,94,18,V,R,
382,4,4,9,3,47,33,634,['c'],1,left,['0'],6,189,[0.06323631],79,47,medium,minus,dotcolour,alfa,,,94,18,V,R,
383,5,5,9,3,36,44,667,['n'],1,right,['9'],5,155,[-0.00834175],55,44,hard,minus,dotcolour,alfa,,,94,18,V,R,
384,6,6,9,3,47,33,635,['c'],1,left,['9'],5,181,[0.06820947],81,47,medium,minus,dotcolour,alfa,,,94,18,V,R,
385,7,7,9,3,53,27,665,['c'],1,left,['9'],5,220,[0.09262011],86,53,easy,minus,dotcolour,alfa,,,94,18,V,R,
386,8,8,9,3,33,47,550,['n'],1,right,['9'],5,287,[-0.02961533],62,47,medium,minus,dotcolour,alfa,,,94,18,V,R,
387,9,9,9,3,44,36,667,['c'],1,left,['9'],5,217,[0.08394069],84,44,hard,minus,dotcolour,alfa,,,94,18,V,R,
388,10,10,9,3,53,27,685,['c'],1,left,['9'],5,350,[0.12239633],87,53,easy,minus,dotcolour,alfa,,,94,18,V,R,
389,11,11,9,3,27,53,500,['n'],1,right,['9'],5,190,[-0.01096254],56,53,easy,minus,dotcolour,alfa,,,94,18,V,R,
390,12,12,9,3,27,53,502,['c'],0,right,['0'],6,148,[-0.01983063],39,53,easy,minus,dotcolour,alfa,,,94,18,V,R,
391,13,13,9,3,53,27,483,['n'],0,left,['1'],1,931,[0.14933824],20,53,easy,minus,dotcolour,alfa,,,94,18,V,R,
392,14,14,9,3,47,33,767,['c'],1,left,['0'],6,216,[0.13534627],93,47,medium,minus,dotcolour,alfa,,,94,18,V,R,
393,15,15,9,3,44,36,651,['c'],1,left,['0'],6,135,[0.04983084],77,44,hard,minus,dotcolour,alfa,,,94,18,V,R,
394,16,16,9,3,36,44,585,['n'],1,right,['9'],5,348,[-0.1981757],95,44,hard,minus,dotcolour,alfa,,,94,18,V,R,
395,17,17,9,3,36,44,982,['n'],1,right,['9'],5,168,[-0.11082041],92,44,hard,minus,dotcolour,alfa,,,94,18,V,R,
396,18,18,9,3,27,53,635,['n'],1,right,['9'],5,161,[-0.10190189],91,53,easy,minus,dotcolour,alfa,,,94,18,V,R,
397,19,19,9,3,27,53,534,['n'],1,right,['9'],5,150,[-0.13741426],96,53,easy,minus,dotcolour,alfa,,,94,18,V,R,
398,20,20,9,3,36,44,500,['n'],1,right,['9'],5,213,[-0.11639215],91,44,hard,minus,dotcolour,alfa,,,94,18,V,R,
399,21,21,9,3,44,36,716,['c'],1,left,['9'],5,73,[0.07823389],93,44,hard,minus,dotcolour,alfa,,,94,18,V,R,
400,22,22,9,3,53,27,534,['c'],1,left,['9'],5,194,[0.00473988],52,53,easy,minus,dotcolour,alfa,,,94,18,V,R,
401,23,23,9,3,47,33,550,['c'],1,left,['9'],5,174,[0.17846794],98,47,medium,minus,dotcolour,alfa,,,94,18,V,R,
402,24,24,9,3,53,27,517,['c'],1,left,['9'],5,187,[0.10477986],90,53,easy,minus,dotcolour,alfa,,,94,18,V,R,
403,25,25,9,3,44,36,517,['c'],1,left,['9'],5,176,[0.07846217],84,44,hard,minus,dotcolour,alfa,,,94,18,V,R,
404,26,26,9,3,33,47,582,['n'],1,right,['9'],5,154,[-0.10401672],92,47,medium,minus,dotcolour,alfa,,,94,18,V,R,
405,27,27,9,3,33,47,750,['c'],0,right,['9'],5,159,[0.03717112],70,47,medium,minus,dotcolour,alfa,,,94,18,V,R,
406,28,28,9,3,36,44,1050,['n'],1,right,['9'],5,144,[-0.05926464],80,44,hard,minus,dotcolour,alfa,,,94,18,V,R,
407,29,29,9,3,44,36,717,['c'],1,left,['9'],5,150,[-0.00482348],47,44,hard,minus,dotcolour,alfa,,,94,18,V,R,
408,30,30,9,3,36,44,768,['n'],1,right,['9'],5,139,[-0.10798087],93,44,hard,minus,dotcolour,alfa,,,94,18,V,R,
409,31,31,9,3,27,53,551,['n'],1,right,['9'],5,136,[-0.10566563],93,53,easy,minus,dotcolour,alfa,,,94,18,V,R,
410,32,32,9,3,53,27,583,['c'],1,left,['9'],5,157,[0.09323615],89,53,easy,minus,dotcolour,alfa,,,94,18,V,R,
411,33,33,9,3,33,47,785,['n'],1,right,['9'],5,208,[-0.12869089],93,47,medium,minus,dotcolour,alfa,,,94,18,V,R,
412,34,34,9,3,33,47,599,['n'],1,right,['9'],5,178,[-0.05459929],76,47,medium,minus,dotcolour,alfa,,,94,18,V,R,
413,35,35,9,3,47,33,7501,['n'],0,left,['1'],1,776,[-0.02196387],56,47,medium,minus,dotcolour,alfa,,,94,18,V,R,
414,36,36,9,3,47,33,817,['c'],1,left,['9'],5,177,[0.08264218],85,47,medium,minus,dotcolour,alfa,,,94,18,V,R,
415,37,37,9,3,53,27,783,['c'],1,left,['9'],5,108,[0.11338166],96,53,easy,minus,dotcolour,alfa,,,94,18,V,R,
416,38,38,9,3,47,33,800,['n'],0,left,['9'],5,152,[-0.04918878],76,47,medium,minus,dotcolour,alfa,,,94,18,V,R,
417,39,39,9,3,27,53,533,['n'],1,right,['9'],5,222,[-0.0920398],85,53,easy,minus,dotcolour,alfa,,,94,18,V,R,
418,40,40,9,3,44,36,836,['c'],1,left,['9'],5,150,[0.07716779],86,44,hard,minus,dotcolour,alfa,,,94,18,V,R,
419,41,41,9,3,33,47,517,['n'],1,right,['9'],5,188,[-0.13989399],95,47,medium,minus,dotcolour,alfa,,,94,18,V,R,
420,42,0,10,3,36,44,702,['n'],1,right,['9'],5,134,[-0.10317983],93,44,hard,minus,dotcolour,alfa,,,94,18,V,R,
421,43,1,10,3,44,36,482,['n'],0,left,['9'],5,150,[-0.07461081],85,44,hard,minus,dotcolour,alfa,,,94,18,V,R,
422,44,2,10,3,27,53,499,['n'],1,right,['9'],5,133,[-0.13264974],96,53,easy,minus,dotcolour,alfa,,,94,18,V,R,
423,45,3,10,3,44,36,1034,['c'],1,left,['9'],5,392,[0.11233765],83,44,hard,minus,dotcolour,alfa,,,94,18,V,R,
424,46,4,10,3,27,53,567,['n'],1,right,['0'],6,244,[-0.11109772],88,53,easy,minus,dotcolour,alfa,,,94,18,V,R,
425,47,5,10,3,33,47,550,['n'],1,right,['0'],6,133,[-0.10332808],93,47,medium,minus,dotcolour,alfa,,,94,18,V,R,
426,48,6,10,3,53,27,551,['c'],1,left,['9'],5,179,[0.13679136],95,53,easy,minus,dotcolour,alfa,,,94,18,V,R,
427,49,7,10,3,53,27,550,['c'],1,left,['9'],5,199,[0.13584382],94,53,easy,minus,dotcolour,alfa,,,94,18,V,R,
428,50,8,10,3,33,47,600,['n'],1,right,['9'],5,200,[-0.13201526],93,47,medium,minus,dotcolour,alfa,,,94,18,V,R,
429,51,9,10,3,47,33,916,['c'],1,left,['9'],5,181,[0.08903375],87,47,medium,minus,dotcolour,alfa,,,94,18,V,R,
430,52,10,10,3,27,53,550,['n'],1,right,['9'],5,337,[-0.06684215],74,53,easy,minus,dotcolour,alfa,,,94,18,V,R,
431,53,11,10,3,44,36,918,['c'],1,left,['0'],6,191,[0.15006926],96,44,hard,minus,dotcolour,alfa,,,94,18,V,R,
432,54,12,10,3,36,44,667,['n'],1,right,['0'],6,175,[-0.07230513],83,44,hard,minus,dotcolour,alfa,,,94,18,V,R,
433,55,13,10,3,27,53,568,['n'],1,right,['0'],6,139,[-0.04248198],74,53,easy,minus,dotcolour,alfa,,,94,18,V,R,
434,56,14,10,3,47,33,849,['c'],1,left,['9'],5,171,[0.10725837],91,47,medium,minus,dotcolour,alfa,,,94,18,V,R,
435,57,15,10,3,33,47,883,['n'],1,right,['9'],5,162,[-0.06875535],82,47,medium,minus,dotcolour,alfa,,,94,18,V,R,
436,58,16,10,3,27,53,751,['n'],1,right,['0'],6,175,[-0.17370257],98,53,easy,minus,dotcolour,alfa,,,94,18,V,R,
437,59,17,10,3,33,47,617,['n'],1,right,['9'],5,248,[-0.06755761],77,47,medium,minus,dotcolour,alfa,,,94,18,V,R,
438,60,18,10,3,36,44,934,['c'],0,right,['8'],4,786,[0.1579793],83,44,hard,minus,dotcolour,alfa,,,94,18,V,R,
439,61,19,10,3,27,53,617,['n'],1,right,['0'],6,179,[-0.11050661],91,53,easy,minus,dotcolour,alfa,,,94,18,V,R,
440,62,20,10,3,44,36,767,['c'],1,left,['9'],5,118,[0.06100414],83,44,hard,minus,dotcolour,alfa,,,94,18,V,R,
441,63,21,10,3,36,44,616,['c'],0,right,['9'],5,194,[0.05090524],74,44,hard,minus,dotcolour,alfa,,,94,18,V,R,
442,64,22,10,3,47,33,617,['c'],1,left,['0'],6,219,[0.05388998],74,47,medium,minus,dotcolour,alfa,,,94,18,V,R,
443,65,23,10,3,36,44,917,['c'],0,right,['9'],5,151,[-0.02270775],37,44,hard,minus,dotcolour,alfa,,,94,18,V,R,
444,66,24,10,3,33,47,783,['n'],1,right,['9'],5,187,[-0.13227996],94,47,medium,minus,dotcolour,alfa,,,94,18,V,R,
445,67,25,10,3,44,36,550,['c'],1,left,['0'],6,159,[0.11036139],92,44,hard,minus,dotcolour,alfa,,,94,18,V,R,
446,68,26,10,3,36,44,851,['c'],0,right,['0'],6,159,[0.02975548],66,44,hard,minus,dotcolour,alfa,,,94,18,V,R,
447,69,27,10,3,27,53,550,['n'],1,right,['0'],6,163,[-0.10521078],91,53,easy,minus,dotcolour,alfa,,,94,18,V,R,
448,70,28,10,3,53,27,584,['c'],1,left,['0'],6,103,[0.1071902],95,53,easy,minus,dotcolour,alfa,,,94,18,V,R,
449,71,29,10,3,47,33,534,['c'],1,left,['0'],6,111,[0.04337634],76,47,medium,minus,dotcolour,alfa,,,94,18,V,R,
450,72,30,10,3,36,44,585,['n'],1,right,['0'],6,149,[-0.08563756],88,44,hard,minus,dotcolour,alfa,,,94,18,V,R,
451,73,31,10,3,47,33,717,['c'],1,left,['9'],5,123,[0.09195046],91,47,medium,minus,dotcolour,alfa,,,94,18,V,R,
452,74,32,10,3,53,27,500,['c'],1,left,['9'],5,203,[0.09176986],86,53,easy,minus,dotcolour,alfa,,,94,18,V,R,
453,75,33,10,3,33,47,567,['n'],1,right,['9'],5,158,[-0.14211249],96,47,medium,minus,dotcolour,alfa,,,94,18,V,R,
454,76,34,10,3,44,36,533,['c'],1,left,['0'],6,155,[0.03798772],70,44,hard,minus,dotcolour,alfa,,,94,18,V,R,
455,77,35,10,3,47,33,751,['c'],1,left,['0'],6,224,[0.12353749],91,47,medium,minus,dotcolour,alfa,,,94,18,V,R,
456,78,36,10,3,33,47,750,['c'],0,right,['0'],6,194,[0.1115956],91,47,medium,minus,dotcolour,alfa,,,94,18,V,R,
457,79,37,10,3,53,27,551,['c'],1,left,['0'],6,133,[0.08528119],89,53,easy,minus,dotcolour,alfa,,,94,18,V,R,
458,80,38,10,3,53,27,618,['c'],1,left,['0'],6,121,[0.01105449],57,53,easy,minus,dotcolour,alfa,,,94,18,V,R,
459,81,39,10,3,53,27,799,['c'],1,left,['0'],6,142,[0.1377329],96,53,easy,minus,dotcolour,alfa,,,94,18,V,R,
460,82,40,10,3,44,36,531,['c'],1,left,['0'],6,132,[0.05387362],79,44,hard,minus,dotcolour,alfa,,,94,18,V,R,
461,83,41,10,3,47,33,685,['c'],1,left,['0'],6,116,[0.11876589],96,47,medium,minus,dotcolour,alfa,,,94,18,V,R,
462,84,0,11,3,53,27,618,['c'],1,left,['0'],6,113,[0.0669175],86,53,easy,minus,dotcolour,alfa,,,94,18,V,R,
463,85,1,11,3,53,27,502,['c'],1,left,['0'],6,138,[0.08153604],88,53,easy,minus,dotcolour,alfa,,,94,18,V,R,
464,86,2,11,3,36,44,618,['n'],1,right,['0'],6,157,[-0.07774223],85,44,hard,minus,dotcolour,alfa,,,94,18,V,R,
465,87,3,11,3,53,27,483,['c'],1,left,['0'],6,148,[0.09310448],90,53,easy,minus,dotcolour,alfa,,,94,18,V,R,
466,88,4,11,3,33,47,584,['n'],1,right,['9'],5,288,[-0.04406849],68,47,medium,minus,dotcolour,alfa,,,94,18,V,R,
467,89,5,11,3,53,27,451,['c'],1,left,['9'],5,283,[0.19252668],96,53,easy,minus,dotcolour,alfa,,,94,18,V,R,
468,90,6,11,3,36,44,901,['n'],1,right,['9'],5,198,[-0.11108705],90,44,hard,minus,dotcolour,alfa,,,94,18,V,R,
469,91,7,11,3,44,36,567,['c'],1,left,['0'],6,176,[0.10101479],90,44,hard,minus,dotcolour,alfa,,,94,18,V,R,
470,92,8,11,3,33,47,534,['n'],1,right,['0'],6,157,[-0.1231869],94,47,medium,minus,dotcolour,alfa,,,94,18,V,R,
471,93,9,11,3,47,33,566,['c'],1,left,['0'],6,66,[0.07597764],93,47,medium,minus,dotcolour,alfa,,,94,18,V,R,
472,94,10,11,3,36,44,733,['n'],1,right,['9'],5,314,[-0.08333825],79,44,hard,minus,dotcolour,alfa,,,94,18,V,R,
473,95,11,11,3,53,27,532,['c'],1,left,['0'],6,202,[0.18609173],98,53,easy,minus,dotcolour,alfa,,,94,18,V,R,
474,96,12,11,3,36,44,583,['n'],1,right,['0'],6,187,[-0.09662152],88,44,hard,minus,dotcolour,alfa,,,94,18,V,R,
475,97,13,11,3,47,33,566,['c'],1,left,['0'],6,55,[0.04550031],85,47,medium,minus,dotcolour,alfa,,,94,18,V,R,
476,98,14,11,3,53,27,634,['c'],1,left,['0'],6,100,[0.03900689],75,53,easy,minus,dotcolour,alfa,,,94,18,V,R,
477,99,15,11,3,27,53,517,['n'],1,right,['0'],6,189,[-0.13411258],94,53,easy,minus,dotcolour,alfa,,,94,18,V,R,
478,100,16,11,3,36,44,750,['n'],1,right,['9'],5,408,[-0.05672273],69,44,hard,minus,dotcolour,alfa,,,94,18,V,R,
479,101,17,11,3,27,53,701,['n'],1,right,['9'],5,325,[-0.10767375],85,53,easy,minus,dotcolour,alfa,,,94,18,V,R,
480,102,18,11,3,27,53,550,['n'],1,right,['0'],6,235,[-0.05342462],73,53,easy,minus,dotcolour,alfa,,,94,18,V,R,
481,103,19,11,3,44,36,1200,['n'],0,left,['8'],4,259,[-0.1546876],94,44,hard,minus,dotcolour,alfa,,,94,18,V,R,
482,104,20,11,3,44,36,817,['c'],1,left,['9'],5,336,[0.12223877],87,44,hard,minus,dotcolour,alfa,,,94,18,V,R,
483,105,21,11,3,47,33,700,['c'],1,left,['9'],5,328,[0.20489676],96,47,medium,minus,dotcolour,alfa,,,94,18,V,R,
484,106,22,11,3,27,53,517,['n'],1,right,['8'],4,367,[-0.07706171],76,53,easy,minus,dotcolour,alfa,,,94,18,V,R,
485,107,23,11,3,33,47,635,['c'],0,right,['1'],1,658,[-0.11438974],22,47,medium,minus,dotcolour,alfa,,,94,18,V,R,
486,108,24,11,3,47,33,1233,['c'],1,left,['9'],5,343,[0.16542008],93,47,medium,minus,dotcolour,alfa,,,94,18,V,R,
487,109,25,11,3,27,53,683,['n'],1,right,['9'],5,246,[-0.05799842],74,53,easy,minus,dotcolour,alfa,,,94,18,V,R,
488,110,26,11,3,36,44,866,['n'],1,right,['8'],4,243,[-0.00678906],53,44,hard,minus,dotcolour,alfa,,,94,18,V,R,
489,111,27,11,3,44,36,702,['c'],1,left,['9'],5,230,[0.08487308],83,44,hard,minus,dotcolour,alfa,,,94,18,V,R,
490,112,28,11,3,27,53,616,['n'],1,right,['9'],5,231,[-0.06801845],78,53,easy,minus,dotcolour,alfa,,,94,18,V,R,
491,113,29,11,3,33,47,583,['n'],1,right,['8'],4,166,[-0.10097832],90,47,medium,minus,dotcolour,alfa,,,94,18,V,R,
492,114,30,11,3,53,27,567,['c'],1,left,['8'],4,275,[0.20487176],97,53,easy,minus,dotcolour,alfa,,,94,18,V,R,
493,115,31,11,3,33,47,649,['n'],1,right,['8'],4,302,[-0.08770044],81,47,medium,minus,dotcolour,alfa,,,94,18,V,R,
494,116,32,11,3,44,36,634,['n'],0,left,['8'],4,170,[-0.06893295],82,44,hard,minus,dotcolour,alfa,,,94,18,V,R,
495,117,33,11,3,33,47,650,['n'],1,right,['9'],5,267,[-0.10175603],85,47,medium,minus,dotcolour,alfa,,,94,18,V,R,
496,118,34,11,3,44,36,567,['c'],1,left,['0'],6,236,[0.16641904],96,44,hard,minus,dotcolour,alfa,,,94,18,V,R,
497,119,35,11,3,36,44,1432,['n'],1,right,['8'],4,387,[-0.01511134],55,44,hard,minus,dotcolour,alfa,,,94,18,V,R,
498,120,36,11,3,27,53,517,['n'],1,right,['9'],5,271,[-0.20417304],97,53,easy,minus,dotcolour,alfa,,,94,18,V,R,
499,121,37,11,3,47,33,716,['c'],1,left,['9'],5,152,[0.12533563],95,47,medium,minus,dotcolour,alfa,,,94,18,V,R,
500,122,38,11,3,47,33,583,['c'],1,left,['9'],5,228,[0.09305928],85,47,medium,minus,dotcolour,alfa,,,94,18,V,R,
501,123,39,11,3,33,47,535,['n'],1,right,['8'],4,319,[-0.0109641],54,47,medium,minus,dotcolour,alfa,,,94,18,V,R,
502,124,40,11,3,44,36,633,['c'],1,left,['9'],5,242,[0.03440402],65,44,hard,minus,dotcolour,alfa,,,94,18,V,R,
503,125,41,11,3,47,33,551,['n'],0,left,['1'],1,787,[-0.0676276],67,47,medium,minus,dotcolour,alfa,,,94,18,V,R,
504,0,0,12,4,36,44,935,['n'],1,right,['8'],4,379,[-0.11650385],100,44,hard,plus,dotcolour,alfa,,,94,18,V,R,
505,1,1,12,4,53,27,500,['c'],1,left,['9'],5,202,[0.11367879],100,53,easy,plus,dotcolour,alfa,,,94,18,V,R,
506,2,2,12,4,33,47,518,['n'],1,right,['0'],6,278,[-0.00906976],65,47,medium,plus,dotcolour,alfa,,,94,18,V,R,
507,3,3,12,4,27,53,683,['n'],1,right,['0'],6,185,[0.0080256],34,53,easy,plus,dotcolour,alfa,,,94,18,V,R,
508,4,4,12,4,44,36,532,['c'],1,left,['9'],5,238,[0.00390392],57,44,hard,plus,dotcolour,alfa,,,94,18,V,R,
509,5,5,12,4,36,44,551,['c'],0,right,['8'],4,607,[0.08784822],98,44,hard,plus,dotcolour,alfa,,,94,18,V,R,
510,6,6,12,4,53,27,601,['c'],1,left,['8'],4,215,[0.0569561],99,53,easy,plus,dotcolour,alfa,,,94,18,V,R,
511,7,7,12,4,53,27,567,['c'],1,left,['9'],5,282,[0.04489737],95,53,easy,plus,dotcolour,alfa,,,94,18,V,R,
512,8,8,12,4,44,36,1052,['n'],0,left,['8'],4,341,[-0.07308345],99,44,hard,plus,dotcolour,alfa,,,94,18,V,R,
513,9,9,12,4,53,27,684,['c'],1,left,['9'],5,581,[0.1363252],100,53,easy,plus,dotcolour,alfa,,,94,18,V,R,
514,10,10,12,4,53,27,617,['c'],1,left,['9'],5,311,[0.17616178],100,53,easy,plus,dotcolour,alfa,,,94,18,V,R,
515,11,11,12,4,53,27,567,['c'],1,left,['9'],5,197,[0.09639926],100,53,easy,plus,dotcolour,alfa,,,94,18,V,R,
516,12,12,12,4,33,47,701,['n'],1,right,['9'],5,386,[0.01384906],31,47,medium,plus,dotcolour,alfa,,,94,18,V,R,
517,13,13,12,4,33,47,1001,['n'],1,right,['9'],5,301,[-0.17698155],100,47,medium,plus,dotcolour,alfa,,,94,18,V,R,
518,14,14,12,4,33,47,651,['n'],1,right,['9'],5,191,[-0.10423078],100,47,medium,plus,dotcolour,alfa,,,94,18,V,R,
519,15,15,12,4,47,33,750,['n'],0,left,['1'],1,827,[0.11013779],1,47,medium,plus,dotcolour,alfa,,,94,18,V,R,
520,16,16,12,4,27,53,717,['n'],1,right,['9'],5,302,[-0.03652647],92,53,easy,plus,dotcolour,alfa,,,94,18,V,R,
521,17,17,12,4,44,36,750,['n'],0,left,['8'],4,446,[0.05306815],5,44,hard,plus,dotcolour,alfa,,,94,18,V,R,
522,18,18,12,4,53,27,684,['c'],1,left,['9'],5,577,[0.10571139],99,53,easy,plus,dotcolour,alfa,,,94,18,V,R,
523,19,19,12,4,47,33,850,['c'],1,left,['8'],4,433,[-0.06186084],3,47,medium,plus,dotcolour,alfa,,,94,18,V,R,
524,20,20,12,4,33,47,650,['n'],1,right,['9'],5,255,[-0.09495961],100,47,medium,plus,dotcolour,alfa,,,94,18,V,R,
525,21,21,12,4,27,53,784,['n'],1,right,['0'],6,215,[-0.0864047],100,53,easy,plus,dotcolour,alfa,,,94,18,V,R,
526,22,22,12,4,44,36,568,['n'],0,left,['0'],6,272,[-0.05279015],97,44,hard,plus,dotcolour,alfa,,,94,18,V,R,
527,23,23,12,4,36,44,551,['n'],1,right,['0'],6,272,[-0.0793725],100,44,hard,plus,dotcolour,alfa,,,94,18,V,R,
528,24,24,12,4,44,36,866,['c'],1,left,['9'],5,356,[0.12025357],100,44,hard,plus,dotcolour,alfa,,,94,18,V,R,
529,25,25,12,4,47,33,652,['c'],1,left,['0'],6,173,[0.13672998],100,47,medium,plus,dotcolour,alfa,,,94,18,V,R,
530,26,26,12,4,44,36,800,['n'],0,left,['9'],5,206,[0.04258924],3,44,hard,plus,dotcolour,alfa,,,94,18,V,R,
531,27,27,12,4,27,53,534,['n'],1,right,['0'],6,194,[-0.16974448],100,53,easy,plus,dotcolour,alfa,,,94,18,V,R,
532,28,28,12,4,27,53,701,['n'],1,right,['0'],6,191,[-0.05405356],99,53,easy,plus,dotcolour,alfa,,,94,18,V,R,
533,29,29,12,4,33,47,634,['n'],1,right,['0'],6,263,[-0.11777783],100,47,medium,plus,dotcolour,alfa,,,94,18,V,R,
534,30,30,12,4,36,44,602,['n'],1,right,['9'],5,239,[0.0062581],39,44,hard,plus,dotcolour,alfa,,,94,18,V,R,
535,31,31,12,4,47,33,783,['c'],1,left,['9'],5,158,[0.06471488],100,47,medium,plus,dotcolour,alfa,,,94,18,V,R,
536,32,32,12,4,27,53,501,['n'],1,right,['0'],6,173,[-0.05819022],99,53,easy,plus,dotcolour,alfa,,,94,18,V,R,
537,33,33,12,4,36,44,517,['n'],1,right,['0'],6,203,[-0.1457271],100,44,hard,plus,dotcolour,alfa,,,94,18,V,R,
538,34,34,12,4,47,33,833,['c'],1,left,['9'],5,122,[0.10235036],100,47,medium,plus,dotcolour,alfa,,,94,18,V,R,
539,35,35,12,4,36,44,584,['n'],1,right,['0'],6,151,[-0.07394005],100,44,hard,plus,dotcolour,alfa,,,94,18,V,R,
540,36,36,12,4,27,53,685,['n'],1,right,['0'],6,184,[-0.07417857],100,53,easy,plus,dotcolour,alfa,,,94,18,V,R,
541,37,37,12,4,36,44,617,['n'],1,right,['0'],6,169,[-0.13597475],100,44,hard,plus,dotcolour,alfa,,,94,18,V,R,
542,38,38,12,4,47,33,784,['c'],1,left,['0'],6,284,[0.15065473],100,47,medium,plus,dotcolour,alfa,,,94,18,V,R,
543,39,39,12,4,47,33,534,['c'],1,left,['9'],5,268,[0.10049546],100,47,medium,plus,dotcolour,alfa,,,94,18,V,R,
544,40,40,12,4,44,36,601,['c'],1,left,['9'],5,331,[0.09991478],100,44,hard,plus,dotcolour,alfa,,,94,18,V,R,
545,41,41,12,4,33,47,551,['n'],1,right,['9'],5,201,[-0.03348639],94,47,medium,plus,dotcolour,alfa,,,94,18,V,R,
546,42,0,13,4,44,36,617,['c'],1,left,['9'],5,201,[0.06648844],100,44,hard,plus,dotcolour,alfa,,,94,18,V,R,
547,43,1,13,4,47,33,583,['c'],1,left,['9'],5,156,[0.08071294],100,47,medium,plus,dotcolour,alfa,,,94,18,V,R,
548,44,2,13,4,47,33,567,['c'],1,left,['9'],5,232,[0.11231194],100,47,medium,plus,dotcolour,alfa,,,94,18,V,R,
549,45,3,13,4,47,33,467,['c'],1,left,['0'],6,140,[0.01525199],81,47,medium,plus,dotcolour,alfa,,,94,18,V,R,
550,46,4,13,4,44,36,768,['c'],1,left,['0'],6,122,[0.04815882],99,44,hard,plus,dotcolour,alfa,,,94,18,V,R,
551,47,5,13,4,33,47,633,['n'],1,right,['9'],5,204,[-0.11243636],100,47,medium,plus,dotcolour,alfa,,,94,18,V,R,
552,48,6,13,4,27,53,584,['n'],1,right,['0'],6,406,[-0.1086294],100,53,easy,plus,dotcolour,alfa,,,94,18,V,R,
553,49,7,13,4,36,44,617,['c'],0,right,['8'],4,646,[0.08237059],98,44,hard,plus,dotcolour,alfa,,,94,18,V,R,
554,50,8,13,4,33,47,550,['n'],1,right,['9'],5,183,[-0.12249752],100,47,medium,plus,dotcolour,alfa,,,94,18,V,R,
555,51,9,13,4,27,53,533,['n'],1,right,['0'],6,348,[-0.12510582],100,53,easy,plus,dotcolour,alfa,,,94,18,V,R,
556,52,10,13,4,44,36,584,['c'],1,left,['9'],5,192,[0.10612027],100,44,hard,plus,dotcolour,alfa,,,94,18,V,R,
557,53,11,13,4,27,53,600,['n'],1,right,['9'],5,226,[-0.20398395],100,53,easy,plus,dotcolour,alfa,,,94,18,V,R,
558,54,12,13,4,47,33,733,['c'],1,left,['9'],5,189,[0.09298476],100,47,medium,plus,dotcolour,alfa,,,94,18,V,R,
559,55,13,13,4,33,47,734,['n'],1,right,['9'],5,137,[-0.05959493],100,47,medium,plus,dotcolour,alfa,,,94,18,V,R,
560,56,14,13,4,53,27,700,['c'],1,left,['9'],5,191,[0.14570131],100,53,easy,plus,dotcolour,alfa,,,94,18,V,R,
561,57,15,13,4,53,27,817,['c'],1,left,['9'],5,280,[0.00864363],64,53,easy,plus,dotcolour,alfa,,,94,18,V,R,
562,58,16,13,4,33,47,682,['n'],1,right,['9'],5,156,[-0.1085679],100,47,medium,plus,dotcolour,alfa,,,94,18,V,R,
563,59,17,13,4,53,27,583,['c'],1,left,['9'],5,223,[0.12612906],100,53,easy,plus,dotcolour,alfa,,,94,18,V,R,
564,60,18,13,4,53,27,584,['n'],0,left,['1'],1,567,[-0.03969939],87,53,easy,plus,dotcolour,alfa,,,94,18,V,R,
565,61,19,13,4,36,44,684,['n'],1,right,['9'],5,181,[-0.08035311],100,44,hard,plus,dotcolour,alfa,,,94,18,V,R,
566,62,20,13,4,36,44,833,['n'],1,right,['8'],4,471,[-0.16678243],100,44,hard,plus,dotcolour,alfa,,,94,18,V,R,
567,63,21,13,4,36,44,733,['c'],0,right,['9'],5,191,[0.14720413],100,44,hard,plus,dotcolour,alfa,,,94,18,V,R,
568,64,22,13,4,53,27,801,['c'],1,left,['9'],5,168,[0.06322642],100,53,easy,plus,dotcolour,alfa,,,94,18,V,R,
569,65,23,13,4,36,44,617,['c'],0,right,['1'],1,1035,[-0.06353562],10,44,hard,plus,dotcolour,alfa,,,94,18,V,R,
570,66,24,13,4,53,27,834,['c'],1,left,['9'],5,272,[0.17739617],100,53,easy,plus,dotcolour,alfa,,,94,18,V,R,
571,67,25,13,4,53,27,750,['c'],1,left,['8'],4,1233,[0.29991784],100,53,easy,plus,dotcolour,alfa,,,94,18,V,R,
572,68,26,13,4,44,36,1000,['c'],1,left,['8'],4,248,[0.09432336],100,44,hard,plus,dotcolour,alfa,,,94,18,V,R,
573,69,27,13,4,47,33,568,['c'],1,left,['9'],5,320,[0.08931514],100,47,medium,plus,dotcolour,alfa,,,94,18,V,R,
574,70,28,13,4,33,47,883,['n'],1,right,['8'],4,185,[-0.04202531],97,47,medium,plus,dotcolour,alfa,,,94,18,V,R,
575,71,29,13,4,44,36,767,['c'],1,left,['8'],4,293,[0.1721688],100,44,hard,plus,dotcolour,alfa,,,94,18,V,R,
576,72,30,13,4,44,36,651,['c'],1,left,['9'],5,184,[0.11855027],100,44,hard,plus,dotcolour,alfa,,,94,18,V,R,
577,73,31,13,4,36,44,649,['c'],0,right,['9'],5,120,[0.09153359],100,44,hard,plus,dotcolour,alfa,,,94,18,V,R,
578,74,32,13,4,33,47,735,['n'],1,right,['9'],5,159,[-0.07637305],100,47,medium,plus,dotcolour,alfa,,,94,18,V,R,
579,75,33,13,4,27,53,601,['n'],1,right,['9'],5,243,[-0.07099427],99,53,easy,plus,dotcolour,alfa,,,94,18,V,R,
580,76,34,13,4,47,33,684,['c'],1,left,['0'],6,159,[0.09462253],100,47,medium,plus,dotcolour,alfa,,,94,18,V,R,
581,77,35,13,4,27,53,1084,['n'],1,right,['9'],5,157,[-0.02673269],92,53,easy,plus,dotcolour,alfa,,,94,18,V,R,
582,78,36,13,4,27,53,601,['n'],1,right,['9'],5,169,[-0.09445272],100,53,easy,plus,dotcolour,alfa,,,94,18,V,R,
583,79,37,13,4,36,44,601,['n'],1,right,['9'],5,187,[-0.13649073],100,44,hard,plus,dotcolour,alfa,,,94,18,V,R,
584,80,38,13,4,27,53,417,['n'],1,right,['0'],6,324,[-0.09578767],100,53,easy,plus,dotcolour,alfa,,,94,18,V,R,
585,81,39,13,4,33,47,567,['n'],1,right,['0'],6,129,[-0.13371742],100,47,medium,plus,dotcolour,alfa,,,94,18,V,R,
586,82,40,13,4,47,33,600,['c'],1,left,['0'],6,141,[0.15962022],100,47,medium,plus,dotcolour,alfa,,,94,18,V,R,
587,83,41,13,4,44,36,850,['c'],1,left,['0'],6,119,[0.06688824],100,44,hard,plus,dotcolour,alfa,,,94,18,V,R,
588,84,0,14,4,53,27,734,['c'],1,left,['0'],6,155,[0.08080144],100,53,easy,plus,dotcolour,alfa,,,94,18,V,R,
589,85,1,14,4,36,44,683,['n'],1,right,['9'],5,186,[-0.08563885],100,44,hard,plus,dotcolour,alfa,,,94,18,V,R,
590,86,2,14,4,47,33,550,['c'],1,left,['9'],5,198,[0.15267836],100,47,medium,plus,dotcolour,alfa,,,94,18,V,R,
591,87,3,14,4,47,33,951,['c'],1,left,['0'],6,177,[0.06445778],100,47,medium,plus,dotcolour,alfa,,,94,18,V,R,
592,88,4,14,4,27,53,517,['n'],1,right,['9'],5,159,[-0.07620173],100,53,easy,plus,dotcolour,alfa,,,94,18,V,R,
593,89,5,14,4,53,27,533,['c'],1,left,['0'],6,140,[0.12356332],100,53,easy,plus,dotcolour,alfa,,,94,18,V,R,
594,90,6,14,4,53,27,467,['c'],1,left,['0'],6,140,[0.11347513],100,53,easy,plus,dotcolour,alfa,,,94,18,V,R,
595,91,7,14,4,44,36,468,['c'],1,left,['0'],6,94,[0.09432182],100,44,hard,plus,dotcolour,alfa,,,94,18,V,R,
596,92,8,14,4,47,33,567,['c'],1,left,['9'],5,196,[0.1222134],100,47,medium,plus,dotcolour,alfa,,,94,18,V,R,
597,93,9,14,4,53,27,484,['c'],1,left,['9'],5,194,[0.11472771],100,53,easy,plus,dotcolour,alfa,,,94,18,V,R,
598,94,10,14,4,44,36,468,['c'],1,left,['0'],6,208,[0.16782107],100,44,hard,plus,dotcolour,alfa,,,94,18,V,R,
599,95,11,14,4,27,53,500,['n'],1,right,['0'],6,181,[-0.0472153],98,53,easy,plus,dotcolour,alfa,,,94,18,V,R,
600,96,12,14,4,33,47,784,['n'],1,right,['0'],6,464,[-0.03761892],88,47,medium,plus,dotcolour,alfa,,,94,18,V,R,
601,97,13,14,4,36,44,552,['c'],0,right,['9'],5,177,[0.0078246],66,44,hard,plus,dotcolour,alfa,,,94,18,V,R,
602,98,14,14,4,36,44,702,['c'],0,right,['8'],4,510,[0.03600929],86,44,hard,plus,dotcolour,alfa,,,94,18,V,R,
603,99,15,14,4,27,53,501,['n'],1,right,['9'],5,463,[-0.19971336],100,53,easy,plus,dotcolour,alfa,,,94,18,V,R,
604,100,16,14,4,44,36,734,['c'],1,left,['9'],5,473,[0.08725374],99,44,hard,plus,dotcolour,alfa,,,94,18,V,R,
605,101,17,14,4,33,47,684,['n'],1,right,['8'],4,459,[-0.14398297],100,47,medium,plus,dotcolour,alfa,,,94,18,V,R,
606,102,18,14,4,36,44,900,['n'],1,right,['9'],5,438,[-0.09419316],99,44,hard,plus,dotcolour,alfa,,,94,18,V,R,
607,103,19,14,4,53,27,535,['c'],1,left,['0'],6,200,[0.09699865],100,53,easy,plus,dotcolour,alfa,,,94,18,V,R,
608,104,20,14,4,36,44,749,['n'],1,right,['8'],4,292,[-0.10737023],100,44,hard,plus,dotcolour,alfa,,,94,18,V,R,
609,105,21,14,4,27,53,600,['n'],1,right,['0'],6,217,[-0.09273366],100,53,easy,plus,dotcolour,alfa,,,94,18,V,R,
610,106,22,14,4,33,47,667,['n'],1,right,['9'],5,263,[-0.03751598],93,47,medium,plus,dotcolour,alfa,,,94,18,V,R,
611,107,23,14,4,33,47,767,['c'],0,right,['8'],4,247,[0.01238209],71,47,medium,plus,dotcolour,alfa,,,94,18,V,R,
612,108,24,14,4,33,47,717,['c'],0,right,['3'],3,1346,[-0.00261711],48,47,medium,plus,dotcolour,alfa,,,94,18,V,R,
613,109,25,14,4,47,33,717,['n'],0,left,['2'],2,1423,[-0.03093431],72,47,medium,plus,dotcolour,alfa,,,94,18,V,R,
614,110,26,14,4,27,53,616,['n'],1,right,['0'],6,327,[-0.13967854],100,53,easy,plus,dotcolour,alfa,,,94,18,V,R,
615,111,27,14,4,53,27,700,['c'],1,left,['0'],6,216,[0.12472875],100,53,easy,plus,dotcolour,alfa,,,94,18,V,R,
616,112,28,14,4,47,33,1066,['n'],0,left,['8'],4,341,[-0.0345937],89,47,medium,plus,dotcolour,alfa,,,94,18,V,R,
617,113,29,14,4,36,44,1235,['c'],0,right,['3'],3,1143,[0.14912933],99,44,hard,plus,dotcolour,alfa,,,94,18,V,R,
618,114,30,14,4,27,53,801,['n'],1,right,['9'],5,298,[-0.16957424],100,53,easy,plus,dotcolour,alfa,,,94,18,V,R,
619,115,31,14,4,47,33,652,['c'],1,left,['0'],6,326,[0.07322413],99,47,medium,plus,dotcolour,alfa,,,94,18,V,R,
620,116,32,14,4,44,36,968,['c'],1,left,['9'],5,123,[0.01316927],79,44,hard,plus,dotcolour,alfa,,,94,18,V,R,
621,117,33,14,4,33,47,967,['n'],1,right,['9'],5,624,[-0.09720238],99,47,medium,plus,dotcolour,alfa,,,94,18,V,R,
622,118,34,14,4,47,33,834,['c'],1,left,['9'],5,327,[0.12899518],100,47,medium,plus,dotcolour,alfa,,,94,18,V,R,
623,119,35,14,4,44,36,733,['c'],1,left,['9'],5,422,[0.06366993],97,44,hard,plus,dotcolour,alfa,,,94,18,V,R,
624,120,36,14,4,27,53,800,['n'],1,right,['9'],5,238,[-0.06348251],99,53,easy,plus,dotcolour,alfa,,,94,18,V,R,
625,121,37,14,4,44,36,633,['c'],1,left,['0'],6,117,[0.13308119],100,44,hard,plus,dotcolour,alfa,,,94,18,V,R,
626,122,38,14,4,33,47,884,['n'],1,right,['9'],5,181,[-0.12282603],100,47,medium,plus,dotcolour,alfa,,,94,18,V,R,
627,123,39,14,4,53,27,750,['c'],1,left,['0'],6,82,[0.09591276],100,53,easy,plus,dotcolour,alfa,,,94,18,V,R,
628,124,40,14,4,36,44,1000,['n'],1,right,['3'],3,1119,[-0.07488304],93,44,hard,plus,dotcolour,alfa,,,94,18,V,R,
629,125,41,14,4,44,36,1017,['c'],1,left,['8'],4,723,[0.07008908],95,44,hard,plus,dotcolour,alfa,,,94,18,V,R,
630,0,0,15,5,44,36,801,['n'],0,left,['8'],4,194,[-0.04431655],71,44,hard,minus,dotcolour,alfa,,,94,18,V,R,
631,1,1,15,5,27,53,667,['n'],1,right,['9'],5,136,[-0.12627359],96,53,easy,minus,dotcolour,alfa,,,94,18,V,R,
632,2,2,15,5,33,47,767,['n'],1,right,['8'],4,237,[-0.07150794],79,47,medium,minus,dotcolour,alfa,,,94,18,V,R,
633,3,3,15,5,53,27,701,['c'],1,left,['9'],5,169,[0.10589047],91,53,easy,minus,dotcolour,alfa,,,94,18,V,R,
634,4,4,15,5,27,53,583,['n'],1,right,['9'],5,140,[-0.09161936],90,53,easy,minus,dotcolour,alfa,,,94,18,V,R,
635,5,5,15,5,36,44,634,['n'],1,right,['9'],5,134,[0.00510436],47,44,hard,minus,dotcolour,alfa,,,94,18,V,R,
636,6,6,15,5,47,33,650,['c'],1,left,['0'],6,256,[0.06488904],76,47,medium,minus,dotcolour,alfa,,,94,18,V,R,
637,7,7,15,5,27,53,501,['n'],1,right,['9'],5,203,[-0.08557481],85,53,easy,minus,dotcolour,alfa,,,94,18,V,R,
638,8,8,15,5,36,44,484,['n'],1,right,['9'],5,201,[-0.09405369],87,44,hard,minus,dotcolour,alfa,,,94,18,V,R,
639,9,9,15,5,36,44,600,['c'],0,right,['9'],5,138,[0.07669266],87,44,hard,minus,dotcolour,alfa,,,94,18,V,R,
640,10,10,15,5,36,44,601,['n'],1,right,['9'],5,230,[-0.01570781],57,44,hard,minus,dotcolour,alfa,,,94,18,V,R,
641,11,11,15,5,53,27,602,['c'],1,left,['0'],6,174,[0.07844026],84,53,easy,minus,dotcolour,alfa,,,94,18,V,R,
642,12,12,15,5,33,47,550,['n'],1,right,['9'],5,202,[-0.06136545],77,47,medium,minus,dotcolour,alfa,,,94,18,V,R,
643,13,13,15,5,47,33,549,['n'],0,left,['9'],5,157,[0.0097329],44,47,medium,minus,dotcolour,alfa,,,94,18,V,R,
644,14,14,15,5,53,27,634,['c'],1,left,['0'],6,191,[0.21454042],99,53,easy,minus,dotcolour,alfa,,,94,18,V,R,
645,15,15,15,5,27,53,618,['n'],1,right,['9'],5,136,[-0.09743376],92,53,easy,minus,dotcolour,alfa,,,94,18,V,R,
646,16,16,15,5,36,44,633,['n'],1,right,['9'],5,226,[-0.10850977],89,44,hard,minus,dotcolour,alfa,,,94,18,V,R,
647,17,17,15,5,33,47,935,['n'],1,right,['9'],5,93,[-0.04284009],78,47,medium,minus,dotcolour,alfa,,,94,18,V,R,
648,18,18,15,5,33,47,651,['c'],0,right,['9'],5,120,[0.04740836],77,47,medium,minus,dotcolour,alfa,,,94,18,V,R,
649,19,19,15,5,47,33,716,['c'],1,left,['9'],5,168,[0.04785983],74,47,medium,minus,dotcolour,alfa,,,94,18,V,R,
650,20,20,15,5,44,36,633,['c'],1,left,['8'],4,473,[0.05475595],67,44,hard,minus,dotcolour,alfa,,,94,18,V,R,
651,21,21,15,5,47,33,668,['c'],1,left,['9'],5,165,[0.10631297],91,47,medium,minus,dotcolour,alfa,,,94,18,V,R,
652,22,22,15,5,53,27,584,['c'],1,left,['0'],6,272,[0.10077827],85,53,easy,minus,dotcolour,alfa,,,94,18,V,R,
653,23,23,15,5,47,33,634,['c'],1,left,['0'],6,157,[0.09326276],89,47,medium,minus,dotcolour,alfa,,,94,18,V,R,
654,24,24,15,5,53,27,568,['c'],1,left,['9'],5,281,[0.1598155],94,53,easy,minus,dotcolour,alfa,,,94,18,V,R,
655,25,25,15,5,44,36,483,['c'],1,left,['0'],6,228,[0.15738445],95,44,hard,minus,dotcolour,alfa,,,94,18,V,R,
656,26,26,15,5,47,33,584,['c'],1,left,['9'],5,172,[0.09290431],88,47,medium,minus,dotcolour,alfa,,,94,18,V,R,
657,27,27,15,5,44,36,501,['c'],1,left,['9'],5,162,[0.02281915],62,44,hard,minus,dotcolour,alfa,,,94,18,V,R,
658,28,28,15,5,44,36,584,['c'],1,left,['8'],4,622,[0.07360523],70,44,hard,minus,dotcolour,alfa,,,94,18,V,R,
659,29,29,15,5,47,33,685,['c'],1,left,['8'],4,539,[0.18012631],90,47,medium,minus,dotcolour,alfa,,,94,18,V,R,
660,30,30,15,5,44,36,682,['c'],1,left,['8'],4,348,[0.20279208],96,44,hard,minus,dotcolour,alfa,,,94,18,V,R,
661,31,31,15,5,27,53,851,['n'],1,right,['9'],5,220,[-0.03550412],66,53,easy,minus,dotcolour,alfa,,,94,18,V,R,
662,32,32,15,5,27,53,750,['n'],1,right,['9'],5,167,[-0.13015803],95,53,easy,minus,dotcolour,alfa,,,94,18,V,R,
663,33,33,15,5,33,47,668,['n'],1,right,['8'],4,215,[-0.14575519],94,47,medium,minus,dotcolour,alfa,,,94,18,V,R,
664,34,34,15,5,36,44,483,['n'],1,right,['9'],5,188,[-0.09188371],87,44,hard,minus,dotcolour,alfa,,,94,18,V,R,
665,35,35,15,5,44,36,601,['c'],1,left,['9'],5,213,[0.08465735],84,44,hard,minus,dotcolour,alfa,,,94,18,V,R,
666,36,36,15,5,33,47,633,['c'],0,right,['9'],5,172,[0.05076417],75,47,medium,minus,dotcolour,alfa,,,94,18,V,R,
667,37,37,15,5,33,47,719,['n'],1,right,['9'],5,154,[-0.10946515],92,47,medium,minus,dotcolour,alfa,,,94,18,V,R,
668,38,38,15,5,53,27,967,['c'],1,left,['0'],6,206,[0.12286981],92,53,easy,minus,dotcolour,alfa,,,94,18,V,R,
669,39,39,15,5,36,44,700,['n'],1,right,['9'],5,235,[-0.05186705],72,44,hard,minus,dotcolour,alfa,,,94,18,V,R,
670,40,40,15,5,53,27,667,['c'],1,left,['0'],6,217,[0.06089185],76,53,easy,minus,dotcolour,alfa,,,94,18,V,R,
671,41,41,15,5,27,53,551,['n'],1,right,['9'],5,180,[-0.15800444],97,53,easy,minus,dotcolour,alfa,,,94,18,V,R,
672,42,0,16,5,44,36,834,['c'],1,left,['9'],5,171,[0.16445245],97,44,hard,minus,dotcolour,alfa,,,94,18,V,R,
673,43,1,16,5,47,33,634,['c'],1,left,['0'],6,124,[0.12262494],96,47,medium,minus,dotcolour,alfa,,,94,18,V,R,
674,44,2,16,5,33,47,500,['n'],1,right,['9'],5,196,[-0.06033086],77,47,medium,minus,dotcolour,alfa,,,94,18,V,R,
675,45,3,16,5,36,44,618,['c'],0,right,['9'],5,172,[0.00537142],53,44,hard,minus,dotcolour,alfa,,,94,18,V,R,
676,46,4,16,5,33,47,517,['n'],1,right,['9'],5,258,[-0.05190001],71,47,medium,minus,dotcolour,alfa,,,94,18,V,R,
677,47,5,16,5,53,27,500,['c'],1,left,['0'],6,189,[0.08227389],85,53,easy,minus,dotcolour,alfa,,,94,18,V,R,
678,48,6,16,5,36,44,451,['n'],1,right,['9'],5,124,[-0.07875617],88,44,hard,minus,dotcolour,alfa,,,94,18,V,R,
679,49,7,16,5,47,33,651,['c'],1,left,['0'],6,109,[0.08559288],91,47,medium,minus,dotcolour,alfa,,,94,18,V,R,
680,50,8,16,5,53,27,501,['c'],1,left,['9'],5,174,[0.10074187],90,53,easy,minus,dotcolour,alfa,,,94,18,V,R,
681,51,9,16,5,33,47,785,['n'],1,right,['9'],5,137,[-0.08946354],90,47,medium,minus,dotcolour,alfa,,,94,18,V,R,
682,52,10,16,5,36,44,534,['c'],0,right,['9'],5,199,[0.05333105],75,44,hard,minus,dotcolour,alfa,,,94,18,V,R,
683,53,11,16,5,27,53,467,['n'],1,right,['9'],5,143,[-0.11335529],94,53,easy,minus,dotcolour,alfa,,,94,18,V,R,
684,54,12,16,5,44,36,717,['c'],1,left,['0'],6,333,[0.01359286],55,44,hard,minus,dotcolour,alfa,,,94,18,V,R,
685,55,13,16,5,44,36,650,['c'],1,left,['9'],5,191,[0.10219713],89,44,hard,minus,dotcolour,alfa,,,94,18,V,R,
686,56,14,16,5,44,36,767,['c'],1,left,['9'],5,194,[0.07443508],82,44,hard,minus,dotcolour,alfa,,,94,18,V,R,
687,57,15,16,5,47,33,716,['c'],1,left,['9'],5,224,[0.11779142],90,47,medium,minus,dotcolour,alfa,,,94,18,V,R,
688,58,16,16,5,44,36,601,['c'],1,left,['9'],5,214,[0.0863495],84,44,hard,minus,dotcolour,alfa,,,94,18,V,R,
689,59,17,16,5,33,47,934,['n'],1,right,['9'],5,314,[-0.09098389],81,47,medium,minus,dotcolour,alfa,,,94,18,V,R,
690,60,18,16,5,33,47,800,['n'],1,right,['8'],4,422,[-0.10076106],80,47,medium,minus,dotcolour,alfa,,,94,18,V,R,
691,61,19,16,5,53,27,534,['c'],1,left,['8'],4,241,[0.10765475],88,53,easy,minus,dotcolour,alfa,,,94,18,V,R,
692,62,20,16,5,44,36,818,['c'],1,left,['8'],4,152,[0.0932788],90,44,hard,minus,dotcolour,alfa,,,94,18,V,R,
693,63,21,16,5,53,27,733,['c'],1,left,['9'],5,350,[0.18638183],94,53,easy,minus,dotcolour,alfa,,,94,18,V,R,
694,64,22,16,5,36,44,701,['c'],0,right,['9'],5,157,[0.03370177],68,44,hard,minus,dotcolour,alfa,,,94,18,V,R,
695,65,23,16,5,53,27,716,['c'],1,left,['9'],5,171,[0.07169032],83,53,easy,minus,dotcolour,alfa,,,94,18,V,R,
696,66,24,16,5,33,47,784,['c'],0,right,['9'],5,158,[0.07132985],83,47,medium,minus,dotcolour,alfa,,,94,18,V,R,
697,67,25,16,5,53,27,668,['c'],1,left,['9'],5,254,[0.08668641],82,53,easy,minus,dotcolour,alfa,,,94,18,V,R,
698,68,26,16,5,36,44,818,['n'],1,right,['9'],5,277,[-0.17367008],95,44,hard,minus,dotcolour,alfa,,,94,18,V,R,
699,69,27,16,5,36,44,1184,['c'],0,right,['8'],4,163,[0.01636669],59,44,hard,minus,dotcolour,alfa,,,94,18,V,R,
700,70,28,16,5,27,53,567,['n'],1,right,['9'],5,223,[-0.11337141],90,53,easy,minus,dotcolour,alfa,,,94,18,V,R,
701,71,29,16,5,47,33,684,['c'],1,left,['9'],5,171,[0.04429238],72,47,medium,minus,dotcolour,alfa,,,94,18,V,R,
702,72,30,16,5,47,33,568,['c'],1,left,['9'],5,223,[0.06637302],78,47,medium,minus,dotcolour,alfa,,,94,18,V,R,
703,73,31,16,5,36,44,1118,['c'],0,right,['8'],4,323,[0.03621425],64,44,hard,minus,dotcolour,alfa,,,94,18,V,R,
704,74,32,16,5,27,53,867,['n'],1,right,['8'],4,355,[-0.10015486],82,53,easy,minus,dotcolour,alfa,,,94,18,V,R,
705,75,33,16,5,47,33,684,['c'],1,left,['9'],5,147,[0.14836592],97,47,medium,minus,dotcolour,alfa,,,94,18,V,R,
706,76,34,16,5,53,27,501,['n'],0,left,['9'],5,178,[-0.04595707],73,53,easy,minus,dotcolour,alfa,,,94,18,V,R,
707,77,35,16,5,27,53,617,['n'],1,right,['9'],5,172,[-0.1121048],92,53,easy,minus,dotcolour,alfa,,,94,18,V,R,
708,78,36,16,5,27,53,501,['n'],1,right,['9'],5,186,[-0.12218997],93,53,easy,minus,dotcolour,alfa,,,94,18,V,R,
709,79,37,16,5,27,53,600,['n'],1,right,['9'],5,284,[-0.12650153],89,53,easy,minus,dotcolour,alfa,,,94,18,V,R,
710,80,38,16,5,47,33,715,['c'],1,left,['8'],4,301,[0.09389891],82,47,medium,minus,dotcolour,alfa,,,94,18,V,R,
711,81,39,16,5,33,47,817,['n'],1,right,['8'],4,394,[0.06935301],27,47,medium,minus,dotcolour,alfa,,,94,18,V,R,
712,82,40,16,5,27,53,1051,['n'],1,right,['9'],5,337,[-0.20662247],96,53,easy,minus,dotcolour,alfa,,,94,18,V,R,
713,83,41,16,5,44,36,800,['c'],1,left,['8'],4,478,[0.0780965],73,44,hard,minus,dotcolour,alfa,,,94,18,V,R,
714,84,0,17,5,36,44,766,['n'],1,right,['9'],5,208,[-0.07134886],80,44,hard,minus,dotcolour,alfa,,,94,18,V,R,
715,85,1,17,5,44,36,668,['c'],1,left,['8'],4,172,[0.01871928],60,44,hard,minus,dotcolour,alfa,,,94,18,V,R,
716,86,2,17,5,33,47,618,['c'],0,right,['1'],1,918,[-0.12804464],23,47,medium,minus,dotcolour,alfa,,,94,18,V,R,
717,87,3,17,5,53,27,818,['c'],1,left,['9'],5,226,[0.12242028],91,53,easy,minus,dotcolour,alfa,,,94,18,V,R,
718,88,4,17,5,47,33,701,['c'],1,left,['9'],5,166,[0.10281037],91,47,medium,minus,dotcolour,alfa,,,94,18,V,R,
719,89,5,17,5,44,36,1002,['n'],0,left,['8'],4,672,[-0.06414626],67,44,hard,minus,dotcolour,alfa,,,94,18,V,R,
720,90,6,17,5,44,36,835,['c'],1,left,['9'],5,173,[0.07390404],83,44,hard,minus,dotcolour,alfa,,,94,18,V,R,
721,91,7,17,5,47,33,918,['n'],0,left,['8'],4,282,[-0.08525517],81,47,medium,minus,dotcolour,alfa,,,94,18,V,R,
722,92,8,17,5,27,53,751,['n'],1,right,['9'],5,514,[-0.06938325],70,53,easy,minus,dotcolour,alfa,,,94,18,V,R,
723,93,9,17,5,27,53,684,['n'],1,right,['9'],5,180,[-0.20588598],99,53,easy,minus,dotcolour,alfa,,,94,18,V,R,
724,94,10,17,5,36,44,601,['n'],1,right,['9'],5,285,[-0.12631152],89,44,hard,minus,dotcolour,alfa,,,94,18,V,R,
725,95,11,17,5,53,27,634,['c'],1,left,['0'],6,218,[0.06548772],78,53,easy,minus,dotcolour,alfa,,,94,18,V,R,
726,96,12,17,5,27,53,784,['n'],1,right,['9'],5,284,[-0.03318054],64,53,easy,minus,dotcolour,alfa,,,94,18,V,R,
727,97,13,17,5,47,33,2067,['n'],0,left,['1'],1,600,[0.03045867],41,47,medium,minus,dotcolour,alfa,,,94,18,V,R,
728,98,14,17,5,53,27,799,['c'],1,left,['0'],6,216,[0.06920034],79,53,easy,minus,dotcolour,alfa,,,94,18,V,R,
729,99,15,17,5,33,47,683,['n'],1,right,['0'],6,158,[-0.10344371],91,47,medium,minus,dotcolour,alfa,,,94,18,V,R,
730,100,16,17,5,33,47,533,['c'],0,right,['0'],6,211,[0.04599948],71,47,medium,minus,dotcolour,alfa,,,94,18,V,R,
731,101,17,17,5,53,27,651,['c'],1,left,['0'],6,114,[0.04723087],78,53,easy,minus,dotcolour,alfa,,,94,18,V,R,
732,102,18,17,5,44,36,699,['c'],1,left,['9'],5,299,[0.07332455],77,44,hard,minus,dotcolour,alfa,,,94,18,V,R,
733,103,19,17,5,33,47,584,['n'],1,right,['9'],5,176,[-0.07645053],84,47,medium,minus,dotcolour,alfa,,,94,18,V,R,
734,104,20,17,5,27,53,584,['n'],1,right,['9'],5,155,[-0.12403317],94,53,easy,minus,dotcolour,alfa,,,94,18,V,R,
735,105,21,17,5,44,36,701,['c'],1,left,['9'],5,666,[0.06121098],66,44,hard,minus,dotcolour,alfa,,,94,18,V,R,
736,106,22,17,5,36,44,834,['n'],1,right,['9'],5,167,[-0.08386412],86,44,hard,minus,dotcolour,alfa,,,94,18,V,R,
737,107,23,17,5,27,53,719,['n'],1,right,['9'],5,214,[-0.19250477],98,53,easy,minus,dotcolour,alfa,,,94,18,V,R,
738,108,24,17,5,27,53,650,['n'],1,right,['9'],5,140,[-0.12122207],95,53,easy,minus,dotcolour,alfa,,,94,18,V,R,
739,109,25,17,5,33,47,451,['n'],1,right,['9'],5,205,[-0.06203746],77,47,medium,minus,dotcolour,alfa,,,94,18,V,R,
740,110,26,17,5,36,44,633,['n'],1,right,['9'],5,173,[-0.09163019],88,44,hard,minus,dotcolour,alfa,,,94,18,V,R,
741,111,27,17,5,27,53,769,['n'],1,right,['9'],5,144,[-0.09827844],91,53,easy,minus,dotcolour,alfa,,,94,18,V,R,
742,112,28,17,5,36,44,567,['n'],1,right,['9'],5,173,[-0.12079973],93,44,hard,minus,dotcolour,alfa,,,94,18,V,R,
743,113,29,17,5,36,44,600,['n'],1,right,['9'],5,255,[-0.10012227],86,44,hard,minus,dotcolour,alfa,,,94,18,V,R,
744,114,30,17,5,44,36,1117,['c'],1,left,['9'],5,209,[0.17175334],97,44,hard,minus,dotcolour,alfa,,,94,18,V,R,
745,115,31,17,5,53,27,483,['n'],0,left,['1'],1,702,[-0.00515026],51,53,easy,minus,dotcolour,alfa,,,94,18,V,R,
746,116,32,17,5,47,33,750,['n'],0,left,['9'],5,165,[-0.06745301],82,47,medium,minus,dotcolour,alfa,,,94,18,V,R,
747,117,33,17,5,47,33,601,['c'],1,left,['0'],6,264,[0.13252448],91,47,medium,minus,dotcolour,alfa,,,94,18,V,R,
748,118,34,17,5,53,27,618,['n'],0,left,['1'],1,734,[0.09812631],26,53,easy,minus,dotcolour,alfa,,,94,18,V,R,
749,119,35,17,5,47,33,866,['c'],1,left,['9'],5,118,[0.06404004],84,47,medium,minus,dotcolour,alfa,,,94,18,V,R,
750,120,36,17,5,36,44,833,['n'],1,right,['9'],5,170,[-0.06222029],80,44,hard,minus,dotcolour,alfa,,,94,18,V,R,
751,121,37,17,5,44,36,734,['c'],1,left,['9'],5,111,[0.08427053],91,44,hard,minus,dotcolour,alfa,,,94,18,V,R,
752,122,38,17,5,47,33,934,['n'],0,left,['8'],4,398,[-0.05044357],67,47,medium,minus,dotcolour,alfa,,,94,18,V,R,
753,123,39,17,5,53,27,668,['c'],1,left,['9'],5,181,[0.04241884],71,53,easy,minus,dotcolour,alfa,,,94,18,V,R,
754,124,40,17,5,33,47,801,['n'],1,right,['9'],5,143,[-0.05861369],80,47,medium,minus,dotcolour,alfa,,,94,18,V,R,
755,125,41,17,5,33,47,518,['n'],1,right,['9'],5,142,[-0.01779175],60,47,medium,minus,dotcolour,alfa,,,94,18,V,R,
,,,,,,,,,,,,,,,,,,,,,1, ,94,18,V,R,
,,,,,,,,,,,,,,,,,,,,,2,['g'],94,18,V,R,
,,,,,,,,,,,,,,,,,,,,,3,['d'],94,18,V,R,
,,,,,,,,,,,,,,,,,,,,,5,['5'],94,18,V,R,
