trial,withinphasetrial,withinblocktrial,block,phase,dotsLeft,dotsRight,rt,resp,cor,cresp,conf_press,cj,RTconf,ev,fb,diff,difflevel,condition,task,manip,questionID,questionResp,sub,age,gender,handedness,
0,0,0,0,0,53,27,717,['c'],1,left,['1'],6,1775,[0.28872863],96,53,easy,minus,dotcolour,beta,,,33,21,V,R,
1,1,1,0,0,27,53,1316,['n'],1,right,['2'],5,1356,[-0.18432418],88,53,easy,minus,dotcolour,beta,,,33,21,V,R,
2,2,2,0,0,27,53,834,['n'],1,right,['1'],6,854,[-0.26965232],98,53,easy,minus,dotcolour,beta,,,33,21,V,R,
3,3,3,0,0,53,27,750,['n'],0,left,['0'],1,3294,[0.4470048],1,53,easy,minus,dotcolour,beta,,,33,21,V,R,
4,4,4,0,0,36,44,2100,['n'],1,right,['2'],5,1807,[-0.00755022],34,44,hard,minus,dotcolour,beta,,,33,21,V,R,
5,5,5,0,0,27,53,1000,['n'],1,right,['1'],6,1039,[0.13832575],3,53,easy,minus,dotcolour,beta,,,33,21,V,R,
6,6,6,0,0,44,36,1100,['c'],1,left,['1'],6,1027,[0.09631016],67,44,hard,minus,dotcolour,beta,,,33,21,V,R,
7,7,7,0,0,27,53,767,['n'],1,right,['1'],6,756,[-0.27481778],99,53,easy,minus,dotcolour,beta,,,33,21,V,R,
8,8,8,0,0,36,44,1784,['n'],1,right,['1'],6,776,[-0.13115711],82,44,hard,minus,dotcolour,beta,,,33,21,V,R,
9,9,9,0,0,27,53,734,['n'],1,right,['1'],6,484,[-0.1800816],96,53,easy,minus,dotcolour,beta,,,33,21,V,R,
10,10,10,0,0,47,33,816,['c'],1,left,['1'],6,297,[0.0168505],22,47,medium,minus,dotcolour,beta,,,33,21,V,R,
11,11,11,0,0,47,33,1266,['c'],1,left,['1'],6,532,[0.19494854],97,47,medium,minus,dotcolour,beta,,,33,21,V,R,
12,12,12,0,0,33,47,717,['n'],1,right,['1'],6,323,[-0.11970668],88,47,medium,minus,dotcolour,beta,,,33,21,V,R,
13,13,13,0,0,44,36,884,['n'],0,left,['1'],6,308,[-0.03856446],37,44,hard,minus,dotcolour,beta,,,33,21,V,R,
14,14,14,0,0,36,44,616,['n'],1,right,['1'],6,353,[0.03326385],6,44,hard,minus,dotcolour,beta,,,33,21,V,R,
15,15,15,0,0,36,44,718,['n'],1,right,['1'],6,335,[-0.06303073],56,44,hard,minus,dotcolour,beta,,,33,21,V,R,
16,16,16,0,0,44,36,851,['n'],0,left,['1'],6,337,[-0.0840454],71,44,hard,minus,dotcolour,beta,,,33,21,V,R,
17,17,17,0,0,33,47,1000,['n'],1,right,['1'],6,341,[-0.13126582],91,47,medium,minus,dotcolour,beta,,,33,21,V,R,
18,18,18,0,0,36,44,500,['n'],1,right,['1'],6,364,[-0.15401883],95,44,hard,minus,dotcolour,beta,,,33,21,V,R,
19,19,19,0,0,53,27,917,['c'],1,left,['1'],6,298,[0.06868065],61,53,easy,minus,dotcolour,beta,,,33,21,V,R,
20,20,20,0,0,53,27,917,['c'],1,left,['1'],6,379,[0.08129065],68,53,easy,minus,dotcolour,beta,,,33,21,V,R,
21,21,21,0,0,27,53,784,['n'],1,right,['2'],5,325,[-0.12244606],89,53,easy,minus,dotcolour,beta,,,33,21,V,R,
22,22,22,0,0,27,53,767,['n'],1,right,['2'],5,291,[-0.17529637],98,53,easy,minus,dotcolour,beta,,,33,21,V,R,
23,23,23,0,0,47,33,983,['c'],1,left,['1'],6,385,[0.0788382],66,47,medium,minus,dotcolour,beta,,,33,21,V,R,
24,24,24,0,0,53,27,2450,['n'],0,left,['2'],5,241,[0.00915217],9,53,easy,minus,dotcolour,beta,,,33,21,V,R,
25,25,25,0,0,47,33,1082,['c'],1,left,['2'],5,357,[0.0844063],70,47,medium,minus,dotcolour,beta,,,33,21,V,R,
26,26,26,0,0,44,36,1233,['c'],1,left,['1'],6,326,[0.07296139],63,44,hard,minus,dotcolour,beta,,,33,21,V,R,
27,27,27,0,0,47,33,950,['n'],0,left,['1'],6,301,[0.02015283],8,47,medium,minus,dotcolour,beta,,,33,21,V,R,
28,28,28,0,0,47,33,1117,['c'],1,left,['1'],6,381,[0.12903859],90,47,medium,minus,dotcolour,beta,,,33,21,V,R,
29,29,29,0,0,33,47,966,['n'],1,right,['1'],6,328,[-0.11939283],88,47,medium,minus,dotcolour,beta,,,33,21,V,R,
30,30,30,0,0,33,47,817,['n'],1,right,['1'],6,339,[-0.14944103],95,47,medium,minus,dotcolour,beta,,,33,21,V,R,
31,31,31,0,0,44,36,1317,['n'],0,left,['1'],6,323,[-0.07253008],63,44,hard,minus,dotcolour,beta,,,33,21,V,R,
32,32,32,0,0,53,27,1949,['c'],1,left,['1'],6,369,[0.15735196],95,53,easy,minus,dotcolour,beta,,,33,21,V,R,
33,33,33,0,0,44,36,750,['c'],1,left,['1'],6,325,[0.1779332],98,44,hard,minus,dotcolour,beta,,,33,21,V,R,
34,34,34,0,0,53,27,1085,['c'],1,left,['1'],6,382,[0.20783866],99,53,easy,minus,dotcolour,beta,,,33,21,V,R,
35,35,35,0,0,36,44,933,['n'],1,right,['1'],6,306,[-0.15167777],96,44,hard,minus,dotcolour,beta,,,33,21,V,R,
36,36,36,0,0,44,36,684,['n'],0,left,['0'],1,3636,[0.41774888],1,44,hard,minus,dotcolour,beta,,,33,21,V,R,
37,37,37,0,0,33,47,1600,['n'],1,right,['1'],6,538,[-0.03463018],37,47,medium,minus,dotcolour,beta,,,33,21,V,R,
38,38,38,0,0,36,44,1568,['n'],1,right,['1'],6,303,[-0.10358038],83,44,hard,minus,dotcolour,beta,,,33,21,V,R,
39,39,39,0,0,47,33,900,['c'],1,left,['1'],6,328,[0.18938292],99,47,medium,minus,dotcolour,beta,,,33,21,V,R,
40,40,40,0,0,33,47,717,['n'],1,right,['1'],6,344,[-0.12554884],90,47,medium,minus,dotcolour,beta,,,33,21,V,R,
41,41,41,0,0,33,47,633,['n'],1,right,['1'],6,338,[-0.0578016],52,47,medium,minus,dotcolour,beta,,,33,21,V,R,
42,42,0,1,0,47,33,1034,['n'],0,left,['1'],6,426,[0.06154052],4,47,medium,minus,dotcolour,beta,,,33,21,V,R,
43,43,1,1,0,47,33,950,['c'],1,left,['1'],6,405,[0.07858],66,47,medium,minus,dotcolour,beta,,,33,21,V,R,
44,44,2,1,0,44,36,1117,['n'],0,left,['1'],6,352,[-0.00363424],17,44,hard,minus,dotcolour,beta,,,33,21,V,R,
45,45,3,1,0,44,36,767,['n'],0,left,['1'],6,325,[0.00579142],13,44,hard,minus,dotcolour,beta,,,33,21,V,R,
46,46,4,1,0,53,27,784,['c'],1,left,['1'],6,330,[0.15711426],96,53,easy,minus,dotcolour,beta,,,33,21,V,R,
47,47,5,1,0,36,44,550,['n'],1,right,['1'],6,424,[0.02353566],10,44,hard,minus,dotcolour,beta,,,33,21,V,R,
48,48,6,1,0,33,47,534,['n'],1,right,['1'],6,354,[-0.08588627],71,47,medium,minus,dotcolour,beta,,,33,21,V,R,
49,49,7,1,0,36,44,634,['n'],1,right,['1'],6,388,[-0.17784263],97,44,hard,minus,dotcolour,beta,,,33,21,V,R,
50,50,8,1,0,36,44,551,['n'],1,right,['1'],6,575,[-0.17011993],94,44,hard,minus,dotcolour,beta,,,33,21,V,R,
51,51,9,1,0,36,44,867,['n'],1,right,['1'],6,302,[-0.1373033],94,44,hard,minus,dotcolour,beta,,,33,21,V,R,
52,52,10,1,0,27,53,650,['n'],1,right,['1'],6,322,[-0.08319772],71,53,easy,minus,dotcolour,beta,,,33,21,V,R,
53,53,11,1,0,33,47,550,['n'],1,right,['1'],6,592,[-0.18774361],96,47,medium,minus,dotcolour,beta,,,33,21,V,R,
54,54,12,1,0,27,53,517,['n'],1,right,['1'],6,389,[-0.04842473],45,53,easy,minus,dotcolour,beta,,,33,21,V,R,
55,55,13,1,0,27,53,700,['n'],1,right,['2'],5,377,[-0.12217867],88,53,easy,minus,dotcolour,beta,,,33,21,V,R,
56,56,14,1,0,47,33,1133,['c'],1,left,['2'],5,511,[0.15064205],92,47,medium,minus,dotcolour,beta,,,33,21,V,R,
57,57,15,1,0,53,27,699,['n'],0,left,['2'],5,311,[-0.00444572],16,53,easy,minus,dotcolour,beta,,,33,21,V,R,
58,58,16,1,0,47,33,983,['c'],1,left,['2'],5,405,[0.16361533],96,47,medium,minus,dotcolour,beta,,,33,21,V,R,
59,59,17,1,0,44,36,1250,['c'],1,left,['2'],5,435,[0.13474279],90,44,hard,minus,dotcolour,beta,,,33,21,V,R,
60,60,18,1,0,44,36,2150,['c'],1,left,['1'],6,413,[0.11306006],83,44,hard,minus,dotcolour,beta,,,33,21,V,R,
61,61,19,1,0,33,47,800,['n'],1,right,['1'],6,325,[-0.06450873],57,47,medium,minus,dotcolour,beta,,,33,21,V,R,
62,62,20,1,0,27,53,933,['n'],1,right,['2'],5,492,[-0.19873378],98,53,easy,minus,dotcolour,beta,,,33,21,V,R,
63,63,21,1,0,36,44,767,['c'],0,right,['1'],6,339,[0.07885979],67,44,hard,minus,dotcolour,beta,,,33,21,V,R,
64,64,22,1,0,53,27,1067,['n'],0,left,['2'],5,436,[0.06870896],3,53,easy,minus,dotcolour,beta,,,33,21,V,R,
65,65,23,1,0,53,27,816,['c'],1,left,['2'],5,411,[0.11484965],84,53,easy,minus,dotcolour,beta,,,33,21,V,R,
66,66,24,1,0,47,33,851,['c'],1,left,['2'],5,354,[0.21975379],99,47,medium,minus,dotcolour,beta,,,33,21,V,R,
67,67,25,1,0,44,36,784,['n'],0,left,['2'],5,358,[-0.05558604],50,44,hard,minus,dotcolour,beta,,,33,21,V,R,
68,68,26,1,0,33,47,1083,['c'],0,right,['2'],5,373,[-0.00036814],16,47,medium,minus,dotcolour,beta,,,33,21,V,R,
69,69,27,1,0,33,47,667,['n'],1,right,['2'],5,396,[-0.0984615],77,47,medium,minus,dotcolour,beta,,,33,21,V,R,
70,70,28,1,0,44,36,717,['n'],0,left,['2'],5,513,[-0.13610912],88,44,hard,minus,dotcolour,beta,,,33,21,V,R,
71,71,29,1,0,47,33,699,['c'],1,left,['2'],5,434,[0.0204299],28,47,medium,minus,dotcolour,beta,,,33,21,V,R,
72,72,30,1,0,44,36,850,['c'],1,left,['2'],5,344,[0.06802602],59,44,hard,minus,dotcolour,beta,,,33,21,V,R,
73,73,31,1,0,53,27,833,['c'],1,left,['2'],5,354,[0.16545028],97,53,easy,minus,dotcolour,beta,,,33,21,V,R,
74,74,32,1,0,47,33,534,['n'],0,left,['2'],5,376,[-0.11308517],84,47,medium,minus,dotcolour,beta,,,33,21,V,R,
75,75,33,1,0,36,44,767,['n'],1,right,['2'],5,275,[-0.07696425],68,44,hard,minus,dotcolour,beta,,,33,21,V,R,
76,76,34,1,0,53,27,667,['c'],1,left,['2'],5,311,[0.1454836],95,53,easy,minus,dotcolour,beta,,,33,21,V,R,
77,77,35,1,0,27,53,534,['n'],1,right,['1'],6,390,[-0.11582375],85,53,easy,minus,dotcolour,beta,,,33,21,V,R,
78,78,36,1,0,53,27,600,['n'],0,left,['2'],5,287,[-0.06502505],58,53,easy,minus,dotcolour,beta,,,33,21,V,R,
79,79,37,1,0,33,47,784,['n'],1,right,['1'],6,391,[-0.15169242],94,47,medium,minus,dotcolour,beta,,,33,21,V,R,
80,80,38,1,0,27,53,700,['n'],1,right,['2'],5,299,[-0.17834622],98,53,easy,minus,dotcolour,beta,,,33,21,V,R,
81,81,39,1,0,36,44,1450,['c'],0,right,['2'],5,319,[0.07213114],63,44,hard,minus,dotcolour,beta,,,33,21,V,R,
82,82,40,1,0,27,53,700,['n'],1,right,['2'],5,303,[-0.127919],91,53,easy,minus,dotcolour,beta,,,33,21,V,R,
83,83,41,1,0,33,47,684,['n'],1,right,['2'],5,274,[-0.01668851],21,47,medium,minus,dotcolour,beta,,,33,21,V,R,
84,84,0,2,0,33,47,583,['n'],1,right,['2'],5,216,[-0.14412755],97,47,medium,minus,dotcolour,beta,,,33,21,V,R,
85,85,1,2,0,53,27,934,['c'],1,left,['2'],5,396,[0.10522945],81,53,easy,minus,dotcolour,beta,,,33,21,V,R,
86,86,2,2,0,53,27,867,['c'],1,left,['2'],5,338,[0.05754637],52,53,easy,minus,dotcolour,beta,,,33,21,V,R,
87,87,3,2,0,33,47,633,['n'],1,right,['2'],5,324,[-0.09523606],78,47,medium,minus,dotcolour,beta,,,33,21,V,R,
88,88,4,2,0,53,27,584,['c'],1,left,['2'],5,305,[0.05263365],48,53,easy,minus,dotcolour,beta,,,33,21,V,R,
89,89,5,2,0,36,44,400,['n'],1,right,['2'],5,358,[-0.15165784],95,44,hard,minus,dotcolour,beta,,,33,21,V,R,
90,90,6,2,0,27,53,517,['n'],1,right,['2'],5,244,[-0.03869323],35,53,easy,minus,dotcolour,beta,,,33,21,V,R,
91,91,7,2,0,47,33,867,['n'],0,left,['2'],5,393,[0.03008919],8,47,medium,minus,dotcolour,beta,,,33,21,V,R,
92,92,8,2,0,33,47,801,['c'],0,right,['2'],5,354,[0.15235996],95,47,medium,minus,dotcolour,beta,,,33,21,V,R,
93,93,9,2,0,27,53,833,['n'],1,right,['2'],5,331,[-0.12689723],90,53,easy,minus,dotcolour,beta,,,33,21,V,R,
94,94,10,2,0,47,33,1133,['c'],1,left,['2'],5,338,[0.21371416],99,47,medium,minus,dotcolour,beta,,,33,21,V,R,
95,95,11,2,0,53,27,834,['n'],0,left,['2'],5,308,[-0.01615006],22,53,easy,minus,dotcolour,beta,,,33,21,V,R,
96,96,12,2,0,53,27,534,['c'],1,left,['2'],5,332,[0.14767324],95,53,easy,minus,dotcolour,beta,,,33,21,V,R,
97,97,13,2,0,47,33,1000,['c'],1,left,['2'],5,327,[0.10323782],82,47,medium,minus,dotcolour,beta,,,33,21,V,R,
98,98,14,2,0,47,33,683,['n'],0,left,['0'],1,1713,[0.09459615],11,47,medium,minus,dotcolour,beta,,,33,21,V,R,
99,99,15,2,0,53,27,1617,['c'],1,left,['2'],5,315,[0.14010117],94,53,easy,minus,dotcolour,beta,,,33,21,V,R,
100,100,16,2,0,36,44,634,['n'],1,right,['2'],5,271,[-0.05316645],48,44,hard,minus,dotcolour,beta,,,33,21,V,R,
101,101,17,2,0,44,36,767,['c'],1,left,['2'],5,343,[-0.0097988],12,44,hard,minus,dotcolour,beta,,,33,21,V,R,
102,102,18,2,0,33,47,617,['n'],1,right,['2'],5,361,[-0.02950752],31,47,medium,minus,dotcolour,beta,,,33,21,V,R,
103,103,19,2,0,27,53,583,['n'],1,right,['2'],5,390,[-0.14459932],93,53,easy,minus,dotcolour,beta,,,33,21,V,R,
104,104,20,2,0,53,27,883,['c'],1,left,['3'],4,780,[0.17653136],92,53,easy,minus,dotcolour,beta,,,33,21,V,R,
105,105,21,2,0,33,47,684,['n'],1,right,['3'],4,378,[-0.01120079],21,47,medium,minus,dotcolour,beta,,,33,21,V,R,
106,106,22,2,0,36,44,918,['n'],1,right,['8'],3,423,[-0.101948],78,44,hard,minus,dotcolour,beta,,,33,21,V,R,
107,107,23,2,0,27,53,1083,['n'],1,right,['2'],5,523,[-0.22387084],99,53,easy,minus,dotcolour,beta,,,33,21,V,R,
108,108,24,2,0,47,33,884,['c'],1,left,['1'],6,500,[0.24492944],99,47,medium,minus,dotcolour,beta,,,33,21,V,R,
109,109,25,2,0,36,44,600,['n'],1,right,['1'],6,498,[-0.12970117],87,44,hard,minus,dotcolour,beta,,,33,21,V,R,
110,110,26,2,0,27,53,516,['n'],1,right,['1'],6,371,[-0.15635577],95,53,easy,minus,dotcolour,beta,,,33,21,V,R,
111,111,27,2,0,44,36,667,['n'],0,left,['3'],4,626,[0.0395225],10,44,hard,minus,dotcolour,beta,,,33,21,V,R,
112,112,28,2,0,47,33,784,['c'],1,left,['1'],6,450,[0.13867917],90,47,medium,minus,dotcolour,beta,,,33,21,V,R,
113,113,29,2,0,36,44,2900,['n'],1,right,['8'],3,542,[-0.18118845],96,44,hard,minus,dotcolour,beta,,,33,21,V,R,
114,114,30,2,0,27,53,1233,['c'],0,right,['0'],1,1608,[-0.00704213],29,53,easy,minus,dotcolour,beta,,,33,21,V,R,
115,115,31,2,0,44,36,2135,['n'],0,left,['3'],4,571,[-0.0475878],45,44,hard,minus,dotcolour,beta,,,33,21,V,R,
116,116,32,2,0,36,44,1133,['n'],1,right,['3'],4,297,[-0.12173973],90,44,hard,minus,dotcolour,beta,,,33,21,V,R,
117,117,33,2,0,33,47,1083,['c'],0,right,['3'],4,410,[0.02395791],29,47,medium,minus,dotcolour,beta,,,33,21,V,R,
118,118,34,2,0,44,36,1033,['c'],1,left,['3'],4,361,[0.20319102],99,44,hard,minus,dotcolour,beta,,,33,21,V,R,
119,119,35,2,0,44,36,1200,['c'],1,left,['3'],4,308,[0.20093735],99,44,hard,minus,dotcolour,beta,,,33,21,V,R,
120,120,36,2,0,33,47,984,['n'],1,right,['3'],4,418,[-0.07849713],65,47,medium,minus,dotcolour,beta,,,33,21,V,R,
121,121,37,2,0,44,36,733,['n'],0,left,['3'],4,388,[-0.12073726],87,44,hard,minus,dotcolour,beta,,,33,21,V,R,
122,122,38,2,0,36,44,984,['n'],1,right,['3'],4,742,[-0.19941306],95,44,hard,minus,dotcolour,beta,,,33,21,V,R,
123,123,39,2,0,44,36,900,['c'],1,left,['3'],4,422,[0.05038963],46,44,hard,minus,dotcolour,beta,,,33,21,V,R,
124,124,40,2,0,27,53,533,['n'],1,right,['3'],4,417,[-0.14883612],93,53,easy,minus,dotcolour,beta,,,33,21,V,R,
125,125,41,2,0,47,33,1217,['c'],1,left,['3'],4,361,[-0.01053322],12,47,medium,minus,dotcolour,beta,,,33,21,V,R,
126,0,0,3,1,33,47,451,['n'],1,right,['3'],4,294,[-0.0326808],95,47,medium,plus,dotcolour,beta,,,33,21,V,R,
127,1,1,3,1,33,47,368,['n'],1,right,['3'],4,373,[-0.0660061],97,47,medium,plus,dotcolour,beta,,,33,21,V,R,
128,2,2,3,1,53,27,617,['c'],1,left,['3'],4,294,[0.10912661],100,53,easy,plus,dotcolour,beta,,,33,21,V,R,
129,3,3,3,1,47,33,749,['n'],0,left,['3'],4,269,[0.00640147],85,47,medium,plus,dotcolour,beta,,,33,21,V,R,
130,4,4,3,1,53,27,934,['c'],1,left,['3'],4,327,[0.0437228],96,53,easy,plus,dotcolour,beta,,,33,21,V,R,
131,5,5,3,1,44,36,900,['n'],0,left,['3'],4,295,[-0.12157154],100,44,hard,plus,dotcolour,beta,,,33,21,V,R,
132,6,6,3,1,47,33,634,['n'],0,left,['3'],4,443,[0.00263956],81,47,medium,plus,dotcolour,beta,,,33,21,V,R,
133,7,7,3,1,36,44,550,['c'],0,right,['3'],4,404,[0.08974967],98,44,hard,plus,dotcolour,beta,,,33,21,V,R,
134,8,8,3,1,36,44,1083,['c'],0,right,['3'],4,282,[0.03559958],96,44,hard,plus,dotcolour,beta,,,33,21,V,R,
135,9,9,3,1,53,27,750,['n'],0,left,['3'],4,266,[-0.0878678],99,53,easy,plus,dotcolour,beta,,,33,21,V,R,
136,10,10,3,1,47,33,300,['n'],0,left,['3'],4,293,[-0.00056584],87,47,medium,plus,dotcolour,beta,,,33,21,V,R,
137,11,11,3,1,27,53,667,['n'],1,right,['3'],4,351,[-0.09718109],99,53,easy,plus,dotcolour,beta,,,33,21,V,R,
138,12,12,3,1,53,27,484,['c'],1,left,['3'],4,319,[0.05458463],97,53,easy,plus,dotcolour,beta,,,33,21,V,R,
139,13,13,3,1,36,44,800,['n'],1,right,['3'],4,372,[-0.11173946],99,44,hard,plus,dotcolour,beta,,,33,21,V,R,
140,14,14,3,1,27,53,600,['n'],1,right,['3'],4,327,[-0.0660856],98,53,easy,plus,dotcolour,beta,,,33,21,V,R,
141,15,15,3,1,27,53,500,['n'],1,right,['3'],4,407,[-0.15979265],100,53,easy,plus,dotcolour,beta,,,33,21,V,R,
142,16,16,3,1,44,36,666,['n'],0,left,['3'],4,413,[-0.07867134],98,44,hard,plus,dotcolour,beta,,,33,21,V,R,
143,17,17,3,1,33,47,1200,['n'],1,right,['3'],4,309,[-0.10128673],99,47,medium,plus,dotcolour,beta,,,33,21,V,R,
144,18,18,3,1,53,27,783,['c'],1,left,['3'],4,315,[0.10404227],99,53,easy,plus,dotcolour,beta,,,33,21,V,R,
145,19,19,3,1,36,44,1567,['n'],1,right,['1'],6,304,[-0.00311962],87,44,hard,plus,dotcolour,beta,,,33,21,V,R,
146,20,20,3,1,44,36,1066,['c'],1,left,['2'],5,435,[0.13978788],100,44,hard,plus,dotcolour,beta,,,33,21,V,R,
147,21,21,3,1,36,44,767,['n'],1,right,['2'],5,380,[-0.03786147],94,44,hard,plus,dotcolour,beta,,,33,21,V,R,
148,22,22,3,1,44,36,883,['c'],1,left,['2'],5,275,[0.14093225],100,44,hard,plus,dotcolour,beta,,,33,21,V,R,
149,23,23,3,1,33,47,668,['n'],1,right,['2'],5,279,[-0.1136591],100,47,medium,plus,dotcolour,beta,,,33,21,V,R,
150,24,24,3,1,53,27,933,['c'],1,left,['2'],5,327,[0.19958302],100,53,easy,plus,dotcolour,beta,,,33,21,V,R,
151,25,25,3,1,47,33,884,['c'],1,left,['2'],5,328,[-0.01107108],80,47,medium,plus,dotcolour,beta,,,33,21,V,R,
152,26,26,3,1,44,36,900,['n'],0,left,['2'],5,352,[-0.18279306],100,44,hard,plus,dotcolour,beta,,,33,21,V,R,
153,27,27,3,1,44,36,1066,['c'],1,left,['2'],5,392,[0.12019226],99,44,hard,plus,dotcolour,beta,,,33,21,V,R,
154,28,28,3,1,27,53,784,['n'],1,right,['2'],5,347,[-0.18208583],100,53,easy,plus,dotcolour,beta,,,33,21,V,R,
155,29,29,3,1,44,36,967,['c'],1,left,['1'],6,415,[0.11335489],99,44,hard,plus,dotcolour,beta,,,33,21,V,R,
156,30,30,3,1,27,53,667,['n'],1,right,['1'],6,301,[-0.14059016],100,53,easy,plus,dotcolour,beta,,,33,21,V,R,
157,31,31,3,1,36,44,1683,['c'],0,right,['0'],1,1903,[0.13706359],93,44,hard,plus,dotcolour,beta,,,33,21,V,R,
158,32,32,3,1,47,33,2150,['n'],0,left,['3'],4,518,[0.01137206],75,47,medium,plus,dotcolour,beta,,,33,21,V,R,
159,33,33,3,1,27,53,900,['n'],1,right,['2'],5,358,[-0.14147788],100,53,easy,plus,dotcolour,beta,,,33,21,V,R,
160,34,34,3,1,36,44,1633,['n'],1,right,['2'],5,336,[-0.0316787],94,44,hard,plus,dotcolour,beta,,,33,21,V,R,
161,35,35,3,1,47,33,966,['c'],1,left,['2'],5,270,[0.07787216],99,47,medium,plus,dotcolour,beta,,,33,21,V,R,
162,36,36,3,1,33,47,617,['n'],1,right,['2'],5,268,[-0.18599399],100,47,medium,plus,dotcolour,beta,,,33,21,V,R,
163,37,37,3,1,33,47,1050,['n'],1,right,['2'],5,272,[-0.0777129],99,47,medium,plus,dotcolour,beta,,,33,21,V,R,
164,38,38,3,1,33,47,667,['n'],1,right,['2'],5,260,[-0.04675799],97,47,medium,plus,dotcolour,beta,,,33,21,V,R,
165,39,39,3,1,47,33,434,['n'],0,left,['2'],5,345,[-0.05481513],97,47,medium,plus,dotcolour,beta,,,33,21,V,R,
166,40,40,3,1,27,53,617,['n'],1,right,['2'],5,220,[-0.06512722],99,53,easy,plus,dotcolour,beta,,,33,21,V,R,
167,41,41,3,1,53,27,1917,['n'],0,left,['2'],5,463,[0.10471001],21,53,easy,plus,dotcolour,beta,,,33,21,V,R,
168,42,0,4,1,53,27,618,['n'],0,left,['2'],5,198,[-0.07602414],100,53,easy,plus,dotcolour,beta,,,33,21,V,R,
169,43,1,4,1,33,47,367,['n'],1,right,['2'],5,376,[-0.13318427],100,47,medium,plus,dotcolour,beta,,,33,21,V,R,
170,44,2,4,1,36,44,917,['c'],0,right,['2'],5,294,[0.08012114],99,44,hard,plus,dotcolour,beta,,,33,21,V,R,
171,45,3,4,1,27,53,633,['n'],1,right,['2'],5,226,[-0.12735447],100,53,easy,plus,dotcolour,beta,,,33,21,V,R,
172,46,4,4,1,47,33,901,['c'],1,left,['2'],5,326,[0.07009284],98,47,medium,plus,dotcolour,beta,,,33,21,V,R,
173,47,5,4,1,33,47,768,['n'],1,right,['2'],5,251,[-0.01779722],93,47,medium,plus,dotcolour,beta,,,33,21,V,R,
174,48,6,4,1,33,47,984,['c'],0,right,['2'],5,339,[0.01355713],89,47,medium,plus,dotcolour,beta,,,33,21,V,R,
175,49,7,4,1,36,44,883,['n'],1,right,['2'],5,299,[-0.09067026],99,44,hard,plus,dotcolour,beta,,,33,21,V,R,
176,50,8,4,1,53,27,716,['n'],0,left,['0'],1,1148,[0.09824519],33,53,easy,plus,dotcolour,beta,,,33,21,V,R,
177,51,9,4,1,27,53,784,['n'],1,right,['2'],5,320,[-0.14287624],100,53,easy,plus,dotcolour,beta,,,33,21,V,R,
178,52,10,4,1,33,47,567,['n'],1,right,['2'],5,246,[-0.15815214],100,47,medium,plus,dotcolour,beta,,,33,21,V,R,
179,53,11,4,1,44,36,701,['n'],0,left,['2'],5,385,[-0.01196915],88,44,hard,plus,dotcolour,beta,,,33,21,V,R,
180,54,12,4,1,53,27,650,['c'],1,left,['2'],5,265,[0.05272699],98,53,easy,plus,dotcolour,beta,,,33,21,V,R,
181,55,13,4,1,33,47,517,['n'],1,right,['2'],5,195,[-0.12918184],100,47,medium,plus,dotcolour,beta,,,33,21,V,R,
182,56,14,4,1,36,44,533,['n'],1,right,['2'],5,239,[-0.12417476],100,44,hard,plus,dotcolour,beta,,,33,21,V,R,
183,57,15,4,1,27,53,783,['n'],1,right,['2'],5,231,[-0.07623563],99,53,easy,plus,dotcolour,beta,,,33,21,V,R,
184,58,16,4,1,44,36,567,['n'],0,left,['2'],5,272,[-0.05555968],98,44,hard,plus,dotcolour,beta,,,33,21,V,R,
185,59,17,4,1,36,44,484,['n'],1,right,['2'],5,203,[-0.04901742],98,44,hard,plus,dotcolour,beta,,,33,21,V,R,
186,60,18,4,1,44,36,900,['c'],1,left,['2'],5,265,[0.11152934],100,44,hard,plus,dotcolour,beta,,,33,21,V,R,
187,61,19,4,1,33,47,583,['n'],1,right,['2'],5,280,[-0.14484736],100,47,medium,plus,dotcolour,beta,,,33,21,V,R,
188,62,20,4,1,47,33,1117,['c'],1,left,['2'],5,240,[0.06124327],99,47,medium,plus,dotcolour,beta,,,33,21,V,R,
189,63,21,4,1,47,33,834,['n'],0,left,['2'],5,319,[-0.0630945],98,47,medium,plus,dotcolour,beta,,,33,21,V,R,
190,64,22,4,1,44,36,834,['c'],1,left,['2'],5,258,[0.08378931],99,44,hard,plus,dotcolour,beta,,,33,21,V,R,
191,65,23,4,1,44,36,984,['n'],0,left,['1'],6,497,[-0.08535134],97,44,hard,plus,dotcolour,beta,,,33,21,V,R,
192,66,24,4,1,47,33,668,['n'],0,left,['2'],5,244,[0.07642869],32,47,medium,plus,dotcolour,beta,,,33,21,V,R,
193,67,25,4,1,36,44,1700,['n'],1,right,['2'],5,215,[-0.02454397],96,44,hard,plus,dotcolour,beta,,,33,21,V,R,
194,68,26,4,1,47,33,667,['c'],1,left,['2'],5,278,[0.07596239],99,47,medium,plus,dotcolour,beta,,,33,21,V,R,
195,69,27,4,1,53,27,717,['c'],1,left,['2'],5,207,[0.09586892],100,53,easy,plus,dotcolour,beta,,,33,21,V,R,
196,70,28,4,1,27,53,484,['n'],1,right,['2'],5,228,[-0.04997352],98,53,easy,plus,dotcolour,beta,,,33,21,V,R,
197,71,29,4,1,36,44,951,['n'],1,right,['2'],5,182,[-0.10310404],100,44,hard,plus,dotcolour,beta,,,33,21,V,R,
198,72,30,4,1,44,36,666,['c'],1,left,['2'],5,261,[0.03837759],96,44,hard,plus,dotcolour,beta,,,33,21,V,R,
199,73,31,4,1,27,53,550,['n'],1,right,['2'],5,278,[-0.10059564],100,53,easy,plus,dotcolour,beta,,,33,21,V,R,
200,74,32,4,1,53,27,634,['c'],1,left,['2'],5,274,[0.07010866],99,53,easy,plus,dotcolour,beta,,,33,21,V,R,
201,75,33,4,1,27,53,783,['n'],1,right,['2'],5,250,[-0.09515187],100,53,easy,plus,dotcolour,beta,,,33,21,V,R,
202,76,34,4,1,33,47,767,['c'],0,right,['2'],5,242,[0.05226184],98,47,medium,plus,dotcolour,beta,,,33,21,V,R,
203,77,35,4,1,53,27,800,['c'],1,left,['2'],5,225,[0.03621153],97,53,easy,plus,dotcolour,beta,,,33,21,V,R,
204,78,36,4,1,27,53,583,['n'],1,right,['2'],5,306,[-0.27859425],100,53,easy,plus,dotcolour,beta,,,33,21,V,R,
205,79,37,4,1,47,33,966,['c'],1,left,['2'],5,240,[0.07008607],99,47,medium,plus,dotcolour,beta,,,33,21,V,R,
206,80,38,4,1,47,33,584,['n'],0,left,['2'],5,264,[-0.08788014],99,47,medium,plus,dotcolour,beta,,,33,21,V,R,
207,81,39,4,1,44,36,1000,['c'],1,left,['2'],5,351,[-0.01429053],78,44,hard,plus,dotcolour,beta,,,33,21,V,R,
208,82,40,4,1,53,27,1167,['c'],1,left,['2'],5,339,[0.00659195],87,53,easy,plus,dotcolour,beta,,,33,21,V,R,
209,83,41,4,1,36,44,718,['n'],1,right,['2'],5,242,[-0.14580811],100,44,hard,plus,dotcolour,beta,,,33,21,V,R,
210,84,0,5,1,36,44,1018,['n'],1,right,['2'],5,197,[-0.05039814],99,44,hard,plus,dotcolour,beta,,,33,21,V,R,
211,85,1,5,1,36,44,1217,['n'],1,right,['2'],5,317,[-0.08950296],99,44,hard,plus,dotcolour,beta,,,33,21,V,R,
212,86,2,5,1,44,36,885,['c'],1,left,['2'],5,271,[0.0029965],88,44,hard,plus,dotcolour,beta,,,33,21,V,R,
213,87,3,5,1,53,27,700,['n'],0,left,['2'],5,289,[-0.1822062],100,53,easy,plus,dotcolour,beta,,,33,21,V,R,
214,88,4,5,1,47,33,616,['c'],1,left,['2'],5,334,[0.08965377],99,47,medium,plus,dotcolour,beta,,,33,21,V,R,
215,89,5,5,1,36,44,535,['c'],0,right,['2'],5,245,[0.10862624],100,44,hard,plus,dotcolour,beta,,,33,21,V,R,
216,90,6,5,1,27,53,450,['n'],1,right,['2'],5,290,[-0.18538731],100,53,easy,plus,dotcolour,beta,,,33,21,V,R,
217,91,7,5,1,33,47,583,['n'],1,right,['2'],5,288,[-0.1284217],100,47,medium,plus,dotcolour,beta,,,33,21,V,R,
218,92,8,5,1,27,53,616,['n'],1,right,['2'],5,238,[-0.17458842],100,53,easy,plus,dotcolour,beta,,,33,21,V,R,
219,93,9,5,1,36,44,884,['n'],1,right,['2'],5,274,[0.03362763],68,44,hard,plus,dotcolour,beta,,,33,21,V,R,
220,94,10,5,1,47,33,901,['c'],1,left,['2'],5,244,[0.12378566],100,47,medium,plus,dotcolour,beta,,,33,21,V,R,
221,95,11,5,1,53,27,535,['n'],0,left,['2'],5,342,[-0.07380152],98,53,easy,plus,dotcolour,beta,,,33,21,V,R,
222,96,12,5,1,27,53,1100,['n'],1,right,['2'],5,470,[-0.10426646],99,53,easy,plus,dotcolour,beta,,,33,21,V,R,
223,97,13,5,1,44,36,949,['c'],1,left,['2'],5,247,[0.0868169],99,44,hard,plus,dotcolour,beta,,,33,21,V,R,
224,98,14,5,1,47,33,666,['n'],0,left,['2'],5,267,[-0.05195347],98,47,medium,plus,dotcolour,beta,,,33,21,V,R,
225,99,15,5,1,53,27,1301,['c'],1,left,['2'],5,326,[0.10939068],99,53,easy,plus,dotcolour,beta,,,33,21,V,R,
226,100,16,5,1,44,36,2434,['n'],0,left,['2'],5,4232,[0.0939679],42,44,hard,plus,dotcolour,beta,,,33,21,V,R,
227,101,17,5,1,33,47,1050,['n'],1,right,['2'],5,709,[-0.16513983],99,47,medium,plus,dotcolour,beta,,,33,21,V,R,
228,102,18,5,1,36,44,834,['c'],0,right,['2'],5,320,[0.14437949],100,44,hard,plus,dotcolour,beta,,,33,21,V,R,
229,103,19,5,1,53,27,1334,['c'],1,left,['2'],5,264,[0.18580381],100,53,easy,plus,dotcolour,beta,,,33,21,V,R,
230,104,20,5,1,47,33,617,['n'],0,left,['2'],5,229,[-0.09439375],100,47,medium,plus,dotcolour,beta,,,33,21,V,R,
231,105,21,5,1,33,47,684,['n'],1,right,['2'],5,211,[-0.09376198],100,47,medium,plus,dotcolour,beta,,,33,21,V,R,
232,106,22,5,1,44,36,633,['c'],1,left,['2'],5,194,[0.1010418],100,44,hard,plus,dotcolour,beta,,,33,21,V,R,
233,107,23,5,1,36,44,1000,['n'],1,right,['2'],5,283,[-0.12924259],100,44,hard,plus,dotcolour,beta,,,33,21,V,R,
234,108,24,5,1,47,33,1267,['n'],0,left,['2'],5,335,[-0.05016591],96,47,medium,plus,dotcolour,beta,,,33,21,V,R,
235,109,25,5,1,33,47,733,['c'],0,right,['2'],5,253,[0.03320774],96,47,medium,plus,dotcolour,beta,,,33,21,V,R,
236,110,26,5,1,27,53,1050,['n'],1,right,['2'],5,274,[-0.09773919],99,53,easy,plus,dotcolour,beta,,,33,21,V,R,
237,111,27,5,1,33,47,633,['n'],1,right,['2'],5,247,[-0.20866329],100,47,medium,plus,dotcolour,beta,,,33,21,V,R,
238,112,28,5,1,27,53,517,['n'],1,right,['2'],5,290,[-0.13004528],100,53,easy,plus,dotcolour,beta,,,33,21,V,R,
239,113,29,5,1,36,44,784,['c'],0,right,['2'],5,296,[0.03830147],96,44,hard,plus,dotcolour,beta,,,33,21,V,R,
240,114,30,5,1,53,27,684,['c'],1,left,['2'],5,265,[-0.01909744],78,53,easy,plus,dotcolour,beta,,,33,21,V,R,
241,115,31,5,1,53,27,767,['c'],1,left,['1'],6,450,[0.2009305],100,53,easy,plus,dotcolour,beta,,,33,21,V,R,
242,116,32,5,1,27,53,650,['n'],1,right,['2'],5,279,[-0.09116768],99,53,easy,plus,dotcolour,beta,,,33,21,V,R,
243,117,33,5,1,44,36,719,['c'],1,left,['2'],5,264,[0.16732966],100,44,hard,plus,dotcolour,beta,,,33,21,V,R,
244,118,34,5,1,33,47,966,['c'],0,right,['2'],5,296,[0.17318797],100,47,medium,plus,dotcolour,beta,,,33,21,V,R,
245,119,35,5,1,33,47,534,['n'],1,right,['2'],5,344,[-0.20809183],100,47,medium,plus,dotcolour,beta,,,33,21,V,R,
246,120,36,5,1,53,27,533,['c'],1,left,['2'],5,270,[0.09153371],99,53,easy,plus,dotcolour,beta,,,33,21,V,R,
247,121,37,5,1,47,33,1000,['c'],1,left,['2'],5,973,[0.35394017],100,47,medium,plus,dotcolour,beta,,,33,21,V,R,
248,122,38,5,1,27,53,750,['n'],1,right,['2'],5,289,[-0.0679491],98,53,easy,plus,dotcolour,beta,,,33,21,V,R,
249,123,39,5,1,44,36,633,['n'],0,left,['2'],5,445,[-0.02247302],89,44,hard,plus,dotcolour,beta,,,33,21,V,R,
250,124,40,5,1,44,36,616,['c'],1,left,['2'],5,300,[0.0411014],96,44,hard,plus,dotcolour,beta,,,33,21,V,R,
251,125,41,5,1,47,33,617,['n'],0,left,['2'],5,305,[-0.01948933],92,47,medium,plus,dotcolour,beta,,,33,21,V,R,
252,0,0,6,2,44,36,3100,['c'],1,left,['3'],4,924,[0.11445825],75,44,hard,minus,dotcolour,beta,,,33,21,V,R,
253,1,1,6,2,27,53,683,['n'],1,right,['2'],5,309,[-0.1344993],93,53,easy,minus,dotcolour,beta,,,33,21,V,R,
254,2,2,6,2,47,33,684,['c'],1,left,['3'],4,366,[0.00073526],16,47,medium,minus,dotcolour,beta,,,33,21,V,R,
255,3,3,6,2,44,36,616,['n'],0,left,['3'],4,320,[-0.02485849],27,44,hard,minus,dotcolour,beta,,,33,21,V,R,
256,4,4,6,2,33,47,616,['n'],1,right,['3'],4,316,[0.04252208],4,47,medium,minus,dotcolour,beta,,,33,21,V,R,
257,5,5,6,2,33,47,667,['n'],1,right,"['3', '2']",4,382,[-0.10461345],81,47,medium,minus,dotcolour,beta,,,33,21,V,R,
258,6,6,6,2,36,44,617,['n'],1,right,['2'],5,263,[-0.05074243],46,44,hard,minus,dotcolour,beta,,,33,21,V,R,
259,7,7,6,2,53,27,517,['n'],0,left,['3'],4,321,[-0.07468795],65,53,easy,minus,dotcolour,beta,,,33,21,V,R,
260,8,8,6,2,44,36,766,['c'],1,left,['3'],4,280,[0.10716789],85,44,hard,minus,dotcolour,beta,,,33,21,V,R,
261,9,9,6,2,44,36,567,['n'],0,left,['0'],1,1167,[0.20888759],1,44,hard,minus,dotcolour,beta,,,33,21,V,R,
262,10,10,6,2,47,33,1400,['c'],1,left,['3'],4,369,[0.10259454],80,47,medium,minus,dotcolour,beta,,,33,21,V,R,
263,11,11,6,2,53,27,900,['c'],1,left,['3'],4,287,[0.12045754],90,53,easy,minus,dotcolour,beta,,,33,21,V,R,
264,12,12,6,2,36,44,516,['n'],1,right,['3'],4,265,[-0.00193961],13,44,hard,minus,dotcolour,beta,,,33,21,V,R,
265,13,13,6,2,53,27,767,['c'],1,left,['3'],4,281,[0.12157295],90,53,easy,minus,dotcolour,beta,,,33,21,V,R,
266,14,14,6,2,47,33,684,['c'],1,left,['3'],4,211,[0.02416547],23,47,medium,minus,dotcolour,beta,,,33,21,V,R,
267,15,15,6,2,36,44,583,['n'],1,right,['3'],4,268,[-0.14420023],96,44,hard,minus,dotcolour,beta,,,33,21,V,R,
268,16,16,6,2,53,27,600,['c'],1,left,['3'],4,252,[0.05274196],47,53,easy,minus,dotcolour,beta,,,33,21,V,R,
269,17,17,6,2,36,44,733,['n'],1,right,['3'],4,310,[-0.14444234],95,44,hard,minus,dotcolour,beta,,,33,21,V,R,
270,18,18,6,2,47,33,683,['c'],1,left,['3'],4,255,[0.00888251],16,47,medium,minus,dotcolour,beta,,,33,21,V,R,
271,19,19,6,2,36,44,633,['c'],0,right,['3'],4,229,[0.03897504],35,44,hard,minus,dotcolour,beta,,,33,21,V,R,
272,20,20,6,2,47,33,717,['c'],1,left,['3'],4,297,[0.20196763],99,47,medium,minus,dotcolour,beta,,,33,21,V,R,
273,21,21,6,2,36,44,850,['n'],1,right,['0'],1,1148,[-0.07690629],59,44,hard,minus,dotcolour,beta,,,33,21,V,R,
274,22,22,6,2,53,27,866,['c'],1,left,['3'],4,276,[0.10061581],82,53,easy,minus,dotcolour,beta,,,33,21,V,R,
275,23,23,6,2,27,53,483,['n'],1,right,['3'],4,287,[-0.11802806],89,53,easy,minus,dotcolour,beta,,,33,21,V,R,
276,24,24,6,2,44,36,1050,['c'],1,left,['3'],4,235,[0.05035059],45,44,hard,minus,dotcolour,beta,,,33,21,V,R,
277,25,25,6,2,33,47,783,['n'],1,right,['3'],4,259,[-0.10003832],83,47,medium,minus,dotcolour,beta,,,33,21,V,R,
278,26,26,6,2,53,27,683,['n'],0,left,['9'],2,2039,[0.10395862],12,53,easy,minus,dotcolour,beta,,,33,21,V,R,
279,27,27,6,2,44,36,2450,['c'],1,left,['3'],4,276,[0.14073922],95,44,hard,minus,dotcolour,beta,,,33,21,V,R,
280,28,28,6,2,36,44,883,['n'],1,right,['3'],4,303,[-0.04526927],42,44,hard,minus,dotcolour,beta,,,33,21,V,R,
281,29,29,6,2,27,53,700,['n'],1,right,['3'],4,392,[-0.09893283],78,53,easy,minus,dotcolour,beta,,,33,21,V,R,
282,30,30,6,2,27,53,533,['n'],1,right,['3'],4,396,[-0.09821432],77,53,easy,minus,dotcolour,beta,,,33,21,V,R,
283,31,31,6,2,53,27,1234,['c'],1,left,['3'],4,340,[0.11572974],87,53,easy,minus,dotcolour,beta,,,33,21,V,R,
284,32,32,6,2,33,47,550,['n'],1,right,['3'],4,370,[-0.13001945],90,47,medium,minus,dotcolour,beta,,,33,21,V,R,
285,33,33,6,2,33,47,466,['n'],1,right,['3'],4,330,[-0.06580895],58,47,medium,minus,dotcolour,beta,,,33,21,V,R,
286,34,34,6,2,27,53,467,['n'],1,right,['3'],4,267,[-0.14652416],96,53,easy,minus,dotcolour,beta,,,33,21,V,R,
287,35,35,6,2,33,47,434,['n'],1,right,['3'],4,312,[-0.13541337],93,47,medium,minus,dotcolour,beta,,,33,21,V,R,
288,36,36,6,2,27,53,500,['n'],1,right,['3'],4,289,[-0.11321452],87,53,easy,minus,dotcolour,beta,,,33,21,V,R,
289,37,37,6,2,27,53,484,['n'],1,right,['3'],4,291,[-0.17048198],98,53,easy,minus,dotcolour,beta,,,33,21,V,R,
290,38,38,6,2,47,33,1184,['c'],1,left,['3'],4,241,[0.09313805],80,47,medium,minus,dotcolour,beta,,,33,21,V,R,
291,39,39,6,2,47,33,600,['n'],0,left,['3'],4,312,[-0.0089097],18,47,medium,minus,dotcolour,beta,,,33,21,V,R,
292,40,40,6,2,33,47,650,['n'],1,right,['3'],4,259,[-0.15182814],97,47,medium,minus,dotcolour,beta,,,33,21,V,R,
293,41,41,6,2,44,36,983,['c'],1,left,['3'],4,210,[0.13225656],95,44,hard,minus,dotcolour,beta,,,33,21,V,R,
294,42,0,7,2,44,36,900,['c'],1,left,['3'],4,173,[0.06455134],60,44,hard,minus,dotcolour,beta,,,33,21,V,R,
295,43,1,7,2,47,33,500,['c'],1,left,['3'],4,219,[0.13807945],96,47,medium,minus,dotcolour,beta,,,33,21,V,R,
296,44,2,7,2,53,27,699,['c'],1,left,['3'],4,192,[0.10927954],90,53,easy,minus,dotcolour,beta,,,33,21,V,R,
297,45,3,7,2,53,27,1166,['c'],1,left,['2'],5,362,[0.02691643],30,53,easy,minus,dotcolour,beta,,,33,21,V,R,
298,46,4,7,2,47,33,1367,['c'],1,left,['3'],4,302,[0.22863049],100,47,medium,minus,dotcolour,beta,,,33,21,V,R,
299,47,5,7,2,33,47,866,['c'],0,right,['8'],3,1089,[0.05316452],49,47,medium,minus,dotcolour,beta,,,33,21,V,R,
300,48,6,7,2,27,53,800,['c'],0,right,['9'],2,1830,[-0.03495228],23,53,easy,minus,dotcolour,beta,,,33,21,V,R,
301,49,7,7,2,44,36,1600,['c'],1,left,['3'],4,302,[0.18808834],99,44,hard,minus,dotcolour,beta,,,33,21,V,R,
302,50,8,7,2,36,44,533,['n'],1,right,['3'],4,278,[-0.04659985],42,44,hard,minus,dotcolour,beta,,,33,21,V,R,
303,51,9,7,2,53,27,1050,['c'],1,left,['3'],4,234,[0.02942196],27,53,easy,minus,dotcolour,beta,,,33,21,V,R,
304,52,10,7,2,33,47,484,['n'],1,right,['3'],4,318,[-0.037642],36,47,medium,minus,dotcolour,beta,,,33,21,V,R,
305,53,11,7,2,47,33,850,['c'],1,left,['3'],4,169,[0.09706431],86,47,medium,minus,dotcolour,beta,,,33,21,V,R,
306,54,12,7,2,33,47,450,['n'],1,right,['3'],4,274,[-0.09981566],82,47,medium,minus,dotcolour,beta,,,33,21,V,R,
307,55,13,7,2,53,27,517,['c'],1,left,['3'],4,220,[0.17013922],99,53,easy,minus,dotcolour,beta,,,33,21,V,R,
308,56,14,7,2,27,53,467,['n'],1,right,['3'],4,241,[-0.04851449],44,53,easy,minus,dotcolour,beta,,,33,21,V,R,
309,57,15,7,2,33,47,599,['n'],1,right,['3'],4,233,[-0.08342728],74,47,medium,minus,dotcolour,beta,,,33,21,V,R,
310,58,16,7,2,53,27,667,['c'],1,left,['3'],4,166,[0.06181087],57,53,easy,minus,dotcolour,beta,,,33,21,V,R,
311,59,17,7,2,47,33,551,['n'],0,left,['3'],4,250,[-0.01382512],18,47,medium,minus,dotcolour,beta,,,33,21,V,R,
312,60,18,7,2,36,44,2267,['n'],1,right,['3'],4,199,[-0.03120828],27,44,hard,minus,dotcolour,beta,,,33,21,V,R,
313,61,19,7,2,36,44,685,['n'],1,right,['3'],4,197,[-0.12303023],94,44,hard,minus,dotcolour,beta,,,33,21,V,R,
314,62,20,7,2,27,53,717,['n'],1,right,['3'],4,227,[-0.10706831],88,53,easy,minus,dotcolour,beta,,,33,21,V,R,
315,63,21,7,2,44,36,2117,['n'],0,left,['2'],5,733,[-0.0686493],57,44,hard,minus,dotcolour,beta,,,33,21,V,R,
316,64,22,7,2,27,53,784,['n'],1,right,['2'],5,602,[-0.2214679],98,53,easy,minus,dotcolour,beta,,,33,21,V,R,
317,65,23,7,2,36,44,650,['n'],1,right,['2'],5,225,[-0.12826927],94,44,hard,minus,dotcolour,beta,,,33,21,V,R,
318,66,24,7,2,47,33,1601,['c'],1,left,['2'],5,329,[0.04914246],45,47,medium,minus,dotcolour,beta,,,33,21,V,R,
319,67,25,7,2,53,27,850,['c'],1,left,['2'],5,68,[0.05472918],49,53,easy,minus,dotcolour,beta,,,33,21,V,R,
320,68,26,7,2,33,47,666,['n'],1,right,['2'],5,287,[-0.03865051],36,47,medium,minus,dotcolour,beta,,,33,21,V,R,
321,69,27,7,2,33,47,484,['c'],0,right,['2'],5,306,[0.04084026],38,47,medium,minus,dotcolour,beta,,,33,21,V,R,
322,70,28,7,2,27,53,451,['n'],1,right,['2'],5,309,[-0.11818456],88,53,easy,minus,dotcolour,beta,,,33,21,V,R,
323,71,29,7,2,36,44,550,['n'],1,right,['2'],5,251,[-0.07998081],71,44,hard,minus,dotcolour,beta,,,33,21,V,R,
324,72,30,7,2,27,53,450,['n'],1,right,['2'],5,193,[-0.05799444],52,53,easy,minus,dotcolour,beta,,,33,21,V,R,
325,73,31,7,2,44,36,433,['n'],0,left,['2'],5,353,[-0.01691521],24,44,hard,minus,dotcolour,beta,,,33,21,V,R,
326,74,32,7,2,36,44,900,['c'],0,right,['2'],5,424,[0.09254542],74,44,hard,minus,dotcolour,beta,,,33,21,V,R,
327,75,33,7,2,44,36,450,['n'],0,left,['2'],5,222,[0.01200793],7,44,hard,minus,dotcolour,beta,,,33,21,V,R,
328,76,34,7,2,47,33,700,['c'],1,left,['2'],5,250,[0.16114843],98,47,medium,minus,dotcolour,beta,,,33,21,V,R,
329,77,35,7,2,27,53,517,['n'],1,right,['2'],5,229,[-0.08680804],76,53,easy,minus,dotcolour,beta,,,33,21,V,R,
330,78,36,7,2,33,47,583,['n'],1,right,['2'],5,222,[-0.00511907],13,47,medium,minus,dotcolour,beta,,,33,21,V,R,
331,79,37,7,2,53,27,684,['c'],1,left,['2'],5,228,[0.10559067],87,53,easy,minus,dotcolour,beta,,,33,21,V,R,
332,80,38,7,2,47,33,1216,['n'],0,left,['2'],5,259,[-0.05304734],48,47,medium,minus,dotcolour,beta,,,33,21,V,R,
333,81,39,7,2,44,36,1232,['n'],0,left,['2'],5,224,[-0.02474182],24,44,hard,minus,dotcolour,beta,,,33,21,V,R,
334,82,40,7,2,36,44,600,['n'],1,right,['2'],5,184,[-0.06917449],64,44,hard,minus,dotcolour,beta,,,33,21,V,R,
335,83,41,7,2,44,36,1700,['c'],1,left,['2'],5,550,[0.12805856],85,44,hard,minus,dotcolour,beta,,,33,21,V,R,
336,84,0,8,2,33,47,784,['n'],1,right,['2'],5,223,[-0.09473317],82,47,medium,minus,dotcolour,beta,,,33,21,V,R,
337,85,1,8,2,53,27,867,['c'],1,left,['2'],5,244,[0.1113118],88,53,easy,minus,dotcolour,beta,,,33,21,V,R,
338,86,2,8,2,33,47,516,['n'],1,right,['2'],5,191,[-0.11627385],92,47,medium,minus,dotcolour,beta,,,33,21,V,R,
339,87,3,8,2,53,27,783,['n'],0,left,['2'],5,241,[-0.00885799],15,53,easy,minus,dotcolour,beta,,,33,21,V,R,
340,88,4,8,2,36,44,517,['n'],1,right,['2'],5,155,[-0.05124389],45,44,hard,minus,dotcolour,beta,,,33,21,V,R,
341,89,5,8,2,33,47,616,['c'],0,right,['2'],5,222,[-0.03348305],3,47,medium,minus,dotcolour,beta,,,33,21,V,R,
342,90,6,8,2,53,27,934,['c'],1,left,['2'],5,241,[0.08725536],76,53,easy,minus,dotcolour,beta,,,33,21,V,R,
343,91,7,8,2,44,36,516,['n'],0,left,['2'],5,204,[-0.04284108],38,44,hard,minus,dotcolour,beta,,,33,21,V,R,
344,92,8,8,2,44,36,900,['n'],0,left,['2'],5,217,[-0.03417468],30,44,hard,minus,dotcolour,beta,,,33,21,V,R,
345,93,9,8,2,36,44,1467,['n'],1,right,['2'],5,247,[-0.21716788],100,44,hard,minus,dotcolour,beta,,,33,21,V,R,
346,94,10,8,2,33,47,767,['c'],0,right,['2'],5,192,[0.03802058],33,47,medium,minus,dotcolour,beta,,,33,21,V,R,
347,95,11,8,2,33,47,650,['n'],1,right,['2'],5,240,[-0.10393725],86,47,medium,minus,dotcolour,beta,,,33,21,V,R,
348,96,12,8,2,47,33,850,['c'],1,left,['2'],5,253,[0.11241401],88,47,medium,minus,dotcolour,beta,,,33,21,V,R,
349,97,13,8,2,27,53,450,['n'],1,right,['2'],5,202,[-0.11345597],91,53,easy,minus,dotcolour,beta,,,33,21,V,R,
350,98,14,8,2,47,33,599,['c'],1,left,['2'],5,179,[0.06732245],62,47,medium,minus,dotcolour,beta,,,33,21,V,R,
351,99,15,8,2,47,33,1283,['n'],0,left,['2'],5,170,[-0.0691996],64,47,medium,minus,dotcolour,beta,,,33,21,V,R,
352,100,16,8,2,47,33,867,['c'],1,left,['2'],5,179,[0.08246927],76,47,medium,minus,dotcolour,beta,,,33,21,V,R,
353,101,17,8,2,44,36,834,['c'],1,left,['2'],5,179,[0.04356057],38,44,hard,minus,dotcolour,beta,,,33,21,V,R,
354,102,18,8,2,27,53,584,['n'],1,right,['2'],5,261,[-0.09997304],83,53,easy,minus,dotcolour,beta,,,33,21,V,R,
355,103,19,8,2,44,36,817,['c'],1,left,['2'],5,475,[0.13018322],88,44,hard,minus,dotcolour,beta,,,33,21,V,R,
356,104,20,8,2,36,44,633,['n'],1,right,['2'],5,256,[-0.09385788],80,44,hard,minus,dotcolour,beta,,,33,21,V,R,
357,105,21,8,2,27,53,667,['n'],1,right,['2'],5,228,[-0.09445798],81,53,easy,minus,dotcolour,beta,,,33,21,V,R,
358,106,22,8,2,27,53,517,['n'],1,right,['2'],5,256,[-0.04434235],40,53,easy,minus,dotcolour,beta,,,33,21,V,R,
359,107,23,8,2,47,33,833,['c'],1,left,['2'],5,229,[0.08072842],72,47,medium,minus,dotcolour,beta,,,33,21,V,R,
360,108,24,8,2,44,36,850,['n'],0,left,['2'],5,203,[-0.07060865],65,44,hard,minus,dotcolour,beta,,,33,21,V,R,
361,109,25,8,2,33,47,734,['n'],1,right,['2'],5,207,[-0.10421745],87,47,medium,minus,dotcolour,beta,,,33,21,V,R,
362,110,26,8,2,53,27,666,['c'],1,left,['2'],5,189,[0.09780079],85,53,easy,minus,dotcolour,beta,,,33,21,V,R,
363,111,27,8,2,53,27,1134,['c'],1,left,['2'],5,162,[0.08010886],75,53,easy,minus,dotcolour,beta,,,33,21,V,R,
364,112,28,8,2,44,36,717,['n'],0,left,['2'],5,231,[-0.04611351],41,44,hard,minus,dotcolour,beta,,,33,21,V,R,
365,113,29,8,2,36,44,834,['n'],1,right,['2'],5,269,[-0.15147642],97,44,hard,minus,dotcolour,beta,,,33,21,V,R,
366,114,30,8,2,36,44,1434,['n'],1,right,['2'],5,195,[-0.10257152],87,44,hard,minus,dotcolour,beta,,,33,21,V,R,
367,115,31,8,2,27,53,534,['n'],1,right,['2'],5,183,[-0.12051942],94,53,easy,minus,dotcolour,beta,,,33,21,V,R,
368,116,32,8,2,36,44,767,['c'],0,right,['2'],5,154,[0.11480347],94,44,hard,minus,dotcolour,beta,,,33,21,V,R,
369,117,33,8,2,47,33,1167,['c'],1,left,['2'],5,23,[0.05785932],57,47,medium,minus,dotcolour,beta,,,33,21,V,R,
370,118,34,8,2,27,53,716,['n'],1,right,['2'],5,179,[-0.04421928],38,53,easy,minus,dotcolour,beta,,,33,21,V,R,
371,119,35,8,2,53,27,700,['c'],1,left,['2'],5,273,[0.05048814],46,53,easy,minus,dotcolour,beta,,,33,21,V,R,
372,120,36,8,2,27,53,484,['n'],1,right,['2'],5,195,[-0.13912873],97,53,easy,minus,dotcolour,beta,,,33,21,V,R,
373,121,37,8,2,53,27,767,['c'],1,left,['2'],5,294,[0.09675258],80,53,easy,minus,dotcolour,beta,,,33,21,V,R,
374,122,38,8,2,33,47,1517,['c'],0,right,['2'],5,167,[0.08107603],75,47,medium,minus,dotcolour,beta,,,33,21,V,R,
375,123,39,8,2,36,44,833,['n'],1,right,['2'],5,209,[-0.03198645],28,44,hard,minus,dotcolour,beta,,,33,21,V,R,
376,124,40,8,2,44,36,1034,['c'],1,left,['2'],5,232,[0.04638077],42,44,hard,minus,dotcolour,beta,,,33,21,V,R,
377,125,41,8,2,47,33,916,['c'],1,left,['2'],5,411,[0.11171354],83,47,medium,minus,dotcolour,beta,,,33,21,V,R,
378,0,0,9,3,44,36,601,['n'],0,left,['2'],5,162,[-0.10469693],100,44,hard,plus,dotcolour,beta,,,33,21,V,R,
379,1,1,9,3,33,47,300,['n'],1,right,['2'],5,145,[-0.07105567],100,47,medium,plus,dotcolour,beta,,,33,21,V,R,
380,2,2,9,3,36,44,567,['n'],1,right,['2'],5,126,[0.01293146],90,44,hard,plus,dotcolour,beta,,,33,21,V,R,
381,3,3,9,3,27,53,516,['n'],1,right,['2'],5,197,[-0.06747326],99,53,easy,plus,dotcolour,beta,,,33,21,V,R,
382,4,4,9,3,53,27,833,['c'],1,left,['2'],5,148,[0.03185026],98,53,easy,plus,dotcolour,beta,,,33,21,V,R,
383,5,5,9,3,44,36,750,['c'],1,left,['2'],5,130,[0.04503578],99,44,hard,plus,dotcolour,beta,,,33,21,V,R,
384,6,6,9,3,44,36,683,['n'],0,left,['2'],5,163,[-0.13916594],100,44,hard,plus,dotcolour,beta,,,33,21,V,R,
385,7,7,9,3,53,27,1400,['c'],1,left,['2'],5,190,[0.1339604],100,53,easy,plus,dotcolour,beta,,,33,21,V,R,
386,8,8,9,3,53,27,667,['c'],1,left,['2'],5,132,[0.09587518],100,53,easy,plus,dotcolour,beta,,,33,21,V,R,
387,9,9,9,3,36,44,933,['n'],1,right,['2'],5,195,[-0.0579293],99,44,hard,plus,dotcolour,beta,,,33,21,V,R,
388,10,10,9,3,27,53,718,['c'],0,right,['2'],5,200,[0.03661552],98,53,easy,plus,dotcolour,beta,,,33,21,V,R,
389,11,11,9,3,53,27,1082,['c'],1,left,['2'],5,150,[0.15556495],100,53,easy,plus,dotcolour,beta,,,33,21,V,R,
390,12,12,9,3,27,53,567,['n'],1,right,['2'],5,211,[-0.10800135],100,53,easy,plus,dotcolour,beta,,,33,21,V,R,
391,13,13,9,3,36,44,917,['n'],1,right,['2'],5,207,[-0.0758428],99,44,hard,plus,dotcolour,beta,,,33,21,V,R,
392,14,14,9,3,36,44,583,['n'],1,right,['2'],5,176,[-0.12010692],100,44,hard,plus,dotcolour,beta,,,33,21,V,R,
393,15,15,9,3,53,27,900,['c'],1,left,['2'],5,190,[0.06174062],99,53,easy,plus,dotcolour,beta,,,33,21,V,R,
394,16,16,9,3,33,47,917,['n'],1,right,['2'],5,187,[-0.10907184],100,47,medium,plus,dotcolour,beta,,,33,21,V,R,
395,17,17,9,3,47,33,917,['c'],1,left,['2'],5,128,[0.10436822],100,47,medium,plus,dotcolour,beta,,,33,21,V,R,
396,18,18,9,3,27,53,683,['n'],1,right,['2'],5,249,[-0.00563686],90,53,easy,plus,dotcolour,beta,,,33,21,V,R,
397,19,19,9,3,36,44,683,['n'],1,right,['2'],5,124,[-0.12283353],100,44,hard,plus,dotcolour,beta,,,33,21,V,R,
398,20,20,9,3,33,47,1283,['n'],1,right,['2'],5,181,[-0.11684261],100,47,medium,plus,dotcolour,beta,,,33,21,V,R,
399,21,21,9,3,33,47,634,['n'],1,right,['2'],5,158,[-0.09408695],100,47,medium,plus,dotcolour,beta,,,33,21,V,R,
400,22,22,9,3,47,33,750,['c'],1,left,['2'],5,211,[0.09634667],100,47,medium,plus,dotcolour,beta,,,33,21,V,R,
401,23,23,9,3,27,53,634,['n'],1,right,['2'],5,242,[-0.07826206],99,53,easy,plus,dotcolour,beta,,,33,21,V,R,
402,24,24,9,3,27,53,800,['n'],1,right,['2'],5,290,[-0.07982451],99,53,easy,plus,dotcolour,beta,,,33,21,V,R,
403,25,25,9,3,36,44,834,['c'],0,right,['2'],5,270,[0.17458194],100,44,hard,plus,dotcolour,beta,,,33,21,V,R,
404,26,26,9,3,47,33,733,['n'],0,left,['2'],5,238,[-0.08349023],99,47,medium,plus,dotcolour,beta,,,33,21,V,R,
405,27,27,9,3,44,36,817,['c'],1,left,['2'],5,158,[0.11142149],100,44,hard,plus,dotcolour,beta,,,33,21,V,R,
406,28,28,9,3,44,36,533,['n'],0,left,['2'],5,187,[-0.05576159],99,44,hard,plus,dotcolour,beta,,,33,21,V,R,
407,29,29,9,3,44,36,300,['c'],1,left,['2'],5,81,[0.0747759],100,44,hard,plus,dotcolour,beta,,,33,21,V,R,
408,30,30,9,3,27,53,434,['n'],1,right,['2'],5,142,[-0.09230896],100,53,easy,plus,dotcolour,beta,,,33,21,V,R,
409,31,31,9,3,53,27,683,['c'],1,left,['2'],5,87,[0.07012896],100,53,easy,plus,dotcolour,beta,,,33,21,V,R,
410,32,32,9,3,47,33,333,['n'],0,left,['2'],5,167,[-0.11762957],100,47,medium,plus,dotcolour,beta,,,33,21,V,R,
411,33,33,9,3,33,47,300,['c'],0,right,['2'],5,101,[0.02200651],99,47,medium,plus,dotcolour,beta,,,33,21,V,R,
412,34,34,9,3,33,47,233,['n'],1,right,['2'],5,209,[-0.07906304],100,47,medium,plus,dotcolour,beta,,,33,21,V,R,
413,35,35,9,3,47,33,683,['n'],0,left,['2'],5,191,[-0.04583106],98,47,medium,plus,dotcolour,beta,,,33,21,V,R,
414,36,36,9,3,47,33,900,['c'],1,left,['2'],5,108,[0.05731602],100,47,medium,plus,dotcolour,beta,,,33,21,V,R,
415,37,37,9,3,36,44,450,['n'],1,right,['2'],5,127,[-0.10070214],100,44,hard,plus,dotcolour,beta,,,33,21,V,R,
416,38,38,9,3,47,33,584,['n'],0,left,['2'],5,123,[-0.1034517],100,47,medium,plus,dotcolour,beta,,,33,21,V,R,
417,39,39,9,3,53,27,383,['c'],1,left,['2'],5,96,[0.12713582],100,53,easy,plus,dotcolour,beta,,,33,21,V,R,
418,40,40,9,3,33,47,158,['n'],1,right,['2'],5,110,[-0.10638318],100,47,medium,plus,dotcolour,beta,,,33,21,V,R,
419,41,41,9,3,44,36,350,['c'],1,left,['2'],5,101,[0.04568948],100,44,hard,plus,dotcolour,beta,,,33,21,V,R,
420,42,0,10,3,53,27,484,['n'],0,left,['2'],5,138,[-0.02851172],98,53,easy,plus,dotcolour,beta,,,33,21,V,R,
421,43,1,10,3,44,36,1550,['c'],1,left,['2'],5,208,[0.07043244],99,44,hard,plus,dotcolour,beta,,,33,21,V,R,
422,44,2,10,3,47,33,450,['n'],0,left,['2'],5,270,[-0.02047726],93,47,medium,plus,dotcolour,beta,,,33,21,V,R,
423,45,3,10,3,36,44,601,['c'],0,right,['2'],5,173,[0.00154463],92,44,hard,plus,dotcolour,beta,,,33,21,V,R,
424,46,4,10,3,33,47,734,['n'],1,right,['2'],5,145,[-0.08901857],100,47,medium,plus,dotcolour,beta,,,33,21,V,R,
425,47,5,10,3,44,36,834,['c'],1,left,['2'],5,124,[0.14886383],100,44,hard,plus,dotcolour,beta,,,33,21,V,R,
426,48,6,10,3,53,27,750,['c'],1,left,['2'],5,162,[0.14320556],100,53,easy,plus,dotcolour,beta,,,33,21,V,R,
427,49,7,10,3,36,44,483,['n'],1,right,['2'],5,169,[-0.01466974],96,44,hard,plus,dotcolour,beta,,,33,21,V,R,
428,50,8,10,3,47,33,550,['n'],0,left,['2'],5,149,[-0.00673943],95,47,medium,plus,dotcolour,beta,,,33,21,V,R,
429,51,9,10,3,36,44,1217,['n'],1,right,['2'],5,168,[-0.0280174],98,44,hard,plus,dotcolour,beta,,,33,21,V,R,
430,52,10,10,3,44,36,984,['c'],1,left,['2'],5,155,[0.09141426],100,44,hard,plus,dotcolour,beta,,,33,21,V,R,
431,53,11,10,3,33,47,734,['n'],1,right,['2'],5,202,[-0.05343946],99,47,medium,plus,dotcolour,beta,,,33,21,V,R,
432,54,12,10,3,53,27,783,['c'],1,left,['2'],5,140,[0.06188187],100,53,easy,plus,dotcolour,beta,,,33,21,V,R,
433,55,13,10,3,53,27,601,['c'],1,left,['2'],5,167,[0.05386153],99,53,easy,plus,dotcolour,beta,,,33,21,V,R,
434,56,14,10,3,36,44,500,['n'],1,right,['2'],5,214,[-0.05175796],98,44,hard,plus,dotcolour,beta,,,33,21,V,R,
435,57,15,10,3,44,36,567,['c'],1,left,['2'],5,160,[0.06679904],100,44,hard,plus,dotcolour,beta,,,33,21,V,R,
436,58,16,10,3,53,27,683,['c'],1,left,['2'],5,215,[0.11587014],100,53,easy,plus,dotcolour,beta,,,33,21,V,R,
437,59,17,10,3,47,33,900,['n'],0,left,['2'],5,268,[0.03689717],66,47,medium,plus,dotcolour,beta,,,33,21,V,R,
438,60,18,10,3,33,47,634,['n'],1,right,['2'],5,233,[-0.09711902],100,47,medium,plus,dotcolour,beta,,,33,21,V,R,
439,61,19,10,3,44,36,651,['c'],1,left,['2'],5,23,[0.04434174],100,44,hard,plus,dotcolour,beta,,,33,21,V,R,
440,62,20,10,3,33,47,1417,['n'],1,right,['2'],5,1127,[-0.08877237],92,47,medium,plus,dotcolour,beta,,,33,21,V,R,
441,63,21,10,3,36,44,700,['c'],0,right,['2'],5,255,[0.08580664],99,44,hard,plus,dotcolour,beta,,,33,21,V,R,
442,64,22,10,3,27,53,584,['n'],1,right,['2'],5,247,[-0.11329537],100,53,easy,plus,dotcolour,beta,,,33,21,V,R,
443,65,23,10,3,36,44,817,['n'],1,right,['2'],5,165,[-0.09125037],100,44,hard,plus,dotcolour,beta,,,33,21,V,R,
444,66,24,10,3,44,36,633,['c'],1,left,['2'],5,126,[0.08406191],100,44,hard,plus,dotcolour,beta,,,33,21,V,R,
445,67,25,10,3,47,33,484,['n'],0,left,['2'],5,191,[0.02640945],77,47,medium,plus,dotcolour,beta,,,33,21,V,R,
446,68,26,10,3,44,36,1033,['n'],0,left,['2'],5,183,[0.02164893],81,44,hard,plus,dotcolour,beta,,,33,21,V,R,
447,69,27,10,3,27,53,567,['n'],1,right,['2'],5,242,[-0.11858277],100,53,easy,plus,dotcolour,beta,,,33,21,V,R,
448,70,28,10,3,33,47,650,['n'],1,right,['2'],5,440,[0.01860498],73,47,medium,plus,dotcolour,beta,,,33,21,V,R,
449,71,29,10,3,27,53,583,['n'],1,right,['2'],5,207,[-0.1488501],100,53,easy,plus,dotcolour,beta,,,33,21,V,R,
450,72,30,10,3,33,47,550,['n'],1,right,['2'],5,186,[-0.09584355],100,47,medium,plus,dotcolour,beta,,,33,21,V,R,
451,73,31,10,3,53,27,667,['c'],1,left,['2'],5,122,[0.09535255],100,53,easy,plus,dotcolour,beta,,,33,21,V,R,
452,74,32,10,3,47,33,900,['n'],0,left,['2'],5,242,[-0.05719481],98,47,medium,plus,dotcolour,beta,,,33,21,V,R,
453,75,33,10,3,47,33,700,['n'],0,left,['2'],5,253,[-0.04689232],98,47,medium,plus,dotcolour,beta,,,33,21,V,R,
454,76,34,10,3,33,47,667,['c'],0,right,['2'],5,186,[0.1032387],100,47,medium,plus,dotcolour,beta,,,33,21,V,R,
455,77,35,10,3,53,27,983,['n'],0,left,['2'],5,285,[-0.00651506],89,53,easy,plus,dotcolour,beta,,,33,21,V,R,
456,78,36,10,3,47,33,634,['c'],1,left,['2'],5,146,[0.08376952],100,47,medium,plus,dotcolour,beta,,,33,21,V,R,
457,79,37,10,3,27,53,450,['n'],1,right,['2'],5,155,[-0.02775773],98,53,easy,plus,dotcolour,beta,,,33,21,V,R,
458,80,38,10,3,27,53,566,['n'],1,right,['2'],5,224,[-0.09963546],100,53,easy,plus,dotcolour,beta,,,33,21,V,R,
459,81,39,10,3,27,53,584,['c'],0,right,['2'],5,241,[0.10120896],100,53,easy,plus,dotcolour,beta,,,33,21,V,R,
460,82,40,10,3,36,44,1101,['n'],1,right,['2'],5,708,[-0.0932872],96,44,hard,plus,dotcolour,beta,,,33,21,V,R,
461,83,41,10,3,27,53,550,['c'],0,right,['2'],5,163,[0.00798846],94,53,easy,plus,dotcolour,beta,,,33,21,V,R,
462,84,0,11,3,53,27,951,['n'],0,left,['2'],5,144,[-0.09147646],100,53,easy,plus,dotcolour,beta,,,33,21,V,R,
463,85,1,11,3,53,27,767,['c'],1,left,['2'],5,156,[0.09077422],100,53,easy,plus,dotcolour,beta,,,33,21,V,R,
464,86,2,11,3,47,33,1333,['c'],1,left,['2'],5,154,[0.07213746],100,47,medium,plus,dotcolour,beta,,,33,21,V,R,
465,87,3,11,3,53,27,717,['c'],1,left,['2'],5,121,[0.12270345],100,53,easy,plus,dotcolour,beta,,,33,21,V,R,
466,88,4,11,3,27,53,550,['n'],1,right,['2'],5,192,[-0.11066318],100,53,easy,plus,dotcolour,beta,,,33,21,V,R,
467,89,5,11,3,36,44,817,['n'],1,right,['2'],5,216,[-0.08327689],100,44,hard,plus,dotcolour,beta,,,33,21,V,R,
468,90,6,11,3,33,47,483,['n'],1,right,['2'],5,149,[-0.11669923],100,47,medium,plus,dotcolour,beta,,,33,21,V,R,
469,91,7,11,3,33,47,533,['c'],0,right,['2'],5,115,[0.0377949],99,47,medium,plus,dotcolour,beta,,,33,21,V,R,
470,92,8,11,3,27,53,434,['n'],1,right,['2'],5,167,[-0.1054148],100,53,easy,plus,dotcolour,beta,,,33,21,V,R,
471,93,9,11,3,47,33,1018,['c'],1,left,['2'],5,193,[0.09417911],100,47,medium,plus,dotcolour,beta,,,33,21,V,R,
472,94,10,11,3,36,44,500,['n'],1,right,['2'],5,166,[-0.04829878],99,44,hard,plus,dotcolour,beta,,,33,21,V,R,
473,95,11,11,3,53,27,600,['c'],1,left,['2'],5,225,[0.09259768],100,53,easy,plus,dotcolour,beta,,,33,21,V,R,
474,96,12,11,3,44,36,549,['n'],0,left,['2'],5,219,[-0.09640232],100,44,hard,plus,dotcolour,beta,,,33,21,V,R,
475,97,13,11,3,47,33,884,['c'],1,left,['2'],5,96,[0.05285129],100,47,medium,plus,dotcolour,beta,,,33,21,V,R,
476,98,14,11,3,47,33,767,['n'],0,left,['0'],1,1367,[0.08698111],38,47,medium,plus,dotcolour,beta,,,33,21,V,R,
477,99,15,11,3,36,44,1567,['c'],0,right,['2'],5,810,[-0.07877626],39,44,hard,plus,dotcolour,beta,,,33,21,V,R,
478,100,16,11,3,44,36,1401,['c'],1,left,['2'],5,91,[0.07749378],100,44,hard,plus,dotcolour,beta,,,33,21,V,R,
479,101,17,11,3,36,44,1268,['n'],1,right,['2'],5,253,[-0.03163486],96,44,hard,plus,dotcolour,beta,,,33,21,V,R,
480,102,18,11,3,33,47,732,['n'],1,right,['2'],5,152,[-0.11525995],100,47,medium,plus,dotcolour,beta,,,33,21,V,R,
481,103,19,11,3,27,53,699,['n'],1,right,['2'],5,158,[-0.08846968],100,53,easy,plus,dotcolour,beta,,,33,21,V,R,
482,104,20,11,3,36,44,516,['n'],1,right,['2'],5,229,[-0.06573233],99,44,hard,plus,dotcolour,beta,,,33,21,V,R,
483,105,21,11,3,33,47,817,['n'],1,right,['2'],5,164,[-0.06732702],100,47,medium,plus,dotcolour,beta,,,33,21,V,R,
484,106,22,11,3,44,36,582,['n'],0,left,['2'],5,160,[-0.11310029],100,44,hard,plus,dotcolour,beta,,,33,21,V,R,
485,107,23,11,3,27,53,551,['n'],1,right,['2'],5,188,[-0.10234305],100,53,easy,plus,dotcolour,beta,,,33,21,V,R,
486,108,24,11,3,44,36,767,['c'],1,left,['2'],5,40,[0.09468093],100,44,hard,plus,dotcolour,beta,,,33,21,V,R,
487,109,25,11,3,36,44,867,['n'],1,right,['2'],5,357,[-0.00283967],85,44,hard,plus,dotcolour,beta,,,33,21,V,R,
488,110,26,11,3,47,33,883,['c'],1,left,['2'],5,84,[0.06078612],100,47,medium,plus,dotcolour,beta,,,33,21,V,R,
489,111,27,11,3,53,27,1051,['c'],1,left,['2'],5,120,[0.06536498],100,53,easy,plus,dotcolour,beta,,,33,21,V,R,
490,112,28,11,3,27,53,650,['n'],1,right,['2'],5,187,[-0.13130383],100,53,easy,plus,dotcolour,beta,,,33,21,V,R,
491,113,29,11,3,44,36,666,['c'],1,left,['2'],5,58,[0.04470871],100,44,hard,plus,dotcolour,beta,,,33,21,V,R,
492,114,30,11,3,33,47,666,['n'],1,right,['2'],5,166,[-0.04107089],99,47,medium,plus,dotcolour,beta,,,33,21,V,R,
493,115,31,11,3,44,36,550,['c'],1,left,['2'],5,187,[0.06768716],99,44,hard,plus,dotcolour,beta,,,33,21,V,R,
494,116,32,11,3,27,53,567,['n'],1,right,['2'],5,190,[-0.18019754],100,53,easy,plus,dotcolour,beta,,,33,21,V,R,
495,117,33,11,3,27,53,467,['c'],0,right,['2'],5,45,[0.05133781],100,53,easy,plus,dotcolour,beta,,,33,21,V,R,
496,118,34,11,3,33,47,667,['n'],1,right,['2'],5,154,[-0.11367717],100,47,medium,plus,dotcolour,beta,,,33,21,V,R,
497,119,35,11,3,44,36,783,['c'],1,left,['2'],5,149,[0.05854042],100,44,hard,plus,dotcolour,beta,,,33,21,V,R,
498,120,36,11,3,53,27,867,['c'],1,left,['2'],5,54,[0.12914822],100,53,easy,plus,dotcolour,beta,,,33,21,V,R,
499,121,37,11,3,36,44,567,['n'],1,right,['2'],5,151,[-0.03154619],98,44,hard,plus,dotcolour,beta,,,33,21,V,R,
500,122,38,11,3,53,27,633,['c'],1,left,['2'],5,97,[0.08514926],100,53,easy,plus,dotcolour,beta,,,33,21,V,R,
501,123,39,11,3,47,33,800,['c'],1,left,['2'],5,87,[0.07518512],100,47,medium,plus,dotcolour,beta,,,33,21,V,R,
502,124,40,11,3,33,47,650,['n'],1,right,['2'],5,163,[-0.04158468],99,47,medium,plus,dotcolour,beta,,,33,21,V,R,
503,125,41,11,3,47,33,651,['c'],1,left,['2'],5,107,[0.08444814],100,47,medium,plus,dotcolour,beta,,,33,21,V,R,
504,0,0,12,4,53,27,584,['n'],0,left,['2'],5,161,[-0.06957252],65,53,easy,minus,dotcolour,beta,,,33,21,V,R,
505,1,1,12,4,27,53,517,['c'],0,right,['2'],5,47,[0.03076893],11,53,easy,minus,dotcolour,beta,,,33,21,V,R,
506,2,2,12,4,44,36,750,['c'],1,left,['2'],5,41,[0.07025623],79,44,hard,minus,dotcolour,beta,,,33,21,V,R,
507,3,3,12,4,27,53,434,['n'],1,right,['2'],5,127,[-0.0818166],79,53,easy,minus,dotcolour,beta,,,33,21,V,R,
508,4,4,12,4,27,53,517,['n'],1,right,['2'],5,118,[-0.06200753],58,53,easy,minus,dotcolour,beta,,,33,21,V,R,
509,5,5,12,4,27,53,534,['n'],1,right,['2'],5,158,[-0.03718609],30,53,easy,minus,dotcolour,beta,,,33,21,V,R,
510,6,6,12,4,36,44,416,['n'],1,right,['2'],5,168,[-0.1162556],93,44,hard,minus,dotcolour,beta,,,33,21,V,R,
511,7,7,12,4,33,47,550,['n'],1,right,['2'],5,156,[-0.07941453],75,47,medium,minus,dotcolour,beta,,,33,21,V,R,
512,8,8,12,4,53,27,1034,['c'],1,left,['2'],5,198,[0.08200904],74,53,easy,minus,dotcolour,beta,,,33,21,V,R,
513,9,9,12,4,53,27,533,['n'],0,left,['2'],5,170,[-0.07122127],66,53,easy,minus,dotcolour,beta,,,33,21,V,R,
514,10,10,12,4,44,36,1500,['c'],1,left,['2'],5,24,[0.04214801],17,44,hard,minus,dotcolour,beta,,,33,21,V,R,
515,11,11,12,4,44,36,1034,['c'],1,left,['2'],5,183,[0.05714777],52,44,hard,minus,dotcolour,beta,,,33,21,V,R,
516,12,12,12,4,44,36,600,['n'],0,left,['2'],5,193,[-0.01557079],16,44,hard,minus,dotcolour,beta,,,33,21,V,R,
517,13,13,12,4,36,44,834,['n'],1,right,['2'],5,306,[-0.0969864],79,44,hard,minus,dotcolour,beta,,,33,21,V,R,
518,14,14,12,4,36,44,983,['c'],0,right,['2'],5,254,[0.05685671],51,44,hard,minus,dotcolour,beta,,,33,21,V,R,
519,15,15,12,4,33,47,734,['c'],0,right,['2'],5,161,[0.05642524],51,47,medium,minus,dotcolour,beta,,,33,21,V,R,
520,16,16,12,4,44,36,900,['n'],0,left,['2'],5,455,[0.03353961],8,44,hard,minus,dotcolour,beta,,,33,21,V,R,
521,17,17,12,4,53,27,1550,['c'],1,left,['2'],5,536,[0.09779105],74,53,easy,minus,dotcolour,beta,,,33,21,V,R,
522,18,18,12,4,44,36,734,['c'],1,left,['2'],5,302,[0.07127733],63,44,hard,minus,dotcolour,beta,,,33,21,V,R,
523,19,19,12,4,53,27,984,['n'],0,left,['2'],5,364,[-0.09148809],74,53,easy,minus,dotcolour,beta,,,33,21,V,R,
524,20,20,12,4,47,33,816,['c'],1,left,['2'],5,239,[0.05985047],54,47,medium,minus,dotcolour,beta,,,33,21,V,R,
525,21,21,12,4,27,53,634,['n'],1,right,['2'],5,405,[-0.12519986],88,53,easy,minus,dotcolour,beta,,,33,21,V,R,
526,22,22,12,4,33,47,684,['n'],1,right,['2'],5,202,[-0.07663429],70,47,medium,minus,dotcolour,beta,,,33,21,V,R,
527,23,23,12,4,27,53,300,['c'],0,right,['2'],5,200,[0.10055211],86,53,easy,minus,dotcolour,beta,,,33,21,V,R,
528,24,24,12,4,47,33,317,['n'],0,left,['2'],5,237,[-0.00671691],14,47,medium,minus,dotcolour,beta,,,33,21,V,R,
529,25,25,12,4,47,33,1217,['n'],0,left,['2'],5,468,[-0.16780517],95,47,medium,minus,dotcolour,beta,,,33,21,V,R,
530,26,26,12,4,36,44,1817,['c'],0,right,['2'],5,618,[-0.13835743],1,44,hard,minus,dotcolour,beta,,,33,21,V,R,
531,27,27,12,4,27,53,317,['n'],1,right,['2'],5,246,[-0.12799371],93,53,easy,minus,dotcolour,beta,,,33,21,V,R,
532,28,28,12,4,47,33,2968,['c'],1,left,['2'],5,310,[0.07848111],68,47,medium,minus,dotcolour,beta,,,33,21,V,R,
533,29,29,12,4,47,33,717,['n'],0,left,['2'],5,222,[-0.01493877],17,47,medium,minus,dotcolour,beta,,,33,21,V,R,
534,30,30,12,4,47,33,867,['c'],1,left,['2'],5,188,[0.09432126],83,47,medium,minus,dotcolour,beta,,,33,21,V,R,
535,31,31,12,4,33,47,567,['n'],1,right,['2'],5,151,[-0.07604443],72,47,medium,minus,dotcolour,beta,,,33,21,V,R,
536,32,32,12,4,33,47,717,['c'],0,right,['2'],5,110,[0.05636832],51,47,medium,minus,dotcolour,beta,,,33,21,V,R,
537,33,33,12,4,36,44,518,['n'],1,right,['2'],5,134,[-0.09745112],89,44,hard,minus,dotcolour,beta,,,33,21,V,R,
538,34,34,12,4,44,36,517,['n'],0,left,['2'],5,125,[-0.08076443],78,44,hard,minus,dotcolour,beta,,,33,21,V,R,
539,35,35,12,4,53,27,833,['c'],1,left,['2'],5,144,[0.06532211],61,53,easy,minus,dotcolour,beta,,,33,21,V,R,
540,36,36,12,4,36,44,483,['n'],1,right,['2'],5,160,[-0.07120558],67,44,hard,minus,dotcolour,beta,,,33,21,V,R,
541,37,37,12,4,33,47,617,['n'],1,right,['2'],5,154,[-0.09272608],85,47,medium,minus,dotcolour,beta,,,33,21,V,R,
542,38,38,12,4,47,33,817,['c'],1,left,['2'],5,108,[-0.04062858],1,47,medium,minus,dotcolour,beta,,,33,21,V,R,
543,39,39,12,4,36,44,632,['n'],1,right,['2'],5,160,[-0.06916107],65,44,hard,minus,dotcolour,beta,,,33,21,V,R,
544,40,40,12,4,33,47,516,['n'],1,right,['2'],5,135,[-0.11582821],95,47,medium,minus,dotcolour,beta,,,33,21,V,R,
545,41,41,12,4,53,27,485,['n'],0,left,['2'],5,166,[-0.05780655],52,53,easy,minus,dotcolour,beta,,,33,21,V,R,
546,42,0,13,4,47,33,351,['n'],0,left,['3'],4,203,[-0.04911494],44,47,medium,minus,dotcolour,beta,,,33,21,V,R,
547,43,1,13,4,53,27,767,['n'],0,left,['2'],5,173,[-0.07067742],66,53,easy,minus,dotcolour,beta,,,33,21,V,R,
548,44,2,13,4,47,33,782,['n'],0,left,['2'],5,152,[-0.04033996],33,47,medium,minus,dotcolour,beta,,,33,21,V,R,
549,45,3,13,4,33,47,300,['c'],0,right,['2'],5,127,[0.05275462],46,47,medium,minus,dotcolour,beta,,,33,21,V,R,
550,46,4,13,4,53,27,800,['c'],1,left,['2'],5,171,[0.08809838],80,53,easy,minus,dotcolour,beta,,,33,21,V,R,
551,47,5,13,4,33,47,467,['n'],1,right,['2'],5,147,[-0.09859552],88,47,medium,minus,dotcolour,beta,,,33,21,V,R,
552,48,6,13,4,27,53,484,['c'],0,right,['2'],5,123,[0.05704228],52,53,easy,minus,dotcolour,beta,,,33,21,V,R,
553,49,7,13,4,36,44,400,['n'],1,right,['2'],5,159,[-0.09678692],87,44,hard,minus,dotcolour,beta,,,33,21,V,R,
554,50,8,13,4,44,36,384,['n'],0,left,['2'],5,163,[-0.09741284],87,44,hard,minus,dotcolour,beta,,,33,21,V,R,
555,51,9,13,4,27,53,600,['c'],0,right,['2'],5,165,[0.11848693],94,53,easy,minus,dotcolour,beta,,,33,21,V,R,
556,52,10,13,4,36,44,400,['n'],1,right,['2'],5,176,[-0.1071325],90,44,hard,minus,dotcolour,beta,,,33,21,V,R,
557,53,11,13,4,44,36,734,['n'],0,left,['2'],5,172,[-0.04215672],36,44,hard,minus,dotcolour,beta,,,33,21,V,R,
558,54,12,13,4,27,53,666,['c'],0,right,['2'],5,140,[0.06005743],55,53,easy,minus,dotcolour,beta,,,33,21,V,R,
559,55,13,13,4,33,47,567,['n'],1,right,['2'],5,185,[-0.15718086],99,47,medium,minus,dotcolour,beta,,,33,21,V,R,
560,56,14,13,4,27,53,517,['n'],1,right,['2'],5,166,[-0.13426026],97,53,easy,minus,dotcolour,beta,,,33,21,V,R,
561,57,15,13,4,53,27,800,['c'],1,left,['2'],5,105,[0.07205819],71,53,easy,minus,dotcolour,beta,,,33,21,V,R,
562,58,16,13,4,44,36,551,['n'],0,left,['2'],5,144,[-0.06614777],62,44,hard,minus,dotcolour,beta,,,33,21,V,R,
563,59,17,13,4,53,27,1216,['n'],0,left,['2'],5,171,[-0.09418055],84,53,easy,minus,dotcolour,beta,,,33,21,V,R,
564,60,18,13,4,33,47,583,['c'],0,right,['2'],5,86,[0.03831748],26,47,medium,minus,dotcolour,beta,,,33,21,V,R,
565,61,19,13,4,33,47,717,['c'],0,right,['2'],5,152,[0.03061487],24,47,medium,minus,dotcolour,beta,,,33,21,V,R,
566,62,20,13,4,44,36,418,['n'],0,left,['2'],5,130,[-0.07613509],74,44,hard,minus,dotcolour,beta,,,33,21,V,R,
567,63,21,13,4,47,33,717,['n'],0,left,['2'],5,145,[-0.10311186],90,47,medium,minus,dotcolour,beta,,,33,21,V,R,
568,64,22,13,4,36,44,533,['c'],0,right,['2'],5,135,[0.10282814],91,44,hard,minus,dotcolour,beta,,,33,21,V,R,
569,65,23,13,4,47,33,533,['c'],1,left,['2'],5,135,[0.07545495],73,47,medium,minus,dotcolour,beta,,,33,21,V,R,
570,66,24,13,4,53,27,534,['c'],1,left,['2'],5,93,[0.07890619],80,53,easy,minus,dotcolour,beta,,,33,21,V,R,
571,67,25,13,4,36,44,618,['n'],1,right,['2'],5,121,[-0.04059123],32,44,hard,minus,dotcolour,beta,,,33,21,V,R,
572,68,26,13,4,27,53,534,['c'],0,right,['2'],5,145,[0.04430638],37,53,easy,minus,dotcolour,beta,,,33,21,V,R,
573,69,27,13,4,27,53,633,['n'],1,right,['2'],5,187,[-0.09029922],81,53,easy,minus,dotcolour,beta,,,33,21,V,R,
574,70,28,13,4,47,33,550,['c'],1,left,['2'],5,375,[0.06260299],55,47,medium,minus,dotcolour,beta,,,33,21,V,R,
575,71,29,13,4,44,36,516,['n'],0,left,['2'],5,236,[-0.10864809],88,44,hard,minus,dotcolour,beta,,,33,21,V,R,
576,72,30,13,4,36,44,751,['n'],1,right,['2'],5,174,[-0.18239711],100,44,hard,minus,dotcolour,beta,,,33,21,V,R,
577,73,31,13,4,53,27,566,['c'],1,left,['2'],5,106,[0.08287745],82,53,easy,minus,dotcolour,beta,,,33,21,V,R,
578,74,32,13,4,47,33,416,['n'],0,left,['2'],5,222,[-0.12944455],94,47,medium,minus,dotcolour,beta,,,33,21,V,R,
579,75,33,13,4,44,36,467,['c'],1,left,['2'],5,132,[0.12206893],96,44,hard,minus,dotcolour,beta,,,33,21,V,R,
580,76,34,13,4,36,44,368,['n'],1,right,['2'],5,121,[-0.10323759],92,44,hard,minus,dotcolour,beta,,,33,21,V,R,
581,77,35,13,4,47,33,382,['c'],1,left,['2'],5,62,[0.10290827],97,47,medium,minus,dotcolour,beta,,,33,21,V,R,
582,78,36,13,4,33,47,400,['n'],1,right,['2'],5,181,[-0.06372445],59,47,medium,minus,dotcolour,beta,,,33,21,V,R,
583,79,37,13,4,53,27,616,['c'],1,left,['2'],5,78,[0.10114856],95,53,easy,minus,dotcolour,beta,,,33,21,V,R,
584,80,38,13,4,33,47,433,['n'],1,right,['2'],5,203,[-0.06085371],55,47,medium,minus,dotcolour,beta,,,33,21,V,R,
585,81,39,13,4,36,44,951,['c'],0,right,['2'],5,1046,[0.05837919],51,44,hard,minus,dotcolour,beta,,,33,21,V,R,
586,82,40,13,4,44,36,567,['n'],0,left,['2'],5,143,[-0.09802202],88,44,hard,minus,dotcolour,beta,,,33,21,V,R,
587,83,41,13,4,27,53,550,['c'],0,right,['2'],5,124,[0.09728762],89,53,easy,minus,dotcolour,beta,,,33,21,V,R,
588,84,0,14,4,53,27,368,['n'],0,left,['2'],5,142,[-0.03157359],24,53,easy,minus,dotcolour,beta,,,33,21,V,R,
589,85,1,14,4,36,44,1350,['c'],0,right,['2'],5,219,[0.06486299],59,44,hard,minus,dotcolour,beta,,,33,21,V,R,
590,86,2,14,4,44,36,450,['n'],0,left,['2'],5,162,[-0.12191105],95,44,hard,minus,dotcolour,beta,,,33,21,V,R,
591,87,3,14,4,33,47,501,['n'],1,right,['2'],5,161,[-0.07425485],70,47,medium,minus,dotcolour,beta,,,33,21,V,R,
592,88,4,14,4,27,53,533,['n'],1,right,['2'],5,126,[-0.01514664],11,53,easy,minus,dotcolour,beta,,,33,21,V,R,
593,89,5,14,4,36,44,483,['n'],1,right,['2'],5,111,[-0.06849796],67,44,hard,minus,dotcolour,beta,,,33,21,V,R,
594,90,6,14,4,27,53,449,['n'],1,right,['2'],5,178,[-0.07203507],67,53,easy,minus,dotcolour,beta,,,33,21,V,R,
595,91,7,14,4,47,33,433,['n'],0,left,['1'],6,210,[-0.08067027],73,47,medium,minus,dotcolour,beta,,,33,21,V,R,
596,92,8,14,4,53,27,449,['n'],0,left,['1'],6,177,[-0.03102592],26,53,easy,minus,dotcolour,beta,,,33,21,V,R,
597,93,9,14,4,47,33,766,['c'],1,left,['3'],4,213,[0.15157496],98,47,medium,minus,dotcolour,beta,,,33,21,V,R,
598,94,10,14,4,53,27,483,['c'],1,left,['3'],4,139,[0.11758756],95,53,easy,minus,dotcolour,beta,,,33,21,V,R,
599,95,11,14,4,47,33,332,['n'],0,left,['3'],4,129,[0.02212629],2,47,medium,minus,dotcolour,beta,,,33,21,V,R,
600,96,12,14,4,47,33,283,['c'],1,left,['3'],4,114,[0.10518442],93,47,medium,minus,dotcolour,beta,,,33,21,V,R,
601,97,13,14,4,44,36,127,['c'],1,left,['3'],4,15,[0.08955546],99,44,hard,minus,dotcolour,beta,,,33,21,V,R,
602,98,14,14,4,47,33,484,['c'],1,left,['3'],4,51,[0.08622302],92,47,medium,minus,dotcolour,beta,,,33,21,V,R,
603,99,15,14,4,33,47,250,['n'],1,right,['3'],4,112,[-0.10272507],93,47,medium,minus,dotcolour,beta,,,33,21,V,R,
604,100,16,14,4,27,53,1034,['n'],1,right,['3'],4,181,[-0.02934794],25,53,easy,minus,dotcolour,beta,,,33,21,V,R,
605,101,17,14,4,53,27,417,['c'],1,left,['3'],4,93,[0.04169874],31,53,easy,minus,dotcolour,beta,,,33,21,V,R,
606,102,18,14,4,33,47,284,['n'],1,right,['3'],4,175,[-0.03224035],27,47,medium,minus,dotcolour,beta,,,33,21,V,R,
607,103,19,14,4,53,27,317,['c'],1,left,['3'],4,45,[0.10168261],98,53,easy,minus,dotcolour,beta,,,33,21,V,R,
608,104,20,14,4,33,47,350,['n'],1,right,['3'],4,134,[-0.02260444],17,47,medium,minus,dotcolour,beta,,,33,21,V,R,
609,105,21,14,4,36,44,401,['c'],0,right,['3'],4,50,[0.03523488],16,44,hard,minus,dotcolour,beta,,,33,21,V,R,
610,106,22,14,4,53,27,634,['c'],1,left,['3'],4,104,[0.11394968],96,53,easy,minus,dotcolour,beta,,,33,21,V,R,
611,107,23,14,4,47,33,916,['c'],1,left,['3'],4,104,[0.0773992],77,47,medium,minus,dotcolour,beta,,,33,21,V,R,
612,108,24,14,4,33,47,883,['c'],0,right,['3'],4,106,[0.07681962],76,47,medium,minus,dotcolour,beta,,,33,21,V,R,
613,109,25,14,4,27,53,334,['n'],1,right,['3'],4,146,[-0.15718818],99,53,easy,minus,dotcolour,beta,,,33,21,V,R,
614,110,26,14,4,44,36,366,['c'],1,left,['3'],4,231,[0.02472035],24,44,hard,minus,dotcolour,beta,,,33,21,V,R,
615,111,27,14,4,44,36,300,['n'],0,left,['3'],4,154,[-0.03806577],31,44,hard,minus,dotcolour,beta,,,33,21,V,R,
616,112,28,14,4,27,53,700,['n'],1,right,['3'],4,162,[-0.11001966],92,53,easy,minus,dotcolour,beta,,,33,21,V,R,
617,113,29,14,4,53,27,467,['c'],1,left,['3'],4,90,[0.0676353],67,53,easy,minus,dotcolour,beta,,,33,21,V,R,
618,114,30,14,4,47,33,449,['n'],0,left,['3'],4,197,[0.0212607],4,47,medium,minus,dotcolour,beta,,,33,21,V,R,
619,115,31,14,4,33,47,834,['c'],0,right,['3'],4,149,[0.09610777],87,47,medium,minus,dotcolour,beta,,,33,21,V,R,
620,116,32,14,4,44,36,784,['c'],1,left,['3'],4,113,[0.10407468],93,44,hard,minus,dotcolour,beta,,,33,21,V,R,
621,117,33,14,4,27,53,483,['n'],1,right,['3'],4,154,[-0.09933633],88,53,easy,minus,dotcolour,beta,,,33,21,V,R,
622,118,34,14,4,36,44,516,['n'],1,right,['3'],4,185,[-0.11368617],92,44,hard,minus,dotcolour,beta,,,33,21,V,R,
623,119,35,14,4,36,44,750,['n'],1,right,['3'],4,198,[-0.05477425],49,44,hard,minus,dotcolour,beta,,,33,21,V,R,
624,120,36,14,4,36,44,567,['c'],0,right,['3'],4,24,[0.0816822],95,44,hard,minus,dotcolour,beta,,,33,21,V,R,
625,121,37,14,4,33,47,567,['n'],1,right,['3'],4,162,[-0.08066416],75,47,medium,minus,dotcolour,beta,,,33,21,V,R,
626,122,38,14,4,27,53,517,['n'],1,right,['2'],5,256,[-0.17464516],99,53,easy,minus,dotcolour,beta,,,33,21,V,R,
627,123,39,14,4,44,36,951,['c'],1,left,['2'],5,129,[0.10367904],92,44,hard,minus,dotcolour,beta,,,33,21,V,R,
628,124,40,14,4,44,36,250,['n'],0,left,['2'],5,130,[-0.01980002],14,44,hard,minus,dotcolour,beta,,,33,21,V,R,
629,125,41,14,4,36,44,334,['c'],0,right,['2'],5,97,[0.08801327],87,44,hard,minus,dotcolour,beta,,,33,21,V,R,
630,0,0,15,5,27,53,334,['n'],1,right,['2'],5,105,[-0.10884455],100,53,easy,plus,dotcolour,beta,,,33,21,V,R,
631,1,1,15,5,44,36,383,['n'],0,left,['2'],5,103,[-0.07316643],100,44,hard,plus,dotcolour,beta,,,33,21,V,R,
632,2,2,15,5,44,36,400,['n'],0,left,['2'],5,172,[-0.03655808],98,44,hard,plus,dotcolour,beta,,,33,21,V,R,
633,3,3,15,5,44,36,285,['n'],0,left,['2'],5,132,[-0.08250596],100,44,hard,plus,dotcolour,beta,,,33,21,V,R,
634,4,4,15,5,44,36,516,['c'],1,left,['2'],5,91,[0.07948404],100,44,hard,plus,dotcolour,beta,,,33,21,V,R,
635,5,5,15,5,33,47,434,['n'],1,right,['2'],5,135,[-0.11924764],100,47,medium,plus,dotcolour,beta,,,33,21,V,R,
636,6,6,15,5,44,36,533,['c'],1,left,['2'],5,103,[0.08314906],100,44,hard,plus,dotcolour,beta,,,33,21,V,R,
637,7,7,15,5,53,27,334,['n'],0,left,['2'],5,150,[0.01701527],86,53,easy,plus,dotcolour,beta,,,33,21,V,R,
638,8,8,15,5,27,53,384,['c'],0,right,['2'],5,90,[0.0639],100,53,easy,plus,dotcolour,beta,,,33,21,V,R,
639,9,9,15,5,36,44,400,['n'],1,right,['2'],5,151,[-0.05755846],99,44,hard,plus,dotcolour,beta,,,33,21,V,R,
640,10,10,15,5,27,53,1000,['n'],1,right,['2'],5,131,[-0.08201006],100,53,easy,plus,dotcolour,beta,,,33,21,V,R,
641,11,11,15,5,27,53,1133,['n'],1,right,['2'],5,954,[-0.17541385],99,53,easy,plus,dotcolour,beta,,,33,21,V,R,
642,12,12,15,5,36,44,967,['n'],1,right,['2'],5,238,[-0.15690107],100,44,hard,plus,dotcolour,beta,,,33,21,V,R,
643,13,13,15,5,33,47,650,['n'],1,right,['2'],5,196,[-0.09734856],100,47,medium,plus,dotcolour,beta,,,33,21,V,R,
644,14,14,15,5,27,53,650,['n'],1,right,['2'],5,171,[-0.19491402],100,53,easy,plus,dotcolour,beta,,,33,21,V,R,
645,15,15,15,5,47,33,751,['c'],1,left,['2'],5,327,[0.11510998],100,47,medium,plus,dotcolour,beta,,,33,21,V,R,
646,16,16,15,5,53,27,483,['n'],0,left,['2'],5,160,[-0.05292915],99,53,easy,plus,dotcolour,beta,,,33,21,V,R,
647,17,17,15,5,33,47,434,['n'],1,right,['2'],5,169,[-0.04697996],99,47,medium,plus,dotcolour,beta,,,33,21,V,R,
648,18,18,15,5,33,47,449,['n'],1,right,['2'],5,146,[-0.04508804],99,47,medium,plus,dotcolour,beta,,,33,21,V,R,
649,19,19,15,5,36,44,466,['c'],0,right,['2'],5,99,[0.07452969],100,44,hard,plus,dotcolour,beta,,,33,21,V,R,
650,20,20,15,5,36,44,400,['n'],1,right,['2'],5,104,[-0.12673068],100,44,hard,plus,dotcolour,beta,,,33,21,V,R,
651,21,21,15,5,47,33,301,['c'],1,left,['2'],5,2097,[0.43088732],100,47,medium,plus,dotcolour,beta,,,33,21,V,R,
652,22,22,15,5,47,33,334,['n'],0,left,['2'],5,121,[-0.04966884],100,47,medium,plus,dotcolour,beta,,,33,21,V,R,
653,23,23,15,5,44,36,190,['c'],1,left,['2'],5,54,[0.07277772],100,44,hard,plus,dotcolour,beta,,,33,21,V,R,
654,24,24,15,5,53,27,217,['n'],0,left,['2'],5,109,[-0.04238218],100,53,easy,plus,dotcolour,beta,,,33,21,V,R,
655,25,25,15,5,47,33,867,['c'],1,left,['2'],5,87,[0.09917106],100,47,medium,plus,dotcolour,beta,,,33,21,V,R,
656,26,26,15,5,53,27,483,['c'],1,left,['2'],5,17,[0.10639184],100,53,easy,plus,dotcolour,beta,,,33,21,V,R,
657,27,27,15,5,36,44,501,['n'],1,right,['2'],5,118,[-0.03153823],99,44,hard,plus,dotcolour,beta,,,33,21,V,R,
658,28,28,15,5,47,33,450,['c'],1,left,['2'],5,1033,[0.09858638],94,47,medium,plus,dotcolour,beta,,,33,21,V,R,
659,29,29,15,5,36,44,367,['n'],1,right,['2'],5,146,[-0.05788667],100,44,hard,plus,dotcolour,beta,,,33,21,V,R,
660,30,30,15,5,33,47,467,['c'],0,right,['2'],5,58,[0.0378333],100,47,medium,plus,dotcolour,beta,,,33,21,V,R,
661,31,31,15,5,27,53,384,['n'],1,right,['2'],5,106,[-0.08190909],100,53,easy,plus,dotcolour,beta,,,33,21,V,R,
662,32,32,15,5,53,27,317,['c'],1,left,['2'],5,50,[0.08554573],100,53,easy,plus,dotcolour,beta,,,33,21,V,R,
663,33,33,15,5,53,27,684,['c'],1,left,['2'],5,38,[0.05066438],100,53,easy,plus,dotcolour,beta,,,33,21,V,R,
664,34,34,15,5,33,47,583,['n'],1,right,['2'],5,143,[-0.06779432],100,47,medium,plus,dotcolour,beta,,,33,21,V,R,
665,35,35,15,5,47,33,883,['c'],1,left,['2'],5,87,[0.07131817],100,47,medium,plus,dotcolour,beta,,,33,21,V,R,
666,36,36,15,5,47,33,618,['c'],1,left,['2'],5,124,[0.15096431],100,47,medium,plus,dotcolour,beta,,,33,21,V,R,
667,37,37,15,5,44,36,583,['c'],1,left,['2'],5,137,[0.13371678],100,44,hard,plus,dotcolour,beta,,,33,21,V,R,
668,38,38,15,5,53,27,500,['c'],1,left,['2'],5,105,[0.06509579],100,53,easy,plus,dotcolour,beta,,,33,21,V,R,
669,39,39,15,5,27,53,583,['n'],1,right,['2'],5,231,[-0.11072114],100,53,easy,plus,dotcolour,beta,,,33,21,V,R,
670,40,40,15,5,36,44,517,['c'],0,right,['2'],5,146,[0.10289247],100,44,hard,plus,dotcolour,beta,,,33,21,V,R,
671,41,41,15,5,33,47,384,['n'],1,right,['2'],5,87,[-0.10720355],100,47,medium,plus,dotcolour,beta,,,33,21,V,R,
672,42,0,16,5,53,27,384,['n'],0,left,['2'],5,114,[-0.00986386],97,53,easy,plus,dotcolour,beta,,,33,21,V,R,
673,43,1,16,5,44,36,267,['n'],0,left,['2'],5,148,[-0.14598793],100,44,hard,plus,dotcolour,beta,,,33,21,V,R,
674,44,2,16,5,27,53,1184,['c'],0,right,['2'],5,73,[0.0441265],100,53,easy,plus,dotcolour,beta,,,33,21,V,R,
675,45,3,16,5,27,53,317,['n'],1,right,['2'],5,138,[-0.08528923],100,53,easy,plus,dotcolour,beta,,,33,21,V,R,
676,46,4,16,5,36,44,632,['n'],1,right,['2'],5,125,[-0.11960733],100,44,hard,plus,dotcolour,beta,,,33,21,V,R,
677,47,5,16,5,47,33,534,['n'],0,left,['2'],5,180,[-0.10792052],100,47,medium,plus,dotcolour,beta,,,33,21,V,R,
678,48,6,16,5,27,53,600,['c'],0,right,['2'],5,62,[0.09377035],100,53,easy,plus,dotcolour,beta,,,33,21,V,R,
679,49,7,16,5,44,36,433,['n'],0,left,['2'],5,179,[-0.12188874],100,44,hard,plus,dotcolour,beta,,,33,21,V,R,
680,50,8,16,5,47,33,1016,['c'],1,left,['2'],5,148,[0.10625486],100,47,medium,plus,dotcolour,beta,,,33,21,V,R,
681,51,9,16,5,44,36,417,['n'],0,left,['2'],5,127,[-0.05445467],100,44,hard,plus,dotcolour,beta,,,33,21,V,R,
682,52,10,16,5,47,33,334,['c'],1,left,['2'],5,158,[0.12374516],100,47,medium,plus,dotcolour,beta,,,33,21,V,R,
683,53,11,16,5,33,47,467,['n'],1,right,['2'],5,134,[-0.04605812],99,47,medium,plus,dotcolour,beta,,,33,21,V,R,
684,54,12,16,5,47,33,466,['c'],1,left,['2'],5,96,[0.07712786],100,47,medium,plus,dotcolour,beta,,,33,21,V,R,
685,55,13,16,5,44,36,483,['n'],0,left,['2'],5,145,[-0.03676765],99,44,hard,plus,dotcolour,beta,,,33,21,V,R,
686,56,14,16,5,53,27,517,['c'],1,left,['2'],5,32,[0.0666378],100,53,easy,plus,dotcolour,beta,,,33,21,V,R,
687,57,15,16,5,36,44,467,['n'],1,right,['2'],5,77,[-0.02967695],100,44,hard,plus,dotcolour,beta,,,33,21,V,R,
688,58,16,16,5,36,44,283,['n'],1,right,['2'],5,72,[-0.04628417],100,44,hard,plus,dotcolour,beta,,,33,21,V,R,
689,59,17,16,5,44,36,300,['c'],1,left,['2'],5,987,[0.31719967],100,44,hard,plus,dotcolour,beta,,,33,21,V,R,
690,60,18,16,5,47,33,583,['c'],1,left,['2'],5,973,[0.03066415],83,47,medium,plus,dotcolour,beta,,,33,21,V,R,
691,61,19,16,5,44,36,800,['n'],0,left,['2'],5,215,[-0.08463237],100,44,hard,plus,dotcolour,beta,,,33,21,V,R,
692,62,20,16,5,27,53,566,['c'],0,right,['2'],5,105,[0.07610053],100,53,easy,plus,dotcolour,beta,,,33,21,V,R,
693,63,21,16,5,36,44,383,['n'],1,right,['2'],5,174,[-0.03289114],98,44,hard,plus,dotcolour,beta,,,33,21,V,R,
694,64,22,16,5,33,47,600,['c'],0,right,['2'],5,96,[0.0670528],100,47,medium,plus,dotcolour,beta,,,33,21,V,R,
695,65,23,16,5,27,53,300,['n'],1,right,['2'],5,106,[-0.11803553],100,53,easy,plus,dotcolour,beta,,,33,21,V,R,
696,66,24,16,5,47,33,451,['c'],1,left,['2'],5,45,[0.06262557],100,47,medium,plus,dotcolour,beta,,,33,21,V,R,
697,67,25,16,5,44,36,333,['n'],0,left,['2'],5,111,[-0.06794432],100,44,hard,plus,dotcolour,beta,,,33,21,V,R,
698,68,26,16,5,36,44,550,['n'],1,right,['2'],5,174,[-0.1011535],100,44,hard,plus,dotcolour,beta,,,33,21,V,R,
699,69,27,16,5,33,47,750,['n'],1,right,['2'],5,162,[-0.0976629],100,47,medium,plus,dotcolour,beta,,,33,21,V,R,
700,70,28,16,5,53,27,500,['c'],1,left,['2'],5,105,[0.10636048],100,53,easy,plus,dotcolour,beta,,,33,21,V,R,
701,71,29,16,5,53,27,550,['n'],0,left,['2'],5,256,[-0.05875313],98,53,easy,plus,dotcolour,beta,,,33,21,V,R,
702,72,30,16,5,27,53,416,['n'],1,right,['2'],5,166,[-0.08387595],100,53,easy,plus,dotcolour,beta,,,33,21,V,R,
703,73,31,16,5,33,47,516,['c'],0,right,['2'],5,108,[0.07320822],100,47,medium,plus,dotcolour,beta,,,33,21,V,R,
704,74,32,16,5,53,27,650,['c'],1,left,['2'],5,103,[0.09194876],100,53,easy,plus,dotcolour,beta,,,33,21,V,R,
705,75,33,16,5,33,47,450,['n'],1,right,['2'],5,162,[-0.10557889],100,47,medium,plus,dotcolour,beta,,,33,21,V,R,
706,76,34,16,5,53,27,567,['c'],1,left,['2'],5,94,[0.07576651],100,53,easy,plus,dotcolour,beta,,,33,21,V,R,
707,77,35,16,5,36,44,567,['c'],0,right,['2'],5,53,[0.10479276],100,44,hard,plus,dotcolour,beta,,,33,21,V,R,
708,78,36,16,5,47,33,300,['n'],0,left,['2'],5,161,[0.02268047],81,47,medium,plus,dotcolour,beta,,,33,21,V,R,
709,79,37,16,5,53,27,483,['c'],1,left,['2'],5,79,[0.07271327],100,53,easy,plus,dotcolour,beta,,,33,21,V,R,
710,80,38,16,5,27,53,450,['n'],1,right,['2'],5,107,[-0.09822868],100,53,easy,plus,dotcolour,beta,,,33,21,V,R,
711,81,39,16,5,33,47,733,['c'],0,right,['2'],5,123,[0.0603949],100,47,medium,plus,dotcolour,beta,,,33,21,V,R,
712,82,40,16,5,33,47,600,['n'],1,right,['2'],5,255,[-0.05201772],98,47,medium,plus,dotcolour,beta,,,33,21,V,R,
713,83,41,16,5,36,44,650,['n'],1,right,['2'],5,229,[-0.11857095],100,44,hard,plus,dotcolour,beta,,,33,21,V,R,
714,84,0,17,5,44,36,317,['n'],0,left,['2'],5,128,[-0.0534626],100,44,hard,plus,dotcolour,beta,,,33,21,V,R,
715,85,1,17,5,36,44,1050,['n'],1,right,['2'],5,162,[-0.12942733],100,44,hard,plus,dotcolour,beta,,,33,21,V,R,
716,86,2,17,5,36,44,316,['n'],1,right,['2'],5,160,[-0.04134853],99,44,hard,plus,dotcolour,beta,,,33,21,V,R,
717,87,3,17,5,27,53,517,['c'],0,right,"['3', '2']",4,134,[0.04264945],99,53,easy,plus,dotcolour,beta,,,33,21,V,R,
718,88,4,17,5,47,33,301,['n'],0,left,['2'],5,158,[-0.07848877],100,47,medium,plus,dotcolour,beta,,,33,21,V,R,
719,89,5,17,5,53,27,683,['c'],1,left,['2'],5,142,[0.03413608],99,53,easy,plus,dotcolour,beta,,,33,21,V,R,
720,90,6,17,5,36,44,700,['c'],0,right,['2'],5,69,[0.04859862],100,44,hard,plus,dotcolour,beta,,,33,21,V,R,
721,91,7,17,5,47,33,450,['n'],0,left,['2'],5,201,[-0.05535011],99,47,medium,plus,dotcolour,beta,,,33,21,V,R,
722,92,8,17,5,27,53,983,['n'],1,right,['2'],5,187,[-0.11405709],100,53,easy,plus,dotcolour,beta,,,33,21,V,R,
723,93,9,17,5,33,47,767,['c'],0,right,['2'],5,95,[0.06171507],100,47,medium,plus,dotcolour,beta,,,33,21,V,R,
724,94,10,17,5,47,33,717,['n'],0,left,['2'],5,159,[-0.06050157],99,47,medium,plus,dotcolour,beta,,,33,21,V,R,
725,95,11,17,5,47,33,483,['c'],1,left,['2'],5,79,[0.108147],100,47,medium,plus,dotcolour,beta,,,33,21,V,R,
726,96,12,17,5,36,44,367,['n'],1,right,['2'],5,142,[-0.10314897],100,44,hard,plus,dotcolour,beta,,,33,21,V,R,
727,97,13,17,5,33,47,155,['c'],0,right,['2'],5,106,[0.02475313],99,47,medium,plus,dotcolour,beta,,,33,21,V,R,
728,98,14,17,5,27,53,249,['n'],1,right,['2'],5,157,[-0.09017681],100,53,easy,plus,dotcolour,beta,,,33,21,V,R,
729,99,15,17,5,47,33,783,['c'],1,left,['2'],5,64,[0.09417429],100,47,medium,plus,dotcolour,beta,,,33,21,V,R,
730,100,16,17,5,33,47,450,['n'],1,right,['2'],5,173,[-0.0752036],100,47,medium,plus,dotcolour,beta,,,33,21,V,R,
731,101,17,17,5,33,47,632,['c'],0,right,['2'],5,86,[0.0777519],100,47,medium,plus,dotcolour,beta,,,33,21,V,R,
732,102,18,17,5,53,27,833,['c'],1,left,['2'],5,50,[0.09036113],100,53,easy,plus,dotcolour,beta,,,33,21,V,R,
733,103,19,17,5,44,36,667,['c'],1,left,['2'],5,103,[0.03039475],99,44,hard,plus,dotcolour,beta,,,33,21,V,R,
734,104,20,17,5,36,44,633,['n'],1,right,['2'],5,203,[-0.08766047],100,44,hard,plus,dotcolour,beta,,,33,21,V,R,
735,105,21,17,5,44,36,467,['n'],0,left,['2'],5,138,[-0.04969705],99,44,hard,plus,dotcolour,beta,,,33,21,V,R,
736,106,22,17,5,47,33,550,['n'],0,left,['2'],5,144,[-0.10331264],100,47,medium,plus,dotcolour,beta,,,33,21,V,R,
737,107,23,17,5,27,53,416,['c'],0,right,['2'],5,10,[0.06982513],100,53,easy,plus,dotcolour,beta,,,33,21,V,R,
738,108,24,17,5,33,47,999,['n'],1,right,['2'],5,163,[-0.14573104],100,47,medium,plus,dotcolour,beta,,,33,21,V,R,
739,109,25,17,5,36,44,683,['n'],1,right,['2'],5,162,[-0.03814991],99,44,hard,plus,dotcolour,beta,,,33,21,V,R,
740,110,26,17,5,44,36,1116,['n'],0,left,['2'],5,168,[-0.08745413],100,44,hard,plus,dotcolour,beta,,,33,21,V,R,
741,111,27,17,5,44,36,502,['c'],1,left,['2'],5,159,[0.13593592],100,44,hard,plus,dotcolour,beta,,,33,21,V,R,
742,112,28,17,5,27,53,500,['c'],0,right,['2'],5,125,[0.02926139],99,53,easy,plus,dotcolour,beta,,,33,21,V,R,
743,113,29,17,5,36,44,715,['c'],0,right,['2'],5,93,[0.04669972],100,44,hard,plus,dotcolour,beta,,,33,21,V,R,
744,114,30,17,5,53,27,334,['n'],0,left,['2'],5,198,[-0.00723532],93,53,easy,plus,dotcolour,beta,,,33,21,V,R,
745,115,31,17,5,27,53,767,['n'],1,right,['2'],5,199,[-0.13461028],100,53,easy,plus,dotcolour,beta,,,33,21,V,R,
746,116,32,17,5,53,27,733,['c'],1,left,['2'],5,107,[0.07640199],100,53,easy,plus,dotcolour,beta,,,33,21,V,R,
747,117,33,17,5,53,27,867,['c'],1,left,['2'],5,85,[0.01260772],99,53,easy,plus,dotcolour,beta,,,33,21,V,R,
748,118,34,17,5,27,53,600,['n'],1,right,['2'],5,163,[-0.12042847],100,53,easy,plus,dotcolour,beta,,,33,21,V,R,
749,119,35,17,5,44,36,533,['n'],0,left,['2'],5,193,[-0.03462249],98,44,hard,plus,dotcolour,beta,,,33,21,V,R,
750,120,36,17,5,53,27,600,['c'],1,left,['2'],5,42,[0.08184778],100,53,easy,plus,dotcolour,beta,,,33,21,V,R,
751,121,37,17,5,53,27,684,['c'],1,left,['2'],5,158,[0.17201065],100,53,easy,plus,dotcolour,beta,,,33,21,V,R,
752,122,38,17,5,47,33,434,['n'],0,left,['2'],5,167,[-0.0532938],99,47,medium,plus,dotcolour,beta,,,33,21,V,R,
753,123,39,17,5,33,47,249,['c'],0,right,['2'],5,136,[0.08151415],100,47,medium,plus,dotcolour,beta,,,33,21,V,R,
754,124,40,17,5,44,36,1167,['n'],0,left,['2'],5,174,[-0.04599086],99,44,hard,plus,dotcolour,beta,,,33,21,V,R,
755,125,41,17,5,33,47,300,['n'],1,right,['2'],5,292,[-0.12477177],100,47,medium,plus,dotcolour,beta,,,33,21,V,R,
,,,,,,,,,,,,,,,,,,,,,1,2   ,33,21,V,R,
,,,,,,,,,,,,,,,,,,,,,2,['f'],33,21,V,R,
,,,,,,,,,,,,,,,,,,,,,3,['f'],33,21,V,R,
,,,,,,,,,,,,,,,,,,,,,5,[],33,21,V,R,
