trial,withinphasetrial,withinblocktrial,block,phase,dotsLeft,dotsRight,rt,resp,cor,cresp,conf_press,cj,RTconf,ev,fb,diff,difflevel,condition,task,manip,questionID,questionResp,sub,age,gender,handedness,
0,0,0,0,0,33,47,2033,['n'],1,right,['2'],2,2547,[-0.09907127],85,47,medium,plus,dotcolour,beta,,,66,19,V,R,
1,1,1,0,0,36,44,1949,['c'],0,right,['8'],4,2719,[-0.30850365],6,44,hard,plus,dotcolour,beta,,,66,19,V,R,
2,2,2,0,0,27,53,1199,['n'],1,right,['9'],5,1483,[-0.4473263],100,53,easy,plus,dotcolour,beta,,,66,19,V,R,
3,3,3,0,0,27,53,1147,['n'],1,right,['8'],4,1770,[-0.38303157],100,53,easy,plus,dotcolour,beta,,,66,19,V,R,
4,4,4,0,0,53,27,1281,['c'],1,left,['0'],6,1553,[0.26281095],99,53,easy,plus,dotcolour,beta,,,66,19,V,R,
5,5,5,0,0,36,44,5265,['n'],1,right,['3'],3,3425,[-0.20117335],92,44,hard,plus,dotcolour,beta,,,66,19,V,R,
6,6,6,0,0,47,33,1764,['n'],0,left,['8'],4,1778,[-0.22969269],98,47,medium,plus,dotcolour,beta,,,66,19,V,R,
7,7,7,0,0,53,27,1232,['c'],1,left,['0'],6,2090,[0.47418491],100,53,easy,plus,dotcolour,beta,,,66,19,V,R,
8,8,8,0,0,44,36,1564,['c'],1,left,['3'],3,2960,[0.3000123],98,44,hard,plus,dotcolour,beta,,,66,19,V,R,
9,9,9,0,0,33,47,849,['n'],1,right,['8'],4,984,[-0.17553607],99,47,medium,plus,dotcolour,beta,,,66,19,V,R,
10,10,10,0,0,27,53,851,['n'],1,right,['0'],6,640,[-0.18520959],100,53,easy,plus,dotcolour,beta,,,66,19,V,R,
11,11,11,0,0,53,27,2499,['c'],1,left,['0'],6,747,[0.29311781],100,53,easy,plus,dotcolour,beta,,,66,19,V,R,
12,12,12,0,0,33,47,798,['n'],1,right,['0'],6,534,[-0.10756566],98,47,medium,plus,dotcolour,beta,,,66,19,V,R,
13,13,13,0,0,44,36,1215,['c'],1,left,['8'],4,1810,[0.1827963],96,44,hard,plus,dotcolour,beta,,,66,19,V,R,
14,14,14,0,0,44,36,1015,['c'],1,left,['3'],3,570,[0.2227632],100,44,hard,plus,dotcolour,beta,,,66,19,V,R,
15,15,15,0,0,33,47,698,['n'],1,right,['9'],5,697,[-0.15205589],99,47,medium,plus,dotcolour,beta,,,66,19,V,R,
16,16,16,0,0,36,44,1133,['n'],1,right,['8'],4,873,[-0.24546837],100,44,hard,plus,dotcolour,beta,,,66,19,V,R,
17,17,17,0,0,44,36,1197,['n'],0,left,['8'],4,447,[-0.01738581],88,44,hard,plus,dotcolour,beta,,,66,19,V,R,
18,18,18,0,0,47,33,731,['c'],1,left,['0'],6,505,[0.14482334],99,47,medium,plus,dotcolour,beta,,,66,19,V,R,
19,19,19,0,0,44,36,1649,['c'],1,left,['8'],4,1492,[0.09449275],90,44,hard,plus,dotcolour,beta,,,66,19,V,R,
20,20,20,0,0,44,36,933,['c'],1,left,['9'],5,1068,[0.27026975],100,44,hard,plus,dotcolour,beta,,,66,19,V,R,
21,21,21,0,0,27,53,832,['n'],1,right,['0'],6,584,[-0.10709418],98,53,easy,plus,dotcolour,beta,,,66,19,V,R,
22,22,22,0,0,44,36,1833,['n'],0,left,['9'],5,944,[-0.0112345],78,44,hard,plus,dotcolour,beta,,,66,19,V,R,
23,23,23,0,0,36,44,1147,['n'],1,right,['8'],4,1734,[-0.27869113],99,44,hard,plus,dotcolour,beta,,,66,19,V,R,
24,24,24,0,0,33,47,1365,['n'],1,right,['8'],4,1298,[-0.23906776],99,47,medium,plus,dotcolour,beta,,,66,19,V,R,
25,25,25,0,0,33,47,1448,['c'],0,right,['8'],4,917,[-0.23387421],3,47,medium,plus,dotcolour,beta,,,66,19,V,R,
26,26,26,0,0,36,44,781,['n'],1,right,['8'],4,1059,[-0.18142244],98,44,hard,plus,dotcolour,beta,,,66,19,V,R,
27,27,27,0,0,33,47,816,['n'],1,right,['8'],4,624,[0.0004835],78,47,medium,plus,dotcolour,beta,,,66,19,V,R,
28,28,28,0,0,53,27,2784,['c'],1,left,['9'],5,673,[0.18976064],100,53,easy,plus,dotcolour,beta,,,66,19,V,R,
29,29,29,0,0,47,33,1916,['c'],1,left,['8'],4,1163,[0.27305101],100,47,medium,plus,dotcolour,beta,,,66,19,V,R,
30,30,30,0,0,53,27,1568,['c'],1,left,['9'],5,702,[0.2404659],100,53,easy,plus,dotcolour,beta,,,66,19,V,R,
31,31,31,0,0,47,33,1415,['c'],1,left,['9'],5,651,[0.18144186],99,47,medium,plus,dotcolour,beta,,,66,19,V,R,
32,32,32,0,0,47,33,766,['c'],1,left,['9'],5,668,[0.24953809],100,47,medium,plus,dotcolour,beta,,,66,19,V,R,
33,33,33,0,0,27,53,1166,['n'],1,right,['0'],6,1196,[-0.29174655],100,53,easy,plus,dotcolour,beta,,,66,19,V,R,
34,34,34,0,0,36,44,1049,['n'],1,right,['8'],4,1452,[-0.24120219],99,44,hard,plus,dotcolour,beta,,,66,19,V,R,
35,35,35,0,0,27,53,982,['n'],1,right,['0'],6,635,[-0.11938731],98,53,easy,plus,dotcolour,beta,,,66,19,V,R,
36,36,36,0,0,47,33,2515,['c'],1,left,['2'],2,1173,[0.22693276],99,47,medium,plus,dotcolour,beta,,,66,19,V,R,
37,37,37,0,0,36,44,1664,['n'],1,right,['8'],4,925,[-0.1257512],97,44,hard,plus,dotcolour,beta,,,66,19,V,R,
38,38,38,0,0,53,27,1264,['c'],1,left,['0'],6,1031,[0.18889157],99,53,easy,plus,dotcolour,beta,,,66,19,V,R,
39,39,39,0,0,27,53,1117,['n'],1,right,['9'],5,3097,[-0.67115417],100,53,easy,plus,dotcolour,beta,,,66,19,V,R,
40,40,40,0,0,47,33,1100,['c'],1,left,['8'],4,1041,[0.06240136],89,47,medium,plus,dotcolour,beta,,,66,19,V,R,
41,41,41,0,0,53,27,1099,['c'],1,left,['9'],5,453,[0.08062078],97,53,easy,plus,dotcolour,beta,,,66,19,V,R,
42,42,0,1,0,36,44,1800,['c'],0,right,['9'],5,645,[0.127267],98,44,hard,plus,dotcolour,beta,,,66,19,V,R,
43,43,1,1,0,47,33,849,['c'],1,left,['9'],5,610,[0.18400579],100,47,medium,plus,dotcolour,beta,,,66,19,V,R,
44,44,2,1,0,47,33,800,['c'],1,left,['9'],5,339,[0.13567419],100,47,medium,plus,dotcolour,beta,,,66,19,V,R,
45,45,3,1,0,53,27,700,['c'],1,left,['9'],5,402,[0.18826366],100,53,easy,plus,dotcolour,beta,,,66,19,V,R,
46,46,4,1,0,36,44,1930,['n'],1,right,['8'],4,805,[-0.09192386],95,44,hard,plus,dotcolour,beta,,,66,19,V,R,
47,47,5,1,0,33,47,1049,['n'],1,right,['9'],5,740,[-0.03436555],87,47,medium,plus,dotcolour,beta,,,66,19,V,R,
48,48,6,1,0,47,33,782,['c'],1,left,['0'],6,368,[0.07374637],98,47,medium,plus,dotcolour,beta,,,66,19,V,R,
49,49,7,1,0,53,27,1982,['c'],1,left,['8'],4,836,[0.26064413],100,53,easy,plus,dotcolour,beta,,,66,19,V,R,
50,50,8,1,0,27,53,832,['n'],1,right,['0'],6,346,[-0.10343414],99,53,easy,plus,dotcolour,beta,,,66,19,V,R,
51,51,9,1,0,44,36,930,['c'],1,left,['0'],6,824,[0.11425474],97,44,hard,plus,dotcolour,beta,,,66,19,V,R,
52,52,10,1,0,36,44,1647,['c'],0,right,['8'],4,2686,[-0.26992411],9,44,hard,plus,dotcolour,beta,,,66,19,V,R,
53,53,11,1,0,44,36,1247,['n'],0,left,['8'],4,640,[-0.02135037],85,44,hard,plus,dotcolour,beta,,,66,19,V,R,
54,54,12,1,0,33,47,1648,['n'],1,right,['8'],4,806,[-0.23338297],100,47,medium,plus,dotcolour,beta,,,66,19,V,R,
55,55,13,1,0,44,36,1932,['c'],1,left,['8'],4,1113,[0.05294237],86,44,hard,plus,dotcolour,beta,,,66,19,V,R,
56,56,14,1,0,53,27,1065,['c'],1,left,['8'],4,395,[0.15850699],100,53,easy,plus,dotcolour,beta,,,66,19,V,R,
57,57,15,1,0,36,44,1364,['n'],1,right,['8'],4,382,[0.06359778],44,44,hard,plus,dotcolour,beta,,,66,19,V,R,
58,58,16,1,0,36,44,1182,['n'],1,right,['8'],4,1096,[-0.22570766],99,44,hard,plus,dotcolour,beta,,,66,19,V,R,
59,59,17,1,0,47,33,1430,['n'],0,left,['8'],4,333,[0.02291584],73,47,medium,plus,dotcolour,beta,,,66,19,V,R,
60,60,18,1,0,27,53,965,['n'],1,right,['9'],5,529,[-0.0685947],96,53,easy,plus,dotcolour,beta,,,66,19,V,R,
61,61,19,1,0,33,47,1316,['n'],1,right,['9'],5,1097,[-0.37968056],100,47,medium,plus,dotcolour,beta,,,66,19,V,R,
62,62,20,1,0,27,53,798,['n'],1,right,['0'],6,366,[-0.26235885],100,53,easy,plus,dotcolour,beta,,,66,19,V,R,
63,63,21,1,0,44,36,1367,['c'],1,left,['8'],4,1082,[0.1981767],99,44,hard,plus,dotcolour,beta,,,66,19,V,R,
64,64,22,1,0,33,47,2733,['c'],0,right,['2'],2,1179,[-0.01328521],67,47,medium,plus,dotcolour,beta,,,66,19,V,R,
65,65,23,1,0,27,53,1032,['n'],1,right,['9'],5,1355,[-0.31075109],100,53,easy,plus,dotcolour,beta,,,66,19,V,R,
66,66,24,1,0,27,53,865,['n'],1,right,['0'],6,467,[-0.02763994],90,53,easy,plus,dotcolour,beta,,,66,19,V,R,
67,67,25,1,0,53,27,2114,['c'],1,left,['9'],5,1622,[0.29003572],99,53,easy,plus,dotcolour,beta,,,66,19,V,R,
68,68,26,1,0,36,44,1449,['n'],1,right,['9'],5,611,[-0.07735887],96,44,hard,plus,dotcolour,beta,,,66,19,V,R,
69,69,27,1,0,36,44,1333,['n'],1,right,['9'],5,591,[-0.04179872],91,44,hard,plus,dotcolour,beta,,,66,19,V,R,
70,70,28,1,0,44,36,1165,['c'],1,left,['9'],5,1138,[0.0837185],91,44,hard,plus,dotcolour,beta,,,66,19,V,R,
71,71,29,1,0,53,27,848,['c'],1,left,['0'],6,1179,[0.20831915],99,53,easy,plus,dotcolour,beta,,,66,19,V,R,
72,72,30,1,0,27,53,983,['n'],1,right,['0'],6,589,[-0.11218378],98,53,easy,plus,dotcolour,beta,,,66,19,V,R,
73,73,31,1,0,33,47,998,['n'],1,right,['0'],6,535,[-0.22506395],100,47,medium,plus,dotcolour,beta,,,66,19,V,R,
74,74,32,1,0,47,33,1799,['c'],1,left,['8'],4,1091,[0.21130503],99,47,medium,plus,dotcolour,beta,,,66,19,V,R,
75,75,33,1,0,33,47,4733,['c'],0,right,['8'],4,1235,[0.01565434],76,47,medium,plus,dotcolour,beta,,,66,19,V,R,
76,76,34,1,0,53,27,1866,['c'],1,left,['9'],5,640,[0.24716505],100,53,easy,plus,dotcolour,beta,,,66,19,V,R,
77,77,35,1,0,47,33,3150,['c'],1,left,['8'],4,961,[0.08015618],92,47,medium,plus,dotcolour,beta,,,66,19,V,R,
78,78,36,1,0,27,53,932,['n'],1,right,['0'],6,429,[-0.22825263],100,53,easy,plus,dotcolour,beta,,,66,19,V,R,
79,79,37,1,0,44,36,1349,['c'],1,left,['9'],5,504,[0.10471476],98,44,hard,plus,dotcolour,beta,,,66,19,V,R,
80,80,38,1,0,44,36,783,['n'],0,left,['9'],5,454,[-0.00520509],84,44,hard,plus,dotcolour,beta,,,66,19,V,R,
81,81,39,1,0,53,27,1066,['c'],1,left,['0'],6,458,[0.08597434],98,53,easy,plus,dotcolour,beta,,,66,19,V,R,
82,82,40,1,0,33,47,1064,['n'],1,right,['0'],6,494,[-0.13165717],99,47,medium,plus,dotcolour,beta,,,66,19,V,R,
83,83,41,1,0,47,33,1848,['c'],1,left,['8'],4,658,[0.16169745],99,47,medium,plus,dotcolour,beta,,,66,19,V,R,
84,84,0,2,0,47,33,1366,['c'],1,left,['3'],3,1823,[0.29867941],99,47,medium,plus,dotcolour,beta,,,66,19,V,R,
85,85,1,2,0,44,36,1350,['c'],1,left,['9'],5,833,[0.10412992],96,44,hard,plus,dotcolour,beta,,,66,19,V,R,
86,86,2,2,0,27,53,816,['n'],1,right,['9'],5,480,[-0.20322879],100,53,easy,plus,dotcolour,beta,,,66,19,V,R,
87,87,3,2,0,33,47,882,['n'],1,right,['0'],6,994,[-0.14793813],98,47,medium,plus,dotcolour,beta,,,66,19,V,R,
88,88,4,2,0,36,44,965,['n'],1,right,['0'],6,294,[-0.10646443],100,44,hard,plus,dotcolour,beta,,,66,19,V,R,
89,89,5,2,0,27,53,1032,['n'],1,right,['0'],6,225,[-0.08057615],99,53,easy,plus,dotcolour,beta,,,66,19,V,R,
90,90,6,2,0,47,33,1531,['c'],1,left,['8'],4,636,[0.13703443],99,47,medium,plus,dotcolour,beta,,,66,19,V,R,
91,91,7,2,0,53,27,1431,['c'],1,left,['8'],4,402,[0.22858368],100,53,easy,plus,dotcolour,beta,,,66,19,V,R,
92,92,8,2,0,53,27,2098,['c'],1,left,['9'],5,472,[0.10062439],98,53,easy,plus,dotcolour,beta,,,66,19,V,R,
93,93,9,2,0,33,47,866,['n'],1,right,['9'],5,395,[-0.11834483],99,47,medium,plus,dotcolour,beta,,,66,19,V,R,
94,94,10,2,0,36,44,583,['n'],1,right,['9'],5,317,[-0.09829053],99,44,hard,plus,dotcolour,beta,,,66,19,V,R,
95,95,11,2,0,33,47,1666,['c'],0,right,['8'],4,1407,[-0.29834628],2,47,medium,plus,dotcolour,beta,,,66,19,V,R,
96,96,12,2,0,44,36,1247,['n'],0,left,['3'],3,2470,[-0.02315192],71,44,hard,plus,dotcolour,beta,,,66,19,V,R,
97,97,13,2,0,53,27,1416,['c'],1,left,['9'],5,682,[0.02722163],86,53,easy,plus,dotcolour,beta,,,66,19,V,R,
98,98,14,2,0,53,27,1599,['c'],1,left,['0'],6,400,[0.12956528],99,53,easy,plus,dotcolour,beta,,,66,19,V,R,
99,99,15,2,0,33,47,931,['n'],1,right,['9'],5,740,[-0.10903184],97,47,medium,plus,dotcolour,beta,,,66,19,V,R,
100,100,16,2,0,33,47,965,['c'],0,right,['9'],5,329,[-0.05538474],50,47,medium,plus,dotcolour,beta,,,66,19,V,R,
101,101,17,2,0,44,36,1232,['c'],1,left,['9'],5,740,[-0.02298271],66,44,hard,plus,dotcolour,beta,,,66,19,V,R,
102,102,18,2,0,47,33,1265,['c'],1,left,['9'],5,493,[0.22686075],100,47,medium,plus,dotcolour,beta,,,66,19,V,R,
103,103,19,2,0,44,36,1065,['n'],0,left,['9'],5,447,[0.04750611],55,44,hard,plus,dotcolour,beta,,,66,19,V,R,
104,104,20,2,0,36,44,1184,['c'],0,right,['9'],5,735,[0.0052855],78,44,hard,plus,dotcolour,beta,,,66,19,V,R,
105,105,21,2,0,27,53,800,['n'],1,right,['9'],5,531,[-0.02384818],88,53,easy,plus,dotcolour,beta,,,66,19,V,R,
106,106,22,2,0,36,44,1266,['n'],1,right,['8'],4,2316,[-0.09763489],86,44,hard,plus,dotcolour,beta,,,66,19,V,R,
107,107,23,2,0,47,33,1665,['n'],0,left,['8'],4,478,[0.00218845],80,47,medium,plus,dotcolour,beta,,,66,19,V,R,
108,108,24,2,0,27,53,898,['n'],1,right,['0'],6,1520,[-0.51968646],100,53,easy,plus,dotcolour,beta,,,66,19,V,R,
109,109,25,2,0,36,44,2130,['n'],1,right,['9'],5,654,[-0.17675368],99,44,hard,plus,dotcolour,beta,,,66,19,V,R,
110,110,26,2,0,33,47,1482,['c'],0,right,['8'],4,585,[-0.02505898],67,47,medium,plus,dotcolour,beta,,,66,19,V,R,
111,111,27,2,0,53,27,1883,['c'],1,left,['9'],5,384,[0.02766408],92,53,easy,plus,dotcolour,beta,,,66,19,V,R,
112,112,28,2,0,33,47,717,['n'],1,right,['9'],5,382,[-0.11155872],99,47,medium,plus,dotcolour,beta,,,66,19,V,R,
113,113,29,2,0,53,27,945,['c'],1,left,['0'],6,2306,[0.60862716],100,53,easy,plus,dotcolour,beta,,,66,19,V,R,
114,114,30,2,0,27,53,733,['n'],1,right,['0'],6,409,[-0.120397],99,53,easy,plus,dotcolour,beta,,,66,19,V,R,
115,115,31,2,0,27,53,1067,['n'],1,right,['0'],6,455,[-0.21483811],100,53,easy,plus,dotcolour,beta,,,66,19,V,R,
116,116,32,2,0,44,36,1183,['c'],1,left,['8'],4,702,[-0.01306623],71,44,hard,plus,dotcolour,beta,,,66,19,V,R,
117,117,33,2,0,47,33,748,['n'],0,left,['9'],5,294,[-0.04575528],97,47,medium,plus,dotcolour,beta,,,66,19,V,R,
118,118,34,2,0,53,27,948,['c'],1,left,['8'],4,414,[0.15944385],100,53,easy,plus,dotcolour,beta,,,66,19,V,R,
119,119,35,2,0,47,33,783,['c'],1,left,['8'],4,262,[0.17517079],100,47,medium,plus,dotcolour,beta,,,66,19,V,R,
120,120,36,2,0,44,36,1132,['c'],1,left,['9'],5,560,[0.15217582],99,44,hard,plus,dotcolour,beta,,,66,19,V,R,
121,121,37,2,0,44,36,733,['c'],1,left,['9'],5,493,[0.07824422],97,44,hard,plus,dotcolour,beta,,,66,19,V,R,
122,122,38,2,0,27,53,831,['n'],1,right,['0'],6,1609,[-0.15458516],95,53,easy,plus,dotcolour,beta,,,66,19,V,R,
123,123,39,2,0,36,44,1749,['n'],1,right,['0'],6,540,[-0.17397724],100,44,hard,plus,dotcolour,beta,,,66,19,V,R,
124,124,40,2,0,36,44,1649,['c'],0,right,['8'],4,789,[0.06997019],93,44,hard,plus,dotcolour,beta,,,66,19,V,R,
125,125,41,2,0,47,33,1432,['c'],1,left,['8'],4,317,[0.10339465],99,47,medium,plus,dotcolour,beta,,,66,19,V,R,
126,0,0,3,1,44,36,1382,['c'],1,left,['9'],5,901,[0.08144233],62,44,hard,minus,dotcolour,beta,,,66,19,V,R,
127,1,1,3,1,44,36,1063,['c'],1,left,['9'],5,431,[0.08955703],72,44,hard,minus,dotcolour,beta,,,66,19,V,R,
128,2,2,3,1,33,47,933,['n'],1,right,['9'],5,361,[-0.0443487],42,47,medium,minus,dotcolour,beta,,,66,19,V,R,
129,3,3,3,1,47,33,1033,['c'],1,left,['8'],4,939,[0.01951156],34,47,medium,minus,dotcolour,beta,,,66,19,V,R,
130,4,4,3,1,47,33,998,['c'],1,left,['8'],4,1142,[0.192837],91,47,medium,minus,dotcolour,beta,,,66,19,V,R,
131,5,5,3,1,33,47,847,['n'],1,right,['9'],5,415,[-0.08622245],70,47,medium,minus,dotcolour,beta,,,66,19,V,R,
132,6,6,3,1,53,27,1065,['c'],1,left,['9'],5,333,[0.09602268],78,53,easy,minus,dotcolour,beta,,,66,19,V,R,
133,7,7,3,1,44,36,950,['n'],0,left,['8'],4,948,[-0.19725545],93,44,hard,minus,dotcolour,beta,,,66,19,V,R,
134,8,8,3,1,47,33,934,['c'],1,left,['0'],6,1842,[0.07400285],56,47,medium,minus,dotcolour,beta,,,66,19,V,R,
135,9,9,3,1,47,33,1365,['c'],1,left,['9'],5,986,[0.23760728],96,47,medium,minus,dotcolour,beta,,,66,19,V,R,
136,10,10,3,1,27,53,931,['n'],1,right,['9'],5,758,[-0.13473049],84,53,easy,minus,dotcolour,beta,,,66,19,V,R,
137,11,11,3,1,53,27,1281,['c'],1,left,['0'],6,765,[0.2308083],97,53,easy,minus,dotcolour,beta,,,66,19,V,R,
138,12,12,3,1,36,44,1332,['n'],1,right,['0'],6,938,[-0.03550188],41,44,hard,minus,dotcolour,beta,,,66,19,V,R,
139,13,13,3,1,33,47,1264,['n'],1,right,['9'],5,403,[-0.10477498],80,47,medium,minus,dotcolour,beta,,,66,19,V,R,
140,14,14,3,1,36,44,1348,['n'],1,right,['9'],5,294,[-0.1795207],98,44,hard,minus,dotcolour,beta,,,66,19,V,R,
141,15,15,3,1,27,53,999,['n'],1,right,['9'],5,243,[-0.11167878],89,53,easy,minus,dotcolour,beta,,,66,19,V,R,
142,16,16,3,1,47,33,1266,['c'],1,left,['9'],5,312,[0.12144059],89,47,medium,minus,dotcolour,beta,,,66,19,V,R,
143,17,17,3,1,44,36,1132,['c'],1,left,['9'],5,199,[0.0758838],69,44,hard,minus,dotcolour,beta,,,66,19,V,R,
144,18,18,3,1,53,27,883,['c'],1,left,['0'],6,941,[0.34830484],100,53,easy,minus,dotcolour,beta,,,66,19,V,R,
145,19,19,3,1,27,53,1148,['n'],1,right,['0'],6,330,[-0.14317458],94,53,easy,minus,dotcolour,beta,,,66,19,V,R,
146,20,20,3,1,33,47,1232,['n'],1,right,['0'],6,334,[-0.12086287],88,47,medium,minus,dotcolour,beta,,,66,19,V,R,
147,21,21,3,1,44,36,1349,['c'],1,left,['8'],4,427,[0.17425818],96,44,hard,minus,dotcolour,beta,,,66,19,V,R,
148,22,22,3,1,44,36,1132,['n'],0,left,['9'],5,510,[-0.03381844],37,44,hard,minus,dotcolour,beta,,,66,19,V,R,
149,23,23,3,1,33,47,749,['n'],1,right,['9'],5,1301,[-0.07901157],59,47,medium,minus,dotcolour,beta,,,66,19,V,R,
150,24,24,3,1,27,53,2281,['n'],1,right,['9'],5,590,[-0.10051834],74,53,easy,minus,dotcolour,beta,,,66,19,V,R,
151,25,25,3,1,44,36,597,['n'],0,left,['9'],5,279,[-0.03407344],32,44,hard,minus,dotcolour,beta,,,66,19,V,R,
152,26,26,3,1,36,44,1032,['c'],0,right,['3'],3,1780,[0.18034561],84,44,hard,minus,dotcolour,beta,,,66,19,V,R,
153,27,27,3,1,27,53,1066,['n'],1,right,['9'],5,475,[-0.20149373],98,53,easy,minus,dotcolour,beta,,,66,19,V,R,
154,28,28,3,1,53,27,1481,['c'],1,left,['0'],6,1070,[0.30532163],99,53,easy,minus,dotcolour,beta,,,66,19,V,R,
155,29,29,3,1,36,44,883,['n'],1,right,['8'],4,568,[-0.09702853],73,44,hard,minus,dotcolour,beta,,,66,19,V,R,
156,30,30,3,1,53,27,1100,['c'],1,left,['0'],6,719,[0.14215364],86,53,easy,minus,dotcolour,beta,,,66,19,V,R,
157,31,31,3,1,33,47,1298,['n'],1,right,['9'],5,639,[-0.25628342],99,47,medium,minus,dotcolour,beta,,,66,19,V,R,
158,32,32,3,1,36,44,916,['n'],1,right,['9'],5,321,[-0.17900226],98,44,hard,minus,dotcolour,beta,,,66,19,V,R,
159,33,33,3,1,33,47,799,['n'],1,right,['9'],5,302,[-0.08403077],72,47,medium,minus,dotcolour,beta,,,66,19,V,R,
160,34,34,3,1,47,33,981,['n'],0,left,['9'],5,300,[-0.07392176],65,47,medium,minus,dotcolour,beta,,,66,19,V,R,
161,35,35,3,1,47,33,866,['c'],1,left,['9'],5,287,[0.08257378],71,47,medium,minus,dotcolour,beta,,,66,19,V,R,
162,36,36,3,1,27,53,816,['n'],1,right,['0'],6,460,[-0.11025113],81,53,easy,minus,dotcolour,beta,,,66,19,V,R,
163,37,37,3,1,53,27,798,['c'],1,left,['9'],5,539,[0.14733586],90,53,easy,minus,dotcolour,beta,,,66,19,V,R,
164,38,38,3,1,27,53,699,['n'],1,right,['9'],5,346,[-0.04207158],40,53,easy,minus,dotcolour,beta,,,66,19,V,R,
165,39,39,3,1,36,44,766,['n'],1,right,['0'],6,735,[0.07204741],6,44,hard,minus,dotcolour,beta,,,66,19,V,R,
166,40,40,3,1,36,44,798,['n'],1,right,['9'],5,371,[-0.11019717],83,44,hard,minus,dotcolour,beta,,,66,19,V,R,
167,41,41,3,1,53,27,866,['c'],1,left,['8'],4,578,[0.15372219],91,53,easy,minus,dotcolour,beta,,,66,19,V,R,
168,42,0,4,1,44,36,1583,['c'],1,left,['8'],4,337,[0.18318668],98,44,hard,minus,dotcolour,beta,,,66,19,V,R,
169,43,1,4,1,44,36,1316,['n'],0,left,['9'],5,360,[-0.04085171],39,44,hard,minus,dotcolour,beta,,,66,19,V,R,
170,44,2,4,1,27,53,916,['n'],1,right,['8'],4,310,[-0.19888251],99,53,easy,minus,dotcolour,beta,,,66,19,V,R,
171,45,3,4,1,33,47,648,['n'],1,right,['9'],5,809,[-0.05014061],47,47,medium,minus,dotcolour,beta,,,66,19,V,R,
172,46,4,4,1,36,44,1115,['n'],1,right,['8'],4,725,[-0.02321743],34,44,hard,minus,dotcolour,beta,,,66,19,V,R,
173,47,5,4,1,53,27,933,['c'],1,left,['8'],4,900,[0.21704406],96,53,easy,minus,dotcolour,beta,,,66,19,V,R,
174,48,6,4,1,53,27,1116,['c'],1,left,['8'],4,291,[0.06259836],56,53,easy,minus,dotcolour,beta,,,66,19,V,R,
175,49,7,4,1,27,53,1114,['n'],1,right,['8'],4,405,[-0.02320973],29,53,easy,minus,dotcolour,beta,,,66,19,V,R,
176,50,8,4,1,44,36,1482,['n'],0,left,['8'],4,322,[-0.12943386],91,44,hard,minus,dotcolour,beta,,,66,19,V,R,
177,51,9,4,1,33,47,782,['n'],1,right,['8'],4,287,[-0.05766915],52,47,medium,minus,dotcolour,beta,,,66,19,V,R,
178,52,10,4,1,53,27,831,['c'],1,left,['9'],5,1003,[0.23217297],96,53,easy,minus,dotcolour,beta,,,66,19,V,R,
179,53,11,4,1,44,36,747,['c'],1,left,['9'],5,189,[0.11721462],93,44,hard,minus,dotcolour,beta,,,66,19,V,R,
180,54,12,4,1,47,33,583,['c'],1,left,['9'],5,225,[0.20083316],100,47,medium,minus,dotcolour,beta,,,66,19,V,R,
181,55,13,4,1,44,36,1414,['c'],1,left,['9'],5,272,[0.14478507],96,44,hard,minus,dotcolour,beta,,,66,19,V,R,
182,56,14,4,1,27,53,465,['c'],0,right,['1'],1,1635,[0.00644665],33,53,easy,minus,dotcolour,beta,,,66,19,V,R,
183,57,15,4,1,27,53,1082,['n'],1,right,['9'],5,409,[-0.08843293],72,53,easy,minus,dotcolour,beta,,,66,19,V,R,
184,58,16,4,1,36,44,798,['n'],1,right,['9'],5,337,[-0.1384499],93,44,hard,minus,dotcolour,beta,,,66,19,V,R,
185,59,17,4,1,47,33,915,['c'],1,left,['0'],6,807,[0.09956303],71,47,medium,minus,dotcolour,beta,,,66,19,V,R,
186,60,18,4,1,27,53,849,['n'],1,right,['0'],6,406,[-0.17805214],97,53,easy,minus,dotcolour,beta,,,66,19,V,R,
187,61,19,4,1,47,33,1031,['c'],1,left,['9'],5,230,[0.09381884],81,47,medium,minus,dotcolour,beta,,,66,19,V,R,
188,62,20,4,1,36,44,1547,['c'],0,right,['3'],3,1480,[-0.03029373],22,44,hard,minus,dotcolour,beta,,,66,19,V,R,
189,63,21,4,1,36,44,951,['c'],0,right,['9'],5,735,[0.01656037],31,44,hard,minus,dotcolour,beta,,,66,19,V,R,
190,64,22,4,1,53,27,831,['c'],1,left,['9'],5,866,[0.05627567],50,53,easy,minus,dotcolour,beta,,,66,19,V,R,
191,65,23,4,1,33,47,1049,['n'],1,right,['9'],5,301,[-0.15461691],96,47,medium,minus,dotcolour,beta,,,66,19,V,R,
192,66,24,4,1,53,27,848,['c'],1,left,['9'],5,281,[0.02547139],26,53,easy,minus,dotcolour,beta,,,66,19,V,R,
193,67,25,4,1,44,36,1451,['n'],0,left,['0'],6,461,[-0.00459783],21,44,hard,minus,dotcolour,beta,,,66,19,V,R,
194,68,26,4,1,33,47,932,['n'],1,right,['0'],6,495,[-0.17168734],95,47,medium,minus,dotcolour,beta,,,66,19,V,R,
195,69,27,4,1,36,44,883,['c'],0,right,['8'],4,553,[0.11513683],81,44,hard,minus,dotcolour,beta,,,66,19,V,R,
196,70,28,4,1,27,53,1483,['n'],1,right,['9'],5,593,[-0.22638747],98,53,easy,minus,dotcolour,beta,,,66,19,V,R,
197,71,29,4,1,36,44,899,['n'],1,right,['9'],5,206,[-0.15292573],98,44,hard,minus,dotcolour,beta,,,66,19,V,R,
198,72,30,4,1,27,53,914,['n'],1,right,['9'],5,243,[-0.03561938],33,53,easy,minus,dotcolour,beta,,,66,19,V,R,
199,73,31,4,1,47,33,816,['c'],1,left,['8'],4,610,[0.17135394],94,47,medium,minus,dotcolour,beta,,,66,19,V,R,
200,74,32,4,1,53,27,782,['c'],1,left,['8'],4,307,[0.12270471],90,53,easy,minus,dotcolour,beta,,,66,19,V,R,
201,75,33,4,1,53,27,734,['c'],1,left,['8'],4,338,[0.00853006],19,53,easy,minus,dotcolour,beta,,,66,19,V,R,
202,76,34,4,1,44,36,1681,['c'],1,left,['8'],4,379,[0.13616252],91,44,hard,minus,dotcolour,beta,,,66,19,V,R,
203,77,35,4,1,36,44,948,['c'],0,right,['9'],5,503,[0.05436883],49,44,hard,minus,dotcolour,beta,,,66,19,V,R,
204,78,36,4,1,33,47,931,['n'],1,right,['9'],5,414,[-0.11520272],84,47,medium,minus,dotcolour,beta,,,66,19,V,R,
205,79,37,4,1,47,33,681,['c'],1,left,['9'],5,292,[0.07728946],67,47,medium,minus,dotcolour,beta,,,66,19,V,R,
206,80,38,4,1,33,47,967,['n'],1,right,['0'],6,858,[-0.21574577],96,47,medium,minus,dotcolour,beta,,,66,19,V,R,
207,81,39,4,1,47,33,1082,['c'],1,left,['0'],6,237,[0.03268777],30,47,medium,minus,dotcolour,beta,,,66,19,V,R,
208,82,40,4,1,33,47,1066,['n'],1,right,['9'],5,571,[0.02564968],13,47,medium,minus,dotcolour,beta,,,66,19,V,R,
209,83,41,4,1,47,33,1048,['c'],1,left,['0'],6,803,[0.2116772],96,47,medium,minus,dotcolour,beta,,,66,19,V,R,
210,84,0,5,1,33,47,866,['c'],0,right,['9'],5,493,[0.02192717],30,47,medium,minus,dotcolour,beta,,,66,19,V,R,
211,85,1,5,1,53,27,865,['c'],1,left,['9'],5,392,[0.10629703],81,53,easy,minus,dotcolour,beta,,,66,19,V,R,
212,86,2,5,1,33,47,799,['c'],0,right,['9'],5,337,[0.00813511],19,47,medium,minus,dotcolour,beta,,,66,19,V,R,
213,87,3,5,1,36,44,700,['c'],0,right,['9'],5,208,[0.10188288],86,44,hard,minus,dotcolour,beta,,,66,19,V,R,
214,88,4,5,1,33,47,1098,['c'],0,right,['8'],4,837,[-0.04775174],12,47,medium,minus,dotcolour,beta,,,66,19,V,R,
215,89,5,5,1,27,53,1267,['n'],1,right,['0'],6,1002,[-0.21800849],95,53,easy,minus,dotcolour,beta,,,66,19,V,R,
216,90,6,5,1,33,47,1383,['c'],0,right,['8'],4,875,[-0.07637609],7,47,medium,minus,dotcolour,beta,,,66,19,V,R,
217,91,7,5,1,47,33,1999,['n'],0,left,['9'],5,465,[-0.00078399],19,47,medium,minus,dotcolour,beta,,,66,19,V,R,
218,92,8,5,1,53,27,1015,['c'],1,left,['0'],6,575,[0.27422619],99,53,easy,minus,dotcolour,beta,,,66,19,V,R,
219,93,9,5,1,44,36,2031,['c'],1,left,['8'],4,408,[0.09109242],73,44,hard,minus,dotcolour,beta,,,66,19,V,R,
220,94,10,5,1,27,53,848,['n'],1,right,['9'],5,526,[-0.06959424],59,53,easy,minus,dotcolour,beta,,,66,19,V,R,
221,95,11,5,1,47,33,715,['c'],1,left,['8'],4,406,[0.00031286],17,47,medium,minus,dotcolour,beta,,,66,19,V,R,
222,96,12,5,1,44,36,765,['c'],1,left,['8'],4,376,[0.12883961],90,44,hard,minus,dotcolour,beta,,,66,19,V,R,
223,97,13,5,1,27,53,831,['n'],1,right,['8'],4,480,[-0.26307738],100,53,easy,minus,dotcolour,beta,,,66,19,V,R,
224,98,14,5,1,33,47,899,['n'],1,right,['9'],5,394,[-0.00109175],17,47,medium,minus,dotcolour,beta,,,66,19,V,R,
225,99,15,5,1,44,36,1398,['n'],0,left,['8'],4,316,[-0.04553583],42,44,hard,minus,dotcolour,beta,,,66,19,V,R,
226,100,16,5,1,36,44,1131,['n'],1,right,['9'],5,307,[-0.11175003],86,44,hard,minus,dotcolour,beta,,,66,19,V,R,
227,101,17,5,1,27,53,615,['n'],1,right,['9'],5,343,[-0.12352233],89,53,easy,minus,dotcolour,beta,,,66,19,V,R,
228,102,18,5,1,53,27,699,['c'],1,left,['0'],6,582,[0.19705746],97,53,easy,minus,dotcolour,beta,,,66,19,V,R,
229,103,19,5,1,53,27,682,['c'],1,left,['0'],6,197,[0.11720125],92,53,easy,minus,dotcolour,beta,,,66,19,V,R,
230,104,20,5,1,47,33,916,['c'],1,left,['0'],6,1026,[0.04431696],45,47,medium,minus,dotcolour,beta,,,66,19,V,R,
231,105,21,5,1,36,44,649,['c'],0,right,['8'],4,280,[0.11134287],87,44,hard,minus,dotcolour,beta,,,66,19,V,R,
232,106,22,5,1,53,27,663,['c'],1,left,['9'],5,747,[0.15733028],89,53,easy,minus,dotcolour,beta,,,66,19,V,R,
233,107,23,5,1,47,33,581,['c'],1,left,['9'],5,199,[0.03466817],30,47,medium,minus,dotcolour,beta,,,66,19,V,R,
234,108,24,5,1,27,53,883,['n'],1,right,['0'],6,597,[-0.02670602],34,53,easy,minus,dotcolour,beta,,,66,19,V,R,
235,109,25,5,1,36,44,783,['c'],0,right,['0'],6,271,[0.1214331],91,44,hard,minus,dotcolour,beta,,,66,19,V,R,
236,110,26,5,1,33,47,632,['c'],0,right,['8'],4,548,[0.00205404],21,47,medium,minus,dotcolour,beta,,,66,19,V,R,
237,111,27,5,1,47,33,617,['c'],1,left,['3'],3,2863,[0.41919477],98,47,medium,minus,dotcolour,beta,,,66,19,V,R,
238,112,28,5,1,36,44,782,['c'],0,right,['8'],4,1229,[-0.06980126],12,44,hard,minus,dotcolour,beta,,,66,19,V,R,
239,113,29,5,1,36,44,1515,['n'],1,right,['8'],4,305,[-0.09512534],78,44,hard,minus,dotcolour,beta,,,66,19,V,R,
240,114,30,5,1,44,36,715,['c'],1,left,['9'],5,345,[0.12402797],89,44,hard,minus,dotcolour,beta,,,66,19,V,R,
241,115,31,5,1,27,53,948,['n'],1,right,['0'],6,319,[-0.15514095],96,53,easy,minus,dotcolour,beta,,,66,19,V,R,
242,116,32,5,1,47,33,882,['c'],1,left,['0'],6,256,[0.15703752],97,47,medium,minus,dotcolour,beta,,,66,19,V,R,
243,117,33,5,1,53,27,699,['c'],1,left,['0'],6,227,[0.08248698],73,53,easy,minus,dotcolour,beta,,,66,19,V,R,
244,118,34,5,1,47,33,649,['n'],0,left,['9'],5,697,[0.00559011],21,47,medium,minus,dotcolour,beta,,,66,19,V,R,
245,119,35,5,1,36,44,832,['c'],0,right,['3'],3,1621,[0.1788275],85,44,hard,minus,dotcolour,beta,,,66,19,V,R,
246,120,36,5,1,33,47,800,['n'],1,right,['9'],5,333,[-0.09834003],79,47,medium,minus,dotcolour,beta,,,66,19,V,R,
247,121,37,5,1,44,36,749,['c'],1,left,['9'],5,307,[0.01331986],20,44,hard,minus,dotcolour,beta,,,66,19,V,R,
248,122,38,5,1,53,27,966,['c'],1,left,['9'],5,273,[0.07863326],69,53,easy,minus,dotcolour,beta,,,66,19,V,R,
249,123,39,5,1,27,53,582,['n'],1,right,['9'],5,288,[-0.10038259],82,53,easy,minus,dotcolour,beta,,,66,19,V,R,
250,124,40,5,1,44,36,1183,['c'],1,left,['8'],4,430,[0.11143444],82,44,hard,minus,dotcolour,beta,,,66,19,V,R,
251,125,41,5,1,44,36,1115,['c'],1,left,['9'],5,353,[0.06852012],60,44,hard,minus,dotcolour,beta,,,66,19,V,R,
252,0,0,6,2,36,44,1100,['c'],0,right,['9'],5,399,[0.10610171],99,44,hard,plus,dotcolour,beta,,,66,19,V,R,
253,1,1,6,2,44,36,932,['c'],1,left,['9'],5,322,[0.22638799],100,44,hard,plus,dotcolour,beta,,,66,19,V,R,
254,2,2,6,2,27,53,982,['n'],1,right,['0'],6,601,[-0.27893648],100,53,easy,plus,dotcolour,beta,,,66,19,V,R,
255,3,3,6,2,47,33,898,['c'],1,left,['0'],6,261,[-0.01143849],83,47,medium,plus,dotcolour,beta,,,66,19,V,R,
256,4,4,6,2,44,36,948,['c'],1,left,['0'],6,358,[0.08092771],98,44,hard,plus,dotcolour,beta,,,66,19,V,R,
257,5,5,6,2,53,27,715,['c'],1,left,['0'],6,460,[0.17232085],100,53,easy,plus,dotcolour,beta,,,66,19,V,R,
258,6,6,6,2,47,33,733,['c'],1,left,['0'],6,277,[0.07657704],99,47,medium,plus,dotcolour,beta,,,66,19,V,R,
259,7,7,6,2,33,47,649,['c'],0,right,['0'],6,193,[0.06356855],99,47,medium,plus,dotcolour,beta,,,66,19,V,R,
260,8,8,6,2,33,47,1015,['n'],1,right,['0'],6,305,[-0.01843708],92,47,medium,plus,dotcolour,beta,,,66,19,V,R,
261,9,9,6,2,44,36,848,['c'],1,left,['0'],6,221,[0.04463236],98,44,hard,plus,dotcolour,beta,,,66,19,V,R,
262,10,10,6,2,47,33,882,['c'],1,left,['0'],6,178,[0.05027609],99,47,medium,plus,dotcolour,beta,,,66,19,V,R,
263,11,11,6,2,33,47,798,['n'],1,right,['0'],6,284,[-0.06928275],99,47,medium,plus,dotcolour,beta,,,66,19,V,R,
264,12,12,6,2,36,44,865,['n'],1,right,['0'],6,207,[-0.04013903],98,44,hard,plus,dotcolour,beta,,,66,19,V,R,
265,13,13,6,2,33,47,480,['n'],1,right,['0'],6,260,[-0.07522095],99,47,medium,plus,dotcolour,beta,,,66,19,V,R,
266,14,14,6,2,33,47,448,['c'],0,right,['0'],6,297,[0.00215508],87,47,medium,plus,dotcolour,beta,,,66,19,V,R,
267,15,15,6,2,47,33,413,['n'],0,left,['0'],6,325,[0.01525383],78,47,medium,plus,dotcolour,beta,,,66,19,V,R,
268,16,16,6,2,33,47,731,['n'],1,right,['0'],6,244,[-0.06378146],99,47,medium,plus,dotcolour,beta,,,66,19,V,R,
269,17,17,6,2,53,27,865,['c'],1,left,['0'],6,209,[0.02835794],96,53,easy,plus,dotcolour,beta,,,66,19,V,R,
270,18,18,6,2,44,36,698,['c'],1,left,['9'],5,229,[0.13773254],100,44,hard,plus,dotcolour,beta,,,66,19,V,R,
271,19,19,6,2,27,53,766,['n'],1,right,['0'],6,463,[-0.1794651],100,53,easy,plus,dotcolour,beta,,,66,19,V,R,
272,20,20,6,2,53,27,783,['c'],1,left,['0'],6,334,[0.11086806],99,53,easy,plus,dotcolour,beta,,,66,19,V,R,
273,21,21,6,2,44,36,747,['c'],1,left,['8'],4,380,[0.07404359],98,44,hard,plus,dotcolour,beta,,,66,19,V,R,
274,22,22,6,2,36,44,781,['c'],0,right,['0'],6,447,[0.03019096],91,44,hard,plus,dotcolour,beta,,,66,19,V,R,
275,23,23,6,2,36,44,1250,['c'],0,right,['9'],5,196,[0.04336033],98,44,hard,plus,dotcolour,beta,,,66,19,V,R,
276,24,24,6,2,27,53,1117,['n'],1,right,['0'],6,329,[-0.02944316],94,53,easy,plus,dotcolour,beta,,,66,19,V,R,
277,25,25,6,2,53,27,683,['c'],1,left,['0'],6,257,[0.0652481],99,53,easy,plus,dotcolour,beta,,,66,19,V,R,
278,26,26,6,2,53,27,580,['c'],1,left,['0'],6,281,[0.08664628],99,53,easy,plus,dotcolour,beta,,,66,19,V,R,
279,27,27,6,2,27,53,716,['n'],1,right,['0'],6,250,[-0.09275012],100,53,easy,plus,dotcolour,beta,,,66,19,V,R,
280,28,28,6,2,33,47,1215,['n'],1,right,['0'],6,273,[-0.07398411],99,47,medium,plus,dotcolour,beta,,,66,19,V,R,
281,29,29,6,2,27,53,830,['n'],1,right,['0'],6,262,[-0.14105642],100,53,easy,plus,dotcolour,beta,,,66,19,V,R,
282,30,30,6,2,47,33,649,['c'],1,left,['0'],6,219,[0.00704575],92,47,medium,plus,dotcolour,beta,,,66,19,V,R,
283,31,31,6,2,36,44,931,['n'],1,right,['0'],6,238,[-0.1371926],100,44,hard,plus,dotcolour,beta,,,66,19,V,R,
284,32,32,6,2,53,27,564,['c'],1,left,['0'],6,247,[0.09580878],100,53,easy,plus,dotcolour,beta,,,66,19,V,R,
285,33,33,6,2,27,53,616,['n'],1,right,['0'],6,270,[-0.18050101],100,53,easy,plus,dotcolour,beta,,,66,19,V,R,
286,34,34,6,2,44,36,764,['n'],0,left,['0'],6,374,[0.08983949],27,44,hard,plus,dotcolour,beta,,,66,19,V,R,
287,35,35,6,2,36,44,1132,['n'],1,right,['8'],4,379,[-0.00289309],85,44,hard,plus,dotcolour,beta,,,66,19,V,R,
288,36,36,6,2,47,33,1148,['c'],1,left,['9'],5,639,[0.20600668],100,47,medium,plus,dotcolour,beta,,,66,19,V,R,
289,37,37,6,2,27,53,665,['c'],0,right,['0'],6,227,[0.05584526],99,53,easy,plus,dotcolour,beta,,,66,19,V,R,
290,38,38,6,2,47,33,1215,['c'],1,left,['9'],5,1027,[0.42169521],100,47,medium,plus,dotcolour,beta,,,66,19,V,R,
291,39,39,6,2,53,27,1050,['c'],1,left,['0'],6,329,[0.12129938],100,53,easy,plus,dotcolour,beta,,,66,19,V,R,
292,40,40,6,2,36,44,849,['c'],0,right,['0'],6,380,[0.01232759],88,44,hard,plus,dotcolour,beta,,,66,19,V,R,
293,41,41,6,2,44,36,682,['c'],1,left,['9'],5,378,[0.1038601],99,44,hard,plus,dotcolour,beta,,,66,19,V,R,
294,42,0,7,2,53,27,767,['c'],1,left,['9'],5,354,[0.11255569],99,53,easy,plus,dotcolour,beta,,,66,19,V,R,
295,43,1,7,2,27,53,616,['n'],1,right,['0'],6,325,[-0.11313151],100,53,easy,plus,dotcolour,beta,,,66,19,V,R,
296,44,2,7,2,27,53,816,['n'],1,right,['9'],5,264,[-0.2076397],100,53,easy,plus,dotcolour,beta,,,66,19,V,R,
297,45,3,7,2,33,47,499,['n'],1,right,['8'],4,259,[-0.02579301],95,47,medium,plus,dotcolour,beta,,,66,19,V,R,
298,46,4,7,2,44,36,816,['c'],1,left,['8'],4,417,[0.10825905],99,44,hard,plus,dotcolour,beta,,,66,19,V,R,
299,47,5,7,2,53,27,648,['c'],1,left,['0'],6,432,[0.11194162],99,53,easy,plus,dotcolour,beta,,,66,19,V,R,
300,48,6,7,2,36,44,615,['c'],0,right,['9'],5,583,[0.03127307],89,44,hard,plus,dotcolour,beta,,,66,19,V,R,
301,49,7,7,2,27,53,333,['c'],0,right,['1'],1,1492,[-0.20071819],11,53,easy,plus,dotcolour,beta,,,66,19,V,R,
302,50,8,7,2,47,33,1032,['c'],1,left,['9'],5,391,[0.17997799],100,47,medium,plus,dotcolour,beta,,,66,19,V,R,
303,51,9,7,2,53,27,732,['c'],1,left,['9'],5,316,[0.12604423],100,53,easy,plus,dotcolour,beta,,,66,19,V,R,
304,52,10,7,2,47,33,583,['c'],1,left,['9'],5,273,[-0.00893522],83,47,medium,plus,dotcolour,beta,,,66,19,V,R,
305,53,11,7,2,53,27,847,['c'],1,left,['0'],6,1029,[0.24703048],100,53,easy,plus,dotcolour,beta,,,66,19,V,R,
306,54,12,7,2,27,53,631,['c'],0,right,['1'],1,1020,[-0.14450262],17,53,easy,plus,dotcolour,beta,,,66,19,V,R,
307,55,13,7,2,36,44,865,['c'],0,right,['9'],5,218,[0.14079765],100,44,hard,plus,dotcolour,beta,,,66,19,V,R,
308,56,14,7,2,53,27,882,['c'],1,left,['0'],6,903,[0.42937299],100,53,easy,plus,dotcolour,beta,,,66,19,V,R,
309,57,15,7,2,47,33,665,['c'],1,left,['0'],6,201,[0.1098389],100,47,medium,plus,dotcolour,beta,,,66,19,V,R,
310,58,16,7,2,33,47,699,['c'],0,right,['1'],1,1054,[-0.05710275],49,47,medium,plus,dotcolour,beta,,,66,19,V,R,
311,59,17,7,2,44,36,1197,['c'],1,left,['9'],5,420,[0.15627543],100,44,hard,plus,dotcolour,beta,,,66,19,V,R,
312,60,18,7,2,33,47,998,['n'],1,right,['9'],5,365,[-0.15836205],100,47,medium,plus,dotcolour,beta,,,66,19,V,R,
313,61,19,7,2,44,36,931,['c'],1,left,['9'],5,226,[0.13133116],100,44,hard,plus,dotcolour,beta,,,66,19,V,R,
314,62,20,7,2,47,33,1182,['c'],1,left,['0'],6,1035,[0.11449165],95,47,medium,plus,dotcolour,beta,,,66,19,V,R,
315,63,21,7,2,36,44,715,['n'],1,right,['9'],5,478,[0.06399288],45,44,hard,plus,dotcolour,beta,,,66,19,V,R,
316,64,22,7,2,53,27,1016,['c'],1,left,['9'],5,403,[0.023407],90,53,easy,plus,dotcolour,beta,,,66,19,V,R,
317,65,23,7,2,44,36,834,['c'],1,left,['9'],5,251,[0.13047211],100,44,hard,plus,dotcolour,beta,,,66,19,V,R,
318,66,24,7,2,44,36,1982,['c'],1,left,['0'],6,739,[-0.0290393],64,44,hard,plus,dotcolour,beta,,,66,19,V,R,
319,67,25,7,2,47,33,1182,['c'],1,left,['9'],5,295,[0.13081287],100,47,medium,plus,dotcolour,beta,,,66,19,V,R,
320,68,26,7,2,33,47,800,['c'],0,right,['9'],5,236,[0.10297069],100,47,medium,plus,dotcolour,beta,,,66,19,V,R,
321,69,27,7,2,44,36,684,['c'],1,left,['9'],5,176,[0.05788699],99,44,hard,plus,dotcolour,beta,,,66,19,V,R,
322,70,28,7,2,33,47,833,['c'],0,right,['9'],5,209,[0.01516549],94,47,medium,plus,dotcolour,beta,,,66,19,V,R,
323,71,29,7,2,36,44,982,['n'],1,right,['9'],5,322,[-0.08146236],99,44,hard,plus,dotcolour,beta,,,66,19,V,R,
324,72,30,7,2,27,53,1015,['n'],1,right,['9'],5,310,[-0.07816961],99,53,easy,plus,dotcolour,beta,,,66,19,V,R,
325,73,31,7,2,36,44,632,['n'],1,right,['9'],5,209,[-0.03665413],97,44,hard,plus,dotcolour,beta,,,66,19,V,R,
326,74,32,7,2,27,53,797,['n'],1,right,['9'],5,186,[-0.08834008],100,53,easy,plus,dotcolour,beta,,,66,19,V,R,
327,75,33,7,2,33,47,815,['c'],0,right,['9'],5,355,[-0.00594932],82,47,medium,plus,dotcolour,beta,,,66,19,V,R,
328,76,34,7,2,47,33,782,['c'],1,left,['8'],4,1910,[0.19207572],96,47,medium,plus,dotcolour,beta,,,66,19,V,R,
329,77,35,7,2,44,36,8965,['c'],1,left,['3'],3,573,[0.17877119],100,44,hard,plus,dotcolour,beta,,,66,19,V,R,
330,78,36,7,2,27,53,5114,['n'],1,right,['9'],5,746,[-0.23680839],100,53,easy,plus,dotcolour,beta,,,66,19,V,R,
331,79,37,7,2,33,47,832,['n'],1,right,['9'],5,276,[-0.03897317],96,47,medium,plus,dotcolour,beta,,,66,19,V,R,
332,80,38,7,2,47,33,682,['c'],1,left,['9'],5,318,[0.08636505],99,47,medium,plus,dotcolour,beta,,,66,19,V,R,
333,81,39,7,2,36,44,749,['c'],0,right,['9'],5,165,[0.1727069],100,44,hard,plus,dotcolour,beta,,,66,19,V,R,
334,82,40,7,2,36,44,614,['c'],0,right,['9'],5,174,[0.06941124],100,44,hard,plus,dotcolour,beta,,,66,19,V,R,
335,83,41,7,2,53,27,1182,['c'],1,left,['0'],6,705,[0.22815551],100,53,easy,plus,dotcolour,beta,,,66,19,V,R,
336,84,0,8,2,44,36,916,['c'],1,left,['9'],5,3547,[0.07556329],78,44,hard,plus,dotcolour,beta,,,66,19,V,R,
337,85,1,8,2,53,27,750,['c'],1,left,['9'],5,470,[0.10658776],99,53,easy,plus,dotcolour,beta,,,66,19,V,R,
338,86,2,8,2,36,44,630,['c'],0,right,['0'],6,331,[0.0487173],96,44,hard,plus,dotcolour,beta,,,66,19,V,R,
339,87,3,8,2,44,36,816,['c'],1,left,['0'],6,239,[0.06068482],99,44,hard,plus,dotcolour,beta,,,66,19,V,R,
340,88,4,8,2,47,33,766,['c'],1,left,['9'],5,712,[0.13264399],98,47,medium,plus,dotcolour,beta,,,66,19,V,R,
341,89,5,8,2,36,44,748,['c'],0,right,['8'],4,295,[0.14597957],100,44,hard,plus,dotcolour,beta,,,66,19,V,R,
342,90,6,8,2,47,33,650,['c'],1,left,['8'],4,242,[0.19392094],100,47,medium,plus,dotcolour,beta,,,66,19,V,R,
343,91,7,8,2,47,33,800,['c'],1,left,['9'],5,521,[0.03955795],91,47,medium,plus,dotcolour,beta,,,66,19,V,R,
344,92,8,8,2,36,44,1282,['n'],1,right,['8'],4,1186,[-0.0160423],77,44,hard,plus,dotcolour,beta,,,66,19,V,R,
345,93,9,8,2,53,27,949,['c'],1,left,['9'],5,318,[0.13427532],100,53,easy,plus,dotcolour,beta,,,66,19,V,R,
346,94,10,8,2,36,44,849,['n'],1,right,['9'],5,384,[-0.00202364],84,44,hard,plus,dotcolour,beta,,,66,19,V,R,
347,95,11,8,2,44,36,833,['c'],1,left,['9'],5,345,[0.08416209],99,44,hard,plus,dotcolour,beta,,,66,19,V,R,
348,96,12,8,2,36,44,1248,['n'],1,right,['9'],5,298,[-0.13275012],100,44,hard,plus,dotcolour,beta,,,66,19,V,R,
349,97,13,8,2,27,53,667,['c'],0,right,['9'],5,189,[0.07016373],99,53,easy,plus,dotcolour,beta,,,66,19,V,R,
350,98,14,8,2,47,33,781,['c'],1,left,['9'],5,352,[0.09778083],99,47,medium,plus,dotcolour,beta,,,66,19,V,R,
351,99,15,8,2,33,47,1397,['n'],1,right,['9'],5,427,[0.11073107],18,47,medium,plus,dotcolour,beta,,,66,19,V,R,
352,100,16,8,2,27,53,1314,['n'],1,right,['9'],5,486,[-0.12285597],99,53,easy,plus,dotcolour,beta,,,66,19,V,R,
353,101,17,8,2,33,47,1882,['c'],0,right,['9'],5,281,[0.06701025],98,47,medium,plus,dotcolour,beta,,,66,19,V,R,
354,102,18,8,2,33,47,566,['c'],0,right,['9'],5,256,[0.04979592],98,47,medium,plus,dotcolour,beta,,,66,19,V,R,
355,103,19,8,2,27,53,582,['c'],0,right,['9'],5,272,[0.07400672],99,53,easy,plus,dotcolour,beta,,,66,19,V,R,
356,104,20,8,2,27,53,648,['c'],0,right,['9'],5,204,[0.07098356],99,53,easy,plus,dotcolour,beta,,,66,19,V,R,
357,105,21,8,2,27,53,750,['c'],0,right,['9'],5,231,[-0.02444449],76,53,easy,plus,dotcolour,beta,,,66,19,V,R,
358,106,22,8,2,33,47,665,['c'],0,right,['9'],5,157,[-0.00662692],90,47,medium,plus,dotcolour,beta,,,66,19,V,R,
359,107,23,8,2,53,27,997,['c'],1,left,['0'],6,791,[0.24280643],100,53,easy,plus,dotcolour,beta,,,66,19,V,R,
360,108,24,8,2,47,33,932,['c'],1,left,['0'],6,211,[0.06147119],99,47,medium,plus,dotcolour,beta,,,66,19,V,R,
361,109,25,8,2,53,27,614,['c'],1,left,['0'],6,539,[0.11445754],98,53,easy,plus,dotcolour,beta,,,66,19,V,R,
362,110,26,8,2,36,44,765,['c'],0,right,['8'],4,240,[0.15733672],100,44,hard,plus,dotcolour,beta,,,66,19,V,R,
363,111,27,8,2,53,27,663,['c'],1,left,['9'],5,245,[0.08452774],99,53,easy,plus,dotcolour,beta,,,66,19,V,R,
364,112,28,8,2,33,47,1317,['n'],1,right,['9'],5,224,[-0.08490577],100,47,medium,plus,dotcolour,beta,,,66,19,V,R,
365,113,29,8,2,44,36,848,['c'],1,left,['9'],5,406,[0.10495234],99,44,hard,plus,dotcolour,beta,,,66,19,V,R,
366,114,30,8,2,27,53,883,['n'],1,right,['9'],5,299,[-0.15328741],100,53,easy,plus,dotcolour,beta,,,66,19,V,R,
367,115,31,8,2,44,36,782,['c'],1,left,['9'],5,289,[0.14764322],100,44,hard,plus,dotcolour,beta,,,66,19,V,R,
368,116,32,8,2,44,36,831,['c'],1,left,['9'],5,214,[0.06326954],99,44,hard,plus,dotcolour,beta,,,66,19,V,R,
369,117,33,8,2,36,44,566,['n'],1,right,['9'],5,288,[-0.04984217],97,44,hard,plus,dotcolour,beta,,,66,19,V,R,
370,118,34,8,2,33,47,667,['n'],1,right,['9'],5,171,[-0.06322781],99,47,medium,plus,dotcolour,beta,,,66,19,V,R,
371,119,35,8,2,27,53,933,['n'],1,right,['0'],6,329,[-0.11255427],99,53,easy,plus,dotcolour,beta,,,66,19,V,R,
372,120,36,8,2,33,47,1450,['n'],1,right,['8'],4,419,[0.00233539],81,47,medium,plus,dotcolour,beta,,,66,19,V,R,
373,121,37,8,2,53,27,1084,['c'],1,left,['9'],5,248,[0.13005752],100,53,easy,plus,dotcolour,beta,,,66,19,V,R,
374,122,38,8,2,47,33,650,['c'],1,left,['9'],5,221,[0.09332567],100,47,medium,plus,dotcolour,beta,,,66,19,V,R,
375,123,39,8,2,47,33,683,['c'],1,left,['8'],4,667,[0.15481944],99,47,medium,plus,dotcolour,beta,,,66,19,V,R,
376,124,40,8,2,53,27,801,['c'],1,left,['0'],6,602,[0.2336148],100,53,easy,plus,dotcolour,beta,,,66,19,V,R,
377,125,41,8,2,44,36,567,['c'],1,left,['0'],6,188,[0.04024816],98,44,hard,plus,dotcolour,beta,,,66,19,V,R,
378,0,0,9,3,44,36,4083,['c'],1,left,['9'],5,914,[0.10950185],73,44,hard,minus,dotcolour,beta,,,66,19,V,R,
379,1,1,9,3,53,27,598,['c'],1,left,['0'],6,462,[0.07885241],65,53,easy,minus,dotcolour,beta,,,66,19,V,R,
380,2,2,9,3,33,47,547,['n'],1,right,['0'],6,375,[0.0058477],14,47,medium,minus,dotcolour,beta,,,66,19,V,R,
381,3,3,9,3,47,33,615,['n'],0,left,['2'],2,1001,[0.06579806],10,47,medium,minus,dotcolour,beta,,,66,19,V,R,
382,4,4,9,3,47,33,6932,['c'],1,left,['8'],4,2532,[0.20983881],85,47,medium,minus,dotcolour,beta,,,66,19,V,R,
383,5,5,9,3,53,27,747,['c'],1,left,['9'],5,409,[0.19832727],98,53,easy,minus,dotcolour,beta,,,66,19,V,R,
384,6,6,9,3,33,47,782,['n'],1,right,['9'],5,314,[-0.11385608],87,47,medium,minus,dotcolour,beta,,,66,19,V,R,
385,7,7,9,3,47,33,732,['c'],1,left,['0'],6,354,[0.142701],93,47,medium,minus,dotcolour,beta,,,66,19,V,R,
386,8,8,9,3,36,44,1567,['c'],0,right,['8'],4,374,[0.11515259],85,44,hard,minus,dotcolour,beta,,,66,19,V,R,
387,9,9,9,3,33,47,847,['n'],1,right,['9'],5,758,[-0.13398129],83,47,medium,minus,dotcolour,beta,,,66,19,V,R,
388,10,10,9,3,44,36,833,['n'],0,left,['9'],5,463,[-0.05343512],49,44,hard,minus,dotcolour,beta,,,66,19,V,R,
389,11,11,9,3,33,47,1166,['n'],1,right,['0'],6,375,[-0.01487903],23,47,medium,minus,dotcolour,beta,,,66,19,V,R,
390,12,12,9,3,53,27,1666,['c'],1,left,['8'],4,446,[0.09672626],75,53,easy,minus,dotcolour,beta,,,66,19,V,R,
391,13,13,9,3,47,33,580,['c'],1,left,['9'],5,294,[-0.02246646],7,47,medium,minus,dotcolour,beta,,,66,19,V,R,
392,14,14,9,3,44,36,765,['c'],1,left,['9'],5,438,[0.19172155],98,44,hard,minus,dotcolour,beta,,,66,19,V,R,
393,15,15,9,3,27,53,582,['n'],1,right,['0'],6,317,[-0.2009284],99,53,easy,minus,dotcolour,beta,,,66,19,V,R,
394,16,16,9,3,36,44,833,['n'],1,right,['0'],6,273,[-0.0539644],49,44,hard,minus,dotcolour,beta,,,66,19,V,R,
395,17,17,9,3,47,33,1016,['c'],1,left,['9'],5,494,[0.05476247],49,47,medium,minus,dotcolour,beta,,,66,19,V,R,
396,18,18,9,3,33,47,764,['c'],0,right,['8'],4,285,[0.04168102],39,47,medium,minus,dotcolour,beta,,,66,19,V,R,
397,19,19,9,3,36,44,633,['n'],1,right,['9'],5,225,[-0.06938654],63,44,hard,minus,dotcolour,beta,,,66,19,V,R,
398,20,20,9,3,36,44,1016,['n'],1,right,['9'],5,264,[-0.11531021],89,44,hard,minus,dotcolour,beta,,,66,19,V,R,
399,21,21,9,3,27,53,633,['n'],1,right,['9'],5,238,[-0.13678754],95,53,easy,minus,dotcolour,beta,,,66,19,V,R,
400,22,22,9,3,27,53,614,['n'],1,right,['9'],5,268,[-0.10644304],85,53,easy,minus,dotcolour,beta,,,66,19,V,R,
401,23,23,9,3,36,44,1566,['n'],1,right,['9'],5,341,[-0.16037216],96,44,hard,minus,dotcolour,beta,,,66,19,V,R,
402,24,24,9,3,53,27,715,['c'],1,left,['0'],6,811,[0.13389786],83,53,easy,minus,dotcolour,beta,,,66,19,V,R,
403,25,25,9,3,47,33,682,['c'],1,left,['0'],6,177,[0.10875164],91,47,medium,minus,dotcolour,beta,,,66,19,V,R,
404,26,26,9,3,36,44,615,['n'],1,right,['9'],5,282,[-0.09092404],77,44,hard,minus,dotcolour,beta,,,66,19,V,R,
405,27,27,9,3,27,53,815,['n'],1,right,['9'],5,608,[-0.16098918],92,53,easy,minus,dotcolour,beta,,,66,19,V,R,
406,28,28,9,3,44,36,731,['n'],0,left,['3'],3,1131,[0.01112533],24,44,hard,minus,dotcolour,beta,,,66,19,V,R,
407,29,29,9,3,53,27,1049,['c'],1,left,['9'],5,557,[0.23006769],99,53,easy,minus,dotcolour,beta,,,66,19,V,R,
408,30,30,9,3,53,27,730,['c'],1,left,['9'],5,178,[0.08877959],80,53,easy,minus,dotcolour,beta,,,66,19,V,R,
409,31,31,9,3,27,53,832,['n'],1,right,['0'],6,547,[-0.2232685],98,53,easy,minus,dotcolour,beta,,,66,19,V,R,
410,32,32,9,3,33,47,1216,['n'],1,right,['9'],5,293,[-0.17195924],98,47,medium,minus,dotcolour,beta,,,66,19,V,R,
411,33,33,9,3,33,47,933,['n'],1,right,['9'],5,246,[-0.06993014],63,47,medium,minus,dotcolour,beta,,,66,19,V,R,
412,34,34,9,3,53,27,965,['c'],1,left,['0'],6,270,[0.03281971],31,53,easy,minus,dotcolour,beta,,,66,19,V,R,
413,35,35,9,3,47,33,999,['c'],1,left,['8'],4,637,[0.17866529],94,47,medium,minus,dotcolour,beta,,,66,19,V,R,
414,36,36,9,3,44,36,646,['c'],1,left,['8'],4,194,[0.00792687],12,44,hard,minus,dotcolour,beta,,,66,19,V,R,
415,37,37,9,3,44,36,782,['c'],1,left,['9'],5,452,[0.09518129],74,44,hard,minus,dotcolour,beta,,,66,19,V,R,
416,38,38,9,3,44,36,716,['c'],1,left,['8'],4,415,[0.10677241],81,44,hard,minus,dotcolour,beta,,,66,19,V,R,
417,39,39,9,3,36,44,898,['c'],0,right,['9'],5,339,[-0.08268739],1,44,hard,minus,dotcolour,beta,,,66,19,V,R,
418,40,40,9,3,27,53,948,['n'],1,right,['0'],6,385,[-0.07288287],62,53,easy,minus,dotcolour,beta,,,66,19,V,R,
419,41,41,9,3,27,53,1098,['n'],1,right,['9'],5,271,[-0.11329778],88,53,easy,minus,dotcolour,beta,,,66,19,V,R,
420,42,0,10,3,27,53,833,['n'],1,right,['9'],5,270,[-0.08434478],73,53,easy,minus,dotcolour,beta,,,66,19,V,R,
421,43,1,10,3,33,47,666,['n'],1,right,['9'],5,258,[-0.08295451],73,47,medium,minus,dotcolour,beta,,,66,19,V,R,
422,44,2,10,3,36,44,666,['n'],1,right,['9'],5,245,[-0.09729968],82,44,hard,minus,dotcolour,beta,,,66,19,V,R,
423,45,3,10,3,36,44,933,['n'],1,right,['8'],4,512,[-0.04312095],42,44,hard,minus,dotcolour,beta,,,66,19,V,R,
424,46,4,10,3,33,47,849,['n'],1,right,['9'],5,610,[-0.17378506],94,47,medium,minus,dotcolour,beta,,,66,19,V,R,
425,47,5,10,3,53,27,481,['c'],1,left,['0'],6,560,[0.11609493],81,53,easy,minus,dotcolour,beta,,,66,19,V,R,
426,48,6,10,3,36,44,881,['c'],0,right,['9'],5,519,[0.02680281],33,44,hard,minus,dotcolour,beta,,,66,19,V,R,
427,49,7,10,3,27,53,614,['n'],1,right,['9'],5,267,[-0.09494617],80,53,easy,minus,dotcolour,beta,,,66,19,V,R,
428,50,8,10,3,44,36,733,['c'],1,left,['9'],5,276,[0.07926867],69,44,hard,minus,dotcolour,beta,,,66,19,V,R,
429,51,9,10,3,53,27,816,['c'],1,left,['9'],5,394,[0.09126575],74,53,easy,minus,dotcolour,beta,,,66,19,V,R,
430,52,10,10,3,33,47,683,['n'],1,right,['9'],5,335,[-0.09831101],79,47,medium,minus,dotcolour,beta,,,66,19,V,R,
431,53,11,10,3,53,27,716,['c'],1,left,['9'],5,335,[0.13749056],93,53,easy,minus,dotcolour,beta,,,66,19,V,R,
432,54,12,10,3,27,53,1165,['n'],1,right,['9'],5,348,[-0.08148271],69,53,easy,minus,dotcolour,beta,,,66,19,V,R,
433,55,13,10,3,27,53,799,['c'],0,right,['9'],5,271,[0.02840644],28,53,easy,minus,dotcolour,beta,,,66,19,V,R,
434,56,14,10,3,44,36,683,['c'],1,left,['9'],5,387,[0.20498239],99,44,hard,minus,dotcolour,beta,,,66,19,V,R,
435,57,15,10,3,47,33,600,['c'],1,left,['9'],5,260,[0.19138883],99,47,medium,minus,dotcolour,beta,,,66,19,V,R,
436,58,16,10,3,47,33,599,['c'],1,left,['9'],5,243,[0.1016741],84,47,medium,minus,dotcolour,beta,,,66,19,V,R,
437,59,17,10,3,53,27,2266,['n'],0,left,['9'],5,672,[0.15078171],1,53,easy,minus,dotcolour,beta,,,66,19,V,R,
438,60,18,10,3,36,44,682,['n'],1,right,['9'],5,267,[-0.11539432],89,44,hard,minus,dotcolour,beta,,,66,19,V,R,
439,61,19,10,3,44,36,632,['c'],1,left,['9'],5,239,[0.11479313],90,44,hard,minus,dotcolour,beta,,,66,19,V,R,
440,62,20,10,3,36,44,616,['c'],0,right,['9'],5,231,[0.06689256],60,44,hard,minus,dotcolour,beta,,,66,19,V,R,
441,63,21,10,3,36,44,715,['c'],0,right,['9'],5,170,[0.00586747],10,44,hard,minus,dotcolour,beta,,,66,19,V,R,
442,64,22,10,3,44,36,749,['n'],0,left,['9'],5,215,[-0.08075061],73,44,hard,minus,dotcolour,beta,,,66,19,V,R,
443,65,23,10,3,33,47,481,['c'],0,right,['9'],5,260,[0.0080309],16,47,medium,minus,dotcolour,beta,,,66,19,V,R,
444,66,24,10,3,44,36,949,['n'],0,left,['8'],4,517,[-0.0194778],29,44,hard,minus,dotcolour,beta,,,66,19,V,R,
445,67,25,10,3,47,33,515,['c'],1,left,['8'],4,189,[0.07893761],72,47,medium,minus,dotcolour,beta,,,66,19,V,R,
446,68,26,10,3,33,47,599,['n'],1,right,['8'],4,230,[-0.1445668],97,47,medium,minus,dotcolour,beta,,,66,19,V,R,
447,69,27,10,3,47,33,1465,['c'],1,left,['8'],4,155,[0.08151987],77,47,medium,minus,dotcolour,beta,,,66,19,V,R,
448,70,28,10,3,47,33,548,['n'],0,left,['8'],4,328,[-0.09527625],78,47,medium,minus,dotcolour,beta,,,66,19,V,R,
449,71,29,10,3,33,47,966,['c'],0,right,['8'],4,157,[0.04412015],37,47,medium,minus,dotcolour,beta,,,66,19,V,R,
450,72,30,10,3,53,27,983,['c'],1,left,['9'],5,177,[0.10909977],91,53,easy,minus,dotcolour,beta,,,66,19,V,R,
451,73,31,10,3,27,53,866,['n'],1,right,['9'],5,160,[-0.11774301],94,53,easy,minus,dotcolour,beta,,,66,19,V,R,
452,74,32,10,3,47,33,850,['c'],1,left,['0'],6,241,[0.09119728],79,47,medium,minus,dotcolour,beta,,,66,19,V,R,
453,75,33,10,3,27,53,848,['n'],1,right,['9'],5,206,[-0.16334451],99,53,easy,minus,dotcolour,beta,,,66,19,V,R,
454,76,34,10,3,27,53,798,['n'],1,right,['9'],5,335,[-0.14850337],95,53,easy,minus,dotcolour,beta,,,66,19,V,R,
455,77,35,10,3,47,33,798,['c'],1,left,['0'],6,379,[0.09391606],75,47,medium,minus,dotcolour,beta,,,66,19,V,R,
456,78,36,10,3,33,47,665,['n'],1,right,['9'],5,186,[-0.06809847],63,47,medium,minus,dotcolour,beta,,,66,19,V,R,
457,79,37,10,3,44,36,680,['c'],1,left,['9'],5,265,[0.12973546],93,44,hard,minus,dotcolour,beta,,,66,19,V,R,
458,80,38,10,3,36,44,915,['n'],1,right,['9'],5,259,[-0.0922665],79,44,hard,minus,dotcolour,beta,,,66,19,V,R,
459,81,39,10,3,44,36,766,['c'],1,left,['9'],5,371,[0.05605369],50,44,hard,minus,dotcolour,beta,,,66,19,V,R,
460,82,40,10,3,53,27,899,['c'],1,left,['9'],5,434,[0.19110362],98,53,easy,minus,dotcolour,beta,,,66,19,V,R,
461,83,41,10,3,53,27,697,['c'],1,left,['0'],6,309,[0.17339722],98,53,easy,minus,dotcolour,beta,,,66,19,V,R,
462,84,0,11,3,47,33,866,['c'],1,left,['9'],5,290,[0.1200908],90,47,medium,minus,dotcolour,beta,,,66,19,V,R,
463,85,1,11,3,53,27,416,['c'],1,left,['9'],5,239,[0.1374584],95,53,easy,minus,dotcolour,beta,,,66,19,V,R,
464,86,2,11,3,33,47,815,['n'],1,right,['9'],5,326,[-0.04364709],41,47,medium,minus,dotcolour,beta,,,66,19,V,R,
465,87,3,11,3,47,33,1048,['c'],1,left,['8'],4,392,[0.00286414],18,47,medium,minus,dotcolour,beta,,,66,19,V,R,
466,88,4,11,3,27,53,582,['n'],1,right,['9'],5,242,[-0.06941308],62,53,easy,minus,dotcolour,beta,,,66,19,V,R,
467,89,5,11,3,44,36,632,['c'],1,left,['0'],6,592,[0.17832861],95,44,hard,minus,dotcolour,beta,,,66,19,V,R,
468,90,6,11,3,27,53,763,['n'],1,right,['0'],6,219,[-0.13495458],95,53,easy,minus,dotcolour,beta,,,66,19,V,R,
469,91,7,11,3,33,47,1499,['n'],1,right,['8'],4,400,[-0.06472198],56,47,medium,minus,dotcolour,beta,,,66,19,V,R,
470,92,8,11,3,27,53,865,['n'],1,right,['9'],5,231,[-0.09548748],82,53,easy,minus,dotcolour,beta,,,66,19,V,R,
471,93,9,11,3,53,27,1065,['c'],1,left,['0'],6,604,[0.16563862],93,53,easy,minus,dotcolour,beta,,,66,19,V,R,
472,94,10,11,3,33,47,1066,['n'],1,right,['0'],6,242,[-0.11861907],91,47,medium,minus,dotcolour,beta,,,66,19,V,R,
473,95,11,11,3,36,44,665,['n'],1,right,['0'],6,223,[-0.07546567],68,44,hard,minus,dotcolour,beta,,,66,19,V,R,
474,96,12,11,3,53,27,682,['n'],0,left,['1'],1,923,[0.01087826],22,53,easy,minus,dotcolour,beta,,,66,19,V,R,
475,97,13,11,3,47,33,1232,['c'],1,left,['0'],6,630,[0.01673995],29,47,medium,minus,dotcolour,beta,,,66,19,V,R,
476,98,14,11,3,53,27,783,['c'],1,left,['0'],6,551,[0.08782743],69,53,easy,minus,dotcolour,beta,,,66,19,V,R,
477,99,15,11,3,47,33,815,['c'],1,left,['0'],6,169,[0.07467262],70,47,medium,minus,dotcolour,beta,,,66,19,V,R,
478,100,16,11,3,36,44,1615,['c'],0,right,['9'],5,571,[0.11770762],81,44,hard,minus,dotcolour,beta,,,66,19,V,R,
479,101,17,11,3,44,36,981,['c'],1,left,['9'],5,357,[0.08788098],73,44,hard,minus,dotcolour,beta,,,66,19,V,R,
480,102,18,11,3,36,44,1999,['c'],0,right,['8'],4,440,[0.01216806],24,44,hard,minus,dotcolour,beta,,,66,19,V,R,
481,103,19,11,3,33,47,899,['n'],1,right,['8'],4,371,[-0.17320423],97,47,medium,minus,dotcolour,beta,,,66,19,V,R,
482,104,20,11,3,36,44,799,['n'],1,right,['8'],4,302,[-0.14564828],95,44,hard,minus,dotcolour,beta,,,66,19,V,R,
483,105,21,11,3,44,36,630,['c'],1,left,['9'],5,361,[0.04304908],41,44,hard,minus,dotcolour,beta,,,66,19,V,R,
484,106,22,11,3,33,47,982,['n'],1,right,['8'],4,309,[-0.05950493],53,47,medium,minus,dotcolour,beta,,,66,19,V,R,
485,107,23,11,3,36,44,767,['c'],0,right,['8'],4,235,[0.11451327],90,44,hard,minus,dotcolour,beta,,,66,19,V,R,
486,108,24,11,3,27,53,615,['n'],1,right,['8'],4,170,[-0.10189617],88,53,easy,minus,dotcolour,beta,,,66,19,V,R,
487,109,25,11,3,33,47,549,['c'],0,right,['9'],5,206,[0.06331799],58,47,medium,minus,dotcolour,beta,,,66,19,V,R,
488,110,26,11,3,33,47,616,['n'],1,right,['8'],4,159,[-0.12964982],97,47,medium,minus,dotcolour,beta,,,66,19,V,R,
489,111,27,11,3,27,53,532,['c'],0,right,['8'],4,197,[0.02732594],24,53,easy,minus,dotcolour,beta,,,66,19,V,R,
490,112,28,11,3,27,53,597,['c'],0,right,['8'],4,206,[0.0990781],85,53,easy,minus,dotcolour,beta,,,66,19,V,R,
491,113,29,11,3,36,44,630,['c'],0,right,['8'],4,189,[0.04782409],42,44,hard,minus,dotcolour,beta,,,66,19,V,R,
492,114,30,11,3,44,36,817,['c'],1,left,['9'],5,535,[0.08112635],65,44,hard,minus,dotcolour,beta,,,66,19,V,R,
493,115,31,11,3,47,33,900,['c'],1,left,['9'],5,223,[0.00343949],12,47,medium,minus,dotcolour,beta,,,66,19,V,R,
494,116,32,11,3,27,53,817,['n'],1,right,['9'],5,263,[-0.13429796],94,53,easy,minus,dotcolour,beta,,,66,19,V,R,
495,117,33,11,3,53,27,1001,['c'],1,left,['9'],5,205,[0.07473481],68,53,easy,minus,dotcolour,beta,,,66,19,V,R,
496,118,34,11,3,44,36,984,['n'],0,left,['9'],5,232,[-0.04045372],36,44,hard,minus,dotcolour,beta,,,66,19,V,R,
497,119,35,11,3,53,27,734,['c'],1,left,['9'],5,178,[0.05952426],54,53,easy,minus,dotcolour,beta,,,66,19,V,R,
498,120,36,11,3,47,33,833,['c'],1,left,['9'],5,163,[0.0466019],40,47,medium,minus,dotcolour,beta,,,66,19,V,R,
499,121,37,11,3,47,33,1167,['c'],1,left,['9'],5,231,[0.0782219],70,47,medium,minus,dotcolour,beta,,,66,19,V,R,
500,122,38,11,3,44,36,1067,['c'],1,left,['8'],4,444,[0.04326427],42,44,hard,minus,dotcolour,beta,,,66,19,V,R,
501,123,39,11,3,44,36,1283,['c'],1,left,['0'],6,296,[0.0652007],58,44,hard,minus,dotcolour,beta,,,66,19,V,R,
502,124,40,11,3,53,27,834,['n'],0,left,['9'],5,372,[0.07193285],2,53,easy,minus,dotcolour,beta,,,66,19,V,R,
503,125,41,11,3,36,44,1165,['n'],1,right,['8'],4,376,[-0.12146519],87,44,hard,minus,dotcolour,beta,,,66,19,V,R,
504,0,0,12,4,47,33,900,['c'],1,left,['9'],5,168,[0.09415933],100,47,medium,plus,dotcolour,beta,,,66,19,V,R,
505,1,1,12,4,33,47,716,['n'],1,right,['9'],5,206,[-0.06429372],99,47,medium,plus,dotcolour,beta,,,66,19,V,R,
506,2,2,12,4,36,44,733,['n'],1,right,['9'],5,210,[-0.03890398],98,44,hard,plus,dotcolour,beta,,,66,19,V,R,
507,3,3,12,4,36,44,934,['n'],1,right,['9'],5,205,[-0.09248243],100,44,hard,plus,dotcolour,beta,,,66,19,V,R,
508,4,4,12,4,53,27,634,['c'],1,left,['0'],6,933,[0.08994621],94,53,easy,plus,dotcolour,beta,,,66,19,V,R,
509,5,5,12,4,36,44,633,['c'],0,right,['0'],6,152,[0.06726622],100,44,hard,plus,dotcolour,beta,,,66,19,V,R,
510,6,6,12,4,53,27,699,['c'],1,left,['0'],6,111,[0.08984544],100,53,easy,plus,dotcolour,beta,,,66,19,V,R,
511,7,7,12,4,27,53,834,['n'],1,right,['0'],6,186,[-0.08478548],100,53,easy,plus,dotcolour,beta,,,66,19,V,R,
512,8,8,12,4,27,53,549,['n'],1,right,['0'],6,166,[-0.09237211],100,53,easy,plus,dotcolour,beta,,,66,19,V,R,
513,9,9,12,4,44,36,848,['c'],1,left,['8'],4,319,[0.03850018],95,44,hard,plus,dotcolour,beta,,,66,19,V,R,
514,10,10,12,4,33,47,699,['n'],1,right,['0'],6,184,[-0.14438929],100,47,medium,plus,dotcolour,beta,,,66,19,V,R,
515,11,11,12,4,47,33,848,['c'],1,left,['0'],6,167,[0.06837208],100,47,medium,plus,dotcolour,beta,,,66,19,V,R,
516,12,12,12,4,44,36,1214,['n'],0,left,['0'],6,249,[-0.07091209],99,44,hard,plus,dotcolour,beta,,,66,19,V,R,
517,13,13,12,4,53,27,949,['c'],1,left,['0'],6,163,[0.11714495],100,53,easy,plus,dotcolour,beta,,,66,19,V,R,
518,14,14,12,4,33,47,900,['n'],1,right,['1'],1,4961,[-0.78312115],100,47,medium,plus,dotcolour,beta,,,66,19,V,R,
519,15,15,12,4,27,53,2565,['c'],0,right,['9'],5,628,[-0.01312014],72,53,easy,plus,dotcolour,beta,,,66,19,V,R,
520,16,16,12,4,33,47,1398,['n'],1,right,['9'],5,700,[-0.1696626],99,47,medium,plus,dotcolour,beta,,,66,19,V,R,
521,17,17,12,4,33,47,849,['n'],1,right,['9'],5,319,[0.00087636],85,47,medium,plus,dotcolour,beta,,,66,19,V,R,
522,18,18,12,4,47,33,630,['n'],0,left,['9'],5,154,[-0.06179183],100,47,medium,plus,dotcolour,beta,,,66,19,V,R,
523,19,19,12,4,27,53,567,['c'],0,right,['2'],2,1303,[-0.18334491],12,53,easy,plus,dotcolour,beta,,,66,19,V,R,
524,20,20,12,4,47,33,832,['c'],1,left,['9'],5,338,[0.13213514],100,47,medium,plus,dotcolour,beta,,,66,19,V,R,
525,21,21,12,4,36,44,1583,['n'],1,right,['9'],5,206,[-0.11970266],100,44,hard,plus,dotcolour,beta,,,66,19,V,R,
526,22,22,12,4,44,36,700,['n'],0,left,['9'],5,244,[-0.00951816],91,44,hard,plus,dotcolour,beta,,,66,19,V,R,
527,23,23,12,4,47,33,750,['c'],1,left,['9'],5,214,[0.06963076],99,47,medium,plus,dotcolour,beta,,,66,19,V,R,
528,24,24,12,4,53,27,1033,['c'],1,left,['8'],4,1133,[0.31639713],100,53,easy,plus,dotcolour,beta,,,66,19,V,R,
529,25,25,12,4,27,53,699,['n'],1,right,['0'],6,380,[-0.08296931],98,53,easy,plus,dotcolour,beta,,,66,19,V,R,
530,26,26,12,4,44,36,665,['c'],1,left,['0'],6,387,[0.05294414],96,44,hard,plus,dotcolour,beta,,,66,19,V,R,
531,27,27,12,4,36,44,815,['n'],1,right,['8'],4,277,[-0.14940866],100,44,hard,plus,dotcolour,beta,,,66,19,V,R,
532,28,28,12,4,36,44,1283,['n'],1,right,['8'],4,175,[-0.11492786],100,44,hard,plus,dotcolour,beta,,,66,19,V,R,
533,29,29,12,4,36,44,616,['n'],1,right,['8'],4,137,[-0.09726952],100,44,hard,plus,dotcolour,beta,,,66,19,V,R,
534,30,30,12,4,53,27,783,['c'],1,left,['0'],6,461,[0.18429541],100,53,easy,plus,dotcolour,beta,,,66,19,V,R,
535,31,31,12,4,33,47,681,['n'],1,right,['8'],4,113,[-0.04019745],99,47,medium,plus,dotcolour,beta,,,66,19,V,R,
536,32,32,12,4,53,27,800,['c'],1,left,['0'],6,189,[0.11805691],100,53,easy,plus,dotcolour,beta,,,66,19,V,R,
537,33,33,12,4,27,53,931,['n'],1,right,['0'],6,194,[-0.13786863],100,53,easy,plus,dotcolour,beta,,,66,19,V,R,
538,34,34,12,4,33,47,917,['c'],0,right,['0'],6,239,[0.09507722],100,47,medium,plus,dotcolour,beta,,,66,19,V,R,
539,35,35,12,4,44,36,750,['c'],1,left,['0'],6,400,[0.1098806],99,44,hard,plus,dotcolour,beta,,,66,19,V,R,
540,36,36,12,4,53,27,682,['c'],1,left,['0'],6,286,[0.06373771],98,53,easy,plus,dotcolour,beta,,,66,19,V,R,
541,37,37,12,4,47,33,832,['c'],1,left,['8'],4,283,[0.16175605],100,47,medium,plus,dotcolour,beta,,,66,19,V,R,
542,38,38,12,4,27,53,815,['n'],1,right,['9'],5,424,[-0.1082743],99,53,easy,plus,dotcolour,beta,,,66,19,V,R,
543,39,39,12,4,44,36,649,['c'],1,left,['8'],4,285,[0.16636789],100,44,hard,plus,dotcolour,beta,,,66,19,V,R,
544,40,40,12,4,44,36,1063,['c'],1,left,['9'],5,241,[0.13296073],100,44,hard,plus,dotcolour,beta,,,66,19,V,R,
545,41,41,12,4,47,33,682,['c'],1,left,['9'],5,181,[0.05849959],99,47,medium,plus,dotcolour,beta,,,66,19,V,R,
546,42,0,13,4,27,53,850,['n'],1,right,['8'],4,135,[-0.05035629],99,53,easy,plus,dotcolour,beta,,,66,19,V,R,
547,43,1,13,4,47,33,681,['c'],1,left,['9'],5,175,[0.03292305],98,47,medium,plus,dotcolour,beta,,,66,19,V,R,
548,44,2,13,4,33,47,749,['n'],1,right,['9'],5,123,[-0.13844609],100,47,medium,plus,dotcolour,beta,,,66,19,V,R,
549,45,3,13,4,36,44,667,['c'],0,right,['9'],5,125,[-0.00040987],94,44,hard,plus,dotcolour,beta,,,66,19,V,R,
550,46,4,13,4,27,53,767,['n'],1,right,['8'],4,306,[-0.11753193],100,53,easy,plus,dotcolour,beta,,,66,19,V,R,
551,47,5,13,4,47,33,800,['c'],1,left,['9'],5,224,[0.11346813],100,47,medium,plus,dotcolour,beta,,,66,19,V,R,
552,48,6,13,4,27,53,583,['c'],0,right,['9'],5,336,[0.02594045],93,53,easy,plus,dotcolour,beta,,,66,19,V,R,
553,49,7,13,4,47,33,548,['n'],0,left,['2'],2,926,[0.06718151],45,47,medium,plus,dotcolour,beta,,,66,19,V,R,
554,50,8,13,4,27,53,682,['n'],1,right,['9'],5,198,[-0.00780061],93,53,easy,plus,dotcolour,beta,,,66,19,V,R,
555,51,9,13,4,44,36,666,['c'],1,left,['0'],6,645,[0.00955534],81,44,hard,plus,dotcolour,beta,,,66,19,V,R,
556,52,10,13,4,36,44,649,['c'],0,right,['0'],6,210,[0.14189023],100,44,hard,plus,dotcolour,beta,,,66,19,V,R,
557,53,11,13,4,53,27,1148,['c'],1,left,['8'],4,509,[0.09918004],98,53,easy,plus,dotcolour,beta,,,66,19,V,R,
558,54,12,13,4,53,27,683,['c'],1,left,['9'],5,383,[0.19671288],100,53,easy,plus,dotcolour,beta,,,66,19,V,R,
559,55,13,13,4,33,47,931,['n'],1,right,['9'],5,330,[-0.05634128],97,47,medium,plus,dotcolour,beta,,,66,19,V,R,
560,56,14,13,4,53,27,948,['c'],1,left,['0'],6,697,[0.16467102],99,53,easy,plus,dotcolour,beta,,,66,19,V,R,
561,57,15,13,4,44,36,564,['c'],1,left,['0'],6,176,[0.12337466],100,44,hard,plus,dotcolour,beta,,,66,19,V,R,
562,58,16,13,4,33,47,864,['n'],1,right,['0'],6,222,[-0.13426944],100,47,medium,plus,dotcolour,beta,,,66,19,V,R,
563,59,17,13,4,27,53,648,['n'],1,right,['0'],6,285,[-0.19095711],100,53,easy,plus,dotcolour,beta,,,66,19,V,R,
564,60,18,13,4,47,33,783,['c'],1,left,['9'],5,220,[0.05102468],98,47,medium,plus,dotcolour,beta,,,66,19,V,R,
565,61,19,13,4,36,44,715,['c'],0,right,['8'],4,184,[0.04940188],99,44,hard,plus,dotcolour,beta,,,66,19,V,R,
566,62,20,13,4,36,44,948,['c'],0,right,['9'],5,259,[0.01941658],93,44,hard,plus,dotcolour,beta,,,66,19,V,R,
567,63,21,13,4,53,27,665,['c'],1,left,['0'],6,487,[0.15628188],100,53,easy,plus,dotcolour,beta,,,66,19,V,R,
568,64,22,13,4,33,47,1498,['n'],1,right,['8'],4,297,[-0.02014298],92,47,medium,plus,dotcolour,beta,,,66,19,V,R,
569,65,23,13,4,33,47,949,['c'],0,right,['8'],4,240,[-0.02302874],77,47,medium,plus,dotcolour,beta,,,66,19,V,R,
570,66,24,13,4,44,36,765,['c'],1,left,['9'],5,322,[0.12116275],100,44,hard,plus,dotcolour,beta,,,66,19,V,R,
571,67,25,13,4,36,44,699,['c'],0,right,['9'],5,338,[0.14322647],100,44,hard,plus,dotcolour,beta,,,66,19,V,R,
572,68,26,13,4,44,36,699,['c'],1,left,['8'],4,186,[0.06639979],99,44,hard,plus,dotcolour,beta,,,66,19,V,R,
573,69,27,13,4,33,47,714,['c'],0,right,['8'],4,152,[0.06977868],100,47,medium,plus,dotcolour,beta,,,66,19,V,R,
574,70,28,13,4,27,53,733,['n'],1,right,['9'],5,270,[-0.0961331],99,53,easy,plus,dotcolour,beta,,,66,19,V,R,
575,71,29,13,4,53,27,783,['c'],1,left,['9'],5,389,[0.07572283],98,53,easy,plus,dotcolour,beta,,,66,19,V,R,
576,72,30,13,4,47,33,582,['c'],1,left,['0'],6,1511,[0.35288292],100,47,medium,plus,dotcolour,beta,,,66,19,V,R,
577,73,31,13,4,27,53,917,['n'],1,right,['0'],6,303,[-0.13746596],100,53,easy,plus,dotcolour,beta,,,66,19,V,R,
578,74,32,13,4,44,36,697,['c'],1,left,['9'],5,232,[0.10473998],100,44,hard,plus,dotcolour,beta,,,66,19,V,R,
579,75,33,13,4,36,44,1099,['c'],0,right,['8'],4,236,[0.13685056],100,44,hard,plus,dotcolour,beta,,,66,19,V,R,
580,76,34,13,4,53,27,815,['c'],1,left,['9'],5,156,[0.10822037],100,53,easy,plus,dotcolour,beta,,,66,19,V,R,
581,77,35,13,4,47,33,550,['c'],1,left,['9'],5,145,[0.11118118],100,47,medium,plus,dotcolour,beta,,,66,19,V,R,
582,78,36,13,4,53,27,1034,['c'],1,left,['0'],6,139,[0.13770252],100,53,easy,plus,dotcolour,beta,,,66,19,V,R,
583,79,37,13,4,36,44,548,['c'],0,right,['0'],6,145,[0.00588809],95,44,hard,plus,dotcolour,beta,,,66,19,V,R,
584,80,38,13,4,44,36,382,['n'],0,left,['9'],5,229,[-0.05377692],98,44,hard,plus,dotcolour,beta,,,66,19,V,R,
585,81,39,13,4,44,36,765,['n'],0,left,['8'],4,295,[-0.08686895],99,44,hard,plus,dotcolour,beta,,,66,19,V,R,
586,82,40,13,4,47,33,516,['c'],1,left,['0'],6,751,[0.15750567],99,47,medium,plus,dotcolour,beta,,,66,19,V,R,
587,83,41,13,4,33,47,666,['c'],0,right,['0'],6,200,[0.06103841],99,47,medium,plus,dotcolour,beta,,,66,19,V,R,
588,84,0,14,4,44,36,632,['c'],1,left,['9'],5,299,[0.02030347],92,44,hard,plus,dotcolour,beta,,,66,19,V,R,
589,85,1,14,4,53,27,614,['n'],0,left,['2'],2,872,[0.04302108],56,53,easy,plus,dotcolour,beta,,,66,19,V,R,
590,86,2,14,4,47,33,716,['c'],1,left,['9'],5,169,[0.06838236],100,47,medium,plus,dotcolour,beta,,,66,19,V,R,
591,87,3,14,4,44,36,582,['c'],1,left,['9'],5,172,[0.05793803],99,44,hard,plus,dotcolour,beta,,,66,19,V,R,
592,88,4,14,4,33,47,1032,['n'],1,right,['0'],6,166,[-0.12750652],100,47,medium,plus,dotcolour,beta,,,66,19,V,R,
593,89,5,14,4,33,47,798,['n'],1,right,['9'],5,192,[0.01633083],83,47,medium,plus,dotcolour,beta,,,66,19,V,R,
594,90,6,14,4,44,36,1132,['c'],1,left,['0'],6,356,[-0.05998567],47,44,hard,plus,dotcolour,beta,,,66,19,V,R,
595,91,7,14,4,33,47,698,['n'],1,right,['0'],6,275,[-0.07596593],99,47,medium,plus,dotcolour,beta,,,66,19,V,R,
596,92,8,14,4,44,36,783,['c'],1,left,['9'],5,162,[0.05050302],99,44,hard,plus,dotcolour,beta,,,66,19,V,R,
597,93,9,14,4,27,53,616,['n'],1,right,['0'],6,284,[-0.06011854],98,53,easy,plus,dotcolour,beta,,,66,19,V,R,
598,94,10,14,4,44,36,948,['c'],1,left,['8'],4,236,[0.02688689],95,44,hard,plus,dotcolour,beta,,,66,19,V,R,
599,95,11,14,4,36,44,833,['c'],0,right,['9'],5,179,[0.05176788],99,44,hard,plus,dotcolour,beta,,,66,19,V,R,
600,96,12,14,4,47,33,699,['c'],1,left,['0'],6,400,[0.15614814],100,47,medium,plus,dotcolour,beta,,,66,19,V,R,
601,97,13,14,4,36,44,682,['n'],1,right,['9'],5,278,[-0.09220945],99,44,hard,plus,dotcolour,beta,,,66,19,V,R,
602,98,14,14,4,27,53,500,['n'],1,right,['9'],5,216,[-0.14777349],100,53,easy,plus,dotcolour,beta,,,66,19,V,R,
603,99,15,14,4,36,44,583,['n'],1,right,['9'],5,226,[-0.05944438],99,44,hard,plus,dotcolour,beta,,,66,19,V,R,
604,100,16,14,4,53,27,749,['c'],1,left,['9'],5,228,[0.12014005],100,53,easy,plus,dotcolour,beta,,,66,19,V,R,
605,101,17,14,4,36,44,616,['c'],0,right,['9'],5,91,[0.03844599],100,44,hard,plus,dotcolour,beta,,,66,19,V,R,
606,102,18,14,4,53,27,583,['c'],1,left,['9'],5,425,[0.10147262],99,53,easy,plus,dotcolour,beta,,,66,19,V,R,
607,103,19,14,4,47,33,950,['c'],1,left,['0'],6,235,[0.12176371],100,47,medium,plus,dotcolour,beta,,,66,19,V,R,
608,104,20,14,4,47,33,1116,['c'],1,left,['8'],4,215,[0.14330169],100,47,medium,plus,dotcolour,beta,,,66,19,V,R,
609,105,21,14,4,53,27,966,['c'],1,left,['9'],5,584,[0.07898982],96,53,easy,plus,dotcolour,beta,,,66,19,V,R,
610,106,22,14,4,47,33,615,['c'],1,left,['9'],5,146,[0.03159677],98,47,medium,plus,dotcolour,beta,,,66,19,V,R,
611,107,23,14,4,33,47,933,['c'],0,right,['0'],6,183,[0.05779859],99,47,medium,plus,dotcolour,beta,,,66,19,V,R,
612,108,24,14,4,27,53,665,['n'],1,right,['0'],6,207,[-0.14529974],100,53,easy,plus,dotcolour,beta,,,66,19,V,R,
613,109,25,14,4,53,27,750,['c'],1,left,['9'],5,201,[0.13775139],100,53,easy,plus,dotcolour,beta,,,66,19,V,R,
614,110,26,14,4,53,27,749,['c'],1,left,['9'],5,10269,[1.36269695],100,53,easy,plus,dotcolour,beta,,,66,19,V,R,
615,111,27,14,4,44,36,1047,['c'],1,left,['9'],5,198,[0.08058404],100,44,hard,plus,dotcolour,beta,,,66,19,V,R,
616,112,28,14,4,33,47,1382,['n'],1,right,['9'],5,344,[-0.09448586],99,47,medium,plus,dotcolour,beta,,,66,19,V,R,
617,113,29,14,4,27,53,714,['n'],1,right,['9'],5,199,[-0.0562246],99,53,easy,plus,dotcolour,beta,,,66,19,V,R,
618,114,30,14,4,44,36,664,['c'],1,left,['9'],5,133,[0.09253423],100,44,hard,plus,dotcolour,beta,,,66,19,V,R,
619,115,31,14,4,36,44,831,['n'],1,right,['9'],5,192,[-0.0360895],98,44,hard,plus,dotcolour,beta,,,66,19,V,R,
620,116,32,14,4,36,44,600,['n'],1,right,['8'],4,193,[-0.1454513],100,44,hard,plus,dotcolour,beta,,,66,19,V,R,
621,117,33,14,4,33,47,547,['n'],1,right,['8'],4,189,[-0.08777039],100,47,medium,plus,dotcolour,beta,,,66,19,V,R,
622,118,34,14,4,27,53,632,['n'],1,right,['0'],6,190,[-0.11147699],100,53,easy,plus,dotcolour,beta,,,66,19,V,R,
623,119,35,14,4,33,47,682,['n'],1,right,['9'],5,219,[-0.12112158],100,47,medium,plus,dotcolour,beta,,,66,19,V,R,
624,120,36,14,4,47,33,999,['c'],1,left,['8'],4,292,[-0.0850331],27,47,medium,plus,dotcolour,beta,,,66,19,V,R,
625,121,37,14,4,36,44,715,['n'],1,right,['9'],5,261,[-0.06427357],99,44,hard,plus,dotcolour,beta,,,66,19,V,R,
626,122,38,14,4,27,53,563,['c'],0,right,['2'],2,1189,[-0.09896892],33,53,easy,plus,dotcolour,beta,,,66,19,V,R,
627,123,39,14,4,53,27,1115,['c'],1,left,['9'],5,217,[0.12463125],100,53,easy,plus,dotcolour,beta,,,66,19,V,R,
628,124,40,14,4,47,33,1067,['c'],1,left,['9'],5,175,[0.05668255],99,47,medium,plus,dotcolour,beta,,,66,19,V,R,
629,125,41,14,4,27,53,981,['n'],1,right,['9'],5,283,[-0.1444714],100,53,easy,plus,dotcolour,beta,,,66,19,V,R,
630,0,0,15,5,36,44,883,['n'],1,right,['9'],5,253,[-0.07096137],63,44,hard,minus,dotcolour,beta,,,66,19,V,R,
631,1,1,15,5,33,47,666,['n'],1,right,['9'],5,194,[-0.09458582],83,47,medium,minus,dotcolour,beta,,,66,19,V,R,
632,2,2,15,5,53,27,1017,['c'],1,left,['9'],5,187,[0.10019314],87,53,easy,minus,dotcolour,beta,,,66,19,V,R,
633,3,3,15,5,27,53,615,['n'],1,right,['0'],6,365,[-0.01844131],25,53,easy,minus,dotcolour,beta,,,66,19,V,R,
634,4,4,15,5,44,36,899,['c'],1,left,['9'],5,227,[-0.02831388],4,44,hard,minus,dotcolour,beta,,,66,19,V,R,
635,5,5,15,5,33,47,815,['n'],1,right,['9'],5,202,[-0.02419983],22,47,medium,minus,dotcolour,beta,,,66,19,V,R,
636,6,6,15,5,33,47,699,['n'],1,right,['9'],5,192,[-0.15673358],98,47,medium,minus,dotcolour,beta,,,66,19,V,R,
637,7,7,15,5,47,33,782,['c'],1,left,['9'],5,226,[0.03065002],28,47,medium,minus,dotcolour,beta,,,66,19,V,R,
638,8,8,15,5,27,53,766,['n'],1,right,['9'],5,211,[-0.08746116],78,53,easy,minus,dotcolour,beta,,,66,19,V,R,
639,9,9,15,5,36,44,548,['n'],1,right,['9'],5,174,[-0.02232892],19,44,hard,minus,dotcolour,beta,,,66,19,V,R,
640,10,10,15,5,36,44,682,['n'],1,right,['9'],5,221,[-0.00799185],14,44,hard,minus,dotcolour,beta,,,66,19,V,R,
641,11,11,15,5,53,27,1482,['c'],1,left,['9'],5,219,[0.00259437],12,53,easy,minus,dotcolour,beta,,,66,19,V,R,
642,12,12,15,5,27,53,666,['n'],1,right,['8'],4,209,[-0.10521657],88,53,easy,minus,dotcolour,beta,,,66,19,V,R,
643,13,13,15,5,27,53,483,['n'],1,right,['8'],4,246,[-0.06892463],62,53,easy,minus,dotcolour,beta,,,66,19,V,R,
644,14,14,15,5,53,27,801,['c'],1,left,['8'],4,165,[0.13965557],98,53,easy,minus,dotcolour,beta,,,66,19,V,R,
645,15,15,15,5,53,27,616,['c'],1,left,['8'],4,215,[0.09243962],81,53,easy,minus,dotcolour,beta,,,66,19,V,R,
646,16,16,15,5,44,36,733,['c'],1,left,['8'],4,163,[0.05788529],53,44,hard,minus,dotcolour,beta,,,66,19,V,R,
647,17,17,15,5,36,44,1249,['n'],1,right,['8'],4,339,[-0.14854773],95,44,hard,minus,dotcolour,beta,,,66,19,V,R,
648,18,18,15,5,27,53,700,['n'],1,right,['9'],5,235,[-0.11676869],91,53,easy,minus,dotcolour,beta,,,66,19,V,R,
649,19,19,15,5,27,53,665,['n'],1,right,['9'],5,152,[-0.03330197],26,53,easy,minus,dotcolour,beta,,,66,19,V,R,
650,20,20,15,5,53,27,798,['c'],1,left,['9'],5,555,[0.24329779],99,53,easy,minus,dotcolour,beta,,,66,19,V,R,
651,21,21,15,5,33,47,698,['c'],0,right,['9'],5,122,[0.04730267],40,47,medium,minus,dotcolour,beta,,,66,19,V,R,
652,22,22,15,5,44,36,749,['c'],1,left,['9'],5,169,[0.07979858],74,44,hard,minus,dotcolour,beta,,,66,19,V,R,
653,23,23,15,5,47,33,648,['c'],1,left,['9'],5,257,[0.16375718],98,47,medium,minus,dotcolour,beta,,,66,19,V,R,
654,24,24,15,5,36,44,1013,['n'],1,right,['9'],5,351,[0.01462135],11,44,hard,minus,dotcolour,beta,,,66,19,V,R,
655,25,25,15,5,53,27,699,['c'],1,left,['9'],5,215,[0.14988578],97,53,easy,minus,dotcolour,beta,,,66,19,V,R,
656,26,26,15,5,47,33,613,['c'],1,left,['9'],5,199,[0.17608753],99,47,medium,minus,dotcolour,beta,,,66,19,V,R,
657,27,27,15,5,36,44,732,['n'],1,right,['9'],5,211,[-0.14420164],97,44,hard,minus,dotcolour,beta,,,66,19,V,R,
658,28,28,15,5,33,47,530,['n'],1,right,['9'],5,303,[-0.06472098],57,47,medium,minus,dotcolour,beta,,,66,19,V,R,
659,29,29,15,5,44,36,597,['c'],1,left,['9'],5,163,[0.05966864],55,44,hard,minus,dotcolour,beta,,,66,19,V,R,
660,30,30,15,5,47,33,616,['c'],1,left,['9'],5,149,[0.08205736],77,47,medium,minus,dotcolour,beta,,,66,19,V,R,
661,31,31,15,5,33,47,849,['n'],1,right,['9'],5,135,[-0.07951854],76,47,medium,minus,dotcolour,beta,,,66,19,V,R,
662,32,32,15,5,44,36,632,['n'],0,left,['9'],5,194,[-0.08412453],76,44,hard,minus,dotcolour,beta,,,66,19,V,R,
663,33,33,15,5,47,33,731,['c'],1,left,['9'],5,165,[0.06767137],63,47,medium,minus,dotcolour,beta,,,66,19,V,R,
664,34,34,15,5,53,27,781,['c'],1,left,['8'],4,145,[0.01347195],12,53,easy,minus,dotcolour,beta,,,66,19,V,R,
665,35,35,15,5,44,36,748,['c'],1,left,['0'],6,350,[0.10954205],84,44,hard,minus,dotcolour,beta,,,66,19,V,R,
666,36,36,15,5,47,33,681,['c'],1,left,['8'],4,358,[0.16728471],97,47,medium,minus,dotcolour,beta,,,66,19,V,R,
667,37,37,15,5,44,36,582,['n'],0,left,['8'],4,201,[-0.07511846],69,44,hard,minus,dotcolour,beta,,,66,19,V,R,
668,38,38,15,5,33,47,483,['n'],1,right,['8'],4,183,[-0.12309756],94,47,medium,minus,dotcolour,beta,,,66,19,V,R,
669,39,39,15,5,36,44,532,['n'],1,right,['8'],4,196,[-0.1257202],95,44,hard,minus,dotcolour,beta,,,66,19,V,R,
670,40,40,15,5,47,33,764,['c'],1,left,['9'],5,231,[0.14830578],97,47,medium,minus,dotcolour,beta,,,66,19,V,R,
671,41,41,15,5,27,53,915,['n'],1,right,['9'],5,362,[-0.16514276],96,53,easy,minus,dotcolour,beta,,,66,19,V,R,
672,42,0,16,5,36,44,666,['n'],1,right,['9'],5,293,[-0.1426198],95,44,hard,minus,dotcolour,beta,,,66,19,V,R,
673,43,1,16,5,27,53,298,['n'],1,right,['9'],5,190,[-0.10860116],90,53,easy,minus,dotcolour,beta,,,66,19,V,R,
674,44,2,16,5,36,44,466,['n'],1,right,['9'],5,189,[-0.08942413],80,44,hard,minus,dotcolour,beta,,,66,19,V,R,
675,45,3,16,5,53,27,698,['c'],1,left,['9'],5,194,[0.10131318],87,53,easy,minus,dotcolour,beta,,,66,19,V,R,
676,46,4,16,5,36,44,516,['c'],0,right,['9'],5,167,[0.06762605],63,44,hard,minus,dotcolour,beta,,,66,19,V,R,
677,47,5,16,5,44,36,532,['n'],0,left,['9'],5,172,[-0.1103069],92,44,hard,minus,dotcolour,beta,,,66,19,V,R,
678,48,6,16,5,47,33,884,['c'],1,left,['9'],5,260,[0.05050474],46,47,medium,minus,dotcolour,beta,,,66,19,V,R,
679,49,7,16,5,27,53,898,['n'],1,right,['9'],5,246,[-0.08800736],76,53,easy,minus,dotcolour,beta,,,66,19,V,R,
680,50,8,16,5,44,36,649,['c'],1,left,['8'],4,260,[0.08261862],72,44,hard,minus,dotcolour,beta,,,66,19,V,R,
681,51,9,16,5,47,33,866,['c'],1,left,['9'],5,136,[0.10248629],91,47,medium,minus,dotcolour,beta,,,66,19,V,R,
682,52,10,16,5,47,33,698,['n'],0,left,['9'],5,287,[-0.05041158],46,47,medium,minus,dotcolour,beta,,,66,19,V,R,
683,53,11,16,5,33,47,615,['n'],1,right,['9'],5,461,[-0.09746695],75,47,medium,minus,dotcolour,beta,,,66,19,V,R,
684,54,12,16,5,33,47,666,['n'],1,right,['9'],5,177,[-0.09259531],83,47,medium,minus,dotcolour,beta,,,66,19,V,R,
685,55,13,16,5,47,33,799,['c'],1,left,['9'],5,203,[0.05535259],50,47,medium,minus,dotcolour,beta,,,66,19,V,R,
686,56,14,16,5,47,33,833,['c'],1,left,['9'],5,203,[0.14672962],97,47,medium,minus,dotcolour,beta,,,66,19,V,R,
687,57,15,16,5,33,47,933,['n'],1,right,['0'],6,415,[-0.13702457],91,47,medium,minus,dotcolour,beta,,,66,19,V,R,
688,58,16,16,5,44,36,1149,['c'],1,left,['8'],4,185,[0.07683261],71,44,hard,minus,dotcolour,beta,,,66,19,V,R,
689,59,17,16,5,44,36,766,['c'],1,left,['9'],5,228,[0.03603269],32,44,hard,minus,dotcolour,beta,,,66,19,V,R,
690,60,18,16,5,36,44,600,['n'],1,right,['9'],5,261,[-0.00832623],16,44,hard,minus,dotcolour,beta,,,66,19,V,R,
691,61,19,16,5,44,36,634,['c'],1,left,['9'],5,258,[0.06959705],62,44,hard,minus,dotcolour,beta,,,66,19,V,R,
692,62,20,16,5,47,33,631,['c'],1,left,['8'],4,319,[0.08496405],72,47,medium,minus,dotcolour,beta,,,66,19,V,R,
693,63,21,16,5,36,44,1382,['n'],1,right,['9'],5,405,[-0.11994953],86,44,hard,minus,dotcolour,beta,,,66,19,V,R,
694,64,22,16,5,47,33,916,['n'],0,left,['9'],5,185,[-0.07256037],67,47,medium,minus,dotcolour,beta,,,66,19,V,R,
695,65,23,16,5,53,27,1184,['c'],1,left,['0'],6,435,[0.01058363],23,53,easy,minus,dotcolour,beta,,,66,19,V,R,
696,66,24,16,5,44,36,965,['c'],1,left,['8'],4,325,[0.04485055],42,44,hard,minus,dotcolour,beta,,,66,19,V,R,
697,67,25,16,5,53,27,614,['c'],1,left,['9'],5,328,[0.12310817],89,53,easy,minus,dotcolour,beta,,,66,19,V,R,
698,68,26,16,5,33,47,1149,['n'],1,right,['9'],5,326,[-0.12274335],89,47,medium,minus,dotcolour,beta,,,66,19,V,R,
699,69,27,16,5,44,36,749,['c'],1,left,['9'],5,188,[0.0963335],84,44,hard,minus,dotcolour,beta,,,66,19,V,R,
700,70,28,16,5,53,27,1032,['c'],1,left,['9'],5,156,[0.08061084],76,53,easy,minus,dotcolour,beta,,,66,19,V,R,
701,71,29,16,5,27,53,848,['n'],1,right,['9'],5,206,[-0.07214256],66,53,easy,minus,dotcolour,beta,,,66,19,V,R,
702,72,30,16,5,27,53,2481,['n'],1,right,['0'],6,333,[-0.06462787],57,53,easy,minus,dotcolour,beta,,,66,19,V,R,
703,73,31,16,5,27,53,884,['n'],1,right,['0'],6,245,[-0.1038856],85,53,easy,minus,dotcolour,beta,,,66,19,V,R,
704,74,32,16,5,33,47,631,['n'],1,right,['0'],6,155,[-0.06752613],63,47,medium,minus,dotcolour,beta,,,66,19,V,R,
705,75,33,16,5,27,53,766,['n'],1,right,['0'],6,351,[-0.16033418],96,53,easy,minus,dotcolour,beta,,,66,19,V,R,
706,76,34,16,5,53,27,966,['c'],1,left,['0'],6,179,[0.07201049],67,53,easy,minus,dotcolour,beta,,,66,19,V,R,
707,77,35,16,5,27,53,766,['c'],0,right,['0'],6,158,[0.02228837],18,53,easy,minus,dotcolour,beta,,,66,19,V,R,
708,78,36,16,5,36,44,933,['n'],1,right,['8'],4,627,[-0.00677735],25,44,hard,minus,dotcolour,beta,,,66,19,V,R,
709,79,37,16,5,36,44,714,['n'],1,right,['8'],4,255,[-0.02073202],22,44,hard,minus,dotcolour,beta,,,66,19,V,R,
710,80,38,16,5,33,47,433,['n'],1,right,['8'],4,188,[-0.04608875],40,47,medium,minus,dotcolour,beta,,,66,19,V,R,
711,81,39,16,5,33,47,615,['n'],1,right,['8'],4,430,[0.02791722],9,47,medium,minus,dotcolour,beta,,,66,19,V,R,
712,82,40,16,5,53,27,515,['n'],0,left,['9'],5,489,[0.06081745],5,53,easy,minus,dotcolour,beta,,,66,19,V,R,
713,83,41,16,5,53,27,2415,['c'],1,left,['9'],5,269,[0.1382095],95,53,easy,minus,dotcolour,beta,,,66,19,V,R,
714,84,0,17,5,44,36,616,['c'],1,left,['9'],5,122,[0.10219601],92,44,hard,minus,dotcolour,beta,,,66,19,V,R,
715,85,1,17,5,47,33,214,['c'],1,left,['9'],5,102,[0.10806063],95,47,medium,minus,dotcolour,beta,,,66,19,V,R,
716,86,2,17,5,44,36,300,['n'],0,left,['9'],5,166,[-0.08915934],82,44,hard,minus,dotcolour,beta,,,66,19,V,R,
717,87,3,17,5,36,44,333,['c'],0,right,['9'],5,148,[0.02012021],16,44,hard,minus,dotcolour,beta,,,66,19,V,R,
718,88,4,17,5,33,47,416,['n'],1,right,['9'],5,2614,[-0.1593818],76,47,medium,minus,dotcolour,beta,,,66,19,V,R,
719,89,5,17,5,53,27,632,['c'],1,left,['9'],5,157,[0.11952078],95,53,easy,minus,dotcolour,beta,,,66,19,V,R,
720,90,6,17,5,27,53,881,['n'],1,right,['0'],6,389,[-0.10442616],80,53,easy,minus,dotcolour,beta,,,66,19,V,R,
721,91,7,17,5,33,47,532,['n'],1,right,['0'],6,192,[-0.10623177],89,47,medium,minus,dotcolour,beta,,,66,19,V,R,
722,92,8,17,5,47,33,515,['n'],0,left,['8'],4,1093,[0.0990339],7,47,medium,minus,dotcolour,beta,,,66,19,V,R,
723,93,9,17,5,33,47,814,['n'],1,right,['8'],4,137,[-0.08264182],79,47,medium,minus,dotcolour,beta,,,66,19,V,R,
724,94,10,17,5,33,47,515,['n'],1,right,['8'],4,184,[-0.09874804],86,47,medium,minus,dotcolour,beta,,,66,19,V,R,
725,95,11,17,5,44,36,2215,['n'],0,left,['9'],5,274,[-0.00569242],15,44,hard,minus,dotcolour,beta,,,66,19,V,R,
726,96,12,17,5,53,27,731,['c'],1,left,['9'],5,162,[0.09057456],83,53,easy,minus,dotcolour,beta,,,66,19,V,R,
727,97,13,17,5,36,44,533,['c'],0,right,['9'],5,176,[0.0930922],83,44,hard,minus,dotcolour,beta,,,66,19,V,R,
728,98,14,17,5,27,53,415,['n'],1,right,['9'],5,233,[-0.03279342],30,53,easy,minus,dotcolour,beta,,,66,19,V,R,
729,99,15,17,5,53,27,667,['c'],1,left,['9'],5,134,[0.12163602],96,53,easy,minus,dotcolour,beta,,,66,19,V,R,
730,100,16,17,5,33,47,465,['n'],1,right,['9'],5,128,[-0.10984965],94,47,medium,minus,dotcolour,beta,,,66,19,V,R,
731,101,17,17,5,36,44,282,['c'],0,right,['9'],5,152,[0.06567562],61,44,hard,minus,dotcolour,beta,,,66,19,V,R,
732,102,18,17,5,27,53,248,['n'],1,right,['9'],5,322,[-0.07383139],64,53,easy,minus,dotcolour,beta,,,66,19,V,R,
733,103,19,17,5,44,36,632,['c'],1,left,['9'],5,197,[0.16338072],99,44,hard,minus,dotcolour,beta,,,66,19,V,R,
734,104,20,17,5,44,36,466,['n'],0,left,['8'],4,547,[0.10009025],2,44,hard,minus,dotcolour,beta,,,66,19,V,R,
735,105,21,17,5,47,33,598,['c'],1,left,['8'],4,158,[0.10448832],90,47,medium,minus,dotcolour,beta,,,66,19,V,R,
736,106,22,17,5,33,47,617,['n'],1,right,['9'],5,192,[-0.08466657],77,47,medium,minus,dotcolour,beta,,,66,19,V,R,
737,107,23,17,5,36,44,464,['n'],1,right,['8'],4,239,[-0.18749856],99,44,hard,minus,dotcolour,beta,,,66,19,V,R,
738,108,24,17,5,47,33,816,['c'],1,left,['9'],5,222,[0.09880504],84,47,medium,minus,dotcolour,beta,,,66,19,V,R,
739,109,25,17,5,44,36,599,['c'],1,left,['9'],5,239,[0.05631862],51,44,hard,minus,dotcolour,beta,,,66,19,V,R,
740,110,26,17,5,47,33,316,['c'],1,left,['8'],4,235,[0.08068028],72,47,medium,minus,dotcolour,beta,,,66,19,V,R,
741,111,27,17,5,33,47,599,['n'],1,right,['0'],6,218,[-0.14810139],97,47,medium,minus,dotcolour,beta,,,66,19,V,R,
742,112,28,17,5,53,27,532,['c'],1,left,['9'],5,158,[0.14911],99,53,easy,minus,dotcolour,beta,,,66,19,V,R,
743,113,29,17,5,27,53,715,['n'],1,right,['9'],5,221,[-0.13359553],95,53,easy,minus,dotcolour,beta,,,66,19,V,R,
744,114,30,17,5,47,33,483,['c'],1,left,['9'],5,217,[0.06874874],62,47,medium,minus,dotcolour,beta,,,66,19,V,R,
745,115,31,17,5,36,44,615,['n'],1,right,['9'],5,169,[-0.05004419],44,44,hard,minus,dotcolour,beta,,,66,19,V,R,
746,116,32,17,5,27,53,533,['c'],0,right,['3'],3,2390,[-0.23057939],3,53,easy,minus,dotcolour,beta,,,66,19,V,R,
747,117,33,17,5,27,53,749,['n'],1,right,['9'],5,250,[-0.14493896],96,53,easy,minus,dotcolour,beta,,,66,19,V,R,
748,118,34,17,5,53,27,533,['c'],1,left,['9'],5,211,[0.08940147],79,53,easy,minus,dotcolour,beta,,,66,19,V,R,
749,119,35,17,5,36,44,699,['c'],0,right,['9'],5,208,[0.08534603],76,44,hard,minus,dotcolour,beta,,,66,19,V,R,
750,120,36,17,5,44,36,698,['c'],1,left,['9'],5,181,[0.04012965],34,44,hard,minus,dotcolour,beta,,,66,19,V,R,
751,121,37,17,5,36,44,683,['n'],1,right,['9'],5,211,[-0.07260078],66,44,hard,minus,dotcolour,beta,,,66,19,V,R,
752,122,38,17,5,53,27,817,['c'],1,left,['9'],5,163,[0.1353794],97,53,easy,minus,dotcolour,beta,,,66,19,V,R,
753,123,39,17,5,27,53,615,['n'],1,right,['0'],6,277,[-0.13899098],95,53,easy,minus,dotcolour,beta,,,66,19,V,R,
754,124,40,17,5,47,33,615,['c'],1,left,['8'],4,235,[0.10679651],87,47,medium,minus,dotcolour,beta,,,66,19,V,R,
755,125,41,17,5,53,27,633,['c'],1,left,['9'],5,177,[0.06800769],63,53,easy,minus,dotcolour,beta,,,66,19,V,R,
,,,,,,,,,,,,,,,,,,,,,1,dat wanneer je vaker op zeker was precies ook vaker gelijk gegeven werd ,66,19,V,R,
,,,,,,,,,,,,,,,,,,,,,2,['h'],66,19,V,R,
,,,,,,,,,,,,,,,,,,,,,3,['h'],66,19,V,R,
,,,,,,,,,,,,,,,,,,,,,5,[],66,19,V,R,
