trial,withinphasetrial,withinblocktrial,block,phase,dotsLeft,dotsRight,rt,resp,cor,cresp,conf_press,cj,RTconf,ev,fb,diff,difflevel,condition,task,manip,questionID,questionResp,sub,age,gender,handedness,
0,0,0,0,0,44,36,868,['c'],1,left,['2'],5,3586,[0.59181583],100,44,hard,plus,dotcolour,beta,,,40,18,V,R,
1,1,1,0,0,53,27,2050,['c'],1,left,['2'],5,632,[0.25339797],100,53,easy,plus,dotcolour,beta,,,40,18,V,R,
2,2,2,0,0,27,53,616,['n'],1,right,['2'],5,824,[-0.21242251],100,53,easy,plus,dotcolour,beta,,,40,18,V,R,
3,3,3,0,0,44,36,784,['c'],1,left,['2'],5,481,[0.04088575],92,44,hard,plus,dotcolour,beta,,,40,18,V,R,
4,4,4,0,0,44,36,1601,['c'],1,left,['3'],4,791,[0.21255128],100,44,hard,plus,dotcolour,beta,,,40,18,V,R,
5,5,5,0,0,27,53,700,['n'],1,right,['2'],5,764,[-0.16918856],99,53,easy,plus,dotcolour,beta,,,40,18,V,R,
6,6,6,0,0,36,44,1050,['c'],0,right,['2'],5,396,[0.05590005],96,44,hard,plus,dotcolour,beta,,,40,18,V,R,
7,7,7,0,0,53,27,650,['c'],1,left,['2'],5,348,[0.11402622],99,53,easy,plus,dotcolour,beta,,,40,18,V,R,
8,8,8,0,0,36,44,1699,['n'],1,right,['3'],4,859,[-0.05248739],89,44,hard,plus,dotcolour,beta,,,40,18,V,R,
9,9,9,0,0,44,36,1066,['c'],1,left,['2'],5,471,[0.15853832],100,44,hard,plus,dotcolour,beta,,,40,18,V,R,
10,10,10,0,0,27,53,983,['c'],0,right,['2'],5,294,[0.01619338],92,53,easy,plus,dotcolour,beta,,,40,18,V,R,
11,11,11,0,0,53,27,734,['c'],1,left,['1'],6,334,[0.11727148],100,53,easy,plus,dotcolour,beta,,,40,18,V,R,
12,12,12,0,0,27,53,1033,['n'],1,right,['2'],5,737,[-0.22530752],100,53,easy,plus,dotcolour,beta,,,40,18,V,R,
13,13,13,0,0,47,33,767,['c'],1,left,['1'],6,390,[0.18059815],100,47,medium,plus,dotcolour,beta,,,40,18,V,R,
14,14,14,0,0,33,47,616,['n'],1,right,['2'],5,655,[-0.14052777],99,47,medium,plus,dotcolour,beta,,,40,18,V,R,
15,15,15,0,0,44,36,883,['n'],0,left,['2'],5,186,[-0.03663628],98,44,hard,plus,dotcolour,beta,,,40,18,V,R,
16,16,16,0,0,27,53,984,['n'],1,right,['1'],6,268,[-0.13153047],100,53,easy,plus,dotcolour,beta,,,40,18,V,R,
17,17,17,0,0,33,47,950,['c'],0,right,['2'],5,325,[0.07754144],99,47,medium,plus,dotcolour,beta,,,40,18,V,R,
18,18,18,0,0,33,47,700,['n'],1,right,['1'],6,277,[-0.09849826],99,47,medium,plus,dotcolour,beta,,,40,18,V,R,
19,19,19,0,0,36,44,899,['n'],1,right,['2'],5,439,[-0.11107648],99,44,hard,plus,dotcolour,beta,,,40,18,V,R,
20,20,20,0,0,53,27,617,['c'],1,left,['1'],6,398,[0.23203361],100,53,easy,plus,dotcolour,beta,,,40,18,V,R,
21,21,21,0,0,36,44,585,['n'],1,right,['3'],4,872,[0.01879367],67,44,hard,plus,dotcolour,beta,,,40,18,V,R,
22,22,22,0,0,27,53,802,['n'],1,right,['1'],6,246,[-0.19488539],100,53,easy,plus,dotcolour,beta,,,40,18,V,R,
23,23,23,0,0,36,44,1718,['c'],0,right,['3'],4,880,[0.02064377],81,44,hard,plus,dotcolour,beta,,,40,18,V,R,
24,24,24,0,0,53,27,950,['c'],1,left,['3'],4,385,[0.17979041],100,53,easy,plus,dotcolour,beta,,,40,18,V,R,
25,25,25,0,0,33,47,1017,['c'],0,right,['3'],4,1418,[0.06049182],85,47,medium,plus,dotcolour,beta,,,40,18,V,R,
26,26,26,0,0,44,36,817,['c'],1,left,['2'],5,529,[0.05058246],93,44,hard,plus,dotcolour,beta,,,40,18,V,R,
27,27,27,0,0,36,44,1167,['n'],1,right,['2'],5,447,[-0.05878555],96,44,hard,plus,dotcolour,beta,,,40,18,V,R,
28,28,28,0,0,33,47,1267,['c'],0,right,['2'],5,715,[-0.01800976],69,47,medium,plus,dotcolour,beta,,,40,18,V,R,
29,29,29,0,0,47,33,1233,['c'],1,left,['2'],5,535,[0.17719992],100,47,medium,plus,dotcolour,beta,,,40,18,V,R,
30,30,30,0,0,47,33,617,['c'],1,left,['1'],6,442,[0.08046657],98,47,medium,plus,dotcolour,beta,,,40,18,V,R,
31,31,31,0,0,47,33,584,['c'],1,left,['1'],6,290,[0.05922066],98,47,medium,plus,dotcolour,beta,,,40,18,V,R,
32,32,32,0,0,36,44,1050,['c'],0,right,['2'],5,397,[0.12049582],99,44,hard,plus,dotcolour,beta,,,40,18,V,R,
33,33,33,0,0,47,33,401,['c'],1,left,['2'],5,319,[0.08287116],99,47,medium,plus,dotcolour,beta,,,40,18,V,R,
34,34,34,0,0,27,53,550,['n'],1,right,['1'],6,293,[-0.13880917],100,53,easy,plus,dotcolour,beta,,,40,18,V,R,
35,35,35,0,0,33,47,867,['c'],0,right,['2'],5,264,[-0.01505511],81,47,medium,plus,dotcolour,beta,,,40,18,V,R,
36,36,36,0,0,53,27,1400,['c'],1,left,['1'],6,391,[0.12248915],99,53,easy,plus,dotcolour,beta,,,40,18,V,R,
37,37,37,0,0,44,36,732,['c'],1,left,['2'],5,291,[0.14947733],100,44,hard,plus,dotcolour,beta,,,40,18,V,R,
38,38,38,0,0,47,33,1017,['c'],1,left,['2'],5,391,[0.04552226],95,47,medium,plus,dotcolour,beta,,,40,18,V,R,
39,39,39,0,0,47,33,683,['c'],1,left,['1'],6,293,[0.23030152],100,47,medium,plus,dotcolour,beta,,,40,18,V,R,
40,40,40,0,0,53,27,734,['c'],1,left,['1'],6,549,[0.40227235],100,53,easy,plus,dotcolour,beta,,,40,18,V,R,
41,41,41,0,0,33,47,534,['n'],1,right,['2'],5,355,[0.03429328],66,47,medium,plus,dotcolour,beta,,,40,18,V,R,
42,42,0,1,0,27,53,601,['n'],1,right,['1'],6,413,[0.02239644],72,53,easy,plus,dotcolour,beta,,,40,18,V,R,
43,43,1,1,0,27,53,534,['n'],1,right,['1'],6,344,[-0.17759497],100,53,easy,plus,dotcolour,beta,,,40,18,V,R,
44,44,2,1,0,27,53,517,['n'],1,right,['1'],6,191,[-0.08592731],100,53,easy,plus,dotcolour,beta,,,40,18,V,R,
45,45,3,1,0,36,44,684,['n'],1,right,['2'],5,333,[-0.0848918],99,44,hard,plus,dotcolour,beta,,,40,18,V,R,
46,46,4,1,0,47,33,1050,['c'],1,left,['2'],5,471,[0.23735087],100,47,medium,plus,dotcolour,beta,,,40,18,V,R,
47,47,5,1,0,47,33,784,['c'],1,left,['2'],5,301,[0.07950495],99,47,medium,plus,dotcolour,beta,,,40,18,V,R,
48,48,6,1,0,53,27,950,['c'],1,left,['1'],6,389,[0.10243574],99,53,easy,plus,dotcolour,beta,,,40,18,V,R,
49,49,7,1,0,44,36,1216,['c'],1,left,['1'],6,286,[0.11220127],100,44,hard,plus,dotcolour,beta,,,40,18,V,R,
50,50,8,1,0,44,36,783,['n'],0,left,['2'],5,204,[-0.04667812],98,44,hard,plus,dotcolour,beta,,,40,18,V,R,
51,51,9,1,0,47,33,917,['c'],1,left,['1'],6,313,[0.19774192],100,47,medium,plus,dotcolour,beta,,,40,18,V,R,
52,52,10,1,0,33,47,684,['n'],1,right,['2'],5,226,[-0.13923548],100,47,medium,plus,dotcolour,beta,,,40,18,V,R,
53,53,11,1,0,33,47,866,['n'],1,right,['1'],6,192,[-0.06346344],99,47,medium,plus,dotcolour,beta,,,40,18,V,R,
54,54,12,1,0,33,47,1150,['c'],0,right,['1'],6,395,[0.00447186],85,47,medium,plus,dotcolour,beta,,,40,18,V,R,
55,55,13,1,0,33,47,1616,['n'],1,right,['3'],4,612,[-0.07578343],95,47,medium,plus,dotcolour,beta,,,40,18,V,R,
56,56,14,1,0,47,33,700,['c'],1,left,['2'],5,833,[0.20750652],99,47,medium,plus,dotcolour,beta,,,40,18,V,R,
57,57,15,1,0,36,44,851,['n'],1,right,['3'],4,1391,[-0.09156049],90,44,hard,plus,dotcolour,beta,,,40,18,V,R,
58,58,16,1,0,33,47,1000,['n'],1,right,['2'],5,392,[-0.17199987],100,47,medium,plus,dotcolour,beta,,,40,18,V,R,
59,59,17,1,0,53,27,735,['c'],1,left,['2'],5,324,[0.02171337],92,53,easy,plus,dotcolour,beta,,,40,18,V,R,
60,60,18,1,0,36,44,1500,['n'],1,right,['2'],5,308,[-0.19960819],100,44,hard,plus,dotcolour,beta,,,40,18,V,R,
61,61,19,1,0,36,44,818,['n'],1,right,['1'],6,320,[-0.00683032],88,44,hard,plus,dotcolour,beta,,,40,18,V,R,
62,62,20,1,0,53,27,616,['c'],1,left,['1'],6,299,[0.09764947],99,53,easy,plus,dotcolour,beta,,,40,18,V,R,
63,63,21,1,0,44,36,1133,['n'],0,left,['3'],4,1020,[-0.09613824],94,44,hard,plus,dotcolour,beta,,,40,18,V,R,
64,64,22,1,0,36,44,1034,['c'],0,right,['8'],3,275,[0.0896103],99,44,hard,plus,dotcolour,beta,,,40,18,V,R,
65,65,23,1,0,44,36,2667,['c'],1,left,['3'],4,534,[0.05063691],93,44,hard,plus,dotcolour,beta,,,40,18,V,R,
66,66,24,1,0,27,53,700,['n'],1,right,['2'],5,1230,[-0.31793167],100,53,easy,plus,dotcolour,beta,,,40,18,V,R,
67,67,25,1,0,27,53,700,['n'],1,right,['1'],6,322,[-0.02816339],93,53,easy,plus,dotcolour,beta,,,40,18,V,R,
68,68,26,1,0,44,36,950,['c'],1,left,['1'],6,280,[0.18423061],100,44,hard,plus,dotcolour,beta,,,40,18,V,R,
69,69,27,1,0,44,36,967,['c'],1,left,['1'],6,335,[0.11832326],100,44,hard,plus,dotcolour,beta,,,40,18,V,R,
70,70,28,1,0,47,33,1000,['n'],0,left,['1'],6,475,[0.15015192],8,47,medium,plus,dotcolour,beta,,,40,18,V,R,
71,71,29,1,0,53,27,650,['n'],0,left,['0'],1,2456,[0.4152132],2,53,easy,plus,dotcolour,beta,,,40,18,V,R,
72,72,30,1,0,53,27,917,['c'],1,left,['1'],6,329,[0.0687705],98,53,easy,plus,dotcolour,beta,,,40,18,V,R,
73,73,31,1,0,44,36,1034,['c'],1,left,['2'],5,404,[0.0472602],95,44,hard,plus,dotcolour,beta,,,40,18,V,R,
74,74,32,1,0,47,33,1267,['c'],1,left,['3'],4,610,[0.18044731],100,47,medium,plus,dotcolour,beta,,,40,18,V,R,
75,75,33,1,0,47,33,1550,['c'],1,left,['3'],4,349,[0.05109367],96,47,medium,plus,dotcolour,beta,,,40,18,V,R,
76,76,34,1,0,33,47,1117,['n'],1,right,['2'],5,300,[-0.12138608],100,47,medium,plus,dotcolour,beta,,,40,18,V,R,
77,77,35,1,0,27,53,1000,['n'],1,right,['1'],6,337,[-0.14585115],100,53,easy,plus,dotcolour,beta,,,40,18,V,R,
78,78,36,1,0,53,27,732,['c'],1,left,['1'],6,312,[0.10055793],99,53,easy,plus,dotcolour,beta,,,40,18,V,R,
79,79,37,1,0,53,27,834,['c'],1,left,['1'],6,307,[0.15118822],100,53,easy,plus,dotcolour,beta,,,40,18,V,R,
80,80,38,1,0,33,47,634,['n'],1,right,['2'],5,318,[-0.13303602],100,47,medium,plus,dotcolour,beta,,,40,18,V,R,
81,81,39,1,0,36,44,634,['n'],1,right,['1'],6,275,[-0.09613071],99,44,hard,plus,dotcolour,beta,,,40,18,V,R,
82,82,40,1,0,36,44,1167,['c'],0,right,['2'],5,402,[0.00614302],85,44,hard,plus,dotcolour,beta,,,40,18,V,R,
83,83,41,1,0,27,53,650,['n'],1,right,['1'],6,289,[-0.24088468],100,53,easy,plus,dotcolour,beta,,,40,18,V,R,
84,84,0,2,0,47,33,834,['c'],1,left,['1'],6,311,[0.11121159],100,47,medium,plus,dotcolour,beta,,,40,18,V,R,
85,85,1,2,0,47,33,1117,['c'],1,left,['2'],5,351,[0.15776579],100,47,medium,plus,dotcolour,beta,,,40,18,V,R,
86,86,2,2,0,53,27,566,['c'],1,left,['1'],6,275,[0.05988784],98,53,easy,plus,dotcolour,beta,,,40,18,V,R,
87,87,3,2,0,27,53,518,['n'],1,right,['1'],6,245,[-0.10950209],100,53,easy,plus,dotcolour,beta,,,40,18,V,R,
88,88,4,2,0,53,27,534,['c'],1,left,['1'],6,279,[0.04320348],97,53,easy,plus,dotcolour,beta,,,40,18,V,R,
89,89,5,2,0,53,27,650,['n'],0,left,['1'],6,235,[-0.03532236],97,53,easy,plus,dotcolour,beta,,,40,18,V,R,
90,90,6,2,0,33,47,917,['n'],1,right,['2'],5,326,[-0.12096868],100,47,medium,plus,dotcolour,beta,,,40,18,V,R,
91,91,7,2,0,33,47,566,['n'],1,right,['1'],6,259,[-0.00720513],90,47,medium,plus,dotcolour,beta,,,40,18,V,R,
92,92,8,2,0,33,47,852,['n'],1,right,['2'],5,248,[-0.07369569],99,47,medium,plus,dotcolour,beta,,,40,18,V,R,
93,93,9,2,0,47,33,1317,['c'],1,left,['2'],5,403,[0.16334526],100,47,medium,plus,dotcolour,beta,,,40,18,V,R,
94,94,10,2,0,36,44,967,['c'],0,right,['3'],4,734,[-0.13666476],15,44,hard,plus,dotcolour,beta,,,40,18,V,R,
95,95,11,2,0,44,36,1767,['n'],0,left,['8'],3,427,[-0.00092284],83,44,hard,plus,dotcolour,beta,,,40,18,V,R,
96,96,12,2,0,47,33,1000,['c'],1,left,['3'],4,499,[0.15851231],100,47,medium,plus,dotcolour,beta,,,40,18,V,R,
97,97,13,2,0,44,36,1049,['c'],1,left,['2'],5,454,[0.03452945],92,44,hard,plus,dotcolour,beta,,,40,18,V,R,
98,98,14,2,0,33,47,1634,['n'],1,right,['3'],4,468,[-0.09536939],98,47,medium,plus,dotcolour,beta,,,40,18,V,R,
99,99,15,2,0,33,47,1100,['n'],1,right,['3'],4,398,[-0.13837591],100,47,medium,plus,dotcolour,beta,,,40,18,V,R,
100,100,16,2,0,36,44,666,['n'],1,right,['3'],4,197,[0.00024948],90,44,hard,plus,dotcolour,beta,,,40,18,V,R,
101,101,17,2,0,53,27,1101,['c'],1,left,['2'],5,402,[0.22857092],100,53,easy,plus,dotcolour,beta,,,40,18,V,R,
102,102,18,2,0,27,53,1667,['n'],1,right,['2'],5,313,[-0.14131691],100,53,easy,plus,dotcolour,beta,,,40,18,V,R,
103,103,19,2,0,44,36,633,['n'],0,left,['2'],5,157,[-0.00047144],93,44,hard,plus,dotcolour,beta,,,40,18,V,R,
104,104,20,2,0,47,33,833,['c'],1,left,['1'],6,254,[0.20267082],100,47,medium,plus,dotcolour,beta,,,40,18,V,R,
105,105,21,2,0,36,44,1300,['n'],1,right,['2'],5,401,[-0.10941582],99,44,hard,plus,dotcolour,beta,,,40,18,V,R,
106,106,22,2,0,36,44,834,['n'],1,right,['2'],5,329,[0.03141115],68,44,hard,plus,dotcolour,beta,,,40,18,V,R,
107,107,23,2,0,44,36,1149,['c'],1,left,['3'],4,1015,[0.10491055],95,44,hard,plus,dotcolour,beta,,,40,18,V,R,
108,108,24,2,0,27,53,733,['n'],1,right,['2'],5,347,[-0.13467799],100,53,easy,plus,dotcolour,beta,,,40,18,V,R,
109,109,25,2,0,44,36,1134,['c'],1,left,['3'],4,304,[0.03974687],96,44,hard,plus,dotcolour,beta,,,40,18,V,R,
110,110,26,2,0,27,53,600,['n'],1,right,['1'],6,437,[-0.15242089],100,53,easy,plus,dotcolour,beta,,,40,18,V,R,
111,111,27,2,0,47,33,1082,['c'],1,left,['3'],4,378,[0.13611034],100,47,medium,plus,dotcolour,beta,,,40,18,V,R,
112,112,28,2,0,53,27,684,['n'],0,left,['3'],4,936,[0.10823187],27,53,easy,plus,dotcolour,beta,,,40,18,V,R,
113,113,29,2,0,44,36,1550,['c'],1,left,['3'],4,645,[0.21021352],100,44,hard,plus,dotcolour,beta,,,40,18,V,R,
114,114,30,2,0,33,47,651,['n'],1,right,['1'],6,267,[-0.09784073],100,47,medium,plus,dotcolour,beta,,,40,18,V,R,
115,115,31,2,0,44,36,1117,['c'],1,left,['3'],4,341,[0.16960676],100,44,hard,plus,dotcolour,beta,,,40,18,V,R,
116,116,32,2,0,27,53,583,['n'],1,right,['2'],5,545,[-0.31022001],100,53,easy,plus,dotcolour,beta,,,40,18,V,R,
117,117,33,2,0,47,33,1084,['c'],1,left,['2'],5,345,[0.08365486],99,47,medium,plus,dotcolour,beta,,,40,18,V,R,
118,118,34,2,0,53,27,1634,['n'],0,left,['1'],6,355,[0.03591124],64,53,easy,plus,dotcolour,beta,,,40,18,V,R,
119,119,35,2,0,36,44,850,['c'],0,right,['3'],4,412,[-0.02573857],70,44,hard,plus,dotcolour,beta,,,40,18,V,R,
120,120,36,2,0,33,47,599,['n'],1,right,['2'],5,260,[-0.1246098],100,47,medium,plus,dotcolour,beta,,,40,18,V,R,
121,121,37,2,0,27,53,767,['n'],1,right,['1'],6,236,[-0.10520651],100,53,easy,plus,dotcolour,beta,,,40,18,V,R,
122,122,38,2,0,36,44,949,['c'],0,right,['1'],6,263,[0.15007926],100,44,hard,plus,dotcolour,beta,,,40,18,V,R,
123,123,39,2,0,36,44,1033,['c'],0,right,['1'],6,267,[0.13623816],100,44,hard,plus,dotcolour,beta,,,40,18,V,R,
124,124,40,2,0,27,53,567,['n'],1,right,['2'],5,292,[-0.10442423],100,53,easy,plus,dotcolour,beta,,,40,18,V,R,
125,125,41,2,0,53,27,833,['c'],1,left,['1'],6,312,[0.12537193],100,53,easy,plus,dotcolour,beta,,,40,18,V,R,
126,0,0,3,1,36,44,1185,['c'],0,right,['3'],4,744,[0.07480836],60,44,hard,minus,dotcolour,beta,,,40,18,V,R,
127,1,1,3,1,33,47,600,['n'],1,right,['2'],5,444,[-0.14060603],91,47,medium,minus,dotcolour,beta,,,40,18,V,R,
128,2,2,3,1,47,33,784,['c'],1,left,['1'],6,740,[0.11968199],79,47,medium,minus,dotcolour,beta,,,40,18,V,R,
129,3,3,3,1,27,53,1484,['n'],1,right,['1'],6,372,[-0.18119949],98,53,easy,minus,dotcolour,beta,,,40,18,V,R,
130,4,4,3,1,33,47,1200,['c'],0,right,['3'],4,454,[0.13811218],90,47,medium,minus,dotcolour,beta,,,40,18,V,R,
131,5,5,3,1,33,47,2051,['c'],0,right,['3'],4,883,[0.06285962],53,47,medium,minus,dotcolour,beta,,,40,18,V,R,
132,6,6,3,1,27,53,1216,['n'],1,right,['3'],4,512,[-0.14807356],91,53,easy,minus,dotcolour,beta,,,40,18,V,R,
133,7,7,3,1,27,53,783,['n'],1,right,['1'],6,238,[-0.18910952],99,53,easy,minus,dotcolour,beta,,,40,18,V,R,
134,8,8,3,1,47,33,1383,['c'],1,left,['1'],6,334,[0.10446918],82,47,medium,minus,dotcolour,beta,,,40,18,V,R,
135,9,9,3,1,36,44,684,['n'],1,right,['1'],6,279,[-0.09636889],80,44,hard,minus,dotcolour,beta,,,40,18,V,R,
136,10,10,3,1,44,36,1433,['c'],1,left,['2'],5,468,[0.16858466],95,44,hard,minus,dotcolour,beta,,,40,18,V,R,
137,11,11,3,1,27,53,801,['n'],1,right,['2'],5,290,[-0.20663042],99,53,easy,minus,dotcolour,beta,,,40,18,V,R,
138,12,12,3,1,47,33,850,['c'],1,left,['1'],6,558,[0.02371017],32,47,medium,minus,dotcolour,beta,,,40,18,V,R,
139,13,13,3,1,44,36,1317,['c'],1,left,['1'],6,307,[-0.00050523],14,44,hard,minus,dotcolour,beta,,,40,18,V,R,
140,14,14,3,1,44,36,1283,['n'],0,left,['3'],4,557,[-0.02591284],33,44,hard,minus,dotcolour,beta,,,40,18,V,R,
141,15,15,3,1,36,44,1651,['n'],1,right,['3'],4,558,[0.02487123],13,44,hard,minus,dotcolour,beta,,,40,18,V,R,
142,16,16,3,1,44,36,1385,['c'],1,left,['3'],4,369,[0.06213083],55,44,hard,minus,dotcolour,beta,,,40,18,V,R,
143,17,17,3,1,53,27,833,['c'],1,left,['2'],5,306,[0.14227119],94,53,easy,minus,dotcolour,beta,,,40,18,V,R,
144,18,18,3,1,33,47,566,['n'],1,right,['2'],5,305,[-0.05681304],51,47,medium,minus,dotcolour,beta,,,40,18,V,R,
145,19,19,3,1,33,47,883,['n'],1,right,['2'],5,410,[-0.17003488],96,47,medium,minus,dotcolour,beta,,,40,18,V,R,
146,20,20,3,1,33,47,549,['n'],1,right,['2'],5,214,[-0.14078783],96,47,medium,minus,dotcolour,beta,,,40,18,V,R,
147,21,21,3,1,53,27,783,['c'],1,left,['1'],6,302,[0.12318026],90,53,easy,minus,dotcolour,beta,,,40,18,V,R,
148,22,22,3,1,53,27,600,['c'],1,left,['1'],6,243,[0.09995559],83,53,easy,minus,dotcolour,beta,,,40,18,V,R,
149,23,23,3,1,33,47,767,['n'],1,right,['2'],5,212,[-0.14867498],97,47,medium,minus,dotcolour,beta,,,40,18,V,R,
150,24,24,3,1,44,36,533,['n'],0,left,['2'],5,216,[-0.08306452],74,44,hard,minus,dotcolour,beta,,,40,18,V,R,
151,25,25,3,1,36,44,784,['n'],1,right,['2'],5,369,[-0.1734474],97,44,hard,minus,dotcolour,beta,,,40,18,V,R,
152,26,26,3,1,53,27,633,['c'],1,left,['1'],6,346,[-0.01739541],10,53,easy,minus,dotcolour,beta,,,40,18,V,R,
153,27,27,3,1,47,33,917,['c'],1,left,['3'],4,305,[0.14668855],95,47,medium,minus,dotcolour,beta,,,40,18,V,R,
154,28,28,3,1,47,33,484,['n'],0,left,['0'],1,858,[0.04055313],13,47,medium,minus,dotcolour,beta,,,40,18,V,R,
155,29,29,3,1,36,44,1050,['n'],1,right,['3'],4,351,[0.04265455],5,44,hard,minus,dotcolour,beta,,,40,18,V,R,
156,30,30,3,1,47,33,1117,['n'],0,left,['2'],5,510,[-0.06724376],57,47,medium,minus,dotcolour,beta,,,40,18,V,R,
157,31,31,3,1,53,27,883,['c'],1,left,['1'],6,1032,[0.34217121],99,53,easy,minus,dotcolour,beta,,,40,18,V,R,
158,32,32,3,1,53,27,1350,['c'],1,left,['2'],5,393,[0.11890082],86,53,easy,minus,dotcolour,beta,,,40,18,V,R,
159,33,33,3,1,53,27,568,['c'],1,left,['1'],6,420,[0.14811282],93,53,easy,minus,dotcolour,beta,,,40,18,V,R,
160,34,34,3,1,27,53,750,['n'],1,right,['1'],6,399,[-0.05699067],51,53,easy,minus,dotcolour,beta,,,40,18,V,R,
161,35,35,3,1,36,44,534,['n'],1,right,['1'],6,211,[-0.10678292],88,44,hard,minus,dotcolour,beta,,,40,18,V,R,
162,36,36,3,1,47,33,916,['c'],1,left,['3'],4,583,[0.13865938],88,47,medium,minus,dotcolour,beta,,,40,18,V,R,
163,37,37,3,1,44,36,450,['c'],1,left,['2'],5,631,[0.12447691],83,44,hard,minus,dotcolour,beta,,,40,18,V,R,
164,38,38,3,1,44,36,550,['c'],1,left,['2'],5,321,[0.09691141],79,44,hard,minus,dotcolour,beta,,,40,18,V,R,
165,39,39,3,1,27,53,600,['n'],1,right,['2'],5,645,[-0.16864148],93,53,easy,minus,dotcolour,beta,,,40,18,V,R,
166,40,40,3,1,36,44,1417,['c'],0,right,['3'],4,484,[0.0352954],37,44,hard,minus,dotcolour,beta,,,40,18,V,R,
167,41,41,3,1,27,53,917,['n'],1,right,['2'],5,573,[-0.16924221],94,53,easy,minus,dotcolour,beta,,,40,18,V,R,
168,42,0,4,1,33,47,800,['n'],1,right,['3'],4,914,[-0.29025338],99,47,medium,minus,dotcolour,beta,,,40,18,V,R,
169,43,1,4,1,33,47,4034,['n'],1,right,['1'],6,3621,[-0.4965024],98,47,medium,minus,dotcolour,beta,,,40,18,V,R,
170,44,2,4,1,53,27,1933,['c'],1,left,['2'],5,2399,[0.60308467],100,53,easy,minus,dotcolour,beta,,,40,18,V,R,
171,45,3,4,1,44,36,1034,['c'],1,left,['2'],5,1054,[-0.07636097],9,44,hard,minus,dotcolour,beta,,,40,18,V,R,
172,46,4,4,1,44,36,767,['c'],1,left,['2'],5,398,[0.01434991],24,44,hard,minus,dotcolour,beta,,,40,18,V,R,
173,47,5,4,1,36,44,967,['c'],0,right,['3'],4,1081,[-0.0281326],19,44,hard,minus,dotcolour,beta,,,40,18,V,R,
174,48,6,4,1,53,27,616,['c'],1,left,['3'],4,294,[0.07093893],62,53,easy,minus,dotcolour,beta,,,40,18,V,R,
175,49,7,4,1,27,53,567,['n'],1,right,['1'],6,365,[-0.17228659],97,53,easy,minus,dotcolour,beta,,,40,18,V,R,
176,50,8,4,1,36,44,967,['n'],1,right,['1'],6,353,[-0.07113803],62,44,hard,minus,dotcolour,beta,,,40,18,V,R,
177,51,9,4,1,33,47,700,['n'],1,right,['1'],6,360,[-0.21543116],99,47,medium,minus,dotcolour,beta,,,40,18,V,R,
178,52,10,4,1,36,44,1034,['c'],0,right,['3'],4,570,[0.10488317],76,44,hard,minus,dotcolour,beta,,,40,18,V,R,
179,53,11,4,1,47,33,1550,['c'],1,left,['2'],5,462,[0.08792712],70,47,medium,minus,dotcolour,beta,,,40,18,V,R,
180,54,12,4,1,47,33,767,['c'],1,left,['2'],5,286,[0.09811094],81,47,medium,minus,dotcolour,beta,,,40,18,V,R,
181,55,13,4,1,44,36,533,['n'],0,left,['0'],1,862,[0.02374605],18,44,hard,minus,dotcolour,beta,,,40,18,V,R,
182,56,14,4,1,27,53,867,['n'],1,right,['1'],6,346,[-0.08756969],73,53,easy,minus,dotcolour,beta,,,40,18,V,R,
183,57,15,4,1,27,53,633,['n'],1,right,['1'],6,301,[-0.0305946],31,53,easy,minus,dotcolour,beta,,,40,18,V,R,
184,58,16,4,1,33,47,783,['n'],1,right,['1'],6,178,[-0.13420853],97,47,medium,minus,dotcolour,beta,,,40,18,V,R,
185,59,17,4,1,44,36,1033,['c'],1,left,['2'],5,356,[0.13278236],91,44,hard,minus,dotcolour,beta,,,40,18,V,R,
186,60,18,4,1,47,33,601,['c'],1,left,['1'],6,302,[0.04334919],40,47,medium,minus,dotcolour,beta,,,40,18,V,R,
187,61,19,4,1,53,27,617,['c'],1,left,['1'],6,699,[0.19515331],95,53,easy,minus,dotcolour,beta,,,40,18,V,R,
188,62,20,4,1,36,44,567,['n'],1,right,['2'],5,393,[-0.10050277],78,44,hard,minus,dotcolour,beta,,,40,18,V,R,
189,63,21,4,1,47,33,835,['c'],1,left,['3'],4,529,[0.12060585],83,47,medium,minus,dotcolour,beta,,,40,18,V,R,
190,64,22,4,1,36,44,500,['n'],1,right,['3'],4,642,[-0.13225685],85,44,hard,minus,dotcolour,beta,,,40,18,V,R,
191,65,23,4,1,27,53,650,['n'],1,right,['1'],6,319,[-0.22938823],100,53,easy,minus,dotcolour,beta,,,40,18,V,R,
192,66,24,4,1,53,27,701,['n'],0,left,['1'],6,231,[-0.04343094],39,53,easy,minus,dotcolour,beta,,,40,18,V,R,
193,67,25,4,1,36,44,1249,['c'],0,right,['3'],4,445,[-0.01030174],14,44,hard,minus,dotcolour,beta,,,40,18,V,R,
194,68,26,4,1,53,27,1100,['c'],1,left,['2'],5,409,[0.09960989],78,53,easy,minus,dotcolour,beta,,,40,18,V,R,
195,69,27,4,1,44,36,867,['n'],0,left,['2'],5,335,[-0.10176078],81,44,hard,minus,dotcolour,beta,,,40,18,V,R,
196,70,28,4,1,44,36,916,['c'],1,left,['3'],4,438,[0.0030691],19,44,hard,minus,dotcolour,beta,,,40,18,V,R,
197,71,29,4,1,33,47,750,['n'],1,right,['3'],4,527,[-0.14348863],90,47,medium,minus,dotcolour,beta,,,40,18,V,R,
198,72,30,4,1,27,53,734,['n'],1,right,['3'],4,279,[-0.01952299],23,53,easy,minus,dotcolour,beta,,,40,18,V,R,
199,73,31,4,1,33,47,700,['n'],1,right,['1'],6,696,[-0.19615051],95,47,medium,minus,dotcolour,beta,,,40,18,V,R,
200,74,32,4,1,44,36,767,['n'],0,left,['1'],6,399,[-0.07544156],64,44,hard,minus,dotcolour,beta,,,40,18,V,R,
201,75,33,4,1,53,27,1133,['c'],1,left,['2'],5,355,[0.07706174],66,53,easy,minus,dotcolour,beta,,,40,18,V,R,
202,76,34,4,1,47,33,884,['n'],0,left,['2'],5,635,[-0.01605372],29,47,medium,minus,dotcolour,beta,,,40,18,V,R,
203,77,35,4,1,27,53,583,['n'],1,right,['1'],6,555,[-0.23333127],99,53,easy,minus,dotcolour,beta,,,40,18,V,R,
204,78,36,4,1,36,44,566,['n'],1,right,['2'],5,320,[-0.12007211],89,44,hard,minus,dotcolour,beta,,,40,18,V,R,
205,79,37,4,1,47,33,733,['c'],1,left,['1'],6,758,[0.15821984],89,47,medium,minus,dotcolour,beta,,,40,18,V,R,
206,80,38,4,1,27,53,667,['n'],1,right,['1'],6,158,[-0.06826115],64,53,easy,minus,dotcolour,beta,,,40,18,V,R,
207,81,39,4,1,47,33,800,['n'],0,left,['2'],5,337,[0.01368904],10,47,medium,minus,dotcolour,beta,,,40,18,V,R,
208,82,40,4,1,33,47,850,['c'],0,right,['3'],4,378,[0.15924123],95,47,medium,minus,dotcolour,beta,,,40,18,V,R,
209,83,41,4,1,53,27,683,['c'],1,left,['8'],3,321,[0.07342668],64,53,easy,minus,dotcolour,beta,,,40,18,V,R,
210,84,0,5,1,44,36,1100,['c'],1,left,['1'],6,494,[0.11702182],83,44,hard,minus,dotcolour,beta,,,40,18,V,R,
211,85,1,5,1,27,53,551,['n'],1,right,['1'],6,412,[-0.11667328],85,53,easy,minus,dotcolour,beta,,,40,18,V,R,
212,86,2,5,1,27,53,567,['n'],1,right,['1'],6,359,[-0.19362061],98,53,easy,minus,dotcolour,beta,,,40,18,V,R,
213,87,3,5,1,33,47,449,['n'],1,right,['2'],5,400,[-0.1262232],88,47,medium,minus,dotcolour,beta,,,40,18,V,R,
214,88,4,5,1,44,36,867,['c'],1,left,['3'],4,414,[0.05616746],50,44,hard,minus,dotcolour,beta,,,40,18,V,R,
215,89,5,5,1,33,47,800,['c'],0,right,['0'],1,983,[-0.08298229],7,47,medium,minus,dotcolour,beta,,,40,18,V,R,
216,90,6,5,1,33,47,516,['n'],1,right,['1'],6,643,[-0.11519908],79,47,medium,minus,dotcolour,beta,,,40,18,V,R,
217,91,7,5,1,53,27,767,['c'],1,left,['1'],6,652,[0.07329081],60,53,easy,minus,dotcolour,beta,,,40,18,V,R,
218,92,8,5,1,36,44,532,['n'],1,right,['2'],5,382,[-0.11168338],84,44,hard,minus,dotcolour,beta,,,40,18,V,R,
219,93,9,5,1,44,36,950,['c'],1,left,['0'],1,1618,[0.2820738],96,44,hard,minus,dotcolour,beta,,,40,18,V,R,
220,94,10,5,1,47,33,817,['c'],1,left,['1'],6,305,[0.09390804],78,47,medium,minus,dotcolour,beta,,,40,18,V,R,
221,95,11,5,1,53,27,485,['n'],0,left,['0'],1,1682,[-0.10686976],67,53,easy,minus,dotcolour,beta,,,40,18,V,R,
222,96,12,5,1,36,44,967,['n'],1,right,['1'],6,289,[-0.14497142],95,44,hard,minus,dotcolour,beta,,,40,18,V,R,
223,97,13,5,1,47,33,884,['c'],1,left,['2'],5,387,[0.0084437],20,47,medium,minus,dotcolour,beta,,,40,18,V,R,
224,98,14,5,1,44,36,834,['n'],0,left,['2'],5,371,[-0.05527979],50,44,hard,minus,dotcolour,beta,,,40,18,V,R,
225,99,15,5,1,33,47,549,['n'],1,right,['1'],6,744,[-0.03826624],41,47,medium,minus,dotcolour,beta,,,40,18,V,R,
226,100,16,5,1,44,36,950,['n'],0,left,['2'],5,213,[-0.04994476],45,44,hard,minus,dotcolour,beta,,,40,18,V,R,
227,101,17,5,1,44,36,666,['n'],0,left,['2'],5,283,[0.01027585],10,44,hard,minus,dotcolour,beta,,,40,18,V,R,
228,102,18,5,1,47,33,1216,['c'],1,left,['3'],4,568,[0.01650563],28,47,medium,minus,dotcolour,beta,,,40,18,V,R,
229,103,19,5,1,33,47,784,['n'],1,right,['3'],4,404,[-0.17022319],96,47,medium,minus,dotcolour,beta,,,40,18,V,R,
230,104,20,5,1,36,44,851,['n'],1,right,['3'],4,538,[-0.1023448],76,44,hard,minus,dotcolour,beta,,,40,18,V,R,
231,105,21,5,1,27,53,934,['n'],1,right,['0'],1,744,[-0.26635205],99,53,easy,minus,dotcolour,beta,,,40,18,V,R,
232,106,22,5,1,27,53,617,['n'],1,right,['1'],6,395,[-0.13332012],90,53,easy,minus,dotcolour,beta,,,40,18,V,R,
233,107,23,5,1,36,44,1400,['n'],1,right,['3'],4,652,[-0.11783454],80,44,hard,minus,dotcolour,beta,,,40,18,V,R,
234,108,24,5,1,44,36,984,['c'],1,left,['3'],4,412,[0.18012025],97,44,hard,minus,dotcolour,beta,,,40,18,V,R,
235,109,25,5,1,53,27,750,['n'],0,left,['2'],5,262,[-0.05067412],46,53,easy,minus,dotcolour,beta,,,40,18,V,R,
236,110,26,5,1,53,27,633,['n'],0,left,['2'],5,228,[-0.05097524],46,53,easy,minus,dotcolour,beta,,,40,18,V,R,
237,111,27,5,1,27,53,850,['n'],1,right,['1'],6,826,[-0.18933743],93,53,easy,minus,dotcolour,beta,,,40,18,V,R,
238,112,28,5,1,27,53,700,['n'],1,right,['1'],6,238,[-0.1089778],88,53,easy,minus,dotcolour,beta,,,40,18,V,R,
239,113,29,5,1,53,27,666,['c'],1,left,['3'],4,315,[0.03308701],33,53,easy,minus,dotcolour,beta,,,40,18,V,R,
240,114,30,5,1,36,44,550,['n'],1,right,['2'],5,282,[-0.05138065],46,44,hard,minus,dotcolour,beta,,,40,18,V,R,
241,115,31,5,1,47,33,767,['n'],0,left,['0'],1,785,[0.07715213],6,47,medium,minus,dotcolour,beta,,,40,18,V,R,
242,116,32,5,1,47,33,833,['c'],1,left,['2'],5,769,[0.21669775],96,47,medium,minus,dotcolour,beta,,,40,18,V,R,
243,117,33,5,1,47,33,784,['n'],0,left,['3'],4,1244,[0.26507868],1,47,medium,minus,dotcolour,beta,,,40,18,V,R,
244,118,34,5,1,36,44,1566,['c'],0,right,['3'],4,533,[0.01347426],26,44,hard,minus,dotcolour,beta,,,40,18,V,R,
245,119,35,5,1,53,27,616,['c'],1,left,['1'],6,704,[0.00844927],27,53,easy,minus,dotcolour,beta,,,40,18,V,R,
246,120,36,5,1,47,33,650,['c'],1,left,['1'],6,267,[0.15140878],97,47,medium,minus,dotcolour,beta,,,40,18,V,R,
247,121,37,5,1,53,27,1000,['c'],1,left,['1'],6,289,[0.04236756],39,53,easy,minus,dotcolour,beta,,,40,18,V,R,
248,122,38,5,1,33,47,633,['n'],1,right,['2'],5,437,[-0.16001133],95,47,medium,minus,dotcolour,beta,,,40,18,V,R,
249,123,39,5,1,27,53,834,['c'],0,right,['1'],6,268,[0.0690635],62,53,easy,minus,dotcolour,beta,,,40,18,V,R,
250,124,40,5,1,33,47,550,['n'],1,right,['1'],6,220,[-0.16731882],99,47,medium,minus,dotcolour,beta,,,40,18,V,R,
251,125,41,5,1,36,44,400,['n'],1,right,['0'],1,749,[-0.18498009],94,44,hard,minus,dotcolour,beta,,,40,18,V,R,
252,0,0,6,2,47,33,1068,['c'],1,left,['1'],6,303,[0.09209132],99,47,medium,plus,dotcolour,beta,,,40,18,V,R,
253,1,1,6,2,44,36,817,['c'],1,left,['2'],5,548,[0.06425876],95,44,hard,plus,dotcolour,beta,,,40,18,V,R,
254,2,2,6,2,27,53,750,['n'],1,right,['1'],6,457,[-0.11219369],99,53,easy,plus,dotcolour,beta,,,40,18,V,R,
255,3,3,6,2,47,33,1400,['n'],0,left,['2'],5,352,[-0.02693533],92,47,medium,plus,dotcolour,beta,,,40,18,V,R,
256,4,4,6,2,33,47,567,['n'],1,right,['1'],6,533,[-0.17863285],100,47,medium,plus,dotcolour,beta,,,40,18,V,R,
257,5,5,6,2,47,33,1032,['c'],1,left,['1'],6,391,[0.10487484],99,47,medium,plus,dotcolour,beta,,,40,18,V,R,
258,6,6,6,2,33,47,533,['n'],1,right,['1'],6,203,[-0.08777428],100,47,medium,plus,dotcolour,beta,,,40,18,V,R,
259,7,7,6,2,44,36,500,['c'],1,left,['1'],6,377,[0.13435694],100,44,hard,plus,dotcolour,beta,,,40,18,V,R,
260,8,8,6,2,47,33,683,['c'],1,left,['1'],6,304,[0.14965762],100,47,medium,plus,dotcolour,beta,,,40,18,V,R,
261,9,9,6,2,27,53,583,['n'],1,right,['1'],6,286,[-0.08518112],99,53,easy,plus,dotcolour,beta,,,40,18,V,R,
262,10,10,6,2,44,36,601,['c'],1,left,['2'],5,404,[0.09960269],99,44,hard,plus,dotcolour,beta,,,40,18,V,R,
263,11,11,6,2,33,47,817,['n'],1,right,['2'],5,548,[-0.08742579],97,47,medium,plus,dotcolour,beta,,,40,18,V,R,
264,12,12,6,2,44,36,1050,['n'],0,left,['2'],5,285,[-0.12170221],100,44,hard,plus,dotcolour,beta,,,40,18,V,R,
265,13,13,6,2,53,27,566,['c'],1,left,['1'],6,276,[0.06163594],98,53,easy,plus,dotcolour,beta,,,40,18,V,R,
266,14,14,6,2,36,44,800,['n'],1,right,['2'],5,354,[-0.13879496],100,44,hard,plus,dotcolour,beta,,,40,18,V,R,
267,15,15,6,2,47,33,683,['c'],1,left,['1'],6,266,[0.14829851],100,47,medium,plus,dotcolour,beta,,,40,18,V,R,
268,16,16,6,2,33,47,484,['n'],1,right,['1'],6,333,[-0.07419447],98,47,medium,plus,dotcolour,beta,,,40,18,V,R,
269,17,17,6,2,27,53,483,['n'],1,right,['1'],6,214,[-0.00569499],92,53,easy,plus,dotcolour,beta,,,40,18,V,R,
270,18,18,6,2,33,47,633,['n'],1,right,['2'],5,317,[-0.09829422],99,47,medium,plus,dotcolour,beta,,,40,18,V,R,
271,19,19,6,2,53,27,617,['c'],1,left,['2'],5,385,[0.19685399],100,53,easy,plus,dotcolour,beta,,,40,18,V,R,
272,20,20,6,2,27,53,533,['n'],1,right,['1'],6,286,[-0.15216784],100,53,easy,plus,dotcolour,beta,,,40,18,V,R,
273,21,21,6,2,33,47,784,['n'],1,right,['3'],4,453,[-0.02684457],90,47,medium,plus,dotcolour,beta,,,40,18,V,R,
274,22,22,6,2,33,47,834,['c'],0,right,['2'],5,347,[0.07669181],98,47,medium,plus,dotcolour,beta,,,40,18,V,R,
275,23,23,6,2,36,44,600,['n'],1,right,['2'],5,294,[-0.10320511],99,44,hard,plus,dotcolour,beta,,,40,18,V,R,
276,24,24,6,2,53,27,916,['c'],1,left,['1'],6,239,[0.12106809],100,53,easy,plus,dotcolour,beta,,,40,18,V,R,
277,25,25,6,2,36,44,534,['n'],1,right,['0'],1,697,[-0.19687596],100,44,hard,plus,dotcolour,beta,,,40,18,V,R,
278,26,26,6,2,36,44,1367,['n'],1,right,['8'],3,768,[0.00480668],74,44,hard,plus,dotcolour,beta,,,40,18,V,R,
279,27,27,6,2,53,27,634,['c'],1,left,['1'],6,225,[0.10017095],100,53,easy,plus,dotcolour,beta,,,40,18,V,R,
280,28,28,6,2,47,33,933,['c'],1,left,['2'],5,403,[0.09699306],99,47,medium,plus,dotcolour,beta,,,40,18,V,R,
281,29,29,6,2,44,36,650,['c'],1,left,['2'],5,259,[0.0651179],99,44,hard,plus,dotcolour,beta,,,40,18,V,R,
282,30,30,6,2,27,53,600,['n'],1,right,['1'],6,385,[-0.2066326],100,53,easy,plus,dotcolour,beta,,,40,18,V,R,
283,31,31,6,2,47,33,1068,['n'],0,left,['1'],6,361,[0.0092273],80,47,medium,plus,dotcolour,beta,,,40,18,V,R,
284,32,32,6,2,27,53,616,['n'],1,right,['1'],6,211,[-0.11685423],100,53,easy,plus,dotcolour,beta,,,40,18,V,R,
285,33,33,6,2,36,44,1116,['c'],0,right,['1'],6,263,[0.04394313],97,44,hard,plus,dotcolour,beta,,,40,18,V,R,
286,34,34,6,2,53,27,483,['n'],0,left,['1'],6,410,[-0.04437663],94,53,easy,plus,dotcolour,beta,,,40,18,V,R,
287,35,35,6,2,44,36,1417,['n'],0,left,['1'],6,386,[-0.07325977],98,44,hard,plus,dotcolour,beta,,,40,18,V,R,
288,36,36,6,2,36,44,634,['n'],1,right,['1'],6,251,[-0.03764275],97,44,hard,plus,dotcolour,beta,,,40,18,V,R,
289,37,37,6,2,27,53,700,['n'],1,right,['1'],6,254,[-0.1279247],100,53,easy,plus,dotcolour,beta,,,40,18,V,R,
290,38,38,6,2,44,36,733,['c'],1,left,['1'],6,296,[0.14022836],100,44,hard,plus,dotcolour,beta,,,40,18,V,R,
291,39,39,6,2,53,27,517,['n'],0,left,['1'],6,241,[0.01575622],81,53,easy,plus,dotcolour,beta,,,40,18,V,R,
292,40,40,6,2,53,27,684,['n'],0,left,['1'],6,133,[-0.07738862],100,53,easy,plus,dotcolour,beta,,,40,18,V,R,
293,41,41,6,2,36,44,1066,['c'],0,right,['1'],6,406,[-0.06711568],42,44,hard,plus,dotcolour,beta,,,40,18,V,R,
294,42,0,7,2,53,27,617,['n'],0,left,['8'],3,967,[-0.01111775],77,53,easy,plus,dotcolour,beta,,,40,18,V,R,
295,43,1,7,2,47,33,884,['c'],1,left,['1'],6,254,[0.101049],100,47,medium,plus,dotcolour,beta,,,40,18,V,R,
296,44,2,7,2,27,53,566,['n'],1,right,['1'],6,222,[-0.08934596],100,53,easy,plus,dotcolour,beta,,,40,18,V,R,
297,45,3,7,2,47,33,634,['n'],0,left,['2'],5,1613,[0.22041368],9,47,medium,plus,dotcolour,beta,,,40,18,V,R,
298,46,4,7,2,53,27,983,['c'],1,left,['1'],6,262,[0.13162052],100,53,easy,plus,dotcolour,beta,,,40,18,V,R,
299,47,5,7,2,47,33,617,['n'],0,left,['0'],1,1148,[0.19713191],8,47,medium,plus,dotcolour,beta,,,40,18,V,R,
300,48,6,7,2,33,47,950,['c'],0,right,['0'],1,1097,[-0.1360607],20,47,medium,plus,dotcolour,beta,,,40,18,V,R,
301,49,7,7,2,44,36,1067,['c'],1,left,['3'],4,741,[0.01836268],82,44,hard,plus,dotcolour,beta,,,40,18,V,R,
302,50,8,7,2,44,36,1466,['c'],1,left,['1'],6,261,[0.01785755],93,44,hard,plus,dotcolour,beta,,,40,18,V,R,
303,51,9,7,2,47,33,783,['c'],1,left,['2'],5,356,[0.0955461],99,47,medium,plus,dotcolour,beta,,,40,18,V,R,
304,52,10,7,2,36,44,1068,['n'],1,right,['2'],5,468,[0.08111492],34,44,hard,plus,dotcolour,beta,,,40,18,V,R,
305,53,11,7,2,53,27,700,['c'],1,left,['3'],4,839,[0.24408293],100,53,easy,plus,dotcolour,beta,,,40,18,V,R,
306,54,12,7,2,27,53,499,['n'],1,right,['1'],6,282,[-0.11065098],100,53,easy,plus,dotcolour,beta,,,40,18,V,R,
307,55,13,7,2,47,33,549,['n'],0,left,['2'],5,275,[-0.02636643],94,47,medium,plus,dotcolour,beta,,,40,18,V,R,
308,56,14,7,2,53,27,733,['c'],1,left,['2'],5,339,[0.08879658],99,53,easy,plus,dotcolour,beta,,,40,18,V,R,
309,57,15,7,2,27,53,550,['n'],1,right,['1'],6,384,[-0.12864375],100,53,easy,plus,dotcolour,beta,,,40,18,V,R,
310,58,16,7,2,33,47,1283,['n'],1,right,['1'],6,439,[-0.10486067],99,47,medium,plus,dotcolour,beta,,,40,18,V,R,
311,59,17,7,2,36,44,882,['c'],0,right,['1'],6,243,[0.06547239],99,44,hard,plus,dotcolour,beta,,,40,18,V,R,
312,60,18,7,2,53,27,902,['c'],1,left,['1'],6,350,[0.07305373],98,53,easy,plus,dotcolour,beta,,,40,18,V,R,
313,61,19,7,2,27,53,650,['n'],1,right,['1'],6,160,[-0.12046956],100,53,easy,plus,dotcolour,beta,,,40,18,V,R,
314,62,20,7,2,44,36,1434,['c'],1,left,['3'],4,1034,[0.11574832],95,44,hard,plus,dotcolour,beta,,,40,18,V,R,
315,63,21,7,2,27,53,632,['n'],1,right,['1'],6,215,[-0.10952673],100,53,easy,plus,dotcolour,beta,,,40,18,V,R,
316,64,22,7,2,44,36,716,['c'],1,left,['1'],6,283,[0.11785805],100,44,hard,plus,dotcolour,beta,,,40,18,V,R,
317,65,23,7,2,33,47,500,['n'],1,right,['1'],6,205,[-0.0279691],97,47,medium,plus,dotcolour,beta,,,40,18,V,R,
318,66,24,7,2,36,44,517,['n'],1,right,['2'],5,442,[-0.13238052],99,44,hard,plus,dotcolour,beta,,,40,18,V,R,
319,67,25,7,2,44,36,1450,['n'],0,left,['3'],4,399,[0.01636657],75,44,hard,plus,dotcolour,beta,,,40,18,V,R,
320,68,26,7,2,36,44,516,['n'],1,right,['3'],4,275,[-0.07607541],99,44,hard,plus,dotcolour,beta,,,40,18,V,R,
321,69,27,7,2,36,44,1350,['n'],1,right,['1'],6,540,[-0.0428459],92,44,hard,plus,dotcolour,beta,,,40,18,V,R,
322,70,28,7,2,53,27,634,['c'],1,left,['1'],6,470,[0.26940496],100,53,easy,plus,dotcolour,beta,,,40,18,V,R,
323,71,29,7,2,36,44,767,['n'],1,right,['1'],6,302,[-0.03759086],95,44,hard,plus,dotcolour,beta,,,40,18,V,R,
324,72,30,7,2,33,47,434,['n'],1,right,['1'],6,426,[-0.02117356],89,47,medium,plus,dotcolour,beta,,,40,18,V,R,
325,73,31,7,2,36,44,550,['n'],1,right,['2'],5,356,[-0.16490403],100,44,hard,plus,dotcolour,beta,,,40,18,V,R,
326,74,32,7,2,33,47,634,['n'],1,right,['2'],5,221,[-0.11887874],100,47,medium,plus,dotcolour,beta,,,40,18,V,R,
327,75,33,7,2,27,53,500,['n'],1,right,['1'],6,395,[-0.15019814],100,53,easy,plus,dotcolour,beta,,,40,18,V,R,
328,76,34,7,2,47,33,1050,['c'],1,left,['2'],5,561,[0.1574748],99,47,medium,plus,dotcolour,beta,,,40,18,V,R,
329,77,35,7,2,53,27,732,['c'],1,left,['1'],6,431,[0.12518107],99,53,easy,plus,dotcolour,beta,,,40,18,V,R,
330,78,36,7,2,47,33,600,['c'],1,left,['1'],6,295,[0.09664047],99,47,medium,plus,dotcolour,beta,,,40,18,V,R,
331,79,37,7,2,27,53,500,['n'],1,right,['1'],6,256,[-0.13122722],100,53,easy,plus,dotcolour,beta,,,40,18,V,R,
332,80,38,7,2,33,47,1033,['n'],1,right,['2'],5,373,[-0.09535551],99,47,medium,plus,dotcolour,beta,,,40,18,V,R,
333,81,39,7,2,44,36,584,['n'],0,left,['2'],5,240,[-0.04041809],97,44,hard,plus,dotcolour,beta,,,40,18,V,R,
334,82,40,7,2,44,36,684,['n'],0,left,['8'],3,1293,[-0.05980412],86,44,hard,plus,dotcolour,beta,,,40,18,V,R,
335,83,41,7,2,33,47,667,['n'],1,right,['1'],6,135,[-0.1079976],100,47,medium,plus,dotcolour,beta,,,40,18,V,R,
336,84,0,8,2,47,33,634,['n'],0,left,['8'],3,830,[0.14326776],15,47,medium,plus,dotcolour,beta,,,40,18,V,R,
337,85,1,8,2,53,27,1100,['c'],1,left,['1'],6,410,[0.15484746],100,53,easy,plus,dotcolour,beta,,,40,18,V,R,
338,86,2,8,2,47,33,917,['c'],1,left,['2'],5,414,[0.11789644],99,47,medium,plus,dotcolour,beta,,,40,18,V,R,
339,87,3,8,2,33,47,650,['n'],1,right,['2'],5,1076,[-0.14997697],97,47,medium,plus,dotcolour,beta,,,40,18,V,R,
340,88,4,8,2,33,47,684,['n'],1,right,['2'],5,303,[-0.10203719],99,47,medium,plus,dotcolour,beta,,,40,18,V,R,
341,89,5,8,2,27,53,617,['n'],1,right,['2'],5,228,[-0.13194421],100,53,easy,plus,dotcolour,beta,,,40,18,V,R,
342,90,6,8,2,33,47,517,['n'],1,right,['2'],5,199,[-0.06875919],99,47,medium,plus,dotcolour,beta,,,40,18,V,R,
343,91,7,8,2,44,36,883,['c'],1,left,['2'],5,253,[0.03128608],96,44,hard,plus,dotcolour,beta,,,40,18,V,R,
344,92,8,8,2,47,33,667,['c'],1,left,['2'],5,314,[0.08242185],99,47,medium,plus,dotcolour,beta,,,40,18,V,R,
345,93,9,8,2,36,44,900,['c'],0,right,['2'],5,258,[0.04336275],97,44,hard,plus,dotcolour,beta,,,40,18,V,R,
346,94,10,8,2,47,33,667,['c'],1,left,['2'],5,326,[0.16446162],100,47,medium,plus,dotcolour,beta,,,40,18,V,R,
347,95,11,8,2,53,27,550,['c'],1,left,['2'],5,300,[0.09694284],99,53,easy,plus,dotcolour,beta,,,40,18,V,R,
348,96,12,8,2,27,53,650,['n'],1,right,['1'],6,160,[-0.08853163],100,53,easy,plus,dotcolour,beta,,,40,18,V,R,
349,97,13,8,2,47,33,966,['n'],0,left,['1'],6,309,[-0.08900938],99,47,medium,plus,dotcolour,beta,,,40,18,V,R,
350,98,14,8,2,33,47,616,['n'],1,right,['1'],6,360,[-0.09289011],99,47,medium,plus,dotcolour,beta,,,40,18,V,R,
351,99,15,8,2,53,27,667,['c'],1,left,['2'],5,304,[0.13705579],100,53,easy,plus,dotcolour,beta,,,40,18,V,R,
352,100,16,8,2,53,27,683,['c'],1,left,['2'],5,250,[0.16631655],100,53,easy,plus,dotcolour,beta,,,40,18,V,R,
353,101,17,8,2,44,36,750,['n'],0,left,['2'],5,171,[-0.01924903],96,44,hard,plus,dotcolour,beta,,,40,18,V,R,
354,102,18,8,2,33,47,584,['n'],1,right,['2'],5,190,[-0.11607323],100,47,medium,plus,dotcolour,beta,,,40,18,V,R,
355,103,19,8,2,27,53,517,['n'],1,right,['2'],5,235,[-0.09247841],100,53,easy,plus,dotcolour,beta,,,40,18,V,R,
356,104,20,8,2,27,53,467,['n'],1,right,['2'],5,152,[-0.11960287],100,53,easy,plus,dotcolour,beta,,,40,18,V,R,
357,105,21,8,2,47,33,850,['c'],1,left,['2'],5,258,[0.03876508],97,47,medium,plus,dotcolour,beta,,,40,18,V,R,
358,106,22,8,2,36,44,567,['n'],1,right,['1'],6,178,[-0.13548049],100,44,hard,plus,dotcolour,beta,,,40,18,V,R,
359,107,23,8,2,44,36,734,['c'],1,left,['2'],5,311,[0.0788476],99,44,hard,plus,dotcolour,beta,,,40,18,V,R,
360,108,24,8,2,36,44,567,['n'],1,right,['1'],6,245,[-0.06820334],99,44,hard,plus,dotcolour,beta,,,40,18,V,R,
361,109,25,8,2,33,47,650,['n'],1,right,['1'],6,226,[-0.15948109],100,47,medium,plus,dotcolour,beta,,,40,18,V,R,
362,110,26,8,2,44,36,651,['c'],1,left,['2'],5,240,[0.08512832],99,44,hard,plus,dotcolour,beta,,,40,18,V,R,
363,111,27,8,2,53,27,799,['c'],1,left,['2'],5,216,[0.15897904],100,53,easy,plus,dotcolour,beta,,,40,18,V,R,
364,112,28,8,2,47,33,433,['c'],1,left,['2'],5,167,[0.04123091],99,47,medium,plus,dotcolour,beta,,,40,18,V,R,
365,113,29,8,2,27,53,600,['n'],1,right,['1'],6,913,[-0.33380983],100,53,easy,plus,dotcolour,beta,,,40,18,V,R,
366,114,30,8,2,44,36,783,['n'],0,left,['1'],6,176,[-0.10892894],100,44,hard,plus,dotcolour,beta,,,40,18,V,R,
367,115,31,8,2,36,44,584,['n'],1,right,['3'],4,762,[-0.09787998],96,44,hard,plus,dotcolour,beta,,,40,18,V,R,
368,116,32,8,2,33,47,1166,['c'],0,right,['8'],3,822,[0.0433306],88,47,medium,plus,dotcolour,beta,,,40,18,V,R,
369,117,33,8,2,36,44,1317,['c'],0,right,['2'],5,457,[0.06175933],96,44,hard,plus,dotcolour,beta,,,40,18,V,R,
370,118,34,8,2,44,36,950,['c'],1,left,['2'],5,538,[0.06598621],95,44,hard,plus,dotcolour,beta,,,40,18,V,R,
371,119,35,8,2,27,53,701,['n'],1,right,['1'],6,121,[-0.13124381],100,53,easy,plus,dotcolour,beta,,,40,18,V,R,
372,120,36,8,2,36,44,467,['n'],1,right,['1'],6,275,[-0.05976322],98,44,hard,plus,dotcolour,beta,,,40,18,V,R,
373,121,37,8,2,44,36,800,['c'],1,left,['2'],5,369,[0.13246788],100,44,hard,plus,dotcolour,beta,,,40,18,V,R,
374,122,38,8,2,53,27,450,['c'],1,left,['1'],6,290,[0.11131079],100,53,easy,plus,dotcolour,beta,,,40,18,V,R,
375,123,39,8,2,27,53,617,['n'],1,right,['1'],6,143,[-0.09207938],100,53,easy,plus,dotcolour,beta,,,40,18,V,R,
376,124,40,8,2,36,44,700,['n'],1,right,['2'],5,294,[0.06562292],42,44,hard,plus,dotcolour,beta,,,40,18,V,R,
377,125,41,8,2,53,27,816,['c'],1,left,['1'],6,218,[0.05161675],98,53,easy,plus,dotcolour,beta,,,40,18,V,R,
378,0,0,9,3,44,36,618,['n'],0,left,['2'],5,357,[-0.00237321],17,44,hard,minus,dotcolour,beta,,,40,18,V,R,
379,1,1,9,3,44,36,516,['n'],0,left,['1'],6,354,[-0.03369584],34,44,hard,minus,dotcolour,beta,,,40,18,V,R,
380,2,2,9,3,44,36,1434,['n'],0,left,['3'],4,436,[-0.05038651],46,44,hard,minus,dotcolour,beta,,,40,18,V,R,
381,3,3,9,3,47,33,916,['c'],1,left,['1'],6,232,[0.1055196],87,47,medium,minus,dotcolour,beta,,,40,18,V,R,
382,4,4,9,3,44,36,700,['c'],1,left,['1'],6,331,[0.06103091],54,44,hard,minus,dotcolour,beta,,,40,18,V,R,
383,5,5,9,3,47,33,600,['n'],0,left,['0'],1,791,[0.00068514],24,47,medium,minus,dotcolour,beta,,,40,18,V,R,
384,6,6,9,3,47,33,1084,['n'],0,left,['2'],5,246,[-0.04569121],41,47,medium,minus,dotcolour,beta,,,40,18,V,R,
385,7,7,9,3,47,33,1068,['c'],1,left,['1'],6,290,[0.05425903],49,47,medium,minus,dotcolour,beta,,,40,18,V,R,
386,8,8,9,3,47,33,534,['c'],1,left,['1'],6,250,[0.12055329],91,47,medium,minus,dotcolour,beta,,,40,18,V,R,
387,9,9,9,3,36,44,833,['c'],0,right,['1'],6,216,[0.02626396],24,44,hard,minus,dotcolour,beta,,,40,18,V,R,
388,10,10,9,3,33,47,717,['n'],1,right,['2'],5,220,[-0.11897378],92,47,medium,minus,dotcolour,beta,,,40,18,V,R,
389,11,11,9,3,44,36,783,['c'],1,left,['8'],3,1173,[0.05375084],49,44,hard,minus,dotcolour,beta,,,40,18,V,R,
390,12,12,9,3,53,27,617,['c'],1,left,['1'],6,263,[0.1011852],83,53,easy,minus,dotcolour,beta,,,40,18,V,R,
391,13,13,9,3,27,53,484,['n'],1,right,['1'],6,170,[-0.04696918],41,53,easy,minus,dotcolour,beta,,,40,18,V,R,
392,14,14,9,3,53,27,767,['c'],1,left,['1'],6,198,[0.07616025],70,53,easy,minus,dotcolour,beta,,,40,18,V,R,
393,15,15,9,3,36,44,1567,['c'],0,right,['2'],5,329,[0.10086273],81,44,hard,minus,dotcolour,beta,,,40,18,V,R,
394,16,16,9,3,53,27,801,['c'],1,left,['1'],6,557,[0.1567537],92,53,easy,minus,dotcolour,beta,,,40,18,V,R,
395,17,17,9,3,36,44,601,['n'],1,right,['1'],6,184,[-0.1552017],98,44,hard,minus,dotcolour,beta,,,40,18,V,R,
396,18,18,9,3,33,47,434,['n'],1,right,['2'],5,144,[-0.06287176],59,47,medium,minus,dotcolour,beta,,,40,18,V,R,
397,19,19,9,3,53,27,784,['c'],1,left,['1'],6,180,[0.11809335],93,53,easy,minus,dotcolour,beta,,,40,18,V,R,
398,20,20,9,3,33,47,1350,['n'],1,right,['2'],5,336,[-0.10841681],84,47,medium,minus,dotcolour,beta,,,40,18,V,R,
399,21,21,9,3,36,44,700,['n'],1,right,['2'],5,184,[-0.06270612],57,44,hard,minus,dotcolour,beta,,,40,18,V,R,
400,22,22,9,3,36,44,1034,['c'],0,right,['0'],1,1137,[-0.0801179],9,44,hard,minus,dotcolour,beta,,,40,18,V,R,
401,23,23,9,3,47,33,1317,['n'],0,left,['0'],1,1040,[0.02982832],18,47,medium,minus,dotcolour,beta,,,40,18,V,R,
402,24,24,9,3,36,44,550,['c'],0,right,['2'],5,457,[0.02790141],32,44,hard,minus,dotcolour,beta,,,40,18,V,R,
403,25,25,9,3,36,44,1516,['c'],0,right,['3'],4,1323,[0.16247428],84,44,hard,minus,dotcolour,beta,,,40,18,V,R,
404,26,26,9,3,44,36,1350,['n'],0,left,['1'],6,145,[-0.03097721],24,44,hard,minus,dotcolour,beta,,,40,18,V,R,
405,27,27,9,3,47,33,952,['c'],1,left,['1'],6,471,[0.06893433],59,47,medium,minus,dotcolour,beta,,,40,18,V,R,
406,28,28,9,3,27,53,550,['n'],1,right,['1'],6,198,[-0.06039154],55,53,easy,minus,dotcolour,beta,,,40,18,V,R,
407,29,29,9,3,27,53,684,['n'],1,right,['1'],6,133,[-0.09532503],88,53,easy,minus,dotcolour,beta,,,40,18,V,R,
408,30,30,9,3,53,27,850,['n'],0,left,['0'],1,623,[0.09288109],3,53,easy,minus,dotcolour,beta,,,40,18,V,R,
409,31,31,9,3,33,47,1399,['n'],1,right,['3'],4,703,[-0.14370128],87,47,medium,minus,dotcolour,beta,,,40,18,V,R,
410,32,32,9,3,27,53,650,['n'],1,right,['1'],6,177,[-0.10359329],89,53,easy,minus,dotcolour,beta,,,40,18,V,R,
411,33,33,9,3,33,47,500,['n'],1,right,['1'],6,183,[-0.17534305],99,47,medium,minus,dotcolour,beta,,,40,18,V,R,
412,34,34,9,3,33,47,433,['n'],1,right,['1'],6,232,[-0.0623208],56,47,medium,minus,dotcolour,beta,,,40,18,V,R,
413,35,35,9,3,44,36,716,['c'],1,left,['1'],6,235,[-0.00014209],11,44,hard,minus,dotcolour,beta,,,40,18,V,R,
414,36,36,9,3,53,27,916,['c'],1,left,['1'],6,223,[0.09821682],84,53,easy,minus,dotcolour,beta,,,40,18,V,R,
415,37,37,9,3,27,53,567,['n'],1,right,['1'],6,128,[-0.10910611],94,53,easy,minus,dotcolour,beta,,,40,18,V,R,
416,38,38,9,3,33,47,550,['n'],1,right,['1'],6,134,[-0.04380319],36,47,medium,minus,dotcolour,beta,,,40,18,V,R,
417,39,39,9,3,27,53,650,['n'],1,right,['1'],6,328,[-0.14901418],95,53,easy,minus,dotcolour,beta,,,40,18,V,R,
418,40,40,9,3,27,53,683,['n'],1,right,['1'],6,137,[-0.06082255],56,53,easy,minus,dotcolour,beta,,,40,18,V,R,
419,41,41,9,3,53,27,551,['c'],1,left,['1'],6,255,[0.11950188],91,53,easy,minus,dotcolour,beta,,,40,18,V,R,
420,42,0,10,3,36,44,1067,['n'],1,right,['1'],6,331,[-0.06657909],59,44,hard,minus,dotcolour,beta,,,40,18,V,R,
421,43,1,10,3,33,47,650,['n'],1,right,['1'],6,189,[-0.05629139],51,47,medium,minus,dotcolour,beta,,,40,18,V,R,
422,44,2,10,3,27,53,467,['n'],1,right,['1'],6,292,[-0.06632662],59,53,easy,minus,dotcolour,beta,,,40,18,V,R,
423,45,3,10,3,53,27,667,['c'],1,left,['1'],6,302,[0.13248165],93,53,easy,minus,dotcolour,beta,,,40,18,V,R,
424,46,4,10,3,27,53,633,['n'],1,right,['2'],5,274,[-0.10890201],86,53,easy,minus,dotcolour,beta,,,40,18,V,R,
425,47,5,10,3,33,47,1067,['n'],1,right,['2'],5,206,[-0.20712154],100,47,medium,minus,dotcolour,beta,,,40,18,V,R,
426,48,6,10,3,33,47,766,['n'],1,right,['2'],5,168,[-0.11183889],92,47,medium,minus,dotcolour,beta,,,40,18,V,R,
427,49,7,10,3,33,47,401,['n'],1,right,['2'],5,186,[-0.11856666],93,47,medium,minus,dotcolour,beta,,,40,18,V,R,
428,50,8,10,3,33,47,516,['n'],1,right,['1'],6,191,[-0.07675712],71,47,medium,minus,dotcolour,beta,,,40,18,V,R,
429,51,9,10,3,47,33,967,['c'],1,left,['1'],6,274,[0.13820892],94,47,medium,minus,dotcolour,beta,,,40,18,V,R,
430,52,10,10,3,53,27,583,['c'],1,left,['2'],5,249,[0.11542341],90,53,easy,minus,dotcolour,beta,,,40,18,V,R,
431,53,11,10,3,27,53,484,['n'],1,right,['1'],6,221,[-0.12655143],94,53,easy,minus,dotcolour,beta,,,40,18,V,R,
432,54,12,10,3,27,53,384,['n'],1,right,['1'],6,150,[-0.16750528],99,53,easy,minus,dotcolour,beta,,,40,18,V,R,
433,55,13,10,3,44,36,582,['c'],1,left,['2'],5,275,[0.10220006],83,44,hard,minus,dotcolour,beta,,,40,18,V,R,
434,56,14,10,3,36,44,450,['n'],1,right,['1'],6,367,[-0.1105941],84,44,hard,minus,dotcolour,beta,,,40,18,V,R,
435,57,15,10,3,53,27,800,['c'],1,left,['2'],5,305,[0.02498779],27,53,easy,minus,dotcolour,beta,,,40,18,V,R,
436,58,16,10,3,27,53,567,['n'],1,right,['1'],6,240,[-0.06833591],62,53,easy,minus,dotcolour,beta,,,40,18,V,R,
437,59,17,10,3,27,53,450,['n'],1,right,['1'],6,172,[-0.13430832],97,53,easy,minus,dotcolour,beta,,,40,18,V,R,
438,60,18,10,3,44,36,600,['n'],0,left,['1'],6,287,[-0.11663929],89,44,hard,minus,dotcolour,beta,,,40,18,V,R,
439,61,19,10,3,53,27,566,['c'],1,left,['1'],6,414,[0.1516759],94,53,easy,minus,dotcolour,beta,,,40,18,V,R,
440,62,20,10,3,36,44,1399,['n'],1,right,['3'],4,463,[-0.02433346],30,44,hard,minus,dotcolour,beta,,,40,18,V,R,
441,63,21,10,3,44,36,1150,['n'],0,left,['3'],4,439,[-0.13278583],89,44,hard,minus,dotcolour,beta,,,40,18,V,R,
442,64,22,10,3,47,33,1365,['c'],1,left,['3'],4,545,[0.10351203],76,47,medium,minus,dotcolour,beta,,,40,18,V,R,
443,65,23,10,3,44,36,600,['c'],1,left,['3'],4,324,[0.08149385],69,44,hard,minus,dotcolour,beta,,,40,18,V,R,
444,66,24,10,3,33,47,683,['n'],1,right,['2'],5,220,[-0.04228622],38,47,medium,minus,dotcolour,beta,,,40,18,V,R,
445,67,25,10,3,36,44,717,['n'],1,right,['2'],5,208,[-0.07344013],67,44,hard,minus,dotcolour,beta,,,40,18,V,R,
446,68,26,10,3,44,36,551,['n'],0,left,['2'],5,219,[-0.09691132],83,44,hard,minus,dotcolour,beta,,,40,18,V,R,
447,69,27,10,3,36,44,500,['n'],1,right,['2'],5,184,[-0.06901655],64,44,hard,minus,dotcolour,beta,,,40,18,V,R,
448,70,28,10,3,47,33,700,['c'],1,left,['1'],6,238,[0.05657935],51,47,medium,minus,dotcolour,beta,,,40,18,V,R,
449,71,29,10,3,53,27,450,['c'],1,left,['1'],6,252,[0.08354707],73,53,easy,minus,dotcolour,beta,,,40,18,V,R,
450,72,30,10,3,47,33,983,['n'],0,left,['2'],5,324,[-0.05291268],48,47,medium,minus,dotcolour,beta,,,40,18,V,R,
451,73,31,10,3,47,33,633,['c'],1,left,['2'],5,431,[0.00401839],20,47,medium,minus,dotcolour,beta,,,40,18,V,R,
452,74,32,10,3,44,36,601,['n'],0,left,['2'],5,206,[-0.05492553],49,44,hard,minus,dotcolour,beta,,,40,18,V,R,
453,75,33,10,3,53,27,600,['c'],1,left,['2'],5,215,[0.08250209],74,53,easy,minus,dotcolour,beta,,,40,18,V,R,
454,76,34,10,3,47,33,750,['c'],1,left,['2'],5,234,[0.18154951],99,47,medium,minus,dotcolour,beta,,,40,18,V,R,
455,77,35,10,3,27,53,600,['n'],1,right,['2'],5,169,[-0.1549634],99,53,easy,minus,dotcolour,beta,,,40,18,V,R,
456,78,36,10,3,47,33,600,['c'],1,left,['2'],5,437,[0.07304241],62,47,medium,minus,dotcolour,beta,,,40,18,V,R,
457,79,37,10,3,44,36,833,['c'],1,left,['3'],4,259,[0.18632887],99,44,hard,minus,dotcolour,beta,,,40,18,V,R,
458,80,38,10,3,33,47,1000,['c'],0,right,['3'],4,273,[0.14156782],95,47,medium,minus,dotcolour,beta,,,40,18,V,R,
459,81,39,10,3,36,44,999,['n'],1,right,['1'],6,320,[-0.20665953],99,44,hard,minus,dotcolour,beta,,,40,18,V,R,
460,82,40,10,3,53,27,1434,['c'],1,left,['3'],4,755,[0.16807281],91,53,easy,minus,dotcolour,beta,,,40,18,V,R,
461,83,41,10,3,36,44,634,['n'],1,right,['3'],4,373,[-0.11202888],84,44,hard,minus,dotcolour,beta,,,40,18,V,R,
462,84,0,11,3,27,53,983,['n'],1,right,['1'],6,182,[-0.10089603],87,53,easy,minus,dotcolour,beta,,,40,18,V,R,
463,85,1,11,3,33,47,467,['n'],1,right,['2'],5,326,[-0.14565485],94,47,medium,minus,dotcolour,beta,,,40,18,V,R,
464,86,2,11,3,36,44,484,['n'],1,right,['2'],5,191,[-0.11981119],93,44,hard,minus,dotcolour,beta,,,40,18,V,R,
465,87,3,11,3,27,53,500,['n'],1,right,['1'],6,331,[-0.18470772],98,53,easy,minus,dotcolour,beta,,,40,18,V,R,
466,88,4,11,3,47,33,900,['c'],1,left,['2'],5,276,[0.14597669],96,47,medium,minus,dotcolour,beta,,,40,18,V,R,
467,89,5,11,3,36,44,485,['n'],1,right,['2'],5,247,[-0.13898222],95,44,hard,minus,dotcolour,beta,,,40,18,V,R,
468,90,6,11,3,33,47,950,['n'],1,right,['1'],6,192,[-0.11567534],92,47,medium,minus,dotcolour,beta,,,40,18,V,R,
469,91,7,11,3,33,47,868,['c'],0,right,['0'],1,1263,[0.00287314],30,47,medium,minus,dotcolour,beta,,,40,18,V,R,
470,92,8,11,3,33,47,567,['n'],1,right,['2'],5,367,[0.0112952],12,47,medium,minus,dotcolour,beta,,,40,18,V,R,
471,93,9,11,3,44,36,700,['n'],0,left,['1'],6,262,[-0.0798243],70,44,hard,minus,dotcolour,beta,,,40,18,V,R,
472,94,10,11,3,53,27,717,['n'],0,left,['1'],6,463,[-0.04355508],42,53,easy,minus,dotcolour,beta,,,40,18,V,R,
473,95,11,11,3,27,53,650,['n'],1,right,['2'],5,172,[-0.08093218],75,53,easy,minus,dotcolour,beta,,,40,18,V,R,
474,96,12,11,3,47,33,683,['n'],0,left,['1'],6,219,[-0.01809462],19,47,medium,minus,dotcolour,beta,,,40,18,V,R,
475,97,13,11,3,44,36,1100,['n'],0,left,['2'],5,575,[-0.14213208],89,44,hard,minus,dotcolour,beta,,,40,18,V,R,
476,98,14,11,3,36,44,1049,['n'],1,right,['1'],6,279,[-0.12552054],92,44,hard,minus,dotcolour,beta,,,40,18,V,R,
477,99,15,11,3,47,33,666,['c'],1,left,['1'],6,267,[0.1432365],95,47,medium,minus,dotcolour,beta,,,40,18,V,R,
478,100,16,11,3,33,47,850,['n'],1,right,['1'],6,319,[-0.08774096],74,47,medium,minus,dotcolour,beta,,,40,18,V,R,
479,101,17,11,3,44,36,700,['c'],1,left,['1'],6,384,[0.07670091],65,44,hard,minus,dotcolour,beta,,,40,18,V,R,
480,102,18,11,3,53,27,550,['n'],0,left,['1'],6,204,[-0.15330767],98,53,easy,minus,dotcolour,beta,,,40,18,V,R,
481,103,19,11,3,53,27,501,['n'],0,left,['1'],6,129,[-0.02739723],20,53,easy,minus,dotcolour,beta,,,40,18,V,R,
482,104,20,11,3,47,33,483,['n'],0,left,['1'],6,234,[0.03021823],4,47,medium,minus,dotcolour,beta,,,40,18,V,R,
483,105,21,11,3,47,33,667,['n'],0,left,['1'],6,528,[-0.06768531],57,47,medium,minus,dotcolour,beta,,,40,18,V,R,
484,106,22,11,3,53,27,984,['c'],1,left,['1'],6,364,[0.16759406],97,53,easy,minus,dotcolour,beta,,,40,18,V,R,
485,107,23,11,3,27,53,533,['n'],1,right,['1'],6,338,[-0.09077253],75,53,easy,minus,dotcolour,beta,,,40,18,V,R,
486,108,24,11,3,27,53,650,['n'],1,right,['1'],6,1131,[-0.06911113],56,53,easy,minus,dotcolour,beta,,,40,18,V,R,
487,109,25,11,3,27,53,483,['n'],1,right,['2'],5,468,[-0.25225485],99,53,easy,minus,dotcolour,beta,,,40,18,V,R,
488,110,26,11,3,44,36,950,['c'],1,left,['2'],5,300,[0.10860344],85,44,hard,minus,dotcolour,beta,,,40,18,V,R,
489,111,27,11,3,53,27,450,['n'],0,left,['0'],1,744,[-0.02608155],35,53,easy,minus,dotcolour,beta,,,40,18,V,R,
490,112,28,11,3,53,27,599,['n'],0,left,['9'],2,1163,[0.02932742],20,53,easy,minus,dotcolour,beta,,,40,18,V,R,
491,113,29,11,3,33,47,684,['n'],1,right,['2'],5,411,[-0.08625309],70,47,medium,minus,dotcolour,beta,,,40,18,V,R,
492,114,30,11,3,44,36,850,['c'],1,left,['3'],4,1161,[0.2219002],94,44,hard,minus,dotcolour,beta,,,40,18,V,R,
493,115,31,11,3,47,33,883,['c'],1,left,['1'],6,233,[0.11091956],89,47,medium,minus,dotcolour,beta,,,40,18,V,R,
494,116,32,11,3,53,27,1034,['c'],1,left,['1'],6,799,[0.1978341],95,53,easy,minus,dotcolour,beta,,,40,18,V,R,
495,117,33,11,3,36,44,918,['n'],1,right,['2'],5,452,[-0.11831785],84,44,hard,minus,dotcolour,beta,,,40,18,V,R,
496,118,34,11,3,33,47,599,['n'],1,right,['1'],6,372,[-0.07572394],64,47,medium,minus,dotcolour,beta,,,40,18,V,R,
497,119,35,11,3,36,44,501,['n'],1,right,['1'],6,161,[-0.08495414],79,44,hard,minus,dotcolour,beta,,,40,18,V,R,
498,120,36,11,3,27,53,800,['n'],1,right,['1'],6,468,[-0.07566428],63,53,easy,minus,dotcolour,beta,,,40,18,V,R,
499,121,37,11,3,36,44,566,['n'],1,right,['1'],6,156,[-0.09604896],86,44,hard,minus,dotcolour,beta,,,40,18,V,R,
500,122,38,11,3,36,44,417,['n'],1,right,['1'],6,174,[-0.02129866],19,44,hard,minus,dotcolour,beta,,,40,18,V,R,
501,123,39,11,3,44,36,600,['c'],1,left,['2'],5,240,[0.11539985],90,44,hard,minus,dotcolour,beta,,,40,18,V,R,
502,124,40,11,3,44,36,599,['c'],1,left,['1'],6,223,[0.0873227],77,44,hard,minus,dotcolour,beta,,,40,18,V,R,
503,125,41,11,3,47,33,800,['n'],0,left,['2'],5,304,[0.08079826],1,47,medium,minus,dotcolour,beta,,,40,18,V,R,
504,0,0,12,4,33,47,684,['n'],1,right,['2'],5,323,[-0.24233934],100,47,medium,plus,dotcolour,beta,,,40,18,V,R,
505,1,1,12,4,53,27,750,['c'],1,left,['2'],5,241,[0.16592266],100,53,easy,plus,dotcolour,beta,,,40,18,V,R,
506,2,2,12,4,44,36,750,['c'],1,left,['2'],5,282,[0.10292309],100,44,hard,plus,dotcolour,beta,,,40,18,V,R,
507,3,3,12,4,47,33,884,['c'],1,left,['2'],5,277,[0.06278886],98,47,medium,plus,dotcolour,beta,,,40,18,V,R,
508,4,4,12,4,36,44,550,['n'],1,right,['2'],5,253,[-0.08902555],99,44,hard,plus,dotcolour,beta,,,40,18,V,R,
509,5,5,12,4,44,36,783,['n'],0,left,['2'],5,277,[-0.02805162],95,44,hard,plus,dotcolour,beta,,,40,18,V,R,
510,6,6,12,4,33,47,534,['n'],1,right,['1'],6,381,[-0.19763065],100,47,medium,plus,dotcolour,beta,,,40,18,V,R,
511,7,7,12,4,53,27,983,['c'],1,left,['1'],6,256,[0.07227806],99,53,easy,plus,dotcolour,beta,,,40,18,V,R,
512,8,8,12,4,47,33,750,['n'],0,left,['2'],5,248,[-0.07496958],99,47,medium,plus,dotcolour,beta,,,40,18,V,R,
513,9,9,12,4,47,33,833,['c'],1,left,['2'],5,247,[0.09868057],100,47,medium,plus,dotcolour,beta,,,40,18,V,R,
514,10,10,12,4,44,36,701,['c'],1,left,['2'],5,291,[0.04073183],96,44,hard,plus,dotcolour,beta,,,40,18,V,R,
515,11,11,12,4,53,27,482,['c'],1,left,['2'],5,253,[0.04433975],97,53,easy,plus,dotcolour,beta,,,40,18,V,R,
516,12,12,12,4,27,53,499,['n'],1,right,['1'],6,232,[-0.1234775],100,53,easy,plus,dotcolour,beta,,,40,18,V,R,
517,13,13,12,4,36,44,666,['n'],1,right,['2'],5,222,[-0.11884191],100,44,hard,plus,dotcolour,beta,,,40,18,V,R,
518,14,14,12,4,27,53,549,['n'],1,right,['1'],6,320,[-0.12821246],100,53,easy,plus,dotcolour,beta,,,40,18,V,R,
519,15,15,12,4,33,47,600,['n'],1,right,['1'],6,221,[-0.19147393],100,47,medium,plus,dotcolour,beta,,,40,18,V,R,
520,16,16,12,4,53,27,750,['c'],1,left,['1'],6,303,[0.07957404],99,53,easy,plus,dotcolour,beta,,,40,18,V,R,
521,17,17,12,4,33,47,566,['n'],1,right,['1'],6,390,[-0.08179011],98,47,medium,plus,dotcolour,beta,,,40,18,V,R,
522,18,18,12,4,36,44,434,['n'],1,right,['2'],5,286,[-0.07800124],99,44,hard,plus,dotcolour,beta,,,40,18,V,R,
523,19,19,12,4,53,27,550,['n'],0,left,['1'],6,206,[-0.0861825],100,53,easy,plus,dotcolour,beta,,,40,18,V,R,
524,20,20,12,4,27,53,467,['n'],1,right,['1'],6,228,[-0.09266688],100,53,easy,plus,dotcolour,beta,,,40,18,V,R,
525,21,21,12,4,33,47,599,['n'],1,right,['2'],5,188,[-0.08850141],100,47,medium,plus,dotcolour,beta,,,40,18,V,R,
526,22,22,12,4,53,27,584,['n'],0,left,['0'],1,870,[0.01560213],68,53,easy,plus,dotcolour,beta,,,40,18,V,R,
527,23,23,12,4,44,36,1050,['c'],1,left,['2'],5,323,[0.09673373],99,44,hard,plus,dotcolour,beta,,,40,18,V,R,
528,24,24,12,4,47,33,950,['c'],1,left,['3'],4,353,[0.06575086],98,47,medium,plus,dotcolour,beta,,,40,18,V,R,
529,25,25,12,4,47,33,683,['n'],0,left,['2'],5,417,[0.00879443],79,47,medium,plus,dotcolour,beta,,,40,18,V,R,
530,26,26,12,4,27,53,1167,['n'],1,right,['1'],6,227,[-0.10449089],100,53,easy,plus,dotcolour,beta,,,40,18,V,R,
531,27,27,12,4,47,33,800,['c'],1,left,['3'],4,395,[0.13536658],100,47,medium,plus,dotcolour,beta,,,40,18,V,R,
532,28,28,12,4,47,33,683,['c'],1,left,['2'],5,249,[0.13227727],100,47,medium,plus,dotcolour,beta,,,40,18,V,R,
533,29,29,12,4,44,36,1499,['c'],1,left,['2'],5,333,[0.09912974],99,44,hard,plus,dotcolour,beta,,,40,18,V,R,
534,30,30,12,4,44,36,900,['c'],1,left,['3'],4,445,[0.17792709],100,44,hard,plus,dotcolour,beta,,,40,18,V,R,
535,31,31,12,4,44,36,716,['c'],1,left,['3'],4,239,[0.06259269],99,44,hard,plus,dotcolour,beta,,,40,18,V,R,
536,32,32,12,4,53,27,500,['c'],1,left,['2'],5,674,[0.11875646],98,53,easy,plus,dotcolour,beta,,,40,18,V,R,
537,33,33,12,4,36,44,817,['n'],1,right,['1'],6,191,[-0.05141987],99,44,hard,plus,dotcolour,beta,,,40,18,V,R,
538,34,34,12,4,36,44,1033,['n'],1,right,['2'],5,151,[-0.04466071],99,44,hard,plus,dotcolour,beta,,,40,18,V,R,
539,35,35,12,4,27,53,534,['c'],0,right,['0'],1,1094,[0.02470303],80,53,easy,plus,dotcolour,beta,,,40,18,V,R,
540,36,36,12,4,27,53,683,['n'],1,right,['2'],5,335,[-0.1934586],100,53,easy,plus,dotcolour,beta,,,40,18,V,R,
541,37,37,12,4,36,44,1100,['c'],0,right,['2'],5,511,[0.18978083],100,44,hard,plus,dotcolour,beta,,,40,18,V,R,
542,38,38,12,4,27,53,550,['n'],1,right,['1'],6,166,[-0.08937483],100,53,easy,plus,dotcolour,beta,,,40,18,V,R,
543,39,39,12,4,36,44,683,['n'],1,right,['1'],6,174,[-0.02098975],96,44,hard,plus,dotcolour,beta,,,40,18,V,R,
544,40,40,12,4,33,47,616,['n'],1,right,['3'],4,336,[-0.17690758],100,47,medium,plus,dotcolour,beta,,,40,18,V,R,
545,41,41,12,4,33,47,451,['n'],1,right,['2'],5,289,[-0.10731946],100,47,medium,plus,dotcolour,beta,,,40,18,V,R,
546,42,0,13,4,36,44,750,['n'],1,right,['0'],1,284,[-0.16015037],100,44,hard,plus,dotcolour,beta,,,40,18,V,R,
547,43,1,13,4,44,36,1600,['c'],1,left,['3'],4,75,[0.08594991],100,44,hard,plus,dotcolour,beta,,,40,18,V,R,
548,44,2,13,4,44,36,633,['n'],0,left,['2'],5,231,[0.01741906],81,44,hard,plus,dotcolour,beta,,,40,18,V,R,
549,45,3,13,4,33,47,649,['n'],1,right,['1'],6,621,[-0.12136919],98,47,medium,plus,dotcolour,beta,,,40,18,V,R,
550,46,4,13,4,27,53,635,['n'],1,right,['1'],6,220,[-0.07530096],99,53,easy,plus,dotcolour,beta,,,40,18,V,R,
551,47,5,13,4,47,33,1033,['c'],1,left,['1'],6,427,[0.09043184],98,47,medium,plus,dotcolour,beta,,,40,18,V,R,
552,48,6,13,4,36,44,517,['n'],1,right,['2'],5,415,[-0.13301361],99,44,hard,plus,dotcolour,beta,,,40,18,V,R,
553,49,7,13,4,44,36,1800,['c'],1,left,['3'],4,416,[0.1123759],99,44,hard,plus,dotcolour,beta,,,40,18,V,R,
554,50,8,13,4,44,36,850,['c'],1,left,['3'],4,398,[-0.11118362],17,44,hard,plus,dotcolour,beta,,,40,18,V,R,
555,51,9,13,4,27,53,550,['n'],1,right,['1'],6,393,[-0.02285067],90,53,easy,plus,dotcolour,beta,,,40,18,V,R,
556,52,10,13,4,33,47,550,['n'],1,right,['2'],5,277,[-0.12661366],100,47,medium,plus,dotcolour,beta,,,40,18,V,R,
557,53,11,13,4,44,36,883,['c'],1,left,['2'],5,383,[0.13261122],100,44,hard,plus,dotcolour,beta,,,40,18,V,R,
558,54,12,13,4,47,33,1283,['n'],0,left,['2'],5,134,[-0.01295851],97,47,medium,plus,dotcolour,beta,,,40,18,V,R,
559,55,13,13,4,47,33,716,['n'],0,left,['1'],6,357,[0.05555898],50,47,medium,plus,dotcolour,beta,,,40,18,V,R,
560,56,14,13,4,47,33,683,['c'],1,left,['3'],4,373,[0.16545806],100,47,medium,plus,dotcolour,beta,,,40,18,V,R,
561,57,15,13,4,47,33,599,['c'],1,left,['3'],4,239,[0.07169609],99,47,medium,plus,dotcolour,beta,,,40,18,V,R,
562,58,16,13,4,27,53,716,['n'],1,right,['2'],5,257,[-0.236474],100,53,easy,plus,dotcolour,beta,,,40,18,V,R,
563,59,17,13,4,27,53,550,['n'],1,right,['2'],5,434,[-0.10860252],99,53,easy,plus,dotcolour,beta,,,40,18,V,R,
564,60,18,13,4,53,27,717,['c'],1,left,['1'],6,261,[-0.03717924],66,53,easy,plus,dotcolour,beta,,,40,18,V,R,
565,61,19,13,4,33,47,141,['n'],1,right,['1'],6,693,[-0.22902069],100,47,medium,plus,dotcolour,beta,,,40,18,V,R,
566,62,20,13,4,53,27,717,['c'],1,left,['1'],6,237,[0.16247943],100,53,easy,plus,dotcolour,beta,,,40,18,V,R,
567,63,21,13,4,44,36,668,['n'],0,left,['0'],1,826,[0.14041269],16,44,hard,plus,dotcolour,beta,,,40,18,V,R,
568,64,22,13,4,47,33,766,['c'],1,left,['1'],6,236,[0.12041019],100,47,medium,plus,dotcolour,beta,,,40,18,V,R,
569,65,23,13,4,27,53,584,['n'],1,right,['1'],6,340,[-0.13262652],100,53,easy,plus,dotcolour,beta,,,40,18,V,R,
570,66,24,13,4,53,27,550,['n'],0,left,['1'],6,177,[0.01128694],87,53,easy,plus,dotcolour,beta,,,40,18,V,R,
571,67,25,13,4,33,47,1017,['c'],0,right,['1'],6,619,[-0.04950341],53,47,medium,plus,dotcolour,beta,,,40,18,V,R,
572,68,26,13,4,33,47,683,['n'],1,right,['1'],6,201,[-0.10163305],100,47,medium,plus,dotcolour,beta,,,40,18,V,R,
573,69,27,13,4,53,27,633,['c'],1,left,['2'],5,384,[0.03499879],93,53,easy,plus,dotcolour,beta,,,40,18,V,R,
574,70,28,13,4,27,53,566,['n'],1,right,['1'],6,380,[-0.03395004],93,53,easy,plus,dotcolour,beta,,,40,18,V,R,
575,71,29,13,4,53,27,667,['n'],0,left,['1'],6,235,[0.01814413],80,53,easy,plus,dotcolour,beta,,,40,18,V,R,
576,72,30,13,4,27,53,634,['n'],1,right,['1'],6,906,[-0.15476425],98,53,easy,plus,dotcolour,beta,,,40,18,V,R,
577,73,31,13,4,36,44,1200,['n'],1,right,['2'],5,294,[-0.07444277],99,44,hard,plus,dotcolour,beta,,,40,18,V,R,
578,74,32,13,4,36,44,917,['c'],0,right,['0'],1,471,[0.08318527],97,44,hard,plus,dotcolour,beta,,,40,18,V,R,
579,75,33,13,4,36,44,500,['n'],1,right,['2'],5,321,[-0.17112065],100,44,hard,plus,dotcolour,beta,,,40,18,V,R,
580,76,34,13,4,36,44,350,['n'],1,right,['2'],5,232,[-0.06167497],99,44,hard,plus,dotcolour,beta,,,40,18,V,R,
581,77,35,13,4,33,47,466,['n'],1,right,['1'],6,229,[-0.01823254],94,47,medium,plus,dotcolour,beta,,,40,18,V,R,
582,78,36,13,4,53,27,999,['c'],1,left,['1'],6,381,[0.25826584],100,53,easy,plus,dotcolour,beta,,,40,18,V,R,
583,79,37,13,4,36,44,484,['n'],1,right,['1'],6,244,[-0.09672202],100,44,hard,plus,dotcolour,beta,,,40,18,V,R,
584,80,38,13,4,44,36,1200,['c'],1,left,['2'],5,403,[0.10246238],99,44,hard,plus,dotcolour,beta,,,40,18,V,R,
585,81,39,13,4,33,47,550,['n'],1,right,['1'],6,511,[-0.22191778],100,47,medium,plus,dotcolour,beta,,,40,18,V,R,
586,82,40,13,4,53,27,550,['n'],0,left,['1'],6,245,[0.00651541],86,53,easy,plus,dotcolour,beta,,,40,18,V,R,
587,83,41,13,4,47,33,833,['c'],1,left,['1'],6,379,[0.14468968],100,47,medium,plus,dotcolour,beta,,,40,18,V,R,
588,84,0,14,4,27,53,601,['n'],1,right,['1'],6,165,[-0.08296528],100,53,easy,plus,dotcolour,beta,,,40,18,V,R,
589,85,1,14,4,44,36,568,['n'],0,left,['1'],6,242,[-0.03899336],97,44,hard,plus,dotcolour,beta,,,40,18,V,R,
590,86,2,14,4,27,53,483,['n'],1,right,['1'],6,205,[-0.12625293],100,53,easy,plus,dotcolour,beta,,,40,18,V,R,
591,87,3,14,4,53,27,633,['c'],1,left,['1'],6,285,[0.0746629],99,53,easy,plus,dotcolour,beta,,,40,18,V,R,
592,88,4,14,4,36,44,717,['n'],1,right,['1'],6,174,[-0.15939033],100,44,hard,plus,dotcolour,beta,,,40,18,V,R,
593,89,5,14,4,53,27,567,['n'],0,left,['1'],6,241,[-0.04280951],97,53,easy,plus,dotcolour,beta,,,40,18,V,R,
594,90,6,14,4,44,36,734,['c'],1,left,['1'],6,227,[0.06638637],99,44,hard,plus,dotcolour,beta,,,40,18,V,R,
595,91,7,14,4,27,53,483,['n'],1,right,['1'],6,208,[-0.17347165],100,53,easy,plus,dotcolour,beta,,,40,18,V,R,
596,92,8,14,4,47,33,816,['c'],1,left,['1'],6,225,[0.09483097],100,47,medium,plus,dotcolour,beta,,,40,18,V,R,
597,93,9,14,4,33,47,616,['n'],1,right,['1'],6,191,[-0.03236316],97,47,medium,plus,dotcolour,beta,,,40,18,V,R,
598,94,10,14,4,53,27,517,['n'],0,left,['0'],1,820,[0.10266751],28,53,easy,plus,dotcolour,beta,,,40,18,V,R,
599,95,11,14,4,44,36,683,['c'],1,left,['3'],4,1497,[-0.02920661],60,44,hard,plus,dotcolour,beta,,,40,18,V,R,
600,96,12,14,4,33,47,584,['n'],1,right,['2'],5,302,[-0.08167432],99,47,medium,plus,dotcolour,beta,,,40,18,V,R,
601,97,13,14,4,53,27,717,['n'],0,left,['0'],1,951,[-0.00509261],75,53,easy,plus,dotcolour,beta,,,40,18,V,R,
602,98,14,14,4,36,44,950,['c'],0,right,['0'],1,571,[0.0655909],95,44,hard,plus,dotcolour,beta,,,40,18,V,R,
603,99,15,14,4,53,27,1234,['c'],1,left,['2'],5,508,[0.12041932],99,53,easy,plus,dotcolour,beta,,,40,18,V,R,
604,100,16,14,4,44,36,701,['n'],0,left,['1'],6,333,[-0.10019527],99,44,hard,plus,dotcolour,beta,,,40,18,V,R,
605,101,17,14,4,36,44,584,['n'],1,right,['1'],6,290,[-0.04715306],97,44,hard,plus,dotcolour,beta,,,40,18,V,R,
606,102,18,14,4,33,47,684,['n'],1,right,['2'],5,627,[-0.10245729],97,47,medium,plus,dotcolour,beta,,,40,18,V,R,
607,103,19,14,4,47,33,1067,['n'],0,left,['0'],1,665,[-0.08134046],95,47,medium,plus,dotcolour,beta,,,40,18,V,R,
608,104,20,14,4,47,33,767,['c'],1,left,['1'],6,297,[0.13504246],100,47,medium,plus,dotcolour,beta,,,40,18,V,R,
609,105,21,14,4,27,53,634,['n'],1,right,['1'],6,174,[-0.08222195],100,53,easy,plus,dotcolour,beta,,,40,18,V,R,
610,106,22,14,4,47,33,934,['c'],1,left,['2'],5,1050,[0.12266103],96,47,medium,plus,dotcolour,beta,,,40,18,V,R,
611,107,23,14,4,33,47,617,['n'],1,right,['2'],5,216,[-0.13262951],100,47,medium,plus,dotcolour,beta,,,40,18,V,R,
612,108,24,14,4,36,44,867,['n'],1,right,['2'],5,222,[-0.03056288],96,44,hard,plus,dotcolour,beta,,,40,18,V,R,
613,109,25,14,4,47,33,1450,['n'],0,left,['2'],5,685,[-0.1051556],97,47,medium,plus,dotcolour,beta,,,40,18,V,R,
614,110,26,14,4,47,33,766,['n'],0,left,['2'],5,436,[-0.02810841],91,47,medium,plus,dotcolour,beta,,,40,18,V,R,
615,111,27,14,4,27,53,634,['n'],1,right,['2'],5,227,[-0.03475388],97,53,easy,plus,dotcolour,beta,,,40,18,V,R,
616,112,28,14,4,36,44,1583,['n'],1,right,['2'],5,484,[-0.13295092],99,44,hard,plus,dotcolour,beta,,,40,18,V,R,
617,113,29,14,4,53,27,700,['n'],0,left,['0'],1,1333,[0.24370983],5,53,easy,plus,dotcolour,beta,,,40,18,V,R,
618,114,30,14,4,33,47,616,['n'],1,right,['2'],5,504,[-0.07898083],97,47,medium,plus,dotcolour,beta,,,40,18,V,R,
619,115,31,14,4,33,47,583,['n'],1,right,['1'],6,333,[-0.07505601],98,47,medium,plus,dotcolour,beta,,,40,18,V,R,
620,116,32,14,4,53,27,534,['c'],1,left,['1'],6,244,[0.15816708],100,53,easy,plus,dotcolour,beta,,,40,18,V,R,
621,117,33,14,4,33,47,817,['n'],1,right,['2'],5,307,[-0.06916793],98,47,medium,plus,dotcolour,beta,,,40,18,V,R,
622,118,34,14,4,47,33,1050,['c'],1,left,['2'],5,285,[0.11342241],100,47,medium,plus,dotcolour,beta,,,40,18,V,R,
623,119,35,14,4,27,53,466,['n'],1,right,['1'],6,241,[-0.14350058],100,53,easy,plus,dotcolour,beta,,,40,18,V,R,
624,120,36,14,4,36,44,900,['n'],1,right,['2'],5,380,[-0.02111478],90,44,hard,plus,dotcolour,beta,,,40,18,V,R,
625,121,37,14,4,27,53,501,['n'],1,right,['1'],6,291,[-0.17775178],100,53,easy,plus,dotcolour,beta,,,40,18,V,R,
626,122,38,14,4,44,36,884,['c'],1,left,['3'],4,1012,[0.1229339],96,44,hard,plus,dotcolour,beta,,,40,18,V,R,
627,123,39,14,4,36,44,417,['n'],1,right,['1'],6,236,[-0.07559443],99,44,hard,plus,dotcolour,beta,,,40,18,V,R,
628,124,40,14,4,44,36,1416,['c'],1,left,['2'],5,403,[0.07791229],98,44,hard,plus,dotcolour,beta,,,40,18,V,R,
629,125,41,14,4,44,36,783,['c'],1,left,['2'],5,349,[0.07876746],98,44,hard,plus,dotcolour,beta,,,40,18,V,R,
630,0,0,15,5,33,47,634,['n'],1,right,['1'],6,294,[-0.1147187],88,47,medium,minus,dotcolour,beta,,,40,18,V,R,
631,1,1,15,5,36,44,1050,['n'],1,right,['2'],5,402,[-0.24351817],100,44,hard,minus,dotcolour,beta,,,40,18,V,R,
632,2,2,15,5,36,44,667,['n'],1,right,['1'],6,416,[-0.09050347],73,44,hard,minus,dotcolour,beta,,,40,18,V,R,
633,3,3,15,5,33,47,767,['c'],0,right,['2'],5,306,[0.07232294],63,47,medium,minus,dotcolour,beta,,,40,18,V,R,
634,4,4,15,5,27,53,2867,['n'],1,right,['1'],6,661,[-0.29960443],100,53,easy,minus,dotcolour,beta,,,40,18,V,R,
635,5,5,15,5,53,27,767,['c'],1,left,['1'],6,405,[0.13119761],89,53,easy,minus,dotcolour,beta,,,40,18,V,R,
636,6,6,15,5,44,36,967,['n'],0,left,['2'],5,334,[-0.13949908],93,44,hard,minus,dotcolour,beta,,,40,18,V,R,
637,7,7,15,5,33,47,550,['n'],1,right,['1'],6,180,[-0.06674068],62,47,medium,minus,dotcolour,beta,,,40,18,V,R,
638,8,8,15,5,47,33,717,['c'],1,left,['1'],6,426,[0.06519648],57,47,medium,minus,dotcolour,beta,,,40,18,V,R,
639,9,9,15,5,44,36,917,['n'],0,left,['1'],6,357,[-0.04694177],44,44,hard,minus,dotcolour,beta,,,40,18,V,R,
640,10,10,15,5,53,27,567,['n'],0,left,['0'],1,721,[0.03198795],14,53,easy,minus,dotcolour,beta,,,40,18,V,R,
641,11,11,15,5,47,33,750,['c'],1,left,['1'],6,471,[-0.00505687],17,47,medium,minus,dotcolour,beta,,,40,18,V,R,
642,12,12,15,5,36,44,683,['n'],1,right,['1'],6,426,[-0.05882546],52,44,hard,minus,dotcolour,beta,,,40,18,V,R,
643,13,13,15,5,47,33,783,['n'],0,left,['2'],5,347,[-0.12249611],89,47,medium,minus,dotcolour,beta,,,40,18,V,R,
644,14,14,15,5,27,53,750,['n'],1,right,['1'],6,256,[-0.12693008],93,53,easy,minus,dotcolour,beta,,,40,18,V,R,
645,15,15,15,5,36,44,500,['n'],1,right,['1'],6,155,[-0.06379287],59,44,hard,minus,dotcolour,beta,,,40,18,V,R,
646,16,16,15,5,53,27,649,['c'],1,left,['2'],5,348,[0.09521932],77,53,easy,minus,dotcolour,beta,,,40,18,V,R,
647,17,17,15,5,33,47,484,['n'],1,right,['2'],5,388,[-0.08805245],72,47,medium,minus,dotcolour,beta,,,40,18,V,R,
648,18,18,15,5,44,36,816,['n'],0,left,['1'],6,189,[-0.09612678],84,44,hard,minus,dotcolour,beta,,,40,18,V,R,
649,19,19,15,5,27,53,517,['n'],1,right,['1'],6,202,[-0.10842909],89,53,easy,minus,dotcolour,beta,,,40,18,V,R,
650,20,20,15,5,44,36,734,['c'],1,left,['1'],6,230,[0.06131532],55,44,hard,minus,dotcolour,beta,,,40,18,V,R,
651,21,21,15,5,47,33,767,['c'],1,left,['1'],6,232,[0.06413451],58,47,medium,minus,dotcolour,beta,,,40,18,V,R,
652,22,22,15,5,53,27,750,['c'],1,left,['1'],6,273,[0.13811982],95,53,easy,minus,dotcolour,beta,,,40,18,V,R,
653,23,23,15,5,36,44,634,['n'],1,right,['2'],5,1479,[-0.21199745],91,44,hard,minus,dotcolour,beta,,,40,18,V,R,
654,24,24,15,5,27,53,534,['n'],1,right,['1'],6,616,[-0.20939588],97,53,easy,minus,dotcolour,beta,,,40,18,V,R,
655,25,25,15,5,53,27,818,['c'],1,left,['1'],6,191,[0.10570603],89,53,easy,minus,dotcolour,beta,,,40,18,V,R,
656,26,26,15,5,47,33,650,['c'],1,left,['1'],6,174,[0.09016707],82,47,medium,minus,dotcolour,beta,,,40,18,V,R,
657,27,27,15,5,53,27,584,['c'],1,left,['1'],6,265,[0.14135364],95,53,easy,minus,dotcolour,beta,,,40,18,V,R,
658,28,28,15,5,53,27,600,['c'],1,left,['1'],6,216,[0.13337452],95,53,easy,minus,dotcolour,beta,,,40,18,V,R,
659,29,29,15,5,44,36,599,['c'],1,left,['1'],6,216,[0.11522163],91,44,hard,minus,dotcolour,beta,,,40,18,V,R,
660,30,30,15,5,33,47,932,['n'],1,right,['2'],5,180,[-0.13604793],97,47,medium,minus,dotcolour,beta,,,40,18,V,R,
661,31,31,15,5,47,33,683,['n'],0,left,['2'],5,226,[-0.06481288],59,47,medium,minus,dotcolour,beta,,,40,18,V,R,
662,32,32,15,5,47,33,500,['c'],1,left,['1'],6,822,[0.30422015],99,47,medium,minus,dotcolour,beta,,,40,18,V,R,
663,33,33,15,5,36,44,866,['n'],1,right,['2'],5,220,[-0.11959777],92,44,hard,minus,dotcolour,beta,,,40,18,V,R,
664,34,34,15,5,33,47,517,['n'],1,right,['1'],6,376,[-0.20145383],99,47,medium,minus,dotcolour,beta,,,40,18,V,R,
665,35,35,15,5,33,47,550,['n'],1,right,['2'],5,228,[-0.16621335],98,47,medium,minus,dotcolour,beta,,,40,18,V,R,
666,36,36,15,5,27,53,900,['n'],1,right,['1'],6,224,[-0.14013444],96,53,easy,minus,dotcolour,beta,,,40,18,V,R,
667,37,37,15,5,44,36,1017,['c'],1,left,['3'],4,463,[0.14213728],91,44,hard,minus,dotcolour,beta,,,40,18,V,R,
668,38,38,15,5,44,36,667,['n'],0,left,['1'],6,155,[-0.03820968],31,44,hard,minus,dotcolour,beta,,,40,18,V,R,
669,39,39,15,5,27,53,584,['n'],1,right,['1'],6,255,[-0.10188401],84,53,easy,minus,dotcolour,beta,,,40,18,V,R,
670,40,40,15,5,36,44,783,['c'],0,right,['1'],6,408,[0.15013773],93,44,hard,minus,dotcolour,beta,,,40,18,V,R,
671,41,41,15,5,27,53,783,['c'],0,right,['1'],6,281,[0.06975944],62,53,easy,minus,dotcolour,beta,,,40,18,V,R,
672,42,0,16,5,36,44,718,['n'],1,right,['2'],5,837,[-0.135022],83,44,hard,minus,dotcolour,beta,,,40,18,V,R,
673,43,1,16,5,27,53,467,['n'],1,right,['1'],6,193,[-0.11868742],93,53,easy,minus,dotcolour,beta,,,40,18,V,R,
674,44,2,16,5,47,33,750,['c'],1,left,['1'],6,268,[0.07461565],66,47,medium,minus,dotcolour,beta,,,40,18,V,R,
675,45,3,16,5,36,44,483,['n'],1,right,['2'],5,216,[-0.07283737],66,44,hard,minus,dotcolour,beta,,,40,18,V,R,
676,46,4,16,5,53,27,1233,['c'],1,left,['1'],6,231,[0.05742869],52,53,easy,minus,dotcolour,beta,,,40,18,V,R,
677,47,5,16,5,44,36,818,['n'],0,left,['2'],5,311,[-0.04206629],39,44,hard,minus,dotcolour,beta,,,40,18,V,R,
678,48,6,16,5,44,36,1000,['n'],0,left,['1'],6,308,[-0.15797602],97,44,hard,minus,dotcolour,beta,,,40,18,V,R,
679,49,7,16,5,36,44,600,['n'],1,right,['1'],6,256,[-0.02567441],26,44,hard,minus,dotcolour,beta,,,40,18,V,R,
680,50,8,16,5,27,53,601,['n'],1,right,['1'],6,255,[-0.1469381],96,53,easy,minus,dotcolour,beta,,,40,18,V,R,
681,51,9,16,5,53,27,634,['c'],1,left,['1'],6,253,[0.12859572],93,53,easy,minus,dotcolour,beta,,,40,18,V,R,
682,52,10,16,5,36,44,733,['c'],0,right,['2'],5,271,[0.06990894],62,44,hard,minus,dotcolour,beta,,,40,18,V,R,
683,53,11,16,5,33,47,533,['n'],1,right,['1'],6,208,[-0.00466205],12,47,medium,minus,dotcolour,beta,,,40,18,V,R,
684,54,12,16,5,47,33,916,['c'],1,left,['2'],5,1533,[0.01522871],36,47,medium,minus,dotcolour,beta,,,40,18,V,R,
685,55,13,16,5,44,36,668,['n'],0,left,['1'],6,221,[-0.03900738],35,44,hard,minus,dotcolour,beta,,,40,18,V,R,
686,56,14,16,5,53,27,1066,['c'],1,left,['1'],6,291,[0.15226177],96,53,easy,minus,dotcolour,beta,,,40,18,V,R,
687,57,15,16,5,33,47,583,['n'],1,right,['1'],6,409,[-0.12851577],89,47,medium,minus,dotcolour,beta,,,40,18,V,R,
688,58,16,16,5,47,33,850,['c'],1,left,['1'],6,232,[0.27999582],100,47,medium,minus,dotcolour,beta,,,40,18,V,R,
689,59,17,16,5,27,53,617,['n'],1,right,['1'],6,239,[-0.14524472],96,53,easy,minus,dotcolour,beta,,,40,18,V,R,
690,60,18,16,5,44,36,666,['n'],0,left,['1'],6,276,[-0.13905475],95,44,hard,minus,dotcolour,beta,,,40,18,V,R,
691,61,19,16,5,33,47,567,['n'],1,right,['1'],6,211,[-0.11584715],91,47,medium,minus,dotcolour,beta,,,40,18,V,R,
692,62,20,16,5,33,47,633,['n'],1,right,['1'],6,210,[-0.11148495],90,47,medium,minus,dotcolour,beta,,,40,18,V,R,
693,63,21,16,5,47,33,683,['c'],1,left,['1'],6,232,[0.00489767],13,47,medium,minus,dotcolour,beta,,,40,18,V,R,
694,64,22,16,5,33,47,717,['n'],1,right,['2'],5,179,[-0.12933884],96,47,medium,minus,dotcolour,beta,,,40,18,V,R,
695,65,23,16,5,27,53,733,['c'],0,right,['1'],6,288,[0.04354848],40,53,easy,minus,dotcolour,beta,,,40,18,V,R,
696,66,24,16,5,47,33,484,['n'],0,left,['0'],1,739,[-0.04478864],44,47,medium,minus,dotcolour,beta,,,40,18,V,R,
697,67,25,16,5,44,36,1717,['n'],0,left,['1'],6,897,[-0.07965504],61,44,hard,minus,dotcolour,beta,,,40,18,V,R,
698,68,26,16,5,53,27,849,['c'],1,left,['1'],6,253,[0.18012686],99,53,easy,minus,dotcolour,beta,,,40,18,V,R,
699,69,27,16,5,44,36,1467,['c'],1,left,['1'],6,233,[0.04556957],41,44,hard,minus,dotcolour,beta,,,40,18,V,R,
700,70,28,16,5,36,44,534,['n'],1,right,['2'],5,412,[0.02721538],9,44,hard,minus,dotcolour,beta,,,40,18,V,R,
701,71,29,16,5,36,44,833,['n'],1,right,['2'],5,547,[-0.01765313],28,44,hard,minus,dotcolour,beta,,,40,18,V,R,
702,72,30,16,5,44,36,683,['c'],1,left,['1'],6,323,[0.00593421],17,44,hard,minus,dotcolour,beta,,,40,18,V,R,
703,73,31,16,5,53,27,667,['c'],1,left,['2'],5,789,[0.06204107],53,53,easy,minus,dotcolour,beta,,,40,18,V,R,
704,74,32,16,5,33,47,585,['n'],1,right,['1'],6,255,[-0.08402086],73,47,medium,minus,dotcolour,beta,,,40,18,V,R,
705,75,33,16,5,36,44,484,['n'],1,right,['2'],5,283,[-0.06812131],60,44,hard,minus,dotcolour,beta,,,40,18,V,R,
706,76,34,16,5,33,47,499,['n'],1,right,['2'],5,213,[-0.08000979],72,47,medium,minus,dotcolour,beta,,,40,18,V,R,
707,77,35,16,5,47,33,867,['c'],1,left,['2'],5,539,[0.1593166],93,47,medium,minus,dotcolour,beta,,,40,18,V,R,
708,78,36,16,5,53,27,667,['c'],1,left,['1'],6,347,[0.09551306],77,53,easy,minus,dotcolour,beta,,,40,18,V,R,
709,79,37,16,5,27,53,583,['n'],1,right,['1'],6,327,[-0.13760907],93,53,easy,minus,dotcolour,beta,,,40,18,V,R,
710,80,38,16,5,27,53,484,['n'],1,right,['1'],6,248,[-0.1809489],99,53,easy,minus,dotcolour,beta,,,40,18,V,R,
711,81,39,16,5,47,33,784,['c'],1,left,['3'],4,384,[0.10210572],79,47,medium,minus,dotcolour,beta,,,40,18,V,R,
712,82,40,16,5,53,27,517,['n'],0,left,['2'],5,254,[-0.00854207],16,53,easy,minus,dotcolour,beta,,,40,18,V,R,
713,83,41,16,5,27,53,550,['n'],1,right,['1'],6,319,[-0.06742671],59,53,easy,minus,dotcolour,beta,,,40,18,V,R,
714,84,0,17,5,36,44,784,['n'],1,right,['2'],5,275,[-0.01489519],20,44,hard,minus,dotcolour,beta,,,40,18,V,R,
715,85,1,17,5,33,47,749,['n'],1,right,['2'],5,979,[-0.32019747],99,47,medium,minus,dotcolour,beta,,,40,18,V,R,
716,86,2,17,5,44,36,799,['c'],1,left,['2'],5,445,[0.02873442],33,44,hard,minus,dotcolour,beta,,,40,18,V,R,
717,87,3,17,5,36,44,683,['n'],1,right,['2'],5,337,[-0.14136807],93,44,hard,minus,dotcolour,beta,,,40,18,V,R,
718,88,4,17,5,53,27,699,['c'],1,left,['2'],5,249,[0.11242319],89,53,easy,minus,dotcolour,beta,,,40,18,V,R,
719,89,5,17,5,53,27,650,['c'],1,left,['2'],5,246,[0.13367484],94,53,easy,minus,dotcolour,beta,,,40,18,V,R,
720,90,6,17,5,44,36,1334,['c'],1,left,['2'],5,456,[0.13968329],90,44,hard,minus,dotcolour,beta,,,40,18,V,R,
721,91,7,17,5,27,53,716,['n'],1,right,['1'],6,322,[-0.18766895],99,53,easy,minus,dotcolour,beta,,,40,18,V,R,
722,92,8,17,5,53,27,867,['c'],1,left,['1'],6,476,[0.12657795],86,53,easy,minus,dotcolour,beta,,,40,18,V,R,
723,93,9,17,5,44,36,767,['n'],0,left,['1'],6,300,[0.01493323],9,44,hard,minus,dotcolour,beta,,,40,18,V,R,
724,94,10,17,5,33,47,717,['n'],1,right,['2'],5,397,[-0.19903872],98,47,medium,minus,dotcolour,beta,,,40,18,V,R,
725,95,11,17,5,36,44,1050,['c'],0,right,['2'],5,236,[0.11835535],91,44,hard,minus,dotcolour,beta,,,40,18,V,R,
726,96,12,17,5,44,36,634,['n'],0,left,['2'],5,218,[-0.05753689],52,44,hard,minus,dotcolour,beta,,,40,18,V,R,
727,97,13,17,5,47,33,634,['n'],0,left,['2'],5,265,[-0.09709802],81,47,medium,minus,dotcolour,beta,,,40,18,V,R,
728,98,14,17,5,27,53,717,['n'],1,right,['1'],6,235,[-0.15159492],97,53,easy,minus,dotcolour,beta,,,40,18,V,R,
729,99,15,17,5,47,33,884,['c'],1,left,['2'],5,312,[0.24622196],100,47,medium,minus,dotcolour,beta,,,40,18,V,R,
730,100,16,17,5,47,33,817,['c'],1,left,['2'],5,220,[0.14694446],97,47,medium,minus,dotcolour,beta,,,40,18,V,R,
731,101,17,17,5,36,44,751,['n'],1,right,['2'],5,519,[-0.03409382],37,44,hard,minus,dotcolour,beta,,,40,18,V,R,
732,102,18,17,5,33,47,534,['n'],1,right,['2'],5,198,[-0.07977814],73,47,medium,minus,dotcolour,beta,,,40,18,V,R,
733,103,19,17,5,47,33,649,['c'],1,left,['1'],6,270,[0.14378854],96,47,medium,minus,dotcolour,beta,,,40,18,V,R,
734,104,20,17,5,44,36,968,['c'],1,left,['1'],6,269,[0.11400005],88,44,hard,minus,dotcolour,beta,,,40,18,V,R,
735,105,21,17,5,33,47,534,['n'],1,right,['1'],6,223,[-0.0754513],68,47,medium,minus,dotcolour,beta,,,40,18,V,R,
736,106,22,17,5,36,44,567,['n'],1,right,['1'],6,208,[-0.11226835],90,44,hard,minus,dotcolour,beta,,,40,18,V,R,
737,107,23,17,5,53,27,967,['c'],1,left,['2'],5,378,[0.10632389],82,53,easy,minus,dotcolour,beta,,,40,18,V,R,
738,108,24,17,5,36,44,750,['n'],1,right,['1'],6,254,[-0.01671895],20,44,hard,minus,dotcolour,beta,,,40,18,V,R,
739,109,25,17,5,36,44,1033,['c'],0,right,['2'],5,340,[0.07177643],62,44,hard,minus,dotcolour,beta,,,40,18,V,R,
740,110,26,17,5,27,53,534,['n'],1,right,['1'],6,290,[-0.06137724],55,53,easy,minus,dotcolour,beta,,,40,18,V,R,
741,111,27,17,5,47,33,682,['c'],1,left,['2'],5,276,[0.06431926],57,47,medium,minus,dotcolour,beta,,,40,18,V,R,
742,112,28,17,5,33,47,617,['n'],1,right,['1'],6,274,[-0.04717966],43,47,medium,minus,dotcolour,beta,,,40,18,V,R,
743,113,29,17,5,47,33,800,['c'],1,left,['1'],6,224,[0.15626719],98,47,medium,minus,dotcolour,beta,,,40,18,V,R,
744,114,30,17,5,53,27,665,['c'],1,left,['2'],5,333,[0.19525729],99,53,easy,minus,dotcolour,beta,,,40,18,V,R,
745,115,31,17,5,33,47,550,['n'],1,right,['1'],6,627,[-0.11057436],78,47,medium,minus,dotcolour,beta,,,40,18,V,R,
746,116,32,17,5,44,36,550,['n'],0,left,['2'],5,189,[-0.0008587],9,44,hard,minus,dotcolour,beta,,,40,18,V,R,
747,117,33,17,5,47,33,634,['c'],1,left,['1'],6,221,[0.18292253],99,47,medium,minus,dotcolour,beta,,,40,18,V,R,
748,118,34,17,5,44,36,533,['n'],0,left,['2'],5,224,[-0.18025314],99,44,hard,minus,dotcolour,beta,,,40,18,V,R,
749,119,35,17,5,33,47,634,['n'],1,right,['2'],5,143,[-0.01583004],13,47,medium,minus,dotcolour,beta,,,40,18,V,R,
750,120,36,17,5,27,53,650,['n'],1,right,['2'],5,185,[-0.11009284],91,53,easy,minus,dotcolour,beta,,,40,18,V,R,
751,121,37,17,5,27,53,700,['c'],0,right,['2'],5,246,[0.14802589],97,53,easy,minus,dotcolour,beta,,,40,18,V,R,
752,122,38,17,5,53,27,666,['c'],1,left,['2'],5,252,[0.09980837],83,53,easy,minus,dotcolour,beta,,,40,18,V,R,
753,123,39,17,5,27,53,517,['n'],1,right,['1'],6,262,[-0.1894721],99,53,easy,minus,dotcolour,beta,,,40,18,V,R,
754,124,40,17,5,27,53,733,['n'],1,right,['1'],6,271,[-0.09641288],80,53,easy,minus,dotcolour,beta,,,40,18,V,R,
755,125,41,17,5,53,27,717,['c'],1,left,['2'],5,321,[0.1027572],82,53,easy,minus,dotcolour,beta,,,40,18,V,R,
,,,,,,,,,,,,,,,,,,,,,1,nee   ,40,18,V,R,
,,,,,,,,,,,,,,,,,,,,,2,['f'],40,18,V,R,
,,,,,,,,,,,,,,,,,,,,,3,['f'],40,18,V,R,
,,,,,,,,,,,,,,,,,,,,,5,"['3', '5']",40,18,V,R,
