trial,withinphasetrial,withinblocktrial,block,phase,dotsLeft,dotsRight,rt,resp,cor,cresp,conf_press,cj,RTconf,ev,fb,diff,difflevel,condition,task,manip,questionID,questionResp,sub,age,gender,handedness,
0,0,0,0,0,27,53,1966,['n'],1,right,['3'],3,2293,[-0.26623456],92,53,easy,minus,dotcolour,beta,,,3,19,V,R,
1,1,1,0,0,36,44,2331,['c'],0,right,['9'],5,1268,[-0.04819818],16,44,hard,minus,dotcolour,beta,,,3,19,V,R,
2,2,2,0,0,47,33,2699,['c'],1,left,['9'],5,1222,[0.19111243],90,47,medium,minus,dotcolour,beta,,,3,19,V,R,
3,3,3,0,0,27,53,1115,['n'],1,right,['0'],6,450,[-0.13249098],89,53,easy,minus,dotcolour,beta,,,3,19,V,R,
4,4,4,0,0,44,36,1381,['c'],1,left,['1'],1,425,[0.09322214],74,44,hard,minus,dotcolour,beta,,,3,19,V,R,
5,5,5,0,0,33,47,799,['n'],1,right,['0'],6,218,[-0.17155685],99,47,medium,minus,dotcolour,beta,,,3,19,V,R,
6,6,6,0,0,33,47,1266,['n'],1,right,['9'],5,591,[-0.07185092],59,47,medium,minus,dotcolour,beta,,,3,19,V,R,
7,7,7,0,0,33,47,798,['n'],1,right,['9'],5,345,[-0.08803742],73,47,medium,minus,dotcolour,beta,,,3,19,V,R,
8,8,8,0,0,44,36,1748,['n'],0,left,['9'],5,1166,[-0.06079379],52,44,hard,minus,dotcolour,beta,,,3,19,V,R,
9,9,9,0,0,36,44,1848,['n'],1,right,['8'],4,278,[-0.07948055],69,44,hard,minus,dotcolour,beta,,,3,19,V,R,
10,10,10,0,0,47,33,748,['c'],1,left,['2'],2,422,[0.18110375],97,47,medium,minus,dotcolour,beta,,,3,19,V,R,
11,11,11,0,0,33,47,1365,['n'],1,right,['2'],2,328,[-0.07084164],62,47,medium,minus,dotcolour,beta,,,3,19,V,R,
12,12,12,0,0,27,53,917,['n'],1,right,['9'],5,927,[-0.34956593],100,53,easy,minus,dotcolour,beta,,,3,19,V,R,
13,13,13,0,0,36,44,981,['n'],1,right,['9'],5,380,[-0.25918693],100,44,hard,minus,dotcolour,beta,,,3,19,V,R,
14,14,14,0,0,47,33,1183,['c'],1,left,['9'],5,751,[0.18575127],94,47,medium,minus,dotcolour,beta,,,3,19,V,R,
15,15,15,0,0,47,33,1499,['n'],0,left,['8'],4,1270,[0.20580389],2,47,medium,minus,dotcolour,beta,,,3,19,V,R,
16,16,16,0,0,44,36,6666,['c'],1,left,['9'],5,1185,[0.23474173],95,44,hard,minus,dotcolour,beta,,,3,19,V,R,
17,17,17,0,0,36,44,1115,['n'],1,right,['9'],5,406,[-0.07211337],61,44,hard,minus,dotcolour,beta,,,3,19,V,R,
18,18,18,0,0,44,36,1465,['c'],1,left,['9'],5,484,[0.14955973],92,44,hard,minus,dotcolour,beta,,,3,19,V,R,
19,19,19,0,0,27,53,2767,['n'],1,right,['0'],6,907,[-0.2168238],95,53,easy,minus,dotcolour,beta,,,3,19,V,R,
20,20,20,0,0,44,36,832,['n'],0,left,['0'],6,215,[-0.03504443],31,44,hard,minus,dotcolour,beta,,,3,19,V,R,
21,21,21,0,0,33,47,1049,['n'],1,right,['0'],6,357,[-0.08131432],68,47,medium,minus,dotcolour,beta,,,3,19,V,R,
22,22,22,0,0,27,53,516,['n'],1,right,['0'],6,203,[-0.08557935],77,53,easy,minus,dotcolour,beta,,,3,19,V,R,
23,23,23,0,0,53,27,630,['c'],1,left,['0'],6,331,[0.0508394],46,53,easy,minus,dotcolour,beta,,,3,19,V,R,
24,24,24,0,0,44,36,732,['c'],1,left,['8'],4,657,[0.18147099],94,44,hard,minus,dotcolour,beta,,,3,19,V,R,
25,25,25,0,0,27,53,8299,['c'],0,right,['8'],4,2708,[-0.22153675],5,53,easy,minus,dotcolour,beta,,,3,19,V,R,
26,26,26,0,0,53,27,1215,['c'],1,left,['0'],6,375,[0.25577876],100,53,easy,minus,dotcolour,beta,,,3,19,V,R,
27,27,27,0,0,53,27,682,['c'],1,left,['0'],6,334,[0.05965139],53,53,easy,minus,dotcolour,beta,,,3,19,V,R,
28,28,28,0,0,36,44,2681,['n'],1,right,['0'],6,462,[-0.10722025],80,44,hard,minus,dotcolour,beta,,,3,19,V,R,
29,29,29,0,0,36,44,1183,['n'],1,right,['0'],6,366,[-0.10972317],83,44,hard,minus,dotcolour,beta,,,3,19,V,R,
30,30,30,0,0,47,33,1031,['c'],1,left,['0'],6,312,[0.1652337],97,47,medium,minus,dotcolour,beta,,,3,19,V,R,
31,31,31,0,0,53,27,783,['c'],1,left,['0'],6,317,[0.09685219],79,53,easy,minus,dotcolour,beta,,,3,19,V,R,
32,32,32,0,0,53,27,514,['c'],1,left,['0'],6,333,[0.1924523],99,53,easy,minus,dotcolour,beta,,,3,19,V,R,
33,33,33,0,0,47,33,415,['c'],1,left,['0'],6,320,[0.10634547],83,47,medium,minus,dotcolour,beta,,,3,19,V,R,
34,34,34,0,0,44,36,999,['n'],0,left,['9'],5,373,[-0.05217283],48,44,hard,minus,dotcolour,beta,,,3,19,V,R,
35,35,35,0,0,27,53,649,['c'],0,right,['3'],3,2317,[-0.18304483],6,53,easy,minus,dotcolour,beta,,,3,19,V,R,
36,36,36,0,0,53,27,916,['c'],1,left,['0'],6,252,[0.05327934],48,53,easy,minus,dotcolour,beta,,,3,19,V,R,
37,37,37,0,0,47,33,1067,['c'],1,left,['0'],6,289,[0.06465249],58,47,medium,minus,dotcolour,beta,,,3,19,V,R,
38,38,38,0,0,33,47,832,['n'],1,right,['0'],6,277,[-0.14521743],96,47,medium,minus,dotcolour,beta,,,3,19,V,R,
39,39,39,0,0,53,27,982,['c'],1,left,['0'],6,244,[0.1256443],93,53,easy,minus,dotcolour,beta,,,3,19,V,R,
40,40,40,0,0,36,44,815,['n'],1,right,['0'],6,202,[-0.07768806],71,44,hard,minus,dotcolour,beta,,,3,19,V,R,
41,41,41,0,0,33,47,582,['c'],0,right,['0'],6,260,[0.11287349],88,47,medium,minus,dotcolour,beta,,,3,19,V,R,
42,42,0,1,0,33,47,1149,['n'],1,right,['0'],6,191,[-0.14978178],98,47,medium,minus,dotcolour,beta,,,3,19,V,R,
43,43,1,1,0,33,47,399,['n'],1,right,['0'],6,256,[-0.16018169],98,47,medium,minus,dotcolour,beta,,,3,19,V,R,
44,44,2,1,0,47,33,633,['n'],0,left,['0'],6,222,[0.00759501],8,47,medium,minus,dotcolour,beta,,,3,19,V,R,
45,45,3,1,0,53,27,482,['c'],1,left,['0'],6,243,[0.14366498],96,53,easy,minus,dotcolour,beta,,,3,19,V,R,
46,46,4,1,0,33,47,650,['n'],1,right,['0'],6,297,[-0.0277922],29,47,medium,minus,dotcolour,beta,,,3,19,V,R,
47,47,5,1,0,44,36,882,['c'],1,left,['0'],6,362,[0.02901503],31,44,hard,minus,dotcolour,beta,,,3,19,V,R,
48,48,6,1,0,44,36,1417,['n'],0,left,['8'],4,404,[-0.00665936],20,44,hard,minus,dotcolour,beta,,,3,19,V,R,
49,49,7,1,0,53,27,1048,['c'],1,left,['0'],6,636,[0.22449272],98,53,easy,minus,dotcolour,beta,,,3,19,V,R,
50,50,8,1,0,36,44,834,['n'],1,right,['0'],6,266,[-0.1162214],89,44,hard,minus,dotcolour,beta,,,3,19,V,R,
51,51,9,1,0,33,47,914,['c'],0,right,['1'],1,788,[0.06383759],54,47,medium,minus,dotcolour,beta,,,3,19,V,R,
52,52,10,1,0,27,53,616,['n'],1,right,['0'],6,196,[-0.0979108],85,53,easy,minus,dotcolour,beta,,,3,19,V,R,
53,53,11,1,0,47,33,1582,['c'],1,left,['0'],6,671,[0.2172119],97,47,medium,minus,dotcolour,beta,,,3,19,V,R,
54,54,12,1,0,36,44,1616,['n'],1,right,['8'],4,892,[-0.07536752],59,44,hard,minus,dotcolour,beta,,,3,19,V,R,
55,55,13,1,0,36,44,1664,['n'],1,right,['9'],5,1287,[-0.17403133],87,44,hard,minus,dotcolour,beta,,,3,19,V,R,
56,56,14,1,0,27,53,932,['n'],1,right,['0'],6,191,[-0.15547717],98,53,easy,minus,dotcolour,beta,,,3,19,V,R,
57,57,15,1,0,44,36,915,['n'],0,left,['0'],6,188,[-0.03665846],31,44,hard,minus,dotcolour,beta,,,3,19,V,R,
58,58,16,1,0,33,47,565,['n'],1,right,['0'],6,191,[-0.03165703],27,47,medium,minus,dotcolour,beta,,,3,19,V,R,
59,59,17,1,0,53,27,766,['c'],1,left,['0'],6,234,[0.14909716],97,53,easy,minus,dotcolour,beta,,,3,19,V,R,
60,60,18,1,0,27,53,681,['n'],1,right,['0'],6,246,[-0.14180618],96,53,easy,minus,dotcolour,beta,,,3,19,V,R,
61,61,19,1,0,44,36,597,['c'],1,left,['0'],6,198,[0.01843011],18,44,hard,minus,dotcolour,beta,,,3,19,V,R,
62,62,20,1,0,53,27,866,['c'],1,left,['0'],6,269,[0.10341844],84,53,easy,minus,dotcolour,beta,,,3,19,V,R,
63,63,21,1,0,36,44,2299,['c'],0,right,['3'],3,647,[0.0104757],27,44,hard,minus,dotcolour,beta,,,3,19,V,R,
64,64,22,1,0,27,53,1415,['n'],1,right,['0'],6,366,[-0.13442062],91,53,easy,minus,dotcolour,beta,,,3,19,V,R,
65,65,23,1,0,36,44,1533,['n'],1,right,['8'],4,411,[-0.07487573],63,44,hard,minus,dotcolour,beta,,,3,19,V,R,
66,66,24,1,0,27,53,713,['n'],1,right,['0'],6,215,[-0.10204502],86,53,easy,minus,dotcolour,beta,,,3,19,V,R,
67,67,25,1,0,27,53,515,['n'],1,right,['0'],6,186,[-0.1349233],96,53,easy,minus,dotcolour,beta,,,3,19,V,R,
68,68,26,1,0,47,33,815,['c'],1,left,['0'],6,260,[0.0125389],18,47,medium,minus,dotcolour,beta,,,3,19,V,R,
69,69,27,1,0,47,33,1033,['c'],1,left,['0'],6,465,[0.16431606],95,47,medium,minus,dotcolour,beta,,,3,19,V,R,
70,70,28,1,0,44,36,1031,['c'],1,left,['0'],6,207,[0.06589545],60,44,hard,minus,dotcolour,beta,,,3,19,V,R,
71,71,29,1,0,47,33,1049,['c'],1,left,['0'],6,285,[0.03644438],34,47,medium,minus,dotcolour,beta,,,3,19,V,R,
72,72,30,1,0,36,44,1049,['c'],0,right,['0'],6,434,[0.0088324],22,44,hard,minus,dotcolour,beta,,,3,19,V,R,
73,73,31,1,0,47,33,1265,['n'],0,left,['0'],6,295,[-0.09248521],77,47,medium,minus,dotcolour,beta,,,3,19,V,R,
74,74,32,1,0,44,36,1265,['c'],1,left,['9'],5,457,[0.02825017],33,44,hard,minus,dotcolour,beta,,,3,19,V,R,
75,75,33,1,0,53,27,1450,['c'],1,left,['0'],6,390,[0.20692662],99,53,easy,minus,dotcolour,beta,,,3,19,V,R,
76,76,34,1,0,44,36,933,['c'],1,left,['0'],6,282,[0.06185662],55,44,hard,minus,dotcolour,beta,,,3,19,V,R,
77,77,35,1,0,33,47,832,['n'],1,right,['0'],6,415,[-0.10288027],79,47,medium,minus,dotcolour,beta,,,3,19,V,R,
78,78,36,1,0,53,27,781,['c'],1,left,['0'],6,344,[0.11151443],85,53,easy,minus,dotcolour,beta,,,3,19,V,R,
79,79,37,1,0,47,33,982,['c'],1,left,['0'],6,436,[0.07227013],61,47,medium,minus,dotcolour,beta,,,3,19,V,R,
80,80,38,1,0,33,47,682,['n'],1,right,['0'],6,329,[-0.06623215],58,47,medium,minus,dotcolour,beta,,,3,19,V,R,
81,81,39,1,0,53,27,880,['c'],1,left,['0'],6,329,[0.0738028],64,53,easy,minus,dotcolour,beta,,,3,19,V,R,
82,82,40,1,0,27,53,933,['n'],1,right,['0'],6,344,[-0.09157141],75,53,easy,minus,dotcolour,beta,,,3,19,V,R,
83,83,41,1,0,36,44,799,['n'],1,right,['0'],6,363,[-0.03762286],37,44,hard,minus,dotcolour,beta,,,3,19,V,R,
84,84,0,2,0,47,33,1933,['c'],1,left,['9'],5,293,[0.04899054],45,47,medium,minus,dotcolour,beta,,,3,19,V,R,
85,85,1,2,0,33,47,2598,['n'],1,right,['0'],6,403,[-0.06060329],54,47,medium,minus,dotcolour,beta,,,3,19,V,R,
86,86,2,2,0,33,47,648,['n'],1,right,['0'],6,306,[-0.10558313],84,47,medium,minus,dotcolour,beta,,,3,19,V,R,
87,87,3,2,0,47,33,598,['c'],1,left,['0'],6,271,[0.11863216],90,47,medium,minus,dotcolour,beta,,,3,19,V,R,
88,88,4,2,0,36,44,749,['n'],1,right,['0'],6,320,[-0.03045311],31,44,hard,minus,dotcolour,beta,,,3,19,V,R,
89,89,5,2,0,53,27,832,['c'],1,left,['0'],6,323,[0.15759872],96,53,easy,minus,dotcolour,beta,,,3,19,V,R,
90,90,6,2,0,53,27,1150,['c'],1,left,['0'],6,241,[0.17603011],99,53,easy,minus,dotcolour,beta,,,3,19,V,R,
91,91,7,2,0,44,36,933,['n'],0,left,['0'],6,219,[-0.02994308],27,44,hard,minus,dotcolour,beta,,,3,19,V,R,
92,92,8,2,0,33,47,999,['n'],1,right,['0'],6,324,[-0.07499214],65,47,medium,minus,dotcolour,beta,,,3,19,V,R,
93,93,9,2,0,33,47,550,['n'],1,right,['0'],6,322,[-0.07164956],62,47,medium,minus,dotcolour,beta,,,3,19,V,R,
94,94,10,2,0,53,27,731,['c'],1,left,['0'],6,352,[0.01896561],25,53,easy,minus,dotcolour,beta,,,3,19,V,R,
95,95,11,2,0,33,47,548,['n'],1,right,['0'],6,238,[-0.07998204],71,47,medium,minus,dotcolour,beta,,,3,19,V,R,
96,96,12,2,0,53,27,665,['c'],1,left,['0'],6,283,[0.19106961],99,53,easy,minus,dotcolour,beta,,,3,19,V,R,
97,97,13,2,0,47,33,782,['c'],1,left,['9'],5,626,[0.19257761],96,47,medium,minus,dotcolour,beta,,,3,19,V,R,
98,98,14,2,0,47,33,1099,['c'],1,left,['0'],6,270,[0.10601081],85,47,medium,minus,dotcolour,beta,,,3,19,V,R,
99,99,15,2,0,36,44,632,['n'],1,right,['0'],6,250,[-0.03716634],34,44,hard,minus,dotcolour,beta,,,3,19,V,R,
100,100,16,2,0,44,36,865,['c'],1,left,['0'],6,207,[0.13418676],96,44,hard,minus,dotcolour,beta,,,3,19,V,R,
101,101,17,2,0,27,53,732,['n'],1,right,['0'],6,411,[-0.05949971],53,53,easy,minus,dotcolour,beta,,,3,19,V,R,
102,102,18,2,0,36,44,1599,['n'],1,right,['0'],6,283,[-0.14993817],96,44,hard,minus,dotcolour,beta,,,3,19,V,R,
103,103,19,2,0,27,53,3299,['n'],1,right,['8'],4,790,[-0.17058529],91,53,easy,minus,dotcolour,beta,,,3,19,V,R,
104,104,20,2,0,27,53,899,['n'],1,right,['0'],6,227,[-0.1078498],88,53,easy,minus,dotcolour,beta,,,3,19,V,R,
105,105,21,2,0,44,36,1282,['n'],0,left,['0'],6,240,[-0.04638854],42,44,hard,minus,dotcolour,beta,,,3,19,V,R,
106,106,22,2,0,27,53,765,['n'],1,right,['0'],6,201,[-0.17432773],99,53,easy,minus,dotcolour,beta,,,3,19,V,R,
107,107,23,2,0,36,44,600,['n'],1,right,['0'],6,226,[-0.05696775],51,44,hard,minus,dotcolour,beta,,,3,19,V,R,
108,108,24,2,0,33,47,2599,['c'],0,right,['3'],3,538,[-0.11286837],2,47,medium,minus,dotcolour,beta,,,3,19,V,R,
109,109,25,2,0,53,27,1032,['c'],1,left,['9'],5,532,[0.19863799],97,53,easy,minus,dotcolour,beta,,,3,19,V,R,
110,110,26,2,0,47,33,3115,['n'],0,left,['8'],4,395,[-0.08254366],68,47,medium,minus,dotcolour,beta,,,3,19,V,R,
111,111,27,2,0,36,44,1315,['n'],1,right,['9'],5,632,[-0.11077626],78,44,hard,minus,dotcolour,beta,,,3,19,V,R,
112,112,28,2,0,36,44,1165,['c'],0,right,['9'],5,594,[0.00105213],22,44,hard,minus,dotcolour,beta,,,3,19,V,R,
113,113,29,2,0,33,47,1348,['n'],1,right,['8'],4,573,[-0.0402182],41,47,medium,minus,dotcolour,beta,,,3,19,V,R,
114,114,30,2,0,44,36,1532,['c'],1,left,['3'],3,497,[0.13253267],88,44,hard,minus,dotcolour,beta,,,3,19,V,R,
115,115,31,2,0,27,53,682,['n'],1,right,['0'],6,235,[-0.15680312],98,53,easy,minus,dotcolour,beta,,,3,19,V,R,
116,116,32,2,0,47,33,1548,['c'],1,left,['9'],5,612,[0.01170098],27,47,medium,minus,dotcolour,beta,,,3,19,V,R,
117,117,33,2,0,47,33,1599,['n'],0,left,['2'],2,1565,[0.01072843],28,47,medium,minus,dotcolour,beta,,,3,19,V,R,
118,118,34,2,0,44,36,1481,['c'],1,left,['9'],5,420,[0.16790139],96,44,hard,minus,dotcolour,beta,,,3,19,V,R,
119,119,35,2,0,36,44,1466,['n'],1,right,['9'],5,386,[-0.1528395],94,44,hard,minus,dotcolour,beta,,,3,19,V,R,
120,120,36,2,0,27,53,714,['n'],1,right,['0'],6,263,[-0.1244787],92,53,easy,minus,dotcolour,beta,,,3,19,V,R,
121,121,37,2,0,53,27,632,['c'],1,left,['0'],6,213,[0.06209553],56,53,easy,minus,dotcolour,beta,,,3,19,V,R,
122,122,38,2,0,44,36,682,['c'],1,left,['0'],6,274,[0.10313421],84,44,hard,minus,dotcolour,beta,,,3,19,V,R,
123,123,39,2,0,44,36,667,['c'],1,left,['0'],6,229,[0.06111283],55,44,hard,minus,dotcolour,beta,,,3,19,V,R,
124,124,40,2,0,27,53,767,['n'],1,right,['0'],6,215,[-0.13833939],96,53,easy,minus,dotcolour,beta,,,3,19,V,R,
125,125,41,2,0,53,27,632,['c'],1,left,['0'],6,214,[0.18831204],99,53,easy,minus,dotcolour,beta,,,3,19,V,R,
126,0,0,3,1,44,36,1549,['c'],1,left,['0'],6,151,[0.05966938],100,44,hard,plus,dotcolour,beta,,,3,19,V,R,
127,1,1,3,1,33,47,797,['n'],1,right,['0'],6,186,[-0.13645143],100,47,medium,plus,dotcolour,beta,,,3,19,V,R,
128,2,2,3,1,53,27,730,['c'],1,left,['0'],6,190,[0.13318946],100,53,easy,plus,dotcolour,beta,,,3,19,V,R,
129,3,3,3,1,27,53,665,['n'],1,right,['0'],6,198,[-0.09996974],100,53,easy,plus,dotcolour,beta,,,3,19,V,R,
130,4,4,3,1,27,53,616,['n'],1,right,['0'],6,230,[-0.11215027],100,53,easy,plus,dotcolour,beta,,,3,19,V,R,
131,5,5,3,1,33,47,649,['c'],0,right,['2'],2,804,[-0.04820896],54,47,medium,plus,dotcolour,beta,,,3,19,V,R,
132,6,6,3,1,33,47,783,['n'],1,right,['0'],6,198,[-0.06220722],99,47,medium,plus,dotcolour,beta,,,3,19,V,R,
133,7,7,3,1,36,44,666,['n'],1,right,['0'],6,180,[-0.06223818],99,44,hard,plus,dotcolour,beta,,,3,19,V,R,
134,8,8,3,1,33,47,648,['n'],1,right,['0'],6,196,[-0.04247687],98,47,medium,plus,dotcolour,beta,,,3,19,V,R,
135,9,9,3,1,36,44,899,['c'],0,right,['0'],6,186,[-0.05303744],53,44,hard,plus,dotcolour,beta,,,3,19,V,R,
136,10,10,3,1,44,36,1200,['n'],0,left,['0'],6,236,[-0.04291879],97,44,hard,plus,dotcolour,beta,,,3,19,V,R,
137,11,11,3,1,47,33,1164,['c'],1,left,['9'],5,517,[0.16999033],100,47,medium,plus,dotcolour,beta,,,3,19,V,R,
138,12,12,3,1,53,27,1433,['c'],1,left,['0'],6,152,[0.09895524],100,53,easy,plus,dotcolour,beta,,,3,19,V,R,
139,13,13,3,1,53,27,448,['c'],1,left,['0'],6,129,[0.12935497],100,53,easy,plus,dotcolour,beta,,,3,19,V,R,
140,14,14,3,1,27,53,648,['n'],1,right,['0'],6,235,[-0.15417536],100,53,easy,plus,dotcolour,beta,,,3,19,V,R,
141,15,15,3,1,44,36,850,['n'],0,left,['0'],6,240,[-0.15938458],100,44,hard,plus,dotcolour,beta,,,3,19,V,R,
142,16,16,3,1,36,44,897,['n'],1,right,['0'],6,220,[-0.0924411],100,44,hard,plus,dotcolour,beta,,,3,19,V,R,
143,17,17,3,1,47,33,615,['c'],1,left,['0'],6,196,[0.03874368],98,47,medium,plus,dotcolour,beta,,,3,19,V,R,
144,18,18,3,1,47,33,648,['c'],1,left,['0'],6,163,[0.12128377],100,47,medium,plus,dotcolour,beta,,,3,19,V,R,
145,19,19,3,1,36,44,847,['c'],0,right,['0'],6,164,[0.06740355],100,44,hard,plus,dotcolour,beta,,,3,19,V,R,
146,20,20,3,1,33,47,583,['n'],1,right,['0'],6,199,[-0.0913064],100,47,medium,plus,dotcolour,beta,,,3,19,V,R,
147,21,21,3,1,36,44,915,['n'],1,right,['0'],6,155,[-0.04863043],99,44,hard,plus,dotcolour,beta,,,3,19,V,R,
148,22,22,3,1,47,33,784,['c'],1,left,['0'],6,191,[0.07550888],100,47,medium,plus,dotcolour,beta,,,3,19,V,R,
149,23,23,3,1,36,44,899,['n'],1,right,['0'],6,300,[0.02265456],75,44,hard,plus,dotcolour,beta,,,3,19,V,R,
150,24,24,3,1,47,33,1032,['c'],1,left,['0'],6,105,[0.06319601],100,47,medium,plus,dotcolour,beta,,,3,19,V,R,
151,25,25,3,1,53,27,498,['c'],1,left,['0'],6,138,[0.05773071],100,53,easy,plus,dotcolour,beta,,,3,19,V,R,
152,26,26,3,1,53,27,533,['c'],1,left,['0'],6,329,[0.02882361],93,53,easy,plus,dotcolour,beta,,,3,19,V,R,
153,27,27,3,1,47,33,948,['c'],1,left,['0'],6,143,[0.13186351],100,47,medium,plus,dotcolour,beta,,,3,19,V,R,
154,28,28,3,1,27,53,799,['n'],1,right,['0'],6,226,[-0.07922655],99,53,easy,plus,dotcolour,beta,,,3,19,V,R,
155,29,29,3,1,27,53,498,['n'],1,right,['0'],6,206,[-0.17604784],100,53,easy,plus,dotcolour,beta,,,3,19,V,R,
156,30,30,3,1,44,36,633,['c'],1,left,['0'],6,197,[0.00540444],92,44,hard,plus,dotcolour,beta,,,3,19,V,R,
157,31,31,3,1,53,27,464,['c'],1,left,['0'],6,148,[0.06108369],100,53,easy,plus,dotcolour,beta,,,3,19,V,R,
158,32,32,3,1,44,36,932,['n'],0,left,['0'],6,162,[-0.04507894],99,44,hard,plus,dotcolour,beta,,,3,19,V,R,
159,33,33,3,1,36,44,647,['c'],0,right,['0'],6,195,[0.09002051],100,44,hard,plus,dotcolour,beta,,,3,19,V,R,
160,34,34,3,1,47,33,1249,['n'],0,left,['2'],2,978,[-0.07241224],91,47,medium,plus,dotcolour,beta,,,3,19,V,R,
161,35,35,3,1,53,27,1000,['c'],1,left,['0'],6,132,[0.04889134],99,53,easy,plus,dotcolour,beta,,,3,19,V,R,
162,36,36,3,1,27,53,599,['n'],1,right,['0'],6,184,[-0.06733112],99,53,easy,plus,dotcolour,beta,,,3,19,V,R,
163,37,37,3,1,44,36,2049,['c'],1,left,['2'],2,608,[-0.01560297],72,44,hard,plus,dotcolour,beta,,,3,19,V,R,
164,38,38,3,1,33,47,2214,['n'],1,right,['0'],6,256,[-0.03458471],96,47,medium,plus,dotcolour,beta,,,3,19,V,R,
165,39,39,3,1,33,47,681,['n'],1,right,['0'],6,171,[-0.16614935],100,47,medium,plus,dotcolour,beta,,,3,19,V,R,
166,40,40,3,1,44,36,649,['c'],1,left,['0'],6,132,[0.03906034],99,44,hard,plus,dotcolour,beta,,,3,19,V,R,
167,41,41,3,1,27,53,766,['n'],1,right,['0'],6,1129,[-0.14092941],97,53,easy,plus,dotcolour,beta,,,3,19,V,R,
168,42,0,4,1,47,33,1650,['c'],1,left,['0'],6,190,[-0.00597183],89,47,medium,plus,dotcolour,beta,,,3,19,V,R,
169,43,1,4,1,44,36,1866,['c'],1,left,['3'],3,246,[0.10654715],100,44,hard,plus,dotcolour,beta,,,3,19,V,R,
170,44,2,4,1,36,44,1250,['n'],1,right,['0'],6,155,[-0.13674227],100,44,hard,plus,dotcolour,beta,,,3,19,V,R,
171,45,3,4,1,47,33,617,['c'],1,left,['0'],6,182,[0.13960766],100,47,medium,plus,dotcolour,beta,,,3,19,V,R,
172,46,4,4,1,27,53,899,['n'],1,right,['0'],6,820,[-0.07616899],93,53,easy,plus,dotcolour,beta,,,3,19,V,R,
173,47,5,4,1,53,27,1297,['c'],1,left,['0'],6,159,[0.10240627],100,53,easy,plus,dotcolour,beta,,,3,19,V,R,
174,48,6,4,1,36,44,600,['n'],1,right,['0'],6,178,[-0.07877917],100,44,hard,plus,dotcolour,beta,,,3,19,V,R,
175,49,7,4,1,47,33,733,['c'],1,left,['0'],6,199,[0.06968246],99,47,medium,plus,dotcolour,beta,,,3,19,V,R,
176,50,8,4,1,36,44,865,['n'],1,right,['0'],6,173,[-0.11646531],100,44,hard,plus,dotcolour,beta,,,3,19,V,R,
177,51,9,4,1,44,36,1632,['c'],1,left,['0'],6,438,[0.13493071],99,44,hard,plus,dotcolour,beta,,,3,19,V,R,
178,52,10,4,1,53,27,615,['c'],1,left,['0'],6,77,[0.04219451],100,53,easy,plus,dotcolour,beta,,,3,19,V,R,
179,53,11,4,1,47,33,417,['c'],1,left,['0'],6,258,[0.07157675],99,47,medium,plus,dotcolour,beta,,,3,19,V,R,
180,54,12,4,1,53,27,648,['c'],1,left,['0'],6,95,[0.09997363],100,53,easy,plus,dotcolour,beta,,,3,19,V,R,
181,55,13,4,1,27,53,666,['n'],1,right,['0'],6,169,[-0.1462465],100,53,easy,plus,dotcolour,beta,,,3,19,V,R,
182,56,14,4,1,27,53,633,['n'],1,right,['0'],6,154,[-0.01456297],96,53,easy,plus,dotcolour,beta,,,3,19,V,R,
183,57,15,4,1,36,44,716,['n'],1,right,['0'],6,185,[0.01594657],84,44,hard,plus,dotcolour,beta,,,3,19,V,R,
184,58,16,4,1,47,33,665,['c'],1,left,['0'],6,168,[0.00543765],94,47,medium,plus,dotcolour,beta,,,3,19,V,R,
185,59,17,4,1,44,36,731,['c'],1,left,['0'],6,149,[0.07779213],100,44,hard,plus,dotcolour,beta,,,3,19,V,R,
186,60,18,4,1,44,36,1098,['n'],0,left,['0'],6,164,[0.01731466],85,44,hard,plus,dotcolour,beta,,,3,19,V,R,
187,61,19,4,1,33,47,1065,['n'],1,right,['0'],6,156,[-0.07886944],100,47,medium,plus,dotcolour,beta,,,3,19,V,R,
188,62,20,4,1,33,47,598,['n'],1,right,['0'],6,175,[-0.05468584],99,47,medium,plus,dotcolour,beta,,,3,19,V,R,
189,63,21,4,1,44,36,1299,['c'],1,left,['9'],5,301,[0.1087597],100,44,hard,plus,dotcolour,beta,,,3,19,V,R,
190,64,22,4,1,27,53,899,['n'],1,right,['0'],6,166,[-0.13696089],100,53,easy,plus,dotcolour,beta,,,3,19,V,R,
191,65,23,4,1,53,27,648,['c'],1,left,['0'],6,167,[0.1049838],100,53,easy,plus,dotcolour,beta,,,3,19,V,R,
192,66,24,4,1,27,53,748,['n'],1,right,['0'],6,187,[-0.05597706],99,53,easy,plus,dotcolour,beta,,,3,19,V,R,
193,67,25,4,1,44,36,582,['c'],1,left,['0'],6,134,[0.12639989],100,44,hard,plus,dotcolour,beta,,,3,19,V,R,
194,68,26,4,1,44,36,484,['n'],0,left,['0'],6,182,[-0.09041887],100,44,hard,plus,dotcolour,beta,,,3,19,V,R,
195,69,27,4,1,33,47,514,['n'],1,right,['0'],6,188,[-0.06636973],99,47,medium,plus,dotcolour,beta,,,3,19,V,R,
196,70,28,4,1,53,27,616,['c'],1,left,['0'],6,181,[0.08566208],100,53,easy,plus,dotcolour,beta,,,3,19,V,R,
197,71,29,4,1,36,44,648,['n'],1,right,['0'],6,157,[-0.06041742],99,44,hard,plus,dotcolour,beta,,,3,19,V,R,
198,72,30,4,1,27,53,748,['n'],1,right,['0'],6,162,[-0.05622179],99,53,easy,plus,dotcolour,beta,,,3,19,V,R,
199,73,31,4,1,53,27,548,['c'],1,left,['0'],6,143,[0.1451379],100,53,easy,plus,dotcolour,beta,,,3,19,V,R,
200,74,32,4,1,36,44,682,['c'],0,right,['2'],2,838,[-0.07694352],40,44,hard,plus,dotcolour,beta,,,3,19,V,R,
201,75,33,4,1,33,47,1232,['n'],1,right,['0'],6,205,[-0.12838365],100,47,medium,plus,dotcolour,beta,,,3,19,V,R,
202,76,34,4,1,33,47,548,['n'],1,right,['0'],6,151,[-0.20106561],100,47,medium,plus,dotcolour,beta,,,3,19,V,R,
203,77,35,4,1,36,44,667,['n'],1,right,['0'],6,216,[-0.12113299],100,44,hard,plus,dotcolour,beta,,,3,19,V,R,
204,78,36,4,1,33,47,465,['n'],1,right,['0'],6,302,[-0.1180005],100,47,medium,plus,dotcolour,beta,,,3,19,V,R,
205,79,37,4,1,33,47,781,['n'],1,right,['0'],6,172,[0.00065943],92,47,medium,plus,dotcolour,beta,,,3,19,V,R,
206,80,38,4,1,47,33,2165,['c'],1,left,['9'],5,328,[0.09193737],99,47,medium,plus,dotcolour,beta,,,3,19,V,R,
207,81,39,4,1,27,53,700,['n'],1,right,['0'],6,112,[-0.06520315],100,53,easy,plus,dotcolour,beta,,,3,19,V,R,
208,82,40,4,1,53,27,632,['c'],1,left,['9'],5,411,[-0.03121117],66,53,easy,plus,dotcolour,beta,,,3,19,V,R,
209,83,41,4,1,47,33,1097,['c'],1,left,['9'],5,216,[0.10760381],100,47,medium,plus,dotcolour,beta,,,3,19,V,R,
210,84,0,5,1,47,33,1282,['c'],1,left,['9'],5,179,[0.17598324],100,47,medium,plus,dotcolour,beta,,,3,19,V,R,
211,85,1,5,1,36,44,833,['n'],1,right,['0'],6,204,[-0.12257501],100,44,hard,plus,dotcolour,beta,,,3,19,V,R,
212,86,2,5,1,53,27,566,['c'],1,left,['0'],6,191,[0.05404698],99,53,easy,plus,dotcolour,beta,,,3,19,V,R,
213,87,3,5,1,36,44,634,['n'],1,right,['2'],2,983,[-0.02167896],80,44,hard,plus,dotcolour,beta,,,3,19,V,R,
214,88,4,5,1,33,47,1131,['n'],1,right,['0'],6,139,[-0.06475818],100,47,medium,plus,dotcolour,beta,,,3,19,V,R,
215,89,5,5,1,36,44,616,['n'],1,right,['0'],6,142,[-0.05443765],99,44,hard,plus,dotcolour,beta,,,3,19,V,R,
216,90,6,5,1,47,33,683,['c'],1,left,['0'],6,182,[0.15905704],100,47,medium,plus,dotcolour,beta,,,3,19,V,R,
217,91,7,5,1,44,36,3098,['c'],1,left,['9'],5,589,[0.10205315],98,44,hard,plus,dotcolour,beta,,,3,19,V,R,
218,92,8,5,1,33,47,1299,['n'],1,right,['0'],6,282,[-0.09608373],99,47,medium,plus,dotcolour,beta,,,3,19,V,R,
219,93,9,5,1,53,27,633,['c'],1,left,['0'],6,190,[0.06968013],99,53,easy,plus,dotcolour,beta,,,3,19,V,R,
220,94,10,5,1,33,47,549,['n'],1,right,['0'],6,130,[-0.06155992],100,47,medium,plus,dotcolour,beta,,,3,19,V,R,
221,95,11,5,1,53,27,649,['c'],1,left,['0'],6,148,[0.19124529],100,53,easy,plus,dotcolour,beta,,,3,19,V,R,
222,96,12,5,1,44,36,1315,['c'],1,left,['9'],5,394,[0.14402044],100,44,hard,plus,dotcolour,beta,,,3,19,V,R,
223,97,13,5,1,36,44,1466,['n'],1,right,['0'],6,185,[-0.12941726],100,44,hard,plus,dotcolour,beta,,,3,19,V,R,
224,98,14,5,1,27,53,666,['n'],1,right,['0'],6,128,[-0.11016178],100,53,easy,plus,dotcolour,beta,,,3,19,V,R,
225,99,15,5,1,44,36,1415,['n'],0,left,['9'],5,571,[-0.03132767],89,44,hard,plus,dotcolour,beta,,,3,19,V,R,
226,100,16,5,1,53,27,664,['c'],1,left,['0'],6,131,[0.09584374],100,53,easy,plus,dotcolour,beta,,,3,19,V,R,
227,101,17,5,1,44,36,982,['c'],1,left,['0'],6,192,[0.12478789],100,44,hard,plus,dotcolour,beta,,,3,19,V,R,
228,102,18,5,1,44,36,682,['c'],1,left,['0'],6,190,[0.0918547],100,44,hard,plus,dotcolour,beta,,,3,19,V,R,
229,103,19,5,1,36,44,998,['n'],1,right,['9'],5,183,[-0.10218934],100,44,hard,plus,dotcolour,beta,,,3,19,V,R,
230,104,20,5,1,47,33,715,['c'],1,left,['0'],6,157,[0.08447673],100,47,medium,plus,dotcolour,beta,,,3,19,V,R,
231,105,21,5,1,44,36,683,['c'],1,left,['9'],5,172,[0.04940627],99,44,hard,plus,dotcolour,beta,,,3,19,V,R,
232,106,22,5,1,47,33,1332,['n'],0,left,['0'],6,169,[-0.03098802],98,47,medium,plus,dotcolour,beta,,,3,19,V,R,
233,107,23,5,1,47,33,648,['c'],1,left,['0'],6,146,[0.0995373],100,47,medium,plus,dotcolour,beta,,,3,19,V,R,
234,108,24,5,1,53,27,431,['c'],1,left,['0'],6,172,[0.09613602],100,53,easy,plus,dotcolour,beta,,,3,19,V,R,
235,109,25,5,1,27,53,598,['n'],1,right,['0'],6,165,[-0.1082754],100,53,easy,plus,dotcolour,beta,,,3,19,V,R,
236,110,26,5,1,44,36,550,['c'],1,left,['0'],6,130,[0.08126424],100,44,hard,plus,dotcolour,beta,,,3,19,V,R,
237,111,27,5,1,27,53,532,['n'],1,right,['0'],6,185,[-0.08712004],100,53,easy,plus,dotcolour,beta,,,3,19,V,R,
238,112,28,5,1,27,53,548,['n'],1,right,['0'],6,189,[-0.12105104],100,53,easy,plus,dotcolour,beta,,,3,19,V,R,
239,113,29,5,1,33,47,982,['n'],1,right,['0'],6,183,[-0.03185633],98,47,medium,plus,dotcolour,beta,,,3,19,V,R,
240,114,30,5,1,47,33,550,['c'],1,left,['0'],6,211,[0.05354608],99,47,medium,plus,dotcolour,beta,,,3,19,V,R,
241,115,31,5,1,53,27,632,['c'],1,left,['0'],6,155,[0.04514385],99,53,easy,plus,dotcolour,beta,,,3,19,V,R,
242,116,32,5,1,47,33,1399,['c'],1,left,['0'],6,206,[0.09948721],100,47,medium,plus,dotcolour,beta,,,3,19,V,R,
243,117,33,5,1,33,47,599,['n'],1,right,['0'],6,175,[-0.11275295],100,47,medium,plus,dotcolour,beta,,,3,19,V,R,
244,118,34,5,1,33,47,1065,['n'],1,right,['0'],6,166,[-0.08190917],100,47,medium,plus,dotcolour,beta,,,3,19,V,R,
245,119,35,5,1,27,53,667,['n'],1,right,['0'],6,127,[-0.10576591],100,53,easy,plus,dotcolour,beta,,,3,19,V,R,
246,120,36,5,1,27,53,601,['n'],1,right,['0'],6,146,[-0.12120256],100,53,easy,plus,dotcolour,beta,,,3,19,V,R,
247,121,37,5,1,36,44,799,['n'],1,right,['0'],6,166,[-0.05314466],99,44,hard,plus,dotcolour,beta,,,3,19,V,R,
248,122,38,5,1,27,53,482,['n'],1,right,['0'],6,181,[-0.09563172],100,53,easy,plus,dotcolour,beta,,,3,19,V,R,
249,123,39,5,1,36,44,1615,['c'],0,right,['0'],6,374,[0.08693298],99,44,hard,plus,dotcolour,beta,,,3,19,V,R,
250,124,40,5,1,33,47,549,['n'],1,right,['0'],6,162,[-0.06399168],100,47,medium,plus,dotcolour,beta,,,3,19,V,R,
251,125,41,5,1,53,27,665,['c'],1,left,['0'],6,154,[0.11489599],100,53,easy,plus,dotcolour,beta,,,3,19,V,R,
252,0,0,6,2,36,44,716,['c'],0,right,['2'],2,751,[0.10940843],75,44,hard,minus,dotcolour,beta,,,3,19,V,R,
253,1,1,6,2,53,27,632,['c'],1,left,['0'],6,145,[0.05975985],55,53,easy,minus,dotcolour,beta,,,3,19,V,R,
254,2,2,6,2,44,36,1533,['n'],0,left,['8'],4,591,[-0.02465427],33,44,hard,minus,dotcolour,beta,,,3,19,V,R,
255,3,3,6,2,53,27,848,['c'],1,left,['0'],6,207,[0.02921829],26,53,easy,minus,dotcolour,beta,,,3,19,V,R,
256,4,4,6,2,53,27,565,['c'],1,left,['0'],6,217,[0.14347362],97,53,easy,minus,dotcolour,beta,,,3,19,V,R,
257,5,5,6,2,47,33,517,['c'],1,left,['0'],6,188,[0.15921752],99,47,medium,minus,dotcolour,beta,,,3,19,V,R,
258,6,6,6,2,36,44,615,['n'],1,right,['0'],6,166,[-0.03435493],28,44,hard,minus,dotcolour,beta,,,3,19,V,R,
259,7,7,6,2,27,53,565,['n'],1,right,['0'],6,226,[-0.120517],92,53,easy,minus,dotcolour,beta,,,3,19,V,R,
260,8,8,6,2,27,53,499,['n'],1,right,['0'],6,190,[-0.06350392],58,53,easy,minus,dotcolour,beta,,,3,19,V,R,
261,9,9,6,2,27,53,416,['n'],1,right,['0'],6,214,[-0.04340811],38,53,easy,minus,dotcolour,beta,,,3,19,V,R,
262,10,10,6,2,36,44,516,['n'],1,right,['0'],6,170,[-0.16174122],99,44,hard,minus,dotcolour,beta,,,3,19,V,R,
263,11,11,6,2,47,33,1665,['n'],0,left,['8'],4,474,[-0.06289531],55,47,medium,minus,dotcolour,beta,,,3,19,V,R,
264,12,12,6,2,33,47,598,['n'],1,right,['0'],6,152,[-0.0762296],72,47,medium,minus,dotcolour,beta,,,3,19,V,R,
265,13,13,6,2,53,27,632,['c'],1,left,['0'],6,178,[0.14293443],98,53,easy,minus,dotcolour,beta,,,3,19,V,R,
266,14,14,6,2,53,27,1430,['c'],1,left,['0'],6,107,[0.06567497],64,53,easy,minus,dotcolour,beta,,,3,19,V,R,
267,15,15,6,2,44,36,2747,['c'],1,left,['9'],5,898,[0.1031675],71,44,hard,minus,dotcolour,beta,,,3,19,V,R,
268,16,16,6,2,53,27,1200,['c'],1,left,['0'],6,191,[0.14895604],98,53,easy,minus,dotcolour,beta,,,3,19,V,R,
269,17,17,6,2,33,47,733,['n'],1,right,['0'],6,163,[-0.10537767],90,47,medium,minus,dotcolour,beta,,,3,19,V,R,
270,18,18,6,2,36,44,1197,['c'],0,right,['9'],5,502,[0.16951164],95,44,hard,minus,dotcolour,beta,,,3,19,V,R,
271,19,19,6,2,53,27,683,['c'],1,left,['0'],6,135,[0.1046507],92,53,easy,minus,dotcolour,beta,,,3,19,V,R,
272,20,20,6,2,44,36,715,['c'],1,left,['0'],6,143,[0.07991391],76,44,hard,minus,dotcolour,beta,,,3,19,V,R,
273,21,21,6,2,33,47,682,['n'],1,right,['0'],6,175,[-0.08902869],81,47,medium,minus,dotcolour,beta,,,3,19,V,R,
274,22,22,6,2,27,53,666,['n'],1,right,['0'],6,198,[-0.08300757],75,53,easy,minus,dotcolour,beta,,,3,19,V,R,
275,23,23,6,2,47,33,616,['c'],1,left,['0'],6,223,[0.09974684],84,47,medium,minus,dotcolour,beta,,,3,19,V,R,
276,24,24,6,2,36,44,599,['n'],1,right,['0'],6,175,[0.02721764],3,44,hard,minus,dotcolour,beta,,,3,19,V,R,
277,25,25,6,2,33,47,732,['n'],1,right,['0'],6,155,[-0.07044425],66,47,medium,minus,dotcolour,beta,,,3,19,V,R,
278,26,26,6,2,44,36,999,['n'],0,left,['0'],6,191,[-0.03609626],31,44,hard,minus,dotcolour,beta,,,3,19,V,R,
279,27,27,6,2,36,44,665,['n'],1,right,['0'],6,134,[0.00054101],6,44,hard,minus,dotcolour,beta,,,3,19,V,R,
280,28,28,6,2,47,33,732,['c'],1,left,['0'],6,132,[0.09216284],86,47,medium,minus,dotcolour,beta,,,3,19,V,R,
281,29,29,6,2,33,47,830,['c'],0,right,['2'],2,943,[0.02278707],35,47,medium,minus,dotcolour,beta,,,3,19,V,R,
282,30,30,6,2,47,33,682,['c'],1,left,['0'],6,183,[0.06523198],60,47,medium,minus,dotcolour,beta,,,3,19,V,R,
283,31,31,6,2,27,53,683,['n'],1,right,['0'],6,181,[-0.18138377],100,53,easy,minus,dotcolour,beta,,,3,19,V,R,
284,32,32,6,2,44,36,631,['c'],1,left,['0'],6,214,[0.09292166],81,44,hard,minus,dotcolour,beta,,,3,19,V,R,
285,33,33,6,2,33,47,649,['n'],1,right,['0'],6,149,[-0.1606252],99,47,medium,minus,dotcolour,beta,,,3,19,V,R,
286,34,34,6,2,47,33,716,['c'],1,left,['0'],6,163,[0.04658592],40,47,medium,minus,dotcolour,beta,,,3,19,V,R,
287,35,35,6,2,47,33,882,['c'],1,left,['0'],6,274,[0.18130246],99,47,medium,minus,dotcolour,beta,,,3,19,V,R,
288,36,36,6,2,36,44,1099,['c'],0,right,['0'],6,228,[0.10390157],86,44,hard,minus,dotcolour,beta,,,3,19,V,R,
289,37,37,6,2,27,53,715,['n'],1,right,['0'],6,168,[-0.05457777],49,53,easy,minus,dotcolour,beta,,,3,19,V,R,
290,38,38,6,2,44,36,1149,['n'],0,left,['0'],6,196,[-0.05281791],47,44,hard,minus,dotcolour,beta,,,3,19,V,R,
291,39,39,6,2,44,36,715,['c'],1,left,['0'],6,161,[0.10402219],90,44,hard,minus,dotcolour,beta,,,3,19,V,R,
292,40,40,6,2,27,53,748,['n'],1,right,['0'],6,174,[-0.13819712],97,53,easy,minus,dotcolour,beta,,,3,19,V,R,
293,41,41,6,2,33,47,1632,['n'],1,right,['9'],5,398,[-0.15902971],95,47,medium,minus,dotcolour,beta,,,3,19,V,R,
294,42,0,7,2,44,36,1767,['c'],1,left,['9'],5,242,[0.11080849],88,44,hard,minus,dotcolour,beta,,,3,19,V,R,
295,43,1,7,2,33,47,1065,['n'],1,right,['0'],6,182,[-0.08796225],80,47,medium,minus,dotcolour,beta,,,3,19,V,R,
296,44,2,7,2,27,53,949,['n'],1,right,['0'],6,266,[-0.12583423],92,53,easy,minus,dotcolour,beta,,,3,19,V,R,
297,45,3,7,2,36,44,1116,['n'],1,right,['0'],6,149,[-0.07918106],75,44,hard,minus,dotcolour,beta,,,3,19,V,R,
298,46,4,7,2,53,27,1466,['c'],1,left,['9'],5,301,[0.07616703],66,53,easy,minus,dotcolour,beta,,,3,19,V,R,
299,47,5,7,2,47,33,916,['c'],1,left,['0'],6,134,[0.09469506],87,47,medium,minus,dotcolour,beta,,,3,19,V,R,
300,48,6,7,2,36,44,966,['c'],0,right,['0'],6,179,[0.03989342],34,44,hard,minus,dotcolour,beta,,,3,19,V,R,
301,49,7,7,2,53,27,598,['c'],1,left,['0'],6,157,[0.1327431],97,53,easy,minus,dotcolour,beta,,,3,19,V,R,
302,50,8,7,2,36,44,716,['n'],1,right,['0'],6,163,[-0.06235337],58,44,hard,minus,dotcolour,beta,,,3,19,V,R,
303,51,9,7,2,36,44,732,['n'],1,right,['0'],6,192,[-0.0881107],79,44,hard,minus,dotcolour,beta,,,3,19,V,R,
304,52,10,7,2,47,33,1331,['c'],1,left,['2'],2,221,[0.11385523],90,47,medium,minus,dotcolour,beta,,,3,19,V,R,
305,53,11,7,2,44,36,1048,['n'],0,left,['0'],6,163,[-0.05519813],50,44,hard,minus,dotcolour,beta,,,3,19,V,R,
306,54,12,7,2,27,53,1015,['n'],1,right,['0'],6,141,[-0.11767332],95,53,easy,minus,dotcolour,beta,,,3,19,V,R,
307,55,13,7,2,44,36,1032,['c'],1,left,['9'],5,455,[0.14109156],91,44,hard,minus,dotcolour,beta,,,3,19,V,R,
308,56,14,7,2,53,27,898,['c'],1,left,['0'],6,106,[0.04253174],33,53,easy,minus,dotcolour,beta,,,3,19,V,R,
309,57,15,7,2,44,36,682,['c'],1,left,['0'],6,108,[0.16470043],100,44,hard,minus,dotcolour,beta,,,3,19,V,R,
310,58,16,7,2,53,27,482,['c'],1,left,['0'],6,132,[0.08446897],81,53,easy,minus,dotcolour,beta,,,3,19,V,R,
311,59,17,7,2,33,47,899,['n'],1,right,['0'],6,157,[-0.08642342],80,47,medium,minus,dotcolour,beta,,,3,19,V,R,
312,60,18,7,2,44,36,1615,['n'],0,left,['0'],6,223,[-0.05112875],46,44,hard,minus,dotcolour,beta,,,3,19,V,R,
313,61,19,7,2,53,27,698,['c'],1,left,['0'],6,132,[0.13896569],98,53,easy,minus,dotcolour,beta,,,3,19,V,R,
314,62,20,7,2,27,53,582,['n'],1,right,['0'],6,184,[-0.08190221],75,53,easy,minus,dotcolour,beta,,,3,19,V,R,
315,63,21,7,2,47,33,1082,['c'],1,left,['0'],6,135,[0.15271508],99,47,medium,minus,dotcolour,beta,,,3,19,V,R,
316,64,22,7,2,33,47,700,['n'],1,right,['0'],6,150,[-0.05216724],46,47,medium,minus,dotcolour,beta,,,3,19,V,R,
317,65,23,7,2,47,33,997,['c'],1,left,['0'],6,146,[0.04867873],42,47,medium,minus,dotcolour,beta,,,3,19,V,R,
318,66,24,7,2,27,53,515,['n'],1,right,['0'],6,177,[-0.1393675],97,53,easy,minus,dotcolour,beta,,,3,19,V,R,
319,67,25,7,2,47,33,565,['c'],1,left,['0'],6,188,[0.05983342],54,47,medium,minus,dotcolour,beta,,,3,19,V,R,
320,68,26,7,2,33,47,898,['n'],1,right,['0'],6,210,[-0.1189886],92,47,medium,minus,dotcolour,beta,,,3,19,V,R,
321,69,27,7,2,47,33,815,['c'],1,left,['0'],6,202,[0.04616317],41,47,medium,minus,dotcolour,beta,,,3,19,V,R,
322,70,28,7,2,36,44,1799,['n'],1,right,['0'],6,195,[-0.0804995],73,44,hard,minus,dotcolour,beta,,,3,19,V,R,
323,71,29,7,2,36,44,914,['n'],1,right,['0'],6,191,[-0.01370838],15,44,hard,minus,dotcolour,beta,,,3,19,V,R,
324,72,30,7,2,44,36,781,['c'],1,left,['0'],6,153,[0.1166595],94,44,hard,minus,dotcolour,beta,,,3,19,V,R,
325,73,31,7,2,33,47,683,['c'],0,right,['0'],6,122,[0.04474278],36,47,medium,minus,dotcolour,beta,,,3,19,V,R,
326,74,32,7,2,27,53,533,['n'],1,right,['0'],6,185,[-0.21123721],100,53,easy,minus,dotcolour,beta,,,3,19,V,R,
327,75,33,7,2,53,27,616,['c'],1,left,['0'],6,122,[0.12942921],98,53,easy,minus,dotcolour,beta,,,3,19,V,R,
328,76,34,7,2,33,47,915,['n'],1,right,['0'],6,186,[-0.16671435],99,47,medium,minus,dotcolour,beta,,,3,19,V,R,
329,77,35,7,2,47,33,1197,['c'],1,left,['9'],5,812,[0.19512428],94,47,medium,minus,dotcolour,beta,,,3,19,V,R,
330,78,36,7,2,33,47,549,['n'],1,right,['0'],6,206,[-0.16046337],98,47,medium,minus,dotcolour,beta,,,3,19,V,R,
331,79,37,7,2,44,36,798,['c'],1,left,['0'],6,183,[0.10071727],87,44,hard,minus,dotcolour,beta,,,3,19,V,R,
332,80,38,7,2,27,53,514,['n'],1,right,['0'],6,205,[-0.11616768],92,53,easy,minus,dotcolour,beta,,,3,19,V,R,
333,81,39,7,2,53,27,598,['c'],1,left,['0'],6,246,[0.05984794],54,53,easy,minus,dotcolour,beta,,,3,19,V,R,
334,82,40,7,2,27,53,632,['n'],1,right,['0'],6,204,[-0.11836263],92,53,easy,minus,dotcolour,beta,,,3,19,V,R,
335,83,41,7,2,36,44,882,['n'],1,right,['0'],6,218,[-0.04301589],38,44,hard,minus,dotcolour,beta,,,3,19,V,R,
336,84,0,8,2,36,44,1134,['n'],1,right,['0'],6,174,[-0.0248686],21,44,hard,minus,dotcolour,beta,,,3,19,V,R,
337,85,1,8,2,33,47,633,['n'],1,right,['0'],6,167,[-0.06234074],57,47,medium,minus,dotcolour,beta,,,3,19,V,R,
338,86,2,8,2,47,33,1265,['c'],1,left,['0'],6,223,[0.14758854],97,47,medium,minus,dotcolour,beta,,,3,19,V,R,
339,87,3,8,2,44,36,882,['n'],0,left,['0'],6,172,[-0.06615927],61,44,hard,minus,dotcolour,beta,,,3,19,V,R,
340,88,4,8,2,33,47,700,['n'],1,right,['0'],6,122,[-0.05472423],49,47,medium,minus,dotcolour,beta,,,3,19,V,R,
341,89,5,8,2,53,27,1149,['c'],1,left,['0'],6,288,[0.15166016],96,53,easy,minus,dotcolour,beta,,,3,19,V,R,
342,90,6,8,2,33,47,1449,['n'],1,right,['0'],6,196,[-0.06626853],61,47,medium,minus,dotcolour,beta,,,3,19,V,R,
343,91,7,8,2,47,33,682,['c'],1,left,['0'],6,202,[0.12523684],94,47,medium,minus,dotcolour,beta,,,3,19,V,R,
344,92,8,8,2,36,44,1515,['n'],1,right,['0'],6,166,[-0.1200445],95,44,hard,minus,dotcolour,beta,,,3,19,V,R,
345,93,9,8,2,44,36,1115,['n'],0,left,['0'],6,132,[-0.06587677],63,44,hard,minus,dotcolour,beta,,,3,19,V,R,
346,94,10,8,2,33,47,1748,['n'],1,right,['0'],6,250,[-0.05249982],47,47,medium,minus,dotcolour,beta,,,3,19,V,R,
347,95,11,8,2,33,47,500,['n'],1,right,['0'],6,149,[-0.10876143],92,47,medium,minus,dotcolour,beta,,,3,19,V,R,
348,96,12,8,2,33,47,432,['n'],1,right,['0'],6,151,[-0.08841194],82,47,medium,minus,dotcolour,beta,,,3,19,V,R,
349,97,13,8,2,36,44,448,['n'],1,right,['0'],6,193,[-0.07904565],72,44,hard,minus,dotcolour,beta,,,3,19,V,R,
350,98,14,8,2,47,33,665,['n'],0,left,['0'],6,159,[-0.04906578],43,47,medium,minus,dotcolour,beta,,,3,19,V,R,
351,99,15,8,2,44,36,632,['n'],0,left,['0'],6,169,[-0.05300383],47,44,hard,minus,dotcolour,beta,,,3,19,V,R,
352,100,16,8,2,27,53,563,['n'],1,right,['0'],6,189,[-0.12185658],94,53,easy,minus,dotcolour,beta,,,3,19,V,R,
353,101,17,8,2,53,27,647,['c'],1,left,['0'],6,124,[0.08171409],79,53,easy,minus,dotcolour,beta,,,3,19,V,R,
354,102,18,8,2,27,53,548,['n'],1,right,['0'],6,131,[-0.11058421],94,53,easy,minus,dotcolour,beta,,,3,19,V,R,
355,103,19,8,2,27,53,482,['n'],1,right,['0'],6,164,[-0.10519469],90,53,easy,minus,dotcolour,beta,,,3,19,V,R,
356,104,20,8,2,53,27,598,['c'],1,left,['0'],6,182,[0.0380197],32,53,easy,minus,dotcolour,beta,,,3,19,V,R,
357,105,21,8,2,53,27,532,['c'],1,left,['0'],6,195,[0.14177156],97,53,easy,minus,dotcolour,beta,,,3,19,V,R,
358,106,22,8,2,36,44,515,['n'],1,right,['0'],6,183,[-0.09813777],86,44,hard,minus,dotcolour,beta,,,3,19,V,R,
359,107,23,8,2,36,44,432,['c'],0,right,['0'],6,232,[0.10609143],87,44,hard,minus,dotcolour,beta,,,3,19,V,R,
360,108,24,8,2,53,27,581,['c'],1,left,['0'],6,161,[0.11435693],93,53,easy,minus,dotcolour,beta,,,3,19,V,R,
361,109,25,8,2,44,36,465,['c'],1,left,['0'],6,153,[0.03902882],32,44,hard,minus,dotcolour,beta,,,3,19,V,R,
362,110,26,8,2,47,33,832,['c'],1,left,['0'],6,170,[0.11206588],92,47,medium,minus,dotcolour,beta,,,3,19,V,R,
363,111,27,8,2,27,53,631,['n'],1,right,['0'],6,147,[-0.03531496],28,53,easy,minus,dotcolour,beta,,,3,19,V,R,
364,112,28,8,2,44,36,698,['n'],0,left,['0'],6,162,[-0.10774566],91,44,hard,minus,dotcolour,beta,,,3,19,V,R,
365,113,29,8,2,36,44,516,['n'],1,right,['0'],6,161,[-0.09399188],85,44,hard,minus,dotcolour,beta,,,3,19,V,R,
366,114,30,8,2,47,33,615,['c'],1,left,['0'],6,155,[0.10999431],92,47,medium,minus,dotcolour,beta,,,3,19,V,R,
367,115,31,8,2,27,53,632,['n'],1,right,['0'],6,149,[-0.18546277],100,53,easy,minus,dotcolour,beta,,,3,19,V,R,
368,116,32,8,2,53,27,566,['c'],1,left,['0'],6,161,[0.06856104],64,53,easy,minus,dotcolour,beta,,,3,19,V,R,
369,117,33,8,2,47,33,1148,['c'],1,left,['0'],6,262,[0.10448568],85,47,medium,minus,dotcolour,beta,,,3,19,V,R,
370,118,34,8,2,44,36,948,['n'],0,left,['0'],6,166,[-0.05060513],45,44,hard,minus,dotcolour,beta,,,3,19,V,R,
371,119,35,8,2,36,44,682,['c'],0,right,['0'],6,174,[0.13458437],97,44,hard,minus,dotcolour,beta,,,3,19,V,R,
372,120,36,8,2,33,47,549,['n'],1,right,['0'],6,147,[-0.08803967],82,47,medium,minus,dotcolour,beta,,,3,19,V,R,
373,121,37,8,2,27,53,532,['n'],1,right,['0'],6,152,[-0.07680492],73,53,easy,minus,dotcolour,beta,,,3,19,V,R,
374,122,38,8,2,44,36,581,['c'],1,left,['0'],6,189,[0.07839712],72,44,hard,minus,dotcolour,beta,,,3,19,V,R,
375,123,39,8,2,47,33,680,['c'],1,left,['0'],6,163,[0.06033814],55,47,medium,minus,dotcolour,beta,,,3,19,V,R,
376,124,40,8,2,53,27,566,['c'],1,left,['0'],6,159,[0.13887993],98,53,easy,minus,dotcolour,beta,,,3,19,V,R,
377,125,41,8,2,27,53,982,['n'],1,right,['0'],6,147,[-0.0265321],20,53,easy,minus,dotcolour,beta,,,3,19,V,R,
378,0,0,9,3,47,33,1217,['c'],1,left,['0'],6,154,[-0.00181535],92,47,medium,plus,dotcolour,beta,,,3,19,V,R,
379,1,1,9,3,47,33,632,['n'],0,left,['0'],6,156,[-0.07254465],100,47,medium,plus,dotcolour,beta,,,3,19,V,R,
380,2,2,9,3,36,44,533,['c'],0,right,['0'],6,130,[0.06240871],100,44,hard,plus,dotcolour,beta,,,3,19,V,R,
381,3,3,9,3,44,36,632,['n'],0,left,['0'],6,133,[-0.07433012],100,44,hard,plus,dotcolour,beta,,,3,19,V,R,
382,4,4,9,3,47,33,600,['c'],1,left,['0'],6,185,[0.06687921],99,47,medium,plus,dotcolour,beta,,,3,19,V,R,
383,5,5,9,3,44,36,566,['c'],1,left,['0'],6,132,[0.12748345],100,44,hard,plus,dotcolour,beta,,,3,19,V,R,
384,6,6,9,3,36,44,682,['n'],1,right,['0'],6,125,[-0.10055742],100,44,hard,plus,dotcolour,beta,,,3,19,V,R,
385,7,7,9,3,36,44,549,['n'],1,right,['0'],6,147,[-0.05553365],99,44,hard,plus,dotcolour,beta,,,3,19,V,R,
386,8,8,9,3,27,53,532,['n'],1,right,['0'],6,145,[-0.07756907],100,53,easy,plus,dotcolour,beta,,,3,19,V,R,
387,9,9,9,3,44,36,531,['c'],1,left,['0'],6,151,[0.12745234],100,44,hard,plus,dotcolour,beta,,,3,19,V,R,
388,10,10,9,3,44,36,932,['n'],0,left,['0'],6,157,[-0.02480538],97,44,hard,plus,dotcolour,beta,,,3,19,V,R,
389,11,11,9,3,53,27,515,['c'],1,left,['0'],6,139,[0.07373817],100,53,easy,plus,dotcolour,beta,,,3,19,V,R,
390,12,12,9,3,44,36,900,['c'],1,left,['0'],6,171,[0.12296838],100,44,hard,plus,dotcolour,beta,,,3,19,V,R,
391,13,13,9,3,53,27,2232,['c'],1,left,['0'],6,227,[-0.00772801],86,53,easy,plus,dotcolour,beta,,,3,19,V,R,
392,14,14,9,3,47,33,549,['c'],1,left,['0'],6,142,[0.07943018],100,47,medium,plus,dotcolour,beta,,,3,19,V,R,
393,15,15,9,3,27,53,567,['n'],1,right,['0'],6,194,[-0.13902746],100,53,easy,plus,dotcolour,beta,,,3,19,V,R,
394,16,16,9,3,47,33,633,['c'],1,left,['0'],6,162,[0.03317283],98,47,medium,plus,dotcolour,beta,,,3,19,V,R,
395,17,17,9,3,44,36,948,['n'],0,left,['0'],6,191,[-0.09675103],100,44,hard,plus,dotcolour,beta,,,3,19,V,R,
396,18,18,9,3,44,36,615,['c'],1,left,['0'],6,112,[0.08215312],100,44,hard,plus,dotcolour,beta,,,3,19,V,R,
397,19,19,9,3,27,53,615,['n'],1,right,['0'],6,180,[-0.06027981],99,53,easy,plus,dotcolour,beta,,,3,19,V,R,
398,20,20,9,3,27,53,1131,['n'],1,right,['0'],6,208,[-0.04511567],98,53,easy,plus,dotcolour,beta,,,3,19,V,R,
399,21,21,9,3,53,27,614,['c'],1,left,['0'],6,168,[0.15182632],100,53,easy,plus,dotcolour,beta,,,3,19,V,R,
400,22,22,9,3,36,44,764,['c'],0,right,['0'],6,204,[0.061342],99,44,hard,plus,dotcolour,beta,,,3,19,V,R,
401,23,23,9,3,33,47,547,['n'],1,right,['0'],6,175,[-0.10544094],100,47,medium,plus,dotcolour,beta,,,3,19,V,R,
402,24,24,9,3,47,33,650,['n'],0,left,['0'],6,152,[-0.10703035],100,47,medium,plus,dotcolour,beta,,,3,19,V,R,
403,25,25,9,3,53,27,647,['c'],1,left,['0'],6,184,[0.13661079],100,53,easy,plus,dotcolour,beta,,,3,19,V,R,
404,26,26,9,3,27,53,913,['n'],1,right,['0'],6,190,[-0.12992356],100,53,easy,plus,dotcolour,beta,,,3,19,V,R,
405,27,27,9,3,53,27,531,['c'],1,left,['0'],6,147,[0.0805206],100,53,easy,plus,dotcolour,beta,,,3,19,V,R,
406,28,28,9,3,27,53,982,['n'],1,right,['0'],6,199,[-0.15822785],100,53,easy,plus,dotcolour,beta,,,3,19,V,R,
407,29,29,9,3,36,44,4781,['c'],0,right,['0'],6,1057,[-0.18523389],9,44,hard,plus,dotcolour,beta,,,3,19,V,R,
408,30,30,9,3,53,27,814,['n'],0,left,['0'],6,135,[-0.08449418],100,53,easy,plus,dotcolour,beta,,,3,19,V,R,
409,31,31,9,3,53,27,848,['c'],1,left,['0'],6,160,[0.04119353],99,53,easy,plus,dotcolour,beta,,,3,19,V,R,
410,32,32,9,3,33,47,649,['n'],1,right,['0'],6,161,[-0.10381761],100,47,medium,plus,dotcolour,beta,,,3,19,V,R,
411,33,33,9,3,47,33,566,['c'],1,left,['0'],6,149,[0.09562762],100,47,medium,plus,dotcolour,beta,,,3,19,V,R,
412,34,34,9,3,33,47,599,['n'],1,right,['0'],6,136,[-0.13000929],100,47,medium,plus,dotcolour,beta,,,3,19,V,R,
413,35,35,9,3,33,47,665,['n'],1,right,['0'],6,178,[-0.08780887],100,47,medium,plus,dotcolour,beta,,,3,19,V,R,
414,36,36,9,3,27,53,667,['n'],1,right,['0'],6,329,[-0.15589384],100,53,easy,plus,dotcolour,beta,,,3,19,V,R,
415,37,37,9,3,36,44,1316,['n'],1,right,['9'],5,201,[-0.06670023],99,44,hard,plus,dotcolour,beta,,,3,19,V,R,
416,38,38,9,3,33,47,814,['n'],1,right,['0'],6,185,[-0.01764475],96,47,medium,plus,dotcolour,beta,,,3,19,V,R,
417,39,39,9,3,36,44,565,['n'],1,right,['0'],6,140,[-0.0757493],100,44,hard,plus,dotcolour,beta,,,3,19,V,R,
418,40,40,9,3,33,47,550,['n'],1,right,['0'],6,122,[-0.0904725],100,47,medium,plus,dotcolour,beta,,,3,19,V,R,
419,41,41,9,3,33,47,465,['n'],1,right,['0'],6,173,[-0.09639778],100,47,medium,plus,dotcolour,beta,,,3,19,V,R,
420,42,0,10,3,53,27,967,['c'],1,left,['0'],6,171,[0.11226374],100,53,easy,plus,dotcolour,beta,,,3,19,V,R,
421,43,1,10,3,53,27,915,['c'],1,left,['0'],6,137,[0.10715281],100,53,easy,plus,dotcolour,beta,,,3,19,V,R,
422,44,2,10,3,36,44,665,['n'],1,right,['0'],6,202,[-0.12257971],100,44,hard,plus,dotcolour,beta,,,3,19,V,R,
423,45,3,10,3,44,36,1131,['c'],1,left,['0'],6,110,[0.07151854],100,44,hard,plus,dotcolour,beta,,,3,19,V,R,
424,46,4,10,3,27,53,449,['n'],1,right,['0'],6,168,[-0.00164359],92,53,easy,plus,dotcolour,beta,,,3,19,V,R,
425,47,5,10,3,33,47,566,['n'],1,right,['0'],6,148,[-0.1587515],100,47,medium,plus,dotcolour,beta,,,3,19,V,R,
426,48,6,10,3,33,47,548,['n'],1,right,['0'],6,154,[-0.06961649],100,47,medium,plus,dotcolour,beta,,,3,19,V,R,
427,49,7,10,3,36,44,565,['n'],1,right,['0'],6,166,[-0.07571678],100,44,hard,plus,dotcolour,beta,,,3,19,V,R,
428,50,8,10,3,44,36,598,['n'],0,left,['0'],6,129,[-0.03230383],99,44,hard,plus,dotcolour,beta,,,3,19,V,R,
429,51,9,10,3,27,53,515,['n'],1,right,['0'],6,193,[-0.0247115],96,53,easy,plus,dotcolour,beta,,,3,19,V,R,
430,52,10,10,3,33,47,432,['n'],1,right,['0'],6,184,[-0.13772534],100,47,medium,plus,dotcolour,beta,,,3,19,V,R,
431,53,11,10,3,36,44,448,['n'],1,right,['0'],6,184,[-0.05229896],99,44,hard,plus,dotcolour,beta,,,3,19,V,R,
432,54,12,10,3,27,53,498,['n'],1,right,['0'],6,182,[-0.07811371],100,53,easy,plus,dotcolour,beta,,,3,19,V,R,
433,55,13,10,3,33,47,398,['n'],1,right,['0'],6,168,[-0.10983871],100,47,medium,plus,dotcolour,beta,,,3,19,V,R,
434,56,14,10,3,33,47,365,['n'],1,right,['0'],6,252,[-0.09841672],100,47,medium,plus,dotcolour,beta,,,3,19,V,R,
435,57,15,10,3,53,27,583,['c'],1,left,['0'],6,196,[0.09370085],100,53,easy,plus,dotcolour,beta,,,3,19,V,R,
436,58,16,10,3,27,53,947,['n'],1,right,['0'],6,151,[-0.10499148],100,53,easy,plus,dotcolour,beta,,,3,19,V,R,
437,59,17,10,3,44,36,531,['c'],1,left,['0'],6,141,[0.06412296],100,44,hard,plus,dotcolour,beta,,,3,19,V,R,
438,60,18,10,3,44,36,549,['c'],1,left,['0'],6,275,[0.16438075],100,44,hard,plus,dotcolour,beta,,,3,19,V,R,
439,61,19,10,3,47,33,482,['c'],1,left,['0'],6,189,[0.20362918],100,47,medium,plus,dotcolour,beta,,,3,19,V,R,
440,62,20,10,3,47,33,532,['c'],1,left,['0'],6,169,[0.05201519],99,47,medium,plus,dotcolour,beta,,,3,19,V,R,
441,63,21,10,3,36,44,716,['n'],1,right,['0'],6,159,[-0.13824135],100,44,hard,plus,dotcolour,beta,,,3,19,V,R,
442,64,22,10,3,53,27,465,['c'],1,left,['0'],6,151,[0.13268765],100,53,easy,plus,dotcolour,beta,,,3,19,V,R,
443,65,23,10,3,44,36,599,['c'],1,left,['0'],6,163,[0.1072792],100,44,hard,plus,dotcolour,beta,,,3,19,V,R,
444,66,24,10,3,36,44,732,['c'],0,right,['0'],6,176,[0.0827173],100,44,hard,plus,dotcolour,beta,,,3,19,V,R,
445,67,25,10,3,27,53,683,['n'],1,right,['0'],6,263,[-0.10372392],100,53,easy,plus,dotcolour,beta,,,3,19,V,R,
446,68,26,10,3,33,47,531,['n'],1,right,['0'],6,168,[-0.0880101],100,47,medium,plus,dotcolour,beta,,,3,19,V,R,
447,69,27,10,3,47,33,499,['c'],1,left,['0'],6,143,[0.08572001],100,47,medium,plus,dotcolour,beta,,,3,19,V,R,
448,70,28,10,3,27,53,999,['n'],1,right,['0'],6,162,[-0.08632382],100,53,easy,plus,dotcolour,beta,,,3,19,V,R,
449,71,29,10,3,53,27,482,['c'],1,left,['0'],6,177,[0.12260773],100,53,easy,plus,dotcolour,beta,,,3,19,V,R,
450,72,30,10,3,33,47,548,['n'],1,right,['0'],6,245,[-0.0595917],99,47,medium,plus,dotcolour,beta,,,3,19,V,R,
451,73,31,10,3,47,33,482,['c'],1,left,['0'],6,209,[0.10730762],100,47,medium,plus,dotcolour,beta,,,3,19,V,R,
452,74,32,10,3,47,33,917,['c'],1,left,['0'],6,213,[0.0693094],99,47,medium,plus,dotcolour,beta,,,3,19,V,R,
453,75,33,10,3,53,27,748,['c'],1,left,['0'],6,120,[0.07731055],100,53,easy,plus,dotcolour,beta,,,3,19,V,R,
454,76,34,10,3,47,33,582,['c'],1,left,['0'],6,149,[0.06762057],100,47,medium,plus,dotcolour,beta,,,3,19,V,R,
455,77,35,10,3,47,33,466,['n'],0,left,['0'],6,366,[-0.10884861],99,47,medium,plus,dotcolour,beta,,,3,19,V,R,
456,78,36,10,3,27,53,615,['n'],1,right,['0'],6,160,[-0.07219299],100,53,easy,plus,dotcolour,beta,,,3,19,V,R,
457,79,37,10,3,53,27,465,['c'],1,left,['0'],6,183,[0.09598799],100,53,easy,plus,dotcolour,beta,,,3,19,V,R,
458,80,38,10,3,36,44,465,['c'],0,right,['0'],6,239,[0.0723555],99,44,hard,plus,dotcolour,beta,,,3,19,V,R,
459,81,39,10,3,36,44,515,['n'],1,right,['0'],6,218,[-0.01096735],93,44,hard,plus,dotcolour,beta,,,3,19,V,R,
460,82,40,10,3,44,36,446,['c'],1,left,['0'],6,144,[0.04490722],99,44,hard,plus,dotcolour,beta,,,3,19,V,R,
461,83,41,10,3,44,36,515,['c'],1,left,['0'],6,174,[0.08171636],100,44,hard,plus,dotcolour,beta,,,3,19,V,R,
462,84,0,11,3,36,44,1283,['c'],0,right,['0'],6,186,[0.07769633],100,44,hard,plus,dotcolour,beta,,,3,19,V,R,
463,85,1,11,3,44,36,366,['c'],1,left,['0'],6,310,[0.11560544],100,44,hard,plus,dotcolour,beta,,,3,19,V,R,
464,86,2,11,3,27,53,548,['n'],1,right,['0'],6,924,[-0.21456583],99,53,easy,plus,dotcolour,beta,,,3,19,V,R,
465,87,3,11,3,36,44,583,['n'],1,right,['0'],6,129,[-0.03290445],99,44,hard,plus,dotcolour,beta,,,3,19,V,R,
466,88,4,11,3,36,44,530,['n'],1,right,['0'],6,176,[-0.07736955],100,44,hard,plus,dotcolour,beta,,,3,19,V,R,
467,89,5,11,3,47,33,582,['c'],1,left,['0'],6,178,[-0.00612926],89,47,medium,plus,dotcolour,beta,,,3,19,V,R,
468,90,6,11,3,53,27,549,['c'],1,left,['0'],6,119,[0.06213749],100,53,easy,plus,dotcolour,beta,,,3,19,V,R,
469,91,7,11,3,36,44,767,['n'],1,right,['0'],6,140,[-0.16667784],100,44,hard,plus,dotcolour,beta,,,3,19,V,R,
470,92,8,11,3,27,53,530,['n'],1,right,['0'],6,227,[-0.15844153],100,53,easy,plus,dotcolour,beta,,,3,19,V,R,
471,93,9,11,3,47,33,350,['c'],1,left,['0'],6,357,[0.17964384],100,47,medium,plus,dotcolour,beta,,,3,19,V,R,
472,94,10,11,3,53,27,398,['c'],1,left,['0'],6,168,[0.12730097],100,53,easy,plus,dotcolour,beta,,,3,19,V,R,
473,95,11,11,3,27,53,448,['n'],1,right,['0'],6,184,[-0.1121092],100,53,easy,plus,dotcolour,beta,,,3,19,V,R,
474,96,12,11,3,33,47,665,['c'],0,right,['0'],6,143,[0.06613261],100,47,medium,plus,dotcolour,beta,,,3,19,V,R,
475,97,13,11,3,44,36,598,['n'],0,left,['0'],6,187,[-0.09390848],100,44,hard,plus,dotcolour,beta,,,3,19,V,R,
476,98,14,11,3,33,47,665,['n'],1,right,['0'],6,146,[-0.09109284],100,47,medium,plus,dotcolour,beta,,,3,19,V,R,
477,99,15,11,3,53,27,482,['n'],0,left,['1'],1,1098,[0.07451839],42,53,easy,plus,dotcolour,beta,,,3,19,V,R,
478,100,16,11,3,27,53,614,['c'],0,right,['0'],6,143,[0.09141718],100,53,easy,plus,dotcolour,beta,,,3,19,V,R,
479,101,17,11,3,27,53,465,['n'],1,right,['0'],6,160,[-0.15113998],100,53,easy,plus,dotcolour,beta,,,3,19,V,R,
480,102,18,11,3,33,47,465,['n'],1,right,['0'],6,160,[-0.12894841],100,47,medium,plus,dotcolour,beta,,,3,19,V,R,
481,103,19,11,3,53,27,498,['c'],1,left,['0'],6,158,[0.20013503],100,53,easy,plus,dotcolour,beta,,,3,19,V,R,
482,104,20,11,3,47,33,448,['c'],1,left,['0'],6,183,[0.06183192],99,47,medium,plus,dotcolour,beta,,,3,19,V,R,
483,105,21,11,3,53,27,565,['c'],1,left,['0'],6,130,[0.05000428],99,53,easy,plus,dotcolour,beta,,,3,19,V,R,
484,106,22,11,3,44,36,431,['c'],1,left,['0'],6,197,[0.08246368],100,44,hard,plus,dotcolour,beta,,,3,19,V,R,
485,107,23,11,3,33,47,533,['n'],1,right,['1'],1,193,[-0.05813207],99,47,medium,plus,dotcolour,beta,,,3,19,V,R,
486,108,24,11,3,44,36,749,['c'],1,left,['0'],6,196,[0.12608634],100,44,hard,plus,dotcolour,beta,,,3,19,V,R,
487,109,25,11,3,44,36,600,['c'],1,left,['0'],6,141,[0.05578349],100,44,hard,plus,dotcolour,beta,,,3,19,V,R,
488,110,26,11,3,47,33,565,['n'],0,left,['0'],6,298,[-0.00852264],89,47,medium,plus,dotcolour,beta,,,3,19,V,R,
489,111,27,11,3,27,53,632,['n'],1,right,['0'],6,222,[-0.11713503],100,53,easy,plus,dotcolour,beta,,,3,19,V,R,
490,112,28,11,3,36,44,516,['c'],0,right,['0'],6,129,[0.11261443],100,44,hard,plus,dotcolour,beta,,,3,19,V,R,
491,113,29,11,3,33,47,399,['n'],1,right,['0'],6,165,[-0.11090498],100,47,medium,plus,dotcolour,beta,,,3,19,V,R,
492,114,30,11,3,36,44,414,['n'],1,right,['0'],6,184,[-0.0512521],99,44,hard,plus,dotcolour,beta,,,3,19,V,R,
493,115,31,11,3,47,33,534,['c'],1,left,['0'],6,188,[0.08176658],100,47,medium,plus,dotcolour,beta,,,3,19,V,R,
494,116,32,11,3,53,27,599,['c'],1,left,['0'],6,173,[0.00765123],94,53,easy,plus,dotcolour,beta,,,3,19,V,R,
495,117,33,11,3,33,47,365,['n'],1,right,['0'],6,169,[-0.10162187],100,47,medium,plus,dotcolour,beta,,,3,19,V,R,
496,118,34,11,3,44,36,684,['n'],0,left,['0'],6,184,[-0.05470871],99,44,hard,plus,dotcolour,beta,,,3,19,V,R,
497,119,35,11,3,53,27,848,['c'],1,left,['0'],6,144,[0.10161924],100,53,easy,plus,dotcolour,beta,,,3,19,V,R,
498,120,36,11,3,47,33,365,['c'],1,left,['0'],6,149,[-0.01650695],86,47,medium,plus,dotcolour,beta,,,3,19,V,R,
499,121,37,11,3,33,47,948,['n'],1,right,['0'],6,170,[-0.15157212],100,47,medium,plus,dotcolour,beta,,,3,19,V,R,
500,122,38,11,3,44,36,648,['n'],0,left,['0'],6,154,[0.01693149],85,44,hard,plus,dotcolour,beta,,,3,19,V,R,
501,123,39,11,3,47,33,433,['c'],1,left,['0'],6,148,[0.06123934],100,47,medium,plus,dotcolour,beta,,,3,19,V,R,
502,124,40,11,3,27,53,616,['n'],1,right,['0'],6,183,[-0.16641089],100,53,easy,plus,dotcolour,beta,,,3,19,V,R,
503,125,41,11,3,36,44,567,['n'],1,right,['0'],6,154,[-0.0969714],100,44,hard,plus,dotcolour,beta,,,3,19,V,R,
504,0,0,12,4,27,53,616,['n'],1,right,['0'],6,193,[-0.06402477],59,53,easy,minus,dotcolour,beta,,,3,19,V,R,
505,1,1,12,4,53,27,481,['c'],1,left,['0'],6,431,[0.21695769],99,53,easy,minus,dotcolour,beta,,,3,19,V,R,
506,2,2,12,4,36,44,614,['c'],0,right,['0'],6,159,[-0.0175275],4,44,hard,minus,dotcolour,beta,,,3,19,V,R,
507,3,3,12,4,53,27,399,['n'],0,left,['0'],6,217,[-0.07878992],71,53,easy,minus,dotcolour,beta,,,3,19,V,R,
508,4,4,12,4,36,44,1183,['c'],0,right,['0'],6,83,[0.04352652],32,44,hard,minus,dotcolour,beta,,,3,19,V,R,
509,5,5,12,4,36,44,683,['n'],1,right,['0'],6,117,[-0.04294762],34,44,hard,minus,dotcolour,beta,,,3,19,V,R,
510,6,6,12,4,36,44,398,['c'],0,right,['9'],5,410,[-0.03635444],7,44,hard,minus,dotcolour,beta,,,3,19,V,R,
511,7,7,12,4,53,27,566,['n'],0,left,['1'],1,852,[0.06932098],8,53,easy,minus,dotcolour,beta,,,3,19,V,R,
512,8,8,12,4,47,33,1048,['c'],1,left,['0'],6,169,[0.13926122],98,47,medium,minus,dotcolour,beta,,,3,19,V,R,
513,9,9,12,4,33,47,631,['n'],1,right,['0'],6,130,[-0.14580406],99,47,medium,minus,dotcolour,beta,,,3,19,V,R,
514,10,10,12,4,27,53,483,['n'],1,right,['0'],6,163,[-0.12763659],96,53,easy,minus,dotcolour,beta,,,3,19,V,R,
515,11,11,12,4,33,47,398,['n'],1,right,['0'],6,165,[-0.15771216],99,47,medium,minus,dotcolour,beta,,,3,19,V,R,
516,12,12,12,4,33,47,399,['n'],1,right,['0'],6,192,[-0.03524119],30,47,medium,minus,dotcolour,beta,,,3,19,V,R,
517,13,13,12,4,36,44,433,['n'],1,right,['0'],6,239,[-0.11200783],89,44,hard,minus,dotcolour,beta,,,3,19,V,R,
518,14,14,12,4,47,33,547,['c'],1,left,['0'],6,153,[0.05328382],47,47,medium,minus,dotcolour,beta,,,3,19,V,R,
519,15,15,12,4,44,36,666,['c'],1,left,['0'],6,154,[0.04261026],36,44,hard,minus,dotcolour,beta,,,3,19,V,R,
520,16,16,12,4,36,44,749,['n'],1,right,['0'],6,207,[-0.0627971],57,44,hard,minus,dotcolour,beta,,,3,19,V,R,
521,17,17,12,4,53,27,599,['c'],1,left,['0'],6,129,[0.07992729],77,53,easy,minus,dotcolour,beta,,,3,19,V,R,
522,18,18,12,4,33,47,549,['n'],1,right,['0'],6,135,[-0.08750944],83,47,medium,minus,dotcolour,beta,,,3,19,V,R,
523,19,19,12,4,47,33,933,['n'],0,left,['0'],6,173,[-0.01890221],17,47,medium,minus,dotcolour,beta,,,3,19,V,R,
524,20,20,12,4,47,33,866,['c'],1,left,['0'],6,156,[0.05756218],52,47,medium,minus,dotcolour,beta,,,3,19,V,R,
525,21,21,12,4,47,33,700,['c'],1,left,['0'],6,139,[0.09192409],85,47,medium,minus,dotcolour,beta,,,3,19,V,R,
526,22,22,12,4,27,53,334,['n'],1,right,['0'],6,241,[-0.06882912],62,53,easy,minus,dotcolour,beta,,,3,19,V,R,
527,23,23,12,4,27,53,383,['n'],1,right,['0'],6,113,[-0.14663353],99,53,easy,minus,dotcolour,beta,,,3,19,V,R,
528,24,24,12,4,44,36,633,['c'],1,left,['0'],6,301,[0.17590865],98,44,hard,minus,dotcolour,beta,,,3,19,V,R,
529,25,25,12,4,53,27,700,['n'],0,left,['0'],6,262,[-0.02655481],27,53,easy,minus,dotcolour,beta,,,3,19,V,R,
530,26,26,12,4,44,36,750,['c'],1,left,['0'],6,119,[0.07881273],77,44,hard,minus,dotcolour,beta,,,3,19,V,R,
531,27,27,12,4,27,53,433,['n'],1,right,['0'],6,186,[-0.07073835],65,53,easy,minus,dotcolour,beta,,,3,19,V,R,
532,28,28,12,4,33,47,550,['n'],1,right,['0'],6,117,[-0.14425515],99,47,medium,minus,dotcolour,beta,,,3,19,V,R,
533,29,29,12,4,53,27,566,['c'],1,left,['0'],6,131,[0.08566101],82,53,easy,minus,dotcolour,beta,,,3,19,V,R,
534,30,30,12,4,44,36,500,['n'],0,left,['0'],6,124,[-0.06389453],60,44,hard,minus,dotcolour,beta,,,3,19,V,R,
535,31,31,12,4,36,44,617,['n'],1,right,['0'],6,151,[0.02294751],3,44,hard,minus,dotcolour,beta,,,3,19,V,R,
536,32,32,12,4,47,33,550,['c'],1,left,['0'],6,140,[0.07524133],72,47,medium,minus,dotcolour,beta,,,3,19,V,R,
537,33,33,12,4,44,36,967,['c'],1,left,['0'],6,89,[0.06956232],70,44,hard,minus,dotcolour,beta,,,3,19,V,R,
538,34,34,12,4,33,47,817,['n'],1,right,['0'],6,159,[-0.12193702],95,47,medium,minus,dotcolour,beta,,,3,19,V,R,
539,35,35,12,4,44,36,717,['c'],1,left,['0'],6,61,[0.08740373],91,44,hard,minus,dotcolour,beta,,,3,19,V,R,
540,36,36,12,4,27,53,566,['n'],1,right,['0'],6,61,[-0.0972952],95,53,easy,minus,dotcolour,beta,,,3,19,V,R,
541,37,37,12,4,47,33,516,['c'],1,left,['0'],6,167,[0.04933725],43,47,medium,minus,dotcolour,beta,,,3,19,V,R,
542,38,38,12,4,33,47,766,['n'],1,right,['0'],6,107,[-0.09637036],90,47,medium,minus,dotcolour,beta,,,3,19,V,R,
543,39,39,12,4,44,36,800,['c'],1,left,['0'],6,175,[0.03711737],31,44,hard,minus,dotcolour,beta,,,3,19,V,R,
544,40,40,12,4,27,53,583,['n'],1,right,['0'],6,186,[-0.1400978],97,53,easy,minus,dotcolour,beta,,,3,19,V,R,
545,41,41,12,4,53,27,650,['c'],1,left,['0'],6,194,[0.08995592],80,53,easy,minus,dotcolour,beta,,,3,19,V,R,
546,42,0,13,4,27,53,1133,['n'],1,right,['0'],6,177,[-0.06896606],64,53,easy,minus,dotcolour,beta,,,3,19,V,R,
547,43,1,13,4,36,44,717,['n'],1,right,['0'],6,150,[-0.11486533],94,44,hard,minus,dotcolour,beta,,,3,19,V,R,
548,44,2,13,4,53,27,500,['c'],1,left,['0'],6,141,[0.0817058],78,53,easy,minus,dotcolour,beta,,,3,19,V,R,
549,45,3,13,4,27,53,433,['n'],1,right,['0'],6,200,[-0.08411096],76,53,easy,minus,dotcolour,beta,,,3,19,V,R,
550,46,4,13,4,53,27,733,['c'],1,left,['0'],6,420,[0.0442706],42,53,easy,minus,dotcolour,beta,,,3,19,V,R,
551,47,5,13,4,53,27,484,['c'],1,left,['0'],6,121,[0.05453042],49,53,easy,minus,dotcolour,beta,,,3,19,V,R,
552,48,6,13,4,33,47,733,['n'],1,right,['0'],6,128,[-0.03170244],23,47,medium,minus,dotcolour,beta,,,3,19,V,R,
553,49,7,13,4,27,53,734,['n'],1,right,['0'],6,135,[-0.12484081],97,53,easy,minus,dotcolour,beta,,,3,19,V,R,
554,50,8,13,4,47,33,533,['c'],1,left,['0'],6,102,[0.03820423],27,47,medium,minus,dotcolour,beta,,,3,19,V,R,
555,51,9,13,4,47,33,532,['c'],1,left,['0'],6,126,[0.07433873],72,47,medium,minus,dotcolour,beta,,,3,19,V,R,
556,52,10,13,4,36,44,649,['n'],1,right,['0'],6,128,[-0.05973511],55,44,hard,minus,dotcolour,beta,,,3,19,V,R,
557,53,11,13,4,33,47,516,['n'],1,right,['0'],6,327,[0.01535371],10,47,medium,minus,dotcolour,beta,,,3,19,V,R,
558,54,12,13,4,36,44,466,['n'],1,right,['0'],6,136,[-0.08250159],79,44,hard,minus,dotcolour,beta,,,3,19,V,R,
559,55,13,13,4,53,27,466,['c'],1,left,['0'],6,122,[0.10151682],91,53,easy,minus,dotcolour,beta,,,3,19,V,R,
560,56,14,13,4,44,36,633,['c'],1,left,['0'],6,125,[0.06030488],56,44,hard,minus,dotcolour,beta,,,3,19,V,R,
561,57,15,13,4,53,27,417,['n'],0,left,['0'],6,360,[-0.06665142],58,53,easy,minus,dotcolour,beta,,,3,19,V,R,
562,58,16,13,4,47,33,617,['c'],1,left,['0'],6,138,[0.13094608],97,47,medium,minus,dotcolour,beta,,,3,19,V,R,
563,59,17,13,4,44,36,483,['c'],1,left,['0'],6,139,[0.13811038],98,44,hard,minus,dotcolour,beta,,,3,19,V,R,
564,60,18,13,4,36,44,615,['c'],0,right,['0'],6,150,[0.080437],76,44,hard,minus,dotcolour,beta,,,3,19,V,R,
565,61,19,13,4,53,27,550,['c'],1,left,['0'],6,164,[0.05350625],48,53,easy,minus,dotcolour,beta,,,3,19,V,R,
566,62,20,13,4,36,44,700,['c'],0,right,['0'],6,242,[0.17509723],99,44,hard,minus,dotcolour,beta,,,3,19,V,R,
567,63,21,13,4,33,47,684,['c'],0,right,['0'],6,190,[0.10530067],89,47,medium,minus,dotcolour,beta,,,3,19,V,R,
568,64,22,13,4,44,36,600,['c'],1,left,['0'],6,128,[0.04733163],40,44,hard,minus,dotcolour,beta,,,3,19,V,R,
569,65,23,13,4,44,36,517,['c'],1,left,['0'],6,168,[0.10920007],91,44,hard,minus,dotcolour,beta,,,3,19,V,R,
570,66,24,13,4,47,33,617,['c'],1,left,['0'],6,161,[0.08347721],78,47,medium,minus,dotcolour,beta,,,3,19,V,R,
571,67,25,13,4,47,33,500,['c'],1,left,['0'],6,272,[0.10993765],87,47,medium,minus,dotcolour,beta,,,3,19,V,R,
572,68,26,13,4,44,36,500,['c'],1,left,['0'],6,179,[0.07746333],72,44,hard,minus,dotcolour,beta,,,3,19,V,R,
573,69,27,13,4,47,33,583,['c'],1,left,['0'],6,174,[0.00822639],11,47,medium,minus,dotcolour,beta,,,3,19,V,R,
574,70,28,13,4,33,47,400,['n'],1,right,['0'],6,216,[-0.09301845],81,47,medium,minus,dotcolour,beta,,,3,19,V,R,
575,71,29,13,4,27,53,383,['n'],1,right,['0'],6,161,[-0.02112985],18,53,easy,minus,dotcolour,beta,,,3,19,V,R,
576,72,30,13,4,33,47,466,['n'],1,right,['0'],6,169,[-0.11639239],93,47,medium,minus,dotcolour,beta,,,3,19,V,R,
577,73,31,13,4,27,53,383,['n'],1,right,['0'],6,172,[-0.14050426],98,53,easy,minus,dotcolour,beta,,,3,19,V,R,
578,74,32,13,4,36,44,383,['n'],1,right,['0'],6,151,[-0.10763953],92,44,hard,minus,dotcolour,beta,,,3,19,V,R,
579,75,33,13,4,47,33,466,['n'],0,left,['1'],1,928,[0.17982253],1,47,medium,minus,dotcolour,beta,,,3,19,V,R,
580,76,34,13,4,53,27,550,['n'],0,left,['0'],6,206,[-0.06142879],56,53,easy,minus,dotcolour,beta,,,3,19,V,R,
581,77,35,13,4,27,53,434,['c'],0,right,['0'],6,229,[0.00900819],15,53,easy,minus,dotcolour,beta,,,3,19,V,R,
582,78,36,13,4,33,47,400,['n'],1,right,['0'],6,197,[-0.06472129],59,47,medium,minus,dotcolour,beta,,,3,19,V,R,
583,79,37,13,4,36,44,534,['n'],1,right,['0'],6,170,[-0.10543389],90,44,hard,minus,dotcolour,beta,,,3,19,V,R,
584,80,38,13,4,44,36,533,['c'],1,left,['0'],6,126,[0.07885442],77,44,hard,minus,dotcolour,beta,,,3,19,V,R,
585,81,39,13,4,33,47,600,['n'],1,right,['0'],6,154,[-0.07453426],70,47,medium,minus,dotcolour,beta,,,3,19,V,R,
586,82,40,13,4,44,36,533,['c'],1,left,['0'],6,136,[0.11621997],95,44,hard,minus,dotcolour,beta,,,3,19,V,R,
587,83,41,13,4,27,53,1617,['n'],1,right,['0'],6,139,[-0.0769464],74,53,easy,minus,dotcolour,beta,,,3,19,V,R,
588,84,0,14,4,36,44,817,['n'],1,right,['0'],6,101,[-0.06159098],58,44,hard,minus,dotcolour,beta,,,3,19,V,R,
589,85,1,14,4,36,44,618,['n'],1,right,['0'],6,121,[-0.08544505],82,44,hard,minus,dotcolour,beta,,,3,19,V,R,
590,86,2,14,4,47,33,583,['c'],1,left,['0'],6,79,[0.10414869],96,47,medium,minus,dotcolour,beta,,,3,19,V,R,
591,87,3,14,4,44,36,733,['n'],0,left,['0'],6,135,[-0.01374677],11,44,hard,minus,dotcolour,beta,,,3,19,V,R,
592,88,4,14,4,27,53,517,['n'],1,right,['0'],6,126,[-0.10693804],93,53,easy,minus,dotcolour,beta,,,3,19,V,R,
593,89,5,14,4,27,53,600,['n'],1,right,['0'],6,115,[-0.10994637],95,53,easy,minus,dotcolour,beta,,,3,19,V,R,
594,90,6,14,4,47,33,651,['c'],1,left,['0'],6,117,[0.04608909],38,47,medium,minus,dotcolour,beta,,,3,19,V,R,
595,91,7,14,4,47,33,633,['c'],1,left,['0'],6,89,[0.0536243],47,47,medium,minus,dotcolour,beta,,,3,19,V,R,
596,92,8,14,4,27,53,684,['n'],1,right,['0'],6,139,[-0.02300322],17,53,easy,minus,dotcolour,beta,,,3,19,V,R,
597,93,9,14,4,33,47,650,['n'],1,right,['0'],6,173,[-0.09111294],82,47,medium,minus,dotcolour,beta,,,3,19,V,R,
598,94,10,14,4,53,27,617,['c'],1,left,['0'],6,143,[0.056705],51,53,easy,minus,dotcolour,beta,,,3,19,V,R,
599,95,11,14,4,53,27,717,['c'],1,left,['0'],6,101,[0.05388028],48,53,easy,minus,dotcolour,beta,,,3,19,V,R,
600,96,12,14,4,36,44,600,['n'],1,right,['0'],6,98,[-0.05630897],51,44,hard,minus,dotcolour,beta,,,3,19,V,R,
601,97,13,14,4,53,27,616,['n'],0,left,['0'],6,159,[-0.11839838],94,53,easy,minus,dotcolour,beta,,,3,19,V,R,
602,98,14,14,4,47,33,1000,['n'],0,left,['0'],6,106,[-0.07631479],76,47,medium,minus,dotcolour,beta,,,3,19,V,R,
603,99,15,14,4,44,36,483,['c'],1,left,['0'],6,108,[0.09347276],89,44,hard,minus,dotcolour,beta,,,3,19,V,R,
604,100,16,14,4,47,33,583,['c'],1,left,['0'],6,113,[0.03724744],27,47,medium,minus,dotcolour,beta,,,3,19,V,R,
605,101,17,14,4,36,44,633,['c'],0,right,['0'],6,141,[0.06381777],60,44,hard,minus,dotcolour,beta,,,3,19,V,R,
606,102,18,14,4,33,47,549,['n'],1,right,['0'],6,146,[-0.12372524],96,47,medium,minus,dotcolour,beta,,,3,19,V,R,
607,103,19,14,4,44,36,666,['c'],1,left,['0'],6,75,[0.11763882],98,44,hard,minus,dotcolour,beta,,,3,19,V,R,
608,104,20,14,4,33,47,1001,['c'],0,right,['0'],6,153,[0.01426803],13,47,medium,minus,dotcolour,beta,,,3,19,V,R,
609,105,21,14,4,44,36,483,['n'],0,left,['0'],6,129,[-0.15013581],99,44,hard,minus,dotcolour,beta,,,3,19,V,R,
610,106,22,14,4,47,33,550,['n'],0,left,['0'],6,95,[-0.0621143],59,47,medium,minus,dotcolour,beta,,,3,19,V,R,
611,107,23,14,4,27,53,517,['c'],0,right,['0'],6,152,[0.04086376],34,53,easy,minus,dotcolour,beta,,,3,19,V,R,
612,108,24,14,4,44,36,934,['n'],0,left,['0'],6,94,[-0.09199047],89,44,hard,minus,dotcolour,beta,,,3,19,V,R,
613,109,25,14,4,44,36,834,['n'],0,left,['0'],6,162,[-0.0884506],81,44,hard,minus,dotcolour,beta,,,3,19,V,R,
614,110,26,14,4,44,36,700,['c'],1,left,['0'],6,136,[0.0969066],88,44,hard,minus,dotcolour,beta,,,3,19,V,R,
615,111,27,14,4,36,44,867,['n'],1,right,['0'],6,658,[-0.12669671],83,44,hard,minus,dotcolour,beta,,,3,19,V,R,
616,112,28,14,4,33,47,850,['n'],1,right,['0'],6,158,[-0.04789037],41,47,medium,minus,dotcolour,beta,,,3,19,V,R,
617,113,29,14,4,36,44,667,['c'],0,right,['0'],6,206,[0.06889842],63,44,hard,minus,dotcolour,beta,,,3,19,V,R,
618,114,30,14,4,53,27,750,['c'],1,left,['0'],6,106,[0.10624456],94,53,easy,minus,dotcolour,beta,,,3,19,V,R,
619,115,31,14,4,33,47,850,['n'],1,right,['0'],6,149,[-0.10608644],91,47,medium,minus,dotcolour,beta,,,3,19,V,R,
620,116,32,14,4,33,47,833,['c'],0,right,['0'],6,135,[0.13094919],98,47,medium,minus,dotcolour,beta,,,3,19,V,R,
621,117,33,14,4,47,33,634,['c'],1,left,['0'],6,177,[0.03596938],30,47,medium,minus,dotcolour,beta,,,3,19,V,R,
622,118,34,14,4,27,53,1634,['n'],1,right,['0'],6,258,[-0.0801544],71,53,easy,minus,dotcolour,beta,,,3,19,V,R,
623,119,35,14,4,53,27,717,['c'],1,left,['0'],6,124,[0.03633851],27,53,easy,minus,dotcolour,beta,,,3,19,V,R,
624,120,36,14,4,33,47,1083,['n'],1,right,['0'],6,118,[-0.08484503],82,47,medium,minus,dotcolour,beta,,,3,19,V,R,
625,121,37,14,4,53,27,717,['c'],1,left,['0'],6,141,[0.14211314],98,53,easy,minus,dotcolour,beta,,,3,19,V,R,
626,122,38,14,4,27,53,567,['c'],0,right,['0'],6,138,[0.00948316],10,53,easy,minus,dotcolour,beta,,,3,19,V,R,
627,123,39,14,4,53,27,517,['n'],0,left,['0'],6,202,[0.00437134],8,53,easy,minus,dotcolour,beta,,,3,19,V,R,
628,124,40,14,4,27,53,583,['n'],1,right,['0'],6,211,[-0.07971303],72,53,easy,minus,dotcolour,beta,,,3,19,V,R,
629,125,41,14,4,36,44,517,['n'],1,right,['0'],6,127,[-0.02613132],18,44,hard,minus,dotcolour,beta,,,3,19,V,R,
630,0,0,15,5,47,33,633,['c'],1,left,['0'],6,115,[0.05630475],100,47,medium,plus,dotcolour,beta,,,3,19,V,R,
631,1,1,15,5,44,36,550,['c'],1,left,['0'],6,97,[-0.00150327],96,44,hard,plus,dotcolour,beta,,,3,19,V,R,
632,2,2,15,5,44,36,618,['c'],1,left,['0'],6,118,[0.11283359],100,44,hard,plus,dotcolour,beta,,,3,19,V,R,
633,3,3,15,5,36,44,700,['n'],1,right,['0'],6,135,[-0.12695893],100,44,hard,plus,dotcolour,beta,,,3,19,V,R,
634,4,4,15,5,53,27,401,['c'],1,left,['0'],6,163,[0.08318896],100,53,easy,plus,dotcolour,beta,,,3,19,V,R,
635,5,5,15,5,36,44,533,['n'],1,right,['0'],6,184,[-0.11839221],100,44,hard,plus,dotcolour,beta,,,3,19,V,R,
636,6,6,15,5,53,27,433,['c'],1,left,['0'],6,129,[0.12928431],100,53,easy,plus,dotcolour,beta,,,3,19,V,R,
637,7,7,15,5,27,53,450,['n'],1,right,['0'],6,219,[-0.07028617],99,53,easy,plus,dotcolour,beta,,,3,19,V,R,
638,8,8,15,5,47,33,516,['n'],0,left,['0'],6,207,[-0.15160241],100,47,medium,plus,dotcolour,beta,,,3,19,V,R,
639,9,9,15,5,36,44,817,['n'],1,right,['0'],6,175,[-0.04269978],99,44,hard,plus,dotcolour,beta,,,3,19,V,R,
640,10,10,15,5,44,36,1033,['c'],1,left,['0'],6,160,[0.10361603],100,44,hard,plus,dotcolour,beta,,,3,19,V,R,
641,11,11,15,5,27,53,500,['n'],1,right,['0'],6,191,[-0.10089787],100,53,easy,plus,dotcolour,beta,,,3,19,V,R,
642,12,12,15,5,44,36,533,['c'],1,left,['0'],6,147,[0.07747834],100,44,hard,plus,dotcolour,beta,,,3,19,V,R,
643,13,13,15,5,44,36,900,['n'],0,left,['0'],6,234,[-0.14617823],100,44,hard,plus,dotcolour,beta,,,3,19,V,R,
644,14,14,15,5,33,47,551,['c'],0,right,['2'],2,796,[-0.1509958],13,47,medium,plus,dotcolour,beta,,,3,19,V,R,
645,15,15,15,5,36,44,634,['n'],1,right,['0'],6,132,[-0.03488797],99,44,hard,plus,dotcolour,beta,,,3,19,V,R,
646,16,16,15,5,33,47,850,['n'],1,right,['0'],6,158,[-0.0913082],100,47,medium,plus,dotcolour,beta,,,3,19,V,R,
647,17,17,15,5,53,27,417,['c'],1,left,['0'],6,160,[0.03289479],98,53,easy,plus,dotcolour,beta,,,3,19,V,R,
648,18,18,15,5,33,47,617,['n'],1,right,['0'],6,170,[-0.09665934],100,47,medium,plus,dotcolour,beta,,,3,19,V,R,
649,19,19,15,5,33,47,817,['n'],1,right,['0'],6,164,[-0.01628439],96,47,medium,plus,dotcolour,beta,,,3,19,V,R,
650,20,20,15,5,47,33,467,['c'],1,left,['0'],6,324,[0.12585895],100,47,medium,plus,dotcolour,beta,,,3,19,V,R,
651,21,21,15,5,36,44,1133,['n'],1,right,['0'],6,179,[-0.14080019],100,44,hard,plus,dotcolour,beta,,,3,19,V,R,
652,22,22,15,5,33,47,417,['c'],0,right,['0'],6,164,[-0.01920559],83,47,medium,plus,dotcolour,beta,,,3,19,V,R,
653,23,23,15,5,27,53,667,['n'],1,right,['0'],6,132,[-0.05484339],100,53,easy,plus,dotcolour,beta,,,3,19,V,R,
654,24,24,15,5,53,27,583,['c'],1,left,['0'],6,113,[0.12465355],100,53,easy,plus,dotcolour,beta,,,3,19,V,R,
655,25,25,15,5,53,27,666,['c'],1,left,['0'],6,130,[0.08276019],100,53,easy,plus,dotcolour,beta,,,3,19,V,R,
656,26,26,15,5,27,53,500,['c'],0,right,['0'],6,186,[0.0224939],96,53,easy,plus,dotcolour,beta,,,3,19,V,R,
657,27,27,15,5,47,33,600,['c'],1,left,['0'],6,124,[0.12265463],100,47,medium,plus,dotcolour,beta,,,3,19,V,R,
658,28,28,15,5,36,44,601,['n'],1,right,['0'],6,209,[-0.05070572],98,44,hard,plus,dotcolour,beta,,,3,19,V,R,
659,29,29,15,5,33,47,633,['n'],1,right,['0'],6,136,[-0.10149134],100,47,medium,plus,dotcolour,beta,,,3,19,V,R,
660,30,30,15,5,44,36,583,['c'],1,left,['0'],6,117,[0.04416624],99,44,hard,plus,dotcolour,beta,,,3,19,V,R,
661,31,31,15,5,33,47,533,['n'],1,right,['0'],6,149,[-0.10512933],100,47,medium,plus,dotcolour,beta,,,3,19,V,R,
662,32,32,15,5,53,27,666,['c'],1,left,['0'],6,101,[0.0267918],99,53,easy,plus,dotcolour,beta,,,3,19,V,R,
663,33,33,15,5,36,44,584,['c'],0,right,['2'],2,963,[0.10946222],95,44,hard,plus,dotcolour,beta,,,3,19,V,R,
664,34,34,15,5,27,53,700,['c'],0,right,['2'],2,665,[0.04878777],91,53,easy,plus,dotcolour,beta,,,3,19,V,R,
665,35,35,15,5,47,33,1416,['c'],1,left,['0'],6,46,[0.07815699],100,47,medium,plus,dotcolour,beta,,,3,19,V,R,
666,36,36,15,5,47,33,733,['c'],1,left,['0'],6,168,[0.14342318],100,47,medium,plus,dotcolour,beta,,,3,19,V,R,
667,37,37,15,5,47,33,667,['c'],1,left,['0'],6,216,[0.12674491],100,47,medium,plus,dotcolour,beta,,,3,19,V,R,
668,38,38,15,5,53,27,634,['n'],0,left,['0'],6,175,[-0.09597671],100,53,easy,plus,dotcolour,beta,,,3,19,V,R,
669,39,39,15,5,27,53,500,['n'],1,right,['0'],6,285,[-0.10310426],100,53,easy,plus,dotcolour,beta,,,3,19,V,R,
670,40,40,15,5,44,36,583,['c'],1,left,['0'],6,132,[0.0908768],100,44,hard,plus,dotcolour,beta,,,3,19,V,R,
671,41,41,15,5,27,53,484,['c'],0,right,['0'],6,132,[0.01837105],97,53,easy,plus,dotcolour,beta,,,3,19,V,R,
672,42,0,16,5,27,53,866,['n'],1,right,['0'],6,110,[-0.081682],100,53,easy,plus,dotcolour,beta,,,3,19,V,R,
673,43,1,16,5,44,36,617,['c'],1,left,['0'],6,122,[0.10076706],100,44,hard,plus,dotcolour,beta,,,3,19,V,R,
674,44,2,16,5,44,36,451,['n'],0,left,['0'],6,173,[-0.10119345],100,44,hard,plus,dotcolour,beta,,,3,19,V,R,
675,45,3,16,5,33,47,484,['n'],1,right,['0'],6,140,[-0.06326431],100,47,medium,plus,dotcolour,beta,,,3,19,V,R,
676,46,4,16,5,47,33,633,['c'],1,left,['0'],6,70,[0.03492138],100,47,medium,plus,dotcolour,beta,,,3,19,V,R,
677,47,5,16,5,44,36,666,['c'],1,left,['0'],6,138,[0.09439127],100,44,hard,plus,dotcolour,beta,,,3,19,V,R,
678,48,6,16,5,36,44,599,['n'],1,right,['0'],6,110,[-0.12907837],100,44,hard,plus,dotcolour,beta,,,3,19,V,R,
679,49,7,16,5,47,33,651,['c'],1,left,['0'],6,113,[0.08375212],100,47,medium,plus,dotcolour,beta,,,3,19,V,R,
680,50,8,16,5,36,44,550,['n'],1,right,['0'],6,120,[-0.10697532],100,44,hard,plus,dotcolour,beta,,,3,19,V,R,
681,51,9,16,5,47,33,651,['c'],1,left,['0'],6,106,[0.04025801],100,47,medium,plus,dotcolour,beta,,,3,19,V,R,
682,52,10,16,5,47,33,867,['c'],1,left,['0'],6,173,[0.01438671],95,47,medium,plus,dotcolour,beta,,,3,19,V,R,
683,53,11,16,5,27,53,533,['n'],1,right,['0'],6,153,[-0.12567687],100,53,easy,plus,dotcolour,beta,,,3,19,V,R,
684,54,12,16,5,47,33,600,['c'],1,left,['0'],6,197,[0.05533919],99,47,medium,plus,dotcolour,beta,,,3,19,V,R,
685,55,13,16,5,27,53,484,['n'],1,right,['0'],6,155,[-0.10570652],100,53,easy,plus,dotcolour,beta,,,3,19,V,R,
686,56,14,16,5,36,44,550,['n'],1,right,['0'],6,144,[-0.13857824],100,44,hard,plus,dotcolour,beta,,,3,19,V,R,
687,57,15,16,5,53,27,716,['c'],1,left,['0'],6,167,[0.06683942],100,53,easy,plus,dotcolour,beta,,,3,19,V,R,
688,58,16,16,5,33,47,617,['n'],1,right,['0'],6,153,[-0.15443206],100,47,medium,plus,dotcolour,beta,,,3,19,V,R,
689,59,17,16,5,53,27,566,['c'],1,left,['0'],6,125,[0.06649274],100,53,easy,plus,dotcolour,beta,,,3,19,V,R,
690,60,18,16,5,33,47,666,['n'],1,right,['0'],6,127,[-0.07220568],100,47,medium,plus,dotcolour,beta,,,3,19,V,R,
691,61,19,16,5,36,44,767,['n'],1,right,['0'],6,116,[-0.10309534],100,44,hard,plus,dotcolour,beta,,,3,19,V,R,
692,62,20,16,5,44,36,683,['c'],1,left,['0'],6,237,[0.12134578],100,44,hard,plus,dotcolour,beta,,,3,19,V,R,
693,63,21,16,5,53,27,750,['n'],0,left,['0'],6,111,[-0.10717397],100,53,easy,plus,dotcolour,beta,,,3,19,V,R,
694,64,22,16,5,36,44,733,['n'],1,right,['0'],6,150,[-0.08532003],100,44,hard,plus,dotcolour,beta,,,3,19,V,R,
695,65,23,16,5,27,53,766,['c'],0,right,['1'],1,747,[-0.00992233],72,53,easy,plus,dotcolour,beta,,,3,19,V,R,
696,66,24,16,5,53,27,1450,['c'],1,left,['0'],6,124,[0.08229725],100,53,easy,plus,dotcolour,beta,,,3,19,V,R,
697,67,25,16,5,27,53,566,['n'],1,right,['0'],6,122,[-0.14146717],100,53,easy,plus,dotcolour,beta,,,3,19,V,R,
698,68,26,16,5,33,47,617,['n'],1,right,['0'],6,158,[-0.05362034],99,47,medium,plus,dotcolour,beta,,,3,19,V,R,
699,69,27,16,5,27,53,533,['n'],1,right,['0'],6,123,[-0.13046087],100,53,easy,plus,dotcolour,beta,,,3,19,V,R,
700,70,28,16,5,36,44,584,['n'],1,right,['0'],6,121,[-0.06171978],100,44,hard,plus,dotcolour,beta,,,3,19,V,R,
701,71,29,16,5,33,47,500,['n'],1,right,['0'],6,209,[-0.08428789],100,47,medium,plus,dotcolour,beta,,,3,19,V,R,
702,72,30,16,5,36,44,617,['n'],1,right,['0'],6,177,[-0.0995576],100,44,hard,plus,dotcolour,beta,,,3,19,V,R,
703,73,31,16,5,47,33,533,['c'],1,left,['0'],6,142,[0.0813087],100,47,medium,plus,dotcolour,beta,,,3,19,V,R,
704,74,32,16,5,53,27,1433,['c'],1,left,['0'],6,192,[0.15180367],100,53,easy,plus,dotcolour,beta,,,3,19,V,R,
705,75,33,16,5,53,27,633,['c'],1,left,['0'],6,176,[0.06387273],99,53,easy,plus,dotcolour,beta,,,3,19,V,R,
706,76,34,16,5,44,36,934,['c'],1,left,['0'],6,133,[0.1724147],100,44,hard,plus,dotcolour,beta,,,3,19,V,R,
707,77,35,16,5,44,36,433,['n'],0,left,['0'],6,151,[-0.09869881],100,44,hard,plus,dotcolour,beta,,,3,19,V,R,
708,78,36,16,5,27,53,483,['n'],1,right,['0'],6,119,[-0.09248778],100,53,easy,plus,dotcolour,beta,,,3,19,V,R,
709,79,37,16,5,33,47,817,['c'],0,right,['0'],6,123,[0.01425571],97,47,medium,plus,dotcolour,beta,,,3,19,V,R,
710,80,38,16,5,33,47,750,['n'],1,right,['0'],6,138,[-0.04918068],99,47,medium,plus,dotcolour,beta,,,3,19,V,R,
711,81,39,16,5,53,27,649,['c'],1,left,['0'],6,244,[0.10116827],100,53,easy,plus,dotcolour,beta,,,3,19,V,R,
712,82,40,16,5,47,33,667,['c'],1,left,['0'],6,168,[0.05177942],99,47,medium,plus,dotcolour,beta,,,3,19,V,R,
713,83,41,16,5,44,36,516,['c'],1,left,['0'],6,126,[0.06336097],100,44,hard,plus,dotcolour,beta,,,3,19,V,R,
714,84,0,17,5,47,33,834,['c'],1,left,['0'],6,128,[0.10568027],100,47,medium,plus,dotcolour,beta,,,3,19,V,R,
715,85,1,17,5,33,47,1066,['n'],1,right,['0'],6,161,[-0.07890442],100,47,medium,plus,dotcolour,beta,,,3,19,V,R,
716,86,2,17,5,44,36,750,['c'],1,left,['0'],6,158,[0.06297667],100,44,hard,plus,dotcolour,beta,,,3,19,V,R,
717,87,3,17,5,47,33,700,['c'],1,left,['0'],6,116,[0.08890535],100,47,medium,plus,dotcolour,beta,,,3,19,V,R,
718,88,4,17,5,47,33,701,['c'],1,left,['0'],6,149,[0.07192865],100,47,medium,plus,dotcolour,beta,,,3,19,V,R,
719,89,5,17,5,44,36,650,['c'],1,left,['0'],6,102,[0.10115219],100,44,hard,plus,dotcolour,beta,,,3,19,V,R,
720,90,6,17,5,44,36,1266,['c'],1,left,['0'],6,193,[0.00968756],94,44,hard,plus,dotcolour,beta,,,3,19,V,R,
721,91,7,17,5,53,27,600,['c'],1,left,['0'],6,162,[0.09398678],100,53,easy,plus,dotcolour,beta,,,3,19,V,R,
722,92,8,17,5,36,44,1050,['n'],1,right,['0'],6,179,[-0.06269999],99,44,hard,plus,dotcolour,beta,,,3,19,V,R,
723,93,9,17,5,33,47,784,['n'],1,right,['0'],6,150,[-0.12715306],100,47,medium,plus,dotcolour,beta,,,3,19,V,R,
724,94,10,17,5,47,33,917,['c'],1,left,['0'],6,156,[0.12328179],100,47,medium,plus,dotcolour,beta,,,3,19,V,R,
725,95,11,17,5,36,44,949,['n'],1,right,['0'],6,170,[-0.11246158],100,44,hard,plus,dotcolour,beta,,,3,19,V,R,
726,96,12,17,5,47,33,650,['c'],1,left,['0'],6,138,[0.07028699],100,47,medium,plus,dotcolour,beta,,,3,19,V,R,
727,97,13,17,5,47,33,816,['c'],1,left,['0'],6,174,[0.1673102],100,47,medium,plus,dotcolour,beta,,,3,19,V,R,
728,98,14,17,5,33,47,566,['n'],1,right,['0'],6,202,[-0.09920158],100,47,medium,plus,dotcolour,beta,,,3,19,V,R,
729,99,15,17,5,53,27,667,['c'],1,left,['0'],6,160,[0.06349947],100,53,easy,plus,dotcolour,beta,,,3,19,V,R,
730,100,16,17,5,33,47,950,['n'],1,right,['0'],6,165,[-0.13832134],100,47,medium,plus,dotcolour,beta,,,3,19,V,R,
731,101,17,17,5,27,53,617,['n'],1,right,['0'],6,159,[-0.05575347],99,53,easy,plus,dotcolour,beta,,,3,19,V,R,
732,102,18,17,5,27,53,583,['n'],1,right,['0'],6,146,[-0.06190633],100,53,easy,plus,dotcolour,beta,,,3,19,V,R,
733,103,19,17,5,53,27,533,['c'],1,left,['0'],6,136,[0.15246276],100,53,easy,plus,dotcolour,beta,,,3,19,V,R,
734,104,20,17,5,27,53,733,['n'],1,right,['0'],6,175,[-0.1358529],100,53,easy,plus,dotcolour,beta,,,3,19,V,R,
735,105,21,17,5,36,44,883,['n'],1,right,['0'],6,205,[-0.17262996],100,44,hard,plus,dotcolour,beta,,,3,19,V,R,
736,106,22,17,5,53,27,466,['c'],1,left,['0'],6,180,[0.05898256],99,53,easy,plus,dotcolour,beta,,,3,19,V,R,
737,107,23,17,5,44,36,582,['c'],1,left,['0'],6,135,[0.08536283],100,44,hard,plus,dotcolour,beta,,,3,19,V,R,
738,108,24,17,5,27,53,501,['n'],1,right,['0'],6,199,[-0.16162714],100,53,easy,plus,dotcolour,beta,,,3,19,V,R,
739,109,25,17,5,27,53,533,['n'],1,right,['0'],6,147,[-0.08296165],100,53,easy,plus,dotcolour,beta,,,3,19,V,R,
740,110,26,17,5,53,27,600,['c'],1,left,['0'],6,126,[0.05604667],100,53,easy,plus,dotcolour,beta,,,3,19,V,R,
741,111,27,17,5,36,44,533,['n'],1,right,['0'],6,165,[-0.10485375],100,44,hard,plus,dotcolour,beta,,,3,19,V,R,
742,112,28,17,5,33,47,816,['n'],1,right,['0'],6,143,[-0.05911978],100,47,medium,plus,dotcolour,beta,,,3,19,V,R,
743,113,29,17,5,33,47,783,['n'],1,right,['0'],6,275,[-0.08455582],99,47,medium,plus,dotcolour,beta,,,3,19,V,R,
744,114,30,17,5,27,53,533,['n'],1,right,['0'],6,187,[-0.14091916],100,53,easy,plus,dotcolour,beta,,,3,19,V,R,
745,115,31,17,5,36,44,417,['n'],1,right,['0'],6,277,[-0.13950763],100,44,hard,plus,dotcolour,beta,,,3,19,V,R,
746,116,32,17,5,53,27,601,['c'],1,left,['0'],6,139,[0.124419],100,53,easy,plus,dotcolour,beta,,,3,19,V,R,
747,117,33,17,5,44,36,866,['n'],0,left,['0'],6,140,[-0.17010506],100,44,hard,plus,dotcolour,beta,,,3,19,V,R,
748,118,34,17,5,27,53,499,['n'],1,right,['0'],6,131,[-0.10744546],100,53,easy,plus,dotcolour,beta,,,3,19,V,R,
749,119,35,17,5,44,36,750,['n'],0,left,['0'],6,89,[-0.08080124],100,44,hard,plus,dotcolour,beta,,,3,19,V,R,
750,120,36,17,5,53,27,599,['c'],1,left,['0'],6,95,[0.07963844],100,53,easy,plus,dotcolour,beta,,,3,19,V,R,
751,121,37,17,5,36,44,566,['c'],0,right,['0'],6,118,[0.07889485],100,44,hard,plus,dotcolour,beta,,,3,19,V,R,
752,122,38,17,5,33,47,499,['n'],1,right,['0'],6,255,[-0.13161116],100,47,medium,plus,dotcolour,beta,,,3,19,V,R,
753,123,39,17,5,47,33,584,['c'],1,left,['0'],6,118,[0.09146285],100,47,medium,plus,dotcolour,beta,,,3,19,V,R,
754,124,40,17,5,36,44,516,['c'],0,right,['0'],6,151,[0.02150181],97,44,hard,plus,dotcolour,beta,,,3,19,V,R,
755,125,41,17,5,44,36,567,['c'],1,left,['0'],6,124,[0.04053489],99,44,hard,plus,dotcolour,beta,,,3,19,V,R,
,,,,,,,,,,,,,,,,,,,,,1,soms leek het echt dat de percentages niet klopten bij de moeilijkheid van het plaatje,3,19,V,R,
,,,,,,,,,,,,,,,,,,,,,2,['g'],3,19,V,R,
,,,,,,,,,,,,,,,,,,,,,3,['d'],3,19,V,R,
,,,,,,,,,,,,,,,,,,,,,5,[],3,19,V,R,
