trial,withinphasetrial,withinblocktrial,block,phase,dotsLeft,dotsRight,rt,resp,cor,cresp,conf_press,cj,RTconf,ev,fb,diff,difflevel,condition,task,manip,questionID,questionResp,sub,age,gender,handedness,
0,0,0,0,0,44,36,1884,['c'],1,left,['2'],5,4041,[0.30869181],91,44,hard,minus,dotcolour,beta,,,49,18,V,R,
1,1,1,0,0,27,53,950,['n'],1,right,['1'],6,2704,[-0.33350744],95,53,easy,minus,dotcolour,beta,,,49,18,V,R,
2,2,2,0,0,47,33,1133,['c'],1,left,['3'],4,1447,[0.24143534],94,47,medium,minus,dotcolour,beta,,,49,18,V,R,
3,3,3,0,0,44,36,883,['c'],1,left,['2'],5,1187,[0.20350661],92,44,hard,minus,dotcolour,beta,,,49,18,V,R,
4,4,4,0,0,33,47,783,['n'],1,right,['2'],5,1397,[-0.28669231],97,47,medium,minus,dotcolour,beta,,,49,18,V,R,
5,5,5,0,0,27,53,783,['n'],1,right,['1'],6,590,[-0.28598641],100,53,easy,minus,dotcolour,beta,,,49,18,V,R,
6,6,6,0,0,33,47,767,['n'],1,right,['1'],6,640,[-0.10392941],75,47,medium,minus,dotcolour,beta,,,49,18,V,R,
7,7,7,0,0,27,53,633,['n'],1,right,['1'],6,399,[-0.10694459],81,53,easy,minus,dotcolour,beta,,,49,18,V,R,
8,8,8,0,0,33,47,666,['n'],1,right,['2'],5,829,[-0.12190148],79,47,medium,minus,dotcolour,beta,,,49,18,V,R,
9,9,9,0,0,36,44,733,['n'],1,right,['2'],5,568,[-0.20173129],97,44,hard,minus,dotcolour,beta,,,49,18,V,R,
10,10,10,0,0,36,44,967,['n'],1,right,['3'],4,668,[-0.16255517],91,44,hard,minus,dotcolour,beta,,,49,18,V,R,
11,11,11,0,0,36,44,800,['n'],1,right,['2'],5,651,[-0.04507757],44,44,hard,minus,dotcolour,beta,,,49,18,V,R,
12,12,12,0,0,33,47,800,['n'],1,right,['2'],5,634,[-0.14110484],87,47,medium,minus,dotcolour,beta,,,49,18,V,R,
13,13,13,0,0,36,44,850,['n'],1,right,['3'],4,544,[-0.15980169],93,44,hard,minus,dotcolour,beta,,,49,18,V,R,
14,14,14,0,0,44,36,767,['c'],1,left,['3'],4,1453,[0.34027257],99,44,hard,minus,dotcolour,beta,,,49,18,V,R,
15,15,15,0,0,53,27,950,['c'],1,left,['2'],5,637,[0.17669083],94,53,easy,minus,dotcolour,beta,,,49,18,V,R,
16,16,16,0,0,36,44,683,['n'],1,right,['2'],5,1145,[0.03910675],17,44,hard,minus,dotcolour,beta,,,49,18,V,R,
17,17,17,0,0,33,47,901,['c'],0,right,['2'],5,1753,[0.10549315],66,47,medium,minus,dotcolour,beta,,,49,18,V,R,
18,18,18,0,0,53,27,733,['c'],1,left,['1'],6,838,[0.11909931],78,53,easy,minus,dotcolour,beta,,,49,18,V,R,
19,19,19,0,0,33,47,817,['n'],1,right,['2'],5,741,[-0.21348891],96,47,medium,minus,dotcolour,beta,,,49,18,V,R,
20,20,20,0,0,44,36,651,['c'],1,left,['2'],5,630,[0.13731319],86,44,hard,minus,dotcolour,beta,,,49,18,V,R,
21,21,21,0,0,53,27,867,['c'],1,left,['1'],6,396,[0.27461003],100,53,easy,minus,dotcolour,beta,,,49,18,V,R,
22,22,22,0,0,36,44,750,['n'],1,right,['2'],5,631,[-0.08350244],65,44,hard,minus,dotcolour,beta,,,49,18,V,R,
23,23,23,0,0,53,27,832,['c'],1,left,['1'],6,878,[0.18307957],92,53,easy,minus,dotcolour,beta,,,49,18,V,R,
24,24,24,0,0,33,47,700,['n'],1,right,['2'],5,472,[-0.10918496],80,47,medium,minus,dotcolour,beta,,,49,18,V,R,
25,25,25,0,0,53,27,851,['c'],1,left,['1'],6,1124,[0.31388322],99,53,easy,minus,dotcolour,beta,,,49,18,V,R,
26,26,26,0,0,27,53,684,['n'],1,right,['1'],6,508,[-0.18197531],96,53,easy,minus,dotcolour,beta,,,49,18,V,R,
27,27,27,0,0,27,53,583,['n'],1,right,['2'],5,442,[-0.21469727],99,53,easy,minus,dotcolour,beta,,,49,18,V,R,
28,28,28,0,0,47,33,1417,['n'],0,left,['3'],4,705,[-0.04133036],42,47,medium,minus,dotcolour,beta,,,49,18,V,R,
29,29,29,0,0,44,36,817,['c'],1,left,['3'],4,1173,[0.12120296],75,44,hard,minus,dotcolour,beta,,,49,18,V,R,
30,30,30,0,0,44,36,918,['n'],0,left,['0'],1,1378,[-0.12932652],76,44,hard,minus,dotcolour,beta,,,49,18,V,R,
31,31,31,0,0,27,53,833,['n'],1,right,['2'],5,2251,[-0.39686233],98,53,easy,minus,dotcolour,beta,,,49,18,V,R,
32,32,32,0,0,47,33,833,['c'],1,left,['1'],6,832,[0.31007435],99,47,medium,minus,dotcolour,beta,,,49,18,V,R,
33,33,33,0,0,47,33,1734,['c'],1,left,['1'],6,603,[0.07829013],63,47,medium,minus,dotcolour,beta,,,49,18,V,R,
34,34,34,0,0,27,53,566,['n'],1,right,['2'],5,853,[-0.35788626],100,53,easy,minus,dotcolour,beta,,,49,18,V,R,
35,35,35,0,0,47,33,583,['c'],1,left,['1'],6,1276,[0.16691042],85,47,medium,minus,dotcolour,beta,,,49,18,V,R,
36,36,36,0,0,36,44,700,['n'],1,right,['8'],3,1494,[0.15881079],4,44,hard,minus,dotcolour,beta,,,49,18,V,R,
37,37,37,0,0,47,33,667,['c'],1,left,['2'],5,377,[0.14013465],92,47,medium,minus,dotcolour,beta,,,49,18,V,R,
38,38,38,0,0,47,33,567,['n'],0,left,['9'],2,1333,[0.27347832],1,47,medium,minus,dotcolour,beta,,,49,18,V,R,
39,39,39,0,0,53,27,734,['c'],1,left,['1'],6,354,[0.06074176],54,53,easy,minus,dotcolour,beta,,,49,18,V,R,
40,40,40,0,0,53,27,634,['c'],1,left,['1'],6,740,[0.07611892],61,53,easy,minus,dotcolour,beta,,,49,18,V,R,
41,41,41,0,0,44,36,701,['n'],0,left,['9'],2,819,[-0.13142811],82,44,hard,minus,dotcolour,beta,,,49,18,V,R,
42,42,0,1,0,36,44,2352,['n'],1,right,['2'],5,637,[-0.06830339],57,44,hard,minus,dotcolour,beta,,,49,18,V,R,
43,43,1,1,0,47,33,1383,['c'],1,left,['1'],6,390,[0.14691757],93,47,medium,minus,dotcolour,beta,,,49,18,V,R,
44,44,2,1,0,27,53,566,['n'],1,right,['2'],5,552,[-0.20438533],97,53,easy,minus,dotcolour,beta,,,49,18,V,R,
45,45,3,1,0,33,47,651,['n'],1,right,['2'],5,441,[-0.21414649],99,47,medium,minus,dotcolour,beta,,,49,18,V,R,
46,46,4,1,0,36,44,1600,['c'],0,right,['1'],6,577,[0.16202235],93,44,hard,minus,dotcolour,beta,,,49,18,V,R,
47,47,5,1,0,27,53,651,['n'],1,right,['1'],6,441,[-0.3801532],100,53,easy,minus,dotcolour,beta,,,49,18,V,R,
48,48,6,1,0,27,53,619,['n'],1,right,['1'],6,503,[-0.18701893],97,53,easy,minus,dotcolour,beta,,,49,18,V,R,
49,49,7,1,0,27,53,533,['n'],1,right,['2'],5,415,[-0.20833775],99,53,easy,minus,dotcolour,beta,,,49,18,V,R,
50,50,8,1,0,47,33,1501,['c'],1,left,['1'],6,587,[0.14992701],90,47,medium,minus,dotcolour,beta,,,49,18,V,R,
51,51,9,1,0,33,47,583,['n'],1,right,['2'],5,406,[-0.05628718],51,47,medium,minus,dotcolour,beta,,,49,18,V,R,
52,52,10,1,0,47,33,983,['c'],1,left,['2'],5,351,[0.04151369],39,47,medium,minus,dotcolour,beta,,,49,18,V,R,
53,53,11,1,0,44,36,1417,['c'],1,left,['2'],5,306,[0.11524532],87,44,hard,minus,dotcolour,beta,,,49,18,V,R,
54,54,12,1,0,33,47,650,['n'],1,right,['2'],5,356,[-0.15674762],95,47,medium,minus,dotcolour,beta,,,49,18,V,R,
55,55,13,1,0,44,36,1017,['c'],1,left,['2'],5,278,[0.02329993],25,44,hard,minus,dotcolour,beta,,,49,18,V,R,
56,56,14,1,0,33,47,783,['n'],1,right,['2'],5,573,[-0.22034343],98,47,medium,minus,dotcolour,beta,,,49,18,V,R,
57,57,15,1,0,44,36,699,['c'],1,left,['1'],6,395,[0.11623307],85,44,hard,minus,dotcolour,beta,,,49,18,V,R,
58,58,16,1,0,33,47,616,['n'],1,right,['1'],6,764,[-0.16984086],91,47,medium,minus,dotcolour,beta,,,49,18,V,R,
59,59,17,1,0,47,33,1350,['c'],1,left,['2'],5,273,[0.11589957],89,47,medium,minus,dotcolour,beta,,,49,18,V,R,
60,60,18,1,0,53,27,1067,['c'],1,left,['1'],6,356,[0.13422341],91,53,easy,minus,dotcolour,beta,,,49,18,V,R,
61,61,19,1,0,36,44,800,['n'],1,right,['9'],2,815,[-0.0375526],41,44,hard,minus,dotcolour,beta,,,49,18,V,R,
62,62,20,1,0,47,33,667,['c'],1,left,['1'],6,389,[0.14984057],94,47,medium,minus,dotcolour,beta,,,49,18,V,R,
63,63,21,1,0,27,53,600,['n'],1,right,['1'],6,406,[-0.18106271],97,53,easy,minus,dotcolour,beta,,,49,18,V,R,
64,64,22,1,0,44,36,1400,['c'],1,left,['2'],5,263,[0.20913333],100,44,hard,minus,dotcolour,beta,,,49,18,V,R,
65,65,23,1,0,44,36,666,['c'],1,left,['1'],6,299,[0.01823673],23,44,hard,minus,dotcolour,beta,,,49,18,V,R,
66,66,24,1,0,53,27,882,['c'],1,left,['1'],6,261,[0.08340015],73,53,easy,minus,dotcolour,beta,,,49,18,V,R,
67,67,25,1,0,36,44,750,['n'],1,right,['2'],5,982,[-0.03365581],40,44,hard,minus,dotcolour,beta,,,49,18,V,R,
68,68,26,1,0,27,53,617,['n'],1,right,['2'],5,359,[-0.07925617],67,53,easy,minus,dotcolour,beta,,,49,18,V,R,
69,69,27,1,0,27,53,667,['n'],1,right,['1'],6,367,[-0.18546891],98,53,easy,minus,dotcolour,beta,,,49,18,V,R,
70,70,28,1,0,53,27,684,['c'],1,left,['1'],6,326,[0.13706621],93,53,easy,minus,dotcolour,beta,,,49,18,V,R,
71,71,29,1,0,47,33,1050,['c'],1,left,['2'],5,584,[-0.07738725],4,47,medium,minus,dotcolour,beta,,,49,18,V,R,
72,72,30,1,0,53,27,683,['n'],0,left,['1'],6,231,[-0.02037962],21,53,easy,minus,dotcolour,beta,,,49,18,V,R,
73,73,31,1,0,44,36,967,['n'],0,left,['2'],5,592,[-0.10289675],75,44,hard,minus,dotcolour,beta,,,49,18,V,R,
74,74,32,1,0,33,47,917,['n'],1,right,['2'],5,389,[-0.01962822],26,47,medium,minus,dotcolour,beta,,,49,18,V,R,
75,75,33,1,0,36,44,917,['c'],0,right,['1'],6,290,[0.03621081],34,44,hard,minus,dotcolour,beta,,,49,18,V,R,
76,76,34,1,0,36,44,650,['n'],1,right,['1'],6,573,[-0.09642994],73,44,hard,minus,dotcolour,beta,,,49,18,V,R,
77,77,35,1,0,44,36,667,['c'],1,left,['1'],6,357,[0.12754295],90,44,hard,minus,dotcolour,beta,,,49,18,V,R,
78,78,36,1,0,53,27,617,['c'],1,left,['1'],6,295,[0.02382985],26,53,easy,minus,dotcolour,beta,,,49,18,V,R,
79,79,37,1,0,47,33,866,['c'],1,left,['1'],6,346,[0.07728284],66,47,medium,minus,dotcolour,beta,,,49,18,V,R,
80,80,38,1,0,53,27,750,['c'],1,left,['2'],5,294,[0.10704783],85,53,easy,minus,dotcolour,beta,,,49,18,V,R,
81,81,39,1,0,33,47,650,['n'],1,right,['2'],5,314,[-0.08952187],75,47,medium,minus,dotcolour,beta,,,49,18,V,R,
82,82,40,1,0,53,27,617,['c'],1,left,['2'],5,294,[0.22344431],100,53,easy,minus,dotcolour,beta,,,49,18,V,R,
83,83,41,1,0,36,44,767,['n'],1,right,['2'],5,357,[-0.05141036],47,44,hard,minus,dotcolour,beta,,,49,18,V,R,
84,84,0,2,0,36,44,1317,['n'],1,right,['2'],5,467,[-0.0786708],65,44,hard,minus,dotcolour,beta,,,49,18,V,R,
85,85,1,2,0,27,53,600,['n'],1,right,['1'],6,395,[-0.0549254],50,53,easy,minus,dotcolour,beta,,,49,18,V,R,
86,86,2,2,0,47,33,650,['n'],0,left,['2'],5,393,[0.09755451],1,47,medium,minus,dotcolour,beta,,,49,18,V,R,
87,87,3,2,0,53,27,450,['c'],1,left,['2'],5,385,[0.1139214],84,53,easy,minus,dotcolour,beta,,,49,18,V,R,
88,88,4,2,0,47,33,500,['c'],1,left,['2'],5,359,[0.21556404],99,47,medium,minus,dotcolour,beta,,,49,18,V,R,
89,89,5,2,0,44,36,683,['n'],0,left,['2'],5,486,[0.04069625],8,44,hard,minus,dotcolour,beta,,,49,18,V,R,
90,90,6,2,0,53,27,550,['n'],0,left,['0'],1,1902,[0.10343911],11,53,easy,minus,dotcolour,beta,,,49,18,V,R,
91,91,7,2,0,36,44,649,['c'],0,right,['2'],5,345,[-0.01562431],10,44,hard,minus,dotcolour,beta,,,49,18,V,R,
92,92,8,2,0,27,53,533,['n'],1,right,['2'],5,319,[-0.15999071],97,53,easy,minus,dotcolour,beta,,,49,18,V,R,
93,93,9,2,0,27,53,733,['n'],1,right,['2'],5,366,[-0.24343596],100,53,easy,minus,dotcolour,beta,,,49,18,V,R,
94,94,10,2,0,27,53,617,['n'],1,right,['1'],6,280,[-0.14163451],95,53,easy,minus,dotcolour,beta,,,49,18,V,R,
95,95,11,2,0,53,27,400,['c'],1,left,['2'],5,278,[0.071482],63,53,easy,minus,dotcolour,beta,,,49,18,V,R,
96,96,12,2,0,33,47,433,['n'],1,right,['2'],5,387,[-0.0403213],39,47,medium,minus,dotcolour,beta,,,49,18,V,R,
97,97,13,2,0,36,44,433,['n'],1,right,['2'],5,932,[-0.10919456],73,44,hard,minus,dotcolour,beta,,,49,18,V,R,
98,98,14,2,0,53,27,434,['c'],1,left,['2'],5,318,[0.05667707],51,53,easy,minus,dotcolour,beta,,,49,18,V,R,
99,99,15,2,0,44,36,550,['c'],1,left,['2'],5,309,[0.04686889],43,44,hard,minus,dotcolour,beta,,,49,18,V,R,
100,100,16,2,0,27,53,433,['n'],1,right,['2'],5,321,[-0.11122351],85,53,easy,minus,dotcolour,beta,,,49,18,V,R,
101,101,17,2,0,36,44,734,['n'],1,right,['2'],5,240,[-0.16617315],98,44,hard,minus,dotcolour,beta,,,49,18,V,R,
102,102,18,2,0,33,47,533,['n'],1,right,['1'],6,474,[-0.1425212],91,47,medium,minus,dotcolour,beta,,,49,18,V,R,
103,103,19,2,0,44,36,484,['n'],0,left,['2'],5,357,[-0.09220039],75,44,hard,minus,dotcolour,beta,,,49,18,V,R,
104,104,20,2,0,47,33,417,['c'],1,left,['2'],5,287,[0.10691825],85,47,medium,minus,dotcolour,beta,,,49,18,V,R,
105,105,21,2,0,44,36,532,['c'],1,left,['2'],5,327,[0.15159713],95,44,hard,minus,dotcolour,beta,,,49,18,V,R,
106,106,22,2,0,27,53,434,['n'],1,right,['1'],6,490,[-0.1149897],82,53,easy,minus,dotcolour,beta,,,49,18,V,R,
107,107,23,2,0,33,47,450,['n'],1,right,['2'],5,277,[-0.17040069],98,47,medium,minus,dotcolour,beta,,,49,18,V,R,
108,108,24,2,0,33,47,617,['n'],1,right,['2'],5,291,[-0.11777701],89,47,medium,minus,dotcolour,beta,,,49,18,V,R,
109,109,25,2,0,47,33,484,['c'],1,left,['1'],6,349,[0.18535675],98,47,medium,minus,dotcolour,beta,,,49,18,V,R,
110,110,26,2,0,53,27,733,['c'],1,left,['1'],6,443,[0.01082705],23,53,easy,minus,dotcolour,beta,,,49,18,V,R,
111,111,27,2,0,36,44,1434,['n'],1,right,['2'],5,169,[-0.06962317],65,44,hard,minus,dotcolour,beta,,,49,18,V,R,
112,112,28,2,0,36,44,817,['n'],1,right,['1'],6,563,[-0.05055323],47,44,hard,minus,dotcolour,beta,,,49,18,V,R,
113,113,29,2,0,53,27,701,['c'],1,left,['1'],6,282,[0.0028203],14,53,easy,minus,dotcolour,beta,,,49,18,V,R,
114,114,30,2,0,44,36,867,['c'],1,left,['1'],6,389,[0.16811814],96,44,hard,minus,dotcolour,beta,,,49,18,V,R,
115,115,31,2,0,47,33,717,['c'],1,left,['1'],6,322,[0.18767917],99,47,medium,minus,dotcolour,beta,,,49,18,V,R,
116,116,32,2,0,47,33,517,['n'],0,left,['1'],6,601,[-0.04013821],41,47,medium,minus,dotcolour,beta,,,49,18,V,R,
117,117,33,2,0,53,27,633,['c'],1,left,['1'],6,305,[0.10561204],84,53,easy,minus,dotcolour,beta,,,49,18,V,R,
118,118,34,2,0,44,36,684,['c'],1,left,['1'],6,306,[0.05797806],52,44,hard,minus,dotcolour,beta,,,49,18,V,R,
119,119,35,2,0,27,53,767,['n'],1,right,['2'],5,617,[-0.12546485],83,53,easy,minus,dotcolour,beta,,,49,18,V,R,
120,120,36,2,0,36,44,2132,['c'],0,right,['2'],5,220,[0.09848686],84,44,hard,minus,dotcolour,beta,,,49,18,V,R,
121,121,37,2,0,47,33,650,['n'],0,left,['1'],6,363,[-0.0998189],79,47,medium,minus,dotcolour,beta,,,49,18,V,R,
122,122,38,2,0,33,47,468,['c'],0,right,['2'],5,299,[-0.00558105],12,47,medium,minus,dotcolour,beta,,,49,18,V,R,
123,123,39,2,0,44,36,534,['n'],0,left,['1'],6,258,[-0.06212562],56,44,hard,minus,dotcolour,beta,,,49,18,V,R,
124,124,40,2,0,33,47,650,['c'],0,right,['9'],2,1048,[0.09872063],68,47,medium,minus,dotcolour,beta,,,49,18,V,R,
125,125,41,2,0,33,47,634,['n'],1,right,['2'],5,358,[-0.07540398],64,47,medium,minus,dotcolour,beta,,,49,18,V,R,
126,0,0,3,1,53,27,1068,['c'],1,left,['2'],5,291,[0.09538637],99,53,easy,plus,dotcolour,beta,,,49,18,V,R,
127,1,1,3,1,36,44,633,['n'],1,right,['2'],5,271,[-0.04885073],97,44,hard,plus,dotcolour,beta,,,49,18,V,R,
128,2,2,3,1,47,33,900,['n'],0,left,['2'],5,330,[-0.02936998],93,47,medium,plus,dotcolour,beta,,,49,18,V,R,
129,3,3,3,1,27,53,635,['n'],1,right,['2'],5,261,[-0.09056428],99,53,easy,plus,dotcolour,beta,,,49,18,V,R,
130,4,4,3,1,27,53,567,['n'],1,right,['1'],6,245,[-0.10658401],100,53,easy,plus,dotcolour,beta,,,49,18,V,R,
131,5,5,3,1,44,36,617,['n'],0,left,['2'],5,291,[0.05641448],49,44,hard,plus,dotcolour,beta,,,49,18,V,R,
132,6,6,3,1,53,27,916,['c'],1,left,['2'],5,252,[0.08878724],99,53,easy,plus,dotcolour,beta,,,49,18,V,R,
133,7,7,3,1,44,36,567,['c'],1,left,['1'],6,380,[0.11603998],99,44,hard,plus,dotcolour,beta,,,49,18,V,R,
134,8,8,3,1,27,53,633,['n'],1,right,['2'],5,262,[-0.08656887],99,53,easy,plus,dotcolour,beta,,,49,18,V,R,
135,9,9,3,1,44,36,1750,['c'],1,left,['2'],5,318,[-0.04477548],59,44,hard,plus,dotcolour,beta,,,49,18,V,R,
136,10,10,3,1,27,53,1000,['n'],1,right,['2'],5,314,[-0.09636314],99,53,easy,plus,dotcolour,beta,,,49,18,V,R,
137,11,11,3,1,33,47,816,['n'],1,right,['2'],5,206,[-0.04378899],98,47,medium,plus,dotcolour,beta,,,49,18,V,R,
138,12,12,3,1,53,27,649,['c'],1,left,['1'],6,229,[0.10048106],100,53,easy,plus,dotcolour,beta,,,49,18,V,R,
139,13,13,3,1,33,47,718,['n'],1,right,['2'],5,280,[-0.12647563],100,47,medium,plus,dotcolour,beta,,,49,18,V,R,
140,14,14,3,1,44,36,1017,['c'],1,left,['1'],6,206,[-0.00031822],90,44,hard,plus,dotcolour,beta,,,49,18,V,R,
141,15,15,3,1,53,27,717,['n'],0,left,['1'],6,346,[-0.07612622],98,53,easy,plus,dotcolour,beta,,,49,18,V,R,
142,16,16,3,1,33,47,750,['n'],1,right,['1'],6,343,[-0.16689499],100,47,medium,plus,dotcolour,beta,,,49,18,V,R,
143,17,17,3,1,33,47,851,['n'],1,right,['2'],5,417,[-0.17103878],100,47,medium,plus,dotcolour,beta,,,49,18,V,R,
144,18,18,3,1,47,33,867,['c'],1,left,['1'],6,223,[0.0950444],100,47,medium,plus,dotcolour,beta,,,49,18,V,R,
145,19,19,3,1,36,44,700,['n'],1,right,['1'],6,323,[-0.07386391],98,44,hard,plus,dotcolour,beta,,,49,18,V,R,
146,20,20,3,1,36,44,800,['n'],1,right,['2'],5,223,[-0.11478518],100,44,hard,plus,dotcolour,beta,,,49,18,V,R,
147,21,21,3,1,33,47,650,['n'],1,right,['1'],6,221,[-0.0858151],100,47,medium,plus,dotcolour,beta,,,49,18,V,R,
148,22,22,3,1,53,27,750,['c'],1,left,['1'],6,200,[0.05024644],99,53,easy,plus,dotcolour,beta,,,49,18,V,R,
149,23,23,3,1,36,44,700,['n'],1,right,['1'],6,205,[-0.09494318],100,44,hard,plus,dotcolour,beta,,,49,18,V,R,
150,24,24,3,1,44,36,783,['c'],1,left,['1'],6,255,[0.17420562],100,44,hard,plus,dotcolour,beta,,,49,18,V,R,
151,25,25,3,1,47,33,633,['c'],1,left,['1'],6,213,[0.04707061],98,47,medium,plus,dotcolour,beta,,,49,18,V,R,
152,26,26,3,1,53,27,666,['c'],1,left,['2'],5,259,[0.1519882],100,53,easy,plus,dotcolour,beta,,,49,18,V,R,
153,27,27,3,1,33,47,650,['n'],1,right,['1'],6,231,[-0.16760964],100,47,medium,plus,dotcolour,beta,,,49,18,V,R,
154,28,28,3,1,27,53,2516,['n'],1,right,['1'],6,267,[-0.18598512],100,53,easy,plus,dotcolour,beta,,,49,18,V,R,
155,29,29,3,1,53,27,650,['c'],1,left,['1'],6,184,[0.09072093],100,53,easy,plus,dotcolour,beta,,,49,18,V,R,
156,30,30,3,1,27,53,500,['n'],1,right,['1'],6,174,[-0.14261204],100,53,easy,plus,dotcolour,beta,,,49,18,V,R,
157,31,31,3,1,47,33,800,['n'],0,left,['2'],5,488,[0.09101004],29,47,medium,plus,dotcolour,beta,,,49,18,V,R,
158,32,32,3,1,36,44,1549,['n'],1,right,['1'],6,192,[-0.17483665],100,44,hard,plus,dotcolour,beta,,,49,18,V,R,
159,33,33,3,1,47,33,517,['c'],1,left,['2'],5,292,[0.109865],100,47,medium,plus,dotcolour,beta,,,49,18,V,R,
160,34,34,3,1,44,36,850,['c'],1,left,['1'],6,319,[0.17532187],100,44,hard,plus,dotcolour,beta,,,49,18,V,R,
161,35,35,3,1,27,53,650,['n'],1,right,['2'],5,602,[-0.04786532],92,53,easy,plus,dotcolour,beta,,,49,18,V,R,
162,36,36,3,1,36,44,716,['n'],1,right,['2'],5,295,[-0.11331204],100,44,hard,plus,dotcolour,beta,,,49,18,V,R,
163,37,37,3,1,36,44,1033,['c'],0,right,['2'],5,187,[0.1151494],100,44,hard,plus,dotcolour,beta,,,49,18,V,R,
164,38,38,3,1,47,33,950,['c'],1,left,['1'],6,935,[0.22477033],99,47,medium,plus,dotcolour,beta,,,49,18,V,R,
165,39,39,3,1,47,33,950,['n'],0,left,['2'],5,292,[-0.00035736],87,47,medium,plus,dotcolour,beta,,,49,18,V,R,
166,40,40,3,1,44,36,1100,['c'],1,left,['2'],5,117,[0.0609282],100,44,hard,plus,dotcolour,beta,,,49,18,V,R,
167,41,41,3,1,33,47,734,['n'],1,right,['1'],6,181,[-0.06480298],99,47,medium,plus,dotcolour,beta,,,49,18,V,R,
168,42,0,4,1,44,36,934,['c'],1,left,['2'],5,215,[-0.00625398],87,44,hard,plus,dotcolour,beta,,,49,18,V,R,
169,43,1,4,1,44,36,766,['c'],1,left,['1'],6,233,[0.06097716],99,44,hard,plus,dotcolour,beta,,,49,18,V,R,
170,44,2,4,1,44,36,617,['c'],1,left,['1'],6,217,[0.05418871],99,44,hard,plus,dotcolour,beta,,,49,18,V,R,
171,45,3,4,1,33,47,650,['n'],1,right,['1'],6,215,[-0.03987214],98,47,medium,plus,dotcolour,beta,,,49,18,V,R,
172,46,4,4,1,36,44,933,['c'],0,right,['2'],5,356,[0.090684],99,44,hard,plus,dotcolour,beta,,,49,18,V,R,
173,47,5,4,1,53,27,568,['c'],1,left,['1'],6,215,[0.12326708],100,53,easy,plus,dotcolour,beta,,,49,18,V,R,
174,48,6,4,1,33,47,884,['n'],1,right,['1'],6,189,[-0.10316669],100,47,medium,plus,dotcolour,beta,,,49,18,V,R,
175,49,7,4,1,27,53,550,['n'],1,right,['1'],6,184,[-0.11914199],100,53,easy,plus,dotcolour,beta,,,49,18,V,R,
176,50,8,4,1,44,36,467,['c'],1,left,['1'],6,343,[0.07363601],98,44,hard,plus,dotcolour,beta,,,49,18,V,R,
177,51,9,4,1,47,33,1067,['n'],0,left,['2'],5,224,[-0.02568189],96,47,medium,plus,dotcolour,beta,,,49,18,V,R,
178,52,10,4,1,44,36,601,['c'],1,left,['1'],6,184,[0.15022534],100,44,hard,plus,dotcolour,beta,,,49,18,V,R,
179,53,11,4,1,47,33,684,['c'],1,left,['1'],6,167,[0.11818488],100,47,medium,plus,dotcolour,beta,,,49,18,V,R,
180,54,12,4,1,47,33,550,['n'],0,left,['2'],5,324,[-0.05752655],97,47,medium,plus,dotcolour,beta,,,49,18,V,R,
181,55,13,4,1,47,33,900,['c'],1,left,['1'],6,252,[0.11798067],100,47,medium,plus,dotcolour,beta,,,49,18,V,R,
182,56,14,4,1,33,47,633,['n'],1,right,['2'],5,186,[-0.10321299],100,47,medium,plus,dotcolour,beta,,,49,18,V,R,
183,57,15,4,1,36,44,717,['n'],1,right,['1'],6,184,[-0.08272535],100,44,hard,plus,dotcolour,beta,,,49,18,V,R,
184,58,16,4,1,44,36,650,['n'],0,left,['2'],5,159,[-0.03269587],98,44,hard,plus,dotcolour,beta,,,49,18,V,R,
185,59,17,4,1,33,47,833,['c'],0,right,['1'],6,185,[0.03600314],98,47,medium,plus,dotcolour,beta,,,49,18,V,R,
186,60,18,4,1,47,33,717,['c'],1,left,['2'],5,166,[0.14724855],100,47,medium,plus,dotcolour,beta,,,49,18,V,R,
187,61,19,4,1,27,53,750,['n'],1,right,['2'],5,211,[-0.07314791],99,53,easy,plus,dotcolour,beta,,,49,18,V,R,
188,62,20,4,1,53,27,683,['c'],1,left,['2'],5,184,[0.12849363],100,53,easy,plus,dotcolour,beta,,,49,18,V,R,
189,63,21,4,1,36,44,617,['n'],1,right,['1'],6,234,[-0.06648884],99,44,hard,plus,dotcolour,beta,,,49,18,V,R,
190,64,22,4,1,27,53,600,['n'],1,right,['1'],6,153,[-0.15423385],100,53,easy,plus,dotcolour,beta,,,49,18,V,R,
191,65,23,4,1,27,53,1116,['n'],1,right,['1'],6,264,[-0.13281718],100,53,easy,plus,dotcolour,beta,,,49,18,V,R,
192,66,24,4,1,27,53,550,['n'],1,right,['1'],6,112,[-0.08271456],100,53,easy,plus,dotcolour,beta,,,49,18,V,R,
193,67,25,4,1,36,44,717,['n'],1,right,['1'],6,112,[-0.09124464],100,44,hard,plus,dotcolour,beta,,,49,18,V,R,
194,68,26,4,1,33,47,667,['n'],1,right,['2'],5,92,[-0.07894518],100,47,medium,plus,dotcolour,beta,,,49,18,V,R,
195,69,27,4,1,47,33,801,['n'],0,left,['1'],6,80,[-0.07583125],100,47,medium,plus,dotcolour,beta,,,49,18,V,R,
196,70,28,4,1,53,27,633,['c'],1,left,['1'],6,157,[0.10709533],100,53,easy,plus,dotcolour,beta,,,49,18,V,R,
197,71,29,4,1,36,44,700,['n'],1,right,['1'],6,100,[-0.03035622],99,44,hard,plus,dotcolour,beta,,,49,18,V,R,
198,72,30,4,1,53,27,850,['c'],1,left,['1'],6,143,[0.09131799],100,53,easy,plus,dotcolour,beta,,,49,18,V,R,
199,73,31,4,1,53,27,900,['c'],1,left,['1'],6,126,[0.10553186],100,53,easy,plus,dotcolour,beta,,,49,18,V,R,
200,74,32,4,1,36,44,750,['c'],0,right,['1'],6,117,[0.0408],99,44,hard,plus,dotcolour,beta,,,49,18,V,R,
201,75,33,4,1,36,44,567,['n'],1,right,['1'],6,122,[-0.10992184],100,44,hard,plus,dotcolour,beta,,,49,18,V,R,
202,76,34,4,1,27,53,1099,['n'],1,right,['1'],6,163,[-0.07149981],100,53,easy,plus,dotcolour,beta,,,49,18,V,R,
203,77,35,4,1,33,47,733,['n'],1,right,['1'],6,136,[-0.01443477],97,47,medium,plus,dotcolour,beta,,,49,18,V,R,
204,78,36,4,1,44,36,816,['c'],1,left,['1'],6,156,[0.04958684],99,44,hard,plus,dotcolour,beta,,,49,18,V,R,
205,79,37,4,1,33,47,733,['n'],1,right,['1'],6,146,[-0.07141445],100,47,medium,plus,dotcolour,beta,,,49,18,V,R,
206,80,38,4,1,53,27,584,['n'],0,left,['1'],6,190,[-0.07500926],100,53,easy,plus,dotcolour,beta,,,49,18,V,R,
207,81,39,4,1,27,53,1417,['n'],1,right,['1'],6,327,[-0.06552549],98,53,easy,plus,dotcolour,beta,,,49,18,V,R,
208,82,40,4,1,47,33,717,['c'],1,left,['1'],6,150,[0.05707697],99,47,medium,plus,dotcolour,beta,,,49,18,V,R,
209,83,41,4,1,53,27,1666,['n'],0,left,['1'],6,110,[-0.06029306],100,53,easy,plus,dotcolour,beta,,,49,18,V,R,
210,84,0,5,1,36,44,801,['n'],1,right,['1'],6,205,[-0.07465498],99,44,hard,plus,dotcolour,beta,,,49,18,V,R,
211,85,1,5,1,53,27,483,['c'],1,left,['1'],6,147,[0.146558],100,53,easy,plus,dotcolour,beta,,,49,18,V,R,
212,86,2,5,1,53,27,484,['c'],1,left,['1'],6,156,[0.06317064],100,53,easy,plus,dotcolour,beta,,,49,18,V,R,
213,87,3,5,1,27,53,717,['n'],1,right,['1'],6,258,[-0.13417827],100,53,easy,plus,dotcolour,beta,,,49,18,V,R,
214,88,4,5,1,53,27,783,['c'],1,left,['1'],6,161,[0.05140143],99,53,easy,plus,dotcolour,beta,,,49,18,V,R,
215,89,5,5,1,36,44,567,['n'],1,right,['1'],6,109,[-0.03622549],99,44,hard,plus,dotcolour,beta,,,49,18,V,R,
216,90,6,5,1,27,53,533,['n'],1,right,['1'],6,324,[-0.16978002],100,53,easy,plus,dotcolour,beta,,,49,18,V,R,
217,91,7,5,1,53,27,600,['c'],1,left,['1'],6,104,[0.08936095],100,53,easy,plus,dotcolour,beta,,,49,18,V,R,
218,92,8,5,1,47,33,666,['c'],1,left,['1'],6,307,[0.01590162],91,47,medium,plus,dotcolour,beta,,,49,18,V,R,
219,93,9,5,1,47,33,750,['n'],0,left,['1'],6,274,[-0.09064613],99,47,medium,plus,dotcolour,beta,,,49,18,V,R,
220,94,10,5,1,27,53,700,['n'],1,right,['1'],6,107,[-0.04818793],100,53,easy,plus,dotcolour,beta,,,49,18,V,R,
221,95,11,5,1,47,33,833,['c'],1,left,['2'],5,375,[0.14616457],100,47,medium,plus,dotcolour,beta,,,49,18,V,R,
222,96,12,5,1,33,47,683,['c'],0,right,['1'],6,158,[0.02391096],97,47,medium,plus,dotcolour,beta,,,49,18,V,R,
223,97,13,5,1,53,27,633,['c'],1,left,['1'],6,167,[0.10028745],100,53,easy,plus,dotcolour,beta,,,49,18,V,R,
224,98,14,5,1,27,53,617,['n'],1,right,['2'],5,545,[-0.23194205],100,53,easy,plus,dotcolour,beta,,,49,18,V,R,
225,99,15,5,1,36,44,650,['n'],1,right,['1'],6,251,[-0.06310407],99,44,hard,plus,dotcolour,beta,,,49,18,V,R,
226,100,16,5,1,33,47,1083,['n'],1,right,['2'],5,199,[-0.07343975],99,47,medium,plus,dotcolour,beta,,,49,18,V,R,
227,101,17,5,1,53,27,851,['c'],1,left,['1'],6,158,[0.12254896],100,53,easy,plus,dotcolour,beta,,,49,18,V,R,
228,102,18,5,1,47,33,1500,['c'],1,left,['1'],6,125,[0.12036324],100,47,medium,plus,dotcolour,beta,,,49,18,V,R,
229,103,19,5,1,44,36,767,['c'],1,left,['1'],6,258,[0.10515221],100,44,hard,plus,dotcolour,beta,,,49,18,V,R,
230,104,20,5,1,27,53,651,['n'],1,right,['2'],5,167,[-0.13134014],100,53,easy,plus,dotcolour,beta,,,49,18,V,R,
231,105,21,5,1,47,33,700,['c'],1,left,['1'],6,125,[0.02231766],98,47,medium,plus,dotcolour,beta,,,49,18,V,R,
232,106,22,5,1,47,33,917,['c'],1,left,['2'],5,309,[0.09430841],99,47,medium,plus,dotcolour,beta,,,49,18,V,R,
233,107,23,5,1,33,47,767,['n'],1,right,['2'],5,1211,[-0.25865259],99,47,medium,plus,dotcolour,beta,,,49,18,V,R,
234,108,24,5,1,36,44,716,['n'],1,right,['1'],6,79,[-0.10192869],100,44,hard,plus,dotcolour,beta,,,49,18,V,R,
235,109,25,5,1,44,36,884,['c'],1,left,['2'],5,57,[0.07084046],100,44,hard,plus,dotcolour,beta,,,49,18,V,R,
236,110,26,5,1,44,36,734,['n'],0,left,['2'],5,82,[-0.07125606],100,44,hard,plus,dotcolour,beta,,,49,18,V,R,
237,111,27,5,1,27,53,1733,['n'],1,right,['2'],5,131,[-0.08377701],100,53,easy,plus,dotcolour,beta,,,49,18,V,R,
238,112,28,5,1,47,33,915,['n'],0,left,['2'],5,235,[-0.01687155],94,47,medium,plus,dotcolour,beta,,,49,18,V,R,
239,113,29,5,1,53,27,950,['c'],1,left,['2'],5,229,[0.02962002],96,53,easy,plus,dotcolour,beta,,,49,18,V,R,
240,114,30,5,1,27,53,617,['n'],1,right,['2'],5,116,[-0.10069175],100,53,easy,plus,dotcolour,beta,,,49,18,V,R,
241,115,31,5,1,33,47,634,['n'],1,right,['2'],5,120,[-0.12892065],100,47,medium,plus,dotcolour,beta,,,49,18,V,R,
242,116,32,5,1,44,36,835,['n'],0,left,['2'],5,355,[-0.11493464],99,44,hard,plus,dotcolour,beta,,,49,18,V,R,
243,117,33,5,1,44,36,2250,['c'],1,left,['2'],5,572,[0.15067671],99,44,hard,plus,dotcolour,beta,,,49,18,V,R,
244,118,34,5,1,44,36,833,['n'],0,left,['2'],5,92,[-0.07779539],100,44,hard,plus,dotcolour,beta,,,49,18,V,R,
245,119,35,5,1,33,47,933,['n'],1,right,['2'],5,124,[-0.01880629],98,47,medium,plus,dotcolour,beta,,,49,18,V,R,
246,120,36,5,1,36,44,751,['n'],1,right,['2'],5,162,[-0.09554525],100,44,hard,plus,dotcolour,beta,,,49,18,V,R,
247,121,37,5,1,33,47,1600,['n'],1,right,['2'],5,165,[-0.11124636],100,47,medium,plus,dotcolour,beta,,,49,18,V,R,
248,122,38,5,1,44,36,2633,['c'],1,left,['2'],5,942,[-0.10352646],29,44,hard,plus,dotcolour,beta,,,49,18,V,R,
249,123,39,5,1,36,44,666,['n'],1,right,['2'],5,127,[-0.07478434],100,44,hard,plus,dotcolour,beta,,,49,18,V,R,
250,124,40,5,1,36,44,1134,['c'],0,right,['2'],5,86,[0.00942557],98,44,hard,plus,dotcolour,beta,,,49,18,V,R,
251,125,41,5,1,33,47,567,['n'],1,right,['2'],5,118,[-0.089305],100,47,medium,plus,dotcolour,beta,,,49,18,V,R,
252,0,0,6,2,47,33,1751,['c'],1,left,['3'],4,248,[0.12852746],93,47,medium,minus,dotcolour,beta,,,49,18,V,R,
253,1,1,6,2,33,47,882,['n'],1,right,['3'],4,125,[-0.10678594],93,47,medium,minus,dotcolour,beta,,,49,18,V,R,
254,2,2,6,2,33,47,716,['c'],0,right,['2'],5,77,[0.01211761],6,47,medium,minus,dotcolour,beta,,,49,18,V,R,
255,3,3,6,2,44,36,1166,['c'],1,left,['2'],5,91,[0.03861588],27,44,hard,minus,dotcolour,beta,,,49,18,V,R,
256,4,4,6,2,27,53,617,['n'],1,right,['2'],5,184,[-0.06585835],61,53,easy,minus,dotcolour,beta,,,49,18,V,R,
257,5,5,6,2,27,53,1683,['n'],1,right,['2'],5,183,[-0.10813577],90,53,easy,minus,dotcolour,beta,,,49,18,V,R,
258,6,6,6,2,47,33,733,['c'],1,left,['2'],5,227,[0.04800387],43,47,medium,minus,dotcolour,beta,,,49,18,V,R,
259,7,7,6,2,53,27,617,['n'],0,left,['2'],5,131,[-0.01502032],12,53,easy,minus,dotcolour,beta,,,49,18,V,R,
260,8,8,6,2,33,47,1450,['n'],1,right,['2'],5,237,[-0.06040614],54,47,medium,minus,dotcolour,beta,,,49,18,V,R,
261,9,9,6,2,53,27,500,['c'],1,left,['1'],6,289,[0.19976755],99,53,easy,minus,dotcolour,beta,,,49,18,V,R,
262,10,10,6,2,36,44,633,['n'],1,right,['2'],5,245,[-0.03398621],31,44,hard,minus,dotcolour,beta,,,49,18,V,R,
263,11,11,6,2,44,36,416,['c'],1,left,['1'],6,268,[0.14980301],96,44,hard,minus,dotcolour,beta,,,49,18,V,R,
264,12,12,6,2,44,36,749,['n'],0,left,['2'],5,269,[-0.05348365],48,44,hard,minus,dotcolour,beta,,,49,18,V,R,
265,13,13,6,2,47,33,700,['c'],1,left,['2'],5,135,[0.14541192],99,47,medium,minus,dotcolour,beta,,,49,18,V,R,
266,14,14,6,2,47,33,1851,['c'],1,left,['2'],5,9,[0.08887873],100,47,medium,minus,dotcolour,beta,,,49,18,V,R,
267,15,15,6,2,53,27,917,['c'],1,left,['2'],5,1405,[0.19171893],89,53,easy,minus,dotcolour,beta,,,49,18,V,R,
268,16,16,6,2,36,44,1133,['n'],1,right,['2'],5,432,[-0.14340243],92,44,hard,minus,dotcolour,beta,,,49,18,V,R,
269,17,17,6,2,33,47,1449,['n'],1,right,['2'],5,135,[-0.05131244],45,47,medium,minus,dotcolour,beta,,,49,18,V,R,
270,18,18,6,2,36,44,866,['n'],1,right,['2'],5,104,[-0.09329456],89,44,hard,minus,dotcolour,beta,,,49,18,V,R,
271,19,19,6,2,47,33,3201,['c'],1,left,['2'],5,205,[0.10071984],86,47,medium,minus,dotcolour,beta,,,49,18,V,R,
272,20,20,6,2,36,44,583,['n'],1,right,['2'],5,207,[-0.14894007],98,44,hard,minus,dotcolour,beta,,,49,18,V,R,
273,21,21,6,2,33,47,818,['n'],1,right,['3'],4,119,[-0.08410861],82,47,medium,minus,dotcolour,beta,,,49,18,V,R,
274,22,22,6,2,36,44,916,['n'],1,right,['2'],5,134,[-0.13321818],98,44,hard,minus,dotcolour,beta,,,49,18,V,R,
275,23,23,6,2,33,47,766,['n'],1,right,['3'],4,164,[-0.05980252],55,47,medium,minus,dotcolour,beta,,,49,18,V,R,
276,24,24,6,2,27,53,800,['n'],1,right,['3'],4,255,[-0.06301405],57,53,easy,minus,dotcolour,beta,,,49,18,V,R,
277,25,25,6,2,53,27,983,['c'],1,left,['3'],4,2551,[0.47113795],99,53,easy,minus,dotcolour,beta,,,49,18,V,R,
278,26,26,6,2,47,33,1267,['n'],0,left,['3'],4,247,[-0.03131486],29,47,medium,minus,dotcolour,beta,,,49,18,V,R,
279,27,27,6,2,36,44,883,['n'],1,right,['3'],4,251,[-0.14948588],97,44,hard,minus,dotcolour,beta,,,49,18,V,R,
280,28,28,6,2,44,36,733,['n'],0,left,['2'],5,150,[-0.03154715],25,44,hard,minus,dotcolour,beta,,,49,18,V,R,
281,29,29,6,2,44,36,1416,['c'],1,left,['2'],5,392,[0.1780239],97,44,hard,minus,dotcolour,beta,,,49,18,V,R,
282,30,30,6,2,53,27,1150,['c'],1,left,['2'],5,107,[0.14540433],99,53,easy,minus,dotcolour,beta,,,49,18,V,R,
283,31,31,6,2,53,27,567,['c'],1,left,['2'],5,169,[0.1567349],99,53,easy,minus,dotcolour,beta,,,49,18,V,R,
284,32,32,6,2,27,53,3350,['n'],1,right,['2'],5,334,[-0.15825644],96,53,easy,minus,dotcolour,beta,,,49,18,V,R,
285,33,33,6,2,27,53,618,['n'],1,right,['2'],5,177,[-0.203462],100,53,easy,minus,dotcolour,beta,,,49,18,V,R,
286,34,34,6,2,44,36,883,['c'],1,left,['1'],6,247,[0.00722171],15,44,hard,minus,dotcolour,beta,,,49,18,V,R,
287,35,35,6,2,47,33,633,['n'],0,left,['2'],5,230,[-0.02299179],23,47,medium,minus,dotcolour,beta,,,49,18,V,R,
288,36,36,6,2,44,36,750,['c'],1,left,['2'],5,128,[0.09163214],86,44,hard,minus,dotcolour,beta,,,49,18,V,R,
289,37,37,6,2,53,27,750,['n'],0,left,['2'],5,126,[-0.04792908],40,53,easy,minus,dotcolour,beta,,,49,18,V,R,
290,38,38,6,2,36,44,866,['c'],0,right,['2'],5,176,[0.05481921],49,44,hard,minus,dotcolour,beta,,,49,18,V,R,
291,39,39,6,2,33,47,933,['n'],1,right,['2'],5,204,[-0.10324684],87,47,medium,minus,dotcolour,beta,,,49,18,V,R,
292,40,40,6,2,27,53,618,['n'],1,right,['1'],6,293,[-0.08653029],74,53,easy,minus,dotcolour,beta,,,49,18,V,R,
293,41,41,6,2,27,53,3150,['n'],1,right,['2'],5,276,[-0.11873273],90,53,easy,minus,dotcolour,beta,,,49,18,V,R,
294,42,0,7,2,47,33,1583,['c'],1,left,['2'],5,114,[0.10745884],94,47,medium,minus,dotcolour,beta,,,49,18,V,R,
295,43,1,7,2,36,44,1400,['n'],1,right,['2'],5,103,[-0.08474447],84,44,hard,minus,dotcolour,beta,,,49,18,V,R,
296,44,2,7,2,27,53,833,['n'],1,right,['2'],5,91,[-0.05564079],50,53,easy,minus,dotcolour,beta,,,49,18,V,R,
297,45,3,7,2,53,27,933,['c'],1,left,['2'],5,27,[0.06907307],81,53,easy,minus,dotcolour,beta,,,49,18,V,R,
298,46,4,7,2,27,53,517,['n'],1,right,['2'],5,134,[-0.0456975],38,53,easy,minus,dotcolour,beta,,,49,18,V,R,
299,47,5,7,2,36,44,750,['n'],1,right,['2'],5,277,[-0.0146407],20,44,hard,minus,dotcolour,beta,,,49,18,V,R,
300,48,6,7,2,36,44,817,['c'],0,right,['2'],5,2,[0.07136962],100,44,hard,minus,dotcolour,beta,,,49,18,V,R,
301,49,7,7,2,47,33,2999,['c'],1,left,['2'],5,315,[0.12430897],90,47,medium,minus,dotcolour,beta,,,49,18,V,R,
302,50,8,7,2,33,47,551,['n'],1,right,['2'],5,106,[-0.03449827],24,47,medium,minus,dotcolour,beta,,,49,18,V,R,
303,51,9,7,2,36,44,634,['n'],1,right,['2'],5,110,[-0.06401555],61,44,hard,minus,dotcolour,beta,,,49,18,V,R,
304,52,10,7,2,47,33,500,['c'],1,left,['2'],5,111,[0.10260837],93,47,medium,minus,dotcolour,beta,,,49,18,V,R,
305,53,11,7,2,27,53,618,['c'],0,right,['0'],1,1499,[-0.0710376],13,53,easy,minus,dotcolour,beta,,,49,18,V,R,
306,54,12,7,2,44,36,566,['n'],0,left,['2'],5,144,[-0.06658421],63,44,hard,minus,dotcolour,beta,,,49,18,V,R,
307,55,13,7,2,44,36,632,['n'],0,left,['2'],5,83,[-0.06831425],69,44,hard,minus,dotcolour,beta,,,49,18,V,R,
308,56,14,7,2,44,36,650,['n'],0,left,['2'],5,86,[-0.09987651],94,44,hard,minus,dotcolour,beta,,,49,18,V,R,
309,57,15,7,2,44,36,684,['n'],0,left,['2'],5,121,[-0.08031564],78,44,hard,minus,dotcolour,beta,,,49,18,V,R,
310,58,16,7,2,47,33,1850,['n'],0,left,['2'],5,132,[-0.08645614],82,47,medium,minus,dotcolour,beta,,,49,18,V,R,
311,59,17,7,2,27,53,1216,['n'],1,right,['2'],5,48,[-0.05644538],52,53,easy,minus,dotcolour,beta,,,49,18,V,R,
312,60,18,7,2,36,44,700,['n'],1,right,['2'],5,83,[-0.08990624],90,44,hard,minus,dotcolour,beta,,,49,18,V,R,
313,61,19,7,2,27,53,501,['n'],1,right,['2'],5,92,[-0.11726675],97,53,easy,minus,dotcolour,beta,,,49,18,V,R,
314,62,20,7,2,33,47,534,['n'],1,right,['2'],5,92,[-0.04526323],35,47,medium,minus,dotcolour,beta,,,49,18,V,R,
315,63,21,7,2,53,27,883,['c'],1,left,['2'],5,190,[0.07992235],73,53,easy,minus,dotcolour,beta,,,49,18,V,R,
316,64,22,7,2,53,27,550,['n'],0,left,['0'],1,1210,[-0.16856405],86,53,easy,minus,dotcolour,beta,,,49,18,V,R,
317,65,23,7,2,27,53,783,['n'],1,right,['2'],5,220,[-0.05489034],49,53,easy,minus,dotcolour,beta,,,49,18,V,R,
318,66,24,7,2,53,27,618,['n'],0,left,['2'],5,179,[-0.09268142],83,53,easy,minus,dotcolour,beta,,,49,18,V,R,
319,67,25,7,2,53,27,2066,['c'],1,left,['2'],5,259,[0.14850692],96,53,easy,minus,dotcolour,beta,,,49,18,V,R,
320,68,26,7,2,33,47,1450,['n'],1,right,['2'],5,376,[-0.15398698],95,47,medium,minus,dotcolour,beta,,,49,18,V,R,
321,69,27,7,2,36,44,1366,['n'],1,right,['2'],5,114,[-0.04305002],34,44,hard,minus,dotcolour,beta,,,49,18,V,R,
322,70,28,7,2,47,33,3200,['c'],1,left,['2'],5,232,[0.12962418],94,47,medium,minus,dotcolour,beta,,,49,18,V,R,
323,71,29,7,2,53,27,1166,['c'],1,left,['2'],5,186,[0.11907947],93,53,easy,minus,dotcolour,beta,,,49,18,V,R,
324,72,30,7,2,33,47,1167,['n'],1,right,['2'],5,389,[-0.12615674],88,47,medium,minus,dotcolour,beta,,,49,18,V,R,
325,73,31,7,2,53,27,717,['n'],0,left,['2'],5,249,[-0.10584996],86,53,easy,minus,dotcolour,beta,,,49,18,V,R,
326,74,32,7,2,33,47,851,['n'],1,right,['2'],5,102,[-0.08618571],85,47,medium,minus,dotcolour,beta,,,49,18,V,R,
327,75,33,7,2,27,53,767,['n'],1,right,['2'],5,301,[-0.16705894],97,53,easy,minus,dotcolour,beta,,,49,18,V,R,
328,76,34,7,2,44,36,3750,['c'],1,left,['2'],5,181,[0.13017146],96,44,hard,minus,dotcolour,beta,,,49,18,V,R,
329,77,35,7,2,44,36,801,['c'],1,left,['2'],5,206,[0.13179484],95,44,hard,minus,dotcolour,beta,,,49,18,V,R,
330,78,36,7,2,33,47,567,['n'],1,right,['2'],5,145,[-0.09669185],87,47,medium,minus,dotcolour,beta,,,49,18,V,R,
331,79,37,7,2,47,33,384,['c'],1,left,['2'],5,109,[0.09767142],91,47,medium,minus,dotcolour,beta,,,49,18,V,R,
332,80,38,7,2,36,44,417,['c'],0,right,['2'],5,121,[0.05863614],54,44,hard,minus,dotcolour,beta,,,49,18,V,R,
333,81,39,7,2,33,47,450,['n'],1,right,['2'],5,92,[-0.09335977],90,47,medium,minus,dotcolour,beta,,,49,18,V,R,
334,82,40,7,2,47,33,399,['n'],0,left,['9'],2,865,[0.14499534],2,47,medium,minus,dotcolour,beta,,,49,18,V,R,
335,83,41,7,2,44,36,1083,['n'],0,left,['9'],2,133,[-0.04320133],35,44,hard,minus,dotcolour,beta,,,49,18,V,R,
336,84,0,8,2,47,33,1034,['c'],1,left,['2'],5,102,[0.07260935],72,47,medium,minus,dotcolour,beta,,,49,18,V,R,
337,85,1,8,2,47,33,533,['c'],1,left,['2'],5,109,[0.03960163],30,47,medium,minus,dotcolour,beta,,,49,18,V,R,
338,86,2,8,2,33,47,533,['n'],1,right,['2'],5,220,[-0.12928197],94,47,medium,minus,dotcolour,beta,,,49,18,V,R,
339,87,3,8,2,44,36,517,['n'],0,left,['2'],5,112,[-0.03929583],29,44,hard,minus,dotcolour,beta,,,49,18,V,R,
340,88,4,8,2,53,27,567,['n'],0,left,['2'],5,190,[0.00091214],9,53,easy,minus,dotcolour,beta,,,49,18,V,R,
341,89,5,8,2,53,27,433,['n'],0,left,['2'],5,142,[-0.11890322],95,53,easy,minus,dotcolour,beta,,,49,18,V,R,
342,90,6,8,2,36,44,517,['c'],0,right,['2'],5,101,[0.03230663],21,44,hard,minus,dotcolour,beta,,,49,18,V,R,
343,91,7,8,2,33,47,717,['n'],1,right,['2'],5,78,[-0.07725123],80,47,medium,minus,dotcolour,beta,,,49,18,V,R,
344,92,8,8,2,36,44,450,['c'],0,right,['2'],5,114,[0.06229214],59,44,hard,minus,dotcolour,beta,,,49,18,V,R,
345,93,9,8,2,44,36,1100,['c'],1,left,['2'],5,154,[0.0329981],26,44,hard,minus,dotcolour,beta,,,49,18,V,R,
346,94,10,8,2,27,53,617,['n'],1,right,['2'],5,165,[-0.01629797],15,53,easy,minus,dotcolour,beta,,,49,18,V,R,
347,95,11,8,2,33,47,1567,['n'],1,right,['2'],5,329,[-0.0443405],41,47,medium,minus,dotcolour,beta,,,49,18,V,R,
348,96,12,8,2,47,33,1532,['c'],1,left,['2'],5,344,[0.12949955],91,47,medium,minus,dotcolour,beta,,,49,18,V,R,
349,97,13,8,2,27,53,617,['n'],1,right,['2'],5,139,[-0.10813967],93,53,easy,minus,dotcolour,beta,,,49,18,V,R,
350,98,14,8,2,47,33,1000,['c'],1,left,['2'],5,103,[0.09653259],91,47,medium,minus,dotcolour,beta,,,49,18,V,R,
351,99,15,8,2,53,27,1084,['c'],1,left,['2'],5,97,[0.08656921],86,53,easy,minus,dotcolour,beta,,,49,18,V,R,
352,100,16,8,2,33,47,616,['n'],1,right,['2'],5,101,[-0.10001962],93,47,medium,minus,dotcolour,beta,,,49,18,V,R,
353,101,17,8,2,44,36,816,['n'],0,left,['2'],5,258,[0.0446062],3,44,hard,minus,dotcolour,beta,,,49,18,V,R,
354,102,18,8,2,44,36,550,['c'],1,left,['2'],5,131,[0.01990218],15,44,hard,minus,dotcolour,beta,,,49,18,V,R,
355,103,19,8,2,53,27,583,['c'],1,left,['2'],5,95,[0.09645466],92,53,easy,minus,dotcolour,beta,,,49,18,V,R,
356,104,20,8,2,27,53,583,['n'],1,right,['2'],5,182,[-0.12623482],95,53,easy,minus,dotcolour,beta,,,49,18,V,R,
357,105,21,8,2,36,44,617,['c'],0,right,['2'],5,111,[0.07089679],70,44,hard,minus,dotcolour,beta,,,49,18,V,R,
358,106,22,8,2,53,27,550,['c'],1,left,['2'],5,101,[0.10964514],96,53,easy,minus,dotcolour,beta,,,49,18,V,R,
359,107,23,8,2,44,36,483,['c'],1,left,['2'],5,88,[0.10907774],96,44,hard,minus,dotcolour,beta,,,49,18,V,R,
360,108,24,8,2,36,44,967,['n'],1,right,['2'],5,143,[-0.07439403],71,44,hard,minus,dotcolour,beta,,,49,18,V,R,
361,109,25,8,2,36,44,901,['c'],0,right,['3'],4,510,[-0.00676276],17,44,hard,minus,dotcolour,beta,,,49,18,V,R,
362,110,26,8,2,53,27,1715,['c'],1,left,['2'],5,62,[0.08844409],92,53,easy,minus,dotcolour,beta,,,49,18,V,R,
363,111,27,8,2,47,33,917,['c'],1,left,['2'],5,88,[0.05167355],44,47,medium,minus,dotcolour,beta,,,49,18,V,R,
364,112,28,8,2,36,44,1734,['n'],1,right,['2'],5,105,[-0.07713296],77,44,hard,minus,dotcolour,beta,,,49,18,V,R,
365,113,29,8,2,44,36,867,['c'],1,left,['2'],5,868,[0.30120053],99,44,hard,minus,dotcolour,beta,,,49,18,V,R,
366,114,30,8,2,44,36,1733,['c'],1,left,['2'],5,844,[0.09172848],67,44,hard,minus,dotcolour,beta,,,49,18,V,R,
367,115,31,8,2,27,53,3450,['n'],1,right,['9'],2,690,[-0.19752641],96,53,easy,minus,dotcolour,beta,,,49,18,V,R,
368,116,32,8,2,36,44,1067,['c'],0,right,['2'],5,101,[0.06998495],69,44,hard,minus,dotcolour,beta,,,49,18,V,R,
369,117,33,8,2,27,53,666,['c'],0,right,['2'],5,55,[0.01538567],4,53,easy,minus,dotcolour,beta,,,49,18,V,R,
370,118,34,8,2,33,47,884,['c'],0,right,['2'],5,68,[0.06694629],69,47,medium,minus,dotcolour,beta,,,49,18,V,R,
371,119,35,8,2,47,33,1783,['c'],1,left,['2'],5,115,[0.10833888],94,47,medium,minus,dotcolour,beta,,,49,18,V,R,
372,120,36,8,2,27,53,1817,['c'],0,right,['2'],5,87,[0.08608211],87,53,easy,minus,dotcolour,beta,,,49,18,V,R,
373,121,37,8,2,27,53,550,['n'],1,right,['2'],5,63,[-0.10215454],97,53,easy,minus,dotcolour,beta,,,49,18,V,R,
374,122,38,8,2,47,33,1300,['c'],1,left,['2'],5,330,[0.1092213],84,47,medium,minus,dotcolour,beta,,,49,18,V,R,
375,123,39,8,2,53,27,983,['n'],0,left,['0'],1,3863,[0.57083765],0,53,easy,minus,dotcolour,beta,,,49,18,V,R,
376,124,40,8,2,33,47,2500,['c'],0,right,['3'],4,112,[0.09196662],88,47,medium,minus,dotcolour,beta,,,49,18,V,R,
377,125,41,8,2,33,47,950,['c'],0,right,['2'],5,54,[0.06983182],75,47,medium,minus,dotcolour,beta,,,49,18,V,R,
378,0,0,9,3,36,44,917,['n'],1,right,['2'],5,307,[-0.15966554],100,44,hard,plus,dotcolour,beta,,,49,18,V,R,
379,1,1,9,3,36,44,833,['c'],0,right,['2'],5,62,[0.02919736],100,44,hard,plus,dotcolour,beta,,,49,18,V,R,
380,2,2,9,3,47,33,633,['c'],1,left,['2'],5,92,[0.10459877],100,47,medium,plus,dotcolour,beta,,,49,18,V,R,
381,3,3,9,3,53,27,683,['n'],0,left,['9'],2,894,[0.23538784],3,53,easy,plus,dotcolour,beta,,,49,18,V,R,
382,4,4,9,3,27,53,600,['n'],1,right,['2'],5,43,[-0.08250238],100,53,easy,plus,dotcolour,beta,,,49,18,V,R,
383,5,5,9,3,27,53,483,['n'],1,right,['2'],5,39,[-0.05493321],100,53,easy,plus,dotcolour,beta,,,49,18,V,R,
384,6,6,9,3,53,27,700,['c'],1,left,['2'],5,91,[0.06017031],100,53,easy,plus,dotcolour,beta,,,49,18,V,R,
385,7,7,9,3,33,47,466,['c'],0,right,['2'],5,63,[0.07747758],100,47,medium,plus,dotcolour,beta,,,49,18,V,R,
386,8,8,9,3,53,27,583,['c'],1,left,['2'],5,54,[0.07104406],100,53,easy,plus,dotcolour,beta,,,49,18,V,R,
387,9,9,9,3,33,47,616,['n'],1,right,['2'],5,92,[-0.0662513],100,47,medium,plus,dotcolour,beta,,,49,18,V,R,
388,10,10,9,3,36,44,901,['n'],1,right,['2'],5,173,[-0.10720059],100,44,hard,plus,dotcolour,beta,,,49,18,V,R,
389,11,11,9,3,33,47,550,['n'],1,right,['2'],5,82,[-0.08114153],100,47,medium,plus,dotcolour,beta,,,49,18,V,R,
390,12,12,9,3,27,53,2333,['n'],1,right,['2'],5,250,[-0.15753833],100,53,easy,plus,dotcolour,beta,,,49,18,V,R,
391,13,13,9,3,47,33,817,['c'],1,left,['2'],5,73,[0.05724938],100,47,medium,plus,dotcolour,beta,,,49,18,V,R,
392,14,14,9,3,47,33,617,['n'],0,left,['2'],5,46,[-0.06526651],100,47,medium,plus,dotcolour,beta,,,49,18,V,R,
393,15,15,9,3,44,36,567,['n'],0,left,['2'],5,103,[-0.05786215],100,44,hard,plus,dotcolour,beta,,,49,18,V,R,
394,16,16,9,3,47,33,850,['c'],1,left,['2'],5,986,[0.23515952],99,47,medium,plus,dotcolour,beta,,,49,18,V,R,
395,17,17,9,3,36,44,1133,['n'],1,right,['2'],5,78,[-0.06781285],100,44,hard,plus,dotcolour,beta,,,49,18,V,R,
396,18,18,9,3,53,27,3767,['n'],0,left,['2'],5,93,[-0.02981561],99,53,easy,plus,dotcolour,beta,,,49,18,V,R,
397,19,19,9,3,33,47,933,['n'],1,right,['2'],5,1198,[-0.18283784],98,47,medium,plus,dotcolour,beta,,,49,18,V,R,
398,20,20,9,3,27,53,2000,['n'],1,right,['2'],5,71,[-0.12823348],100,53,easy,plus,dotcolour,beta,,,49,18,V,R,
399,21,21,9,3,53,27,850,['c'],1,left,['2'],5,100,[0.06846748],100,53,easy,plus,dotcolour,beta,,,49,18,V,R,
400,22,22,9,3,47,33,767,['n'],0,left,['2'],5,106,[-0.02462243],99,47,medium,plus,dotcolour,beta,,,49,18,V,R,
401,23,23,9,3,33,47,634,['n'],1,right,['2'],5,814,[-0.2778408],100,47,medium,plus,dotcolour,beta,,,49,18,V,R,
402,24,24,9,3,44,36,700,['n'],0,left,['2'],5,74,[-0.0603224],100,44,hard,plus,dotcolour,beta,,,49,18,V,R,
403,25,25,9,3,36,44,817,['n'],1,right,['2'],5,104,[-0.08677136],100,44,hard,plus,dotcolour,beta,,,49,18,V,R,
404,26,26,9,3,27,53,666,['n'],1,right,['1'],6,474,[-0.25280162],100,53,easy,plus,dotcolour,beta,,,49,18,V,R,
405,27,27,9,3,33,47,1234,['n'],1,right,['2'],5,95,[-0.04440257],100,47,medium,plus,dotcolour,beta,,,49,18,V,R,
406,28,28,9,3,47,33,566,['n'],0,left,['2'],5,86,[-0.08624629],100,47,medium,plus,dotcolour,beta,,,49,18,V,R,
407,29,29,9,3,36,44,584,['n'],1,right,['2'],5,77,[-0.04684315],100,44,hard,plus,dotcolour,beta,,,49,18,V,R,
408,30,30,9,3,44,36,517,['n'],0,left,['2'],5,142,[-0.09434569],100,44,hard,plus,dotcolour,beta,,,49,18,V,R,
409,31,31,9,3,44,36,716,['n'],0,left,['2'],5,317,[-0.02519218],93,44,hard,plus,dotcolour,beta,,,49,18,V,R,
410,32,32,9,3,53,27,500,['c'],1,left,['2'],5,77,[0.1234262],100,53,easy,plus,dotcolour,beta,,,49,18,V,R,
411,33,33,9,3,27,53,550,['n'],1,right,['2'],5,77,[-0.11961354],100,53,easy,plus,dotcolour,beta,,,49,18,V,R,
412,34,34,9,3,33,47,1166,['c'],0,right,['2'],5,525,[0.11155299],98,47,medium,plus,dotcolour,beta,,,49,18,V,R,
413,35,35,9,3,44,36,517,['n'],0,left,['2'],5,2404,[-0.13556734],90,44,hard,plus,dotcolour,beta,,,49,18,V,R,
414,36,36,9,3,53,27,650,['n'],0,left,['2'],5,27,[-0.0507503],100,53,easy,plus,dotcolour,beta,,,49,18,V,R,
415,37,37,9,3,27,53,750,['n'],1,right,['2'],5,277,[-0.15792392],100,53,easy,plus,dotcolour,beta,,,49,18,V,R,
416,38,38,9,3,44,36,650,['n'],0,left,['2'],5,65,[-0.03990314],100,44,hard,plus,dotcolour,beta,,,49,18,V,R,
417,39,39,9,3,36,44,1283,['c'],0,right,['2'],5,45,[0.09406945],100,44,hard,plus,dotcolour,beta,,,49,18,V,R,
418,40,40,9,3,44,36,716,['n'],0,left,['2'],5,5487,[-0.00612884],62,44,hard,plus,dotcolour,beta,,,49,18,V,R,
419,41,41,9,3,47,33,451,['n'],0,left,['2'],5,49,[-0.09544468],100,47,medium,plus,dotcolour,beta,,,49,18,V,R,
420,42,0,10,3,47,33,585,['n'],0,left,['2'],5,95,[-0.06978024],100,47,medium,plus,dotcolour,beta,,,49,18,V,R,
421,43,1,10,3,27,53,801,['n'],1,right,['2'],5,101,[-0.03297],99,53,easy,plus,dotcolour,beta,,,49,18,V,R,
422,44,2,10,3,33,47,417,['n'],1,right,['2'],5,73,[-0.08673508],100,47,medium,plus,dotcolour,beta,,,49,18,V,R,
423,45,3,10,3,44,36,1017,['c'],1,left,['1'],6,95,[0.06902499],100,44,hard,plus,dotcolour,beta,,,49,18,V,R,
424,46,4,10,3,36,44,516,['n'],1,right,['2'],5,63,[-0.09690163],100,44,hard,plus,dotcolour,beta,,,49,18,V,R,
425,47,5,10,3,44,36,449,['c'],1,left,['2'],5,85,[0.08605569],100,44,hard,plus,dotcolour,beta,,,49,18,V,R,
426,48,6,10,3,53,27,517,['n'],0,left,['9'],2,1045,[0.03441888],59,53,easy,plus,dotcolour,beta,,,49,18,V,R,
427,49,7,10,3,53,27,950,['c'],1,left,['1'],6,295,[0.06769967],98,53,easy,plus,dotcolour,beta,,,49,18,V,R,
428,50,8,10,3,47,33,567,['c'],1,left,['2'],5,110,[0.06285032],100,47,medium,plus,dotcolour,beta,,,49,18,V,R,
429,51,9,10,3,27,53,534,['n'],1,right,['2'],5,45,[-0.08067308],100,53,easy,plus,dotcolour,beta,,,49,18,V,R,
430,52,10,10,3,44,36,1083,['c'],1,left,['8'],3,345,[0.00535062],87,44,hard,plus,dotcolour,beta,,,49,18,V,R,
431,53,11,10,3,33,47,1233,['n'],1,right,['2'],5,443,[-0.2854125],100,47,medium,plus,dotcolour,beta,,,49,18,V,R,
432,54,12,10,3,27,53,817,['n'],1,right,['2'],5,802,[-0.13695842],98,53,easy,plus,dotcolour,beta,,,49,18,V,R,
433,55,13,10,3,33,47,1433,['n'],1,right,['2'],5,537,[-0.17777854],100,47,medium,plus,dotcolour,beta,,,49,18,V,R,
434,56,14,10,3,47,33,1516,['c'],1,left,['2'],5,280,[0.1184639],100,47,medium,plus,dotcolour,beta,,,49,18,V,R,
435,57,15,10,3,44,36,2167,['n'],0,left,['2'],5,79,[-0.08570708],100,44,hard,plus,dotcolour,beta,,,49,18,V,R,
436,58,16,10,3,27,53,568,['n'],1,right,['2'],5,7,[-0.07141631],100,53,easy,plus,dotcolour,beta,,,49,18,V,R,
437,59,17,10,3,27,53,517,['n'],1,right,['2'],5,43,[-0.08609995],100,53,easy,plus,dotcolour,beta,,,49,18,V,R,
438,60,18,10,3,36,44,416,['c'],0,right,['2'],5,490,[0.09737622],98,44,hard,plus,dotcolour,beta,,,49,18,V,R,
439,61,19,10,3,36,44,482,['n'],1,right,['2'],5,60,[-0.04965596],100,44,hard,plus,dotcolour,beta,,,49,18,V,R,
440,62,20,10,3,44,36,817,['c'],1,left,['2'],5,66,[0.09675836],100,44,hard,plus,dotcolour,beta,,,49,18,V,R,
441,63,21,10,3,47,33,651,['c'],1,left,['2'],5,134,[0.08365012],100,47,medium,plus,dotcolour,beta,,,49,18,V,R,
442,64,22,10,3,53,27,617,['c'],1,left,['1'],6,258,[0.23083639],100,53,easy,plus,dotcolour,beta,,,49,18,V,R,
443,65,23,10,3,27,53,800,['n'],1,right,['2'],5,113,[-0.08466646],100,53,easy,plus,dotcolour,beta,,,49,18,V,R,
444,66,24,10,3,44,36,550,['n'],0,left,['2'],5,31,[-0.10143138],100,44,hard,plus,dotcolour,beta,,,49,18,V,R,
445,67,25,10,3,36,44,351,['n'],1,right,['2'],5,138,[-0.00849916],96,44,hard,plus,dotcolour,beta,,,49,18,V,R,
446,68,26,10,3,44,36,651,['c'],1,left,['2'],5,60,[0.0856293],100,44,hard,plus,dotcolour,beta,,,49,18,V,R,
447,69,27,10,3,36,44,1534,['n'],1,right,['2'],5,85,[-0.05464665],100,44,hard,plus,dotcolour,beta,,,49,18,V,R,
448,70,28,10,3,36,44,767,['n'],1,right,['2'],5,1148,[-0.16046704],97,44,hard,plus,dotcolour,beta,,,49,18,V,R,
449,71,29,10,3,33,47,3384,['n'],1,right,['2'],5,2592,[-0.30993742],98,47,medium,plus,dotcolour,beta,,,49,18,V,R,
450,72,30,10,3,33,47,1050,['n'],1,right,['2'],5,111,[-0.10756447],100,47,medium,plus,dotcolour,beta,,,49,18,V,R,
451,73,31,10,3,53,27,1366,['c'],1,left,['2'],5,565,[0.19362115],100,53,easy,plus,dotcolour,beta,,,49,18,V,R,
452,74,32,10,3,47,33,567,['n'],0,left,['2'],5,113,[-0.10324129],100,47,medium,plus,dotcolour,beta,,,49,18,V,R,
453,75,33,10,3,33,47,484,['n'],1,right,['2'],5,122,[-0.07922344],100,47,medium,plus,dotcolour,beta,,,49,18,V,R,
454,76,34,10,3,33,47,617,['c'],0,right,['2'],5,815,[-0.13959371],16,47,medium,plus,dotcolour,beta,,,49,18,V,R,
455,77,35,10,3,36,44,600,['n'],1,right,['2'],5,79,[-0.11190616],100,44,hard,plus,dotcolour,beta,,,49,18,V,R,
456,78,36,10,3,53,27,917,['c'],1,left,['2'],5,536,[0.02349436],87,53,easy,plus,dotcolour,beta,,,49,18,V,R,
457,79,37,10,3,47,33,633,['n'],0,left,['2'],5,195,[-0.0290077],97,47,medium,plus,dotcolour,beta,,,49,18,V,R,
458,80,38,10,3,53,27,517,['c'],1,left,['2'],5,63,[0.07123308],100,53,easy,plus,dotcolour,beta,,,49,18,V,R,
459,81,39,10,3,47,33,817,['c'],1,left,['2'],5,70,[0.09138016],100,47,medium,plus,dotcolour,beta,,,49,18,V,R,
460,82,40,10,3,53,27,567,['c'],1,left,['2'],5,101,[0.1052937],100,53,easy,plus,dotcolour,beta,,,49,18,V,R,
461,83,41,10,3,27,53,4317,['c'],0,right,['2'],5,126,[-0.02157968],85,53,easy,plus,dotcolour,beta,,,49,18,V,R,
462,84,0,11,3,33,47,650,['n'],1,right,['2'],5,96,[-0.06805338],100,47,medium,plus,dotcolour,beta,,,49,18,V,R,
463,85,1,11,3,36,44,1733,['n'],1,right,['2'],5,120,[-0.10559898],100,44,hard,plus,dotcolour,beta,,,49,18,V,R,
464,86,2,11,3,53,27,450,['n'],0,left,['2'],5,90,[-0.03047254],99,53,easy,plus,dotcolour,beta,,,49,18,V,R,
465,87,3,11,3,36,44,467,['n'],1,right,['2'],5,37,[-0.07319492],100,44,hard,plus,dotcolour,beta,,,49,18,V,R,
466,88,4,11,3,33,47,1034,['n'],1,right,['2'],5,92,[-0.06830607],100,47,medium,plus,dotcolour,beta,,,49,18,V,R,
467,89,5,11,3,53,27,466,['n'],0,left,['9'],2,839,[-0.07352473],93,53,easy,plus,dotcolour,beta,,,49,18,V,R,
468,90,6,11,3,33,47,466,['c'],0,right,['2'],5,27,[0.06620848],100,47,medium,plus,dotcolour,beta,,,49,18,V,R,
469,91,7,11,3,27,53,783,['n'],1,right,['2'],5,37,[-0.09314273],100,53,easy,plus,dotcolour,beta,,,49,18,V,R,
470,92,8,11,3,44,36,633,['n'],0,left,['2'],5,91,[-0.06389205],100,44,hard,plus,dotcolour,beta,,,49,18,V,R,
471,93,9,11,3,27,53,716,['n'],1,right,['2'],5,307,[-0.17585943],100,53,easy,plus,dotcolour,beta,,,49,18,V,R,
472,94,10,11,3,33,47,367,['c'],0,right,['2'],5,82,[0.07605063],100,47,medium,plus,dotcolour,beta,,,49,18,V,R,
473,95,11,11,3,47,33,617,['c'],1,left,['2'],5,71,[0.09723153],100,47,medium,plus,dotcolour,beta,,,49,18,V,R,
474,96,12,11,3,53,27,867,['c'],1,left,['2'],5,171,[0.08725717],100,53,easy,plus,dotcolour,beta,,,49,18,V,R,
475,97,13,11,3,53,27,533,['c'],1,left,['2'],5,72,[0.13375822],100,53,easy,plus,dotcolour,beta,,,49,18,V,R,
476,98,14,11,3,27,53,750,['n'],1,right,['2'],5,9,[-0.06845137],100,53,easy,plus,dotcolour,beta,,,49,18,V,R,
477,99,15,11,3,36,44,433,['c'],0,right,['2'],5,33,[0.05171772],100,44,hard,plus,dotcolour,beta,,,49,18,V,R,
478,100,16,11,3,27,53,284,['n'],1,right,['2'],5,93,[-0.10689015],100,53,easy,plus,dotcolour,beta,,,49,18,V,R,
479,101,17,11,3,47,33,416,['n'],0,left,['2'],5,26,[-0.07857816],100,47,medium,plus,dotcolour,beta,,,49,18,V,R,
480,102,18,11,3,33,47,383,['c'],0,right,['2'],5,1322,[-0.12878938],24,47,medium,plus,dotcolour,beta,,,49,18,V,R,
481,103,19,11,3,47,33,550,['n'],0,left,['2'],5,16,[-0.06303608],100,47,medium,plus,dotcolour,beta,,,49,18,V,R,
482,104,20,11,3,27,53,567,['c'],0,right,['2'],5,18,[0.06348044],100,53,easy,plus,dotcolour,beta,,,49,18,V,R,
483,105,21,11,3,53,27,2066,['n'],0,left,['2'],5,233,[-0.01898606],94,53,easy,plus,dotcolour,beta,,,49,18,V,R,
484,106,22,11,3,27,53,533,['c'],0,right,['2'],5,35,[0.07891653],100,53,easy,plus,dotcolour,beta,,,49,18,V,R,
485,107,23,11,3,53,27,551,['c'],1,left,['2'],5,21,[0.08837213],100,53,easy,plus,dotcolour,beta,,,49,18,V,R,
486,108,24,11,3,33,47,500,['n'],1,right,['2'],5,2,[-0.07110376],100,47,medium,plus,dotcolour,beta,,,49,18,V,R,
487,109,25,11,3,36,44,617,['c'],0,right,['2'],5,859,[0.32992973],100,44,hard,plus,dotcolour,beta,,,49,18,V,R,
488,110,26,11,3,44,36,617,['c'],1,left,['2'],5,1,[0.07211922],100,44,hard,plus,dotcolour,beta,,,49,18,V,R,
489,111,27,11,3,27,53,534,['c'],0,right,['2'],5,1533,[-0.28855224],3,53,easy,plus,dotcolour,beta,,,49,18,V,R,
490,112,28,11,3,47,33,1850,['n'],0,left,['2'],5,127,[-0.04259539],99,47,medium,plus,dotcolour,beta,,,49,18,V,R,
491,113,29,11,3,47,33,984,['c'],1,left,['2'],5,227,[0.04943914],98,47,medium,plus,dotcolour,beta,,,49,18,V,R,
492,114,30,11,3,44,36,733,['n'],0,left,['2'],5,621,[-0.0820921],96,44,hard,plus,dotcolour,beta,,,49,18,V,R,
493,115,31,11,3,47,33,1467,['c'],1,left,['2'],5,115,[0.10275122],100,47,medium,plus,dotcolour,beta,,,49,18,V,R,
494,116,32,11,3,33,47,534,['c'],0,right,['2'],5,834,[-0.00486468],73,47,medium,plus,dotcolour,beta,,,49,18,V,R,
495,117,33,11,3,47,33,534,['n'],0,left,['2'],5,109,[-0.05878812],100,47,medium,plus,dotcolour,beta,,,49,18,V,R,
496,118,34,11,3,36,44,434,['n'],1,right,['2'],5,209,[-0.15251625],100,44,hard,plus,dotcolour,beta,,,49,18,V,R,
497,119,35,11,3,44,36,516,['n'],0,left,['2'],5,101,[-0.01382798],98,44,hard,plus,dotcolour,beta,,,49,18,V,R,
498,120,36,11,3,36,44,834,['n'],1,right,['2'],5,456,[-0.08949535],98,44,hard,plus,dotcolour,beta,,,49,18,V,R,
499,121,37,11,3,36,44,8299,['c'],0,right,['2'],5,260,[0.02760488],95,44,hard,plus,dotcolour,beta,,,49,18,V,R,
500,122,38,11,3,44,36,567,['n'],0,left,['2'],5,115,[-0.11757166],100,44,hard,plus,dotcolour,beta,,,49,18,V,R,
501,123,39,11,3,44,36,535,['n'],0,left,['2'],5,154,[0.00453987],91,44,hard,plus,dotcolour,beta,,,49,18,V,R,
502,124,40,11,3,53,27,533,['n'],0,left,['2'],5,97,[-0.07370512],100,53,easy,plus,dotcolour,beta,,,49,18,V,R,
503,125,41,11,3,44,36,449,['n'],0,left,['2'],5,52,[-0.08824681],100,44,hard,plus,dotcolour,beta,,,49,18,V,R,
504,0,0,12,4,47,33,618,['n'],0,left,['2'],5,116,[-0.07042343],69,47,medium,minus,dotcolour,beta,,,49,18,V,R,
505,1,1,12,4,36,44,466,['n'],1,right,['2'],5,30,[-0.08175569],94,44,hard,minus,dotcolour,beta,,,49,18,V,R,
506,2,2,12,4,36,44,417,['n'],1,right,['2'],5,61,[-0.07516694],81,44,hard,minus,dotcolour,beta,,,49,18,V,R,
507,3,3,12,4,47,33,350,['n'],0,left,['2'],5,686,[0.00473993],21,47,medium,minus,dotcolour,beta,,,49,18,V,R,
508,4,4,12,4,33,47,450,['c'],0,right,['2'],5,33,[0.06833914],78,47,medium,minus,dotcolour,beta,,,49,18,V,R,
509,5,5,12,4,44,36,484,['c'],1,left,['2'],5,22,[0.09533799],99,44,hard,minus,dotcolour,beta,,,49,18,V,R,
510,6,6,12,4,44,36,467,['n'],0,left,['2'],5,84,[-0.01971135],10,44,hard,minus,dotcolour,beta,,,49,18,V,R,
511,7,7,12,4,27,53,983,['n'],1,right,['2'],5,59,[-0.0889549],92,53,easy,minus,dotcolour,beta,,,49,18,V,R,
512,8,8,12,4,44,36,683,['c'],1,left,['1'],6,438,[0.15199669],93,44,hard,minus,dotcolour,beta,,,49,18,V,R,
513,9,9,12,4,27,53,316,['n'],1,right,['2'],5,41,[-0.10521083],99,53,easy,minus,dotcolour,beta,,,49,18,V,R,
514,10,10,12,4,47,33,367,['n'],0,left,['2'],5,50,[-0.0580448],55,47,medium,minus,dotcolour,beta,,,49,18,V,R,
515,11,11,12,4,36,44,417,['c'],0,right,['2'],5,88,[0.07007989],71,44,hard,minus,dotcolour,beta,,,49,18,V,R,
516,12,12,12,4,44,36,267,['c'],1,left,['1'],6,84,[0.05160843],44,44,hard,minus,dotcolour,beta,,,49,18,V,R,
517,13,13,12,4,53,27,433,['n'],0,left,['1'],6,392,[-0.0403158],39,53,easy,minus,dotcolour,beta,,,49,18,V,R,
518,14,14,12,4,53,27,817,['c'],1,left,['1'],6,281,[0.11553316],88,53,easy,minus,dotcolour,beta,,,49,18,V,R,
519,15,15,12,4,44,36,534,['c'],1,left,['1'],6,130,[0.00052194],6,44,hard,minus,dotcolour,beta,,,49,18,V,R,
520,16,16,12,4,53,27,600,['c'],1,left,['1'],6,254,[0.18136463],99,53,easy,minus,dotcolour,beta,,,49,18,V,R,
521,17,17,12,4,53,27,316,['n'],0,left,['0'],1,753,[0.15259027],1,53,easy,minus,dotcolour,beta,,,49,18,V,R,
522,18,18,12,4,33,47,384,['c'],0,right,['2'],5,36,[0.05062961],39,47,medium,minus,dotcolour,beta,,,49,18,V,R,
523,19,19,12,4,27,53,633,['n'],1,right,['1'],6,266,[-0.15846567],97,53,easy,minus,dotcolour,beta,,,49,18,V,R,
524,20,20,12,4,53,27,483,['c'],1,left,['2'],5,22,[0.09852369],99,53,easy,minus,dotcolour,beta,,,49,18,V,R,
525,21,21,12,4,33,47,399,['n'],1,right,['1'],6,38,[-0.06176284],64,47,medium,minus,dotcolour,beta,,,49,18,V,R,
526,22,22,12,4,36,44,600,['n'],1,right,['2'],5,47,[-0.06484974],68,44,hard,minus,dotcolour,beta,,,49,18,V,R,
527,23,23,12,4,36,44,650,['n'],1,right,['1'],6,77,[-0.07441029],77,44,hard,minus,dotcolour,beta,,,49,18,V,R,
528,24,24,12,4,27,53,683,['n'],1,right,['1'],6,247,[-0.123403],92,53,easy,minus,dotcolour,beta,,,49,18,V,R,
529,25,25,12,4,47,33,1833,['n'],0,left,['1'],6,293,[0.07399427],1,47,medium,minus,dotcolour,beta,,,49,18,V,R,
530,26,26,12,4,53,27,418,['n'],0,left,['2'],5,121,[-0.0485792],41,53,easy,minus,dotcolour,beta,,,49,18,V,R,
531,27,27,12,4,44,36,567,['n'],0,left,['2'],5,7,[-0.06815743],94,44,hard,minus,dotcolour,beta,,,49,18,V,R,
532,28,28,12,4,47,33,283,['n'],0,left,['1'],6,140,[-0.06589835],62,47,medium,minus,dotcolour,beta,,,49,18,V,R,
533,29,29,12,4,33,47,433,['n'],1,right,['1'],6,159,[-0.07307572],69,47,medium,minus,dotcolour,beta,,,49,18,V,R,
534,30,30,12,4,36,44,89,['n'],1,right,['2'],5,18,[-0.06521904],79,44,hard,minus,dotcolour,beta,,,49,18,V,R,
535,31,31,12,4,47,33,433,['n'],0,left,['1'],6,89,[-0.06658413],66,47,medium,minus,dotcolour,beta,,,49,18,V,R,
536,32,32,12,4,33,47,500,['c'],0,right,['2'],5,779,[-0.08836931],5,47,medium,minus,dotcolour,beta,,,49,18,V,R,
537,33,33,12,4,33,47,866,['n'],1,right,['2'],5,122,[-0.06268129],59,47,medium,minus,dotcolour,beta,,,49,18,V,R,
538,34,34,12,4,36,44,850,['n'],1,right,['3'],4,5157,[-0.71843706],99,44,hard,minus,dotcolour,beta,,,49,18,V,R,
539,35,35,12,4,27,53,383,['n'],1,right,"['2', '1']",5,159,[-0.11964282],95,53,easy,minus,dotcolour,beta,,,49,18,V,R,
540,36,36,12,4,44,36,300,['n'],0,left,['2'],5,214,[-0.04224805],37,44,hard,minus,dotcolour,beta,,,49,18,V,R,
541,37,37,12,4,47,33,3216,['c'],1,left,['1'],6,253,[0.03507724],32,47,medium,minus,dotcolour,beta,,,49,18,V,R,
542,38,38,12,4,27,53,500,['n'],1,right,['2'],5,146,[-0.09791147],88,53,easy,minus,dotcolour,beta,,,49,18,V,R,
543,39,39,12,4,33,47,533,['n'],1,right,['2'],5,119,[-0.06126359],57,47,medium,minus,dotcolour,beta,,,49,18,V,R,
544,40,40,12,4,27,53,599,['n'],1,right,['1'],6,468,[-0.1890816],97,53,easy,minus,dotcolour,beta,,,49,18,V,R,
545,41,41,12,4,53,27,616,['n'],0,left,['1'],6,34,[-0.08605027],95,53,easy,minus,dotcolour,beta,,,49,18,V,R,
546,42,0,13,4,53,27,1051,['c'],1,left,['2'],5,98,[0.09235174],89,53,easy,minus,dotcolour,beta,,,49,18,V,R,
547,43,1,13,4,47,33,482,['c'],1,left,['2'],5,5,[0.0670076],95,47,medium,minus,dotcolour,beta,,,49,18,V,R,
548,44,2,13,4,36,44,900,['c'],0,right,['9'],2,1306,[0.01938063],36,44,hard,minus,dotcolour,beta,,,49,18,V,R,
549,45,3,13,4,33,47,499,['n'],1,right,['2'],5,99,[-0.09446128],90,47,medium,minus,dotcolour,beta,,,49,18,V,R,
550,46,4,13,4,44,36,449,['n'],0,left,['2'],5,111,[-0.06430134],62,44,hard,minus,dotcolour,beta,,,49,18,V,R,
551,47,5,13,4,44,36,500,['c'],1,left,['2'],5,887,[0.24412753],97,44,hard,minus,dotcolour,beta,,,49,18,V,R,
552,48,6,13,4,33,47,883,['n'],1,right,['2'],5,168,[-0.10785567],91,47,medium,minus,dotcolour,beta,,,49,18,V,R,
553,49,7,13,4,47,33,667,['n'],0,left,['2'],5,905,[0.13327806],3,47,medium,minus,dotcolour,beta,,,49,18,V,R,
554,50,8,13,4,47,33,799,['c'],1,left,['2'],5,78,[0.0633685],62,47,medium,minus,dotcolour,beta,,,49,18,V,R,
555,51,9,13,4,36,44,567,['n'],1,right,['2'],5,61,[-0.09037008],93,44,hard,minus,dotcolour,beta,,,49,18,V,R,
556,52,10,13,4,33,47,466,['c'],0,right,['2'],5,81,[0.11112446],97,47,medium,minus,dotcolour,beta,,,49,18,V,R,
557,53,11,13,4,27,53,284,['n'],1,right,['2'],5,300,[-0.08172929],70,53,easy,minus,dotcolour,beta,,,49,18,V,R,
558,54,12,13,4,36,44,483,['n'],1,right,['2'],5,78,[-0.04878287],39,44,hard,minus,dotcolour,beta,,,49,18,V,R,
559,55,13,13,4,33,47,916,['n'],1,right,['2'],5,39,[-0.05488045],48,47,medium,minus,dotcolour,beta,,,49,18,V,R,
560,56,14,13,4,36,44,834,['n'],1,right,['2'],5,621,[-0.03596694],39,44,hard,minus,dotcolour,beta,,,49,18,V,R,
561,57,15,13,4,33,47,900,['n'],1,right,['2'],5,65,[-0.06564352],67,47,medium,minus,dotcolour,beta,,,49,18,V,R,
562,58,16,13,4,53,27,268,['n'],0,left,['2'],5,54,[-0.05233858],44,53,easy,minus,dotcolour,beta,,,49,18,V,R,
563,59,17,13,4,44,36,417,['c'],1,left,['2'],5,20,[0.06848121],84,44,hard,minus,dotcolour,beta,,,49,18,V,R,
564,60,18,13,4,27,53,450,['c'],0,right,['2'],5,75,[0.02623023],13,53,easy,minus,dotcolour,beta,,,49,18,V,R,
565,61,19,13,4,44,36,467,['n'],0,left,['2'],5,55,[-0.07568646],82,44,hard,minus,dotcolour,beta,,,49,18,V,R,
566,62,20,13,4,27,53,566,['c'],0,right,['2'],5,87,[0.0246659],13,53,easy,minus,dotcolour,beta,,,49,18,V,R,
567,63,21,13,4,27,53,1484,['n'],1,right,['2'],5,210,[-0.04315949],38,53,easy,minus,dotcolour,beta,,,49,18,V,R,
568,64,22,13,4,47,33,500,['c'],1,left,['2'],5,38,[0.06473354],70,47,medium,minus,dotcolour,beta,,,49,18,V,R,
569,65,23,13,4,53,27,517,['n'],0,left,['0'],1,1962,[0.19997043],4,53,easy,minus,dotcolour,beta,,,49,18,V,R,
570,66,24,13,4,47,33,1066,['n'],0,left,['2'],5,2737,[0.02281052],30,47,medium,minus,dotcolour,beta,,,49,18,V,R,
571,67,25,13,4,36,44,1599,['c'],0,right,['2'],5,52,[0.10862386],99,44,hard,minus,dotcolour,beta,,,49,18,V,R,
572,68,26,13,4,53,27,468,['c'],1,left,['2'],5,1153,[0.19828025],92,53,easy,minus,dotcolour,beta,,,49,18,V,R,
573,69,27,13,4,27,53,383,['c'],0,right,['2'],5,44,[0.05603807],51,53,easy,minus,dotcolour,beta,,,49,18,V,R,
574,70,28,13,4,44,36,834,['c'],1,left,['2'],5,898,[0.14875492],85,44,hard,minus,dotcolour,beta,,,49,18,V,R,
575,71,29,13,4,27,53,651,['n'],1,right,['2'],5,397,[-0.12971972],89,53,easy,minus,dotcolour,beta,,,49,18,V,R,
576,72,30,13,4,44,36,750,['n'],0,left,['2'],5,121,[0.03221183],1,44,hard,minus,dotcolour,beta,,,49,18,V,R,
577,73,31,13,4,27,53,450,['n'],1,right,['2'],5,44,[-0.0754627],85,53,easy,minus,dotcolour,beta,,,49,18,V,R,
578,74,32,13,4,53,27,534,['n'],0,left,['2'],5,126,[-0.01913589],14,53,easy,minus,dotcolour,beta,,,49,18,V,R,
579,75,33,13,4,36,44,466,['c'],0,right,['2'],5,63,[0.05983119],58,44,hard,minus,dotcolour,beta,,,49,18,V,R,
580,76,34,13,4,33,47,267,['c'],0,right,['2'],5,19,[0.07123436],89,47,medium,minus,dotcolour,beta,,,49,18,V,R,
581,77,35,13,4,47,33,566,['c'],1,left,['2'],5,69,[0.09940825],95,47,medium,minus,dotcolour,beta,,,49,18,V,R,
582,78,36,13,4,44,36,3267,['c'],1,left,['2'],5,929,[0.28568187],99,44,hard,minus,dotcolour,beta,,,49,18,V,R,
583,79,37,13,4,47,33,550,['n'],0,left,['2'],5,111,[-0.03507313],25,47,medium,minus,dotcolour,beta,,,49,18,V,R,
584,80,38,13,4,53,27,500,['n'],0,left,['2'],5,80,[-0.06448616],64,53,easy,minus,dotcolour,beta,,,49,18,V,R,
585,81,39,13,4,33,47,584,['n'],1,right,['2'],5,1702,[-0.38346185],99,47,medium,minus,dotcolour,beta,,,49,18,V,R,
586,82,40,13,4,36,44,3000,['n'],1,right,['2'],5,131,[0.02307994],2,44,hard,minus,dotcolour,beta,,,49,18,V,R,
587,83,41,13,4,53,27,767,['c'],1,left,['2'],5,48,[0.06954393],76,53,easy,minus,dotcolour,beta,,,49,18,V,R,
588,84,0,14,4,27,53,601,['n'],1,right,['2'],5,101,[-0.04479687],35,53,easy,minus,dotcolour,beta,,,49,18,V,R,
589,85,1,14,4,33,47,533,['c'],0,right,['2'],5,85,[0.05681568],52,47,medium,minus,dotcolour,beta,,,49,18,V,R,
590,86,2,14,4,33,47,117,['n'],1,right,['2'],5,84,[-0.04056639],28,47,medium,minus,dotcolour,beta,,,49,18,V,R,
591,87,3,14,4,47,33,517,['c'],1,left,['2'],5,69,[0.08290722],87,47,medium,minus,dotcolour,beta,,,49,18,V,R,
592,88,4,14,4,53,27,283,['n'],0,left,['2'],5,64,[-0.05922647],56,53,easy,minus,dotcolour,beta,,,49,18,V,R,
593,89,5,14,4,53,27,300,['n'],0,left,['2'],5,91,[-0.05403982],48,53,easy,minus,dotcolour,beta,,,49,18,V,R,
594,90,6,14,4,36,44,434,['c'],0,right,['2'],5,791,[-0.00268088],24,44,hard,minus,dotcolour,beta,,,49,18,V,R,
595,91,7,14,4,53,27,1366,['n'],0,left,['2'],5,2306,[0.20297366],4,53,easy,minus,dotcolour,beta,,,49,18,V,R,
596,92,8,14,4,44,36,784,['c'],1,left,['2'],5,943,[0.29916232],99,44,hard,minus,dotcolour,beta,,,49,18,V,R,
597,93,9,14,4,53,27,517,['c'],1,left,['2'],5,37,[0.07100571],81,53,easy,minus,dotcolour,beta,,,49,18,V,R,
598,94,10,14,4,27,53,1017,['c'],0,right,['2'],5,13,[0.07623442],96,53,easy,minus,dotcolour,beta,,,49,18,V,R,
599,95,11,14,4,44,36,667,['c'],1,left,['2'],5,779,[0.27228685],99,44,hard,minus,dotcolour,beta,,,49,18,V,R,
600,96,12,14,4,47,33,467,['c'],1,left,['2'],5,42,[0.0695578],77,47,medium,minus,dotcolour,beta,,,49,18,V,R,
601,97,13,14,4,33,47,468,['n'],1,right,['2'],5,87,[-0.0595958],56,47,medium,minus,dotcolour,beta,,,49,18,V,R,
602,98,14,14,4,33,47,533,['n'],1,right,['2'],5,23,[-0.11320876],100,47,medium,minus,dotcolour,beta,,,49,18,V,R,
603,99,15,14,4,47,33,784,['c'],1,left,['2'],5,57,[0.10552285],98,47,medium,minus,dotcolour,beta,,,49,18,V,R,
604,100,16,14,4,33,47,333,['n'],1,right,['2'],5,123,[-0.0538579],48,47,medium,minus,dotcolour,beta,,,49,18,V,R,
605,101,17,14,4,44,36,113,['n'],0,left,['2'],5,8,[-0.04951245],23,44,hard,minus,dotcolour,beta,,,49,18,V,R,
606,102,18,14,4,36,44,249,['n'],1,right,['2'],5,166,[-0.03014876],25,44,hard,minus,dotcolour,beta,,,49,18,V,R,
607,103,19,14,4,36,44,1117,['n'],1,right,['1'],6,92,[-0.06101415],58,44,hard,minus,dotcolour,beta,,,49,18,V,R,
608,104,20,14,4,36,44,651,['n'],1,right,['2'],5,159,[-0.05127703],45,44,hard,minus,dotcolour,beta,,,49,18,V,R,
609,105,21,14,4,36,44,884,['c'],0,right,['2'],5,8,[0.09052993],100,44,hard,minus,dotcolour,beta,,,49,18,V,R,
610,106,22,14,4,36,44,550,['c'],0,right,['2'],5,26,[0.07762986],92,44,hard,minus,dotcolour,beta,,,49,18,V,R,
611,107,23,14,4,33,47,932,['c'],0,right,['2'],5,12,[0.05694582],56,47,medium,minus,dotcolour,beta,,,49,18,V,R,
612,108,24,14,4,44,36,1168,['n'],0,left,['2'],5,190,[-0.07548606],69,44,hard,minus,dotcolour,beta,,,49,18,V,R,
613,109,25,14,4,47,33,733,['c'],1,left,['2'],5,723,[0.08678514],66,47,medium,minus,dotcolour,beta,,,49,18,V,R,
614,110,26,14,4,36,44,249,['n'],1,right,['2'],5,180,[-0.04846795],43,44,hard,minus,dotcolour,beta,,,49,18,V,R,
615,111,27,14,4,47,33,567,['c'],1,left,['2'],5,24,[0.08683068],97,47,medium,minus,dotcolour,beta,,,49,18,V,R,
616,112,28,14,4,53,27,500,['n'],0,left,['2'],5,93,[-0.03625059],24,53,easy,minus,dotcolour,beta,,,49,18,V,R,
617,113,29,14,4,27,53,449,['n'],1,right,['2'],5,56,[-0.07643789],83,53,easy,minus,dotcolour,beta,,,49,18,V,R,
618,114,30,14,4,47,33,817,['c'],1,left,['2'],5,1702,[0.08241539],59,47,medium,minus,dotcolour,beta,,,49,18,V,R,
619,115,31,14,4,33,47,551,['n'],1,right,['2'],5,109,[-0.08059804],80,47,medium,minus,dotcolour,beta,,,49,18,V,R,
620,116,32,14,4,27,53,300,['c'],0,right,['9'],2,1758,[-0.03667632],22,53,easy,minus,dotcolour,beta,,,49,18,V,R,
621,117,33,14,4,44,36,1101,['c'],1,left,['2'],5,685,[0.1207202],80,44,hard,minus,dotcolour,beta,,,49,18,V,R,
622,118,34,14,4,53,27,768,['c'],1,left,['2'],5,44,[0.13272884],100,53,easy,minus,dotcolour,beta,,,49,18,V,R,
623,119,35,14,4,53,27,933,['n'],0,left,['2'],5,134,[-0.07619033],73,53,easy,minus,dotcolour,beta,,,49,18,V,R,
624,120,36,14,4,27,53,567,['n'],1,right,['2'],5,68,[-0.03997434],25,53,easy,minus,dotcolour,beta,,,49,18,V,R,
625,121,37,14,4,44,36,750,['n'],0,left,['2'],5,309,[-0.15381063],96,44,hard,minus,dotcolour,beta,,,49,18,V,R,
626,122,38,14,4,44,36,383,['n'],0,left,['2'],5,466,[-0.10598658],79,44,hard,minus,dotcolour,beta,,,49,18,V,R,
627,123,39,14,4,27,53,1184,['n'],1,right,['1'],6,1449,[-0.38320312],99,53,easy,minus,dotcolour,beta,,,49,18,V,R,
628,124,40,14,4,27,53,3383,['n'],1,right,['2'],5,360,[-0.20875791],99,53,easy,minus,dotcolour,beta,,,49,18,V,R,
629,125,41,14,4,47,33,60,['n'],0,left,['2'],5,204,[-0.05512346],50,47,medium,minus,dotcolour,beta,,,49,18,V,R,
630,0,0,15,5,36,44,651,['n'],1,right,['2'],5,73,[-0.08156201],100,44,hard,plus,dotcolour,beta,,,49,18,V,R,
631,1,1,15,5,44,36,450,['n'],0,left,['2'],5,462,[0.02198101],71,44,hard,plus,dotcolour,beta,,,49,18,V,R,
632,2,2,15,5,53,27,400,['n'],0,left,['0'],1,1164,[0.02541881],62,53,easy,plus,dotcolour,beta,,,49,18,V,R,
633,3,3,15,5,36,44,583,['c'],0,right,['2'],5,1367,[0.08293991],89,44,hard,plus,dotcolour,beta,,,49,18,V,R,
634,4,4,15,5,53,27,550,['n'],0,left,['2'],5,571,[-0.0035915],80,53,easy,plus,dotcolour,beta,,,49,18,V,R,
635,5,5,15,5,47,33,599,['c'],1,left,['2'],5,37,[0.0747843],100,47,medium,plus,dotcolour,beta,,,49,18,V,R,
636,6,6,15,5,53,27,517,['c'],1,left,['2'],5,41,[0.09564584],100,53,easy,plus,dotcolour,beta,,,49,18,V,R,
637,7,7,15,5,44,36,450,['c'],1,left,['2'],5,94,[0.11576869],100,44,hard,plus,dotcolour,beta,,,49,18,V,R,
638,8,8,15,5,33,47,417,['c'],0,right,['2'],5,835,[-0.00838837],72,47,medium,plus,dotcolour,beta,,,49,18,V,R,
639,9,9,15,5,53,27,432,['c'],1,left,['2'],5,121,[0.07406916],100,53,easy,plus,dotcolour,beta,,,49,18,V,R,
640,10,10,15,5,27,53,417,['c'],0,right,['2'],5,13,[0.08931019],100,53,easy,plus,dotcolour,beta,,,49,18,V,R,
641,11,11,15,5,36,44,499,['c'],0,right,['2'],5,18,[0.08268788],100,44,hard,plus,dotcolour,beta,,,49,18,V,R,
642,12,12,15,5,36,44,549,['n'],1,right,['2'],5,93,[-0.10459165],100,44,hard,plus,dotcolour,beta,,,49,18,V,R,
643,13,13,15,5,33,47,566,['n'],1,right,['2'],5,51,[-0.03472214],100,47,medium,plus,dotcolour,beta,,,49,18,V,R,
644,14,14,15,5,33,47,767,['c'],0,right,['2'],5,772,[-0.11021381],25,47,medium,plus,dotcolour,beta,,,49,18,V,R,
645,15,15,15,5,27,53,666,['n'],1,right,['2'],5,51,[-0.0394534],100,53,easy,plus,dotcolour,beta,,,49,18,V,R,
646,16,16,15,5,27,53,316,['n'],1,right,['2'],5,70,[-0.10745006],100,53,easy,plus,dotcolour,beta,,,49,18,V,R,
647,17,17,15,5,33,47,366,['n'],1,right,['2'],5,46,[-0.08914165],100,47,medium,plus,dotcolour,beta,,,49,18,V,R,
648,18,18,15,5,27,53,350,['n'],1,right,['2'],5,223,[-0.12201067],100,53,easy,plus,dotcolour,beta,,,49,18,V,R,
649,19,19,15,5,47,33,633,['c'],1,left,['2'],5,30,[0.0585584],100,47,medium,plus,dotcolour,beta,,,49,18,V,R,
650,20,20,15,5,44,36,566,['c'],1,left,['2'],5,31,[0.08518126],100,44,hard,plus,dotcolour,beta,,,49,18,V,R,
651,21,21,15,5,47,33,466,['n'],0,left,['9'],2,173,[-0.01572793],96,47,medium,plus,dotcolour,beta,,,49,18,V,R,
652,22,22,15,5,44,36,783,['c'],1,left,['9'],2,151,[0.07636908],100,44,hard,plus,dotcolour,beta,,,49,18,V,R,
653,23,23,15,5,44,36,717,['c'],1,left,['2'],5,6,[0.07999655],100,44,hard,plus,dotcolour,beta,,,49,18,V,R,
654,24,24,15,5,53,27,467,['c'],1,left,['2'],5,36,[0.04949724],100,53,easy,plus,dotcolour,beta,,,49,18,V,R,
655,25,25,15,5,27,53,350,['c'],0,right,['2'],5,15,[0.06777617],100,53,easy,plus,dotcolour,beta,,,49,18,V,R,
656,26,26,15,5,44,36,600,['c'],1,left,['2'],5,655,[0.12179354],98,44,hard,plus,dotcolour,beta,,,49,18,V,R,
657,27,27,15,5,47,33,399,['c'],1,left,['2'],5,111,[0.05105722],100,47,medium,plus,dotcolour,beta,,,49,18,V,R,
658,28,28,15,5,44,36,383,['c'],1,left,['2'],5,147,[0.05963562],100,44,hard,plus,dotcolour,beta,,,49,18,V,R,
659,29,29,15,5,27,53,634,['n'],1,right,['2'],5,109,[-0.05590861],100,53,easy,plus,dotcolour,beta,,,49,18,V,R,
660,30,30,15,5,36,44,500,['c'],0,right,['2'],5,774,[0.00718584],78,44,hard,plus,dotcolour,beta,,,49,18,V,R,
661,31,31,15,5,33,47,700,['n'],1,right,['2'],5,148,[-0.07257306],100,47,medium,plus,dotcolour,beta,,,49,18,V,R,
662,32,32,15,5,53,27,566,['c'],1,left,['2'],5,497,[0.13446289],99,53,easy,plus,dotcolour,beta,,,49,18,V,R,
663,33,33,15,5,53,27,934,['c'],1,left,['2'],5,521,[0.06270422],95,53,easy,plus,dotcolour,beta,,,49,18,V,R,
664,34,34,15,5,33,47,550,['c'],0,right,['2'],5,63,[0.06934698],100,47,medium,plus,dotcolour,beta,,,49,18,V,R,
665,35,35,15,5,47,33,650,['c'],1,left,['2'],5,532,[0.05758755],94,47,medium,plus,dotcolour,beta,,,49,18,V,R,
666,36,36,15,5,36,44,784,['n'],1,right,['2'],5,144,[-0.07306135],100,44,hard,plus,dotcolour,beta,,,49,18,V,R,
667,37,37,15,5,33,47,533,['n'],1,right,['2'],5,94,[-0.09106857],100,47,medium,plus,dotcolour,beta,,,49,18,V,R,
668,38,38,15,5,47,33,333,['c'],1,left,['2'],5,63,[0.07412725],100,47,medium,plus,dotcolour,beta,,,49,18,V,R,
669,39,39,15,5,36,44,466,['n'],1,right,['2'],5,99,[-0.07621914],100,44,hard,plus,dotcolour,beta,,,49,18,V,R,
670,40,40,15,5,27,53,434,['c'],0,right,['2'],5,78,[0.01700229],99,53,easy,plus,dotcolour,beta,,,49,18,V,R,
671,41,41,15,5,47,33,400,['c'],1,left,['2'],5,124,[0.08256512],100,47,medium,plus,dotcolour,beta,,,49,18,V,R,
672,42,0,16,5,33,47,701,['n'],1,right,['2'],5,100,[-0.10947367],100,47,medium,plus,dotcolour,beta,,,49,18,V,R,
673,43,1,16,5,27,53,283,['c'],0,right,['2'],5,22,[0.05646821],100,53,easy,plus,dotcolour,beta,,,49,18,V,R,
674,44,2,16,5,33,47,766,['n'],1,right,['2'],5,56,[-0.06997233],100,47,medium,plus,dotcolour,beta,,,49,18,V,R,
675,45,3,16,5,53,27,351,['c'],1,left,['2'],5,105,[0.09764179],100,53,easy,plus,dotcolour,beta,,,49,18,V,R,
676,46,4,16,5,53,27,400,['c'],1,left,['2'],5,622,[0.30440758],100,53,easy,plus,dotcolour,beta,,,49,18,V,R,
677,47,5,16,5,53,27,400,['c'],1,left,['2'],5,118,[0.12556507],100,53,easy,plus,dotcolour,beta,,,49,18,V,R,
678,48,6,16,5,27,53,600,['n'],1,right,['1'],6,227,[-0.04703964],98,53,easy,plus,dotcolour,beta,,,49,18,V,R,
679,49,7,16,5,27,53,500,['n'],1,right,['2'],5,88,[-0.05371364],100,53,easy,plus,dotcolour,beta,,,49,18,V,R,
680,50,8,16,5,44,36,250,['c'],1,left,['2'],5,35,[0.08476241],100,44,hard,plus,dotcolour,beta,,,49,18,V,R,
681,51,9,16,5,47,33,317,['c'],1,left,['2'],5,799,[0.08880742],95,47,medium,plus,dotcolour,beta,,,49,18,V,R,
682,52,10,16,5,44,36,583,['c'],1,left,['2'],5,105,[0.05310997],100,44,hard,plus,dotcolour,beta,,,49,18,V,R,
683,53,11,16,5,47,33,467,['c'],1,left,['2'],5,339,[0.16171449],100,47,medium,plus,dotcolour,beta,,,49,18,V,R,
684,54,12,16,5,44,36,1984,['c'],1,left,['2'],5,79,[0.04933521],100,44,hard,plus,dotcolour,beta,,,49,18,V,R,
685,55,13,16,5,27,53,567,['n'],1,right,['2'],5,14,[-0.05959168],100,53,easy,plus,dotcolour,beta,,,49,18,V,R,
686,56,14,16,5,47,33,267,['c'],1,left,['1'],6,77,[0.0695105],100,47,medium,plus,dotcolour,beta,,,49,18,V,R,
687,57,15,16,5,27,53,148,['c'],0,right,['2'],5,419,[-0.02745963],69,53,easy,plus,dotcolour,beta,,,49,18,V,R,
688,58,16,16,5,36,44,482,['c'],0,right,['2'],5,56,[0.06617972],100,44,hard,plus,dotcolour,beta,,,49,18,V,R,
689,59,17,16,5,36,44,233,['n'],1,right,['2'],5,78,[-0.05449965],100,44,hard,plus,dotcolour,beta,,,49,18,V,R,
690,60,18,16,5,36,44,334,['n'],1,right,['2'],5,71,[-0.05080869],100,44,hard,plus,dotcolour,beta,,,49,18,V,R,
691,61,19,16,5,33,47,151,['c'],0,right,['2'],5,46,[0.0722973],100,47,medium,plus,dotcolour,beta,,,49,18,V,R,
692,62,20,16,5,36,44,250,['c'],0,right,['2'],5,987,[-0.23190943],4,44,hard,plus,dotcolour,beta,,,49,18,V,R,
693,63,21,16,5,27,53,1534,['n'],1,right,['2'],5,71,[-0.0645929],100,53,easy,plus,dotcolour,beta,,,49,18,V,R,
694,64,22,16,5,47,33,834,['c'],1,left,['2'],5,20,[0.08960632],100,47,medium,plus,dotcolour,beta,,,49,18,V,R,
695,65,23,16,5,36,44,567,['n'],1,right,['2'],5,102,[-0.10600596],100,44,hard,plus,dotcolour,beta,,,49,18,V,R,
696,66,24,16,5,33,47,181,['c'],0,right,['2'],5,4,[0.07296841],100,47,medium,plus,dotcolour,beta,,,49,18,V,R,
697,67,25,16,5,53,27,232,['c'],1,left,['9'],2,1444,[0.24701664],99,53,easy,plus,dotcolour,beta,,,49,18,V,R,
698,68,26,16,5,27,53,197,['c'],0,right,['2'],5,44,[0.05136199],100,53,easy,plus,dotcolour,beta,,,49,18,V,R,
699,69,27,16,5,44,36,583,['n'],0,left,['2'],5,131,[-0.03274589],99,44,hard,plus,dotcolour,beta,,,49,18,V,R,
700,70,28,16,5,36,44,417,['c'],0,right,['2'],5,71,[0.08498223],100,44,hard,plus,dotcolour,beta,,,49,18,V,R,
701,71,29,16,5,44,36,650,['n'],0,left,['2'],5,131,[-0.05211363],100,44,hard,plus,dotcolour,beta,,,49,18,V,R,
702,72,30,16,5,33,47,516,['n'],1,right,['2'],5,50,[-0.04815166],100,47,medium,plus,dotcolour,beta,,,49,18,V,R,
703,73,31,16,5,33,47,195,['n'],1,right,['2'],5,19,[-0.08348463],100,47,medium,plus,dotcolour,beta,,,49,18,V,R,
704,74,32,16,5,53,27,700,['n'],0,left,['1'],6,191,[-0.01940657],96,53,easy,plus,dotcolour,beta,,,49,18,V,R,
705,75,33,16,5,33,47,850,['n'],1,right,['2'],5,342,[-0.18373945],100,47,medium,plus,dotcolour,beta,,,49,18,V,R,
706,76,34,16,5,44,36,333,['n'],0,left,['2'],5,140,[-0.03357215],99,44,hard,plus,dotcolour,beta,,,49,18,V,R,
707,77,35,16,5,53,27,266,['n'],0,left,['2'],5,76,[-0.04354558],100,53,easy,plus,dotcolour,beta,,,49,18,V,R,
708,78,36,16,5,36,44,196,['n'],1,right,['2'],5,76,[-0.04233131],100,44,hard,plus,dotcolour,beta,,,49,18,V,R,
709,79,37,16,5,44,36,98,['n'],0,left,['2'],5,49,[-0.0905417],100,44,hard,plus,dotcolour,beta,,,49,18,V,R,
710,80,38,16,5,53,27,367,['n'],0,left,['2'],5,105,[-0.05568524],100,53,easy,plus,dotcolour,beta,,,49,18,V,R,
711,81,39,16,5,47,33,333,['n'],0,left,['2'],5,106,[-0.07751194],100,47,medium,plus,dotcolour,beta,,,49,18,V,R,
712,82,40,16,5,47,33,317,['c'],1,left,['2'],5,74,[0.06097927],100,47,medium,plus,dotcolour,beta,,,49,18,V,R,
713,83,41,16,5,47,33,367,['c'],1,left,['2'],5,65,[0.06746013],100,47,medium,plus,dotcolour,beta,,,49,18,V,R,
714,84,0,17,5,27,53,400,['c'],0,right,['2'],5,107,[0.04961189],100,53,easy,plus,dotcolour,beta,,,49,18,V,R,
715,85,1,17,5,47,33,283,['n'],0,left,['2'],5,109,[-0.09235102],100,47,medium,plus,dotcolour,beta,,,49,18,V,R,
716,86,2,17,5,33,47,233,['n'],1,right,['2'],5,160,[-0.10388041],100,47,medium,plus,dotcolour,beta,,,49,18,V,R,
717,87,3,17,5,36,44,450,['n'],1,right,['2'],5,721,[-0.02142082],84,44,hard,plus,dotcolour,beta,,,49,18,V,R,
718,88,4,17,5,36,44,900,['n'],1,right,['2'],5,209,[-0.03353586],97,44,hard,plus,dotcolour,beta,,,49,18,V,R,
719,89,5,17,5,27,53,467,['c'],0,right,['2'],5,71,[0.07780208],100,53,easy,plus,dotcolour,beta,,,49,18,V,R,
720,90,6,17,5,36,44,567,['c'],0,right,['2'],5,79,[0.10274465],100,44,hard,plus,dotcolour,beta,,,49,18,V,R,
721,91,7,17,5,53,27,383,['n'],0,left,['2'],5,30,[-0.06136816],100,53,easy,plus,dotcolour,beta,,,49,18,V,R,
722,92,8,17,5,36,44,367,['n'],1,right,['2'],5,39,[-0.0804656],100,44,hard,plus,dotcolour,beta,,,49,18,V,R,
723,93,9,17,5,27,53,300,['n'],1,right,['2'],5,67,[-0.04175183],100,53,easy,plus,dotcolour,beta,,,49,18,V,R,
724,94,10,17,5,33,47,383,['c'],0,right,['2'],5,731,[0.03058287],86,47,medium,plus,dotcolour,beta,,,49,18,V,R,
725,95,11,17,5,33,47,217,['n'],1,right,['2'],5,62,[-0.11551529],100,47,medium,plus,dotcolour,beta,,,49,18,V,R,
726,96,12,17,5,53,27,384,['c'],1,left,['2'],5,5,[0.07220347],100,53,easy,plus,dotcolour,beta,,,49,18,V,R,
727,97,13,17,5,27,53,300,['n'],1,right,['2'],5,90,[-0.07094551],100,53,easy,plus,dotcolour,beta,,,49,18,V,R,
728,98,14,17,5,44,36,300,['c'],1,left,['2'],5,740,[0.03505749],87,44,hard,plus,dotcolour,beta,,,49,18,V,R,
729,99,15,17,5,44,36,216,['n'],0,left,['2'],5,191,[-0.02668277],97,44,hard,plus,dotcolour,beta,,,49,18,V,R,
730,100,16,17,5,27,53,121,['n'],1,right,['2'],5,56,[-0.12584591],100,53,easy,plus,dotcolour,beta,,,49,18,V,R,
731,101,17,17,5,44,36,233,['n'],0,left,['2'],5,223,[-0.06595793],99,44,hard,plus,dotcolour,beta,,,49,18,V,R,
732,102,18,17,5,47,33,104,['n'],0,left,['2'],5,23,[-0.0499436],100,47,medium,plus,dotcolour,beta,,,49,18,V,R,
733,103,19,17,5,47,33,72,['n'],0,left,['2'],5,32,[-0.08364057],100,47,medium,plus,dotcolour,beta,,,49,18,V,R,
734,104,20,17,5,53,27,138,['n'],0,left,['2'],5,16,[-0.0773],100,53,easy,plus,dotcolour,beta,,,49,18,V,R,
735,105,21,17,5,47,33,350,['c'],1,left,['2'],5,10,[0.07068177],100,47,medium,plus,dotcolour,beta,,,49,18,V,R,
736,106,22,17,5,47,33,450,['c'],1,left,['1'],6,145,[0.11911466],100,47,medium,plus,dotcolour,beta,,,49,18,V,R,
737,107,23,17,5,36,44,417,['c'],0,right,['2'],5,755,[-0.00224696],75,44,hard,plus,dotcolour,beta,,,49,18,V,R,
738,108,24,17,5,53,27,834,['c'],1,left,['2'],5,685,[0.21444572],100,53,easy,plus,dotcolour,beta,,,49,18,V,R,
739,109,25,17,5,47,33,617,['c'],1,left,['2'],5,114,[0.07046272],100,47,medium,plus,dotcolour,beta,,,49,18,V,R,
740,110,26,17,5,44,36,617,['c'],1,left,['2'],5,22,[0.07680223],100,44,hard,plus,dotcolour,beta,,,49,18,V,R,
741,111,27,17,5,33,47,634,['c'],0,right,['2'],5,701,[0.01291373],81,47,medium,plus,dotcolour,beta,,,49,18,V,R,
742,112,28,17,5,33,47,317,['c'],0,right,['2'],5,78,[0.08951803],100,47,medium,plus,dotcolour,beta,,,49,18,V,R,
743,113,29,17,5,27,53,499,['c'],0,right,['2'],5,104,[0.03084798],99,53,easy,plus,dotcolour,beta,,,49,18,V,R,
744,114,30,17,5,33,47,817,['n'],1,right,['2'],5,93,[-0.11319138],100,47,medium,plus,dotcolour,beta,,,49,18,V,R,
745,115,31,17,5,53,27,384,['n'],0,left,['2'],5,147,[-0.04042018],99,53,easy,plus,dotcolour,beta,,,49,18,V,R,
746,116,32,17,5,33,47,1566,['c'],0,right,['2'],5,71,[0.07961977],100,47,medium,plus,dotcolour,beta,,,49,18,V,R,
747,117,33,17,5,36,44,384,['n'],1,right,['2'],5,111,[-0.0632918],100,44,hard,plus,dotcolour,beta,,,49,18,V,R,
748,118,34,17,5,27,53,467,['c'],0,right,['2'],5,81,[0.06432055],100,53,easy,plus,dotcolour,beta,,,49,18,V,R,
749,119,35,17,5,44,36,333,['n'],0,left,['2'],5,114,[-0.11622875],100,44,hard,plus,dotcolour,beta,,,49,18,V,R,
750,120,36,17,5,44,36,401,['c'],1,left,['2'],5,126,[0.03186231],99,44,hard,plus,dotcolour,beta,,,49,18,V,R,
751,121,37,17,5,47,33,400,['n'],0,left,['2'],5,74,[-0.10489999],100,47,medium,plus,dotcolour,beta,,,49,18,V,R,
752,122,38,17,5,53,27,400,['n'],0,left,['2'],5,113,[-0.13460264],100,53,easy,plus,dotcolour,beta,,,49,18,V,R,
753,123,39,17,5,44,36,516,['c'],1,left,['2'],5,81,[0.12191645],100,44,hard,plus,dotcolour,beta,,,49,18,V,R,
754,124,40,17,5,53,27,400,['c'],1,left,['2'],5,79,[0.05535675],100,53,easy,plus,dotcolour,beta,,,49,18,V,R,
755,125,41,17,5,36,44,383,['c'],0,right,['2'],5,93,[0.08081527],100,44,hard,plus,dotcolour,beta,,,49,18,V,R,
,,,,,,,,,,,,,,,,,,,,,1,soms als ik weet dat ik het verkeerde antwoord heb gegeven met de verkeerde motivatie geeft die nog altijd aan dat het correct is ,49,18,V,R,
,,,,,,,,,,,,,,,,,,,,,2,['h'],49,18,V,R,
,,,,,,,,,,,,,,,,,,,,,3,['h'],49,18,V,R,
,,,,,,,,,,,,,,,,,,,,,5,['5'],49,18,V,R,
