trial,withinphasetrial,withinblocktrial,block,phase,dotsLeft,dotsRight,rt,resp,cor,cresp,conf_press,cj,RTconf,ev,fb,diff,difflevel,condition,task,manip,questionID,questionResp,sub,age,gender,handedness,
0,0,0,0,0,27,53,6217,['n'],1,right,['8'],4,1896,[-0.46156292],100,53,easy,plus,dotcolour,alfa,,,90,21,M,R,
1,1,1,0,0,53,27,1466,['c'],1,left,['0'],6,2314,[0.30911708],100,53,easy,plus,dotcolour,alfa,,,90,21,M,R,
2,2,2,0,0,44,36,4250,['n'],0,left,['8'],4,3236,[-0.0508824],73,44,hard,plus,dotcolour,alfa,,,90,21,M,R,
3,3,3,0,0,36,44,3133,['c'],0,right,['0'],6,1838,[-0.10622011],6,44,hard,plus,dotcolour,alfa,,,90,21,M,R,
4,4,4,0,0,44,36,1400,['c'],1,left,['0'],6,477,[0.03714005],87,44,hard,plus,dotcolour,alfa,,,90,21,M,R,
5,5,5,0,0,44,36,3417,['c'],1,left,['9'],5,1146,[0.27536553],100,44,hard,plus,dotcolour,alfa,,,90,21,M,R,
6,6,6,0,0,47,33,1267,['c'],1,left,['0'],6,1547,[0.11577255],97,47,medium,plus,dotcolour,alfa,,,90,21,M,R,
7,7,7,0,0,53,27,917,['c'],1,left,['0'],6,801,[0.19245683],100,53,easy,plus,dotcolour,alfa,,,90,21,M,R,
8,8,8,0,0,27,53,1551,['n'],1,right,['8'],4,3612,[-0.48320319],100,53,easy,plus,dotcolour,alfa,,,90,21,M,R,
9,9,9,0,0,27,53,1534,['n'],1,right,['9'],5,975,[-0.40742383],100,53,easy,plus,dotcolour,alfa,,,90,21,M,R,
10,10,10,0,0,44,36,1150,['c'],1,left,['9'],5,603,[0.1015505],99,44,hard,plus,dotcolour,alfa,,,90,21,M,R,
11,11,11,0,0,47,33,750,['c'],1,left,['0'],6,574,[0.17794793],100,47,medium,plus,dotcolour,alfa,,,90,21,M,R,
12,12,12,0,0,53,27,666,['c'],1,left,['9'],5,661,[0.10234202],99,53,easy,plus,dotcolour,alfa,,,90,21,M,R,
13,13,13,0,0,36,44,3750,['n'],1,right,['8'],4,486,[-0.1700415],100,44,hard,plus,dotcolour,alfa,,,90,21,M,R,
14,14,14,0,0,36,44,1900,['c'],0,right,['8'],4,1719,[0.01744336],62,44,hard,plus,dotcolour,alfa,,,90,21,M,R,
15,15,15,0,0,27,53,1516,['n'],1,right,['9'],5,655,[-0.16864073],100,53,easy,plus,dotcolour,alfa,,,90,21,M,R,
16,16,16,0,0,44,36,1016,['c'],1,left,['9'],5,645,[0.12807205],100,44,hard,plus,dotcolour,alfa,,,90,21,M,R,
17,17,17,0,0,27,53,1184,['n'],1,right,['8'],4,2557,[-0.27114472],100,53,easy,plus,dotcolour,alfa,,,90,21,M,R,
18,18,18,0,0,47,33,951,['c'],1,left,['9'],5,1593,[0.07971404],91,47,medium,plus,dotcolour,alfa,,,90,21,M,R,
19,19,19,0,0,36,44,834,['c'],0,right,['2'],2,3169,[-0.10399504],11,44,hard,plus,dotcolour,alfa,,,90,21,M,R,
20,20,20,0,0,33,47,2249,['n'],1,right,['9'],5,617,[-0.1038539],99,47,medium,plus,dotcolour,alfa,,,90,21,M,R,
21,21,21,0,0,47,33,685,['c'],1,left,['0'],6,1470,[0.37868278],100,47,medium,plus,dotcolour,alfa,,,90,21,M,R,
22,22,22,0,0,53,27,750,['c'],1,left,['0'],6,1270,[0.03611358],76,53,easy,plus,dotcolour,alfa,,,90,21,M,R,
23,23,23,0,0,33,47,2917,['n'],1,right,['8'],4,1032,[-0.0558583],88,47,medium,plus,dotcolour,alfa,,,90,21,M,R,
24,24,24,0,0,53,27,884,['c'],1,left,['0'],6,372,[0.17623258],100,53,easy,plus,dotcolour,alfa,,,90,21,M,R,
25,25,25,0,0,36,44,1500,['n'],1,right,['9'],5,538,[-0.12575441],100,44,hard,plus,dotcolour,alfa,,,90,21,M,R,
26,26,26,0,0,47,33,1083,['c'],1,left,['0'],6,506,[-0.01623979],31,47,medium,plus,dotcolour,alfa,,,90,21,M,R,
27,27,27,0,0,33,47,1367,['n'],1,right,['9'],5,416,[-0.11360708],100,47,medium,plus,dotcolour,alfa,,,90,21,M,R,
28,28,28,0,0,27,53,1917,['n'],1,right,['9'],5,1844,[-0.6118201],100,53,easy,plus,dotcolour,alfa,,,90,21,M,R,
29,29,29,0,0,44,36,6100,['n'],0,left,['8'],4,855,[0.12613551],1,44,hard,plus,dotcolour,alfa,,,90,21,M,R,
30,30,30,0,0,36,44,8768,['c'],0,right,['3'],3,1191,[0.00508364],54,44,hard,plus,dotcolour,alfa,,,90,21,M,R,
31,31,31,0,0,27,53,1434,['n'],1,right,['9'],5,8935,[-1.59389761],100,53,easy,plus,dotcolour,alfa,,,90,21,M,R,
32,32,32,0,0,33,47,1517,['n'],1,right,['9'],5,2427,[-0.09691549],90,47,medium,plus,dotcolour,alfa,,,90,21,M,R,
33,33,33,0,0,33,47,1483,['n'],1,right,['0'],6,2600,[-0.19029523],99,47,medium,plus,dotcolour,alfa,,,90,21,M,R,
34,34,34,0,0,33,47,2034,['n'],1,right,['0'],6,1199,[-0.08387737],94,47,medium,plus,dotcolour,alfa,,,90,21,M,R,
35,35,35,0,0,53,27,916,['c'],1,left,['9'],5,772,[0.11841321],99,53,easy,plus,dotcolour,alfa,,,90,21,M,R,
36,36,36,0,0,33,47,1400,['n'],1,right,['8'],4,710,[-0.08380433],97,47,medium,plus,dotcolour,alfa,,,90,21,M,R,
37,37,37,0,0,47,33,935,['c'],1,left,['0'],6,1020,[0.14791296],99,47,medium,plus,dotcolour,alfa,,,90,21,M,R,
38,38,38,0,0,53,27,783,['c'],1,left,['9'],5,637,[0.25764243],100,53,easy,plus,dotcolour,alfa,,,90,21,M,R,
39,39,39,0,0,36,44,1417,['n'],1,right,['9'],5,579,[-0.13441447],100,44,hard,plus,dotcolour,alfa,,,90,21,M,R,
40,40,40,0,0,44,36,1051,['c'],1,left,['0'],6,772,[0.16902097],100,44,hard,plus,dotcolour,alfa,,,90,21,M,R,
41,41,41,0,0,47,33,1000,['n'],0,left,['9'],5,702,[-0.00388824],54,47,medium,plus,dotcolour,alfa,,,90,21,M,R,
42,42,0,1,0,33,47,901,['n'],1,right,['9'],5,1216,[-0.2514257],100,47,medium,plus,dotcolour,alfa,,,90,21,M,R,
43,43,1,1,0,27,53,733,['n'],1,right,['0'],6,731,[-0.33215596],100,53,easy,plus,dotcolour,alfa,,,90,21,M,R,
44,44,2,1,0,44,36,884,['c'],1,left,['9'],5,500,[0.024269],77,44,hard,plus,dotcolour,alfa,,,90,21,M,R,
45,45,3,1,0,44,36,1050,['c'],1,left,['0'],6,679,[0.0994719],99,44,hard,plus,dotcolour,alfa,,,90,21,M,R,
46,46,4,1,0,44,36,968,['c'],1,left,['9'],5,678,[0.14970297],100,44,hard,plus,dotcolour,alfa,,,90,21,M,R,
47,47,5,1,0,44,36,717,['c'],1,left,['0'],6,3776,[0.21808049],98,44,hard,plus,dotcolour,alfa,,,90,21,M,R,
48,48,6,1,0,33,47,1233,['c'],0,right,['9'],5,544,[-0.01237602],35,47,medium,plus,dotcolour,alfa,,,90,21,M,R,
49,49,7,1,0,53,27,884,['c'],1,left,['0'],6,424,[0.18490281],100,53,easy,plus,dotcolour,alfa,,,90,21,M,R,
50,50,8,1,0,47,33,799,['c'],1,left,['0'],6,320,[0.13617113],100,47,medium,plus,dotcolour,alfa,,,90,21,M,R,
51,51,9,1,0,27,53,1900,['n'],1,right,['9'],5,601,[-0.2004716],100,53,easy,plus,dotcolour,alfa,,,90,21,M,R,
52,52,10,1,0,53,27,818,['c'],1,left,['0'],6,257,[0.04326303],96,53,easy,plus,dotcolour,alfa,,,90,21,M,R,
53,53,11,1,0,47,33,2050,['c'],1,left,['0'],6,382,[0.05180652],95,47,medium,plus,dotcolour,alfa,,,90,21,M,R,
54,54,12,1,0,27,53,1800,['n'],1,right,['0'],6,1040,[-0.19142241],100,53,easy,plus,dotcolour,alfa,,,90,21,M,R,
55,55,13,1,0,36,44,2717,['c'],0,right,['8'],4,1658,[0.08249278],91,44,hard,plus,dotcolour,alfa,,,90,21,M,R,
56,56,14,1,0,47,33,1316,['c'],1,left,['0'],6,469,[0.25237359],100,47,medium,plus,dotcolour,alfa,,,90,21,M,R,
57,57,15,1,0,27,53,1301,['n'],1,right,['0'],6,375,[-0.15702142],100,53,easy,plus,dotcolour,alfa,,,90,21,M,R,
58,58,16,1,0,47,33,2050,['c'],1,left,['0'],6,760,[0.11651466],99,47,medium,plus,dotcolour,alfa,,,90,21,M,R,
59,59,17,1,0,53,27,750,['c'],1,left,['0'],6,348,[0.08238569],99,53,easy,plus,dotcolour,alfa,,,90,21,M,R,
60,60,18,1,0,33,47,968,['c'],0,right,['8'],4,1097,[0.0418637],81,47,medium,plus,dotcolour,alfa,,,90,21,M,R,
61,61,19,1,0,33,47,400,['c'],0,right,['1'],1,2558,[-0.29211659],0,47,medium,plus,dotcolour,alfa,,,90,21,M,R,
62,62,20,1,0,36,44,7267,['n'],1,right,['9'],5,829,[-0.11035832],99,44,hard,plus,dotcolour,alfa,,,90,21,M,R,
63,63,21,1,0,36,44,2600,['n'],1,right,['0'],6,909,[-0.10382476],98,44,hard,plus,dotcolour,alfa,,,90,21,M,R,
64,64,22,1,0,36,44,2767,['c'],0,right,['9'],5,715,[0.07056937],95,44,hard,plus,dotcolour,alfa,,,90,21,M,R,
65,65,23,1,0,53,27,1200,['c'],1,left,['0'],6,1112,[0.27829343],100,53,easy,plus,dotcolour,alfa,,,90,21,M,R,
66,66,24,1,0,33,47,1649,['n'],1,right,['0'],6,2068,[-0.31659753],100,47,medium,plus,dotcolour,alfa,,,90,21,M,R,
67,67,25,1,0,36,44,1400,['n'],1,right,['9'],5,1177,[-0.33657594],100,44,hard,plus,dotcolour,alfa,,,90,21,M,R,
68,68,26,1,0,53,27,917,['c'],1,left,['0'],6,846,[0.0901883],97,53,easy,plus,dotcolour,alfa,,,90,21,M,R,
69,69,27,1,0,27,53,999,['n'],1,right,['0'],6,3782,[-0.95741867],100,53,easy,plus,dotcolour,alfa,,,90,21,M,R,
70,70,28,1,0,33,47,1499,['n'],1,right,['0'],6,530,[-0.07739843],98,47,medium,plus,dotcolour,alfa,,,90,21,M,R,
71,71,29,1,0,47,33,833,['c'],1,left,['0'],6,461,[0.21955792],100,47,medium,plus,dotcolour,alfa,,,90,21,M,R,
72,72,30,1,0,27,53,900,['n'],1,right,['0'],6,399,[-0.1782798],100,53,easy,plus,dotcolour,alfa,,,90,21,M,R,
73,73,31,1,0,47,33,1068,['c'],1,left,['0'],6,406,[0.09383714],100,47,medium,plus,dotcolour,alfa,,,90,21,M,R,
74,74,32,1,0,44,36,917,['c'],1,left,['0'],6,371,[0.14439555],100,44,hard,plus,dotcolour,alfa,,,90,21,M,R,
75,75,33,1,0,53,27,800,['c'],1,left,['0'],6,293,[0.12064348],100,53,easy,plus,dotcolour,alfa,,,90,21,M,R,
76,76,34,1,0,44,36,667,['c'],1,left,['0'],6,240,[0.08942502],100,44,hard,plus,dotcolour,alfa,,,90,21,M,R,
77,77,35,1,0,47,33,651,['c'],1,left,['0'],6,349,[0.09541609],100,47,medium,plus,dotcolour,alfa,,,90,21,M,R,
78,78,36,1,0,53,27,767,['c'],1,left,['0'],6,290,[0.09732905],100,53,easy,plus,dotcolour,alfa,,,90,21,M,R,
79,79,37,1,0,36,44,1283,['n'],1,right,['9'],5,332,[-0.04658948],95,44,hard,plus,dotcolour,alfa,,,90,21,M,R,
80,80,38,1,0,36,44,3517,['c'],0,right,['9'],5,747,[0.08250179],97,44,hard,plus,dotcolour,alfa,,,90,21,M,R,
81,81,39,1,0,44,36,1017,['c'],1,left,['0'],6,1429,[0.21676444],100,44,hard,plus,dotcolour,alfa,,,90,21,M,R,
82,82,40,1,0,33,47,901,['n'],1,right,['0'],6,698,[-0.16526283],100,47,medium,plus,dotcolour,alfa,,,90,21,M,R,
83,83,41,1,0,27,53,2134,['n'],1,right,['0'],6,434,[-0.0925209],99,53,easy,plus,dotcolour,alfa,,,90,21,M,R,
84,84,0,2,0,27,53,1184,['n'],1,right,['0'],6,788,[-0.1220624],99,53,easy,plus,dotcolour,alfa,,,90,21,M,R,
85,85,1,2,0,27,53,2035,['n'],1,right,['0'],6,428,[-0.02263288],78,53,easy,plus,dotcolour,alfa,,,90,21,M,R,
86,86,2,2,0,47,33,1017,['c'],1,left,['9'],5,739,[0.23484568],100,47,medium,plus,dotcolour,alfa,,,90,21,M,R,
87,87,3,2,0,44,36,850,['c'],1,left,['0'],6,268,[0.03859562],94,44,hard,plus,dotcolour,alfa,,,90,21,M,R,
88,88,4,2,0,44,36,634,['c'],1,left,['9'],5,410,[0.08979434],99,44,hard,plus,dotcolour,alfa,,,90,21,M,R,
89,89,5,2,0,33,47,1366,['n'],1,right,['9'],5,1060,[0.01139789],40,47,medium,plus,dotcolour,alfa,,,90,21,M,R,
90,90,6,2,0,33,47,1917,['n'],1,right,['9'],5,838,[-0.15865497],100,47,medium,plus,dotcolour,alfa,,,90,21,M,R,
91,91,7,2,0,27,53,917,['n'],1,right,['0'],6,1905,[-0.16359348],99,53,easy,plus,dotcolour,alfa,,,90,21,M,R,
92,92,8,2,0,47,33,1800,['c'],1,left,['9'],5,1157,[0.1450435],99,47,medium,plus,dotcolour,alfa,,,90,21,M,R,
93,93,9,2,0,47,33,1367,['c'],1,left,['0'],6,1625,[0.19848309],100,47,medium,plus,dotcolour,alfa,,,90,21,M,R,
94,94,10,2,0,44,36,734,['c'],1,left,['0'],6,508,[-0.04075669],11,44,hard,plus,dotcolour,alfa,,,90,21,M,R,
95,95,11,2,0,36,44,1083,['n'],1,right,['9'],5,717,[-0.08549195],97,44,hard,plus,dotcolour,alfa,,,90,21,M,R,
96,96,12,2,0,27,53,833,['n'],1,right,['0'],6,2017,[-0.44748144],100,53,easy,plus,dotcolour,alfa,,,90,21,M,R,
97,97,13,2,0,36,44,933,['c'],0,right,['9'],5,699,[0.055334],92,44,hard,plus,dotcolour,alfa,,,90,21,M,R,
98,98,14,2,0,44,36,850,['c'],1,left,['0'],6,1583,[0.02132075],65,44,hard,plus,dotcolour,alfa,,,90,21,M,R,
99,99,15,2,0,44,36,783,['c'],1,left,['0'],6,1617,[0.07409904],89,44,hard,plus,dotcolour,alfa,,,90,21,M,R,
100,100,16,2,0,47,33,750,['c'],1,left,['0'],6,771,[0.12886309],99,47,medium,plus,dotcolour,alfa,,,90,21,M,R,
101,101,17,2,0,47,33,684,['c'],1,left,['0'],6,1321,[0.02986899],72,47,medium,plus,dotcolour,alfa,,,90,21,M,R,
102,102,18,2,0,33,47,1135,['n'],1,right,['0'],6,1344,[-0.18455749],100,47,medium,plus,dotcolour,alfa,,,90,21,M,R,
103,103,19,2,0,33,47,1718,['c'],0,right,['9'],5,559,[0.12793553],100,47,medium,plus,dotcolour,alfa,,,90,21,M,R,
104,104,20,2,0,47,33,917,['c'],1,left,['0'],6,909,[0.30754765],100,47,medium,plus,dotcolour,alfa,,,90,21,M,R,
105,105,21,2,0,53,27,1250,['c'],1,left,['0'],6,487,[0.22104912],100,53,easy,plus,dotcolour,alfa,,,90,21,M,R,
106,106,22,2,0,44,36,1433,['c'],1,left,['0'],6,355,[0.20162446],100,44,hard,plus,dotcolour,alfa,,,90,21,M,R,
107,107,23,2,0,53,27,750,['c'],1,left,['0'],6,352,[0.27849458],100,53,easy,plus,dotcolour,alfa,,,90,21,M,R,
108,108,24,2,0,36,44,1134,['n'],1,right,['9'],5,726,[-0.18824803],100,44,hard,plus,dotcolour,alfa,,,90,21,M,R,
109,109,25,2,0,33,47,1916,['n'],1,right,['9'],5,669,[-0.19433635],100,47,medium,plus,dotcolour,alfa,,,90,21,M,R,
110,110,26,2,0,53,27,1934,['c'],1,left,['0'],6,502,[0.23930922],100,53,easy,plus,dotcolour,alfa,,,90,21,M,R,
111,111,27,2,0,44,36,1067,['c'],1,left,['0'],6,273,[0.09334861],100,44,hard,plus,dotcolour,alfa,,,90,21,M,R,
112,112,28,2,0,27,53,934,['n'],1,right,['8'],4,1313,[-0.45562554],100,53,easy,plus,dotcolour,alfa,,,90,21,M,R,
113,113,29,2,0,53,27,3583,['c'],1,left,['0'],6,607,[0.14619022],100,53,easy,plus,dotcolour,alfa,,,90,21,M,R,
114,114,30,2,0,27,53,3733,['n'],1,right,['9'],5,1418,[-0.42001914],100,53,easy,plus,dotcolour,alfa,,,90,21,M,R,
115,115,31,2,0,36,44,3150,['c'],0,right,['9'],5,804,[0.01406349],64,44,hard,plus,dotcolour,alfa,,,90,21,M,R,
116,116,32,2,0,53,27,2134,['c'],1,left,['0'],6,1584,[0.20005082],100,53,easy,plus,dotcolour,alfa,,,90,21,M,R,
117,117,33,2,0,36,44,1384,['n'],1,right,['9'],5,546,[-0.06782186],96,44,hard,plus,dotcolour,alfa,,,90,21,M,R,
118,118,34,2,0,53,27,950,['c'],1,left,['0'],6,479,[0.1578005],100,53,easy,plus,dotcolour,alfa,,,90,21,M,R,
119,119,35,2,0,47,33,1333,['c'],1,left,['0'],6,271,[0.01004344],67,47,medium,plus,dotcolour,alfa,,,90,21,M,R,
120,120,36,2,0,27,53,1883,['n'],1,right,['0'],6,619,[-0.15057794],100,53,easy,plus,dotcolour,alfa,,,90,21,M,R,
121,121,37,2,0,33,47,1333,['n'],1,right,['0'],6,942,[-0.25406768],100,47,medium,plus,dotcolour,alfa,,,90,21,M,R,
122,122,38,2,0,33,47,2150,['n'],1,right,['8'],4,1300,[-0.20786469],100,47,medium,plus,dotcolour,alfa,,,90,21,M,R,
123,123,39,2,0,53,27,1633,['c'],1,left,['0'],6,327,[0.23106378],100,53,easy,plus,dotcolour,alfa,,,90,21,M,R,
124,124,40,2,0,36,44,1117,['n'],1,right,['0'],6,750,[-0.04065581],84,44,hard,plus,dotcolour,alfa,,,90,21,M,R,
125,125,41,2,0,36,44,1466,['c'],0,right,['0'],6,783,[-0.03958114],17,44,hard,plus,dotcolour,alfa,,,90,21,M,R,
126,0,0,3,1,53,27,884,['c'],1,left,['0'],6,772,[0.23274296],92,53,easy,minus,dotcolour,alfa,,,90,21,M,R,
127,1,1,3,1,27,53,700,['n'],1,right,['0'],6,746,[-0.15542734],83,53,easy,minus,dotcolour,alfa,,,90,21,M,R,
128,2,2,3,1,53,27,917,['c'],1,left,['0'],6,416,[0.17192735],92,53,easy,minus,dotcolour,alfa,,,90,21,M,R,
129,3,3,3,1,47,33,750,['c'],1,left,['0'],6,331,[0.18093702],94,47,medium,minus,dotcolour,alfa,,,90,21,M,R,
130,4,4,3,1,27,53,717,['n'],1,right,['0'],6,379,[-0.20741077],95,53,easy,minus,dotcolour,alfa,,,90,21,M,R,
131,5,5,3,1,36,44,1167,['n'],1,right,['0'],6,334,[-0.08731987],80,44,hard,minus,dotcolour,alfa,,,90,21,M,R,
132,6,6,3,1,53,27,684,['c'],1,left,['0'],6,326,[0.19882895],96,53,easy,minus,dotcolour,alfa,,,90,21,M,R,
133,7,7,3,1,36,44,917,['n'],1,right,['0'],6,310,[-0.0117781],55,44,hard,minus,dotcolour,alfa,,,90,21,M,R,
134,8,8,3,1,44,36,1001,['c'],1,left,['0'],6,306,[0.11641739],87,44,hard,minus,dotcolour,alfa,,,90,21,M,R,
135,9,9,3,1,44,36,667,['c'],1,left,['0'],6,268,[-0.01728562],43,44,hard,minus,dotcolour,alfa,,,90,21,M,R,
136,10,10,3,1,47,33,1150,['c'],1,left,['0'],6,325,[0.16286629],93,47,medium,minus,dotcolour,alfa,,,90,21,M,R,
137,11,11,3,1,47,33,999,['c'],1,left,['0'],6,274,[0.11194802],87,47,medium,minus,dotcolour,alfa,,,90,21,M,R,
138,12,12,3,1,53,27,650,['c'],1,left,['0'],6,245,[0.12424277],91,53,easy,minus,dotcolour,alfa,,,90,21,M,R,
139,13,13,3,1,27,53,600,['n'],1,right,['0'],6,348,[-0.0988493],82,53,easy,minus,dotcolour,alfa,,,90,21,M,R,
140,14,14,3,1,36,44,1333,['n'],1,right,['9'],5,875,[-0.16019925],82,44,hard,minus,dotcolour,alfa,,,90,21,M,R,
141,15,15,3,1,53,27,650,['c'],1,left,['0'],6,278,[0.10896465],87,53,easy,minus,dotcolour,alfa,,,90,21,M,R,
142,16,16,3,1,44,36,683,['c'],1,left,['0'],6,338,[0.16265477],93,44,hard,minus,dotcolour,alfa,,,90,21,M,R,
143,17,17,3,1,33,47,766,['n'],1,right,['9'],5,846,[-0.01990049],55,47,medium,minus,dotcolour,alfa,,,90,21,M,R,
144,18,18,3,1,27,53,1017,['n'],1,right,['0'],6,1261,[-0.36261187],95,53,easy,minus,dotcolour,alfa,,,90,21,M,R,
145,19,19,3,1,36,44,1300,['c'],0,right,['9'],5,752,[0.04295515],61,44,hard,minus,dotcolour,alfa,,,90,21,M,R,
146,20,20,3,1,47,33,2233,['c'],1,left,['9'],5,1266,[0.19340952],82,47,medium,minus,dotcolour,alfa,,,90,21,M,R,
147,21,21,3,1,36,44,883,['n'],1,right,['9'],5,1140,[-0.04445717],59,44,hard,minus,dotcolour,alfa,,,90,21,M,R,
148,22,22,3,1,47,33,2850,['c'],1,left,['9'],5,613,[0.03954982],61,47,medium,minus,dotcolour,alfa,,,90,21,M,R,
149,23,23,3,1,53,27,784,['c'],1,left,['0'],6,743,[0.12471484],79,53,easy,minus,dotcolour,alfa,,,90,21,M,R,
150,24,24,3,1,27,53,717,['n'],1,right,['0'],6,245,[-0.12461427],91,53,easy,minus,dotcolour,alfa,,,90,21,M,R,
151,25,25,3,1,33,47,2317,['n'],1,right,['0'],6,304,[-0.14720464],92,47,medium,minus,dotcolour,alfa,,,90,21,M,R,
152,26,26,3,1,44,36,2501,['c'],1,left,['9'],5,625,[0.08224603],72,44,hard,minus,dotcolour,alfa,,,90,21,M,R,
153,27,27,3,1,36,44,2450,['c'],0,right,['9'],5,560,[0.08281038],73,44,hard,minus,dotcolour,alfa,,,90,21,M,R,
154,28,28,3,1,33,47,1984,['c'],0,right,['0'],6,435,[0.07206008],73,47,medium,minus,dotcolour,alfa,,,90,21,M,R,
155,29,29,3,1,27,53,634,['n'],1,right,['0'],6,266,[-0.07202323],78,53,easy,minus,dotcolour,alfa,,,90,21,M,R,
156,30,30,3,1,33,47,3116,['n'],1,right,['8'],4,1219,[-0.09094186],68,47,medium,minus,dotcolour,alfa,,,90,21,M,R,
157,31,31,3,1,53,27,3684,['c'],1,left,['9'],5,1136,[0.33971078],95,53,easy,minus,dotcolour,alfa,,,90,21,M,R,
158,32,32,3,1,44,36,850,['c'],1,left,['9'],5,1218,[0.19191729],83,44,hard,minus,dotcolour,alfa,,,90,21,M,R,
159,33,33,3,1,33,47,799,['n'],1,right,['9'],5,337,[-0.12206735],87,47,medium,minus,dotcolour,alfa,,,90,21,M,R,
160,34,34,3,1,47,33,883,['c'],1,left,['9'],5,1450,[0.1740133],79,47,medium,minus,dotcolour,alfa,,,90,21,M,R,
161,35,35,3,1,36,44,3001,['c'],0,right,['0'],6,329,[0.03879231],65,44,hard,minus,dotcolour,alfa,,,90,21,M,R,
162,36,36,3,1,44,36,750,['c'],1,left,['0'],6,247,[0.16735825],95,44,hard,minus,dotcolour,alfa,,,90,21,M,R,
163,37,37,3,1,33,47,850,['n'],1,right,['0'],6,268,[-0.03083918],63,47,medium,minus,dotcolour,alfa,,,90,21,M,R,
164,38,38,3,1,27,53,1067,['n'],1,right,['0'],6,520,[-0.0199213],56,53,easy,minus,dotcolour,alfa,,,90,21,M,R,
165,39,39,3,1,47,33,816,['c'],1,left,['0'],6,275,[0.13706745],91,47,medium,minus,dotcolour,alfa,,,90,21,M,R,
166,40,40,3,1,33,47,867,['n'],1,right,['0'],6,343,[-0.01833039],57,47,medium,minus,dotcolour,alfa,,,90,21,M,R,
167,41,41,3,1,44,36,1417,['c'],1,left,['9'],5,2074,[0.08671256],63,44,hard,minus,dotcolour,alfa,,,90,21,M,R,
168,42,0,4,1,27,53,717,['n'],1,right,['0'],6,362,[-0.19173672],95,53,easy,minus,dotcolour,alfa,,,90,21,M,R,
169,43,1,4,1,27,53,1300,['n'],1,right,['0'],6,297,[-0.05647017],72,53,easy,minus,dotcolour,alfa,,,90,21,M,R,
170,44,2,4,1,27,53,1000,['c'],0,right,['0'],6,198,[0.03746708],68,53,easy,minus,dotcolour,alfa,,,90,21,M,R,
171,45,3,4,1,27,53,817,['n'],1,right,['0'],6,263,[-0.15199213],94,53,easy,minus,dotcolour,alfa,,,90,21,M,R,
172,46,4,4,1,47,33,1034,['c'],1,left,['9'],5,436,[0.14087472],87,47,medium,minus,dotcolour,alfa,,,90,21,M,R,
173,47,5,4,1,47,33,1116,['c'],1,left,['9'],5,368,[0.20992297],96,47,medium,minus,dotcolour,alfa,,,90,21,M,R,
174,48,6,4,1,47,33,749,['c'],1,left,['0'],6,173,[0.07396819],83,47,medium,minus,dotcolour,alfa,,,90,21,M,R,
175,49,7,4,1,33,47,750,['n'],1,right,['0'],6,297,[-0.10032037],84,47,medium,minus,dotcolour,alfa,,,90,21,M,R,
176,50,8,4,1,33,47,801,['n'],1,right,['0'],6,263,[-0.03228378],64,47,medium,minus,dotcolour,alfa,,,90,21,M,R,
177,51,9,4,1,33,47,2400,['n'],1,right,['0'],6,581,[-0.3200162],98,47,medium,minus,dotcolour,alfa,,,90,21,M,R,
178,52,10,4,1,36,44,1117,['c'],0,right,['0'],6,258,[0.14749579],93,44,hard,minus,dotcolour,alfa,,,90,21,M,R,
179,53,11,4,1,36,44,1051,['n'],1,right,['0'],6,255,[0.04258748],32,44,hard,minus,dotcolour,alfa,,,90,21,M,R,
180,54,12,4,1,36,44,916,['c'],0,right,['9'],5,834,[0.07995214],69,44,hard,minus,dotcolour,alfa,,,90,21,M,R,
181,55,13,4,1,27,53,667,['n'],1,right,['0'],6,359,[-0.10543335],83,53,easy,minus,dotcolour,alfa,,,90,21,M,R,
182,56,14,4,1,27,53,700,['n'],1,right,['0'],6,262,[-0.08724285],82,53,easy,minus,dotcolour,alfa,,,90,21,M,R,
183,57,15,4,1,36,44,667,['c'],0,right,['9'],5,418,[0.06406426],71,44,hard,minus,dotcolour,alfa,,,90,21,M,R,
184,58,16,4,1,47,33,1034,['c'],1,left,['8'],4,2417,[0.11884623],67,47,medium,minus,dotcolour,alfa,,,90,21,M,R,
185,59,17,4,1,36,44,1700,['c'],0,right,['9'],5,429,[0.1149552],83,44,hard,minus,dotcolour,alfa,,,90,21,M,R,
186,60,18,4,1,44,36,1250,['c'],1,left,['9'],5,748,[0.11756853],77,44,hard,minus,dotcolour,alfa,,,90,21,M,R,
187,61,19,4,1,47,33,683,['c'],1,left,['0'],6,355,[0.24850052],98,47,medium,minus,dotcolour,alfa,,,90,21,M,R,
188,62,20,4,1,53,27,717,['c'],1,left,['0'],6,153,[0.09548279],90,53,easy,minus,dotcolour,alfa,,,90,21,M,R,
189,63,21,4,1,36,44,2266,['c'],0,right,['8'],4,210,[0.07161429],80,44,hard,minus,dotcolour,alfa,,,90,21,M,R,
190,64,22,4,1,33,47,1250,['n'],1,right,['9'],5,912,[-0.15668367],81,47,medium,minus,dotcolour,alfa,,,90,21,M,R,
191,65,23,4,1,33,47,3332,['n'],1,right,['8'],4,392,[-0.1228522],85,47,medium,minus,dotcolour,alfa,,,90,21,M,R,
192,66,24,4,1,33,47,884,['c'],0,right,['9'],5,3478,[0.02860211],53,47,medium,minus,dotcolour,alfa,,,90,21,M,R,
193,67,25,4,1,53,27,817,['c'],1,left,['9'],5,1794,[0.33102812],90,53,easy,minus,dotcolour,alfa,,,90,21,M,R,
194,68,26,4,1,44,36,1317,['c'],1,left,['0'],6,335,[0.24107147],98,44,hard,minus,dotcolour,alfa,,,90,21,M,R,
195,69,27,4,1,44,36,1000,['c'],1,left,['0'],6,210,[0.04956771],73,44,hard,minus,dotcolour,alfa,,,90,21,M,R,
196,70,28,4,1,44,36,734,['c'],1,left,['0'],6,222,[0.05517252],74,44,hard,minus,dotcolour,alfa,,,90,21,M,R,
197,71,29,4,1,53,27,717,['c'],1,left,['0'],6,346,[0.24331131],98,53,easy,minus,dotcolour,alfa,,,90,21,M,R,
198,72,30,4,1,27,53,2984,['n'],1,right,['0'],6,750,[-0.22800153],91,53,easy,minus,dotcolour,alfa,,,90,21,M,R,
199,73,31,4,1,47,33,2884,['c'],1,left,['0'],6,254,[0.12915715],91,47,medium,minus,dotcolour,alfa,,,90,21,M,R,
200,74,32,4,1,44,36,850,['c'],1,left,['0'],6,315,[0.0539139],70,44,hard,minus,dotcolour,alfa,,,90,21,M,R,
201,75,33,4,1,53,27,684,['c'],1,left,['0'],6,172,[0.08728075],87,53,easy,minus,dotcolour,alfa,,,90,21,M,R,
202,76,34,4,1,53,27,701,['c'],1,left,['0'],6,259,[0.16760727],95,53,easy,minus,dotcolour,alfa,,,90,21,M,R,
203,77,35,4,1,33,47,1000,['n'],1,right,['8'],4,770,[-0.37731992],98,47,medium,minus,dotcolour,alfa,,,90,21,M,R,
204,78,36,4,1,36,44,2400,['n'],1,right,['9'],5,868,[-0.12918853],78,44,hard,minus,dotcolour,alfa,,,90,21,M,R,
205,79,37,4,1,53,27,883,['c'],1,left,['0'],6,351,[0.10691106],84,53,easy,minus,dotcolour,alfa,,,90,21,M,R,
206,80,38,4,1,53,27,784,['c'],1,left,['0'],6,339,[0.04797163],68,53,easy,minus,dotcolour,alfa,,,90,21,M,R,
207,81,39,4,1,47,33,749,['c'],1,left,['0'],6,184,[0.08624916],86,47,medium,minus,dotcolour,alfa,,,90,21,M,R,
208,82,40,4,1,44,36,617,['c'],1,left,['0'],6,282,[-0.03453478],36,44,hard,minus,dotcolour,alfa,,,90,21,M,R,
209,83,41,4,1,44,36,1250,['c'],1,left,['0'],6,198,[0.03010073],65,44,hard,minus,dotcolour,alfa,,,90,21,M,R,
210,84,0,5,1,44,36,901,['c'],1,left,['0'],6,256,[0.10317728],86,44,hard,minus,dotcolour,alfa,,,90,21,M,R,
211,85,1,5,1,44,36,849,['c'],1,left,['0'],6,158,[0.09406882],89,44,hard,minus,dotcolour,alfa,,,90,21,M,R,
212,86,2,5,1,44,36,650,['c'],1,left,['0'],6,214,[0.02670574],63,44,hard,minus,dotcolour,alfa,,,90,21,M,R,
213,87,3,5,1,27,53,1000,['n'],1,right,['0'],6,671,[-0.22095649],92,53,easy,minus,dotcolour,alfa,,,90,21,M,R,
214,88,4,5,1,44,36,950,['c'],1,left,['9'],5,351,[0.07279721],75,44,hard,minus,dotcolour,alfa,,,90,21,M,R,
215,89,5,5,1,33,47,1183,['n'],1,right,['0'],6,419,[-0.2043483],94,47,medium,minus,dotcolour,alfa,,,90,21,M,R,
216,90,6,5,1,36,44,2067,['n'],1,right,['0'],6,313,[0.01036558],46,44,hard,minus,dotcolour,alfa,,,90,21,M,R,
217,91,7,5,1,47,33,833,['c'],1,left,['9'],5,388,[0.00922275],53,47,medium,minus,dotcolour,alfa,,,90,21,M,R,
218,92,8,5,1,36,44,1117,['c'],0,right,['3'],3,2353,[-0.36285831],11,44,hard,minus,dotcolour,alfa,,,90,21,M,R,
219,93,9,5,1,33,47,1867,['n'],1,right,['9'],5,377,[-0.08919283],79,47,medium,minus,dotcolour,alfa,,,90,21,M,R,
220,94,10,5,1,44,36,1317,['c'],1,left,['0'],6,318,[0.07441915],77,44,hard,minus,dotcolour,alfa,,,90,21,M,R,
221,95,11,5,1,44,36,767,['c'],1,left,['0'],6,300,[0.06345312],74,44,hard,minus,dotcolour,alfa,,,90,21,M,R,
222,96,12,5,1,53,27,699,['c'],1,left,['0'],6,173,[0.08899898],87,53,easy,minus,dotcolour,alfa,,,90,21,M,R,
223,97,13,5,1,53,27,634,['c'],1,left,['0'],6,230,[0.11190688],89,53,easy,minus,dotcolour,alfa,,,90,21,M,R,
224,98,14,5,1,53,27,616,['c'],1,left,['0'],6,221,[0.07044854],79,53,easy,minus,dotcolour,alfa,,,90,21,M,R,
225,99,15,5,1,53,27,549,['c'],1,left,['0'],6,313,[0.17941004],95,53,easy,minus,dotcolour,alfa,,,90,21,M,R,
226,100,16,5,1,53,27,549,['c'],1,left,['0'],6,191,[0.11893731],92,53,easy,minus,dotcolour,alfa,,,90,21,M,R,
227,101,17,5,1,36,44,1233,['n'],1,right,['0'],6,271,[-0.11931723],89,44,hard,minus,dotcolour,alfa,,,90,21,M,R,
228,102,18,5,1,36,44,3650,['c'],0,right,['8'],4,331,[0.11108429],85,44,hard,minus,dotcolour,alfa,,,90,21,M,R,
229,103,19,5,1,36,44,950,['n'],1,right,['8'],4,1705,[-0.17503576],77,44,hard,minus,dotcolour,alfa,,,90,21,M,R,
230,104,20,5,1,47,33,2249,['c'],1,left,['9'],5,308,[0.09691399],83,47,medium,minus,dotcolour,alfa,,,90,21,M,R,
231,105,21,5,1,33,47,1884,['n'],1,right,['9'],5,310,[-0.09559424],82,47,medium,minus,dotcolour,alfa,,,90,21,M,R,
232,106,22,5,1,47,33,916,['c'],1,left,['0'],6,590,[0.12541324],81,47,medium,minus,dotcolour,alfa,,,90,21,M,R,
233,107,23,5,1,47,33,1667,['c'],1,left,['0'],6,236,[0.11310868],89,47,medium,minus,dotcolour,alfa,,,90,21,M,R,
234,108,24,5,1,27,53,716,['n'],1,right,['0'],6,352,[-0.10339782],83,53,easy,minus,dotcolour,alfa,,,90,21,M,R,
235,109,25,5,1,27,53,818,['n'],1,right,['0'],6,274,[-0.13550876],91,53,easy,minus,dotcolour,alfa,,,90,21,M,R,
236,110,26,5,1,47,33,916,['c'],1,left,['0'],6,228,[0.04782745],71,47,medium,minus,dotcolour,alfa,,,90,21,M,R,
237,111,27,5,1,33,47,1267,['n'],1,right,['0'],6,761,[-0.21190164],90,47,medium,minus,dotcolour,alfa,,,90,21,M,R,
238,112,28,5,1,33,47,1117,['n'],1,right,['0'],6,175,[-0.10157749],90,47,medium,minus,dotcolour,alfa,,,90,21,M,R,
239,113,29,5,1,47,33,684,['c'],1,left,['0'],6,254,[0.13044678],91,47,medium,minus,dotcolour,alfa,,,90,21,M,R,
240,114,30,5,1,36,44,3450,['n'],1,right,['9'],5,1443,[-0.11338416],70,44,hard,minus,dotcolour,alfa,,,90,21,M,R,
241,115,31,5,1,53,27,650,['c'],1,left,['0'],6,304,[0.1224466],88,53,easy,minus,dotcolour,alfa,,,90,21,M,R,
242,116,32,5,1,53,27,1184,['c'],1,left,['0'],6,255,[0.11781233],89,53,easy,minus,dotcolour,alfa,,,90,21,M,R,
243,117,33,5,1,33,47,750,['n'],1,right,['0'],6,904,[-0.04323118],60,47,medium,minus,dotcolour,alfa,,,90,21,M,R,
244,118,34,5,1,47,33,1117,['c'],1,left,['0'],6,296,[0.16419148],94,47,medium,minus,dotcolour,alfa,,,90,21,M,R,
245,119,35,5,1,27,53,750,['n'],1,right,['0'],6,247,[-0.14521181],93,53,easy,minus,dotcolour,alfa,,,90,21,M,R,
246,120,36,5,1,27,53,868,['n'],1,right,['0'],6,220,[-0.07069479],80,53,easy,minus,dotcolour,alfa,,,90,21,M,R,
247,121,37,5,1,44,36,1216,['c'],1,left,['0'],6,196,[0.06633848],79,44,hard,minus,dotcolour,alfa,,,90,21,M,R,
248,122,38,5,1,36,44,2566,['n'],1,right,['8'],4,263,[-0.18570694],96,44,hard,minus,dotcolour,alfa,,,90,21,M,R,
249,123,39,5,1,27,53,1367,['n'],1,right,['0'],6,1430,[-0.19918582],82,53,easy,minus,dotcolour,alfa,,,90,21,M,R,
250,124,40,5,1,33,47,1550,['c'],0,right,['0'],6,424,[0.1181037],84,47,medium,minus,dotcolour,alfa,,,90,21,M,R,
251,125,41,5,1,27,53,3483,['n'],1,right,['0'],6,797,[-0.19074924],87,53,easy,minus,dotcolour,alfa,,,90,21,M,R,
252,0,0,6,2,47,33,1268,['c'],1,left,['0'],6,114,[0.11478426],100,47,medium,plus,dotcolour,alfa,,,90,21,M,R,
253,1,1,6,2,47,33,634,['c'],1,left,['0'],6,117,[0.07736168],100,47,medium,plus,dotcolour,alfa,,,90,21,M,R,
254,2,2,6,2,27,53,2084,['n'],1,right,['0'],6,296,[-0.15005832],100,53,easy,plus,dotcolour,alfa,,,90,21,M,R,
255,3,3,6,2,44,36,1082,['c'],1,left,['0'],6,241,[0.12950698],100,44,hard,plus,dotcolour,alfa,,,90,21,M,R,
256,4,4,6,2,53,27,618,['c'],1,left,['0'],6,184,[0.13469409],100,53,easy,plus,dotcolour,alfa,,,90,21,M,R,
257,5,5,6,2,36,44,834,['n'],1,right,['0'],6,216,[-0.05142706],98,44,hard,plus,dotcolour,alfa,,,90,21,M,R,
258,6,6,6,2,27,53,917,['n'],1,right,['0'],6,236,[-0.13652612],100,53,easy,plus,dotcolour,alfa,,,90,21,M,R,
259,7,7,6,2,44,36,1200,['c'],1,left,['0'],6,220,[0.08021815],100,44,hard,plus,dotcolour,alfa,,,90,21,M,R,
260,8,8,6,2,44,36,835,['c'],1,left,['0'],6,220,[0.02838077],90,44,hard,plus,dotcolour,alfa,,,90,21,M,R,
261,9,9,6,2,44,36,701,['c'],1,left,['0'],6,192,[0.10768657],100,44,hard,plus,dotcolour,alfa,,,90,21,M,R,
262,10,10,6,2,53,27,634,['c'],1,left,['0'],6,168,[0.12970241],100,53,easy,plus,dotcolour,alfa,,,90,21,M,R,
263,11,11,6,2,33,47,1117,['n'],1,right,['0'],6,231,[-0.00609607],61,47,medium,plus,dotcolour,alfa,,,90,21,M,R,
264,12,12,6,2,36,44,733,['c'],0,right,['1'],1,1329,[-0.16619121],1,44,hard,plus,dotcolour,alfa,,,90,21,M,R,
265,13,13,6,2,36,44,1384,['c'],0,right,['0'],6,462,[0.07455975],98,44,hard,plus,dotcolour,alfa,,,90,21,M,R,
266,14,14,6,2,36,44,1201,['c'],0,right,['0'],6,181,[0.05130951],99,44,hard,plus,dotcolour,alfa,,,90,21,M,R,
267,15,15,6,2,27,53,750,['n'],1,right,['0'],6,329,[-0.07582601],99,53,easy,plus,dotcolour,alfa,,,90,21,M,R,
268,16,16,6,2,36,44,667,['c'],0,right,['0'],6,258,[0.10079574],100,44,hard,plus,dotcolour,alfa,,,90,21,M,R,
269,17,17,6,2,33,47,2032,['n'],1,right,['8'],4,304,[-0.07298966],99,47,medium,plus,dotcolour,alfa,,,90,21,M,R,
270,18,18,6,2,53,27,934,['c'],1,left,['0'],6,159,[0.06666785],100,53,easy,plus,dotcolour,alfa,,,90,21,M,R,
271,19,19,6,2,27,53,983,['n'],1,right,['0'],6,179,[-0.12328674],100,53,easy,plus,dotcolour,alfa,,,90,21,M,R,
272,20,20,6,2,47,33,632,['c'],1,left,['0'],6,195,[0.05771867],99,47,medium,plus,dotcolour,alfa,,,90,21,M,R,
273,21,21,6,2,47,33,551,['c'],1,left,['0'],6,207,[0.06858011],100,47,medium,plus,dotcolour,alfa,,,90,21,M,R,
274,22,22,6,2,47,33,684,['c'],1,left,['0'],6,188,[0.11483514],100,47,medium,plus,dotcolour,alfa,,,90,21,M,R,
275,23,23,6,2,33,47,817,['n'],1,right,['0'],6,197,[-0.07079116],100,47,medium,plus,dotcolour,alfa,,,90,21,M,R,
276,24,24,6,2,44,36,667,['c'],1,left,['0'],6,236,[0.10759276],100,44,hard,plus,dotcolour,alfa,,,90,21,M,R,
277,25,25,6,2,53,27,716,['c'],1,left,['0'],6,183,[0.07679322],100,53,easy,plus,dotcolour,alfa,,,90,21,M,R,
278,26,26,6,2,33,47,1750,['c'],0,right,['8'],4,155,[0.08051357],100,47,medium,plus,dotcolour,alfa,,,90,21,M,R,
279,27,27,6,2,33,47,1150,['n'],1,right,['0'],6,473,[-0.13285754],100,47,medium,plus,dotcolour,alfa,,,90,21,M,R,
280,28,28,6,2,44,36,734,['c'],1,left,['0'],6,281,[0.21075304],100,44,hard,plus,dotcolour,alfa,,,90,21,M,R,
281,29,29,6,2,44,36,934,['c'],1,left,['0'],6,195,[0.10606153],100,44,hard,plus,dotcolour,alfa,,,90,21,M,R,
282,30,30,6,2,33,47,699,['c'],0,right,['0'],6,199,[0.04141419],97,47,medium,plus,dotcolour,alfa,,,90,21,M,R,
283,31,31,6,2,27,53,667,['n'],1,right,['0'],6,214,[-0.08906383],100,53,easy,plus,dotcolour,alfa,,,90,21,M,R,
284,32,32,6,2,47,33,618,['c'],1,left,['0'],6,214,[0.08417119],100,47,medium,plus,dotcolour,alfa,,,90,21,M,R,
285,33,33,6,2,53,27,583,['c'],1,left,['0'],6,191,[0.04734358],98,53,easy,plus,dotcolour,alfa,,,90,21,M,R,
286,34,34,6,2,47,33,1282,['c'],1,left,['0'],6,173,[0.09980297],100,47,medium,plus,dotcolour,alfa,,,90,21,M,R,
287,35,35,6,2,27,53,1417,['c'],0,right,['0'],6,159,[0.05190202],99,53,easy,plus,dotcolour,alfa,,,90,21,M,R,
288,36,36,6,2,53,27,617,['c'],1,left,['0'],6,193,[0.07892389],100,53,easy,plus,dotcolour,alfa,,,90,21,M,R,
289,37,37,6,2,33,47,2816,['c'],0,right,['0'],6,137,[-0.01360197],21,47,medium,plus,dotcolour,alfa,,,90,21,M,R,
290,38,38,6,2,53,27,600,['c'],1,left,['0'],6,198,[0.0446394],97,53,easy,plus,dotcolour,alfa,,,90,21,M,R,
291,39,39,6,2,36,44,1267,['c'],0,right,['0'],6,172,[0.05710998],99,44,hard,plus,dotcolour,alfa,,,90,21,M,R,
292,40,40,6,2,27,53,833,['n'],1,right,['0'],6,390,[-0.09955232],100,53,easy,plus,dotcolour,alfa,,,90,21,M,R,
293,41,41,6,2,36,44,684,['c'],0,right,['0'],6,147,[0.0568713],100,44,hard,plus,dotcolour,alfa,,,90,21,M,R,
294,42,0,7,2,27,53,784,['n'],1,right,['0'],6,231,[-0.02701817],88,53,easy,plus,dotcolour,alfa,,,90,21,M,R,
295,43,1,7,2,47,33,549,['c'],1,left,['0'],6,178,[0.11434803],100,47,medium,plus,dotcolour,alfa,,,90,21,M,R,
296,44,2,7,2,47,33,499,['c'],1,left,['0'],6,152,[0.01415006],79,47,medium,plus,dotcolour,alfa,,,90,21,M,R,
297,45,3,7,2,47,33,684,['c'],1,left,['0'],6,167,[0.07471414],100,47,medium,plus,dotcolour,alfa,,,90,21,M,R,
298,46,4,7,2,36,44,667,['c'],0,right,['0'],6,127,[0.01965519],88,44,hard,plus,dotcolour,alfa,,,90,21,M,R,
299,47,5,7,2,53,27,517,['c'],1,left,['0'],6,135,[0.10009001],100,53,easy,plus,dotcolour,alfa,,,90,21,M,R,
300,48,6,7,2,36,44,1383,['c'],0,right,['0'],6,115,[0.05750789],100,44,hard,plus,dotcolour,alfa,,,90,21,M,R,
301,49,7,7,2,27,53,1050,['n'],1,right,['0'],6,190,[-0.15913109],100,53,easy,plus,dotcolour,alfa,,,90,21,M,R,
302,50,8,7,2,53,27,584,['c'],1,left,['0'],6,136,[0.14120336],100,53,easy,plus,dotcolour,alfa,,,90,21,M,R,
303,51,9,7,2,36,44,2133,['n'],1,right,['8'],4,199,[-0.09178933],100,44,hard,plus,dotcolour,alfa,,,90,21,M,R,
304,52,10,7,2,53,27,534,['c'],1,left,['0'],6,115,[0.09025774],100,53,easy,plus,dotcolour,alfa,,,90,21,M,R,
305,53,11,7,2,47,33,534,['c'],1,left,['0'],6,242,[0.06672143],99,47,medium,plus,dotcolour,alfa,,,90,21,M,R,
306,54,12,7,2,44,36,568,['c'],1,left,['0'],6,220,[0.07790981],100,44,hard,plus,dotcolour,alfa,,,90,21,M,R,
307,55,13,7,2,53,27,450,['c'],1,left,['0'],6,193,[0.06102481],99,53,easy,plus,dotcolour,alfa,,,90,21,M,R,
308,56,14,7,2,53,27,384,['c'],1,left,['0'],6,195,[0.13967593],100,53,easy,plus,dotcolour,alfa,,,90,21,M,R,
309,57,15,7,2,44,36,333,['c'],1,left,['0'],6,184,[0.07352661],100,44,hard,plus,dotcolour,alfa,,,90,21,M,R,
310,58,16,7,2,36,44,367,['c'],0,right,['0'],6,267,[0.04330997],95,44,hard,plus,dotcolour,alfa,,,90,21,M,R,
311,59,17,7,2,27,53,718,['n'],1,right,['0'],6,229,[-0.11364444],100,53,easy,plus,dotcolour,alfa,,,90,21,M,R,
312,60,18,7,2,27,53,717,['n'],1,right,['0'],6,248,[-0.14462252],100,53,easy,plus,dotcolour,alfa,,,90,21,M,R,
313,61,19,7,2,36,44,3199,['c'],0,right,['0'],6,152,[0.05785773],100,44,hard,plus,dotcolour,alfa,,,90,21,M,R,
314,62,20,7,2,47,33,583,['c'],1,left,['0'],6,220,[0.12162469],100,47,medium,plus,dotcolour,alfa,,,90,21,M,R,
315,63,21,7,2,53,27,700,['c'],1,left,['0'],6,224,[0.14455408],100,53,easy,plus,dotcolour,alfa,,,90,21,M,R,
316,64,22,7,2,27,53,966,['n'],1,right,['0'],6,226,[-0.13105491],100,53,easy,plus,dotcolour,alfa,,,90,21,M,R,
317,65,23,7,2,36,44,2234,['n'],1,right,['0'],6,336,[-0.11001808],100,44,hard,plus,dotcolour,alfa,,,90,21,M,R,
318,66,24,7,2,44,36,1450,['c'],1,left,['0'],6,242,[0.14703429],100,44,hard,plus,dotcolour,alfa,,,90,21,M,R,
319,67,25,7,2,44,36,1334,['c'],1,left,['0'],6,148,[-0.01012117],28,44,hard,plus,dotcolour,alfa,,,90,21,M,R,
320,68,26,7,2,36,44,1117,['c'],0,right,['0'],6,227,[0.07361061],100,44,hard,plus,dotcolour,alfa,,,90,21,M,R,
321,69,27,7,2,33,47,1033,['n'],1,right,['0'],6,226,[-0.10973496],100,47,medium,plus,dotcolour,alfa,,,90,21,M,R,
322,70,28,7,2,53,27,700,['c'],1,left,['0'],6,318,[0.11300256],100,53,easy,plus,dotcolour,alfa,,,90,21,M,R,
323,71,29,7,2,27,53,934,['n'],1,right,['0'],6,221,[-0.11338746],100,53,easy,plus,dotcolour,alfa,,,90,21,M,R,
324,72,30,7,2,47,33,1600,['c'],1,left,['0'],6,158,[0.08710489],100,47,medium,plus,dotcolour,alfa,,,90,21,M,R,
325,73,31,7,2,33,47,1451,['n'],1,right,['0'],6,126,[-0.04876674],99,47,medium,plus,dotcolour,alfa,,,90,21,M,R,
326,74,32,7,2,44,36,1384,['c'],1,left,['0'],6,132,[0.1172056],100,44,hard,plus,dotcolour,alfa,,,90,21,M,R,
327,75,33,7,2,33,47,1033,['n'],1,right,['0'],6,118,[-0.08506276],100,47,medium,plus,dotcolour,alfa,,,90,21,M,R,
328,76,34,7,2,44,36,751,['c'],1,left,['0'],6,165,[0.12359009],100,44,hard,plus,dotcolour,alfa,,,90,21,M,R,
329,77,35,7,2,47,33,1251,['c'],1,left,['0'],6,197,[0.11604513],100,47,medium,plus,dotcolour,alfa,,,90,21,M,R,
330,78,36,7,2,33,47,817,['n'],1,right,['0'],6,158,[-0.0847343],100,47,medium,plus,dotcolour,alfa,,,90,21,M,R,
331,79,37,7,2,27,53,734,['n'],1,right,['0'],6,195,[-0.06784051],100,53,easy,plus,dotcolour,alfa,,,90,21,M,R,
332,80,38,7,2,33,47,949,['n'],1,right,['0'],6,151,[-0.07805276],100,47,medium,plus,dotcolour,alfa,,,90,21,M,R,
333,81,39,7,2,44,36,950,['c'],1,left,['0'],6,180,[0.09815183],100,44,hard,plus,dotcolour,alfa,,,90,21,M,R,
334,82,40,7,2,33,47,1617,['n'],1,right,['0'],6,197,[-0.16771168],100,47,medium,plus,dotcolour,alfa,,,90,21,M,R,
335,83,41,7,2,33,47,1917,['c'],0,right,['0'],6,170,[0.09508542],100,47,medium,plus,dotcolour,alfa,,,90,21,M,R,
336,84,0,8,2,27,53,734,['n'],1,right,['0'],6,144,[-0.0819521],100,53,easy,plus,dotcolour,alfa,,,90,21,M,R,
337,85,1,8,2,53,27,583,['c'],1,left,['0'],6,188,[0.03579175],95,53,easy,plus,dotcolour,alfa,,,90,21,M,R,
338,86,2,8,2,53,27,633,['c'],1,left,['0'],6,140,[0.05956633],100,53,easy,plus,dotcolour,alfa,,,90,21,M,R,
339,87,3,8,2,27,53,1450,['n'],1,right,['0'],6,142,[-0.07037439],100,53,easy,plus,dotcolour,alfa,,,90,21,M,R,
340,88,4,8,2,33,47,934,['n'],1,right,['0'],6,172,[-0.08163586],100,47,medium,plus,dotcolour,alfa,,,90,21,M,R,
341,89,5,8,2,44,36,783,['c'],1,left,['0'],6,151,[0.16974977],100,44,hard,plus,dotcolour,alfa,,,90,21,M,R,
342,90,6,8,2,36,44,1217,['n'],1,right,['0'],6,130,[-0.10871381],100,44,hard,plus,dotcolour,alfa,,,90,21,M,R,
343,91,7,8,2,53,27,901,['c'],1,left,['0'],6,218,[0.1530384],100,53,easy,plus,dotcolour,alfa,,,90,21,M,R,
344,92,8,8,2,44,36,766,['c'],1,left,['0'],6,132,[0.10532589],100,44,hard,plus,dotcolour,alfa,,,90,21,M,R,
345,93,9,8,2,33,47,934,['n'],1,right,['0'],6,163,[-0.04043425],97,47,medium,plus,dotcolour,alfa,,,90,21,M,R,
346,94,10,8,2,33,47,867,['n'],1,right,['0'],6,163,[-0.09289345],100,47,medium,plus,dotcolour,alfa,,,90,21,M,R,
347,95,11,8,2,47,33,2199,['c'],1,left,['0'],6,614,[0.20595154],100,47,medium,plus,dotcolour,alfa,,,90,21,M,R,
348,96,12,8,2,47,33,667,['c'],1,left,['0'],6,132,[0.06713335],100,47,medium,plus,dotcolour,alfa,,,90,21,M,R,
349,97,13,8,2,27,53,734,['n'],1,right,['0'],6,178,[-0.1472757],100,53,easy,plus,dotcolour,alfa,,,90,21,M,R,
350,98,14,8,2,44,36,1534,['c'],1,left,['0'],6,271,[0.10489832],100,44,hard,plus,dotcolour,alfa,,,90,21,M,R,
351,99,15,8,2,36,44,933,['n'],1,right,['0'],6,144,[-0.07199109],100,44,hard,plus,dotcolour,alfa,,,90,21,M,R,
352,100,16,8,2,33,47,767,['n'],1,right,['0'],6,165,[-0.12736887],100,47,medium,plus,dotcolour,alfa,,,90,21,M,R,
353,101,17,8,2,47,33,1118,['c'],1,left,['0'],6,195,[0.16572191],100,47,medium,plus,dotcolour,alfa,,,90,21,M,R,
354,102,18,8,2,47,33,750,['c'],1,left,['0'],6,222,[0.18054248],100,47,medium,plus,dotcolour,alfa,,,90,21,M,R,
355,103,19,8,2,36,44,2734,['c'],0,right,['0'],6,153,[0.11744184],100,44,hard,plus,dotcolour,alfa,,,90,21,M,R,
356,104,20,8,2,44,36,633,['c'],1,left,['0'],6,243,[0.15343085],100,44,hard,plus,dotcolour,alfa,,,90,21,M,R,
357,105,21,8,2,33,47,817,['n'],1,right,['0'],6,242,[-0.21048576],100,47,medium,plus,dotcolour,alfa,,,90,21,M,R,
358,106,22,8,2,36,44,1367,['c'],0,right,['0'],6,187,[0.06853661],100,44,hard,plus,dotcolour,alfa,,,90,21,M,R,
359,107,23,8,2,36,44,1016,['n'],1,right,['0'],6,180,[-0.07412348],100,44,hard,plus,dotcolour,alfa,,,90,21,M,R,
360,108,24,8,2,27,53,800,['n'],1,right,['0'],6,182,[-0.06968255],100,53,easy,plus,dotcolour,alfa,,,90,21,M,R,
361,109,25,8,2,47,33,734,['c'],1,left,['0'],6,203,[0.10585369],100,47,medium,plus,dotcolour,alfa,,,90,21,M,R,
362,110,26,8,2,27,53,700,['n'],1,right,['0'],6,176,[-0.13631203],100,53,easy,plus,dotcolour,alfa,,,90,21,M,R,
363,111,27,8,2,44,36,1750,['c'],1,left,['0'],6,188,[0.08233284],100,44,hard,plus,dotcolour,alfa,,,90,21,M,R,
364,112,28,8,2,27,53,784,['n'],1,right,['0'],6,199,[-0.08093579],100,53,easy,plus,dotcolour,alfa,,,90,21,M,R,
365,113,29,8,2,27,53,1084,['n'],1,right,['0'],6,277,[-0.08345906],100,53,easy,plus,dotcolour,alfa,,,90,21,M,R,
366,114,30,8,2,53,27,900,['c'],1,left,['0'],6,215,[0.10600423],100,53,easy,plus,dotcolour,alfa,,,90,21,M,R,
367,115,31,8,2,53,27,1783,['c'],1,left,['0'],6,176,[0.04274339],98,53,easy,plus,dotcolour,alfa,,,90,21,M,R,
368,116,32,8,2,36,44,1184,['n'],1,right,['0'],6,171,[-0.07543079],100,44,hard,plus,dotcolour,alfa,,,90,21,M,R,
369,117,33,8,2,44,36,900,['c'],1,left,['0'],6,209,[0.05593765],99,44,hard,plus,dotcolour,alfa,,,90,21,M,R,
370,118,34,8,2,44,36,850,['c'],1,left,['0'],6,216,[0.10079323],100,44,hard,plus,dotcolour,alfa,,,90,21,M,R,
371,119,35,8,2,53,27,616,['c'],1,left,['0'],6,152,[0.14187423],100,53,easy,plus,dotcolour,alfa,,,90,21,M,R,
372,120,36,8,2,47,33,1383,['c'],1,left,['0'],6,204,[0.09368833],100,47,medium,plus,dotcolour,alfa,,,90,21,M,R,
373,121,37,8,2,53,27,600,['c'],1,left,['0'],6,230,[0.13724252],100,53,easy,plus,dotcolour,alfa,,,90,21,M,R,
374,122,38,8,2,33,47,800,['n'],1,right,['0'],6,197,[-0.07415832],100,47,medium,plus,dotcolour,alfa,,,90,21,M,R,
375,123,39,8,2,36,44,817,['c'],0,right,['0'],6,182,[0.03904394],96,44,hard,plus,dotcolour,alfa,,,90,21,M,R,
376,124,40,8,2,33,47,1050,['n'],1,right,['0'],6,286,[-0.09739517],100,47,medium,plus,dotcolour,alfa,,,90,21,M,R,
377,125,41,8,2,47,33,733,['c'],1,left,['0'],6,271,[0.10040771],100,47,medium,plus,dotcolour,alfa,,,90,21,M,R,
378,0,0,9,3,44,36,1351,['c'],1,left,['0'],6,404,[0.20040118],94,44,hard,minus,dotcolour,alfa,,,90,21,M,R,
379,1,1,9,3,27,53,550,['n'],1,right,['0'],6,239,[-0.03897583],67,53,easy,minus,dotcolour,alfa,,,90,21,M,R,
380,2,2,9,3,33,47,717,['n'],1,right,['0'],6,210,[-0.11710323],91,47,medium,minus,dotcolour,alfa,,,90,21,M,R,
381,3,3,9,3,47,33,850,['c'],1,left,['0'],6,216,[0.10779737],89,47,medium,minus,dotcolour,alfa,,,90,21,M,R,
382,4,4,9,3,33,47,3216,['n'],1,right,['0'],6,240,[-0.00238126],51,47,medium,minus,dotcolour,alfa,,,90,21,M,R,
383,5,5,9,3,53,27,618,['c'],1,left,['0'],6,207,[0.11476261],91,53,easy,minus,dotcolour,alfa,,,90,21,M,R,
384,6,6,9,3,27,53,601,['n'],1,right,['0'],6,240,[-0.12187837],90,53,easy,minus,dotcolour,alfa,,,90,21,M,R,
385,7,7,9,3,33,47,1634,['c'],0,right,['0'],6,150,[0.00070644],50,47,medium,minus,dotcolour,alfa,,,90,21,M,R,
386,8,8,9,3,33,47,900,['c'],0,right,['0'],6,213,[0.10875303],89,47,medium,minus,dotcolour,alfa,,,90,21,M,R,
387,9,9,9,3,36,44,600,['n'],1,right,['0'],6,238,[-0.06071126],75,44,hard,minus,dotcolour,alfa,,,90,21,M,R,
388,10,10,9,3,53,27,767,['c'],1,left,['0'],6,247,[0.10864663],88,53,easy,minus,dotcolour,alfa,,,90,21,M,R,
389,11,11,9,3,36,44,1583,['c'],0,right,['8'],4,127,[0.08442903],89,44,hard,minus,dotcolour,alfa,,,90,21,M,R,
390,12,12,9,3,27,53,650,['n'],1,right,['0'],6,249,[-0.14718975],93,53,easy,minus,dotcolour,alfa,,,90,21,M,R,
391,13,13,9,3,36,44,1468,['c'],0,right,['0'],6,238,[0.04500858],70,44,hard,minus,dotcolour,alfa,,,90,21,M,R,
392,14,14,9,3,33,47,800,['n'],1,right,['0'],6,206,[-0.09352401],86,47,medium,minus,dotcolour,alfa,,,90,21,M,R,
393,15,15,9,3,44,36,1550,['c'],1,left,['0'],6,272,[0.01937684],58,44,hard,minus,dotcolour,alfa,,,90,21,M,R,
394,16,16,9,3,47,33,1934,['c'],1,left,['0'],6,137,[0.09111178],90,47,medium,minus,dotcolour,alfa,,,90,21,M,R,
395,17,17,9,3,27,53,700,['n'],1,right,['0'],6,201,[-0.04951413],73,53,easy,minus,dotcolour,alfa,,,90,21,M,R,
396,18,18,9,3,36,44,2133,['c'],0,right,['8'],4,149,[-0.01402061],42,44,hard,minus,dotcolour,alfa,,,90,21,M,R,
397,19,19,9,3,47,33,900,['c'],1,left,['0'],6,157,[0.09695591],90,47,medium,minus,dotcolour,alfa,,,90,21,M,R,
398,20,20,9,3,53,27,616,['c'],1,left,['0'],6,150,[0.05190035],77,53,easy,minus,dotcolour,alfa,,,90,21,M,R,
399,21,21,9,3,44,36,733,['c'],1,left,['0'],6,164,[0.02276102],62,44,hard,minus,dotcolour,alfa,,,90,21,M,R,
400,22,22,9,3,33,47,967,['n'],1,right,['0'],6,168,[-0.09738729],89,47,medium,minus,dotcolour,alfa,,,90,21,M,R,
401,23,23,9,3,36,44,2850,['n'],1,right,['0'],6,129,[-0.09265717],91,44,hard,minus,dotcolour,alfa,,,90,21,M,R,
402,24,24,9,3,53,27,550,['c'],1,left,['0'],6,143,[0.13608823],96,53,easy,minus,dotcolour,alfa,,,90,21,M,R,
403,25,25,9,3,44,36,934,['c'],1,left,['0'],6,117,[0.06459067],85,44,hard,minus,dotcolour,alfa,,,90,21,M,R,
404,26,26,9,3,27,53,668,['n'],1,right,['0'],6,175,[-0.04768499],74,53,easy,minus,dotcolour,alfa,,,90,21,M,R,
405,27,27,9,3,33,47,1534,['n'],1,right,['0'],6,180,[-0.03131627],66,47,medium,minus,dotcolour,alfa,,,90,21,M,R,
406,28,28,9,3,36,44,1733,['n'],1,right,['0'],6,241,[-0.0900015],84,44,hard,minus,dotcolour,alfa,,,90,21,M,R,
407,29,29,9,3,44,36,832,['c'],1,left,['0'],6,175,[0.13474866],95,44,hard,minus,dotcolour,alfa,,,90,21,M,R,
408,30,30,9,3,44,36,700,['c'],1,left,['0'],6,173,[0.03417145],68,44,hard,minus,dotcolour,alfa,,,90,21,M,R,
409,31,31,9,3,53,27,567,['c'],1,left,['0'],6,168,[0.11999169],93,53,easy,minus,dotcolour,alfa,,,90,21,M,R,
410,32,32,9,3,47,33,616,['c'],1,left,['0'],6,202,[0.17037336],97,47,medium,minus,dotcolour,alfa,,,90,21,M,R,
411,33,33,9,3,36,44,733,['c'],0,right,['0'],6,215,[-0.0051793],47,44,hard,minus,dotcolour,alfa,,,90,21,M,R,
412,34,34,9,3,47,33,566,['c'],1,left,['0'],6,169,[0.11640578],93,47,medium,minus,dotcolour,alfa,,,90,21,M,R,
413,35,35,9,3,47,33,633,['c'],1,left,['0'],6,187,[0.15199606],96,47,medium,minus,dotcolour,alfa,,,90,21,M,R,
414,36,36,9,3,53,27,617,['c'],1,left,['0'],6,180,[0.1324649],94,53,easy,minus,dotcolour,alfa,,,90,21,M,R,
415,37,37,9,3,44,36,935,['c'],1,left,['0'],6,193,[0.05121785],74,44,hard,minus,dotcolour,alfa,,,90,21,M,R,
416,38,38,9,3,27,53,867,['n'],1,right,['0'],6,143,[-0.03862179],71,53,easy,minus,dotcolour,alfa,,,90,21,M,R,
417,39,39,9,3,53,27,551,['c'],1,left,['0'],6,100,[0.1230801],97,53,easy,minus,dotcolour,alfa,,,90,21,M,R,
418,40,40,9,3,27,53,683,['n'],1,right,['0'],6,150,[-0.14822413],97,53,easy,minus,dotcolour,alfa,,,90,21,M,R,
419,41,41,9,3,47,33,550,['c'],1,left,['0'],6,131,[0.09255965],91,47,medium,minus,dotcolour,alfa,,,90,21,M,R,
420,42,0,10,3,47,33,666,['c'],1,left,['0'],6,128,[0.03177288],69,47,medium,minus,dotcolour,alfa,,,90,21,M,R,
421,43,1,10,3,53,27,483,['c'],1,left,['0'],6,153,[0.02054324],62,53,easy,minus,dotcolour,alfa,,,90,21,M,R,
422,44,2,10,3,36,44,1533,['c'],0,right,['0'],6,95,[0.07168199],89,44,hard,minus,dotcolour,alfa,,,90,21,M,R,
423,45,3,10,3,53,27,634,['c'],1,left,['0'],6,203,[-0.04092544],31,53,easy,minus,dotcolour,alfa,,,90,21,M,R,
424,46,4,10,3,33,47,766,['n'],1,right,['0'],6,133,[-0.12522386],96,47,medium,minus,dotcolour,alfa,,,90,21,M,R,
425,47,5,10,3,33,47,2884,['n'],1,right,['0'],6,110,[-0.07364565],88,47,medium,minus,dotcolour,alfa,,,90,21,M,R,
426,48,6,10,3,47,33,667,['c'],1,left,['0'],6,104,[0.03156383],71,47,medium,minus,dotcolour,alfa,,,90,21,M,R,
427,49,7,10,3,44,36,1183,['c'],1,left,['0'],6,102,[0.06280847],85,44,hard,minus,dotcolour,alfa,,,90,21,M,R,
428,50,8,10,3,27,53,684,['n'],1,right,['0'],6,120,[-0.12117827],96,53,easy,minus,dotcolour,alfa,,,90,21,M,R,
429,51,9,10,3,27,53,783,['n'],1,right,['0'],6,141,[-0.05927599],81,53,easy,minus,dotcolour,alfa,,,90,21,M,R,
430,52,10,10,3,36,44,1201,['c'],0,right,['0'],6,160,[0.0647156],81,44,hard,minus,dotcolour,alfa,,,90,21,M,R,
431,53,11,10,3,27,53,717,['n'],1,right,['0'],6,135,[-0.11413168],94,53,easy,minus,dotcolour,alfa,,,90,21,M,R,
432,54,12,10,3,33,47,1000,['c'],0,right,['0'],6,131,[0.04681265],76,47,medium,minus,dotcolour,alfa,,,90,21,M,R,
433,55,13,10,3,47,33,883,['c'],1,left,['0'],6,131,[0.09802724],92,47,medium,minus,dotcolour,alfa,,,90,21,M,R,
434,56,14,10,3,44,36,617,['c'],1,left,['0'],6,119,[0.02395795],65,44,hard,minus,dotcolour,alfa,,,90,21,M,R,
435,57,15,10,3,27,53,901,['n'],1,right,['0'],6,111,[-0.13659223],98,53,easy,minus,dotcolour,alfa,,,90,21,M,R,
436,58,16,10,3,53,27,700,['c'],1,left,['0'],6,160,[0.16775218],98,53,easy,minus,dotcolour,alfa,,,90,21,M,R,
437,59,17,10,3,44,36,834,['c'],1,left,['0'],6,137,[0.10332222],93,44,hard,minus,dotcolour,alfa,,,90,21,M,R,
438,60,18,10,3,44,36,633,['c'],1,left,['0'],6,172,[0.11418366],92,44,hard,minus,dotcolour,alfa,,,90,21,M,R,
439,61,19,10,3,53,27,600,['c'],1,left,['0'],6,159,[0.12299907],94,53,easy,minus,dotcolour,alfa,,,90,21,M,R,
440,62,20,10,3,44,36,767,['c'],1,left,['0'],6,163,[0.09797428],90,44,hard,minus,dotcolour,alfa,,,90,21,M,R,
441,63,21,10,3,53,27,584,['c'],1,left,['0'],6,214,[0.12778251],92,53,easy,minus,dotcolour,alfa,,,90,21,M,R,
442,64,22,10,3,36,44,1501,['c'],0,right,['0'],6,171,[0.00891304],55,44,hard,minus,dotcolour,alfa,,,90,21,M,R,
443,65,23,10,3,27,53,767,['n'],1,right,['0'],6,191,[-0.11337708],91,53,easy,minus,dotcolour,alfa,,,90,21,M,R,
444,66,24,10,3,33,47,1800,['c'],0,right,['0'],6,225,[0.12577869],92,47,medium,minus,dotcolour,alfa,,,90,21,M,R,
445,67,25,10,3,53,27,716,['c'],1,left,['0'],6,212,[0.07249304],80,53,easy,minus,dotcolour,alfa,,,90,21,M,R,
446,68,26,10,3,27,53,634,['n'],1,right,['0'],6,179,[-0.0573805],77,53,easy,minus,dotcolour,alfa,,,90,21,M,R,
447,69,27,10,3,44,36,1517,['c'],1,left,['0'],6,129,[0.1246268],96,44,hard,minus,dotcolour,alfa,,,90,21,M,R,
448,70,28,10,3,33,47,766,['n'],1,right,['0'],6,110,[-0.13778794],98,47,medium,minus,dotcolour,alfa,,,90,21,M,R,
449,71,29,10,3,44,36,950,['c'],1,left,['0'],6,253,[0.08724656],83,44,hard,minus,dotcolour,alfa,,,90,21,M,R,
450,72,30,10,3,47,33,617,['c'],1,left,['0'],6,99,[0.08990002],93,47,medium,minus,dotcolour,alfa,,,90,21,M,R,
451,73,31,10,3,36,44,1750,['n'],1,right,['0'],6,218,[-0.10679646],89,44,hard,minus,dotcolour,alfa,,,90,21,M,R,
452,74,32,10,3,27,53,717,['n'],1,right,['0'],6,207,[-0.09557215],87,53,easy,minus,dotcolour,alfa,,,90,21,M,R,
453,75,33,10,3,33,47,1450,['n'],1,right,['0'],6,133,[-0.06904476],85,47,medium,minus,dotcolour,alfa,,,90,21,M,R,
454,76,34,10,3,53,27,867,['c'],1,left,['0'],6,158,[0.04928892],75,53,easy,minus,dotcolour,alfa,,,90,21,M,R,
455,77,35,10,3,36,44,1200,['c'],0,right,['0'],6,145,[0.0508528],77,44,hard,minus,dotcolour,alfa,,,90,21,M,R,
456,78,36,10,3,47,33,616,['c'],1,left,['0'],6,131,[0.11037582],94,47,medium,minus,dotcolour,alfa,,,90,21,M,R,
457,79,37,10,3,47,33,1284,['c'],1,left,['0'],6,93,[0.07022106],89,47,medium,minus,dotcolour,alfa,,,90,21,M,R,
458,80,38,10,3,33,47,1750,['c'],0,right,['0'],6,60,[0.08729136],96,47,medium,minus,dotcolour,alfa,,,90,21,M,R,
459,81,39,10,3,36,44,850,['c'],0,right,['0'],6,120,[0.07441068],87,44,hard,minus,dotcolour,alfa,,,90,21,M,R,
460,82,40,10,3,36,44,967,['c'],0,right,['0'],6,142,[0.06513538],83,44,hard,minus,dotcolour,alfa,,,90,21,M,R,
461,83,41,10,3,47,33,1484,['c'],1,left,['0'],6,110,[0.07618492],89,47,medium,minus,dotcolour,alfa,,,90,21,M,R,
462,84,0,11,3,36,44,783,['n'],1,right,['0'],6,1054,[-0.1690823],81,44,hard,minus,dotcolour,alfa,,,90,21,M,R,
463,85,1,11,3,36,44,1333,['c'],0,right,['0'],6,168,[0.07550299],84,44,hard,minus,dotcolour,alfa,,,90,21,M,R,
464,86,2,11,3,27,53,1501,['n'],1,right,['0'],6,247,[-0.08544256],82,53,easy,minus,dotcolour,alfa,,,90,21,M,R,
465,87,3,11,3,44,36,733,['c'],1,left,['0'],6,136,[0.04413662],75,44,hard,minus,dotcolour,alfa,,,90,21,M,R,
466,88,4,11,3,44,36,1117,['c'],1,left,['0'],6,176,[0.08929078],87,44,hard,minus,dotcolour,alfa,,,90,21,M,R,
467,89,5,11,3,36,44,1117,['c'],0,right,['0'],6,173,[0.05495052],77,44,hard,minus,dotcolour,alfa,,,90,21,M,R,
468,90,6,11,3,33,47,1900,['c'],0,right,['0'],6,188,[0.03862382],69,47,medium,minus,dotcolour,alfa,,,90,21,M,R,
469,91,7,11,3,47,33,583,['c'],1,left,['0'],6,118,[0.0696682],86,47,medium,minus,dotcolour,alfa,,,90,21,M,R,
470,92,8,11,3,47,33,518,['c'],1,left,['0'],6,134,[0.08038817],88,47,medium,minus,dotcolour,alfa,,,90,21,M,R,
471,93,9,11,3,27,53,633,['n'],1,right,['0'],6,184,[-0.10519263],90,53,easy,minus,dotcolour,alfa,,,90,21,M,R,
472,94,10,11,3,27,53,1700,['c'],0,right,['0'],6,199,[0.05576986],75,53,easy,minus,dotcolour,alfa,,,90,21,M,R,
473,95,11,11,3,44,36,984,['c'],1,left,['0'],6,145,[0.07702496],86,44,hard,minus,dotcolour,alfa,,,90,21,M,R,
474,96,12,11,3,36,44,1016,['c'],0,right,['0'],6,203,[0.0988265],88,44,hard,minus,dotcolour,alfa,,,90,21,M,R,
475,97,13,11,3,47,33,683,['c'],1,left,['0'],6,209,[0.08232676],83,47,medium,minus,dotcolour,alfa,,,90,21,M,R,
476,98,14,11,3,44,36,917,['c'],1,left,['0'],6,181,[0.06981517],81,44,hard,minus,dotcolour,alfa,,,90,21,M,R,
477,99,15,11,3,47,33,684,['c'],1,left,['0'],6,172,[0.03167879],67,47,medium,minus,dotcolour,alfa,,,90,21,M,R,
478,100,16,11,3,33,47,1084,['c'],0,right,['0'],6,179,[0.08041595],85,47,medium,minus,dotcolour,alfa,,,90,21,M,R,
479,101,17,11,3,44,36,668,['c'],1,left,['0'],6,194,[0.06341404],79,44,hard,minus,dotcolour,alfa,,,90,21,M,R,
480,102,18,11,3,33,47,784,['c'],0,right,['0'],6,164,[0.1055787],91,47,medium,minus,dotcolour,alfa,,,90,21,M,R,
481,103,19,11,3,44,36,617,['c'],1,left,['0'],6,158,[0.02842985],66,44,hard,minus,dotcolour,alfa,,,90,21,M,R,
482,104,20,11,3,36,44,867,['c'],0,right,['0'],6,151,[0.10040798],91,44,hard,minus,dotcolour,alfa,,,90,21,M,R,
483,105,21,11,3,47,33,683,['c'],1,left,['0'],6,151,[0.10007622],91,47,medium,minus,dotcolour,alfa,,,90,21,M,R,
484,106,22,11,3,27,53,900,['n'],1,right,['0'],6,182,[-0.09845341],89,53,easy,minus,dotcolour,alfa,,,90,21,M,R,
485,107,23,11,3,47,33,1283,['c'],1,left,['0'],6,125,[0.10469865],93,47,medium,minus,dotcolour,alfa,,,90,21,M,R,
486,108,24,11,3,33,47,1050,['n'],1,right,['0'],6,142,[-0.08661195],89,47,medium,minus,dotcolour,alfa,,,90,21,M,R,
487,109,25,11,3,53,27,867,['c'],1,left,['0'],6,135,[0.07947762],88,53,easy,minus,dotcolour,alfa,,,90,21,M,R,
488,110,26,11,3,53,27,1900,['c'],1,left,['0'],6,175,[0.0717013],82,53,easy,minus,dotcolour,alfa,,,90,21,M,R,
489,111,27,11,3,27,53,2450,['n'],1,right,['0'],6,280,[-0.05355888],71,53,easy,minus,dotcolour,alfa,,,90,21,M,R,
490,112,28,11,3,53,27,800,['c'],1,left,['0'],6,165,[0.12096488],94,53,easy,minus,dotcolour,alfa,,,90,21,M,R,
491,113,29,11,3,27,53,1400,['c'],0,right,['0'],6,168,[0.03300715],67,53,easy,minus,dotcolour,alfa,,,90,21,M,R,
492,114,30,11,3,33,47,5417,['n'],1,right,['0'],6,139,[-0.10145789],92,47,medium,minus,dotcolour,alfa,,,90,21,M,R,
493,115,31,11,3,33,47,816,['c'],0,right,['0'],6,174,[0.01343118],57,47,medium,minus,dotcolour,alfa,,,90,21,M,R,
494,116,32,11,3,53,27,2167,['c'],1,left,['0'],6,137,[0.07829093],87,53,easy,minus,dotcolour,alfa,,,90,21,M,R,
495,117,33,11,3,36,44,967,['n'],1,right,['0'],6,206,[-0.07405378],81,44,hard,minus,dotcolour,alfa,,,90,21,M,R,
496,118,34,11,3,53,27,650,['c'],1,left,['0'],6,149,[0.06284375],81,53,easy,minus,dotcolour,alfa,,,90,21,M,R,
497,119,35,11,3,36,44,867,['c'],0,right,['1'],1,1157,[-0.17447776],19,44,hard,minus,dotcolour,alfa,,,90,21,M,R,
498,120,36,11,3,47,33,1632,['c'],1,left,['0'],6,496,[0.05393226],67,47,medium,minus,dotcolour,alfa,,,90,21,M,R,
499,121,37,11,3,53,27,567,['c'],1,left,['0'],6,117,[0.11933575],96,53,easy,minus,dotcolour,alfa,,,90,21,M,R,
500,122,38,11,3,44,36,1000,['c'],1,left,['0'],6,195,[0.08928815],86,44,hard,minus,dotcolour,alfa,,,90,21,M,R,
501,123,39,11,3,53,27,1367,['c'],1,left,['0'],6,188,[0.05717153],77,53,easy,minus,dotcolour,alfa,,,90,21,M,R,
502,124,40,11,3,27,53,816,['n'],1,right,['0'],6,150,[-0.10656897],92,53,easy,minus,dotcolour,alfa,,,90,21,M,R,
503,125,41,11,3,33,47,1067,['n'],1,right,['0'],6,167,[-0.09984472],90,47,medium,minus,dotcolour,alfa,,,90,21,M,R,
504,0,0,12,4,36,44,851,['n'],1,right,['0'],6,206,[-0.1036973],100,44,hard,plus,dotcolour,alfa,,,90,21,M,R,
505,1,1,12,4,27,53,566,['n'],1,right,['0'],6,168,[-0.139008],100,53,easy,plus,dotcolour,alfa,,,90,21,M,R,
506,2,2,12,4,44,36,833,['c'],1,left,['0'],6,153,[0.059214],100,44,hard,plus,dotcolour,alfa,,,90,21,M,R,
507,3,3,12,4,33,47,1600,['c'],0,right,['0'],6,173,[0.08553111],100,47,medium,plus,dotcolour,alfa,,,90,21,M,R,
508,4,4,12,4,53,27,684,['c'],1,left,['0'],6,195,[0.16701633],100,53,easy,plus,dotcolour,alfa,,,90,21,M,R,
509,5,5,12,4,53,27,866,['c'],1,left,['0'],6,210,[0.07873105],100,53,easy,plus,dotcolour,alfa,,,90,21,M,R,
510,6,6,12,4,27,53,1267,['n'],1,right,['0'],6,216,[-0.04518759],97,53,easy,plus,dotcolour,alfa,,,90,21,M,R,
511,7,7,12,4,36,44,733,['c'],0,right,['0'],6,172,[-0.01038675],29,44,hard,plus,dotcolour,alfa,,,90,21,M,R,
512,8,8,12,4,53,27,1716,['c'],1,left,['0'],6,170,[0.08877423],100,53,easy,plus,dotcolour,alfa,,,90,21,M,R,
513,9,9,12,4,36,44,817,['c'],0,right,['0'],6,172,[0.06379881],100,44,hard,plus,dotcolour,alfa,,,90,21,M,R,
514,10,10,12,4,53,27,700,['c'],1,left,['0'],6,162,[0.11420392],100,53,easy,plus,dotcolour,alfa,,,90,21,M,R,
515,11,11,12,4,27,53,733,['n'],1,right,['0'],6,152,[-0.05804338],100,53,easy,plus,dotcolour,alfa,,,90,21,M,R,
516,12,12,12,4,33,47,2917,['c'],0,right,['0'],6,174,[0.11007409],100,47,medium,plus,dotcolour,alfa,,,90,21,M,R,
517,13,13,12,4,33,47,3033,['c'],0,right,['0'],6,143,[0.05382093],99,47,medium,plus,dotcolour,alfa,,,90,21,M,R,
518,14,14,12,4,44,36,750,['c'],1,left,['0'],6,124,[0.06904297],100,44,hard,plus,dotcolour,alfa,,,90,21,M,R,
519,15,15,12,4,44,36,667,['c'],1,left,['0'],6,126,[0.05735962],100,44,hard,plus,dotcolour,alfa,,,90,21,M,R,
520,16,16,12,4,53,27,684,['c'],1,left,['0'],6,110,[0.09861181],100,53,easy,plus,dotcolour,alfa,,,90,21,M,R,
521,17,17,12,4,47,33,501,['c'],1,left,['0'],6,167,[0.10185371],100,47,medium,plus,dotcolour,alfa,,,90,21,M,R,
522,18,18,12,4,53,27,750,['c'],1,left,['0'],6,139,[0.08302413],100,53,easy,plus,dotcolour,alfa,,,90,21,M,R,
523,19,19,12,4,27,53,667,['n'],1,right,['0'],6,308,[-0.20589818],100,53,easy,plus,dotcolour,alfa,,,90,21,M,R,
524,20,20,12,4,33,47,1117,['c'],0,right,['0'],6,132,[0.02718687],94,47,medium,plus,dotcolour,alfa,,,90,21,M,R,
525,21,21,12,4,44,36,850,['c'],1,left,['0'],6,150,[0.09140693],100,44,hard,plus,dotcolour,alfa,,,90,21,M,R,
526,22,22,12,4,47,33,584,['c'],1,left,['0'],6,114,[0.10411192],100,47,medium,plus,dotcolour,alfa,,,90,21,M,R,
527,23,23,12,4,47,33,616,['c'],1,left,['0'],6,158,[0.12900373],100,47,medium,plus,dotcolour,alfa,,,90,21,M,R,
528,24,24,12,4,27,53,1017,['n'],1,right,['0'],6,120,[-0.07473687],100,53,easy,plus,dotcolour,alfa,,,90,21,M,R,
529,25,25,12,4,33,47,1083,['c'],0,right,['0'],6,130,[0.00217368],55,47,medium,plus,dotcolour,alfa,,,90,21,M,R,
530,26,26,12,4,44,36,584,['c'],1,left,['0'],6,134,[0.12073881],100,44,hard,plus,dotcolour,alfa,,,90,21,M,R,
531,27,27,12,4,33,47,1033,['c'],0,right,['0'],6,145,[-2.82558758e-05],50,47,medium,plus,dotcolour,alfa,,,90,21,M,R,
532,28,28,12,4,47,33,584,['c'],1,left,['0'],6,117,[0.08381759],100,47,medium,plus,dotcolour,alfa,,,90,21,M,R,
533,29,29,12,4,47,33,600,['c'],1,left,['0'],6,210,[0.06175646],99,47,medium,plus,dotcolour,alfa,,,90,21,M,R,
534,30,30,12,4,47,33,467,['c'],1,left,['0'],6,128,[0.10284855],100,47,medium,plus,dotcolour,alfa,,,90,21,M,R,
535,31,31,12,4,53,27,550,['c'],1,left,['0'],6,206,[0.14997772],100,53,easy,plus,dotcolour,alfa,,,90,21,M,R,
536,32,32,12,4,47,33,650,['c'],1,left,['0'],6,204,[0.09739382],100,47,medium,plus,dotcolour,alfa,,,90,21,M,R,
537,33,33,12,4,27,53,1067,['n'],1,right,['0'],6,115,[-0.08012615],100,53,easy,plus,dotcolour,alfa,,,90,21,M,R,
538,34,34,12,4,36,44,1533,['c'],0,right,['0'],6,138,[0.01535097],82,44,hard,plus,dotcolour,alfa,,,90,21,M,R,
539,35,35,12,4,33,47,666,['c'],0,right,['1'],1,788,[-0.16914097],0,47,medium,plus,dotcolour,alfa,,,90,21,M,R,
540,36,36,12,4,44,36,1466,['c'],1,left,['0'],6,115,[0.10322363],100,44,hard,plus,dotcolour,alfa,,,90,21,M,R,
541,37,37,12,4,36,44,1033,['n'],1,right,['0'],6,134,[-0.05314721],99,44,hard,plus,dotcolour,alfa,,,90,21,M,R,
542,38,38,12,4,36,44,966,['c'],0,right,['0'],6,67,[0.06001592],100,44,hard,plus,dotcolour,alfa,,,90,21,M,R,
543,39,39,12,4,27,53,667,['n'],1,right,['0'],6,127,[-0.08818125],100,53,easy,plus,dotcolour,alfa,,,90,21,M,R,
544,40,40,12,4,44,36,933,['c'],1,left,['0'],6,166,[0.1354484],100,44,hard,plus,dotcolour,alfa,,,90,21,M,R,
545,41,41,12,4,36,44,767,['n'],1,right,['0'],6,170,[-0.05954893],99,44,hard,plus,dotcolour,alfa,,,90,21,M,R,
546,42,0,13,4,53,27,717,['c'],1,left,['0'],6,106,[0.07052188],100,53,easy,plus,dotcolour,alfa,,,90,21,M,R,
547,43,1,13,4,44,36,466,['c'],1,left,['0'],6,206,[0.09093987],100,44,hard,plus,dotcolour,alfa,,,90,21,M,R,
548,44,2,13,4,47,33,450,['c'],1,left,['0'],6,117,[0.10940514],100,47,medium,plus,dotcolour,alfa,,,90,21,M,R,
549,45,3,13,4,47,33,567,['c'],1,left,['0'],6,147,[0.09248648],100,47,medium,plus,dotcolour,alfa,,,90,21,M,R,
550,46,4,13,4,36,44,1067,['c'],0,right,['0'],6,91,[0.07008884],100,44,hard,plus,dotcolour,alfa,,,90,21,M,R,
551,47,5,13,4,44,36,1016,['c'],1,left,['0'],6,184,[0.07863455],100,44,hard,plus,dotcolour,alfa,,,90,21,M,R,
552,48,6,13,4,53,27,1016,['c'],1,left,['0'],6,186,[0.13394703],100,53,easy,plus,dotcolour,alfa,,,90,21,M,R,
553,49,7,13,4,36,44,1033,['c'],0,right,['0'],6,146,[-0.00018143],50,44,hard,plus,dotcolour,alfa,,,90,21,M,R,
554,50,8,13,4,44,36,700,['c'],1,left,['0'],6,145,[0.1395487],100,44,hard,plus,dotcolour,alfa,,,90,21,M,R,
555,51,9,13,4,36,44,1433,['c'],0,right,['0'],6,140,[0.06168492],100,44,hard,plus,dotcolour,alfa,,,90,21,M,R,
556,52,10,13,4,27,53,784,['n'],1,right,['0'],6,144,[-0.09446786],100,53,easy,plus,dotcolour,alfa,,,90,21,M,R,
557,53,11,13,4,33,47,968,['c'],0,right,['0'],6,148,[0.0972899],100,47,medium,plus,dotcolour,alfa,,,90,21,M,R,
558,54,12,13,4,44,36,683,['c'],1,left,['0'],6,164,[0.10819471],100,44,hard,plus,dotcolour,alfa,,,90,21,M,R,
559,55,13,13,4,53,27,500,['c'],1,left,['0'],6,147,[0.14598141],100,53,easy,plus,dotcolour,alfa,,,90,21,M,R,
560,56,14,13,4,47,33,600,['c'],1,left,['0'],6,206,[0.0474437],98,47,medium,plus,dotcolour,alfa,,,90,21,M,R,
561,57,15,13,4,27,53,784,['n'],1,right,['0'],6,199,[-0.1128377],100,53,easy,plus,dotcolour,alfa,,,90,21,M,R,
562,58,16,13,4,27,53,984,['n'],1,right,['0'],6,137,[-0.09167032],100,53,easy,plus,dotcolour,alfa,,,90,21,M,R,
563,59,17,13,4,33,47,767,['n'],1,right,['0'],6,295,[-0.11137351],100,47,medium,plus,dotcolour,alfa,,,90,21,M,R,
564,60,18,13,4,27,53,734,['n'],1,right,['0'],6,159,[-0.11053315],100,53,easy,plus,dotcolour,alfa,,,90,21,M,R,
565,61,19,13,4,44,36,633,['c'],1,left,['0'],6,120,[0.14423326],100,44,hard,plus,dotcolour,alfa,,,90,21,M,R,
566,62,20,13,4,47,33,566,['c'],1,left,['0'],6,134,[0.02391066],91,47,medium,plus,dotcolour,alfa,,,90,21,M,R,
567,63,21,13,4,53,27,2550,['c'],1,left,['0'],6,180,[0.03875593],96,53,easy,plus,dotcolour,alfa,,,90,21,M,R,
568,64,22,13,4,47,33,550,['c'],1,left,['0'],6,72,[0.07051923],100,47,medium,plus,dotcolour,alfa,,,90,21,M,R,
569,65,23,13,4,44,36,550,['c'],1,left,['0'],6,137,[0.0638038],100,44,hard,plus,dotcolour,alfa,,,90,21,M,R,
570,66,24,13,4,33,47,650,['n'],1,right,['0'],6,147,[-0.05015843],99,47,medium,plus,dotcolour,alfa,,,90,21,M,R,
571,67,25,13,4,44,36,567,['c'],1,left,['0'],6,167,[0.09174501],100,44,hard,plus,dotcolour,alfa,,,90,21,M,R,
572,68,26,13,4,27,53,633,['n'],1,right,['0'],6,145,[-0.08988026],100,53,easy,plus,dotcolour,alfa,,,90,21,M,R,
573,69,27,13,4,53,27,616,['c'],1,left,['0'],6,132,[0.05373973],100,53,easy,plus,dotcolour,alfa,,,90,21,M,R,
574,70,28,13,4,47,33,817,['c'],1,left,['0'],6,151,[0.15217986],100,47,medium,plus,dotcolour,alfa,,,90,21,M,R,
575,71,29,13,4,27,53,751,['n'],1,right,['0'],6,124,[-0.09093039],100,53,easy,plus,dotcolour,alfa,,,90,21,M,R,
576,72,30,13,4,53,27,566,['c'],1,left,['0'],6,113,[0.15574849],100,53,easy,plus,dotcolour,alfa,,,90,21,M,R,
577,73,31,13,4,33,47,1150,['c'],0,right,['0'],6,225,[-0.05406396],2,47,medium,plus,dotcolour,alfa,,,90,21,M,R,
578,74,32,13,4,27,53,683,['n'],1,right,['0'],6,165,[-0.08571153],100,53,easy,plus,dotcolour,alfa,,,90,21,M,R,
579,75,33,13,4,33,47,617,['c'],0,right,['0'],6,167,[0.0975825],100,47,medium,plus,dotcolour,alfa,,,90,21,M,R,
580,76,34,13,4,33,47,833,['n'],1,right,['0'],6,104,[-0.08011485],100,47,medium,plus,dotcolour,alfa,,,90,21,M,R,
581,77,35,13,4,36,44,601,['c'],0,right,['0'],6,189,[0.07046787],100,44,hard,plus,dotcolour,alfa,,,90,21,M,R,
582,78,36,13,4,36,44,2217,['c'],0,right,['0'],6,158,[0.0314308],95,44,hard,plus,dotcolour,alfa,,,90,21,M,R,
583,79,37,13,4,53,27,767,['c'],1,left,['0'],6,162,[0.13509018],100,53,easy,plus,dotcolour,alfa,,,90,21,M,R,
584,80,38,13,4,33,47,749,['n'],1,right,['0'],6,143,[-0.11734087],100,47,medium,plus,dotcolour,alfa,,,90,21,M,R,
585,81,39,13,4,36,44,633,['c'],0,right,['0'],6,161,[0.01275357],76,44,hard,plus,dotcolour,alfa,,,90,21,M,R,
586,82,40,13,4,36,44,667,['c'],0,right,['0'],6,201,[0.09138378],100,44,hard,plus,dotcolour,alfa,,,90,21,M,R,
587,83,41,13,4,47,33,550,['c'],1,left,['0'],6,164,[0.05655338],99,47,medium,plus,dotcolour,alfa,,,90,21,M,R,
588,84,0,14,4,33,47,917,['n'],1,right,['0'],6,128,[-0.06195222],100,47,medium,plus,dotcolour,alfa,,,90,21,M,R,
589,85,1,14,4,44,36,500,['c'],1,left,['0'],6,144,[0.09068389],100,44,hard,plus,dotcolour,alfa,,,90,21,M,R,
590,86,2,14,4,47,33,867,['c'],1,left,['0'],6,177,[0.19513266],100,47,medium,plus,dotcolour,alfa,,,90,21,M,R,
591,87,3,14,4,33,47,2300,['c'],0,right,['0'],6,79,[0.05560735],100,47,medium,plus,dotcolour,alfa,,,90,21,M,R,
592,88,4,14,4,36,44,1217,['c'],0,right,['0'],6,148,[0.11898664],100,44,hard,plus,dotcolour,alfa,,,90,21,M,R,
593,89,5,14,4,53,27,648,['c'],1,left,['0'],6,166,[0.09876374],100,53,easy,plus,dotcolour,alfa,,,90,21,M,R,
594,90,6,14,4,27,53,1301,['n'],1,right,['0'],6,108,[-0.05373531],100,53,easy,plus,dotcolour,alfa,,,90,21,M,R,
595,91,7,14,4,47,33,667,['c'],1,left,['0'],6,206,[0.063471],99,47,medium,plus,dotcolour,alfa,,,90,21,M,R,
596,92,8,14,4,27,53,1499,['n'],1,right,['0'],6,132,[-0.19283646],100,53,easy,plus,dotcolour,alfa,,,90,21,M,R,
597,93,9,14,4,53,27,600,['c'],1,left,['0'],6,183,[0.06555549],100,53,easy,plus,dotcolour,alfa,,,90,21,M,R,
598,94,10,14,4,33,47,900,['c'],0,right,['0'],6,109,[0.11241836],100,47,medium,plus,dotcolour,alfa,,,90,21,M,R,
599,95,11,14,4,47,33,584,['c'],1,left,['0'],6,138,[0.07515498],100,47,medium,plus,dotcolour,alfa,,,90,21,M,R,
600,96,12,14,4,36,44,1050,['c'],0,right,['0'],6,117,[0.09619068],100,44,hard,plus,dotcolour,alfa,,,90,21,M,R,
601,97,13,14,4,27,53,750,['n'],1,right,['0'],6,155,[-0.13428455],100,53,easy,plus,dotcolour,alfa,,,90,21,M,R,
602,98,14,14,4,33,47,1083,['c'],0,right,['0'],6,211,[0.08341086],100,47,medium,plus,dotcolour,alfa,,,90,21,M,R,
603,99,15,14,4,36,44,734,['c'],0,right,['0'],6,46,[0.06295482],100,44,hard,plus,dotcolour,alfa,,,90,21,M,R,
604,100,16,14,4,27,53,784,['n'],1,right,['0'],6,166,[-0.06920941],100,53,easy,plus,dotcolour,alfa,,,90,21,M,R,
605,101,17,14,4,44,36,567,['c'],1,left,['0'],6,130,[0.12721477],100,44,hard,plus,dotcolour,alfa,,,90,21,M,R,
606,102,18,14,4,36,44,950,['c'],0,right,['0'],6,169,[0.07466102],100,44,hard,plus,dotcolour,alfa,,,90,21,M,R,
607,103,19,14,4,27,53,750,['n'],1,right,['0'],6,125,[-0.11121036],100,53,easy,plus,dotcolour,alfa,,,90,21,M,R,
608,104,20,14,4,44,36,583,['c'],1,left,['0'],6,153,[0.08309766],100,44,hard,plus,dotcolour,alfa,,,90,21,M,R,
609,105,21,14,4,53,27,634,['c'],1,left,['0'],6,172,[0.18896364],100,53,easy,plus,dotcolour,alfa,,,90,21,M,R,
610,106,22,14,4,27,53,750,['n'],1,right,['0'],6,128,[-0.09454434],100,53,easy,plus,dotcolour,alfa,,,90,21,M,R,
611,107,23,14,4,53,27,583,['c'],1,left,['0'],6,165,[0.0755542],100,53,easy,plus,dotcolour,alfa,,,90,21,M,R,
612,108,24,14,4,47,33,617,['c'],1,left,['0'],6,143,[0.08628122],100,47,medium,plus,dotcolour,alfa,,,90,21,M,R,
613,109,25,14,4,36,44,1000,['c'],0,right,['0'],6,106,[0.10803051],100,44,hard,plus,dotcolour,alfa,,,90,21,M,R,
614,110,26,14,4,53,27,700,['c'],1,left,['0'],6,147,[0.06131159],100,53,easy,plus,dotcolour,alfa,,,90,21,M,R,
615,111,27,14,4,47,33,416,['c'],1,left,['0'],6,165,[0.09697039],100,47,medium,plus,dotcolour,alfa,,,90,21,M,R,
616,112,28,14,4,53,27,599,['c'],1,left,['0'],6,193,[0.0244258],88,53,easy,plus,dotcolour,alfa,,,90,21,M,R,
617,113,29,14,4,44,36,484,['c'],1,left,['0'],6,278,[-0.01752936],23,44,hard,plus,dotcolour,alfa,,,90,21,M,R,
618,114,30,14,4,44,36,567,['c'],1,left,['0'],6,254,[0.06736957],99,44,hard,plus,dotcolour,alfa,,,90,21,M,R,
619,115,31,14,4,33,47,950,['n'],1,right,['0'],6,127,[-0.09986751],100,47,medium,plus,dotcolour,alfa,,,90,21,M,R,
620,116,32,14,4,36,44,884,['n'],1,right,['0'],6,128,[-0.05165051],99,44,hard,plus,dotcolour,alfa,,,90,21,M,R,
621,117,33,14,4,47,33,717,['c'],1,left,['0'],6,176,[0.06253383],100,47,medium,plus,dotcolour,alfa,,,90,21,M,R,
622,118,34,14,4,44,36,1067,['c'],1,left,['0'],6,343,[0.15446745],100,44,hard,plus,dotcolour,alfa,,,90,21,M,R,
623,119,35,14,4,27,53,1401,['n'],1,right,['0'],6,113,[-0.08911677],100,53,easy,plus,dotcolour,alfa,,,90,21,M,R,
624,120,36,14,4,47,33,1933,['c'],1,left,['0'],6,129,[0.11935089],100,47,medium,plus,dotcolour,alfa,,,90,21,M,R,
625,121,37,14,4,36,44,2234,['c'],0,right,['0'],6,92,[0.09163698],100,44,hard,plus,dotcolour,alfa,,,90,21,M,R,
626,122,38,14,4,44,36,1684,['c'],1,left,['0'],6,94,[0.04524261],100,44,hard,plus,dotcolour,alfa,,,90,21,M,R,
627,123,39,14,4,33,47,683,['n'],1,right,['0'],6,104,[-0.10784761],100,47,medium,plus,dotcolour,alfa,,,90,21,M,R,
628,124,40,14,4,33,47,800,['n'],1,right,['0'],6,181,[-0.0142693],77,47,medium,plus,dotcolour,alfa,,,90,21,M,R,
629,125,41,14,4,53,27,650,['c'],1,left,['0'],6,149,[0.07817743],100,53,easy,plus,dotcolour,alfa,,,90,21,M,R,
630,0,0,15,5,47,33,768,['c'],1,left,['0'],6,302,[0.0484835],69,47,medium,minus,dotcolour,alfa,,,90,21,M,R,
631,1,1,15,5,36,44,1167,['c'],0,right,['0'],6,277,[0.04327475],68,44,hard,minus,dotcolour,alfa,,,90,21,M,R,
632,2,2,15,5,33,47,1167,['c'],0,right,['0'],6,124,[0.06599994],84,47,medium,minus,dotcolour,alfa,,,90,21,M,R,
633,3,3,15,5,47,33,633,['c'],1,left,['0'],6,183,[0.08022518],84,47,medium,minus,dotcolour,alfa,,,90,21,M,R,
634,4,4,15,5,27,53,900,['n'],1,right,['0'],6,77,[-0.1132533],98,53,easy,minus,dotcolour,alfa,,,90,21,M,R,
635,5,5,15,5,47,33,850,['c'],1,left,['0'],6,153,[0.11741889],94,47,medium,minus,dotcolour,alfa,,,90,21,M,R,
636,6,6,15,5,33,47,1217,['c'],0,right,['0'],6,131,[0.0376223],72,47,medium,minus,dotcolour,alfa,,,90,21,M,R,
637,7,7,15,5,27,53,767,['n'],1,right,['0'],6,104,[-0.06466005],86,53,easy,minus,dotcolour,alfa,,,90,21,M,R,
638,8,8,15,5,47,33,734,['c'],1,left,['0'],6,145,[0.07193798],85,47,medium,minus,dotcolour,alfa,,,90,21,M,R,
639,9,9,15,5,33,47,1284,['c'],0,right,['0'],6,65,[0.085027],95,47,medium,minus,dotcolour,alfa,,,90,21,M,R,
640,10,10,15,5,44,36,817,['c'],1,left,['0'],6,175,[0.08031354],85,44,hard,minus,dotcolour,alfa,,,90,21,M,R,
641,11,11,15,5,47,33,633,['c'],1,left,['0'],6,128,[0.03330548],70,47,medium,minus,dotcolour,alfa,,,90,21,M,R,
642,12,12,15,5,33,47,833,['n'],1,right,['0'],6,90,[-0.02244332],66,47,medium,minus,dotcolour,alfa,,,90,21,M,R,
643,13,13,15,5,44,36,667,['c'],1,left,['0'],6,141,[0.06410172],82,44,hard,minus,dotcolour,alfa,,,90,21,M,R,
644,14,14,15,5,53,27,817,['c'],1,left,['0'],6,199,[0.08469086],85,53,easy,minus,dotcolour,alfa,,,90,21,M,R,
645,15,15,15,5,27,53,633,['n'],1,right,['0'],6,111,[-0.08252596],90,53,easy,minus,dotcolour,alfa,,,90,21,M,R,
646,16,16,15,5,27,53,733,['n'],1,right,['0'],6,103,[-0.10202736],95,53,easy,minus,dotcolour,alfa,,,90,21,M,R,
647,17,17,15,5,53,27,650,['c'],1,left,['0'],6,146,[0.11133192],93,53,easy,minus,dotcolour,alfa,,,90,21,M,R,
648,18,18,15,5,36,44,1151,['c'],0,right,['0'],6,127,[0.08793854],90,44,hard,minus,dotcolour,alfa,,,90,21,M,R,
649,19,19,15,5,36,44,1167,['c'],0,right,['0'],6,117,[0.03554015],72,44,hard,minus,dotcolour,alfa,,,90,21,M,R,
650,20,20,15,5,44,36,567,['c'],1,left,['0'],6,131,[0.098386],92,44,hard,minus,dotcolour,alfa,,,90,21,M,R,
651,21,21,15,5,53,27,583,['c'],1,left,['0'],6,127,[0.11121104],94,53,easy,minus,dotcolour,alfa,,,90,21,M,R,
652,22,22,15,5,33,47,1300,['c'],0,right,['0'],6,95,[0.07437078],90,47,medium,minus,dotcolour,alfa,,,90,21,M,R,
653,23,23,15,5,44,36,550,['c'],1,left,['0'],6,79,[0.07927785],93,44,hard,minus,dotcolour,alfa,,,90,21,M,R,
654,24,24,15,5,36,44,966,['c'],0,right,['0'],6,110,[0.01501172],60,44,hard,minus,dotcolour,alfa,,,90,21,M,R,
655,25,25,15,5,44,36,583,['c'],1,left,['0'],6,171,[0.14317447],96,44,hard,minus,dotcolour,alfa,,,90,21,M,R,
656,26,26,15,5,53,27,500,['c'],1,left,['0'],6,74,[0.11770194],98,53,easy,minus,dotcolour,alfa,,,90,21,M,R,
657,27,27,15,5,33,47,2583,['c'],0,right,['0'],6,121,[0.01809318],61,47,medium,minus,dotcolour,alfa,,,90,21,M,R,
658,28,28,15,5,36,44,1283,['c'],0,right,['0'],6,82,[0.08483286],94,44,hard,minus,dotcolour,alfa,,,90,21,M,R,
659,29,29,15,5,53,27,584,['c'],1,left,['0'],6,73,[0.10472589],97,53,easy,minus,dotcolour,alfa,,,90,21,M,R,
660,30,30,15,5,53,27,666,['c'],1,left,['0'],6,301,[0.09476162],83,53,easy,minus,dotcolour,alfa,,,90,21,M,R,
661,31,31,15,5,47,33,650,['c'],1,left,['0'],6,24,[0.0939395],100,47,medium,minus,dotcolour,alfa,,,90,21,M,R,
662,32,32,15,5,27,53,683,['n'],1,right,['0'],6,149,[-0.10952491],93,53,easy,minus,dotcolour,alfa,,,90,21,M,R,
663,33,33,15,5,53,27,532,['c'],1,left,['0'],6,115,[0.00641636],54,53,easy,minus,dotcolour,alfa,,,90,21,M,R,
664,34,34,15,5,47,33,599,['c'],1,left,['0'],6,103,[0.09248203],93,47,medium,minus,dotcolour,alfa,,,90,21,M,R,
665,35,35,15,5,27,53,700,['n'],1,right,['0'],6,129,[-0.10315935],93,53,easy,minus,dotcolour,alfa,,,90,21,M,R,
666,36,36,15,5,27,53,732,['n'],1,right,['0'],6,127,[-0.08427456],89,53,easy,minus,dotcolour,alfa,,,90,21,M,R,
667,37,37,15,5,33,47,1000,['c'],0,right,['0'],6,164,[0.04429838],73,47,medium,minus,dotcolour,alfa,,,90,21,M,R,
668,38,38,15,5,36,44,1300,['c'],0,right,['0'],6,162,[0.03136238],67,44,hard,minus,dotcolour,alfa,,,90,21,M,R,
669,39,39,15,5,44,36,916,['c'],1,left,['0'],6,96,[0.06008952],85,44,hard,minus,dotcolour,alfa,,,90,21,M,R,
670,40,40,15,5,44,36,767,['c'],1,left,['0'],6,135,[0.04586073],75,44,hard,minus,dotcolour,alfa,,,90,21,M,R,
671,41,41,15,5,36,44,1534,['c'],0,right,['0'],6,134,[-0.01371794],42,44,hard,minus,dotcolour,alfa,,,90,21,M,R,
672,42,0,16,5,47,33,685,['c'],1,left,['0'],6,119,[0.07645464],88,47,medium,minus,dotcolour,alfa,,,90,21,M,R,
673,43,1,16,5,47,33,501,['c'],1,left,['0'],6,152,[0.04947789],76,47,medium,minus,dotcolour,alfa,,,90,21,M,R,
674,44,2,16,5,47,33,651,['c'],1,left,['0'],6,161,[0.0614839],80,47,medium,minus,dotcolour,alfa,,,90,21,M,R,
675,45,3,16,5,47,33,982,['c'],1,left,['0'],6,133,[0.06587178],84,47,medium,minus,dotcolour,alfa,,,90,21,M,R,
676,46,4,16,5,44,36,2367,['c'],1,left,['9'],5,177,[0.00863108],55,44,hard,minus,dotcolour,alfa,,,90,21,M,R,
677,47,5,16,5,36,44,1933,['c'],0,right,['9'],5,182,[0.06195105],79,44,hard,minus,dotcolour,alfa,,,90,21,M,R,
678,48,6,16,5,44,36,949,['c'],1,left,['9'],5,202,[0.06632451],79,44,hard,minus,dotcolour,alfa,,,90,21,M,R,
679,49,7,16,5,33,47,1083,['n'],1,right,['0'],6,128,[-0.04659647],76,47,medium,minus,dotcolour,alfa,,,90,21,M,R,
680,50,8,16,5,27,53,767,['n'],1,right,['0'],6,222,[-0.1033039],88,53,easy,minus,dotcolour,alfa,,,90,21,M,R,
681,51,9,16,5,36,44,1217,['c'],0,right,['0'],6,94,[0.13483963],98,44,hard,minus,dotcolour,alfa,,,90,21,M,R,
682,52,10,16,5,53,27,633,['c'],1,left,['0'],6,130,[0.10710821],94,53,easy,minus,dotcolour,alfa,,,90,21,M,R,
683,53,11,16,5,36,44,3134,['c'],0,right,['8'],4,152,[0.09013939],89,44,hard,minus,dotcolour,alfa,,,90,21,M,R,
684,54,12,16,5,44,36,717,['c'],1,left,['9'],5,183,[0.09311513],88,44,hard,minus,dotcolour,alfa,,,90,21,M,R,
685,55,13,16,5,47,33,1582,['c'],1,left,['0'],6,154,[0.02431562],64,47,medium,minus,dotcolour,alfa,,,90,21,M,R,
686,56,14,16,5,33,47,1768,['n'],1,right,['0'],6,167,[-0.02082876],61,47,medium,minus,dotcolour,alfa,,,90,21,M,R,
687,57,15,16,5,33,47,1132,['c'],0,right,['0'],6,180,[-0.04502901],28,47,medium,minus,dotcolour,alfa,,,90,21,M,R,
688,58,16,16,5,27,53,950,['n'],1,right,['0'],6,144,[-0.09618582],91,53,easy,minus,dotcolour,alfa,,,90,21,M,R,
689,59,17,16,5,27,53,716,['n'],1,right,['0'],6,142,[-0.13065587],96,53,easy,minus,dotcolour,alfa,,,90,21,M,R,
690,60,18,16,5,53,27,650,['c'],1,left,['0'],6,120,[0.01740082],61,53,easy,minus,dotcolour,alfa,,,90,21,M,R,
691,61,19,16,5,53,27,1534,['c'],1,left,['0'],6,151,[0.10296251],92,53,easy,minus,dotcolour,alfa,,,90,21,M,R,
692,62,20,16,5,33,47,4167,['c'],0,right,['8'],4,1620,[-0.36209879],7,47,medium,minus,dotcolour,alfa,,,90,21,M,R,
693,63,21,16,5,33,47,684,['n'],1,right,['0'],6,136,[-0.10194461],92,47,medium,minus,dotcolour,alfa,,,90,21,M,R,
694,64,22,16,5,36,44,866,['c'],0,right,['0'],6,194,[0.12665938],93,44,hard,minus,dotcolour,alfa,,,90,21,M,R,
695,65,23,16,5,44,36,650,['c'],1,left,['0'],6,137,[0.11956014],95,44,hard,minus,dotcolour,alfa,,,90,21,M,R,
696,66,24,16,5,27,53,633,['n'],1,right,['0'],6,132,[-0.12407514],96,53,easy,minus,dotcolour,alfa,,,90,21,M,R,
697,67,25,16,5,53,27,650,['c'],1,left,['0'],6,110,[0.13409813],97,53,easy,minus,dotcolour,alfa,,,90,21,M,R,
698,68,26,16,5,47,33,750,['c'],1,left,['0'],6,164,[0.0737675],84,47,medium,minus,dotcolour,alfa,,,90,21,M,R,
699,69,27,16,5,44,36,867,['c'],1,left,['0'],6,212,[0.12867102],93,44,hard,minus,dotcolour,alfa,,,90,21,M,R,
700,70,28,16,5,44,36,617,['c'],1,left,['0'],6,100,[0.1112146],96,44,hard,minus,dotcolour,alfa,,,90,21,M,R,
701,71,29,16,5,27,53,767,['n'],1,right,['0'],6,75,[-0.05920791],87,53,easy,minus,dotcolour,alfa,,,90,21,M,R,
702,72,30,16,5,53,27,583,['c'],1,left,['0'],6,162,[0.08733705],88,53,easy,minus,dotcolour,alfa,,,90,21,M,R,
703,73,31,16,5,33,47,684,['n'],1,right,['0'],6,217,[-0.0989105],87,47,medium,minus,dotcolour,alfa,,,90,21,M,R,
704,74,32,16,5,53,27,618,['c'],1,left,['0'],6,82,[0.02708498],70,53,easy,minus,dotcolour,alfa,,,90,21,M,R,
705,75,33,16,5,27,53,666,['n'],1,right,['0'],6,148,[-0.14763835],97,53,easy,minus,dotcolour,alfa,,,90,21,M,R,
706,76,34,16,5,36,44,1133,['c'],0,right,['0'],6,163,[0.08884167],88,44,hard,minus,dotcolour,alfa,,,90,21,M,R,
707,77,35,16,5,47,33,700,['c'],1,left,['0'],6,105,[0.11038575],96,47,medium,minus,dotcolour,alfa,,,90,21,M,R,
708,78,36,16,5,36,44,1050,['n'],1,right,['0'],6,37,[-0.06786115],96,44,hard,minus,dotcolour,alfa,,,90,21,M,R,
709,79,37,16,5,33,47,1350,['c'],0,right,['0'],6,103,[0.06815005],87,47,medium,minus,dotcolour,alfa,,,90,21,M,R,
710,80,38,16,5,53,27,600,['c'],1,left,['0'],6,100,[0.06888163],88,53,easy,minus,dotcolour,alfa,,,90,21,M,R,
711,81,39,16,5,36,44,1233,['c'],0,right,['0'],6,112,[0.1027158],94,44,hard,minus,dotcolour,alfa,,,90,21,M,R,
712,82,40,16,5,27,53,1901,['c'],0,right,['0'],6,64,[0.04609004],84,53,easy,minus,dotcolour,alfa,,,90,21,M,R,
713,83,41,16,5,44,36,583,['c'],1,left,['0'],6,72,[0.10745964],97,44,hard,minus,dotcolour,alfa,,,90,21,M,R,
714,84,0,17,5,36,44,1284,['c'],0,right,['0'],6,242,[0.16728806],96,44,hard,minus,dotcolour,alfa,,,90,21,M,R,
715,85,1,17,5,47,33,600,['c'],1,left,['0'],6,168,[0.10936421],92,47,medium,minus,dotcolour,alfa,,,90,21,M,R,
716,86,2,17,5,27,53,551,['n'],1,right,['0'],6,149,[-0.09103579],89,53,easy,minus,dotcolour,alfa,,,90,21,M,R,
717,87,3,17,5,33,47,3650,['n'],1,right,['8'],4,159,[-0.07281275],84,47,medium,minus,dotcolour,alfa,,,90,21,M,R,
718,88,4,17,5,27,53,881,['n'],1,right,['0'],6,183,[-0.12801315],94,53,easy,minus,dotcolour,alfa,,,90,21,M,R,
719,89,5,17,5,33,47,1051,['c'],0,right,['0'],6,158,[0.02936128],66,47,medium,minus,dotcolour,alfa,,,90,21,M,R,
720,90,6,17,5,33,47,1351,['n'],1,right,['0'],6,187,[-0.01342342],57,47,medium,minus,dotcolour,alfa,,,90,21,M,R,
721,91,7,17,5,27,53,633,['n'],1,right,['0'],6,107,[-0.03959046],75,53,easy,minus,dotcolour,alfa,,,90,21,M,R,
722,92,8,17,5,33,47,2184,['c'],0,right,['9'],5,201,[0.01831639],59,47,medium,minus,dotcolour,alfa,,,90,21,M,R,
723,93,9,17,5,27,53,750,['n'],1,right,['0'],6,116,[-0.09702173],93,53,easy,minus,dotcolour,alfa,,,90,21,M,R,
724,94,10,17,5,53,27,800,['c'],1,left,['0'],6,73,[0.06258166],89,53,easy,minus,dotcolour,alfa,,,90,21,M,R,
725,95,11,17,5,44,36,1100,['c'],1,left,['9'],5,363,[0.09522759],81,44,hard,minus,dotcolour,alfa,,,90,21,M,R,
726,96,12,17,5,47,33,733,['c'],1,left,['0'],6,153,[0.09220745],89,47,medium,minus,dotcolour,alfa,,,90,21,M,R,
727,97,13,17,5,36,44,3734,['c'],0,right,['0'],6,615,[0.01778445],55,44,hard,minus,dotcolour,alfa,,,90,21,M,R,
728,98,14,17,5,36,44,1833,['c'],0,right,['0'],6,102,[0.02179383],65,44,hard,minus,dotcolour,alfa,,,90,21,M,R,
729,99,15,17,5,53,27,617,['c'],1,left,['0'],6,179,[0.11238373],92,53,easy,minus,dotcolour,alfa,,,90,21,M,R,
730,100,16,17,5,27,53,967,['n'],1,right,['0'],6,142,[-0.05583606],79,53,easy,minus,dotcolour,alfa,,,90,21,M,R,
731,101,17,17,5,36,44,1734,['c'],0,right,['0'],6,124,[0.0902638],91,44,hard,minus,dotcolour,alfa,,,90,21,M,R,
732,102,18,17,5,36,44,3600,['c'],0,right,['0'],6,128,[0.1173449],95,44,hard,minus,dotcolour,alfa,,,90,21,M,R,
733,103,19,17,5,53,27,567,['c'],1,left,['0'],6,102,[0.11323597],96,53,easy,minus,dotcolour,alfa,,,90,21,M,R,
734,104,20,17,5,44,36,584,['c'],1,left,['0'],6,155,[0.0774198],85,44,hard,minus,dotcolour,alfa,,,90,21,M,R,
735,105,21,17,5,47,33,617,['c'],1,left,['0'],6,142,[0.04296425],74,47,medium,minus,dotcolour,alfa,,,90,21,M,R,
736,106,22,17,5,27,53,750,['n'],1,right,['0'],6,139,[-0.10690566],93,53,easy,minus,dotcolour,alfa,,,90,21,M,R,
737,107,23,17,5,33,47,800,['n'],1,right,['0'],6,111,[-0.05200479],80,47,medium,minus,dotcolour,alfa,,,90,21,M,R,
738,108,24,17,5,53,27,517,['c'],1,left,['0'],6,88,[0.11397975],97,53,easy,minus,dotcolour,alfa,,,90,21,M,R,
739,109,25,17,5,47,33,3100,['c'],1,left,['0'],6,162,[0.14991618],97,47,medium,minus,dotcolour,alfa,,,90,21,M,R,
740,110,26,17,5,47,33,550,['c'],1,left,['0'],6,102,[0.11244381],96,47,medium,minus,dotcolour,alfa,,,90,21,M,R,
741,111,27,17,5,53,27,533,['c'],1,left,['0'],6,142,[0.09702783],91,53,easy,minus,dotcolour,alfa,,,90,21,M,R,
742,112,28,17,5,47,33,501,['c'],1,left,['0'],6,118,[0.00750783],55,47,medium,minus,dotcolour,alfa,,,90,21,M,R,
743,113,29,17,5,44,36,616,['c'],1,left,['0'],6,154,[0.05313488],77,44,hard,minus,dotcolour,alfa,,,90,21,M,R,
744,114,30,17,5,27,53,666,['n'],1,right,['0'],6,162,[-0.09786255],90,53,easy,minus,dotcolour,alfa,,,90,21,M,R,
745,115,31,17,5,36,44,1151,['c'],0,right,['0'],6,95,[0.06003503],85,44,hard,minus,dotcolour,alfa,,,90,21,M,R,
746,116,32,17,5,53,27,783,['c'],1,left,['0'],6,69,[0.10066508],97,53,easy,minus,dotcolour,alfa,,,90,21,M,R,
747,117,33,17,5,36,44,1100,['c'],0,right,['0'],6,79,[0.11563922],98,44,hard,minus,dotcolour,alfa,,,90,21,M,R,
748,118,34,17,5,44,36,533,['c'],1,left,['0'],6,88,[0.08652353],93,44,hard,minus,dotcolour,alfa,,,90,21,M,R,
749,119,35,17,5,44,36,934,['c'],1,left,['0'],6,57,[0.08276683],96,44,hard,minus,dotcolour,alfa,,,90,21,M,R,
750,120,36,17,5,53,27,567,['c'],1,left,['0'],6,90,[0.07648892],91,53,easy,minus,dotcolour,alfa,,,90,21,M,R,
751,121,37,17,5,33,47,2017,['c'],0,right,['8'],4,120,[-0.00606701],46,47,medium,minus,dotcolour,alfa,,,90,21,M,R,
752,122,38,17,5,44,36,1117,['c'],1,left,['0'],6,151,[0.1040913],92,44,hard,minus,dotcolour,alfa,,,90,21,M,R,
753,123,39,17,5,33,47,1500,['n'],1,right,['0'],6,110,[-0.04637858],78,47,medium,minus,dotcolour,alfa,,,90,21,M,R,
754,124,40,17,5,47,33,717,['c'],1,left,['0'],6,174,[0.11624156],92,47,medium,minus,dotcolour,alfa,,,90,21,M,R,
755,125,41,17,5,44,36,600,['c'],1,left,['0'],6,152,[0.10000632],91,44,hard,minus,dotcolour,alfa,,,90,21,M,R,
,,,,,,,,,,,,,,,,,,,,,1,,90,21,M,R,
,,,,,,,,,,,,,,,,,,,,,2,['d'],90,21,M,R,
,,,,,,,,,,,,,,,,,,,,,3,['f'],90,21,M,R,
,,,,,,,,,,,,,,,,,,,,,5,['3'],90,21,M,R,
