trial,withinphasetrial,withinblocktrial,block,phase,dotsLeft,dotsRight,rt,resp,cor,cresp,conf_press,cj,RTconf,ev,fb,diff,difflevel,condition,task,manip,questionID,questionResp,sub,age,gender,handedness,
0,0,0,0,0,36,44,1317,['n'],1,right,['8'],4,3657,[-0.55200352],100,44,hard,plus,dotcolour,beta,,,54,18,V,R,
1,1,1,0,0,36,44,1900,['c'],0,right,['8'],4,826,[-0.04404205],56,44,hard,plus,dotcolour,beta,,,54,18,V,R,
2,2,2,0,0,53,27,898,['c'],1,left,['9'],5,790,[0.21027459],100,53,easy,plus,dotcolour,beta,,,54,18,V,R,
3,3,3,0,0,44,36,1149,['c'],1,left,['8'],4,1489,[0.04752643],82,44,hard,plus,dotcolour,beta,,,54,18,V,R,
4,4,4,0,0,36,44,1098,['n'],1,right,['9'],5,1043,[-0.13153838],96,44,hard,plus,dotcolour,beta,,,54,18,V,R,
5,5,5,0,0,33,47,531,['n'],1,right,['0'],6,508,[-0.10023486],98,47,medium,plus,dotcolour,beta,,,54,18,V,R,
6,6,6,0,0,27,53,546,['n'],1,right,['0'],6,571,[-0.13294879],99,53,easy,plus,dotcolour,beta,,,54,18,V,R,
7,7,7,0,0,33,47,633,['n'],1,right,['9'],5,436,[-0.16897366],100,47,medium,plus,dotcolour,beta,,,54,18,V,R,
8,8,8,0,0,44,36,530,['n'],0,left,['0'],6,399,[-0.09069456],98,44,hard,plus,dotcolour,beta,,,54,18,V,R,
9,9,9,0,0,33,47,632,['n'],1,right,['8'],4,390,[-0.27322761],100,47,medium,plus,dotcolour,beta,,,54,18,V,R,
10,10,10,0,0,27,53,500,['n'],1,right,['9'],5,404,[-0.11849583],99,53,easy,plus,dotcolour,beta,,,54,18,V,R,
11,11,11,0,0,36,44,683,['n'],1,right,['9'],5,433,[-0.088188],98,44,hard,plus,dotcolour,beta,,,54,18,V,R,
12,12,12,0,0,33,47,631,['n'],1,right,['9'],5,360,[-0.07822544],98,47,medium,plus,dotcolour,beta,,,54,18,V,R,
13,13,13,0,0,33,47,1399,['n'],1,right,['9'],5,402,[-0.01959978],89,47,medium,plus,dotcolour,beta,,,54,18,V,R,
14,14,14,0,0,47,33,597,['c'],1,left,['3'],3,580,[0.26883649],100,47,medium,plus,dotcolour,beta,,,54,18,V,R,
15,15,15,0,0,47,33,1382,['c'],1,left,['9'],5,990,[0.2215133],99,47,medium,plus,dotcolour,beta,,,54,18,V,R,
16,16,16,0,0,33,47,581,['n'],1,right,['0'],6,481,[0.05654916],49,47,medium,plus,dotcolour,beta,,,54,18,V,R,
17,17,17,0,0,27,53,631,['n'],1,right,['9'],5,445,[-0.2247351],100,53,easy,plus,dotcolour,beta,,,54,18,V,R,
18,18,18,0,0,47,33,666,['c'],1,left,['9'],5,818,[0.1647153],99,47,medium,plus,dotcolour,beta,,,54,18,V,R,
19,19,19,0,0,53,27,1081,['c'],1,left,['9'],5,455,[0.17677251],100,53,easy,plus,dotcolour,beta,,,54,18,V,R,
20,20,20,0,0,44,36,815,['c'],1,left,['8'],4,558,[0.07926481],96,44,hard,plus,dotcolour,beta,,,54,18,V,R,
21,21,21,0,0,27,53,531,['n'],1,right,['0'],6,323,[-0.11690239],100,53,easy,plus,dotcolour,beta,,,54,18,V,R,
22,22,22,0,0,27,53,734,['n'],1,right,['0'],6,258,[-0.11168682],100,53,easy,plus,dotcolour,beta,,,54,18,V,R,
23,23,23,0,0,44,36,550,['n'],0,left,['0'],6,234,[-0.05871349],99,44,hard,plus,dotcolour,beta,,,54,18,V,R,
24,24,24,0,0,36,44,614,['n'],1,right,['0'],6,169,[-0.11843663],100,44,hard,plus,dotcolour,beta,,,54,18,V,R,
25,25,25,0,0,47,33,732,['c'],1,left,['8'],4,375,[0.05803091],97,47,medium,plus,dotcolour,beta,,,54,18,V,R,
26,26,26,0,0,44,36,799,['c'],1,left,['9'],5,369,[0.07916695],98,44,hard,plus,dotcolour,beta,,,54,18,V,R,
27,27,27,0,0,47,33,665,['c'],1,left,['3'],3,505,[0.11297178],99,47,medium,plus,dotcolour,beta,,,54,18,V,R,
28,28,28,0,0,36,44,599,['n'],1,right,['0'],6,293,[-0.13828215],100,44,hard,plus,dotcolour,beta,,,54,18,V,R,
29,29,29,0,0,53,27,733,['c'],1,left,['9'],5,270,[0.06952599],99,53,easy,plus,dotcolour,beta,,,54,18,V,R,
30,30,30,0,0,44,36,483,['n'],0,left,['0'],6,296,[0.03498825],66,44,hard,plus,dotcolour,beta,,,54,18,V,R,
31,31,31,0,0,53,27,882,['c'],1,left,['9'],5,634,[0.20203595],100,53,easy,plus,dotcolour,beta,,,54,18,V,R,
32,32,32,0,0,33,47,481,['n'],1,right,['9'],5,558,[-0.14741151],99,47,medium,plus,dotcolour,beta,,,54,18,V,R,
33,33,33,0,0,44,36,582,['n'],0,left,['9'],5,282,[-0.06586986],98,44,hard,plus,dotcolour,beta,,,54,18,V,R,
34,34,34,0,0,27,53,514,['n'],1,right,['0'],6,251,[-0.1667963],100,53,easy,plus,dotcolour,beta,,,54,18,V,R,
35,35,35,0,0,27,53,832,['n'],1,right,['8'],4,513,[-0.18559168],100,53,easy,plus,dotcolour,beta,,,54,18,V,R,
36,36,36,0,0,53,27,481,['c'],1,left,['8'],4,442,[0.23591581],100,53,easy,plus,dotcolour,beta,,,54,18,V,R,
37,37,37,0,0,36,44,647,['n'],1,right,['9'],5,328,[-0.04196343],96,44,hard,plus,dotcolour,beta,,,54,18,V,R,
38,38,38,0,0,53,27,515,['c'],1,left,['0'],6,431,[0.12707209],99,53,easy,plus,dotcolour,beta,,,54,18,V,R,
39,39,39,0,0,53,27,580,['c'],1,left,['0'],6,343,[0.19010577],100,53,easy,plus,dotcolour,beta,,,54,18,V,R,
40,40,40,0,0,47,33,481,['c'],1,left,['9'],5,327,[0.13869512],100,47,medium,plus,dotcolour,beta,,,54,18,V,R,
41,41,41,0,0,47,33,550,['c'],1,left,['9'],5,661,[0.18994504],100,47,medium,plus,dotcolour,beta,,,54,18,V,R,
42,42,0,1,0,36,44,600,['n'],1,right,['0'],6,333,[0.01209639],80,44,hard,plus,dotcolour,beta,,,54,18,V,R,
43,43,1,1,0,53,27,598,['c'],1,left,['9'],5,249,[0.13890061],100,53,easy,plus,dotcolour,beta,,,54,18,V,R,
44,44,2,1,0,27,53,515,['n'],1,right,['0'],6,268,[-0.09968475],100,53,easy,plus,dotcolour,beta,,,54,18,V,R,
45,45,3,1,0,33,47,599,['n'],1,right,['0'],6,322,[-0.07594475],98,47,medium,plus,dotcolour,beta,,,54,18,V,R,
46,46,4,1,0,33,47,466,['n'],1,right,['0'],6,211,[-0.02656145],96,47,medium,plus,dotcolour,beta,,,54,18,V,R,
47,47,5,1,0,33,47,482,['n'],1,right,['0'],6,201,[-0.10336869],100,47,medium,plus,dotcolour,beta,,,54,18,V,R,
48,48,6,1,0,33,47,482,['n'],1,right,['9'],5,303,[-0.18298708],100,47,medium,plus,dotcolour,beta,,,54,18,V,R,
49,49,7,1,0,27,53,364,['n'],1,right,['0'],6,230,[-0.0902145],100,53,easy,plus,dotcolour,beta,,,54,18,V,R,
50,50,8,1,0,27,53,348,['n'],1,right,['0'],6,200,[-0.08681551],100,53,easy,plus,dotcolour,beta,,,54,18,V,R,
51,51,9,1,0,47,33,598,['c'],1,left,['0'],6,176,[0.06675004],99,47,medium,plus,dotcolour,beta,,,54,18,V,R,
52,52,10,1,0,44,36,399,['n'],0,left,['8'],4,707,[0.03878445],59,44,hard,plus,dotcolour,beta,,,54,18,V,R,
53,53,11,1,0,47,33,765,['n'],0,left,['9'],5,281,[-0.13597987],100,47,medium,plus,dotcolour,beta,,,54,18,V,R,
54,54,12,1,0,33,47,499,['n'],1,right,['0'],6,211,[-0.04210563],98,47,medium,plus,dotcolour,beta,,,54,18,V,R,
55,55,13,1,0,44,36,449,['n'],0,left,['0'],6,201,[-0.03247245],97,44,hard,plus,dotcolour,beta,,,54,18,V,R,
56,56,14,1,0,53,27,500,['c'],1,left,['0'],6,183,[0.08495263],100,53,easy,plus,dotcolour,beta,,,54,18,V,R,
57,57,15,1,0,44,36,600,['n'],0,left,['0'],6,225,[-0.12154594],100,44,hard,plus,dotcolour,beta,,,54,18,V,R,
58,58,16,1,0,36,44,632,['n'],1,right,['0'],6,263,[-0.15437132],100,44,hard,plus,dotcolour,beta,,,54,18,V,R,
59,59,17,1,0,44,36,513,['c'],1,left,['0'],6,202,[0.01251681],94,44,hard,plus,dotcolour,beta,,,54,18,V,R,
60,60,18,1,0,44,36,615,['n'],0,left,['9'],5,386,[-0.04392919],95,44,hard,plus,dotcolour,beta,,,54,18,V,R,
61,61,19,1,0,27,53,1332,['c'],0,right,['1'],1,1310,[-0.08767775],38,53,easy,plus,dotcolour,beta,,,54,18,V,R,
62,62,20,1,0,47,33,564,['n'],0,left,['9'],5,500,[0.02551183],68,47,medium,plus,dotcolour,beta,,,54,18,V,R,
63,63,21,1,0,27,53,398,['n'],1,right,['0'],6,258,[-0.13248424],100,53,easy,plus,dotcolour,beta,,,54,18,V,R,
64,64,22,1,0,36,44,3032,['n'],1,right,['3'],3,1031,[-0.18316641],99,44,hard,plus,dotcolour,beta,,,54,18,V,R,
65,65,23,1,0,36,44,866,['n'],1,right,['0'],6,356,[-0.04880741],96,44,hard,plus,dotcolour,beta,,,54,18,V,R,
66,66,24,1,0,47,33,1797,['c'],1,left,['9'],5,1040,[0.0407799],85,47,medium,plus,dotcolour,beta,,,54,18,V,R,
67,67,25,1,0,33,47,550,['n'],1,right,['0'],6,225,[-0.08517086],100,47,medium,plus,dotcolour,beta,,,54,18,V,R,
68,68,26,1,0,53,27,631,['c'],1,left,['9'],5,279,[0.15957109],100,53,easy,plus,dotcolour,beta,,,54,18,V,R,
69,69,27,1,0,27,53,433,['n'],1,right,['0'],6,212,[-0.10474758],100,53,easy,plus,dotcolour,beta,,,54,18,V,R,
70,70,28,1,0,36,44,648,['n'],1,right,['0'],6,154,[-0.04201495],99,44,hard,plus,dotcolour,beta,,,54,18,V,R,
71,71,29,1,0,53,27,632,['c'],1,left,['9'],5,260,[0.09476946],100,53,easy,plus,dotcolour,beta,,,54,18,V,R,
72,72,30,1,0,36,44,449,['n'],1,right,['0'],6,201,[-0.03087425],97,44,hard,plus,dotcolour,beta,,,54,18,V,R,
73,73,31,1,0,53,27,449,['c'],1,left,['0'],6,224,[0.17509974],100,53,easy,plus,dotcolour,beta,,,54,18,V,R,
74,74,32,1,0,47,33,816,['c'],1,left,['9'],5,336,[0.09656923],99,47,medium,plus,dotcolour,beta,,,54,18,V,R,
75,75,33,1,0,53,27,614,['c'],1,left,['9'],5,282,[0.13476872],100,53,easy,plus,dotcolour,beta,,,54,18,V,R,
76,76,34,1,0,53,27,649,['c'],1,left,['9'],5,199,[0.10904489],100,53,easy,plus,dotcolour,beta,,,54,18,V,R,
77,77,35,1,0,47,33,717,['n'],0,left,['9'],5,259,[-0.01289924],92,47,medium,plus,dotcolour,beta,,,54,18,V,R,
78,78,36,1,0,36,44,499,['n'],1,right,['0'],6,214,[-0.15680551],100,44,hard,plus,dotcolour,beta,,,54,18,V,R,
79,79,37,1,0,44,36,765,['n'],0,left,['8'],4,408,[0.06751672],42,44,hard,plus,dotcolour,beta,,,54,18,V,R,
80,80,38,1,0,47,33,647,['c'],1,left,['0'],6,198,[-0.00714777],88,47,medium,plus,dotcolour,beta,,,54,18,V,R,
81,81,39,1,0,33,47,567,['n'],1,right,['9'],5,249,[-0.04301714],97,47,medium,plus,dotcolour,beta,,,54,18,V,R,
82,82,40,1,0,44,36,633,['c'],1,left,['0'],6,200,[0.00860954],93,44,hard,plus,dotcolour,beta,,,54,18,V,R,
83,83,41,1,0,27,53,416,['n'],1,right,['0'],6,352,[-0.22479331],100,53,easy,plus,dotcolour,beta,,,54,18,V,R,
84,84,0,2,0,53,27,801,['c'],1,left,['0'],6,257,[0.06479485],99,53,easy,plus,dotcolour,beta,,,54,18,V,R,
85,85,1,2,0,33,47,432,['n'],1,right,['0'],6,207,[-0.09244441],100,47,medium,plus,dotcolour,beta,,,54,18,V,R,
86,86,2,2,0,33,47,448,['n'],1,right,['0'],6,166,[-0.18334523],100,47,medium,plus,dotcolour,beta,,,54,18,V,R,
87,87,3,2,0,36,44,783,['n'],1,right,['0'],6,176,[-0.11979666],100,44,hard,plus,dotcolour,beta,,,54,18,V,R,
88,88,4,2,0,47,33,800,['c'],1,left,['0'],6,195,[0.0050766],92,47,medium,plus,dotcolour,beta,,,54,18,V,R,
89,89,5,2,0,33,47,416,['n'],1,right,['0'],6,219,[-0.14760568],100,47,medium,plus,dotcolour,beta,,,54,18,V,R,
90,90,6,2,0,47,33,565,['c'],1,left,['0'],6,189,[0.10964077],100,47,medium,plus,dotcolour,beta,,,54,18,V,R,
91,91,7,2,0,36,44,433,['n'],1,right,['0'],6,174,[-0.0630952],99,44,hard,plus,dotcolour,beta,,,54,18,V,R,
92,92,8,2,0,44,36,966,['c'],1,left,['9'],5,265,[0.07401957],99,44,hard,plus,dotcolour,beta,,,54,18,V,R,
93,93,9,2,0,53,27,482,['c'],1,left,['0'],6,309,[0.14934813],100,53,easy,plus,dotcolour,beta,,,54,18,V,R,
94,94,10,2,0,44,36,499,['n'],0,left,['0'],6,213,[-0.07420256],99,44,hard,plus,dotcolour,beta,,,54,18,V,R,
95,95,11,2,0,47,33,583,['n'],0,left,['9'],5,727,[0.05603336],50,47,medium,plus,dotcolour,beta,,,54,18,V,R,
96,96,12,2,0,36,44,465,['n'],1,right,['0'],6,184,[-0.15662498],100,44,hard,plus,dotcolour,beta,,,54,18,V,R,
97,97,13,2,0,36,44,831,['n'],1,right,['0'],6,160,[-0.08634923],100,44,hard,plus,dotcolour,beta,,,54,18,V,R,
98,98,14,2,0,44,36,449,['c'],1,left,['0'],6,289,[0.0593332],98,44,hard,plus,dotcolour,beta,,,54,18,V,R,
99,99,15,2,0,27,53,398,['n'],1,right,['0'],6,223,[-0.13844122],100,53,easy,plus,dotcolour,beta,,,54,18,V,R,
100,100,16,2,0,33,47,516,['c'],0,right,['3'],3,1019,[0.01998369],79,47,medium,plus,dotcolour,beta,,,54,18,V,R,
101,101,17,2,0,53,27,731,['c'],1,left,['0'],6,238,[0.09922079],100,53,easy,plus,dotcolour,beta,,,54,18,V,R,
102,102,18,2,0,44,36,581,['n'],0,left,['0'],6,246,[-0.03230055],96,44,hard,plus,dotcolour,beta,,,54,18,V,R,
103,103,19,2,0,53,27,682,['c'],1,left,['0'],6,179,[0.06788397],99,53,easy,plus,dotcolour,beta,,,54,18,V,R,
104,104,20,2,0,27,53,431,['n'],1,right,['0'],6,204,[-0.11756758],100,53,easy,plus,dotcolour,beta,,,54,18,V,R,
105,105,21,2,0,47,33,764,['c'],1,left,['0'],6,197,[0.1183727],100,47,medium,plus,dotcolour,beta,,,54,18,V,R,
106,106,22,2,0,44,36,599,['c'],1,left,['9'],5,278,[0.1954638],100,44,hard,plus,dotcolour,beta,,,54,18,V,R,
107,107,23,2,0,27,53,450,['n'],1,right,['0'],6,170,[-0.13584668],100,53,easy,plus,dotcolour,beta,,,54,18,V,R,
108,108,24,2,0,47,33,515,['c'],1,left,['0'],6,296,[0.07351159],99,47,medium,plus,dotcolour,beta,,,54,18,V,R,
109,109,25,2,0,33,47,483,['n'],1,right,['0'],6,178,[-0.08785699],100,47,medium,plus,dotcolour,beta,,,54,18,V,R,
110,110,26,2,0,33,47,566,['n'],1,right,['0'],6,165,[-0.11962962],100,47,medium,plus,dotcolour,beta,,,54,18,V,R,
111,111,27,2,0,47,33,582,['c'],1,left,['0'],6,160,[0.1077974],100,47,medium,plus,dotcolour,beta,,,54,18,V,R,
112,112,28,2,0,53,27,646,['c'],1,left,['0'],6,185,[0.11844032],100,53,easy,plus,dotcolour,beta,,,54,18,V,R,
113,113,29,2,0,53,27,400,['n'],0,left,['1'],1,1291,[0.1049526],31,53,easy,plus,dotcolour,beta,,,54,18,V,R,
114,114,30,2,0,36,44,414,['n'],1,right,['0'],6,240,[-0.15494402],100,44,hard,plus,dotcolour,beta,,,54,18,V,R,
115,115,31,2,0,33,47,598,['n'],1,right,['0'],6,232,[-0.0739738],99,47,medium,plus,dotcolour,beta,,,54,18,V,R,
116,116,32,2,0,27,53,447,['n'],1,right,['0'],6,173,[-0.09723107],100,53,easy,plus,dotcolour,beta,,,54,18,V,R,
117,117,33,2,0,36,44,482,['n'],1,right,['0'],6,236,[-0.03353192],96,44,hard,plus,dotcolour,beta,,,54,18,V,R,
118,118,34,2,0,44,36,549,['n'],0,left,['0'],6,190,[-0.13312193],100,44,hard,plus,dotcolour,beta,,,54,18,V,R,
119,119,35,2,0,27,53,382,['n'],1,right,['0'],6,152,[-0.12628189],100,53,easy,plus,dotcolour,beta,,,54,18,V,R,
120,120,36,2,0,47,33,615,['c'],1,left,['9'],5,314,[0.22089157],100,47,medium,plus,dotcolour,beta,,,54,18,V,R,
121,121,37,2,0,44,36,616,['n'],0,left,['9'],5,407,[-0.0515803],95,44,hard,plus,dotcolour,beta,,,54,18,V,R,
122,122,38,2,0,36,44,449,['n'],1,right,['0'],6,189,[-0.05478868],99,44,hard,plus,dotcolour,beta,,,54,18,V,R,
123,123,39,2,0,27,53,466,['n'],1,right,['0'],6,172,[-0.03709601],98,53,easy,plus,dotcolour,beta,,,54,18,V,R,
124,124,40,2,0,27,53,465,['n'],1,right,['0'],6,156,[-0.03921812],99,53,easy,plus,dotcolour,beta,,,54,18,V,R,
125,125,41,2,0,53,27,597,['c'],1,left,['0'],6,143,[0.13772338],100,53,easy,plus,dotcolour,beta,,,54,18,V,R,
126,0,0,3,1,47,33,566,['c'],1,left,['0'],6,176,[0.11386453],92,47,medium,minus,dotcolour,beta,,,54,18,V,R,
127,1,1,3,1,36,44,415,['n'],1,right,['0'],6,186,[-0.09531017],84,44,hard,minus,dotcolour,beta,,,54,18,V,R,
128,2,2,3,1,36,44,533,['n'],1,right,['9'],5,214,[0.00281951],9,44,hard,minus,dotcolour,beta,,,54,18,V,R,
129,3,3,3,1,47,33,532,['c'],1,left,['0'],6,169,[0.11959676],94,47,medium,minus,dotcolour,beta,,,54,18,V,R,
130,4,4,3,1,27,53,534,['n'],1,right,['0'],6,182,[-0.07184987],67,53,easy,minus,dotcolour,beta,,,54,18,V,R,
131,5,5,3,1,33,47,732,['n'],1,right,['0'],6,195,[-0.05335259],48,47,medium,minus,dotcolour,beta,,,54,18,V,R,
132,6,6,3,1,53,27,483,['c'],1,left,['0'],6,218,[0.12582152],94,53,easy,minus,dotcolour,beta,,,54,18,V,R,
133,7,7,3,1,33,47,533,['n'],1,right,['9'],5,300,[-0.10323566],83,47,medium,minus,dotcolour,beta,,,54,18,V,R,
134,8,8,3,1,33,47,582,['n'],1,right,['0'],6,210,[-0.11037503],90,47,medium,minus,dotcolour,beta,,,54,18,V,R,
135,9,9,3,1,47,33,732,['c'],1,left,['0'],6,246,[0.09734722],82,47,medium,minus,dotcolour,beta,,,54,18,V,R,
136,10,10,3,1,36,44,582,['n'],1,right,['9'],5,238,[-0.10136374],84,44,hard,minus,dotcolour,beta,,,54,18,V,R,
137,11,11,3,1,36,44,466,['n'],1,right,['0'],6,187,[-0.11256956],91,44,hard,minus,dotcolour,beta,,,54,18,V,R,
138,12,12,3,1,47,33,732,['c'],1,left,['9'],5,167,[0.07625446],71,47,medium,minus,dotcolour,beta,,,54,18,V,R,
139,13,13,3,1,27,53,466,['n'],1,right,['0'],6,159,[-0.05281132],47,53,easy,minus,dotcolour,beta,,,54,18,V,R,
140,14,14,3,1,44,36,698,['c'],1,left,['0'],6,174,[0.05987252],55,44,hard,minus,dotcolour,beta,,,54,18,V,R,
141,15,15,3,1,53,27,697,['c'],1,left,['0'],6,132,[0.09891045],90,53,easy,minus,dotcolour,beta,,,54,18,V,R,
142,16,16,3,1,44,36,797,['c'],1,left,['9'],5,200,[0.11893082],93,44,hard,minus,dotcolour,beta,,,54,18,V,R,
143,17,17,3,1,53,27,748,['c'],1,left,['0'],6,179,[0.09571103],85,53,easy,minus,dotcolour,beta,,,54,18,V,R,
144,18,18,3,1,36,44,549,['n'],1,right,['9'],5,183,[-0.0765023],71,44,hard,minus,dotcolour,beta,,,54,18,V,R,
145,19,19,3,1,27,53,600,['n'],1,right,['9'],5,193,[-0.11090489],91,53,easy,minus,dotcolour,beta,,,54,18,V,R,
146,20,20,3,1,36,44,582,['c'],0,right,['0'],6,179,[0.0499284],44,44,hard,minus,dotcolour,beta,,,54,18,V,R,
147,21,21,3,1,33,47,750,['n'],1,right,['0'],6,207,[-0.04879288],43,47,medium,minus,dotcolour,beta,,,54,18,V,R,
148,22,22,3,1,47,33,614,['c'],1,left,['9'],5,191,[-0.00889567],7,47,medium,minus,dotcolour,beta,,,54,18,V,R,
149,23,23,3,1,44,36,666,['c'],1,left,['9'],5,254,[0.0730837],65,44,hard,minus,dotcolour,beta,,,54,18,V,R,
150,24,24,3,1,33,47,498,['n'],1,right,['0'],6,161,[-0.1319434],97,47,medium,minus,dotcolour,beta,,,54,18,V,R,
151,25,25,3,1,44,36,568,['c'],1,left,['8'],4,469,[0.0842994],68,44,hard,minus,dotcolour,beta,,,54,18,V,R,
152,26,26,3,1,44,36,567,['c'],1,left,['3'],3,2181,[0.23145324],90,44,hard,minus,dotcolour,beta,,,54,18,V,R,
153,27,27,3,1,44,36,964,['n'],0,left,['9'],5,527,[-0.08586553],68,44,hard,minus,dotcolour,beta,,,54,18,V,R,
154,28,28,3,1,27,53,532,['n'],1,right,['0'],6,197,[-0.08532908],77,53,easy,minus,dotcolour,beta,,,54,18,V,R,
155,29,29,3,1,53,27,449,['c'],1,left,['9'],5,277,[-0.04125586],4,53,easy,minus,dotcolour,beta,,,54,18,V,R,
156,30,30,3,1,27,53,533,['n'],1,right,['0'],6,190,[-0.06482422],59,53,easy,minus,dotcolour,beta,,,54,18,V,R,
157,31,31,3,1,47,33,517,['c'],1,left,['9'],5,274,[0.05160782],47,47,medium,minus,dotcolour,beta,,,54,18,V,R,
158,32,32,3,1,27,53,533,['n'],1,right,['0'],6,203,[-0.15400584],98,53,easy,minus,dotcolour,beta,,,54,18,V,R,
159,33,33,3,1,53,27,451,['c'],1,left,['0'],6,194,[0.11483185],92,53,easy,minus,dotcolour,beta,,,54,18,V,R,
160,34,34,3,1,44,36,517,['c'],1,left,['9'],5,231,[0.05821147],52,44,hard,minus,dotcolour,beta,,,54,18,V,R,
161,35,35,3,1,33,47,583,['n'],1,right,['0'],6,360,[-0.10000895],79,47,medium,minus,dotcolour,beta,,,54,18,V,R,
162,36,36,3,1,36,44,417,['n'],1,right,['0'],6,186,[-0.10453538],89,44,hard,minus,dotcolour,beta,,,54,18,V,R,
163,37,37,3,1,33,47,483,['n'],1,right,['0'],6,160,[-0.10251111],89,47,medium,minus,dotcolour,beta,,,54,18,V,R,
164,38,38,3,1,27,53,449,['n'],1,right,['0'],6,153,[-0.13362352],97,53,easy,minus,dotcolour,beta,,,54,18,V,R,
165,39,39,3,1,53,27,384,['c'],1,left,['0'],6,148,[0.09169494],84,53,easy,minus,dotcolour,beta,,,54,18,V,R,
166,40,40,3,1,53,27,365,['c'],1,left,['9'],5,185,[0.10222839],88,53,easy,minus,dotcolour,beta,,,54,18,V,R,
167,41,41,3,1,47,33,1048,['c'],1,left,['8'],4,392,[0.19170906],98,47,medium,minus,dotcolour,beta,,,54,18,V,R,
168,42,0,4,1,36,44,533,['n'],1,right,['0'],6,187,[-0.09778944],85,44,hard,minus,dotcolour,beta,,,54,18,V,R,
169,43,1,4,1,36,44,465,['n'],1,right,['0'],6,153,[-0.09010962],83,44,hard,minus,dotcolour,beta,,,54,18,V,R,
170,44,2,4,1,47,33,532,['c'],1,left,['9'],5,175,[0.11302325],92,47,medium,minus,dotcolour,beta,,,54,18,V,R,
171,45,3,4,1,33,47,398,['n'],1,right,['0'],6,177,[-0.07042857],65,47,medium,minus,dotcolour,beta,,,54,18,V,R,
172,46,4,4,1,44,36,466,['n'],0,left,['9'],5,185,[0.03272787],2,44,hard,minus,dotcolour,beta,,,54,18,V,R,
173,47,5,4,1,27,53,632,['c'],0,right,['0'],6,153,[0.10223442],90,53,easy,minus,dotcolour,beta,,,54,18,V,R,
174,48,6,4,1,36,44,1132,['n'],1,right,['9'],5,600,[-0.04715712],45,44,hard,minus,dotcolour,beta,,,54,18,V,R,
175,49,7,4,1,44,36,649,['n'],0,left,['0'],6,143,[0.02022921],3,44,hard,minus,dotcolour,beta,,,54,18,V,R,
176,50,8,4,1,36,44,649,['n'],1,right,['0'],6,144,[-0.11037324],93,44,hard,minus,dotcolour,beta,,,54,18,V,R,
177,51,9,4,1,47,33,1065,['c'],1,left,['8'],4,433,[0.09344233],74,47,medium,minus,dotcolour,beta,,,54,18,V,R,
178,52,10,4,1,36,44,566,['n'],1,right,['0'],6,131,[-0.08256639],79,44,hard,minus,dotcolour,beta,,,54,18,V,R,
179,53,11,4,1,33,47,582,['n'],1,right,['0'],6,151,[-0.15953832],99,47,medium,minus,dotcolour,beta,,,54,18,V,R,
180,54,12,4,1,53,27,766,['c'],1,left,['8'],4,755,[0.27516824],99,53,easy,minus,dotcolour,beta,,,54,18,V,R,
181,55,13,4,1,27,53,731,['n'],1,right,['9'],5,321,[-0.006617],17,53,easy,minus,dotcolour,beta,,,54,18,V,R,
182,56,14,4,1,33,47,614,['n'],1,right,['0'],6,157,[-0.01470901],14,47,medium,minus,dotcolour,beta,,,54,18,V,R,
183,57,15,4,1,53,27,682,['c'],1,left,['9'],5,213,[0.15768328],98,53,easy,minus,dotcolour,beta,,,54,18,V,R,
184,58,16,4,1,33,47,533,['n'],1,right,['0'],6,168,[-0.06766845],63,47,medium,minus,dotcolour,beta,,,54,18,V,R,
185,59,17,4,1,36,44,582,['n'],1,right,['9'],5,211,[-0.0713861],65,44,hard,minus,dotcolour,beta,,,54,18,V,R,
186,60,18,4,1,47,33,866,['c'],1,left,['8'],4,369,[0.1147949],85,47,medium,minus,dotcolour,beta,,,54,18,V,R,
187,61,19,4,1,36,44,947,['n'],1,right,['8'],4,694,[-0.01748822],31,44,hard,minus,dotcolour,beta,,,54,18,V,R,
188,62,20,4,1,27,53,516,['n'],1,right,['0'],6,318,[0.01538461],9,53,easy,minus,dotcolour,beta,,,54,18,V,R,
189,63,21,4,1,33,47,949,['n'],1,right,['9'],5,373,[-0.18638913],98,47,medium,minus,dotcolour,beta,,,54,18,V,R,
190,64,22,4,1,44,36,916,['c'],1,left,['8'],4,450,[0.00682432],21,44,hard,minus,dotcolour,beta,,,54,18,V,R,
191,65,23,4,1,44,36,499,['n'],0,left,['8'],4,853,[-0.26585266],98,44,hard,minus,dotcolour,beta,,,54,18,V,R,
192,66,24,4,1,33,47,732,['c'],0,right,['3'],3,2358,[-0.44527334],0,47,medium,minus,dotcolour,beta,,,54,18,V,R,
193,67,25,4,1,44,36,1482,['n'],0,left,['9'],5,341,[-0.07413593],64,44,hard,minus,dotcolour,beta,,,54,18,V,R,
194,68,26,4,1,44,36,416,['n'],0,left,['9'],5,319,[-0.03987102],38,44,hard,minus,dotcolour,beta,,,54,18,V,R,
195,69,27,4,1,53,27,531,['c'],1,left,['9'],5,198,[0.07957607],73,53,easy,minus,dotcolour,beta,,,54,18,V,R,
196,70,28,4,1,53,27,599,['c'],1,left,['0'],6,135,[0.0447086],37,53,easy,minus,dotcolour,beta,,,54,18,V,R,
197,71,29,4,1,27,53,499,['n'],1,right,['0'],6,127,[-0.08278625],80,53,easy,minus,dotcolour,beta,,,54,18,V,R,
198,72,30,4,1,53,27,599,['c'],1,left,['9'],5,163,[0.09213611],84,53,easy,minus,dotcolour,beta,,,54,18,V,R,
199,73,31,4,1,47,33,532,['c'],1,left,['8'],4,337,[0.08467243],71,47,medium,minus,dotcolour,beta,,,54,18,V,R,
200,74,32,4,1,53,27,749,['c'],1,left,['9'],5,175,[0.10559863],90,53,easy,minus,dotcolour,beta,,,54,18,V,R,
201,75,33,4,1,27,53,549,['n'],1,right,['0'],6,131,[-0.11395414],95,53,easy,minus,dotcolour,beta,,,54,18,V,R,
202,76,34,4,1,47,33,465,['n'],0,left,['0'],6,164,[-0.03327041],27,47,medium,minus,dotcolour,beta,,,54,18,V,R,
203,77,35,4,1,44,36,629,['c'],1,left,['9'],5,189,[0.10343683],88,44,hard,minus,dotcolour,beta,,,54,18,V,R,
204,78,36,4,1,27,53,831,['n'],1,right,['0'],6,158,[-0.07548462],71,53,easy,minus,dotcolour,beta,,,54,18,V,R,
205,79,37,4,1,47,33,1099,['c'],1,left,['8'],4,293,[0.06513652],58,47,medium,minus,dotcolour,beta,,,54,18,V,R,
206,80,38,4,1,47,33,565,['c'],1,left,['9'],5,196,[0.05560213],50,47,medium,minus,dotcolour,beta,,,54,18,V,R,
207,81,39,4,1,53,27,581,['c'],1,left,['9'],5,238,[0.06695356],60,53,easy,minus,dotcolour,beta,,,54,18,V,R,
208,82,40,4,1,27,53,364,['n'],1,right,['0'],6,159,[-0.08675884],80,53,easy,minus,dotcolour,beta,,,54,18,V,R,
209,83,41,4,1,33,47,598,['n'],1,right,['0'],6,146,[-0.07051142],67,47,medium,minus,dotcolour,beta,,,54,18,V,R,
210,84,0,5,1,47,33,766,['c'],1,left,['8'],4,381,[0.19602117],98,47,medium,minus,dotcolour,beta,,,54,18,V,R,
211,85,1,5,1,53,27,816,['c'],1,left,['9'],5,246,[0.06296825],57,53,easy,minus,dotcolour,beta,,,54,18,V,R,
212,86,2,5,1,44,36,782,['n'],0,left,['0'],6,134,[-0.07618185],73,44,hard,minus,dotcolour,beta,,,54,18,V,R,
213,87,3,5,1,33,47,680,['n'],1,right,['9'],5,167,[-0.05804054],53,47,medium,minus,dotcolour,beta,,,54,18,V,R,
214,88,4,5,1,44,36,715,['c'],1,left,['9'],5,165,[0.04514428],39,44,hard,minus,dotcolour,beta,,,54,18,V,R,
215,89,5,5,1,33,47,414,['n'],1,right,['0'],6,159,[-0.07297664],69,47,medium,minus,dotcolour,beta,,,54,18,V,R,
216,90,6,5,1,53,27,534,['c'],1,left,['9'],5,172,[0.07258577],68,53,easy,minus,dotcolour,beta,,,54,18,V,R,
217,91,7,5,1,47,33,417,['c'],1,left,['8'],4,590,[0.02104848],31,47,medium,minus,dotcolour,beta,,,54,18,V,R,
218,92,8,5,1,33,47,482,['n'],1,right,['0'],6,220,[-0.04494352],40,47,medium,minus,dotcolour,beta,,,54,18,V,R,
219,93,9,5,1,53,27,633,['c'],1,left,['9'],5,251,[0.01455342],19,53,easy,minus,dotcolour,beta,,,54,18,V,R,
220,94,10,5,1,44,36,599,['c'],1,left,['8'],4,458,[0.15741867],94,44,hard,minus,dotcolour,beta,,,54,18,V,R,
221,95,11,5,1,44,36,549,['c'],1,left,['8'],4,171,[0.08634446],79,44,hard,minus,dotcolour,beta,,,54,18,V,R,
222,96,12,5,1,44,36,1314,['c'],1,left,['8'],4,561,[0.15676065],92,44,hard,minus,dotcolour,beta,,,54,18,V,R,
223,97,13,5,1,53,27,582,['c'],1,left,['9'],5,829,[-0.10543522],4,53,easy,minus,dotcolour,beta,,,54,18,V,R,
224,98,14,5,1,27,53,514,['n'],1,right,['0'],6,128,[-0.0507346],44,53,easy,minus,dotcolour,beta,,,54,18,V,R,
225,99,15,5,1,36,44,415,['n'],1,right,['0'],6,203,[-0.09676867],84,44,hard,minus,dotcolour,beta,,,54,18,V,R,
226,100,16,5,1,47,33,965,['c'],1,left,['8'],4,989,[0.17776992],90,47,medium,minus,dotcolour,beta,,,54,18,V,R,
227,101,17,5,1,27,53,848,['n'],1,right,['0'],6,885,[-0.28327555],99,53,easy,minus,dotcolour,beta,,,54,18,V,R,
228,102,18,5,1,36,44,499,['n'],1,right,['0'],6,182,[-0.05879542],53,44,hard,minus,dotcolour,beta,,,54,18,V,R,
229,103,19,5,1,27,53,532,['n'],1,right,['0'],6,147,[-0.12156049],96,53,easy,minus,dotcolour,beta,,,54,18,V,R,
230,104,20,5,1,27,53,699,['n'],1,right,['0'],6,170,[-0.10329976],89,53,easy,minus,dotcolour,beta,,,54,18,V,R,
231,105,21,5,1,47,33,865,['c'],1,left,['8'],4,290,[0.04369756],40,47,medium,minus,dotcolour,beta,,,54,18,V,R,
232,106,22,5,1,33,47,616,['n'],1,right,['9'],5,311,[-0.09056685],76,47,medium,minus,dotcolour,beta,,,54,18,V,R,
233,107,23,5,1,53,27,549,['c'],1,left,['0'],6,597,[0.16638137],93,53,easy,minus,dotcolour,beta,,,54,18,V,R,
234,108,24,5,1,36,44,550,['n'],1,right,['9'],5,257,[-0.10586898],86,44,hard,minus,dotcolour,beta,,,54,18,V,R,
235,109,25,5,1,47,33,799,['c'],1,left,['9'],5,191,[0.11189251],91,47,medium,minus,dotcolour,beta,,,54,18,V,R,
236,110,26,5,1,36,44,446,['n'],1,right,['0'],6,175,[-0.05681677],51,44,hard,minus,dotcolour,beta,,,54,18,V,R,
237,111,27,5,1,27,53,449,['n'],1,right,['9'],5,158,[-0.07232337],68,53,easy,minus,dotcolour,beta,,,54,18,V,R,
238,112,28,5,1,53,27,683,['c'],1,left,['0'],6,294,[0.02938129],30,53,easy,minus,dotcolour,beta,,,54,18,V,R,
239,113,29,5,1,27,53,448,['n'],1,right,['0'],6,209,[-0.07898729],72,53,easy,minus,dotcolour,beta,,,54,18,V,R,
240,114,30,5,1,33,47,531,['c'],0,right,['2'],2,989,[0.01984289],34,47,medium,minus,dotcolour,beta,,,54,18,V,R,
241,115,31,5,1,53,27,564,['n'],0,left,['2'],2,1375,[0.05860805],15,53,easy,minus,dotcolour,beta,,,54,18,V,R,
242,116,32,5,1,27,53,399,['n'],1,right,['0'],6,137,[-0.06505551],61,53,easy,minus,dotcolour,beta,,,54,18,V,R,
243,117,33,5,1,47,33,783,['c'],1,left,['9'],5,278,[-0.01659232],8,47,medium,minus,dotcolour,beta,,,54,18,V,R,
244,118,34,5,1,47,33,582,['c'],1,left,['0'],6,413,[0.01623924],25,47,medium,minus,dotcolour,beta,,,54,18,V,R,
245,119,35,5,1,33,47,399,['n'],1,right,['0'],6,189,[-0.06872037],63,47,medium,minus,dotcolour,beta,,,54,18,V,R,
246,120,36,5,1,36,44,448,['n'],1,right,['0'],6,133,[-0.12427296],97,44,hard,minus,dotcolour,beta,,,54,18,V,R,
247,121,37,5,1,33,47,415,['n'],1,right,['9'],5,337,[-0.07344178],64,47,medium,minus,dotcolour,beta,,,54,18,V,R,
248,122,38,5,1,36,44,399,['n'],1,right,['0'],6,132,[-0.05617336],51,44,hard,minus,dotcolour,beta,,,54,18,V,R,
249,123,39,5,1,44,36,898,['n'],0,left,['9'],5,788,[0.09512532],4,44,hard,minus,dotcolour,beta,,,54,18,V,R,
250,124,40,5,1,44,36,482,['c'],1,left,['9'],5,250,[-0.00477935],10,44,hard,minus,dotcolour,beta,,,54,18,V,R,
251,125,41,5,1,36,44,615,['n'],1,right,['0'],6,136,[-0.13146652],98,44,hard,minus,dotcolour,beta,,,54,18,V,R,
252,0,0,6,2,36,44,633,['n'],1,right,['0'],6,156,[-0.0976064],100,44,hard,plus,dotcolour,beta,,,54,18,V,R,
253,1,1,6,2,33,47,533,['n'],1,right,['0'],6,160,[-0.14764127],100,47,medium,plus,dotcolour,beta,,,54,18,V,R,
254,2,2,6,2,47,33,481,['c'],1,left,['9'],5,168,[0.13064635],100,47,medium,plus,dotcolour,beta,,,54,18,V,R,
255,3,3,6,2,44,36,715,['c'],1,left,['9'],5,206,[0.0213612],95,44,hard,plus,dotcolour,beta,,,54,18,V,R,
256,4,4,6,2,44,36,699,['c'],1,left,['9'],5,595,[0.09851907],97,44,hard,plus,dotcolour,beta,,,54,18,V,R,
257,5,5,6,2,36,44,515,['n'],1,right,['0'],6,199,[-0.06123031],99,44,hard,plus,dotcolour,beta,,,54,18,V,R,
258,6,6,6,2,53,27,648,['c'],1,left,['9'],5,182,[0.10721287],100,53,easy,plus,dotcolour,beta,,,54,18,V,R,
259,7,7,6,2,44,36,584,['c'],1,left,['9'],5,153,[0.10878557],100,44,hard,plus,dotcolour,beta,,,54,18,V,R,
260,8,8,6,2,44,36,600,['n'],0,left,['0'],6,148,[-0.0379592],99,44,hard,plus,dotcolour,beta,,,54,18,V,R,
261,9,9,6,2,36,44,1000,['n'],1,right,['9'],5,255,[-0.08799458],99,44,hard,plus,dotcolour,beta,,,54,18,V,R,
262,10,10,6,2,53,27,598,['c'],1,left,['0'],6,270,[0.01936276],93,53,easy,plus,dotcolour,beta,,,54,18,V,R,
263,11,11,6,2,47,33,382,['c'],1,left,['0'],6,229,[0.0933822],100,47,medium,plus,dotcolour,beta,,,54,18,V,R,
264,12,12,6,2,33,47,547,['n'],1,right,['8'],4,551,[-0.13615053],99,47,medium,plus,dotcolour,beta,,,54,18,V,R,
265,13,13,6,2,27,53,648,['n'],1,right,['0'],6,119,[-0.01018177],97,53,easy,plus,dotcolour,beta,,,54,18,V,R,
266,14,14,6,2,33,47,866,['n'],1,right,['0'],6,162,[-0.09645667],100,47,medium,plus,dotcolour,beta,,,54,18,V,R,
267,15,15,6,2,27,53,531,['n'],1,right,['0'],6,119,[-0.08531998],100,53,easy,plus,dotcolour,beta,,,54,18,V,R,
268,16,16,6,2,27,53,466,['n'],1,right,['0'],6,128,[-0.12353069],100,53,easy,plus,dotcolour,beta,,,54,18,V,R,
269,17,17,6,2,53,27,514,['c'],1,left,['0'],6,128,[0.1552504],100,53,easy,plus,dotcolour,beta,,,54,18,V,R,
270,18,18,6,2,44,36,416,['n'],0,left,['0'],6,107,[-0.0088973],97,44,hard,plus,dotcolour,beta,,,54,18,V,R,
271,19,19,6,2,44,36,616,['c'],1,left,['0'],6,136,[0.09446638],100,44,hard,plus,dotcolour,beta,,,54,18,V,R,
272,20,20,6,2,47,33,499,['n'],0,left,['9'],5,256,[-0.04316929],97,47,medium,plus,dotcolour,beta,,,54,18,V,R,
273,21,21,6,2,44,36,666,['c'],1,left,['9'],5,300,[-0.01866737],77,44,hard,plus,dotcolour,beta,,,54,18,V,R,
274,22,22,6,2,36,44,516,['n'],1,right,['0'],6,108,[-0.02638086],99,44,hard,plus,dotcolour,beta,,,54,18,V,R,
275,23,23,6,2,36,44,464,['n'],1,right,['0'],6,150,[-0.08709382],100,44,hard,plus,dotcolour,beta,,,54,18,V,R,
276,24,24,6,2,36,44,566,['c'],0,right,['8'],4,827,[0.12185341],97,44,hard,plus,dotcolour,beta,,,54,18,V,R,
277,25,25,6,2,47,33,831,['c'],1,left,['9'],5,393,[0.04220856],94,47,medium,plus,dotcolour,beta,,,54,18,V,R,
278,26,26,6,2,27,53,498,['n'],1,right,['0'],6,119,[-0.10599041],100,53,easy,plus,dotcolour,beta,,,54,18,V,R,
279,27,27,6,2,53,27,531,['c'],1,left,['9'],5,150,[0.05484402],99,53,easy,plus,dotcolour,beta,,,54,18,V,R,
280,28,28,6,2,53,27,449,['c'],1,left,['9'],5,120,[0.14605959],100,53,easy,plus,dotcolour,beta,,,54,18,V,R,
281,29,29,6,2,53,27,398,['n'],0,left,['3'],3,788,[-0.05200518],90,53,easy,plus,dotcolour,beta,,,54,18,V,R,
282,30,30,6,2,27,53,399,['n'],1,right,['0'],6,158,[-0.10409983],100,53,easy,plus,dotcolour,beta,,,54,18,V,R,
283,31,31,6,2,33,47,664,['n'],1,right,['0'],6,158,[-0.08484593],100,47,medium,plus,dotcolour,beta,,,54,18,V,R,
284,32,32,6,2,33,47,800,['n'],1,right,['9'],5,136,[-0.07520683],100,47,medium,plus,dotcolour,beta,,,54,18,V,R,
285,33,33,6,2,33,47,483,['n'],1,right,['9'],5,129,[-0.08545797],100,47,medium,plus,dotcolour,beta,,,54,18,V,R,
286,34,34,6,2,53,27,399,['n'],0,left,['9'],5,188,[-0.05978402],99,53,easy,plus,dotcolour,beta,,,54,18,V,R,
287,35,35,6,2,47,33,684,['c'],1,left,['9'],5,195,[0.06878195],99,47,medium,plus,dotcolour,beta,,,54,18,V,R,
288,36,36,6,2,33,47,533,['n'],1,right,['0'],6,174,[-0.09460106],100,47,medium,plus,dotcolour,beta,,,54,18,V,R,
289,37,37,6,2,47,33,647,['c'],1,left,['9'],5,134,[0.09185376],100,47,medium,plus,dotcolour,beta,,,54,18,V,R,
290,38,38,6,2,27,53,466,['n'],1,right,['0'],6,144,[-0.12511406],100,53,easy,plus,dotcolour,beta,,,54,18,V,R,
291,39,39,6,2,27,53,466,['n'],1,right,['0'],6,104,[-0.09155351],100,53,easy,plus,dotcolour,beta,,,54,18,V,R,
292,40,40,6,2,47,33,533,['c'],1,left,['9'],5,208,[0.14345333],100,47,medium,plus,dotcolour,beta,,,54,18,V,R,
293,41,41,6,2,36,44,433,['c'],0,right,['3'],3,1344,[-0.05867014],49,44,hard,plus,dotcolour,beta,,,54,18,V,R,
294,42,0,7,2,44,36,616,['n'],0,left,['0'],6,138,[-0.05423326],100,44,hard,plus,dotcolour,beta,,,54,18,V,R,
295,43,1,7,2,47,33,599,['c'],1,left,['0'],6,182,[0.13859981],100,47,medium,plus,dotcolour,beta,,,54,18,V,R,
296,44,2,7,2,53,27,567,['c'],1,left,['9'],5,233,[0.10856254],100,53,easy,plus,dotcolour,beta,,,54,18,V,R,
297,45,3,7,2,44,36,649,['c'],1,left,['8'],4,200,[0.02939461],97,44,hard,plus,dotcolour,beta,,,54,18,V,R,
298,46,4,7,2,53,27,632,['c'],1,left,['9'],5,208,[0.16313666],100,53,easy,plus,dotcolour,beta,,,54,18,V,R,
299,47,5,7,2,33,47,449,['n'],1,right,['0'],6,166,[-0.09332641],100,47,medium,plus,dotcolour,beta,,,54,18,V,R,
300,48,6,7,2,36,44,466,['n'],1,right,['9'],5,342,[-0.03416195],94,44,hard,plus,dotcolour,beta,,,54,18,V,R,
301,49,7,7,2,44,36,666,['c'],1,left,['9'],5,159,[0.11633922],100,44,hard,plus,dotcolour,beta,,,54,18,V,R,
302,50,8,7,2,33,47,680,['c'],0,right,['9'],5,183,[0.04857367],99,47,medium,plus,dotcolour,beta,,,54,18,V,R,
303,51,9,7,2,47,33,732,['c'],1,left,['9'],5,179,[0.04902297],99,47,medium,plus,dotcolour,beta,,,54,18,V,R,
304,52,10,7,2,47,33,749,['c'],1,left,['8'],4,823,[0.23184034],100,47,medium,plus,dotcolour,beta,,,54,18,V,R,
305,53,11,7,2,36,44,897,['n'],1,right,['9'],5,403,[0.06606663],43,44,hard,plus,dotcolour,beta,,,54,18,V,R,
306,54,12,7,2,44,36,581,['n'],0,left,['3'],3,1316,[-0.13158137],95,44,hard,plus,dotcolour,beta,,,54,18,V,R,
307,55,13,7,2,53,27,565,['c'],1,left,['0'],6,402,[0.18645859],100,53,easy,plus,dotcolour,beta,,,54,18,V,R,
308,56,14,7,2,27,53,599,['n'],1,right,['0'],6,131,[-0.15692414],100,53,easy,plus,dotcolour,beta,,,54,18,V,R,
309,57,15,7,2,27,53,366,['n'],1,right,['0'],6,144,[-0.04900306],99,53,easy,plus,dotcolour,beta,,,54,18,V,R,
310,58,16,7,2,33,47,365,['n'],1,right,['0'],6,125,[-0.05819036],100,47,medium,plus,dotcolour,beta,,,54,18,V,R,
311,59,17,7,2,53,27,367,['n'],0,left,['3'],3,754,[0.15908296],10,53,easy,plus,dotcolour,beta,,,54,18,V,R,
312,60,18,7,2,33,47,882,['n'],1,right,['0'],6,162,[-0.07704133],100,47,medium,plus,dotcolour,beta,,,54,18,V,R,
313,61,19,7,2,27,53,399,['n'],1,right,['0'],6,124,[-0.0809475],100,53,easy,plus,dotcolour,beta,,,54,18,V,R,
314,62,20,7,2,27,53,415,['n'],1,right,['0'],6,112,[-0.09565285],100,53,easy,plus,dotcolour,beta,,,54,18,V,R,
315,63,21,7,2,47,33,549,['n'],0,left,['0'],6,143,[-0.04852523],99,47,medium,plus,dotcolour,beta,,,54,18,V,R,
316,64,22,7,2,36,44,516,['n'],1,right,['0'],6,86,[-0.06888456],100,44,hard,plus,dotcolour,beta,,,54,18,V,R,
317,65,23,7,2,44,36,781,['c'],1,left,['9'],5,356,[0.01957281],91,44,hard,plus,dotcolour,beta,,,54,18,V,R,
318,66,24,7,2,27,53,497,['n'],1,right,['0'],6,99,[-0.09611956],100,53,easy,plus,dotcolour,beta,,,54,18,V,R,
319,67,25,7,2,33,47,481,['n'],1,right,['0'],6,37,[-0.07455226],100,47,medium,plus,dotcolour,beta,,,54,18,V,R,
320,68,26,7,2,53,27,1982,['c'],1,left,['3'],3,589,[0.0918972],97,53,easy,plus,dotcolour,beta,,,54,18,V,R,
321,69,27,7,2,27,53,498,['n'],1,right,['0'],6,187,[-0.13537398],100,53,easy,plus,dotcolour,beta,,,54,18,V,R,
322,70,28,7,2,53,27,797,['c'],1,left,['9'],5,413,[0.1439736],100,53,easy,plus,dotcolour,beta,,,54,18,V,R,
323,71,29,7,2,47,33,832,['c'],1,left,['8'],4,396,[0.0420198],94,47,medium,plus,dotcolour,beta,,,54,18,V,R,
324,72,30,7,2,47,33,450,['n'],0,left,['0'],6,236,[-0.04461781],98,47,medium,plus,dotcolour,beta,,,54,18,V,R,
325,73,31,7,2,47,33,698,['c'],1,left,['9'],5,247,[0.14961344],100,47,medium,plus,dotcolour,beta,,,54,18,V,R,
326,74,32,7,2,53,27,648,['c'],1,left,['9'],5,237,[0.06459899],99,53,easy,plus,dotcolour,beta,,,54,18,V,R,
327,75,33,7,2,33,47,548,['n'],1,right,['0'],6,133,[-0.10932934],100,47,medium,plus,dotcolour,beta,,,54,18,V,R,
328,76,34,7,2,44,36,583,['c'],1,left,['9'],5,154,[0.14277467],100,44,hard,plus,dotcolour,beta,,,54,18,V,R,
329,77,35,7,2,36,44,513,['c'],0,right,['8'],4,377,[0.05437864],96,44,hard,plus,dotcolour,beta,,,54,18,V,R,
330,78,36,7,2,36,44,614,['c'],0,right,['9'],5,242,[0.04535768],98,44,hard,plus,dotcolour,beta,,,54,18,V,R,
331,79,37,7,2,33,47,499,['n'],1,right,['0'],6,117,[-0.08123133],100,47,medium,plus,dotcolour,beta,,,54,18,V,R,
332,80,38,7,2,36,44,431,['n'],1,right,['0'],6,153,[-0.12579247],100,44,hard,plus,dotcolour,beta,,,54,18,V,R,
333,81,39,7,2,36,44,382,['c'],0,right,['8'],4,997,[-0.01471144],68,44,hard,plus,dotcolour,beta,,,54,18,V,R,
334,82,40,7,2,27,53,563,['n'],1,right,['0'],6,95,[-0.07937055],100,53,easy,plus,dotcolour,beta,,,54,18,V,R,
335,83,41,7,2,44,36,466,['c'],1,left,['0'],6,114,[0.08275712],100,44,hard,plus,dotcolour,beta,,,54,18,V,R,
336,84,0,8,2,44,36,701,['c'],1,left,['9'],5,514,[0.15328963],99,44,hard,plus,dotcolour,beta,,,54,18,V,R,
337,85,1,8,2,53,27,566,['c'],1,left,['9'],5,160,[0.04264118],99,53,easy,plus,dotcolour,beta,,,54,18,V,R,
338,86,2,8,2,44,36,516,['c'],1,left,['3'],3,910,[0.12917593],97,44,hard,plus,dotcolour,beta,,,54,18,V,R,
339,87,3,8,2,53,27,516,['c'],1,left,['9'],5,158,[0.11369415],100,53,easy,plus,dotcolour,beta,,,54,18,V,R,
340,88,4,8,2,33,47,331,['n'],1,right,['9'],5,219,[-0.06064595],99,47,medium,plus,dotcolour,beta,,,54,18,V,R,
341,89,5,8,2,33,47,899,['c'],0,right,['9'],5,399,[0.08051518],98,47,medium,plus,dotcolour,beta,,,54,18,V,R,
342,90,6,8,2,44,36,631,['n'],0,left,['9'],5,287,[-0.06381358],98,44,hard,plus,dotcolour,beta,,,54,18,V,R,
343,91,7,8,2,44,36,466,['n'],0,left,['3'],3,778,[-0.05522252],91,44,hard,plus,dotcolour,beta,,,54,18,V,R,
344,92,8,8,2,27,53,732,['n'],1,right,['9'],5,943,[-0.27254699],100,53,easy,plus,dotcolour,beta,,,54,18,V,R,
345,93,9,8,2,53,27,549,['c'],1,left,['9'],5,292,[0.16464194],100,53,easy,plus,dotcolour,beta,,,54,18,V,R,
346,94,10,8,2,33,47,632,['n'],1,right,['0'],6,152,[-0.02085521],97,47,medium,plus,dotcolour,beta,,,54,18,V,R,
347,95,11,8,2,47,33,397,['n'],0,left,['9'],5,275,[-0.10482403],100,47,medium,plus,dotcolour,beta,,,54,18,V,R,
348,96,12,8,2,36,44,481,['n'],1,right,['9'],5,149,[-0.0817329],100,44,hard,plus,dotcolour,beta,,,54,18,V,R,
349,97,13,8,2,36,44,564,['c'],0,right,['9'],5,130,[0.04108184],99,44,hard,plus,dotcolour,beta,,,54,18,V,R,
350,98,14,8,2,47,33,380,['n'],0,left,['8'],4,687,[0.00337422],76,47,medium,plus,dotcolour,beta,,,54,18,V,R,
351,99,15,8,2,33,47,417,['n'],1,right,['0'],6,259,[-0.05336316],98,47,medium,plus,dotcolour,beta,,,54,18,V,R,
352,100,16,8,2,44,36,799,['c'],1,left,['0'],6,178,[0.08970317],100,44,hard,plus,dotcolour,beta,,,54,18,V,R,
353,101,17,8,2,53,27,582,['c'],1,left,['0'],6,117,[0.10622547],100,53,easy,plus,dotcolour,beta,,,54,18,V,R,
354,102,18,8,2,33,47,566,['n'],1,right,['9'],5,139,[-0.05787421],100,47,medium,plus,dotcolour,beta,,,54,18,V,R,
355,103,19,8,2,44,36,300,['n'],0,left,['9'],5,155,[-0.02264949],97,44,hard,plus,dotcolour,beta,,,54,18,V,R,
356,104,20,8,2,33,47,415,['c'],0,right,['3'],3,789,[0.04468538],88,47,medium,plus,dotcolour,beta,,,54,18,V,R,
357,105,21,8,2,27,53,366,['n'],1,right,['9'],5,208,[-0.15445751],100,53,easy,plus,dotcolour,beta,,,54,18,V,R,
358,106,22,8,2,36,44,398,['n'],1,right,['9'],5,193,[-0.14385387],100,44,hard,plus,dotcolour,beta,,,54,18,V,R,
359,107,23,8,2,33,47,450,['n'],1,right,['9'],5,120,[-0.15787926],100,47,medium,plus,dotcolour,beta,,,54,18,V,R,
360,108,24,8,2,27,53,416,['n'],1,right,['9'],5,116,[-0.07833995],100,53,easy,plus,dotcolour,beta,,,54,18,V,R,
361,109,25,8,2,53,27,283,['n'],0,left,['9'],5,237,[-0.09858835],100,53,easy,plus,dotcolour,beta,,,54,18,V,R,
362,110,26,8,2,27,53,265,['n'],1,right,['9'],5,139,[-0.13774707],100,53,easy,plus,dotcolour,beta,,,54,18,V,R,
363,111,27,8,2,44,36,348,['n'],0,left,['9'],5,168,[-0.01044246],95,44,hard,plus,dotcolour,beta,,,54,18,V,R,
364,112,28,8,2,53,27,350,['n'],0,left,['9'],5,173,[-0.05395046],99,53,easy,plus,dotcolour,beta,,,54,18,V,R,
365,113,29,8,2,36,44,665,['c'],0,right,['9'],5,181,[0.09467322],100,44,hard,plus,dotcolour,beta,,,54,18,V,R,
366,114,30,8,2,27,53,482,['n'],1,right,['9'],5,91,[-0.11822887],100,53,easy,plus,dotcolour,beta,,,54,18,V,R,
367,115,31,8,2,36,44,615,['n'],1,right,['9'],5,249,[-0.05394369],98,44,hard,plus,dotcolour,beta,,,54,18,V,R,
368,116,32,8,2,27,53,364,['n'],1,right,['9'],5,89,[-0.11206039],100,53,easy,plus,dotcolour,beta,,,54,18,V,R,
369,117,33,8,2,36,44,998,['n'],1,right,['0'],6,103,[-0.09469339],100,44,hard,plus,dotcolour,beta,,,54,18,V,R,
370,118,34,8,2,47,33,946,['n'],0,left,['2'],2,1295,[0.09663403],34,47,medium,plus,dotcolour,beta,,,54,18,V,R,
371,119,35,8,2,27,53,380,['n'],1,right,['9'],5,156,[-0.04605107],99,53,easy,plus,dotcolour,beta,,,54,18,V,R,
372,120,36,8,2,47,33,1299,['n'],0,left,['8'],4,452,[-0.02391951],89,47,medium,plus,dotcolour,beta,,,54,18,V,R,
373,121,37,8,2,47,33,815,['c'],1,left,['8'],4,346,[0.14005929],100,47,medium,plus,dotcolour,beta,,,54,18,V,R,
374,122,38,8,2,53,27,983,['c'],1,left,['9'],5,310,[0.14765498],100,53,easy,plus,dotcolour,beta,,,54,18,V,R,
375,123,39,8,2,47,33,781,['n'],0,left,['0'],6,139,[-0.01724228],97,47,medium,plus,dotcolour,beta,,,54,18,V,R,
376,124,40,8,2,47,33,664,['c'],1,left,['9'],5,132,[0.10106809],100,47,medium,plus,dotcolour,beta,,,54,18,V,R,
377,125,41,8,2,36,44,480,['c'],0,right,['9'],5,116,[0.09638207],100,44,hard,plus,dotcolour,beta,,,54,18,V,R,
378,0,0,9,3,27,53,350,['n'],1,right,['9'],5,198,[-0.1195257],93,53,easy,minus,dotcolour,beta,,,54,18,V,R,
379,1,1,9,3,44,36,432,['n'],0,left,['0'],6,167,[-0.01982084],17,44,hard,minus,dotcolour,beta,,,54,18,V,R,
380,2,2,9,3,47,33,382,['n'],0,left,['8'],4,402,[-0.05778114],52,47,medium,minus,dotcolour,beta,,,54,18,V,R,
381,3,3,9,3,53,27,398,['n'],0,left,['2'],2,763,[0.21681617],0,53,easy,minus,dotcolour,beta,,,54,18,V,R,
382,4,4,9,3,47,33,597,['n'],0,left,['0'],6,150,[-0.09529957],86,47,medium,minus,dotcolour,beta,,,54,18,V,R,
383,5,5,9,3,47,33,532,['c'],1,left,['9'],5,148,[0.0797511],76,47,medium,minus,dotcolour,beta,,,54,18,V,R,
384,6,6,9,3,33,47,349,['c'],0,right,['0'],6,217,[0.17271207],99,47,medium,minus,dotcolour,beta,,,54,18,V,R,
385,7,7,9,3,44,36,499,['c'],1,left,['0'],6,150,[0.06041584],56,44,hard,minus,dotcolour,beta,,,54,18,V,R,
386,8,8,9,3,33,47,430,['n'],1,right,['9'],5,136,[-0.09957786],90,47,medium,minus,dotcolour,beta,,,54,18,V,R,
387,9,9,9,3,33,47,432,['n'],1,right,['9'],5,131,[-0.11039382],94,47,medium,minus,dotcolour,beta,,,54,18,V,R,
388,10,10,9,3,27,53,417,['n'],1,right,['9'],5,118,[-0.10667182],94,53,easy,minus,dotcolour,beta,,,54,18,V,R,
389,11,11,9,3,33,47,400,['n'],1,right,['0'],6,98,[-0.04146485],31,47,medium,minus,dotcolour,beta,,,54,18,V,R,
390,12,12,9,3,33,47,400,['n'],1,right,['0'],6,112,[-0.08003466],79,47,medium,minus,dotcolour,beta,,,54,18,V,R,
391,13,13,9,3,36,44,615,['n'],1,right,['9'],5,468,[-0.22161909],99,44,hard,minus,dotcolour,beta,,,54,18,V,R,
392,14,14,9,3,33,47,1083,['n'],1,right,['0'],6,591,[-0.12042405],82,47,medium,minus,dotcolour,beta,,,54,18,V,R,
393,15,15,9,3,27,53,481,['n'],1,right,['0'],6,117,[-0.11318873],95,53,easy,minus,dotcolour,beta,,,54,18,V,R,
394,16,16,9,3,27,53,382,['n'],1,right,['0'],6,115,[-0.09288439],88,53,easy,minus,dotcolour,beta,,,54,18,V,R,
395,17,17,9,3,44,36,398,['n'],0,left,['0'],6,135,[-0.11385422],95,44,hard,minus,dotcolour,beta,,,54,18,V,R,
396,18,18,9,3,36,44,432,['n'],1,right,['0'],6,114,[-0.08640151],84,44,hard,minus,dotcolour,beta,,,54,18,V,R,
397,19,19,9,3,36,44,281,['n'],1,right,['0'],6,131,[-0.04867454],42,44,hard,minus,dotcolour,beta,,,54,18,V,R,
398,20,20,9,3,27,53,465,['n'],1,right,['9'],5,124,[-0.07072338],68,53,easy,minus,dotcolour,beta,,,54,18,V,R,
399,21,21,9,3,36,44,465,['n'],1,right,['0'],6,126,[-0.07132615],69,44,hard,minus,dotcolour,beta,,,54,18,V,R,
400,22,22,9,3,47,33,415,['n'],0,left,['9'],5,161,[-0.03055687],25,47,medium,minus,dotcolour,beta,,,54,18,V,R,
401,23,23,9,3,53,27,599,['c'],1,left,['9'],5,268,[0.05931301],53,53,easy,minus,dotcolour,beta,,,54,18,V,R,
402,24,24,9,3,33,47,481,['n'],1,right,['0'],6,111,[-0.05671782],52,47,medium,minus,dotcolour,beta,,,54,18,V,R,
403,25,25,9,3,53,27,155,['n'],0,left,['3'],3,1476,[0.17600183],3,53,easy,minus,dotcolour,beta,,,54,18,V,R,
404,26,26,9,3,53,27,598,['c'],1,left,['0'],6,177,[0.15021393],98,53,easy,minus,dotcolour,beta,,,54,18,V,R,
405,27,27,9,3,27,53,448,['n'],1,right,['0'],6,145,[-0.05247683],46,53,easy,minus,dotcolour,beta,,,54,18,V,R,
406,28,28,9,3,36,44,515,['n'],1,right,['0'],6,120,[-0.03982636],31,44,hard,minus,dotcolour,beta,,,54,18,V,R,
407,29,29,9,3,27,53,264,['n'],1,right,['0'],6,90,[-0.10741258],96,53,easy,minus,dotcolour,beta,,,54,18,V,R,
408,30,30,9,3,44,36,430,['n'],0,left,['0'],6,214,[-0.01119869],15,44,hard,minus,dotcolour,beta,,,54,18,V,R,
409,31,31,9,3,53,27,698,['c'],1,left,['0'],6,155,[0.13034156],97,53,easy,minus,dotcolour,beta,,,54,18,V,R,
410,32,32,9,3,53,27,416,['c'],1,left,['0'],6,116,[0.05692667],52,53,easy,minus,dotcolour,beta,,,54,18,V,R,
411,33,33,9,3,53,27,298,['c'],1,left,['0'],6,181,[0.1763628],99,53,easy,minus,dotcolour,beta,,,54,18,V,R,
412,34,34,9,3,44,36,465,['c'],1,left,['9'],5,124,[0.08767758],84,44,hard,minus,dotcolour,beta,,,54,18,V,R,
413,35,35,9,3,44,36,416,['c'],1,left,['8'],4,104,[0.06929973],68,44,hard,minus,dotcolour,beta,,,54,18,V,R,
414,36,36,9,3,47,33,282,['c'],1,left,['9'],5,186,[0.10929552],90,47,medium,minus,dotcolour,beta,,,54,18,V,R,
415,37,37,9,3,47,33,161,['c'],1,left,['0'],6,67,[0.07567305],80,47,medium,minus,dotcolour,beta,,,54,18,V,R,
416,38,38,9,3,44,36,549,['n'],0,left,['0'],6,148,[-0.06739934],64,44,hard,minus,dotcolour,beta,,,54,18,V,R,
417,39,39,9,3,47,33,500,['c'],1,left,['9'],5,147,[0.05604038],51,47,medium,minus,dotcolour,beta,,,54,18,V,R,
418,40,40,9,3,36,44,431,['n'],1,right,['0'],6,133,[-0.03757605],29,44,hard,minus,dotcolour,beta,,,54,18,V,R,
419,41,41,9,3,36,44,316,['n'],1,right,['0'],6,132,[-0.07868304],76,44,hard,minus,dotcolour,beta,,,54,18,V,R,
420,42,0,10,3,47,33,62,['n'],0,left,['0'],6,597,[-0.04249277],42,47,medium,minus,dotcolour,beta,,,54,18,V,R,
421,43,1,10,3,36,44,297,['n'],1,right,['0'],6,114,[-0.10527212],93,44,hard,minus,dotcolour,beta,,,54,18,V,R,
422,44,2,10,3,53,27,332,['n'],0,left,['0'],6,154,[-0.07607278],72,53,easy,minus,dotcolour,beta,,,54,18,V,R,
423,45,3,10,3,47,33,298,['n'],0,left,['0'],6,137,[-0.02698232],20,47,medium,minus,dotcolour,beta,,,54,18,V,R,
424,46,4,10,3,36,44,348,['n'],1,right,['0'],6,111,[-0.13078913],98,44,hard,minus,dotcolour,beta,,,54,18,V,R,
425,47,5,10,3,27,53,398,['n'],1,right,['0'],6,92,[-0.12042929],98,53,easy,minus,dotcolour,beta,,,54,18,V,R,
426,48,6,10,3,47,33,482,['c'],1,left,['9'],5,157,[0.11059184],92,47,medium,minus,dotcolour,beta,,,54,18,V,R,
427,49,7,10,3,27,53,332,['c'],0,right,['9'],5,163,[0.08371538],78,53,easy,minus,dotcolour,beta,,,54,18,V,R,
428,50,8,10,3,36,44,349,['n'],1,right,['9'],5,184,[-0.09799441],86,44,hard,minus,dotcolour,beta,,,54,18,V,R,
429,51,9,10,3,53,27,481,['c'],1,left,['9'],5,198,[0.08441771],76,53,easy,minus,dotcolour,beta,,,54,18,V,R,
430,52,10,10,3,36,44,397,['n'],1,right,['0'],6,111,[-0.15144529],99,44,hard,minus,dotcolour,beta,,,54,18,V,R,
431,53,11,10,3,44,36,382,['n'],0,left,['0'],6,181,[-0.06124712],56,44,hard,minus,dotcolour,beta,,,54,18,V,R,
432,54,12,10,3,47,33,415,['c'],1,left,['9'],5,142,[0.08514653],80,47,medium,minus,dotcolour,beta,,,54,18,V,R,
433,55,13,10,3,53,27,650,['c'],1,left,['9'],5,63,[0.09576381],95,53,easy,minus,dotcolour,beta,,,54,18,V,R,
434,56,14,10,3,33,47,582,['n'],1,right,['0'],6,79,[-0.09169619],91,47,medium,minus,dotcolour,beta,,,54,18,V,R,
435,57,15,10,3,27,53,432,['c'],0,right,['9'],5,116,[0.08320251],81,53,easy,minus,dotcolour,beta,,,54,18,V,R,
436,58,16,10,3,33,47,648,['c'],0,right,['8'],4,215,[0.00546666],13,47,medium,minus,dotcolour,beta,,,54,18,V,R,
437,59,17,10,3,47,33,900,['c'],1,left,['9'],5,187,[0.08029488],74,47,medium,minus,dotcolour,beta,,,54,18,V,R,
438,60,18,10,3,27,53,932,['c'],0,right,['3'],3,1216,[0.0120348],33,53,easy,minus,dotcolour,beta,,,54,18,V,R,
439,61,19,10,3,44,36,383,['n'],0,left,['0'],6,201,[-0.04764218],42,44,hard,minus,dotcolour,beta,,,54,18,V,R,
440,62,20,10,3,33,47,397,['n'],1,right,['9'],5,122,[-0.07272834],71,47,medium,minus,dotcolour,beta,,,54,18,V,R,
441,63,21,10,3,27,53,414,['n'],1,right,['0'],6,110,[-0.07408838],73,53,easy,minus,dotcolour,beta,,,54,18,V,R,
442,64,22,10,3,36,44,514,['n'],1,right,['0'],6,110,[-0.08731978],85,44,hard,minus,dotcolour,beta,,,54,18,V,R,
443,65,23,10,3,27,53,399,['n'],1,right,['0'],6,115,[-0.07916816],78,53,easy,minus,dotcolour,beta,,,54,18,V,R,
444,66,24,10,3,33,47,432,['n'],1,right,['0'],6,70,[-0.0893935],91,47,medium,minus,dotcolour,beta,,,54,18,V,R,
445,67,25,10,3,53,27,332,['n'],0,left,['9'],5,95,[-0.00647737],5,53,easy,minus,dotcolour,beta,,,54,18,V,R,
446,68,26,10,3,47,33,583,['n'],0,left,['9'],5,69,[-0.07468053],79,47,medium,minus,dotcolour,beta,,,54,18,V,R,
447,69,27,10,3,33,47,400,['n'],1,right,['0'],6,155,[-0.10587724],91,47,medium,minus,dotcolour,beta,,,54,18,V,R,
448,70,28,10,3,47,33,484,['c'],1,left,['9'],5,211,[0.06374988],58,47,medium,minus,dotcolour,beta,,,54,18,V,R,
449,71,29,10,3,44,36,281,['n'],0,left,['0'],6,96,[-0.08503999],85,44,hard,minus,dotcolour,beta,,,54,18,V,R,
450,72,30,10,3,33,47,350,['n'],1,right,['0'],6,95,[-0.09552205],91,47,medium,minus,dotcolour,beta,,,54,18,V,R,
451,73,31,10,3,53,27,515,['c'],1,left,['9'],5,112,[0.09042779],87,53,easy,minus,dotcolour,beta,,,54,18,V,R,
452,74,32,10,3,36,44,482,['n'],1,right,['9'],5,98,[-0.06018299],57,44,hard,minus,dotcolour,beta,,,54,18,V,R,
453,75,33,10,3,53,27,381,['n'],0,left,['3'],3,640,[0.07211863],5,53,easy,minus,dotcolour,beta,,,54,18,V,R,
454,76,34,10,3,44,36,732,['c'],1,left,['8'],4,266,[0.11480673],89,44,hard,minus,dotcolour,beta,,,54,18,V,R,
455,77,35,10,3,53,27,1197,['c'],1,left,['0'],6,656,[0.12470626],82,53,easy,minus,dotcolour,beta,,,54,18,V,R,
456,78,36,10,3,33,47,465,['n'],1,right,['9'],5,125,[-0.10644415],93,47,medium,minus,dotcolour,beta,,,54,18,V,R,
457,79,37,10,3,44,36,682,['c'],1,left,['8'],4,2029,[0.18878557],84,44,hard,minus,dotcolour,beta,,,54,18,V,R,
458,80,38,10,3,27,53,434,['n'],1,right,['0'],6,75,[-0.08276132],86,53,easy,minus,dotcolour,beta,,,54,18,V,R,
459,81,39,10,3,44,36,833,['n'],0,left,['0'],6,695,[-0.11229588],77,44,hard,minus,dotcolour,beta,,,54,18,V,R,
460,82,40,10,3,44,36,482,['c'],1,left,['9'],5,393,[0.12022061],86,44,hard,minus,dotcolour,beta,,,54,18,V,R,
461,83,41,10,3,36,44,415,['n'],1,right,['0'],6,122,[-0.13949183],99,44,hard,minus,dotcolour,beta,,,54,18,V,R,
462,84,0,11,3,27,53,416,['n'],1,right,['0'],6,337,[-0.09055189],75,53,easy,minus,dotcolour,beta,,,54,18,V,R,
463,85,1,11,3,33,47,347,['n'],1,right,['0'],6,109,[-0.17141873],100,47,medium,minus,dotcolour,beta,,,54,18,V,R,
464,86,2,11,3,36,44,266,['n'],1,right,['0'],6,127,[-0.13229893],98,44,hard,minus,dotcolour,beta,,,54,18,V,R,
465,87,3,11,3,53,27,481,['c'],1,left,['9'],5,152,[0.10385463],90,53,easy,minus,dotcolour,beta,,,54,18,V,R,
466,88,4,11,3,36,44,450,['n'],1,right,['0'],6,169,[-0.09676905],86,44,hard,minus,dotcolour,beta,,,54,18,V,R,
467,89,5,11,3,53,27,1599,['c'],1,left,['9'],5,315,[0.17937576],98,53,easy,minus,dotcolour,beta,,,54,18,V,R,
468,90,6,11,3,27,53,365,['n'],1,right,['0'],6,121,[-0.07899086],77,53,easy,minus,dotcolour,beta,,,54,18,V,R,
469,91,7,11,3,47,33,347,['n'],0,left,['0'],6,103,[-0.11936867],97,47,medium,minus,dotcolour,beta,,,54,18,V,R,
470,92,8,11,3,53,27,548,['n'],0,left,['0'],6,79,[-0.04998382],41,53,easy,minus,dotcolour,beta,,,54,18,V,R,
471,93,9,11,3,53,27,416,['c'],1,left,['9'],5,132,[0.16671337],100,53,easy,minus,dotcolour,beta,,,54,18,V,R,
472,94,10,11,3,44,36,316,['c'],1,left,['0'],6,107,[0.08849277],86,44,hard,minus,dotcolour,beta,,,54,18,V,R,
473,95,11,11,3,47,33,500,['c'],1,left,['0'],6,172,[0.05973526],55,47,medium,minus,dotcolour,beta,,,54,18,V,R,
474,96,12,11,3,47,33,533,['c'],1,left,['0'],6,489,[0.07435914],62,47,medium,minus,dotcolour,beta,,,54,18,V,R,
475,97,13,11,3,27,53,365,['n'],1,right,['0'],6,112,[-0.10181119],92,53,easy,minus,dotcolour,beta,,,54,18,V,R,
476,98,14,11,3,47,33,483,['c'],1,left,['9'],5,137,[0.08270176],79,47,medium,minus,dotcolour,beta,,,54,18,V,R,
477,99,15,11,3,36,44,481,['n'],1,right,['9'],5,258,[-0.01103304],17,44,hard,minus,dotcolour,beta,,,54,18,V,R,
478,100,16,11,3,33,47,399,['n'],1,right,['0'],6,88,[-0.09954923],94,47,medium,minus,dotcolour,beta,,,54,18,V,R,
479,101,17,11,3,33,47,348,['n'],1,right,['0'],6,88,[-0.09108851],90,47,medium,minus,dotcolour,beta,,,54,18,V,R,
480,102,18,11,3,27,53,348,['n'],1,right,['0'],6,80,[-0.08474831],87,53,easy,minus,dotcolour,beta,,,54,18,V,R,
481,103,19,11,3,33,47,282,['n'],1,right,['0'],6,35,[-0.08338439],94,47,medium,minus,dotcolour,beta,,,54,18,V,R,
482,104,20,11,3,33,47,170,['n'],1,right,['0'],6,459,[-0.09141886],72,47,medium,minus,dotcolour,beta,,,54,18,V,R,
483,105,21,11,3,33,47,169,['n'],1,right,['9'],5,297,[-0.05064753],46,47,medium,minus,dotcolour,beta,,,54,18,V,R,
484,106,22,11,3,27,53,532,['n'],1,right,['0'],6,218,[-0.08662031],77,53,easy,minus,dotcolour,beta,,,54,18,V,R,
485,107,23,11,3,47,33,616,['c'],1,left,['0'],6,73,[0.09018561],91,47,medium,minus,dotcolour,beta,,,54,18,V,R,
486,108,24,11,3,27,53,533,['n'],1,right,['0'],6,114,[-0.09274631],88,53,easy,minus,dotcolour,beta,,,54,18,V,R,
487,109,25,11,3,33,47,282,['n'],1,right,['0'],6,60,[-0.07836012],84,47,medium,minus,dotcolour,beta,,,54,18,V,R,
488,110,26,11,3,53,27,683,['c'],1,left,['9'],5,55,[0.10427158],98,53,easy,minus,dotcolour,beta,,,54,18,V,R,
489,111,27,11,3,53,27,265,['n'],0,left,['9'],5,52,[-0.0581249],55,53,easy,minus,dotcolour,beta,,,54,18,V,R,
490,112,28,11,3,44,36,399,['c'],1,left,['0'],6,66,[0.04347048],30,44,hard,minus,dotcolour,beta,,,54,18,V,R,
491,113,29,11,3,53,27,246,['c'],1,left,['0'],6,55,[0.05573198],50,53,easy,minus,dotcolour,beta,,,54,18,V,R,
492,114,30,11,3,44,36,316,['n'],0,left,['9'],5,137,[-0.13075113],97,44,hard,minus,dotcolour,beta,,,54,18,V,R,
493,115,31,11,3,36,44,500,['n'],1,right,['0'],6,97,[-0.11800305],97,44,hard,minus,dotcolour,beta,,,54,18,V,R,
494,116,32,11,3,44,36,449,['c'],1,left,['9'],5,125,[0.04279042],34,44,hard,minus,dotcolour,beta,,,54,18,V,R,
495,117,33,11,3,27,53,516,['c'],0,right,['0'],6,124,[0.00962858],9,53,easy,minus,dotcolour,beta,,,54,18,V,R,
496,118,34,11,3,36,44,382,['n'],1,right,['0'],6,105,[-0.10941228],95,44,hard,minus,dotcolour,beta,,,54,18,V,R,
497,119,35,11,3,47,33,464,['c'],1,left,['0'],6,163,[0.09057372],83,47,medium,minus,dotcolour,beta,,,54,18,V,R,
498,120,36,11,3,36,44,282,['n'],1,right,['9'],5,130,[-0.09088633],85,44,hard,minus,dotcolour,beta,,,54,18,V,R,
499,121,37,11,3,44,36,466,['c'],1,left,['0'],6,155,[0.07056504],67,44,hard,minus,dotcolour,beta,,,54,18,V,R,
500,122,38,11,3,36,44,381,['n'],1,right,['0'],6,128,[-0.11813763],96,44,hard,minus,dotcolour,beta,,,54,18,V,R,
501,123,39,11,3,47,33,264,['c'],1,left,['9'],5,129,[0.11441254],95,47,medium,minus,dotcolour,beta,,,54,18,V,R,
502,124,40,11,3,44,36,382,['n'],0,left,['0'],6,102,[-0.07982368],80,44,hard,minus,dotcolour,beta,,,54,18,V,R,
503,125,41,11,3,44,36,330,['c'],1,left,['9'],5,109,[0.10323565],93,44,hard,minus,dotcolour,beta,,,54,18,V,R,
504,0,0,12,4,53,27,583,['c'],1,left,['9'],5,589,[0.19064464],100,53,easy,plus,dotcolour,beta,,,54,18,V,R,
505,1,1,12,4,33,47,399,['n'],1,right,['9'],5,126,[-0.07525627],100,47,medium,plus,dotcolour,beta,,,54,18,V,R,
506,2,2,12,4,36,44,266,['n'],1,right,['9'],5,151,[-0.03114618],98,44,hard,plus,dotcolour,beta,,,54,18,V,R,
507,3,3,12,4,36,44,215,['n'],1,right,['0'],6,138,[-0.04348076],99,44,hard,plus,dotcolour,beta,,,54,18,V,R,
508,4,4,12,4,47,33,382,['c'],1,left,['9'],5,143,[0.04767589],99,47,medium,plus,dotcolour,beta,,,54,18,V,R,
509,5,5,12,4,27,53,267,['n'],1,right,['9'],5,103,[-0.05496508],100,53,easy,plus,dotcolour,beta,,,54,18,V,R,
510,6,6,12,4,36,44,682,['c'],0,right,['9'],5,193,[0.0450983],98,44,hard,plus,dotcolour,beta,,,54,18,V,R,
511,7,7,12,4,53,27,665,['c'],1,left,['9'],5,88,[0.05646059],100,53,easy,plus,dotcolour,beta,,,54,18,V,R,
512,8,8,12,4,47,33,466,['n'],0,left,['0'],6,139,[-0.05040031],99,47,medium,plus,dotcolour,beta,,,54,18,V,R,
513,9,9,12,4,47,33,567,['c'],1,left,['9'],5,168,[0.03402143],98,47,medium,plus,dotcolour,beta,,,54,18,V,R,
514,10,10,12,4,44,36,682,['c'],1,left,['9'],5,615,[-0.02116796],69,44,hard,plus,dotcolour,beta,,,54,18,V,R,
515,11,11,12,4,33,47,447,['n'],1,right,['0'],6,197,[-0.05570571],99,47,medium,plus,dotcolour,beta,,,54,18,V,R,
516,12,12,12,4,33,47,382,['n'],1,right,['0'],6,111,[-0.04593949],100,47,medium,plus,dotcolour,beta,,,54,18,V,R,
517,13,13,12,4,47,33,498,['c'],1,left,['0'],6,112,[0.06996363],100,47,medium,plus,dotcolour,beta,,,54,18,V,R,
518,14,14,12,4,36,44,465,['n'],1,right,['0'],6,130,[-0.09277716],100,44,hard,plus,dotcolour,beta,,,54,18,V,R,
519,15,15,12,4,47,33,332,['n'],0,left,['0'],6,112,[-0.03622366],99,47,medium,plus,dotcolour,beta,,,54,18,V,R,
520,16,16,12,4,53,27,566,['c'],1,left,['0'],6,95,[0.05180571],100,53,easy,plus,dotcolour,beta,,,54,18,V,R,
521,17,17,12,4,44,36,465,['n'],0,left,['0'],6,89,[-0.10075495],100,44,hard,plus,dotcolour,beta,,,54,18,V,R,
522,18,18,12,4,53,27,331,['c'],1,left,['0'],6,113,[0.14663984],100,53,easy,plus,dotcolour,beta,,,54,18,V,R,
523,19,19,12,4,53,27,267,['n'],0,left,['0'],6,203,[-0.05526567],99,53,easy,plus,dotcolour,beta,,,54,18,V,R,
524,20,20,12,4,44,36,365,['n'],0,left,['8'],4,510,[-0.06742625],96,44,hard,plus,dotcolour,beta,,,54,18,V,R,
525,21,21,12,4,44,36,464,['c'],1,left,['9'],5,416,[0.12057685],99,44,hard,plus,dotcolour,beta,,,54,18,V,R,
526,22,22,12,4,27,53,914,['n'],1,right,['0'],6,92,[-0.10916355],100,53,easy,plus,dotcolour,beta,,,54,18,V,R,
527,23,23,12,4,27,53,364,['n'],1,right,['0'],6,122,[-0.08247608],100,53,easy,plus,dotcolour,beta,,,54,18,V,R,
528,24,24,12,4,33,47,364,['n'],1,right,['0'],6,80,[-0.0852665],100,47,medium,plus,dotcolour,beta,,,54,18,V,R,
529,25,25,12,4,53,27,364,['c'],1,left,['0'],6,72,[0.08729481],100,53,easy,plus,dotcolour,beta,,,54,18,V,R,
530,26,26,12,4,44,36,399,['n'],0,left,['0'],6,94,[-0.05938981],100,44,hard,plus,dotcolour,beta,,,54,18,V,R,
531,27,27,12,4,36,44,281,['c'],0,right,['8'],4,536,[-0.06417241],45,44,hard,plus,dotcolour,beta,,,54,18,V,R,
532,28,28,12,4,27,53,299,['n'],1,right,['0'],6,127,[-0.10952961],100,53,easy,plus,dotcolour,beta,,,54,18,V,R,
533,29,29,12,4,47,33,285,['n'],0,left,['0'],6,176,[-0.05756052],99,47,medium,plus,dotcolour,beta,,,54,18,V,R,
534,30,30,12,4,36,44,465,['n'],1,right,['8'],4,479,[-0.15126181],100,44,hard,plus,dotcolour,beta,,,54,18,V,R,
535,31,31,12,4,53,27,1015,['c'],1,left,['0'],6,333,[0.0616451],97,53,easy,plus,dotcolour,beta,,,54,18,V,R,
536,32,32,12,4,27,53,1299,['n'],1,right,['0'],6,60,[-0.06041513],100,53,easy,plus,dotcolour,beta,,,54,18,V,R,
537,33,33,12,4,27,53,516,['n'],1,right,['0'],6,230,[-0.06725217],99,53,easy,plus,dotcolour,beta,,,54,18,V,R,
538,34,34,12,4,44,36,449,['c'],1,left,['9'],5,148,[0.08467626],100,44,hard,plus,dotcolour,beta,,,54,18,V,R,
539,35,35,12,4,33,47,300,['c'],0,right,['0'],6,92,[0.0297788],99,47,medium,plus,dotcolour,beta,,,54,18,V,R,
540,36,36,12,4,47,33,431,['c'],1,left,['8'],4,328,[0.06475745],98,47,medium,plus,dotcolour,beta,,,54,18,V,R,
541,37,37,12,4,33,47,347,['n'],1,right,['0'],6,101,[-0.08583417],100,47,medium,plus,dotcolour,beta,,,54,18,V,R,
542,38,38,12,4,27,53,381,['n'],1,right,['0'],6,100,[-0.07480915],100,53,easy,plus,dotcolour,beta,,,54,18,V,R,
543,39,39,12,4,33,47,332,['n'],1,right,['0'],6,84,[-0.09672046],100,47,medium,plus,dotcolour,beta,,,54,18,V,R,
544,40,40,12,4,36,44,282,['n'],1,right,['0'],6,78,[-0.06715286],100,44,hard,plus,dotcolour,beta,,,54,18,V,R,
545,41,41,12,4,44,36,497,['c'],1,left,['8'],4,481,[0.16376626],100,44,hard,plus,dotcolour,beta,,,54,18,V,R,
546,42,0,13,4,33,47,382,['n'],1,right,['0'],6,110,[-0.0397857],99,47,medium,plus,dotcolour,beta,,,54,18,V,R,
547,43,1,13,4,47,33,265,['n'],0,left,['0'],6,96,[-0.07074984],100,47,medium,plus,dotcolour,beta,,,54,18,V,R,
548,44,2,13,4,27,53,398,['n'],1,right,['0'],6,109,[-0.06722054],100,53,easy,plus,dotcolour,beta,,,54,18,V,R,
549,45,3,13,4,27,53,466,['n'],1,right,['0'],6,111,[-0.07369591],100,53,easy,plus,dotcolour,beta,,,54,18,V,R,
550,46,4,13,4,27,53,464,['n'],1,right,['0'],6,97,[-0.06254606],100,53,easy,plus,dotcolour,beta,,,54,18,V,R,
551,47,5,13,4,36,44,464,['c'],0,right,['0'],6,92,[0.07913923],100,44,hard,plus,dotcolour,beta,,,54,18,V,R,
552,48,6,13,4,53,27,119,['n'],0,left,['0'],6,49,[-0.07609949],100,53,easy,plus,dotcolour,beta,,,54,18,V,R,
553,49,7,13,4,47,33,282,['n'],0,left,['0'],6,101,[-0.08002758],100,47,medium,plus,dotcolour,beta,,,54,18,V,R,
554,50,8,13,4,53,27,348,['c'],1,left,['0'],6,125,[0.13765682],100,53,easy,plus,dotcolour,beta,,,54,18,V,R,
555,51,9,13,4,36,44,397,['n'],1,right,['0'],6,88,[-0.10941582],100,44,hard,plus,dotcolour,beta,,,54,18,V,R,
556,52,10,13,4,47,33,265,['n'],0,left,['0'],6,68,[-0.08394094],100,47,medium,plus,dotcolour,beta,,,54,18,V,R,
557,53,11,13,4,33,47,154,['c'],0,right,['0'],6,10,[0.07705742],100,47,medium,plus,dotcolour,beta,,,54,18,V,R,
558,54,12,13,4,36,44,364,['n'],1,right,['0'],6,116,[-0.11417293],100,44,hard,plus,dotcolour,beta,,,54,18,V,R,
559,55,13,13,4,44,36,448,['n'],0,left,['3'],3,863,[-0.08546002],94,44,hard,plus,dotcolour,beta,,,54,18,V,R,
560,56,14,13,4,53,27,498,['c'],1,left,['0'],6,138,[0.10109664],100,53,easy,plus,dotcolour,beta,,,54,18,V,R,
561,57,15,13,4,36,44,316,['c'],0,right,['8'],4,2104,[0.01118205],70,44,hard,plus,dotcolour,beta,,,54,18,V,R,
562,58,16,13,4,44,36,190,['c'],1,left,['9'],5,733,[0.21215529],100,44,hard,plus,dotcolour,beta,,,54,18,V,R,
563,59,17,13,4,36,44,514,['n'],1,right,['0'],6,164,[-0.08232772],100,44,hard,plus,dotcolour,beta,,,54,18,V,R,
564,60,18,13,4,47,33,464,['c'],1,left,['9'],5,317,[0.13537125],100,47,medium,plus,dotcolour,beta,,,54,18,V,R,
565,61,19,13,4,47,33,365,['n'],0,left,['3'],3,674,[-0.08939895],96,47,medium,plus,dotcolour,beta,,,54,18,V,R,
566,62,20,13,4,47,33,382,['c'],1,left,['9'],5,241,[0.14017702],100,47,medium,plus,dotcolour,beta,,,54,18,V,R,
567,63,21,13,4,27,53,1518,['n'],1,right,['0'],6,372,[-0.03069638],93,53,easy,plus,dotcolour,beta,,,54,18,V,R,
568,64,22,13,4,53,27,448,['n'],0,left,['3'],3,1076,[0.08371596],38,53,easy,plus,dotcolour,beta,,,54,18,V,R,
569,65,23,13,4,27,53,864,['n'],1,right,['0'],6,520,[-0.15458513],99,53,easy,plus,dotcolour,beta,,,54,18,V,R,
570,66,24,13,4,44,36,882,['n'],0,left,['0'],6,272,[0.01843298],78,44,hard,plus,dotcolour,beta,,,54,18,V,R,
571,67,25,13,4,27,53,363,['n'],1,right,['0'],6,264,[-0.10407456],100,53,easy,plus,dotcolour,beta,,,54,18,V,R,
572,68,26,13,4,27,53,500,['n'],1,right,['9'],5,211,[-0.08337383],100,53,easy,plus,dotcolour,beta,,,54,18,V,R,
573,69,27,13,4,44,36,566,['c'],1,left,['0'],6,133,[0.05663611],100,44,hard,plus,dotcolour,beta,,,54,18,V,R,
574,70,28,13,4,33,47,414,['n'],1,right,['0'],6,96,[-0.07646669],100,47,medium,plus,dotcolour,beta,,,54,18,V,R,
575,71,29,13,4,36,44,415,['n'],1,right,['0'],6,101,[-0.09774558],100,44,hard,plus,dotcolour,beta,,,54,18,V,R,
576,72,30,13,4,53,27,416,['c'],1,left,['0'],6,82,[0.07942952],100,53,easy,plus,dotcolour,beta,,,54,18,V,R,
577,73,31,13,4,33,47,498,['c'],0,right,['9'],5,243,[0.06826729],99,47,medium,plus,dotcolour,beta,,,54,18,V,R,
578,74,32,13,4,33,47,331,['n'],1,right,['0'],6,118,[-0.04511235],99,47,medium,plus,dotcolour,beta,,,54,18,V,R,
579,75,33,13,4,44,36,298,['c'],1,left,['9'],5,270,[0.10621486],100,44,hard,plus,dotcolour,beta,,,54,18,V,R,
580,76,34,13,4,47,33,297,['n'],0,left,['9'],5,352,[0.07351271],37,47,medium,plus,dotcolour,beta,,,54,18,V,R,
581,77,35,13,4,33,47,397,['n'],1,right,['0'],6,123,[-0.10652077],100,47,medium,plus,dotcolour,beta,,,54,18,V,R,
582,78,36,13,4,44,36,632,['c'],1,left,['8'],4,141,[0.07365434],100,44,hard,plus,dotcolour,beta,,,54,18,V,R,
583,79,37,13,4,44,36,581,['n'],0,left,['0'],6,185,[-0.10256223],100,44,hard,plus,dotcolour,beta,,,54,18,V,R,
584,80,38,13,4,53,27,332,['c'],1,left,['0'],6,199,[0.16343683],100,53,easy,plus,dotcolour,beta,,,54,18,V,R,
585,81,39,13,4,53,27,448,['c'],1,left,['9'],5,166,[0.07509108],100,53,easy,plus,dotcolour,beta,,,54,18,V,R,
586,82,40,13,4,33,47,566,['n'],1,right,['0'],6,162,[-0.10021083],100,47,medium,plus,dotcolour,beta,,,54,18,V,R,
587,83,41,13,4,36,44,317,['n'],1,right,['0'],6,103,[-0.06658205],100,44,hard,plus,dotcolour,beta,,,54,18,V,R,
588,84,0,14,4,36,44,533,['c'],0,right,['0'],6,271,[0.1513454],100,44,hard,plus,dotcolour,beta,,,54,18,V,R,
589,85,1,14,4,36,44,233,['n'],1,right,['0'],6,140,[-0.03177302],99,44,hard,plus,dotcolour,beta,,,54,18,V,R,
590,86,2,14,4,44,36,216,['n'],0,left,['0'],6,96,[-0.05080778],100,44,hard,plus,dotcolour,beta,,,54,18,V,R,
591,87,3,14,4,44,36,431,['n'],0,left,['0'],6,100,[-0.07999165],100,44,hard,plus,dotcolour,beta,,,54,18,V,R,
592,88,4,14,4,47,33,496,['n'],0,left,['0'],6,109,[-0.0319499],99,47,medium,plus,dotcolour,beta,,,54,18,V,R,
593,89,5,14,4,33,47,634,['n'],1,right,['0'],6,88,[-0.11197664],100,47,medium,plus,dotcolour,beta,,,54,18,V,R,
594,90,6,14,4,27,53,548,['n'],1,right,['0'],6,112,[-0.11223748],100,53,easy,plus,dotcolour,beta,,,54,18,V,R,
595,91,7,14,4,33,47,499,['n'],1,right,['0'],6,120,[-0.08686265],100,47,medium,plus,dotcolour,beta,,,54,18,V,R,
596,92,8,14,4,27,53,498,['n'],1,right,['0'],6,113,[-0.11158088],100,53,easy,plus,dotcolour,beta,,,54,18,V,R,
597,93,9,14,4,36,44,432,['n'],1,right,['0'],6,36,[-0.04431993],100,44,hard,plus,dotcolour,beta,,,54,18,V,R,
598,94,10,14,4,33,47,565,['n'],1,right,['0'],6,77,[-0.1205142],100,47,medium,plus,dotcolour,beta,,,54,18,V,R,
599,95,11,14,4,27,53,283,['n'],1,right,['0'],6,168,[-0.1499681],100,53,easy,plus,dotcolour,beta,,,54,18,V,R,
600,96,12,14,4,33,47,366,['n'],1,right,['0'],6,100,[-0.06134343],100,47,medium,plus,dotcolour,beta,,,54,18,V,R,
601,97,13,14,4,33,47,464,['n'],1,right,['0'],6,47,[-0.09018662],100,47,medium,plus,dotcolour,beta,,,54,18,V,R,
602,98,14,14,4,44,36,249,['n'],0,left,['0'],6,84,[-0.08006555],100,44,hard,plus,dotcolour,beta,,,54,18,V,R,
603,99,15,14,4,53,27,316,['n'],0,left,['0'],6,61,[-0.07079183],100,53,easy,plus,dotcolour,beta,,,54,18,V,R,
604,100,16,14,4,53,27,366,['c'],1,left,['0'],6,85,[0.09147139],100,53,easy,plus,dotcolour,beta,,,54,18,V,R,
605,101,17,14,4,53,27,416,['c'],1,left,['0'],6,83,[0.07618292],100,53,easy,plus,dotcolour,beta,,,54,18,V,R,
606,102,18,14,4,53,27,315,['n'],0,left,['0'],6,60,[-0.0282169],100,53,easy,plus,dotcolour,beta,,,54,18,V,R,
607,103,19,14,4,53,27,247,['c'],1,left,['0'],6,1073,[0.14546554],97,53,easy,plus,dotcolour,beta,,,54,18,V,R,
608,104,20,14,4,36,44,315,['c'],0,right,['0'],6,106,[0.1315844],100,44,hard,plus,dotcolour,beta,,,54,18,V,R,
609,105,21,14,4,27,53,498,['n'],1,right,['0'],6,107,[-0.13098901],100,53,easy,plus,dotcolour,beta,,,54,18,V,R,
610,106,22,14,4,33,47,583,['c'],0,right,['0'],6,89,[0.06444803],100,47,medium,plus,dotcolour,beta,,,54,18,V,R,
611,107,23,14,4,53,27,298,['n'],0,left,['0'],6,83,[-0.02401355],99,53,easy,plus,dotcolour,beta,,,54,18,V,R,
612,108,24,14,4,44,36,431,['c'],1,left,['0'],6,127,[0.06883812],100,44,hard,plus,dotcolour,beta,,,54,18,V,R,
613,109,25,14,4,47,33,365,['n'],0,left,['0'],6,125,[-0.06794802],100,47,medium,plus,dotcolour,beta,,,54,18,V,R,
614,110,26,14,4,47,33,248,['c'],1,left,['0'],6,55,[0.07199632],100,47,medium,plus,dotcolour,beta,,,54,18,V,R,
615,111,27,14,4,47,33,283,['n'],0,left,['0'],6,27,[-0.06970489],100,47,medium,plus,dotcolour,beta,,,54,18,V,R,
616,112,28,14,4,36,44,499,['n'],1,right,['0'],6,63,[-0.08438129],100,44,hard,plus,dotcolour,beta,,,54,18,V,R,
617,113,29,14,4,53,27,583,['c'],1,left,['0'],6,78,[0.05326985],100,53,easy,plus,dotcolour,beta,,,54,18,V,R,
618,114,30,14,4,36,44,499,['n'],1,right,['9'],5,96,[-0.10349814],100,44,hard,plus,dotcolour,beta,,,54,18,V,R,
619,115,31,14,4,44,36,416,['n'],0,left,['9'],5,165,[-0.07675396],100,44,hard,plus,dotcolour,beta,,,54,18,V,R,
620,116,32,14,4,36,44,317,['n'],1,right,['0'],6,123,[-0.09458349],100,44,hard,plus,dotcolour,beta,,,54,18,V,R,
621,117,33,14,4,44,36,251,['c'],1,left,['9'],5,117,[0.08596102],100,44,hard,plus,dotcolour,beta,,,54,18,V,R,
622,118,34,14,4,47,33,299,['n'],0,left,['9'],5,1358,[0.06455887],47,47,medium,plus,dotcolour,beta,,,54,18,V,R,
623,119,35,14,4,27,53,382,['n'],1,right,['0'],6,57,[-0.04557111],100,53,easy,plus,dotcolour,beta,,,54,18,V,R,
624,120,36,14,4,27,53,365,['n'],1,right,['0'],6,193,[-0.05901327],99,53,easy,plus,dotcolour,beta,,,54,18,V,R,
625,121,37,14,4,27,53,448,['n'],1,right,['0'],6,104,[-0.09955261],100,53,easy,plus,dotcolour,beta,,,54,18,V,R,
626,122,38,14,4,44,36,266,['n'],0,left,['3'],3,1163,[0.15659382],16,44,hard,plus,dotcolour,beta,,,54,18,V,R,
627,123,39,14,4,47,33,565,['n'],0,left,['0'],6,87,[-0.06488776],100,47,medium,plus,dotcolour,beta,,,54,18,V,R,
628,124,40,14,4,47,33,581,['c'],1,left,['9'],5,253,[0.11669189],100,47,medium,plus,dotcolour,beta,,,54,18,V,R,
629,125,41,14,4,33,47,481,['n'],1,right,['0'],6,65,[-0.07036331],100,47,medium,plus,dotcolour,beta,,,54,18,V,R,
630,0,0,15,5,33,47,566,['n'],1,right,['0'],6,83,[-0.05008622],42,47,medium,minus,dotcolour,beta,,,54,18,V,R,
631,1,1,15,5,53,27,365,['n'],0,left,['3'],3,842,[0.16477888],1,53,easy,minus,dotcolour,beta,,,54,18,V,R,
632,2,2,15,5,27,53,399,['n'],1,right,['0'],6,98,[-0.0778949],78,53,easy,minus,dotcolour,beta,,,54,18,V,R,
633,3,3,15,5,47,33,331,['n'],0,left,['3'],3,610,[-0.02909333],35,47,medium,minus,dotcolour,beta,,,54,18,V,R,
634,4,4,15,5,47,33,398,['c'],1,left,['0'],6,122,[0.07320126],71,47,medium,minus,dotcolour,beta,,,54,18,V,R,
635,5,5,15,5,33,47,330,['n'],1,right,['9'],5,137,[-0.08312182],79,47,medium,minus,dotcolour,beta,,,54,18,V,R,
636,6,6,15,5,47,33,464,['c'],1,left,['0'],6,140,[0.11264094],94,47,medium,minus,dotcolour,beta,,,54,18,V,R,
637,7,7,15,5,36,44,481,['n'],1,right,['0'],6,107,[-0.13039577],98,44,hard,minus,dotcolour,beta,,,54,18,V,R,
638,8,8,15,5,33,47,432,['c'],0,right,['3'],3,719,[0.14837212],88,47,medium,minus,dotcolour,beta,,,54,18,V,R,
639,9,9,15,5,53,27,1031,['c'],1,left,['0'],6,274,[0.10666543],85,53,easy,minus,dotcolour,beta,,,54,18,V,R,
640,10,10,15,5,33,47,448,['n'],1,right,['0'],6,142,[-0.06775035],64,47,medium,minus,dotcolour,beta,,,54,18,V,R,
641,11,11,15,5,53,27,316,['c'],1,left,['0'],6,253,[0.14508281],96,53,easy,minus,dotcolour,beta,,,54,18,V,R,
642,12,12,15,5,53,27,248,['n'],0,left,['0'],6,162,[-0.05391692],48,53,easy,minus,dotcolour,beta,,,54,18,V,R,
643,13,13,15,5,53,27,313,['c'],1,left,['9'],5,120,[0.06202614],58,53,easy,minus,dotcolour,beta,,,54,18,V,R,
644,14,14,15,5,53,27,382,['c'],1,left,['0'],6,101,[0.10463771],94,53,easy,minus,dotcolour,beta,,,54,18,V,R,
645,15,15,15,5,47,33,349,['c'],1,left,['0'],6,108,[0.08238992],81,47,medium,minus,dotcolour,beta,,,54,18,V,R,
646,16,16,15,5,36,44,250,['n'],1,right,['0'],6,87,[-0.01749818],9,44,hard,minus,dotcolour,beta,,,54,18,V,R,
647,17,17,15,5,36,44,498,['n'],1,right,['0'],6,65,[-0.03607281],20,44,hard,minus,dotcolour,beta,,,54,18,V,R,
648,18,18,15,5,44,36,467,['c'],1,left,['9'],5,324,[0.00653946],18,44,hard,minus,dotcolour,beta,,,54,18,V,R,
649,19,19,15,5,27,53,432,['n'],1,right,['0'],6,127,[-0.06888098],66,53,easy,minus,dotcolour,beta,,,54,18,V,R,
650,20,20,15,5,44,36,450,['c'],1,left,['0'],6,81,[0.05515647],49,44,hard,minus,dotcolour,beta,,,54,18,V,R,
651,21,21,15,5,47,33,415,['n'],0,left,['0'],6,95,[-0.04588314],36,47,medium,minus,dotcolour,beta,,,54,18,V,R,
652,22,22,15,5,27,53,282,['n'],1,right,['0'],6,33,[-0.07044288],81,53,easy,minus,dotcolour,beta,,,54,18,V,R,
653,23,23,15,5,27,53,350,['n'],1,right,['0'],6,835,[-0.10702676],73,53,easy,minus,dotcolour,beta,,,54,18,V,R,
654,24,24,15,5,53,27,448,['c'],1,left,['0'],6,104,[0.06302963],60,53,easy,minus,dotcolour,beta,,,54,18,V,R,
655,25,25,15,5,33,47,265,['c'],0,right,['0'],6,235,[0.01861744],20,47,medium,minus,dotcolour,beta,,,54,18,V,R,
656,26,26,15,5,44,36,714,['c'],1,left,['9'],5,542,[0.02285483],31,44,hard,minus,dotcolour,beta,,,54,18,V,R,
657,27,27,15,5,36,44,314,['n'],1,right,['0'],6,156,[-0.06700995],63,44,hard,minus,dotcolour,beta,,,54,18,V,R,
658,28,28,15,5,36,44,715,['n'],1,right,['0'],6,82,[-0.06913151],70,44,hard,minus,dotcolour,beta,,,54,18,V,R,
659,29,29,15,5,47,33,415,['n'],0,left,['0'],6,63,[-0.07175089],76,47,medium,minus,dotcolour,beta,,,54,18,V,R,
660,30,30,15,5,47,33,433,['n'],0,left,['0'],6,541,[0.14425584],1,47,medium,minus,dotcolour,beta,,,54,18,V,R,
661,31,31,15,5,27,53,299,['n'],1,right,['0'],6,100,[-0.06831013],67,53,easy,minus,dotcolour,beta,,,54,18,V,R,
662,32,32,15,5,44,36,265,['n'],0,left,['0'],6,431,[-0.09760417],76,44,hard,minus,dotcolour,beta,,,54,18,V,R,
663,33,33,15,5,36,44,382,['n'],1,right,['0'],6,127,[-0.09789772],89,44,hard,minus,dotcolour,beta,,,54,18,V,R,
664,34,34,15,5,44,36,398,['n'],0,left,['0'],6,131,[-0.10338557],92,44,hard,minus,dotcolour,beta,,,54,18,V,R,
665,35,35,15,5,44,36,681,['n'],0,left,['0'],6,68,[-0.03685002],22,44,hard,minus,dotcolour,beta,,,54,18,V,R,
666,36,36,15,5,33,47,399,['n'],1,right,['0'],6,74,[-0.07694513],80,47,medium,minus,dotcolour,beta,,,54,18,V,R,
667,37,37,15,5,27,53,382,['n'],1,right,['0'],6,98,[-0.05867509],54,53,easy,minus,dotcolour,beta,,,54,18,V,R,
668,38,38,15,5,44,36,615,['c'],1,left,['0'],6,182,[0.02488199],22,44,hard,minus,dotcolour,beta,,,54,18,V,R,
669,39,39,15,5,36,44,332,['n'],1,right,['0'],6,28,[-0.06633422],76,44,hard,minus,dotcolour,beta,,,54,18,V,R,
670,40,40,15,5,27,53,447,['n'],1,right,['0'],6,409,[-0.0432888],41,53,easy,minus,dotcolour,beta,,,54,18,V,R,
671,41,41,15,5,33,47,282,['n'],1,right,['0'],6,23,[-0.05500475],48,47,medium,minus,dotcolour,beta,,,54,18,V,R,
672,42,0,16,5,27,53,334,['n'],1,right,['0'],6,82,[-0.07531606],78,53,easy,minus,dotcolour,beta,,,54,18,V,R,
673,43,1,16,5,47,33,233,['n'],0,left,['0'],6,71,[-0.08884281],90,47,medium,minus,dotcolour,beta,,,54,18,V,R,
674,44,2,16,5,44,36,175,['n'],0,left,['0'],6,493,[-0.07981761],65,44,hard,minus,dotcolour,beta,,,54,18,V,R,
675,45,3,16,5,33,47,350,['n'],1,right,['0'],6,53,[-0.07507552],82,47,medium,minus,dotcolour,beta,,,54,18,V,R,
676,46,4,16,5,44,36,331,['n'],0,left,['0'],6,47,[-0.02599827],8,44,hard,minus,dotcolour,beta,,,54,18,V,R,
677,47,5,16,5,53,27,333,['n'],0,left,['0'],6,74,[-0.06112073],59,53,easy,minus,dotcolour,beta,,,54,18,V,R,
678,48,6,16,5,27,53,350,['n'],1,right,['0'],6,18,[-0.07189818],90,53,easy,minus,dotcolour,beta,,,54,18,V,R,
679,49,7,16,5,47,33,583,['c'],1,left,['0'],6,67,[0.1117627],98,47,medium,minus,dotcolour,beta,,,54,18,V,R,
680,50,8,16,5,44,36,448,['c'],1,left,['9'],5,168,[0.15584685],99,44,hard,minus,dotcolour,beta,,,54,18,V,R,
681,51,9,16,5,53,27,497,['c'],1,left,['9'],5,110,[0.07186206],71,53,easy,minus,dotcolour,beta,,,54,18,V,R,
682,52,10,16,5,33,47,650,['n'],1,right,['0'],6,33,[-0.07696758],89,47,medium,minus,dotcolour,beta,,,54,18,V,R,
683,53,11,16,5,27,53,347,['n'],1,right,['9'],5,91,[-0.0296612],18,53,easy,minus,dotcolour,beta,,,54,18,V,R,
684,54,12,16,5,47,33,365,['n'],0,left,['0'],6,34,[-0.07431537],86,47,medium,minus,dotcolour,beta,,,54,18,V,R,
685,55,13,16,5,36,44,398,['n'],1,right,['0'],6,66,[-0.07265809],77,44,hard,minus,dotcolour,beta,,,54,18,V,R,
686,56,14,16,5,33,47,532,['n'],1,right,['0'],6,68,[-0.0905135],92,47,medium,minus,dotcolour,beta,,,54,18,V,R,
687,57,15,16,5,53,27,581,['c'],1,left,['0'],6,90,[0.07902921],80,53,easy,minus,dotcolour,beta,,,54,18,V,R,
688,58,16,16,5,33,47,398,['n'],1,right,['0'],6,73,[-0.05268353],45,47,medium,minus,dotcolour,beta,,,54,18,V,R,
689,59,17,16,5,53,27,399,['c'],1,left,['0'],6,118,[0.0826937],81,53,easy,minus,dotcolour,beta,,,54,18,V,R,
690,60,18,16,5,27,53,315,['n'],1,right,['0'],6,102,[-0.07014036],69,53,easy,minus,dotcolour,beta,,,54,18,V,R,
691,61,19,16,5,53,27,414,['c'],1,left,['0'],6,76,[0.07149927],74,53,easy,minus,dotcolour,beta,,,54,18,V,R,
692,62,20,16,5,44,36,249,['n'],0,left,['0'],6,39,[-0.05490115],49,44,hard,minus,dotcolour,beta,,,54,18,V,R,
693,63,21,16,5,44,36,283,['n'],0,left,['0'],6,11,[-0.05794974],60,44,hard,minus,dotcolour,beta,,,54,18,V,R,
694,64,22,16,5,53,27,416,['c'],1,left,['9'],5,59,[0.13135999],100,53,easy,minus,dotcolour,beta,,,54,18,V,R,
695,65,23,16,5,33,47,348,['c'],0,right,['9'],5,100,[0.0430865],33,47,medium,minus,dotcolour,beta,,,54,18,V,R,
696,66,24,16,5,53,27,348,['n'],0,left,['0'],6,131,[-0.0084012],9,53,easy,minus,dotcolour,beta,,,54,18,V,R,
697,67,25,16,5,36,44,497,['c'],0,right,['0'],6,123,[0.06639458],64,44,hard,minus,dotcolour,beta,,,54,18,V,R,
698,68,26,16,5,47,33,666,['c'],1,left,['9'],5,93,[0.03889032],27,47,medium,minus,dotcolour,beta,,,54,18,V,R,
699,69,27,16,5,36,44,432,['c'],0,right,['8'],4,1040,[-0.05887944],12,44,hard,minus,dotcolour,beta,,,54,18,V,R,
700,70,28,16,5,27,53,233,['n'],1,right,['0'],6,7,[-0.07813199],99,53,easy,minus,dotcolour,beta,,,54,18,V,R,
701,71,29,16,5,33,47,248,['n'],1,right,['0'],6,37,[-0.09149439],97,47,medium,minus,dotcolour,beta,,,54,18,V,R,
702,72,30,16,5,44,36,564,['c'],1,left,['0'],6,63,[0.05269581],45,44,hard,minus,dotcolour,beta,,,54,18,V,R,
703,73,31,16,5,44,36,299,['n'],0,left,['0'],6,65,[-0.08918627],91,44,hard,minus,dotcolour,beta,,,54,18,V,R,
704,74,32,16,5,36,44,332,['n'],1,right,['0'],6,83,[-0.05338808],47,44,hard,minus,dotcolour,beta,,,54,18,V,R,
705,75,33,16,5,27,53,431,['n'],1,right,['0'],6,527,[-0.05802068],52,53,easy,minus,dotcolour,beta,,,54,18,V,R,
706,76,34,16,5,36,44,480,['n'],1,right,['0'],6,72,[-0.04228037],29,44,hard,minus,dotcolour,beta,,,54,18,V,R,
707,77,35,16,5,36,44,382,['n'],1,right,['0'],6,95,[-0.10678303],95,44,hard,minus,dotcolour,beta,,,54,18,V,R,
708,78,36,16,5,47,33,267,['n'],0,left,['0'],6,226,[0.01892438],6,47,medium,minus,dotcolour,beta,,,54,18,V,R,
709,79,37,16,5,47,33,515,['c'],1,left,['8'],4,821,[0.03216873],39,47,medium,minus,dotcolour,beta,,,54,18,V,R,
710,80,38,16,5,47,33,982,['c'],1,left,['9'],5,302,[0.07352578],64,47,medium,minus,dotcolour,beta,,,54,18,V,R,
711,81,39,16,5,33,47,416,['n'],1,right,['0'],6,146,[-0.11227032],94,47,medium,minus,dotcolour,beta,,,54,18,V,R,
712,82,40,16,5,36,44,548,['n'],1,right,['0'],6,128,[-0.07658883],74,44,hard,minus,dotcolour,beta,,,54,18,V,R,
713,83,41,16,5,27,53,516,['n'],1,right,['0'],6,23,[-0.05903091],60,53,easy,minus,dotcolour,beta,,,54,18,V,R,
714,84,0,17,5,36,44,733,['n'],1,right,['0'],6,76,[-0.08743536],89,44,hard,minus,dotcolour,beta,,,54,18,V,R,
715,85,1,17,5,33,47,349,['n'],1,right,['0'],6,76,[-0.11750556],98,47,medium,minus,dotcolour,beta,,,54,18,V,R,
716,86,2,17,5,47,33,267,['n'],0,left,['0'],6,23,[-0.0490857],32,47,medium,minus,dotcolour,beta,,,54,18,V,R,
717,87,3,17,5,33,47,265,['n'],1,right,['0'],6,372,[-0.17023111],97,47,medium,minus,dotcolour,beta,,,54,18,V,R,
718,88,4,17,5,27,53,264,['c'],0,right,['0'],6,101,[0.10081819],93,53,easy,minus,dotcolour,beta,,,54,18,V,R,
719,89,5,17,5,27,53,833,['n'],1,right,['0'],6,1032,[-0.35155394],99,53,easy,minus,dotcolour,beta,,,54,18,V,R,
720,90,6,17,5,47,33,482,['n'],0,left,['0'],6,100,[-0.08174824],82,47,medium,minus,dotcolour,beta,,,54,18,V,R,
721,91,7,17,5,53,27,248,['n'],0,left,['0'],6,192,[-0.09108561],81,53,easy,minus,dotcolour,beta,,,54,18,V,R,
722,92,8,17,5,47,33,233,['c'],1,left,['0'],6,432,[0.21982377],99,47,medium,minus,dotcolour,beta,,,54,18,V,R,
723,93,9,17,5,36,44,113,['n'],1,right,['0'],6,39,[-0.05367437],46,44,hard,minus,dotcolour,beta,,,54,18,V,R,
724,94,10,17,5,44,36,300,['n'],0,left,['0'],6,83,[-0.15343464],100,44,hard,minus,dotcolour,beta,,,54,18,V,R,
725,95,11,17,5,36,44,232,['n'],1,right,['0'],6,112,[-0.07525123],74,44,hard,minus,dotcolour,beta,,,54,18,V,R,
726,96,12,17,5,36,44,188,['n'],1,right,['0'],6,100,[-0.06547522],64,44,hard,minus,dotcolour,beta,,,54,18,V,R,
727,97,13,17,5,53,27,215,['n'],0,left,['0'],6,73,[-0.08552289],88,53,easy,minus,dotcolour,beta,,,54,18,V,R,
728,98,14,17,5,47,33,365,['n'],0,left,['0'],6,88,[-0.05664618],52,47,medium,minus,dotcolour,beta,,,54,18,V,R,
729,99,15,17,5,33,47,381,['n'],1,right,['0'],6,39,[-0.04765452],33,47,medium,minus,dotcolour,beta,,,54,18,V,R,
730,100,16,17,5,36,44,282,['n'],1,right,['0'],6,76,[-0.09611842],93,44,hard,minus,dotcolour,beta,,,54,18,V,R,
731,101,17,17,5,36,44,414,['n'],1,right,['0'],6,73,[-0.11451956],98,44,hard,minus,dotcolour,beta,,,54,18,V,R,
732,102,18,17,5,44,36,333,['n'],0,left,['0'],6,42,[-0.07327585],83,44,hard,minus,dotcolour,beta,,,54,18,V,R,
733,103,19,17,5,33,47,531,['n'],1,right,['0'],6,77,[-0.11673515],98,47,medium,minus,dotcolour,beta,,,54,18,V,R,
734,104,20,17,5,33,47,432,['n'],1,right,['0'],6,57,[-0.07153994],77,47,medium,minus,dotcolour,beta,,,54,18,V,R,
735,105,21,17,5,53,27,315,['n'],0,left,['0'],6,156,[-0.09090367],83,53,easy,minus,dotcolour,beta,,,54,18,V,R,
736,106,22,17,5,27,53,331,['n'],1,right,['0'],6,66,[-0.05358134],47,53,easy,minus,dotcolour,beta,,,54,18,V,R,
737,107,23,17,5,27,53,299,['n'],1,right,['0'],6,124,[-0.08220344],80,53,easy,minus,dotcolour,beta,,,54,18,V,R,
738,108,24,17,5,27,53,534,['n'],1,right,['0'],6,68,[-0.05699518],52,53,easy,minus,dotcolour,beta,,,54,18,V,R,
739,109,25,17,5,47,33,350,['n'],0,left,['0'],6,84,[-0.0803368],82,47,medium,minus,dotcolour,beta,,,54,18,V,R,
740,110,26,17,5,53,27,465,['c'],1,left,['0'],6,112,[0.08286973],81,53,easy,minus,dotcolour,beta,,,54,18,V,R,
741,111,27,17,5,27,53,315,['n'],1,right,['0'],6,32,[-0.09362136],98,53,easy,minus,dotcolour,beta,,,54,18,V,R,
742,112,28,17,5,44,36,348,['n'],0,left,['0'],6,10,[-0.06346289],81,44,hard,minus,dotcolour,beta,,,54,18,V,R,
743,113,29,17,5,53,27,497,['c'],1,left,['0'],6,126,[0.06276589],59,53,easy,minus,dotcolour,beta,,,54,18,V,R,
744,114,30,17,5,44,36,2348,['n'],0,left,['0'],6,244,[0.01194219],8,44,hard,minus,dotcolour,beta,,,54,18,V,R,
745,115,31,17,5,33,47,415,['c'],0,right,['3'],3,1003,[-0.08794673],7,47,medium,minus,dotcolour,beta,,,54,18,V,R,
746,116,32,17,5,36,44,316,['n'],1,right,['0'],6,55,[-0.06030503],59,44,hard,minus,dotcolour,beta,,,54,18,V,R,
747,117,33,17,5,47,33,182,['n'],0,left,['0'],6,86,[-0.04950543],41,47,medium,minus,dotcolour,beta,,,54,18,V,R,
748,118,34,17,5,44,36,231,['n'],0,left,['0'],6,108,[-0.03334745],23,44,hard,minus,dotcolour,beta,,,54,18,V,R,
749,119,35,17,5,33,47,296,['n'],1,right,['9'],5,108,[-0.06152692],58,47,medium,minus,dotcolour,beta,,,54,18,V,R,
750,120,36,17,5,44,36,449,['c'],1,left,['0'],6,126,[0.13315235],98,44,hard,minus,dotcolour,beta,,,54,18,V,R,
751,121,37,17,5,53,27,315,['n'],0,left,['8'],4,1166,[0.13929721],4,53,easy,minus,dotcolour,beta,,,54,18,V,R,
752,122,38,17,5,27,53,582,['n'],1,right,['0'],6,73,[-0.01852914],8,53,easy,minus,dotcolour,beta,,,54,18,V,R,
753,123,39,17,5,47,33,415,['n'],0,left,['0'],6,142,[-0.04440674],37,47,medium,minus,dotcolour,beta,,,54,18,V,R,
754,124,40,17,5,53,27,415,['c'],1,left,['0'],6,113,[0.0815403],80,53,easy,minus,dotcolour,beta,,,54,18,V,R,
755,125,41,17,5,44,36,233,['c'],1,left,['0'],6,581,[0.03224781],37,44,hard,minus,dotcolour,beta,,,54,18,V,R,
,,,,,,,,,,,,,,,,,,,,,1,de percentages waren soms altijd honderd en soms heel weinig achter elkaar ,54,18,V,R,
,,,,,,,,,,,,,,,,,,,,,2,['g'],54,18,V,R,
,,,,,,,,,,,,,,,,,,,,,3,['f'],54,18,V,R,
,,,,,,,,,,,,,,,,,,,,,5,['3'],54,18,V,R,
