trial,withinphasetrial,withinblocktrial,block,phase,dotsLeft,dotsRight,rt,resp,cor,cresp,conf_press,cj,RTconf,ev,fb,diff,difflevel,condition,task,manip,questionID,questionResp,sub,age,gender,handedness,
0,0,0,0,0,44,36,3284,['n'],0,left,['3'],4,1924,[-0.12260785],69,44,hard,minus,dotcolour,alfa,,,133,19,M,R,
1,1,1,0,0,27,53,2700,['n'],1,right,['3'],4,1228,[-0.45084359],97,53,easy,minus,dotcolour,alfa,,,133,19,M,R,
2,2,2,0,0,53,27,3701,['c'],1,left,['3'],4,967,[0.35893267],96,53,easy,minus,dotcolour,alfa,,,133,19,M,R,
3,3,3,0,0,27,53,1283,['n'],1,right,['2'],5,6223,[-1.0131156],97,53,easy,minus,dotcolour,alfa,,,133,19,M,R,
4,4,4,0,0,36,44,3167,['n'],1,right,['8'],3,1855,[-0.23504532],83,44,hard,minus,dotcolour,alfa,,,133,19,M,R,
5,5,5,0,0,36,44,1283,['n'],1,right,['3'],4,722,[-0.16147151],85,44,hard,minus,dotcolour,alfa,,,133,19,M,R,
6,6,6,0,0,44,36,1883,['n'],0,left,['3'],4,1666,[0.18879316],21,44,hard,minus,dotcolour,alfa,,,133,19,M,R,
7,7,7,0,0,36,44,3300,['c'],0,right,['2'],5,2948,[0.15814621],70,44,hard,minus,dotcolour,alfa,,,133,19,M,R,
8,8,8,0,0,33,47,2300,['n'],1,right,['0'],1,747,[-0.1617377],84,47,medium,minus,dotcolour,alfa,,,133,19,M,R,
9,9,9,0,0,36,44,1367,['n'],1,right,['8'],3,3416,[-0.32331992],83,44,hard,minus,dotcolour,alfa,,,133,19,M,R,
10,10,10,0,0,44,36,1733,['c'],1,left,['8'],3,2554,[0.32738013],86,44,hard,minus,dotcolour,alfa,,,133,19,M,R,
11,11,11,0,0,47,33,5267,['c'],1,left,['0'],1,474,[0.15403057],88,47,medium,minus,dotcolour,alfa,,,133,19,M,R,
12,12,12,0,0,44,36,1350,['c'],1,left,['2'],5,1194,[0.23351282],87,44,hard,minus,dotcolour,alfa,,,133,19,M,R,
13,13,13,0,0,36,44,1766,['n'],1,right,['2'],5,645,[-0.08631955],72,44,hard,minus,dotcolour,alfa,,,133,19,M,R,
14,14,14,0,0,27,53,1917,['n'],1,right,['1'],6,487,[-0.09167981],77,53,easy,minus,dotcolour,alfa,,,133,19,M,R,
15,15,15,0,0,33,47,1451,['c'],0,right,['9'],2,1027,[-0.00297937],49,47,medium,minus,dotcolour,alfa,,,133,19,M,R,
16,16,16,0,0,27,53,1000,['n'],1,right,['3'],4,1203,[-0.36782216],95,53,easy,minus,dotcolour,alfa,,,133,19,M,R,
17,17,17,0,0,36,44,1033,['n'],1,right,['3'],4,627,[0.01364521],46,44,hard,minus,dotcolour,alfa,,,133,19,M,R,
18,18,18,0,0,47,33,1085,['c'],1,left,['1'],6,695,[0.20763023],90,47,medium,minus,dotcolour,alfa,,,133,19,M,R,
19,19,19,0,0,53,27,2000,['c'],1,left,['1'],6,420,[-0.01506488],45,53,easy,minus,dotcolour,alfa,,,133,19,M,R,
20,20,20,0,0,53,27,849,['c'],1,left,['1'],6,587,[0.29424079],97,53,easy,minus,dotcolour,alfa,,,133,19,M,R,
21,21,21,0,0,33,47,1500,['n'],1,right,['2'],5,1856,[-0.20676971],80,47,medium,minus,dotcolour,alfa,,,133,19,M,R,
22,22,22,0,0,33,47,2651,['c'],0,right,['0'],1,349,[0.05376355],69,47,medium,minus,dotcolour,alfa,,,133,19,M,R,
23,23,23,0,0,53,27,884,['c'],1,left,['3'],4,877,[0.08498353],69,53,easy,minus,dotcolour,alfa,,,133,19,M,R,
24,24,24,0,0,47,33,1933,['n'],0,left,['2'],5,1038,[0.03486926],42,47,medium,minus,dotcolour,alfa,,,133,19,M,R,
25,25,25,0,0,47,33,1150,['c'],1,left,['2'],5,591,[0.10362806],77,47,medium,minus,dotcolour,alfa,,,133,19,M,R,
26,26,26,0,0,47,33,1033,['c'],1,left,['1'],6,423,[0.13447209],87,47,medium,minus,dotcolour,alfa,,,133,19,M,R,
27,27,27,0,0,47,33,1233,['n'],0,left,['3'],4,518,[-0.07485592],72,47,medium,minus,dotcolour,alfa,,,133,19,M,R,
28,28,28,0,0,53,27,917,['c'],1,left,['3'],4,734,[0.31136316],96,53,easy,minus,dotcolour,alfa,,,133,19,M,R,
29,29,29,0,0,27,53,1218,['n'],1,right,['2'],5,1817,[-0.32224489],90,53,easy,minus,dotcolour,alfa,,,133,19,M,R,
30,30,30,0,0,53,27,984,['c'],1,left,['1'],6,330,[0.09336633],81,53,easy,minus,dotcolour,alfa,,,133,19,M,R,
31,31,31,0,0,33,47,1284,['n'],1,right,['8'],3,1130,[-0.11665148],73,47,medium,minus,dotcolour,alfa,,,133,19,M,R,
32,32,32,0,0,44,36,1367,['n'],0,left,['8'],3,976,[0.05842067],37,44,hard,minus,dotcolour,alfa,,,133,19,M,R,
33,33,33,0,0,44,36,1134,['n'],0,left,['9'],2,1013,[-0.01062267],52,44,hard,minus,dotcolour,alfa,,,133,19,M,R,
34,34,34,0,0,36,44,1834,['n'],1,right,['9'],2,1004,[-0.27703241],92,44,hard,minus,dotcolour,alfa,,,133,19,M,R,
35,35,35,0,0,47,33,1433,['c'],1,left,['9'],2,659,[0.01398078],54,47,medium,minus,dotcolour,alfa,,,133,19,M,R,
36,36,36,0,0,27,53,1483,['c'],0,right,['8'],3,991,[-0.15027199],20,53,easy,minus,dotcolour,alfa,,,133,19,M,R,
37,37,37,0,0,27,53,2000,['n'],1,right,['1'],6,336,[-0.01883665],57,53,easy,minus,dotcolour,alfa,,,133,19,M,R,
38,38,38,0,0,53,27,1000,['c'],1,left,['1'],6,468,[0.18079874],92,53,easy,minus,dotcolour,alfa,,,133,19,M,R,
39,39,39,0,0,33,47,900,['n'],1,right,['2'],5,711,[-0.0492414],63,47,medium,minus,dotcolour,alfa,,,133,19,M,R,
40,40,40,0,0,33,47,1250,['n'],1,right,['3'],4,625,[-0.13170633],82,47,medium,minus,dotcolour,alfa,,,133,19,M,R,
41,41,41,0,0,44,36,984,['c'],1,left,['3'],4,1090,[0.15360817],79,44,hard,minus,dotcolour,alfa,,,133,19,M,R,
42,42,0,1,0,36,44,3084,['c'],0,right,['3'],4,843,[0.01935814],55,44,hard,minus,dotcolour,alfa,,,133,19,M,R,
43,43,1,1,0,36,44,1751,['c'],0,right,['3'],4,244,[0.03181099],64,44,hard,minus,dotcolour,alfa,,,133,19,M,R,
44,44,2,1,0,33,47,1467,['c'],0,right,['3'],4,233,[0.05804845],75,47,medium,minus,dotcolour,alfa,,,133,19,M,R,
45,45,3,1,0,27,53,1800,['n'],1,right,['3'],4,825,[-0.2564169],93,53,easy,minus,dotcolour,alfa,,,133,19,M,R,
46,46,4,1,0,53,27,1482,['c'],1,left,['1'],6,485,[0.06390216],70,53,easy,minus,dotcolour,alfa,,,133,19,M,R,
47,47,5,1,0,27,53,967,['n'],1,right,['1'],6,389,[-0.10555078],82,53,easy,minus,dotcolour,alfa,,,133,19,M,R,
48,48,6,1,0,36,44,1167,['n'],1,right,['2'],5,367,[-0.16096656],92,44,hard,minus,dotcolour,alfa,,,133,19,M,R,
49,49,7,1,0,27,53,1000,['n'],1,right,['1'],6,530,[-0.24440493],95,53,easy,minus,dotcolour,alfa,,,133,19,M,R,
50,50,8,1,0,36,44,1250,['n'],1,right,['3'],4,652,[-0.0820856],71,44,hard,minus,dotcolour,alfa,,,133,19,M,R,
51,51,9,1,0,36,44,1067,['n'],1,right,['3'],4,592,[-0.11382999],79,44,hard,minus,dotcolour,alfa,,,133,19,M,R,
52,52,10,1,0,33,47,984,['n'],1,right,['3'],4,490,[-0.00590447],52,47,medium,minus,dotcolour,alfa,,,133,19,M,R,
53,53,11,1,0,53,27,1150,['c'],1,left,['1'],6,562,[0.16895337],88,53,easy,minus,dotcolour,alfa,,,133,19,M,R,
54,54,12,1,0,47,33,1367,['c'],1,left,['3'],4,814,[0.02162916],55,47,medium,minus,dotcolour,alfa,,,133,19,M,R,
55,55,13,1,0,47,33,1282,['n'],0,left,['8'],3,1011,[-0.02479925],56,47,medium,minus,dotcolour,alfa,,,133,19,M,R,
56,56,14,1,0,33,47,1032,['n'],1,right,['9'],2,634,[-0.19519352],90,47,medium,minus,dotcolour,alfa,,,133,19,M,R,
57,57,15,1,0,53,27,850,['c'],1,left,['1'],6,633,[0.16546164],87,53,easy,minus,dotcolour,alfa,,,133,19,M,R,
58,58,16,1,0,53,27,850,['c'],1,left,['1'],6,431,[0.19598029],94,53,easy,minus,dotcolour,alfa,,,133,19,M,R,
59,59,17,1,0,44,36,833,['c'],1,left,['1'],6,213,[0.09354899],86,44,hard,minus,dotcolour,alfa,,,133,19,M,R,
60,60,18,1,0,36,44,1583,['c'],0,right,['3'],4,807,[-0.04018434],40,44,hard,minus,dotcolour,alfa,,,133,19,M,R,
61,61,19,1,0,47,33,984,['c'],1,left,['1'],6,312,[0.13591421],90,47,medium,minus,dotcolour,alfa,,,133,19,M,R,
62,62,20,1,0,47,33,733,['c'],1,left,['1'],6,167,[0.07730607],85,47,medium,minus,dotcolour,alfa,,,133,19,M,R,
63,63,21,1,0,27,53,1017,['n'],1,right,['0'],1,2081,[-0.3320724],89,53,easy,minus,dotcolour,alfa,,,133,19,M,R,
64,64,22,1,0,47,33,783,['c'],1,left,['1'],6,223,[0.06717401],78,47,medium,minus,dotcolour,alfa,,,133,19,M,R,
65,65,23,1,0,47,33,1067,['n'],0,left,['3'],4,461,[0.03070414],40,47,medium,minus,dotcolour,alfa,,,133,19,M,R,
66,66,24,1,0,33,47,983,['n'],1,right,['3'],4,356,[-0.07090871],74,47,medium,minus,dotcolour,alfa,,,133,19,M,R,
67,67,25,1,0,36,44,1800,['c'],0,right,['8'],3,311,[-0.05805989],28,44,hard,minus,dotcolour,alfa,,,133,19,M,R,
68,68,26,1,0,53,27,800,['c'],1,left,['1'],6,339,[0.12015611],86,53,easy,minus,dotcolour,alfa,,,133,19,M,R,
69,69,27,1,0,44,36,1033,['c'],1,left,['1'],6,390,[0.159453],91,44,hard,minus,dotcolour,alfa,,,133,19,M,R,
70,70,28,1,0,27,53,1366,['n'],1,right,['1'],6,321,[-0.15528517],92,53,easy,minus,dotcolour,alfa,,,133,19,M,R,
71,71,29,1,0,33,47,733,['n'],1,right,['1'],6,288,[-0.11488995],87,47,medium,minus,dotcolour,alfa,,,133,19,M,R,
72,72,30,1,0,44,36,1501,['n'],0,left,['9'],2,1202,[-0.0054252],51,44,hard,minus,dotcolour,alfa,,,133,19,M,R,
73,73,31,1,0,44,36,1966,['c'],1,left,['1'],6,164,[0.10855145],92,44,hard,minus,dotcolour,alfa,,,133,19,M,R,
74,74,32,1,0,44,36,3685,['c'],1,left,['0'],1,579,[0.0918353],75,44,hard,minus,dotcolour,alfa,,,133,19,M,R,
75,75,33,1,0,44,36,2784,['n'],0,left,['0'],1,726,[0.03318788],41,44,hard,minus,dotcolour,alfa,,,133,19,M,R,
76,76,34,1,0,53,27,950,['c'],1,left,['1'],6,348,[0.0778756],77,53,easy,minus,dotcolour,alfa,,,133,19,M,R,
77,77,35,1,0,33,47,967,['n'],1,right,['3'],4,704,[-0.05431308],64,47,medium,minus,dotcolour,alfa,,,133,19,M,R,
78,78,36,1,0,27,53,900,['n'],1,right,['1'],6,442,[-0.26599811],97,53,easy,minus,dotcolour,alfa,,,133,19,M,R,
79,79,37,1,0,53,27,1033,['c'],1,left,['1'],6,367,[0.20239906],95,53,easy,minus,dotcolour,alfa,,,133,19,M,R,
80,80,38,1,0,44,36,1135,['c'],1,left,['2'],5,484,[0.19588858],93,44,hard,minus,dotcolour,alfa,,,133,19,M,R,
81,81,39,1,0,27,53,901,['n'],1,right,['1'],6,1071,[0.00155507],50,53,easy,minus,dotcolour,alfa,,,133,19,M,R,
82,82,40,1,0,33,47,1684,['n'],1,right,['9'],2,1321,[-0.4695496],98,47,medium,minus,dotcolour,alfa,,,133,19,M,R,
83,83,41,1,0,47,33,967,['c'],1,left,['1'],6,303,[0.07521779],77,47,medium,minus,dotcolour,alfa,,,133,19,M,R,
84,84,0,2,0,47,33,1117,['c'],1,left,['1'],6,335,[1.98925208e-05],50,47,medium,minus,dotcolour,alfa,,,133,19,M,R,
85,85,1,2,0,33,47,800,['n'],1,right,['1'],6,387,[-0.13921395],88,47,medium,minus,dotcolour,alfa,,,133,19,M,R,
86,86,2,2,0,36,44,1118,['n'],1,right,['9'],2,824,[-0.17640693],85,44,hard,minus,dotcolour,alfa,,,133,19,M,R,
87,87,3,2,0,33,47,884,['n'],1,right,['1'],6,277,[-0.09972029],85,47,medium,minus,dotcolour,alfa,,,133,19,M,R,
88,88,4,2,0,36,44,1182,['n'],1,right,['3'],4,451,[-0.13803075],86,44,hard,minus,dotcolour,alfa,,,133,19,M,R,
89,89,5,2,0,36,44,766,['n'],1,right,['2'],5,524,[-0.09452808],76,44,hard,minus,dotcolour,alfa,,,133,19,M,R,
90,90,6,2,0,27,53,633,['n'],1,right,['1'],6,351,[-0.11377067],85,53,easy,minus,dotcolour,alfa,,,133,19,M,R,
91,91,7,2,0,53,27,933,['c'],1,left,['1'],6,333,[0.19523908],95,53,easy,minus,dotcolour,alfa,,,133,19,M,R,
92,92,8,2,0,47,33,667,['c'],1,left,['1'],6,294,[0.15176057],93,47,medium,minus,dotcolour,alfa,,,133,19,M,R,
93,93,9,2,0,27,53,733,['n'],1,right,['1'],6,262,[-0.17117794],95,53,easy,minus,dotcolour,alfa,,,133,19,M,R,
94,94,10,2,0,44,36,1850,['c'],1,left,['3'],4,747,[0.11029942],76,44,hard,minus,dotcolour,alfa,,,133,19,M,R,
95,95,11,2,0,53,27,701,['c'],1,left,['2'],5,378,[0.07023611],74,53,easy,minus,dotcolour,alfa,,,133,19,M,R,
96,96,12,2,0,53,27,750,['c'],1,left,['1'],6,239,[0.06808905],78,53,easy,minus,dotcolour,alfa,,,133,19,M,R,
97,97,13,2,0,44,36,984,['n'],0,left,['8'],3,1215,[-0.14244908],76,44,hard,minus,dotcolour,alfa,,,133,19,M,R,
98,98,14,2,0,53,27,2850,['c'],1,left,['1'],6,717,[0.15343127],84,53,easy,minus,dotcolour,alfa,,,133,19,M,R,
99,99,15,2,0,36,44,900,['n'],1,right,['9'],2,422,[-0.09750518],79,44,hard,minus,dotcolour,alfa,,,133,19,M,R,
100,100,16,2,0,44,36,967,['n'],0,left,['9'],2,271,[-0.052781],71,44,hard,minus,dotcolour,alfa,,,133,19,M,R,
101,101,17,2,0,44,36,1234,['n'],0,left,['0'],1,1220,[-0.05190204],60,44,hard,minus,dotcolour,alfa,,,133,19,M,R,
102,102,18,2,0,53,27,667,['c'],1,left,['1'],6,330,[0.1770754],94,53,easy,minus,dotcolour,alfa,,,133,19,M,R,
103,103,19,2,0,33,47,1783,['n'],1,right,['2'],5,855,[-0.01584276],54,47,medium,minus,dotcolour,alfa,,,133,19,M,R,
104,104,20,2,0,44,36,767,['c'],1,left,['1'],6,327,[0.05473353],70,44,hard,minus,dotcolour,alfa,,,133,19,M,R,
105,105,21,2,0,36,44,967,['n'],1,right,['0'],1,773,[-0.04892556],62,44,hard,minus,dotcolour,alfa,,,133,19,M,R,
106,106,22,2,0,33,47,1150,['c'],0,right,['2'],5,800,[-0.14984461],18,47,medium,minus,dotcolour,alfa,,,133,19,M,R,
107,107,23,2,0,47,33,1300,['c'],1,left,['3'],4,702,[0.24422986],93,47,medium,minus,dotcolour,alfa,,,133,19,M,R,
108,108,24,2,0,53,27,833,['c'],1,left,['1'],6,337,[0.20835843],96,53,easy,minus,dotcolour,alfa,,,133,19,M,R,
109,109,25,2,0,47,33,966,['c'],1,left,['3'],4,680,[0.16920305],86,47,medium,minus,dotcolour,alfa,,,133,19,M,R,
110,110,26,2,0,27,53,768,['n'],1,right,['1'],6,351,[-0.03822036],64,53,easy,minus,dotcolour,alfa,,,133,19,M,R,
111,111,27,2,0,27,53,750,['n'],1,right,['1'],6,300,[-0.05980411],73,53,easy,minus,dotcolour,alfa,,,133,19,M,R,
112,112,28,2,0,47,33,700,['c'],1,left,['1'],6,205,[0.1439807],95,47,medium,minus,dotcolour,alfa,,,133,19,M,R,
113,113,29,2,0,27,53,783,['n'],1,right,['1'],6,287,[-0.16030268],94,53,easy,minus,dotcolour,alfa,,,133,19,M,R,
114,114,30,2,0,27,53,683,['n'],1,right,['1'],6,242,[-0.04952235],71,53,easy,minus,dotcolour,alfa,,,133,19,M,R,
115,115,31,2,0,44,36,1050,['c'],1,left,['1'],6,279,[0.13365729],91,44,hard,minus,dotcolour,alfa,,,133,19,M,R,
116,116,32,2,0,33,47,800,['n'],1,right,['1'],6,237,[0.01127144],45,47,medium,minus,dotcolour,alfa,,,133,19,M,R,
117,117,33,2,0,33,47,683,['n'],1,right,['3'],4,570,[-0.05628839],66,47,medium,minus,dotcolour,alfa,,,133,19,M,R,
118,118,34,2,0,53,27,967,['c'],1,left,['1'],6,213,[0.20273865],98,53,easy,minus,dotcolour,alfa,,,133,19,M,R,
119,119,35,2,0,47,33,717,['c'],1,left,['1'],6,249,[0.11375862],89,47,medium,minus,dotcolour,alfa,,,133,19,M,R,
120,120,36,2,0,36,44,767,['n'],1,right,['1'],6,178,[-0.07510045],83,44,hard,minus,dotcolour,alfa,,,133,19,M,R,
121,121,37,2,0,27,53,917,['n'],1,right,['1'],6,199,[-0.0752836],82,53,easy,minus,dotcolour,alfa,,,133,19,M,R,
122,122,38,2,0,36,44,1349,['c'],0,right,['3'],4,243,[0.07085656],78,44,hard,minus,dotcolour,alfa,,,133,19,M,R,
123,123,39,2,0,33,47,851,['n'],1,right,['1'],6,200,[-0.08316865],84,47,medium,minus,dotcolour,alfa,,,133,19,M,R,
124,124,40,2,0,47,33,717,['c'],1,left,['1'],6,276,[0.06598007],76,47,medium,minus,dotcolour,alfa,,,133,19,M,R,
125,125,41,2,0,44,36,1166,['n'],0,left,['3'],4,356,[-0.09401242],81,44,hard,minus,dotcolour,alfa,,,133,19,M,R,
126,0,0,3,1,36,44,2101,['c'],0,right,['3'],4,444,[0.05917665],96,44,hard,plus,dotcolour,alfa,,,133,19,M,R,
127,1,1,3,1,27,53,684,['n'],1,right,['1'],6,464,[-0.20149383],100,53,easy,plus,dotcolour,alfa,,,133,19,M,R,
128,2,2,3,1,27,53,633,['n'],1,right,['1'],6,237,[-0.16181406],100,53,easy,plus,dotcolour,alfa,,,133,19,M,R,
129,3,3,3,1,44,36,1067,['n'],0,left,['8'],3,1066,[-0.24894109],100,44,hard,plus,dotcolour,alfa,,,133,19,M,R,
130,4,4,3,1,53,27,1000,['c'],1,left,['1'],6,281,[0.12178447],100,53,easy,plus,dotcolour,alfa,,,133,19,M,R,
131,5,5,3,1,27,53,700,['n'],1,right,['1'],6,210,[-0.13586639],100,53,easy,plus,dotcolour,alfa,,,133,19,M,R,
132,6,6,3,1,33,47,1200,['n'],1,right,['1'],6,179,[-0.09085791],100,47,medium,plus,dotcolour,alfa,,,133,19,M,R,
133,7,7,3,1,36,44,1400,['n'],1,right,['1'],6,190,[-0.07895409],100,44,hard,plus,dotcolour,alfa,,,133,19,M,R,
134,8,8,3,1,47,33,984,['c'],1,left,['1'],6,431,[0.06240496],97,47,medium,plus,dotcolour,alfa,,,133,19,M,R,
135,9,9,3,1,36,44,1183,['n'],1,right,['1'],6,368,[-0.12418803],100,44,hard,plus,dotcolour,alfa,,,133,19,M,R,
136,10,10,3,1,36,44,950,['n'],1,right,['1'],6,212,[-0.08088064],100,44,hard,plus,dotcolour,alfa,,,133,19,M,R,
137,11,11,3,1,47,33,849,['c'],1,left,['1'],6,148,[0.20046009],100,47,medium,plus,dotcolour,alfa,,,133,19,M,R,
138,12,12,3,1,47,33,650,['c'],1,left,['1'],6,205,[0.24575877],100,47,medium,plus,dotcolour,alfa,,,133,19,M,R,
139,13,13,3,1,53,27,417,['c'],1,left,['1'],6,133,[0.0777965],100,53,easy,plus,dotcolour,alfa,,,133,19,M,R,
140,14,14,3,1,27,53,916,['n'],1,right,['1'],6,149,[-0.09172827],100,53,easy,plus,dotcolour,alfa,,,133,19,M,R,
141,15,15,3,1,47,33,600,['c'],1,left,['1'],6,112,[0.09289182],100,47,medium,plus,dotcolour,alfa,,,133,19,M,R,
142,16,16,3,1,53,27,501,['c'],1,left,['1'],6,113,[0.08484859],100,53,easy,plus,dotcolour,alfa,,,133,19,M,R,
143,17,17,3,1,27,53,734,['n'],1,right,['1'],6,144,[-0.16463386],100,53,easy,plus,dotcolour,alfa,,,133,19,M,R,
144,18,18,3,1,44,36,416,['n'],0,left,['1'],6,171,[-0.01631435],81,44,hard,plus,dotcolour,alfa,,,133,19,M,R,
145,19,19,3,1,33,47,1617,['n'],1,right,['1'],6,837,[-0.1441798],100,47,medium,plus,dotcolour,alfa,,,133,19,M,R,
146,20,20,3,1,33,47,599,['n'],1,right,['1'],6,108,[-0.12972709],100,47,medium,plus,dotcolour,alfa,,,133,19,M,R,
147,21,21,3,1,33,47,1217,['n'],1,right,['3'],4,480,[-0.15030556],100,47,medium,plus,dotcolour,alfa,,,133,19,M,R,
148,22,22,3,1,47,33,634,['c'],1,left,['1'],6,229,[0.03860047],95,47,medium,plus,dotcolour,alfa,,,133,19,M,R,
149,23,23,3,1,44,36,1150,['c'],1,left,['1'],6,375,[0.06885855],98,44,hard,plus,dotcolour,alfa,,,133,19,M,R,
150,24,24,3,1,47,33,600,['c'],1,left,['1'],6,201,[0.07199575],100,47,medium,plus,dotcolour,alfa,,,133,19,M,R,
151,25,25,3,1,27,53,849,['n'],1,right,['1'],6,208,[-0.14232964],100,53,easy,plus,dotcolour,alfa,,,133,19,M,R,
152,26,26,3,1,44,36,1417,['n'],0,left,['1'],6,160,[-0.0099148],71,44,hard,plus,dotcolour,alfa,,,133,19,M,R,
153,27,27,3,1,53,27,1117,['c'],1,left,['1'],6,222,[0.09461648],100,53,easy,plus,dotcolour,alfa,,,133,19,M,R,
154,28,28,3,1,47,33,667,['c'],1,left,['1'],6,260,[-0.00579197],40,47,medium,plus,dotcolour,alfa,,,133,19,M,R,
155,29,29,3,1,33,47,1084,['n'],1,right,['1'],6,1344,[-0.06733461],89,47,medium,plus,dotcolour,alfa,,,133,19,M,R,
156,30,30,3,1,33,47,1351,['n'],1,right,['1'],6,501,[-0.01772449],71,47,medium,plus,dotcolour,alfa,,,133,19,M,R,
157,31,31,3,1,53,27,817,['c'],1,left,['1'],6,281,[0.16396269],100,53,easy,plus,dotcolour,alfa,,,133,19,M,R,
158,32,32,3,1,36,44,884,['n'],1,right,['1'],6,140,[-0.12210329],100,44,hard,plus,dotcolour,alfa,,,133,19,M,R,
159,33,33,3,1,44,36,751,['n'],0,left,['1'],6,233,[-0.0393296],95,44,hard,plus,dotcolour,alfa,,,133,19,M,R,
160,34,34,3,1,53,27,734,['n'],0,left,['0'],1,1572,[0.19799069],0,53,easy,plus,dotcolour,alfa,,,133,19,M,R,
161,35,35,3,1,44,36,1716,['c'],1,left,['1'],6,969,[0.09866007],97,44,hard,plus,dotcolour,alfa,,,133,19,M,R,
162,36,36,3,1,36,44,951,['c'],0,right,['1'],6,245,[0.03729691],94,44,hard,plus,dotcolour,alfa,,,133,19,M,R,
163,37,37,3,1,36,44,1517,['c'],0,right,['0'],1,296,[-0.00148904],48,44,hard,plus,dotcolour,alfa,,,133,19,M,R,
164,38,38,3,1,33,47,950,['n'],1,right,['1'],6,551,[-0.09451603],99,47,medium,plus,dotcolour,alfa,,,133,19,M,R,
165,39,39,3,1,53,27,834,['c'],1,left,['1'],6,186,[0.12647007],100,53,easy,plus,dotcolour,alfa,,,133,19,M,R,
166,40,40,3,1,27,53,1300,['n'],1,right,['3'],4,575,[-0.14859064],100,53,easy,plus,dotcolour,alfa,,,133,19,M,R,
167,41,41,3,1,44,36,1467,['n'],0,left,['3'],4,1143,[-0.1682526],100,44,hard,plus,dotcolour,alfa,,,133,19,M,R,
168,42,0,4,1,44,36,1601,['n'],0,left,['3'],4,354,[-0.12124253],100,44,hard,plus,dotcolour,alfa,,,133,19,M,R,
169,43,1,4,1,36,44,3834,['n'],1,right,['3'],4,611,[-0.02611369],77,44,hard,plus,dotcolour,alfa,,,133,19,M,R,
170,44,2,4,1,47,33,1584,['c'],1,left,['1'],6,413,[0.15720959],100,47,medium,plus,dotcolour,alfa,,,133,19,M,R,
171,45,3,4,1,36,44,967,['n'],1,right,['3'],4,991,[-0.05779256],89,44,hard,plus,dotcolour,alfa,,,133,19,M,R,
172,46,4,4,1,33,47,885,['n'],1,right,['8'],3,990,[-0.20504572],100,47,medium,plus,dotcolour,alfa,,,133,19,M,R,
173,47,5,4,1,36,44,2084,['c'],0,right,['3'],4,603,[0.08747178],98,44,hard,plus,dotcolour,alfa,,,133,19,M,R,
174,48,6,4,1,36,44,816,['n'],1,right,['3'],4,411,[-0.01624039],71,44,hard,plus,dotcolour,alfa,,,133,19,M,R,
175,49,7,4,1,44,36,1801,['c'],1,left,['9'],2,852,[-0.08357154],4,44,hard,plus,dotcolour,alfa,,,133,19,M,R,
176,50,8,4,1,27,53,1083,['n'],1,right,['0'],1,471,[-0.13075341],100,53,easy,plus,dotcolour,alfa,,,133,19,M,R,
177,51,9,4,1,27,53,1067,['n'],1,right,['1'],6,338,[-0.1296509],100,53,easy,plus,dotcolour,alfa,,,133,19,M,R,
178,52,10,4,1,44,36,984,['c'],1,left,['3'],4,350,[0.03625307],90,44,hard,plus,dotcolour,alfa,,,133,19,M,R,
179,53,11,4,1,47,33,835,['c'],1,left,['3'],4,432,[0.11309141],100,47,medium,plus,dotcolour,alfa,,,133,19,M,R,
180,54,12,4,1,47,33,2450,['n'],0,left,['9'],2,438,[-0.04863131],93,47,medium,plus,dotcolour,alfa,,,133,19,M,R,
181,55,13,4,1,27,53,967,['n'],1,right,['1'],6,511,[-0.23052158],100,53,easy,plus,dotcolour,alfa,,,133,19,M,R,
182,56,14,4,1,53,27,984,['c'],1,left,['3'],4,613,[0.09643737],99,53,easy,plus,dotcolour,alfa,,,133,19,M,R,
183,57,15,4,1,53,27,616,['c'],1,left,['1'],6,341,[0.03306119],88,53,easy,plus,dotcolour,alfa,,,133,19,M,R,
184,58,16,4,1,53,27,717,['c'],1,left,['1'],6,236,[0.10331403],100,53,easy,plus,dotcolour,alfa,,,133,19,M,R,
185,59,17,4,1,27,53,966,['n'],1,right,['1'],6,253,[-0.14665311],100,53,easy,plus,dotcolour,alfa,,,133,19,M,R,
186,60,18,4,1,53,27,817,['c'],1,left,['1'],6,347,[0.1158144],100,53,easy,plus,dotcolour,alfa,,,133,19,M,R,
187,61,19,4,1,33,47,950,['n'],1,right,['1'],6,209,[-0.07357582],100,47,medium,plus,dotcolour,alfa,,,133,19,M,R,
188,62,20,4,1,53,27,833,['c'],1,left,['1'],6,312,[0.06480788],98,53,easy,plus,dotcolour,alfa,,,133,19,M,R,
189,63,21,4,1,33,47,1033,['n'],1,right,['2'],5,564,[-0.2540585],100,47,medium,plus,dotcolour,alfa,,,133,19,M,R,
190,64,22,4,1,47,33,734,['n'],0,left,['1'],6,385,[-0.04773696],94,47,medium,plus,dotcolour,alfa,,,133,19,M,R,
191,65,23,4,1,27,53,700,['n'],1,right,['1'],6,303,[-0.08269126],100,53,easy,plus,dotcolour,alfa,,,133,19,M,R,
192,66,24,4,1,33,47,967,['n'],1,right,['1'],6,317,[-0.05594253],97,47,medium,plus,dotcolour,alfa,,,133,19,M,R,
193,67,25,4,1,44,36,1000,['n'],0,left,['1'],6,338,[-0.13254382],100,44,hard,plus,dotcolour,alfa,,,133,19,M,R,
194,68,26,4,1,36,44,917,['n'],1,right,['1'],6,265,[-0.12786207],100,44,hard,plus,dotcolour,alfa,,,133,19,M,R,
195,69,27,4,1,47,33,1033,['c'],1,left,['1'],6,510,[0.16120115],100,47,medium,plus,dotcolour,alfa,,,133,19,M,R,
196,70,28,4,1,33,47,701,['n'],1,right,['1'],6,183,[-0.11116703],100,47,medium,plus,dotcolour,alfa,,,133,19,M,R,
197,71,29,4,1,33,47,1117,['n'],1,right,['2'],5,524,[-0.05641258],94,47,medium,plus,dotcolour,alfa,,,133,19,M,R,
198,72,30,4,1,27,53,734,['n'],1,right,['3'],4,595,[-0.06144637],95,53,easy,plus,dotcolour,alfa,,,133,19,M,R,
199,73,31,4,1,53,27,684,['n'],0,left,['1'],6,241,[-0.02923381],90,53,easy,plus,dotcolour,alfa,,,133,19,M,R,
200,74,32,4,1,47,33,1233,['n'],0,left,['1'],6,287,[0.04511714],5,47,medium,plus,dotcolour,alfa,,,133,19,M,R,
201,75,33,4,1,53,27,834,['n'],0,left,['1'],6,244,[0.08437263],0,53,easy,plus,dotcolour,alfa,,,133,19,M,R,
202,76,34,4,1,27,53,1434,['n'],1,right,['3'],4,946,[-0.24072538],100,53,easy,plus,dotcolour,alfa,,,133,19,M,R,
203,77,35,4,1,44,36,817,['n'],0,left,['1'],6,180,[-0.04502746],98,44,hard,plus,dotcolour,alfa,,,133,19,M,R,
204,78,36,4,1,44,36,1067,['n'],0,left,['1'],6,148,[-0.05599204],99,44,hard,plus,dotcolour,alfa,,,133,19,M,R,
205,79,37,4,1,36,44,3034,['n'],1,right,['3'],4,1030,[-0.06555017],91,44,hard,plus,dotcolour,alfa,,,133,19,M,R,
206,80,38,4,1,33,47,783,['n'],1,right,['3'],4,511,[-0.0751503],98,47,medium,plus,dotcolour,alfa,,,133,19,M,R,
207,81,39,4,1,36,44,1100,['n'],1,right,['3'],4,295,[-0.08251003],100,44,hard,plus,dotcolour,alfa,,,133,19,M,R,
208,82,40,4,1,44,36,783,['n'],0,left,['1'],6,421,[0.13656284],0,44,hard,plus,dotcolour,alfa,,,133,19,M,R,
209,83,41,4,1,47,33,1350,['n'],0,left,['1'],6,239,[-0.07456818],100,47,medium,plus,dotcolour,alfa,,,133,19,M,R,
210,84,0,5,1,27,53,751,['n'],1,right,['3'],4,753,[-0.12529321],99,53,easy,plus,dotcolour,alfa,,,133,19,M,R,
211,85,1,5,1,33,47,1933,['n'],1,right,['3'],4,399,[-0.17011937],100,47,medium,plus,dotcolour,alfa,,,133,19,M,R,
212,86,2,5,1,33,47,817,['n'],1,right,['3'],4,319,[-0.02566824],84,47,medium,plus,dotcolour,alfa,,,133,19,M,R,
213,87,3,5,1,27,53,932,['n'],1,right,['3'],4,295,[-0.08837233],100,53,easy,plus,dotcolour,alfa,,,133,19,M,R,
214,88,4,5,1,53,27,1649,['n'],0,left,['1'],6,347,[-0.0479975],95,53,easy,plus,dotcolour,alfa,,,133,19,M,R,
215,89,5,5,1,44,36,900,['n'],0,left,['3'],4,577,[-0.09116412],99,44,hard,plus,dotcolour,alfa,,,133,19,M,R,
216,90,6,5,1,36,44,867,['n'],1,right,['3'],4,297,[-0.06157582],98,44,hard,plus,dotcolour,alfa,,,133,19,M,R,
217,91,7,5,1,47,33,2401,['n'],0,left,['3'],4,686,[0.02211996],28,47,medium,plus,dotcolour,alfa,,,133,19,M,R,
218,92,8,5,1,33,47,2118,['n'],1,right,['9'],2,759,[-0.24809533],100,47,medium,plus,dotcolour,alfa,,,133,19,M,R,
219,93,9,5,1,44,36,900,['n'],0,left,['0'],1,566,[0.01055906],38,44,hard,plus,dotcolour,alfa,,,133,19,M,R,
220,94,10,5,1,27,53,1033,['n'],1,right,['3'],4,519,[-0.05851417],95,53,easy,plus,dotcolour,alfa,,,133,19,M,R,
221,95,11,5,1,36,44,1034,['n'],1,right,['0'],1,674,[-0.0406828],86,44,hard,plus,dotcolour,alfa,,,133,19,M,R,
222,96,12,5,1,47,33,933,['n'],0,left,['0'],1,331,[0.00351461],45,47,medium,plus,dotcolour,alfa,,,133,19,M,R,
223,97,13,5,1,47,33,900,['n'],0,left,['0'],1,611,[-0.10135322],99,47,medium,plus,dotcolour,alfa,,,133,19,M,R,
224,98,14,5,1,53,27,1283,['n'],0,left,['1'],6,353,[-0.12145763],100,53,easy,plus,dotcolour,alfa,,,133,19,M,R,
225,99,15,5,1,36,44,1217,['n'],1,right,['3'],4,195,[-0.04778124],98,44,hard,plus,dotcolour,alfa,,,133,19,M,R,
226,100,16,5,1,53,27,1134,['n'],0,left,['1'],6,351,[-0.02042674],78,53,easy,plus,dotcolour,alfa,,,133,19,M,R,
227,101,17,5,1,36,44,1150,['n'],1,right,['3'],4,924,[-0.04086062],82,44,hard,plus,dotcolour,alfa,,,133,19,M,R,
228,102,18,5,1,47,33,2200,['c'],1,left,['3'],4,665,[0.1653818],100,47,medium,plus,dotcolour,alfa,,,133,19,M,R,
229,103,19,5,1,27,53,966,['n'],1,right,['1'],6,793,[-0.11031002],99,53,easy,plus,dotcolour,alfa,,,133,19,M,R,
230,104,20,5,1,44,36,1266,['n'],0,left,['0'],1,3279,[0.41384755],0,44,hard,plus,dotcolour,alfa,,,133,19,M,R,
231,105,21,5,1,47,33,1617,['n'],0,left,['0'],1,1764,[-0.01910533],63,47,medium,plus,dotcolour,alfa,,,133,19,M,R,
232,106,22,5,1,33,47,2583,['n'],1,right,['8'],3,7559,[-0.57860344],100,47,medium,plus,dotcolour,alfa,,,133,19,M,R,
233,107,23,5,1,47,33,866,['c'],1,left,['3'],4,765,[0.14828581],100,47,medium,plus,dotcolour,alfa,,,133,19,M,R,
234,108,24,5,1,33,47,684,['n'],1,right,['3'],4,324,[-0.13971205],100,47,medium,plus,dotcolour,alfa,,,133,19,M,R,
235,109,25,5,1,33,47,851,['c'],0,right,['3'],4,590,[0.02769713],79,47,medium,plus,dotcolour,alfa,,,133,19,M,R,
236,110,26,5,1,53,27,600,['c'],1,left,['3'],4,191,[0.09380577],100,53,easy,plus,dotcolour,alfa,,,133,19,M,R,
237,111,27,5,1,33,47,1049,['n'],1,right,['3'],4,431,[-0.13120131],100,47,medium,plus,dotcolour,alfa,,,133,19,M,R,
238,112,28,5,1,27,53,867,['n'],1,right,['3'],4,325,[-0.04125823],93,53,easy,plus,dotcolour,alfa,,,133,19,M,R,
239,113,29,5,1,53,27,834,['c'],1,left,['3'],4,263,[0.0681251],99,53,easy,plus,dotcolour,alfa,,,133,19,M,R,
240,114,30,5,1,36,44,633,['n'],1,right,['3'],4,340,[-0.14759647],100,44,hard,plus,dotcolour,alfa,,,133,19,M,R,
241,115,31,5,1,36,44,767,['c'],0,right,['0'],1,929,[0.02203418],69,44,hard,plus,dotcolour,alfa,,,133,19,M,R,
242,116,32,5,1,47,33,767,['c'],1,left,['2'],5,535,[0.14731559],100,47,medium,plus,dotcolour,alfa,,,133,19,M,R,
243,117,33,5,1,44,36,700,['n'],0,left,['3'],4,326,[-0.0036155],56,44,hard,plus,dotcolour,alfa,,,133,19,M,R,
244,118,34,5,1,53,27,849,['c'],1,left,['3'],4,1033,[0.28654254],100,53,easy,plus,dotcolour,alfa,,,133,19,M,R,
245,119,35,5,1,44,36,800,['c'],1,left,['3'],4,288,[0.04200939],94,44,hard,plus,dotcolour,alfa,,,133,19,M,R,
246,120,36,5,1,36,44,816,['n'],1,right,['8'],3,406,[-0.07845367],99,44,hard,plus,dotcolour,alfa,,,133,19,M,R,
247,121,37,5,1,27,53,667,['c'],0,right,['0'],1,868,[-0.10536453],2,53,easy,plus,dotcolour,alfa,,,133,19,M,R,
248,122,38,5,1,44,36,1116,['n'],0,left,['3'],4,253,[-0.05678992],98,44,hard,plus,dotcolour,alfa,,,133,19,M,R,
249,123,39,5,1,53,27,833,['c'],1,left,['3'],4,444,[0.09264713],99,53,easy,plus,dotcolour,alfa,,,133,19,M,R,
250,124,40,5,1,44,36,1717,['n'],0,left,['9'],2,694,[0.06613062],5,44,hard,plus,dotcolour,alfa,,,133,19,M,R,
251,125,41,5,1,27,53,1083,['n'],1,right,['0'],1,1360,[-0.29132677],100,53,easy,plus,dotcolour,alfa,,,133,19,M,R,
252,0,0,6,2,53,27,851,['c'],1,left,['3'],4,404,[0.09865271],80,53,easy,minus,dotcolour,alfa,,,133,19,M,R,
253,1,1,6,2,36,44,1666,['c'],0,right,['3'],4,610,[0.16827327],87,44,hard,minus,dotcolour,alfa,,,133,19,M,R,
254,2,2,6,2,33,47,1366,['n'],1,right,['3'],4,524,[-0.05368703],66,47,medium,minus,dotcolour,alfa,,,133,19,M,R,
255,3,3,6,2,27,53,816,['n'],1,right,['3'],4,273,[-0.173369],95,53,easy,minus,dotcolour,alfa,,,133,19,M,R,
256,4,4,6,2,36,44,8000,['n'],1,right,['9'],2,350,[-0.11733872],86,44,hard,minus,dotcolour,alfa,,,133,19,M,R,
257,5,5,6,2,27,53,816,['n'],1,right,['2'],5,345,[-0.11585561],86,53,easy,minus,dotcolour,alfa,,,133,19,M,R,
258,6,6,6,2,33,47,867,['n'],1,right,['2'],5,289,[-0.10736798],86,47,medium,minus,dotcolour,alfa,,,133,19,M,R,
259,7,7,6,2,53,27,833,['c'],1,left,['3'],4,469,[0.14687635],87,53,easy,minus,dotcolour,alfa,,,133,19,M,R,
260,8,8,6,2,33,47,717,['n'],1,right,['3'],4,192,[-0.09012241],86,47,medium,minus,dotcolour,alfa,,,133,19,M,R,
261,9,9,6,2,36,44,917,['c'],0,right,['3'],4,268,[0.13151582],91,44,hard,minus,dotcolour,alfa,,,133,19,M,R,
262,10,10,6,2,53,27,718,['c'],1,left,['3'],4,214,[0.14448471],94,53,easy,minus,dotcolour,alfa,,,133,19,M,R,
263,11,11,6,2,27,53,1083,['n'],1,right,['3'],4,323,[-0.17313371],94,53,easy,minus,dotcolour,alfa,,,133,19,M,R,
264,12,12,6,2,36,44,767,['n'],1,right,['3'],4,273,[-0.04385701],68,44,hard,minus,dotcolour,alfa,,,133,19,M,R,
265,13,13,6,2,44,36,733,['c'],1,left,['3'],4,802,[0.07238641],67,44,hard,minus,dotcolour,alfa,,,133,19,M,R,
266,14,14,6,2,33,47,901,['n'],1,right,['3'],4,326,[-0.15244482],92,47,medium,minus,dotcolour,alfa,,,133,19,M,R,
267,15,15,6,2,47,33,634,['c'],1,left,['3'],4,161,[0.11257764],93,47,medium,minus,dotcolour,alfa,,,133,19,M,R,
268,16,16,6,2,47,33,850,['c'],1,left,['3'],4,169,[0.0565223],78,47,medium,minus,dotcolour,alfa,,,133,19,M,R,
269,17,17,6,2,27,53,816,['n'],1,right,['3'],4,548,[-0.23413479],95,53,easy,minus,dotcolour,alfa,,,133,19,M,R,
270,18,18,6,2,47,33,683,['c'],1,left,['3'],4,844,[0.27275145],94,47,medium,minus,dotcolour,alfa,,,133,19,M,R,
271,19,19,6,2,33,47,866,['n'],1,right,['2'],5,552,[-0.14334635],85,47,medium,minus,dotcolour,alfa,,,133,19,M,R,
272,20,20,6,2,47,33,1117,['c'],1,left,['1'],6,839,[0.30101283],95,47,medium,minus,dotcolour,alfa,,,133,19,M,R,
273,21,21,6,2,53,27,799,['c'],1,left,['2'],5,670,[0.08465587],72,53,easy,minus,dotcolour,alfa,,,133,19,M,R,
274,22,22,6,2,53,27,917,['c'],1,left,['1'],6,528,[0.174853],90,53,easy,minus,dotcolour,alfa,,,133,19,M,R,
275,23,23,6,2,44,36,934,['n'],0,left,['3'],4,342,[-0.07034742],75,44,hard,minus,dotcolour,alfa,,,133,19,M,R,
276,24,24,6,2,33,47,933,['n'],1,right,['2'],5,669,[-0.18160604],88,47,medium,minus,dotcolour,alfa,,,133,19,M,R,
277,25,25,6,2,44,36,867,['c'],1,left,['1'],6,728,[0.16948995],86,44,hard,minus,dotcolour,alfa,,,133,19,M,R,
278,26,26,6,2,36,44,917,['n'],1,right,['1'],6,600,[-0.14934357],85,44,hard,minus,dotcolour,alfa,,,133,19,M,R,
279,27,27,6,2,33,47,867,['c'],0,right,['3'],4,422,[-0.00415039],49,47,medium,minus,dotcolour,alfa,,,133,19,M,R,
280,28,28,6,2,44,36,833,['n'],0,left,['1'],6,533,[-0.03964907],62,44,hard,minus,dotcolour,alfa,,,133,19,M,R,
281,29,29,6,2,44,36,766,['c'],1,left,['1'],6,331,[0.19846553],96,44,hard,minus,dotcolour,alfa,,,133,19,M,R,
282,30,30,6,2,53,27,817,['c'],1,left,['1'],6,430,[0.1134389],83,53,easy,minus,dotcolour,alfa,,,133,19,M,R,
283,31,31,6,2,47,33,867,['c'],1,left,['1'],6,275,[0.11710484],88,47,medium,minus,dotcolour,alfa,,,133,19,M,R,
284,32,32,6,2,47,33,617,['c'],1,left,['1'],6,249,[0.11416866],89,47,medium,minus,dotcolour,alfa,,,133,19,M,R,
285,33,33,6,2,53,27,749,['c'],1,left,['1'],6,226,[0.04296127],69,53,easy,minus,dotcolour,alfa,,,133,19,M,R,
286,34,34,6,2,27,53,783,['n'],1,right,['3'],4,307,[-0.20029949],96,53,easy,minus,dotcolour,alfa,,,133,19,M,R,
287,35,35,6,2,47,33,800,['c'],1,left,['1'],6,352,[0.01526274],56,47,medium,minus,dotcolour,alfa,,,133,19,M,R,
288,36,36,6,2,36,44,800,['c'],0,right,['3'],4,579,[-0.03352691],40,44,hard,minus,dotcolour,alfa,,,133,19,M,R,
289,37,37,6,2,44,36,1167,['c'],1,left,['3'],4,318,[0.07910475],78,44,hard,minus,dotcolour,alfa,,,133,19,M,R,
290,38,38,6,2,44,36,1633,['c'],1,left,['3'],4,425,[0.15259572],89,44,hard,minus,dotcolour,alfa,,,133,19,M,R,
291,39,39,6,2,27,53,683,['c'],0,right,['0'],1,711,[0.07956177],70,53,easy,minus,dotcolour,alfa,,,133,19,M,R,
292,40,40,6,2,27,53,817,['n'],1,right,['8'],3,395,[-0.13347717],87,53,easy,minus,dotcolour,alfa,,,133,19,M,R,
293,41,41,6,2,36,44,141,['c'],0,right,['1'],6,508,[-0.00019939],50,44,hard,minus,dotcolour,alfa,,,133,19,M,R,
294,42,0,7,2,47,33,518,['c'],1,left,['3'],4,203,[0.06326011],78,47,medium,minus,dotcolour,alfa,,,133,19,M,R,
295,43,1,7,2,27,53,401,['c'],0,right,['9'],2,1253,[-0.19490158],17,53,easy,minus,dotcolour,alfa,,,133,19,M,R,
296,44,2,7,2,53,27,717,['c'],1,left,['3'],4,319,[0.11215779],86,53,easy,minus,dotcolour,alfa,,,133,19,M,R,
297,45,3,7,2,44,36,800,['c'],1,left,['3'],4,220,[0.13186978],93,44,hard,minus,dotcolour,alfa,,,133,19,M,R,
298,46,4,7,2,36,44,149,['c'],0,right,['3'],4,325,[-0.06310391],27,44,hard,minus,dotcolour,alfa,,,133,19,M,R,
299,47,5,7,2,47,33,650,['c'],1,left,['3'],4,215,[0.10543127],89,47,medium,minus,dotcolour,alfa,,,133,19,M,R,
300,48,6,7,2,33,47,40,['c'],0,right,['3'],4,248,[0.06246435],76,47,medium,minus,dotcolour,alfa,,,133,19,M,R,
301,49,7,7,2,53,27,416,['c'],1,left,['3'],4,150,[0.06259097],81,53,easy,minus,dotcolour,alfa,,,133,19,M,R,
302,50,8,7,2,27,53,1433,['c'],0,right,['3'],4,264,[0.0625747],75,53,easy,minus,dotcolour,alfa,,,133,19,M,R,
303,51,9,7,2,33,47,734,['n'],1,right,['8'],3,337,[-0.18160848],94,47,medium,minus,dotcolour,alfa,,,133,19,M,R,
304,52,10,7,2,27,53,633,['c'],0,right,['3'],4,260,[0.04794271],70,53,easy,minus,dotcolour,alfa,,,133,19,M,R,
305,53,11,7,2,53,27,317,['n'],0,left,['8'],3,278,[-0.02820775],62,53,easy,minus,dotcolour,alfa,,,133,19,M,R,
306,54,12,7,2,47,33,700,['c'],1,left,['3'],4,240,[0.11915854],90,47,medium,minus,dotcolour,alfa,,,133,19,M,R,
307,55,13,7,2,44,36,700,['c'],1,left,['3'],4,243,[0.03844131],67,44,hard,minus,dotcolour,alfa,,,133,19,M,R,
308,56,14,7,2,53,27,617,['c'],1,left,['3'],4,202,[0.17090442],97,53,easy,minus,dotcolour,alfa,,,133,19,M,R,
309,57,15,7,2,53,27,733,['c'],1,left,['3'],4,278,[0.09009574],82,53,easy,minus,dotcolour,alfa,,,133,19,M,R,
310,58,16,7,2,27,53,983,['n'],1,right,['8'],3,244,[-0.11371532],89,53,easy,minus,dotcolour,alfa,,,133,19,M,R,
311,59,17,7,2,47,33,634,['c'],1,left,['3'],4,211,[0.11127476],90,47,medium,minus,dotcolour,alfa,,,133,19,M,R,
312,60,18,7,2,27,53,1200,['n'],1,right,['3'],4,235,[-0.05853047],75,53,easy,minus,dotcolour,alfa,,,133,19,M,R,
313,61,19,7,2,53,27,884,['c'],1,left,['3'],4,192,[0.00916999],55,53,easy,minus,dotcolour,alfa,,,133,19,M,R,
314,62,20,7,2,36,44,650,['c'],0,right,['3'],4,175,[0.04606825],73,44,hard,minus,dotcolour,alfa,,,133,19,M,R,
315,63,21,7,2,33,47,683,['c'],0,right,['3'],4,198,[0.07480221],82,47,medium,minus,dotcolour,alfa,,,133,19,M,R,
316,64,22,7,2,36,44,1050,['n'],1,right,['3'],4,701,[-0.20667192],90,44,hard,minus,dotcolour,alfa,,,133,19,M,R,
317,65,23,7,2,36,44,850,['n'],1,right,['3'],4,409,[0.00808569],47,44,hard,minus,dotcolour,alfa,,,133,19,M,R,
318,66,24,7,2,47,33,850,['c'],1,left,['1'],6,191,[0.09230395],87,47,medium,minus,dotcolour,alfa,,,133,19,M,R,
319,67,25,7,2,27,53,716,['n'],1,right,['1'],6,148,[-0.12709927],95,53,easy,minus,dotcolour,alfa,,,133,19,M,R,
320,68,26,7,2,36,44,834,['n'],1,right,['1'],6,182,[-0.09813684],89,44,hard,minus,dotcolour,alfa,,,133,19,M,R,
321,69,27,7,2,33,47,733,['n'],1,right,['1'],6,219,[-0.00544594],53,47,medium,minus,dotcolour,alfa,,,133,19,M,R,
322,70,28,7,2,36,44,734,['n'],1,right,['1'],6,366,[-0.0749352],75,44,hard,minus,dotcolour,alfa,,,133,19,M,R,
323,71,29,7,2,47,33,799,['c'],1,left,['1'],6,233,[0.05266033],73,47,medium,minus,dotcolour,alfa,,,133,19,M,R,
324,72,30,7,2,44,36,933,['c'],1,left,['1'],6,243,[0.04352538],69,44,hard,minus,dotcolour,alfa,,,133,19,M,R,
325,73,31,7,2,47,33,933,['c'],1,left,['1'],6,206,[0.0481541],72,47,medium,minus,dotcolour,alfa,,,133,19,M,R,
326,74,32,7,2,44,36,867,['n'],0,left,['1'],6,195,[-0.08319409],84,44,hard,minus,dotcolour,alfa,,,133,19,M,R,
327,75,33,7,2,33,47,766,['c'],0,right,['1'],6,295,[0.02598616],61,47,medium,minus,dotcolour,alfa,,,133,19,M,R,
328,76,34,7,2,33,47,801,['n'],1,right,['1'],6,268,[0.00334076],49,47,medium,minus,dotcolour,alfa,,,133,19,M,R,
329,77,35,7,2,27,53,733,['n'],1,right,['1'],6,558,[-0.11851221],81,53,easy,minus,dotcolour,alfa,,,133,19,M,R,
330,78,36,7,2,33,47,900,['n'],1,right,['1'],6,236,[-0.15397394],95,47,medium,minus,dotcolour,alfa,,,133,19,M,R,
331,79,37,7,2,44,36,734,['c'],1,left,['1'],6,351,[0.15758498],92,44,hard,minus,dotcolour,alfa,,,133,19,M,R,
332,80,38,7,2,36,44,934,['n'],1,right,['2'],5,660,[0.09208826],26,44,hard,minus,dotcolour,alfa,,,133,19,M,R,
333,81,39,7,2,53,27,700,['c'],1,left,['1'],6,271,[0.12215795],89,53,easy,minus,dotcolour,alfa,,,133,19,M,R,
334,82,40,7,2,44,36,767,['c'],1,left,['2'],5,287,[0.0962745],83,44,hard,minus,dotcolour,alfa,,,133,19,M,R,
335,83,41,7,2,44,36,750,['c'],1,left,['2'],5,511,[0.1346621],84,44,hard,minus,dotcolour,alfa,,,133,19,M,R,
336,84,0,8,2,27,53,801,['n'],1,right,['3'],4,218,[-0.00175887],51,53,easy,minus,dotcolour,alfa,,,133,19,M,R,
337,85,1,8,2,27,53,800,['n'],1,right,['1'],6,634,[-0.24510279],94,53,easy,minus,dotcolour,alfa,,,133,19,M,R,
338,86,2,8,2,27,53,734,['n'],1,right,['1'],6,173,[-0.08226767],86,53,easy,minus,dotcolour,alfa,,,133,19,M,R,
339,87,3,8,2,27,53,717,['n'],1,right,['1'],6,170,[-0.13545217],95,53,easy,minus,dotcolour,alfa,,,133,19,M,R,
340,88,4,8,2,36,44,734,['n'],1,right,['2'],5,448,[0.00877076],47,44,hard,minus,dotcolour,alfa,,,133,19,M,R,
341,89,5,8,2,47,33,684,['c'],1,left,['2'],5,428,[0.22055096],95,47,medium,minus,dotcolour,alfa,,,133,19,M,R,
342,90,6,8,2,47,33,918,['n'],0,left,['3'],4,287,[-0.06345655],74,47,medium,minus,dotcolour,alfa,,,133,19,M,R,
343,91,7,8,2,36,44,182,['c'],0,right,['3'],4,157,[0.10498673],92,44,hard,minus,dotcolour,alfa,,,133,19,M,R,
344,92,8,8,2,36,44,1417,['c'],0,right,['3'],4,639,[0.02115027],56,44,hard,minus,dotcolour,alfa,,,133,19,M,R,
345,93,9,8,2,47,33,449,['n'],0,left,['3'],4,124,[-0.05235084],79,47,medium,minus,dotcolour,alfa,,,133,19,M,R,
346,94,10,8,2,53,27,1400,['c'],1,left,['3'],4,217,[0.12352055],92,53,easy,minus,dotcolour,alfa,,,133,19,M,R,
347,95,11,8,2,33,47,800,['c'],0,right,['3'],4,345,[-0.00219868],49,47,medium,minus,dotcolour,alfa,,,133,19,M,R,
348,96,12,8,2,33,47,181,['n'],1,right,['3'],4,277,[-0.09521202],84,47,medium,minus,dotcolour,alfa,,,133,19,M,R,
349,97,13,8,2,47,33,400,['c'],1,left,['3'],4,162,[0.10059883],90,47,medium,minus,dotcolour,alfa,,,133,19,M,R,
350,98,14,8,2,44,36,517,['n'],0,left,['3'],4,129,[-0.0452203],76,44,hard,minus,dotcolour,alfa,,,133,19,M,R,
351,99,15,8,2,27,53,368,['c'],0,right,['3'],4,150,[-0.00376167],48,53,easy,minus,dotcolour,alfa,,,133,19,M,R,
352,100,16,8,2,44,36,466,['c'],1,left,['3'],4,238,[0.07504397],80,44,hard,minus,dotcolour,alfa,,,133,19,M,R,
353,101,17,8,2,33,47,916,['c'],0,right,['3'],4,186,[0.04430933],72,47,medium,minus,dotcolour,alfa,,,133,19,M,R,
354,102,18,8,2,53,27,600,['c'],1,left,['1'],6,188,[0.1188747],92,53,easy,minus,dotcolour,alfa,,,133,19,M,R,
355,103,19,8,2,36,44,400,['c'],0,right,['3'],4,198,[0.07876555],83,44,hard,minus,dotcolour,alfa,,,133,19,M,R,
356,104,20,8,2,53,27,634,['c'],1,left,['1'],6,166,[0.11952632],93,53,easy,minus,dotcolour,alfa,,,133,19,M,R,
357,105,21,8,2,33,47,549,['c'],0,right,['3'],4,147,[0.02909469],66,47,medium,minus,dotcolour,alfa,,,133,19,M,R,
358,106,22,8,2,53,27,750,['c'],1,left,['1'],6,104,[0.06045364],84,53,easy,minus,dotcolour,alfa,,,133,19,M,R,
359,107,23,8,2,44,36,467,['c'],1,left,['3'],4,107,[0.1030809],94,44,hard,minus,dotcolour,alfa,,,133,19,M,R,
360,108,24,8,2,33,47,300,['c'],0,right,['1'],6,124,[0.11708555],95,47,medium,minus,dotcolour,alfa,,,133,19,M,R,
361,109,25,8,2,27,53,950,['c'],0,right,['3'],4,185,[0.02152203],61,53,easy,minus,dotcolour,alfa,,,133,19,M,R,
362,110,26,8,2,53,27,1117,['c'],1,left,['1'],6,247,[0.11475624],89,53,easy,minus,dotcolour,alfa,,,133,19,M,R,
363,111,27,8,2,33,47,517,['c'],0,right,['3'],4,177,[0.00063684],50,47,medium,minus,dotcolour,alfa,,,133,19,M,R,
364,112,28,8,2,53,27,550,['c'],1,left,['1'],6,118,[0.14967918],98,53,easy,minus,dotcolour,alfa,,,133,19,M,R,
365,113,29,8,2,33,47,567,['c'],0,right,['3'],4,131,[0.02584052],66,47,medium,minus,dotcolour,alfa,,,133,19,M,R,
366,114,30,8,2,44,36,250,['c'],1,left,['1'],6,149,[0.09501595],90,44,hard,minus,dotcolour,alfa,,,133,19,M,R,
367,115,31,8,2,53,27,466,['c'],1,left,['3'],4,190,[0.1108058],91,53,easy,minus,dotcolour,alfa,,,133,19,M,R,
368,116,32,8,2,47,33,534,['c'],1,left,['1'],6,26,[0.08610196],99,47,medium,minus,dotcolour,alfa,,,133,19,M,R,
369,117,33,8,2,47,33,433,['c'],1,left,['3'],4,305,[0.14820669],92,47,medium,minus,dotcolour,alfa,,,133,19,M,R,
370,118,34,8,2,44,36,30,['c'],1,left,['1'],6,94,[0.08311271],92,44,hard,minus,dotcolour,alfa,,,133,19,M,R,
371,119,35,8,2,36,44,450,['c'],0,right,['0'],1,1464,[0.07796842],64,44,hard,minus,dotcolour,alfa,,,133,19,M,R,
372,120,36,8,2,47,33,634,['c'],1,left,['1'],6,214,[0.06427918],78,47,medium,minus,dotcolour,alfa,,,133,19,M,R,
373,121,37,8,2,36,44,983,['c'],0,right,['3'],4,592,[0.08229246],72,44,hard,minus,dotcolour,alfa,,,133,19,M,R,
374,122,38,8,2,44,36,717,['c'],1,left,['1'],6,163,[0.18725728],98,44,hard,minus,dotcolour,alfa,,,133,19,M,R,
375,123,39,8,2,27,53,3117,['c'],0,right,['3'],4,1050,[-0.02467575],45,53,easy,minus,dotcolour,alfa,,,133,19,M,R,
376,124,40,8,2,44,36,1367,['c'],1,left,['3'],4,506,[0.14742412],87,44,hard,minus,dotcolour,alfa,,,133,19,M,R,
377,125,41,8,2,36,44,1733,['c'],0,right,['3'],4,274,[-0.03256418],36,44,hard,minus,dotcolour,alfa,,,133,19,M,R,
378,0,0,9,3,33,47,1067,['c'],0,right,['3'],4,692,[-0.01722095],32,47,medium,plus,dotcolour,alfa,,,133,19,M,R,
379,1,1,9,3,53,27,733,['c'],1,left,['1'],6,228,[0.14145958],100,53,easy,plus,dotcolour,alfa,,,133,19,M,R,
380,2,2,9,3,27,53,1482,['c'],0,right,['3'],4,856,[-0.01822411],33,53,easy,plus,dotcolour,alfa,,,133,19,M,R,
381,3,3,9,3,44,36,867,['c'],1,left,['1'],6,252,[0.07271201],99,44,hard,plus,dotcolour,alfa,,,133,19,M,R,
382,4,4,9,3,44,36,367,['c'],1,left,['1'],6,325,[0.02819114],86,44,hard,plus,dotcolour,alfa,,,133,19,M,R,
383,5,5,9,3,44,36,351,['c'],1,left,['3'],4,178,[0.12908992],100,44,hard,plus,dotcolour,alfa,,,133,19,M,R,
384,6,6,9,3,33,47,216,['c'],0,right,['3'],4,181,[0.08419417],100,47,medium,plus,dotcolour,alfa,,,133,19,M,R,
385,7,7,9,3,53,27,350,['c'],1,left,['3'],4,184,[0.14519437],100,53,easy,plus,dotcolour,alfa,,,133,19,M,R,
386,8,8,9,3,33,47,83,['c'],0,right,['3'],4,67,[0.05116138],100,47,medium,plus,dotcolour,alfa,,,133,19,M,R,
387,9,9,9,3,53,27,300,['c'],1,left,['3'],4,21,[0.0519905],100,53,easy,plus,dotcolour,alfa,,,133,19,M,R,
388,10,10,9,3,36,44,732,['c'],0,right,['3'],4,425,[-0.02485526],20,44,hard,plus,dotcolour,alfa,,,133,19,M,R,
389,11,11,9,3,27,53,517,['c'],0,right,['3'],4,491,[0.01748414],71,53,easy,plus,dotcolour,alfa,,,133,19,M,R,
390,12,12,9,3,33,47,484,['n'],1,right,['8'],3,526,[-0.12287264],100,47,medium,plus,dotcolour,alfa,,,133,19,M,R,
391,13,13,9,3,47,33,299,['c'],1,left,['3'],4,197,[0.09051091],100,47,medium,plus,dotcolour,alfa,,,133,19,M,R,
392,14,14,9,3,47,33,651,['c'],1,left,['3'],4,213,[0.06009478],99,47,medium,plus,dotcolour,alfa,,,133,19,M,R,
393,15,15,9,3,53,27,316,['c'],1,left,['3'],4,377,[0.13673081],100,53,easy,plus,dotcolour,alfa,,,133,19,M,R,
394,16,16,9,3,27,53,500,['c'],0,right,['3'],4,399,[0.11299905],100,53,easy,plus,dotcolour,alfa,,,133,19,M,R,
395,17,17,9,3,47,33,316,['c'],1,left,['3'],4,324,[0.18626028],100,47,medium,plus,dotcolour,alfa,,,133,19,M,R,
396,18,18,9,3,27,53,3599,['c'],0,right,['3'],4,727,[0.07359006],96,53,easy,plus,dotcolour,alfa,,,133,19,M,R,
397,19,19,9,3,47,33,482,['c'],1,left,['3'],4,344,[0.07305703],99,47,medium,plus,dotcolour,alfa,,,133,19,M,R,
398,20,20,9,3,53,27,318,['c'],1,left,['3'],4,360,[0.17545907],100,53,easy,plus,dotcolour,alfa,,,133,19,M,R,
399,21,21,9,3,36,44,2150,['c'],0,right,['3'],4,276,[0.03585975],92,44,hard,plus,dotcolour,alfa,,,133,19,M,R,
400,22,22,9,3,27,53,1116,['c'],0,right,['3'],4,165,[0.05761912],99,53,easy,plus,dotcolour,alfa,,,133,19,M,R,
401,23,23,9,3,53,27,349,['c'],1,left,['3'],4,1634,[0.48756499],100,53,easy,plus,dotcolour,alfa,,,133,19,M,R,
402,24,24,9,3,27,53,1701,['n'],1,right,['3'],4,789,[-0.07266653],95,53,easy,plus,dotcolour,alfa,,,133,19,M,R,
403,25,25,9,3,44,36,717,['n'],0,left,['9'],2,770,[0.02189389],29,44,hard,plus,dotcolour,alfa,,,133,19,M,R,
404,26,26,9,3,47,33,867,['n'],0,left,['8'],3,193,[-0.0777127],100,47,medium,plus,dotcolour,alfa,,,133,19,M,R,
405,27,27,9,3,47,33,2383,['n'],0,left,['8'],3,227,[-0.0172186],79,47,medium,plus,dotcolour,alfa,,,133,19,M,R,
406,28,28,9,3,36,44,1150,['n'],1,right,['8'],3,206,[-0.11236741],100,44,hard,plus,dotcolour,alfa,,,133,19,M,R,
407,29,29,9,3,36,44,2667,['n'],1,right,['8'],3,236,[-0.06769437],99,44,hard,plus,dotcolour,alfa,,,133,19,M,R,
408,30,30,9,3,33,47,368,['n'],1,right,['8'],3,237,[-0.10540242],100,47,medium,plus,dotcolour,alfa,,,133,19,M,R,
409,31,31,9,3,27,53,17,['n'],1,right,['3'],4,1534,[-0.24912074],100,53,easy,plus,dotcolour,alfa,,,133,19,M,R,
410,32,32,9,3,36,44,833,['n'],1,right,['8'],3,367,[-0.16012119],100,44,hard,plus,dotcolour,alfa,,,133,19,M,R,
411,33,33,9,3,36,44,433,['c'],0,right,['3'],4,305,[0.05103606],97,44,hard,plus,dotcolour,alfa,,,133,19,M,R,
412,34,34,9,3,47,33,401,['n'],0,left,['8'],3,207,[-0.10819952],100,47,medium,plus,dotcolour,alfa,,,133,19,M,R,
413,35,35,9,3,33,47,1367,['c'],0,right,['3'],4,353,[0.10758665],100,47,medium,plus,dotcolour,alfa,,,133,19,M,R,
414,36,36,9,3,44,36,583,['n'],0,left,['8'],3,580,[-0.00176486],52,44,hard,plus,dotcolour,alfa,,,133,19,M,R,
415,37,37,9,3,33,47,1317,['n'],1,right,['8'],3,1226,[-0.19508302],100,47,medium,plus,dotcolour,alfa,,,133,19,M,R,
416,38,38,9,3,44,36,1384,['c'],1,left,['3'],4,522,[0.12545211],100,44,hard,plus,dotcolour,alfa,,,133,19,M,R,
417,39,39,9,3,36,44,1384,['n'],1,right,['8'],3,247,[-0.13914119],100,44,hard,plus,dotcolour,alfa,,,133,19,M,R,
418,40,40,9,3,44,36,884,['n'],0,left,['8'],3,339,[-0.13966687],100,44,hard,plus,dotcolour,alfa,,,133,19,M,R,
419,41,41,9,3,53,27,3384,['n'],0,left,['8'],3,263,[-0.01222103],70,53,easy,plus,dotcolour,alfa,,,133,19,M,R,
420,42,0,10,3,36,44,818,['n'],1,right,['0'],1,204,[-0.09697699],100,44,hard,plus,dotcolour,alfa,,,133,19,M,R,
421,43,1,10,3,36,44,1199,['n'],1,right,['0'],1,470,[-0.16943898],100,44,hard,plus,dotcolour,alfa,,,133,19,M,R,
422,44,2,10,3,36,44,584,['n'],1,right,['1'],6,286,[0.02238438],18,44,hard,plus,dotcolour,alfa,,,133,19,M,R,
423,45,3,10,3,44,36,534,['n'],0,left,['1'],6,198,[-0.03251251],93,44,hard,plus,dotcolour,alfa,,,133,19,M,R,
424,46,4,10,3,47,33,716,['c'],1,left,['1'],6,210,[0.14271908],100,47,medium,plus,dotcolour,alfa,,,133,19,M,R,
425,47,5,10,3,47,33,518,['c'],1,left,['1'],6,143,[0.08143574],100,47,medium,plus,dotcolour,alfa,,,133,19,M,R,
426,48,6,10,3,33,47,833,['n'],1,right,['9'],2,2985,[-0.61771112],100,47,medium,plus,dotcolour,alfa,,,133,19,M,R,
427,49,7,10,3,47,33,368,['n'],0,left,['2'],5,323,[0.00795681],38,47,medium,plus,dotcolour,alfa,,,133,19,M,R,
428,50,8,10,3,53,27,417,['c'],1,left,['2'],5,550,[0.2751826],100,53,easy,plus,dotcolour,alfa,,,133,19,M,R,
429,51,9,10,3,27,53,717,['n'],1,right,['1'],6,196,[-0.18564789],100,53,easy,plus,dotcolour,alfa,,,133,19,M,R,
430,52,10,10,3,33,47,1549,['c'],0,right,['1'],6,536,[-0.13987921],0,47,medium,plus,dotcolour,alfa,,,133,19,M,R,
431,53,11,10,3,33,47,933,['n'],1,right,['1'],6,351,[-0.03275629],88,47,medium,plus,dotcolour,alfa,,,133,19,M,R,
432,54,12,10,3,44,36,1284,['n'],0,left,['3'],4,583,[-0.07072973],97,44,hard,plus,dotcolour,alfa,,,133,19,M,R,
433,55,13,10,3,27,53,1000,['c'],0,right,['3'],4,497,[-0.11129377],0,53,easy,plus,dotcolour,alfa,,,133,19,M,R,
434,56,14,10,3,47,33,683,['c'],1,left,['2'],5,227,[-0.00873131],34,47,medium,plus,dotcolour,alfa,,,133,19,M,R,
435,57,15,10,3,44,36,734,['n'],0,left,['3'],4,229,[-0.10560155],100,44,hard,plus,dotcolour,alfa,,,133,19,M,R,
436,58,16,10,3,27,53,717,['n'],1,right,['3'],4,329,[-0.14195945],100,53,easy,plus,dotcolour,alfa,,,133,19,M,R,
437,59,17,10,3,53,27,650,['c'],1,left,['3'],4,347,[0.17295661],100,53,easy,plus,dotcolour,alfa,,,133,19,M,R,
438,60,18,10,3,36,44,617,['c'],0,right,['3'],4,285,[0.07632799],99,44,hard,plus,dotcolour,alfa,,,133,19,M,R,
439,61,19,10,3,47,33,582,['c'],1,left,['3'],4,204,[0.10548863],100,47,medium,plus,dotcolour,alfa,,,133,19,M,R,
440,62,20,10,3,33,47,850,['n'],1,right,['3'],4,340,[-0.15005359],100,47,medium,plus,dotcolour,alfa,,,133,19,M,R,
441,63,21,10,3,33,47,650,['c'],0,right,['3'],4,613,[0.05129959],91,47,medium,plus,dotcolour,alfa,,,133,19,M,R,
442,64,22,10,3,47,33,767,['c'],1,left,['3'],4,318,[0.1255883],100,47,medium,plus,dotcolour,alfa,,,133,19,M,R,
443,65,23,10,3,53,27,617,['c'],1,left,['8'],3,595,[0.1133484],99,53,easy,plus,dotcolour,alfa,,,133,19,M,R,
444,66,24,10,3,53,27,1133,['c'],1,left,['3'],4,255,[0.14264346],100,53,easy,plus,dotcolour,alfa,,,133,19,M,R,
445,67,25,10,3,47,33,584,['c'],1,left,['2'],5,439,[0.13577477],100,47,medium,plus,dotcolour,alfa,,,133,19,M,R,
446,68,26,10,3,44,36,1066,['n'],0,left,['2'],5,468,[-0.0919416],99,44,hard,plus,dotcolour,alfa,,,133,19,M,R,
447,69,27,10,3,27,53,801,['n'],1,right,['2'],5,418,[-0.04412129],92,53,easy,plus,dotcolour,alfa,,,133,19,M,R,
448,70,28,10,3,36,44,766,['n'],1,right,['1'],6,477,[-0.1015773],100,44,hard,plus,dotcolour,alfa,,,133,19,M,R,
449,71,29,10,3,33,47,850,['c'],0,right,['2'],5,456,[0.07926546],99,47,medium,plus,dotcolour,alfa,,,133,19,M,R,
450,72,30,10,3,44,36,783,['c'],1,left,['1'],6,615,[0.09474145],99,44,hard,plus,dotcolour,alfa,,,133,19,M,R,
451,73,31,10,3,44,36,833,['c'],1,left,['1'],6,279,[0.03923988],94,44,hard,plus,dotcolour,alfa,,,133,19,M,R,
452,74,32,10,3,33,47,767,['n'],1,right,['1'],6,294,[-0.12676469],100,47,medium,plus,dotcolour,alfa,,,133,19,M,R,
453,75,33,10,3,27,53,634,['n'],1,right,['3'],4,355,[-0.0610061],98,53,easy,plus,dotcolour,alfa,,,133,19,M,R,
454,76,34,10,3,36,44,783,['n'],1,right,['2'],5,942,[0.04810755],14,44,hard,plus,dotcolour,alfa,,,133,19,M,R,
455,77,35,10,3,36,44,584,['c'],0,right,['1'],6,347,[0.1348324],100,44,hard,plus,dotcolour,alfa,,,133,19,M,R,
456,78,36,10,3,53,27,883,['n'],0,left,['2'],5,539,[-0.0675146],96,53,easy,plus,dotcolour,alfa,,,133,19,M,R,
457,79,37,10,3,44,36,1917,['c'],1,left,['1'],6,370,[-0.01815472],25,44,hard,plus,dotcolour,alfa,,,133,19,M,R,
458,80,38,10,3,27,53,317,['n'],1,right,['2'],5,727,[-0.37520759],100,53,easy,plus,dotcolour,alfa,,,133,19,M,R,
459,81,39,10,3,53,27,116,['c'],1,left,['1'],6,1972,[0.42944402],100,53,easy,plus,dotcolour,alfa,,,133,19,M,R,
460,82,40,10,3,53,27,883,['c'],1,left,['1'],6,554,[0.17203909],100,53,easy,plus,dotcolour,alfa,,,133,19,M,R,
461,83,41,10,3,27,53,533,['c'],0,right,['1'],6,519,[-0.04937922],8,53,easy,plus,dotcolour,alfa,,,133,19,M,R,
462,84,0,11,3,47,33,1035,['c'],1,left,['1'],6,439,[0.09820972],100,47,medium,plus,dotcolour,alfa,,,133,19,M,R,
463,85,1,11,3,44,36,1234,['c'],1,left,['1'],6,437,[0.08419264],99,44,hard,plus,dotcolour,alfa,,,133,19,M,R,
464,86,2,11,3,44,36,1400,['c'],1,left,['1'],6,253,[0.15555313],100,44,hard,plus,dotcolour,alfa,,,133,19,M,R,
465,87,3,11,3,44,36,750,['c'],1,left,['1'],6,534,[0.12273725],100,44,hard,plus,dotcolour,alfa,,,133,19,M,R,
466,88,4,11,3,53,27,1817,['c'],1,left,['1'],6,402,[0.26251605],100,53,easy,plus,dotcolour,alfa,,,133,19,M,R,
467,89,5,11,3,27,53,1383,['c'],0,right,['1'],6,388,[0.00907039],63,53,easy,plus,dotcolour,alfa,,,133,19,M,R,
468,90,6,11,3,36,44,1950,['c'],0,right,['1'],6,615,[0.13346408],100,44,hard,plus,dotcolour,alfa,,,133,19,M,R,
469,91,7,11,3,33,47,2400,['c'],0,right,['1'],6,304,[-0.01147675],32,47,medium,plus,dotcolour,alfa,,,133,19,M,R,
470,92,8,11,3,27,53,867,['c'],0,right,['1'],6,290,[0.05823934],98,53,easy,plus,dotcolour,alfa,,,133,19,M,R,
471,93,9,11,3,27,53,1167,['c'],0,right,['3'],4,249,[0.09790305],100,53,easy,plus,dotcolour,alfa,,,133,19,M,R,
472,94,10,11,3,53,27,1183,['c'],1,left,['3'],4,577,[0.17088439],100,53,easy,plus,dotcolour,alfa,,,133,19,M,R,
473,95,11,11,3,47,33,2517,['c'],1,left,['3'],4,414,[0.20424607],100,47,medium,plus,dotcolour,alfa,,,133,19,M,R,
474,96,12,11,3,44,36,1950,['c'],1,left,['3'],4,513,[0.16061192],100,44,hard,plus,dotcolour,alfa,,,133,19,M,R,
475,97,13,11,3,33,47,1533,['c'],0,right,['3'],4,241,[0.03601545],93,47,medium,plus,dotcolour,alfa,,,133,19,M,R,
476,98,14,11,3,44,36,1550,['c'],1,left,['3'],4,602,[0.16485743],100,44,hard,plus,dotcolour,alfa,,,133,19,M,R,
477,99,15,11,3,53,27,2083,['n'],0,left,['8'],3,304,[0.09204295],0,53,easy,plus,dotcolour,alfa,,,133,19,M,R,
478,100,16,11,3,27,53,2333,['c'],0,right,['3'],4,424,[-0.05256782],5,53,easy,plus,dotcolour,alfa,,,133,19,M,R,
479,101,17,11,3,33,47,2400,['n'],1,right,['3'],4,888,[-0.1108853],99,47,medium,plus,dotcolour,alfa,,,133,19,M,R,
480,102,18,11,3,53,27,1850,['n'],0,left,['3'],4,395,[-0.04634702],93,53,easy,plus,dotcolour,alfa,,,133,19,M,R,
481,103,19,11,3,47,33,1250,['n'],0,left,['3'],4,162,[-0.10746703],100,47,medium,plus,dotcolour,alfa,,,133,19,M,R,
482,104,20,11,3,47,33,1934,['c'],1,left,['3'],4,456,[0.1898917],100,47,medium,plus,dotcolour,alfa,,,133,19,M,R,
483,105,21,11,3,36,44,1765,['c'],0,right,['3'],4,544,[0.04004963],88,44,hard,plus,dotcolour,alfa,,,133,19,M,R,
484,106,22,11,3,36,44,733,['c'],0,right,['3'],4,374,[0.07327773],99,44,hard,plus,dotcolour,alfa,,,133,19,M,R,
485,107,23,11,3,47,33,1700,['c'],1,left,['3'],4,276,[0.12698413],100,47,medium,plus,dotcolour,alfa,,,133,19,M,R,
486,108,24,11,3,47,33,1567,['c'],1,left,['3'],4,523,[0.22020311],100,47,medium,plus,dotcolour,alfa,,,133,19,M,R,
487,109,25,11,3,53,27,2417,['c'],1,left,['3'],4,543,[0.16698446],100,53,easy,plus,dotcolour,alfa,,,133,19,M,R,
488,110,26,11,3,36,44,2567,['c'],0,right,['3'],4,555,[0.29524528],100,44,hard,plus,dotcolour,alfa,,,133,19,M,R,
489,111,27,11,3,36,44,4283,['c'],0,right,['1'],6,1051,[0.03990461],80,44,hard,plus,dotcolour,alfa,,,133,19,M,R,
490,112,28,11,3,33,47,1184,['c'],0,right,['3'],4,1866,[-0.02217461],36,47,medium,plus,dotcolour,alfa,,,133,19,M,R,
491,113,29,11,3,53,27,4266,['c'],1,left,['3'],4,630,[0.05490497],92,53,easy,plus,dotcolour,alfa,,,133,19,M,R,
492,114,30,11,3,44,36,3767,['c'],1,left,['3'],4,455,[0.11771433],100,44,hard,plus,dotcolour,alfa,,,133,19,M,R,
493,115,31,11,3,27,53,2149,['c'],0,right,['3'],4,600,[-0.08886321],2,53,easy,plus,dotcolour,alfa,,,133,19,M,R,
494,116,32,11,3,33,47,2034,['c'],0,right,['3'],4,632,[0.05555497],93,47,medium,plus,dotcolour,alfa,,,133,19,M,R,
495,117,33,11,3,27,53,4950,['c'],0,right,['3'],4,514,[0.0024532],53,53,easy,plus,dotcolour,alfa,,,133,19,M,R,
496,118,34,11,3,27,53,6384,['c'],0,right,['3'],4,247,[0.00885634],66,53,easy,plus,dotcolour,alfa,,,133,19,M,R,
497,119,35,11,3,36,44,4534,['c'],0,right,['3'],4,297,[-0.05333295],3,44,hard,plus,dotcolour,alfa,,,133,19,M,R,
498,120,36,11,3,53,27,2685,['c'],1,left,['3'],4,499,[0.20831429],100,53,easy,plus,dotcolour,alfa,,,133,19,M,R,
499,121,37,11,3,33,47,3167,['c'],0,right,['3'],4,410,[0.0249565],80,47,medium,plus,dotcolour,alfa,,,133,19,M,R,
500,122,38,11,3,47,33,2450,['c'],1,left,['3'],4,625,[0.1699015],100,47,medium,plus,dotcolour,alfa,,,133,19,M,R,
501,123,39,11,3,33,47,2001,['c'],0,right,['3'],4,216,[0.0941468],100,47,medium,plus,dotcolour,alfa,,,133,19,M,R,
502,124,40,11,3,36,44,2783,['c'],0,right,['3'],4,466,[0.14043821],100,44,hard,plus,dotcolour,alfa,,,133,19,M,R,
503,125,41,11,3,44,36,1666,['c'],1,left,['3'],4,527,[0.17592157],100,44,hard,plus,dotcolour,alfa,,,133,19,M,R,
504,0,0,12,4,36,44,1967,['c'],0,right,['3'],4,297,[0.0906005],82,44,hard,minus,dotcolour,alfa,,,133,19,M,R,
505,1,1,12,4,53,27,3900,['c'],1,left,['3'],4,186,[0.16516906],97,53,easy,minus,dotcolour,alfa,,,133,19,M,R,
506,2,2,12,4,36,44,1283,['c'],0,right,['3'],4,264,[0.03120368],63,44,hard,minus,dotcolour,alfa,,,133,19,M,R,
507,3,3,12,4,36,44,2582,['c'],0,right,['3'],4,600,[-0.05980009],33,44,hard,minus,dotcolour,alfa,,,133,19,M,R,
508,4,4,12,4,44,36,917,['c'],1,left,['3'],4,196,[0.00739627],54,44,hard,minus,dotcolour,alfa,,,133,19,M,R,
509,5,5,12,4,53,27,650,['n'],0,left,['0'],1,564,[0.02210692],43,53,easy,minus,dotcolour,alfa,,,133,19,M,R,
510,6,6,12,4,44,36,384,['c'],1,left,['2'],5,591,[0.10201438],77,44,hard,minus,dotcolour,alfa,,,133,19,M,R,
511,7,7,12,4,27,53,649,['c'],0,right,['1'],6,486,[0.03733924],62,53,easy,minus,dotcolour,alfa,,,133,19,M,R,
512,8,8,12,4,33,47,433,['n'],1,right,['9'],2,468,[-0.21993054],95,47,medium,minus,dotcolour,alfa,,,133,19,M,R,
513,9,9,12,4,47,33,317,['c'],1,left,['3'],4,437,[0.1529145],89,47,medium,minus,dotcolour,alfa,,,133,19,M,R,
514,10,10,12,4,47,33,815,['n'],0,left,['0'],1,388,[-0.08483497],77,47,medium,minus,dotcolour,alfa,,,133,19,M,R,
515,11,11,12,4,44,36,467,['n'],0,left,['0'],1,307,[0.03755309],35,44,hard,minus,dotcolour,alfa,,,133,19,M,R,
516,12,12,12,4,33,47,533,['n'],1,right,['9'],2,314,[-0.10598075],85,47,medium,minus,dotcolour,alfa,,,133,19,M,R,
517,13,13,12,4,53,27,144,['n'],0,left,['8'],3,383,[0.01564501],44,53,easy,minus,dotcolour,alfa,,,133,19,M,R,
518,14,14,12,4,47,33,333,['c'],1,left,['3'],4,395,[0.07684153],75,47,medium,minus,dotcolour,alfa,,,133,19,M,R,
519,15,15,12,4,44,36,85,['c'],1,left,['3'],4,165,[0.09989243],90,44,hard,minus,dotcolour,alfa,,,133,19,M,R,
520,16,16,12,4,47,33,267,['c'],1,left,['3'],4,252,[0.15794316],94,47,medium,minus,dotcolour,alfa,,,133,19,M,R,
521,17,17,12,4,33,47,300,['c'],0,right,['3'],4,216,[0.02178719],60,47,medium,minus,dotcolour,alfa,,,133,19,M,R,
522,18,18,12,4,47,33,122,['c'],1,left,['3'],4,257,[0.1405267],92,47,medium,minus,dotcolour,alfa,,,133,19,M,R,
523,19,19,12,4,33,47,1033,['c'],0,right,['3'],4,238,[-0.04448165],31,47,medium,minus,dotcolour,alfa,,,133,19,M,R,
524,20,20,12,4,36,44,17,['c'],0,right,['3'],4,103,[0.07613564],89,44,hard,minus,dotcolour,alfa,,,133,19,M,R,
525,21,21,12,4,36,44,633,['c'],0,right,['3'],4,202,[0.09024927],86,44,hard,minus,dotcolour,alfa,,,133,19,M,R,
526,22,22,12,4,44,36,600,['c'],1,left,['3'],4,243,[0.14370186],93,44,hard,minus,dotcolour,alfa,,,133,19,M,R,
527,23,23,12,4,33,47,600,['c'],0,right,['3'],4,387,[0.03089348],61,47,medium,minus,dotcolour,alfa,,,133,19,M,R,
528,24,24,12,4,44,36,634,['c'],1,left,['3'],4,291,[0.08955123],82,44,hard,minus,dotcolour,alfa,,,133,19,M,R,
529,25,25,12,4,47,33,700,['c'],1,left,['3'],4,269,[0.06274032],75,47,medium,minus,dotcolour,alfa,,,133,19,M,R,
530,26,26,12,4,53,27,1050,['c'],1,left,['1'],6,498,[-0.06831061],30,53,easy,minus,dotcolour,alfa,,,133,19,M,R,
531,27,27,12,4,33,47,1066,['c'],0,right,['2'],5,460,[0.11735641],83,47,medium,minus,dotcolour,alfa,,,133,19,M,R,
532,28,28,12,4,27,53,1101,['n'],1,right,['2'],5,743,[-0.13317923],80,53,easy,minus,dotcolour,alfa,,,133,19,M,R,
533,29,29,12,4,47,33,1184,['n'],0,left,['2'],5,715,[0.07140816],32,47,medium,minus,dotcolour,alfa,,,133,19,M,R,
534,30,30,12,4,36,44,917,['c'],0,right,['3'],4,419,[0.16503069],91,44,hard,minus,dotcolour,alfa,,,133,19,M,R,
535,31,31,12,4,36,44,716,['n'],1,right,['3'],4,359,[-0.10216974],82,44,hard,minus,dotcolour,alfa,,,133,19,M,R,
536,32,32,12,4,27,53,684,['n'],1,right,['3'],4,310,[-0.18246989],95,53,easy,minus,dotcolour,alfa,,,133,19,M,R,
537,33,33,12,4,53,27,717,['c'],1,left,['3'],4,414,[0.25828223],97,53,easy,minus,dotcolour,alfa,,,133,19,M,R,
538,34,34,12,4,44,36,850,['n'],0,left,['3'],4,197,[-0.10046267],88,44,hard,minus,dotcolour,alfa,,,133,19,M,R,
539,35,35,12,4,27,53,718,['n'],1,right,['3'],4,282,[-0.18684886],96,53,easy,minus,dotcolour,alfa,,,133,19,M,R,
540,36,36,12,4,27,53,617,['n'],1,right,['3'],4,311,[-0.1681789],94,53,easy,minus,dotcolour,alfa,,,133,19,M,R,
541,37,37,12,4,27,53,501,['n'],1,right,['3'],4,136,[-0.1188671],95,53,easy,minus,dotcolour,alfa,,,133,19,M,R,
542,38,38,12,4,53,27,165,['n'],0,left,['9'],2,940,[0.08323712],32,53,easy,minus,dotcolour,alfa,,,133,19,M,R,
543,39,39,12,4,27,53,400,['n'],1,right,['3'],4,231,[-0.08075838],82,53,easy,minus,dotcolour,alfa,,,133,19,M,R,
544,40,40,12,4,53,27,1516,['n'],0,left,['3'],4,946,[-0.0244815],56,53,easy,minus,dotcolour,alfa,,,133,19,M,R,
545,41,41,12,4,33,47,483,['c'],0,right,['3'],4,514,[0.01747851],55,47,medium,minus,dotcolour,alfa,,,133,19,M,R,
546,42,0,13,4,47,33,684,['c'],1,left,['3'],4,170,[0.1594524],97,47,medium,minus,dotcolour,alfa,,,133,19,M,R,
547,43,1,13,4,47,33,601,['c'],1,left,['3'],4,205,[0.10279355],89,47,medium,minus,dotcolour,alfa,,,133,19,M,R,
548,44,2,13,4,33,47,600,['c'],0,right,['3'],4,430,[-0.03700028],38,47,medium,minus,dotcolour,alfa,,,133,19,M,R,
549,45,3,13,4,44,36,2300,['c'],1,left,['3'],4,322,[0.04831089],68,44,hard,minus,dotcolour,alfa,,,133,19,M,R,
550,46,4,13,4,47,33,884,['c'],1,left,['3'],4,466,[0.06489254],70,47,medium,minus,dotcolour,alfa,,,133,19,M,R,
551,47,5,13,4,44,36,1467,['c'],1,left,['3'],4,495,[0.07909048],73,44,hard,minus,dotcolour,alfa,,,133,19,M,R,
552,48,6,13,4,36,44,1467,['c'],0,right,['3'],4,313,[-0.01069173],46,44,hard,minus,dotcolour,alfa,,,133,19,M,R,
553,49,7,13,4,44,36,1667,['c'],1,left,['3'],4,1444,[0.21937656],84,44,hard,minus,dotcolour,alfa,,,133,19,M,R,
554,50,8,13,4,53,27,1017,['c'],1,left,['3'],4,306,[0.19674851],96,53,easy,minus,dotcolour,alfa,,,133,19,M,R,
555,51,9,13,4,33,47,1233,['c'],0,right,['3'],4,165,[0.08975565],88,47,medium,minus,dotcolour,alfa,,,133,19,M,R,
556,52,10,13,4,44,36,717,['c'],1,left,['3'],4,9075,[0.88129597],93,44,hard,minus,dotcolour,alfa,,,133,19,M,R,
557,53,11,13,4,53,27,899,['c'],1,left,['3'],4,171,[0.08192874],86,53,easy,minus,dotcolour,alfa,,,133,19,M,R,
558,54,12,13,4,27,53,1268,['c'],0,right,['3'],4,467,[0.07001643],72,53,easy,minus,dotcolour,alfa,,,133,19,M,R,
559,55,13,13,4,33,47,1383,['c'],0,right,['3'],4,266,[0.10401644],86,47,medium,minus,dotcolour,alfa,,,133,19,M,R,
560,56,14,13,4,36,44,850,['c'],0,right,['3'],4,191,[-0.03536317],33,44,hard,minus,dotcolour,alfa,,,133,19,M,R,
561,57,15,13,4,47,33,1134,['c'],1,left,['3'],4,195,[0.1051334],89,47,medium,minus,dotcolour,alfa,,,133,19,M,R,
562,58,16,13,4,36,44,400,['c'],0,right,['3'],4,181,[0.15703702],97,44,hard,minus,dotcolour,alfa,,,133,19,M,R,
563,59,17,13,4,33,47,1666,['c'],0,right,['3'],4,163,[0.04449907],73,47,medium,minus,dotcolour,alfa,,,133,19,M,R,
564,60,18,13,4,44,36,1550,['c'],1,left,['3'],4,168,[0.11776385],93,44,hard,minus,dotcolour,alfa,,,133,19,M,R,
565,61,19,13,4,53,27,2650,['c'],1,left,['2'],5,249,[0.1343321],92,53,easy,minus,dotcolour,alfa,,,133,19,M,R,
566,62,20,13,4,53,27,1434,['c'],1,left,['2'],5,399,[0.14985257],89,53,easy,minus,dotcolour,alfa,,,133,19,M,R,
567,63,21,13,4,36,44,934,['c'],0,right,['3'],4,291,[0.12337002],89,44,hard,minus,dotcolour,alfa,,,133,19,M,R,
568,64,22,13,4,27,53,2650,['c'],0,right,['3'],4,158,[0.03440243],69,53,easy,minus,dotcolour,alfa,,,133,19,M,R,
569,65,23,13,4,36,44,1167,['c'],0,right,['3'],4,378,[0.09800414],81,44,hard,minus,dotcolour,alfa,,,133,19,M,R,
570,66,24,13,4,53,27,2999,['n'],0,left,['3'],4,373,[-0.05012996],68,53,easy,minus,dotcolour,alfa,,,133,19,M,R,
571,67,25,13,4,27,53,2084,['n'],1,right,['3'],4,1876,[-0.16932053],75,53,easy,minus,dotcolour,alfa,,,133,19,M,R,
572,68,26,13,4,47,33,58,['n'],0,left,['9'],2,66,[-0.00905958],58,47,medium,minus,dotcolour,alfa,,,133,19,M,R,
573,69,27,13,4,53,27,1900,['n'],0,left,['3'],4,772,[-0.14829744],82,53,easy,minus,dotcolour,alfa,,,133,19,M,R,
574,70,28,13,4,36,44,467,['n'],1,right,['3'],4,579,[-0.05895972],67,44,hard,minus,dotcolour,alfa,,,133,19,M,R,
575,71,29,13,4,33,47,267,['n'],1,right,['3'],4,130,[-0.10245964],93,47,medium,minus,dotcolour,alfa,,,133,19,M,R,
576,72,30,13,4,44,36,583,['n'],0,left,['9'],2,175,[-0.0978019],89,44,hard,minus,dotcolour,alfa,,,133,19,M,R,
577,73,31,13,4,33,47,1050,['c'],0,right,['3'],4,319,[0.01252494],55,47,medium,minus,dotcolour,alfa,,,133,19,M,R,
578,74,32,13,4,27,53,933,['n'],1,right,['3'],4,215,[-0.10245805],88,53,easy,minus,dotcolour,alfa,,,133,19,M,R,
579,75,33,13,4,27,53,734,['n'],1,right,['3'],4,322,[-0.03216646],62,53,easy,minus,dotcolour,alfa,,,133,19,M,R,
580,76,34,13,4,27,53,2967,['n'],1,right,['3'],4,319,[-0.08343007],79,53,easy,minus,dotcolour,alfa,,,133,19,M,R,
581,77,35,13,4,47,33,3033,['c'],1,left,['3'],4,667,[0.13028017],81,47,medium,minus,dotcolour,alfa,,,133,19,M,R,
582,78,36,13,4,44,36,2550,['c'],1,left,['3'],4,236,[0.05822464],75,44,hard,minus,dotcolour,alfa,,,133,19,M,R,
583,79,37,13,4,53,27,750,['c'],1,left,['3'],4,437,[0.09037232],77,53,easy,minus,dotcolour,alfa,,,133,19,M,R,
584,80,38,13,4,27,53,1051,['c'],0,right,['3'],4,203,[0.06735876],79,53,easy,minus,dotcolour,alfa,,,133,19,M,R,
585,81,39,13,4,36,44,734,['c'],0,right,['8'],3,2664,[0.11330927],65,44,hard,minus,dotcolour,alfa,,,133,19,M,R,
586,82,40,13,4,47,33,667,['n'],0,left,['9'],2,2082,[-0.13984171],71,47,medium,minus,dotcolour,alfa,,,133,19,M,R,
587,83,41,13,4,33,47,1018,['c'],0,right,['1'],6,911,[-0.04028103],41,47,medium,minus,dotcolour,alfa,,,133,19,M,R,
588,84,0,14,4,44,36,1800,['n'],0,left,['3'],4,289,[-0.13109286],90,44,hard,minus,dotcolour,alfa,,,133,19,M,R,
589,85,1,14,4,27,53,699,['n'],1,right,['3'],4,242,[-0.03907498],67,53,easy,minus,dotcolour,alfa,,,133,19,M,R,
590,86,2,14,4,47,33,650,['c'],1,left,['3'],4,191,[0.07147392],81,47,medium,minus,dotcolour,alfa,,,133,19,M,R,
591,87,3,14,4,47,33,617,['n'],0,left,['3'],4,304,[0.04046372],34,47,medium,minus,dotcolour,alfa,,,133,19,M,R,
592,88,4,14,4,27,53,650,['n'],1,right,['2'],5,243,[-0.11636219],89,53,easy,minus,dotcolour,alfa,,,133,19,M,R,
593,89,5,14,4,33,47,717,['c'],0,right,['3'],4,254,[-0.00045547],50,47,medium,minus,dotcolour,alfa,,,133,19,M,R,
594,90,6,14,4,44,36,567,['c'],1,left,['3'],4,143,[0.13851845],96,44,hard,minus,dotcolour,alfa,,,133,19,M,R,
595,91,7,14,4,47,33,700,['c'],1,left,['3'],4,398,[-0.00554995],48,47,medium,minus,dotcolour,alfa,,,133,19,M,R,
596,92,8,14,4,33,47,1184,['c'],0,right,['2'],5,488,[-0.01634813],45,47,medium,minus,dotcolour,alfa,,,133,19,M,R,
597,93,9,14,4,33,47,884,['c'],0,right,['3'],4,242,[-0.01646922],43,47,medium,minus,dotcolour,alfa,,,133,19,M,R,
598,94,10,14,4,47,33,1033,['c'],1,left,['8'],3,393,[0.14724155],89,47,medium,minus,dotcolour,alfa,,,133,19,M,R,
599,95,11,14,4,47,33,717,['c'],1,left,['3'],4,1013,[0.17935615],83,47,medium,minus,dotcolour,alfa,,,133,19,M,R,
600,96,12,14,4,27,53,617,['n'],1,right,['3'],4,429,[-0.26795649],98,53,easy,minus,dotcolour,alfa,,,133,19,M,R,
601,97,13,14,4,36,44,767,['c'],0,right,['3'],4,230,[0.079923],82,44,hard,minus,dotcolour,alfa,,,133,19,M,R,
602,98,14,14,4,36,44,2583,['n'],1,right,['3'],4,391,[-0.10002487],81,44,hard,minus,dotcolour,alfa,,,133,19,M,R,
603,99,15,14,4,36,44,699,['n'],1,right,['3'],4,276,[-0.12844585],90,44,hard,minus,dotcolour,alfa,,,133,19,M,R,
604,100,16,14,4,47,33,1000,['c'],1,left,['3'],4,258,[0.1408937],92,47,medium,minus,dotcolour,alfa,,,133,19,M,R,
605,101,17,14,4,53,27,668,['n'],0,left,['9'],2,1702,[0.10772753],32,53,easy,minus,dotcolour,alfa,,,133,19,M,R,
606,102,18,14,4,44,36,800,['c'],1,left,['3'],4,259,[0.16337286],95,44,hard,minus,dotcolour,alfa,,,133,19,M,R,
607,103,19,14,4,27,53,733,['n'],1,right,['3'],4,236,[-0.14218307],93,53,easy,minus,dotcolour,alfa,,,133,19,M,R,
608,104,20,14,4,53,27,668,['c'],1,left,['3'],4,218,[0.11540029],90,53,easy,minus,dotcolour,alfa,,,133,19,M,R,
609,105,21,14,4,44,36,700,['c'],1,left,['3'],4,223,[0.09486742],86,44,hard,minus,dotcolour,alfa,,,133,19,M,R,
610,106,22,14,4,27,53,599,['n'],1,right,['3'],4,214,[-0.13388766],93,53,easy,minus,dotcolour,alfa,,,133,19,M,R,
611,107,23,14,4,36,44,850,['n'],1,right,['3'],4,157,[-0.11719093],93,44,hard,minus,dotcolour,alfa,,,133,19,M,R,
612,108,24,14,4,44,36,700,['n'],0,left,['3'],4,508,[-0.02400602],58,44,hard,minus,dotcolour,alfa,,,133,19,M,R,
613,109,25,14,4,53,27,800,['n'],0,left,['3'],4,233,[-0.09935735],86,53,easy,minus,dotcolour,alfa,,,133,19,M,R,
614,110,26,14,4,53,27,651,['c'],1,left,['3'],4,255,[0.06013618],74,53,easy,minus,dotcolour,alfa,,,133,19,M,R,
615,111,27,14,4,53,27,583,['c'],1,left,['3'],4,175,[0.04917142],74,53,easy,minus,dotcolour,alfa,,,133,19,M,R,
616,112,28,14,4,33,47,668,['n'],1,right,['3'],4,302,[-0.06360146],74,47,medium,minus,dotcolour,alfa,,,133,19,M,R,
617,113,29,14,4,44,36,900,['n'],0,left,['3'],4,199,[-0.04431386],71,44,hard,minus,dotcolour,alfa,,,133,19,M,R,
618,114,30,14,4,27,53,633,['n'],1,right,['3'],4,135,[-0.05176432],78,53,easy,minus,dotcolour,alfa,,,133,19,M,R,
619,115,31,14,4,53,27,517,['c'],1,left,['3'],4,175,[0.10226529],90,53,easy,minus,dotcolour,alfa,,,133,19,M,R,
620,116,32,14,4,33,47,633,['n'],1,right,['3'],4,199,[-0.10434405],89,47,medium,minus,dotcolour,alfa,,,133,19,M,R,
621,117,33,14,4,33,47,650,['n'],1,right,['3'],4,191,[-0.10460136],90,47,medium,minus,dotcolour,alfa,,,133,19,M,R,
622,118,34,14,4,27,53,566,['n'],1,right,['3'],4,217,[-0.10284294],88,53,easy,minus,dotcolour,alfa,,,133,19,M,R,
623,119,35,14,4,36,44,834,['n'],1,right,['3'],4,145,[-0.08118465],87,44,hard,minus,dotcolour,alfa,,,133,19,M,R,
624,120,36,14,4,36,44,817,['n'],1,right,['3'],4,219,[-0.15093264],95,44,hard,minus,dotcolour,alfa,,,133,19,M,R,
625,121,37,14,4,36,44,900,['n'],1,right,['3'],4,224,[-0.08788541],84,44,hard,minus,dotcolour,alfa,,,133,19,M,R,
626,122,38,14,4,47,33,1150,['c'],1,left,['3'],4,346,[0.15222273],91,47,medium,minus,dotcolour,alfa,,,133,19,M,R,
627,123,39,14,4,53,27,667,['c'],1,left,['2'],5,347,[0.17289509],93,53,easy,minus,dotcolour,alfa,,,133,19,M,R,
628,124,40,14,4,33,47,784,['c'],0,right,['3'],4,431,[0.07495894],74,47,medium,minus,dotcolour,alfa,,,133,19,M,R,
629,125,41,14,4,44,36,834,['c'],1,left,['2'],5,1093,[0.31596193],94,44,hard,minus,dotcolour,alfa,,,133,19,M,R,
630,0,0,15,5,33,47,751,['c'],0,right,['3'],4,153,[0.01446871],79,47,medium,plus,dotcolour,alfa,,,133,19,M,R,
631,1,1,15,5,47,33,1517,['c'],1,left,['3'],4,439,[0.08560234],99,47,medium,plus,dotcolour,alfa,,,133,19,M,R,
632,2,2,15,5,33,47,700,['c'],0,right,['3'],4,218,[0.04217072],96,47,medium,plus,dotcolour,alfa,,,133,19,M,R,
633,3,3,15,5,53,27,417,['c'],1,left,['8'],3,2803,[0.76381629],100,53,easy,plus,dotcolour,alfa,,,133,19,M,R,
634,4,4,15,5,53,27,968,['c'],1,left,['3'],4,2612,[0.58076274],100,53,easy,plus,dotcolour,alfa,,,133,19,M,R,
635,5,5,15,5,44,36,649,['c'],1,left,['3'],4,218,[0.08318153],100,44,hard,plus,dotcolour,alfa,,,133,19,M,R,
636,6,6,15,5,27,53,800,['n'],1,right,['1'],6,250,[-0.07674434],100,53,easy,plus,dotcolour,alfa,,,133,19,M,R,
637,7,7,15,5,47,33,684,['c'],1,left,['3'],4,214,[0.11431718],100,47,medium,plus,dotcolour,alfa,,,133,19,M,R,
638,8,8,15,5,36,44,567,['n'],1,right,['3'],4,185,[-0.08448338],100,44,hard,plus,dotcolour,alfa,,,133,19,M,R,
639,9,9,15,5,36,44,717,['c'],0,right,['3'],4,182,[0.03365944],94,44,hard,plus,dotcolour,alfa,,,133,19,M,R,
640,10,10,15,5,44,36,634,['c'],1,left,['3'],4,150,[0.13731975],100,44,hard,plus,dotcolour,alfa,,,133,19,M,R,
641,11,11,15,5,47,33,567,['n'],0,left,['3'],4,419,[-0.11629328],100,47,medium,plus,dotcolour,alfa,,,133,19,M,R,
642,12,12,15,5,36,44,552,['c'],0,right,['3'],4,190,[0.04351124],97,44,hard,plus,dotcolour,alfa,,,133,19,M,R,
643,13,13,15,5,27,53,1484,['n'],1,right,['3'],4,148,[-0.09080849],100,53,easy,plus,dotcolour,alfa,,,133,19,M,R,
644,14,14,15,5,33,47,716,['n'],1,right,['3'],4,250,[-0.08849278],100,47,medium,plus,dotcolour,alfa,,,133,19,M,R,
645,15,15,15,5,44,36,734,['c'],1,left,['3'],4,205,[0.07171017],100,44,hard,plus,dotcolour,alfa,,,133,19,M,R,
646,16,16,15,5,36,44,683,['c'],0,right,['3'],4,202,[0.02655445],89,44,hard,plus,dotcolour,alfa,,,133,19,M,R,
647,17,17,15,5,33,47,816,['n'],1,right,['3'],4,243,[-0.0556483],98,47,medium,plus,dotcolour,alfa,,,133,19,M,R,
648,18,18,15,5,53,27,717,['c'],1,left,['3'],4,182,[0.11880132],100,53,easy,plus,dotcolour,alfa,,,133,19,M,R,
649,19,19,15,5,47,33,750,['c'],1,left,['3'],4,194,[0.01921483],83,47,medium,plus,dotcolour,alfa,,,133,19,M,R,
650,20,20,15,5,44,36,1083,['n'],0,left,['2'],5,336,[-0.04610819],95,44,hard,plus,dotcolour,alfa,,,133,19,M,R,
651,21,21,15,5,27,53,700,['n'],1,right,['2'],5,480,[-0.14899626],100,53,easy,plus,dotcolour,alfa,,,133,19,M,R,
652,22,22,15,5,44,36,800,['c'],1,left,['1'],6,190,[0.08106312],100,44,hard,plus,dotcolour,alfa,,,133,19,M,R,
653,23,23,15,5,53,27,667,['c'],1,left,['1'],6,189,[0.17323166],100,53,easy,plus,dotcolour,alfa,,,133,19,M,R,
654,24,24,15,5,27,53,668,['n'],1,right,['1'],6,268,[-0.11223429],100,53,easy,plus,dotcolour,alfa,,,133,19,M,R,
655,25,25,15,5,33,47,617,['n'],1,right,['2'],5,481,[-0.14651257],100,47,medium,plus,dotcolour,alfa,,,133,19,M,R,
656,26,26,15,5,33,47,568,['n'],1,right,['2'],5,249,[-0.13120814],100,47,medium,plus,dotcolour,alfa,,,133,19,M,R,
657,27,27,15,5,47,33,584,['c'],1,left,['3'],4,353,[0.15877515],100,47,medium,plus,dotcolour,alfa,,,133,19,M,R,
658,28,28,15,5,36,44,533,['n'],1,right,['3'],4,335,[-0.13153891],100,44,hard,plus,dotcolour,alfa,,,133,19,M,R,
659,29,29,15,5,27,53,634,['n'],1,right,['3'],4,185,[-0.1123913],100,53,easy,plus,dotcolour,alfa,,,133,19,M,R,
660,30,30,15,5,44,36,583,['c'],1,left,['1'],6,372,[0.1035973],100,44,hard,plus,dotcolour,alfa,,,133,19,M,R,
661,31,31,15,5,44,36,616,['c'],1,left,['1'],6,182,[0.10139435],100,44,hard,plus,dotcolour,alfa,,,133,19,M,R,
662,32,32,15,5,36,44,601,['c'],0,right,['2'],5,279,[0.12189869],100,44,hard,plus,dotcolour,alfa,,,133,19,M,R,
663,33,33,15,5,36,44,518,['c'],0,right,['3'],4,97,[0.05016524],100,44,hard,plus,dotcolour,alfa,,,133,19,M,R,
664,34,34,15,5,33,47,700,['c'],0,right,['3'],4,298,[-0.01425536],28,47,medium,plus,dotcolour,alfa,,,133,19,M,R,
665,35,35,15,5,27,53,750,['n'],1,right,['3'],4,218,[-0.09416084],100,53,easy,plus,dotcolour,alfa,,,133,19,M,R,
666,36,36,15,5,27,53,583,['n'],1,right,['3'],4,251,[-0.0602796],99,53,easy,plus,dotcolour,alfa,,,133,19,M,R,
667,37,37,15,5,53,27,584,['c'],1,left,['3'],4,171,[0.11794823],100,53,easy,plus,dotcolour,alfa,,,133,19,M,R,
668,38,38,15,5,53,27,551,['c'],1,left,['3'],4,136,[0.14464922],100,53,easy,plus,dotcolour,alfa,,,133,19,M,R,
669,39,39,15,5,47,33,716,['c'],1,left,['3'],4,199,[0.01685296],80,47,medium,plus,dotcolour,alfa,,,133,19,M,R,
670,40,40,15,5,53,27,434,['c'],1,left,['3'],4,175,[0.16670011],100,53,easy,plus,dotcolour,alfa,,,133,19,M,R,
671,41,41,15,5,47,33,483,['c'],1,left,['3'],4,142,[0.14565864],100,47,medium,plus,dotcolour,alfa,,,133,19,M,R,
672,42,0,16,5,47,33,568,['c'],1,left,['1'],6,157,[0.08905116],100,47,medium,plus,dotcolour,alfa,,,133,19,M,R,
673,43,1,16,5,36,44,333,['c'],0,right,['3'],4,131,[0.10187755],100,44,hard,plus,dotcolour,alfa,,,133,19,M,R,
674,44,2,16,5,33,47,317,['c'],0,right,['3'],4,130,[0.07745232],100,47,medium,plus,dotcolour,alfa,,,133,19,M,R,
675,45,3,16,5,27,53,500,['c'],0,right,['3'],4,162,[0.04296847],98,53,easy,plus,dotcolour,alfa,,,133,19,M,R,
676,46,4,16,5,47,33,334,['n'],0,left,['0'],1,1415,[-0.11150292],97,47,medium,plus,dotcolour,alfa,,,133,19,M,R,
677,47,5,16,5,53,27,450,['n'],0,left,['2'],5,413,[0.04058621],9,53,easy,plus,dotcolour,alfa,,,133,19,M,R,
678,48,6,16,5,36,44,1133,['n'],1,right,['0'],1,665,[0.01421339],35,44,hard,plus,dotcolour,alfa,,,133,19,M,R,
679,49,7,16,5,53,27,616,['n'],0,left,['1'],6,158,[-0.00852654],68,53,easy,plus,dotcolour,alfa,,,133,19,M,R,
680,50,8,16,5,36,44,650,['n'],1,right,['1'],6,704,[-0.1470074],100,44,hard,plus,dotcolour,alfa,,,133,19,M,R,
681,51,9,16,5,47,33,1151,['n'],0,left,['2'],5,814,[0.01576712],35,47,medium,plus,dotcolour,alfa,,,133,19,M,R,
682,52,10,16,5,53,27,600,['c'],1,left,['1'],6,150,[0.10317567],100,53,easy,plus,dotcolour,alfa,,,133,19,M,R,
683,53,11,16,5,44,36,766,['c'],1,left,['3'],4,283,[0.15318911],100,44,hard,plus,dotcolour,alfa,,,133,19,M,R,
684,54,12,16,5,33,47,634,['c'],0,right,['0'],1,1248,[0.18667566],100,47,medium,plus,dotcolour,alfa,,,133,19,M,R,
685,55,13,16,5,53,27,617,['c'],1,left,['2'],5,566,[0.20190049],100,53,easy,plus,dotcolour,alfa,,,133,19,M,R,
686,56,14,16,5,47,33,733,['c'],1,left,['2'],5,332,[0.21114694],100,47,medium,plus,dotcolour,alfa,,,133,19,M,R,
687,57,15,16,5,33,47,817,['n'],1,right,['2'],5,351,[-0.1131604],100,47,medium,plus,dotcolour,alfa,,,133,19,M,R,
688,58,16,16,5,27,53,700,['n'],1,right,['3'],4,326,[-0.23993324],100,53,easy,plus,dotcolour,alfa,,,133,19,M,R,
689,59,17,16,5,53,27,683,['c'],1,left,['3'],4,255,[0.21841704],100,53,easy,plus,dotcolour,alfa,,,133,19,M,R,
690,60,18,16,5,27,53,766,['n'],1,right,['3'],4,327,[-0.10056688],100,53,easy,plus,dotcolour,alfa,,,133,19,M,R,
691,61,19,16,5,44,36,1017,['n'],0,left,['3'],4,819,[-0.01595359],65,44,hard,plus,dotcolour,alfa,,,133,19,M,R,
692,62,20,16,5,47,33,684,['c'],1,left,['2'],5,256,[0.06070235],99,47,medium,plus,dotcolour,alfa,,,133,19,M,R,
693,63,21,16,5,44,36,1117,['n'],0,left,['1'],6,450,[-0.06496152],97,44,hard,plus,dotcolour,alfa,,,133,19,M,R,
694,64,22,16,5,27,53,633,['c'],0,right,['1'],6,176,[0.07901818],100,53,easy,plus,dotcolour,alfa,,,133,19,M,R,
695,65,23,16,5,53,27,650,['c'],1,left,['1'],6,184,[0.09797438],100,53,easy,plus,dotcolour,alfa,,,133,19,M,R,
696,66,24,16,5,33,47,850,['n'],1,right,['1'],6,176,[-0.1437776],100,47,medium,plus,dotcolour,alfa,,,133,19,M,R,
697,67,25,16,5,36,44,983,['c'],0,right,['3'],4,179,[0.15173127],100,44,hard,plus,dotcolour,alfa,,,133,19,M,R,
698,68,26,16,5,33,47,717,['n'],1,right,['3'],4,280,[-0.0919102],100,47,medium,plus,dotcolour,alfa,,,133,19,M,R,
699,69,27,16,5,27,53,634,['n'],1,right,['3'],4,124,[-0.0766053],100,53,easy,plus,dotcolour,alfa,,,133,19,M,R,
700,70,28,16,5,44,36,550,['c'],1,left,['3'],4,123,[0.09772885],100,44,hard,plus,dotcolour,alfa,,,133,19,M,R,
701,71,29,16,5,44,36,267,['c'],1,left,['3'],4,276,[0.12747589],100,44,hard,plus,dotcolour,alfa,,,133,19,M,R,
702,72,30,16,5,33,47,1183,['c'],0,right,['3'],4,155,[0.13137054],100,47,medium,plus,dotcolour,alfa,,,133,19,M,R,
703,73,31,16,5,44,36,56,['c'],1,left,['3'],4,95,[0.06812472],100,44,hard,plus,dotcolour,alfa,,,133,19,M,R,
704,74,32,16,5,47,33,2182,['c'],1,left,['3'],4,164,[0.10110289],100,47,medium,plus,dotcolour,alfa,,,133,19,M,R,
705,75,33,16,5,36,44,783,['n'],1,right,['3'],4,144,[-0.08420346],100,44,hard,plus,dotcolour,alfa,,,133,19,M,R,
706,76,34,16,5,27,53,684,['n'],1,right,['3'],4,152,[-0.0439056],98,53,easy,plus,dotcolour,alfa,,,133,19,M,R,
707,77,35,16,5,33,47,850,['n'],1,right,['3'],4,281,[-0.0565922],98,47,medium,plus,dotcolour,alfa,,,133,19,M,R,
708,78,36,16,5,36,44,717,['c'],0,right,['3'],4,147,[0.11634393],100,44,hard,plus,dotcolour,alfa,,,133,19,M,R,
709,79,37,16,5,53,27,750,['c'],1,left,['3'],4,128,[0.09570108],100,53,easy,plus,dotcolour,alfa,,,133,19,M,R,
710,80,38,16,5,44,36,533,['c'],1,left,['3'],4,95,[0.03438154],98,44,hard,plus,dotcolour,alfa,,,133,19,M,R,
711,81,39,16,5,27,53,466,['c'],0,right,['9'],2,1114,[-0.04725783],17,53,easy,plus,dotcolour,alfa,,,133,19,M,R,
712,82,40,16,5,36,44,734,['n'],1,right,['3'],4,193,[-0.07044179],100,44,hard,plus,dotcolour,alfa,,,133,19,M,R,
713,83,41,16,5,47,33,600,['c'],1,left,['3'],4,138,[0.14022408],100,47,medium,plus,dotcolour,alfa,,,133,19,M,R,
714,84,0,17,5,36,44,401,['c'],0,right,['3'],4,174,[0.07249262],100,44,hard,plus,dotcolour,alfa,,,133,19,M,R,
715,85,1,17,5,44,36,283,['c'],1,left,['2'],5,189,[0.10873241],100,44,hard,plus,dotcolour,alfa,,,133,19,M,R,
716,86,2,17,5,53,27,734,['c'],1,left,['1'],6,265,[0.06318302],99,53,easy,plus,dotcolour,alfa,,,133,19,M,R,
717,87,3,17,5,44,36,633,['c'],1,left,['3'],4,215,[0.08088287],100,44,hard,plus,dotcolour,alfa,,,133,19,M,R,
718,88,4,17,5,33,47,417,['c'],0,right,['2'],5,159,[0.06009724],100,47,medium,plus,dotcolour,alfa,,,133,19,M,R,
719,89,5,17,5,33,47,284,['c'],0,right,['9'],2,1566,[-0.3539985],0,47,medium,plus,dotcolour,alfa,,,133,19,M,R,
720,90,6,17,5,36,44,351,['c'],0,right,['8'],3,122,[0.12439822],100,44,hard,plus,dotcolour,alfa,,,133,19,M,R,
721,91,7,17,5,47,33,333,['c'],1,left,['0'],1,145,[0.0737964],100,47,medium,plus,dotcolour,alfa,,,133,19,M,R,
722,92,8,17,5,27,53,883,['c'],0,right,['9'],2,89,[0.03339098],98,53,easy,plus,dotcolour,alfa,,,133,19,M,R,
723,93,9,17,5,27,53,317,['c'],0,right,['8'],3,130,[0.08292083],100,53,easy,plus,dotcolour,alfa,,,133,19,M,R,
724,94,10,17,5,53,27,417,['c'],1,left,['3'],4,1134,[0.3561719],100,53,easy,plus,dotcolour,alfa,,,133,19,M,R,
725,95,11,17,5,47,33,283,['c'],1,left,['2'],5,158,[0.01166805],74,47,medium,plus,dotcolour,alfa,,,133,19,M,R,
726,96,12,17,5,33,47,466,['c'],0,right,['1'],6,157,[0.05399928],99,47,medium,plus,dotcolour,alfa,,,133,19,M,R,
727,97,13,17,5,53,27,284,['c'],1,left,['1'],6,685,[-0.0373028],16,53,easy,plus,dotcolour,alfa,,,133,19,M,R,
728,98,14,17,5,44,36,784,['c'],1,left,['3'],4,364,[0.10740221],100,44,hard,plus,dotcolour,alfa,,,133,19,M,R,
729,99,15,17,5,33,47,784,['c'],0,right,['0'],1,751,[-0.18629326],0,47,medium,plus,dotcolour,alfa,,,133,19,M,R,
730,100,16,17,5,33,47,835,['c'],0,right,['3'],4,433,[-0.00630876],41,47,medium,plus,dotcolour,alfa,,,133,19,M,R,
731,101,17,17,5,47,33,667,['c'],1,left,['3'],4,246,[0.11916042],100,47,medium,plus,dotcolour,alfa,,,133,19,M,R,
732,102,18,17,5,47,33,666,['c'],1,left,['3'],4,123,[0.13519954],100,47,medium,plus,dotcolour,alfa,,,133,19,M,R,
733,103,19,17,5,53,27,1217,['c'],1,left,['3'],4,230,[0.12199016],100,53,easy,plus,dotcolour,alfa,,,133,19,M,R,
734,104,20,17,5,47,33,633,['c'],1,left,['3'],4,237,[0.0572098],99,47,medium,plus,dotcolour,alfa,,,133,19,M,R,
735,105,21,17,5,53,27,733,['c'],1,left,['2'],5,472,[0.20533716],100,53,easy,plus,dotcolour,alfa,,,133,19,M,R,
736,106,22,17,5,36,44,666,['c'],0,right,['2'],5,163,[0.07558512],100,44,hard,plus,dotcolour,alfa,,,133,19,M,R,
737,107,23,17,5,27,53,801,['c'],0,right,['8'],3,542,[0.03428755],84,53,easy,plus,dotcolour,alfa,,,133,19,M,R,
738,108,24,17,5,53,27,617,['c'],1,left,['3'],4,225,[0.06471956],99,53,easy,plus,dotcolour,alfa,,,133,19,M,R,
739,109,25,17,5,27,53,751,['n'],1,right,['1'],6,274,[-0.16366774],100,53,easy,plus,dotcolour,alfa,,,133,19,M,R,
740,110,26,17,5,27,53,766,['n'],1,right,['1'],6,218,[-0.14731627],100,53,easy,plus,dotcolour,alfa,,,133,19,M,R,
741,111,27,17,5,27,53,583,['n'],1,right,['1'],6,99,[-0.09149983],100,53,easy,plus,dotcolour,alfa,,,133,19,M,R,
742,112,28,17,5,36,44,584,['n'],1,right,['1'],6,89,[-0.09925921],100,44,hard,plus,dotcolour,alfa,,,133,19,M,R,
743,113,29,17,5,33,47,634,['n'],1,right,['1'],6,174,[-0.10634421],100,47,medium,plus,dotcolour,alfa,,,133,19,M,R,
744,114,30,17,5,27,53,400,['n'],1,right,['1'],6,152,[-0.11493511],100,53,easy,plus,dotcolour,alfa,,,133,19,M,R,
745,115,31,17,5,47,33,350,['n'],0,left,['1'],6,157,[-0.06940414],100,47,medium,plus,dotcolour,alfa,,,133,19,M,R,
746,116,32,17,5,33,47,284,['n'],1,right,['1'],6,157,[-0.08979697],100,47,medium,plus,dotcolour,alfa,,,133,19,M,R,
747,117,33,17,5,44,36,300,['n'],0,left,['1'],6,155,[-0.06289293],100,44,hard,plus,dotcolour,alfa,,,133,19,M,R,
748,118,34,17,5,44,36,284,['n'],0,left,['1'],6,115,[-0.06698835],100,44,hard,plus,dotcolour,alfa,,,133,19,M,R,
749,119,35,17,5,36,44,233,['n'],1,right,['1'],6,95,[-0.10572366],100,44,hard,plus,dotcolour,alfa,,,133,19,M,R,
750,120,36,17,5,47,33,267,['n'],0,left,['1'],6,121,[-0.09770543],100,47,medium,plus,dotcolour,alfa,,,133,19,M,R,
751,121,37,17,5,36,44,284,['n'],1,right,['1'],6,195,[-0.11293578],100,44,hard,plus,dotcolour,alfa,,,133,19,M,R,
752,122,38,17,5,36,44,500,['n'],1,right,['1'],6,136,[-0.02415982],91,44,hard,plus,dotcolour,alfa,,,133,19,M,R,
753,123,39,17,5,53,27,1234,['c'],1,left,['2'],5,315,[0.17403777],100,53,easy,plus,dotcolour,alfa,,,133,19,M,R,
754,124,40,17,5,44,36,333,['c'],1,left,['2'],5,90,[0.07130972],100,44,hard,plus,dotcolour,alfa,,,133,19,M,R,
755,125,41,17,5,44,36,192,['c'],1,left,['2'],5,136,[0.09253785],100,44,hard,plus,dotcolour,alfa,,,133,19,M,R,
,,,,,,,,,,,,,,,,,,,,,1,"bij sommige cijfers 123 890 kreeg ik 100 als ik vaak dezelfde achterelkaar druk
",133,19,M,R,
,,,,,,,,,,,,,,,,,,,,,2,['j'],133,19,M,R,
,,,,,,,,,,,,,,,,,,,,,3,['h'],133,19,M,R,
,,,,,,,,,,,,,,,,,,,,,5,[],133,19,M,R,
