trial,withinphasetrial,withinblocktrial,block,phase,dotsLeft,dotsRight,rt,resp,cor,cresp,conf_press,cj,RTconf,ev,fb,diff,difflevel,condition,task,manip,questionID,questionResp,sub,age,gender,handedness,
0,0,0,0,0,47,33,1000,['c'],1,left,['0'],1,1711,[0.03666289],56,47,medium,minus,dotcolour,alfa,,,93,19,V,R,
1,1,1,0,0,47,33,1850,['c'],1,left,['9'],2,1849,[0.39585272],93,47,medium,minus,dotcolour,alfa,,,93,19,V,R,
2,2,2,0,0,33,47,3750,['n'],1,right,['2'],5,2882,[-0.51579112],94,47,medium,minus,dotcolour,alfa,,,93,19,V,R,
3,3,3,0,0,36,44,1284,['n'],1,right,['2'],5,1020,[0.02835313],44,44,hard,minus,dotcolour,alfa,,,93,19,V,R,
4,4,4,0,0,36,44,1116,['n'],1,right,['2'],5,1656,[-0.31765316],90,44,hard,minus,dotcolour,alfa,,,93,19,V,R,
5,5,5,0,0,33,47,1267,['c'],0,right,['2'],5,772,[-0.04332467],39,47,medium,minus,dotcolour,alfa,,,93,19,V,R,
6,6,6,0,0,33,47,1700,['n'],1,right,['2'],5,1169,[-0.05063729],60,47,medium,minus,dotcolour,alfa,,,93,19,V,R,
7,7,7,0,0,27,53,734,['n'],1,right,['2'],5,822,[-0.08094977],69,53,easy,minus,dotcolour,alfa,,,93,19,V,R,
8,8,8,0,0,33,47,1083,['c'],0,right,['2'],5,307,[-0.05427957],29,47,medium,minus,dotcolour,alfa,,,93,19,V,R,
9,9,9,0,0,53,27,917,['c'],1,left,['2'],5,755,[0.06862243],67,53,easy,minus,dotcolour,alfa,,,93,19,V,R,
10,10,10,0,0,36,44,766,['c'],0,right,['2'],5,287,[0.00952062],54,44,hard,minus,dotcolour,alfa,,,93,19,V,R,
11,11,11,0,0,53,27,616,['c'],1,left,['2'],5,421,[0.23219539],96,53,easy,minus,dotcolour,alfa,,,93,19,V,R,
12,12,12,0,0,36,44,1200,['c'],0,right,['2'],5,1652,[-0.34744117],8,44,hard,minus,dotcolour,alfa,,,93,19,V,R,
13,13,13,0,0,53,27,701,['c'],1,left,['2'],5,215,[0.16483137],96,53,easy,minus,dotcolour,alfa,,,93,19,V,R,
14,14,14,0,0,53,27,750,['c'],1,left,['2'],5,209,[0.11490764],91,53,easy,minus,dotcolour,alfa,,,93,19,V,R,
15,15,15,0,0,36,44,1033,['n'],1,right,['8'],3,617,[-0.07727446],71,44,hard,minus,dotcolour,alfa,,,93,19,V,R,
16,16,16,0,0,44,36,717,['c'],1,left,['2'],5,381,[0.07718383],75,44,hard,minus,dotcolour,alfa,,,93,19,V,R,
17,17,17,0,0,53,27,984,['c'],1,left,['2'],5,192,[0.06259428],78,53,easy,minus,dotcolour,alfa,,,93,19,V,R,
18,18,18,0,0,27,53,833,['n'],1,right,['2'],5,255,[-0.09774284],85,53,easy,minus,dotcolour,alfa,,,93,19,V,R,
19,19,19,0,0,33,47,1199,['n'],1,right,['2'],5,231,[-0.12000283],90,47,medium,minus,dotcolour,alfa,,,93,19,V,R,
20,20,20,0,0,44,36,701,['c'],1,left,['2'],5,234,[0.11769183],90,44,hard,minus,dotcolour,alfa,,,93,19,V,R,
21,21,21,0,0,47,33,566,['c'],1,left,['2'],5,211,[0.1009524],88,47,medium,minus,dotcolour,alfa,,,93,19,V,R,
22,22,22,0,0,44,36,583,['c'],1,left,['2'],5,149,[0.15314908],97,44,hard,minus,dotcolour,alfa,,,93,19,V,R,
23,23,23,0,0,27,53,567,['n'],1,right,['2'],5,186,[-0.13297793],94,53,easy,minus,dotcolour,alfa,,,93,19,V,R,
24,24,24,0,0,33,47,617,['c'],0,right,['2'],5,147,[-0.01127634],43,47,medium,minus,dotcolour,alfa,,,93,19,V,R,
25,25,25,0,0,36,44,1183,['c'],0,right,['2'],5,159,[0.11448581],93,44,hard,minus,dotcolour,alfa,,,93,19,V,R,
26,26,26,0,0,27,53,533,['n'],1,right,['2'],5,173,[-0.10857907],91,53,easy,minus,dotcolour,alfa,,,93,19,V,R,
27,27,27,0,0,44,36,1817,['c'],1,left,['3'],4,350,[0.0983696],82,44,hard,minus,dotcolour,alfa,,,93,19,V,R,
28,28,28,0,0,44,36,717,['c'],1,left,['2'],5,109,[0.0467269],78,44,hard,minus,dotcolour,alfa,,,93,19,V,R,
29,29,29,0,0,27,53,700,['n'],1,right,['2'],5,134,[-0.02468516],65,53,easy,minus,dotcolour,alfa,,,93,19,V,R,
30,30,30,0,0,53,27,550,['c'],1,left,['2'],5,188,[0.05919548],77,53,easy,minus,dotcolour,alfa,,,93,19,V,R,
31,31,31,0,0,47,33,683,['c'],1,left,['2'],5,138,[0.06255864],82,47,medium,minus,dotcolour,alfa,,,93,19,V,R,
32,32,32,0,0,44,36,866,['c'],1,left,['2'],5,148,[0.04016042],72,44,hard,minus,dotcolour,alfa,,,93,19,V,R,
33,33,33,0,0,47,33,1000,['c'],1,left,['2'],5,135,[0.07183463],85,47,medium,minus,dotcolour,alfa,,,93,19,V,R,
34,34,34,0,0,47,33,634,['c'],1,left,['2'],5,130,[0.10705168],94,47,medium,minus,dotcolour,alfa,,,93,19,V,R,
35,35,35,0,0,27,53,416,['n'],1,right,['2'],5,149,[-0.15945802],98,53,easy,minus,dotcolour,alfa,,,93,19,V,R,
36,36,36,0,0,27,53,434,['n'],1,right,['2'],5,167,[-0.07653212],84,53,easy,minus,dotcolour,alfa,,,93,19,V,R,
37,37,37,0,0,53,27,484,['c'],1,left,['2'],5,159,[0.09662005],90,53,easy,minus,dotcolour,alfa,,,93,19,V,R,
38,38,38,0,0,33,47,600,['c'],0,right,['2'],5,145,[-0.00201367],49,47,medium,minus,dotcolour,alfa,,,93,19,V,R,
39,39,39,0,0,47,33,934,['c'],1,left,['2'],5,111,[0.04244009],76,47,medium,minus,dotcolour,alfa,,,93,19,V,R,
40,40,40,0,0,44,36,782,['c'],1,left,['2'],5,148,[0.09049582],89,44,hard,minus,dotcolour,alfa,,,93,19,V,R,
41,41,41,0,0,36,44,833,['c'],0,right,['8'],3,839,[0.07246531],67,44,hard,minus,dotcolour,alfa,,,93,19,V,R,
42,42,0,1,0,33,47,2951,['n'],1,right,['2'],5,209,[-0.09753984],87,47,medium,minus,dotcolour,alfa,,,93,19,V,R,
43,43,1,1,0,44,36,584,['c'],1,left,['2'],5,106,[0.11038328],95,44,hard,minus,dotcolour,alfa,,,93,19,V,R,
44,44,2,1,0,33,47,583,['c'],0,right,['2'],5,160,[0.08594899],87,47,medium,minus,dotcolour,alfa,,,93,19,V,R,
45,45,3,1,0,27,53,549,['c'],0,right,['2'],5,172,[0.06434361],80,53,easy,minus,dotcolour,alfa,,,93,19,V,R,
46,46,4,1,0,47,33,783,['c'],1,left,['2'],5,104,[0.10932082],95,47,medium,minus,dotcolour,alfa,,,93,19,V,R,
47,47,5,1,0,27,53,950,['n'],1,right,['2'],5,239,[-0.06912441],78,53,easy,minus,dotcolour,alfa,,,93,19,V,R,
48,48,6,1,0,36,44,1399,['c'],0,right,['2'],5,182,[0.0661694],80,44,hard,minus,dotcolour,alfa,,,93,19,V,R,
49,49,7,1,0,53,27,633,['c'],1,left,['2'],5,231,[0.12176808],91,53,easy,minus,dotcolour,alfa,,,93,19,V,R,
50,50,8,1,0,44,36,866,['c'],1,left,['2'],5,244,[0.09811372],86,44,hard,minus,dotcolour,alfa,,,93,19,V,R,
51,51,9,1,0,27,53,633,['n'],1,right,['2'],5,186,[-0.11333545],91,53,easy,minus,dotcolour,alfa,,,93,19,V,R,
52,52,10,1,0,36,44,1317,['n'],1,right,['2'],5,120,[-0.05720622],82,44,hard,minus,dotcolour,alfa,,,93,19,V,R,
53,53,11,1,0,33,47,651,['n'],1,right,['2'],5,139,[-0.09553277],91,47,medium,minus,dotcolour,alfa,,,93,19,V,R,
54,54,12,1,0,36,44,650,['c'],0,right,['2'],5,172,[0.02410025],63,44,hard,minus,dotcolour,alfa,,,93,19,V,R,
55,55,13,1,0,27,53,700,['n'],1,right,['2'],5,203,[-0.14256339],95,53,easy,minus,dotcolour,alfa,,,93,19,V,R,
56,56,14,1,0,36,44,683,['c'],0,right,['2'],5,225,[0.10905791],89,44,hard,minus,dotcolour,alfa,,,93,19,V,R,
57,57,15,1,0,44,36,667,['c'],1,left,['2'],5,335,[0.07598073],77,44,hard,minus,dotcolour,alfa,,,93,19,V,R,
58,58,16,1,0,53,27,617,['c'],1,left,['2'],5,226,[0.12048526],91,53,easy,minus,dotcolour,alfa,,,93,19,V,R,
59,59,17,1,0,47,33,683,['c'],1,left,['2'],5,583,[0.06170936],67,47,medium,minus,dotcolour,alfa,,,93,19,V,R,
60,60,18,1,0,33,47,1050,['c'],0,right,['2'],5,287,[-0.00672068],47,47,medium,minus,dotcolour,alfa,,,93,19,V,R,
61,61,19,1,0,27,53,484,['n'],1,right,['2'],5,177,[-0.02900926],65,53,easy,minus,dotcolour,alfa,,,93,19,V,R,
62,62,20,1,0,36,44,1133,['n'],1,right,['2'],5,150,[-0.05005865],76,44,hard,minus,dotcolour,alfa,,,93,19,V,R,
63,63,21,1,0,44,36,667,['c'],1,left,['2'],5,167,[0.09760042],90,44,hard,minus,dotcolour,alfa,,,93,19,V,R,
64,64,22,1,0,33,47,867,['c'],0,right,['2'],5,111,[0.02016533],63,47,medium,minus,dotcolour,alfa,,,93,19,V,R,
65,65,23,1,0,44,36,933,['c'],1,left,['2'],5,110,[0.09025447],92,44,hard,minus,dotcolour,alfa,,,93,19,V,R,
66,66,24,1,0,44,36,916,['c'],1,left,['2'],5,126,[0.07188713],86,44,hard,minus,dotcolour,alfa,,,93,19,V,R,
67,67,25,1,0,53,27,800,['c'],1,left,['2'],5,234,[0.19959505],98,53,easy,minus,dotcolour,alfa,,,93,19,V,R,
68,68,26,1,0,33,47,851,['n'],1,right,['2'],5,176,[-0.10955035],91,47,medium,minus,dotcolour,alfa,,,93,19,V,R,
69,69,27,1,0,47,33,1450,['c'],1,left,['2'],5,128,[0.05662001],81,47,medium,minus,dotcolour,alfa,,,93,19,V,R,
70,70,28,1,0,47,33,734,['c'],1,left,['2'],5,199,[0.04656996],72,47,medium,minus,dotcolour,alfa,,,93,19,V,R,
71,71,29,1,0,33,47,1117,['c'],0,right,['2'],5,171,[0.043892],72,47,medium,minus,dotcolour,alfa,,,93,19,V,R,
72,72,30,1,0,47,33,665,['c'],1,left,['2'],5,235,[0.14848214],94,47,medium,minus,dotcolour,alfa,,,93,19,V,R,
73,73,31,1,0,44,36,750,['c'],1,left,['2'],5,213,[0.00186588],51,44,hard,minus,dotcolour,alfa,,,93,19,V,R,
74,74,32,1,0,27,53,667,['n'],1,right,['2'],5,163,[-0.11225034],92,53,easy,minus,dotcolour,alfa,,,93,19,V,R,
75,75,33,1,0,27,53,533,['n'],1,right,['2'],5,129,[-0.10027238],93,53,easy,minus,dotcolour,alfa,,,93,19,V,R,
76,76,34,1,0,36,44,500,['n'],1,right,['2'],5,137,[-0.0862702],89,44,hard,minus,dotcolour,alfa,,,93,19,V,R,
77,77,35,1,0,47,33,867,['c'],1,left,['2'],5,90,[0.08183251],92,47,medium,minus,dotcolour,alfa,,,93,19,V,R,
78,78,36,1,0,36,44,784,['c'],0,right,['2'],5,120,[0.08461327],90,44,hard,minus,dotcolour,alfa,,,93,19,V,R,
79,79,37,1,0,53,27,684,['c'],1,left,['2'],5,129,[0.11635394],95,53,easy,minus,dotcolour,alfa,,,93,19,V,R,
80,80,38,1,0,53,27,533,['c'],1,left,['2'],5,160,[0.09438614],89,53,easy,minus,dotcolour,alfa,,,93,19,V,R,
81,81,39,1,0,47,33,700,['c'],1,left,['2'],5,255,[0.13229985],91,47,medium,minus,dotcolour,alfa,,,93,19,V,R,
82,82,40,1,0,53,27,700,['c'],1,left,['2'],5,210,[0.05398093],74,53,easy,minus,dotcolour,alfa,,,93,19,V,R,
83,83,41,1,0,53,27,567,['c'],1,left,['2'],5,147,[0.12416376],95,53,easy,minus,dotcolour,alfa,,,93,19,V,R,
84,84,0,2,0,47,33,684,['c'],1,left,['2'],5,124,[0.07559214],87,47,medium,minus,dotcolour,alfa,,,93,19,V,R,
85,85,1,2,0,44,36,633,['c'],1,left,['2'],5,134,[0.08422344],89,44,hard,minus,dotcolour,alfa,,,93,19,V,R,
86,86,2,2,0,33,47,467,['c'],0,right,['2'],5,304,[-0.02618121],39,47,medium,minus,dotcolour,alfa,,,93,19,V,R,
87,87,3,2,0,44,36,367,['n'],0,left,['2'],5,182,[-0.03747529],69,44,hard,minus,dotcolour,alfa,,,93,19,V,R,
88,88,4,2,0,53,27,450,['c'],1,left,['2'],5,182,[0.10188543],90,53,easy,minus,dotcolour,alfa,,,93,19,V,R,
89,89,5,2,0,36,44,683,['n'],1,right,['2'],5,149,[-0.06638148],82,44,hard,minus,dotcolour,alfa,,,93,19,V,R,
90,90,6,2,0,44,36,750,['c'],1,left,['2'],5,138,[0.11098326],94,44,hard,minus,dotcolour,alfa,,,93,19,V,R,
91,91,7,2,0,33,47,484,['n'],1,right,['2'],5,139,[-0.1169979],94,47,medium,minus,dotcolour,alfa,,,93,19,V,R,
92,92,8,2,0,53,27,567,['c'],1,left,['2'],5,112,[0.06420149],85,53,easy,minus,dotcolour,alfa,,,93,19,V,R,
93,93,9,2,0,53,27,583,['c'],1,left,['2'],5,118,[0.12161472],96,53,easy,minus,dotcolour,alfa,,,93,19,V,R,
94,94,10,2,0,27,53,567,['n'],1,right,['2'],5,116,[-0.06210579],84,53,easy,minus,dotcolour,alfa,,,93,19,V,R,
95,95,11,2,0,33,47,466,['n'],1,right,['2'],5,150,[-0.10272266],92,47,medium,minus,dotcolour,alfa,,,93,19,V,R,
96,96,12,2,0,47,33,600,['c'],1,left,['2'],5,177,[0.05191215],75,47,medium,minus,dotcolour,alfa,,,93,19,V,R,
97,97,13,2,0,47,33,700,['c'],1,left,['2'],5,119,[0.04699621],77,47,medium,minus,dotcolour,alfa,,,93,19,V,R,
98,98,14,2,0,44,36,1484,['n'],0,left,['2'],5,105,[-0.0787446],90,44,hard,minus,dotcolour,alfa,,,93,19,V,R,
99,99,15,2,0,47,33,434,['c'],1,left,['2'],5,132,[0.0719515],86,47,medium,minus,dotcolour,alfa,,,93,19,V,R,
100,100,16,2,0,44,36,584,['c'],1,left,['2'],5,129,[0.0335388],70,44,hard,minus,dotcolour,alfa,,,93,19,V,R,
101,101,17,2,0,27,53,367,['n'],1,right,['2'],5,142,[-0.15130861],97,53,easy,minus,dotcolour,alfa,,,93,19,V,R,
102,102,18,2,0,36,44,483,['n'],1,right,['2'],5,126,[-0.03313584],70,44,hard,minus,dotcolour,alfa,,,93,19,V,R,
103,103,19,2,0,47,33,484,['c'],1,left,['2'],5,199,[0.14306164],95,47,medium,minus,dotcolour,alfa,,,93,19,V,R,
104,104,20,2,0,36,44,834,['n'],1,right,['2'],5,143,[-0.04514469],75,44,hard,minus,dotcolour,alfa,,,93,19,V,R,
105,105,21,2,0,27,53,617,['n'],1,right,['2'],5,145,[-0.11782456],94,53,easy,minus,dotcolour,alfa,,,93,19,V,R,
106,106,22,2,0,27,53,500,['n'],1,right,['2'],5,169,[-0.11306461],92,53,easy,minus,dotcolour,alfa,,,93,19,V,R,
107,107,23,2,0,27,53,533,['n'],1,right,['2'],5,134,[-0.11928092],95,53,easy,minus,dotcolour,alfa,,,93,19,V,R,
108,108,24,2,0,47,33,516,['c'],1,left,['2'],5,158,[0.1285022],95,47,medium,minus,dotcolour,alfa,,,93,19,V,R,
109,109,25,2,0,53,27,600,['c'],1,left,['2'],5,152,[0.09895445],91,53,easy,minus,dotcolour,alfa,,,93,19,V,R,
110,110,26,2,0,53,27,666,['c'],1,left,['1'],6,169,[0.07061003],82,53,easy,minus,dotcolour,alfa,,,93,19,V,R,
111,111,27,2,0,36,44,1584,['c'],0,right,['2'],5,108,[0.09800805],94,44,hard,minus,dotcolour,alfa,,,93,19,V,R,
112,112,28,2,0,36,44,650,['n'],1,right,['2'],5,135,[-0.03549334],70,44,hard,minus,dotcolour,alfa,,,93,19,V,R,
113,113,29,2,0,33,47,600,['n'],1,right,['2'],5,179,[-0.16533539],97,47,medium,minus,dotcolour,alfa,,,93,19,V,R,
114,114,30,2,0,44,36,683,['c'],1,left,['2'],5,114,[0.06610831],85,44,hard,minus,dotcolour,alfa,,,93,19,V,R,
115,115,31,2,0,53,27,583,['c'],1,left,['2'],5,111,[0.07742024],89,53,easy,minus,dotcolour,alfa,,,93,19,V,R,
116,116,32,2,0,33,47,433,['n'],1,right,['2'],5,154,[-0.07478086],85,47,medium,minus,dotcolour,alfa,,,93,19,V,R,
117,117,33,2,0,36,44,634,['c'],0,right,['2'],5,180,[0.00959099],55,44,hard,minus,dotcolour,alfa,,,93,19,V,R,
118,118,34,2,0,36,44,717,['n'],1,right,['2'],5,121,[-0.09126678],91,44,hard,minus,dotcolour,alfa,,,93,19,V,R,
119,119,35,2,0,33,47,501,['n'],1,right,['2'],5,146,[-0.05596362],79,47,medium,minus,dotcolour,alfa,,,93,19,V,R,
120,120,36,2,0,53,27,451,['c'],1,left,['2'],5,164,[0.14903941],96,53,easy,minus,dotcolour,alfa,,,93,19,V,R,
121,121,37,2,0,27,53,449,['n'],1,right,['2'],5,124,[-0.08781066],90,53,easy,minus,dotcolour,alfa,,,93,19,V,R,
122,122,38,2,0,33,47,633,['n'],1,right,['2'],5,119,[-0.04566583],77,47,medium,minus,dotcolour,alfa,,,93,19,V,R,
123,123,39,2,0,47,33,500,['c'],1,left,['2'],5,136,[0.07494556],86,47,medium,minus,dotcolour,alfa,,,93,19,V,R,
124,124,40,2,0,27,53,467,['n'],1,right,['2'],5,137,[-0.08422643],89,53,easy,minus,dotcolour,alfa,,,93,19,V,R,
125,125,41,2,0,44,36,584,['n'],0,left,['2'],5,102,[-0.05719177],83,44,hard,minus,dotcolour,alfa,,,93,19,V,R,
126,0,0,3,1,36,44,934,['c'],0,right,['8'],3,1015,[-0.12549574],1,44,hard,plus,dotcolour,alfa,,,93,19,V,R,
127,1,1,3,1,53,27,517,['n'],0,left,['2'],5,154,[-0.05655329],99,53,easy,plus,dotcolour,alfa,,,93,19,V,R,
128,2,2,3,1,47,33,534,['c'],1,left,['2'],5,129,[0.13064919],100,47,medium,plus,dotcolour,alfa,,,93,19,V,R,
129,3,3,3,1,47,33,899,['c'],1,left,['2'],5,145,[0.08614565],100,47,medium,plus,dotcolour,alfa,,,93,19,V,R,
130,4,4,3,1,53,27,717,['c'],1,left,['2'],5,175,[0.06557209],100,53,easy,plus,dotcolour,alfa,,,93,19,V,R,
131,5,5,3,1,36,44,800,['n'],1,right,['2'],5,170,[-0.13205386],100,44,hard,plus,dotcolour,alfa,,,93,19,V,R,
132,6,6,3,1,47,33,934,['c'],1,left,['2'],5,191,[0.06190376],99,47,medium,plus,dotcolour,alfa,,,93,19,V,R,
133,7,7,3,1,53,27,584,['c'],1,left,['2'],5,169,[0.10813845],100,53,easy,plus,dotcolour,alfa,,,93,19,V,R,
134,8,8,3,1,47,33,300,['n'],0,left,['8'],3,984,[0.08825595],4,47,medium,plus,dotcolour,alfa,,,93,19,V,R,
135,9,9,3,1,27,53,783,['n'],1,right,['2'],5,153,[-0.11059823],100,53,easy,plus,dotcolour,alfa,,,93,19,V,R,
136,10,10,3,1,27,53,549,['n'],1,right,['2'],5,159,[-0.15514898],100,53,easy,plus,dotcolour,alfa,,,93,19,V,R,
137,11,11,3,1,27,53,433,['n'],1,right,['2'],5,176,[-0.04214306],97,53,easy,plus,dotcolour,alfa,,,93,19,V,R,
138,12,12,3,1,27,53,333,['n'],1,right,['2'],5,189,[-0.05872008],99,53,easy,plus,dotcolour,alfa,,,93,19,V,R,
139,13,13,3,1,33,47,384,['n'],1,right,['2'],5,943,[-0.17554339],100,47,medium,plus,dotcolour,alfa,,,93,19,V,R,
140,14,14,3,1,33,47,434,['n'],1,right,['2'],5,257,[-0.0490933],97,47,medium,plus,dotcolour,alfa,,,93,19,V,R,
141,15,15,3,1,33,47,1099,['n'],1,right,['2'],5,180,[-0.04844763],98,47,medium,plus,dotcolour,alfa,,,93,19,V,R,
142,16,16,3,1,27,53,483,['n'],1,right,['2'],5,211,[-0.14535286],100,53,easy,plus,dotcolour,alfa,,,93,19,V,R,
143,17,17,3,1,36,44,566,['c'],0,right,['2'],5,213,[0.07948783],100,44,hard,plus,dotcolour,alfa,,,93,19,V,R,
144,18,18,3,1,53,27,650,['c'],1,left,['2'],5,203,[0.18302963],100,53,easy,plus,dotcolour,alfa,,,93,19,V,R,
145,19,19,3,1,33,47,668,['n'],1,right,['2'],5,210,[-0.1087483],100,47,medium,plus,dotcolour,alfa,,,93,19,V,R,
146,20,20,3,1,53,27,517,['c'],1,left,['2'],5,189,[0.10630189],100,53,easy,plus,dotcolour,alfa,,,93,19,V,R,
147,21,21,3,1,27,53,567,['n'],1,right,['2'],5,289,[-0.05495503],98,53,easy,plus,dotcolour,alfa,,,93,19,V,R,
148,22,22,3,1,47,33,1200,['c'],1,left,['2'],5,142,[0.07338937],100,47,medium,plus,dotcolour,alfa,,,93,19,V,R,
149,23,23,3,1,36,44,984,['c'],0,right,['2'],5,82,[0.04690463],100,44,hard,plus,dotcolour,alfa,,,93,19,V,R,
150,24,24,3,1,44,36,717,['n'],0,left,['8'],3,972,[-0.16650272],100,44,hard,plus,dotcolour,alfa,,,93,19,V,R,
151,25,25,3,1,44,36,799,['c'],1,left,['2'],5,141,[0.12663702],100,44,hard,plus,dotcolour,alfa,,,93,19,V,R,
152,26,26,3,1,44,36,750,['n'],0,left,['2'],5,139,[-0.0853588],100,44,hard,plus,dotcolour,alfa,,,93,19,V,R,
153,27,27,3,1,33,47,665,['n'],1,right,['2'],5,204,[-0.16539937],100,47,medium,plus,dotcolour,alfa,,,93,19,V,R,
154,28,28,3,1,44,36,533,['c'],1,left,['2'],5,152,[0.152844],100,44,hard,plus,dotcolour,alfa,,,93,19,V,R,
155,29,29,3,1,44,36,667,['c'],1,left,['2'],5,153,[0.13489018],100,44,hard,plus,dotcolour,alfa,,,93,19,V,R,
156,30,30,3,1,33,47,666,['n'],1,right,['2'],5,129,[-0.06645484],100,47,medium,plus,dotcolour,alfa,,,93,19,V,R,
157,31,31,3,1,53,27,617,['c'],1,left,['2'],5,205,[0.12207549],100,53,easy,plus,dotcolour,alfa,,,93,19,V,R,
158,32,32,3,1,36,44,584,['n'],1,right,['2'],5,455,[-0.08570929],99,44,hard,plus,dotcolour,alfa,,,93,19,V,R,
159,33,33,3,1,47,33,584,['c'],1,left,['2'],5,110,[0.03597563],98,47,medium,plus,dotcolour,alfa,,,93,19,V,R,
160,34,34,3,1,36,44,683,['n'],1,right,['2'],5,160,[-0.11655813],100,44,hard,plus,dotcolour,alfa,,,93,19,V,R,
161,35,35,3,1,44,36,483,['c'],1,left,['2'],5,159,[0.09481099],100,44,hard,plus,dotcolour,alfa,,,93,19,V,R,
162,36,36,3,1,36,44,667,['c'],0,right,['2'],5,144,[0.0103951],73,44,hard,plus,dotcolour,alfa,,,93,19,V,R,
163,37,37,3,1,33,47,2400,['c'],0,right,['3'],4,162,[0.04251909],98,47,medium,plus,dotcolour,alfa,,,93,19,V,R,
164,38,38,3,1,44,36,483,['n'],0,left,['2'],5,265,[-0.07103737],99,44,hard,plus,dotcolour,alfa,,,93,19,V,R,
165,39,39,3,1,47,33,566,['c'],1,left,['2'],5,146,[0.13874755],100,47,medium,plus,dotcolour,alfa,,,93,19,V,R,
166,40,40,3,1,27,53,634,['n'],1,right,['2'],5,147,[-0.13368686],100,53,easy,plus,dotcolour,alfa,,,93,19,V,R,
167,41,41,3,1,53,27,1250,['n'],0,left,['2'],5,349,[-0.00325054],55,53,easy,plus,dotcolour,alfa,,,93,19,V,R,
168,42,0,4,1,33,47,718,['n'],1,right,['2'],5,128,[-0.15030918],100,47,medium,plus,dotcolour,alfa,,,93,19,V,R,
169,43,1,4,1,33,47,1201,['n'],1,right,['2'],5,188,[-0.08261362],100,47,medium,plus,dotcolour,alfa,,,93,19,V,R,
170,44,2,4,1,53,27,584,['c'],1,left,['2'],5,143,[0.14251766],100,53,easy,plus,dotcolour,alfa,,,93,19,V,R,
171,45,3,4,1,33,47,1600,['c'],0,right,['2'],5,90,[0.02683799],96,47,medium,plus,dotcolour,alfa,,,93,19,V,R,
172,46,4,4,1,44,36,583,['c'],1,left,['2'],5,224,[0.10705951],100,44,hard,plus,dotcolour,alfa,,,93,19,V,R,
173,47,5,4,1,33,47,651,['n'],1,right,['2'],5,158,[-0.05710553],99,47,medium,plus,dotcolour,alfa,,,93,19,V,R,
174,48,6,4,1,36,44,700,['n'],1,right,['2'],5,165,[-0.05984692],100,44,hard,plus,dotcolour,alfa,,,93,19,V,R,
175,49,7,4,1,33,47,516,['c'],0,right,['2'],5,155,[0.08658055],100,47,medium,plus,dotcolour,alfa,,,93,19,V,R,
176,50,8,4,1,44,36,567,['n'],0,left,['2'],5,111,[-0.03836271],98,44,hard,plus,dotcolour,alfa,,,93,19,V,R,
177,51,9,4,1,44,36,550,['c'],1,left,['2'],5,150,[0.13332398],100,44,hard,plus,dotcolour,alfa,,,93,19,V,R,
178,52,10,4,1,47,33,683,['c'],1,left,['2'],5,174,[0.12164894],100,47,medium,plus,dotcolour,alfa,,,93,19,V,R,
179,53,11,4,1,47,33,383,['c'],1,left,['2'],5,129,[0.06606187],100,47,medium,plus,dotcolour,alfa,,,93,19,V,R,
180,54,12,4,1,44,36,301,['n'],0,left,['2'],5,170,[-0.11520574],100,44,hard,plus,dotcolour,alfa,,,93,19,V,R,
181,55,13,4,1,47,33,467,['c'],1,left,['2'],5,153,[0.04637687],99,47,medium,plus,dotcolour,alfa,,,93,19,V,R,
182,56,14,4,1,33,47,567,['n'],1,right,['2'],5,142,[-0.12478198],100,47,medium,plus,dotcolour,alfa,,,93,19,V,R,
183,57,15,4,1,27,53,434,['n'],1,right,['2'],5,167,[-0.18967158],100,53,easy,plus,dotcolour,alfa,,,93,19,V,R,
184,58,16,4,1,47,33,467,['c'],1,left,['2'],5,176,[0.10426911],100,47,medium,plus,dotcolour,alfa,,,93,19,V,R,
185,59,17,4,1,36,44,667,['c'],0,right,['2'],5,135,[0.04474273],99,44,hard,plus,dotcolour,alfa,,,93,19,V,R,
186,60,18,4,1,27,53,434,['n'],1,right,['2'],5,146,[-0.13044214],100,53,easy,plus,dotcolour,alfa,,,93,19,V,R,
187,61,19,4,1,53,27,467,['n'],0,left,['9'],2,1051,[0.21529461],0,53,easy,plus,dotcolour,alfa,,,93,19,V,R,
188,62,20,4,1,53,27,548,['c'],1,left,['2'],5,123,[0.06915323],100,53,easy,plus,dotcolour,alfa,,,93,19,V,R,
189,63,21,4,1,36,44,916,['n'],1,right,['2'],5,178,[-0.05602659],99,44,hard,plus,dotcolour,alfa,,,93,19,V,R,
190,64,22,4,1,47,33,584,['n'],0,left,['9'],2,1205,[0.095424],4,47,medium,plus,dotcolour,alfa,,,93,19,V,R,
191,65,23,4,1,36,44,950,['c'],0,right,['2'],5,88,[0.11630115],100,44,hard,plus,dotcolour,alfa,,,93,19,V,R,
192,66,24,4,1,53,27,583,['c'],1,left,['2'],5,111,[0.11447029],100,53,easy,plus,dotcolour,alfa,,,93,19,V,R,
193,67,25,4,1,27,53,516,['n'],1,right,['2'],5,175,[-0.08878245],100,53,easy,plus,dotcolour,alfa,,,93,19,V,R,
194,68,26,4,1,53,27,683,['c'],1,left,['2'],5,165,[0.06391784],100,53,easy,plus,dotcolour,alfa,,,93,19,V,R,
195,69,27,4,1,27,53,484,['n'],1,right,['2'],5,164,[-0.09389594],100,53,easy,plus,dotcolour,alfa,,,93,19,V,R,
196,70,28,4,1,44,36,1284,['c'],1,left,['2'],5,100,[0.10942516],100,44,hard,plus,dotcolour,alfa,,,93,19,V,R,
197,71,29,4,1,36,44,450,['n'],1,right,['2'],5,175,[-0.10185165],100,44,hard,plus,dotcolour,alfa,,,93,19,V,R,
198,72,30,4,1,47,33,484,['n'],0,left,['9'],2,718,[0.0752195],4,47,medium,plus,dotcolour,alfa,,,93,19,V,R,
199,73,31,4,1,53,27,700,['c'],1,left,['2'],5,94,[0.10224204],100,53,easy,plus,dotcolour,alfa,,,93,19,V,R,
200,74,32,4,1,36,44,533,['n'],1,right,['2'],5,159,[-0.07261948],100,44,hard,plus,dotcolour,alfa,,,93,19,V,R,
201,75,33,4,1,33,47,1318,['n'],1,right,['2'],5,117,[-0.04496375],99,47,medium,plus,dotcolour,alfa,,,93,19,V,R,
202,76,34,4,1,27,53,734,['n'],1,right,['2'],5,116,[-0.06357733],100,53,easy,plus,dotcolour,alfa,,,93,19,V,R,
203,77,35,4,1,36,44,500,['c'],0,right,['2'],5,180,[0.03621524],96,44,hard,plus,dotcolour,alfa,,,93,19,V,R,
204,78,36,4,1,53,27,550,['c'],1,left,['2'],5,353,[0.05474874],97,53,easy,plus,dotcolour,alfa,,,93,19,V,R,
205,79,37,4,1,27,53,484,['n'],1,right,['2'],5,169,[-0.09278937],100,53,easy,plus,dotcolour,alfa,,,93,19,V,R,
206,80,38,4,1,47,33,533,['c'],1,left,['2'],5,86,[0.04812718],100,47,medium,plus,dotcolour,alfa,,,93,19,V,R,
207,81,39,4,1,27,53,2999,['n'],1,right,['8'],3,300,[-0.09343099],100,53,easy,plus,dotcolour,alfa,,,93,19,V,R,
208,82,40,4,1,44,36,667,['c'],1,left,['2'],5,110,[0.00925801],73,44,hard,plus,dotcolour,alfa,,,93,19,V,R,
209,83,41,4,1,44,36,667,['c'],1,left,['2'],5,664,[0.05488262],92,44,hard,plus,dotcolour,alfa,,,93,19,V,R,
210,84,0,5,1,44,36,817,['c'],1,left,['2'],5,107,[0.11882538],100,44,hard,plus,dotcolour,alfa,,,93,19,V,R,
211,85,1,5,1,33,47,1050,['n'],1,right,['2'],5,126,[-0.09335953],100,47,medium,plus,dotcolour,alfa,,,93,19,V,R,
212,86,2,5,1,36,44,600,['n'],1,right,['2'],5,97,[-0.07155324],100,44,hard,plus,dotcolour,alfa,,,93,19,V,R,
213,87,3,5,1,44,36,2150,['c'],1,left,['2'],5,345,[0.05737865],97,44,hard,plus,dotcolour,alfa,,,93,19,V,R,
214,88,4,5,1,47,33,867,['c'],1,left,['2'],5,961,[0.19392631],100,47,medium,plus,dotcolour,alfa,,,93,19,V,R,
215,89,5,5,1,33,47,550,['n'],1,right,['2'],5,158,[-0.12228447],100,47,medium,plus,dotcolour,alfa,,,93,19,V,R,
216,90,6,5,1,36,44,733,['c'],0,right,['2'],5,139,[0.04542616],99,44,hard,plus,dotcolour,alfa,,,93,19,V,R,
217,91,7,5,1,44,36,1101,['c'],1,left,['2'],5,123,[0.06233154],100,44,hard,plus,dotcolour,alfa,,,93,19,V,R,
218,92,8,5,1,53,27,650,['c'],1,left,['2'],5,197,[0.16203318],100,53,easy,plus,dotcolour,alfa,,,93,19,V,R,
219,93,9,5,1,27,53,683,['n'],1,right,['2'],5,131,[-0.11781421],100,53,easy,plus,dotcolour,alfa,,,93,19,V,R,
220,94,10,5,1,53,27,517,['c'],1,left,['2'],5,155,[0.13307536],100,53,easy,plus,dotcolour,alfa,,,93,19,V,R,
221,95,11,5,1,27,53,434,['n'],1,right,['2'],5,149,[-0.08493127],100,53,easy,plus,dotcolour,alfa,,,93,19,V,R,
222,96,12,5,1,53,27,466,['c'],1,left,['2'],5,125,[0.05551607],100,53,easy,plus,dotcolour,alfa,,,93,19,V,R,
223,97,13,5,1,47,33,667,['c'],1,left,['2'],5,119,[0.07878013],100,47,medium,plus,dotcolour,alfa,,,93,19,V,R,
224,98,14,5,1,33,47,483,['n'],1,right,['2'],5,136,[-0.08253677],100,47,medium,plus,dotcolour,alfa,,,93,19,V,R,
225,99,15,5,1,44,36,534,['c'],1,left,['2'],5,127,[0.12241979],100,44,hard,plus,dotcolour,alfa,,,93,19,V,R,
226,100,16,5,1,53,27,450,['c'],1,left,['2'],5,129,[0.05928122],100,53,easy,plus,dotcolour,alfa,,,93,19,V,R,
227,101,17,5,1,53,27,517,['c'],1,left,['2'],5,160,[0.08447495],100,53,easy,plus,dotcolour,alfa,,,93,19,V,R,
228,102,18,5,1,36,44,450,['n'],1,right,['2'],5,121,[-0.06697873],100,44,hard,plus,dotcolour,alfa,,,93,19,V,R,
229,103,19,5,1,33,47,567,['n'],1,right,['2'],5,95,[-0.0804322],100,47,medium,plus,dotcolour,alfa,,,93,19,V,R,
230,104,20,5,1,53,27,400,['c'],1,left,['2'],5,108,[0.08063294],100,53,easy,plus,dotcolour,alfa,,,93,19,V,R,
231,105,21,5,1,27,53,467,['n'],1,right,['2'],5,166,[-0.11941888],100,53,easy,plus,dotcolour,alfa,,,93,19,V,R,
232,106,22,5,1,27,53,400,['c'],0,right,['9'],2,793,[0.06928891],94,53,easy,plus,dotcolour,alfa,,,93,19,V,R,
233,107,23,5,1,47,33,583,['n'],0,left,['9'],2,731,[0.04977354],11,47,medium,plus,dotcolour,alfa,,,93,19,V,R,
234,108,24,5,1,47,33,633,['c'],1,left,['2'],5,101,[0.0719331],100,47,medium,plus,dotcolour,alfa,,,93,19,V,R,
235,109,25,5,1,44,36,500,['c'],1,left,['2'],5,110,[0.07491905],100,44,hard,plus,dotcolour,alfa,,,93,19,V,R,
236,110,26,5,1,47,33,383,['c'],1,left,['2'],5,108,[0.13555196],100,47,medium,plus,dotcolour,alfa,,,93,19,V,R,
237,111,27,5,1,36,44,600,['n'],1,right,['2'],5,105,[-0.09762184],100,44,hard,plus,dotcolour,alfa,,,93,19,V,R,
238,112,28,5,1,36,44,433,['c'],0,right,['2'],5,197,[0.10329618],100,44,hard,plus,dotcolour,alfa,,,93,19,V,R,
239,113,29,5,1,36,44,1183,['c'],0,right,['2'],5,191,[0.06066403],99,44,hard,plus,dotcolour,alfa,,,93,19,V,R,
240,114,30,5,1,36,44,1333,['n'],1,right,['2'],5,259,[-0.07078199],99,44,hard,plus,dotcolour,alfa,,,93,19,V,R,
241,115,31,5,1,33,47,817,['n'],1,right,['2'],5,121,[-0.04521401],99,47,medium,plus,dotcolour,alfa,,,93,19,V,R,
242,116,32,5,1,33,47,517,['n'],1,right,['2'],5,161,[-0.11825153],100,47,medium,plus,dotcolour,alfa,,,93,19,V,R,
243,117,33,5,1,33,47,1067,['n'],1,right,['2'],5,121,[-0.06330696],100,47,medium,plus,dotcolour,alfa,,,93,19,V,R,
244,118,34,5,1,47,33,634,['c'],1,left,['2'],5,108,[0.10173807],100,47,medium,plus,dotcolour,alfa,,,93,19,V,R,
245,119,35,5,1,53,27,517,['c'],1,left,['2'],5,108,[0.12749024],100,53,easy,plus,dotcolour,alfa,,,93,19,V,R,
246,120,36,5,1,44,36,600,['n'],0,left,['3'],4,1241,[-0.12983998],99,44,hard,plus,dotcolour,alfa,,,93,19,V,R,
247,121,37,5,1,44,36,1684,['c'],1,left,['2'],5,109,[0.06627834],100,44,hard,plus,dotcolour,alfa,,,93,19,V,R,
248,122,38,5,1,27,53,900,['n'],1,right,['2'],5,134,[-0.05619731],100,53,easy,plus,dotcolour,alfa,,,93,19,V,R,
249,123,39,5,1,47,33,733,['c'],1,left,['2'],5,124,[0.05958857],100,47,medium,plus,dotcolour,alfa,,,93,19,V,R,
250,124,40,5,1,27,53,1067,['n'],1,right,['2'],5,2550,[-0.759951],100,53,easy,plus,dotcolour,alfa,,,93,19,V,R,
251,125,41,5,1,27,53,683,['n'],1,right,['2'],5,149,[-0.1497818],100,53,easy,plus,dotcolour,alfa,,,93,19,V,R,
252,0,0,6,2,27,53,684,['n'],1,right,['2'],5,139,[-0.03891213],72,53,easy,minus,dotcolour,alfa,,,93,19,V,R,
253,1,1,6,2,36,44,733,['n'],1,right,['2'],5,130,[-0.09611653],92,44,hard,minus,dotcolour,alfa,,,93,19,V,R,
254,2,2,6,2,36,44,1233,['c'],0,right,['2'],5,124,[0.08033905],89,44,hard,minus,dotcolour,alfa,,,93,19,V,R,
255,3,3,6,2,47,33,767,['c'],1,left,['2'],5,138,[0.11796063],95,47,medium,minus,dotcolour,alfa,,,93,19,V,R,
256,4,4,6,2,53,27,1167,['c'],1,left,['2'],5,183,[0.05702619],77,53,easy,minus,dotcolour,alfa,,,93,19,V,R,
257,5,5,6,2,27,53,2466,['n'],1,right,['2'],5,190,[-0.13356253],94,53,easy,minus,dotcolour,alfa,,,93,19,V,R,
258,6,6,6,2,33,47,800,['n'],1,right,['2'],5,144,[-0.14040079],97,47,medium,minus,dotcolour,alfa,,,93,19,V,R,
259,7,7,6,2,33,47,585,['n'],1,right,['2'],5,100,[-0.06910663],88,47,medium,minus,dotcolour,alfa,,,93,19,V,R,
260,8,8,6,2,44,36,800,['c'],1,left,['2'],5,137,[0.07409052],86,44,hard,minus,dotcolour,alfa,,,93,19,V,R,
261,9,9,6,2,33,47,634,['n'],1,right,['2'],5,156,[-0.0417317],72,47,medium,minus,dotcolour,alfa,,,93,19,V,R,
262,10,10,6,2,53,27,651,['c'],1,left,['2'],5,92,[0.14148697],99,53,easy,minus,dotcolour,alfa,,,93,19,V,R,
263,11,11,6,2,27,53,584,['n'],1,right,['2'],5,106,[-0.0517103],81,53,easy,minus,dotcolour,alfa,,,93,19,V,R,
264,12,12,6,2,53,27,583,['c'],1,left,['2'],5,160,[0.0949043],89,53,easy,minus,dotcolour,alfa,,,93,19,V,R,
265,13,13,6,2,47,33,867,['c'],1,left,['2'],5,120,[0.05814281],82,47,medium,minus,dotcolour,alfa,,,93,19,V,R,
266,14,14,6,2,53,27,750,['c'],1,left,['2'],5,190,[0.08940525],86,53,easy,minus,dotcolour,alfa,,,93,19,V,R,
267,15,15,6,2,47,33,667,['c'],1,left,['2'],5,141,[-0.00840701],45,47,medium,minus,dotcolour,alfa,,,93,19,V,R,
268,16,16,6,2,36,44,483,['n'],1,right,['2'],5,125,[-0.1113569],94,44,hard,minus,dotcolour,alfa,,,93,19,V,R,
269,17,17,6,2,47,33,616,['c'],1,left,['2'],5,144,[0.10315267],92,47,medium,minus,dotcolour,alfa,,,93,19,V,R,
270,18,18,6,2,36,44,400,['n'],1,right,['2'],5,108,[-0.10439336],95,44,hard,minus,dotcolour,alfa,,,93,19,V,R,
271,19,19,6,2,27,53,883,['n'],1,right,['2'],5,166,[-0.1014213],90,53,easy,minus,dotcolour,alfa,,,93,19,V,R,
272,20,20,6,2,47,33,551,['c'],1,left,['2'],5,186,[0.12255171],93,47,medium,minus,dotcolour,alfa,,,93,19,V,R,
273,21,21,6,2,27,53,701,['n'],1,right,['2'],5,152,[-0.07442612],85,53,easy,minus,dotcolour,alfa,,,93,19,V,R,
274,22,22,6,2,44,36,750,['c'],1,left,['2'],5,214,[0.11049692],90,44,hard,minus,dotcolour,alfa,,,93,19,V,R,
275,23,23,6,2,53,27,867,['c'],1,left,['2'],5,163,[0.08335488],87,53,easy,minus,dotcolour,alfa,,,93,19,V,R,
276,24,24,6,2,33,47,784,['n'],1,right,['2'],5,126,[-0.10515715],94,47,medium,minus,dotcolour,alfa,,,93,19,V,R,
277,25,25,6,2,33,47,600,['c'],0,right,['2'],5,162,[0.059353],79,47,medium,minus,dotcolour,alfa,,,93,19,V,R,
278,26,26,6,2,47,33,766,['c'],1,left,['2'],5,159,[0.0642306],81,47,medium,minus,dotcolour,alfa,,,93,19,V,R,
279,27,27,6,2,36,44,817,['n'],1,right,['2'],5,129,[-0.08122018],88,44,hard,minus,dotcolour,alfa,,,93,19,V,R,
280,28,28,6,2,27,53,467,['n'],1,right,['2'],5,138,[-0.04356278],74,53,easy,minus,dotcolour,alfa,,,93,19,V,R,
281,29,29,6,2,44,36,533,['c'],1,left,['2'],5,137,[0.08919128],90,44,hard,minus,dotcolour,alfa,,,93,19,V,R,
282,30,30,6,2,44,36,867,['c'],1,left,['2'],5,130,[0.11887362],95,44,hard,minus,dotcolour,alfa,,,93,19,V,R,
283,31,31,6,2,53,27,734,['c'],1,left,['2'],5,137,[0.07233117],85,53,easy,minus,dotcolour,alfa,,,93,19,V,R,
284,32,32,6,2,53,27,517,['c'],1,left,['2'],5,184,[0.19017114],98,53,easy,minus,dotcolour,alfa,,,93,19,V,R,
285,33,33,6,2,44,36,567,['c'],1,left,['2'],5,147,[0.18333538],99,44,hard,minus,dotcolour,alfa,,,93,19,V,R,
286,34,34,6,2,47,33,485,['c'],1,left,['2'],5,148,[0.09908954],91,47,medium,minus,dotcolour,alfa,,,93,19,V,R,
287,35,35,6,2,44,36,699,['c'],1,left,['2'],5,115,[0.05071018],79,44,hard,minus,dotcolour,alfa,,,93,19,V,R,
288,36,36,6,2,36,44,599,['c'],0,right,['2'],5,96,[0.04805869],80,44,hard,minus,dotcolour,alfa,,,93,19,V,R,
289,37,37,6,2,27,53,816,['n'],1,right,['2'],5,292,[-0.10907984],86,53,easy,minus,dotcolour,alfa,,,93,19,V,R,
290,38,38,6,2,36,44,617,['c'],0,right,['2'],5,104,[0.08541484],92,44,hard,minus,dotcolour,alfa,,,93,19,V,R,
291,39,39,6,2,33,47,633,['c'],0,right,['2'],5,165,[0.01058054],56,47,medium,minus,dotcolour,alfa,,,93,19,V,R,
292,40,40,6,2,44,36,651,['n'],0,left,['2'],5,173,[-0.04271605],72,44,hard,minus,dotcolour,alfa,,,93,19,V,R,
293,41,41,6,2,33,47,799,['n'],1,right,['2'],5,111,[-0.05223379],80,47,medium,minus,dotcolour,alfa,,,93,19,V,R,
294,42,0,7,2,36,44,750,['n'],1,right,['2'],5,87,[-0.04856304],81,44,hard,minus,dotcolour,alfa,,,93,19,V,R,
295,43,1,7,2,47,33,500,['c'],1,left,['2'],5,89,[0.0282174],70,47,medium,minus,dotcolour,alfa,,,93,19,V,R,
296,44,2,7,2,27,53,800,['n'],1,right,['2'],5,127,[-0.14841959],98,53,easy,minus,dotcolour,alfa,,,93,19,V,R,
297,45,3,7,2,47,33,750,['c'],1,left,['2'],5,125,[0.08738724],90,47,medium,minus,dotcolour,alfa,,,93,19,V,R,
298,46,4,7,2,33,47,450,['n'],1,right,['2'],5,151,[-0.07002275],84,47,medium,minus,dotcolour,alfa,,,93,19,V,R,
299,47,5,7,2,36,44,783,['n'],1,right,['2'],5,115,[-0.08915497],91,44,hard,minus,dotcolour,alfa,,,93,19,V,R,
300,48,6,7,2,33,47,517,['n'],1,right,['2'],5,115,[-0.11550687],96,47,medium,minus,dotcolour,alfa,,,93,19,V,R,
301,49,7,7,2,47,33,500,['c'],1,left,['2'],5,172,[0.00500544],53,47,medium,minus,dotcolour,alfa,,,93,19,V,R,
302,50,8,7,2,53,27,500,['n'],0,left,['9'],2,971,[-0.01658415],54,53,easy,minus,dotcolour,alfa,,,93,19,V,R,
303,51,9,7,2,33,47,684,['n'],1,right,['2'],5,97,[-0.05663929],84,47,medium,minus,dotcolour,alfa,,,93,19,V,R,
304,52,10,7,2,53,27,667,['c'],1,left,['2'],5,107,[0.09448265],93,53,easy,minus,dotcolour,alfa,,,93,19,V,R,
305,53,11,7,2,53,27,550,['c'],1,left,['2'],5,114,[0.08944257],92,53,easy,minus,dotcolour,alfa,,,93,19,V,R,
306,54,12,7,2,44,36,500,['c'],1,left,['2'],5,227,[0.03193264],65,44,hard,minus,dotcolour,alfa,,,93,19,V,R,
307,55,13,7,2,33,47,566,['n'],1,right,['2'],5,108,[-0.09011765],92,47,medium,minus,dotcolour,alfa,,,93,19,V,R,
308,56,14,7,2,47,33,533,['c'],1,left,['2'],5,476,[0.18659772],92,47,medium,minus,dotcolour,alfa,,,93,19,V,R,
309,57,15,7,2,44,36,767,['c'],1,left,['2'],5,131,[0.12628685],96,44,hard,minus,dotcolour,alfa,,,93,19,V,R,
310,58,16,7,2,44,36,667,['c'],1,left,['2'],5,116,[0.05088213],79,44,hard,minus,dotcolour,alfa,,,93,19,V,R,
311,59,17,7,2,53,27,400,['n'],0,left,['2'],5,177,[0.02762241],36,53,easy,minus,dotcolour,alfa,,,93,19,V,R,
312,60,18,7,2,47,33,467,['c'],1,left,['2'],5,112,[0.02510392],66,47,medium,minus,dotcolour,alfa,,,93,19,V,R,
313,61,19,7,2,47,33,534,['c'],1,left,['2'],5,136,[0.08238217],88,47,medium,minus,dotcolour,alfa,,,93,19,V,R,
314,62,20,7,2,44,36,717,['n'],0,left,['2'],5,103,[-0.1385636],98,44,hard,minus,dotcolour,alfa,,,93,19,V,R,
315,63,21,7,2,27,53,517,['n'],1,right,['2'],5,103,[-0.09127848],93,53,easy,minus,dotcolour,alfa,,,93,19,V,R,
316,64,22,7,2,36,44,550,['c'],0,right,['9'],2,759,[0.13386493],80,44,hard,minus,dotcolour,alfa,,,93,19,V,R,
317,65,23,7,2,53,27,817,['c'],1,left,['2'],5,161,[0.09000006],88,53,easy,minus,dotcolour,alfa,,,93,19,V,R,
318,66,24,7,2,33,47,833,['n'],1,right,['2'],5,99,[-0.07703365],90,47,medium,minus,dotcolour,alfa,,,93,19,V,R,
319,67,25,7,2,44,36,616,['n'],0,left,['2'],5,111,[-0.04597014],78,44,hard,minus,dotcolour,alfa,,,93,19,V,R,
320,68,26,7,2,27,53,567,['n'],1,right,['2'],5,109,[-0.09393064],93,53,easy,minus,dotcolour,alfa,,,93,19,V,R,
321,69,27,7,2,36,44,667,['n'],1,right,['2'],5,103,[-0.07500774],89,44,hard,minus,dotcolour,alfa,,,93,19,V,R,
322,70,28,7,2,27,53,466,['n'],1,right,['2'],5,114,[-0.08944022],92,53,easy,minus,dotcolour,alfa,,,93,19,V,R,
323,71,29,7,2,27,53,601,['n'],1,right,['2'],5,102,[-0.07574084],89,53,easy,minus,dotcolour,alfa,,,93,19,V,R,
324,72,30,7,2,44,36,717,['c'],1,left,['2'],5,127,[0.10819005],94,44,hard,minus,dotcolour,alfa,,,93,19,V,R,
325,73,31,7,2,36,44,901,['c'],0,right,['2'],5,63,[0.07875061],94,44,hard,minus,dotcolour,alfa,,,93,19,V,R,
326,74,32,7,2,36,44,1650,['n'],1,right,['2'],5,100,[-0.0746565],89,44,hard,minus,dotcolour,alfa,,,93,19,V,R,
327,75,33,7,2,33,47,634,['n'],1,right,['2'],5,112,[-0.01614655],61,47,medium,minus,dotcolour,alfa,,,93,19,V,R,
328,76,34,7,2,33,47,583,['c'],0,right,['2'],5,101,[0.06606486],87,47,medium,minus,dotcolour,alfa,,,93,19,V,R,
329,77,35,7,2,36,44,650,['n'],1,right,['2'],5,96,[-0.08167548],91,44,hard,minus,dotcolour,alfa,,,93,19,V,R,
330,78,36,7,2,27,53,450,['n'],1,right,['2'],5,100,[-0.01304231],59,53,easy,minus,dotcolour,alfa,,,93,19,V,R,
331,79,37,7,2,44,36,633,['c'],1,left,['2'],5,96,[0.10080239],95,44,hard,minus,dotcolour,alfa,,,93,19,V,R,
332,80,38,7,2,27,53,484,['n'],1,right,['2'],5,89,[-0.07629712],91,53,easy,minus,dotcolour,alfa,,,93,19,V,R,
333,81,39,7,2,47,33,616,['c'],1,left,['2'],5,71,[0.04697088],83,47,medium,minus,dotcolour,alfa,,,93,19,V,R,
334,82,40,7,2,53,27,451,['c'],1,left,['2'],5,84,[0.08928729],94,53,easy,minus,dotcolour,alfa,,,93,19,V,R,
335,83,41,7,2,53,27,617,['c'],1,left,['2'],5,97,[0.07252146],89,53,easy,minus,dotcolour,alfa,,,93,19,V,R,
336,84,0,8,2,44,36,767,['c'],1,left,['2'],5,92,[0.03430913],73,44,hard,minus,dotcolour,alfa,,,93,19,V,R,
337,85,1,8,2,27,53,567,['n'],1,right,['2'],5,163,[-0.15536028],97,53,easy,minus,dotcolour,alfa,,,93,19,V,R,
338,86,2,8,2,44,36,550,['c'],1,left,['2'],5,120,[0.04591706],77,44,hard,minus,dotcolour,alfa,,,93,19,V,R,
339,87,3,8,2,44,36,634,['c'],1,left,['2'],5,91,[0.07080344],89,44,hard,minus,dotcolour,alfa,,,93,19,V,R,
340,88,4,8,2,36,44,716,['n'],1,right,['2'],5,148,[-0.10759373],93,44,hard,minus,dotcolour,alfa,,,93,19,V,R,
341,89,5,8,2,27,53,516,['n'],1,right,['2'],5,115,[-0.09749904],93,53,easy,minus,dotcolour,alfa,,,93,19,V,R,
342,90,6,8,2,33,47,434,['n'],1,right,['2'],5,142,[-0.08723464],89,47,medium,minus,dotcolour,alfa,,,93,19,V,R,
343,91,7,8,2,33,47,750,['n'],1,right,['2'],5,275,[-0.02086503],59,47,medium,minus,dotcolour,alfa,,,93,19,V,R,
344,92,8,8,2,53,27,551,['c'],1,left,['2'],5,83,[0.05817184],86,53,easy,minus,dotcolour,alfa,,,93,19,V,R,
345,93,9,8,2,27,53,667,['n'],1,right,['2'],5,102,[-0.05390466],82,53,easy,minus,dotcolour,alfa,,,93,19,V,R,
346,94,10,8,2,36,44,516,['c'],0,right,['2'],5,88,[0.00705326],55,44,hard,minus,dotcolour,alfa,,,93,19,V,R,
347,95,11,8,2,47,33,767,['c'],1,left,['2'],5,166,[0.06377887],80,47,medium,minus,dotcolour,alfa,,,93,19,V,R,
348,96,12,8,2,44,36,617,['c'],1,left,['2'],5,128,[0.02592299],66,44,hard,minus,dotcolour,alfa,,,93,19,V,R,
349,97,13,8,2,44,36,384,['c'],1,left,['2'],5,125,[0.08550662],90,44,hard,minus,dotcolour,alfa,,,93,19,V,R,
350,98,14,8,2,47,33,483,['c'],1,left,['2'],5,126,[0.09364868],91,47,medium,minus,dotcolour,alfa,,,93,19,V,R,
351,99,15,8,2,27,53,617,['n'],1,right,['2'],5,105,[-0.07674444],89,53,easy,minus,dotcolour,alfa,,,93,19,V,R,
352,100,16,8,2,33,47,517,['c'],0,right,['2'],5,274,[-0.00852306],46,47,medium,minus,dotcolour,alfa,,,93,19,V,R,
353,101,17,8,2,53,27,583,['c'],1,left,['2'],5,73,[0.11399662],98,53,easy,minus,dotcolour,alfa,,,93,19,V,R,
354,102,18,8,2,33,47,534,['n'],1,right,['2'],5,114,[-0.10376961],94,47,medium,minus,dotcolour,alfa,,,93,19,V,R,
355,103,19,8,2,27,53,483,['n'],1,right,['2'],5,107,[-0.12867506],97,53,easy,minus,dotcolour,alfa,,,93,19,V,R,
356,104,20,8,2,47,33,817,['c'],1,left,['2'],5,1224,[0.05509146],61,47,medium,minus,dotcolour,alfa,,,93,19,V,R,
357,105,21,8,2,36,44,567,['n'],1,right,['2'],5,153,[-0.0654818],82,44,hard,minus,dotcolour,alfa,,,93,19,V,R,
358,106,22,8,2,47,33,634,['c'],1,left,['2'],5,179,[0.06924337],81,47,medium,minus,dotcolour,alfa,,,93,19,V,R,
359,107,23,8,2,53,27,616,['c'],1,left,['2'],5,148,[0.0755506],85,53,easy,minus,dotcolour,alfa,,,93,19,V,R,
360,108,24,8,2,53,27,850,['c'],1,left,['2'],5,117,[0.08577966],91,53,easy,minus,dotcolour,alfa,,,93,19,V,R,
361,109,25,8,2,36,44,699,['n'],1,right,['2'],5,126,[-0.15915511],98,44,hard,minus,dotcolour,alfa,,,93,19,V,R,
362,110,26,8,2,27,53,635,['n'],1,right,['2'],5,249,[-0.12676136],91,53,easy,minus,dotcolour,alfa,,,93,19,V,R,
363,111,27,8,2,44,36,533,['c'],1,left,['2'],5,171,[0.11386654],92,44,hard,minus,dotcolour,alfa,,,93,19,V,R,
364,112,28,8,2,47,33,683,['c'],1,left,['2'],5,138,[0.06711957],84,47,medium,minus,dotcolour,alfa,,,93,19,V,R,
365,113,29,8,2,36,44,767,['c'],0,right,['2'],5,111,[0.00948758],56,44,hard,minus,dotcolour,alfa,,,93,19,V,R,
366,114,30,8,2,53,27,700,['c'],1,left,['2'],5,152,[0.08718114],88,53,easy,minus,dotcolour,alfa,,,93,19,V,R,
367,115,31,8,2,36,44,983,['n'],1,right,['2'],5,132,[-0.09893442],92,44,hard,minus,dotcolour,alfa,,,93,19,V,R,
368,116,32,8,2,36,44,1333,['c'],0,right,['2'],5,123,[0.05117002],79,44,hard,minus,dotcolour,alfa,,,93,19,V,R,
369,117,33,8,2,53,27,950,['c'],1,left,['2'],5,82,[0.11171216],97,53,easy,minus,dotcolour,alfa,,,93,19,V,R,
370,118,34,8,2,27,53,600,['n'],1,right,['2'],5,135,[-0.15377576],98,53,easy,minus,dotcolour,alfa,,,93,19,V,R,
371,119,35,8,2,47,33,550,['c'],1,left,['2'],5,133,[0.05335122],79,47,medium,minus,dotcolour,alfa,,,93,19,V,R,
372,120,36,8,2,53,27,517,['c'],1,left,['2'],5,85,[0.06386395],88,53,easy,minus,dotcolour,alfa,,,93,19,V,R,
373,121,37,8,2,47,33,650,['c'],1,left,['2'],5,97,[0.04592824],79,47,medium,minus,dotcolour,alfa,,,93,19,V,R,
374,122,38,8,2,33,47,617,['n'],1,right,['2'],5,141,[-0.09000958],90,47,medium,minus,dotcolour,alfa,,,93,19,V,R,
375,123,39,8,2,33,47,550,['n'],1,right,['2'],5,139,[-0.12387382],95,47,medium,minus,dotcolour,alfa,,,93,19,V,R,
376,124,40,8,2,44,36,467,['c'],1,left,['2'],5,116,[0.08590279],91,44,hard,minus,dotcolour,alfa,,,93,19,V,R,
377,125,41,8,2,33,47,534,['n'],1,right,['2'],5,147,[-0.08385894],88,47,medium,minus,dotcolour,alfa,,,93,19,V,R,
378,0,0,9,3,47,33,867,['n'],0,left,['2'],5,107,[-0.05926598],100,47,medium,plus,dotcolour,alfa,,,93,19,V,R,
379,1,1,9,3,36,44,567,['n'],1,right,['2'],5,129,[-0.09104254],100,44,hard,plus,dotcolour,alfa,,,93,19,V,R,
380,2,2,9,3,27,53,367,['n'],1,right,['2'],5,135,[-0.12406599],100,53,easy,plus,dotcolour,alfa,,,93,19,V,R,
381,3,3,9,3,44,36,500,['n'],0,left,['2'],5,143,[-0.06147981],100,44,hard,plus,dotcolour,alfa,,,93,19,V,R,
382,4,4,9,3,44,36,434,['c'],1,left,['2'],5,129,[0.07434451],100,44,hard,plus,dotcolour,alfa,,,93,19,V,R,
383,5,5,9,3,53,27,716,['c'],1,left,['2'],5,120,[0.09790166],100,53,easy,plus,dotcolour,alfa,,,93,19,V,R,
384,6,6,9,3,47,33,450,['c'],1,left,['2'],5,106,[0.10509279],100,47,medium,plus,dotcolour,alfa,,,93,19,V,R,
385,7,7,9,3,36,44,618,['n'],1,right,['2'],5,103,[-0.07992152],100,44,hard,plus,dotcolour,alfa,,,93,19,V,R,
386,8,8,9,3,36,44,451,['n'],1,right,['2'],5,139,[-0.04114666],98,44,hard,plus,dotcolour,alfa,,,93,19,V,R,
387,9,9,9,3,33,47,550,['n'],1,right,['2'],5,184,[-0.13435092],100,47,medium,plus,dotcolour,alfa,,,93,19,V,R,
388,10,10,9,3,47,33,566,['c'],1,left,['2'],5,116,[0.09619787],100,47,medium,plus,dotcolour,alfa,,,93,19,V,R,
389,11,11,9,3,27,53,350,['n'],1,right,['2'],5,98,[-0.1465513],100,53,easy,plus,dotcolour,alfa,,,93,19,V,R,
390,12,12,9,3,33,47,400,['n'],1,right,['2'],5,95,[-0.11411833],100,47,medium,plus,dotcolour,alfa,,,93,19,V,R,
391,13,13,9,3,53,27,600,['c'],1,left,['2'],5,141,[0.12111591],100,53,easy,plus,dotcolour,alfa,,,93,19,V,R,
392,14,14,9,3,36,44,417,['n'],1,right,['2'],5,119,[-0.09404082],100,44,hard,plus,dotcolour,alfa,,,93,19,V,R,
393,15,15,9,3,53,27,467,['c'],1,left,['2'],5,105,[0.03321892],98,53,easy,plus,dotcolour,alfa,,,93,19,V,R,
394,16,16,9,3,53,27,517,['c'],1,left,['2'],5,154,[0.01370299],78,53,easy,plus,dotcolour,alfa,,,93,19,V,R,
395,17,17,9,3,44,36,650,['c'],1,left,['2'],5,131,[0.0248766],92,44,hard,plus,dotcolour,alfa,,,93,19,V,R,
396,18,18,9,3,33,47,600,['n'],1,right,['2'],5,95,[-0.0691354],100,47,medium,plus,dotcolour,alfa,,,93,19,V,R,
397,19,19,9,3,47,33,566,['c'],1,left,['2'],5,142,[0.02921046],94,47,medium,plus,dotcolour,alfa,,,93,19,V,R,
398,20,20,9,3,53,27,484,['c'],1,left,['2'],5,126,[0.09513925],100,53,easy,plus,dotcolour,alfa,,,93,19,V,R,
399,21,21,9,3,33,47,900,['c'],0,right,['2'],5,134,[0.06173474],100,47,medium,plus,dotcolour,alfa,,,93,19,V,R,
400,22,22,9,3,44,36,483,['n'],0,left,['9'],2,848,[-0.24052354],100,44,hard,plus,dotcolour,alfa,,,93,19,V,R,
401,23,23,9,3,33,47,683,['n'],1,right,['2'],5,99,[-0.0688878],100,47,medium,plus,dotcolour,alfa,,,93,19,V,R,
402,24,24,9,3,27,53,516,['n'],1,right,['2'],5,123,[-0.10303647],100,53,easy,plus,dotcolour,alfa,,,93,19,V,R,
403,25,25,9,3,44,36,684,['c'],1,left,['2'],5,132,[0.06322671],100,44,hard,plus,dotcolour,alfa,,,93,19,V,R,
404,26,26,9,3,36,44,651,['n'],1,right,['2'],5,118,[-0.10940148],100,44,hard,plus,dotcolour,alfa,,,93,19,V,R,
405,27,27,9,3,27,53,483,['n'],1,right,['2'],5,104,[-0.12495802],100,53,easy,plus,dotcolour,alfa,,,93,19,V,R,
406,28,28,9,3,27,53,500,['n'],1,right,['2'],5,89,[-0.09147997],100,53,easy,plus,dotcolour,alfa,,,93,19,V,R,
407,29,29,9,3,33,47,916,['c'],0,right,['2'],5,146,[0.03301386],96,47,medium,plus,dotcolour,alfa,,,93,19,V,R,
408,30,30,9,3,47,33,1017,['c'],1,left,['2'],5,157,[0.06151581],100,47,medium,plus,dotcolour,alfa,,,93,19,V,R,
409,31,31,9,3,53,27,684,['n'],0,left,['2'],5,109,[-0.16767239],100,53,easy,plus,dotcolour,alfa,,,93,19,V,R,
410,32,32,9,3,33,47,783,['c'],0,right,['2'],5,146,[0.07288429],100,47,medium,plus,dotcolour,alfa,,,93,19,V,R,
411,33,33,9,3,53,27,767,['c'],1,left,['2'],5,126,[0.0720698],100,53,easy,plus,dotcolour,alfa,,,93,19,V,R,
412,34,34,9,3,27,53,500,['n'],1,right,['2'],5,150,[-0.12562815],100,53,easy,plus,dotcolour,alfa,,,93,19,V,R,
413,35,35,9,3,27,53,550,['n'],1,right,['2'],5,180,[-0.04835096],98,53,easy,plus,dotcolour,alfa,,,93,19,V,R,
414,36,36,9,3,47,33,567,['c'],1,left,['2'],5,111,[0.06424906],100,47,medium,plus,dotcolour,alfa,,,93,19,V,R,
415,37,37,9,3,44,36,717,['c'],1,left,['2'],5,167,[0.1084114],100,44,hard,plus,dotcolour,alfa,,,93,19,V,R,
416,38,38,9,3,36,44,767,['c'],0,right,['2'],5,147,[0.02234075],89,44,hard,plus,dotcolour,alfa,,,93,19,V,R,
417,39,39,9,3,47,33,633,['c'],1,left,['2'],5,237,[0.12319584],100,47,medium,plus,dotcolour,alfa,,,93,19,V,R,
418,40,40,9,3,44,36,634,['c'],1,left,['2'],5,156,[0.08091187],100,44,hard,plus,dotcolour,alfa,,,93,19,V,R,
419,41,41,9,3,36,44,784,['c'],0,right,['2'],5,360,[0.09820901],100,44,hard,plus,dotcolour,alfa,,,93,19,V,R,
420,42,0,10,3,33,47,934,['n'],1,right,['2'],5,131,[-0.11133931],100,47,medium,plus,dotcolour,alfa,,,93,19,V,R,
421,43,1,10,3,36,44,833,['c'],0,right,['2'],5,102,[0.1244301],100,44,hard,plus,dotcolour,alfa,,,93,19,V,R,
422,44,2,10,3,47,33,533,['c'],1,left,['2'],5,110,[0.07678555],100,47,medium,plus,dotcolour,alfa,,,93,19,V,R,
423,45,3,10,3,47,33,783,['c'],1,left,['2'],5,147,[0.08537374],100,47,medium,plus,dotcolour,alfa,,,93,19,V,R,
424,46,4,10,3,33,47,1383,['n'],1,right,['2'],5,159,[-0.09567402],100,47,medium,plus,dotcolour,alfa,,,93,19,V,R,
425,47,5,10,3,27,53,734,['n'],1,right,['1'],6,349,[-0.11817398],100,53,easy,plus,dotcolour,alfa,,,93,19,V,R,
426,48,6,10,3,36,44,683,['n'],1,right,['2'],5,133,[-0.04588814],99,44,hard,plus,dotcolour,alfa,,,93,19,V,R,
427,49,7,10,3,47,33,549,['c'],1,left,['2'],5,106,[0.05741823],100,47,medium,plus,dotcolour,alfa,,,93,19,V,R,
428,50,8,10,3,47,33,451,['n'],0,left,['9'],2,677,[0.05957156],7,47,medium,plus,dotcolour,alfa,,,93,19,V,R,
429,51,9,10,3,33,47,1899,['n'],1,right,['2'],5,95,[-0.0643866],100,47,medium,plus,dotcolour,alfa,,,93,19,V,R,
430,52,10,10,3,53,27,700,['c'],1,left,['2'],5,337,[0.0990227],100,53,easy,plus,dotcolour,alfa,,,93,19,V,R,
431,53,11,10,3,33,47,684,['n'],1,right,['2'],5,185,[-0.17784237],100,47,medium,plus,dotcolour,alfa,,,93,19,V,R,
432,54,12,10,3,44,36,599,['c'],1,left,['2'],5,107,[0.08954069],100,44,hard,plus,dotcolour,alfa,,,93,19,V,R,
433,55,13,10,3,36,44,717,['c'],0,right,['2'],5,131,[0.05923774],100,44,hard,plus,dotcolour,alfa,,,93,19,V,R,
434,56,14,10,3,27,53,417,['n'],1,right,['2'],5,159,[-0.02554556],91,53,easy,plus,dotcolour,alfa,,,93,19,V,R,
435,57,15,10,3,47,33,433,['c'],1,left,['2'],5,96,[0.07857684],100,47,medium,plus,dotcolour,alfa,,,93,19,V,R,
436,58,16,10,3,47,33,333,['c'],1,left,['2'],5,96,[0.06940916],100,47,medium,plus,dotcolour,alfa,,,93,19,V,R,
437,59,17,10,3,36,44,367,['c'],0,right,['2'],5,127,[0.08634423],100,44,hard,plus,dotcolour,alfa,,,93,19,V,R,
438,60,18,10,3,53,27,517,['c'],1,left,['2'],5,110,[0.08273576],100,53,easy,plus,dotcolour,alfa,,,93,19,V,R,
439,61,19,10,3,44,36,633,['c'],1,left,['2'],5,89,[0.05258987],100,44,hard,plus,dotcolour,alfa,,,93,19,V,R,
440,62,20,10,3,44,36,634,['c'],1,left,['2'],5,294,[0.09714601],100,44,hard,plus,dotcolour,alfa,,,93,19,V,R,
441,63,21,10,3,53,27,517,['c'],1,left,['2'],5,167,[0.07019034],100,53,easy,plus,dotcolour,alfa,,,93,19,V,R,
442,64,22,10,3,47,33,633,['c'],1,left,['2'],5,168,[0.02608356],91,47,medium,plus,dotcolour,alfa,,,93,19,V,R,
443,65,23,10,3,53,27,517,['c'],1,left,['2'],5,150,[0.12192402],100,53,easy,plus,dotcolour,alfa,,,93,19,V,R,
444,66,24,10,3,53,27,733,['c'],1,left,['2'],5,124,[0.05466282],100,53,easy,plus,dotcolour,alfa,,,93,19,V,R,
445,67,25,10,3,36,44,567,['c'],0,right,['2'],5,193,[0.05275772],99,44,hard,plus,dotcolour,alfa,,,93,19,V,R,
446,68,26,10,3,27,53,566,['n'],1,right,['2'],5,108,[-0.12380752],100,53,easy,plus,dotcolour,alfa,,,93,19,V,R,
447,69,27,10,3,44,36,617,['c'],1,left,['2'],5,176,[0.0304661],93,44,hard,plus,dotcolour,alfa,,,93,19,V,R,
448,70,28,10,3,27,53,866,['n'],1,right,['2'],5,223,[-0.08583847],100,53,easy,plus,dotcolour,alfa,,,93,19,V,R,
449,71,29,10,3,27,53,467,['n'],1,right,['2'],5,133,[-0.08860725],100,53,easy,plus,dotcolour,alfa,,,93,19,V,R,
450,72,30,10,3,53,27,466,['c'],1,left,['2'],5,110,[0.11207974],100,53,easy,plus,dotcolour,alfa,,,93,19,V,R,
451,73,31,10,3,27,53,384,['n'],1,right,['2'],5,92,[-0.10881585],100,53,easy,plus,dotcolour,alfa,,,93,19,V,R,
452,74,32,10,3,33,47,450,['n'],1,right,['2'],5,119,[-0.08264395],100,47,medium,plus,dotcolour,alfa,,,93,19,V,R,
453,75,33,10,3,27,53,451,['n'],1,right,['2'],5,129,[-0.03970076],98,53,easy,plus,dotcolour,alfa,,,93,19,V,R,
454,76,34,10,3,33,47,534,['n'],1,right,['2'],5,112,[-0.09035497],100,47,medium,plus,dotcolour,alfa,,,93,19,V,R,
455,77,35,10,3,53,27,501,['c'],1,left,['2'],5,153,[0.10929122],100,53,easy,plus,dotcolour,alfa,,,93,19,V,R,
456,78,36,10,3,36,44,466,['n'],1,right,['2'],5,121,[-0.10334989],100,44,hard,plus,dotcolour,alfa,,,93,19,V,R,
457,79,37,10,3,36,44,516,['n'],1,right,['2'],5,153,[-0.04946085],99,44,hard,plus,dotcolour,alfa,,,93,19,V,R,
458,80,38,10,3,44,36,300,['c'],1,left,['2'],5,81,[0.06694574],100,44,hard,plus,dotcolour,alfa,,,93,19,V,R,
459,81,39,10,3,33,47,384,['n'],1,right,['2'],5,71,[-0.08008019],100,47,medium,plus,dotcolour,alfa,,,93,19,V,R,
460,82,40,10,3,44,36,400,['c'],1,left,['2'],5,110,[0.16454654],100,44,hard,plus,dotcolour,alfa,,,93,19,V,R,
461,83,41,10,3,44,36,500,['c'],1,left,['2'],5,191,[0.05703927],99,44,hard,plus,dotcolour,alfa,,,93,19,V,R,
462,84,0,11,3,44,36,718,['c'],1,left,['2'],5,81,[0.0474429],100,44,hard,plus,dotcolour,alfa,,,93,19,V,R,
463,85,1,11,3,33,47,484,['n'],1,right,['2'],5,108,[-0.0608862],100,47,medium,plus,dotcolour,alfa,,,93,19,V,R,
464,86,2,11,3,44,36,466,['n'],0,left,['2'],5,125,[-0.04523687],99,44,hard,plus,dotcolour,alfa,,,93,19,V,R,
465,87,3,11,3,53,27,384,['c'],1,left,['2'],5,114,[0.02401841],93,53,easy,plus,dotcolour,alfa,,,93,19,V,R,
466,88,4,11,3,27,53,600,['n'],1,right,['2'],5,111,[-0.13091075],100,53,easy,plus,dotcolour,alfa,,,93,19,V,R,
467,89,5,11,3,27,53,1284,['n'],1,right,['2'],5,128,[-0.12894236],100,53,easy,plus,dotcolour,alfa,,,93,19,V,R,
468,90,6,11,3,33,47,533,['n'],1,right,['2'],5,96,[-0.1476489],100,47,medium,plus,dotcolour,alfa,,,93,19,V,R,
469,91,7,11,3,33,47,349,['c'],0,right,['2'],5,118,[0.05850433],100,47,medium,plus,dotcolour,alfa,,,93,19,V,R,
470,92,8,11,3,53,27,516,['n'],0,left,['9'],2,782,[-0.05354639],90,53,easy,plus,dotcolour,alfa,,,93,19,V,R,
471,93,9,11,3,53,27,634,['c'],1,left,['2'],5,71,[0.09918109],100,53,easy,plus,dotcolour,alfa,,,93,19,V,R,
472,94,10,11,3,33,47,750,['n'],1,right,['2'],5,63,[-0.0862636],100,47,medium,plus,dotcolour,alfa,,,93,19,V,R,
473,95,11,11,3,27,53,783,['c'],0,right,['2'],5,87,[0.09928449],100,53,easy,plus,dotcolour,alfa,,,93,19,V,R,
474,96,12,11,3,47,33,701,['c'],1,left,['2'],5,65,[0.07996428],100,47,medium,plus,dotcolour,alfa,,,93,19,V,R,
475,97,13,11,3,47,33,1133,['c'],1,left,['2'],5,67,[0.10592473],100,47,medium,plus,dotcolour,alfa,,,93,19,V,R,
476,98,14,11,3,36,44,850,['n'],1,right,['2'],5,103,[-0.11504843],100,44,hard,plus,dotcolour,alfa,,,93,19,V,R,
477,99,15,11,3,47,33,734,['c'],1,left,['2'],5,63,[0.0454639],100,47,medium,plus,dotcolour,alfa,,,93,19,V,R,
478,100,16,11,3,44,36,767,['c'],1,left,['2'],5,55,[0.0889993],100,44,hard,plus,dotcolour,alfa,,,93,19,V,R,
479,101,17,11,3,27,53,600,['n'],1,right,['2'],5,110,[-0.08648009],100,53,easy,plus,dotcolour,alfa,,,93,19,V,R,
480,102,18,11,3,36,44,750,['n'],1,right,['2'],5,165,[-0.12797197],100,44,hard,plus,dotcolour,alfa,,,93,19,V,R,
481,103,19,11,3,47,33,650,['c'],1,left,['2'],5,157,[0.02956778],94,47,medium,plus,dotcolour,alfa,,,93,19,V,R,
482,104,20,11,3,36,44,750,['c'],0,right,['2'],5,90,[0.12218217],100,44,hard,plus,dotcolour,alfa,,,93,19,V,R,
483,105,21,11,3,47,33,717,['c'],1,left,['2'],5,123,[0.09826767],100,47,medium,plus,dotcolour,alfa,,,93,19,V,R,
484,106,22,11,3,33,47,1483,['c'],0,right,['2'],5,108,[0.10312014],100,47,medium,plus,dotcolour,alfa,,,93,19,V,R,
485,107,23,11,3,44,36,717,['c'],1,left,['2'],5,125,[0.09212241],100,44,hard,plus,dotcolour,alfa,,,93,19,V,R,
486,108,24,11,3,47,33,533,['c'],1,left,['2'],5,116,[0.04854916],99,47,medium,plus,dotcolour,alfa,,,93,19,V,R,
487,109,25,11,3,27,53,817,['n'],1,right,['2'],5,143,[-0.0453333],99,53,easy,plus,dotcolour,alfa,,,93,19,V,R,
488,110,26,11,3,36,44,833,['c'],0,right,['2'],5,209,[0.00028211],51,44,hard,plus,dotcolour,alfa,,,93,19,V,R,
489,111,27,11,3,53,27,667,['c'],1,left,['2'],5,127,[0.09176744],100,53,easy,plus,dotcolour,alfa,,,93,19,V,R,
490,112,28,11,3,44,36,817,['n'],0,left,['2'],5,178,[-0.01851195],83,44,hard,plus,dotcolour,alfa,,,93,19,V,R,
491,113,29,11,3,33,47,767,['n'],1,right,['2'],5,166,[-0.07360123],100,47,medium,plus,dotcolour,alfa,,,93,19,V,R,
492,114,30,11,3,47,33,550,['c'],1,left,['2'],5,115,[0.0835739],100,47,medium,plus,dotcolour,alfa,,,93,19,V,R,
493,115,31,11,3,27,53,600,['n'],1,right,['2'],5,111,[-0.13409406],100,53,easy,plus,dotcolour,alfa,,,93,19,V,R,
494,116,32,11,3,53,27,484,['c'],1,left,['2'],5,120,[0.11358672],100,53,easy,plus,dotcolour,alfa,,,93,19,V,R,
495,117,33,11,3,53,27,617,['c'],1,left,['2'],5,133,[0.0516211],99,53,easy,plus,dotcolour,alfa,,,93,19,V,R,
496,118,34,11,3,27,53,534,['n'],1,right,['2'],5,179,[-0.16933261],100,53,easy,plus,dotcolour,alfa,,,93,19,V,R,
497,119,35,11,3,36,44,701,['n'],1,right,['2'],5,113,[-0.08799848],100,44,hard,plus,dotcolour,alfa,,,93,19,V,R,
498,120,36,11,3,44,36,633,['c'],1,left,['2'],5,148,[0.01439907],79,44,hard,plus,dotcolour,alfa,,,93,19,V,R,
499,121,37,11,3,33,47,634,['n'],1,right,['2'],5,182,[-0.05139125],99,47,medium,plus,dotcolour,alfa,,,93,19,V,R,
500,122,38,11,3,44,36,651,['c'],1,left,['2'],5,119,[0.01730622],86,44,hard,plus,dotcolour,alfa,,,93,19,V,R,
501,123,39,11,3,36,44,584,['n'],1,right,['2'],5,140,[-0.07207225],100,44,hard,plus,dotcolour,alfa,,,93,19,V,R,
502,124,40,11,3,36,44,683,['c'],0,right,['2'],5,100,[0.04651377],100,44,hard,plus,dotcolour,alfa,,,93,19,V,R,
503,125,41,11,3,53,27,684,['c'],1,left,['2'],5,142,[0.1043987],100,53,easy,plus,dotcolour,alfa,,,93,19,V,R,
504,0,0,12,4,36,44,651,['n'],1,right,['2'],5,111,[-0.06130189],84,44,hard,minus,dotcolour,alfa,,,93,19,V,R,
505,1,1,12,4,27,53,567,['n'],1,right,['2'],5,149,[-0.13203754],96,53,easy,minus,dotcolour,alfa,,,93,19,V,R,
506,2,2,12,4,44,36,617,['c'],1,left,['2'],5,104,[0.01712851],62,44,hard,minus,dotcolour,alfa,,,93,19,V,R,
507,3,3,12,4,33,47,583,['n'],1,right,['2'],5,118,[-0.04021181],74,47,medium,minus,dotcolour,alfa,,,93,19,V,R,
508,4,4,12,4,27,53,483,['n'],1,right,['2'],5,103,[-0.049213],80,53,easy,minus,dotcolour,alfa,,,93,19,V,R,
509,5,5,12,4,53,27,616,['c'],1,left,['2'],5,156,[0.0777324],85,53,easy,minus,dotcolour,alfa,,,93,19,V,R,
510,6,6,12,4,33,47,734,['n'],1,right,['2'],5,106,[-0.02779172],68,47,medium,minus,dotcolour,alfa,,,93,19,V,R,
511,7,7,12,4,36,44,565,['n'],1,right,['2'],5,88,[-0.06437711],88,44,hard,minus,dotcolour,alfa,,,93,19,V,R,
512,8,8,12,4,47,33,418,['c'],1,left,['2'],5,126,[0.08579016],90,47,medium,minus,dotcolour,alfa,,,93,19,V,R,
513,9,9,12,4,47,33,466,['n'],0,left,['2'],5,230,[-0.02683615],62,47,medium,minus,dotcolour,alfa,,,93,19,V,R,
514,10,10,12,4,36,44,750,['n'],1,right,['2'],5,121,[-0.1059204],94,44,hard,minus,dotcolour,alfa,,,93,19,V,R,
515,11,11,12,4,33,47,467,['c'],0,right,['2'],5,202,[0.1055576],89,47,medium,minus,dotcolour,alfa,,,93,19,V,R,
516,12,12,12,4,47,33,517,['c'],1,left,['2'],5,95,[0.01004579],57,47,medium,minus,dotcolour,alfa,,,93,19,V,R,
517,13,13,12,4,27,53,433,['n'],1,right,['2'],5,99,[-0.06738858],87,53,easy,minus,dotcolour,alfa,,,93,19,V,R,
518,14,14,12,4,53,27,567,['c'],1,left,['2'],5,106,[0.09967624],94,53,easy,minus,dotcolour,alfa,,,93,19,V,R,
519,15,15,12,4,47,33,416,['c'],1,left,['2'],5,110,[0.09300428],93,47,medium,minus,dotcolour,alfa,,,93,19,V,R,
520,16,16,12,4,47,33,434,['c'],1,left,['2'],5,98,[0.11015572],96,47,medium,minus,dotcolour,alfa,,,93,19,V,R,
521,17,17,12,4,36,44,900,['c'],0,right,['2'],5,115,[0.06661703],85,44,hard,minus,dotcolour,alfa,,,93,19,V,R,
522,18,18,12,4,44,36,667,['c'],1,left,['2'],5,93,[0.06543288],87,44,hard,minus,dotcolour,alfa,,,93,19,V,R,
523,19,19,12,4,53,27,483,['c'],1,left,['2'],5,104,[0.12573109],97,53,easy,minus,dotcolour,alfa,,,93,19,V,R,
524,20,20,12,4,33,47,483,['n'],1,right,['2'],5,97,[-0.04194907],77,47,medium,minus,dotcolour,alfa,,,93,19,V,R,
525,21,21,12,4,27,53,518,['n'],1,right,['2'],5,90,[-0.06905782],89,53,easy,minus,dotcolour,alfa,,,93,19,V,R,
526,22,22,12,4,44,36,584,['c'],1,left,['2'],5,88,[0.09182703],94,44,hard,minus,dotcolour,alfa,,,93,19,V,R,
527,23,23,12,4,53,27,434,['c'],1,left,['2'],5,85,[0.10314842],96,53,easy,minus,dotcolour,alfa,,,93,19,V,R,
528,24,24,12,4,44,36,500,['n'],0,left,['9'],2,719,[0.07029635],32,44,hard,minus,dotcolour,alfa,,,93,19,V,R,
529,25,25,12,4,36,44,999,['c'],0,right,['2'],5,91,[0.05493647],84,44,hard,minus,dotcolour,alfa,,,93,19,V,R,
530,26,26,12,4,27,53,434,['c'],0,right,['9'],2,655,[-0.20755619],9,53,easy,minus,dotcolour,alfa,,,93,19,V,R,
531,27,27,12,4,33,47,1150,['n'],1,right,['2'],5,191,[-0.07739967],83,47,medium,minus,dotcolour,alfa,,,93,19,V,R,
532,28,28,12,4,27,53,2500,['n'],1,right,['2'],5,141,[-0.11116596],93,53,easy,minus,dotcolour,alfa,,,93,19,V,R,
533,29,29,12,4,44,36,650,['n'],0,left,['2'],5,118,[-0.0768062],88,44,hard,minus,dotcolour,alfa,,,93,19,V,R,
534,30,30,12,4,36,44,700,['n'],1,right,['2'],5,71,[-0.03107284],74,44,hard,minus,dotcolour,alfa,,,93,19,V,R,
535,31,31,12,4,33,47,550,['n'],1,right,['2'],5,111,[-0.032257],71,47,medium,minus,dotcolour,alfa,,,93,19,V,R,
536,32,32,12,4,53,27,483,['c'],1,left,['2'],5,129,[0.13633923],97,53,easy,minus,dotcolour,alfa,,,93,19,V,R,
537,33,33,12,4,44,36,516,['c'],1,left,['2'],5,104,[0.05142337],81,44,hard,minus,dotcolour,alfa,,,93,19,V,R,
538,34,34,12,4,33,47,434,['n'],1,right,['2'],5,140,[-0.11529422],94,47,medium,minus,dotcolour,alfa,,,93,19,V,R,
539,35,35,12,4,53,27,417,['c'],1,left,['2'],5,110,[0.1682769],99,53,easy,minus,dotcolour,alfa,,,93,19,V,R,
540,36,36,12,4,47,33,533,['c'],1,left,['2'],5,142,[0.11925737],95,47,medium,minus,dotcolour,alfa,,,93,19,V,R,
541,37,37,12,4,44,36,783,['c'],1,left,['2'],5,114,[0.09616978],93,44,hard,minus,dotcolour,alfa,,,93,19,V,R,
542,38,38,12,4,27,53,617,['n'],1,right,['2'],5,126,[-0.14288887],97,53,easy,minus,dotcolour,alfa,,,93,19,V,R,
543,39,39,12,4,47,33,533,['c'],1,left,['2'],5,109,[0.07262183],88,47,medium,minus,dotcolour,alfa,,,93,19,V,R,
544,40,40,12,4,53,27,700,['c'],1,left,['2'],5,189,[0.04343228],71,53,easy,minus,dotcolour,alfa,,,93,19,V,R,
545,41,41,12,4,36,44,700,['n'],1,right,['2'],5,123,[-0.02425654],65,44,hard,minus,dotcolour,alfa,,,93,19,V,R,
546,42,0,13,4,33,47,551,['n'],1,right,['2'],5,93,[-0.08677388],93,47,medium,minus,dotcolour,alfa,,,93,19,V,R,
547,43,1,13,4,47,33,467,['c'],1,left,['2'],5,103,[0.08130003],91,47,medium,minus,dotcolour,alfa,,,93,19,V,R,
548,44,2,13,4,44,36,500,['c'],1,left,['2'],5,121,[0.06989744],86,44,hard,minus,dotcolour,alfa,,,93,19,V,R,
549,45,3,13,4,27,53,584,['n'],1,right,['2'],5,126,[-0.14791205],98,53,easy,minus,dotcolour,alfa,,,93,19,V,R,
550,46,4,13,4,33,47,685,['c'],0,right,['2'],5,111,[0.13221781],97,47,medium,minus,dotcolour,alfa,,,93,19,V,R,
551,47,5,13,4,27,53,501,['n'],1,right,['2'],5,159,[-0.10020059],91,53,easy,minus,dotcolour,alfa,,,93,19,V,R,
552,48,6,13,4,44,36,449,['c'],1,left,['2'],5,120,[0.06490339],84,44,hard,minus,dotcolour,alfa,,,93,19,V,R,
553,49,7,13,4,33,47,767,['n'],1,right,['2'],5,174,[-0.04450085],72,47,medium,minus,dotcolour,alfa,,,93,19,V,R,
554,50,8,13,4,47,33,517,['n'],0,left,['2'],5,171,[-0.08319519],86,47,medium,minus,dotcolour,alfa,,,93,19,V,R,
555,51,9,13,4,53,27,450,['c'],1,left,['2'],5,92,[0.08325582],92,53,easy,minus,dotcolour,alfa,,,93,19,V,R,
556,52,10,13,4,27,53,533,['n'],1,right,['2'],5,92,[-0.12330051],97,53,easy,minus,dotcolour,alfa,,,93,19,V,R,
557,53,11,13,4,47,33,417,['c'],1,left,['2'],5,113,[0.1343827],97,47,medium,minus,dotcolour,alfa,,,93,19,V,R,
558,54,12,13,4,53,27,418,['c'],1,left,['2'],5,93,[0.04675968],80,53,easy,minus,dotcolour,alfa,,,93,19,V,R,
559,55,13,13,4,53,27,600,['c'],1,left,['2'],5,202,[0.09225959],86,53,easy,minus,dotcolour,alfa,,,93,19,V,R,
560,56,14,13,4,33,47,933,['n'],1,right,['2'],5,174,[-0.10924784],91,47,medium,minus,dotcolour,alfa,,,93,19,V,R,
561,57,15,13,4,33,47,633,['n'],1,right,['2'],5,103,[-0.07185148],88,47,medium,minus,dotcolour,alfa,,,93,19,V,R,
562,58,16,13,4,53,27,517,['c'],1,left,['2'],5,111,[0.05069088],80,53,easy,minus,dotcolour,alfa,,,93,19,V,R,
563,59,17,13,4,27,53,535,['n'],1,right,['2'],5,135,[-0.07053922],85,53,easy,minus,dotcolour,alfa,,,93,19,V,R,
564,60,18,13,4,44,36,1066,['c'],1,left,['2'],5,72,[0.09399625],96,44,hard,minus,dotcolour,alfa,,,93,19,V,R,
565,61,19,13,4,27,53,516,['n'],1,right,['2'],5,146,[-0.1219909],95,53,easy,minus,dotcolour,alfa,,,93,19,V,R,
566,62,20,13,4,47,33,500,['c'],1,left,['2'],5,170,[0.13623606],95,47,medium,minus,dotcolour,alfa,,,93,19,V,R,
567,63,21,13,4,53,27,550,['c'],1,left,['2'],5,150,[0.10746311],92,53,easy,minus,dotcolour,alfa,,,93,19,V,R,
568,64,22,13,4,53,27,567,['c'],1,left,['2'],5,131,[0.13470276],97,53,easy,minus,dotcolour,alfa,,,93,19,V,R,
569,65,23,13,4,33,47,450,['n'],1,right,['2'],5,117,[-0.03061037],69,47,medium,minus,dotcolour,alfa,,,93,19,V,R,
570,66,24,13,4,44,36,667,['c'],1,left,['2'],5,119,[0.06942988],86,44,hard,minus,dotcolour,alfa,,,93,19,V,R,
571,67,25,13,4,47,33,767,['c'],1,left,['2'],5,157,[0.04512002],74,47,medium,minus,dotcolour,alfa,,,93,19,V,R,
572,68,26,13,4,47,33,501,['c'],1,left,['2'],5,140,[0.05126012],77,47,medium,minus,dotcolour,alfa,,,93,19,V,R,
573,69,27,13,4,44,36,566,['c'],1,left,['2'],5,120,[0.09504412],92,44,hard,minus,dotcolour,alfa,,,93,19,V,R,
574,70,28,13,4,36,44,650,['c'],0,right,['2'],5,123,[0.11559486],95,44,hard,minus,dotcolour,alfa,,,93,19,V,R,
575,71,29,13,4,36,44,501,['c'],0,right,['2'],5,147,[-0.00688716],46,44,hard,minus,dotcolour,alfa,,,93,19,V,R,
576,72,30,13,4,36,44,600,['c'],0,right,['2'],5,22,[0.09561975],100,44,hard,minus,dotcolour,alfa,,,93,19,V,R,
577,73,31,13,4,27,53,516,['n'],1,right,['2'],5,138,[-0.12243566],95,53,easy,minus,dotcolour,alfa,,,93,19,V,R,
578,74,32,13,4,44,36,551,['c'],1,left,['2'],5,64,[0.07765411],94,44,hard,minus,dotcolour,alfa,,,93,19,V,R,
579,75,33,13,4,36,44,416,['c'],0,right,['2'],5,103,[0.10760945],95,44,hard,minus,dotcolour,alfa,,,93,19,V,R,
580,76,34,13,4,47,33,483,['c'],1,left,['2'],5,144,[0.03990303],72,47,medium,minus,dotcolour,alfa,,,93,19,V,R,
581,77,35,13,4,44,36,550,['c'],1,left,['2'],5,54,[0.07345257],95,44,hard,minus,dotcolour,alfa,,,93,19,V,R,
582,78,36,13,4,36,44,484,['n'],1,right,['2'],5,114,[-0.0558614],82,44,hard,minus,dotcolour,alfa,,,93,19,V,R,
583,79,37,13,4,36,44,766,['n'],1,right,['2'],5,160,[-0.09320468],89,44,hard,minus,dotcolour,alfa,,,93,19,V,R,
584,80,38,13,4,36,44,550,['n'],1,right,['2'],5,108,[-0.0837472],91,44,hard,minus,dotcolour,alfa,,,93,19,V,R,
585,81,39,13,4,33,47,551,['n'],1,right,['2'],5,107,[-0.06883793],87,47,medium,minus,dotcolour,alfa,,,93,19,V,R,
586,82,40,13,4,53,27,434,['c'],1,left,['2'],5,102,[0.13217999],98,53,easy,minus,dotcolour,alfa,,,93,19,V,R,
587,83,41,13,4,27,53,467,['n'],1,right,['2'],5,121,[-0.14445464],98,53,easy,minus,dotcolour,alfa,,,93,19,V,R,
588,84,0,14,4,53,27,634,['c'],1,left,['2'],5,91,[0.07713094],91,53,easy,minus,dotcolour,alfa,,,93,19,V,R,
589,85,1,14,4,44,36,1516,['c'],1,left,['2'],5,1012,[0.17756881],83,44,hard,minus,dotcolour,alfa,,,93,19,V,R,
590,86,2,14,4,44,36,650,['c'],1,left,['2'],5,147,[0.07279393],85,44,hard,minus,dotcolour,alfa,,,93,19,V,R,
591,87,3,14,4,27,53,550,['n'],1,right,['2'],5,119,[-0.04332535],76,53,easy,minus,dotcolour,alfa,,,93,19,V,R,
592,88,4,14,4,33,47,517,['n'],1,right,['2'],5,119,[-0.07401079],87,47,medium,minus,dotcolour,alfa,,,93,19,V,R,
593,89,5,14,4,36,44,901,['n'],1,right,['2'],5,192,[-0.11649678],92,44,hard,minus,dotcolour,alfa,,,93,19,V,R,
594,90,6,14,4,33,47,516,['c'],0,right,['2'],5,125,[0.01486758],59,47,medium,minus,dotcolour,alfa,,,93,19,V,R,
595,91,7,14,4,33,47,784,['n'],1,right,['2'],5,121,[-0.09594394],92,47,medium,minus,dotcolour,alfa,,,93,19,V,R,
596,92,8,14,4,33,47,517,['n'],1,right,['2'],5,129,[-0.16534284],98,47,medium,minus,dotcolour,alfa,,,93,19,V,R,
597,93,9,14,4,36,44,666,['n'],1,right,['2'],5,107,[-0.07886595],90,44,hard,minus,dotcolour,alfa,,,93,19,V,R,
598,94,10,14,4,27,53,784,['n'],1,right,['2'],5,112,[-0.09262667],92,53,easy,minus,dotcolour,alfa,,,93,19,V,R,
599,95,11,14,4,44,36,784,['c'],1,left,['2'],5,101,[0.11147802],96,44,hard,minus,dotcolour,alfa,,,93,19,V,R,
600,96,12,14,4,44,36,950,['c'],1,left,['2'],5,133,[-0.0041329],47,44,hard,minus,dotcolour,alfa,,,93,19,V,R,
601,97,13,14,4,53,27,634,['c'],1,left,['2'],5,103,[0.08239142],91,53,easy,minus,dotcolour,alfa,,,93,19,V,R,
602,98,14,14,4,47,33,700,['c'],1,left,['2'],5,177,[0.07664262],84,47,medium,minus,dotcolour,alfa,,,93,19,V,R,
603,99,15,14,4,47,33,534,['c'],1,left,['2'],5,118,[0.06892922],86,47,medium,minus,dotcolour,alfa,,,93,19,V,R,
604,100,16,14,4,33,47,849,['n'],1,right,['2'],5,128,[-0.09162275],91,47,medium,minus,dotcolour,alfa,,,93,19,V,R,
605,101,17,14,4,33,47,600,['n'],1,right,['2'],5,156,[-0.10182795],91,47,medium,minus,dotcolour,alfa,,,93,19,V,R,
606,102,18,14,4,44,36,500,['c'],1,left,['2'],5,123,[0.04469376],76,44,hard,minus,dotcolour,alfa,,,93,19,V,R,
607,103,19,14,4,44,36,883,['c'],1,left,['2'],5,92,[0.00996539],57,44,hard,minus,dotcolour,alfa,,,93,19,V,R,
608,104,20,14,4,53,27,533,['c'],1,left,['2'],5,116,[0.12840128],97,53,easy,minus,dotcolour,alfa,,,93,19,V,R,
609,105,21,14,4,53,27,600,['c'],1,left,['2'],5,89,[0.09306697],94,53,easy,minus,dotcolour,alfa,,,93,19,V,R,
610,106,22,14,4,47,33,617,['n'],0,left,['2'],5,118,[-0.00258466],52,47,medium,minus,dotcolour,alfa,,,93,19,V,R,
611,107,23,14,4,53,27,683,['c'],1,left,['2'],5,104,[0.09710792],94,53,easy,minus,dotcolour,alfa,,,93,19,V,R,
612,108,24,14,4,36,44,683,['n'],1,right,['2'],5,106,[-0.05450268],82,44,hard,minus,dotcolour,alfa,,,93,19,V,R,
613,109,25,14,4,53,27,500,['c'],1,left,['2'],5,42,[0.07321409],96,53,easy,minus,dotcolour,alfa,,,93,19,V,R,
614,110,26,14,4,44,36,750,['c'],1,left,['2'],5,164,[0.06048728],79,44,hard,minus,dotcolour,alfa,,,93,19,V,R,
615,111,27,14,4,36,44,650,['c'],0,right,['2'],5,68,[0.09869843],97,44,hard,minus,dotcolour,alfa,,,93,19,V,R,
616,112,28,14,4,47,33,617,['c'],1,left,['2'],5,98,[0.01659739],62,47,medium,minus,dotcolour,alfa,,,93,19,V,R,
617,113,29,14,4,33,47,601,['n'],1,right,['2'],5,96,[-0.06752594],88,47,medium,minus,dotcolour,alfa,,,93,19,V,R,
618,114,30,14,4,27,53,516,['n'],1,right,['2'],5,105,[-0.07970315],90,53,easy,minus,dotcolour,alfa,,,93,19,V,R,
619,115,31,14,4,36,44,667,['n'],1,right,['2'],5,100,[-0.09870046],94,44,hard,minus,dotcolour,alfa,,,93,19,V,R,
620,116,32,14,4,27,53,467,['n'],1,right,['2'],5,118,[-0.08677318],91,53,easy,minus,dotcolour,alfa,,,93,19,V,R,
621,117,33,14,4,53,27,467,['c'],1,left,['2'],5,136,[0.17339499],99,53,easy,minus,dotcolour,alfa,,,93,19,V,R,
622,118,34,14,4,47,33,583,['c'],1,left,['2'],5,77,[0.08352007],94,47,medium,minus,dotcolour,alfa,,,93,19,V,R,
623,119,35,14,4,47,33,701,['c'],1,left,['2'],5,95,[0.10712726],96,47,medium,minus,dotcolour,alfa,,,93,19,V,R,
624,120,36,14,4,27,53,468,['n'],1,right,['2'],5,121,[-0.0331773],70,53,easy,minus,dotcolour,alfa,,,93,19,V,R,
625,121,37,14,4,27,53,484,['n'],1,right,['2'],5,131,[-0.10752298],94,53,easy,minus,dotcolour,alfa,,,93,19,V,R,
626,122,38,14,4,27,53,467,['n'],1,right,['2'],5,204,[-0.08890854],85,53,easy,minus,dotcolour,alfa,,,93,19,V,R,
627,123,39,14,4,36,44,533,['n'],1,right,['2'],5,152,[-0.06521926],82,44,hard,minus,dotcolour,alfa,,,93,19,V,R,
628,124,40,14,4,47,33,517,['c'],1,left,['2'],5,231,[0.09103952],85,47,medium,minus,dotcolour,alfa,,,93,19,V,R,
629,125,41,14,4,36,44,683,['n'],1,right,['2'],5,91,[-0.08061958],92,44,hard,minus,dotcolour,alfa,,,93,19,V,R,
630,0,0,15,5,36,44,1085,['n'],1,right,['2'],5,137,[-0.06024657],100,44,hard,plus,dotcolour,alfa,,,93,19,V,R,
631,1,1,15,5,44,36,767,['c'],1,left,['2'],5,775,[0.02216942],71,44,hard,plus,dotcolour,alfa,,,93,19,V,R,
632,2,2,15,5,47,33,717,['n'],0,left,['2'],5,108,[-0.0545588],100,47,medium,plus,dotcolour,alfa,,,93,19,V,R,
633,3,3,15,5,33,47,566,['n'],1,right,['2'],5,106,[-0.06410586],100,47,medium,plus,dotcolour,alfa,,,93,19,V,R,
634,4,4,15,5,47,33,483,['c'],1,left,['2'],5,92,[0.05494976],100,47,medium,plus,dotcolour,alfa,,,93,19,V,R,
635,5,5,15,5,44,36,633,['c'],1,left,['2'],5,80,[0.1053396],100,44,hard,plus,dotcolour,alfa,,,93,19,V,R,
636,6,6,15,5,44,36,718,['c'],1,left,['2'],5,73,[0.08859824],100,44,hard,plus,dotcolour,alfa,,,93,19,V,R,
637,7,7,15,5,36,44,666,['c'],0,right,['2'],5,109,[0.05795691],100,44,hard,plus,dotcolour,alfa,,,93,19,V,R,
638,8,8,15,5,36,44,517,['c'],0,right,['2'],5,117,[0.03555198],98,44,hard,plus,dotcolour,alfa,,,93,19,V,R,
639,9,9,15,5,36,44,500,['n'],1,right,['2'],5,157,[-0.07084775],100,44,hard,plus,dotcolour,alfa,,,93,19,V,R,
640,10,10,15,5,27,53,467,['n'],1,right,['2'],5,133,[-0.11491252],100,53,easy,plus,dotcolour,alfa,,,93,19,V,R,
641,11,11,15,5,44,36,417,['c'],1,left,['2'],5,97,[0.06006153],100,44,hard,plus,dotcolour,alfa,,,93,19,V,R,
642,12,12,15,5,36,44,533,['n'],1,right,['2'],5,129,[-0.05886165],100,44,hard,plus,dotcolour,alfa,,,93,19,V,R,
643,13,13,15,5,53,27,484,['c'],1,left,['2'],5,90,[0.16867189],100,53,easy,plus,dotcolour,alfa,,,93,19,V,R,
644,14,14,15,5,33,47,651,['n'],1,right,['2'],5,117,[-0.08929308],100,47,medium,plus,dotcolour,alfa,,,93,19,V,R,
645,15,15,15,5,47,33,550,['c'],1,left,['2'],5,107,[0.07085746],100,47,medium,plus,dotcolour,alfa,,,93,19,V,R,
646,16,16,15,5,27,53,617,['n'],1,right,['2'],5,128,[-0.07171946],100,53,easy,plus,dotcolour,alfa,,,93,19,V,R,
647,17,17,15,5,36,44,733,['c'],0,right,['2'],5,62,[0.05584557],100,44,hard,plus,dotcolour,alfa,,,93,19,V,R,
648,18,18,15,5,47,33,750,['c'],1,left,['2'],5,143,[0.06003205],100,47,medium,plus,dotcolour,alfa,,,93,19,V,R,
649,19,19,15,5,44,36,567,['n'],0,left,['2'],5,100,[-0.06945992],100,44,hard,plus,dotcolour,alfa,,,93,19,V,R,
650,20,20,15,5,47,33,434,['c'],1,left,['2'],5,80,[0.06561173],100,47,medium,plus,dotcolour,alfa,,,93,19,V,R,
651,21,21,15,5,44,36,684,['n'],0,left,['2'],5,106,[-0.05742478],100,44,hard,plus,dotcolour,alfa,,,93,19,V,R,
652,22,22,15,5,33,47,583,['n'],1,right,['2'],5,88,[-0.05488743],100,47,medium,plus,dotcolour,alfa,,,93,19,V,R,
653,23,23,15,5,36,44,600,['n'],1,right,['2'],5,102,[-0.16785379],100,44,hard,plus,dotcolour,alfa,,,93,19,V,R,
654,24,24,15,5,47,33,583,['c'],1,left,['2'],5,53,[0.0958237],100,47,medium,plus,dotcolour,alfa,,,93,19,V,R,
655,25,25,15,5,27,53,666,['n'],1,right,['2'],5,105,[-0.05555358],100,53,easy,plus,dotcolour,alfa,,,93,19,V,R,
656,26,26,15,5,53,27,850,['c'],1,left,['9'],2,124,[0.02368464],92,53,easy,plus,dotcolour,alfa,,,93,19,V,R,
657,27,27,15,5,53,27,617,['c'],1,left,['2'],5,96,[0.0930625],100,53,easy,plus,dotcolour,alfa,,,93,19,V,R,
658,28,28,15,5,53,27,433,['c'],1,left,['2'],5,92,[0.06584113],100,53,easy,plus,dotcolour,alfa,,,93,19,V,R,
659,29,29,15,5,33,47,684,['n'],1,right,['2'],5,126,[-0.10388099],100,47,medium,plus,dotcolour,alfa,,,93,19,V,R,
660,30,30,15,5,27,53,667,['n'],1,right,['2'],5,232,[-0.1501479],100,53,easy,plus,dotcolour,alfa,,,93,19,V,R,
661,31,31,15,5,33,47,1033,['n'],1,right,['2'],5,118,[-0.05789912],100,47,medium,plus,dotcolour,alfa,,,93,19,V,R,
662,32,32,15,5,53,27,434,['c'],1,left,['2'],5,113,[0.09116568],100,53,easy,plus,dotcolour,alfa,,,93,19,V,R,
663,33,33,15,5,27,53,1400,['n'],1,right,['2'],5,174,[-0.08945608],100,53,easy,plus,dotcolour,alfa,,,93,19,V,R,
664,34,34,15,5,27,53,417,['n'],1,right,['2'],5,103,[-0.08039599],100,53,easy,plus,dotcolour,alfa,,,93,19,V,R,
665,35,35,15,5,44,36,533,['c'],1,left,['2'],5,95,[0.0871944],100,44,hard,plus,dotcolour,alfa,,,93,19,V,R,
666,36,36,15,5,33,47,600,['n'],1,right,['2'],5,124,[-0.13286453],100,47,medium,plus,dotcolour,alfa,,,93,19,V,R,
667,37,37,15,5,53,27,450,['c'],1,left,['2'],5,134,[0.07512708],100,53,easy,plus,dotcolour,alfa,,,93,19,V,R,
668,38,38,15,5,33,47,467,['n'],1,right,['2'],5,80,[-0.06085793],100,47,medium,plus,dotcolour,alfa,,,93,19,V,R,
669,39,39,15,5,47,33,750,['c'],1,left,['2'],5,144,[0.10641503],100,47,medium,plus,dotcolour,alfa,,,93,19,V,R,
670,40,40,15,5,27,53,434,['n'],1,right,['2'],5,98,[-0.09717435],100,53,easy,plus,dotcolour,alfa,,,93,19,V,R,
671,41,41,15,5,53,27,416,['c'],1,left,['2'],5,126,[0.07660611],100,53,easy,plus,dotcolour,alfa,,,93,19,V,R,
672,42,0,16,5,27,53,535,['c'],0,right,['9'],2,1592,[-0.28155588],0,53,easy,plus,dotcolour,alfa,,,93,19,V,R,
673,43,1,16,5,44,36,1017,['c'],1,left,['2'],5,113,[0.00939714],73,44,hard,plus,dotcolour,alfa,,,93,19,V,R,
674,44,2,16,5,53,27,500,['c'],1,left,['2'],5,121,[0.03910746],98,53,easy,plus,dotcolour,alfa,,,93,19,V,R,
675,45,3,16,5,27,53,467,['n'],1,right,['2'],5,203,[-0.05209014],98,53,easy,plus,dotcolour,alfa,,,93,19,V,R,
676,46,4,16,5,44,36,700,['c'],1,left,['2'],5,129,[0.06705011],100,44,hard,plus,dotcolour,alfa,,,93,19,V,R,
677,47,5,16,5,47,33,533,['c'],1,left,['2'],5,127,[0.15338546],100,47,medium,plus,dotcolour,alfa,,,93,19,V,R,
678,48,6,16,5,33,47,533,['n'],1,right,['2'],5,135,[-0.09305801],100,47,medium,plus,dotcolour,alfa,,,93,19,V,R,
679,49,7,16,5,27,53,967,['n'],1,right,['2'],5,91,[-0.09440121],100,53,easy,plus,dotcolour,alfa,,,93,19,V,R,
680,50,8,16,5,44,36,584,['c'],1,left,['2'],5,129,[0.07886058],100,44,hard,plus,dotcolour,alfa,,,93,19,V,R,
681,51,9,16,5,47,33,532,['c'],1,left,['2'],5,96,[0.14408078],100,47,medium,plus,dotcolour,alfa,,,93,19,V,R,
682,52,10,16,5,53,27,466,['c'],1,left,['2'],5,67,[0.13298439],100,53,easy,plus,dotcolour,alfa,,,93,19,V,R,
683,53,11,16,5,36,44,700,['n'],1,right,['2'],5,101,[-0.04713537],100,44,hard,plus,dotcolour,alfa,,,93,19,V,R,
684,54,12,16,5,33,47,517,['n'],1,right,['2'],5,70,[-0.06083171],100,47,medium,plus,dotcolour,alfa,,,93,19,V,R,
685,55,13,16,5,47,33,367,['c'],1,left,['2'],5,78,[0.05584837],100,47,medium,plus,dotcolour,alfa,,,93,19,V,R,
686,56,14,16,5,44,36,1534,['c'],1,left,['2'],5,919,[-0.00440467],46,44,hard,plus,dotcolour,alfa,,,93,19,V,R,
687,57,15,16,5,33,47,967,['n'],1,right,['2'],5,92,[-0.11742598],100,47,medium,plus,dotcolour,alfa,,,93,19,V,R,
688,58,16,16,5,53,27,417,['n'],0,left,['2'],5,97,[-0.05965103],100,53,easy,plus,dotcolour,alfa,,,93,19,V,R,
689,59,17,16,5,33,47,517,['n'],1,right,['2'],5,97,[-0.08083476],100,47,medium,plus,dotcolour,alfa,,,93,19,V,R,
690,60,18,16,5,47,33,433,['c'],1,left,['2'],5,117,[0.05036965],100,47,medium,plus,dotcolour,alfa,,,93,19,V,R,
691,61,19,16,5,47,33,666,['c'],1,left,['2'],5,271,[0.06779381],99,47,medium,plus,dotcolour,alfa,,,93,19,V,R,
692,62,20,16,5,44,36,883,['c'],1,left,['2'],5,170,[0.04970092],99,44,hard,plus,dotcolour,alfa,,,93,19,V,R,
693,63,21,16,5,27,53,484,['n'],1,right,['2'],5,90,[-0.03755838],99,53,easy,plus,dotcolour,alfa,,,93,19,V,R,
694,64,22,16,5,27,53,417,['n'],1,right,['2'],5,111,[-0.07972483],100,53,easy,plus,dotcolour,alfa,,,93,19,V,R,
695,65,23,16,5,53,27,534,['c'],1,left,['2'],5,206,[0.15955918],100,53,easy,plus,dotcolour,alfa,,,93,19,V,R,
696,66,24,16,5,44,36,750,['c'],1,left,['2'],5,137,[0.06028941],100,44,hard,plus,dotcolour,alfa,,,93,19,V,R,
697,67,25,16,5,36,44,566,['n'],1,right,['2'],5,143,[-0.16172803],100,44,hard,plus,dotcolour,alfa,,,93,19,V,R,
698,68,26,16,5,36,44,882,['n'],1,right,['2'],5,127,[-0.10096389],100,44,hard,plus,dotcolour,alfa,,,93,19,V,R,
699,69,27,16,5,36,44,467,['n'],1,right,['2'],5,95,[-0.0594437],100,44,hard,plus,dotcolour,alfa,,,93,19,V,R,
700,70,28,16,5,36,44,567,['n'],1,right,['2'],5,118,[-0.12291513],100,44,hard,plus,dotcolour,alfa,,,93,19,V,R,
701,71,29,16,5,27,53,650,['n'],1,right,['2'],5,65,[-0.05802006],100,53,easy,plus,dotcolour,alfa,,,93,19,V,R,
702,72,30,16,5,36,44,434,['n'],1,right,['2'],5,110,[-0.09044165],100,44,hard,plus,dotcolour,alfa,,,93,19,V,R,
703,73,31,16,5,36,44,600,['n'],1,right,['2'],5,83,[-0.06231398],100,44,hard,plus,dotcolour,alfa,,,93,19,V,R,
704,74,32,16,5,53,27,467,['c'],1,left,['2'],5,142,[0.08774124],100,53,easy,plus,dotcolour,alfa,,,93,19,V,R,
705,75,33,16,5,44,36,450,['c'],1,left,['2'],5,72,[0.05328892],100,44,hard,plus,dotcolour,alfa,,,93,19,V,R,
706,76,34,16,5,33,47,700,['n'],1,right,['2'],5,106,[-0.12642595],100,47,medium,plus,dotcolour,alfa,,,93,19,V,R,
707,77,35,16,5,53,27,535,['c'],1,left,['2'],5,122,[0.0732958],100,53,easy,plus,dotcolour,alfa,,,93,19,V,R,
708,78,36,16,5,33,47,516,['n'],1,right,['2'],5,83,[-0.07910407],100,47,medium,plus,dotcolour,alfa,,,93,19,V,R,
709,79,37,16,5,33,47,450,['n'],1,right,['2'],5,118,[-0.07569301],100,47,medium,plus,dotcolour,alfa,,,93,19,V,R,
710,80,38,16,5,47,33,433,['c'],1,left,['2'],5,154,[0.0892304],100,47,medium,plus,dotcolour,alfa,,,93,19,V,R,
711,81,39,16,5,53,27,350,['n'],0,left,['9'],2,567,[0.08856137],1,53,easy,plus,dotcolour,alfa,,,93,19,V,R,
712,82,40,16,5,27,53,567,['n'],1,right,['2'],5,91,[-0.13829535],100,53,easy,plus,dotcolour,alfa,,,93,19,V,R,
713,83,41,16,5,47,33,415,['c'],1,left,['2'],5,104,[0.07327573],100,47,medium,plus,dotcolour,alfa,,,93,19,V,R,
714,84,0,17,5,36,44,634,['n'],1,right,['2'],5,113,[-0.08531022],100,44,hard,plus,dotcolour,alfa,,,93,19,V,R,
715,85,1,17,5,47,33,534,['c'],1,left,['2'],5,128,[0.09317607],100,47,medium,plus,dotcolour,alfa,,,93,19,V,R,
716,86,2,17,5,33,47,417,['n'],1,right,['2'],5,107,[-0.05618032],100,47,medium,plus,dotcolour,alfa,,,93,19,V,R,
717,87,3,17,5,36,44,400,['n'],1,right,['2'],5,88,[-0.08288664],100,44,hard,plus,dotcolour,alfa,,,93,19,V,R,
718,88,4,17,5,53,27,717,['c'],1,left,['2'],5,162,[0.09595212],100,53,easy,plus,dotcolour,alfa,,,93,19,V,R,
719,89,5,17,5,53,27,1850,['n'],0,left,['8'],3,1178,[0.13039037],1,53,easy,plus,dotcolour,alfa,,,93,19,V,R,
720,90,6,17,5,27,53,550,['n'],1,right,['2'],5,1006,[-0.48075274],100,53,easy,plus,dotcolour,alfa,,,93,19,V,R,
721,91,7,17,5,53,27,600,['c'],1,left,['2'],5,103,[0.12358812],100,53,easy,plus,dotcolour,alfa,,,93,19,V,R,
722,92,8,17,5,36,44,484,['n'],1,right,['2'],5,129,[-0.07319658],100,44,hard,plus,dotcolour,alfa,,,93,19,V,R,
723,93,9,17,5,27,53,533,['n'],1,right,['2'],5,128,[-0.08451353],100,53,easy,plus,dotcolour,alfa,,,93,19,V,R,
724,94,10,17,5,53,27,500,['c'],1,left,['2'],5,128,[0.04800929],99,53,easy,plus,dotcolour,alfa,,,93,19,V,R,
725,95,11,17,5,33,47,484,['n'],1,right,['2'],5,144,[0.0042704],40,47,medium,plus,dotcolour,alfa,,,93,19,V,R,
726,96,12,17,5,44,36,400,['c'],1,left,['2'],5,115,[0.08632241],100,44,hard,plus,dotcolour,alfa,,,93,19,V,R,
727,97,13,17,5,33,47,451,['n'],1,right,['2'],5,126,[-0.04723046],99,47,medium,plus,dotcolour,alfa,,,93,19,V,R,
728,98,14,17,5,44,36,1083,['c'],1,left,['1'],6,159,[0.04381389],98,44,hard,plus,dotcolour,alfa,,,93,19,V,R,
729,99,15,17,5,44,36,733,['n'],0,left,['9'],2,716,[0.08566578],3,44,hard,plus,dotcolour,alfa,,,93,19,V,R,
730,100,16,17,5,47,33,583,['c'],1,left,['2'],5,106,[0.06321158],100,47,medium,plus,dotcolour,alfa,,,93,19,V,R,
731,101,17,17,5,33,47,700,['n'],1,right,['2'],5,131,[-0.05937428],100,47,medium,plus,dotcolour,alfa,,,93,19,V,R,
732,102,18,17,5,36,44,534,['n'],1,right,['2'],5,362,[-0.11601162],100,44,hard,plus,dotcolour,alfa,,,93,19,V,R,
733,103,19,17,5,44,36,466,['c'],1,left,['2'],5,130,[0.10112391],100,44,hard,plus,dotcolour,alfa,,,93,19,V,R,
734,104,20,17,5,33,47,699,['n'],1,right,['2'],5,139,[-0.0394079],98,47,medium,plus,dotcolour,alfa,,,93,19,V,R,
735,105,21,17,5,36,44,651,['c'],0,right,['2'],5,108,[0.05547016],100,44,hard,plus,dotcolour,alfa,,,93,19,V,R,
736,106,22,17,5,27,53,534,['n'],1,right,['2'],5,147,[-0.10291999],100,53,easy,plus,dotcolour,alfa,,,93,19,V,R,
737,107,23,17,5,27,53,500,['n'],1,right,['2'],5,131,[-0.13897127],100,53,easy,plus,dotcolour,alfa,,,93,19,V,R,
738,108,24,17,5,47,33,633,['c'],1,left,['2'],5,117,[0.10059361],100,47,medium,plus,dotcolour,alfa,,,93,19,V,R,
739,109,25,17,5,27,53,484,['n'],1,right,['2'],5,126,[-0.09712535],100,53,easy,plus,dotcolour,alfa,,,93,19,V,R,
740,110,26,17,5,36,44,650,['n'],1,right,['2'],5,104,[-0.06814303],100,44,hard,plus,dotcolour,alfa,,,93,19,V,R,
741,111,27,17,5,47,33,600,['c'],1,left,['2'],5,133,[0.10427007],100,47,medium,plus,dotcolour,alfa,,,93,19,V,R,
742,112,28,17,5,44,36,1750,['n'],0,left,['2'],5,108,[-0.07987081],100,44,hard,plus,dotcolour,alfa,,,93,19,V,R,
743,113,29,17,5,47,33,550,['c'],1,left,['2'],5,90,[0.06133625],100,47,medium,plus,dotcolour,alfa,,,93,19,V,R,
744,114,30,17,5,53,27,484,['n'],0,left,['9'],2,1036,[0.09868132],3,53,easy,plus,dotcolour,alfa,,,93,19,V,R,
745,115,31,17,5,33,47,733,['n'],1,right,['2'],5,54,[-0.09098235],100,47,medium,plus,dotcolour,alfa,,,93,19,V,R,
746,116,32,17,5,47,33,567,['c'],1,left,['2'],5,87,[0.0849485],100,47,medium,plus,dotcolour,alfa,,,93,19,V,R,
747,117,33,17,5,44,36,483,['c'],1,left,['2'],5,138,[0.15270084],100,44,hard,plus,dotcolour,alfa,,,93,19,V,R,
748,118,34,17,5,27,53,600,['n'],1,right,['2'],5,110,[-0.09911938],100,53,easy,plus,dotcolour,alfa,,,93,19,V,R,
749,119,35,17,5,36,44,834,['n'],1,right,['2'],5,129,[-0.07015619],100,44,hard,plus,dotcolour,alfa,,,93,19,V,R,
750,120,36,17,5,53,27,634,['c'],1,left,['2'],5,188,[0.15614436],100,53,easy,plus,dotcolour,alfa,,,93,19,V,R,
751,121,37,17,5,47,33,684,['c'],1,left,['2'],5,155,[0.06211769],100,47,medium,plus,dotcolour,alfa,,,93,19,V,R,
752,122,38,17,5,27,53,550,['n'],1,right,['2'],5,104,[-0.08325261],100,53,easy,plus,dotcolour,alfa,,,93,19,V,R,
753,123,39,17,5,33,47,800,['n'],1,right,['2'],5,133,[-0.15190765],100,47,medium,plus,dotcolour,alfa,,,93,19,V,R,
754,124,40,17,5,53,27,467,['c'],1,left,['2'],5,142,[0.0580119],100,53,easy,plus,dotcolour,alfa,,,93,19,V,R,
755,125,41,17,5,44,36,750,['n'],0,left,['2'],5,172,[-0.04716097],98,44,hard,plus,dotcolour,alfa,,,93,19,V,R,
,,,,,,,,,,,,,,,,,,,,,1, ,93,19,V,R,
,,,,,,,,,,,,,,,,,,,,,2,['h'],93,19,V,R,
,,,,,,,,,,,,,,,,,,,,,3,['h'],93,19,V,R,
,,,,,,,,,,,,,,,,,,,,,5,[],93,19,V,R,
