trial,withinphasetrial,withinblocktrial,block,phase,dotsLeft,dotsRight,rt,resp,cor,cresp,conf_press,cj,RTconf,ev,fb,diff,difflevel,condition,task,manip,questionID,questionResp,sub,age,gender,handedness,
0,0,0,0,0,53,27,634,['c'],1,left,['1'],6,2105,[0.39552001],92,53,easy,minus,dotcolour,alfa,,,89,18,V,R,
1,1,1,0,0,36,44,1482,['c'],0,right,['3'],4,1978,[-0.23756658],18,44,hard,minus,dotcolour,alfa,,,89,18,V,R,
2,2,2,0,0,53,27,3015,['c'],1,left,['1'],6,2388,[0.38896443],91,53,easy,minus,dotcolour,alfa,,,89,18,V,R,
3,3,3,0,0,44,36,1797,['n'],0,left,['8'],3,1894,[0.07118856],39,44,hard,minus,dotcolour,alfa,,,89,18,V,R,
4,4,4,0,0,33,47,1950,['c'],0,right,['3'],4,1085,[-0.11232969],27,47,medium,minus,dotcolour,alfa,,,89,18,V,R,
5,5,5,0,0,53,27,1364,['c'],1,left,['1'],6,597,[0.14083834],84,53,easy,minus,dotcolour,alfa,,,89,18,V,R,
6,6,6,0,0,33,47,2282,['c'],0,right,['2'],5,1155,[0.19131836],83,47,medium,minus,dotcolour,alfa,,,89,18,V,R,
7,7,7,0,0,36,44,1499,['c'],0,right,['2'],5,738,[0.0480926],62,44,hard,minus,dotcolour,alfa,,,89,18,V,R,
8,8,8,0,0,36,44,1416,['n'],1,right,['3'],4,1630,[-0.21213755],82,44,hard,minus,dotcolour,alfa,,,89,18,V,R,
9,9,9,0,0,53,27,1334,['c'],1,left,['1'],6,592,[0.23240194],94,53,easy,minus,dotcolour,alfa,,,89,18,V,R,
10,10,10,0,0,47,33,1165,['c'],1,left,['2'],5,739,[0.25868255],94,47,medium,minus,dotcolour,alfa,,,89,18,V,R,
11,11,11,0,0,47,33,900,['c'],1,left,['2'],5,931,[0.19093364],86,47,medium,minus,dotcolour,alfa,,,89,18,V,R,
12,12,12,0,0,27,53,1049,['n'],1,right,['2'],5,469,[-0.07648742],73,53,easy,minus,dotcolour,alfa,,,89,18,V,R,
13,13,13,0,0,44,36,1097,['c'],1,left,['3'],4,1743,[0.34005739],91,44,hard,minus,dotcolour,alfa,,,89,18,V,R,
14,14,14,0,0,33,47,1082,['n'],1,right,['3'],4,655,[-0.08385487],72,47,medium,minus,dotcolour,alfa,,,89,18,V,R,
15,15,15,0,0,36,44,1481,['c'],0,right,['2'],5,619,[0.05053245],64,44,hard,minus,dotcolour,alfa,,,89,18,V,R,
16,16,16,0,0,36,44,1682,['n'],1,right,['3'],4,665,[-0.1287979],81,44,hard,minus,dotcolour,alfa,,,89,18,V,R,
17,17,17,0,0,44,36,1098,['c'],1,left,['3'],4,572,[-0.00344272],49,44,hard,minus,dotcolour,alfa,,,89,18,V,R,
18,18,18,0,0,27,53,1165,['n'],1,right,['2'],5,920,[-0.16118651],82,53,easy,minus,dotcolour,alfa,,,89,18,V,R,
19,19,19,0,0,47,33,3247,['c'],1,left,['2'],5,522,[-0.0136026],46,47,medium,minus,dotcolour,alfa,,,89,18,V,R,
20,20,20,0,0,36,44,766,['n'],1,right,['3'],4,704,[-0.05439869],64,44,hard,minus,dotcolour,alfa,,,89,18,V,R,
21,21,21,0,0,27,53,865,['n'],1,right,['3'],4,475,[-0.13808719],86,53,easy,minus,dotcolour,alfa,,,89,18,V,R,
22,22,22,0,0,44,36,865,['c'],1,left,['3'],4,854,[0.0946355],72,44,hard,minus,dotcolour,alfa,,,89,18,V,R,
23,23,23,0,0,44,36,1499,['c'],1,left,['8'],3,826,[0.15307982],82,44,hard,minus,dotcolour,alfa,,,89,18,V,R,
24,24,24,0,0,44,36,1199,['c'],1,left,['3'],4,418,[0.15426903],90,44,hard,minus,dotcolour,alfa,,,89,18,V,R,
25,25,25,0,0,27,53,965,['n'],1,right,['3'],4,500,[-0.11264475],81,53,easy,minus,dotcolour,alfa,,,89,18,V,R,
26,26,26,0,0,53,27,915,['c'],1,left,['3'],4,437,[0.06984102],72,53,easy,minus,dotcolour,alfa,,,89,18,V,R,
27,27,27,0,0,27,53,866,['n'],1,right,['3'],4,491,[-0.24608324],96,53,easy,minus,dotcolour,alfa,,,89,18,V,R,
28,28,28,0,0,47,33,1516,['c'],1,left,['3'],4,605,[0.19804974],91,47,medium,minus,dotcolour,alfa,,,89,18,V,R,
29,29,29,0,0,27,53,749,['n'],1,right,['3'],4,455,[-0.17133549],91,53,easy,minus,dotcolour,alfa,,,89,18,V,R,
30,30,30,0,0,53,27,782,['c'],1,left,['1'],6,775,[0.3629294],98,53,easy,minus,dotcolour,alfa,,,89,18,V,R,
31,31,31,0,0,33,47,866,['n'],1,right,['1'],6,727,[-0.25575551],94,47,medium,minus,dotcolour,alfa,,,89,18,V,R,
32,32,32,0,0,47,33,866,['c'],1,left,['2'],5,800,[0.17000207],85,47,medium,minus,dotcolour,alfa,,,89,18,V,R,
33,33,33,0,0,44,36,1297,['c'],1,left,['3'],4,390,[0.01995166],57,44,hard,minus,dotcolour,alfa,,,89,18,V,R,
34,34,34,0,0,47,33,865,['c'],1,left,['3'],4,373,[0.10945322],83,47,medium,minus,dotcolour,alfa,,,89,18,V,R,
35,35,35,0,0,33,47,1050,['n'],1,right,['1'],6,421,[-0.13896179],87,47,medium,minus,dotcolour,alfa,,,89,18,V,R,
36,36,36,0,0,36,44,1365,['n'],1,right,['1'],6,527,[-0.12741464],83,44,hard,minus,dotcolour,alfa,,,89,18,V,R,
37,37,37,0,0,27,53,749,['n'],1,right,['1'],6,470,[-0.17301223],91,53,easy,minus,dotcolour,alfa,,,89,18,V,R,
38,38,38,0,0,47,33,832,['c'],1,left,['2'],5,475,[0.25078362],96,47,medium,minus,dotcolour,alfa,,,89,18,V,R,
39,39,39,0,0,33,47,1032,['n'],1,right,['1'],6,471,[-0.14816726],87,47,medium,minus,dotcolour,alfa,,,89,18,V,R,
40,40,40,0,0,33,47,833,['n'],1,right,['2'],5,381,[-0.08517934],78,47,medium,minus,dotcolour,alfa,,,89,18,V,R,
41,41,41,0,0,53,27,681,['c'],1,left,['1'],6,436,[0.17355994],91,53,easy,minus,dotcolour,alfa,,,89,18,V,R,
42,42,0,1,0,47,33,1117,['n'],0,left,['3'],4,999,[0.13379801],23,47,medium,minus,dotcolour,alfa,,,89,18,V,R,
43,43,1,1,0,47,33,1500,['c'],1,left,['3'],4,620,[0.09092472],74,47,medium,minus,dotcolour,alfa,,,89,18,V,R,
44,44,2,1,0,53,27,1282,['c'],1,left,['1'],6,297,[0.11651362],87,53,easy,minus,dotcolour,alfa,,,89,18,V,R,
45,45,3,1,0,33,47,951,['n'],1,right,['2'],5,433,[-0.10800963],81,47,medium,minus,dotcolour,alfa,,,89,18,V,R,
46,46,4,1,0,27,53,1515,['n'],1,right,['1'],6,877,[-0.05968372],64,53,easy,minus,dotcolour,alfa,,,89,18,V,R,
47,47,5,1,0,53,27,866,['c'],1,left,['1'],6,313,[0.18490843],95,53,easy,minus,dotcolour,alfa,,,89,18,V,R,
48,48,6,1,0,47,33,1181,['c'],1,left,['2'],5,527,[0.04307344],63,47,medium,minus,dotcolour,alfa,,,89,18,V,R,
49,49,7,1,0,33,47,1565,['n'],1,right,['1'],6,844,[-0.04526499],61,47,medium,minus,dotcolour,alfa,,,89,18,V,R,
50,50,8,1,0,36,44,1550,['n'],1,right,['2'],5,479,[0.01038068],47,44,hard,minus,dotcolour,alfa,,,89,18,V,R,
51,51,9,1,0,53,27,815,['c'],1,left,['1'],6,300,[0.0046428],52,53,easy,minus,dotcolour,alfa,,,89,18,V,R,
52,52,10,1,0,47,33,1567,['c'],1,left,['1'],6,507,[0.0576634],67,47,medium,minus,dotcolour,alfa,,,89,18,V,R,
53,53,11,1,0,44,36,1747,['c'],1,left,['3'],4,818,[0.13846694],80,44,hard,minus,dotcolour,alfa,,,89,18,V,R,
54,54,12,1,0,36,44,1265,['n'],1,right,['3'],4,640,[-0.07133826],69,44,hard,minus,dotcolour,alfa,,,89,18,V,R,
55,55,13,1,0,47,33,966,['c'],1,left,['3'],4,489,[0.18194088],91,47,medium,minus,dotcolour,alfa,,,89,18,V,R,
56,56,14,1,0,27,53,698,['n'],1,right,['2'],5,1035,[-0.24082684],89,53,easy,minus,dotcolour,alfa,,,89,18,V,R,
57,57,15,1,0,53,27,798,['c'],1,left,['1'],6,451,[0.10321508],80,53,easy,minus,dotcolour,alfa,,,89,18,V,R,
58,58,16,1,0,33,47,947,['n'],1,right,['2'],5,813,[-0.16494227],84,47,medium,minus,dotcolour,alfa,,,89,18,V,R,
59,59,17,1,0,44,36,1415,['c'],1,left,['3'],4,717,[0.15300468],84,44,hard,minus,dotcolour,alfa,,,89,18,V,R,
60,60,18,1,0,27,53,848,['n'],1,right,['1'],6,416,[-0.25253718],97,53,easy,minus,dotcolour,alfa,,,89,18,V,R,
61,61,19,1,0,47,33,1332,['c'],1,left,['3'],4,395,[0.08203234],76,47,medium,minus,dotcolour,alfa,,,89,18,V,R,
62,62,20,1,0,44,36,867,['c'],1,left,['2'],5,1795,[0.0811103],63,44,hard,minus,dotcolour,alfa,,,89,18,V,R,
63,63,21,1,0,33,47,1349,['n'],1,right,['3'],4,701,[-0.09248019],73,47,medium,minus,dotcolour,alfa,,,89,18,V,R,
64,64,22,1,0,33,47,1232,['n'],1,right,['3'],4,369,[-0.21021826],96,47,medium,minus,dotcolour,alfa,,,89,18,V,R,
65,65,23,1,0,27,53,698,['n'],1,right,['1'],6,328,[-0.17317435],94,53,easy,minus,dotcolour,alfa,,,89,18,V,R,
66,66,24,1,0,33,47,916,['n'],1,right,['2'],5,560,[-0.1116263],79,47,medium,minus,dotcolour,alfa,,,89,18,V,R,
67,67,25,1,0,36,44,1032,['n'],1,right,['3'],4,474,[-0.09683122],78,44,hard,minus,dotcolour,alfa,,,89,18,V,R,
68,68,26,1,0,53,27,782,['c'],1,left,['1'],6,408,[0.15065718],89,53,easy,minus,dotcolour,alfa,,,89,18,V,R,
69,69,27,1,0,44,36,934,['c'],1,left,['1'],6,292,[0.20158565],97,44,hard,minus,dotcolour,alfa,,,89,18,V,R,
70,70,28,1,0,44,36,765,['c'],1,left,['2'],5,667,[0.12689887],80,44,hard,minus,dotcolour,alfa,,,89,18,V,R,
71,71,29,1,0,27,53,764,['n'],1,right,['1'],6,588,[-0.03766259],61,53,easy,minus,dotcolour,alfa,,,89,18,V,R,
72,72,30,1,0,36,44,1066,['n'],1,right,['1'],6,267,[0.05683522],27,44,hard,minus,dotcolour,alfa,,,89,18,V,R,
73,73,31,1,0,36,44,1148,['c'],0,right,['2'],5,411,[0.10550638],81,44,hard,minus,dotcolour,alfa,,,89,18,V,R,
74,74,32,1,0,47,33,1032,['c'],1,left,['3'],4,739,[0.17733538],86,47,medium,minus,dotcolour,alfa,,,89,18,V,R,
75,75,33,1,0,53,27,682,['c'],1,left,['3'],4,332,[0.09280227],81,53,easy,minus,dotcolour,alfa,,,89,18,V,R,
76,76,34,1,0,36,44,1031,['n'],1,right,['2'],5,743,[-0.25031735],93,44,hard,minus,dotcolour,alfa,,,89,18,V,R,
77,77,35,1,0,36,44,1065,['n'],1,right,['3'],4,432,[-0.00126964],50,44,hard,minus,dotcolour,alfa,,,89,18,V,R,
78,78,36,1,0,44,36,1564,['c'],1,left,['3'],4,890,[0.18720841],86,44,hard,minus,dotcolour,alfa,,,89,18,V,R,
79,79,37,1,0,44,36,1014,['c'],1,left,['3'],4,327,[0.19264749],95,44,hard,minus,dotcolour,alfa,,,89,18,V,R,
80,80,38,1,0,53,27,615,['c'],1,left,['1'],6,354,[0.15964802],92,53,easy,minus,dotcolour,alfa,,,89,18,V,R,
81,81,39,1,0,33,47,1164,['n'],1,right,['2'],5,463,[-0.07354524],73,47,medium,minus,dotcolour,alfa,,,89,18,V,R,
82,82,40,1,0,27,53,897,['n'],1,right,['2'],5,938,[-0.17027094],83,53,easy,minus,dotcolour,alfa,,,89,18,V,R,
83,83,41,1,0,27,53,966,['n'],1,right,['3'],4,423,[-0.15591419],90,53,easy,minus,dotcolour,alfa,,,89,18,V,R,
84,84,0,2,0,44,36,1083,['c'],1,left,['3'],4,407,[0.04666872],66,44,hard,minus,dotcolour,alfa,,,89,18,V,R,
85,85,1,2,0,33,47,683,['n'],1,right,['1'],6,501,[-0.12322037],83,47,medium,minus,dotcolour,alfa,,,89,18,V,R,
86,86,2,2,0,36,44,1148,['n'],1,right,['2'],5,437,[-0.10482485],81,44,hard,minus,dotcolour,alfa,,,89,18,V,R,
87,87,3,2,0,53,27,716,['c'],1,left,['3'],4,528,[0.07445559],72,53,easy,minus,dotcolour,alfa,,,89,18,V,R,
88,88,4,2,0,27,53,931,['n'],1,right,['1'],6,974,[-0.04548406],60,53,easy,minus,dotcolour,alfa,,,89,18,V,R,
89,89,5,2,0,53,27,1164,['c'],1,left,['1'],6,1603,[0.40463959],95,53,easy,minus,dotcolour,alfa,,,89,18,V,R,
90,90,6,2,0,47,33,982,['c'],1,left,['1'],6,268,[0.11997306],89,47,medium,minus,dotcolour,alfa,,,89,18,V,R,
91,91,7,2,0,53,27,614,['c'],1,left,['1'],6,291,[0.10287001],85,53,easy,minus,dotcolour,alfa,,,89,18,V,R,
92,92,8,2,0,47,33,849,['c'],1,left,['2'],5,526,[0.09820896],77,47,medium,minus,dotcolour,alfa,,,89,18,V,R,
93,93,9,2,0,36,44,898,['n'],1,right,['2'],5,943,[-0.05448534],62,44,hard,minus,dotcolour,alfa,,,89,18,V,R,
94,94,10,2,0,47,33,963,['c'],1,left,['3'],4,860,[0.02814976],57,47,medium,minus,dotcolour,alfa,,,89,18,V,R,
95,95,11,2,0,53,27,3497,['c'],1,left,['1'],6,391,[0.12393166],86,53,easy,minus,dotcolour,alfa,,,89,18,V,R,
96,96,12,2,0,33,47,866,['n'],1,right,['8'],3,1110,[-0.07662981],66,47,medium,minus,dotcolour,alfa,,,89,18,V,R,
97,97,13,2,0,36,44,1249,['n'],1,right,['3'],4,977,[0.03433544],42,44,hard,minus,dotcolour,alfa,,,89,18,V,R,
98,98,14,2,0,33,47,1063,['c'],0,right,['3'],4,329,[0.15429606],92,47,medium,minus,dotcolour,alfa,,,89,18,V,R,
99,99,15,2,0,33,47,1766,['n'],1,right,['1'],6,407,[-0.12036504],85,47,medium,minus,dotcolour,alfa,,,89,18,V,R,
100,100,16,2,0,44,36,850,['c'],1,left,['2'],5,998,[0.24668186],90,44,hard,minus,dotcolour,alfa,,,89,18,V,R,
101,101,17,2,0,47,33,733,['c'],1,left,['1'],6,1018,[0.20100223],86,47,medium,minus,dotcolour,alfa,,,89,18,V,R,
102,102,18,2,0,27,53,798,['n'],1,right,['1'],6,346,[-0.04515795],67,53,easy,minus,dotcolour,alfa,,,89,18,V,R,
103,103,19,2,0,47,33,683,['c'],1,left,['2'],5,411,[0.06274265],71,47,medium,minus,dotcolour,alfa,,,89,18,V,R,
104,104,20,2,0,47,33,848,['c'],1,left,['2'],5,474,[0.20637083],94,47,medium,minus,dotcolour,alfa,,,89,18,V,R,
105,105,21,2,0,27,53,766,['n'],1,right,['1'],6,1554,[-0.08983364],66,53,easy,minus,dotcolour,alfa,,,89,18,V,R,
106,106,22,2,0,36,44,766,['c'],0,right,['2'],5,742,[0.091047],72,44,hard,minus,dotcolour,alfa,,,89,18,V,R,
107,107,23,2,0,44,36,684,['c'],1,left,['3'],4,367,[-0.02244623],42,44,hard,minus,dotcolour,alfa,,,89,18,V,R,
108,108,24,2,0,44,36,732,['c'],1,left,['3'],4,708,[0.1305654],80,44,hard,minus,dotcolour,alfa,,,89,18,V,R,
109,109,25,2,0,44,36,698,['c'],1,left,['3'],4,349,[0.02367989],59,44,hard,minus,dotcolour,alfa,,,89,18,V,R,
110,110,26,2,0,27,53,1366,['n'],1,right,['1'],6,234,[-0.13912092],93,53,easy,minus,dotcolour,alfa,,,89,18,V,R,
111,111,27,2,0,36,44,1397,['n'],1,right,['3'],4,739,[-0.02730171],57,44,hard,minus,dotcolour,alfa,,,89,18,V,R,
112,112,28,2,0,27,53,932,['n'],1,right,['1'],6,225,[-0.12316689],91,53,easy,minus,dotcolour,alfa,,,89,18,V,R,
113,113,29,2,0,27,53,698,['n'],1,right,['1'],6,285,[-0.01612445],57,53,easy,minus,dotcolour,alfa,,,89,18,V,R,
114,114,30,2,0,53,27,914,['c'],1,left,['2'],5,575,[0.19998576],91,53,easy,minus,dotcolour,alfa,,,89,18,V,R,
115,115,31,2,0,44,36,931,['c'],1,left,['3'],4,516,[0.12313725],82,44,hard,minus,dotcolour,alfa,,,89,18,V,R,
116,116,32,2,0,44,36,1231,['n'],0,left,['2'],5,711,[0.08556611],29,44,hard,minus,dotcolour,alfa,,,89,18,V,R,
117,117,33,2,0,36,44,1298,['n'],1,right,['3'],4,416,[-0.18357593],93,44,hard,minus,dotcolour,alfa,,,89,18,V,R,
118,118,34,2,0,27,53,665,['n'],1,right,['1'],6,286,[-0.11715181],88,53,easy,minus,dotcolour,alfa,,,89,18,V,R,
119,119,35,2,0,47,33,831,['c'],1,left,['1'],6,252,[0.11377835],88,47,medium,minus,dotcolour,alfa,,,89,18,V,R,
120,120,36,2,0,33,47,1667,['c'],0,right,['2'],5,489,[-0.03503731],39,47,medium,minus,dotcolour,alfa,,,89,18,V,R,
121,121,37,2,0,53,27,715,['c'],1,left,['1'],6,242,[0.03603477],66,53,easy,minus,dotcolour,alfa,,,89,18,V,R,
122,122,38,2,0,33,47,1213,['n'],1,right,['1'],6,280,[-0.04748186],69,47,medium,minus,dotcolour,alfa,,,89,18,V,R,
123,123,39,2,0,53,27,932,['c'],1,left,['1'],6,314,[0.03107064],62,53,easy,minus,dotcolour,alfa,,,89,18,V,R,
124,124,40,2,0,33,47,782,['n'],1,right,['2'],5,671,[-0.1041489],76,47,medium,minus,dotcolour,alfa,,,89,18,V,R,
125,125,41,2,0,36,44,1900,['n'],1,right,['3'],4,498,[-0.0332199],60,44,hard,minus,dotcolour,alfa,,,89,18,V,R,
126,0,0,3,1,44,36,1066,['c'],1,left,['9'],2,4111,[0.31314602],100,44,hard,plus,dotcolour,alfa,,,89,18,V,R,
127,1,1,3,1,36,44,1417,['n'],1,right,['2'],5,1026,[-0.18287388],100,44,hard,plus,dotcolour,alfa,,,89,18,V,R,
128,2,2,3,1,53,27,1248,['c'],1,left,['1'],6,784,[0.21605242],100,53,easy,plus,dotcolour,alfa,,,89,18,V,R,
129,3,3,3,1,27,53,932,['n'],1,right,['1'],6,828,[-0.26125415],100,53,easy,plus,dotcolour,alfa,,,89,18,V,R,
130,4,4,3,1,47,33,1232,['c'],1,left,['2'],5,539,[0.14169019],100,47,medium,plus,dotcolour,alfa,,,89,18,V,R,
131,5,5,3,1,27,53,815,['n'],1,right,['2'],5,382,[-0.16019595],100,53,easy,plus,dotcolour,alfa,,,89,18,V,R,
132,6,6,3,1,44,36,897,['c'],1,left,['2'],5,333,[0.03936135],92,44,hard,plus,dotcolour,alfa,,,89,18,V,R,
133,7,7,3,1,33,47,1281,['n'],1,right,['2'],5,350,[-0.04562413],94,47,medium,plus,dotcolour,alfa,,,89,18,V,R,
134,8,8,3,1,47,33,782,['c'],1,left,['2'],5,410,[0.01978856],75,47,medium,plus,dotcolour,alfa,,,89,18,V,R,
135,9,9,3,1,47,33,766,['c'],1,left,['2'],5,541,[0.11168555],100,47,medium,plus,dotcolour,alfa,,,89,18,V,R,
136,10,10,3,1,27,53,998,['n'],1,right,['2'],5,376,[-0.06188687],97,53,easy,plus,dotcolour,alfa,,,89,18,V,R,
137,11,11,3,1,47,33,1115,['c'],1,left,['1'],6,366,[0.0358646],89,47,medium,plus,dotcolour,alfa,,,89,18,V,R,
138,12,12,3,1,53,27,682,['c'],1,left,['1'],6,253,[0.1543435],100,53,easy,plus,dotcolour,alfa,,,89,18,V,R,
139,13,13,3,1,53,27,547,['c'],1,left,['1'],6,263,[0.0549765],98,53,easy,plus,dotcolour,alfa,,,89,18,V,R,
140,14,14,3,1,44,36,1033,['n'],0,left,['3'],4,805,[-0.00807785],58,44,hard,plus,dotcolour,alfa,,,89,18,V,R,
141,15,15,3,1,33,47,1047,['n'],1,right,['2'],5,780,[-0.08853128],97,47,medium,plus,dotcolour,alfa,,,89,18,V,R,
142,16,16,3,1,53,27,1099,['c'],1,left,['2'],5,554,[0.11795158],100,53,easy,plus,dotcolour,alfa,,,89,18,V,R,
143,17,17,3,1,27,53,884,['n'],1,right,['2'],5,530,[-0.04896337],92,53,easy,plus,dotcolour,alfa,,,89,18,V,R,
144,18,18,3,1,36,44,1615,['n'],1,right,['2'],5,678,[-0.05427011],91,44,hard,plus,dotcolour,alfa,,,89,18,V,R,
145,19,19,3,1,33,47,615,['n'],1,right,['3'],4,300,[-0.15906616],100,47,medium,plus,dotcolour,alfa,,,89,18,V,R,
146,20,20,3,1,27,53,564,['n'],1,right,['3'],4,242,[-0.11478964],100,53,easy,plus,dotcolour,alfa,,,89,18,V,R,
147,21,21,3,1,53,27,948,['c'],1,left,['1'],6,340,[0.00635984],60,53,easy,plus,dotcolour,alfa,,,89,18,V,R,
148,22,22,3,1,47,33,666,['c'],1,left,['2'],5,341,[0.12888381],100,47,medium,plus,dotcolour,alfa,,,89,18,V,R,
149,23,23,3,1,44,36,683,['c'],1,left,['3'],4,373,[0.0499418],95,44,hard,plus,dotcolour,alfa,,,89,18,V,R,
150,24,24,3,1,27,53,614,['n'],1,right,['2'],5,311,[-0.09399208],100,53,easy,plus,dotcolour,alfa,,,89,18,V,R,
151,25,25,3,1,36,44,865,['c'],0,right,['3'],4,330,[0.13085899],100,44,hard,plus,dotcolour,alfa,,,89,18,V,R,
152,26,26,3,1,44,36,782,['c'],1,left,['2'],5,318,[0.14669689],100,44,hard,plus,dotcolour,alfa,,,89,18,V,R,
153,27,27,3,1,53,27,799,['c'],1,left,['1'],6,276,[0.05525636],98,53,easy,plus,dotcolour,alfa,,,89,18,V,R,
154,28,28,3,1,53,27,982,['c'],1,left,['1'],6,259,[0.14740689],100,53,easy,plus,dotcolour,alfa,,,89,18,V,R,
155,29,29,3,1,47,33,682,['c'],1,left,['1'],6,294,[0.08126124],100,47,medium,plus,dotcolour,alfa,,,89,18,V,R,
156,30,30,3,1,33,47,1099,['n'],1,right,['3'],4,1016,[-0.19098125],100,47,medium,plus,dotcolour,alfa,,,89,18,V,R,
157,31,31,3,1,47,33,766,['c'],1,left,['1'],6,274,[0.1255528],100,47,medium,plus,dotcolour,alfa,,,89,18,V,R,
158,32,32,3,1,36,44,1099,['c'],0,right,['8'],3,1476,[-0.15727539],1,44,hard,plus,dotcolour,alfa,,,89,18,V,R,
159,33,33,3,1,36,44,1131,['n'],1,right,['2'],5,349,[-0.06272137],98,44,hard,plus,dotcolour,alfa,,,89,18,V,R,
160,34,34,3,1,36,44,813,['c'],0,right,['3'],4,312,[0.01439914],72,44,hard,plus,dotcolour,alfa,,,89,18,V,R,
161,35,35,3,1,27,53,714,['n'],1,right,['2'],5,440,[-0.14360145],100,53,easy,plus,dotcolour,alfa,,,89,18,V,R,
162,36,36,3,1,44,36,1282,['c'],1,left,['3'],4,316,[0.13540957],100,44,hard,plus,dotcolour,alfa,,,89,18,V,R,
163,37,37,3,1,36,44,999,['n'],1,right,['2'],5,217,[0.00469205],41,44,hard,plus,dotcolour,alfa,,,89,18,V,R,
164,38,38,3,1,33,47,748,['n'],1,right,['2'],5,331,[-0.09661152],100,47,medium,plus,dotcolour,alfa,,,89,18,V,R,
165,39,39,3,1,33,47,714,['n'],1,right,['2'],5,339,[-0.13830292],100,47,medium,plus,dotcolour,alfa,,,89,18,V,R,
166,40,40,3,1,44,36,1747,['n'],0,left,['2'],5,1217,[0.06933292],9,44,hard,plus,dotcolour,alfa,,,89,18,V,R,
167,41,41,3,1,33,47,2749,['c'],0,right,['3'],4,492,[0.15571254],100,47,medium,plus,dotcolour,alfa,,,89,18,V,R,
168,42,0,4,1,44,36,1000,['c'],1,left,['3'],4,265,[0.03324712],91,44,hard,plus,dotcolour,alfa,,,89,18,V,R,
169,43,1,4,1,44,36,715,['c'],1,left,['3'],4,315,[0.0274641],85,44,hard,plus,dotcolour,alfa,,,89,18,V,R,
170,44,2,4,1,47,33,716,['n'],0,left,['3'],4,307,[-0.07726393],99,47,medium,plus,dotcolour,alfa,,,89,18,V,R,
171,45,3,4,1,27,53,565,['n'],1,right,['3'],4,290,[-0.22136735],100,53,easy,plus,dotcolour,alfa,,,89,18,V,R,
172,46,4,4,1,44,36,848,['c'],1,left,['3'],4,254,[0.10098931],100,44,hard,plus,dotcolour,alfa,,,89,18,V,R,
173,47,5,4,1,36,44,882,['c'],0,right,['3'],4,930,[0.0992175],98,44,hard,plus,dotcolour,alfa,,,89,18,V,R,
174,48,6,4,1,44,36,816,['c'],1,left,['3'],4,245,[0.09500723],100,44,hard,plus,dotcolour,alfa,,,89,18,V,R,
175,49,7,4,1,53,27,482,['c'],1,left,['1'],6,473,[0.17539377],100,53,easy,plus,dotcolour,alfa,,,89,18,V,R,
176,50,8,4,1,53,27,813,['c'],1,left,['1'],6,223,[0.14726144],100,53,easy,plus,dotcolour,alfa,,,89,18,V,R,
177,51,9,4,1,53,27,564,['c'],1,left,['1'],6,256,[0.07657181],100,53,easy,plus,dotcolour,alfa,,,89,18,V,R,
178,52,10,4,1,33,47,698,['n'],1,right,['2'],5,451,[-0.22930073],100,47,medium,plus,dotcolour,alfa,,,89,18,V,R,
179,53,11,4,1,33,47,932,['c'],0,right,['8'],3,1638,[0.21878745],100,47,medium,plus,dotcolour,alfa,,,89,18,V,R,
180,54,12,4,1,53,27,881,['c'],1,left,['1'],6,306,[0.17235615],100,53,easy,plus,dotcolour,alfa,,,89,18,V,R,
181,55,13,4,1,47,33,630,['c'],1,left,['1'],6,246,[0.06168779],99,47,medium,plus,dotcolour,alfa,,,89,18,V,R,
182,56,14,4,1,44,36,1298,['c'],1,left,['2'],5,290,[0.04210233],94,44,hard,plus,dotcolour,alfa,,,89,18,V,R,
183,57,15,4,1,47,33,816,['c'],1,left,['3'],4,927,[0.13731783],99,47,medium,plus,dotcolour,alfa,,,89,18,V,R,
184,58,16,4,1,36,44,1782,['n'],1,right,['3'],4,508,[-0.06512434],96,44,hard,plus,dotcolour,alfa,,,89,18,V,R,
185,59,17,4,1,33,47,1531,['c'],0,right,['3'],4,763,[-0.01934646],31,47,medium,plus,dotcolour,alfa,,,89,18,V,R,
186,60,18,4,1,33,47,1198,['n'],1,right,['3'],4,335,[-0.11350398],100,47,medium,plus,dotcolour,alfa,,,89,18,V,R,
187,61,19,4,1,47,33,699,['c'],1,left,['3'],4,359,[0.12361467],100,47,medium,plus,dotcolour,alfa,,,89,18,V,R,
188,62,20,4,1,47,33,564,['n'],0,left,['0'],1,1603,[0.18003064],1,47,medium,plus,dotcolour,alfa,,,89,18,V,R,
189,63,21,4,1,44,36,1100,['c'],1,left,['1'],6,232,[0.1169249],100,44,hard,plus,dotcolour,alfa,,,89,18,V,R,
190,64,22,4,1,33,47,1816,['c'],0,right,['3'],4,392,[0.0709341],98,47,medium,plus,dotcolour,alfa,,,89,18,V,R,
191,65,23,4,1,36,44,781,['n'],1,right,['3'],4,386,[0.02376095],20,44,hard,plus,dotcolour,alfa,,,89,18,V,R,
192,66,24,4,1,27,53,732,['n'],1,right,['3'],4,327,[0.03503676],10,53,easy,plus,dotcolour,alfa,,,89,18,V,R,
193,67,25,4,1,33,47,1314,['n'],1,right,['3'],4,295,[-0.05997583],98,47,medium,plus,dotcolour,alfa,,,89,18,V,R,
194,68,26,4,1,53,27,1100,['c'],1,left,['1'],6,393,[0.22626304],100,53,easy,plus,dotcolour,alfa,,,89,18,V,R,
195,69,27,4,1,27,53,748,['n'],1,right,['1'],6,260,[-0.12249338],100,53,easy,plus,dotcolour,alfa,,,89,18,V,R,
196,70,28,4,1,53,27,765,['c'],1,left,['2'],5,525,[0.12642273],100,53,easy,plus,dotcolour,alfa,,,89,18,V,R,
197,71,29,4,1,27,53,1416,['n'],1,right,['3'],4,721,[-0.04678955],88,53,easy,plus,dotcolour,alfa,,,89,18,V,R,
198,72,30,4,1,36,44,915,['n'],1,right,['3'],4,336,[-0.08152446],99,44,hard,plus,dotcolour,alfa,,,89,18,V,R,
199,73,31,4,1,36,44,814,['c'],0,right,['3'],4,324,[0.05126579],96,44,hard,plus,dotcolour,alfa,,,89,18,V,R,
200,74,32,4,1,44,36,1032,['c'],1,left,['3'],4,390,[0.06249901],97,44,hard,plus,dotcolour,alfa,,,89,18,V,R,
201,75,33,4,1,36,44,1133,['c'],0,right,['3'],4,364,[0.10675445],100,44,hard,plus,dotcolour,alfa,,,89,18,V,R,
202,76,34,4,1,27,53,681,['n'],1,right,['1'],6,347,[-0.06948382],99,53,easy,plus,dotcolour,alfa,,,89,18,V,R,
203,77,35,4,1,36,44,814,['c'],0,right,['1'],6,518,[0.03680688],86,44,hard,plus,dotcolour,alfa,,,89,18,V,R,
204,78,36,4,1,33,47,615,['n'],1,right,['2'],5,594,[-0.19259678],100,47,medium,plus,dotcolour,alfa,,,89,18,V,R,
205,79,37,4,1,47,33,698,['c'],1,left,['1'],6,256,[0.12106705],100,47,medium,plus,dotcolour,alfa,,,89,18,V,R,
206,80,38,4,1,47,33,766,['c'],1,left,['1'],6,297,[0.16768684],100,47,medium,plus,dotcolour,alfa,,,89,18,V,R,
207,81,39,4,1,27,53,548,['n'],1,right,['3'],4,312,[-0.0907021],100,53,easy,plus,dotcolour,alfa,,,89,18,V,R,
208,82,40,4,1,27,53,682,['n'],1,right,['2'],5,330,[-0.12795433],100,53,easy,plus,dotcolour,alfa,,,89,18,V,R,
209,83,41,4,1,53,27,599,['c'],1,left,['1'],6,246,[0.12598755],100,53,easy,plus,dotcolour,alfa,,,89,18,V,R,
210,84,0,5,1,27,53,832,['n'],1,right,['2'],5,281,[-0.08130897],100,53,easy,plus,dotcolour,alfa,,,89,18,V,R,
211,85,1,5,1,53,27,649,['c'],1,left,['1'],6,301,[0.02361027],82,53,easy,plus,dotcolour,alfa,,,89,18,V,R,
212,86,2,5,1,53,27,566,['c'],1,left,['1'],6,300,[0.06824122],99,53,easy,plus,dotcolour,alfa,,,89,18,V,R,
213,87,3,5,1,36,44,732,['n'],1,right,['1'],6,261,[-0.1874196],100,44,hard,plus,dotcolour,alfa,,,89,18,V,R,
214,88,4,5,1,53,27,633,['c'],1,left,['1'],6,234,[0.14057606],100,53,easy,plus,dotcolour,alfa,,,89,18,V,R,
215,89,5,5,1,53,27,514,['c'],1,left,['1'],6,278,[0.06721882],99,53,easy,plus,dotcolour,alfa,,,89,18,V,R,
216,90,6,5,1,33,47,549,['n'],1,right,['1'],6,222,[-0.09351757],100,47,medium,plus,dotcolour,alfa,,,89,18,V,R,
217,91,7,5,1,47,33,448,['c'],1,left,['1'],6,229,[0.14373771],100,47,medium,plus,dotcolour,alfa,,,89,18,V,R,
218,92,8,5,1,33,47,566,['n'],1,right,['2'],5,343,[-0.18674416],100,47,medium,plus,dotcolour,alfa,,,89,18,V,R,
219,93,9,5,1,44,36,483,['c'],1,left,['2'],5,287,[0.12969402],100,44,hard,plus,dotcolour,alfa,,,89,18,V,R,
220,94,10,5,1,47,33,615,['c'],1,left,['2'],5,267,[0.06129353],99,47,medium,plus,dotcolour,alfa,,,89,18,V,R,
221,95,11,5,1,27,53,549,['n'],1,right,['2'],5,237,[-0.12181714],100,53,easy,plus,dotcolour,alfa,,,89,18,V,R,
222,96,12,5,1,33,47,449,['c'],0,right,['2'],5,274,[0.00634569],61,47,medium,plus,dotcolour,alfa,,,89,18,V,R,
223,97,13,5,1,44,36,563,['c'],1,left,['2'],5,346,[-0.0451606],6,44,hard,plus,dotcolour,alfa,,,89,18,V,R,
224,98,14,5,1,33,47,648,['n'],1,right,['2'],5,372,[-0.00186237],53,47,medium,plus,dotcolour,alfa,,,89,18,V,R,
225,99,15,5,1,44,36,597,['c'],1,left,['1'],6,270,[0.10867022],100,44,hard,plus,dotcolour,alfa,,,89,18,V,R,
226,100,16,5,1,53,27,697,['c'],1,left,['1'],6,208,[0.15125027],100,53,easy,plus,dotcolour,alfa,,,89,18,V,R,
227,101,17,5,1,27,53,665,['n'],1,right,['1'],6,262,[-0.06313136],99,53,easy,plus,dotcolour,alfa,,,89,18,V,R,
228,102,18,5,1,33,47,599,['c'],0,right,['3'],4,957,[-0.18764247],0,47,medium,plus,dotcolour,alfa,,,89,18,V,R,
229,103,19,5,1,33,47,1049,['n'],1,right,['2'],5,262,[-0.0058752],60,47,medium,plus,dotcolour,alfa,,,89,18,V,R,
230,104,20,5,1,47,33,616,['c'],1,left,['1'],6,220,[0.120182],100,47,medium,plus,dotcolour,alfa,,,89,18,V,R,
231,105,21,5,1,47,33,782,['n'],0,left,['3'],4,526,[0.01647185],31,47,medium,plus,dotcolour,alfa,,,89,18,V,R,
232,106,22,5,1,27,53,698,['n'],1,right,['2'],5,222,[-0.09283594],100,53,easy,plus,dotcolour,alfa,,,89,18,V,R,
233,107,23,5,1,47,33,682,['c'],1,left,['1'],6,203,[0.04341448],97,47,medium,plus,dotcolour,alfa,,,89,18,V,R,
234,108,24,5,1,27,53,465,['n'],1,right,['2'],5,234,[0.00197651],46,53,easy,plus,dotcolour,alfa,,,89,18,V,R,
235,109,25,5,1,33,47,599,['c'],0,right,['2'],5,266,[0.00864552],65,47,medium,plus,dotcolour,alfa,,,89,18,V,R,
236,110,26,5,1,53,27,648,['c'],1,left,['1'],6,223,[0.06811651],99,53,easy,plus,dotcolour,alfa,,,89,18,V,R,
237,111,27,5,1,36,44,1800,['c'],0,right,['2'],5,312,[0.07819435],99,44,hard,plus,dotcolour,alfa,,,89,18,V,R,
238,112,28,5,1,36,44,650,['n'],1,right,['8'],3,1083,[-0.10203642],97,44,hard,plus,dotcolour,alfa,,,89,18,V,R,
239,113,29,5,1,44,36,1083,['n'],0,left,['9'],2,1725,[0.04123889],24,44,hard,plus,dotcolour,alfa,,,89,18,V,R,
240,114,30,5,1,36,44,566,['c'],0,right,['2'],5,234,[0.09104552],100,44,hard,plus,dotcolour,alfa,,,89,18,V,R,
241,115,31,5,1,47,33,600,['c'],1,left,['1'],6,195,[0.14377847],100,47,medium,plus,dotcolour,alfa,,,89,18,V,R,
242,116,32,5,1,27,53,614,['n'],1,right,['2'],5,180,[-0.06387292],100,53,easy,plus,dotcolour,alfa,,,89,18,V,R,
243,117,33,5,1,44,36,632,['c'],1,left,['1'],6,205,[0.09296225],100,44,hard,plus,dotcolour,alfa,,,89,18,V,R,
244,118,34,5,1,36,44,650,['n'],1,right,['2'],5,229,[-0.15572941],100,44,hard,plus,dotcolour,alfa,,,89,18,V,R,
245,119,35,5,1,36,44,882,['c'],0,right,['1'],6,210,[0.08378465],100,44,hard,plus,dotcolour,alfa,,,89,18,V,R,
246,120,36,5,1,53,27,749,['c'],1,left,['1'],6,229,[0.14746929],100,53,easy,plus,dotcolour,alfa,,,89,18,V,R,
247,121,37,5,1,44,36,683,['c'],1,left,['1'],6,178,[0.03634581],96,44,hard,plus,dotcolour,alfa,,,89,18,V,R,
248,122,38,5,1,27,53,616,['n'],1,right,['1'],6,371,[-0.12245489],100,53,easy,plus,dotcolour,alfa,,,89,18,V,R,
249,123,39,5,1,44,36,733,['c'],1,left,['1'],6,240,[0.13318666],100,44,hard,plus,dotcolour,alfa,,,89,18,V,R,
250,124,40,5,1,47,33,531,['c'],1,left,['1'],6,203,[0.1576497],100,47,medium,plus,dotcolour,alfa,,,89,18,V,R,
251,125,41,5,1,36,44,632,['n'],1,right,['1'],6,242,[-0.07944759],100,44,hard,plus,dotcolour,alfa,,,89,18,V,R,
252,0,0,6,2,27,53,633,['n'],1,right,['1'],6,244,[-0.23815993],99,53,easy,minus,dotcolour,alfa,,,89,18,V,R,
253,1,1,6,2,47,33,548,['n'],0,left,['9'],2,1246,[-0.1686559],80,47,medium,minus,dotcolour,alfa,,,89,18,V,R,
254,2,2,6,2,47,33,732,['n'],0,left,['9'],2,840,[0.01771373],46,47,medium,minus,dotcolour,alfa,,,89,18,V,R,
255,3,3,6,2,36,44,748,['n'],1,right,['1'],6,266,[-0.18245061],96,44,hard,minus,dotcolour,alfa,,,89,18,V,R,
256,4,4,6,2,47,33,599,['c'],1,left,['1'],6,209,[0.12201391],92,47,medium,minus,dotcolour,alfa,,,89,18,V,R,
257,5,5,6,2,27,53,532,['n'],1,right,['1'],6,228,[-0.14400902],94,53,easy,minus,dotcolour,alfa,,,89,18,V,R,
258,6,6,6,2,27,53,515,['n'],1,right,['1'],6,240,[-0.11706273],90,53,easy,minus,dotcolour,alfa,,,89,18,V,R,
259,7,7,6,2,53,27,747,['c'],1,left,['1'],6,210,[0.04218865],70,53,easy,minus,dotcolour,alfa,,,89,18,V,R,
260,8,8,6,2,44,36,547,['c'],1,left,['1'],6,205,[0.09696549],87,44,hard,minus,dotcolour,alfa,,,89,18,V,R,
261,9,9,6,2,44,36,850,['c'],1,left,['1'],6,213,[0.1872965],97,44,hard,minus,dotcolour,alfa,,,89,18,V,R,
262,10,10,6,2,44,36,565,['c'],1,left,['1'],6,191,[0.13658208],94,44,hard,minus,dotcolour,alfa,,,89,18,V,R,
263,11,11,6,2,33,47,1033,['c'],0,right,['2'],5,199,[0.01660587],58,47,medium,minus,dotcolour,alfa,,,89,18,V,R,
264,12,12,6,2,47,33,532,['c'],1,left,['1'],6,228,[0.11493674],90,47,medium,minus,dotcolour,alfa,,,89,18,V,R,
265,13,13,6,2,33,47,765,['c'],0,right,['3'],4,502,[-0.05115428],34,47,medium,minus,dotcolour,alfa,,,89,18,V,R,
266,14,14,6,2,44,36,782,['c'],1,left,['3'],4,187,[0.11935029],92,44,hard,minus,dotcolour,alfa,,,89,18,V,R,
267,15,15,6,2,36,44,1332,['c'],0,right,['2'],5,487,[-0.02013511],44,44,hard,minus,dotcolour,alfa,,,89,18,V,R,
268,16,16,6,2,33,47,1148,['n'],1,right,['3'],4,376,[-0.076223],75,47,medium,minus,dotcolour,alfa,,,89,18,V,R,
269,17,17,6,2,27,53,666,['n'],1,right,['1'],6,320,[-0.1021819],84,53,easy,minus,dotcolour,alfa,,,89,18,V,R,
270,18,18,6,2,53,27,632,['c'],1,left,['1'],6,194,[0.0372418],68,53,easy,minus,dotcolour,alfa,,,89,18,V,R,
271,19,19,6,2,27,53,715,['n'],1,right,['3'],4,320,[-0.07562139],77,53,easy,minus,dotcolour,alfa,,,89,18,V,R,
272,20,20,6,2,47,33,732,['c'],1,left,['1'],6,223,[0.05272041],73,47,medium,minus,dotcolour,alfa,,,89,18,V,R,
273,21,21,6,2,33,47,865,['n'],1,right,['3'],4,821,[-0.12033727],77,47,medium,minus,dotcolour,alfa,,,89,18,V,R,
274,22,22,6,2,27,53,682,['n'],1,right,['2'],5,258,[-0.12729033],91,53,easy,minus,dotcolour,alfa,,,89,18,V,R,
275,23,23,6,2,53,27,531,['c'],1,left,['1'],6,180,[0.03430527],67,53,easy,minus,dotcolour,alfa,,,89,18,V,R,
276,24,24,6,2,27,53,599,['n'],1,right,['2'],5,294,[-0.13318717],90,53,easy,minus,dotcolour,alfa,,,89,18,V,R,
277,25,25,6,2,53,27,582,['c'],1,left,['1'],6,212,[0.1113751],90,53,easy,minus,dotcolour,alfa,,,89,18,V,R,
278,26,26,6,2,44,36,581,['c'],1,left,['2'],5,278,[0.14944161],93,44,hard,minus,dotcolour,alfa,,,89,18,V,R,
279,27,27,6,2,36,44,732,['n'],1,right,['2'],5,287,[-0.06292318],74,44,hard,minus,dotcolour,alfa,,,89,18,V,R,
280,28,28,6,2,36,44,982,['c'],0,right,['8'],3,1109,[-0.02646062],44,44,hard,minus,dotcolour,alfa,,,89,18,V,R,
281,29,29,6,2,44,36,666,['n'],0,left,['1'],6,215,[-0.10105015],88,44,hard,minus,dotcolour,alfa,,,89,18,V,R,
282,30,30,6,2,53,27,648,['n'],0,left,['9'],2,887,[0.08316155],31,53,easy,minus,dotcolour,alfa,,,89,18,V,R,
283,31,31,6,2,33,47,1064,['n'],1,right,['1'],6,185,[-0.05370715],75,47,medium,minus,dotcolour,alfa,,,89,18,V,R,
284,32,32,6,2,47,33,999,['c'],1,left,['1'],6,292,[0.12749151],89,47,medium,minus,dotcolour,alfa,,,89,18,V,R,
285,33,33,6,2,33,47,900,['n'],1,right,['1'],6,390,[-0.17023234],92,47,medium,minus,dotcolour,alfa,,,89,18,V,R,
286,34,34,6,2,53,27,983,['c'],1,left,['1'],6,425,[0.17537877],92,53,easy,minus,dotcolour,alfa,,,89,18,V,R,
287,35,35,6,2,44,36,798,['c'],1,left,['1'],6,2512,[0.17990928],74,44,hard,minus,dotcolour,alfa,,,89,18,V,R,
288,36,36,6,2,36,44,665,['c'],0,right,['1'],6,234,[0.13267585],92,44,hard,minus,dotcolour,alfa,,,89,18,V,R,
289,37,37,6,2,47,33,798,['n'],0,left,['1'],6,202,[-0.12384546],92,47,medium,minus,dotcolour,alfa,,,89,18,V,R,
290,38,38,6,2,36,44,1197,['n'],1,right,['2'],5,324,[-0.09981986],83,44,hard,minus,dotcolour,alfa,,,89,18,V,R,
291,39,39,6,2,36,44,782,['c'],0,right,['2'],5,217,[0.07020634],80,44,hard,minus,dotcolour,alfa,,,89,18,V,R,
292,40,40,6,2,33,47,749,['c'],0,right,['9'],2,1236,[0.03416792],57,47,medium,minus,dotcolour,alfa,,,89,18,V,R,
293,41,41,6,2,53,27,665,['c'],1,left,['1'],6,201,[0.08943125],86,53,easy,minus,dotcolour,alfa,,,89,18,V,R,
294,42,0,7,2,47,33,716,['c'],1,left,['1'],6,243,[0.10270799],87,47,medium,minus,dotcolour,alfa,,,89,18,V,R,
295,43,1,7,2,47,33,698,['c'],1,left,['1'],6,207,[0.15572179],96,47,medium,minus,dotcolour,alfa,,,89,18,V,R,
296,44,2,7,2,44,36,481,['c'],1,left,['1'],6,213,[0.09206658],86,44,hard,minus,dotcolour,alfa,,,89,18,V,R,
297,45,3,7,2,33,47,915,['n'],1,right,['3'],4,393,[-0.06177074],71,47,medium,minus,dotcolour,alfa,,,89,18,V,R,
298,46,4,7,2,33,47,600,['n'],1,right,['2'],5,259,[-0.05233669],72,47,medium,minus,dotcolour,alfa,,,89,18,V,R,
299,47,5,7,2,36,44,647,['n'],1,right,['2'],5,280,[-0.09665963],84,44,hard,minus,dotcolour,alfa,,,89,18,V,R,
300,48,6,7,2,53,27,1117,['c'],1,left,['1'],6,298,[0.04537712],68,53,easy,minus,dotcolour,alfa,,,89,18,V,R,
301,49,7,7,2,53,27,565,['c'],1,left,['1'],6,240,[0.06025737],75,53,easy,minus,dotcolour,alfa,,,89,18,V,R,
302,50,8,7,2,47,33,566,['c'],1,left,['1'],6,177,[0.06534663],80,47,medium,minus,dotcolour,alfa,,,89,18,V,R,
303,51,9,7,2,36,44,833,['n'],1,right,['2'],5,731,[-0.12246023],78,44,hard,minus,dotcolour,alfa,,,89,18,V,R,
304,52,10,7,2,33,47,1248,['n'],1,right,['2'],5,293,[-0.1087052],86,47,medium,minus,dotcolour,alfa,,,89,18,V,R,
305,53,11,7,2,27,53,967,['n'],1,right,['2'],5,444,[-0.17209948],91,53,easy,minus,dotcolour,alfa,,,89,18,V,R,
306,54,12,7,2,27,53,700,['n'],1,right,['2'],5,151,[-0.15562548],97,53,easy,minus,dotcolour,alfa,,,89,18,V,R,
307,55,13,7,2,27,53,499,['n'],1,right,['2'],5,279,[-0.14841613],93,53,easy,minus,dotcolour,alfa,,,89,18,V,R,
308,56,14,7,2,53,27,833,['c'],1,left,['1'],6,284,[0.14139564],92,53,easy,minus,dotcolour,alfa,,,89,18,V,R,
309,57,15,7,2,36,44,715,['n'],1,right,['2'],5,293,[-0.09430962],83,44,hard,minus,dotcolour,alfa,,,89,18,V,R,
310,58,16,7,2,44,36,1233,['n'],0,left,['2'],5,210,[-0.06758713],79,44,hard,minus,dotcolour,alfa,,,89,18,V,R,
311,59,17,7,2,33,47,1199,['n'],1,right,['2'],5,266,[-0.10681928],87,47,medium,minus,dotcolour,alfa,,,89,18,V,R,
312,60,18,7,2,33,47,615,['n'],1,right,['2'],5,161,[-0.14528915],96,47,medium,minus,dotcolour,alfa,,,89,18,V,R,
313,61,19,7,2,53,27,1782,['c'],1,left,['2'],5,317,[0.20372942],96,53,easy,minus,dotcolour,alfa,,,89,18,V,R,
314,62,20,7,2,27,53,682,['n'],1,right,['2'],5,287,[-0.11647939],88,53,easy,minus,dotcolour,alfa,,,89,18,V,R,
315,63,21,7,2,53,27,634,['c'],1,left,['2'],5,356,[0.20803692],96,53,easy,minus,dotcolour,alfa,,,89,18,V,R,
316,64,22,7,2,33,47,566,['n'],1,right,['2'],5,192,[-0.0370246],68,47,medium,minus,dotcolour,alfa,,,89,18,V,R,
317,65,23,7,2,47,33,747,['c'],1,left,['2'],5,260,[-0.02210074],40,47,medium,minus,dotcolour,alfa,,,89,18,V,R,
318,66,24,7,2,53,27,616,['c'],1,left,['2'],5,210,[0.161907],96,53,easy,minus,dotcolour,alfa,,,89,18,V,R,
319,67,25,7,2,44,36,498,['c'],1,left,['1'],6,231,[0.12219482],91,44,hard,minus,dotcolour,alfa,,,89,18,V,R,
320,68,26,7,2,47,33,532,['c'],1,left,['1'],6,298,[0.05800438],72,47,medium,minus,dotcolour,alfa,,,89,18,V,R,
321,69,27,7,2,44,36,714,['c'],1,left,['2'],5,187,[0.09919538],89,44,hard,minus,dotcolour,alfa,,,89,18,V,R,
322,70,28,7,2,36,44,615,['n'],1,right,['2'],5,212,[-0.00169596],51,44,hard,minus,dotcolour,alfa,,,89,18,V,R,
323,71,29,7,2,36,44,583,['c'],0,right,['2'],5,173,[0.03614331],69,44,hard,minus,dotcolour,alfa,,,89,18,V,R,
324,72,30,7,2,44,36,516,['c'],1,left,['1'],6,219,[0.11969503],91,44,hard,minus,dotcolour,alfa,,,89,18,V,R,
325,73,31,7,2,36,44,681,['n'],1,right,['2'],5,184,[0.0011007],49,44,hard,minus,dotcolour,alfa,,,89,18,V,R,
326,74,32,7,2,33,47,1264,['c'],0,right,['9'],2,928,[-0.1107325],26,47,medium,minus,dotcolour,alfa,,,89,18,V,R,
327,75,33,7,2,27,53,532,['c'],0,right,['9'],2,1031,[-0.24777887],10,53,easy,minus,dotcolour,alfa,,,89,18,V,R,
328,76,34,7,2,36,44,1498,['n'],1,right,['3'],4,795,[-0.11798148],77,44,hard,minus,dotcolour,alfa,,,89,18,V,R,
329,77,35,7,2,27,53,664,['n'],1,right,['3'],4,298,[-0.1082763],86,53,easy,minus,dotcolour,alfa,,,89,18,V,R,
330,78,36,7,2,27,53,482,['n'],1,right,['3'],4,244,[-0.11942212],90,53,easy,minus,dotcolour,alfa,,,89,18,V,R,
331,79,37,7,2,44,36,766,['c'],1,left,['3'],4,133,[0.08406591],89,44,hard,minus,dotcolour,alfa,,,89,18,V,R,
332,80,38,7,2,47,33,1699,['c'],1,left,['3'],4,133,[0.13764271],97,47,medium,minus,dotcolour,alfa,,,89,18,V,R,
333,81,39,7,2,53,27,1147,['c'],1,left,['1'],6,508,[0.04973221],65,53,easy,minus,dotcolour,alfa,,,89,18,V,R,
334,82,40,7,2,47,33,898,['c'],1,left,['1'],6,509,[0.09657923],77,47,medium,minus,dotcolour,alfa,,,89,18,V,R,
335,83,41,7,2,44,36,599,['c'],1,left,['3'],4,658,[0.06462122],67,44,hard,minus,dotcolour,alfa,,,89,18,V,R,
336,84,0,8,2,33,47,833,['n'],1,right,['3'],4,751,[-0.26502329],94,47,medium,minus,dotcolour,alfa,,,89,18,V,R,
337,85,1,8,2,33,47,848,['n'],1,right,['3'],4,680,[-0.18755419],89,47,medium,minus,dotcolour,alfa,,,89,18,V,R,
338,86,2,8,2,27,53,865,['n'],1,right,['3'],4,267,[-0.108758],87,53,easy,minus,dotcolour,alfa,,,89,18,V,R,
339,87,3,8,2,53,27,1115,['c'],1,left,['3'],4,294,[0.09342134],83,53,easy,minus,dotcolour,alfa,,,89,18,V,R,
340,88,4,8,2,53,27,516,['c'],1,left,['1'],6,406,[0.09516783],79,53,easy,minus,dotcolour,alfa,,,89,18,V,R,
341,89,5,8,2,44,36,416,['c'],1,left,['1'],6,183,[0.07076481],82,44,hard,minus,dotcolour,alfa,,,89,18,V,R,
342,90,6,8,2,27,53,667,['n'],1,right,['1'],6,191,[-0.03134469],66,53,easy,minus,dotcolour,alfa,,,89,18,V,R,
343,91,7,8,2,27,53,550,['n'],1,right,['1'],6,194,[-0.0660828],79,53,easy,minus,dotcolour,alfa,,,89,18,V,R,
344,92,8,8,2,33,47,517,['n'],1,right,['1'],6,751,[-0.23148256],92,47,medium,minus,dotcolour,alfa,,,89,18,V,R,
345,93,9,8,2,47,33,665,['c'],1,left,['1'],6,143,[0.10166614],92,47,medium,minus,dotcolour,alfa,,,89,18,V,R,
346,94,10,8,2,53,27,549,['c'],1,left,['1'],6,149,[0.12419368],95,53,easy,minus,dotcolour,alfa,,,89,18,V,R,
347,95,11,8,2,53,27,498,['c'],1,left,['1'],6,165,[0.10013208],90,53,easy,minus,dotcolour,alfa,,,89,18,V,R,
348,96,12,8,2,27,53,566,['n'],1,right,['1'],6,177,[-0.11334773],92,53,easy,minus,dotcolour,alfa,,,89,18,V,R,
349,97,13,8,2,44,36,598,['c'],1,left,['1'],6,179,[0.13983007],95,44,hard,minus,dotcolour,alfa,,,89,18,V,R,
350,98,14,8,2,36,44,681,['n'],1,right,['1'],6,114,[-0.14320713],98,44,hard,minus,dotcolour,alfa,,,89,18,V,R,
351,99,15,8,2,53,27,614,['c'],1,left,['1'],6,167,[0.05907381],79,53,easy,minus,dotcolour,alfa,,,89,18,V,R,
352,100,16,8,2,44,36,598,['c'],1,left,['1'],6,113,[0.06876626],86,44,hard,minus,dotcolour,alfa,,,89,18,V,R,
353,101,17,8,2,36,44,714,['n'],1,right,['1'],6,122,[-0.07317192],87,44,hard,minus,dotcolour,alfa,,,89,18,V,R,
354,102,18,8,2,47,33,667,['c'],1,left,['1'],6,91,[0.06415143],87,47,medium,minus,dotcolour,alfa,,,89,18,V,R,
355,103,19,8,2,27,53,850,['n'],1,right,['1'],6,295,[-0.15186168],93,53,easy,minus,dotcolour,alfa,,,89,18,V,R,
356,104,20,8,2,33,47,599,['c'],0,right,['1'],6,141,[0.09440731],91,47,medium,minus,dotcolour,alfa,,,89,18,V,R,
357,105,21,8,2,53,27,682,['c'],1,left,['1'],6,125,[0.11193102],95,53,easy,minus,dotcolour,alfa,,,89,18,V,R,
358,106,22,8,2,33,47,631,['n'],1,right,['1'],6,97,[-0.08667943],92,47,medium,minus,dotcolour,alfa,,,89,18,V,R,
359,107,23,8,2,36,44,681,['c'],0,right,['1'],6,163,[0.05099938],76,44,hard,minus,dotcolour,alfa,,,89,18,V,R,
360,108,24,8,2,47,33,732,['n'],0,left,['9'],2,872,[-0.06817351],66,47,medium,minus,dotcolour,alfa,,,89,18,V,R,
361,109,25,8,2,47,33,548,['c'],1,left,['1'],6,129,[0.06215626],83,47,medium,minus,dotcolour,alfa,,,89,18,V,R,
362,110,26,8,2,36,44,650,['n'],1,right,['1'],6,123,[-0.05402655],80,44,hard,minus,dotcolour,alfa,,,89,18,V,R,
363,111,27,8,2,44,36,965,['n'],0,left,['1'],6,121,[-0.03601331],72,44,hard,minus,dotcolour,alfa,,,89,18,V,R,
364,112,28,8,2,33,47,764,['n'],1,right,['1'],6,152,[-0.07096201],84,47,medium,minus,dotcolour,alfa,,,89,18,V,R,
365,113,29,8,2,36,44,881,['n'],1,right,['3'],4,319,[-0.18343051],95,44,hard,minus,dotcolour,alfa,,,89,18,V,R,
366,114,30,8,2,44,36,665,['c'],1,left,['1'],6,314,[0.11366734],86,44,hard,minus,dotcolour,alfa,,,89,18,V,R,
367,115,31,8,2,33,47,815,['n'],1,right,['3'],4,406,[-0.20256155],95,47,medium,minus,dotcolour,alfa,,,89,18,V,R,
368,116,32,8,2,53,27,1083,['c'],1,left,['3'],4,292,[0.13424529],90,53,easy,minus,dotcolour,alfa,,,89,18,V,R,
369,117,33,8,2,44,36,614,['c'],1,left,['3'],4,481,[0.14430604],87,44,hard,minus,dotcolour,alfa,,,89,18,V,R,
370,118,34,8,2,27,53,681,['n'],1,right,['2'],5,164,[-0.105944],91,53,easy,minus,dotcolour,alfa,,,89,18,V,R,
371,119,35,8,2,36,44,1282,['n'],1,right,['2'],5,148,[-0.01225482],57,44,hard,minus,dotcolour,alfa,,,89,18,V,R,
372,120,36,8,2,27,53,582,['n'],1,right,['2'],5,328,[-0.10179794],83,53,easy,minus,dotcolour,alfa,,,89,18,V,R,
373,121,37,8,2,47,33,732,['c'],1,left,['1'],6,207,[0.15448081],96,47,medium,minus,dotcolour,alfa,,,89,18,V,R,
374,122,38,8,2,47,33,714,['c'],1,left,['1'],6,155,[0.08735625],88,47,medium,minus,dotcolour,alfa,,,89,18,V,R,
375,123,39,8,2,36,44,665,['c'],0,right,['1'],6,172,[0.07820635],85,44,hard,minus,dotcolour,alfa,,,89,18,V,R,
376,124,40,8,2,44,36,498,['c'],1,left,['1'],6,195,[0.09968998],88,44,hard,minus,dotcolour,alfa,,,89,18,V,R,
377,125,41,8,2,47,33,548,['c'],1,left,['1'],6,119,[0.05022317],79,47,medium,minus,dotcolour,alfa,,,89,18,V,R,
378,0,0,9,3,44,36,800,['n'],0,left,['3'],4,258,[-0.09043441],100,44,hard,plus,dotcolour,alfa,,,89,18,V,R,
379,1,1,9,3,33,47,3115,['n'],1,right,['8'],3,1236,[-0.12463149],98,47,medium,plus,dotcolour,alfa,,,89,18,V,R,
380,2,2,9,3,53,27,2198,['c'],1,left,['3'],4,2180,[0.26358307],100,53,easy,plus,dotcolour,alfa,,,89,18,V,R,
381,3,3,9,3,27,53,697,['n'],1,right,['3'],4,234,[-0.16295126],100,53,easy,plus,dotcolour,alfa,,,89,18,V,R,
382,4,4,9,3,47,33,631,['c'],1,left,['3'],4,201,[0.02499099],88,47,medium,plus,dotcolour,alfa,,,89,18,V,R,
383,5,5,9,3,44,36,916,['c'],1,left,['3'],4,390,[0.13409453],100,44,hard,plus,dotcolour,alfa,,,89,18,V,R,
384,6,6,9,3,53,27,516,['n'],0,left,['0'],1,795,[0.00188501],48,53,easy,plus,dotcolour,alfa,,,89,18,V,R,
385,7,7,9,3,27,53,1033,['n'],1,right,['1'],6,187,[-0.14694603],100,53,easy,plus,dotcolour,alfa,,,89,18,V,R,
386,8,8,9,3,33,47,699,['n'],1,right,['3'],4,409,[-0.14083239],100,47,medium,plus,dotcolour,alfa,,,89,18,V,R,
387,9,9,9,3,44,36,932,['c'],1,left,['3'],4,293,[0.18564758],100,44,hard,plus,dotcolour,alfa,,,89,18,V,R,
388,10,10,9,3,53,27,731,['c'],1,left,['1'],6,341,[0.19056479],100,53,easy,plus,dotcolour,alfa,,,89,18,V,R,
389,11,11,9,3,36,44,949,['n'],1,right,['3'],4,675,[-0.14236307],100,44,hard,plus,dotcolour,alfa,,,89,18,V,R,
390,12,12,9,3,36,44,565,['c'],0,right,['3'],4,226,[0.08922901],100,44,hard,plus,dotcolour,alfa,,,89,18,V,R,
391,13,13,9,3,47,33,615,['c'],1,left,['1'],6,474,[0.17402036],100,47,medium,plus,dotcolour,alfa,,,89,18,V,R,
392,14,14,9,3,47,33,482,['c'],1,left,['1'],6,173,[0.12919339],100,47,medium,plus,dotcolour,alfa,,,89,18,V,R,
393,15,15,9,3,44,36,432,['c'],1,left,['1'],6,198,[0.08615849],100,44,hard,plus,dotcolour,alfa,,,89,18,V,R,
394,16,16,9,3,47,33,316,['c'],1,left,['1'],6,171,[0.12366478],100,47,medium,plus,dotcolour,alfa,,,89,18,V,R,
395,17,17,9,3,27,53,1167,['n'],1,right,['1'],6,144,[-0.08902084],100,53,easy,plus,dotcolour,alfa,,,89,18,V,R,
396,18,18,9,3,53,27,650,['c'],1,left,['1'],6,137,[0.04298655],98,53,easy,plus,dotcolour,alfa,,,89,18,V,R,
397,19,19,9,3,53,27,548,['c'],1,left,['1'],6,127,[0.07269659],100,53,easy,plus,dotcolour,alfa,,,89,18,V,R,
398,20,20,9,3,36,44,332,['c'],0,right,['1'],6,174,[0.04800157],98,44,hard,plus,dotcolour,alfa,,,89,18,V,R,
399,21,21,9,3,47,33,433,['c'],1,left,['1'],6,151,[0.12447169],100,47,medium,plus,dotcolour,alfa,,,89,18,V,R,
400,22,22,9,3,27,53,414,['n'],1,right,['1'],6,274,[-0.08393822],100,53,easy,plus,dotcolour,alfa,,,89,18,V,R,
401,23,23,9,3,47,33,647,['c'],1,left,['1'],6,222,[0.19055252],100,47,medium,plus,dotcolour,alfa,,,89,18,V,R,
402,24,24,9,3,53,27,515,['c'],1,left,['1'],6,186,[0.03976319],97,53,easy,plus,dotcolour,alfa,,,89,18,V,R,
403,25,25,9,3,44,36,682,['c'],1,left,['1'],6,144,[0.03608392],97,44,hard,plus,dotcolour,alfa,,,89,18,V,R,
404,26,26,9,3,44,36,448,['c'],1,left,['1'],6,130,[0.11082615],100,44,hard,plus,dotcolour,alfa,,,89,18,V,R,
405,27,27,9,3,27,53,731,['n'],1,right,['2'],5,241,[-0.13658681],100,53,easy,plus,dotcolour,alfa,,,89,18,V,R,
406,28,28,9,3,53,27,433,['c'],1,left,['1'],6,111,[0.06889038],100,53,easy,plus,dotcolour,alfa,,,89,18,V,R,
407,29,29,9,3,36,44,549,['c'],0,right,['1'],6,150,[0.09190524],100,44,hard,plus,dotcolour,alfa,,,89,18,V,R,
408,30,30,9,3,36,44,732,['n'],1,right,['1'],6,196,[-0.08831646],100,44,hard,plus,dotcolour,alfa,,,89,18,V,R,
409,31,31,9,3,27,53,566,['n'],1,right,['2'],5,287,[-0.09789176],100,53,easy,plus,dotcolour,alfa,,,89,18,V,R,
410,32,32,9,3,33,47,548,['n'],1,right,['2'],5,439,[-0.18572454],100,47,medium,plus,dotcolour,alfa,,,89,18,V,R,
411,33,33,9,3,36,44,566,['n'],1,right,['2'],5,72,[-0.06340745],100,44,hard,plus,dotcolour,alfa,,,89,18,V,R,
412,34,34,9,3,33,47,447,['n'],1,right,['2'],5,84,[-0.0940265],100,47,medium,plus,dotcolour,alfa,,,89,18,V,R,
413,35,35,9,3,33,47,431,['n'],1,right,['2'],5,81,[-0.06325308],100,47,medium,plus,dotcolour,alfa,,,89,18,V,R,
414,36,36,9,3,33,47,415,['n'],1,right,['2'],5,110,[-0.06821483],100,47,medium,plus,dotcolour,alfa,,,89,18,V,R,
415,37,37,9,3,47,33,665,['n'],0,left,['8'],3,1025,[0.06477006],9,47,medium,plus,dotcolour,alfa,,,89,18,V,R,
416,38,38,9,3,27,53,764,['n'],1,right,['2'],5,91,[-0.11654502],100,53,easy,plus,dotcolour,alfa,,,89,18,V,R,
417,39,39,9,3,36,44,465,['n'],1,right,['2'],5,101,[-0.08641378],100,44,hard,plus,dotcolour,alfa,,,89,18,V,R,
418,40,40,9,3,44,36,483,['n'],0,left,['9'],2,744,[-0.02630008],75,44,hard,plus,dotcolour,alfa,,,89,18,V,R,
419,41,41,9,3,33,47,699,['n'],1,right,['2'],5,128,[-0.0549009],100,47,medium,plus,dotcolour,alfa,,,89,18,V,R,
420,42,0,10,3,33,47,767,['n'],1,right,['2'],5,127,[-0.10681786],100,47,medium,plus,dotcolour,alfa,,,89,18,V,R,
421,43,1,10,3,44,36,332,['n'],0,left,['9'],2,711,[0.03453852],19,44,hard,plus,dotcolour,alfa,,,89,18,V,R,
422,44,2,10,3,53,27,2567,['c'],1,left,['2'],5,293,[0.07842189],99,53,easy,plus,dotcolour,alfa,,,89,18,V,R,
423,45,3,10,3,27,53,1132,['n'],1,right,['2'],5,109,[-0.07090811],100,53,easy,plus,dotcolour,alfa,,,89,18,V,R,
424,46,4,10,3,27,53,549,['n'],1,right,['2'],5,156,[-0.09782626],100,53,easy,plus,dotcolour,alfa,,,89,18,V,R,
425,47,5,10,3,33,47,832,['n'],1,right,['2'],5,438,[-0.06918169],98,47,medium,plus,dotcolour,alfa,,,89,18,V,R,
426,48,6,10,3,53,27,632,['c'],1,left,['1'],6,172,[0.06925631],100,53,easy,plus,dotcolour,alfa,,,89,18,V,R,
427,49,7,10,3,36,44,799,['n'],1,right,['3'],4,791,[-0.17192064],100,44,hard,plus,dotcolour,alfa,,,89,18,V,R,
428,50,8,10,3,53,27,632,['c'],1,left,['1'],6,103,[0.10788617],100,53,easy,plus,dotcolour,alfa,,,89,18,V,R,
429,51,9,10,3,33,47,732,['n'],1,right,['2'],5,151,[-0.07547442],100,47,medium,plus,dotcolour,alfa,,,89,18,V,R,
430,52,10,10,3,27,53,565,['n'],1,right,['2'],5,108,[-0.11862091],100,53,easy,plus,dotcolour,alfa,,,89,18,V,R,
431,53,11,10,3,53,27,665,['c'],1,left,['1'],6,110,[0.07973674],100,53,easy,plus,dotcolour,alfa,,,89,18,V,R,
432,54,12,10,3,44,36,549,['c'],1,left,['2'],5,117,[0.13962339],100,44,hard,plus,dotcolour,alfa,,,89,18,V,R,
433,55,13,10,3,47,33,699,['c'],1,left,['1'],6,102,[0.06317957],100,47,medium,plus,dotcolour,alfa,,,89,18,V,R,
434,56,14,10,3,44,36,548,['c'],1,left,['1'],6,141,[0.10112031],100,44,hard,plus,dotcolour,alfa,,,89,18,V,R,
435,57,15,10,3,44,36,766,['c'],1,left,['1'],6,99,[0.10231646],100,44,hard,plus,dotcolour,alfa,,,89,18,V,R,
436,58,16,10,3,33,47,981,['n'],1,right,['2'],5,121,[-0.03021109],96,47,medium,plus,dotcolour,alfa,,,89,18,V,R,
437,59,17,10,3,47,33,697,['c'],1,left,['1'],6,130,[0.07110526],100,47,medium,plus,dotcolour,alfa,,,89,18,V,R,
438,60,18,10,3,36,44,550,['c'],0,right,['1'],6,120,[0.07644613],100,44,hard,plus,dotcolour,alfa,,,89,18,V,R,
439,61,19,10,3,47,33,530,['c'],1,left,['1'],6,120,[0.10070678],100,47,medium,plus,dotcolour,alfa,,,89,18,V,R,
440,62,20,10,3,33,47,683,['n'],1,right,['1'],6,130,[-0.04749434],99,47,medium,plus,dotcolour,alfa,,,89,18,V,R,
441,63,21,10,3,47,33,565,['c'],1,left,['1'],6,111,[0.07729972],100,47,medium,plus,dotcolour,alfa,,,89,18,V,R,
442,64,22,10,3,47,33,599,['n'],0,left,['2'],5,100,[0.02182275],8,47,medium,plus,dotcolour,alfa,,,89,18,V,R,
443,65,23,10,3,33,47,1080,['c'],0,right,['1'],6,94,[0.07980283],100,47,medium,plus,dotcolour,alfa,,,89,18,V,R,
444,66,24,10,3,36,44,681,['c'],0,right,['1'],6,121,[0.03577136],98,44,hard,plus,dotcolour,alfa,,,89,18,V,R,
445,67,25,10,3,27,53,531,['c'],0,right,['1'],6,128,[0.05024406],99,53,easy,plus,dotcolour,alfa,,,89,18,V,R,
446,68,26,10,3,44,36,647,['n'],0,left,['1'],6,130,[-0.07780006],100,44,hard,plus,dotcolour,alfa,,,89,18,V,R,
447,69,27,10,3,53,27,682,['c'],1,left,['1'],6,91,[0.05030558],100,53,easy,plus,dotcolour,alfa,,,89,18,V,R,
448,70,28,10,3,36,44,649,['n'],1,right,['1'],6,71,[-0.0650229],100,44,hard,plus,dotcolour,alfa,,,89,18,V,R,
449,71,29,10,3,33,47,516,['c'],0,right,['1'],6,49,[0.05147337],100,47,medium,plus,dotcolour,alfa,,,89,18,V,R,
450,72,30,10,3,27,53,616,['n'],1,right,['1'],6,80,[-0.08567778],100,53,easy,plus,dotcolour,alfa,,,89,18,V,R,
451,73,31,10,3,36,44,532,['c'],0,right,['1'],6,73,[0.04745417],100,44,hard,plus,dotcolour,alfa,,,89,18,V,R,
452,74,32,10,3,53,27,815,['n'],0,left,['1'],6,71,[-0.0349154],99,53,easy,plus,dotcolour,alfa,,,89,18,V,R,
453,75,33,10,3,44,36,566,['c'],1,left,['1'],6,87,[0.0899921],100,44,hard,plus,dotcolour,alfa,,,89,18,V,R,
454,76,34,10,3,44,36,698,['c'],1,left,['1'],6,121,[0.09762834],100,44,hard,plus,dotcolour,alfa,,,89,18,V,R,
455,77,35,10,3,53,27,850,['c'],1,left,['1'],6,116,[0.04944309],99,53,easy,plus,dotcolour,alfa,,,89,18,V,R,
456,78,36,10,3,36,44,765,['n'],1,right,['1'],6,82,[-0.06780831],100,44,hard,plus,dotcolour,alfa,,,89,18,V,R,
457,79,37,10,3,27,53,515,['n'],1,right,['1'],6,108,[-0.04844363],100,53,easy,plus,dotcolour,alfa,,,89,18,V,R,
458,80,38,10,3,36,44,666,['n'],1,right,['1'],6,342,[-0.12871712],100,44,hard,plus,dotcolour,alfa,,,89,18,V,R,
459,81,39,10,3,47,33,749,['c'],1,left,['1'],6,124,[0.11666422],100,47,medium,plus,dotcolour,alfa,,,89,18,V,R,
460,82,40,10,3,47,33,498,['c'],1,left,['1'],6,92,[0.1012233],100,47,medium,plus,dotcolour,alfa,,,89,18,V,R,
461,83,41,10,3,27,53,498,['n'],1,right,['1'],6,85,[-0.14072967],100,53,easy,plus,dotcolour,alfa,,,89,18,V,R,
462,84,0,11,3,33,47,767,['n'],1,right,['1'],6,114,[-0.09312766],100,47,medium,plus,dotcolour,alfa,,,89,18,V,R,
463,85,1,11,3,33,47,548,['n'],1,right,['1'],6,145,[-0.13887808],100,47,medium,plus,dotcolour,alfa,,,89,18,V,R,
464,86,2,11,3,33,47,432,['n'],1,right,['1'],6,83,[-0.114824],100,47,medium,plus,dotcolour,alfa,,,89,18,V,R,
465,87,3,11,3,44,36,899,['c'],1,left,['1'],6,134,[0.14785622],100,44,hard,plus,dotcolour,alfa,,,89,18,V,R,
466,88,4,11,3,27,53,481,['n'],1,right,['1'],6,62,[-0.0650855],100,53,easy,plus,dotcolour,alfa,,,89,18,V,R,
467,89,5,11,3,47,33,616,['c'],1,left,['1'],6,116,[0.04052428],99,47,medium,plus,dotcolour,alfa,,,89,18,V,R,
468,90,6,11,3,36,44,463,['n'],1,right,['1'],6,111,[-0.12970959],100,44,hard,plus,dotcolour,alfa,,,89,18,V,R,
469,91,7,11,3,27,53,464,['n'],1,right,['1'],6,81,[-0.12693015],100,53,easy,plus,dotcolour,alfa,,,89,18,V,R,
470,92,8,11,3,36,44,415,['n'],1,right,['1'],6,79,[-0.07075046],100,44,hard,plus,dotcolour,alfa,,,89,18,V,R,
471,93,9,11,3,27,53,582,['n'],1,right,['1'],6,54,[-0.07286176],100,53,easy,plus,dotcolour,alfa,,,89,18,V,R,
472,94,10,11,3,36,44,414,['n'],1,right,['1'],6,100,[-0.12691923],100,44,hard,plus,dotcolour,alfa,,,89,18,V,R,
473,95,11,11,3,53,27,665,['c'],1,left,['1'],6,103,[0.08850583],100,53,easy,plus,dotcolour,alfa,,,89,18,V,R,
474,96,12,11,3,53,27,580,['c'],1,left,['1'],6,94,[0.07265183],100,53,easy,plus,dotcolour,alfa,,,89,18,V,R,
475,97,13,11,3,47,33,465,['c'],1,left,['1'],6,49,[0.04681244],100,47,medium,plus,dotcolour,alfa,,,89,18,V,R,
476,98,14,11,3,27,53,466,['n'],1,right,['1'],6,46,[-0.05063598],100,53,easy,plus,dotcolour,alfa,,,89,18,V,R,
477,99,15,11,3,36,44,482,['n'],1,right,['1'],6,34,[-0.05956454],100,44,hard,plus,dotcolour,alfa,,,89,18,V,R,
478,100,16,11,3,44,36,615,['c'],1,left,['1'],6,137,[0.02796569],94,44,hard,plus,dotcolour,alfa,,,89,18,V,R,
479,101,17,11,3,44,36,648,['n'],0,left,['1'],6,51,[-0.11655471],100,44,hard,plus,dotcolour,alfa,,,89,18,V,R,
480,102,18,11,3,53,27,631,['c'],1,left,['1'],6,25,[0.08475252],100,53,easy,plus,dotcolour,alfa,,,89,18,V,R,
481,103,19,11,3,33,47,1015,['n'],1,right,['1'],6,121,[-0.10202945],100,47,medium,plus,dotcolour,alfa,,,89,18,V,R,
482,104,20,11,3,27,53,465,['n'],1,right,['1'],6,131,[-0.07222045],100,53,easy,plus,dotcolour,alfa,,,89,18,V,R,
483,105,21,11,3,47,33,1766,['c'],1,left,['1'],6,297,[0.02267999],82,47,medium,plus,dotcolour,alfa,,,89,18,V,R,
484,106,22,11,3,27,53,782,['n'],1,right,['1'],6,71,[-0.11391481],100,53,easy,plus,dotcolour,alfa,,,89,18,V,R,
485,107,23,11,3,33,47,782,['c'],0,right,['1'],6,263,[-0.01732762],23,47,medium,plus,dotcolour,alfa,,,89,18,V,R,
486,108,24,11,3,47,33,648,['c'],1,left,['1'],6,68,[0.02653434],97,47,medium,plus,dotcolour,alfa,,,89,18,V,R,
487,109,25,11,3,27,53,766,['n'],1,right,['1'],6,52,[-0.06945217],100,53,easy,plus,dotcolour,alfa,,,89,18,V,R,
488,110,26,11,3,44,36,1131,['c'],1,left,['1'],6,87,[0.06699846],100,44,hard,plus,dotcolour,alfa,,,89,18,V,R,
489,111,27,11,3,47,33,515,['c'],1,left,['1'],6,65,[0.10558525],100,47,medium,plus,dotcolour,alfa,,,89,18,V,R,
490,112,28,11,3,33,47,613,['n'],1,right,['1'],6,166,[-0.0510799],99,47,medium,plus,dotcolour,alfa,,,89,18,V,R,
491,113,29,11,3,44,36,1148,['c'],1,left,['1'],6,195,[0.06999561],100,44,hard,plus,dotcolour,alfa,,,89,18,V,R,
492,114,30,11,3,33,47,548,['n'],1,right,['1'],6,63,[-0.09319453],100,47,medium,plus,dotcolour,alfa,,,89,18,V,R,
493,115,31,11,3,53,27,665,['n'],0,left,['9'],2,755,[0.03183511],21,53,easy,plus,dotcolour,alfa,,,89,18,V,R,
494,116,32,11,3,53,27,698,['c'],1,left,['1'],6,51,[0.08200544],100,53,easy,plus,dotcolour,alfa,,,89,18,V,R,
495,117,33,11,3,44,36,732,['c'],1,left,['1'],6,132,[0.07765634],100,44,hard,plus,dotcolour,alfa,,,89,18,V,R,
496,118,34,11,3,53,27,664,['c'],1,left,['1'],6,118,[0.06029614],100,53,easy,plus,dotcolour,alfa,,,89,18,V,R,
497,119,35,11,3,36,44,715,['n'],1,right,['1'],6,102,[-0.11754005],100,44,hard,plus,dotcolour,alfa,,,89,18,V,R,
498,120,36,11,3,36,44,499,['c'],0,right,['1'],6,112,[0.02083544],90,44,hard,plus,dotcolour,alfa,,,89,18,V,R,
499,121,37,11,3,47,33,399,['c'],1,left,['1'],6,85,[0.02718456],97,47,medium,plus,dotcolour,alfa,,,89,18,V,R,
500,122,38,11,3,53,27,466,['c'],1,left,['1'],6,97,[0.09036108],100,53,easy,plus,dotcolour,alfa,,,89,18,V,R,
501,123,39,11,3,44,36,399,['c'],1,left,['1'],6,38,[0.03644706],100,44,hard,plus,dotcolour,alfa,,,89,18,V,R,
502,124,40,11,3,47,33,832,['c'],1,left,['1'],6,77,[0.02824698],98,47,medium,plus,dotcolour,alfa,,,89,18,V,R,
503,125,41,11,3,36,44,883,['n'],1,right,['1'],6,104,[-0.00557511],65,44,hard,plus,dotcolour,alfa,,,89,18,V,R,
504,0,0,12,4,33,47,2017,['c'],0,right,['3'],4,1019,[0.12080584],75,47,medium,minus,dotcolour,alfa,,,89,18,V,R,
505,1,1,12,4,44,36,398,['c'],1,left,['1'],6,92,[0.0630189],87,44,hard,minus,dotcolour,alfa,,,89,18,V,R,
506,2,2,12,4,33,47,799,['n'],1,right,['1'],6,105,[-0.04062492],76,47,medium,minus,dotcolour,alfa,,,89,18,V,R,
507,3,3,12,4,36,44,715,['c'],0,right,['1'],6,90,[0.11097673],97,44,hard,minus,dotcolour,alfa,,,89,18,V,R,
508,4,4,12,4,44,36,749,['c'],1,left,['1'],6,114,[0.14426876],98,44,hard,minus,dotcolour,alfa,,,89,18,V,R,
509,5,5,12,4,53,27,466,['c'],1,left,['1'],6,76,[0.04938468],83,53,easy,minus,dotcolour,alfa,,,89,18,V,R,
510,6,6,12,4,33,47,782,['n'],1,right,['1'],6,107,[-0.12537245],97,47,medium,minus,dotcolour,alfa,,,89,18,V,R,
511,7,7,12,4,47,33,549,['c'],1,left,['1'],6,67,[0.07901248],94,47,medium,minus,dotcolour,alfa,,,89,18,V,R,
512,8,8,12,4,47,33,648,['n'],0,left,['1'],6,159,[-0.09254048],89,47,medium,minus,dotcolour,alfa,,,89,18,V,R,
513,9,9,12,4,47,33,482,['c'],1,left,['1'],6,95,[0.05958134],85,47,medium,minus,dotcolour,alfa,,,89,18,V,R,
514,10,10,12,4,53,27,415,['c'],1,left,['1'],6,108,[0.04590164],78,53,easy,minus,dotcolour,alfa,,,89,18,V,R,
515,11,11,12,4,53,27,581,['c'],1,left,['1'],6,66,[0.05320934],87,53,easy,minus,dotcolour,alfa,,,89,18,V,R,
516,12,12,12,4,53,27,448,['c'],1,left,['1'],6,79,[0.08644265],94,53,easy,minus,dotcolour,alfa,,,89,18,V,R,
517,13,13,12,4,36,44,696,['n'],1,right,['1'],6,89,[-0.06698523],88,44,hard,minus,dotcolour,alfa,,,89,18,V,R,
518,14,14,12,4,27,53,515,['n'],1,right,['1'],6,186,[-0.0708347],81,53,easy,minus,dotcolour,alfa,,,89,18,V,R,
519,15,15,12,4,36,44,632,['c'],0,right,['1'],6,99,[0.1035906],95,44,hard,minus,dotcolour,alfa,,,89,18,V,R,
520,16,16,12,4,36,44,799,['n'],1,right,['1'],6,121,[-0.10429173],94,44,hard,minus,dotcolour,alfa,,,89,18,V,R,
521,17,17,12,4,36,44,598,['n'],1,right,['2'],5,29,[-0.07769771],98,44,hard,minus,dotcolour,alfa,,,89,18,V,R,
522,18,18,12,4,44,36,799,['c'],1,left,['1'],6,93,[0.08457157],92,44,hard,minus,dotcolour,alfa,,,89,18,V,R,
523,19,19,12,4,33,47,649,['c'],0,right,['1'],6,65,[0.04005159],80,47,medium,minus,dotcolour,alfa,,,89,18,V,R,
524,20,20,12,4,44,36,480,['c'],1,left,['1'],6,133,[0.1137203],94,44,hard,minus,dotcolour,alfa,,,89,18,V,R,
525,21,21,12,4,44,36,816,['n'],0,left,['2'],5,80,[-0.10211465],96,44,hard,minus,dotcolour,alfa,,,89,18,V,R,
526,22,22,12,4,44,36,1216,['c'],1,left,['1'],6,94,[0.10411715],96,44,hard,minus,dotcolour,alfa,,,89,18,V,R,
527,23,23,12,4,27,53,699,['n'],1,right,['2'],5,208,[-0.09310049],86,53,easy,minus,dotcolour,alfa,,,89,18,V,R,
528,24,24,12,4,47,33,680,['c'],1,left,['1'],6,85,[0.04619926],81,47,medium,minus,dotcolour,alfa,,,89,18,V,R,
529,25,25,12,4,47,33,449,['c'],1,left,['1'],6,98,[0.07881054],91,47,medium,minus,dotcolour,alfa,,,89,18,V,R,
530,26,26,12,4,27,53,599,['n'],1,right,['2'],5,135,[-0.08476743],89,53,easy,minus,dotcolour,alfa,,,89,18,V,R,
531,27,27,12,4,47,33,517,['c'],1,left,['1'],6,71,[0.07326002],92,47,medium,minus,dotcolour,alfa,,,89,18,V,R,
532,28,28,12,4,33,47,616,['c'],0,right,['1'],6,85,[0.04026569],78,47,medium,minus,dotcolour,alfa,,,89,18,V,R,
533,29,29,12,4,53,27,632,['c'],1,left,['1'],6,42,[0.06783052],95,53,easy,minus,dotcolour,alfa,,,89,18,V,R,
534,30,30,12,4,27,53,482,['n'],1,right,['2'],5,142,[-0.06277041],82,53,easy,minus,dotcolour,alfa,,,89,18,V,R,
535,31,31,12,4,27,53,531,['c'],0,right,['1'],6,60,[0.03666733],79,53,easy,minus,dotcolour,alfa,,,89,18,V,R,
536,32,32,12,4,36,44,1032,['n'],1,right,['2'],5,114,[-0.03749084],73,44,hard,minus,dotcolour,alfa,,,89,18,V,R,
537,33,33,12,4,36,44,499,['c'],0,right,['1'],6,59,[0.0715609],93,44,hard,minus,dotcolour,alfa,,,89,18,V,R,
538,34,34,12,4,27,53,666,['n'],1,right,['2'],5,183,[-0.0734782],82,53,easy,minus,dotcolour,alfa,,,89,18,V,R,
539,35,35,12,4,27,53,549,['n'],1,right,['1'],6,404,[-0.09070257],78,53,easy,minus,dotcolour,alfa,,,89,18,V,R,
540,36,36,12,4,33,47,549,['n'],1,right,['2'],5,95,[-0.06944079],88,47,medium,minus,dotcolour,alfa,,,89,18,V,R,
541,37,37,12,4,33,47,632,['n'],1,right,['2'],5,59,[-0.05629142],89,47,medium,minus,dotcolour,alfa,,,89,18,V,R,
542,38,38,12,4,53,27,715,['c'],1,left,['1'],6,1277,[0.11723611],72,53,easy,minus,dotcolour,alfa,,,89,18,V,R,
543,39,39,12,4,47,33,431,['c'],1,left,['1'],6,65,[0.0662794],91,47,medium,minus,dotcolour,alfa,,,89,18,V,R,
544,40,40,12,4,44,36,463,['c'],1,left,['1'],6,78,[0.09793136],96,44,hard,minus,dotcolour,alfa,,,89,18,V,R,
545,41,41,12,4,53,27,365,['c'],1,left,['1'],6,86,[0.1137059],97,53,easy,minus,dotcolour,alfa,,,89,18,V,R,
546,42,0,13,4,33,47,683,['n'],1,right,['2'],5,105,[-0.04233313],76,47,medium,minus,dotcolour,alfa,,,89,18,V,R,
547,43,1,13,4,44,36,482,['c'],1,left,['2'],5,122,[0.11269112],95,44,hard,minus,dotcolour,alfa,,,89,18,V,R,
548,44,2,13,4,53,27,480,['c'],1,left,['2'],5,124,[0.05702096],81,53,easy,minus,dotcolour,alfa,,,89,18,V,R,
549,45,3,13,4,44,36,299,['c'],1,left,['2'],5,309,[-0.00371363],48,44,hard,minus,dotcolour,alfa,,,89,18,V,R,
550,46,4,13,4,27,53,598,['n'],1,right,['2'],5,138,[-0.02639961],65,53,easy,minus,dotcolour,alfa,,,89,18,V,R,
551,47,5,13,4,47,33,483,['n'],0,left,['0'],1,899,[0.05701714],37,47,medium,minus,dotcolour,alfa,,,89,18,V,R,
552,48,6,13,4,53,27,1115,['c'],1,left,['2'],5,124,[0.01835869],62,53,easy,minus,dotcolour,alfa,,,89,18,V,R,
553,49,7,13,4,53,27,382,['c'],1,left,['2'],5,89,[0.04796555],81,53,easy,minus,dotcolour,alfa,,,89,18,V,R,
554,50,8,13,4,47,33,566,['c'],1,left,['2'],5,87,[0.08481983],93,47,medium,minus,dotcolour,alfa,,,89,18,V,R,
555,51,9,13,4,53,27,567,['c'],1,left,['2'],5,7,[0.06870425],100,53,easy,minus,dotcolour,alfa,,,89,18,V,R,
556,52,10,13,4,33,47,599,['c'],0,right,['2'],5,57,[0.04420061],84,47,medium,minus,dotcolour,alfa,,,89,18,V,R,
557,53,11,13,4,44,36,383,['c'],1,left,['2'],5,25,[0.0953051],100,44,hard,minus,dotcolour,alfa,,,89,18,V,R,
558,54,12,13,4,27,53,548,['n'],1,right,['2'],5,76,[-0.03226212],74,53,easy,minus,dotcolour,alfa,,,89,18,V,R,
559,55,13,13,4,33,47,648,['n'],1,right,['2'],5,80,[-0.08624061],94,47,medium,minus,dotcolour,alfa,,,89,18,V,R,
560,56,14,13,4,53,27,585,['c'],1,left,['1'],6,143,[0.09511004],91,53,easy,minus,dotcolour,alfa,,,89,18,V,R,
561,57,15,13,4,44,36,431,['c'],1,left,['2'],5,49,[0.07859391],96,44,hard,minus,dotcolour,alfa,,,89,18,V,R,
562,58,16,13,4,47,33,581,['c'],1,left,['2'],5,2,[0.08205945],100,47,medium,minus,dotcolour,alfa,,,89,18,V,R,
563,59,17,13,4,47,33,466,['c'],1,left,['2'],5,25,[0.05375537],96,47,medium,minus,dotcolour,alfa,,,89,18,V,R,
564,60,18,13,4,33,47,2198,['c'],0,right,['3'],4,1074,[-0.11860677],26,47,medium,minus,dotcolour,alfa,,,89,18,V,R,
565,61,19,13,4,36,44,966,['c'],0,right,['3'],4,106,[0.10201617],94,44,hard,minus,dotcolour,alfa,,,89,18,V,R,
566,62,20,13,4,33,47,1598,['c'],0,right,['1'],6,143,[0.03742851],71,47,medium,minus,dotcolour,alfa,,,89,18,V,R,
567,63,21,13,4,36,44,548,['c'],0,right,['2'],5,316,[0.12079356],87,44,hard,minus,dotcolour,alfa,,,89,18,V,R,
568,64,22,13,4,27,53,632,['n'],1,right,['2'],5,128,[-0.0859277],90,53,easy,minus,dotcolour,alfa,,,89,18,V,R,
569,65,23,13,4,36,44,732,['n'],1,right,['2'],5,71,[-0.05648904],87,44,hard,minus,dotcolour,alfa,,,89,18,V,R,
570,66,24,13,4,27,53,916,['c'],0,right,['2'],5,73,[0.04127297],80,53,easy,minus,dotcolour,alfa,,,89,18,V,R,
571,67,25,13,4,47,33,815,['c'],1,left,['1'],6,184,[0.0745253],83,47,medium,minus,dotcolour,alfa,,,89,18,V,R,
572,68,26,13,4,36,44,448,['c'],0,right,['2'],5,223,[0.04484157],70,44,hard,minus,dotcolour,alfa,,,89,18,V,R,
573,69,27,13,4,53,27,599,['c'],1,left,['2'],5,159,[0.03660865],70,53,easy,minus,dotcolour,alfa,,,89,18,V,R,
574,70,28,13,4,36,44,865,['n'],1,right,['3'],4,240,[-0.15626165],95,44,hard,minus,dotcolour,alfa,,,89,18,V,R,
575,71,29,13,4,27,53,498,['n'],1,right,['3'],4,163,[-0.11987853],94,53,easy,minus,dotcolour,alfa,,,89,18,V,R,
576,72,30,13,4,44,36,996,['c'],1,left,['2'],5,102,[0.07756204],90,44,hard,minus,dotcolour,alfa,,,89,18,V,R,
577,73,31,13,4,27,53,1266,['n'],1,right,['2'],5,802,[-0.22912825],91,53,easy,minus,dotcolour,alfa,,,89,18,V,R,
578,74,32,13,4,33,47,782,['n'],1,right,['3'],4,244,[-0.04027977],68,47,medium,minus,dotcolour,alfa,,,89,18,V,R,
579,75,33,13,4,47,33,616,['c'],1,left,['1'],6,251,[0.14022954],93,47,medium,minus,dotcolour,alfa,,,89,18,V,R,
580,76,34,13,4,33,47,782,['n'],1,right,['3'],4,251,[-0.0175632],58,47,medium,minus,dotcolour,alfa,,,89,18,V,R,
581,77,35,13,4,47,33,900,['n'],0,left,['9'],2,1231,[0.24191158],12,47,medium,minus,dotcolour,alfa,,,89,18,V,R,
582,78,36,13,4,44,36,534,['c'],1,left,['2'],5,145,[0.08283349],88,44,hard,minus,dotcolour,alfa,,,89,18,V,R,
583,79,37,13,4,36,44,765,['c'],0,right,['2'],5,182,[0.10339389],90,44,hard,minus,dotcolour,alfa,,,89,18,V,R,
584,80,38,13,4,53,27,599,['c'],1,left,['1'],6,208,[0.11453386],91,53,easy,minus,dotcolour,alfa,,,89,18,V,R,
585,81,39,13,4,44,36,483,['c'],1,left,['1'],6,158,[0.07881505],86,44,hard,minus,dotcolour,alfa,,,89,18,V,R,
586,82,40,13,4,36,44,631,['c'],0,right,['1'],6,95,[0.04112369],77,44,hard,minus,dotcolour,alfa,,,89,18,V,R,
587,83,41,13,4,27,53,565,['n'],1,right,['2'],5,294,[-0.11300418],87,53,easy,minus,dotcolour,alfa,,,89,18,V,R,
588,84,0,14,4,53,27,1833,['n'],0,left,['2'],5,382,[-0.08521529],78,53,easy,minus,dotcolour,alfa,,,89,18,V,R,
589,85,1,14,4,44,36,614,['c'],1,left,['2'],5,79,[0.09974767],96,44,hard,minus,dotcolour,alfa,,,89,18,V,R,
590,86,2,14,4,44,36,465,['c'],1,left,['2'],5,107,[0.08039743],90,44,hard,minus,dotcolour,alfa,,,89,18,V,R,
591,87,3,14,4,33,47,965,['c'],0,right,['2'],5,193,[-0.02113494],39,47,medium,minus,dotcolour,alfa,,,89,18,V,R,
592,88,4,14,4,27,53,632,['n'],1,right,['2'],5,145,[-0.07001183],84,53,easy,minus,dotcolour,alfa,,,89,18,V,R,
593,89,5,14,4,33,47,767,['n'],1,right,['2'],5,142,[-0.07512715],86,47,medium,minus,dotcolour,alfa,,,89,18,V,R,
594,90,6,14,4,53,27,1000,['c'],1,left,['1'],6,298,[0.17757883],95,53,easy,minus,dotcolour,alfa,,,89,18,V,R,
595,91,7,14,4,36,44,582,['n'],1,right,['2'],5,201,[-0.06376983],78,44,hard,minus,dotcolour,alfa,,,89,18,V,R,
596,92,8,14,4,44,36,498,['c'],1,left,['1'],6,166,[0.14074581],96,44,hard,minus,dotcolour,alfa,,,89,18,V,R,
597,93,9,14,4,53,27,999,['c'],1,left,['1'],6,305,[0.19941104],96,53,easy,minus,dotcolour,alfa,,,89,18,V,R,
598,94,10,14,4,44,36,565,['c'],1,left,['1'],6,104,[0.08010738],90,44,hard,minus,dotcolour,alfa,,,89,18,V,R,
599,95,11,14,4,27,53,565,['n'],1,right,['2'],5,175,[-0.08162359],85,53,easy,minus,dotcolour,alfa,,,89,18,V,R,
600,96,12,14,4,53,27,464,['c'],1,left,['1'],6,94,[0.12881411],98,53,easy,minus,dotcolour,alfa,,,89,18,V,R,
601,97,13,14,4,27,53,932,['n'],1,right,['2'],5,142,[-0.09637124],91,53,easy,minus,dotcolour,alfa,,,89,18,V,R,
602,98,14,14,4,27,53,598,['c'],0,right,['1'],6,130,[0.09566066],92,53,easy,minus,dotcolour,alfa,,,89,18,V,R,
603,99,15,14,4,33,47,598,['n'],1,right,['2'],5,126,[-0.07581224],87,47,medium,minus,dotcolour,alfa,,,89,18,V,R,
604,100,16,14,4,44,36,783,['c'],1,left,['1'],6,139,[0.0855032],89,44,hard,minus,dotcolour,alfa,,,89,18,V,R,
605,101,17,14,4,44,36,698,['c'],1,left,['1'],6,115,[0.06522361],85,44,hard,minus,dotcolour,alfa,,,89,18,V,R,
606,102,18,14,4,27,53,465,['n'],1,right,['2'],5,149,[-0.06034353],80,53,easy,minus,dotcolour,alfa,,,89,18,V,R,
607,103,19,14,4,36,44,517,['c'],0,right,['1'],6,100,[0.07433023],89,44,hard,minus,dotcolour,alfa,,,89,18,V,R,
608,104,20,14,4,47,33,550,['c'],1,left,['1'],6,116,[0.08611886],91,47,medium,minus,dotcolour,alfa,,,89,18,V,R,
609,105,21,14,4,36,44,650,['c'],0,right,['2'],5,903,[0.06884671],66,44,hard,minus,dotcolour,alfa,,,89,18,V,R,
610,106,22,14,4,47,33,565,['c'],1,left,['1'],6,69,[0.09176577],96,47,medium,minus,dotcolour,alfa,,,89,18,V,R,
611,107,23,14,4,36,44,782,['c'],0,right,['1'],6,92,[0.05278278],83,44,hard,minus,dotcolour,alfa,,,89,18,V,R,
612,108,24,14,4,33,47,831,['n'],1,right,['2'],5,97,[-0.09641258],94,47,medium,minus,dotcolour,alfa,,,89,18,V,R,
613,109,25,14,4,47,33,514,['c'],1,left,['1'],6,66,[0.02912583],74,47,medium,minus,dotcolour,alfa,,,89,18,V,R,
614,110,26,14,4,53,27,847,['c'],1,left,['1'],6,119,[0.02357067],65,53,easy,minus,dotcolour,alfa,,,89,18,V,R,
615,111,27,14,4,36,44,432,['c'],0,right,['1'],6,90,[0.11179345],97,44,hard,minus,dotcolour,alfa,,,89,18,V,R,
616,112,28,14,4,47,33,549,['c'],1,left,['1'],6,75,[0.04045351],79,47,medium,minus,dotcolour,alfa,,,89,18,V,R,
617,113,29,14,4,27,53,699,['n'],1,right,['1'],6,165,[-0.10426863],91,53,easy,minus,dotcolour,alfa,,,89,18,V,R,
618,114,30,14,4,27,53,664,['n'],1,right,['1'],6,85,[-0.08700272],94,53,easy,minus,dotcolour,alfa,,,89,18,V,R,
619,115,31,14,4,53,27,746,['c'],1,left,['1'],6,117,[0.11851854],96,53,easy,minus,dotcolour,alfa,,,89,18,V,R,
620,116,32,14,4,36,44,1148,['c'],0,right,['1'],6,93,[0.03867045],76,44,hard,minus,dotcolour,alfa,,,89,18,V,R,
621,117,33,14,4,53,27,632,['c'],1,left,['1'],6,49,[0.10548731],99,53,easy,minus,dotcolour,alfa,,,89,18,V,R,
622,118,34,14,4,47,33,830,['c'],1,left,['1'],6,79,[0.08268269],93,47,medium,minus,dotcolour,alfa,,,89,18,V,R,
623,119,35,14,4,33,47,749,['n'],1,right,['2'],5,175,[-0.05616626],77,47,medium,minus,dotcolour,alfa,,,89,18,V,R,
624,120,36,14,4,36,44,799,['c'],0,right,['2'],5,130,[0.06239947],83,44,hard,minus,dotcolour,alfa,,,89,18,V,R,
625,121,37,14,4,47,33,747,['n'],0,left,['2'],5,120,[0.01779087],39,47,medium,minus,dotcolour,alfa,,,89,18,V,R,
626,122,38,14,4,33,47,532,['c'],0,right,['2'],5,256,[0.0170362],58,47,medium,minus,dotcolour,alfa,,,89,18,V,R,
627,123,39,14,4,47,33,615,['c'],1,left,['1'],6,111,[0.07843547],89,47,medium,minus,dotcolour,alfa,,,89,18,V,R,
628,124,40,14,4,33,47,697,['n'],1,right,['2'],5,104,[-0.16851584],99,47,medium,minus,dotcolour,alfa,,,89,18,V,R,
629,125,41,14,4,44,36,933,['n'],0,left,['2'],5,137,[-0.1342473],96,44,hard,minus,dotcolour,alfa,,,89,18,V,R,
630,0,0,15,5,44,36,1517,['c'],1,left,['1'],6,340,[0.25260549],100,44,hard,plus,dotcolour,alfa,,,89,18,V,R,
631,1,1,15,5,44,36,683,['c'],1,left,['1'],6,12,[0.06536438],100,44,hard,plus,dotcolour,alfa,,,89,18,V,R,
632,2,2,15,5,27,53,549,['n'],1,right,['1'],6,247,[-0.13799416],100,53,easy,plus,dotcolour,alfa,,,89,18,V,R,
633,3,3,15,5,27,53,482,['n'],1,right,['1'],6,115,[-0.0292056],96,53,easy,plus,dotcolour,alfa,,,89,18,V,R,
634,4,4,15,5,47,33,717,['c'],1,left,['1'],6,91,[0.04976416],100,47,medium,plus,dotcolour,alfa,,,89,18,V,R,
635,5,5,15,5,33,47,1017,['n'],1,right,['2'],5,121,[-0.07522901],100,47,medium,plus,dotcolour,alfa,,,89,18,V,R,
636,6,6,15,5,53,27,548,['c'],1,left,['1'],6,111,[0.03719222],98,53,easy,plus,dotcolour,alfa,,,89,18,V,R,
637,7,7,15,5,36,44,582,['c'],0,right,['1'],6,100,[0.0671292],100,44,hard,plus,dotcolour,alfa,,,89,18,V,R,
638,8,8,15,5,53,27,531,['n'],0,left,['0'],1,693,[0.10784904],1,53,easy,plus,dotcolour,alfa,,,89,18,V,R,
639,9,9,15,5,27,53,665,['c'],0,right,['0'],1,848,[-0.21311881],0,53,easy,plus,dotcolour,alfa,,,89,18,V,R,
640,10,10,15,5,53,27,601,['c'],1,left,['1'],6,104,[0.12100379],100,53,easy,plus,dotcolour,alfa,,,89,18,V,R,
641,11,11,15,5,47,33,800,['c'],1,left,['1'],6,101,[0.03628594],98,47,medium,plus,dotcolour,alfa,,,89,18,V,R,
642,12,12,15,5,44,36,530,['c'],1,left,['1'],6,110,[0.08824269],100,44,hard,plus,dotcolour,alfa,,,89,18,V,R,
643,13,13,15,5,44,36,498,['c'],1,left,['1'],6,118,[0.07607365],100,44,hard,plus,dotcolour,alfa,,,89,18,V,R,
644,14,14,15,5,27,53,699,['n'],1,right,['1'],6,119,[-0.11350071],100,53,easy,plus,dotcolour,alfa,,,89,18,V,R,
645,15,15,15,5,36,44,1147,['c'],0,right,['1'],6,134,[0.13434405],100,44,hard,plus,dotcolour,alfa,,,89,18,V,R,
646,16,16,15,5,36,44,816,['n'],1,right,['2'],5,242,[-0.19845989],100,44,hard,plus,dotcolour,alfa,,,89,18,V,R,
647,17,17,15,5,33,47,749,['c'],0,right,['1'],6,116,[0.04772184],99,47,medium,plus,dotcolour,alfa,,,89,18,V,R,
648,18,18,15,5,36,44,767,['c'],0,right,['1'],6,114,[0.01898735],88,44,hard,plus,dotcolour,alfa,,,89,18,V,R,
649,19,19,15,5,33,47,684,['n'],1,right,['2'],5,388,[-0.09939129],100,47,medium,plus,dotcolour,alfa,,,89,18,V,R,
650,20,20,15,5,33,47,616,['n'],1,right,['2'],5,108,[-0.09498652],100,47,medium,plus,dotcolour,alfa,,,89,18,V,R,
651,21,21,15,5,33,47,716,['n'],1,right,['2'],5,149,[-0.06238197],100,47,medium,plus,dotcolour,alfa,,,89,18,V,R,
652,22,22,15,5,27,53,1800,['n'],1,right,['2'],5,169,[-0.10192476],100,53,easy,plus,dotcolour,alfa,,,89,18,V,R,
653,23,23,15,5,47,33,1481,['c'],1,left,['1'],6,409,[0.11047131],100,47,medium,plus,dotcolour,alfa,,,89,18,V,R,
654,24,24,15,5,27,53,2250,['n'],1,right,['2'],5,272,[-0.07271419],99,53,easy,plus,dotcolour,alfa,,,89,18,V,R,
655,25,25,15,5,53,27,649,['c'],1,left,['1'],6,157,[0.06918602],100,53,easy,plus,dotcolour,alfa,,,89,18,V,R,
656,26,26,15,5,36,44,816,['c'],0,right,['1'],6,335,[0.01362234],70,44,hard,plus,dotcolour,alfa,,,89,18,V,R,
657,27,27,15,5,33,47,599,['c'],0,right,['1'],6,123,[0.01108964],76,47,medium,plus,dotcolour,alfa,,,89,18,V,R,
658,28,28,15,5,47,33,748,['c'],1,left,['1'],6,146,[0.07561135],100,47,medium,plus,dotcolour,alfa,,,89,18,V,R,
659,29,29,15,5,36,44,683,['c'],0,right,['2'],5,138,[0.0629501],100,44,hard,plus,dotcolour,alfa,,,89,18,V,R,
660,30,30,15,5,53,27,766,['c'],1,left,['1'],6,87,[0.07447761],100,53,easy,plus,dotcolour,alfa,,,89,18,V,R,
661,31,31,15,5,44,36,882,['c'],1,left,['1'],6,130,[0.03631276],97,44,hard,plus,dotcolour,alfa,,,89,18,V,R,
662,32,32,15,5,53,27,531,['c'],1,left,['1'],6,161,[0.05087261],99,53,easy,plus,dotcolour,alfa,,,89,18,V,R,
663,33,33,15,5,44,36,496,['c'],1,left,['1'],6,144,[0.05817368],100,44,hard,plus,dotcolour,alfa,,,89,18,V,R,
664,34,34,15,5,47,33,548,['c'],1,left,['1'],6,133,[0.07726344],100,47,medium,plus,dotcolour,alfa,,,89,18,V,R,
665,35,35,15,5,44,36,731,['c'],1,left,['1'],6,60,[0.11542658],100,44,hard,plus,dotcolour,alfa,,,89,18,V,R,
666,36,36,15,5,53,27,631,['c'],1,left,['1'],6,82,[0.11860214],100,53,easy,plus,dotcolour,alfa,,,89,18,V,R,
667,37,37,15,5,33,47,650,['c'],0,right,['1'],6,78,[0.09237778],100,47,medium,plus,dotcolour,alfa,,,89,18,V,R,
668,38,38,15,5,47,33,449,['c'],1,left,['1'],6,83,[0.09381821],100,47,medium,plus,dotcolour,alfa,,,89,18,V,R,
669,39,39,15,5,36,44,531,['c'],0,right,['1'],6,36,[0.05492183],100,44,hard,plus,dotcolour,alfa,,,89,18,V,R,
670,40,40,15,5,27,53,732,['n'],1,right,['1'],6,166,[-0.15471928],100,53,easy,plus,dotcolour,alfa,,,89,18,V,R,
671,41,41,15,5,47,33,765,['c'],1,left,['1'],6,66,[0.09021601],100,47,medium,plus,dotcolour,alfa,,,89,18,V,R,
672,42,0,16,5,44,36,766,['c'],1,left,['2'],5,180,[0.04488419],98,44,hard,plus,dotcolour,alfa,,,89,18,V,R,
673,43,1,16,5,47,33,517,['c'],1,left,['2'],5,177,[0.0785643],100,47,medium,plus,dotcolour,alfa,,,89,18,V,R,
674,44,2,16,5,47,33,416,['c'],1,left,['2'],5,139,[0.12695475],100,47,medium,plus,dotcolour,alfa,,,89,18,V,R,
675,45,3,16,5,33,47,598,['c'],0,right,['2'],5,151,[0.07385947],100,47,medium,plus,dotcolour,alfa,,,89,18,V,R,
676,46,4,16,5,47,33,499,['c'],1,left,['2'],5,79,[0.10637857],100,47,medium,plus,dotcolour,alfa,,,89,18,V,R,
677,47,5,16,5,44,36,532,['c'],1,left,['2'],5,40,[0.06068259],100,44,hard,plus,dotcolour,alfa,,,89,18,V,R,
678,48,6,16,5,36,44,666,['n'],1,right,['2'],5,149,[-0.02102566],88,44,hard,plus,dotcolour,alfa,,,89,18,V,R,
679,49,7,16,5,27,53,747,['n'],1,right,['2'],5,171,[-0.13115074],100,53,easy,plus,dotcolour,alfa,,,89,18,V,R,
680,50,8,16,5,33,47,599,['n'],1,right,['2'],5,149,[-0.12090828],100,47,medium,plus,dotcolour,alfa,,,89,18,V,R,
681,51,9,16,5,47,33,799,['c'],1,left,['2'],5,112,[0.11444818],100,47,medium,plus,dotcolour,alfa,,,89,18,V,R,
682,52,10,16,5,33,47,651,['c'],0,right,['2'],5,91,[0.04521897],100,47,medium,plus,dotcolour,alfa,,,89,18,V,R,
683,53,11,16,5,44,36,533,['c'],1,left,['2'],5,124,[0.08059208],100,44,hard,plus,dotcolour,alfa,,,89,18,V,R,
684,54,12,16,5,53,27,448,['c'],1,left,['2'],5,94,[0.08065958],100,53,easy,plus,dotcolour,alfa,,,89,18,V,R,
685,55,13,16,5,53,27,549,['c'],1,left,['2'],5,37,[0.07858228],100,53,easy,plus,dotcolour,alfa,,,89,18,V,R,
686,56,14,16,5,44,36,498,['c'],1,left,['1'],6,114,[0.06794761],100,44,hard,plus,dotcolour,alfa,,,89,18,V,R,
687,57,15,16,5,44,36,550,['c'],1,left,['1'],6,129,[0.02419417],92,44,hard,plus,dotcolour,alfa,,,89,18,V,R,
688,58,16,16,5,53,27,415,['c'],1,left,['2'],5,68,[0.08169745],100,53,easy,plus,dotcolour,alfa,,,89,18,V,R,
689,59,17,16,5,27,53,749,['n'],1,right,['2'],5,301,[-0.14139367],100,53,easy,plus,dotcolour,alfa,,,89,18,V,R,
690,60,18,16,5,44,36,429,['c'],1,left,['2'],5,90,[0.04955808],100,44,hard,plus,dotcolour,alfa,,,89,18,V,R,
691,61,19,16,5,53,27,581,['c'],1,left,['2'],5,193,[0.07299428],100,53,easy,plus,dotcolour,alfa,,,89,18,V,R,
692,62,20,16,5,47,33,516,['c'],1,left,['2'],5,109,[0.12791676],100,47,medium,plus,dotcolour,alfa,,,89,18,V,R,
693,63,21,16,5,36,44,632,['n'],1,right,['2'],5,89,[-0.09352248],100,44,hard,plus,dotcolour,alfa,,,89,18,V,R,
694,64,22,16,5,36,44,666,['c'],0,right,['2'],5,100,[-0.02669522],5,44,hard,plus,dotcolour,alfa,,,89,18,V,R,
695,65,23,16,5,53,27,548,['c'],1,left,['2'],5,83,[0.06600785],100,53,easy,plus,dotcolour,alfa,,,89,18,V,R,
696,66,24,16,5,53,27,481,['c'],1,left,['2'],5,39,[0.08821671],100,53,easy,plus,dotcolour,alfa,,,89,18,V,R,
697,67,25,16,5,53,27,449,['c'],1,left,['2'],5,69,[0.11003185],100,53,easy,plus,dotcolour,alfa,,,89,18,V,R,
698,68,26,16,5,33,47,549,['n'],1,right,['2'],5,61,[-0.06995857],100,47,medium,plus,dotcolour,alfa,,,89,18,V,R,
699,69,27,16,5,27,53,582,['n'],1,right,['2'],5,77,[-0.05670049],100,53,easy,plus,dotcolour,alfa,,,89,18,V,R,
700,70,28,16,5,36,44,850,['n'],1,right,['2'],5,314,[-0.00785259],62,44,hard,plus,dotcolour,alfa,,,89,18,V,R,
701,71,29,16,5,36,44,881,['c'],0,right,['2'],5,76,[0.06543984],100,44,hard,plus,dotcolour,alfa,,,89,18,V,R,
702,72,30,16,5,33,47,599,['n'],1,right,['2'],5,41,[-0.0674325],100,47,medium,plus,dotcolour,alfa,,,89,18,V,R,
703,73,31,16,5,27,53,632,['n'],1,right,['2'],5,1057,[-0.37305239],100,53,easy,plus,dotcolour,alfa,,,89,18,V,R,
704,74,32,16,5,27,53,765,['n'],1,right,['2'],5,73,[-0.07939046],100,53,easy,plus,dotcolour,alfa,,,89,18,V,R,
705,75,33,16,5,33,47,1716,['c'],0,right,['2'],5,139,[0.07499695],100,47,medium,plus,dotcolour,alfa,,,89,18,V,R,
706,76,34,16,5,44,36,765,['n'],0,left,['2'],5,416,[0.03017157],16,44,hard,plus,dotcolour,alfa,,,89,18,V,R,
707,77,35,16,5,47,33,684,['n'],0,left,['9'],2,885,[0.00011887],50,47,medium,plus,dotcolour,alfa,,,89,18,V,R,
708,78,36,16,5,33,47,1533,['n'],1,right,['9'],2,190,[-0.14175974],100,47,medium,plus,dotcolour,alfa,,,89,18,V,R,
709,79,37,16,5,36,44,781,['c'],0,right,['2'],5,80,[0.04886044],100,44,hard,plus,dotcolour,alfa,,,89,18,V,R,
710,80,38,16,5,36,44,567,['c'],0,right,['2'],5,1176,[0.11234573],98,44,hard,plus,dotcolour,alfa,,,89,18,V,R,
711,81,39,16,5,47,33,732,['c'],1,left,['2'],5,69,[0.04775282],100,47,medium,plus,dotcolour,alfa,,,89,18,V,R,
712,82,40,16,5,27,53,583,['n'],1,right,['2'],5,100,[-0.13081622],100,53,easy,plus,dotcolour,alfa,,,89,18,V,R,
713,83,41,16,5,27,53,549,['n'],1,right,['2'],5,180,[-0.06839822],100,53,easy,plus,dotcolour,alfa,,,89,18,V,R,
714,84,0,17,5,53,27,700,['c'],1,left,['2'],5,75,[0.07174698],100,53,easy,plus,dotcolour,alfa,,,89,18,V,R,
715,85,1,17,5,27,53,332,['c'],0,right,['2'],5,27,[0.03850955],100,53,easy,plus,dotcolour,alfa,,,89,18,V,R,
716,86,2,17,5,44,36,531,['c'],1,left,['2'],5,62,[0.05360998],100,44,hard,plus,dotcolour,alfa,,,89,18,V,R,
717,87,3,17,5,33,47,249,['c'],0,right,['2'],5,27,[0.06277489],100,47,medium,plus,dotcolour,alfa,,,89,18,V,R,
718,88,4,17,5,47,33,699,['c'],1,left,['2'],5,31,[0.07202585],100,47,medium,plus,dotcolour,alfa,,,89,18,V,R,
719,89,5,17,5,36,44,316,['c'],0,right,['2'],5,67,[0.07388837],100,44,hard,plus,dotcolour,alfa,,,89,18,V,R,
720,90,6,17,5,33,47,296,['c'],0,right,['2'],5,86,[0.0701126],100,47,medium,plus,dotcolour,alfa,,,89,18,V,R,
721,91,7,17,5,36,44,949,['c'],0,right,['2'],5,78,[0.03555822],99,44,hard,plus,dotcolour,alfa,,,89,18,V,R,
722,92,8,17,5,33,47,399,['c'],0,right,['2'],5,77,[0.051965],100,47,medium,plus,dotcolour,alfa,,,89,18,V,R,
723,93,9,17,5,44,36,583,['c'],1,left,['2'],5,59,[0.07536995],100,44,hard,plus,dotcolour,alfa,,,89,18,V,R,
724,94,10,17,5,53,27,465,['c'],1,left,['2'],5,88,[0.07474644],100,53,easy,plus,dotcolour,alfa,,,89,18,V,R,
725,95,11,17,5,27,53,614,['n'],1,right,['2'],5,309,[-0.1337381],100,53,easy,plus,dotcolour,alfa,,,89,18,V,R,
726,96,12,17,5,36,44,748,['c'],0,right,['2'],5,165,[0.01052723],72,44,hard,plus,dotcolour,alfa,,,89,18,V,R,
727,97,13,17,5,33,47,599,['n'],1,right,['2'],5,55,[-0.10964361],100,47,medium,plus,dotcolour,alfa,,,89,18,V,R,
728,98,14,17,5,33,47,466,['c'],0,right,['2'],5,100,[0.05927478],100,47,medium,plus,dotcolour,alfa,,,89,18,V,R,
729,99,15,17,5,44,36,731,['c'],1,left,['2'],5,125,[0.07375781],100,44,hard,plus,dotcolour,alfa,,,89,18,V,R,
730,100,16,17,5,47,33,382,['c'],1,left,['2'],5,17,[0.0889762],100,47,medium,plus,dotcolour,alfa,,,89,18,V,R,
731,101,17,17,5,47,33,465,['c'],1,left,['2'],5,95,[0.10694199],100,47,medium,plus,dotcolour,alfa,,,89,18,V,R,
732,102,18,17,5,44,36,582,['c'],1,left,['2'],5,30,[0.09067543],100,44,hard,plus,dotcolour,alfa,,,89,18,V,R,
733,103,19,17,5,53,27,532,['c'],1,left,['2'],5,57,[0.05559171],100,53,easy,plus,dotcolour,alfa,,,89,18,V,R,
734,104,20,17,5,53,27,499,['c'],1,left,['2'],5,132,[0.1311789],100,53,easy,plus,dotcolour,alfa,,,89,18,V,R,
735,105,21,17,5,53,27,432,['c'],1,left,['2'],5,79,[0.08595345],100,53,easy,plus,dotcolour,alfa,,,89,18,V,R,
736,106,22,17,5,53,27,416,['c'],1,left,['2'],5,45,[0.06833791],100,53,easy,plus,dotcolour,alfa,,,89,18,V,R,
737,107,23,17,5,47,33,366,['c'],1,left,['2'],5,78,[0.06490592],100,47,medium,plus,dotcolour,alfa,,,89,18,V,R,
738,108,24,17,5,47,33,431,['c'],1,left,['2'],5,1083,[0.06640278],91,47,medium,plus,dotcolour,alfa,,,89,18,V,R,
739,109,25,17,5,47,33,448,['c'],1,left,['2'],5,94,[0.0594083],100,47,medium,plus,dotcolour,alfa,,,89,18,V,R,
740,110,26,17,5,47,33,365,['c'],1,left,['2'],5,14,[0.07151822],100,47,medium,plus,dotcolour,alfa,,,89,18,V,R,
741,111,27,17,5,44,36,366,['c'],1,left,['2'],5,88,[0.11077672],100,44,hard,plus,dotcolour,alfa,,,89,18,V,R,
742,112,28,17,5,36,44,465,['c'],0,right,['2'],5,43,[0.05320506],100,44,hard,plus,dotcolour,alfa,,,89,18,V,R,
743,113,29,17,5,27,53,683,['n'],1,right,['2'],5,111,[-0.08988863],100,53,easy,plus,dotcolour,alfa,,,89,18,V,R,
744,114,30,17,5,27,53,448,['n'],1,right,['2'],5,90,[-0.06751129],100,53,easy,plus,dotcolour,alfa,,,89,18,V,R,
745,115,31,17,5,33,47,482,['n'],1,right,['2'],5,93,[-0.0928307],100,47,medium,plus,dotcolour,alfa,,,89,18,V,R,
746,116,32,17,5,27,53,414,['n'],1,right,['2'],5,106,[-0.11076736],100,53,easy,plus,dotcolour,alfa,,,89,18,V,R,
747,117,33,17,5,36,44,549,['n'],1,right,['1'],6,66,[-0.01992437],94,44,hard,plus,dotcolour,alfa,,,89,18,V,R,
748,118,34,17,5,27,53,663,['n'],1,right,['1'],6,38,[-0.11848727],100,53,easy,plus,dotcolour,alfa,,,89,18,V,R,
749,119,35,17,5,36,44,514,['n'],1,right,['1'],6,49,[-0.06433342],100,44,hard,plus,dotcolour,alfa,,,89,18,V,R,
750,120,36,17,5,44,36,548,['c'],1,left,['2'],5,26,[0.08358891],100,44,hard,plus,dotcolour,alfa,,,89,18,V,R,
751,121,37,17,5,27,53,547,['n'],1,right,['2'],5,85,[-0.08298265],100,53,easy,plus,dotcolour,alfa,,,89,18,V,R,
752,122,38,17,5,44,36,665,['c'],1,left,['2'],5,57,[0.10241936],100,44,hard,plus,dotcolour,alfa,,,89,18,V,R,
753,123,39,17,5,53,27,515,['c'],1,left,['2'],5,35,[0.08151211],100,53,easy,plus,dotcolour,alfa,,,89,18,V,R,
754,124,40,17,5,36,44,565,['c'],0,right,['2'],5,93,[0.03221347],98,44,hard,plus,dotcolour,alfa,,,89,18,V,R,
755,125,41,17,5,33,47,514,['c'],0,right,['2'],5,13,[0.06753356],100,47,medium,plus,dotcolour,alfa,,,89,18,V,R,
,,,,,,,,,,,,,,,,,,,,,1,"soms wanneer ik per ongeluk het verkeerde aanduidde en toch zei dat ik zeker was, gaf het nog steeds aan dat het volledig correct was",89,18,V,R,
,,,,,,,,,,,,,,,,,,,,,2,['g'],89,18,V,R,
,,,,,,,,,,,,,,,,,,,,,3,['f'],89,18,V,R,
,,,,,,,,,,,,,,,,,,,,,5,['5'],89,18,V,R,
