trial,withinphasetrial,withinblocktrial,block,phase,dotsLeft,dotsRight,rt,resp,cor,cresp,conf_press,cj,RTconf,ev,fb,diff,difflevel,condition,task,manip,questionID,questionResp,sub,age,gender,handedness,
0,0,0,0,0,47,33,2568,['n'],0,left,['3'],4,1917,[0.00239022],67,47,medium,plus,dotcolour,beta,,,44,21,V,R,
1,1,1,0,0,36,44,1317,['n'],1,right,['3'],4,1716,[0.03291934],58,44,hard,plus,dotcolour,beta,,,44,21,V,R,
2,2,2,0,0,36,44,1417,['c'],0,right,['2'],5,1048,[0.09309696],93,44,hard,plus,dotcolour,beta,,,44,21,V,R,
3,3,3,0,0,53,27,1184,['c'],1,left,['1'],6,551,[0.15981243],99,53,easy,plus,dotcolour,beta,,,44,21,V,R,
4,4,4,0,0,27,53,1233,['n'],1,right,['2'],5,2169,[-0.47926066],100,53,easy,plus,dotcolour,beta,,,44,21,V,R,
5,5,5,0,0,53,27,983,['c'],1,left,['2'],5,852,[0.12266661],97,53,easy,plus,dotcolour,beta,,,44,21,V,R,
6,6,6,0,0,53,27,934,['c'],1,left,['2'],5,853,[0.10241524],96,53,easy,plus,dotcolour,beta,,,44,21,V,R,
7,7,7,0,0,53,27,867,['c'],1,left,['2'],5,505,[0.11148699],99,53,easy,plus,dotcolour,beta,,,44,21,V,R,
8,8,8,0,0,27,53,700,['n'],1,right,['2'],5,610,[-0.10233887],97,53,easy,plus,dotcolour,beta,,,44,21,V,R,
9,9,9,0,0,44,36,933,['c'],1,left,['2'],5,661,[0.05317144],92,44,hard,plus,dotcolour,beta,,,44,21,V,R,
10,10,10,0,0,47,33,867,['c'],1,left,['2'],5,865,[0.05989545],90,47,medium,plus,dotcolour,beta,,,44,21,V,R,
11,11,11,0,0,44,36,800,['c'],1,left,['2'],5,552,[-0.01188288],74,44,hard,plus,dotcolour,beta,,,44,21,V,R,
12,12,12,0,0,47,33,1167,['c'],1,left,['1'],6,372,[0.20945188],100,47,medium,plus,dotcolour,beta,,,44,21,V,R,
13,13,13,0,0,27,53,1132,['n'],1,right,['2'],5,665,[-0.18572923],100,53,easy,plus,dotcolour,beta,,,44,21,V,R,
14,14,14,0,0,47,33,1001,['c'],1,left,['2'],5,391,[0.05589569],96,47,medium,plus,dotcolour,beta,,,44,21,V,R,
15,15,15,0,0,47,33,750,['c'],1,left,['2'],5,578,[0.1955778],100,47,medium,plus,dotcolour,beta,,,44,21,V,R,
16,16,16,0,0,47,33,834,['c'],1,left,['2'],5,459,[0.09370404],98,47,medium,plus,dotcolour,beta,,,44,21,V,R,
17,17,17,0,0,33,47,1783,['c'],0,right,['3'],4,371,[0.02661517],92,47,medium,plus,dotcolour,beta,,,44,21,V,R,
18,18,18,0,0,44,36,2683,['c'],1,left,['3'],4,738,[0.22272356],100,44,hard,plus,dotcolour,beta,,,44,21,V,R,
19,19,19,0,0,33,47,3100,['n'],1,right,['3'],4,889,[-0.30632066],100,47,medium,plus,dotcolour,beta,,,44,21,V,R,
20,20,20,0,0,53,27,683,['c'],1,left,['3'],4,411,[0.16096815],100,53,easy,plus,dotcolour,beta,,,44,21,V,R,
21,21,21,0,0,33,47,1049,['c'],0,right,['2'],5,362,[-0.04197839],60,47,medium,plus,dotcolour,beta,,,44,21,V,R,
22,22,22,0,0,33,47,767,['n'],1,right,['2'],5,670,[-0.14196319],99,47,medium,plus,dotcolour,beta,,,44,21,V,R,
23,23,23,0,0,36,44,916,['c'],0,right,['2'],5,391,[0.00557084],85,44,hard,plus,dotcolour,beta,,,44,21,V,R,
24,24,24,0,0,36,44,1516,['c'],0,right,['3'],4,556,[-0.04802203],55,44,hard,plus,dotcolour,beta,,,44,21,V,R,
25,25,25,0,0,27,53,783,['n'],1,right,['2'],5,463,[-0.13956964],99,53,easy,plus,dotcolour,beta,,,44,21,V,R,
26,26,26,0,0,27,53,1084,['n'],1,right,['2'],5,442,[-0.09881132],98,53,easy,plus,dotcolour,beta,,,44,21,V,R,
27,27,27,0,0,44,36,833,['c'],1,left,['2'],5,352,[0.11352855],99,44,hard,plus,dotcolour,beta,,,44,21,V,R,
28,28,28,0,0,33,47,1067,['c'],0,right,['2'],5,369,[0.01775262],90,47,medium,plus,dotcolour,beta,,,44,21,V,R,
29,29,29,0,0,53,27,617,['c'],1,left,['2'],5,411,[0.10297237],99,53,easy,plus,dotcolour,beta,,,44,21,V,R,
30,30,30,0,0,36,44,717,['n'],1,right,['9'],2,1743,[-0.18198142],96,44,hard,plus,dotcolour,beta,,,44,21,V,R,
31,31,31,0,0,27,53,1351,['c'],0,right,['2'],5,396,[-0.05259156],52,53,easy,plus,dotcolour,beta,,,44,21,V,R,
32,32,32,0,0,53,27,1433,['c'],1,left,['2'],5,676,[-0.01835304],69,53,easy,plus,dotcolour,beta,,,44,21,V,R,
33,33,33,0,0,36,44,1333,['n'],1,right,['3'],4,573,[-0.12442],99,44,hard,plus,dotcolour,beta,,,44,21,V,R,
34,34,34,0,0,44,36,1250,['c'],1,left,['2'],5,486,[0.26068921],100,44,hard,plus,dotcolour,beta,,,44,21,V,R,
35,35,35,0,0,47,33,983,['c'],1,left,['1'],6,348,[0.15828214],100,47,medium,plus,dotcolour,beta,,,44,21,V,R,
36,36,36,0,0,33,47,666,['n'],1,right,['1'],6,404,[-0.18580579],100,47,medium,plus,dotcolour,beta,,,44,21,V,R,
37,37,37,0,0,27,53,1100,['n'],1,right,['2'],5,681,[-0.31349897],100,53,easy,plus,dotcolour,beta,,,44,21,V,R,
38,38,38,0,0,44,36,717,['c'],1,left,['2'],5,418,[0.12350192],99,44,hard,plus,dotcolour,beta,,,44,21,V,R,
39,39,39,0,0,44,36,2682,['n'],0,left,['3'],4,655,[-0.00366498],79,44,hard,plus,dotcolour,beta,,,44,21,V,R,
40,40,40,0,0,33,47,2135,['c'],0,right,['3'],4,457,[-0.05276746],52,47,medium,plus,dotcolour,beta,,,44,21,V,R,
41,41,41,0,0,36,44,967,['n'],1,right,['2'],5,345,[-0.1224155],100,44,hard,plus,dotcolour,beta,,,44,21,V,R,
42,42,0,1,0,27,53,868,['n'],1,right,['2'],5,411,[-0.01682705],88,53,easy,plus,dotcolour,beta,,,44,21,V,R,
43,43,1,1,0,36,44,1334,['n'],1,right,['2'],5,342,[-0.14352123],100,44,hard,plus,dotcolour,beta,,,44,21,V,R,
44,44,2,1,0,33,47,967,['n'],1,right,['2'],5,371,[-0.09999344],99,47,medium,plus,dotcolour,beta,,,44,21,V,R,
45,45,3,1,0,44,36,751,['c'],1,left,['2'],5,479,[0.03310949],91,44,hard,plus,dotcolour,beta,,,44,21,V,R,
46,46,4,1,0,27,53,917,['n'],1,right,['3'],4,616,[-0.24011804],100,53,easy,plus,dotcolour,beta,,,44,21,V,R,
47,47,5,1,0,44,36,1417,['c'],1,left,['3'],4,489,[0.18699208],100,44,hard,plus,dotcolour,beta,,,44,21,V,R,
48,48,6,1,0,27,53,816,['n'],1,right,['2'],5,485,[-0.08345383],97,53,easy,plus,dotcolour,beta,,,44,21,V,R,
49,49,7,1,0,53,27,733,['c'],1,left,['2'],5,445,[0.22230695],100,53,easy,plus,dotcolour,beta,,,44,21,V,R,
50,50,8,1,0,36,44,1349,['c'],0,right,['2'],5,439,[-0.00503009],80,44,hard,plus,dotcolour,beta,,,44,21,V,R,
51,51,9,1,0,33,47,750,['n'],1,right,['1'],6,352,[-0.13460608],100,47,medium,plus,dotcolour,beta,,,44,21,V,R,
52,52,10,1,0,33,47,735,['n'],1,right,['1'],6,318,[-0.11402094],100,47,medium,plus,dotcolour,beta,,,44,21,V,R,
53,53,11,1,0,44,36,633,['c'],1,left,['1'],6,305,[-0.02225882],75,44,hard,plus,dotcolour,beta,,,44,21,V,R,
54,54,12,1,0,27,53,984,['n'],1,right,['2'],5,439,[-0.03796403],93,53,easy,plus,dotcolour,beta,,,44,21,V,R,
55,55,13,1,0,33,47,1534,['c'],0,right,['2'],5,490,[-0.07629581],37,47,medium,plus,dotcolour,beta,,,44,21,V,R,
56,56,14,1,0,36,44,1817,['n'],1,right,['3'],4,446,[-0.04915806],94,44,hard,plus,dotcolour,beta,,,44,21,V,R,
57,57,15,1,0,53,27,950,['c'],1,left,['2'],5,479,[0.18307113],100,53,easy,plus,dotcolour,beta,,,44,21,V,R,
58,58,16,1,0,44,36,1033,['c'],1,left,['2'],5,371,[-0.01116896],79,44,hard,plus,dotcolour,beta,,,44,21,V,R,
59,59,17,1,0,47,33,1700,['c'],1,left,['3'],4,537,[0.06087084],95,47,medium,plus,dotcolour,beta,,,44,21,V,R,
60,60,18,1,0,33,47,1166,['n'],1,right,['3'],4,446,[-0.06049126],96,47,medium,plus,dotcolour,beta,,,44,21,V,R,
61,61,19,1,0,36,44,701,['c'],0,right,['2'],5,377,[-0.01269452],78,44,hard,plus,dotcolour,beta,,,44,21,V,R,
62,62,20,1,0,47,33,867,['c'],1,left,['2'],5,321,[0.18103722],100,47,medium,plus,dotcolour,beta,,,44,21,V,R,
63,63,21,1,0,44,36,1266,['c'],1,left,['2'],5,739,[0.04380556],89,44,hard,plus,dotcolour,beta,,,44,21,V,R,
64,64,22,1,0,27,53,667,['n'],1,right,['2'],5,395,[-0.09580106],99,53,easy,plus,dotcolour,beta,,,44,21,V,R,
65,65,23,1,0,36,44,817,['c'],0,right,['2'],5,324,[0.08076309],99,44,hard,plus,dotcolour,beta,,,44,21,V,R,
66,66,24,1,0,27,53,900,['n'],1,right,['2'],5,308,[-0.18157103],100,53,easy,plus,dotcolour,beta,,,44,21,V,R,
67,67,25,1,0,53,27,733,['c'],1,left,['2'],5,403,[0.18610227],100,53,easy,plus,dotcolour,beta,,,44,21,V,R,
68,68,26,1,0,53,27,783,['c'],1,left,['2'],5,326,[0.06333255],98,53,easy,plus,dotcolour,beta,,,44,21,V,R,
69,69,27,1,0,27,53,700,['n'],1,right,['2'],5,437,[-0.1276563],99,53,easy,plus,dotcolour,beta,,,44,21,V,R,
70,70,28,1,0,47,33,817,['c'],1,left,['1'],6,436,[0.2007831],100,47,medium,plus,dotcolour,beta,,,44,21,V,R,
71,71,29,1,0,47,33,917,['c'],1,left,['1'],6,288,[0.22846979],100,47,medium,plus,dotcolour,beta,,,44,21,V,R,
72,72,30,1,0,53,27,866,['c'],1,left,['1'],6,339,[0.07811454],98,53,easy,plus,dotcolour,beta,,,44,21,V,R,
73,73,31,1,0,53,27,883,['c'],1,left,['2'],5,363,[0.15612574],100,53,easy,plus,dotcolour,beta,,,44,21,V,R,
74,74,32,1,0,36,44,1034,['n'],1,right,['2'],5,396,[-0.14889914],100,44,hard,plus,dotcolour,beta,,,44,21,V,R,
75,75,33,1,0,33,47,766,['n'],1,right,['2'],5,327,[-0.07625969],98,47,medium,plus,dotcolour,beta,,,44,21,V,R,
76,76,34,1,0,47,33,850,['c'],1,left,['1'],6,361,[0.0892721],99,47,medium,plus,dotcolour,beta,,,44,21,V,R,
77,77,35,1,0,33,47,700,['n'],1,right,['2'],5,471,[-0.02372302],89,47,medium,plus,dotcolour,beta,,,44,21,V,R,
78,78,36,1,0,47,33,801,['c'],1,left,['2'],5,773,[0.12387934],98,47,medium,plus,dotcolour,beta,,,44,21,V,R,
79,79,37,1,0,44,36,1283,['c'],1,left,['2'],5,564,[-0.13543518],13,44,hard,plus,dotcolour,beta,,,44,21,V,R,
80,80,38,1,0,53,27,966,['c'],1,left,['2'],5,856,[0.30925873],100,53,easy,plus,dotcolour,beta,,,44,21,V,R,
81,81,39,1,0,44,36,1167,['c'],1,left,['3'],4,552,[0.2408844],100,44,hard,plus,dotcolour,beta,,,44,21,V,R,
82,82,40,1,0,36,44,717,['n'],1,right,['3'],4,479,[-0.21084427],100,44,hard,plus,dotcolour,beta,,,44,21,V,R,
83,83,41,1,0,47,33,883,['c'],1,left,['3'],4,409,[0.12145694],99,47,medium,plus,dotcolour,beta,,,44,21,V,R,
84,84,0,2,0,27,53,750,['n'],1,right,['2'],5,475,[-0.13802319],99,53,easy,plus,dotcolour,beta,,,44,21,V,R,
85,85,1,2,0,44,36,1033,['n'],0,left,['3'],4,631,[-0.0077169],81,44,hard,plus,dotcolour,beta,,,44,21,V,R,
86,86,2,2,0,53,27,733,['c'],1,left,['1'],6,370,[0.09014163],99,53,easy,plus,dotcolour,beta,,,44,21,V,R,
87,87,3,2,0,53,27,700,['c'],1,left,['1'],6,392,[0.1335227],100,53,easy,plus,dotcolour,beta,,,44,21,V,R,
88,88,4,2,0,53,27,1250,['c'],1,left,['1'],6,248,[0.08275261],99,53,easy,plus,dotcolour,beta,,,44,21,V,R,
89,89,5,2,0,33,47,767,['n'],1,right,['1'],6,945,[-0.19276115],99,47,medium,plus,dotcolour,beta,,,44,21,V,R,
90,90,6,2,0,27,53,734,['n'],1,right,['1'],6,247,[-0.13795385],100,53,easy,plus,dotcolour,beta,,,44,21,V,R,
91,91,7,2,0,53,27,734,['c'],1,left,['2'],5,344,[0.16568583],100,53,easy,plus,dotcolour,beta,,,44,21,V,R,
92,92,8,2,0,47,33,683,['c'],1,left,['2'],5,337,[0.08599652],99,47,medium,plus,dotcolour,beta,,,44,21,V,R,
93,93,9,2,0,53,27,600,['c'],1,left,['2'],5,301,[0.07135971],98,53,easy,plus,dotcolour,beta,,,44,21,V,R,
94,94,10,2,0,44,36,1817,['c'],1,left,['3'],4,345,[0.07220558],98,44,hard,plus,dotcolour,beta,,,44,21,V,R,
95,95,11,2,0,44,36,717,['c'],1,left,['2'],5,360,[0.06351669],97,44,hard,plus,dotcolour,beta,,,44,21,V,R,
96,96,12,2,0,36,44,750,['n'],1,right,['2'],5,365,[-0.05748437],97,44,hard,plus,dotcolour,beta,,,44,21,V,R,
97,97,13,2,0,33,47,734,['n'],1,right,['2'],5,250,[-0.12574401],100,47,medium,plus,dotcolour,beta,,,44,21,V,R,
98,98,14,2,0,33,47,667,['n'],1,right,['2'],5,463,[-0.15184992],100,47,medium,plus,dotcolour,beta,,,44,21,V,R,
99,99,15,2,0,53,27,784,['c'],1,left,['2'],5,350,[0.27114204],100,53,easy,plus,dotcolour,beta,,,44,21,V,R,
100,100,16,2,0,36,44,533,['n'],1,right,['2'],5,356,[-0.159006],100,44,hard,plus,dotcolour,beta,,,44,21,V,R,
101,101,17,2,0,44,36,868,['c'],1,left,['2'],5,380,[0.0563913],96,44,hard,plus,dotcolour,beta,,,44,21,V,R,
102,102,18,2,0,36,44,1133,['n'],1,right,['2'],5,505,[-0.24052994],100,44,hard,plus,dotcolour,beta,,,44,21,V,R,
103,103,19,2,0,47,33,800,['c'],1,left,['2'],5,293,[0.09917538],99,47,medium,plus,dotcolour,beta,,,44,21,V,R,
104,104,20,2,0,47,33,1200,['c'],1,left,['2'],5,403,[0.15633172],100,47,medium,plus,dotcolour,beta,,,44,21,V,R,
105,105,21,2,0,36,44,883,['n'],1,right,['2'],5,257,[-0.02696339],95,44,hard,plus,dotcolour,beta,,,44,21,V,R,
106,106,22,2,0,44,36,1034,['c'],1,left,['2'],5,238,[0.09537667],100,44,hard,plus,dotcolour,beta,,,44,21,V,R,
107,107,23,2,0,47,33,699,['c'],1,left,['2'],5,258,[0.09127311],99,47,medium,plus,dotcolour,beta,,,44,21,V,R,
108,108,24,2,0,27,53,634,['n'],1,right,['2'],5,271,[-0.10600448],100,53,easy,plus,dotcolour,beta,,,44,21,V,R,
109,109,25,2,0,33,47,1451,['n'],1,right,['2'],5,228,[-0.07454181],99,47,medium,plus,dotcolour,beta,,,44,21,V,R,
110,110,26,2,0,47,33,650,['c'],1,left,['2'],5,250,[-0.00216493],87,47,medium,plus,dotcolour,beta,,,44,21,V,R,
111,111,27,2,0,27,53,667,['n'],1,right,['2'],5,199,[-0.08474043],100,53,easy,plus,dotcolour,beta,,,44,21,V,R,
112,112,28,2,0,47,33,750,['c'],1,left,['1'],6,250,[0.13004516],100,47,medium,plus,dotcolour,beta,,,44,21,V,R,
113,113,29,2,0,33,47,667,['n'],1,right,['1'],6,247,[-0.07699029],99,47,medium,plus,dotcolour,beta,,,44,21,V,R,
114,114,30,2,0,27,53,633,['n'],1,right,['1'],6,252,[-0.13309629],100,53,easy,plus,dotcolour,beta,,,44,21,V,R,
115,115,31,2,0,44,36,685,['c'],1,left,['2'],5,233,[0.13454586],100,44,hard,plus,dotcolour,beta,,,44,21,V,R,
116,116,32,2,0,27,53,550,['n'],1,right,['2'],5,282,[-0.04343576],97,53,easy,plus,dotcolour,beta,,,44,21,V,R,
117,117,33,2,0,33,47,1483,['n'],1,right,['3'],4,278,[-0.16368623],100,47,medium,plus,dotcolour,beta,,,44,21,V,R,
118,118,34,2,0,36,44,650,['n'],1,right,['2'],5,377,[-0.07955024],98,44,hard,plus,dotcolour,beta,,,44,21,V,R,
119,119,35,2,0,33,47,682,['n'],1,right,['2'],5,480,[-0.20711053],100,47,medium,plus,dotcolour,beta,,,44,21,V,R,
120,120,36,2,0,47,33,850,['c'],1,left,['2'],5,356,[0.02406865],92,47,medium,plus,dotcolour,beta,,,44,21,V,R,
121,121,37,2,0,53,27,800,['c'],1,left,['1'],6,423,[0.0926476],98,53,easy,plus,dotcolour,beta,,,44,21,V,R,
122,122,38,2,0,27,53,666,['n'],1,right,['2'],5,349,[-0.12538084],100,53,easy,plus,dotcolour,beta,,,44,21,V,R,
123,123,39,2,0,36,44,1350,['n'],1,right,['8'],3,1818,[-0.10001058],89,44,hard,plus,dotcolour,beta,,,44,21,V,R,
124,124,40,2,0,44,36,1450,['c'],1,left,['2'],5,391,[0.09116458],99,44,hard,plus,dotcolour,beta,,,44,21,V,R,
125,125,41,2,0,36,44,1116,['n'],1,right,['2'],5,444,[-0.08501517],98,44,hard,plus,dotcolour,beta,,,44,21,V,R,
126,0,0,3,1,27,53,685,['n'],1,right,['1'],6,319,[-0.12126629],89,53,easy,minus,dotcolour,beta,,,44,21,V,R,
127,1,1,3,1,27,53,834,['n'],1,right,['1'],6,298,[-0.20202531],99,53,easy,minus,dotcolour,beta,,,44,21,V,R,
128,2,2,3,1,27,53,684,['n'],1,right,['2'],5,348,[-0.19232037],98,53,easy,minus,dotcolour,beta,,,44,21,V,R,
129,3,3,3,1,33,47,834,['n'],1,right,['2'],5,214,[-0.09606755],83,47,medium,minus,dotcolour,beta,,,44,21,V,R,
130,4,4,3,1,36,44,900,['n'],1,right,['2'],5,195,[-0.08915924],80,44,hard,minus,dotcolour,beta,,,44,21,V,R,
131,5,5,3,1,53,27,817,['c'],1,left,['1'],6,676,[0.27036878],99,53,easy,minus,dotcolour,beta,,,44,21,V,R,
132,6,6,3,1,44,36,1499,['n'],0,left,['3'],4,886,[-0.03989323],43,44,hard,minus,dotcolour,beta,,,44,21,V,R,
133,7,7,3,1,36,44,800,['n'],1,right,['2'],5,347,[-0.16168434],96,44,hard,minus,dotcolour,beta,,,44,21,V,R,
134,8,8,3,1,53,27,1350,['c'],1,left,['2'],5,440,[0.18023123],97,53,easy,minus,dotcolour,beta,,,44,21,V,R,
135,9,9,3,1,27,53,582,['n'],1,right,['2'],5,232,[-0.18716203],99,53,easy,minus,dotcolour,beta,,,44,21,V,R,
136,10,10,3,1,44,36,1217,['c'],1,left,['2'],5,296,[0.10732355],85,44,hard,minus,dotcolour,beta,,,44,21,V,R,
137,11,11,3,1,44,36,1000,['n'],0,left,['2'],5,341,[-0.10805236],83,44,hard,minus,dotcolour,beta,,,44,21,V,R,
138,12,12,3,1,33,47,799,['n'],1,right,['2'],5,240,[-0.03390215],31,47,medium,minus,dotcolour,beta,,,44,21,V,R,
139,13,13,3,1,33,47,1583,['n'],1,right,['2'],5,225,[-0.04797022],43,47,medium,minus,dotcolour,beta,,,44,21,V,R,
140,14,14,3,1,36,44,867,['n'],1,right,['3'],4,326,[-0.10608585],83,44,hard,minus,dotcolour,beta,,,44,21,V,R,
141,15,15,3,1,53,27,783,['c'],1,left,['1'],6,314,[0.09665521],79,53,easy,minus,dotcolour,beta,,,44,21,V,R,
142,16,16,3,1,53,27,900,['c'],1,left,['1'],6,339,[0.19293519],99,53,easy,minus,dotcolour,beta,,,44,21,V,R,
143,17,17,3,1,47,33,800,['c'],1,left,['1'],6,326,[-0.02461732],7,47,medium,minus,dotcolour,beta,,,44,21,V,R,
144,18,18,3,1,33,47,2100,['n'],1,right,['8'],3,966,[-0.2474542],97,47,medium,minus,dotcolour,beta,,,44,21,V,R,
145,19,19,3,1,36,44,916,['c'],0,right,['2'],5,1588,[-0.20384356],2,44,hard,minus,dotcolour,beta,,,44,21,V,R,
146,20,20,3,1,27,53,700,['n'],1,right,['1'],6,393,[-0.07200748],62,53,easy,minus,dotcolour,beta,,,44,21,V,R,
147,21,21,3,1,53,27,767,['c'],1,left,['1'],6,404,[0.24968731],100,53,easy,minus,dotcolour,beta,,,44,21,V,R,
148,22,22,3,1,47,33,850,['c'],1,left,['2'],5,482,[0.04744296],45,47,medium,minus,dotcolour,beta,,,44,21,V,R,
149,23,23,3,1,44,36,1017,['c'],1,left,['2'],5,760,[0.20024176],95,44,hard,minus,dotcolour,beta,,,44,21,V,R,
150,24,24,3,1,44,36,667,['c'],1,left,['2'],5,584,[0.05896133],52,44,hard,minus,dotcolour,beta,,,44,21,V,R,
151,25,25,3,1,44,36,1100,['c'],1,left,['2'],5,294,[0.22448184],100,44,hard,minus,dotcolour,beta,,,44,21,V,R,
152,26,26,3,1,33,47,717,['n'],1,right,['2'],5,318,[-0.10608658],83,47,medium,minus,dotcolour,beta,,,44,21,V,R,
153,27,27,3,1,53,27,683,['c'],1,left,['2'],5,312,[0.16286109],97,53,easy,minus,dotcolour,beta,,,44,21,V,R,
154,28,28,3,1,53,27,684,['c'],1,left,['2'],5,241,[0.12268162],92,53,easy,minus,dotcolour,beta,,,44,21,V,R,
155,29,29,3,1,47,33,633,['c'],1,left,['2'],5,207,[0.02916422],26,47,medium,minus,dotcolour,beta,,,44,21,V,R,
156,30,30,3,1,27,53,616,['n'],1,right,['1'],6,343,[-0.16106664],96,53,easy,minus,dotcolour,beta,,,44,21,V,R,
157,31,31,3,1,36,44,834,['c'],0,right,['2'],5,273,[0.06389504],57,44,hard,minus,dotcolour,beta,,,44,21,V,R,
158,32,32,3,1,47,33,983,['c'],1,left,['2'],5,216,[0.00814823],14,47,medium,minus,dotcolour,beta,,,44,21,V,R,
159,33,33,3,1,33,47,701,['n'],1,right,['1'],6,292,[-0.20629998],99,47,medium,minus,dotcolour,beta,,,44,21,V,R,
160,34,34,3,1,27,53,617,['n'],1,right,['1'],6,289,[-0.06772235],60,53,easy,minus,dotcolour,beta,,,44,21,V,R,
161,35,35,3,1,47,33,900,['c'],1,left,['2'],5,274,[0.13727341],94,47,medium,minus,dotcolour,beta,,,44,21,V,R,
162,36,36,3,1,33,47,850,['n'],1,right,['2'],5,206,[-0.10378894],87,47,medium,minus,dotcolour,beta,,,44,21,V,R,
163,37,37,3,1,36,44,1401,['n'],1,right,['2'],5,183,[-0.04716214],41,44,hard,minus,dotcolour,beta,,,44,21,V,R,
164,38,38,3,1,47,33,1034,['c'],1,left,['1'],6,336,[0.12483178],90,47,medium,minus,dotcolour,beta,,,44,21,V,R,
165,39,39,3,1,44,36,1334,['c'],1,left,['2'],5,262,[0.12710458],93,44,hard,minus,dotcolour,beta,,,44,21,V,R,
166,40,40,3,1,47,33,849,['n'],0,left,['9'],2,1643,[0.24026743],2,47,medium,minus,dotcolour,beta,,,44,21,V,R,
167,41,41,3,1,36,44,1650,['n'],1,right,['2'],5,472,[-0.14610461],91,44,hard,minus,dotcolour,beta,,,44,21,V,R,
168,42,0,4,1,44,36,1100,['c'],1,left,['2'],5,649,[0.1864998],95,44,hard,minus,dotcolour,beta,,,44,21,V,R,
169,43,1,4,1,27,53,800,['n'],1,right,['2'],5,368,[-0.07742578],66,53,easy,minus,dotcolour,beta,,,44,21,V,R,
170,44,2,4,1,47,33,932,['c'],1,left,['3'],4,582,[0.16951219],94,47,medium,minus,dotcolour,beta,,,44,21,V,R,
171,45,3,4,1,36,44,1300,['n'],1,right,['8'],3,1292,[-0.07623739],58,44,hard,minus,dotcolour,beta,,,44,21,V,R,
172,46,4,4,1,53,27,733,['c'],1,left,['2'],5,540,[0.11497436],81,53,easy,minus,dotcolour,beta,,,44,21,V,R,
173,47,5,4,1,27,53,1134,['n'],1,right,['2'],5,282,[-0.04524956],41,53,easy,minus,dotcolour,beta,,,44,21,V,R,
174,48,6,4,1,47,33,1150,['c'],1,left,['3'],4,490,[0.09090182],71,47,medium,minus,dotcolour,beta,,,44,21,V,R,
175,49,7,4,1,36,44,933,['c'],0,right,['2'],5,506,[-0.01128113],16,44,hard,minus,dotcolour,beta,,,44,21,V,R,
176,50,8,4,1,47,33,834,['c'],1,left,['2'],5,532,[0.11798511],82,47,medium,minus,dotcolour,beta,,,44,21,V,R,
177,51,9,4,1,44,36,1132,['c'],1,left,['2'],5,324,[0.08442064],71,44,hard,minus,dotcolour,beta,,,44,21,V,R,
178,52,10,4,1,47,33,850,['c'],1,left,['2'],5,286,[0.03708273],35,47,medium,minus,dotcolour,beta,,,44,21,V,R,
179,53,11,4,1,53,27,733,['c'],1,left,['2'],5,270,[0.06579358],59,53,easy,minus,dotcolour,beta,,,44,21,V,R,
180,54,12,4,1,33,47,717,['n'],1,right,['2'],5,264,[-0.10150984],83,47,medium,minus,dotcolour,beta,,,44,21,V,R,
181,55,13,4,1,33,47,850,['n'],1,right,['2'],5,181,[-0.09042081],81,47,medium,minus,dotcolour,beta,,,44,21,V,R,
182,56,14,4,1,47,33,984,['n'],0,left,['2'],5,208,[-0.05558995],50,47,medium,minus,dotcolour,beta,,,44,21,V,R,
183,57,15,4,1,44,36,567,['c'],1,left,['2'],5,322,[0.07067711],62,44,hard,minus,dotcolour,beta,,,44,21,V,R,
184,58,16,4,1,53,27,717,['c'],1,left,['2'],5,273,[0.08946009],76,53,easy,minus,dotcolour,beta,,,44,21,V,R,
185,59,17,4,1,33,47,716,['n'],1,right,['1'],6,282,[-0.16121681],97,47,medium,minus,dotcolour,beta,,,44,21,V,R,
186,60,18,4,1,53,27,933,['c'],1,left,['1'],6,243,[0.1406865],96,53,easy,minus,dotcolour,beta,,,44,21,V,R,
187,61,19,4,1,47,33,884,['c'],1,left,['2'],5,175,[0.08619385],79,47,medium,minus,dotcolour,beta,,,44,21,V,R,
188,62,20,4,1,53,27,884,['c'],1,left,['2'],5,293,[0.15512844],96,53,easy,minus,dotcolour,beta,,,44,21,V,R,
189,63,21,4,1,33,47,1516,['n'],1,right,['2'],5,1087,[-0.13202043],79,47,medium,minus,dotcolour,beta,,,44,21,V,R,
190,64,22,4,1,33,47,1000,['c'],0,right,['2'],5,316,[0.07049083],62,47,medium,minus,dotcolour,beta,,,44,21,V,R,
191,65,23,4,1,27,53,984,['n'],1,right,['2'],5,464,[-0.25537219],99,53,easy,minus,dotcolour,beta,,,44,21,V,R,
192,66,24,4,1,33,47,917,['n'],1,right,['2'],5,291,[-0.10471456],84,47,medium,minus,dotcolour,beta,,,44,21,V,R,
193,67,25,4,1,36,44,734,['n'],1,right,['2'],5,227,[-0.08784436],77,44,hard,minus,dotcolour,beta,,,44,21,V,R,
194,68,26,4,1,44,36,1150,['n'],0,left,['2'],5,157,[-0.12048634],95,44,hard,minus,dotcolour,beta,,,44,21,V,R,
195,69,27,4,1,53,27,816,['c'],1,left,['2'],5,191,[0.1228927],94,53,easy,minus,dotcolour,beta,,,44,21,V,R,
196,70,28,4,1,33,47,734,['n'],1,right,['2'],5,155,[-0.11596946],94,47,medium,minus,dotcolour,beta,,,44,21,V,R,
197,71,29,4,1,36,44,900,['n'],1,right,['2'],5,130,[-0.0386359],30,44,hard,minus,dotcolour,beta,,,44,21,V,R,
198,72,30,4,1,27,53,684,['n'],1,right,['2'],5,139,[-0.11264827],94,53,easy,minus,dotcolour,beta,,,44,21,V,R,
199,73,31,4,1,44,36,1000,['c'],1,left,['2'],5,143,[0.06926925],66,44,hard,minus,dotcolour,beta,,,44,21,V,R,
200,74,32,4,1,44,36,1550,['n'],0,left,['2'],5,204,[-0.06633802],61,44,hard,minus,dotcolour,beta,,,44,21,V,R,
201,75,33,4,1,27,53,850,['n'],1,right,['2'],5,180,[-0.1376592],97,53,easy,minus,dotcolour,beta,,,44,21,V,R,
202,76,34,4,1,47,33,867,['c'],1,left,['2'],5,931,[0.20716473],94,47,medium,minus,dotcolour,beta,,,44,21,V,R,
203,77,35,4,1,36,44,734,['n'],1,right,['2'],5,145,[-0.05793248],53,44,hard,minus,dotcolour,beta,,,44,21,V,R,
204,78,36,4,1,27,53,1100,['n'],1,right,['3'],4,513,[-0.24810001],99,53,easy,minus,dotcolour,beta,,,44,21,V,R,
205,79,37,4,1,36,44,767,['n'],1,right,['2'],5,303,[-0.02278463],26,44,hard,minus,dotcolour,beta,,,44,21,V,R,
206,80,38,4,1,44,36,1500,['n'],0,left,['3'],4,272,[-0.04805577],44,44,hard,minus,dotcolour,beta,,,44,21,V,R,
207,81,39,4,1,36,44,1801,['c'],0,right,['3'],4,446,[0.05930431],53,44,hard,minus,dotcolour,beta,,,44,21,V,R,
208,82,40,4,1,53,27,917,['c'],1,left,['2'],5,409,[0.05876006],52,53,easy,minus,dotcolour,beta,,,44,21,V,R,
209,83,41,4,1,27,53,718,['n'],1,right,['2'],5,189,[-0.07835841],72,53,easy,minus,dotcolour,beta,,,44,21,V,R,
210,84,0,5,1,27,53,734,['n'],1,right,['2'],5,314,[-0.18657009],99,53,easy,minus,dotcolour,beta,,,44,21,V,R,
211,85,1,5,1,47,33,867,['n'],0,left,['2'],5,116,[-0.08934494],86,47,medium,minus,dotcolour,beta,,,44,21,V,R,
212,86,2,5,1,44,36,850,['n'],0,left,['2'],5,183,[-0.13055134],96,44,hard,minus,dotcolour,beta,,,44,21,V,R,
213,87,3,5,1,33,47,650,['n'],1,right,['2'],5,151,[-0.15501064],99,47,medium,minus,dotcolour,beta,,,44,21,V,R,
214,88,4,5,1,33,47,1000,['n'],1,right,['2'],5,722,[-0.24718689],98,47,medium,minus,dotcolour,beta,,,44,21,V,R,
215,89,5,5,1,44,36,767,['c'],1,left,['2'],5,304,[0.08036201],69,44,hard,minus,dotcolour,beta,,,44,21,V,R,
216,90,6,5,1,44,36,834,['n'],0,left,['2'],5,251,[-0.09667055],81,44,hard,minus,dotcolour,beta,,,44,21,V,R,
217,91,7,5,1,47,33,1183,['c'],1,left,['2'],5,283,[0.03787579],35,47,medium,minus,dotcolour,beta,,,44,21,V,R,
218,92,8,5,1,33,47,650,['n'],1,right,['3'],4,463,[-0.05638791],51,47,medium,minus,dotcolour,beta,,,44,21,V,R,
219,93,9,5,1,53,27,767,['c'],1,left,['2'],5,304,[0.10405268],83,53,easy,minus,dotcolour,beta,,,44,21,V,R,
220,94,10,5,1,53,27,750,['c'],1,left,['1'],6,519,[0.07014882],59,53,easy,minus,dotcolour,beta,,,44,21,V,R,
221,95,11,5,1,36,44,917,['n'],1,right,['2'],5,478,[-0.12375459],86,44,hard,minus,dotcolour,beta,,,44,21,V,R,
222,96,12,5,1,44,36,816,['c'],1,left,['2'],5,308,[0.08930187],75,44,hard,minus,dotcolour,beta,,,44,21,V,R,
223,97,13,5,1,27,53,952,['n'],1,right,['2'],5,379,[-0.04541867],43,53,easy,minus,dotcolour,beta,,,44,21,V,R,
224,98,14,5,1,36,44,1350,['n'],1,right,['2'],5,687,[-0.10435479],74,44,hard,minus,dotcolour,beta,,,44,21,V,R,
225,99,15,5,1,33,47,784,['n'],1,right,['1'],6,340,[-0.12895341],91,47,medium,minus,dotcolour,beta,,,44,21,V,R,
226,100,16,5,1,47,33,701,['c'],1,left,['2'],5,292,[0.13057723],92,47,medium,minus,dotcolour,beta,,,44,21,V,R,
227,101,17,5,1,53,27,833,['c'],1,left,['2'],5,312,[0.14198855],94,53,easy,minus,dotcolour,beta,,,44,21,V,R,
228,102,18,5,1,53,27,750,['c'],1,left,['2'],5,198,[0.13207015],96,53,easy,minus,dotcolour,beta,,,44,21,V,R,
229,103,19,5,1,33,47,717,['n'],1,right,['2'],5,196,[-0.03451733],30,47,medium,minus,dotcolour,beta,,,44,21,V,R,
230,104,20,5,1,47,33,967,['c'],1,left,['2'],5,150,[0.12159265],96,47,medium,minus,dotcolour,beta,,,44,21,V,R,
231,105,21,5,1,27,53,634,['n'],1,right,['2'],5,192,[-0.04128135],36,53,easy,minus,dotcolour,beta,,,44,21,V,R,
232,106,22,5,1,36,44,868,['n'],1,right,['2'],5,191,[-0.10573248],89,44,hard,minus,dotcolour,beta,,,44,21,V,R,
233,107,23,5,1,44,36,1167,['n'],0,left,['2'],5,193,[0.03786566],2,44,hard,minus,dotcolour,beta,,,44,21,V,R,
234,108,24,5,1,44,36,1733,['c'],1,left,['3'],4,613,[0.10194013],74,44,hard,minus,dotcolour,beta,,,44,21,V,R,
235,109,25,5,1,53,27,866,['c'],1,left,['2'],5,259,[0.14821509],96,53,easy,minus,dotcolour,beta,,,44,21,V,R,
236,110,26,5,1,33,47,867,['n'],1,right,['2'],5,183,[-0.07032272],65,47,medium,minus,dotcolour,beta,,,44,21,V,R,
237,111,27,5,1,36,44,867,['n'],1,right,['2'],5,158,[-0.05978407],55,44,hard,minus,dotcolour,beta,,,44,21,V,R,
238,112,28,5,1,27,53,833,['n'],1,right,['2'],5,216,[-0.16887039],99,53,easy,minus,dotcolour,beta,,,44,21,V,R,
239,113,29,5,1,33,47,1200,['c'],0,right,['2'],5,232,[-0.03132228],4,47,medium,minus,dotcolour,beta,,,44,21,V,R,
240,114,30,5,1,27,53,717,['n'],1,right,['2'],5,996,[-0.35998476],100,53,easy,minus,dotcolour,beta,,,44,21,V,R,
241,115,31,5,1,53,27,950,['c'],1,left,['2'],5,327,[0.16246591],97,53,easy,minus,dotcolour,beta,,,44,21,V,R,
242,116,32,5,1,27,53,767,['n'],1,right,['2'],5,252,[-0.10820688],87,53,easy,minus,dotcolour,beta,,,44,21,V,R,
243,117,33,5,1,53,27,2083,['c'],1,left,['3'],4,441,[0.10899692],81,53,easy,minus,dotcolour,beta,,,44,21,V,R,
244,118,34,5,1,47,33,884,['c'],1,left,['2'],5,1324,[0.1867017],89,47,medium,minus,dotcolour,beta,,,44,21,V,R,
245,119,35,5,1,44,36,1368,['n'],0,left,['3'],4,426,[-0.02495877],30,44,hard,minus,dotcolour,beta,,,44,21,V,R,
246,120,36,5,1,47,33,833,['c'],1,left,['2'],5,328,[0.05484868],49,47,medium,minus,dotcolour,beta,,,44,21,V,R,
247,121,37,5,1,36,44,1300,['n'],1,right,['2'],5,312,[-0.0859968],73,44,hard,minus,dotcolour,beta,,,44,21,V,R,
248,122,38,5,1,47,33,767,['c'],1,left,['2'],5,238,[0.11136449],89,47,medium,minus,dotcolour,beta,,,44,21,V,R,
249,123,39,5,1,36,44,1934,['c'],0,right,['3'],4,337,[0.04471557],42,44,hard,minus,dotcolour,beta,,,44,21,V,R,
250,124,40,5,1,36,44,1200,['c'],0,right,['8'],3,613,[0.02019935],31,44,hard,minus,dotcolour,beta,,,44,21,V,R,
251,125,41,5,1,27,53,1284,['n'],1,right,['2'],5,323,[-0.16728502],97,53,easy,minus,dotcolour,beta,,,44,21,V,R,
252,0,0,6,2,27,53,750,['c'],0,right,['9'],2,1258,[-0.09788681],34,53,easy,plus,dotcolour,beta,,,44,21,V,R,
253,1,1,6,2,33,47,867,['n'],1,right,['2'],5,319,[-0.12879623],100,47,medium,plus,dotcolour,beta,,,44,21,V,R,
254,2,2,6,2,36,44,1317,['n'],1,right,['2'],5,198,[-0.01357637],94,44,hard,plus,dotcolour,beta,,,44,21,V,R,
255,3,3,6,2,27,53,717,['n'],1,right,['2'],5,267,[-0.02352152],94,53,easy,plus,dotcolour,beta,,,44,21,V,R,
256,4,4,6,2,44,36,849,['c'],1,left,['2'],5,296,[0.09029441],99,44,hard,plus,dotcolour,beta,,,44,21,V,R,
257,5,5,6,2,53,27,833,['c'],1,left,['2'],5,252,[0.09020876],99,53,easy,plus,dotcolour,beta,,,44,21,V,R,
258,6,6,6,2,47,33,1233,['n'],0,left,['3'],4,338,[0.01051379],80,47,medium,plus,dotcolour,beta,,,44,21,V,R,
259,7,7,6,2,27,53,733,['n'],1,right,['2'],5,249,[-0.14903763],100,53,easy,plus,dotcolour,beta,,,44,21,V,R,
260,8,8,6,2,33,47,984,['n'],1,right,['2'],5,192,[-0.0877673],100,47,medium,plus,dotcolour,beta,,,44,21,V,R,
261,9,9,6,2,47,33,850,['c'],1,left,['3'],4,288,[0.11825028],100,47,medium,plus,dotcolour,beta,,,44,21,V,R,
262,10,10,6,2,44,36,1300,['c'],1,left,['2'],5,377,[0.14689259],100,44,hard,plus,dotcolour,beta,,,44,21,V,R,
263,11,11,6,2,47,33,1433,['c'],1,left,['3'],4,291,[0.05644102],98,47,medium,plus,dotcolour,beta,,,44,21,V,R,
264,12,12,6,2,27,53,817,['n'],1,right,['3'],4,607,[-0.38963512],100,53,easy,plus,dotcolour,beta,,,44,21,V,R,
265,13,13,6,2,53,27,884,['c'],1,left,['2'],5,284,[0.03010211],95,53,easy,plus,dotcolour,beta,,,44,21,V,R,
266,14,14,6,2,53,27,1000,['c'],1,left,['2'],5,218,[0.116238],100,53,easy,plus,dotcolour,beta,,,44,21,V,R,
267,15,15,6,2,36,44,1050,['n'],1,right,['3'],4,473,[-0.00506445],83,44,hard,plus,dotcolour,beta,,,44,21,V,R,
268,16,16,6,2,33,47,1250,['n'],1,right,['3'],4,157,[-0.05678857],99,47,medium,plus,dotcolour,beta,,,44,21,V,R,
269,17,17,6,2,36,44,950,['n'],1,right,['2'],5,322,[-0.11841255],100,44,hard,plus,dotcolour,beta,,,44,21,V,R,
270,18,18,6,2,27,53,1450,['n'],1,right,['2'],5,180,[-0.10090624],100,53,easy,plus,dotcolour,beta,,,44,21,V,R,
271,19,19,6,2,33,47,983,['n'],1,right,['2'],5,190,[-0.10715814],100,47,medium,plus,dotcolour,beta,,,44,21,V,R,
272,20,20,6,2,53,27,833,['c'],1,left,['2'],5,582,[0.23410938],100,53,easy,plus,dotcolour,beta,,,44,21,V,R,
273,21,21,6,2,53,27,966,['c'],1,left,['2'],5,218,[0.13674231],100,53,easy,plus,dotcolour,beta,,,44,21,V,R,
274,22,22,6,2,27,53,634,['n'],1,right,['2'],5,161,[-0.02867662],98,53,easy,plus,dotcolour,beta,,,44,21,V,R,
275,23,23,6,2,33,47,783,['n'],1,right,['3'],4,220,[-0.11214482],100,47,medium,plus,dotcolour,beta,,,44,21,V,R,
276,24,24,6,2,36,44,983,['n'],1,right,['2'],5,278,[-0.10429301],100,44,hard,plus,dotcolour,beta,,,44,21,V,R,
277,25,25,6,2,53,27,700,['c'],1,left,['2'],5,215,[0.04329015],98,53,easy,plus,dotcolour,beta,,,44,21,V,R,
278,26,26,6,2,47,33,750,['c'],1,left,['3'],4,274,[0.20236251],100,47,medium,plus,dotcolour,beta,,,44,21,V,R,
279,27,27,6,2,44,36,1650,['c'],1,left,['3'],4,286,[0.0328228],95,44,hard,plus,dotcolour,beta,,,44,21,V,R,
280,28,28,6,2,36,44,1083,['c'],0,right,['3'],4,225,[0.02395201],95,44,hard,plus,dotcolour,beta,,,44,21,V,R,
281,29,29,6,2,44,36,733,['c'],1,left,['3'],4,196,[0.00726147],93,44,hard,plus,dotcolour,beta,,,44,21,V,R,
282,30,30,6,2,47,33,750,['c'],1,left,['3'],4,311,[0.13534174],100,47,medium,plus,dotcolour,beta,,,44,21,V,R,
283,31,31,6,2,27,53,833,['n'],1,right,['3'],4,298,[-0.18859222],100,53,easy,plus,dotcolour,beta,,,44,21,V,R,
284,32,32,6,2,44,36,1383,['c'],1,left,['3'],4,184,[0.10733301],100,44,hard,plus,dotcolour,beta,,,44,21,V,R,
285,33,33,6,2,44,36,934,['n'],0,left,['2'],5,189,[-0.07535775],100,44,hard,plus,dotcolour,beta,,,44,21,V,R,
286,34,34,6,2,47,33,917,['c'],1,left,['2'],5,641,[-0.0072334],75,47,medium,plus,dotcolour,beta,,,44,21,V,R,
287,35,35,6,2,47,33,817,['c'],1,left,['2'],5,792,[0.40163342],100,47,medium,plus,dotcolour,beta,,,44,21,V,R,
288,36,36,6,2,36,44,1083,['n'],1,right,['2'],5,271,[-0.03260462],95,44,hard,plus,dotcolour,beta,,,44,21,V,R,
289,37,37,6,2,33,47,1083,['c'],0,right,['2'],5,201,[0.1041577],100,47,medium,plus,dotcolour,beta,,,44,21,V,R,
290,38,38,6,2,33,47,1233,['n'],1,right,['3'],4,426,[-0.03074631],92,47,medium,plus,dotcolour,beta,,,44,21,V,R,
291,39,39,6,2,36,44,866,['n'],1,right,['2'],5,135,[-0.08588044],100,44,hard,plus,dotcolour,beta,,,44,21,V,R,
292,40,40,6,2,44,36,1117,['c'],1,left,['2'],5,582,[0.09891757],97,44,hard,plus,dotcolour,beta,,,44,21,V,R,
293,41,41,6,2,53,27,767,['c'],1,left,['2'],5,209,[0.09603863],100,53,easy,plus,dotcolour,beta,,,44,21,V,R,
294,42,0,7,2,53,27,817,['c'],1,left,['2'],5,213,[0.10555246],100,53,easy,plus,dotcolour,beta,,,44,21,V,R,
295,43,1,7,2,53,27,617,['c'],1,left,['2'],5,149,[0.12943515],100,53,easy,plus,dotcolour,beta,,,44,21,V,R,
296,44,2,7,2,44,36,716,['n'],0,left,['2'],5,148,[-0.01862422],97,44,hard,plus,dotcolour,beta,,,44,21,V,R,
297,45,3,7,2,44,36,884,['c'],1,left,['3'],4,275,[0.09183364],99,44,hard,plus,dotcolour,beta,,,44,21,V,R,
298,46,4,7,2,36,44,967,['n'],1,right,['3'],4,155,[-0.03786777],99,44,hard,plus,dotcolour,beta,,,44,21,V,R,
299,47,5,7,2,47,33,784,['c'],1,left,['3'],4,223,[0.11661251],100,47,medium,plus,dotcolour,beta,,,44,21,V,R,
300,48,6,7,2,33,47,882,['n'],1,right,['2'],5,163,[-0.02548078],97,47,medium,plus,dotcolour,beta,,,44,21,V,R,
301,49,7,7,2,53,27,1634,['c'],1,left,['2'],5,373,[0.01797465],90,53,easy,plus,dotcolour,beta,,,44,21,V,R,
302,50,8,7,2,27,53,967,['n'],1,right,['3'],4,568,[-0.23476499],100,53,easy,plus,dotcolour,beta,,,44,21,V,R,
303,51,9,7,2,36,44,916,['n'],1,right,['3'],4,335,[-0.02495502],92,44,hard,plus,dotcolour,beta,,,44,21,V,R,
304,52,10,7,2,44,36,1767,['n'],0,left,['3'],4,572,[-0.02273291],87,44,hard,plus,dotcolour,beta,,,44,21,V,R,
305,53,11,7,2,36,44,900,['n'],1,right,['3'],4,241,[-0.10186419],100,44,hard,plus,dotcolour,beta,,,44,21,V,R,
306,54,12,7,2,53,27,1183,['c'],1,left,['3'],4,337,[0.16550116],100,53,easy,plus,dotcolour,beta,,,44,21,V,R,
307,55,13,7,2,44,36,1167,['c'],1,left,['2'],5,295,[0.02527211],94,44,hard,plus,dotcolour,beta,,,44,21,V,R,
308,56,14,7,2,27,53,1433,['n'],1,right,['3'],4,259,[-0.18204146],100,53,easy,plus,dotcolour,beta,,,44,21,V,R,
309,57,15,7,2,33,47,951,['n'],1,right,['3'],4,259,[-0.09498627],100,47,medium,plus,dotcolour,beta,,,44,21,V,R,
310,58,16,7,2,47,33,701,['c'],1,left,['3'],4,294,[0.05690003],98,47,medium,plus,dotcolour,beta,,,44,21,V,R,
311,59,17,7,2,47,33,817,['n'],0,left,['3'],4,115,[-0.03943685],99,47,medium,plus,dotcolour,beta,,,44,21,V,R,
312,60,18,7,2,33,47,551,['n'],1,right,['3'],4,129,[-0.10406332],100,47,medium,plus,dotcolour,beta,,,44,21,V,R,
313,61,19,7,2,33,47,984,['n'],1,right,['3'],4,230,[-0.07925584],99,47,medium,plus,dotcolour,beta,,,44,21,V,R,
314,62,20,7,2,27,53,667,['n'],1,right,['3'],4,163,[-0.07436435],100,53,easy,plus,dotcolour,beta,,,44,21,V,R,
315,63,21,7,2,47,33,1383,['c'],1,left,['3'],4,399,[0.32381255],100,47,medium,plus,dotcolour,beta,,,44,21,V,R,
316,64,22,7,2,36,44,1416,['c'],0,right,['3'],4,663,[0.05976444],93,44,hard,plus,dotcolour,beta,,,44,21,V,R,
317,65,23,7,2,27,53,3117,['c'],0,right,['3'],4,394,[0.04976229],95,53,easy,plus,dotcolour,beta,,,44,21,V,R,
318,66,24,7,2,44,36,1250,['n'],0,left,['3'],4,337,[-0.00456408],87,44,hard,plus,dotcolour,beta,,,44,21,V,R,
319,67,25,7,2,53,27,734,['c'],1,left,['3'],4,271,[0.1545748],100,53,easy,plus,dotcolour,beta,,,44,21,V,R,
320,68,26,7,2,36,44,1001,['n'],1,right,['3'],4,190,[-0.06834952],99,44,hard,plus,dotcolour,beta,,,44,21,V,R,
321,69,27,7,2,53,27,1050,['c'],1,left,['3'],4,246,[0.10001671],100,53,easy,plus,dotcolour,beta,,,44,21,V,R,
322,70,28,7,2,44,36,867,['c'],1,left,['3'],4,194,[0.14313341],100,44,hard,plus,dotcolour,beta,,,44,21,V,R,
323,71,29,7,2,27,53,667,['n'],1,right,['3'],4,153,[-0.03891736],99,53,easy,plus,dotcolour,beta,,,44,21,V,R,
324,72,30,7,2,47,33,1717,['c'],1,left,['3'],4,175,[0.11401517],100,47,medium,plus,dotcolour,beta,,,44,21,V,R,
325,73,31,7,2,36,44,800,['n'],1,right,['3'],4,153,[-0.09191694],100,44,hard,plus,dotcolour,beta,,,44,21,V,R,
326,74,32,7,2,44,36,1216,['c'],1,left,['3'],4,148,[0.08754737],100,44,hard,plus,dotcolour,beta,,,44,21,V,R,
327,75,33,7,2,47,33,967,['n'],0,left,['3'],4,169,[-0.02193312],97,47,medium,plus,dotcolour,beta,,,44,21,V,R,
328,76,34,7,2,47,33,1034,['c'],1,left,['3'],4,194,[0.07507147],100,47,medium,plus,dotcolour,beta,,,44,21,V,R,
329,77,35,7,2,27,53,1150,['n'],1,right,['3'],4,637,[-0.28564284],100,53,easy,plus,dotcolour,beta,,,44,21,V,R,
330,78,36,7,2,33,47,1216,['c'],0,right,['3'],4,140,[0.05655255],100,47,medium,plus,dotcolour,beta,,,44,21,V,R,
331,79,37,7,2,27,53,634,['n'],1,right,['3'],4,182,[-0.15215871],100,53,easy,plus,dotcolour,beta,,,44,21,V,R,
332,80,38,7,2,53,27,918,['c'],1,left,['3'],4,132,[0.13905492],100,53,easy,plus,dotcolour,beta,,,44,21,V,R,
333,81,39,7,2,36,44,733,['n'],1,right,['3'],4,203,[-0.09013063],100,44,hard,plus,dotcolour,beta,,,44,21,V,R,
334,82,40,7,2,33,47,1200,['n'],1,right,['2'],5,211,[-0.09723846],100,47,medium,plus,dotcolour,beta,,,44,21,V,R,
335,83,41,7,2,33,47,633,['n'],1,right,['2'],5,203,[-0.11741953],100,47,medium,plus,dotcolour,beta,,,44,21,V,R,
336,84,0,8,2,27,53,701,['n'],1,right,['2'],5,267,[-0.11385658],100,53,easy,plus,dotcolour,beta,,,44,21,V,R,
337,85,1,8,2,27,53,483,['n'],1,right,['2'],5,198,[-0.01152356],94,53,easy,plus,dotcolour,beta,,,44,21,V,R,
338,86,2,8,2,47,33,917,['c'],1,left,['3'],4,227,[0.09902767],100,47,medium,plus,dotcolour,beta,,,44,21,V,R,
339,87,3,8,2,47,33,834,['c'],1,left,['3'],4,234,[0.14669046],100,47,medium,plus,dotcolour,beta,,,44,21,V,R,
340,88,4,8,2,44,36,1800,['c'],1,left,['3'],4,306,[0.16111343],100,44,hard,plus,dotcolour,beta,,,44,21,V,R,
341,89,5,8,2,53,27,800,['c'],1,left,['2'],5,262,[0.1404871],100,53,easy,plus,dotcolour,beta,,,44,21,V,R,
342,90,6,8,2,33,47,784,['n'],1,right,['3'],4,270,[-0.12093572],100,47,medium,plus,dotcolour,beta,,,44,21,V,R,
343,91,7,8,2,36,44,1200,['c'],0,right,['2'],5,196,[0.02245302],96,44,hard,plus,dotcolour,beta,,,44,21,V,R,
344,92,8,8,2,53,27,684,['c'],1,left,['2'],5,314,[0.06046681],98,53,easy,plus,dotcolour,beta,,,44,21,V,R,
345,93,9,8,2,53,27,517,['c'],1,left,['2'],5,226,[0.11697234],100,53,easy,plus,dotcolour,beta,,,44,21,V,R,
346,94,10,8,2,47,33,517,['c'],1,left,['2'],5,158,[0.06232496],100,47,medium,plus,dotcolour,beta,,,44,21,V,R,
347,95,11,8,2,36,44,449,['c'],0,right,['2'],5,86,[0.09242567],100,44,hard,plus,dotcolour,beta,,,44,21,V,R,
348,96,12,8,2,47,33,717,['c'],1,left,['2'],5,112,[0.10806635],100,47,medium,plus,dotcolour,beta,,,44,21,V,R,
349,97,13,8,2,44,36,550,['c'],1,left,['2'],5,166,[0.05661784],99,44,hard,plus,dotcolour,beta,,,44,21,V,R,
350,98,14,8,2,33,47,649,['c'],0,right,['8'],3,1215,[-0.25539911],4,47,medium,plus,dotcolour,beta,,,44,21,V,R,
351,99,15,8,2,33,47,1283,['n'],1,right,['2'],5,188,[-0.11234838],100,47,medium,plus,dotcolour,beta,,,44,21,V,R,
352,100,16,8,2,27,53,667,['n'],1,right,['2'],5,259,[-0.08186148],99,53,easy,plus,dotcolour,beta,,,44,21,V,R,
353,101,17,8,2,53,27,867,['c'],1,left,['2'],5,168,[0.02031019],97,53,easy,plus,dotcolour,beta,,,44,21,V,R,
354,102,18,8,2,33,47,2116,['c'],0,right,['2'],5,325,[0.05062815],97,47,medium,plus,dotcolour,beta,,,44,21,V,R,
355,103,19,8,2,53,27,1050,['c'],1,left,['3'],4,319,[0.12717918],100,53,easy,plus,dotcolour,beta,,,44,21,V,R,
356,104,20,8,2,44,36,1018,['n'],0,left,['3'],4,235,[-0.07772827],99,44,hard,plus,dotcolour,beta,,,44,21,V,R,
357,105,21,8,2,27,53,700,['n'],1,right,['3'],4,335,[-0.14455193],100,53,easy,plus,dotcolour,beta,,,44,21,V,R,
358,106,22,8,2,53,27,667,['c'],1,left,['2'],5,216,[0.06954057],99,53,easy,plus,dotcolour,beta,,,44,21,V,R,
359,107,23,8,2,36,44,901,['n'],1,right,['3'],4,197,[-0.11084392],100,44,hard,plus,dotcolour,beta,,,44,21,V,R,
360,108,24,8,2,47,33,600,['c'],1,left,['3'],4,214,[0.11348335],100,47,medium,plus,dotcolour,beta,,,44,21,V,R,
361,109,25,8,2,47,33,717,['c'],1,left,['3'],4,170,[0.09151462],100,47,medium,plus,dotcolour,beta,,,44,21,V,R,
362,110,26,8,2,36,44,1934,['n'],1,right,['3'],4,688,[-0.1175865],98,44,hard,plus,dotcolour,beta,,,44,21,V,R,
363,111,27,8,2,47,33,950,['c'],1,left,['3'],4,175,[0.14231004],100,47,medium,plus,dotcolour,beta,,,44,21,V,R,
364,112,28,8,2,33,47,1184,['n'],1,right,['3'],4,185,[-0.0645084],99,47,medium,plus,dotcolour,beta,,,44,21,V,R,
365,113,29,8,2,27,53,734,['n'],1,right,['3'],4,118,[-0.09266961],100,53,easy,plus,dotcolour,beta,,,44,21,V,R,
366,114,30,8,2,36,44,933,['n'],1,right,['3'],4,133,[-0.07606488],100,44,hard,plus,dotcolour,beta,,,44,21,V,R,
367,115,31,8,2,33,47,1084,['n'],1,right,['3'],4,183,[-0.12790342],100,47,medium,plus,dotcolour,beta,,,44,21,V,R,
368,116,32,8,2,44,36,1399,['c'],1,left,['2'],5,144,[0.12444496],100,44,hard,plus,dotcolour,beta,,,44,21,V,R,
369,117,33,8,2,27,53,1251,['n'],1,right,['3'],4,217,[-0.16493196],100,53,easy,plus,dotcolour,beta,,,44,21,V,R,
370,118,34,8,2,33,47,1684,['n'],1,right,['2'],5,95,[-0.05603749],100,47,medium,plus,dotcolour,beta,,,44,21,V,R,
371,119,35,8,2,53,27,967,['c'],1,left,['2'],5,198,[0.04407802],98,53,easy,plus,dotcolour,beta,,,44,21,V,R,
372,120,36,8,2,44,36,1017,['c'],1,left,['3'],4,198,[0.11713893],100,44,hard,plus,dotcolour,beta,,,44,21,V,R,
373,121,37,8,2,27,53,2451,['n'],1,right,['3'],4,430,[-0.1666246],100,53,easy,plus,dotcolour,beta,,,44,21,V,R,
374,122,38,8,2,36,44,932,['n'],1,right,['3'],4,137,[-0.06361854],100,44,hard,plus,dotcolour,beta,,,44,21,V,R,
375,123,39,8,2,44,36,1584,['c'],1,left,['3'],4,205,[0.06150465],99,44,hard,plus,dotcolour,beta,,,44,21,V,R,
376,124,40,8,2,36,44,1583,['n'],1,right,['3'],4,167,[-0.0843633],100,44,hard,plus,dotcolour,beta,,,44,21,V,R,
377,125,41,8,2,44,36,2116,['c'],1,left,['3'],4,382,[0.05634917],96,44,hard,plus,dotcolour,beta,,,44,21,V,R,
378,0,0,9,3,33,47,751,['n'],1,right,['2'],5,297,[-0.12540431],91,47,medium,minus,dotcolour,beta,,,44,21,V,R,
379,1,1,9,3,36,44,516,['n'],1,right,['2'],5,121,[-0.08569685],83,44,hard,minus,dotcolour,beta,,,44,21,V,R,
380,2,2,9,3,47,33,534,['c'],1,left,['3'],4,409,[0.20239688],98,47,medium,minus,dotcolour,beta,,,44,21,V,R,
381,3,3,9,3,27,53,633,['n'],1,right,['3'],4,176,[-0.14524579],98,53,easy,minus,dotcolour,beta,,,44,21,V,R,
382,4,4,9,3,53,27,734,['c'],1,left,['3'],4,237,[0.07660406],69,53,easy,minus,dotcolour,beta,,,44,21,V,R,
383,5,5,9,3,44,36,850,['c'],1,left,['2'],5,187,[0.16573405],99,44,hard,minus,dotcolour,beta,,,44,21,V,R,
384,6,6,9,3,36,44,483,['n'],1,right,['2'],5,97,[-0.07646333],77,44,hard,minus,dotcolour,beta,,,44,21,V,R,
385,7,7,9,3,36,44,484,['c'],0,right,['3'],4,187,[0.02532531],22,44,hard,minus,dotcolour,beta,,,44,21,V,R,
386,8,8,9,3,33,47,767,['n'],1,right,['3'],4,159,[-0.13082502],97,47,medium,minus,dotcolour,beta,,,44,21,V,R,
387,9,9,9,3,44,36,683,['c'],1,left,['3'],4,166,[0.07011059],66,44,hard,minus,dotcolour,beta,,,44,21,V,R,
388,10,10,9,3,36,44,967,['n'],1,right,['3'],4,107,[-0.1571654],100,44,hard,minus,dotcolour,beta,,,44,21,V,R,
389,11,11,9,3,53,27,718,['c'],1,left,['2'],5,210,[0.15010042],98,53,easy,minus,dotcolour,beta,,,44,21,V,R,
390,12,12,9,3,53,27,799,['c'],1,left,['3'],4,203,[0.08979384],80,53,easy,minus,dotcolour,beta,,,44,21,V,R,
391,13,13,9,3,47,33,733,['c'],1,left,['2'],5,143,[0.09875668],89,47,medium,minus,dotcolour,beta,,,44,21,V,R,
392,14,14,9,3,47,33,683,['c'],1,left,['2'],5,39,[0.10916152],99,47,medium,minus,dotcolour,beta,,,44,21,V,R,
393,15,15,9,3,53,27,801,['c'],1,left,['2'],5,103,[0.09080461],88,53,easy,minus,dotcolour,beta,,,44,21,V,R,
394,16,16,9,3,47,33,1068,['n'],0,left,['3'],4,353,[-0.06828732],60,47,medium,minus,dotcolour,beta,,,44,21,V,R,
395,17,17,9,3,33,47,766,['n'],1,right,['3'],4,166,[-0.0511802],45,47,medium,minus,dotcolour,beta,,,44,21,V,R,
396,18,18,9,3,33,47,867,['n'],1,right,['3'],4,150,[-0.10021077],89,47,medium,minus,dotcolour,beta,,,44,21,V,R,
397,19,19,9,3,44,36,700,['c'],1,left,['2'],5,173,[0.10445341],89,44,hard,minus,dotcolour,beta,,,44,21,V,R,
398,20,20,9,3,44,36,850,['c'],1,left,['2'],5,189,[0.01643231],17,44,hard,minus,dotcolour,beta,,,44,21,V,R,
399,21,21,9,3,33,47,800,['n'],1,right,['8'],3,1007,[-0.15616743],86,47,medium,minus,dotcolour,beta,,,44,21,V,R,
400,22,22,9,3,44,36,850,['c'],1,left,['2'],5,533,[0.20308863],97,44,hard,minus,dotcolour,beta,,,44,21,V,R,
401,23,23,9,3,33,47,1033,['n'],1,right,['3'],4,200,[-0.04666128],41,47,medium,minus,dotcolour,beta,,,44,21,V,R,
402,24,24,9,3,47,33,1784,['c'],1,left,['3'],4,130,[0.05212662],46,47,medium,minus,dotcolour,beta,,,44,21,V,R,
403,25,25,9,3,36,44,1318,['n'],1,right,['3'],4,361,[-0.14225881],93,44,hard,minus,dotcolour,beta,,,44,21,V,R,
404,26,26,9,3,47,33,1499,['c'],1,left,['3'],4,353,[0.10189013],80,47,medium,minus,dotcolour,beta,,,44,21,V,R,
405,27,27,9,3,47,33,767,['c'],1,left,['3'],4,221,[0.19642782],100,47,medium,minus,dotcolour,beta,,,44,21,V,R,
406,28,28,9,3,53,27,751,['c'],1,left,['2'],5,167,[0.03066867],25,53,easy,minus,dotcolour,beta,,,44,21,V,R,
407,29,29,9,3,27,53,751,['n'],1,right,['2'],5,269,[-0.05128823],46,53,easy,minus,dotcolour,beta,,,44,21,V,R,
408,30,30,9,3,27,53,683,['n'],1,right,['2'],5,95,[-0.13020923],99,53,easy,minus,dotcolour,beta,,,44,21,V,R,
409,31,31,9,3,36,44,2033,['n'],1,right,['2'],5,148,[-0.11722053],95,44,hard,minus,dotcolour,beta,,,44,21,V,R,
410,32,32,9,3,27,53,599,['n'],1,right,['3'],4,143,[-0.08914618],83,53,easy,minus,dotcolour,beta,,,44,21,V,R,
411,33,33,9,3,27,53,783,['n'],1,right,['2'],5,171,[-0.1221802],95,53,easy,minus,dotcolour,beta,,,44,21,V,R,
412,34,34,9,3,27,53,767,['n'],1,right,['3'],4,222,[-0.11457335],91,53,easy,minus,dotcolour,beta,,,44,21,V,R,
413,35,35,9,3,36,44,950,['n'],1,right,['3'],4,145,[-0.11265324],94,44,hard,minus,dotcolour,beta,,,44,21,V,R,
414,36,36,9,3,53,27,700,['n'],0,left,['3'],4,536,[0.0035959],19,53,easy,minus,dotcolour,beta,,,44,21,V,R,
415,37,37,9,3,27,53,618,['n'],1,right,['3'],4,147,[-0.05766485],52,53,easy,minus,dotcolour,beta,,,44,21,V,R,
416,38,38,9,3,44,36,967,['n'],0,left,['3'],4,135,[-0.10862452],93,44,hard,minus,dotcolour,beta,,,44,21,V,R,
417,39,39,9,3,44,36,784,['c'],1,left,['3'],4,140,[0.05133015],45,44,hard,minus,dotcolour,beta,,,44,21,V,R,
418,40,40,9,3,33,47,817,['n'],1,right,['3'],4,111,[-0.07120082],70,47,medium,minus,dotcolour,beta,,,44,21,V,R,
419,41,41,9,3,53,27,917,['c'],1,left,['3'],4,143,[0.03365374],26,53,easy,minus,dotcolour,beta,,,44,21,V,R,
420,42,0,10,3,53,27,768,['c'],1,left,['2'],5,382,[0.08747386],72,53,easy,minus,dotcolour,beta,,,44,21,V,R,
421,43,1,10,3,27,53,566,['n'],1,right,['2'],5,161,[-0.03207561],26,53,easy,minus,dotcolour,beta,,,44,21,V,R,
422,44,2,10,3,33,47,567,['n'],1,right,['2'],5,141,[-0.18008694],100,47,medium,minus,dotcolour,beta,,,44,21,V,R,
423,45,3,10,3,44,36,1300,['c'],1,left,['3'],4,445,[0.10795123],80,44,hard,minus,dotcolour,beta,,,44,21,V,R,
424,46,4,10,3,53,27,783,['c'],1,left,['2'],5,156,[0.06793166],64,53,easy,minus,dotcolour,beta,,,44,21,V,R,
425,47,5,10,3,53,27,950,['c'],1,left,['3'],4,385,[0.10354771],80,53,easy,minus,dotcolour,beta,,,44,21,V,R,
426,48,6,10,3,44,36,652,['c'],1,left,['2'],5,113,[0.03459035],25,44,hard,minus,dotcolour,beta,,,44,21,V,R,
427,49,7,10,3,47,33,2633,['n'],0,left,['2'],5,701,[0.1383519],2,47,medium,minus,dotcolour,beta,,,44,21,V,R,
428,50,8,10,3,47,33,1534,['n'],0,left,['3'],4,253,[-0.02794764],27,47,medium,minus,dotcolour,beta,,,44,21,V,R,
429,51,9,10,3,47,33,833,['n'],0,left,['3'],4,218,[0.02227136],5,47,medium,minus,dotcolour,beta,,,44,21,V,R,
430,52,10,10,3,36,44,799,['n'],1,right,['3'],4,1532,[-0.55195619],100,44,hard,minus,dotcolour,beta,,,44,21,V,R,
431,53,11,10,3,44,36,1100,['c'],1,left,['3'],4,291,[0.02180751],24,44,hard,minus,dotcolour,beta,,,44,21,V,R,
432,54,12,10,3,27,53,5633,['c'],0,right,['3'],4,886,[-0.09086392],6,53,easy,minus,dotcolour,beta,,,44,21,V,R,
433,55,13,10,3,33,47,667,['n'],1,right,['3'],4,458,[-0.14109985],91,47,medium,minus,dotcolour,beta,,,44,21,V,R,
434,56,14,10,3,44,36,667,['n'],0,left,['3'],4,221,[-0.03994583],35,44,hard,minus,dotcolour,beta,,,44,21,V,R,
435,57,15,10,3,44,36,783,['c'],1,left,['3'],4,199,[0.09265597],82,44,hard,minus,dotcolour,beta,,,44,21,V,R,
436,58,16,10,3,33,47,933,['n'],1,right,['3'],4,138,[-0.06674172],63,47,medium,minus,dotcolour,beta,,,44,21,V,R,
437,59,17,10,3,53,27,684,['c'],1,left,['3'],4,171,[0.03612909],30,53,easy,minus,dotcolour,beta,,,44,21,V,R,
438,60,18,10,3,36,44,884,['c'],0,right,['3'],4,130,[0.02081024],15,44,hard,minus,dotcolour,beta,,,44,21,V,R,
439,61,19,10,3,36,44,667,['n'],1,right,['3'],4,132,[-0.15649691],99,44,hard,minus,dotcolour,beta,,,44,21,V,R,
440,62,20,10,3,36,44,632,['n'],1,right,['3'],4,111,[-0.07486593],74,44,hard,minus,dotcolour,beta,,,44,21,V,R,
441,63,21,10,3,47,33,983,['c'],1,left,['3'],4,524,[0.14953158],91,47,medium,minus,dotcolour,beta,,,44,21,V,R,
442,64,22,10,3,44,36,900,['c'],1,left,['3'],4,476,[0.15245177],93,44,hard,minus,dotcolour,beta,,,44,21,V,R,
443,65,23,10,3,53,27,1000,['c'],1,left,['3'],4,178,[0.12376833],95,53,easy,minus,dotcolour,beta,,,44,21,V,R,
444,66,24,10,3,47,33,1016,['c'],1,left,['3'],4,267,[0.02463148],25,47,medium,minus,dotcolour,beta,,,44,21,V,R,
445,67,25,10,3,27,53,850,['n'],1,right,['3'],4,168,[-0.13960625],98,53,easy,minus,dotcolour,beta,,,44,21,V,R,
446,68,26,10,3,27,53,650,['n'],1,right,['3'],4,225,[-0.12172752],92,53,easy,minus,dotcolour,beta,,,44,21,V,R,
447,69,27,10,3,44,36,717,['c'],1,left,['3'],4,204,[0.09243145],81,44,hard,minus,dotcolour,beta,,,44,21,V,R,
448,70,28,10,3,47,33,1733,['n'],0,left,['3'],4,408,[0.01328569],13,47,medium,minus,dotcolour,beta,,,44,21,V,R,
449,71,29,10,3,36,44,733,['n'],1,right,['3'],4,187,[-0.07400555],68,44,hard,minus,dotcolour,beta,,,44,21,V,R,
450,72,30,10,3,33,47,900,['c'],0,right,['3'],4,233,[0.11401656],90,47,medium,minus,dotcolour,beta,,,44,21,V,R,
451,73,31,10,3,33,47,650,['n'],1,right,['3'],4,167,[-0.11315668],93,47,medium,minus,dotcolour,beta,,,44,21,V,R,
452,74,32,10,3,53,27,767,['c'],1,left,['3'],4,155,[0.0512962],45,53,easy,minus,dotcolour,beta,,,44,21,V,R,
453,75,33,10,3,36,44,716,['n'],1,right,['3'],4,161,[-0.06164056],57,44,hard,minus,dotcolour,beta,,,44,21,V,R,
454,76,34,10,3,27,53,650,['n'],1,right,['3'],4,114,[-0.10875737],94,53,easy,minus,dotcolour,beta,,,44,21,V,R,
455,77,35,10,3,33,47,900,['n'],1,right,['3'],4,139,[-0.15099224],99,47,medium,minus,dotcolour,beta,,,44,21,V,R,
456,78,36,10,3,27,53,616,['n'],1,right,['3'],4,134,[-0.07265246],70,53,easy,minus,dotcolour,beta,,,44,21,V,R,
457,79,37,10,3,33,47,716,['n'],1,right,['3'],4,149,[-0.04464374],38,47,medium,minus,dotcolour,beta,,,44,21,V,R,
458,80,38,10,3,36,44,983,['n'],1,right,['3'],4,177,[-0.14455678],98,44,hard,minus,dotcolour,beta,,,44,21,V,R,
459,81,39,10,3,27,53,651,['n'],1,right,['3'],4,137,[-0.10313711],91,53,easy,minus,dotcolour,beta,,,44,21,V,R,
460,82,40,10,3,47,33,750,['c'],1,left,['2'],5,319,[0.10453833],83,47,medium,minus,dotcolour,beta,,,44,21,V,R,
461,83,41,10,3,53,27,617,['c'],1,left,['2'],5,171,[0.09160036],83,53,easy,minus,dotcolour,beta,,,44,21,V,R,
462,84,0,11,3,33,47,801,['n'],1,right,['2'],5,130,[-0.09390643],87,47,medium,minus,dotcolour,beta,,,44,21,V,R,
463,85,1,11,3,44,36,817,['c'],1,left,['3'],4,150,[0.11212718],93,44,hard,minus,dotcolour,beta,,,44,21,V,R,
464,86,2,11,3,47,33,1317,['n'],0,left,['3'],4,140,[-0.15385787],99,47,medium,minus,dotcolour,beta,,,44,21,V,R,
465,87,3,11,3,33,47,700,['n'],1,right,['3'],4,179,[-0.16294293],99,47,medium,minus,dotcolour,beta,,,44,21,V,R,
466,88,4,11,3,27,53,683,['n'],1,right,['3'],4,122,[-0.05343989],47,53,easy,minus,dotcolour,beta,,,44,21,V,R,
467,89,5,11,3,33,47,750,['n'],1,right,['3'],4,129,[-0.10294285],91,47,medium,minus,dotcolour,beta,,,44,21,V,R,
468,90,6,11,3,36,44,851,['n'],1,right,['3'],4,123,[-0.01171515],10,44,hard,minus,dotcolour,beta,,,44,21,V,R,
469,91,7,11,3,47,33,900,['n'],0,left,['3'],4,107,[-0.05758752],53,47,medium,minus,dotcolour,beta,,,44,21,V,R,
470,92,8,11,3,33,47,1716,['n'],1,right,['3'],4,195,[-0.07866249],72,47,medium,minus,dotcolour,beta,,,44,21,V,R,
471,93,9,11,3,47,33,733,['c'],1,left,['2'],5,183,[0.04572941],40,47,medium,minus,dotcolour,beta,,,44,21,V,R,
472,94,10,11,3,53,27,1017,['c'],1,left,['3'],4,240,[0.09837531],83,53,easy,minus,dotcolour,beta,,,44,21,V,R,
473,95,11,11,3,47,33,883,['c'],1,left,['3'],4,213,[0.10561651],88,47,medium,minus,dotcolour,beta,,,44,21,V,R,
474,96,12,11,3,47,33,700,['n'],0,left,['8'],3,1025,[0.20195351],1,47,medium,minus,dotcolour,beta,,,44,21,V,R,
475,97,13,11,3,36,44,1801,['n'],1,right,['3'],4,489,[-0.23656787],99,44,hard,minus,dotcolour,beta,,,44,21,V,R,
476,98,14,11,3,44,36,1050,['n'],0,left,['3'],4,388,[-0.09628736],76,44,hard,minus,dotcolour,beta,,,44,21,V,R,
477,99,15,11,3,36,44,749,['n'],1,right,['3'],4,120,[-0.1083114],94,44,hard,minus,dotcolour,beta,,,44,21,V,R,
478,100,16,11,3,53,27,3700,['n'],0,left,['8'],3,825,[-0.07228972],58,53,easy,minus,dotcolour,beta,,,44,21,V,R,
479,101,17,11,3,27,53,734,['n'],1,right,['3'],4,307,[-0.0658712],58,53,easy,minus,dotcolour,beta,,,44,21,V,R,
480,102,18,11,3,36,44,1783,['n'],1,right,['3'],4,640,[-0.12295118],82,44,hard,minus,dotcolour,beta,,,44,21,V,R,
481,103,19,11,3,53,27,684,['c'],1,left,['3'],4,172,[0.05563026],50,53,easy,minus,dotcolour,beta,,,44,21,V,R,
482,104,20,11,3,27,53,917,['c'],0,right,['3'],4,154,[0.08198929],77,53,easy,minus,dotcolour,beta,,,44,21,V,R,
483,105,21,11,3,53,27,1783,['n'],0,left,['3'],4,174,[-0.14289059],98,53,easy,minus,dotcolour,beta,,,44,21,V,R,
484,106,22,11,3,44,36,934,['n'],0,left,['3'],4,1403,[-0.07568367],58,44,hard,minus,dotcolour,beta,,,44,21,V,R,
485,107,23,11,3,33,47,2100,['c'],0,right,['2'],5,255,[0.02193409],23,47,medium,minus,dotcolour,beta,,,44,21,V,R,
486,108,24,11,3,44,36,983,['n'],0,left,['3'],4,247,[-0.07763996],69,44,hard,minus,dotcolour,beta,,,44,21,V,R,
487,109,25,11,3,44,36,1016,['c'],1,left,['3'],4,214,[0.13064681],95,44,hard,minus,dotcolour,beta,,,44,21,V,R,
488,110,26,11,3,36,44,1234,['n'],1,right,['3'],4,165,[-0.04482265],38,44,hard,minus,dotcolour,beta,,,44,21,V,R,
489,111,27,11,3,33,47,601,['n'],1,right,['3'],4,136,[-0.12159548],96,47,medium,minus,dotcolour,beta,,,44,21,V,R,
490,112,28,11,3,27,53,583,['n'],1,right,['3'],4,125,[-0.05779543],53,53,easy,minus,dotcolour,beta,,,44,21,V,R,
491,113,29,11,3,44,36,567,['n'],0,left,['3'],4,138,[-0.00295737],7,44,hard,minus,dotcolour,beta,,,44,21,V,R,
492,114,30,11,3,47,33,716,['n'],0,left,['3'],4,177,[-0.00839052],12,47,medium,minus,dotcolour,beta,,,44,21,V,R,
493,115,31,11,3,27,53,734,['n'],1,right,['3'],4,166,[-0.04921155],43,53,easy,minus,dotcolour,beta,,,44,21,V,R,
494,116,32,11,3,36,44,1034,['c'],0,right,['3'],4,95,[0.08161837],82,44,hard,minus,dotcolour,beta,,,44,21,V,R,
495,117,33,11,3,53,27,684,['c'],1,left,['3'],4,97,[0.12794344],98,53,easy,minus,dotcolour,beta,,,44,21,V,R,
496,118,34,11,3,53,27,1733,['c'],1,left,['3'],4,113,[0.11586343],96,53,easy,minus,dotcolour,beta,,,44,21,V,R,
497,119,35,11,3,36,44,584,['n'],1,right,['3'],4,126,[-0.07882595],76,44,hard,minus,dotcolour,beta,,,44,21,V,R,
498,120,36,11,3,27,53,483,['n'],1,right,['3'],4,127,[-0.12848176],98,53,easy,minus,dotcolour,beta,,,44,21,V,R,
499,121,37,11,3,27,53,533,['n'],1,right,['3'],4,126,[-0.05226298],46,53,easy,minus,dotcolour,beta,,,44,21,V,R,
500,122,38,11,3,47,33,950,['n'],0,left,['3'],4,155,[-0.12670166],96,47,medium,minus,dotcolour,beta,,,44,21,V,R,
501,123,39,11,3,44,36,900,['c'],1,left,['3'],4,163,[0.08128272],76,44,hard,minus,dotcolour,beta,,,44,21,V,R,
502,124,40,11,3,53,27,933,['c'],1,left,['3'],4,200,[0.07644387],70,53,easy,minus,dotcolour,beta,,,44,21,V,R,
503,125,41,11,3,33,47,1583,['n'],1,right,['3'],4,163,[-0.07056912],66,47,medium,minus,dotcolour,beta,,,44,21,V,R,
504,0,0,12,4,36,44,801,['n'],1,right,['3'],4,136,[-0.07325984],100,44,hard,plus,dotcolour,beta,,,44,21,V,R,
505,1,1,12,4,33,47,834,['n'],1,right,['3'],4,155,[-0.09706389],100,47,medium,plus,dotcolour,beta,,,44,21,V,R,
506,2,2,12,4,33,47,483,['n'],1,right,['3'],4,123,[-0.10945133],100,47,medium,plus,dotcolour,beta,,,44,21,V,R,
507,3,3,12,4,36,44,617,['n'],1,right,['3'],4,127,[-0.00966423],96,44,hard,plus,dotcolour,beta,,,44,21,V,R,
508,4,4,12,4,27,53,483,['n'],1,right,['3'],4,127,[-0.08243996],100,53,easy,plus,dotcolour,beta,,,44,21,V,R,
509,5,5,12,4,27,53,668,['n'],1,right,['3'],4,217,[-0.09308377],100,53,easy,plus,dotcolour,beta,,,44,21,V,R,
510,6,6,12,4,53,27,601,['c'],1,left,['3'],4,145,[0.08890768],100,53,easy,plus,dotcolour,beta,,,44,21,V,R,
511,7,7,12,4,53,27,750,['n'],0,left,['9'],2,1159,[0.10653417],30,53,easy,plus,dotcolour,beta,,,44,21,V,R,
512,8,8,12,4,44,36,1167,['c'],1,left,['3'],4,443,[-0.04473012],57,44,hard,plus,dotcolour,beta,,,44,21,V,R,
513,9,9,12,4,47,33,1433,['c'],1,left,['3'],4,201,[0.06021421],99,47,medium,plus,dotcolour,beta,,,44,21,V,R,
514,10,10,12,4,36,44,1183,['n'],1,right,['3'],4,347,[-0.07403096],98,44,hard,plus,dotcolour,beta,,,44,21,V,R,
515,11,11,12,4,36,44,1650,['c'],0,right,['3'],4,316,[0.11256234],100,44,hard,plus,dotcolour,beta,,,44,21,V,R,
516,12,12,12,4,36,44,650,['n'],1,right,['3'],4,79,[-0.04844951],100,44,hard,plus,dotcolour,beta,,,44,21,V,R,
517,13,13,12,4,27,53,616,['n'],1,right,['3'],4,108,[-0.0447788],100,53,easy,plus,dotcolour,beta,,,44,21,V,R,
518,14,14,12,4,47,33,717,['c'],1,left,['2'],5,204,[0.08792708],100,47,medium,plus,dotcolour,beta,,,44,21,V,R,
519,15,15,12,4,27,53,767,['n'],1,right,['2'],5,127,[-0.09259438],100,53,easy,plus,dotcolour,beta,,,44,21,V,R,
520,16,16,12,4,53,27,784,['c'],1,left,['2'],5,156,[0.12687106],100,53,easy,plus,dotcolour,beta,,,44,21,V,R,
521,17,17,12,4,47,33,1068,['c'],1,left,['2'],5,180,[0.01583061],95,47,medium,plus,dotcolour,beta,,,44,21,V,R,
522,18,18,12,4,53,27,1001,['c'],1,left,['2'],5,158,[0.1140999],100,53,easy,plus,dotcolour,beta,,,44,21,V,R,
523,19,19,12,4,47,33,850,['n'],0,left,['3'],4,159,[-0.03211122],98,47,medium,plus,dotcolour,beta,,,44,21,V,R,
524,20,20,12,4,27,53,1267,['n'],1,right,['3'],4,222,[-0.09331502],100,53,easy,plus,dotcolour,beta,,,44,21,V,R,
525,21,21,12,4,44,36,1251,['n'],0,left,['3'],4,85,[-0.06431737],100,44,hard,plus,dotcolour,beta,,,44,21,V,R,
526,22,22,12,4,53,27,1300,['c'],1,left,['3'],4,271,[0.05379362],98,53,easy,plus,dotcolour,beta,,,44,21,V,R,
527,23,23,12,4,47,33,1700,['c'],1,left,['3'],4,305,[0.11805285],100,47,medium,plus,dotcolour,beta,,,44,21,V,R,
528,24,24,12,4,33,47,584,['n'],1,right,['3'],4,199,[-0.12247171],100,47,medium,plus,dotcolour,beta,,,44,21,V,R,
529,25,25,12,4,44,36,751,['c'],1,left,['3'],4,162,[0.11846054],100,44,hard,plus,dotcolour,beta,,,44,21,V,R,
530,26,26,12,4,33,47,717,['n'],1,right,['3'],4,120,[-0.06758837],100,47,medium,plus,dotcolour,beta,,,44,21,V,R,
531,27,27,12,4,44,36,950,['n'],0,left,['3'],4,135,[-0.0528026],100,44,hard,plus,dotcolour,beta,,,44,21,V,R,
532,28,28,12,4,53,27,1067,['c'],1,left,['3'],4,192,[0.05284734],99,53,easy,plus,dotcolour,beta,,,44,21,V,R,
533,29,29,12,4,44,36,817,['n'],0,left,['3'],4,121,[-0.0654065],100,44,hard,plus,dotcolour,beta,,,44,21,V,R,
534,30,30,12,4,33,47,1467,['n'],1,right,['3'],4,267,[-0.12110619],100,47,medium,plus,dotcolour,beta,,,44,21,V,R,
535,31,31,12,4,44,36,818,['c'],1,left,['3'],4,249,[0.07215039],99,44,hard,plus,dotcolour,beta,,,44,21,V,R,
536,32,32,12,4,44,36,783,['c'],1,left,['3'],4,217,[0.12844013],100,44,hard,plus,dotcolour,beta,,,44,21,V,R,
537,33,33,12,4,36,44,617,['n'],1,right,['3'],4,145,[-0.12174713],100,44,hard,plus,dotcolour,beta,,,44,21,V,R,
538,34,34,12,4,47,33,1034,['c'],1,left,['3'],4,251,[0.10426493],100,47,medium,plus,dotcolour,beta,,,44,21,V,R,
539,35,35,12,4,33,47,716,['n'],1,right,['3'],4,309,[-0.05496168],97,47,medium,plus,dotcolour,beta,,,44,21,V,R,
540,36,36,12,4,27,53,833,['n'],1,right,['2'],5,217,[-0.09801073],100,53,easy,plus,dotcolour,beta,,,44,21,V,R,
541,37,37,12,4,47,33,1700,['c'],1,left,['3'],4,189,[0.05252869],99,47,medium,plus,dotcolour,beta,,,44,21,V,R,
542,38,38,12,4,36,44,483,['n'],1,right,['3'],4,244,[-0.14408571],100,44,hard,plus,dotcolour,beta,,,44,21,V,R,
543,39,39,12,4,53,27,667,['c'],1,left,['3'],4,256,[0.09621881],100,53,easy,plus,dotcolour,beta,,,44,21,V,R,
544,40,40,12,4,27,53,567,['n'],1,right,['2'],5,256,[-0.0231987],94,53,easy,plus,dotcolour,beta,,,44,21,V,R,
545,41,41,12,4,33,47,1316,['n'],1,right,['3'],4,178,[-0.07013562],100,47,medium,plus,dotcolour,beta,,,44,21,V,R,
546,42,0,13,4,33,47,784,['n'],1,right,['2'],5,168,[-0.07164121],100,47,medium,plus,dotcolour,beta,,,44,21,V,R,
547,43,1,13,4,47,33,799,['c'],1,left,['3'],4,179,[0.08055596],100,47,medium,plus,dotcolour,beta,,,44,21,V,R,
548,44,2,13,4,27,53,433,['n'],1,right,['3'],4,99,[-0.10880407],100,53,easy,plus,dotcolour,beta,,,44,21,V,R,
549,45,3,13,4,36,44,584,['n'],1,right,['3'],4,81,[-0.03473323],100,44,hard,plus,dotcolour,beta,,,44,21,V,R,
550,46,4,13,4,44,36,1017,['c'],1,left,['3'],4,167,[0.05300076],99,44,hard,plus,dotcolour,beta,,,44,21,V,R,
551,47,5,13,4,44,36,734,['c'],1,left,['3'],4,188,[0.02152633],96,44,hard,plus,dotcolour,beta,,,44,21,V,R,
552,48,6,13,4,47,33,717,['c'],1,left,['3'],4,145,[0.07812373],100,47,medium,plus,dotcolour,beta,,,44,21,V,R,
553,49,7,13,4,53,27,1417,['c'],1,left,['3'],4,148,[0.08229669],100,53,easy,plus,dotcolour,beta,,,44,21,V,R,
554,50,8,13,4,44,36,933,['c'],1,left,['3'],4,202,[0.0308004],97,44,hard,plus,dotcolour,beta,,,44,21,V,R,
555,51,9,13,4,36,44,784,['n'],1,right,['3'],4,164,[-0.11533287],100,44,hard,plus,dotcolour,beta,,,44,21,V,R,
556,52,10,13,4,53,27,650,['c'],1,left,['3'],4,132,[0.0942343],100,53,easy,plus,dotcolour,beta,,,44,21,V,R,
557,53,11,13,4,27,53,550,['n'],1,right,['3'],4,114,[-0.07236586],100,53,easy,plus,dotcolour,beta,,,44,21,V,R,
558,54,12,13,4,36,44,817,['n'],1,right,['3'],4,151,[-0.065147],100,44,hard,plus,dotcolour,beta,,,44,21,V,R,
559,55,13,13,4,36,44,1000,['n'],1,right,['3'],4,122,[-0.06431644],100,44,hard,plus,dotcolour,beta,,,44,21,V,R,
560,56,14,13,4,33,47,883,['c'],0,right,['8'],3,1163,[0.22260111],99,47,medium,plus,dotcolour,beta,,,44,21,V,R,
561,57,15,13,4,27,53,2384,['n'],1,right,['3'],4,390,[-0.10510316],99,53,easy,plus,dotcolour,beta,,,44,21,V,R,
562,58,16,13,4,27,53,2800,['c'],0,right,['3'],4,424,[-0.00732307],79,53,easy,plus,dotcolour,beta,,,44,21,V,R,
563,59,17,13,4,27,53,751,['n'],1,right,['3'],4,322,[-0.08071396],99,53,easy,plus,dotcolour,beta,,,44,21,V,R,
564,60,18,13,4,44,36,1467,['n'],0,left,['3'],4,259,[-0.08030721],99,44,hard,plus,dotcolour,beta,,,44,21,V,R,
565,61,19,13,4,27,53,784,['n'],1,right,['2'],5,466,[-0.20006378],100,53,easy,plus,dotcolour,beta,,,44,21,V,R,
566,62,20,13,4,36,44,1049,['n'],1,right,['2'],5,143,[-0.16036542],100,44,hard,plus,dotcolour,beta,,,44,21,V,R,
567,63,21,13,4,33,47,567,['n'],1,right,['2'],5,108,[-0.07803988],100,47,medium,plus,dotcolour,beta,,,44,21,V,R,
568,64,22,13,4,44,36,1033,['n'],0,left,['3'],4,127,[-0.0557649],100,44,hard,plus,dotcolour,beta,,,44,21,V,R,
569,65,23,13,4,36,44,918,['n'],1,right,['2'],5,150,[-0.11100472],100,44,hard,plus,dotcolour,beta,,,44,21,V,R,
570,66,24,13,4,27,53,900,['n'],1,right,['3'],4,190,[-0.11416787],100,53,easy,plus,dotcolour,beta,,,44,21,V,R,
571,67,25,13,4,53,27,1100,['c'],1,left,['3'],4,227,[0.05684926],99,53,easy,plus,dotcolour,beta,,,44,21,V,R,
572,68,26,13,4,44,36,700,['c'],1,left,['3'],4,176,[0.01907614],96,44,hard,plus,dotcolour,beta,,,44,21,V,R,
573,69,27,13,4,33,47,1784,['n'],1,right,['3'],4,1482,[-0.15446498],96,47,medium,plus,dotcolour,beta,,,44,21,V,R,
574,70,28,13,4,53,27,683,['c'],1,left,['2'],5,172,[0.14852548],100,53,easy,plus,dotcolour,beta,,,44,21,V,R,
575,71,29,13,4,53,27,700,['c'],1,left,['2'],5,250,[0.05925414],98,53,easy,plus,dotcolour,beta,,,44,21,V,R,
576,72,30,13,4,44,36,800,['c'],1,left,['3'],4,162,[0.04937256],99,44,hard,plus,dotcolour,beta,,,44,21,V,R,
577,73,31,13,4,47,33,934,['c'],1,left,['3'],4,151,[0.10823673],100,47,medium,plus,dotcolour,beta,,,44,21,V,R,
578,74,32,13,4,33,47,900,['n'],1,right,['3'],4,246,[-0.11178086],100,47,medium,plus,dotcolour,beta,,,44,21,V,R,
579,75,33,13,4,36,44,1767,['c'],0,right,['3'],4,271,[0.03150644],95,44,hard,plus,dotcolour,beta,,,44,21,V,R,
580,76,34,13,4,53,27,1117,['c'],1,left,['2'],5,281,[0.16027223],100,53,easy,plus,dotcolour,beta,,,44,21,V,R,
581,77,35,13,4,33,47,833,['n'],1,right,['2'],5,206,[-0.0797206],100,47,medium,plus,dotcolour,beta,,,44,21,V,R,
582,78,36,13,4,47,33,667,['n'],0,left,['2'],5,156,[-0.1098628],100,47,medium,plus,dotcolour,beta,,,44,21,V,R,
583,79,37,13,4,47,33,650,['n'],0,left,['2'],5,244,[-0.03270845],96,47,medium,plus,dotcolour,beta,,,44,21,V,R,
584,80,38,13,4,47,33,1800,['c'],1,left,['2'],5,612,[0.28927736],100,47,medium,plus,dotcolour,beta,,,44,21,V,R,
585,81,39,13,4,53,27,700,['c'],1,left,['2'],5,184,[0.15852407],100,53,easy,plus,dotcolour,beta,,,44,21,V,R,
586,82,40,13,4,33,47,967,['n'],1,right,['3'],4,253,[-0.03693952],96,47,medium,plus,dotcolour,beta,,,44,21,V,R,
587,83,41,13,4,47,33,717,['c'],1,left,['2'],5,223,[0.0504645],98,47,medium,plus,dotcolour,beta,,,44,21,V,R,
588,84,0,14,4,33,47,817,['n'],1,right,['3'],4,180,[-0.01162004],95,47,medium,plus,dotcolour,beta,,,44,21,V,R,
589,85,1,14,4,44,36,601,['c'],1,left,['3'],4,174,[0.10919865],100,44,hard,plus,dotcolour,beta,,,44,21,V,R,
590,86,2,14,4,27,53,817,['c'],0,right,['3'],4,175,[-0.02728766],77,53,easy,plus,dotcolour,beta,,,44,21,V,R,
591,87,3,14,4,53,27,766,['c'],1,left,['3'],4,147,[0.10867824],100,53,easy,plus,dotcolour,beta,,,44,21,V,R,
592,88,4,14,4,33,47,884,['n'],1,right,['3'],4,243,[-0.05476242],98,47,medium,plus,dotcolour,beta,,,44,21,V,R,
593,89,5,14,4,44,36,1017,['c'],1,left,['3'],4,162,[0.03950239],99,44,hard,plus,dotcolour,beta,,,44,21,V,R,
594,90,6,14,4,53,27,734,['c'],1,left,['2'],5,247,[0.08654159],99,53,easy,plus,dotcolour,beta,,,44,21,V,R,
595,91,7,14,4,33,47,716,['n'],1,right,['2'],5,122,[-0.07959178],100,47,medium,plus,dotcolour,beta,,,44,21,V,R,
596,92,8,14,4,44,36,651,['n'],0,left,['8'],3,1460,[-0.17994902],97,44,hard,plus,dotcolour,beta,,,44,21,V,R,
597,93,9,14,4,36,44,833,['c'],0,right,['3'],4,594,[0.15352785],99,44,hard,plus,dotcolour,beta,,,44,21,V,R,
598,94,10,14,4,27,53,1500,['n'],1,right,['3'],4,2271,[-0.58681675],100,53,easy,plus,dotcolour,beta,,,44,21,V,R,
599,95,11,14,4,36,44,817,['c'],0,right,['3'],4,188,[0.13675534],100,44,hard,plus,dotcolour,beta,,,44,21,V,R,
600,96,12,14,4,36,44,766,['n'],1,right,['3'],4,432,[-0.05105778],95,44,hard,plus,dotcolour,beta,,,44,21,V,R,
601,97,13,14,4,44,36,1050,['c'],1,left,['2'],5,878,[0.02388063],82,44,hard,plus,dotcolour,beta,,,44,21,V,R,
602,98,14,14,4,47,33,767,['c'],1,left,['2'],5,149,[0.10089587],100,47,medium,plus,dotcolour,beta,,,44,21,V,R,
603,99,15,14,4,47,33,1166,['c'],1,left,['3'],4,169,[0.06095113],99,47,medium,plus,dotcolour,beta,,,44,21,V,R,
604,100,16,14,4,27,53,734,['n'],1,right,['3'],4,175,[-0.13185462],100,53,easy,plus,dotcolour,beta,,,44,21,V,R,
605,101,17,14,4,53,27,701,['n'],0,left,['3'],4,165,[-0.02156942],97,53,easy,plus,dotcolour,beta,,,44,21,V,R,
606,102,18,14,4,53,27,1016,['c'],1,left,['3'],4,191,[0.17039767],100,53,easy,plus,dotcolour,beta,,,44,21,V,R,
607,103,19,14,4,36,44,1633,['n'],1,right,['3'],4,223,[-0.06035793],99,44,hard,plus,dotcolour,beta,,,44,21,V,R,
608,104,20,14,4,47,33,833,['c'],1,left,['3'],4,229,[0.16568448],100,47,medium,plus,dotcolour,beta,,,44,21,V,R,
609,105,21,14,4,36,44,2200,['c'],0,right,['3'],4,566,[0.10348063],98,44,hard,plus,dotcolour,beta,,,44,21,V,R,
610,106,22,14,4,36,44,1484,['c'],0,right,['3'],4,381,[0.00381714],85,44,hard,plus,dotcolour,beta,,,44,21,V,R,
611,107,23,14,4,53,27,750,['c'],1,left,['3'],4,345,[0.13974296],100,53,easy,plus,dotcolour,beta,,,44,21,V,R,
612,108,24,14,4,44,36,1733,['n'],0,left,['3'],4,911,[-0.02958423],83,44,hard,plus,dotcolour,beta,,,44,21,V,R,
613,109,25,14,4,36,44,1000,['c'],0,right,['3'],4,1524,[-0.12648759],26,44,hard,plus,dotcolour,beta,,,44,21,V,R,
614,110,26,14,4,33,47,683,['n'],1,right,['3'],4,132,[-0.07305707],100,47,medium,plus,dotcolour,beta,,,44,21,V,R,
615,111,27,14,4,47,33,833,['c'],1,left,['2'],5,159,[0.01698301],96,47,medium,plus,dotcolour,beta,,,44,21,V,R,
616,112,28,14,4,27,53,535,['n'],1,right,['3'],4,133,[-0.06403612],100,53,easy,plus,dotcolour,beta,,,44,21,V,R,
617,113,29,14,4,27,53,550,['n'],1,right,['3'],4,235,[-0.11524433],100,53,easy,plus,dotcolour,beta,,,44,21,V,R,
618,114,30,14,4,47,33,733,['c'],1,left,['3'],4,165,[0.03283922],98,47,medium,plus,dotcolour,beta,,,44,21,V,R,
619,115,31,14,4,53,27,832,['c'],1,left,['3'],4,150,[0.11430577],100,53,easy,plus,dotcolour,beta,,,44,21,V,R,
620,116,32,14,4,47,33,650,['n'],0,left,['3'],4,960,[0.2294075],4,47,medium,plus,dotcolour,beta,,,44,21,V,R,
621,117,33,14,4,33,47,650,['n'],1,right,['3'],4,120,[-0.03376874],99,47,medium,plus,dotcolour,beta,,,44,21,V,R,
622,118,34,14,4,27,53,650,['n'],1,right,['3'],4,75,[-0.06488607],100,53,easy,plus,dotcolour,beta,,,44,21,V,R,
623,119,35,14,4,47,33,1184,['c'],1,left,['3'],4,554,[0.20306303],100,47,medium,plus,dotcolour,beta,,,44,21,V,R,
624,120,36,14,4,44,36,733,['c'],1,left,['3'],4,167,[0.03616374],98,44,hard,plus,dotcolour,beta,,,44,21,V,R,
625,121,37,14,4,33,47,534,['n'],1,right,['3'],4,148,[-0.12345258],100,47,medium,plus,dotcolour,beta,,,44,21,V,R,
626,122,38,14,4,33,47,434,['n'],1,right,['3'],4,78,[-0.08948575],100,47,medium,plus,dotcolour,beta,,,44,21,V,R,
627,123,39,14,4,27,53,483,['n'],1,right,['3'],4,97,[-0.07459796],100,53,easy,plus,dotcolour,beta,,,44,21,V,R,
628,124,40,14,4,44,36,765,['n'],0,left,['3'],4,103,[-0.07117853],100,44,hard,plus,dotcolour,beta,,,44,21,V,R,
629,125,41,14,4,53,27,834,['c'],1,left,['2'],5,163,[0.13203207],100,53,easy,plus,dotcolour,beta,,,44,21,V,R,
630,0,0,15,5,36,44,801,['n'],1,right,['2'],5,238,[-0.08096101],72,44,hard,minus,dotcolour,beta,,,44,21,V,R,
631,1,1,15,5,47,33,616,['c'],1,left,['3'],4,157,[0.10497356],90,47,medium,minus,dotcolour,beta,,,44,21,V,R,
632,2,2,15,5,47,33,651,['c'],1,left,['3'],4,38,[0.05924103],58,47,medium,minus,dotcolour,beta,,,44,21,V,R,
633,3,3,15,5,33,47,517,['n'],1,right,['3'],4,121,[-0.06961887],67,47,medium,minus,dotcolour,beta,,,44,21,V,R,
634,4,4,15,5,44,36,1067,['c'],1,left,['3'],4,155,[0.10568782],91,44,hard,minus,dotcolour,beta,,,44,21,V,R,
635,5,5,15,5,44,36,550,['n'],0,left,['3'],4,120,[-0.08049015],79,44,hard,minus,dotcolour,beta,,,44,21,V,R,
636,6,6,15,5,44,36,717,['c'],1,left,['3'],4,184,[0.15966018],99,44,hard,minus,dotcolour,beta,,,44,21,V,R,
637,7,7,15,5,36,44,467,['n'],1,right,['3'],4,95,[-0.06996309],70,44,hard,minus,dotcolour,beta,,,44,21,V,R,
638,8,8,15,5,53,27,716,['c'],1,left,['3'],4,224,[0.17592075],99,53,easy,minus,dotcolour,beta,,,44,21,V,R,
639,9,9,15,5,47,33,500,['c'],1,left,['3'],4,204,[0.06452106],59,47,medium,minus,dotcolour,beta,,,44,21,V,R,
640,10,10,15,5,36,44,468,['n'],1,right,['3'],4,131,[-0.07211657],70,44,hard,minus,dotcolour,beta,,,44,21,V,R,
641,11,11,15,5,27,53,633,['n'],1,right,['3'],4,109,[-0.12881065],98,53,easy,minus,dotcolour,beta,,,44,21,V,R,
642,12,12,15,5,33,47,634,['n'],1,right,['3'],4,97,[-0.06235897],60,47,medium,minus,dotcolour,beta,,,44,21,V,R,
643,13,13,15,5,33,47,600,['n'],1,right,['3'],4,118,[-0.09867133],91,47,medium,minus,dotcolour,beta,,,44,21,V,R,
644,14,14,15,5,33,47,551,['n'],1,right,['3'],4,117,[-0.04836348],41,47,medium,minus,dotcolour,beta,,,44,21,V,R,
645,15,15,15,5,33,47,768,['n'],1,right,['3'],4,179,[-0.05523896],50,47,medium,minus,dotcolour,beta,,,44,21,V,R,
646,16,16,15,5,36,44,499,['c'],0,right,['3'],4,121,[0.11910863],96,44,hard,minus,dotcolour,beta,,,44,21,V,R,
647,17,17,15,5,44,36,883,['c'],1,left,['3'],4,634,[0.02982729],36,44,hard,minus,dotcolour,beta,,,44,21,V,R,
648,18,18,15,5,33,47,934,['n'],1,right,['2'],5,229,[-0.16794938],99,47,medium,minus,dotcolour,beta,,,44,21,V,R,
649,19,19,15,5,36,44,750,['n'],1,right,['3'],4,126,[-0.01166667],10,44,hard,minus,dotcolour,beta,,,44,21,V,R,
650,20,20,15,5,53,27,950,['c'],1,left,['3'],4,213,[0.07245937],66,53,easy,minus,dotcolour,beta,,,44,21,V,R,
651,21,21,15,5,44,36,1050,['n'],0,left,['3'],4,251,[-0.05753278],52,44,hard,minus,dotcolour,beta,,,44,21,V,R,
652,22,22,15,5,27,53,784,['n'],1,right,['2'],5,659,[-0.22800896],98,53,easy,minus,dotcolour,beta,,,44,21,V,R,
653,23,23,15,5,27,53,633,['n'],1,right,['2'],5,217,[-0.12665532],94,53,easy,minus,dotcolour,beta,,,44,21,V,R,
654,24,24,15,5,27,53,550,['n'],1,right,['2'],5,187,[-0.15617248],99,53,easy,minus,dotcolour,beta,,,44,21,V,R,
655,25,25,15,5,44,36,1733,['c'],1,left,['3'],4,1096,[-0.08881148],8,44,hard,minus,dotcolour,beta,,,44,21,V,R,
656,26,26,15,5,44,36,1150,['c'],1,left,['3'],4,159,[0.0360593],29,44,hard,minus,dotcolour,beta,,,44,21,V,R,
657,27,27,15,5,47,33,1016,['n'],0,left,['3'],4,161,[0.0026266],7,47,medium,minus,dotcolour,beta,,,44,21,V,R,
658,28,28,15,5,53,27,717,['c'],1,left,['2'],5,263,[0.22217248],100,53,easy,minus,dotcolour,beta,,,44,21,V,R,
659,29,29,15,5,47,33,1550,['c'],1,left,['3'],4,240,[0.12278035],92,47,medium,minus,dotcolour,beta,,,44,21,V,R,
660,30,30,15,5,53,27,1167,['c'],1,left,['2'],5,385,[0.29168536],100,53,easy,minus,dotcolour,beta,,,44,21,V,R,
661,31,31,15,5,27,53,968,['n'],1,right,['2'],5,148,[-0.09938229],89,53,easy,minus,dotcolour,beta,,,44,21,V,R,
662,32,32,15,5,53,27,750,['n'],0,left,['2'],5,97,[-0.04632801],37,53,easy,minus,dotcolour,beta,,,44,21,V,R,
663,33,33,15,5,27,53,933,['n'],1,right,['3'],4,137,[-0.17947807],100,53,easy,minus,dotcolour,beta,,,44,21,V,R,
664,34,34,15,5,36,44,666,['n'],1,right,['3'],4,146,[-0.10875656],92,44,hard,minus,dotcolour,beta,,,44,21,V,R,
665,35,35,15,5,47,33,1216,['c'],1,left,['2'],5,1381,[0.13584836],77,47,medium,minus,dotcolour,beta,,,44,21,V,R,
666,36,36,15,5,53,27,933,['c'],1,left,['2'],5,169,[-0.00587244],6,53,easy,minus,dotcolour,beta,,,44,21,V,R,
667,37,37,15,5,47,33,717,['c'],1,left,['2'],5,143,[0.11173752],94,47,medium,minus,dotcolour,beta,,,44,21,V,R,
668,38,38,15,5,27,53,633,['n'],1,right,['3'],4,217,[-0.12713743],94,53,easy,minus,dotcolour,beta,,,44,21,V,R,
669,39,39,15,5,53,27,633,['c'],1,left,['3'],4,257,[0.19609769],99,53,easy,minus,dotcolour,beta,,,44,21,V,R,
670,40,40,15,5,33,47,750,['c'],0,right,['8'],3,1049,[-0.08776683],7,47,medium,minus,dotcolour,beta,,,44,21,V,R,
671,41,41,15,5,36,44,1700,['c'],0,right,['3'],4,276,[0.07199849],64,44,hard,minus,dotcolour,beta,,,44,21,V,R,
672,42,0,16,5,47,33,917,['c'],1,left,['3'],4,187,[0.13771052],97,47,medium,minus,dotcolour,beta,,,44,21,V,R,
673,43,1,16,5,53,27,650,['c'],1,left,['2'],5,154,[0.10787188],92,53,easy,minus,dotcolour,beta,,,44,21,V,R,
674,44,2,16,5,36,44,634,['n'],1,right,['3'],4,149,[-0.05128293],45,44,hard,minus,dotcolour,beta,,,44,21,V,R,
675,45,3,16,5,27,53,500,['n'],1,right,['3'],4,108,[-0.07320648],72,53,easy,minus,dotcolour,beta,,,44,21,V,R,
676,46,4,16,5,33,47,616,['n'],1,right,['3'],4,64,[-0.0739981],79,47,medium,minus,dotcolour,beta,,,44,21,V,R,
677,47,5,16,5,47,33,733,['n'],0,left,['9'],2,825,[-0.0791205],61,47,medium,minus,dotcolour,beta,,,44,21,V,R,
678,48,6,16,5,36,44,734,['n'],1,right,['2'],5,132,[-0.03994203],32,44,hard,minus,dotcolour,beta,,,44,21,V,R,
679,49,7,16,5,27,53,616,['n'],1,right,['2'],5,367,[-0.04111397],39,53,easy,minus,dotcolour,beta,,,44,21,V,R,
680,50,8,16,5,47,33,651,['c'],1,left,['3'],4,576,[-0.07268769],5,47,medium,minus,dotcolour,beta,,,44,21,V,R,
681,51,9,16,5,36,44,799,['n'],1,right,['2'],5,130,[-0.03740258],29,44,hard,minus,dotcolour,beta,,,44,21,V,R,
682,52,10,16,5,44,36,1750,['c'],1,left,['3'],4,432,[0.020694],28,44,hard,minus,dotcolour,beta,,,44,21,V,R,
683,53,11,16,5,36,44,851,['n'],1,right,['3'],4,654,[-0.12655684],83,44,hard,minus,dotcolour,beta,,,44,21,V,R,
684,54,12,16,5,53,27,667,['c'],1,left,['2'],5,402,[0.14318137],92,53,easy,minus,dotcolour,beta,,,44,21,V,R,
685,55,13,16,5,44,36,900,['c'],1,left,['3'],4,335,[0.07712163],66,44,hard,minus,dotcolour,beta,,,44,21,V,R,
686,56,14,16,5,36,44,634,['n'],1,right,['3'],4,169,[-0.03752694],31,44,hard,minus,dotcolour,beta,,,44,21,V,R,
687,57,15,16,5,53,27,867,['c'],1,left,['2'],5,178,[0.07805482],72,53,easy,minus,dotcolour,beta,,,44,21,V,R,
688,58,16,16,5,53,27,716,['c'],1,left,['2'],5,183,[0.04436987],38,53,easy,minus,dotcolour,beta,,,44,21,V,R,
689,59,17,16,5,33,47,684,['n'],1,right,['2'],5,126,[-0.05178573],45,47,medium,minus,dotcolour,beta,,,44,21,V,R,
690,60,18,16,5,44,36,1634,['c'],1,left,['3'],4,368,[0.07252031],62,44,hard,minus,dotcolour,beta,,,44,21,V,R,
691,61,19,16,5,33,47,1134,['n'],1,right,['3'],4,229,[-0.11268142],90,47,medium,minus,dotcolour,beta,,,44,21,V,R,
692,62,20,16,5,44,36,1234,['c'],1,left,['3'],4,493,[0.08520868],68,44,hard,minus,dotcolour,beta,,,44,21,V,R,
693,63,21,16,5,33,47,551,['n'],1,right,['3'],4,180,[-0.1284788],96,47,medium,minus,dotcolour,beta,,,44,21,V,R,
694,64,22,16,5,36,44,1200,['n'],1,right,['3'],4,982,[-0.18019518],91,44,hard,minus,dotcolour,beta,,,44,21,V,R,
695,65,23,16,5,53,27,850,['c'],1,left,['3'],4,286,[0.00502587],15,53,easy,minus,dotcolour,beta,,,44,21,V,R,
696,66,24,16,5,44,36,600,['c'],1,left,['2'],5,268,[0.09932056],82,44,hard,minus,dotcolour,beta,,,44,21,V,R,
697,67,25,16,5,33,47,700,['n'],1,right,['3'],4,159,[-0.14708617],98,47,medium,minus,dotcolour,beta,,,44,21,V,R,
698,68,26,16,5,44,36,783,['n'],0,left,['3'],4,178,[-0.0784469],73,44,hard,minus,dotcolour,beta,,,44,21,V,R,
699,69,27,16,5,33,47,666,['n'],1,right,['3'],4,153,[-0.0374072],30,47,medium,minus,dotcolour,beta,,,44,21,V,R,
700,70,28,16,5,47,33,834,['c'],1,left,['2'],5,227,[0.08302003],74,47,medium,minus,dotcolour,beta,,,44,21,V,R,
701,71,29,16,5,27,53,567,['n'],1,right,['2'],5,284,[-0.0359417],34,53,easy,minus,dotcolour,beta,,,44,21,V,R,
702,72,30,16,5,47,33,1084,['c'],1,left,['3'],4,215,[0.0869781],77,47,medium,minus,dotcolour,beta,,,44,21,V,R,
703,73,31,16,5,33,47,1300,['n'],1,right,['3'],4,1428,[-0.16378323],84,47,medium,minus,dotcolour,beta,,,44,21,V,R,
704,74,32,16,5,44,36,650,['c'],1,left,['3'],4,186,[0.07610447],70,44,hard,minus,dotcolour,beta,,,44,21,V,R,
705,75,33,16,5,27,53,534,['n'],1,right,['3'],4,198,[-0.0632231],58,53,easy,minus,dotcolour,beta,,,44,21,V,R,
706,76,34,16,5,36,44,783,['c'],0,right,['3'],4,152,[0.08915759],83,44,hard,minus,dotcolour,beta,,,44,21,V,R,
707,77,35,16,5,47,33,1000,['c'],1,left,['3'],4,171,[0.11621799],93,47,medium,minus,dotcolour,beta,,,44,21,V,R,
708,78,36,16,5,27,53,584,['n'],1,right,['3'],4,111,[-0.1455202],99,53,easy,minus,dotcolour,beta,,,44,21,V,R,
709,79,37,16,5,47,33,717,['c'],1,left,['3'],4,119,[0.13820904],99,47,medium,minus,dotcolour,beta,,,44,21,V,R,
710,80,38,16,5,53,27,599,['n'],0,left,['8'],3,1476,[-0.04654966],47,53,easy,minus,dotcolour,beta,,,44,21,V,R,
711,81,39,16,5,27,53,768,['n'],1,right,['3'],4,107,[-0.10513003],94,53,easy,minus,dotcolour,beta,,,44,21,V,R,
712,82,40,16,5,27,53,1500,['n'],1,right,['3'],4,451,[-0.09972496],77,53,easy,minus,dotcolour,beta,,,44,21,V,R,
713,83,41,16,5,53,27,734,['c'],1,left,['3'],4,230,[0.12536766],93,53,easy,minus,dotcolour,beta,,,44,21,V,R,
714,84,0,17,5,36,44,884,['n'],1,right,['3'],4,221,[-0.07807132],70,44,hard,minus,dotcolour,beta,,,44,21,V,R,
715,85,1,17,5,44,36,500,['n'],0,left,['2'],5,146,[-0.08889557],83,44,hard,minus,dotcolour,beta,,,44,21,V,R,
716,86,2,17,5,33,47,600,['n'],1,right,['2'],5,141,[-0.09642342],88,47,medium,minus,dotcolour,beta,,,44,21,V,R,
717,87,3,17,5,44,36,1250,['c'],1,left,['3'],4,239,[0.06221204],56,44,hard,minus,dotcolour,beta,,,44,21,V,R,
718,88,4,17,5,53,27,516,['c'],1,left,['3'],4,145,[0.07877731],75,53,easy,minus,dotcolour,beta,,,44,21,V,R,
719,89,5,17,5,27,53,433,['n'],1,right,['3'],4,123,[-0.06469636],62,53,easy,minus,dotcolour,beta,,,44,21,V,R,
720,90,6,17,5,27,53,534,['n'],1,right,['3'],4,107,[-0.06477357],62,53,easy,minus,dotcolour,beta,,,44,21,V,R,
721,91,7,17,5,36,44,434,['n'],1,right,['2'],5,110,[-0.09103926],87,44,hard,minus,dotcolour,beta,,,44,21,V,R,
722,92,8,17,5,53,27,633,['c'],1,left,['3'],4,129,[0.10617383],93,53,easy,minus,dotcolour,beta,,,44,21,V,R,
723,93,9,17,5,33,47,533,['n'],1,right,['2'],5,120,[-0.01555944],11,47,medium,minus,dotcolour,beta,,,44,21,V,R,
724,94,10,17,5,36,44,601,['n'],1,right,['3'],4,140,[-0.08266888],79,44,hard,minus,dotcolour,beta,,,44,21,V,R,
725,95,11,17,5,47,33,866,['c'],1,left,['3'],4,141,[0.09215766],85,47,medium,minus,dotcolour,beta,,,44,21,V,R,
726,96,12,17,5,47,33,633,['c'],1,left,['3'],4,111,[0.13757243],99,47,medium,minus,dotcolour,beta,,,44,21,V,R,
727,97,13,17,5,53,27,550,['c'],1,left,['3'],4,117,[0.10362675],93,53,easy,minus,dotcolour,beta,,,44,21,V,R,
728,98,14,17,5,27,53,550,['n'],1,right,['3'],4,108,[-0.076077],75,53,easy,minus,dotcolour,beta,,,44,21,V,R,
729,99,15,17,5,47,33,766,['c'],1,left,['2'],5,306,[0.03760209],36,47,medium,minus,dotcolour,beta,,,44,21,V,R,
730,100,16,17,5,44,36,1317,['c'],1,left,['3'],4,323,[0.06915122],61,44,hard,minus,dotcolour,beta,,,44,21,V,R,
731,101,17,17,5,44,36,1217,['n'],0,left,['3'],4,205,[-0.02723094],24,44,hard,minus,dotcolour,beta,,,44,21,V,R,
732,102,18,17,5,27,53,566,['n'],1,right,['2'],5,120,[-0.07623457],75,53,easy,minus,dotcolour,beta,,,44,21,V,R,
733,103,19,17,5,47,33,800,['c'],1,left,['2'],5,212,[0.10732596],88,47,medium,minus,dotcolour,beta,,,44,21,V,R,
734,104,20,17,5,36,44,716,['n'],1,right,['3'],4,128,[-0.09352775],87,44,hard,minus,dotcolour,beta,,,44,21,V,R,
735,105,21,17,5,53,27,550,['c'],1,left,['2'],5,374,[0.15361724],95,53,easy,minus,dotcolour,beta,,,44,21,V,R,
736,106,22,17,5,33,47,717,['n'],1,right,['2'],5,155,[-0.14724045],99,47,medium,minus,dotcolour,beta,,,44,21,V,R,
737,107,23,17,5,36,44,1418,['n'],1,right,['3'],4,334,[-0.08343038],70,44,hard,minus,dotcolour,beta,,,44,21,V,R,
738,108,24,17,5,27,53,1284,['n'],1,right,['3'],4,734,[-0.15963966],90,53,easy,minus,dotcolour,beta,,,44,21,V,R,
739,109,25,17,5,44,36,1350,['c'],1,left,['3'],4,709,[0.06342527],54,44,hard,minus,dotcolour,beta,,,44,21,V,R,
740,110,26,17,5,53,27,783,['c'],1,left,['2'],5,257,[0.02380337],24,53,easy,minus,dotcolour,beta,,,44,21,V,R,
741,111,27,17,5,53,27,767,['c'],1,left,['2'],5,137,[0.07613775],73,53,easy,minus,dotcolour,beta,,,44,21,V,R,
742,112,28,17,5,36,44,1067,['n'],1,right,['3'],4,211,[-0.12527062],94,44,hard,minus,dotcolour,beta,,,44,21,V,R,
743,113,29,17,5,33,47,750,['n'],1,right,['3'],4,102,[-0.06649717],65,47,medium,minus,dotcolour,beta,,,44,21,V,R,
744,114,30,17,5,36,44,717,['n'],1,right,['3'],4,126,[-0.09642846],89,44,hard,minus,dotcolour,beta,,,44,21,V,R,
745,115,31,17,5,27,53,733,['n'],1,right,['3'],4,117,[-0.06962763],68,53,easy,minus,dotcolour,beta,,,44,21,V,R,
746,116,32,17,5,47,33,634,['c'],1,left,['3'],4,160,[0.08239637],77,47,medium,minus,dotcolour,beta,,,44,21,V,R,
747,117,33,17,5,33,47,517,['n'],1,right,['3'],4,126,[-0.05539913],50,47,medium,minus,dotcolour,beta,,,44,21,V,R,
748,118,34,17,5,33,47,450,['n'],1,right,['3'],4,104,[-0.12648008],98,47,medium,minus,dotcolour,beta,,,44,21,V,R,
749,119,35,17,5,44,36,634,['n'],0,left,['3'],4,500,[-0.09808622],75,44,hard,minus,dotcolour,beta,,,44,21,V,R,
750,120,36,17,5,47,33,517,['c'],1,left,['3'],4,157,[0.17801955],100,47,medium,minus,dotcolour,beta,,,44,21,V,R,
751,121,37,17,5,33,47,450,['n'],1,right,['3'],4,125,[-0.07304623],71,47,medium,minus,dotcolour,beta,,,44,21,V,R,
752,122,38,17,5,47,33,767,['c'],1,left,['3'],4,195,[0.08455592],77,47,medium,minus,dotcolour,beta,,,44,21,V,R,
753,123,39,17,5,27,53,516,['n'],1,right,['3'],4,95,[-0.09237235],90,53,easy,minus,dotcolour,beta,,,44,21,V,R,
754,124,40,17,5,53,27,617,['c'],1,left,['2'],5,124,[0.07593339],74,53,easy,minus,dotcolour,beta,,,44,21,V,R,
755,125,41,17,5,44,36,800,['n'],0,left,['3'],4,144,[-0.07728809],74,44,hard,minus,dotcolour,beta,,,44,21,V,R,
,,,,,,,,,,,,,,,,,,,,,1,"nee, niet direct",44,21,V,R,
,,,,,,,,,,,,,,,,,,,,,2,['d'],44,21,V,R,
,,,,,,,,,,,,,,,,,,,,,3,['d'],44,21,V,R,
,,,,,,,,,,,,,,,,,,,,,5,"['5', '3']",44,21,V,R,
