trial,withinphasetrial,withinblocktrial,block,phase,dotsLeft,dotsRight,rt,resp,cor,cresp,conf_press,cj,RTconf,ev,fb,diff,difflevel,condition,task,manip,questionID,questionResp,sub,age,gender,handedness,
0,0,0,0,0,27,53,1033,['n'],1,right,['9'],5,1491,[-0.30152869],100,53,easy,plus,dotcolour,alfa,,,86,27,M,R,
1,1,1,0,0,36,44,1583,['c'],0,right,['9'],5,3272,[-0.05628235],25,44,hard,plus,dotcolour,alfa,,,86,27,M,R,
2,2,2,0,0,47,33,815,['c'],1,left,['0'],6,844,[0.28203287],100,47,medium,plus,dotcolour,alfa,,,86,27,M,R,
3,3,3,0,0,53,27,1248,['c'],1,left,['9'],5,1410,[0.45590735],100,53,easy,plus,dotcolour,alfa,,,86,27,M,R,
4,4,4,0,0,27,53,832,['n'],1,right,['9'],5,673,[-0.11788609],99,53,easy,plus,dotcolour,alfa,,,86,27,M,R,
5,5,5,0,0,44,36,732,['c'],1,left,['9'],5,706,[0.0176159],68,44,hard,plus,dotcolour,alfa,,,86,27,M,R,
6,6,6,0,0,33,47,932,['n'],1,right,['9'],5,505,[-0.06675949],97,47,medium,plus,dotcolour,alfa,,,86,27,M,R,
7,7,7,0,0,47,33,698,['c'],1,left,['9'],5,682,[0.29605249],100,47,medium,plus,dotcolour,alfa,,,86,27,M,R,
8,8,8,0,0,33,47,797,['c'],0,right,['0'],6,416,[0.13776498],100,47,medium,plus,dotcolour,alfa,,,86,27,M,R,
9,9,9,0,0,44,36,948,['c'],1,left,['9'],5,522,[0.06523509],96,44,hard,plus,dotcolour,alfa,,,86,27,M,R,
10,10,10,0,0,36,44,1115,['n'],1,right,['9'],5,778,[-0.32772257],100,44,hard,plus,dotcolour,alfa,,,86,27,M,R,
11,11,11,0,0,33,47,1281,['c'],0,right,['9'],5,545,[0.111807],100,47,medium,plus,dotcolour,alfa,,,86,27,M,R,
12,12,12,0,0,33,47,866,['c'],0,right,['9'],5,433,[0.11271853],100,47,medium,plus,dotcolour,alfa,,,86,27,M,R,
13,13,13,0,0,53,27,582,['c'],1,left,['0'],6,410,[0.16252136],100,53,easy,plus,dotcolour,alfa,,,86,27,M,R,
14,14,14,0,0,33,47,731,['n'],1,right,['0'],6,421,[-0.15837175],100,47,medium,plus,dotcolour,alfa,,,86,27,M,R,
15,15,15,0,0,53,27,565,['c'],1,left,['0'],6,375,[0.17889155],100,53,easy,plus,dotcolour,alfa,,,86,27,M,R,
16,16,16,0,0,36,44,1166,['c'],0,right,['8'],4,539,[0.07079935],97,44,hard,plus,dotcolour,alfa,,,86,27,M,R,
17,17,17,0,0,47,33,666,['c'],1,left,['0'],6,355,[0.23929684],100,47,medium,plus,dotcolour,alfa,,,86,27,M,R,
18,18,18,0,0,53,27,696,['c'],1,left,['0'],6,451,[0.21839281],100,53,easy,plus,dotcolour,alfa,,,86,27,M,R,
19,19,19,0,0,44,36,865,['c'],1,left,['9'],5,367,[0.0777343],99,44,hard,plus,dotcolour,alfa,,,86,27,M,R,
20,20,20,0,0,44,36,866,['n'],0,left,['3'],3,919,[0.0799877],5,44,hard,plus,dotcolour,alfa,,,86,27,M,R,
21,21,21,0,0,53,27,615,['c'],1,left,['9'],5,435,[0.11625416],100,53,easy,plus,dotcolour,alfa,,,86,27,M,R,
22,22,22,0,0,27,53,683,['n'],1,right,['0'],6,638,[-0.09521345],99,53,easy,plus,dotcolour,alfa,,,86,27,M,R,
23,23,23,0,0,27,53,682,['n'],1,right,['0'],6,939,[-0.17376137],100,53,easy,plus,dotcolour,alfa,,,86,27,M,R,
24,24,24,0,0,53,27,581,['c'],1,left,['3'],3,815,[-0.02759751],25,53,easy,plus,dotcolour,alfa,,,86,27,M,R,
25,25,25,0,0,33,47,698,['n'],1,right,['9'],5,387,[-0.00424029],56,47,medium,plus,dotcolour,alfa,,,86,27,M,R,
26,26,26,0,0,47,33,682,['c'],1,left,['9'],5,601,[0.27725983],100,47,medium,plus,dotcolour,alfa,,,86,27,M,R,
27,27,27,0,0,36,44,732,['c'],0,right,['9'],5,349,[0.13112265],100,44,hard,plus,dotcolour,alfa,,,86,27,M,R,
28,28,28,0,0,44,36,616,['c'],1,left,['9'],5,440,[0.15604643],100,44,hard,plus,dotcolour,alfa,,,86,27,M,R,
29,29,29,0,0,53,27,498,['c'],1,left,['0'],6,315,[0.18652768],100,53,easy,plus,dotcolour,alfa,,,86,27,M,R,
30,30,30,0,0,36,44,983,['n'],1,right,['0'],6,553,[-0.08454305],98,44,hard,plus,dotcolour,alfa,,,86,27,M,R,
31,31,31,0,0,36,44,1049,['n'],1,right,['9'],5,386,[-0.004834],57,44,hard,plus,dotcolour,alfa,,,86,27,M,R,
32,32,32,0,0,47,33,599,['c'],1,left,['9'],5,371,[0.10900112],100,47,medium,plus,dotcolour,alfa,,,86,27,M,R,
33,33,33,0,0,27,53,780,['n'],1,right,['0'],6,567,[-0.12608048],100,53,easy,plus,dotcolour,alfa,,,86,27,M,R,
34,34,34,0,0,27,53,748,['n'],1,right,['9'],5,348,[-0.09143852],100,53,easy,plus,dotcolour,alfa,,,86,27,M,R,
35,35,35,0,0,33,47,898,['c'],0,right,['1'],1,2507,[-0.22594708],1,47,medium,plus,dotcolour,alfa,,,86,27,M,R,
36,36,36,0,0,27,53,565,['n'],1,right,['9'],5,328,[-0.06879111],99,53,easy,plus,dotcolour,alfa,,,86,27,M,R,
37,37,37,0,0,44,36,1766,['c'],1,left,['9'],5,334,[0.04323972],94,44,hard,plus,dotcolour,alfa,,,86,27,M,R,
38,38,38,0,0,47,33,615,['c'],1,left,['0'],6,321,[0.11968543],100,47,medium,plus,dotcolour,alfa,,,86,27,M,R,
39,39,39,0,0,47,33,748,['c'],1,left,['9'],5,583,[0.1041759],99,47,medium,plus,dotcolour,alfa,,,86,27,M,R,
40,40,40,0,0,36,44,815,['c'],0,right,['9'],5,320,[-0.01904327],23,44,hard,plus,dotcolour,alfa,,,86,27,M,R,
41,41,41,0,0,44,36,1298,['c'],1,left,['9'],5,281,[0.14865625],100,44,hard,plus,dotcolour,alfa,,,86,27,M,R,
42,42,0,1,0,33,47,733,['n'],1,right,['9'],5,560,[-0.13164995],100,47,medium,plus,dotcolour,alfa,,,86,27,M,R,
43,43,1,1,0,36,44,1350,['n'],1,right,['9'],5,357,[-0.08021209],99,44,hard,plus,dotcolour,alfa,,,86,27,M,R,
44,44,2,1,0,44,36,650,['c'],1,left,['9'],5,397,[0.06993487],98,44,hard,plus,dotcolour,alfa,,,86,27,M,R,
45,45,3,1,0,47,33,864,['c'],1,left,['8'],4,459,[0.15872797],100,47,medium,plus,dotcolour,alfa,,,86,27,M,R,
46,46,4,1,0,53,27,549,['c'],1,left,['9'],5,308,[0.01464734],72,53,easy,plus,dotcolour,alfa,,,86,27,M,R,
47,47,5,1,0,53,27,465,['c'],1,left,['9'],5,566,[0.18485183],100,53,easy,plus,dotcolour,alfa,,,86,27,M,R,
48,48,6,1,0,53,27,497,['c'],1,left,['9'],5,429,[0.18738949],100,53,easy,plus,dotcolour,alfa,,,86,27,M,R,
49,49,7,1,0,33,47,465,['c'],0,right,['9'],5,362,[0.05612687],97,47,medium,plus,dotcolour,alfa,,,86,27,M,R,
50,50,8,1,0,53,27,465,['c'],1,left,['9'],5,466,[0.08444466],99,53,easy,plus,dotcolour,alfa,,,86,27,M,R,
51,51,9,1,0,47,33,999,['c'],1,left,['9'],5,201,[0.07646811],100,47,medium,plus,dotcolour,alfa,,,86,27,M,R,
52,52,10,1,0,44,36,866,['c'],1,left,['9'],5,488,[0.20625778],100,44,hard,plus,dotcolour,alfa,,,86,27,M,R,
53,53,11,1,0,36,44,482,['c'],0,right,['9'],5,386,[-0.07819124],1,44,hard,plus,dotcolour,alfa,,,86,27,M,R,
54,54,12,1,0,33,47,615,['n'],1,right,['9'],5,491,[-0.07759335],98,47,medium,plus,dotcolour,alfa,,,86,27,M,R,
55,55,13,1,0,53,27,597,['c'],1,left,['0'],6,848,[0.17729068],100,53,easy,plus,dotcolour,alfa,,,86,27,M,R,
56,56,14,1,0,53,27,565,['c'],1,left,['0'],6,313,[0.2768823],100,53,easy,plus,dotcolour,alfa,,,86,27,M,R,
57,57,15,1,0,33,47,615,['n'],1,right,['9'],5,325,[-0.08332823],99,47,medium,plus,dotcolour,alfa,,,86,27,M,R,
58,58,16,1,0,44,36,698,['c'],1,left,['9'],5,277,[0.07286287],99,44,hard,plus,dotcolour,alfa,,,86,27,M,R,
59,59,17,1,0,44,36,499,['c'],1,left,['0'],6,327,[0.0898629],100,44,hard,plus,dotcolour,alfa,,,86,27,M,R,
60,60,18,1,0,47,33,614,['n'],0,left,['9'],5,362,[-0.1673977],100,47,medium,plus,dotcolour,alfa,,,86,27,M,R,
61,61,19,1,0,27,53,566,['n'],1,right,['0'],6,350,[-0.25031147],100,53,easy,plus,dotcolour,alfa,,,86,27,M,R,
62,62,20,1,0,53,27,648,['c'],1,left,['0'],6,280,[0.0921369],100,53,easy,plus,dotcolour,alfa,,,86,27,M,R,
63,63,21,1,0,27,53,496,['n'],1,right,['0'],6,338,[-0.16344241],100,53,easy,plus,dotcolour,alfa,,,86,27,M,R,
64,64,22,1,0,47,33,615,['c'],1,left,['0'],6,228,[0.08602922],100,47,medium,plus,dotcolour,alfa,,,86,27,M,R,
65,65,23,1,0,27,53,515,['n'],1,right,['0'],6,272,[-0.08522882],100,53,easy,plus,dotcolour,alfa,,,86,27,M,R,
66,66,24,1,0,27,53,482,['n'],1,right,['0'],6,299,[-0.13415949],100,53,easy,plus,dotcolour,alfa,,,86,27,M,R,
67,67,25,1,0,36,44,683,['n'],1,right,['9'],5,485,[-0.05145613],93,44,hard,plus,dotcolour,alfa,,,86,27,M,R,
68,68,26,1,0,47,33,615,['c'],1,left,['0'],6,225,[0.11083034],100,47,medium,plus,dotcolour,alfa,,,86,27,M,R,
69,69,27,1,0,36,44,881,['n'],1,right,['9'],5,294,[-0.08488762],100,44,hard,plus,dotcolour,alfa,,,86,27,M,R,
70,70,28,1,0,36,44,514,['n'],1,right,['9'],5,319,[-0.07681829],99,44,hard,plus,dotcolour,alfa,,,86,27,M,R,
71,71,29,1,0,47,33,581,['c'],1,left,['9'],5,284,[0.1551805],100,47,medium,plus,dotcolour,alfa,,,86,27,M,R,
72,72,30,1,0,44,36,647,['c'],1,left,['0'],6,424,[0.11001251],100,44,hard,plus,dotcolour,alfa,,,86,27,M,R,
73,73,31,1,0,33,47,582,['n'],1,right,['0'],6,377,[-0.13060989],100,47,medium,plus,dotcolour,alfa,,,86,27,M,R,
74,74,32,1,0,33,47,699,['n'],1,right,['0'],6,447,[-0.1945888],100,47,medium,plus,dotcolour,alfa,,,86,27,M,R,
75,75,33,1,0,44,36,598,['c'],1,left,['0'],6,238,[0.14350404],100,44,hard,plus,dotcolour,alfa,,,86,27,M,R,
76,76,34,1,0,33,47,581,['n'],1,right,['9'],5,343,[-0.14278424],100,47,medium,plus,dotcolour,alfa,,,86,27,M,R,
77,77,35,1,0,44,36,614,['c'],1,left,['9'],5,305,[0.09787766],100,44,hard,plus,dotcolour,alfa,,,86,27,M,R,
78,78,36,1,0,27,53,649,['n'],1,right,['0'],6,349,[-0.08888113],100,53,easy,plus,dotcolour,alfa,,,86,27,M,R,
79,79,37,1,0,36,44,1249,['c'],0,right,['8'],4,301,[0.06226058],98,44,hard,plus,dotcolour,alfa,,,86,27,M,R,
80,80,38,1,0,47,33,914,['c'],1,left,['0'],6,334,[0.04498867],94,47,medium,plus,dotcolour,alfa,,,86,27,M,R,
81,81,39,1,0,27,53,517,['n'],1,right,['0'],6,325,[-0.16701652],100,53,easy,plus,dotcolour,alfa,,,86,27,M,R,
82,82,40,1,0,36,44,717,['n'],1,right,['0'],6,380,[-0.1781781],100,44,hard,plus,dotcolour,alfa,,,86,27,M,R,
83,83,41,1,0,27,53,648,['n'],1,right,['9'],5,660,[-0.15357397],100,53,easy,plus,dotcolour,alfa,,,86,27,M,R,
84,84,0,2,0,27,53,1166,['n'],1,right,['9'],5,675,[-0.18193044],100,53,easy,plus,dotcolour,alfa,,,86,27,M,R,
85,85,1,2,0,33,47,831,['n'],1,right,['9'],5,391,[-0.08112576],99,47,medium,plus,dotcolour,alfa,,,86,27,M,R,
86,86,2,2,0,36,44,530,['n'],1,right,['0'],6,355,[-0.14658994],100,44,hard,plus,dotcolour,alfa,,,86,27,M,R,
87,87,3,2,0,47,33,832,['c'],1,left,['9'],5,325,[0.0506278],96,47,medium,plus,dotcolour,alfa,,,86,27,M,R,
88,88,4,2,0,44,36,647,['n'],0,left,['9'],5,559,[0.06898641],3,44,hard,plus,dotcolour,alfa,,,86,27,M,R,
89,89,5,2,0,36,44,665,['n'],1,right,['9'],5,230,[-0.03304835],92,44,hard,plus,dotcolour,alfa,,,86,27,M,R,
90,90,6,2,0,53,27,583,['c'],1,left,['0'],6,391,[0.22639503],100,53,easy,plus,dotcolour,alfa,,,86,27,M,R,
91,91,7,2,0,47,33,1032,['c'],1,left,['0'],6,351,[0.13181061],100,47,medium,plus,dotcolour,alfa,,,86,27,M,R,
92,92,8,2,0,47,33,683,['c'],1,left,['9'],5,247,[0.15630476],100,47,medium,plus,dotcolour,alfa,,,86,27,M,R,
93,93,9,2,0,53,27,501,['c'],1,left,['0'],6,290,[0.14603065],100,53,easy,plus,dotcolour,alfa,,,86,27,M,R,
94,94,10,2,0,36,44,814,['n'],1,right,['9'],5,383,[-0.12905047],100,44,hard,plus,dotcolour,alfa,,,86,27,M,R,
95,95,11,2,0,36,44,830,['n'],1,right,['9'],5,327,[-0.09945615],100,44,hard,plus,dotcolour,alfa,,,86,27,M,R,
96,96,12,2,0,33,47,682,['n'],1,right,['0'],6,424,[-0.12681482],100,47,medium,plus,dotcolour,alfa,,,86,27,M,R,
97,97,13,2,0,53,27,564,['n'],0,left,['2'],2,2513,[0.34542499],0,53,easy,plus,dotcolour,alfa,,,86,27,M,R,
98,98,14,2,0,27,53,866,['n'],1,right,['0'],6,507,[-0.30635648],100,53,easy,plus,dotcolour,alfa,,,86,27,M,R,
99,99,15,2,0,36,44,1033,['c'],0,right,['9'],5,446,[0.07325273],98,44,hard,plus,dotcolour,alfa,,,86,27,M,R,
100,100,16,2,0,33,47,648,['n'],1,right,['0'],6,299,[-0.02527316],84,47,medium,plus,dotcolour,alfa,,,86,27,M,R,
101,101,17,2,0,33,47,580,['n'],1,right,['9'],5,361,[-0.09145876],100,47,medium,plus,dotcolour,alfa,,,86,27,M,R,
102,102,18,2,0,44,36,899,['n'],0,left,['9'],5,296,[-0.03576099],91,44,hard,plus,dotcolour,alfa,,,86,27,M,R,
103,103,19,2,0,27,53,515,['n'],1,right,['9'],5,344,[-0.12146151],100,53,easy,plus,dotcolour,alfa,,,86,27,M,R,
104,104,20,2,0,27,53,617,['n'],1,right,['0'],6,347,[-0.04271474],93,53,easy,plus,dotcolour,alfa,,,86,27,M,R,
105,105,21,2,0,53,27,781,['c'],1,left,['0'],6,288,[0.11356141],100,53,easy,plus,dotcolour,alfa,,,86,27,M,R,
106,106,22,2,0,53,27,466,['c'],1,left,['9'],5,362,[0.05120139],96,53,easy,plus,dotcolour,alfa,,,86,27,M,R,
107,107,23,2,0,53,27,764,['c'],1,left,['0'],6,254,[0.14453001],100,53,easy,plus,dotcolour,alfa,,,86,27,M,R,
108,108,24,2,0,47,33,716,['c'],1,left,['0'],6,408,[0.07667836],99,47,medium,plus,dotcolour,alfa,,,86,27,M,R,
109,109,25,2,0,36,44,682,['c'],0,right,['0'],6,390,[0.01644688],72,44,hard,plus,dotcolour,alfa,,,86,27,M,R,
110,110,26,2,0,47,33,729,['c'],1,left,['9'],5,385,[0.06991613],98,47,medium,plus,dotcolour,alfa,,,86,27,M,R,
111,111,27,2,0,27,53,932,['n'],1,right,['0'],6,766,[0.11370534],1,53,easy,plus,dotcolour,alfa,,,86,27,M,R,
112,112,28,2,0,44,36,764,['c'],1,left,['9'],5,322,[-0.01074756],34,44,hard,plus,dotcolour,alfa,,,86,27,M,R,
113,113,29,2,0,44,36,697,['c'],1,left,['9'],5,331,[0.05984054],98,44,hard,plus,dotcolour,alfa,,,86,27,M,R,
114,114,30,2,0,33,47,833,['n'],1,right,['9'],5,397,[-0.11969073],100,47,medium,plus,dotcolour,alfa,,,86,27,M,R,
115,115,31,2,0,53,27,548,['c'],1,left,['0'],6,465,[0.20003458],100,53,easy,plus,dotcolour,alfa,,,86,27,M,R,
116,116,32,2,0,36,44,749,['n'],1,right,['9'],5,321,[-0.15014604],100,44,hard,plus,dotcolour,alfa,,,86,27,M,R,
117,117,33,2,0,44,36,517,['c'],1,left,['0'],6,273,[0.08528293],100,44,hard,plus,dotcolour,alfa,,,86,27,M,R,
118,118,34,2,0,44,36,600,['c'],1,left,['0'],6,351,[0.04339994],93,44,hard,plus,dotcolour,alfa,,,86,27,M,R,
119,119,35,2,0,27,53,581,['n'],1,right,['0'],6,315,[0.00849341],37,53,easy,plus,dotcolour,alfa,,,86,27,M,R,
120,120,36,2,0,33,47,681,['n'],1,right,['0'],6,332,[-0.05513902],97,47,medium,plus,dotcolour,alfa,,,86,27,M,R,
121,121,37,2,0,44,36,632,['c'],1,left,['0'],6,351,[0.10943712],100,44,hard,plus,dotcolour,alfa,,,86,27,M,R,
122,122,38,2,0,47,33,515,['c'],1,left,['0'],6,245,[0.1849865],100,47,medium,plus,dotcolour,alfa,,,86,27,M,R,
123,123,39,2,0,47,33,932,['n'],0,left,['9'],5,552,[0.15451233],0,47,medium,plus,dotcolour,alfa,,,86,27,M,R,
124,124,40,2,0,33,47,866,['n'],1,right,['9'],5,359,[-0.04380938],93,47,medium,plus,dotcolour,alfa,,,86,27,M,R,
125,125,41,2,0,27,53,582,['n'],1,right,['0'],6,379,[-0.15605718],100,53,easy,plus,dotcolour,alfa,,,86,27,M,R,
126,0,0,3,1,36,44,733,['c'],0,right,['9'],5,567,[-0.01073321],47,44,hard,minus,dotcolour,alfa,,,86,27,M,R,
127,1,1,3,1,36,44,897,['n'],1,right,['9'],5,349,[-0.07106579],75,44,hard,minus,dotcolour,alfa,,,86,27,M,R,
128,2,2,3,1,53,27,751,['c'],1,left,['0'],6,523,[0.02832623],59,53,easy,minus,dotcolour,alfa,,,86,27,M,R,
129,3,3,3,1,47,33,667,['c'],1,left,['0'],6,364,[0.12202723],86,47,medium,minus,dotcolour,alfa,,,86,27,M,R,
130,4,4,3,1,33,47,699,['n'],1,right,['9'],5,363,[-0.18680666],94,47,medium,minus,dotcolour,alfa,,,86,27,M,R,
131,5,5,3,1,44,36,632,['n'],0,left,['9'],5,268,[-0.00767398],53,44,hard,minus,dotcolour,alfa,,,86,27,M,R,
132,6,6,3,1,36,44,1097,['c'],0,right,['9'],5,359,[0.04473076],66,44,hard,minus,dotcolour,alfa,,,86,27,M,R,
133,7,7,3,1,47,33,630,['c'],1,left,['0'],6,344,[0.05691969],71,47,medium,minus,dotcolour,alfa,,,86,27,M,R,
134,8,8,3,1,27,53,915,['n'],1,right,['0'],6,319,[-0.12642338],88,53,easy,minus,dotcolour,alfa,,,86,27,M,R,
135,9,9,3,1,33,47,783,['c'],0,right,['1'],1,2068,[-0.0285112],46,47,medium,minus,dotcolour,alfa,,,86,27,M,R,
136,10,10,3,1,44,36,714,['c'],1,left,['0'],6,357,[0.04102953],65,44,hard,minus,dotcolour,alfa,,,86,27,M,R,
137,11,11,3,1,33,47,565,['n'],1,right,['0'],6,369,[-0.10245938],82,47,medium,minus,dotcolour,alfa,,,86,27,M,R,
138,12,12,3,1,53,27,548,['c'],1,left,['0'],6,238,[0.06931898],78,53,easy,minus,dotcolour,alfa,,,86,27,M,R,
139,13,13,3,1,36,44,966,['n'],1,right,['0'],6,358,[-0.12862894],87,44,hard,minus,dotcolour,alfa,,,86,27,M,R,
140,14,14,3,1,27,53,484,['n'],1,right,['0'],6,294,[-0.14553086],92,53,easy,minus,dotcolour,alfa,,,86,27,M,R,
141,15,15,3,1,44,36,550,['c'],1,left,['0'],6,245,[0.13856613],93,44,hard,minus,dotcolour,alfa,,,86,27,M,R,
142,16,16,3,1,33,47,532,['n'],1,right,['0'],6,375,[-0.10149302],82,47,medium,minus,dotcolour,alfa,,,86,27,M,R,
143,17,17,3,1,36,44,549,['c'],0,right,['0'],6,259,[0.01183901],55,44,hard,minus,dotcolour,alfa,,,86,27,M,R,
144,18,18,3,1,33,47,482,['c'],0,right,['1'],1,814,[0.15557603],83,47,medium,minus,dotcolour,alfa,,,86,27,M,R,
145,19,19,3,1,27,53,598,['n'],1,right,['0'],6,206,[-0.07037359],80,53,easy,minus,dotcolour,alfa,,,86,27,M,R,
146,20,20,3,1,47,33,466,['c'],1,left,['0'],6,268,[0.02411907],60,47,medium,minus,dotcolour,alfa,,,86,27,M,R,
147,21,21,3,1,53,27,532,['c'],1,left,['0'],6,206,[0.00705541],53,53,easy,minus,dotcolour,alfa,,,86,27,M,R,
148,22,22,3,1,36,44,498,['c'],0,right,['0'],6,226,[0.02080537],60,44,hard,minus,dotcolour,alfa,,,86,27,M,R,
149,23,23,3,1,53,27,449,['c'],1,left,['0'],6,240,[0.13426173],92,53,easy,minus,dotcolour,alfa,,,86,27,M,R,
150,24,24,3,1,47,33,432,['c'],1,left,['0'],6,214,[0.00156077],51,47,medium,minus,dotcolour,alfa,,,86,27,M,R,
151,25,25,3,1,47,33,665,['c'],1,left,['0'],6,197,[0.0523075],74,47,medium,minus,dotcolour,alfa,,,86,27,M,R,
152,26,26,3,1,27,53,564,['n'],1,right,['0'],6,287,[-0.07523347],78,53,easy,minus,dotcolour,alfa,,,86,27,M,R,
153,27,27,3,1,27,53,582,['n'],1,right,['0'],6,238,[-0.12340775],91,53,easy,minus,dotcolour,alfa,,,86,27,M,R,
154,28,28,3,1,44,36,1066,['n'],0,left,['9'],5,412,[-0.17449466],92,44,hard,minus,dotcolour,alfa,,,86,27,M,R,
155,29,29,3,1,33,47,1216,['n'],1,right,['9'],5,291,[-0.02394957],60,47,medium,minus,dotcolour,alfa,,,86,27,M,R,
156,30,30,3,1,27,53,515,['n'],1,right,['9'],5,284,[-0.08959182],82,53,easy,minus,dotcolour,alfa,,,86,27,M,R,
157,31,31,3,1,36,44,716,['n'],1,right,['0'],6,285,[-0.11070169],87,44,hard,minus,dotcolour,alfa,,,86,27,M,R,
158,32,32,3,1,44,36,665,['n'],0,left,['8'],4,1257,[-0.13839492],75,44,hard,minus,dotcolour,alfa,,,86,27,M,R,
159,33,33,3,1,27,53,932,['n'],1,right,['0'],6,258,[-0.14651502],93,53,easy,minus,dotcolour,alfa,,,86,27,M,R,
160,34,34,3,1,44,36,766,['n'],0,left,['9'],5,378,[-0.05239983],68,44,hard,minus,dotcolour,alfa,,,86,27,M,R,
161,35,35,3,1,53,27,482,['c'],1,left,['3'],3,705,[0.10957234],76,53,easy,minus,dotcolour,alfa,,,86,27,M,R,
162,36,36,3,1,47,33,682,['c'],1,left,['0'],6,978,[0.11740431],74,47,medium,minus,dotcolour,alfa,,,86,27,M,R,
163,37,37,3,1,44,36,731,['n'],0,left,['9'],5,246,[-0.07324851],79,44,hard,minus,dotcolour,alfa,,,86,27,M,R,
164,38,38,3,1,33,47,482,['n'],1,right,['9'],5,339,[-0.09319502],81,47,medium,minus,dotcolour,alfa,,,86,27,M,R,
165,39,39,3,1,53,27,633,['n'],0,left,['1'],1,1381,[0.10259718],31,53,easy,minus,dotcolour,alfa,,,86,27,M,R,
166,40,40,3,1,47,33,1115,['c'],1,left,['0'],6,513,[0.16038824],88,47,medium,minus,dotcolour,alfa,,,86,27,M,R,
167,41,41,3,1,53,27,515,['c'],1,left,['0'],6,513,[0.10493289],79,53,easy,minus,dotcolour,alfa,,,86,27,M,R,
168,42,0,4,1,33,47,833,['c'],0,right,['9'],5,403,[0.11324773],83,47,medium,minus,dotcolour,alfa,,,86,27,M,R,
169,43,1,4,1,36,44,599,['n'],1,right,['0'],6,325,[-0.11120768],85,44,hard,minus,dotcolour,alfa,,,86,27,M,R,
170,44,2,4,1,27,53,497,['n'],1,right,['9'],5,229,[-0.07636907],81,53,easy,minus,dotcolour,alfa,,,86,27,M,R,
171,45,3,4,1,33,47,515,['n'],1,right,['0'],6,424,[-0.02816311],60,47,medium,minus,dotcolour,alfa,,,86,27,M,R,
172,46,4,4,1,47,33,648,['c'],1,left,['9'],5,214,[0.06734995],79,47,medium,minus,dotcolour,alfa,,,86,27,M,R,
173,47,5,4,1,27,53,448,['n'],1,right,['0'],6,253,[-0.12999242],91,53,easy,minus,dotcolour,alfa,,,86,27,M,R,
174,48,6,4,1,33,47,631,['n'],1,right,['0'],6,355,[-0.00272782],51,47,medium,minus,dotcolour,alfa,,,86,27,M,R,
175,49,7,4,1,47,33,714,['c'],1,left,['9'],5,360,[0.08492829],78,47,medium,minus,dotcolour,alfa,,,86,27,M,R,
176,50,8,4,1,53,27,698,['c'],1,left,['9'],5,319,[0.08486376],79,53,easy,minus,dotcolour,alfa,,,86,27,M,R,
177,51,9,4,1,47,33,599,['c'],1,left,['9'],5,180,[-0.00540702],47,47,medium,minus,dotcolour,alfa,,,86,27,M,R,
178,52,10,4,1,53,27,463,['c'],1,left,['9'],5,274,[0.17575898],95,53,easy,minus,dotcolour,alfa,,,86,27,M,R,
179,53,11,4,1,36,44,784,['n'],1,right,['9'],5,265,[-0.15078113],93,44,hard,minus,dotcolour,alfa,,,86,27,M,R,
180,54,12,4,1,36,44,515,['n'],1,right,['0'],6,275,[-0.19274412],96,44,hard,minus,dotcolour,alfa,,,86,27,M,R,
181,55,13,4,1,27,53,465,['n'],1,right,['0'],6,271,[-0.20630157],97,53,easy,minus,dotcolour,alfa,,,86,27,M,R,
182,56,14,4,1,33,47,532,['n'],1,right,['9'],5,208,[-0.08788422],85,47,medium,minus,dotcolour,alfa,,,86,27,M,R,
183,57,15,4,1,47,33,517,['n'],0,left,['1'],1,820,[0.09518301],28,47,medium,minus,dotcolour,alfa,,,86,27,M,R,
184,58,16,4,1,27,53,599,['n'],1,right,['9'],5,388,[-0.11408378],84,53,easy,minus,dotcolour,alfa,,,86,27,M,R,
185,59,17,4,1,44,36,798,['c'],1,left,['9'],5,542,[0.1987969],92,44,hard,minus,dotcolour,alfa,,,86,27,M,R,
186,60,18,4,1,47,33,448,['c'],1,left,['9'],5,231,[0.08777014],84,47,medium,minus,dotcolour,alfa,,,86,27,M,R,
187,61,19,4,1,33,47,649,['n'],1,right,['9'],5,245,[-0.13528735],92,47,medium,minus,dotcolour,alfa,,,86,27,M,R,
188,62,20,4,1,33,47,699,['c'],0,right,['9'],5,368,[0.03822386],64,47,medium,minus,dotcolour,alfa,,,86,27,M,R,
189,63,21,4,1,47,33,749,['n'],0,left,['1'],1,1260,[0.01176216],48,47,medium,minus,dotcolour,alfa,,,86,27,M,R,
190,64,22,4,1,53,27,567,['c'],1,left,['9'],5,268,[0.12620242],90,53,easy,minus,dotcolour,alfa,,,86,27,M,R,
191,65,23,4,1,36,44,765,['c'],0,right,['9'],5,203,[-0.00570382],47,44,hard,minus,dotcolour,alfa,,,86,27,M,R,
192,66,24,4,1,44,36,782,['c'],1,left,['9'],5,262,[0.14187838],92,44,hard,minus,dotcolour,alfa,,,86,27,M,R,
193,67,25,4,1,53,27,515,['c'],1,left,['9'],5,216,[0.14520728],94,53,easy,minus,dotcolour,alfa,,,86,27,M,R,
194,68,26,4,1,44,36,681,['c'],1,left,['9'],5,197,[0.0588892],77,44,hard,minus,dotcolour,alfa,,,86,27,M,R,
195,69,27,4,1,27,53,664,['n'],1,right,['9'],5,228,[-0.08714529],84,53,easy,minus,dotcolour,alfa,,,86,27,M,R,
196,70,28,4,1,47,33,581,['c'],1,left,['9'],5,220,[0.10116788],87,47,medium,minus,dotcolour,alfa,,,86,27,M,R,
197,71,29,4,1,36,44,764,['c'],0,right,['9'],5,206,[-0.05327218],26,44,hard,minus,dotcolour,alfa,,,86,27,M,R,
198,72,30,4,1,44,36,499,['c'],1,left,['9'],5,324,[0.07505457],77,44,hard,minus,dotcolour,alfa,,,86,27,M,R,
199,73,31,4,1,36,44,1166,['c'],0,right,['8'],4,560,[-0.03879129],39,44,hard,minus,dotcolour,alfa,,,86,27,M,R,
200,74,32,4,1,27,53,748,['n'],1,right,['9'],5,373,[-0.09006671],79,53,easy,minus,dotcolour,alfa,,,86,27,M,R,
201,75,33,4,1,44,36,732,['c'],1,left,['2'],2,385,[0.10275543],82,44,hard,minus,dotcolour,alfa,,,86,27,M,R,
202,76,34,4,1,36,44,1231,['n'],1,right,['8'],4,411,[-0.07484718],74,44,hard,minus,dotcolour,alfa,,,86,27,M,R,
203,77,35,4,1,53,27,633,['c'],1,left,['9'],5,538,[0.12492405],82,53,easy,minus,dotcolour,alfa,,,86,27,M,R,
204,78,36,4,1,44,36,914,['n'],0,left,['9'],5,297,[-0.11904387],88,44,hard,minus,dotcolour,alfa,,,86,27,M,R,
205,79,37,4,1,53,27,582,['c'],1,left,['9'],5,230,[0.1494463],94,53,easy,minus,dotcolour,alfa,,,86,27,M,R,
206,80,38,4,1,27,53,664,['n'],1,right,['9'],5,284,[-0.11848641],88,53,easy,minus,dotcolour,alfa,,,86,27,M,R,
207,81,39,4,1,53,27,582,['c'],1,left,['9'],5,635,[0.28443794],96,53,easy,minus,dotcolour,alfa,,,86,27,M,R,
208,82,40,4,1,44,36,481,['c'],1,left,['9'],5,286,[0.02799233],62,44,hard,minus,dotcolour,alfa,,,86,27,M,R,
209,83,41,4,1,33,47,815,['n'],1,right,['9'],5,365,[-0.07797438],76,47,medium,minus,dotcolour,alfa,,,86,27,M,R,
210,84,0,5,1,53,27,8433,['n'],0,left,['9'],5,410,[-0.06106561],70,53,easy,minus,dotcolour,alfa,,,86,27,M,R,
211,85,1,5,1,27,53,616,['c'],0,right,['9'],5,202,[0.0077527],54,53,easy,minus,dotcolour,alfa,,,86,27,M,R,
212,86,2,5,1,44,36,766,['c'],1,left,['9'],5,140,[0.00063021],50,44,hard,minus,dotcolour,alfa,,,86,27,M,R,
213,87,3,5,1,33,47,1031,['n'],1,right,['9'],5,263,[-0.02171854],59,47,medium,minus,dotcolour,alfa,,,86,27,M,R,
214,88,4,5,1,36,44,649,['n'],1,right,['9'],5,187,[-0.09013806],87,44,hard,minus,dotcolour,alfa,,,86,27,M,R,
215,89,5,5,1,47,33,565,['c'],1,left,['9'],5,190,[0.07914452],84,47,medium,minus,dotcolour,alfa,,,86,27,M,R,
216,90,6,5,1,47,33,480,['c'],1,left,['9'],5,133,[0.12577781],96,47,medium,minus,dotcolour,alfa,,,86,27,M,R,
217,91,7,5,1,33,47,998,['n'],1,right,['9'],5,193,[-0.04249956],70,47,medium,minus,dotcolour,alfa,,,86,27,M,R,
218,92,8,5,1,44,36,764,['c'],1,left,['8'],4,267,[0.00028397],50,44,hard,minus,dotcolour,alfa,,,86,27,M,R,
219,93,9,5,1,36,44,716,['n'],1,right,['8'],4,477,[-0.0608392],69,44,hard,minus,dotcolour,alfa,,,86,27,M,R,
220,94,10,5,1,27,53,864,['n'],1,right,['9'],5,288,[-0.07796879],79,53,easy,minus,dotcolour,alfa,,,86,27,M,R,
221,95,11,5,1,33,47,716,['n'],1,right,['9'],5,161,[-0.08028458],86,47,medium,minus,dotcolour,alfa,,,86,27,M,R,
222,96,12,5,1,47,33,1149,['n'],0,left,['9'],5,182,[-0.10176109],90,47,medium,minus,dotcolour,alfa,,,86,27,M,R,
223,97,13,5,1,33,47,915,['n'],1,right,['9'],5,243,[-0.11035434],88,47,medium,minus,dotcolour,alfa,,,86,27,M,R,
224,98,14,5,1,33,47,497,['n'],1,right,['9'],5,223,[-0.15337208],95,47,medium,minus,dotcolour,alfa,,,86,27,M,R,
225,99,15,5,1,36,44,833,['n'],1,right,['9'],5,198,[-0.14231738],95,44,hard,minus,dotcolour,alfa,,,86,27,M,R,
226,100,16,5,1,44,36,766,['c'],1,left,['9'],5,336,[0.19983595],96,44,hard,minus,dotcolour,alfa,,,86,27,M,R,
227,101,17,5,1,47,33,899,['c'],1,left,['9'],5,233,[0.12156441],91,47,medium,minus,dotcolour,alfa,,,86,27,M,R,
228,102,18,5,1,47,33,717,['c'],1,left,['9'],5,116,[0.05181696],80,47,medium,minus,dotcolour,alfa,,,86,27,M,R,
229,103,19,5,1,33,47,483,['n'],1,right,['9'],5,205,[-0.11417164],91,47,medium,minus,dotcolour,alfa,,,86,27,M,R,
230,104,20,5,1,47,33,697,['c'],1,left,['0'],6,642,[0.11715942],79,47,medium,minus,dotcolour,alfa,,,86,27,M,R,
231,105,21,5,1,36,44,732,['n'],1,right,['9'],5,204,[-0.05771453],76,44,hard,minus,dotcolour,alfa,,,86,27,M,R,
232,106,22,5,1,47,33,565,['c'],1,left,['9'],5,175,[0.11007019],91,47,medium,minus,dotcolour,alfa,,,86,27,M,R,
233,107,23,5,1,44,36,450,['c'],1,left,['0'],6,295,[0.01043681],54,44,hard,minus,dotcolour,alfa,,,86,27,M,R,
234,108,24,5,1,53,27,449,['c'],1,left,['0'],6,218,[0.11750033],91,53,easy,minus,dotcolour,alfa,,,86,27,M,R,
235,109,25,5,1,53,27,399,['c'],1,left,['0'],6,171,[0.14297576],96,53,easy,minus,dotcolour,alfa,,,86,27,M,R,
236,110,26,5,1,33,47,682,['n'],1,right,['0'],6,193,[-0.09201818],87,47,medium,minus,dotcolour,alfa,,,86,27,M,R,
237,111,27,5,1,27,53,550,['n'],1,right,['0'],6,269,[-0.01567971],57,53,easy,minus,dotcolour,alfa,,,86,27,M,R,
238,112,28,5,1,36,44,448,['c'],0,right,['9'],5,577,[0.11903615],80,44,hard,minus,dotcolour,alfa,,,86,27,M,R,
239,113,29,5,1,53,27,515,['c'],1,left,['9'],5,215,[0.03229681],65,53,easy,minus,dotcolour,alfa,,,86,27,M,R,
240,114,30,5,1,27,53,733,['n'],1,right,['0'],6,290,[-0.09892906],84,53,easy,minus,dotcolour,alfa,,,86,27,M,R,
241,115,31,5,1,36,44,781,['n'],1,right,['0'],6,376,[-0.22586706],96,44,hard,minus,dotcolour,alfa,,,86,27,M,R,
242,116,32,5,1,44,36,682,['c'],1,left,['0'],6,159,[0.03426504],68,44,hard,minus,dotcolour,alfa,,,86,27,M,R,
243,117,33,5,1,36,44,881,['n'],1,right,['9'],5,446,[-0.05530381],68,44,hard,minus,dotcolour,alfa,,,86,27,M,R,
244,118,34,5,1,27,53,532,['n'],1,right,['9'],5,216,[-0.09746201],87,53,easy,minus,dotcolour,alfa,,,86,27,M,R,
245,119,35,5,1,53,27,566,['c'],1,left,['0'],6,186,[0.09610474],88,53,easy,minus,dotcolour,alfa,,,86,27,M,R,
246,120,36,5,1,44,36,500,['c'],1,left,['0'],6,144,[0.05985951],81,44,hard,minus,dotcolour,alfa,,,86,27,M,R,
247,121,37,5,1,53,27,465,['c'],1,left,['0'],6,192,[0.07815863],83,53,easy,minus,dotcolour,alfa,,,86,27,M,R,
248,122,38,5,1,27,53,498,['n'],1,right,['0'],6,214,[-0.1156566],90,53,easy,minus,dotcolour,alfa,,,86,27,M,R,
249,123,39,5,1,44,36,398,['c'],1,left,['0'],6,190,[0.1293909],94,44,hard,minus,dotcolour,alfa,,,86,27,M,R,
250,124,40,5,1,53,27,400,['c'],1,left,['0'],6,184,[0.11160911],91,53,easy,minus,dotcolour,alfa,,,86,27,M,R,
251,125,41,5,1,27,53,547,['n'],1,right,['0'],6,291,[-0.08919574],82,53,easy,minus,dotcolour,alfa,,,86,27,M,R,
252,0,0,6,2,44,36,750,['c'],1,left,['0'],6,183,[0.05126177],99,44,hard,plus,dotcolour,alfa,,,86,27,M,R,
253,1,1,6,2,33,47,566,['n'],1,right,['9'],5,187,[-0.10301083],100,47,medium,plus,dotcolour,alfa,,,86,27,M,R,
254,2,2,6,2,47,33,449,['c'],1,left,['0'],6,267,[0.10859933],100,47,medium,plus,dotcolour,alfa,,,86,27,M,R,
255,3,3,6,2,27,53,466,['n'],1,right,['9'],5,255,[-0.27841676],100,53,easy,plus,dotcolour,alfa,,,86,27,M,R,
256,4,4,6,2,47,33,448,['c'],1,left,['9'],5,308,[0.11422749],100,47,medium,plus,dotcolour,alfa,,,86,27,M,R,
257,5,5,6,2,27,53,432,['c'],0,right,['1'],1,703,[0.07530353],96,53,easy,plus,dotcolour,alfa,,,86,27,M,R,
258,6,6,6,2,47,33,549,['c'],1,left,['0'],6,422,[-0.07384624],2,47,medium,plus,dotcolour,alfa,,,86,27,M,R,
259,7,7,6,2,53,27,431,['c'],1,left,['0'],6,196,[0.14965939],100,53,easy,plus,dotcolour,alfa,,,86,27,M,R,
260,8,8,6,2,36,44,815,['n'],1,right,['9'],5,277,[-0.14581976],100,44,hard,plus,dotcolour,alfa,,,86,27,M,R,
261,9,9,6,2,44,36,465,['c'],1,left,['9'],5,248,[0.1323771],100,44,hard,plus,dotcolour,alfa,,,86,27,M,R,
262,10,10,6,2,36,44,665,['n'],1,right,['9'],5,181,[-0.13390541],100,44,hard,plus,dotcolour,alfa,,,86,27,M,R,
263,11,11,6,2,53,27,582,['c'],1,left,['0'],6,208,[0.08290681],100,53,easy,plus,dotcolour,alfa,,,86,27,M,R,
264,12,12,6,2,47,33,532,['c'],1,left,['0'],6,107,[0.03907292],99,47,medium,plus,dotcolour,alfa,,,86,27,M,R,
265,13,13,6,2,27,53,949,['n'],1,right,['9'],5,258,[-0.18098668],100,53,easy,plus,dotcolour,alfa,,,86,27,M,R,
266,14,14,6,2,53,27,449,['c'],1,left,['0'],6,134,[0.07949186],100,53,easy,plus,dotcolour,alfa,,,86,27,M,R,
267,15,15,6,2,33,47,648,['n'],1,right,['9'],5,216,[-0.19427796],100,47,medium,plus,dotcolour,alfa,,,86,27,M,R,
268,16,16,6,2,47,33,599,['c'],1,left,['9'],5,192,[0.13020788],100,47,medium,plus,dotcolour,alfa,,,86,27,M,R,
269,17,17,6,2,44,36,766,['c'],1,left,['9'],5,203,[0.0900693],100,44,hard,plus,dotcolour,alfa,,,86,27,M,R,
270,18,18,6,2,33,47,698,['c'],0,right,['3'],3,191,[0.03410137],94,47,medium,plus,dotcolour,alfa,,,86,27,M,R,
271,19,19,6,2,33,47,599,['n'],1,right,['9'],5,201,[-0.07045186],100,47,medium,plus,dotcolour,alfa,,,86,27,M,R,
272,20,20,6,2,53,27,532,['c'],1,left,['9'],5,204,[0.03867304],96,53,easy,plus,dotcolour,alfa,,,86,27,M,R,
273,21,21,6,2,53,27,566,['c'],1,left,['0'],6,367,[0.10099715],100,53,easy,plus,dotcolour,alfa,,,86,27,M,R,
274,22,22,6,2,36,44,814,['n'],1,right,['9'],5,152,[-0.10104174],100,44,hard,plus,dotcolour,alfa,,,86,27,M,R,
275,23,23,6,2,44,36,715,['c'],1,left,['0'],6,207,[0.1330215],100,44,hard,plus,dotcolour,alfa,,,86,27,M,R,
276,24,24,6,2,33,47,564,['n'],1,right,['9'],5,226,[-0.08943951],100,47,medium,plus,dotcolour,alfa,,,86,27,M,R,
277,25,25,6,2,33,47,582,['n'],1,right,['9'],5,290,[-0.08396406],100,47,medium,plus,dotcolour,alfa,,,86,27,M,R,
278,26,26,6,2,27,53,449,['n'],1,right,['9'],5,334,[-0.12725652],100,53,easy,plus,dotcolour,alfa,,,86,27,M,R,
279,27,27,6,2,36,44,466,['n'],1,right,['0'],6,231,[-0.1363202],100,44,hard,plus,dotcolour,alfa,,,86,27,M,R,
280,28,28,6,2,44,36,515,['c'],1,left,['0'],6,186,[0.1119728],100,44,hard,plus,dotcolour,alfa,,,86,27,M,R,
281,29,29,6,2,44,36,581,['c'],1,left,['0'],6,140,[0.07216445],100,44,hard,plus,dotcolour,alfa,,,86,27,M,R,
282,30,30,6,2,33,47,565,['n'],1,right,['9'],5,225,[-0.11971973],100,47,medium,plus,dotcolour,alfa,,,86,27,M,R,
283,31,31,6,2,53,27,515,['c'],1,left,['0'],6,213,[0.10276855],100,53,easy,plus,dotcolour,alfa,,,86,27,M,R,
284,32,32,6,2,53,27,465,['c'],1,left,['9'],5,234,[0.08124297],100,53,easy,plus,dotcolour,alfa,,,86,27,M,R,
285,33,33,6,2,27,53,516,['n'],1,right,['9'],5,205,[-0.15868449],100,53,easy,plus,dotcolour,alfa,,,86,27,M,R,
286,34,34,6,2,36,44,448,['c'],0,right,['9'],5,221,[0.1098837],100,44,hard,plus,dotcolour,alfa,,,86,27,M,R,
287,35,35,6,2,27,53,449,['c'],0,right,['1'],1,1412,[-0.24274345],0,53,easy,plus,dotcolour,alfa,,,86,27,M,R,
288,36,36,6,2,36,44,699,['c'],0,right,['9'],5,209,[0.07429196],100,44,hard,plus,dotcolour,alfa,,,86,27,M,R,
289,37,37,6,2,47,33,515,['c'],1,left,['0'],6,428,[0.21095648],100,47,medium,plus,dotcolour,alfa,,,86,27,M,R,
290,38,38,6,2,27,53,565,['n'],1,right,['9'],5,181,[-0.07911665],100,53,easy,plus,dotcolour,alfa,,,86,27,M,R,
291,39,39,6,2,44,36,499,['c'],1,left,['0'],6,123,[0.06254005],100,44,hard,plus,dotcolour,alfa,,,86,27,M,R,
292,40,40,6,2,36,44,848,['c'],0,right,['9'],5,182,[-0.00561656],38,44,hard,plus,dotcolour,alfa,,,86,27,M,R,
293,41,41,6,2,47,33,432,['c'],1,left,['0'],6,526,[0.18717996],100,47,medium,plus,dotcolour,alfa,,,86,27,M,R,
294,42,0,7,2,44,36,866,['c'],1,left,['0'],6,275,[-0.00752915],37,44,hard,plus,dotcolour,alfa,,,86,27,M,R,
295,43,1,7,2,44,36,565,['c'],1,left,['9'],5,106,[0.07309352],100,44,hard,plus,dotcolour,alfa,,,86,27,M,R,
296,44,2,7,2,53,27,549,['c'],1,left,['9'],5,137,[0.12088315],100,53,easy,plus,dotcolour,alfa,,,86,27,M,R,
297,45,3,7,2,27,53,583,['n'],1,right,['9'],5,181,[-0.05279994],99,53,easy,plus,dotcolour,alfa,,,86,27,M,R,
298,46,4,7,2,53,27,433,['c'],1,left,['9'],5,133,[0.06007019],100,53,easy,plus,dotcolour,alfa,,,86,27,M,R,
299,47,5,7,2,53,27,397,['c'],1,left,['9'],5,113,[0.0460678],99,53,easy,plus,dotcolour,alfa,,,86,27,M,R,
300,48,6,7,2,36,44,413,['n'],1,right,['9'],5,237,[-0.06029732],99,44,hard,plus,dotcolour,alfa,,,86,27,M,R,
301,49,7,7,2,44,36,865,['c'],1,left,['9'],5,131,[0.1102102],100,44,hard,plus,dotcolour,alfa,,,86,27,M,R,
302,50,8,7,2,27,53,414,['c'],0,right,['1'],1,1190,[0.15250745],99,53,easy,plus,dotcolour,alfa,,,86,27,M,R,
303,51,9,7,2,27,53,465,['n'],1,right,['9'],5,213,[-0.13446393],100,53,easy,plus,dotcolour,alfa,,,86,27,M,R,
304,52,10,7,2,47,33,433,['c'],1,left,['9'],5,204,[0.08544278],100,47,medium,plus,dotcolour,alfa,,,86,27,M,R,
305,53,11,7,2,47,33,565,['c'],1,left,['8'],4,199,[0.16312035],100,47,medium,plus,dotcolour,alfa,,,86,27,M,R,
306,54,12,7,2,47,33,498,['c'],1,left,['9'],5,188,[0.11025492],100,47,medium,plus,dotcolour,alfa,,,86,27,M,R,
307,55,13,7,2,36,44,2449,['c'],0,right,['8'],4,1260,[-0.26190203],0,44,hard,plus,dotcolour,alfa,,,86,27,M,R,
308,56,14,7,2,47,33,481,['c'],1,left,['9'],5,199,[0.09136417],100,47,medium,plus,dotcolour,alfa,,,86,27,M,R,
309,57,15,7,2,33,47,1215,['c'],0,right,['1'],1,912,[0.16369306],100,47,medium,plus,dotcolour,alfa,,,86,27,M,R,
310,58,16,7,2,47,33,465,['c'],1,left,['9'],5,298,[0.17216169],100,47,medium,plus,dotcolour,alfa,,,86,27,M,R,
311,59,17,7,2,44,36,566,['c'],1,left,['9'],5,104,[0.09001601],100,44,hard,plus,dotcolour,alfa,,,86,27,M,R,
312,60,18,7,2,36,44,733,['n'],1,right,['9'],5,144,[-0.06084928],100,44,hard,plus,dotcolour,alfa,,,86,27,M,R,
313,61,19,7,2,53,27,499,['c'],1,left,['9'],5,71,[0.08626037],100,53,easy,plus,dotcolour,alfa,,,86,27,M,R,
314,62,20,7,2,27,53,533,['n'],1,right,['9'],5,128,[-0.1027721],100,53,easy,plus,dotcolour,alfa,,,86,27,M,R,
315,63,21,7,2,53,27,615,['c'],1,left,['9'],5,84,[0.09306867],100,53,easy,plus,dotcolour,alfa,,,86,27,M,R,
316,64,22,7,2,47,33,834,['c'],1,left,['9'],5,136,[0.08508346],100,47,medium,plus,dotcolour,alfa,,,86,27,M,R,
317,65,23,7,2,33,47,467,['n'],1,right,['8'],4,297,[-0.01199482],69,47,medium,plus,dotcolour,alfa,,,86,27,M,R,
318,66,24,7,2,33,47,800,['n'],1,right,['9'],5,173,[-0.08046181],100,47,medium,plus,dotcolour,alfa,,,86,27,M,R,
319,67,25,7,2,44,36,715,['c'],1,left,['9'],5,148,[0.09457895],100,44,hard,plus,dotcolour,alfa,,,86,27,M,R,
320,68,26,7,2,47,33,866,['c'],1,left,['9'],5,92,[0.12143924],100,47,medium,plus,dotcolour,alfa,,,86,27,M,R,
321,69,27,7,2,33,47,1181,['n'],1,right,['8'],4,338,[-0.02425225],82,47,medium,plus,dotcolour,alfa,,,86,27,M,R,
322,70,28,7,2,33,47,532,['n'],1,right,['9'],5,209,[-0.03727806],95,47,medium,plus,dotcolour,alfa,,,86,27,M,R,
323,71,29,7,2,33,47,866,['n'],1,right,['8'],4,375,[-0.17040954],100,47,medium,plus,dotcolour,alfa,,,86,27,M,R,
324,72,30,7,2,44,36,582,['c'],1,left,['9'],5,250,[0.10949807],100,44,hard,plus,dotcolour,alfa,,,86,27,M,R,
325,73,31,7,2,36,44,648,['n'],1,right,['9'],5,216,[-0.03670826],94,44,hard,plus,dotcolour,alfa,,,86,27,M,R,
326,74,32,7,2,53,27,530,['n'],0,left,['1'],1,762,[-0.07117624],95,53,easy,plus,dotcolour,alfa,,,86,27,M,R,
327,75,33,7,2,36,44,999,['n'],1,right,['9'],5,165,[-0.05123815],99,44,hard,plus,dotcolour,alfa,,,86,27,M,R,
328,76,34,7,2,36,44,649,['n'],1,right,['9'],5,238,[0.01974457],19,44,hard,plus,dotcolour,alfa,,,86,27,M,R,
329,77,35,7,2,44,36,782,['c'],1,left,['8'],4,334,[0.12277285],100,44,hard,plus,dotcolour,alfa,,,86,27,M,R,
330,78,36,7,2,27,53,465,['n'],1,right,['9'],5,296,[-0.02963702],88,53,easy,plus,dotcolour,alfa,,,86,27,M,R,
331,79,37,7,2,33,47,831,['n'],1,right,['9'],5,244,[-0.15926874],100,47,medium,plus,dotcolour,alfa,,,86,27,M,R,
332,80,38,7,2,53,27,597,['c'],1,left,['9'],5,163,[0.09777417],100,53,easy,plus,dotcolour,alfa,,,86,27,M,R,
333,81,39,7,2,27,53,514,['n'],1,right,['0'],6,281,[-0.0546484],98,53,easy,plus,dotcolour,alfa,,,86,27,M,R,
334,82,40,7,2,36,44,816,['c'],0,right,['9'],5,222,[-0.01955653],18,44,hard,plus,dotcolour,alfa,,,86,27,M,R,
335,83,41,7,2,27,53,532,['n'],1,right,['9'],5,233,[-0.08512724],100,53,easy,plus,dotcolour,alfa,,,86,27,M,R,
336,84,0,8,2,47,33,667,['c'],1,left,['9'],5,166,[0.07553973],100,47,medium,plus,dotcolour,alfa,,,86,27,M,R,
337,85,1,8,2,47,33,500,['n'],0,left,['8'],4,429,[-0.00910233],62,47,medium,plus,dotcolour,alfa,,,86,27,M,R,
338,86,2,8,2,53,27,748,['c'],1,left,['9'],5,63,[0.10509847],100,53,easy,plus,dotcolour,alfa,,,86,27,M,R,
339,87,3,8,2,27,53,616,['c'],0,right,['9'],5,69,[0.0373147],99,53,easy,plus,dotcolour,alfa,,,86,27,M,R,
340,88,4,8,2,44,36,798,['c'],1,left,['9'],5,52,[0.06096711],100,44,hard,plus,dotcolour,alfa,,,86,27,M,R,
341,89,5,8,2,27,53,665,['n'],1,right,['9'],5,104,[-0.09297856],100,53,easy,plus,dotcolour,alfa,,,86,27,M,R,
342,90,6,8,2,44,36,432,['c'],1,left,['9'],5,68,[0.06596811],100,44,hard,plus,dotcolour,alfa,,,86,27,M,R,
343,91,7,8,2,53,27,465,['c'],1,left,['9'],5,24,[0.08130879],100,53,easy,plus,dotcolour,alfa,,,86,27,M,R,
344,92,8,8,2,33,47,848,['n'],1,right,['9'],5,22,[-0.06999641],100,47,medium,plus,dotcolour,alfa,,,86,27,M,R,
345,93,9,8,2,36,44,431,['c'],0,right,['9'],5,86,[0.05751169],100,44,hard,plus,dotcolour,alfa,,,86,27,M,R,
346,94,10,8,2,44,36,479,['c'],1,left,['9'],5,88,[0.05448263],100,44,hard,plus,dotcolour,alfa,,,86,27,M,R,
347,95,11,8,2,27,53,699,['n'],1,right,['9'],5,179,[-0.20157499],100,53,easy,plus,dotcolour,alfa,,,86,27,M,R,
348,96,12,8,2,33,47,1030,['n'],1,right,['9'],5,132,[-0.08333435],100,47,medium,plus,dotcolour,alfa,,,86,27,M,R,
349,97,13,8,2,33,47,764,['n'],1,right,['9'],5,72,[-0.07436681],100,47,medium,plus,dotcolour,alfa,,,86,27,M,R,
350,98,14,8,2,47,33,432,['c'],1,left,['9'],5,38,[0.11274009],100,47,medium,plus,dotcolour,alfa,,,86,27,M,R,
351,99,15,8,2,33,47,733,['n'],1,right,['9'],5,248,[-0.00974951],67,47,medium,plus,dotcolour,alfa,,,86,27,M,R,
352,100,16,8,2,27,53,616,['c'],0,right,['1'],1,639,[0.04985559],90,53,easy,plus,dotcolour,alfa,,,86,27,M,R,
353,101,17,8,2,47,33,566,['c'],1,left,['9'],5,208,[0.11002064],100,47,medium,plus,dotcolour,alfa,,,86,27,M,R,
354,102,18,8,2,53,27,498,['c'],1,left,['9'],5,165,[0.07919337],100,53,easy,plus,dotcolour,alfa,,,86,27,M,R,
355,103,19,8,2,36,44,549,['n'],1,right,['0'],6,265,[-0.10216716],100,44,hard,plus,dotcolour,alfa,,,86,27,M,R,
356,104,20,8,2,36,44,915,['c'],0,right,['9'],5,163,[0.00259602],56,44,hard,plus,dotcolour,alfa,,,86,27,M,R,
357,105,21,8,2,27,53,715,['n'],1,right,['0'],6,193,[-0.0522499],99,53,easy,plus,dotcolour,alfa,,,86,27,M,R,
358,106,22,8,2,36,44,631,['c'],0,right,['0'],6,89,[0.07396723],100,44,hard,plus,dotcolour,alfa,,,86,27,M,R,
359,107,23,8,2,33,47,899,['c'],0,right,['9'],5,123,[0.09702543],100,47,medium,plus,dotcolour,alfa,,,86,27,M,R,
360,108,24,8,2,44,36,883,['n'],0,left,['9'],5,84,[-0.09530761],100,44,hard,plus,dotcolour,alfa,,,86,27,M,R,
361,109,25,8,2,27,53,498,['n'],1,right,['9'],5,166,[-0.11652528],100,53,easy,plus,dotcolour,alfa,,,86,27,M,R,
362,110,26,8,2,47,33,598,['c'],1,left,['9'],5,97,[0.02001102],91,47,medium,plus,dotcolour,alfa,,,86,27,M,R,
363,111,27,8,2,36,44,617,['n'],1,right,['0'],6,149,[-0.09601684],100,44,hard,plus,dotcolour,alfa,,,86,27,M,R,
364,112,28,8,2,44,36,567,['c'],1,left,['9'],5,74,[0.08377378],100,44,hard,plus,dotcolour,alfa,,,86,27,M,R,
365,113,29,8,2,27,53,533,['n'],1,right,['9'],5,164,[-0.08589686],100,53,easy,plus,dotcolour,alfa,,,86,27,M,R,
366,114,30,8,2,53,27,614,['c'],1,left,['9'],5,61,[0.03030123],99,53,easy,plus,dotcolour,alfa,,,86,27,M,R,
367,115,31,8,2,44,36,732,['n'],0,left,['9'],5,110,[-0.09993803],100,44,hard,plus,dotcolour,alfa,,,86,27,M,R,
368,116,32,8,2,53,27,564,['c'],1,left,['9'],5,52,[0.06238867],100,53,easy,plus,dotcolour,alfa,,,86,27,M,R,
369,117,33,8,2,33,47,666,['n'],1,right,['9'],5,105,[-0.06024735],100,47,medium,plus,dotcolour,alfa,,,86,27,M,R,
370,118,34,8,2,47,33,566,['c'],1,left,['9'],5,56,[0.014696],90,47,medium,plus,dotcolour,alfa,,,86,27,M,R,
371,119,35,8,2,36,44,2581,['n'],1,right,['9'],5,272,[-0.12203472],100,44,hard,plus,dotcolour,alfa,,,86,27,M,R,
372,120,36,8,2,47,33,782,['c'],1,left,['9'],5,7,[0.0575122],100,47,medium,plus,dotcolour,alfa,,,86,27,M,R,
373,121,37,8,2,36,44,766,['n'],1,right,['9'],5,41,[-0.08724765],100,44,hard,plus,dotcolour,alfa,,,86,27,M,R,
374,122,38,8,2,53,27,648,['c'],1,left,['9'],5,15,[0.07207139],100,53,easy,plus,dotcolour,alfa,,,86,27,M,R,
375,123,39,8,2,33,47,798,['n'],1,right,['0'],6,424,[-0.16891435],100,47,medium,plus,dotcolour,alfa,,,86,27,M,R,
376,124,40,8,2,53,27,464,['c'],1,left,['8'],4,301,[0.16076212],100,53,easy,plus,dotcolour,alfa,,,86,27,M,R,
377,125,41,8,2,44,36,1415,['c'],1,left,['9'],5,65,[0.13892235],100,44,hard,plus,dotcolour,alfa,,,86,27,M,R,
378,0,0,9,3,53,27,700,['c'],1,left,['0'],6,33,[0.08479126],99,53,easy,minus,dotcolour,alfa,,,86,27,M,R,
379,1,1,9,3,44,36,798,['n'],0,left,['0'],6,130,[-0.04927413],77,44,hard,minus,dotcolour,alfa,,,86,27,M,R,
380,2,2,9,3,27,53,680,['n'],1,right,['0'],6,99,[-0.09343733],94,53,easy,minus,dotcolour,alfa,,,86,27,M,R,
381,3,3,9,3,36,44,716,['c'],0,right,['9'],5,43,[0.04477716],87,44,hard,minus,dotcolour,alfa,,,86,27,M,R,
382,4,4,9,3,44,36,483,['c'],1,left,['9'],5,47,[0.08569638],97,44,hard,minus,dotcolour,alfa,,,86,27,M,R,
383,5,5,9,3,44,36,749,['n'],0,left,['9'],5,40,[-0.07870307],97,44,hard,minus,dotcolour,alfa,,,86,27,M,R,
384,6,6,9,3,47,33,448,['c'],1,left,['9'],5,46,[0.08475528],97,47,medium,minus,dotcolour,alfa,,,86,27,M,R,
385,7,7,9,3,47,33,450,['c'],1,left,['8'],4,107,[0.06333607],85,47,medium,minus,dotcolour,alfa,,,86,27,M,R,
386,8,8,9,3,44,36,663,['c'],1,left,['9'],5,30,[0.07108888],98,44,hard,minus,dotcolour,alfa,,,86,27,M,R,
387,9,9,9,3,53,27,432,['c'],1,left,['9'],5,45,[0.09117462],98,53,easy,minus,dotcolour,alfa,,,86,27,M,R,
388,10,10,9,3,33,47,583,['n'],1,right,['9'],5,69,[-0.07780013],93,47,medium,minus,dotcolour,alfa,,,86,27,M,R,
389,11,11,9,3,33,47,916,['c'],0,right,['9'],5,23,[0.05421399],96,47,medium,minus,dotcolour,alfa,,,86,27,M,R,
390,12,12,9,3,36,44,650,['n'],1,right,['9'],5,69,[-0.03886371],79,44,hard,minus,dotcolour,alfa,,,86,27,M,R,
391,13,13,9,3,36,44,1066,['c'],0,right,['8'],4,57,[0.05647917],89,44,hard,minus,dotcolour,alfa,,,86,27,M,R,
392,14,14,9,3,27,53,465,['n'],1,right,['0'],6,325,[-0.08825897],80,53,easy,minus,dotcolour,alfa,,,86,27,M,R,
393,15,15,9,3,53,27,547,['c'],1,left,['0'],6,275,[0.05107148],71,53,easy,minus,dotcolour,alfa,,,86,27,M,R,
394,16,16,9,3,36,44,749,['n'],1,right,['9'],5,163,[-0.08266346],86,44,hard,minus,dotcolour,alfa,,,86,27,M,R,
395,17,17,9,3,44,36,715,['c'],1,left,['8'],4,57,[0.03576361],79,44,hard,minus,dotcolour,alfa,,,86,27,M,R,
396,18,18,9,3,36,44,617,['n'],1,right,['9'],5,103,[-0.05825472],84,44,hard,minus,dotcolour,alfa,,,86,27,M,R,
397,19,19,9,3,27,53,448,['n'],1,right,['9'],5,106,[-0.06441231],86,53,easy,minus,dotcolour,alfa,,,86,27,M,R,
398,20,20,9,3,47,33,632,['c'],1,left,['9'],5,54,[0.08166574],96,47,medium,minus,dotcolour,alfa,,,86,27,M,R,
399,21,21,9,3,27,53,564,['n'],1,right,['0'],6,199,[-0.08762371],85,53,easy,minus,dotcolour,alfa,,,86,27,M,R,
400,22,22,9,3,33,47,714,['n'],1,right,['0'],6,228,[-0.01616565],58,47,medium,minus,dotcolour,alfa,,,86,27,M,R,
401,23,23,9,3,36,44,513,['n'],1,right,['0'],6,223,[-0.10313854],88,44,hard,minus,dotcolour,alfa,,,86,27,M,R,
402,24,24,9,3,33,47,514,['n'],1,right,['0'],6,155,[-0.09049775],89,47,medium,minus,dotcolour,alfa,,,86,27,M,R,
403,25,25,9,3,53,27,949,['c'],1,left,['9'],5,528,[0.13525497],84,53,easy,minus,dotcolour,alfa,,,86,27,M,R,
404,26,26,9,3,36,44,649,['n'],1,right,['9'],5,123,[-0.09856468],93,44,hard,minus,dotcolour,alfa,,,86,27,M,R,
405,27,27,9,3,47,33,682,['c'],1,left,['0'],6,124,[0.0483646],77,47,medium,minus,dotcolour,alfa,,,86,27,M,R,
406,28,28,9,3,44,36,983,['c'],1,left,['9'],5,169,[0.11124906],92,44,hard,minus,dotcolour,alfa,,,86,27,M,R,
407,29,29,9,3,53,27,498,['c'],1,left,['9'],5,47,[0.04860093],88,53,easy,minus,dotcolour,alfa,,,86,27,M,R,
408,30,30,9,3,53,27,481,['c'],1,left,['0'],6,99,[0.12859686],98,53,easy,minus,dotcolour,alfa,,,86,27,M,R,
409,31,31,9,3,44,36,815,['c'],1,left,['0'],6,8,[0.07303734],100,44,hard,minus,dotcolour,alfa,,,86,27,M,R,
410,32,32,9,3,53,27,448,['c'],1,left,['0'],6,7,[0.06367942],100,53,easy,minus,dotcolour,alfa,,,86,27,M,R,
411,33,33,9,3,33,47,630,['n'],1,right,['0'],6,70,[-0.10870424],98,47,medium,minus,dotcolour,alfa,,,86,27,M,R,
412,34,34,9,3,47,33,533,['c'],1,left,['0'],6,47,[0.08312628],97,47,medium,minus,dotcolour,alfa,,,86,27,M,R,
413,35,35,9,3,47,33,699,['c'],1,left,['9'],5,58,[0.09120319],97,47,medium,minus,dotcolour,alfa,,,86,27,M,R,
414,36,36,9,3,27,53,498,['n'],1,right,['0'],6,101,[-0.10255228],95,53,easy,minus,dotcolour,alfa,,,86,27,M,R,
415,37,37,9,3,27,53,615,['n'],1,right,['0'],6,90,[-0.09962791],95,53,easy,minus,dotcolour,alfa,,,86,27,M,R,
416,38,38,9,3,27,53,581,['n'],1,right,['0'],6,128,[-0.10421714],93,53,easy,minus,dotcolour,alfa,,,86,27,M,R,
417,39,39,9,3,33,47,582,['n'],1,right,['0'],6,140,[-0.04881271],76,47,medium,minus,dotcolour,alfa,,,86,27,M,R,
418,40,40,9,3,33,47,633,['n'],1,right,['9'],5,231,[-0.06228095],76,47,medium,minus,dotcolour,alfa,,,86,27,M,R,
419,41,41,9,3,47,33,715,['c'],1,left,['9'],5,43,[0.08404781],97,47,medium,minus,dotcolour,alfa,,,86,27,M,R,
420,42,0,10,3,27,53,600,['n'],1,right,['0'],6,72,[-0.11659313],98,53,easy,minus,dotcolour,alfa,,,86,27,M,R,
421,43,1,10,3,53,27,582,['c'],1,left,['0'],6,55,[0.07009533],94,53,easy,minus,dotcolour,alfa,,,86,27,M,R,
422,44,2,10,3,47,33,583,['c'],1,left,['0'],6,14,[0.0792806],100,47,medium,minus,dotcolour,alfa,,,86,27,M,R,
423,45,3,10,3,47,33,783,['c'],1,left,['8'],4,1008,[0.08699472],69,47,medium,minus,dotcolour,alfa,,,86,27,M,R,
424,46,4,10,3,33,47,749,['n'],1,right,['9'],5,50,[-0.05941036],92,47,medium,minus,dotcolour,alfa,,,86,27,M,R,
425,47,5,10,3,47,33,515,['c'],1,left,['9'],5,141,[0.10469613],92,47,medium,minus,dotcolour,alfa,,,86,27,M,R,
426,48,6,10,3,44,36,681,['c'],1,left,['9'],5,6,[0.08066712],100,44,hard,minus,dotcolour,alfa,,,86,27,M,R,
427,49,7,10,3,47,33,499,['c'],1,left,['9'],5,34,[0.0732165],97,47,medium,minus,dotcolour,alfa,,,86,27,M,R,
428,50,8,10,3,53,27,432,['c'],1,left,['9'],5,9,[0.065449],100,53,easy,minus,dotcolour,alfa,,,86,27,M,R,
429,51,9,10,3,27,53,532,['n'],1,right,['9'],5,84,[-0.10691562],97,53,easy,minus,dotcolour,alfa,,,86,27,M,R,
430,52,10,10,3,33,47,1215,['n'],1,right,['9'],5,34,[-0.10921642],100,47,medium,minus,dotcolour,alfa,,,86,27,M,R,
431,53,11,10,3,36,44,665,['n'],1,right,['9'],5,55,[-0.05678927],90,44,hard,minus,dotcolour,alfa,,,86,27,M,R,
432,54,12,10,3,27,53,748,['n'],1,right,['9'],5,97,[-0.07664122],90,53,easy,minus,dotcolour,alfa,,,86,27,M,R,
433,55,13,10,3,44,36,533,['c'],1,left,['9'],5,48,[0.04372737],86,44,hard,minus,dotcolour,alfa,,,86,27,M,R,
434,56,14,10,3,33,47,565,['n'],1,right,['9'],5,273,[-0.02024992],59,47,medium,minus,dotcolour,alfa,,,86,27,M,R,
435,57,15,10,3,33,47,681,['n'],1,right,['8'],4,236,[-0.0592839],75,47,medium,minus,dotcolour,alfa,,,86,27,M,R,
436,58,16,10,3,53,27,615,['c'],1,left,['8'],4,178,[0.16395252],97,53,easy,minus,dotcolour,alfa,,,86,27,M,R,
437,59,17,10,3,44,36,964,['n'],0,left,['9'],5,94,[-0.10860309],96,44,hard,minus,dotcolour,alfa,,,86,27,M,R,
438,60,18,10,3,44,36,667,['c'],1,left,['0'],6,145,[0.09294143],90,44,hard,minus,dotcolour,alfa,,,86,27,M,R,
439,61,19,10,3,36,44,932,['n'],1,right,['0'],6,166,[-0.04623001],74,44,hard,minus,dotcolour,alfa,,,86,27,M,R,
440,62,20,10,3,36,44,765,['c'],0,right,['9'],5,2,[0.06802288],100,44,hard,minus,dotcolour,alfa,,,86,27,M,R,
441,63,21,10,3,33,47,699,['n'],1,right,['9'],5,104,[-0.13252976],98,47,medium,minus,dotcolour,alfa,,,86,27,M,R,
442,64,22,10,3,44,36,581,['c'],1,left,['9'],5,5,[0.07146632],100,44,hard,minus,dotcolour,alfa,,,86,27,M,R,
443,65,23,10,3,36,44,914,['c'],0,right,['9'],5,81,[0.10652271],97,44,hard,minus,dotcolour,alfa,,,86,27,M,R,
444,66,24,10,3,33,47,614,['n'],1,right,['0'],6,190,[-0.16211133],97,47,medium,minus,dotcolour,alfa,,,86,27,M,R,
445,67,25,10,3,27,53,532,['n'],1,right,['9'],5,571,[-0.16683388],88,53,easy,minus,dotcolour,alfa,,,86,27,M,R,
446,68,26,10,3,27,53,549,['n'],1,right,['9'],5,135,[-0.03956954],72,53,easy,minus,dotcolour,alfa,,,86,27,M,R,
447,69,27,10,3,47,33,614,['c'],1,left,['9'],5,90,[0.03089365],72,47,medium,minus,dotcolour,alfa,,,86,27,M,R,
448,70,28,10,3,44,36,683,['c'],1,left,['9'],5,44,[0.07892708],97,44,hard,minus,dotcolour,alfa,,,86,27,M,R,
449,71,29,10,3,53,27,514,['c'],1,left,['8'],4,95,[0.02091781],65,53,easy,minus,dotcolour,alfa,,,86,27,M,R,
450,72,30,10,3,33,47,898,['n'],1,right,['9'],5,136,[0.0016269],49,47,medium,minus,dotcolour,alfa,,,86,27,M,R,
451,73,31,10,3,47,33,483,['c'],1,left,['0'],6,97,[0.0684432],88,47,medium,minus,dotcolour,alfa,,,86,27,M,R,
452,74,32,10,3,36,44,714,['n'],1,right,['9'],5,217,[-0.16900295],96,44,hard,minus,dotcolour,alfa,,,86,27,M,R,
453,75,33,10,3,36,44,564,['n'],1,right,['9'],5,211,[-0.05037768],73,44,hard,minus,dotcolour,alfa,,,86,27,M,R,
454,76,34,10,3,44,36,548,['c'],1,left,['0'],6,166,[0.06158894],80,44,hard,minus,dotcolour,alfa,,,86,27,M,R,
455,77,35,10,3,53,27,450,['c'],1,left,['0'],6,71,[0.09412917],96,53,easy,minus,dotcolour,alfa,,,86,27,M,R,
456,78,36,10,3,36,44,681,['c'],0,right,['9'],5,530,[-0.10427667],22,44,hard,minus,dotcolour,alfa,,,86,27,M,R,
457,79,37,10,3,53,27,582,['c'],1,left,['9'],5,71,[0.0537313],86,53,easy,minus,dotcolour,alfa,,,86,27,M,R,
458,80,38,10,3,27,53,463,['c'],0,right,['1'],1,795,[-0.08691663],29,53,easy,minus,dotcolour,alfa,,,86,27,M,R,
459,81,39,10,3,27,53,1083,['n'],1,right,['0'],6,465,[-0.00490321],52,53,easy,minus,dotcolour,alfa,,,86,27,M,R,
460,82,40,10,3,47,33,683,['c'],1,left,['9'],5,108,[0.06115766],84,47,medium,minus,dotcolour,alfa,,,86,27,M,R,
461,83,41,10,3,53,27,531,['c'],1,left,['9'],5,35,[0.0917065],99,53,easy,minus,dotcolour,alfa,,,86,27,M,R,
462,84,0,11,3,36,44,717,['c'],0,right,['0'],6,60,[0.05368928],88,44,hard,minus,dotcolour,alfa,,,86,27,M,R,
463,85,1,11,3,33,47,1066,['n'],1,right,['9'],5,136,[-0.05895307],81,47,medium,minus,dotcolour,alfa,,,86,27,M,R,
464,86,2,11,3,33,47,732,['c'],0,right,['0'],6,71,[0.02877585],73,47,medium,minus,dotcolour,alfa,,,86,27,M,R,
465,87,3,11,3,44,36,633,['c'],1,left,['0'],6,60,[0.10372441],98,44,hard,minus,dotcolour,alfa,,,86,27,M,R,
466,88,4,11,3,53,27,516,['c'],1,left,['9'],5,62,[0.09985037],97,53,easy,minus,dotcolour,alfa,,,86,27,M,R,
467,89,5,11,3,47,33,1015,['n'],0,left,['9'],5,156,[-0.07606245],85,47,medium,minus,dotcolour,alfa,,,86,27,M,R,
468,90,6,11,3,36,44,632,['c'],0,right,['9'],5,53,[0.05757024],90,44,hard,minus,dotcolour,alfa,,,86,27,M,R,
469,91,7,11,3,27,53,598,['n'],1,right,['8'],4,221,[-0.2540871],99,53,easy,minus,dotcolour,alfa,,,86,27,M,R,
470,92,8,11,3,27,53,515,['n'],1,right,['0'],6,136,[-0.11945853],95,53,easy,minus,dotcolour,alfa,,,86,27,M,R,
471,93,9,11,3,44,36,700,['c'],1,left,['0'],6,80,[0.05761218],86,44,hard,minus,dotcolour,alfa,,,86,27,M,R,
472,94,10,11,3,27,53,616,['n'],1,right,['9'],5,261,[-0.10070695],85,53,easy,minus,dotcolour,alfa,,,86,27,M,R,
473,95,11,11,3,44,36,832,['n'],0,left,['9'],5,219,[-0.06219068],77,44,hard,minus,dotcolour,alfa,,,86,27,M,R,
474,96,12,11,3,44,36,1032,['n'],0,left,['1'],1,817,[-0.01063462],53,44,hard,minus,dotcolour,alfa,,,86,27,M,R,
475,97,13,11,3,33,47,697,['n'],1,right,['0'],6,238,[-0.09674491],86,47,medium,minus,dotcolour,alfa,,,86,27,M,R,
476,98,14,11,3,47,33,613,['c'],1,left,['0'],6,141,[0.09400831],90,47,medium,minus,dotcolour,alfa,,,86,27,M,R,
477,99,15,11,3,33,47,633,['n'],1,right,['9'],5,318,[-0.17898812],95,47,medium,minus,dotcolour,alfa,,,86,27,M,R,
478,100,16,11,3,33,47,483,['n'],1,right,['9'],5,239,[-0.09270938],85,47,medium,minus,dotcolour,alfa,,,86,27,M,R,
479,101,17,11,3,47,33,582,['c'],1,left,['9'],5,288,[0.08496981],81,47,medium,minus,dotcolour,alfa,,,86,27,M,R,
480,102,18,11,3,27,53,566,['n'],1,right,['0'],6,319,[-0.14309727],91,53,easy,minus,dotcolour,alfa,,,86,27,M,R,
481,103,19,11,3,44,36,847,['c'],1,left,['0'],6,249,[0.02747845],62,44,hard,minus,dotcolour,alfa,,,86,27,M,R,
482,104,20,11,3,27,53,799,['n'],1,right,['9'],5,345,[-0.16254564],92,53,easy,minus,dotcolour,alfa,,,86,27,M,R,
483,105,21,11,3,53,27,583,['c'],1,left,['0'],6,101,[0.03752056],74,53,easy,minus,dotcolour,alfa,,,86,27,M,R,
484,106,22,11,3,53,27,498,['c'],1,left,['0'],6,78,[0.1277821],98,53,easy,minus,dotcolour,alfa,,,86,27,M,R,
485,107,23,11,3,44,36,448,['c'],1,left,['0'],6,99,[0.0346029],73,44,hard,minus,dotcolour,alfa,,,86,27,M,R,
486,108,24,11,3,47,33,450,['c'],1,left,['0'],6,62,[0.10698365],98,47,medium,minus,dotcolour,alfa,,,86,27,M,R,
487,109,25,11,3,53,27,449,['c'],1,left,['0'],6,42,[0.06886015],95,53,easy,minus,dotcolour,alfa,,,86,27,M,R,
488,110,26,11,3,53,27,482,['c'],1,left,['0'],6,54,[0.06040998],91,53,easy,minus,dotcolour,alfa,,,86,27,M,R,
489,111,27,11,3,36,44,982,['n'],1,right,['9'],5,222,[-0.04443498],70,44,hard,minus,dotcolour,alfa,,,86,27,M,R,
490,112,28,11,3,53,27,482,['c'],1,left,['0'],6,92,[0.07457302],90,53,easy,minus,dotcolour,alfa,,,86,27,M,R,
491,113,29,11,3,27,53,816,['n'],1,right,['9'],5,264,[-0.11347076],88,53,easy,minus,dotcolour,alfa,,,86,27,M,R,
492,114,30,11,3,36,44,666,['c'],0,right,['9'],5,101,[0.08631725],92,44,hard,minus,dotcolour,alfa,,,86,27,M,R,
493,115,31,11,3,36,44,433,['c'],0,right,['9'],5,224,[0.02180883],60,44,hard,minus,dotcolour,alfa,,,86,27,M,R,
494,116,32,11,3,33,47,432,['n'],1,right,['9'],5,255,[-0.01264884],56,47,medium,minus,dotcolour,alfa,,,86,27,M,R,
495,117,33,11,3,47,33,850,['c'],1,left,['8'],4,148,[0.10367504],92,47,medium,minus,dotcolour,alfa,,,86,27,M,R,
496,118,34,11,3,27,53,732,['n'],1,right,['9'],5,305,[-0.13999653],91,53,easy,minus,dotcolour,alfa,,,86,27,M,R,
497,119,35,11,3,36,44,898,['n'],1,right,['9'],5,331,[-0.17752121],94,44,hard,minus,dotcolour,alfa,,,86,27,M,R,
498,120,36,11,3,36,44,966,['n'],1,right,['8'],4,464,[-0.11023251],81,44,hard,minus,dotcolour,alfa,,,86,27,M,R,
499,121,37,11,3,47,33,549,['c'],1,left,['9'],5,144,[0.05824268],80,47,medium,minus,dotcolour,alfa,,,86,27,M,R,
500,122,38,11,3,47,33,566,['n'],0,left,['3'],3,1150,[0.07910569],34,47,medium,minus,dotcolour,alfa,,,86,27,M,R,
501,123,39,11,3,53,27,547,['c'],1,left,['9'],5,266,[0.15801087],94,53,easy,minus,dotcolour,alfa,,,86,27,M,R,
502,124,40,11,3,44,36,649,['c'],1,left,['9'],5,95,[0.0889058],93,44,hard,minus,dotcolour,alfa,,,86,27,M,R,
503,125,41,11,3,33,47,700,['n'],1,right,['9'],5,176,[-0.13682107],95,47,medium,minus,dotcolour,alfa,,,86,27,M,R,
504,0,0,12,4,47,33,1500,['c'],1,left,['8'],4,670,[0.03427254],82,47,medium,plus,dotcolour,alfa,,,86,27,M,R,
505,1,1,12,4,44,36,899,['n'],0,left,['8'],4,320,[-0.12171259],100,44,hard,plus,dotcolour,alfa,,,86,27,M,R,
506,2,2,12,4,47,33,665,['c'],1,left,['8'],4,90,[0.09164036],100,47,medium,plus,dotcolour,alfa,,,86,27,M,R,
507,3,3,12,4,44,36,599,['c'],1,left,['9'],5,95,[0.09152157],100,44,hard,plus,dotcolour,alfa,,,86,27,M,R,
508,4,4,12,4,36,44,848,['n'],1,right,['9'],5,123,[-0.12899886],100,44,hard,plus,dotcolour,alfa,,,86,27,M,R,
509,5,5,12,4,33,47,583,['c'],0,right,['9'],5,55,[0.09650697],100,47,medium,plus,dotcolour,alfa,,,86,27,M,R,
510,6,6,12,4,47,33,597,['c'],1,left,['8'],4,62,[0.06656844],100,47,medium,plus,dotcolour,alfa,,,86,27,M,R,
511,7,7,12,4,27,53,564,['n'],1,right,['8'],4,150,[-0.0525856],99,53,easy,plus,dotcolour,alfa,,,86,27,M,R,
512,8,8,12,4,47,33,816,['c'],1,left,['8'],4,82,[0.03319526],98,47,medium,plus,dotcolour,alfa,,,86,27,M,R,
513,9,9,12,4,27,53,565,['n'],1,right,['9'],5,128,[-0.069803],100,53,easy,plus,dotcolour,alfa,,,86,27,M,R,
514,10,10,12,4,44,36,682,['c'],1,left,['8'],4,65,[0.05756235],100,44,hard,plus,dotcolour,alfa,,,86,27,M,R,
515,11,11,12,4,27,53,649,['n'],1,right,['9'],5,270,[-0.06872544],99,53,easy,plus,dotcolour,alfa,,,86,27,M,R,
516,12,12,12,4,36,44,664,['n'],1,right,['9'],5,146,[-0.10636139],100,44,hard,plus,dotcolour,alfa,,,86,27,M,R,
517,13,13,12,4,53,27,633,['c'],1,left,['9'],5,52,[0.09509879],100,53,easy,plus,dotcolour,alfa,,,86,27,M,R,
518,14,14,12,4,36,44,597,['n'],1,right,['9'],5,195,[-0.08557697],100,44,hard,plus,dotcolour,alfa,,,86,27,M,R,
519,15,15,12,4,44,36,898,['c'],1,left,['8'],4,9,[0.07422263],100,44,hard,plus,dotcolour,alfa,,,86,27,M,R,
520,16,16,12,4,44,36,497,['c'],1,left,['8'],4,37,[0.0797064],100,44,hard,plus,dotcolour,alfa,,,86,27,M,R,
521,17,17,12,4,33,47,1163,['c'],0,right,['8'],4,71,[0.04138299],100,47,medium,plus,dotcolour,alfa,,,86,27,M,R,
522,18,18,12,4,47,33,1330,['c'],1,left,['8'],4,24,[0.0509758],100,47,medium,plus,dotcolour,alfa,,,86,27,M,R,
523,19,19,12,4,44,36,649,['c'],1,left,['9'],5,55,[0.06101263],100,44,hard,plus,dotcolour,alfa,,,86,27,M,R,
524,20,20,12,4,53,27,499,['c'],1,left,['9'],5,65,[0.1049215],100,53,easy,plus,dotcolour,alfa,,,86,27,M,R,
525,21,21,12,4,53,27,499,['c'],1,left,['9'],5,20,[0.09475719],100,53,easy,plus,dotcolour,alfa,,,86,27,M,R,
526,22,22,12,4,33,47,748,['n'],1,right,['9'],5,176,[-0.13238053],100,47,medium,plus,dotcolour,alfa,,,86,27,M,R,
527,23,23,12,4,36,44,830,['n'],1,right,['8'],4,167,[-0.13292243],100,44,hard,plus,dotcolour,alfa,,,86,27,M,R,
528,24,24,12,4,53,27,465,['c'],1,left,['8'],4,103,[0.13015794],100,53,easy,plus,dotcolour,alfa,,,86,27,M,R,
529,25,25,12,4,27,53,534,['n'],1,right,['8'],4,191,[-0.08086663],100,53,easy,plus,dotcolour,alfa,,,86,27,M,R,
530,26,26,12,4,33,47,780,['n'],1,right,['8'],4,153,[-0.14163413],100,47,medium,plus,dotcolour,alfa,,,86,27,M,R,
531,27,27,12,4,33,47,582,['n'],1,right,['8'],4,149,[-0.01983406],86,47,medium,plus,dotcolour,alfa,,,86,27,M,R,
532,28,28,12,4,27,53,449,['n'],1,right,['8'],4,182,[-0.15138964],100,53,easy,plus,dotcolour,alfa,,,86,27,M,R,
533,29,29,12,4,53,27,697,['c'],1,left,['8'],4,44,[0.04700402],100,53,easy,plus,dotcolour,alfa,,,86,27,M,R,
534,30,30,12,4,36,44,616,['n'],1,right,['8'],4,147,[-0.10788219],100,44,hard,plus,dotcolour,alfa,,,86,27,M,R,
535,31,31,12,4,33,47,915,['n'],1,right,['8'],4,218,[-0.17266793],100,47,medium,plus,dotcolour,alfa,,,86,27,M,R,
536,32,32,12,4,27,53,599,['n'],1,right,['8'],4,106,[-0.0213449],91,53,easy,plus,dotcolour,alfa,,,86,27,M,R,
537,33,33,12,4,53,27,582,['c'],1,left,['8'],4,64,[0.09024279],100,53,easy,plus,dotcolour,alfa,,,86,27,M,R,
538,34,34,12,4,47,33,582,['c'],1,left,['9'],5,40,[0.07079521],100,47,medium,plus,dotcolour,alfa,,,86,27,M,R,
539,35,35,12,4,27,53,531,['n'],1,right,['9'],5,138,[-0.1271582],100,53,easy,plus,dotcolour,alfa,,,86,27,M,R,
540,36,36,12,4,36,44,832,['n'],1,right,['9'],5,132,[-0.0964701],100,44,hard,plus,dotcolour,alfa,,,86,27,M,R,
541,37,37,12,4,44,36,747,['c'],1,left,['8'],4,89,[0.08457119],100,44,hard,plus,dotcolour,alfa,,,86,27,M,R,
542,38,38,12,4,47,33,498,['c'],1,left,['8'],4,43,[0.07957025],100,47,medium,plus,dotcolour,alfa,,,86,27,M,R,
543,39,39,12,4,53,27,616,['c'],1,left,['9'],5,33,[0.06956957],100,53,easy,plus,dotcolour,alfa,,,86,27,M,R,
544,40,40,12,4,33,47,665,['n'],1,right,['9'],5,103,[-0.0213806],92,47,medium,plus,dotcolour,alfa,,,86,27,M,R,
545,41,41,12,4,36,44,1048,['n'],1,right,['8'],4,546,[0.01124074],37,44,hard,plus,dotcolour,alfa,,,86,27,M,R,
546,42,0,13,4,36,44,616,['c'],0,right,['9'],5,20,[0.08164227],100,44,hard,plus,dotcolour,alfa,,,86,27,M,R,
547,43,1,13,4,36,44,833,['n'],1,right,['9'],5,147,[-0.07775051],100,44,hard,plus,dotcolour,alfa,,,86,27,M,R,
548,44,2,13,4,36,44,1014,['n'],1,right,['9'],5,61,[-0.08264649],100,44,hard,plus,dotcolour,alfa,,,86,27,M,R,
549,45,3,13,4,47,33,482,['c'],1,left,['9'],5,17,[0.07811759],100,47,medium,plus,dotcolour,alfa,,,86,27,M,R,
550,46,4,13,4,33,47,515,['c'],0,right,['8'],4,85,[0.04222889],99,47,medium,plus,dotcolour,alfa,,,86,27,M,R,
551,47,5,13,4,47,33,583,['c'],1,left,['9'],5,28,[0.04852005],100,47,medium,plus,dotcolour,alfa,,,86,27,M,R,
552,48,6,13,4,47,33,482,['c'],1,left,['9'],5,8,[0.06493574],100,47,medium,plus,dotcolour,alfa,,,86,27,M,R,
553,49,7,13,4,33,47,680,['n'],1,right,['9'],5,54,[-0.09115277],100,47,medium,plus,dotcolour,alfa,,,86,27,M,R,
554,50,8,13,4,27,53,599,['n'],1,right,['9'],5,37,[-0.11693006],100,53,easy,plus,dotcolour,alfa,,,86,27,M,R,
555,51,9,13,4,27,53,516,['n'],1,right,['9'],5,48,[-0.07548104],100,53,easy,plus,dotcolour,alfa,,,86,27,M,R,
556,52,10,13,4,53,27,515,['c'],1,left,['9'],5,3,[0.0672841],100,53,easy,plus,dotcolour,alfa,,,86,27,M,R,
557,53,11,13,4,36,44,682,['n'],1,right,['0'],6,89,[-0.08040615],100,44,hard,plus,dotcolour,alfa,,,86,27,M,R,
558,54,12,13,4,44,36,665,['c'],1,left,['9'],5,4,[0.0671911],100,44,hard,plus,dotcolour,alfa,,,86,27,M,R,
559,55,13,13,4,33,47,815,['n'],1,right,['0'],6,172,[-0.04475196],98,47,medium,plus,dotcolour,alfa,,,86,27,M,R,
560,56,14,13,4,33,47,1032,['n'],1,right,['9'],5,134,[-0.04878324],99,47,medium,plus,dotcolour,alfa,,,86,27,M,R,
561,57,15,13,4,44,36,798,['c'],1,left,['8'],4,986,[0.08655557],96,44,hard,plus,dotcolour,alfa,,,86,27,M,R,
562,58,16,13,4,33,47,698,['c'],0,right,['8'],4,87,[0.05156405],100,47,medium,plus,dotcolour,alfa,,,86,27,M,R,
563,59,17,13,4,53,27,499,['c'],1,left,['8'],4,129,[0.10754666],100,53,easy,plus,dotcolour,alfa,,,86,27,M,R,
564,60,18,13,4,27,53,765,['n'],1,right,['9'],5,183,[-0.10192446],100,53,easy,plus,dotcolour,alfa,,,86,27,M,R,
565,61,19,13,4,44,36,715,['c'],1,left,['9'],5,20,[0.07103307],100,44,hard,plus,dotcolour,alfa,,,86,27,M,R,
566,62,20,13,4,53,27,633,['c'],1,left,['9'],5,1267,[0.00119208],51,53,easy,plus,dotcolour,alfa,,,86,27,M,R,
567,63,21,13,4,47,33,667,['c'],1,left,['9'],5,1167,[0.31134654],100,47,medium,plus,dotcolour,alfa,,,86,27,M,R,
568,64,22,13,4,27,53,583,['n'],1,right,['9'],5,113,[-0.13660686],100,53,easy,plus,dotcolour,alfa,,,86,27,M,R,
569,65,23,13,4,53,27,548,['c'],1,left,['9'],5,16,[0.08152475],100,53,easy,plus,dotcolour,alfa,,,86,27,M,R,
570,66,24,13,4,36,44,665,['c'],0,right,['9'],5,614,[0.07676716],97,44,hard,plus,dotcolour,alfa,,,86,27,M,R,
571,67,25,13,4,53,27,549,['c'],1,left,['9'],5,24,[0.06979526],100,53,easy,plus,dotcolour,alfa,,,86,27,M,R,
572,68,26,13,4,47,33,566,['c'],1,left,['9'],5,74,[0.07765042],100,47,medium,plus,dotcolour,alfa,,,86,27,M,R,
573,69,27,13,4,44,36,648,['c'],1,left,['8'],4,646,[0.19273906],100,44,hard,plus,dotcolour,alfa,,,86,27,M,R,
574,70,28,13,4,33,47,797,['n'],1,right,['8'],4,149,[-0.15714313],100,47,medium,plus,dotcolour,alfa,,,86,27,M,R,
575,71,29,13,4,47,33,582,['c'],1,left,['9'],5,209,[0.1493504],100,47,medium,plus,dotcolour,alfa,,,86,27,M,R,
576,72,30,13,4,53,27,548,['c'],1,left,['0'],6,36,[0.07777526],100,53,easy,plus,dotcolour,alfa,,,86,27,M,R,
577,73,31,13,4,53,27,483,['c'],1,left,['0'],6,56,[0.10102892],100,53,easy,plus,dotcolour,alfa,,,86,27,M,R,
578,74,32,13,4,27,53,716,['n'],1,right,['0'],6,131,[-0.08187028],100,53,easy,plus,dotcolour,alfa,,,86,27,M,R,
579,75,33,13,4,33,47,1166,['c'],0,right,['9'],5,440,[0.09313087],99,47,medium,plus,dotcolour,alfa,,,86,27,M,R,
580,76,34,13,4,44,36,433,['c'],1,left,['9'],5,31,[0.05965422],100,44,hard,plus,dotcolour,alfa,,,86,27,M,R,
581,77,35,13,4,47,33,965,['c'],1,left,['9'],5,8,[0.06976167],100,47,medium,plus,dotcolour,alfa,,,86,27,M,R,
582,78,36,13,4,36,44,798,['n'],1,right,['9'],5,321,[-0.10064924],100,44,hard,plus,dotcolour,alfa,,,86,27,M,R,
583,79,37,13,4,44,36,417,['c'],1,left,['8'],4,69,[0.11742752],100,44,hard,plus,dotcolour,alfa,,,86,27,M,R,
584,80,38,13,4,44,36,515,['c'],1,left,['9'],5,111,[0.07501996],100,44,hard,plus,dotcolour,alfa,,,86,27,M,R,
585,81,39,13,4,36,44,982,['n'],1,right,['8'],4,157,[-0.10354078],100,44,hard,plus,dotcolour,alfa,,,86,27,M,R,
586,82,40,13,4,27,53,564,['n'],1,right,['8'],4,185,[-0.04090335],97,53,easy,plus,dotcolour,alfa,,,86,27,M,R,
587,83,41,13,4,27,53,449,['n'],1,right,['9'],5,258,[-0.22197757],100,53,easy,plus,dotcolour,alfa,,,86,27,M,R,
588,84,0,14,4,36,44,800,['c'],0,right,['8'],4,11,[0.06920854],100,44,hard,plus,dotcolour,alfa,,,86,27,M,R,
589,85,1,14,4,53,27,532,['c'],1,left,['9'],5,47,[0.07777508],100,53,easy,plus,dotcolour,alfa,,,86,27,M,R,
590,86,2,14,4,53,27,665,['c'],1,left,['9'],5,91,[0.08315731],100,53,easy,plus,dotcolour,alfa,,,86,27,M,R,
591,87,3,14,4,36,44,664,['n'],1,right,['8'],4,222,[-0.07711882],100,44,hard,plus,dotcolour,alfa,,,86,27,M,R,
592,88,4,14,4,27,53,431,['n'],1,right,['9'],5,189,[-0.08239127],100,53,easy,plus,dotcolour,alfa,,,86,27,M,R,
593,89,5,14,4,47,33,1033,['n'],0,left,['9'],5,301,[-0.06300893],98,47,medium,plus,dotcolour,alfa,,,86,27,M,R,
594,90,6,14,4,33,47,715,['c'],0,right,['8'],4,126,[0.16564203],100,47,medium,plus,dotcolour,alfa,,,86,27,M,R,
595,91,7,14,4,44,36,467,['c'],1,left,['8'],4,79,[0.05507412],100,44,hard,plus,dotcolour,alfa,,,86,27,M,R,
596,92,8,14,4,33,47,765,['c'],0,right,['8'],4,1023,[-0.15661515],0,47,medium,plus,dotcolour,alfa,,,86,27,M,R,
597,93,9,14,4,47,33,533,['c'],1,left,['8'],4,49,[0.06128415],100,47,medium,plus,dotcolour,alfa,,,86,27,M,R,
598,94,10,14,4,27,53,631,['n'],1,right,['9'],5,183,[-0.11353354],100,53,easy,plus,dotcolour,alfa,,,86,27,M,R,
599,95,11,14,4,27,53,948,['n'],1,right,['9'],5,219,[-0.11979347],100,53,easy,plus,dotcolour,alfa,,,86,27,M,R,
600,96,12,14,4,53,27,547,['c'],1,left,['9'],5,62,[0.07735316],100,53,easy,plus,dotcolour,alfa,,,86,27,M,R,
601,97,13,14,4,53,27,497,['c'],1,left,['9'],5,41,[0.08697314],100,53,easy,plus,dotcolour,alfa,,,86,27,M,R,
602,98,14,14,4,33,47,749,['n'],1,right,['9'],5,107,[-0.08370813],100,47,medium,plus,dotcolour,alfa,,,86,27,M,R,
603,99,15,14,4,33,47,799,['n'],1,right,['9'],5,88,[-0.09348336],100,47,medium,plus,dotcolour,alfa,,,86,27,M,R,
604,100,16,14,4,44,36,782,['c'],1,left,['9'],5,55,[0.06851857],100,44,hard,plus,dotcolour,alfa,,,86,27,M,R,
605,101,17,14,4,36,44,583,['n'],1,right,['9'],5,103,[-0.0217471],92,44,hard,plus,dotcolour,alfa,,,86,27,M,R,
606,102,18,14,4,44,36,532,['c'],1,left,['9'],5,55,[0.06935094],100,44,hard,plus,dotcolour,alfa,,,86,27,M,R,
607,103,19,14,4,33,47,550,['n'],1,right,['8'],4,112,[-0.06080704],100,47,medium,plus,dotcolour,alfa,,,86,27,M,R,
608,104,20,14,4,44,36,1200,['n'],0,left,['8'],4,509,[-0.10003964],99,44,hard,plus,dotcolour,alfa,,,86,27,M,R,
609,105,21,14,4,36,44,1200,['n'],1,right,['8'],4,153,[-0.19332446],100,44,hard,plus,dotcolour,alfa,,,86,27,M,R,
610,106,22,14,4,27,53,548,['n'],1,right,['0'],6,350,[-0.14237067],100,53,easy,plus,dotcolour,alfa,,,86,27,M,R,
611,107,23,14,4,47,33,498,['c'],1,left,['0'],6,85,[0.05410431],100,47,medium,plus,dotcolour,alfa,,,86,27,M,R,
612,108,24,14,4,53,27,482,['c'],1,left,['0'],6,40,[0.07757832],100,53,easy,plus,dotcolour,alfa,,,86,27,M,R,
613,109,25,14,4,36,44,497,['c'],0,right,['0'],6,20,[0.06567133],100,44,hard,plus,dotcolour,alfa,,,86,27,M,R,
614,110,26,14,4,44,36,1331,['c'],1,left,['8'],4,183,[0.13401618],100,44,hard,plus,dotcolour,alfa,,,86,27,M,R,
615,111,27,14,4,36,44,1432,['n'],1,right,['8'],4,96,[-0.11401652],100,44,hard,plus,dotcolour,alfa,,,86,27,M,R,
616,112,28,14,4,36,44,915,['n'],1,right,['8'],4,217,[-0.162532],100,44,hard,plus,dotcolour,alfa,,,86,27,M,R,
617,113,29,14,4,53,27,582,['c'],1,left,['9'],5,90,[0.07169306],100,53,easy,plus,dotcolour,alfa,,,86,27,M,R,
618,114,30,14,4,44,36,599,['c'],1,left,['9'],5,24,[0.05947316],100,44,hard,plus,dotcolour,alfa,,,86,27,M,R,
619,115,31,14,4,47,33,600,['c'],1,left,['9'],5,33,[0.04580181],100,47,medium,plus,dotcolour,alfa,,,86,27,M,R,
620,116,32,14,4,27,53,632,['n'],1,right,['0'],6,176,[-0.04249356],97,53,easy,plus,dotcolour,alfa,,,86,27,M,R,
621,117,33,14,4,44,36,765,['c'],1,left,['9'],5,43,[0.05915555],100,44,hard,plus,dotcolour,alfa,,,86,27,M,R,
622,118,34,14,4,47,33,515,['c'],1,left,['9'],5,46,[0.08055181],100,47,medium,plus,dotcolour,alfa,,,86,27,M,R,
623,119,35,14,4,33,47,830,['n'],1,right,['9'],5,124,[-0.1544949],100,47,medium,plus,dotcolour,alfa,,,86,27,M,R,
624,120,36,14,4,27,53,480,['n'],1,right,['9'],5,220,[-0.03730976],95,53,easy,plus,dotcolour,alfa,,,86,27,M,R,
625,121,37,14,4,53,27,549,['c'],1,left,['9'],5,63,[0.09507665],100,53,easy,plus,dotcolour,alfa,,,86,27,M,R,
626,122,38,14,4,47,33,530,['c'],1,left,['9'],5,24,[0.0924372],100,47,medium,plus,dotcolour,alfa,,,86,27,M,R,
627,123,39,14,4,47,33,765,['c'],1,left,['9'],5,74,[0.13832884],100,47,medium,plus,dotcolour,alfa,,,86,27,M,R,
628,124,40,14,4,33,47,565,['n'],1,right,['9'],5,114,[-0.08132723],100,47,medium,plus,dotcolour,alfa,,,86,27,M,R,
629,125,41,14,4,27,53,565,['n'],1,right,['9'],5,80,[-0.1214899],100,53,easy,plus,dotcolour,alfa,,,86,27,M,R,
630,0,0,15,5,33,47,684,['n'],1,right,['9'],5,190,[-0.07938231],84,47,medium,minus,dotcolour,alfa,,,86,27,M,R,
631,1,1,15,5,47,33,815,['c'],1,left,['9'],5,79,[0.07256514],91,47,medium,minus,dotcolour,alfa,,,86,27,M,R,
632,2,2,15,5,36,44,915,['n'],1,right,['8'],4,73,[-0.08668328],95,44,hard,minus,dotcolour,alfa,,,86,27,M,R,
633,3,3,15,5,44,36,448,['c'],1,left,['8'],4,70,[0.06061883],89,44,hard,minus,dotcolour,alfa,,,86,27,M,R,
634,4,4,15,5,36,44,766,['n'],1,right,['9'],5,190,[-0.09249247],87,44,hard,minus,dotcolour,alfa,,,86,27,M,R,
635,5,5,15,5,44,36,465,['c'],1,left,['8'],4,85,[0.0927251],95,44,hard,minus,dotcolour,alfa,,,86,27,M,R,
636,6,6,15,5,44,36,582,['n'],0,left,['8'],4,93,[-0.13457052],98,44,hard,minus,dotcolour,alfa,,,86,27,M,R,
637,7,7,15,5,53,27,565,['c'],1,left,['9'],5,114,[0.04836368],78,53,easy,minus,dotcolour,alfa,,,86,27,M,R,
638,8,8,15,5,44,36,781,['n'],0,left,['9'],5,104,[-0.07976442],90,44,hard,minus,dotcolour,alfa,,,86,27,M,R,
639,9,9,15,5,36,44,1032,['c'],0,right,['9'],5,116,[0.05586908],81,44,hard,minus,dotcolour,alfa,,,86,27,M,R,
640,10,10,15,5,27,53,499,['n'],1,right,['9'],5,148,[-0.13342685],96,53,easy,minus,dotcolour,alfa,,,86,27,M,R,
641,11,11,15,5,33,47,1016,['n'],1,right,['9'],5,55,[-0.10612878],98,47,medium,minus,dotcolour,alfa,,,86,27,M,R,
642,12,12,15,5,53,27,483,['c'],1,left,['9'],5,51,[0.07467864],95,53,easy,minus,dotcolour,alfa,,,86,27,M,R,
643,13,13,15,5,47,33,765,['c'],1,left,['9'],5,51,[0.08672129],97,47,medium,minus,dotcolour,alfa,,,86,27,M,R,
644,14,14,15,5,44,36,665,['c'],1,left,['9'],5,24,[0.062958],97,44,hard,minus,dotcolour,alfa,,,86,27,M,R,
645,15,15,15,5,33,47,815,['n'],1,right,['9'],5,120,[-0.07617734],88,47,medium,minus,dotcolour,alfa,,,86,27,M,R,
646,16,16,15,5,53,27,616,['c'],1,left,['9'],5,52,[0.03843472],82,53,easy,minus,dotcolour,alfa,,,86,27,M,R,
647,17,17,15,5,36,44,1164,['c'],0,right,['9'],5,29,[0.06347001],97,44,hard,minus,dotcolour,alfa,,,86,27,M,R,
648,18,18,15,5,47,33,583,['c'],1,left,['9'],5,53,[0.08018214],96,47,medium,minus,dotcolour,alfa,,,86,27,M,R,
649,19,19,15,5,33,47,549,['n'],1,right,['9'],5,127,[-0.10731633],94,47,medium,minus,dotcolour,alfa,,,86,27,M,R,
650,20,20,15,5,53,27,449,['c'],1,left,['9'],5,72,[0.08605662],95,53,easy,minus,dotcolour,alfa,,,86,27,M,R,
651,21,21,15,5,36,44,631,['n'],1,right,['9'],5,118,[-0.09968054],93,44,hard,minus,dotcolour,alfa,,,86,27,M,R,
652,22,22,15,5,47,33,514,['c'],1,left,['9'],5,45,[0.08340768],97,47,medium,minus,dotcolour,alfa,,,86,27,M,R,
653,23,23,15,5,33,47,682,['n'],1,right,['8'],4,289,[-0.11722746],88,47,medium,minus,dotcolour,alfa,,,86,27,M,R,
654,24,24,15,5,33,47,915,['n'],1,right,['9'],5,211,[-0.07623993],82,47,medium,minus,dotcolour,alfa,,,86,27,M,R,
655,25,25,15,5,27,53,467,['n'],1,right,['9'],5,152,[-0.08189412],87,53,easy,minus,dotcolour,alfa,,,86,27,M,R,
656,26,26,15,5,53,27,433,['c'],1,left,['9'],5,291,[0.18345972],96,53,easy,minus,dotcolour,alfa,,,86,27,M,R,
657,27,27,15,5,27,53,733,['n'],1,right,['0'],6,155,[-0.0757538],85,53,easy,minus,dotcolour,alfa,,,86,27,M,R,
658,28,28,15,5,27,53,466,['n'],1,right,['0'],6,138,[-0.06414276],83,53,easy,minus,dotcolour,alfa,,,86,27,M,R,
659,29,29,15,5,27,53,516,['n'],1,right,['0'],6,138,[-0.09338999],91,53,easy,minus,dotcolour,alfa,,,86,27,M,R,
660,30,30,15,5,53,27,532,['c'],1,left,['0'],6,96,[0.10162554],95,53,easy,minus,dotcolour,alfa,,,86,27,M,R,
661,31,31,15,5,47,33,532,['c'],1,left,['0'],6,97,[0.05802872],84,47,medium,minus,dotcolour,alfa,,,86,27,M,R,
662,32,32,15,5,44,36,547,['c'],1,left,['0'],6,168,[0.05287699],76,44,hard,minus,dotcolour,alfa,,,86,27,M,R,
663,33,33,15,5,47,33,432,['c'],1,left,['0'],6,65,[0.05424362],87,47,medium,minus,dotcolour,alfa,,,86,27,M,R,
664,34,34,15,5,53,27,398,['c'],1,left,['0'],6,40,[0.06200303],94,53,easy,minus,dotcolour,alfa,,,86,27,M,R,
665,35,35,15,5,47,33,414,['c'],1,left,['0'],6,71,[0.06290044],89,47,medium,minus,dotcolour,alfa,,,86,27,M,R,
666,36,36,15,5,27,53,483,['n'],1,right,['0'],6,155,[-0.09934946],91,53,easy,minus,dotcolour,alfa,,,86,27,M,R,
667,37,37,15,5,36,44,616,['n'],1,right,['0'],6,141,[-0.06857223],84,44,hard,minus,dotcolour,alfa,,,86,27,M,R,
668,38,38,15,5,44,36,666,['c'],1,left,['0'],6,86,[0.07659863],91,44,hard,minus,dotcolour,alfa,,,86,27,M,R,
669,39,39,15,5,36,44,631,['n'],1,right,['0'],6,138,[0.02562992],35,44,hard,minus,dotcolour,alfa,,,86,27,M,R,
670,40,40,15,5,27,53,466,['n'],1,right,['0'],6,140,[-0.14475146],97,53,easy,minus,dotcolour,alfa,,,86,27,M,R,
671,41,41,15,5,33,47,416,['n'],1,right,['0'],6,174,[-0.11846368],93,47,medium,minus,dotcolour,alfa,,,86,27,M,R,
672,42,0,16,5,44,36,716,['c'],1,left,['9'],5,173,[0.03692531],69,44,hard,minus,dotcolour,alfa,,,86,27,M,R,
673,43,1,16,5,44,36,683,['c'],1,left,['9'],5,61,[0.11551178],99,44,hard,minus,dotcolour,alfa,,,86,27,M,R,
674,44,2,16,5,44,36,1081,['n'],0,left,['8'],4,328,[-0.04399953],67,44,hard,minus,dotcolour,alfa,,,86,27,M,R,
675,45,3,16,5,44,36,981,['c'],1,left,['8'],4,69,[0.0715903],92,44,hard,minus,dotcolour,alfa,,,86,27,M,R,
676,46,4,16,5,27,53,632,['n'],1,right,['8'],4,186,[-0.14261248],95,53,easy,minus,dotcolour,alfa,,,86,27,M,R,
677,47,5,16,5,36,44,431,['c'],0,right,['8'],4,307,[0.04267511],67,44,hard,minus,dotcolour,alfa,,,86,27,M,R,
678,48,6,16,5,53,27,582,['c'],1,left,['8'],4,40,[0.08518746],98,53,easy,minus,dotcolour,alfa,,,86,27,M,R,
679,49,7,16,5,36,44,714,['n'],1,right,['8'],4,123,[-0.12960449],97,44,hard,minus,dotcolour,alfa,,,86,27,M,R,
680,50,8,16,5,53,27,581,['c'],1,left,['8'],4,33,[0.06440721],96,53,easy,minus,dotcolour,alfa,,,86,27,M,R,
681,51,9,16,5,33,47,515,['n'],1,right,['8'],4,148,[-0.0842449],88,47,medium,minus,dotcolour,alfa,,,86,27,M,R,
682,52,10,16,5,36,44,515,['n'],1,right,['9'],5,179,[-0.12115344],93,44,hard,minus,dotcolour,alfa,,,86,27,M,R,
683,53,11,16,5,36,44,500,['n'],1,right,['9'],5,121,[-0.08643043],90,44,hard,minus,dotcolour,alfa,,,86,27,M,R,
684,54,12,16,5,44,36,1033,['c'],1,left,['9'],5,36,[0.09690166],99,44,hard,minus,dotcolour,alfa,,,86,27,M,R,
685,55,13,16,5,53,27,515,['c'],1,left,['9'],5,55,[0.12415445],99,53,easy,minus,dotcolour,alfa,,,86,27,M,R,
686,56,14,16,5,47,33,650,['c'],1,left,['9'],5,36,[0.09040175],99,47,medium,minus,dotcolour,alfa,,,86,27,M,R,
687,57,15,16,5,33,47,1081,['n'],1,right,['9'],5,49,[-0.09662689],98,47,medium,minus,dotcolour,alfa,,,86,27,M,R,
688,58,16,16,5,53,27,566,['c'],1,left,['9'],5,34,[0.11847799],100,53,easy,minus,dotcolour,alfa,,,86,27,M,R,
689,59,17,16,5,36,44,599,['n'],1,right,['9'],5,137,[-0.12002448],95,44,hard,minus,dotcolour,alfa,,,86,27,M,R,
690,60,18,16,5,47,33,615,['c'],1,left,['9'],5,36,[0.05936354],94,47,medium,minus,dotcolour,alfa,,,86,27,M,R,
691,61,19,16,5,47,33,532,['c'],1,left,['9'],5,38,[0.07932442],97,47,medium,minus,dotcolour,alfa,,,86,27,M,R,
692,62,20,16,5,53,27,481,['c'],1,left,['9'],5,35,[0.07145702],97,53,easy,minus,dotcolour,alfa,,,86,27,M,R,
693,63,21,16,5,33,47,932,['n'],1,right,['9'],5,86,[-0.09164625],94,47,medium,minus,dotcolour,alfa,,,86,27,M,R,
694,64,22,16,5,44,36,530,['c'],1,left,['9'],5,39,[0.07008533],96,44,hard,minus,dotcolour,alfa,,,86,27,M,R,
695,65,23,16,5,33,47,1133,['c'],0,right,['8'],4,32,[0.08343763],99,47,medium,minus,dotcolour,alfa,,,86,27,M,R,
696,66,24,16,5,47,33,600,['c'],1,left,['8'],4,17,[0.09048507],100,47,medium,minus,dotcolour,alfa,,,86,27,M,R,
697,67,25,16,5,27,53,932,['n'],1,right,['9'],5,371,[-0.30744585],99,53,easy,minus,dotcolour,alfa,,,86,27,M,R,
698,68,26,16,5,47,33,533,['c'],1,left,['9'],5,73,[0.09038703],95,47,medium,minus,dotcolour,alfa,,,86,27,M,R,
699,69,27,16,5,36,44,932,['c'],0,right,['8'],4,377,[0.09222884],79,44,hard,minus,dotcolour,alfa,,,86,27,M,R,
700,70,28,16,5,27,53,931,['n'],1,right,['0'],6,150,[-0.14504211],97,53,easy,minus,dotcolour,alfa,,,86,27,M,R,
701,71,29,16,5,53,27,582,['c'],1,left,['0'],6,74,[0.05311813],85,53,easy,minus,dotcolour,alfa,,,86,27,M,R,
702,72,30,16,5,33,47,863,['n'],1,right,['0'],6,182,[-0.14974343],96,47,medium,minus,dotcolour,alfa,,,86,27,M,R,
703,73,31,16,5,53,27,531,['c'],1,left,['0'],6,98,[0.09344581],94,53,easy,minus,dotcolour,alfa,,,86,27,M,R,
704,74,32,16,5,33,47,981,['c'],0,right,['8'],4,280,[0.09759133],84,47,medium,minus,dotcolour,alfa,,,86,27,M,R,
705,75,33,16,5,36,44,884,['n'],1,right,['9'],5,203,[-0.06542499],79,44,hard,minus,dotcolour,alfa,,,86,27,M,R,
706,76,34,16,5,27,53,616,['n'],1,right,['0'],6,483,[-0.21667396],94,53,easy,minus,dotcolour,alfa,,,86,27,M,R,
707,77,35,16,5,27,53,548,['n'],1,right,['0'],6,155,[-0.12173802],94,53,easy,minus,dotcolour,alfa,,,86,27,M,R,
708,78,36,16,5,33,47,730,['n'],1,right,['9'],5,232,[-0.04564977],70,47,medium,minus,dotcolour,alfa,,,86,27,M,R,
709,79,37,16,5,47,33,666,['c'],1,left,['8'],4,174,[0.11588762],92,47,medium,minus,dotcolour,alfa,,,86,27,M,R,
710,80,38,16,5,27,53,749,['n'],1,right,['9'],5,354,[-0.07672935],76,53,easy,minus,dotcolour,alfa,,,86,27,M,R,
711,81,39,16,5,47,33,682,['c'],1,left,['0'],6,74,[0.044501],81,47,medium,minus,dotcolour,alfa,,,86,27,M,R,
712,82,40,16,5,44,36,816,['n'],0,left,['8'],4,415,[-0.02160734],57,44,hard,minus,dotcolour,alfa,,,86,27,M,R,
713,83,41,16,5,27,53,599,['n'],1,right,['0'],6,176,[-0.12493481],94,53,easy,minus,dotcolour,alfa,,,86,27,M,R,
714,84,0,17,5,47,33,767,['c'],1,left,['9'],5,61,[0.06595308],92,47,medium,minus,dotcolour,alfa,,,86,27,M,R,
715,85,1,17,5,47,33,565,['c'],1,left,['8'],4,61,[0.06086894],90,47,medium,minus,dotcolour,alfa,,,86,27,M,R,
716,86,2,17,5,44,36,600,['c'],1,left,['8'],4,44,[0.10271856],99,44,hard,minus,dotcolour,alfa,,,86,27,M,R,
717,87,3,17,5,53,27,533,['c'],1,left,['9'],5,38,[0.06807345],96,53,easy,minus,dotcolour,alfa,,,86,27,M,R,
718,88,4,17,5,33,47,1265,['n'],1,right,['8'],4,315,[-0.10345953],84,47,medium,minus,dotcolour,alfa,,,86,27,M,R,
719,89,5,17,5,53,27,617,['c'],1,left,['9'],5,102,[0.04564214],78,53,easy,minus,dotcolour,alfa,,,86,27,M,R,
720,90,6,17,5,36,44,717,['n'],1,right,['9'],5,143,[-0.08955366],89,44,hard,minus,dotcolour,alfa,,,86,27,M,R,
721,91,7,17,5,53,27,680,['c'],1,left,['9'],5,39,[0.08460807],98,53,easy,minus,dotcolour,alfa,,,86,27,M,R,
722,92,8,17,5,27,53,1049,['n'],1,right,['0'],6,413,[-0.06402593],71,53,easy,minus,dotcolour,alfa,,,86,27,M,R,
723,93,9,17,5,33,47,982,['n'],1,right,['9'],5,142,[-0.09134875],90,47,medium,minus,dotcolour,alfa,,,86,27,M,R,
724,94,10,17,5,33,47,848,['c'],0,right,['8'],4,56,[0.05251954],88,47,medium,minus,dotcolour,alfa,,,86,27,M,R,
725,95,11,17,5,36,44,766,['c'],0,right,['8'],4,56,[0.12698957],99,44,hard,minus,dotcolour,alfa,,,86,27,M,R,
726,96,12,17,5,27,53,581,['n'],1,right,['9'],5,217,[-0.10902007],89,53,easy,minus,dotcolour,alfa,,,86,27,M,R,
727,97,13,17,5,44,36,615,['c'],1,left,['9'],5,40,[0.05865911],93,44,hard,minus,dotcolour,alfa,,,86,27,M,R,
728,98,14,17,5,36,44,649,['n'],1,right,['9'],5,551,[-0.19396154],91,44,hard,minus,dotcolour,alfa,,,86,27,M,R,
729,99,15,17,5,44,36,566,['c'],1,left,['9'],5,74,[0.0304957],73,44,hard,minus,dotcolour,alfa,,,86,27,M,R,
730,100,16,17,5,44,36,580,['c'],1,left,['8'],4,74,[0.00275852],52,44,hard,minus,dotcolour,alfa,,,86,27,M,R,
731,101,17,17,5,53,27,783,['c'],1,left,['9'],5,96,[0.04890368],81,53,easy,minus,dotcolour,alfa,,,86,27,M,R,
732,102,18,17,5,44,36,614,['c'],1,left,['9'],5,13,[0.08091397],100,44,hard,minus,dotcolour,alfa,,,86,27,M,R,
733,103,19,17,5,47,33,616,['c'],1,left,['9'],5,69,[0.03185051],75,47,medium,minus,dotcolour,alfa,,,86,27,M,R,
734,104,20,17,5,36,44,950,['n'],1,right,['9'],5,166,[-0.0569245],78,44,hard,minus,dotcolour,alfa,,,86,27,M,R,
735,105,21,17,5,27,53,467,['n'],1,right,['8'],4,222,[-0.0705337],79,53,easy,minus,dotcolour,alfa,,,86,27,M,R,
736,106,22,17,5,27,53,480,['n'],1,right,['0'],6,234,[-0.13757001],93,53,easy,minus,dotcolour,alfa,,,86,27,M,R,
737,107,23,17,5,27,53,483,['n'],1,right,['0'],6,135,[-0.09256996],91,53,easy,minus,dotcolour,alfa,,,86,27,M,R,
738,108,24,17,5,33,47,850,['n'],1,right,['8'],4,185,[-0.04778061],73,47,medium,minus,dotcolour,alfa,,,86,27,M,R,
739,109,25,17,5,53,27,583,['c'],1,left,['9'],5,107,[0.09067071],92,53,easy,minus,dotcolour,alfa,,,86,27,M,R,
740,110,26,17,5,44,36,816,['c'],1,left,['9'],5,47,[0.05299371],90,44,hard,minus,dotcolour,alfa,,,86,27,M,R,
741,111,27,17,5,27,53,565,['n'],1,right,['9'],5,112,[-0.06854718],86,53,easy,minus,dotcolour,alfa,,,86,27,M,R,
742,112,28,17,5,33,47,1598,['c'],0,right,['8'],4,333,[0.05921657],72,47,medium,minus,dotcolour,alfa,,,86,27,M,R,
743,113,29,17,5,36,44,533,['n'],1,right,['9'],5,123,[-0.07665229],88,44,hard,minus,dotcolour,alfa,,,86,27,M,R,
744,114,30,17,5,33,47,1216,['n'],1,right,['8'],4,175,[-0.08931723],87,47,medium,minus,dotcolour,alfa,,,86,27,M,R,
745,115,31,17,5,47,33,682,['c'],1,left,['9'],5,117,[0.11483618],95,47,medium,minus,dotcolour,alfa,,,86,27,M,R,
746,116,32,17,5,44,36,998,['c'],1,left,['9'],5,242,[0.20391123],98,44,hard,minus,dotcolour,alfa,,,86,27,M,R,
747,117,33,17,5,36,44,730,['c'],0,right,['8'],4,20,[0.06920404],99,44,hard,minus,dotcolour,alfa,,,86,27,M,R,
748,118,34,17,5,33,47,1298,['n'],1,right,['8'],4,121,[-0.05696094],81,47,medium,minus,dotcolour,alfa,,,86,27,M,R,
749,119,35,17,5,47,33,632,['c'],1,left,['9'],5,44,[0.09479514],98,47,medium,minus,dotcolour,alfa,,,86,27,M,R,
750,120,36,17,5,47,33,715,['c'],1,left,['9'],5,47,[0.07162308],95,47,medium,minus,dotcolour,alfa,,,86,27,M,R,
751,121,37,17,5,53,27,615,['c'],1,left,['9'],5,94,[0.04895414],81,53,easy,minus,dotcolour,alfa,,,86,27,M,R,
752,122,38,17,5,47,33,665,['c'],1,left,['9'],5,592,[0.0363312],60,47,medium,minus,dotcolour,alfa,,,86,27,M,R,
753,123,39,17,5,27,53,798,['n'],1,right,['0'],6,201,[-0.12864326],93,53,easy,minus,dotcolour,alfa,,,86,27,M,R,
754,124,40,17,5,36,44,700,['n'],1,right,['0'],6,271,[-0.00779328],53,44,hard,minus,dotcolour,alfa,,,86,27,M,R,
755,125,41,17,5,53,27,632,['c'],1,left,['0'],6,372,[0.09782342],81,53,easy,minus,dotcolour,alfa,,,86,27,M,R,
,,,,,,,,,,,,,,,,,,,,,1, ,86,27,M,R,
,,,,,,,,,,,,,,,,,,,,,2,['h'],86,27,M,R,
,,,,,,,,,,,,,,,,,,,,,3,['f'],86,27,M,R,
,,,,,,,,,,,,,,,,,,,,,5,['3'],86,27,M,R,
