trial,withinphasetrial,withinblocktrial,block,phase,dotsLeft,dotsRight,rt,resp,cor,cresp,conf_press,cj,RTconf,ev,fb,diff,difflevel,condition,task,manip,questionID,questionResp,sub,age,gender,handedness,
0,0,0,0,0,33,47,1285,['n'],1,right,['2'],5,6565,[-0.89481474],96,47,medium,minus,dotcolour,alfa,,,113,19,V,R,
1,1,1,0,0,27,53,2834,['n'],1,right,['2'],5,2404,[-0.67575727],98,53,easy,minus,dotcolour,alfa,,,113,19,V,R,
2,2,2,0,0,47,33,4451,['c'],1,left,['3'],4,2658,[0.49695904],94,47,medium,minus,dotcolour,alfa,,,113,19,V,R,
3,3,3,0,0,36,44,1133,['n'],1,right,['2'],5,890,[-0.05427288],63,44,hard,minus,dotcolour,alfa,,,113,19,V,R,
4,4,4,0,0,33,47,1433,['n'],1,right,['3'],4,1271,[-0.26550001],89,47,medium,minus,dotcolour,alfa,,,113,19,V,R,
5,5,5,0,0,47,33,3983,['c'],1,left,['3'],4,478,[0.15012416],88,47,medium,minus,dotcolour,alfa,,,113,19,V,R,
6,6,6,0,0,27,53,3217,['n'],1,right,['8'],3,211,[-0.10228924],88,53,easy,minus,dotcolour,alfa,,,113,19,V,R,
7,7,7,0,0,53,27,1384,['c'],1,left,['2'],5,1052,[0.16675243],81,53,easy,minus,dotcolour,alfa,,,113,19,V,R,
8,8,8,0,0,53,27,1150,['c'],1,left,['3'],4,549,[0.25736395],96,53,easy,minus,dotcolour,alfa,,,113,19,V,R,
9,9,9,0,0,33,47,967,['n'],1,right,['3'],4,514,[-0.16582266],89,47,medium,minus,dotcolour,alfa,,,113,19,V,R,
10,10,10,0,0,44,36,1350,['n'],0,left,['3'],4,297,[-0.09718372],83,44,hard,minus,dotcolour,alfa,,,113,19,V,R,
11,11,11,0,0,44,36,1050,['c'],1,left,['3'],4,356,[0.09248558],80,44,hard,minus,dotcolour,alfa,,,113,19,V,R,
12,12,12,0,0,33,47,4650,['n'],1,right,['3'],4,2549,[-0.49449174],94,47,medium,minus,dotcolour,alfa,,,113,19,V,R,
13,13,13,0,0,36,44,817,['n'],1,right,['2'],5,1382,[-0.08220245],65,44,hard,minus,dotcolour,alfa,,,113,19,V,R,
14,14,14,0,0,27,53,1067,['c'],0,right,['8'],3,3062,[-0.37467029],13,53,easy,minus,dotcolour,alfa,,,113,19,V,R,
15,15,15,0,0,47,33,3083,['c'],1,left,['3'],4,720,[0.30317052],96,47,medium,minus,dotcolour,alfa,,,113,19,V,R,
16,16,16,0,0,33,47,800,['n'],1,right,['2'],5,708,[-0.23094084],92,47,medium,minus,dotcolour,alfa,,,113,19,V,R,
17,17,17,0,0,27,53,801,['n'],1,right,['2'],5,241,[-0.08468047],83,53,easy,minus,dotcolour,alfa,,,113,19,V,R,
18,18,18,0,0,27,53,700,['n'],1,right,['2'],5,204,[-0.15152084],95,53,easy,minus,dotcolour,alfa,,,113,19,V,R,
19,19,19,0,0,27,53,617,['n'],1,right,['2'],5,156,[-0.06266733],81,53,easy,minus,dotcolour,alfa,,,113,19,V,R,
20,20,20,0,0,47,33,1583,['c'],1,left,['2'],5,752,[0.31313011],96,47,medium,minus,dotcolour,alfa,,,113,19,V,R,
21,21,21,0,0,53,27,933,['c'],1,left,['2'],5,454,[0.17826331],92,53,easy,minus,dotcolour,alfa,,,113,19,V,R,
22,22,22,0,0,53,27,933,['c'],1,left,['2'],5,295,[0.05060318],70,53,easy,minus,dotcolour,alfa,,,113,19,V,R,
23,23,23,0,0,44,36,4749,['n'],0,left,['8'],3,231,[-0.06524767],77,44,hard,minus,dotcolour,alfa,,,113,19,V,R,
24,24,24,0,0,27,53,868,['n'],1,right,['3'],4,1764,[-0.31472011],89,53,easy,minus,dotcolour,alfa,,,113,19,V,R,
25,25,25,0,0,53,27,1400,['c'],1,left,['2'],5,630,[0.08490278],72,53,easy,minus,dotcolour,alfa,,,113,19,V,R,
26,26,26,0,0,36,44,1433,['c'],0,right,['3'],4,413,[0.07682144],75,44,hard,minus,dotcolour,alfa,,,113,19,V,R,
27,27,27,0,0,53,27,1051,['c'],1,left,['2'],5,1820,[0.03016663],55,53,easy,minus,dotcolour,alfa,,,113,19,V,R,
28,28,28,0,0,36,44,1400,['c'],0,right,['3'],4,564,[0.14780792],85,44,hard,minus,dotcolour,alfa,,,113,19,V,R,
29,29,29,0,0,47,33,1383,['c'],1,left,['3'],4,359,[0.12584321],87,47,medium,minus,dotcolour,alfa,,,113,19,V,R,
30,30,30,0,0,44,36,1500,['c'],1,left,['3'],4,1782,[0.20307049],80,44,hard,minus,dotcolour,alfa,,,113,19,V,R,
31,31,31,0,0,47,33,867,['c'],1,left,['3'],4,268,[0.06553536],76,47,medium,minus,dotcolour,alfa,,,113,19,V,R,
32,32,32,0,0,36,44,750,['n'],1,right,['2'],5,726,[-0.11869066],78,44,hard,minus,dotcolour,alfa,,,113,19,V,R,
33,33,33,0,0,47,33,949,['c'],1,left,['2'],5,284,[0.09386449],83,47,medium,minus,dotcolour,alfa,,,113,19,V,R,
34,34,34,0,0,53,27,1167,['c'],1,left,['3'],4,626,[0.12039778],80,53,easy,minus,dotcolour,alfa,,,113,19,V,R,
35,35,35,0,0,33,47,2084,['n'],1,right,['3'],4,1351,[-0.32900001],93,47,medium,minus,dotcolour,alfa,,,113,19,V,R,
36,36,36,0,0,33,47,1918,['c'],0,right,['3'],4,421,[0.02251995],58,47,medium,minus,dotcolour,alfa,,,113,19,V,R,
37,37,37,0,0,44,36,3434,['c'],1,left,['3'],4,484,[-0.01652968],45,44,hard,minus,dotcolour,alfa,,,113,19,V,R,
38,38,38,0,0,44,36,4634,['c'],1,left,['2'],5,265,[0.1075882],87,44,hard,minus,dotcolour,alfa,,,113,19,V,R,
39,39,39,0,0,36,44,2350,['c'],0,right,['3'],4,546,[0.066056],69,44,hard,minus,dotcolour,alfa,,,113,19,V,R,
40,40,40,0,0,44,36,2550,['c'],1,left,['2'],5,247,[0.07167886],79,44,hard,minus,dotcolour,alfa,,,113,19,V,R,
41,41,41,0,0,36,44,1900,['n'],1,right,['3'],4,3370,[-0.19650426],72,44,hard,minus,dotcolour,alfa,,,113,19,V,R,
42,42,0,1,0,53,27,3800,['c'],1,left,['8'],3,2169,[0.3584876],90,53,easy,minus,dotcolour,alfa,,,113,19,V,R,
43,43,1,1,0,44,36,1033,['c'],1,left,['2'],5,290,[-0.03388322],36,44,hard,minus,dotcolour,alfa,,,113,19,V,R,
44,44,2,1,0,27,53,2117,['n'],1,right,['3'],4,1683,[-0.32605718],91,53,easy,minus,dotcolour,alfa,,,113,19,V,R,
45,45,3,1,0,33,47,1216,['n'],1,right,['2'],5,1215,[-0.03344798],57,47,medium,minus,dotcolour,alfa,,,113,19,V,R,
46,46,4,1,0,47,33,916,['c'],1,left,['2'],5,306,[0.08380292],80,47,medium,minus,dotcolour,alfa,,,113,19,V,R,
47,47,5,1,0,53,27,833,['c'],1,left,['2'],5,1078,[0.27150561],91,53,easy,minus,dotcolour,alfa,,,113,19,V,R,
48,48,6,1,0,36,44,1400,['n'],1,right,['3'],4,2468,[-0.07137341],60,44,hard,minus,dotcolour,alfa,,,113,19,V,R,
49,49,7,1,0,27,53,1033,['n'],1,right,['2'],5,521,[-0.08515182],74,53,easy,minus,dotcolour,alfa,,,113,19,V,R,
50,50,8,1,0,47,33,1783,['c'],1,left,['2'],5,4085,[0.59469496],93,47,medium,minus,dotcolour,alfa,,,113,19,V,R,
51,51,9,1,0,27,53,850,['n'],1,right,['2'],5,1944,[-0.53022943],97,53,easy,minus,dotcolour,alfa,,,113,19,V,R,
52,52,10,1,0,44,36,3150,['n'],0,left,['8'],3,101,[-0.06014687],85,44,hard,minus,dotcolour,alfa,,,113,19,V,R,
53,53,11,1,0,53,27,867,['c'],1,left,['2'],5,1375,[0.24223991],87,53,easy,minus,dotcolour,alfa,,,113,19,V,R,
54,54,12,1,0,27,53,883,['n'],1,right,['2'],5,638,[-0.20532203],91,53,easy,minus,dotcolour,alfa,,,113,19,V,R,
55,55,13,1,0,53,27,1949,['c'],1,left,['1'],6,1016,[0.39188498],97,53,easy,minus,dotcolour,alfa,,,113,19,V,R,
56,56,14,1,0,44,36,2384,['n'],0,left,['3'],4,993,[0.01161228],47,44,hard,minus,dotcolour,alfa,,,113,19,V,R,
57,57,15,1,0,33,47,2217,['n'],1,right,['3'],4,393,[-0.16286172],91,47,medium,minus,dotcolour,alfa,,,113,19,V,R,
58,58,16,1,0,53,27,1967,['c'],1,left,['2'],5,972,[0.19823243],86,53,easy,minus,dotcolour,alfa,,,113,19,V,R,
59,59,17,1,0,36,44,951,['n'],1,right,['2'],5,832,[-0.01973383],55,44,hard,minus,dotcolour,alfa,,,113,19,V,R,
60,60,18,1,0,36,44,799,['n'],1,right,['2'],5,168,[-0.06403626],80,44,hard,minus,dotcolour,alfa,,,113,19,V,R,
61,61,19,1,0,36,44,2450,['c'],0,right,['2'],5,1465,[0.03400559],56,44,hard,minus,dotcolour,alfa,,,113,19,V,R,
62,62,20,1,0,33,47,1934,['n'],1,right,['1'],6,1626,[-0.27107686],87,47,medium,minus,dotcolour,alfa,,,113,19,V,R,
63,63,21,1,0,36,44,2901,['n'],1,right,['3'],4,750,[-0.11008547],76,44,hard,minus,dotcolour,alfa,,,113,19,V,R,
64,64,22,1,0,44,36,1400,['c'],1,left,['2'],5,625,[0.26758909],95,44,hard,minus,dotcolour,alfa,,,113,19,V,R,
65,65,23,1,0,47,33,1650,['c'],1,left,['3'],4,1135,[0.10390471],71,47,medium,minus,dotcolour,alfa,,,113,19,V,R,
66,66,24,1,0,36,44,3684,['n'],1,right,['3'],4,1007,[-0.32266991],95,44,hard,minus,dotcolour,alfa,,,113,19,V,R,
67,67,25,1,0,44,36,1750,['c'],1,left,['1'],6,362,[0.22087939],96,44,hard,minus,dotcolour,alfa,,,113,19,V,R,
68,68,26,1,0,27,53,1334,['n'],1,right,['1'],6,447,[-0.14516886],88,53,easy,minus,dotcolour,alfa,,,113,19,V,R,
69,69,27,1,0,27,53,784,['n'],1,right,['1'],6,423,[-0.210417],95,53,easy,minus,dotcolour,alfa,,,113,19,V,R,
70,70,28,1,0,27,53,766,['n'],1,right,['1'],6,353,[-0.06421021],73,53,easy,minus,dotcolour,alfa,,,113,19,V,R,
71,71,29,1,0,47,33,1499,['c'],1,left,['2'],5,608,[0.23985037],94,47,medium,minus,dotcolour,alfa,,,113,19,V,R,
72,72,30,1,0,44,36,1784,['c'],1,left,['2'],5,385,[0.10773147],83,44,hard,minus,dotcolour,alfa,,,113,19,V,R,
73,73,31,1,0,47,33,1551,['c'],1,left,['2'],5,806,[0.08084502],69,47,medium,minus,dotcolour,alfa,,,113,19,V,R,
74,74,32,1,0,53,27,968,['c'],1,left,['1'],6,887,[0.2411834],91,53,easy,minus,dotcolour,alfa,,,113,19,V,R,
75,75,33,1,0,33,47,3183,['n'],1,right,['1'],6,429,[-0.06713093],72,47,medium,minus,dotcolour,alfa,,,113,19,V,R,
76,76,34,1,0,36,44,783,['n'],1,right,['1'],6,279,[-0.09245082],83,44,hard,minus,dotcolour,alfa,,,113,19,V,R,
77,77,35,1,0,33,47,1532,['n'],1,right,['2'],5,559,[-0.02645737],58,47,medium,minus,dotcolour,alfa,,,113,19,V,R,
78,78,36,1,0,33,47,1517,['n'],1,right,['2'],5,389,[-0.14506551],89,47,medium,minus,dotcolour,alfa,,,113,19,V,R,
79,79,37,1,0,33,47,4184,['n'],1,right,['2'],5,607,[-0.04720343],63,47,medium,minus,dotcolour,alfa,,,113,19,V,R,
80,80,38,1,0,44,36,1217,['c'],1,left,['2'],5,1503,[-0.06564849],38,44,hard,minus,dotcolour,alfa,,,113,19,V,R,
81,81,39,1,0,47,33,1516,['c'],1,left,['2'],5,639,[0.05218785],64,47,medium,minus,dotcolour,alfa,,,113,19,V,R,
82,82,40,1,0,53,27,1166,['c'],1,left,['1'],6,680,[0.23462529],93,53,easy,minus,dotcolour,alfa,,,113,19,V,R,
83,83,41,1,0,47,33,1183,['c'],1,left,['1'],6,270,[0.11097488],87,47,medium,minus,dotcolour,alfa,,,113,19,V,R,
84,84,0,2,0,36,44,1218,['n'],1,right,['2'],5,1516,[-0.06745316],62,44,hard,minus,dotcolour,alfa,,,113,19,V,R,
85,85,1,2,0,44,36,2767,['n'],0,left,['8'],3,345,[-0.11265159],85,44,hard,minus,dotcolour,alfa,,,113,19,V,R,
86,86,2,2,0,36,44,5133,['c'],0,right,['3'],4,592,[0.04745706],64,44,hard,minus,dotcolour,alfa,,,113,19,V,R,
87,87,3,2,0,36,44,2132,['c'],0,right,['3'],4,260,[0.08816932],83,44,hard,minus,dotcolour,alfa,,,113,19,V,R,
88,88,4,2,0,27,53,1266,['n'],1,right,['1'],6,3431,[-0.3823637],87,53,easy,minus,dotcolour,alfa,,,113,19,V,R,
89,89,5,2,0,47,33,4501,['c'],1,left,['2'],5,979,[0.25799888],91,47,medium,minus,dotcolour,alfa,,,113,19,V,R,
90,90,6,2,0,33,47,899,['n'],1,right,['1'],6,1889,[-0.00507712],51,47,medium,minus,dotcolour,alfa,,,113,19,V,R,
91,91,7,2,0,44,36,2983,['c'],1,left,['2'],5,807,[0.06139873],65,44,hard,minus,dotcolour,alfa,,,113,19,V,R,
92,92,8,2,0,53,27,1883,['c'],1,left,['3'],4,1100,[0.14767517],78,53,easy,minus,dotcolour,alfa,,,113,19,V,R,
93,93,9,2,0,47,33,1449,['n'],0,left,['2'],5,655,[0.084178],28,47,medium,minus,dotcolour,alfa,,,113,19,V,R,
94,94,10,2,0,36,44,1017,['n'],1,right,['2'],5,349,[-0.16728321],93,44,hard,minus,dotcolour,alfa,,,113,19,V,R,
95,95,11,2,0,27,53,967,['n'],1,right,['1'],6,170,[-0.22159316],99,53,easy,minus,dotcolour,alfa,,,113,19,V,R,
96,96,12,2,0,44,36,2066,['c'],1,left,['2'],5,442,[0.05822216],69,44,hard,minus,dotcolour,alfa,,,113,19,V,R,
97,97,13,2,0,53,27,1100,['c'],1,left,['1'],6,469,[0.09658851],78,53,easy,minus,dotcolour,alfa,,,113,19,V,R,
98,98,14,2,0,47,33,1250,['c'],1,left,['2'],5,914,[0.11641998],75,47,medium,minus,dotcolour,alfa,,,113,19,V,R,
99,99,15,2,0,47,33,1500,['n'],0,left,['3'],4,930,[0.0353009],42,47,medium,minus,dotcolour,alfa,,,113,19,V,R,
100,100,16,2,0,36,44,2016,['c'],0,right,['3'],4,1726,[-0.15023718],26,44,hard,minus,dotcolour,alfa,,,113,19,V,R,
101,101,17,2,0,27,53,1033,['n'],1,right,['1'],6,161,[-0.0780743],85,53,easy,minus,dotcolour,alfa,,,113,19,V,R,
102,102,18,2,0,53,27,1017,['c'],1,left,['1'],6,331,[0.06300082],73,53,easy,minus,dotcolour,alfa,,,113,19,V,R,
103,103,19,2,0,53,27,1051,['c'],1,left,['1'],6,364,[0.07237157],75,53,easy,minus,dotcolour,alfa,,,113,19,V,R,
104,104,20,2,0,27,53,1367,['n'],1,right,['1'],6,305,[-0.06318276],74,53,easy,minus,dotcolour,alfa,,,113,19,V,R,
105,105,21,2,0,47,33,850,['c'],1,left,['2'],5,596,[0.14678272],85,47,medium,minus,dotcolour,alfa,,,113,19,V,R,
106,106,22,2,0,33,47,767,['n'],1,right,['1'],6,199,[-0.08980594],86,47,medium,minus,dotcolour,alfa,,,113,19,V,R,
107,107,23,2,0,53,27,866,['c'],1,left,['1'],6,310,[0.1020758],84,53,easy,minus,dotcolour,alfa,,,113,19,V,R,
108,108,24,2,0,27,53,967,['n'],1,right,['1'],6,323,[-0.15715469],92,53,easy,minus,dotcolour,alfa,,,113,19,V,R,
109,109,25,2,0,47,33,1150,['c'],1,left,['2'],5,722,[0.16169075],85,47,medium,minus,dotcolour,alfa,,,113,19,V,R,
110,110,26,2,0,27,53,1484,['n'],1,right,['3'],4,1210,[-0.39423848],96,53,easy,minus,dotcolour,alfa,,,113,19,V,R,
111,111,27,2,0,33,47,717,['n'],1,right,['1'],6,174,[-0.11005005],91,47,medium,minus,dotcolour,alfa,,,113,19,V,R,
112,112,28,2,0,36,44,2784,['c'],0,right,['8'],3,249,[0.04184226],68,44,hard,minus,dotcolour,alfa,,,113,19,V,R,
113,113,29,2,0,33,47,7617,['n'],1,right,['3'],4,1088,[-0.2473296],89,47,medium,minus,dotcolour,alfa,,,113,19,V,R,
114,114,30,2,0,44,36,884,['c'],1,left,['1'],6,274,[0.1544764],93,44,hard,minus,dotcolour,alfa,,,113,19,V,R,
115,115,31,2,0,44,36,1533,['c'],1,left,['3'],4,739,[0.03875754],60,44,hard,minus,dotcolour,alfa,,,113,19,V,R,
116,116,32,2,0,44,36,2883,['n'],0,left,['3'],4,658,[-0.05183927],64,44,hard,minus,dotcolour,alfa,,,113,19,V,R,
117,117,33,2,0,33,47,2717,['n'],1,right,['3'],4,284,[-0.12411704],89,47,medium,minus,dotcolour,alfa,,,113,19,V,R,
118,118,34,2,0,44,36,1083,['c'],1,left,['2'],5,600,[0.00361128],51,44,hard,minus,dotcolour,alfa,,,113,19,V,R,
119,119,35,2,0,27,53,1367,['n'],1,right,['2'],5,730,[-0.15528867],84,53,easy,minus,dotcolour,alfa,,,113,19,V,R,
120,120,36,2,0,47,33,883,['c'],1,left,['2'],5,394,[0.1683395],92,47,medium,minus,dotcolour,alfa,,,113,19,V,R,
121,121,37,2,0,33,47,1384,['n'],1,right,['3'],4,1269,[-0.20138564],83,47,medium,minus,dotcolour,alfa,,,113,19,V,R,
122,122,38,2,0,36,44,3101,['n'],1,right,['3'],4,1455,[-0.42061599],96,44,hard,minus,dotcolour,alfa,,,113,19,V,R,
123,123,39,2,0,53,27,883,['c'],1,left,['1'],6,298,[0.16537795],94,53,easy,minus,dotcolour,alfa,,,113,19,V,R,
124,124,40,2,0,53,27,1033,['c'],1,left,['1'],6,359,[0.10952854],84,53,easy,minus,dotcolour,alfa,,,113,19,V,R,
125,125,41,2,0,33,47,1051,['n'],1,right,['2'],5,599,[-0.23445453],94,47,medium,minus,dotcolour,alfa,,,113,19,V,R,
126,0,0,3,1,27,53,1483,['n'],1,right,['1'],6,469,[-0.10080446],100,53,easy,plus,dotcolour,alfa,,,113,19,V,R,
127,1,1,3,1,33,47,1600,['n'],1,right,['3'],4,893,[-0.06042346],91,47,medium,plus,dotcolour,alfa,,,113,19,V,R,
128,2,2,3,1,33,47,1001,['n'],1,right,['2'],5,305,[-0.10433226],100,47,medium,plus,dotcolour,alfa,,,113,19,V,R,
129,3,3,3,1,44,36,3718,['c'],1,left,['3'],4,201,[0.08875499],100,44,hard,plus,dotcolour,alfa,,,113,19,V,R,
130,4,4,3,1,53,27,2834,['c'],1,left,['2'],5,786,[0.07008423],95,53,easy,plus,dotcolour,alfa,,,113,19,V,R,
131,5,5,3,1,36,44,3050,['n'],1,right,['3'],4,2033,[-0.16085265],98,44,hard,plus,dotcolour,alfa,,,113,19,V,R,
132,6,6,3,1,27,53,883,['n'],1,right,['2'],5,581,[-0.07187699],97,53,easy,plus,dotcolour,alfa,,,113,19,V,R,
133,7,7,3,1,27,53,2067,['n'],1,right,['2'],5,1037,[0.02594836],29,53,easy,plus,dotcolour,alfa,,,113,19,V,R,
134,8,8,3,1,44,36,2017,['c'],1,left,['2'],5,643,[0.05331995],92,44,hard,plus,dotcolour,alfa,,,113,19,V,R,
135,9,9,3,1,47,33,1716,['c'],1,left,['3'],4,630,[0.25893704],100,47,medium,plus,dotcolour,alfa,,,113,19,V,R,
136,10,10,3,1,47,33,1250,['c'],1,left,['1'],6,668,[0.11513618],99,47,medium,plus,dotcolour,alfa,,,113,19,V,R,
137,11,11,3,1,47,33,1033,['c'],1,left,['1'],6,2153,[0.323843],100,47,medium,plus,dotcolour,alfa,,,113,19,V,R,
138,12,12,3,1,27,53,900,['n'],1,right,['3'],4,1096,[-0.1586452],100,53,easy,plus,dotcolour,alfa,,,113,19,V,R,
139,13,13,3,1,36,44,833,['n'],1,right,['2'],5,660,[-0.06869229],95,44,hard,plus,dotcolour,alfa,,,113,19,V,R,
140,14,14,3,1,53,27,1132,['c'],1,left,['1'],6,693,[0.17625904],100,53,easy,plus,dotcolour,alfa,,,113,19,V,R,
141,15,15,3,1,44,36,834,['c'],1,left,['1'],6,249,[0.00796844],64,44,hard,plus,dotcolour,alfa,,,113,19,V,R,
142,16,16,3,1,44,36,1700,['c'],1,left,['2'],5,445,[0.09703946],99,44,hard,plus,dotcolour,alfa,,,113,19,V,R,
143,17,17,3,1,27,53,800,['n'],1,right,['1'],6,396,[-0.11014806],100,53,easy,plus,dotcolour,alfa,,,113,19,V,R,
144,18,18,3,1,53,27,950,['c'],1,left,['1'],6,431,[0.06409247],97,53,easy,plus,dotcolour,alfa,,,113,19,V,R,
145,19,19,3,1,47,33,2100,['c'],1,left,['1'],6,748,[0.03457215],81,47,medium,plus,dotcolour,alfa,,,113,19,V,R,
146,20,20,3,1,36,44,1417,['n'],1,right,['3'],4,798,[-0.11322317],99,44,hard,plus,dotcolour,alfa,,,113,19,V,R,
147,21,21,3,1,36,44,1216,['n'],1,right,['1'],6,263,[-0.08819295],100,44,hard,plus,dotcolour,alfa,,,113,19,V,R,
148,22,22,3,1,53,27,851,['c'],1,left,['1'],6,548,[0.00806274],60,53,easy,plus,dotcolour,alfa,,,113,19,V,R,
149,23,23,3,1,47,33,1650,['c'],1,left,['2'],5,445,[0.15314742],100,47,medium,plus,dotcolour,alfa,,,113,19,V,R,
150,24,24,3,1,53,27,800,['c'],1,left,['1'],6,228,[0.11821951],100,53,easy,plus,dotcolour,alfa,,,113,19,V,R,
151,25,25,3,1,33,47,883,['n'],1,right,['1'],6,633,[-0.03802201],85,47,medium,plus,dotcolour,alfa,,,113,19,V,R,
152,26,26,3,1,36,44,967,['c'],0,right,['2'],5,1002,[0.04636104],84,44,hard,plus,dotcolour,alfa,,,113,19,V,R,
153,27,27,3,1,27,53,717,['n'],1,right,['1'],6,190,[-0.11569559],100,53,easy,plus,dotcolour,alfa,,,113,19,V,R,
154,28,28,3,1,47,33,1399,['c'],1,left,['2'],5,320,[0.14794311],100,47,medium,plus,dotcolour,alfa,,,113,19,V,R,
155,29,29,3,1,33,47,999,['n'],1,right,['2'],5,437,[-0.12756901],100,47,medium,plus,dotcolour,alfa,,,113,19,V,R,
156,30,30,3,1,27,53,718,['n'],1,right,['1'],6,360,[-0.21764308],100,53,easy,plus,dotcolour,alfa,,,113,19,V,R,
157,31,31,3,1,44,36,1350,['c'],1,left,['3'],4,1116,[0.25573875],100,44,hard,plus,dotcolour,alfa,,,113,19,V,R,
158,32,32,3,1,47,33,884,['c'],1,left,['2'],5,494,[0.1571749],100,47,medium,plus,dotcolour,alfa,,,113,19,V,R,
159,33,33,3,1,36,44,1001,['n'],1,right,['3'],4,1803,[-0.30458674],100,44,hard,plus,dotcolour,alfa,,,113,19,V,R,
160,34,34,3,1,53,27,817,['c'],1,left,['1'],6,267,[0.06547176],99,53,easy,plus,dotcolour,alfa,,,113,19,V,R,
161,35,35,3,1,53,27,900,['c'],1,left,['1'],6,574,[0.1801022],100,53,easy,plus,dotcolour,alfa,,,113,19,V,R,
162,36,36,3,1,33,47,750,['n'],1,right,['3'],4,3706,[-0.45034446],100,47,medium,plus,dotcolour,alfa,,,113,19,V,R,
163,37,37,3,1,33,47,1617,['n'],1,right,['3'],4,1181,[-0.33684562],100,47,medium,plus,dotcolour,alfa,,,113,19,V,R,
164,38,38,3,1,36,44,3233,['n'],1,right,['3'],4,973,[-0.03744138],80,44,hard,plus,dotcolour,alfa,,,113,19,V,R,
165,39,39,3,1,33,47,683,['n'],1,right,['2'],5,1108,[-0.30856018],100,47,medium,plus,dotcolour,alfa,,,113,19,V,R,
166,40,40,3,1,44,36,900,['c'],1,left,['1'],6,1045,[0.00939],58,44,hard,plus,dotcolour,alfa,,,113,19,V,R,
167,41,41,3,1,44,36,1433,['n'],0,left,['3'],4,1251,[-0.03487264],75,44,hard,plus,dotcolour,alfa,,,113,19,V,R,
168,42,0,4,1,44,36,7017,['c'],1,left,['3'],4,2983,[0.29433807],100,44,hard,plus,dotcolour,alfa,,,113,19,V,R,
169,43,1,4,1,53,27,867,['c'],1,left,['2'],5,1054,[0.1579516],100,53,easy,plus,dotcolour,alfa,,,113,19,V,R,
170,44,2,4,1,27,53,651,['n'],1,right,['2'],5,227,[-0.08015826],100,53,easy,plus,dotcolour,alfa,,,113,19,V,R,
171,45,3,4,1,44,36,1299,['c'],1,left,['2'],5,1438,[0.15452938],99,44,hard,plus,dotcolour,alfa,,,113,19,V,R,
172,46,4,4,1,36,44,983,['n'],1,right,['1'],6,407,[0.01962831],25,44,hard,plus,dotcolour,alfa,,,113,19,V,R,
173,47,5,4,1,27,53,1050,['n'],1,right,['2'],5,1021,[-0.33525887],100,53,easy,plus,dotcolour,alfa,,,113,19,V,R,
174,48,6,4,1,47,33,917,['c'],1,left,['1'],6,193,[0.09254072],100,47,medium,plus,dotcolour,alfa,,,113,19,V,R,
175,49,7,4,1,36,44,1816,['c'],0,right,['3'],4,945,[-0.06109098],9,44,hard,plus,dotcolour,alfa,,,113,19,V,R,
176,50,8,4,1,44,36,4950,['n'],0,left,['8'],3,151,[-0.09933947],100,44,hard,plus,dotcolour,alfa,,,113,19,V,R,
177,51,9,4,1,47,33,1483,['c'],1,left,['2'],5,1087,[0.19786985],100,47,medium,plus,dotcolour,alfa,,,113,19,V,R,
178,52,10,4,1,27,53,917,['n'],1,right,['2'],5,1072,[-0.20570832],100,53,easy,plus,dotcolour,alfa,,,113,19,V,R,
179,53,11,4,1,53,27,1101,['c'],1,left,['2'],5,985,[0.03514144],78,53,easy,plus,dotcolour,alfa,,,113,19,V,R,
180,54,12,4,1,36,44,850,['n'],1,right,['3'],4,417,[-0.10827952],100,44,hard,plus,dotcolour,alfa,,,113,19,V,R,
181,55,13,4,1,33,47,3200,['n'],1,right,['8'],3,914,[-0.16565026],100,47,medium,plus,dotcolour,alfa,,,113,19,V,R,
182,56,14,4,1,47,33,1118,['c'],1,left,['2'],5,850,[0.15956871],100,47,medium,plus,dotcolour,alfa,,,113,19,V,R,
183,57,15,4,1,53,27,1533,['c'],1,left,['3'],4,436,[0.2319026],100,53,easy,plus,dotcolour,alfa,,,113,19,V,R,
184,58,16,4,1,44,36,1434,['c'],1,left,['3'],4,1562,[0.1806355],99,44,hard,plus,dotcolour,alfa,,,113,19,V,R,
185,59,17,4,1,53,27,917,['c'],1,left,['1'],6,2072,[0.15692686],98,53,easy,plus,dotcolour,alfa,,,113,19,V,R,
186,60,18,4,1,27,53,1034,['n'],1,right,['2'],5,477,[-0.10571184],100,53,easy,plus,dotcolour,alfa,,,113,19,V,R,
187,61,19,4,1,44,36,2967,['c'],1,left,['3'],4,12,[0.06831369],100,44,hard,plus,dotcolour,alfa,,,113,19,V,R,
188,62,20,4,1,27,53,3517,['n'],1,right,['2'],5,1864,[-0.19426772],99,53,easy,plus,dotcolour,alfa,,,113,19,V,R,
189,63,21,4,1,33,47,3316,['n'],1,right,['3'],4,905,[-0.18401943],100,47,medium,plus,dotcolour,alfa,,,113,19,V,R,
190,64,22,4,1,47,33,916,['c'],1,left,['2'],5,858,[0.10878057],99,47,medium,plus,dotcolour,alfa,,,113,19,V,R,
191,65,23,4,1,44,36,2066,['c'],1,left,['2'],5,461,[0.13629914],100,44,hard,plus,dotcolour,alfa,,,113,19,V,R,
192,66,24,4,1,36,44,1483,['c'],0,right,['3'],4,641,[-0.24937899],0,44,hard,plus,dotcolour,alfa,,,113,19,V,R,
193,67,25,4,1,47,33,1084,['c'],1,left,['2'],5,293,[0.07284072],99,47,medium,plus,dotcolour,alfa,,,113,19,V,R,
194,68,26,4,1,36,44,1066,['n'],1,right,['3'],4,663,[-0.13610862],100,44,hard,plus,dotcolour,alfa,,,113,19,V,R,
195,69,27,4,1,33,47,1049,['n'],1,right,['3'],4,716,[-0.01162096],62,47,medium,plus,dotcolour,alfa,,,113,19,V,R,
196,70,28,4,1,44,36,3149,['c'],1,left,['2'],5,1307,[0.0545288],85,44,hard,plus,dotcolour,alfa,,,113,19,V,R,
197,71,29,4,1,36,44,850,['n'],1,right,['2'],5,526,[-0.12047283],100,44,hard,plus,dotcolour,alfa,,,113,19,V,R,
198,72,30,4,1,33,47,666,['n'],1,right,['2'],5,351,[-0.16669798],100,47,medium,plus,dotcolour,alfa,,,113,19,V,R,
199,73,31,4,1,33,47,2967,['c'],0,right,['3'],4,700,[-0.0276363],23,47,medium,plus,dotcolour,alfa,,,113,19,V,R,
200,74,32,4,1,53,27,1284,['c'],1,left,['1'],6,230,[0.17599627],100,53,easy,plus,dotcolour,alfa,,,113,19,V,R,
201,75,33,4,1,33,47,1766,['n'],1,right,['3'],4,1223,[-0.365559],100,47,medium,plus,dotcolour,alfa,,,113,19,V,R,
202,76,34,4,1,33,47,1401,['n'],1,right,['3'],4,2527,[-0.15282752],97,47,medium,plus,dotcolour,alfa,,,113,19,V,R,
203,77,35,4,1,27,53,2117,['n'],1,right,['2'],5,182,[-0.05498443],99,53,easy,plus,dotcolour,alfa,,,113,19,V,R,
204,78,36,4,1,36,44,1717,['c'],0,right,['3'],4,1147,[-0.01190067],40,44,hard,plus,dotcolour,alfa,,,113,19,V,R,
205,79,37,4,1,27,53,999,['n'],1,right,['3'],4,3230,[-0.43212262],100,53,easy,plus,dotcolour,alfa,,,113,19,V,R,
206,80,38,4,1,53,27,966,['c'],1,left,['1'],6,311,[0.0893081],100,53,easy,plus,dotcolour,alfa,,,113,19,V,R,
207,81,39,4,1,47,33,1334,['c'],1,left,['2'],5,542,[0.27008359],100,47,medium,plus,dotcolour,alfa,,,113,19,V,R,
208,82,40,4,1,53,27,1200,['c'],1,left,['2'],5,386,[0.15276958],100,53,easy,plus,dotcolour,alfa,,,113,19,V,R,
209,83,41,4,1,47,33,1266,['c'],1,left,['3'],4,722,[0.11076631],99,47,medium,plus,dotcolour,alfa,,,113,19,V,R,
210,84,0,5,1,47,33,1551,['c'],1,left,['2'],5,4059,[0.31124769],100,47,medium,plus,dotcolour,alfa,,,113,19,V,R,
211,85,1,5,1,33,47,983,['n'],1,right,['2'],5,258,[-0.09677891],100,47,medium,plus,dotcolour,alfa,,,113,19,V,R,
212,86,2,5,1,27,53,684,['n'],1,right,['1'],6,253,[-0.12125424],100,53,easy,plus,dotcolour,alfa,,,113,19,V,R,
213,87,3,5,1,27,53,716,['n'],1,right,['2'],5,672,[-0.01567354],67,53,easy,plus,dotcolour,alfa,,,113,19,V,R,
214,88,4,5,1,33,47,983,['n'],1,right,['2'],5,711,[-0.13290389],100,47,medium,plus,dotcolour,alfa,,,113,19,V,R,
215,89,5,5,1,27,53,583,['n'],1,right,['1'],6,324,[-0.05857257],98,53,easy,plus,dotcolour,alfa,,,113,19,V,R,
216,90,6,5,1,33,47,1517,['n'],1,right,['3'],4,332,[-0.0858775],100,47,medium,plus,dotcolour,alfa,,,113,19,V,R,
217,91,7,5,1,33,47,1400,['c'],0,right,['3'],4,1504,[0.01752805],63,47,medium,plus,dotcolour,alfa,,,113,19,V,R,
218,92,8,5,1,53,27,2383,['c'],1,left,['2'],5,469,[0.16444478],100,53,easy,plus,dotcolour,alfa,,,113,19,V,R,
219,93,9,5,1,47,33,1001,['c'],1,left,['1'],6,179,[0.11041951],100,47,medium,plus,dotcolour,alfa,,,113,19,V,R,
220,94,10,5,1,53,27,900,['c'],1,left,['2'],5,545,[0.17282974],100,53,easy,plus,dotcolour,alfa,,,113,19,V,R,
221,95,11,5,1,44,36,1550,['c'],1,left,['3'],4,711,[0.1623771],100,44,hard,plus,dotcolour,alfa,,,113,19,V,R,
222,96,12,5,1,36,44,1834,['c'],0,right,['3'],4,490,[0.0822481],99,44,hard,plus,dotcolour,alfa,,,113,19,V,R,
223,97,13,5,1,44,36,1434,['c'],1,left,['8'],3,5199,[0.38464452],100,44,hard,plus,dotcolour,alfa,,,113,19,V,R,
224,98,14,5,1,33,47,1283,['n'],1,right,['3'],4,1643,[-0.3219353],100,47,medium,plus,dotcolour,alfa,,,113,19,V,R,
225,99,15,5,1,44,36,3900,['c'],1,left,['3'],4,1543,[0.16212958],99,44,hard,plus,dotcolour,alfa,,,113,19,V,R,
226,100,16,5,1,27,53,1884,['n'],1,right,['2'],5,342,[-0.11747675],100,53,easy,plus,dotcolour,alfa,,,113,19,V,R,
227,101,17,5,1,53,27,917,['c'],1,left,['2'],5,294,[0.00650002],61,53,easy,plus,dotcolour,alfa,,,113,19,V,R,
228,102,18,5,1,47,33,1299,['c'],1,left,['2'],5,719,[0.21850352],100,47,medium,plus,dotcolour,alfa,,,113,19,V,R,
229,103,19,5,1,33,47,1200,['c'],0,right,['2'],5,315,[0.05441691],97,47,medium,plus,dotcolour,alfa,,,113,19,V,R,
230,104,20,5,1,53,27,950,['c'],1,left,['3'],4,849,[0.22234756],100,53,easy,plus,dotcolour,alfa,,,113,19,V,R,
231,105,21,5,1,27,53,900,['n'],1,right,['8'],3,3637,[-0.97867813],100,53,easy,plus,dotcolour,alfa,,,113,19,V,R,
232,106,22,5,1,33,47,3667,['n'],1,right,['8'],3,769,[-0.09939494],98,47,medium,plus,dotcolour,alfa,,,113,19,V,R,
233,107,23,5,1,44,36,733,['n'],0,left,['2'],5,1126,[0.05025796],15,44,hard,plus,dotcolour,alfa,,,113,19,V,R,
234,108,24,5,1,47,33,1666,['c'],1,left,['2'],5,607,[0.13640701],100,47,medium,plus,dotcolour,alfa,,,113,19,V,R,
235,109,25,5,1,47,33,1034,['c'],1,left,['3'],4,1063,[0.13593089],99,47,medium,plus,dotcolour,alfa,,,113,19,V,R,
236,110,26,5,1,36,44,2117,['c'],0,right,['3'],4,1216,[-0.07999347],7,44,hard,plus,dotcolour,alfa,,,113,19,V,R,
237,111,27,5,1,36,44,1184,['n'],1,right,['2'],5,1913,[-0.50101283],100,44,hard,plus,dotcolour,alfa,,,113,19,V,R,
238,112,28,5,1,36,44,733,['n'],1,right,['2'],5,344,[-0.12626554],100,44,hard,plus,dotcolour,alfa,,,113,19,V,R,
239,113,29,5,1,44,36,1733,['c'],1,left,['3'],4,838,[0.15647882],100,44,hard,plus,dotcolour,alfa,,,113,19,V,R,
240,114,30,5,1,47,33,1034,['c'],1,left,['2'],5,260,[0.08494963],100,47,medium,plus,dotcolour,alfa,,,113,19,V,R,
241,115,31,5,1,53,27,917,['c'],1,left,['1'],6,1174,[0.16013382],100,53,easy,plus,dotcolour,alfa,,,113,19,V,R,
242,116,32,5,1,36,44,4650,['c'],0,right,['3'],4,1126,[-0.02510182],30,44,hard,plus,dotcolour,alfa,,,113,19,V,R,
243,117,33,5,1,53,27,884,['c'],1,left,['2'],5,670,[0.07512877],96,53,easy,plus,dotcolour,alfa,,,113,19,V,R,
244,118,34,5,1,44,36,900,['c'],1,left,['2'],5,673,[0.11234543],99,44,hard,plus,dotcolour,alfa,,,113,19,V,R,
245,119,35,5,1,36,44,1100,['n'],1,right,['2'],5,835,[-0.17223144],100,44,hard,plus,dotcolour,alfa,,,113,19,V,R,
246,120,36,5,1,36,44,700,['n'],1,right,['8'],3,2630,[-0.2318825],99,44,hard,plus,dotcolour,alfa,,,113,19,V,R,
247,121,37,5,1,27,53,2100,['n'],1,right,['2'],5,1057,[-0.14477354],99,53,easy,plus,dotcolour,alfa,,,113,19,V,R,
248,122,38,5,1,44,36,1033,['c'],1,left,['2'],5,823,[0.00489609],55,44,hard,plus,dotcolour,alfa,,,113,19,V,R,
249,123,39,5,1,53,27,1283,['c'],1,left,['1'],6,187,[0.09410132],100,53,easy,plus,dotcolour,alfa,,,113,19,V,R,
250,124,40,5,1,47,33,1750,['c'],1,left,['2'],5,223,[0.11569206],100,47,medium,plus,dotcolour,alfa,,,113,19,V,R,
251,125,41,5,1,27,53,4000,['n'],1,right,['3'],4,2264,[-0.44228528],100,53,easy,plus,dotcolour,alfa,,,113,19,V,R,
252,0,0,6,2,44,36,1134,['c'],1,left,['2'],5,502,[0.10992031],80,44,hard,minus,dotcolour,alfa,,,113,19,V,R,
253,1,1,6,2,53,27,749,['c'],1,left,['1'],6,149,[0.10167342],91,53,easy,minus,dotcolour,alfa,,,113,19,V,R,
254,2,2,6,2,44,36,1234,['c'],1,left,['2'],5,479,[0.08838806],76,44,hard,minus,dotcolour,alfa,,,113,19,V,R,
255,3,3,6,2,27,53,1317,['n'],1,right,['2'],5,577,[-0.15626713],86,53,easy,minus,dotcolour,alfa,,,113,19,V,R,
256,4,4,6,2,47,33,934,['c'],1,left,['1'],6,301,[0.0730733],77,47,medium,minus,dotcolour,alfa,,,113,19,V,R,
257,5,5,6,2,44,36,1067,['c'],1,left,['2'],5,280,[0.07207209],77,44,hard,minus,dotcolour,alfa,,,113,19,V,R,
258,6,6,6,2,33,47,1450,['n'],1,right,['3'],4,676,[-0.12374528],79,47,medium,minus,dotcolour,alfa,,,113,19,V,R,
259,7,7,6,2,47,33,1134,['c'],1,left,['2'],5,309,[0.10644709],85,47,medium,minus,dotcolour,alfa,,,113,19,V,R,
260,8,8,6,2,44,36,983,['c'],1,left,['2'],5,322,[0.125619],88,44,hard,minus,dotcolour,alfa,,,113,19,V,R,
261,9,9,6,2,47,33,734,['c'],1,left,['1'],6,392,[0.04936497],67,47,medium,minus,dotcolour,alfa,,,113,19,V,R,
262,10,10,6,2,36,44,1700,['c'],0,right,['3'],4,2422,[-0.14075371],31,44,hard,minus,dotcolour,alfa,,,113,19,V,R,
263,11,11,6,2,27,53,833,['n'],1,right,['2'],5,309,[-0.09298312],82,53,easy,minus,dotcolour,alfa,,,113,19,V,R,
264,12,12,6,2,36,44,684,['n'],1,right,['2'],5,1302,[-0.15398008],77,44,hard,minus,dotcolour,alfa,,,113,19,V,R,
265,13,13,6,2,27,53,700,['n'],1,right,['2'],5,1223,[-0.18693023],82,53,easy,minus,dotcolour,alfa,,,113,19,V,R,
266,14,14,6,2,27,53,650,['n'],1,right,['1'],6,197,[-0.0435617],71,53,easy,minus,dotcolour,alfa,,,113,19,V,R,
267,15,15,6,2,47,33,4617,['c'],1,left,['3'],4,2582,[0.29680684],84,47,medium,minus,dotcolour,alfa,,,113,19,V,R,
268,16,16,6,2,53,27,1117,['c'],1,left,['2'],5,354,[0.11432114],85,53,easy,minus,dotcolour,alfa,,,113,19,V,R,
269,17,17,6,2,36,44,1500,['n'],1,right,['2'],5,1971,[-0.35097355],90,44,hard,minus,dotcolour,alfa,,,113,19,V,R,
270,18,18,6,2,47,33,1017,['c'],1,left,['2'],5,707,[0.21192543],91,47,medium,minus,dotcolour,alfa,,,113,19,V,R,
271,19,19,6,2,27,53,1167,['n'],1,right,['1'],6,129,[-0.04566775],76,53,easy,minus,dotcolour,alfa,,,113,19,V,R,
272,20,20,6,2,44,36,1900,['c'],1,left,['2'],5,809,[0.10284784],74,44,hard,minus,dotcolour,alfa,,,113,19,V,R,
273,21,21,6,2,47,33,917,['c'],1,left,['2'],5,245,[0.15837742],95,47,medium,minus,dotcolour,alfa,,,113,19,V,R,
274,22,22,6,2,33,47,1783,['n'],1,right,['9'],2,3597,[-0.54803842],93,47,medium,minus,dotcolour,alfa,,,113,19,V,R,
275,23,23,6,2,27,53,1001,['n'],1,right,['1'],6,446,[-0.0820036],75,53,easy,minus,dotcolour,alfa,,,113,19,V,R,
276,24,24,6,2,53,27,950,['c'],1,left,['1'],6,175,[0.05827328],78,53,easy,minus,dotcolour,alfa,,,113,19,V,R,
277,25,25,6,2,36,44,1783,['c'],0,right,['3'],4,922,[0.05764937],63,44,hard,minus,dotcolour,alfa,,,113,19,V,R,
278,26,26,6,2,47,33,3583,['c'],1,left,['3'],4,3726,[0.48709026],91,47,medium,minus,dotcolour,alfa,,,113,19,V,R,
279,27,27,6,2,44,36,3600,['n'],0,left,['0'],1,2114,[-0.06172449],59,44,hard,minus,dotcolour,alfa,,,113,19,V,R,
280,28,28,6,2,53,27,11583,['n'],0,left,['3'],4,495,[-0.01047911],53,53,easy,minus,dotcolour,alfa,,,113,19,V,R,
281,29,29,6,2,33,47,2884,['c'],0,right,['3'],4,737,[-0.09998532],26,47,medium,minus,dotcolour,alfa,,,113,19,V,R,
282,30,30,6,2,53,27,1216,['c'],1,left,['2'],5,147,[0.07715038],86,53,easy,minus,dotcolour,alfa,,,113,19,V,R,
283,31,31,6,2,53,27,666,['c'],1,left,['1'],6,332,[0.1363971],89,53,easy,minus,dotcolour,alfa,,,113,19,V,R,
284,32,32,6,2,33,47,950,['n'],1,right,['1'],6,378,[-0.13879957],88,47,medium,minus,dotcolour,alfa,,,113,19,V,R,
285,33,33,6,2,53,27,1333,['c'],1,left,['2'],5,391,[0.15657922],90,53,easy,minus,dotcolour,alfa,,,113,19,V,R,
286,34,34,6,2,36,44,1966,['n'],1,right,['3'],4,922,[-0.08360235],69,44,hard,minus,dotcolour,alfa,,,113,19,V,R,
287,35,35,6,2,27,53,917,['n'],1,right,['1'],6,473,[-0.11526762],82,53,easy,minus,dotcolour,alfa,,,113,19,V,R,
288,36,36,6,2,36,44,766,['n'],1,right,['2'],5,496,[-0.12783533],84,44,hard,minus,dotcolour,alfa,,,113,19,V,R,
289,37,37,6,2,33,47,816,['n'],1,right,['2'],5,725,[-0.2100474],90,47,medium,minus,dotcolour,alfa,,,113,19,V,R,
290,38,38,6,2,33,47,750,['n'],1,right,['2'],5,2803,[-0.33953521],86,47,medium,minus,dotcolour,alfa,,,113,19,V,R,
291,39,39,6,2,44,36,1500,['c'],1,left,['2'],5,743,[0.01777624],55,44,hard,minus,dotcolour,alfa,,,113,19,V,R,
292,40,40,6,2,36,44,1283,['c'],0,right,['2'],5,471,[0.02433864],58,44,hard,minus,dotcolour,alfa,,,113,19,V,R,
293,41,41,6,2,33,47,1300,['n'],1,right,['3'],4,1313,[-0.29160494],91,47,medium,minus,dotcolour,alfa,,,113,19,V,R,
294,42,0,7,2,47,33,1150,['c'],1,left,['2'],5,936,[0.13668285],78,47,medium,minus,dotcolour,alfa,,,113,19,V,R,
295,43,1,7,2,44,36,1035,['n'],0,left,['3'],4,210,[0.05089337],27,44,hard,minus,dotcolour,alfa,,,113,19,V,R,
296,44,2,7,2,47,33,1183,['c'],1,left,['2'],5,1003,[0.22669528],88,47,medium,minus,dotcolour,alfa,,,113,19,V,R,
297,45,3,7,2,27,53,1317,['n'],1,right,['3'],4,1864,[-0.09638235],65,53,easy,minus,dotcolour,alfa,,,113,19,V,R,
298,46,4,7,2,33,47,733,['n'],1,right,['2'],5,744,[-0.06406204],66,47,medium,minus,dotcolour,alfa,,,113,19,V,R,
299,47,5,7,2,53,27,966,['c'],1,left,['2'],5,453,[0.10207358],80,53,easy,minus,dotcolour,alfa,,,113,19,V,R,
300,48,6,7,2,36,44,2151,['n'],1,right,['2'],5,863,[-0.11371042],75,44,hard,minus,dotcolour,alfa,,,113,19,V,R,
301,49,7,7,2,27,53,967,['n'],1,right,['1'],6,159,[-0.09671306],90,53,easy,minus,dotcolour,alfa,,,113,19,V,R,
302,50,8,7,2,53,27,833,['c'],1,left,['2'],5,1144,[0.30050083],93,53,easy,minus,dotcolour,alfa,,,113,19,V,R,
303,51,9,7,2,47,33,967,['c'],1,left,['2'],5,1077,[0.26383294],91,47,medium,minus,dotcolour,alfa,,,113,19,V,R,
304,52,10,7,2,53,27,750,['c'],1,left,['2'],5,404,[0.04721239],66,53,easy,minus,dotcolour,alfa,,,113,19,V,R,
305,53,11,7,2,53,27,700,['c'],1,left,['1'],6,593,[0.1481648],85,53,easy,minus,dotcolour,alfa,,,113,19,V,R,
306,54,12,7,2,47,33,1568,['c'],1,left,['2'],5,988,[0.18520765],84,47,medium,minus,dotcolour,alfa,,,113,19,V,R,
307,55,13,7,2,47,33,1184,['c'],1,left,['2'],5,678,[0.15224035],84,47,medium,minus,dotcolour,alfa,,,113,19,V,R,
308,56,14,7,2,44,36,1801,['c'],1,left,['3'],4,740,[0.02900724],58,44,hard,minus,dotcolour,alfa,,,113,19,V,R,
309,57,15,7,2,44,36,917,['c'],1,left,['2'],5,458,[0.05785283],68,44,hard,minus,dotcolour,alfa,,,113,19,V,R,
310,58,16,7,2,33,47,1016,['n'],1,right,['3'],4,2969,[-0.49327667],93,47,medium,minus,dotcolour,alfa,,,113,19,V,R,
311,59,17,7,2,44,36,3400,['c'],1,left,['3'],4,2882,[-0.11900291],35,44,hard,minus,dotcolour,alfa,,,113,19,V,R,
312,60,18,7,2,53,27,984,['c'],1,left,['1'],6,104,[0.07234792],88,53,easy,minus,dotcolour,alfa,,,113,19,V,R,
313,61,19,7,2,33,47,1367,['n'],1,right,['2'],5,631,[-0.07327231],70,47,medium,minus,dotcolour,alfa,,,113,19,V,R,
314,62,20,7,2,36,44,1984,['c'],0,right,['2'],5,239,[0.05019323],72,44,hard,minus,dotcolour,alfa,,,113,19,V,R,
315,63,21,7,2,27,53,800,['n'],1,right,['2'],5,559,[-0.20034902],92,53,easy,minus,dotcolour,alfa,,,113,19,V,R,
316,64,22,7,2,44,36,1334,['c'],1,left,['3'],4,796,[0.11640012],76,44,hard,minus,dotcolour,alfa,,,113,19,V,R,
317,65,23,7,2,36,44,2633,['c'],0,right,['2'],5,644,[0.19722409],90,44,hard,minus,dotcolour,alfa,,,113,19,V,R,
318,66,24,7,2,53,27,967,['c'],1,left,['2'],5,1197,[0.05200098],61,53,easy,minus,dotcolour,alfa,,,113,19,V,R,
319,67,25,7,2,27,53,1049,['n'],1,right,['2'],5,1444,[-0.33148646],92,53,easy,minus,dotcolour,alfa,,,113,19,V,R,
320,68,26,7,2,47,33,866,['c'],1,left,['2'],5,449,[0.11369145],82,47,medium,minus,dotcolour,alfa,,,113,19,V,R,
321,69,27,7,2,33,47,2066,['n'],1,right,['3'],4,1917,[-0.47870646],96,47,medium,minus,dotcolour,alfa,,,113,19,V,R,
322,70,28,7,2,36,44,1133,['c'],0,right,['2'],5,252,[0.14731846],93,44,hard,minus,dotcolour,alfa,,,113,19,V,R,
323,71,29,7,2,47,33,1400,['n'],0,left,['9'],2,1859,[-0.02526152],54,47,medium,minus,dotcolour,alfa,,,113,19,V,R,
324,72,30,7,2,27,53,1367,['n'],1,right,['2'],5,907,[-0.12871942],77,53,easy,minus,dotcolour,alfa,,,113,19,V,R,
325,73,31,7,2,27,53,2333,['n'],1,right,['3'],4,2562,[-0.53285647],95,53,easy,minus,dotcolour,alfa,,,113,19,V,R,
326,74,32,7,2,36,44,4783,['n'],1,right,['8'],3,4486,[-0.49162071],89,44,hard,minus,dotcolour,alfa,,,113,19,V,R,
327,75,33,7,2,33,47,2900,['n'],1,right,['2'],5,1366,[-0.17065518],79,47,medium,minus,dotcolour,alfa,,,113,19,V,R,
328,76,34,7,2,36,44,1300,['c'],0,right,['3'],4,612,[0.10516318],77,44,hard,minus,dotcolour,alfa,,,113,19,V,R,
329,77,35,7,2,33,47,798,['n'],1,right,['2'],5,892,[-0.11483282],75,47,medium,minus,dotcolour,alfa,,,113,19,V,R,
330,78,36,7,2,36,44,2500,['n'],1,right,['3'],4,1166,[-0.09433988],69,44,hard,minus,dotcolour,alfa,,,113,19,V,R,
331,79,37,7,2,27,53,751,['n'],1,right,['1'],6,618,[-0.23016265],93,53,easy,minus,dotcolour,alfa,,,113,19,V,R,
332,80,38,7,2,33,47,1567,['n'],1,right,['3'],4,1284,[-0.43426341],97,47,medium,minus,dotcolour,alfa,,,113,19,V,R,
333,81,39,7,2,44,36,4416,['n'],0,left,['2'],5,2233,[0.02479642],46,44,hard,minus,dotcolour,alfa,,,113,19,V,R,
334,82,40,7,2,53,27,1100,['c'],1,left,['1'],6,276,[0.07762123],79,53,easy,minus,dotcolour,alfa,,,113,19,V,R,
335,83,41,7,2,44,36,1184,['c'],1,left,['2'],5,451,[0.14116933],87,44,hard,minus,dotcolour,alfa,,,113,19,V,R,
336,84,0,8,2,44,36,2051,['n'],0,left,['3'],4,634,[-0.1623128],86,44,hard,minus,dotcolour,alfa,,,113,19,V,R,
337,85,1,8,2,44,36,4299,['c'],1,left,['3'],4,7814,[0.67890428],90,44,hard,minus,dotcolour,alfa,,,113,19,V,R,
338,86,2,8,2,44,36,900,['c'],1,left,['2'],5,384,[0.20126288],95,44,hard,minus,dotcolour,alfa,,,113,19,V,R,
339,87,3,8,2,53,27,1466,['c'],1,left,['2'],5,432,[0.04553645],65,53,easy,minus,dotcolour,alfa,,,113,19,V,R,
340,88,4,8,2,36,44,834,['n'],1,right,['2'],5,447,[-0.01203036],54,44,hard,minus,dotcolour,alfa,,,113,19,V,R,
341,89,5,8,2,33,47,1334,['n'],1,right,['3'],4,529,[-0.08725761],75,47,medium,minus,dotcolour,alfa,,,113,19,V,R,
342,90,6,8,2,33,47,2450,['n'],1,right,['3'],4,891,[-0.00396388],51,47,medium,minus,dotcolour,alfa,,,113,19,V,R,
343,91,7,8,2,36,44,5850,['c'],0,right,['2'],5,366,[-0.04996805],32,44,hard,minus,dotcolour,alfa,,,113,19,V,R,
344,92,8,8,2,53,27,1200,['c'],1,left,['2'],5,265,[0.16163784],94,53,easy,minus,dotcolour,alfa,,,113,19,V,R,
345,93,9,8,2,44,36,1883,['c'],1,left,['3'],4,405,[0.10800101],82,44,hard,minus,dotcolour,alfa,,,113,19,V,R,
346,94,10,8,2,33,47,1634,['n'],1,right,['2'],5,203,[-0.10731481],90,47,medium,minus,dotcolour,alfa,,,113,19,V,R,
347,95,11,8,2,27,53,685,['n'],1,right,['2'],5,249,[-0.07965498],81,53,easy,minus,dotcolour,alfa,,,113,19,V,R,
348,96,12,8,2,53,27,3250,['n'],0,left,['8'],3,1167,[0.20894557],15,53,easy,minus,dotcolour,alfa,,,113,19,V,R,
349,97,13,8,2,44,36,2850,['c'],1,left,['3'],4,119,[0.12484631],96,44,hard,minus,dotcolour,alfa,,,113,19,V,R,
350,98,14,8,2,33,47,3149,['n'],1,right,['3'],4,2878,[-0.60033502],96,47,medium,minus,dotcolour,alfa,,,113,19,V,R,
351,99,15,8,2,53,27,900,['c'],1,left,['1'],6,231,[0.10023839],87,53,easy,minus,dotcolour,alfa,,,113,19,V,R,
352,100,16,8,2,47,33,3967,['c'],1,left,['2'],5,264,[0.09566081],84,47,medium,minus,dotcolour,alfa,,,113,19,V,R,
353,101,17,8,2,47,33,1099,['c'],1,left,['2'],5,155,[0.10794588],92,47,medium,minus,dotcolour,alfa,,,113,19,V,R,
354,102,18,8,2,53,27,767,['c'],1,left,['2'],5,440,[0.24300911],96,53,easy,minus,dotcolour,alfa,,,113,19,V,R,
355,103,19,8,2,27,53,866,['n'],1,right,['1'],6,133,[-0.06041784],82,53,easy,minus,dotcolour,alfa,,,113,19,V,R,
356,104,20,8,2,27,53,1600,['n'],1,right,['3'],4,273,[-0.18792531],96,53,easy,minus,dotcolour,alfa,,,113,19,V,R,
357,105,21,8,2,47,33,1116,['c'],1,left,['2'],5,290,[0.07927397],79,47,medium,minus,dotcolour,alfa,,,113,19,V,R,
358,106,22,8,2,33,47,1384,['c'],0,right,['2'],5,608,[0.05451858],65,47,medium,minus,dotcolour,alfa,,,113,19,V,R,
359,107,23,8,2,27,53,684,['n'],1,right,['1'],6,246,[-0.09974405],86,53,easy,minus,dotcolour,alfa,,,113,19,V,R,
360,108,24,8,2,53,27,1551,['c'],1,left,['2'],5,791,[0.00082017],50,53,easy,minus,dotcolour,alfa,,,113,19,V,R,
361,109,25,8,2,44,36,1134,['c'],1,left,['2'],5,499,[0.05070816],66,44,hard,minus,dotcolour,alfa,,,113,19,V,R,
362,110,26,8,2,36,44,2033,['c'],0,right,['2'],5,383,[0.02274497],58,44,hard,minus,dotcolour,alfa,,,113,19,V,R,
363,111,27,8,2,53,27,834,['c'],1,left,['1'],6,231,[0.12856441],92,53,easy,minus,dotcolour,alfa,,,113,19,V,R,
364,112,28,8,2,36,44,1834,['c'],0,right,['2'],5,238,[0.02123344],60,44,hard,minus,dotcolour,alfa,,,113,19,V,R,
365,113,29,8,2,27,53,666,['n'],1,right,['2'],5,699,[-0.33823905],97,53,easy,minus,dotcolour,alfa,,,113,19,V,R,
366,114,30,8,2,27,53,634,['n'],1,right,['1'],6,159,[-0.08214336],86,53,easy,minus,dotcolour,alfa,,,113,19,V,R,
367,115,31,8,2,47,33,800,['c'],1,left,['1'],6,242,[0.09990046],86,47,medium,minus,dotcolour,alfa,,,113,19,V,R,
368,116,32,8,2,33,47,1467,['c'],0,right,['2'],5,359,[0.06482004],73,47,medium,minus,dotcolour,alfa,,,113,19,V,R,
369,117,33,8,2,47,33,1516,['c'],1,left,['2'],5,285,[0.10408546],85,47,medium,minus,dotcolour,alfa,,,113,19,V,R,
370,118,34,8,2,44,36,1084,['c'],1,left,['2'],5,240,[0.12480438],91,44,hard,minus,dotcolour,alfa,,,113,19,V,R,
371,119,35,8,2,47,33,1400,['c'],1,left,['3'],4,423,[0.2463471],97,47,medium,minus,dotcolour,alfa,,,113,19,V,R,
372,120,36,8,2,36,44,2350,['c'],0,right,['3'],4,281,[0.21245449],97,44,hard,minus,dotcolour,alfa,,,113,19,V,R,
373,121,37,8,2,47,33,784,['c'],1,left,['2'],5,624,[0.12113444],80,47,medium,minus,dotcolour,alfa,,,113,19,V,R,
374,122,38,8,2,36,44,2150,['c'],0,right,['3'],4,866,[0.10927786],74,44,hard,minus,dotcolour,alfa,,,113,19,V,R,
375,123,39,8,2,27,53,850,['n'],1,right,['1'],6,190,[-0.06708659],80,53,easy,minus,dotcolour,alfa,,,113,19,V,R,
376,124,40,8,2,36,44,1234,['n'],1,right,['2'],5,1215,[0.03556322],43,44,hard,minus,dotcolour,alfa,,,113,19,V,R,
377,125,41,8,2,33,47,800,['n'],1,right,['2'],5,248,[-0.1331082],92,47,medium,minus,dotcolour,alfa,,,113,19,V,R,
378,0,0,9,3,44,36,1983,['c'],1,left,['2'],5,328,[0.09551766],100,44,hard,plus,dotcolour,alfa,,,113,19,V,R,
379,1,1,9,3,33,47,2084,['n'],1,right,['3'],4,176,[-0.11590268],100,47,medium,plus,dotcolour,alfa,,,113,19,V,R,
380,2,2,9,3,53,27,733,['c'],1,left,['2'],5,205,[0.12166945],100,53,easy,plus,dotcolour,alfa,,,113,19,V,R,
381,3,3,9,3,33,47,634,['n'],1,right,['1'],6,253,[-0.1390934],100,47,medium,plus,dotcolour,alfa,,,113,19,V,R,
382,4,4,9,3,53,27,767,['c'],1,left,['2'],5,318,[0.09337344],100,53,easy,plus,dotcolour,alfa,,,113,19,V,R,
383,5,5,9,3,47,33,835,['c'],1,left,['2'],5,257,[0.1147707],100,47,medium,plus,dotcolour,alfa,,,113,19,V,R,
384,6,6,9,3,36,44,666,['n'],1,right,['1'],6,781,[-0.3420447],100,44,hard,plus,dotcolour,alfa,,,113,19,V,R,
385,7,7,9,3,27,53,567,['n'],1,right,['1'],6,288,[-0.11252321],100,53,easy,plus,dotcolour,alfa,,,113,19,V,R,
386,8,8,9,3,36,44,750,['n'],1,right,['1'],6,272,[-0.09861244],100,44,hard,plus,dotcolour,alfa,,,113,19,V,R,
387,9,9,9,3,36,44,1749,['c'],0,right,['2'],5,177,[0.05431504],99,44,hard,plus,dotcolour,alfa,,,113,19,V,R,
388,10,10,9,3,53,27,2567,['c'],1,left,['2'],5,420,[0.10579504],100,53,easy,plus,dotcolour,alfa,,,113,19,V,R,
389,11,11,9,3,36,44,1367,['n'],1,right,['3'],4,278,[-0.0128182],71,44,hard,plus,dotcolour,alfa,,,113,19,V,R,
390,12,12,9,3,36,44,1718,['c'],0,right,['2'],5,183,[0.05161122],99,44,hard,plus,dotcolour,alfa,,,113,19,V,R,
391,13,13,9,3,33,47,1600,['n'],1,right,['2'],5,417,[-0.28278061],100,47,medium,plus,dotcolour,alfa,,,113,19,V,R,
392,14,14,9,3,53,27,782,['c'],1,left,['1'],6,266,[0.13744589],100,53,easy,plus,dotcolour,alfa,,,113,19,V,R,
393,15,15,9,3,47,33,850,['c'],1,left,['1'],6,223,[0.03335119],93,47,medium,plus,dotcolour,alfa,,,113,19,V,R,
394,16,16,9,3,44,36,1883,['n'],0,left,['8'],3,1996,[0.1992007],1,44,hard,plus,dotcolour,alfa,,,113,19,V,R,
395,17,17,9,3,53,27,2083,['c'],1,left,['1'],6,266,[0.08251284],100,53,easy,plus,dotcolour,alfa,,,113,19,V,R,
396,18,18,9,3,53,27,1451,['c'],1,left,['2'],5,254,[0.13793268],100,53,easy,plus,dotcolour,alfa,,,113,19,V,R,
397,19,19,9,3,47,33,733,['c'],1,left,['2'],5,280,[0.14481836],100,47,medium,plus,dotcolour,alfa,,,113,19,V,R,
398,20,20,9,3,44,36,917,['c'],1,left,['2'],5,265,[0.05431536],98,44,hard,plus,dotcolour,alfa,,,113,19,V,R,
399,21,21,9,3,33,47,717,['n'],1,right,['2'],5,356,[-0.1299495],100,47,medium,plus,dotcolour,alfa,,,113,19,V,R,
400,22,22,9,3,47,33,899,['c'],1,left,['2'],5,338,[-0.0019755],47,47,medium,plus,dotcolour,alfa,,,113,19,V,R,
401,23,23,9,3,33,47,1667,['n'],1,right,['2'],5,292,[-0.11210637],100,47,medium,plus,dotcolour,alfa,,,113,19,V,R,
402,24,24,9,3,44,36,1333,['c'],1,left,['2'],5,556,[0.19368427],100,44,hard,plus,dotcolour,alfa,,,113,19,V,R,
403,25,25,9,3,47,33,1133,['c'],1,left,['2'],5,657,[0.08810323],98,47,medium,plus,dotcolour,alfa,,,113,19,V,R,
404,26,26,9,3,44,36,2050,['c'],1,left,['2'],5,205,[0.0619442],99,44,hard,plus,dotcolour,alfa,,,113,19,V,R,
405,27,27,9,3,33,47,950,['c'],0,right,['2'],5,233,[0.03689396],94,47,medium,plus,dotcolour,alfa,,,113,19,V,R,
406,28,28,9,3,33,47,1317,['n'],1,right,['3'],4,228,[-0.09167964],100,47,medium,plus,dotcolour,alfa,,,113,19,V,R,
407,29,29,9,3,44,36,733,['c'],1,left,['2'],5,199,[0.11443895],100,44,hard,plus,dotcolour,alfa,,,113,19,V,R,
408,30,30,9,3,44,36,800,['c'],1,left,['2'],5,224,[0.13614512],100,44,hard,plus,dotcolour,alfa,,,113,19,V,R,
409,31,31,9,3,27,53,734,['n'],1,right,['1'],6,291,[-0.12636938],100,53,easy,plus,dotcolour,alfa,,,113,19,V,R,
410,32,32,9,3,27,53,600,['n'],1,right,['1'],6,176,[-0.07217333],100,53,easy,plus,dotcolour,alfa,,,113,19,V,R,
411,33,33,9,3,27,53,450,['n'],1,right,['1'],6,209,[-0.06153729],99,53,easy,plus,dotcolour,alfa,,,113,19,V,R,
412,34,34,9,3,47,33,1750,['c'],1,left,['1'],6,299,[0.09338625],100,47,medium,plus,dotcolour,alfa,,,113,19,V,R,
413,35,35,9,3,27,53,701,['n'],1,right,['2'],5,652,[-0.13436602],100,53,easy,plus,dotcolour,alfa,,,113,19,V,R,
414,36,36,9,3,53,27,684,['c'],1,left,['1'],6,143,[0.09832489],100,53,easy,plus,dotcolour,alfa,,,113,19,V,R,
415,37,37,9,3,36,44,1783,['c'],0,right,['1'],6,172,[0.05605122],99,44,hard,plus,dotcolour,alfa,,,113,19,V,R,
416,38,38,9,3,36,44,1000,['n'],1,right,['2'],5,366,[-0.11558632],100,44,hard,plus,dotcolour,alfa,,,113,19,V,R,
417,39,39,9,3,27,53,500,['n'],1,right,['1'],6,262,[-0.07839808],100,53,easy,plus,dotcolour,alfa,,,113,19,V,R,
418,40,40,9,3,27,53,2233,['n'],1,right,['1'],6,162,[-0.08230825],100,53,easy,plus,dotcolour,alfa,,,113,19,V,R,
419,41,41,9,3,47,33,1067,['c'],1,left,['2'],5,242,[0.04358108],96,47,medium,plus,dotcolour,alfa,,,113,19,V,R,
420,42,0,10,3,27,53,2450,['n'],1,right,['2'],5,1162,[-0.17918743],100,53,easy,plus,dotcolour,alfa,,,113,19,V,R,
421,43,1,10,3,53,27,700,['c'],1,left,['1'],6,119,[0.07830323],100,53,easy,plus,dotcolour,alfa,,,113,19,V,R,
422,44,2,10,3,27,53,566,['n'],1,right,['1'],6,149,[-0.16870195],100,53,easy,plus,dotcolour,alfa,,,113,19,V,R,
423,45,3,10,3,36,44,1666,['n'],1,right,['2'],5,126,[-0.11422407],100,44,hard,plus,dotcolour,alfa,,,113,19,V,R,
424,46,4,10,3,27,53,616,['n'],1,right,['1'],6,177,[-0.16198985],100,53,easy,plus,dotcolour,alfa,,,113,19,V,R,
425,47,5,10,3,47,33,1016,['c'],1,left,['1'],6,203,[0.10867939],100,47,medium,plus,dotcolour,alfa,,,113,19,V,R,
426,48,6,10,3,44,36,1817,['c'],1,left,['1'],6,379,[0.13789773],100,44,hard,plus,dotcolour,alfa,,,113,19,V,R,
427,49,7,10,3,36,44,1400,['c'],0,right,['2'],5,325,[0.17687961],100,44,hard,plus,dotcolour,alfa,,,113,19,V,R,
428,50,8,10,3,47,33,1984,['c'],1,left,['2'],5,810,[0.16400047],100,47,medium,plus,dotcolour,alfa,,,113,19,V,R,
429,51,9,10,3,27,53,2283,['n'],1,right,['9'],2,936,[-0.1474796],100,53,easy,plus,dotcolour,alfa,,,113,19,V,R,
430,52,10,10,3,33,47,1450,['c'],0,right,['2'],5,625,[-0.23356739],0,47,medium,plus,dotcolour,alfa,,,113,19,V,R,
431,53,11,10,3,27,53,1333,['n'],1,right,['1'],6,156,[-0.10342391],100,53,easy,plus,dotcolour,alfa,,,113,19,V,R,
432,54,12,10,3,33,47,568,['n'],1,right,['1'],6,144,[-0.13744789],100,47,medium,plus,dotcolour,alfa,,,113,19,V,R,
433,55,13,10,3,53,27,717,['c'],1,left,['2'],5,215,[0.13908337],100,53,easy,plus,dotcolour,alfa,,,113,19,V,R,
434,56,14,10,3,44,36,1266,['c'],1,left,['2'],5,261,[0.13232667],100,44,hard,plus,dotcolour,alfa,,,113,19,V,R,
435,57,15,10,3,33,47,650,['n'],1,right,['1'],6,145,[-0.09095957],100,47,medium,plus,dotcolour,alfa,,,113,19,V,R,
436,58,16,10,3,36,44,1750,['c'],0,right,['2'],5,311,[0.09265628],100,44,hard,plus,dotcolour,alfa,,,113,19,V,R,
437,59,17,10,3,44,36,1234,['c'],1,left,['2'],5,370,[0.16741466],100,44,hard,plus,dotcolour,alfa,,,113,19,V,R,
438,60,18,10,3,36,44,1416,['n'],1,right,['2'],5,436,[-0.03176397],85,44,hard,plus,dotcolour,alfa,,,113,19,V,R,
439,61,19,10,3,33,47,1933,['c'],0,right,['3'],4,231,[-0.05538119],2,47,medium,plus,dotcolour,alfa,,,113,19,V,R,
440,62,20,10,3,33,47,2650,['c'],0,right,['3'],4,677,[0.14817316],100,47,medium,plus,dotcolour,alfa,,,113,19,V,R,
441,63,21,10,3,53,27,1150,['c'],1,left,['1'],6,277,[0.06589918],99,53,easy,plus,dotcolour,alfa,,,113,19,V,R,
442,64,22,10,3,33,47,1167,['c'],0,right,['2'],5,292,[0.07917459],99,47,medium,plus,dotcolour,alfa,,,113,19,V,R,
443,65,23,10,3,47,33,1233,['c'],1,left,['2'],5,208,[0.11341149],100,47,medium,plus,dotcolour,alfa,,,113,19,V,R,
444,66,24,10,3,53,27,650,['c'],1,left,['2'],5,231,[0.14092255],100,53,easy,plus,dotcolour,alfa,,,113,19,V,R,
445,67,25,10,3,44,36,1700,['n'],0,left,['3'],4,907,[0.01453443],37,44,hard,plus,dotcolour,alfa,,,113,19,V,R,
446,68,26,10,3,53,27,1066,['c'],1,left,['1'],6,718,[0.25698841],100,53,easy,plus,dotcolour,alfa,,,113,19,V,R,
447,69,27,10,3,27,53,801,['n'],1,right,['1'],6,194,[-0.04115614],97,53,easy,plus,dotcolour,alfa,,,113,19,V,R,
448,70,28,10,3,47,33,917,['c'],1,left,['2'],5,230,[0.09052148],100,47,medium,plus,dotcolour,alfa,,,113,19,V,R,
449,71,29,10,3,36,44,1700,['c'],0,right,['2'],5,410,[0.05336464],95,44,hard,plus,dotcolour,alfa,,,113,19,V,R,
450,72,30,10,3,44,36,2334,['n'],0,left,['2'],5,366,[-0.12684498],100,44,hard,plus,dotcolour,alfa,,,113,19,V,R,
451,73,31,10,3,47,33,900,['c'],1,left,['1'],6,252,[0.10959727],100,47,medium,plus,dotcolour,alfa,,,113,19,V,R,
452,74,32,10,3,33,47,1617,['n'],1,right,['3'],4,627,[-0.22113902],100,47,medium,plus,dotcolour,alfa,,,113,19,V,R,
453,75,33,10,3,27,53,2001,['n'],1,right,['3'],4,132,[-0.07763197],100,53,easy,plus,dotcolour,alfa,,,113,19,V,R,
454,76,34,10,3,36,44,2217,['n'],1,right,['3'],4,782,[-0.08282856],97,44,hard,plus,dotcolour,alfa,,,113,19,V,R,
455,77,35,10,3,53,27,1067,['c'],1,left,['1'],6,494,[0.17048869],100,53,easy,plus,dotcolour,alfa,,,113,19,V,R,
456,78,36,10,3,44,36,817,['c'],1,left,['1'],6,195,[0.02745662],90,44,hard,plus,dotcolour,alfa,,,113,19,V,R,
457,79,37,10,3,44,36,2317,['c'],1,left,['1'],6,184,[0.07589032],100,44,hard,plus,dotcolour,alfa,,,113,19,V,R,
458,80,38,10,3,47,33,716,['c'],1,left,['1'],6,125,[0.09003287],100,47,medium,plus,dotcolour,alfa,,,113,19,V,R,
459,81,39,10,3,36,44,1001,['n'],1,right,['2'],5,521,[-0.1751035],100,44,hard,plus,dotcolour,alfa,,,113,19,V,R,
460,82,40,10,3,53,27,685,['c'],1,left,['1'],6,138,[0.05912651],100,53,easy,plus,dotcolour,alfa,,,113,19,V,R,
461,83,41,10,3,47,33,534,['c'],1,left,['1'],6,144,[0.06975237],100,47,medium,plus,dotcolour,alfa,,,113,19,V,R,
462,84,0,11,3,33,47,1800,['n'],1,right,['2'],5,159,[-0.05632478],99,47,medium,plus,dotcolour,alfa,,,113,19,V,R,
463,85,1,11,3,36,44,984,['n'],1,right,['2'],5,210,[-0.05190305],98,44,hard,plus,dotcolour,alfa,,,113,19,V,R,
464,86,2,11,3,47,33,834,['c'],1,left,['2'],5,242,[0.07334796],100,47,medium,plus,dotcolour,alfa,,,113,19,V,R,
465,87,3,11,3,53,27,600,['c'],1,left,['1'],6,170,[0.14439356],100,53,easy,plus,dotcolour,alfa,,,113,19,V,R,
466,88,4,11,3,53,27,566,['c'],1,left,['1'],6,150,[0.04010571],98,53,easy,plus,dotcolour,alfa,,,113,19,V,R,
467,89,5,11,3,36,44,1017,['n'],1,right,['2'],5,192,[-0.08357662],100,44,hard,plus,dotcolour,alfa,,,113,19,V,R,
468,90,6,11,3,33,47,1000,['n'],1,right,['2'],5,145,[-0.13589462],100,47,medium,plus,dotcolour,alfa,,,113,19,V,R,
469,91,7,11,3,27,53,684,['n'],1,right,['1'],6,369,[-0.10441613],100,53,easy,plus,dotcolour,alfa,,,113,19,V,R,
470,92,8,11,3,44,36,951,['c'],1,left,['1'],6,150,[0.03461324],96,44,hard,plus,dotcolour,alfa,,,113,19,V,R,
471,93,9,11,3,27,53,633,['n'],1,right,['1'],6,136,[-0.09845455],100,53,easy,plus,dotcolour,alfa,,,113,19,V,R,
472,94,10,11,3,47,33,733,['c'],1,left,['1'],6,182,[0.0617585],99,47,medium,plus,dotcolour,alfa,,,113,19,V,R,
473,95,11,11,3,44,36,1267,['c'],1,left,['1'],6,206,[0.0841828],100,44,hard,plus,dotcolour,alfa,,,113,19,V,R,
474,96,12,11,3,47,33,1334,['c'],1,left,['2'],5,402,[0.07917316],99,47,medium,plus,dotcolour,alfa,,,113,19,V,R,
475,97,13,11,3,27,53,717,['n'],1,right,['1'],6,134,[-0.08527267],100,53,easy,plus,dotcolour,alfa,,,113,19,V,R,
476,98,14,11,3,47,33,884,['c'],1,left,['1'],6,239,[0.18706008],100,47,medium,plus,dotcolour,alfa,,,113,19,V,R,
477,99,15,11,3,27,53,800,['n'],1,right,['1'],6,142,[-0.12263442],100,53,easy,plus,dotcolour,alfa,,,113,19,V,R,
478,100,16,11,3,47,33,784,['c'],1,left,['1'],6,339,[0.24972257],100,47,medium,plus,dotcolour,alfa,,,113,19,V,R,
479,101,17,11,3,44,36,1001,['n'],0,left,['2'],5,198,[-0.04591851],98,44,hard,plus,dotcolour,alfa,,,113,19,V,R,
480,102,18,11,3,53,27,966,['c'],1,left,['1'],6,209,[0.10878786],100,53,easy,plus,dotcolour,alfa,,,113,19,V,R,
481,103,19,11,3,44,36,1033,['n'],0,left,['2'],5,216,[-0.1088625],100,44,hard,plus,dotcolour,alfa,,,113,19,V,R,
482,104,20,11,3,33,47,850,['c'],0,right,['9'],2,2551,[-0.28710486],0,47,medium,plus,dotcolour,alfa,,,113,19,V,R,
483,105,21,11,3,53,27,2767,['c'],1,left,['1'],6,491,[0.11291135],100,53,easy,plus,dotcolour,alfa,,,113,19,V,R,
484,106,22,11,3,44,36,899,['c'],1,left,['1'],6,341,[0.10799116],100,44,hard,plus,dotcolour,alfa,,,113,19,V,R,
485,107,23,11,3,44,36,650,['c'],1,left,['1'],6,246,[0.04769931],97,44,hard,plus,dotcolour,alfa,,,113,19,V,R,
486,108,24,11,3,36,44,700,['n'],1,right,['1'],6,225,[-0.08169694],100,44,hard,plus,dotcolour,alfa,,,113,19,V,R,
487,109,25,11,3,33,47,601,['n'],1,right,['1'],6,153,[-0.0596691],100,47,medium,plus,dotcolour,alfa,,,113,19,V,R,
488,110,26,11,3,33,47,917,['c'],0,right,['2'],5,480,[0.08670923],99,47,medium,plus,dotcolour,alfa,,,113,19,V,R,
489,111,27,11,3,33,47,1317,['n'],1,right,['9'],2,1001,[-0.24942962],100,47,medium,plus,dotcolour,alfa,,,113,19,V,R,
490,112,28,11,3,27,53,967,['n'],1,right,['1'],6,139,[-0.06722092],100,53,easy,plus,dotcolour,alfa,,,113,19,V,R,
491,113,29,11,3,36,44,1400,['c'],0,right,['2'],5,343,[0.04497555],94,44,hard,plus,dotcolour,alfa,,,113,19,V,R,
492,114,30,11,3,36,44,1217,['c'],0,right,['1'],6,330,[-0.03950311],8,44,hard,plus,dotcolour,alfa,,,113,19,V,R,
493,115,31,11,3,27,53,834,['n'],1,right,['1'],6,1428,[-0.23467154],100,53,easy,plus,dotcolour,alfa,,,113,19,V,R,
494,116,32,11,3,36,44,1450,['c'],0,right,['2'],5,258,[0.11000035],100,44,hard,plus,dotcolour,alfa,,,113,19,V,R,
495,117,33,11,3,53,27,600,['c'],1,left,['1'],6,185,[0.04367342],97,53,easy,plus,dotcolour,alfa,,,113,19,V,R,
496,118,34,11,3,44,36,950,['c'],1,left,['1'],6,165,[0.05503353],99,44,hard,plus,dotcolour,alfa,,,113,19,V,R,
497,119,35,11,3,47,33,700,['c'],1,left,['1'],6,148,[0.09902075],100,47,medium,plus,dotcolour,alfa,,,113,19,V,R,
498,120,36,11,3,53,27,617,['c'],1,left,['1'],6,159,[0.04563435],98,53,easy,plus,dotcolour,alfa,,,113,19,V,R,
499,121,37,11,3,53,27,584,['c'],1,left,['1'],6,162,[0.19562128],100,53,easy,plus,dotcolour,alfa,,,113,19,V,R,
500,122,38,11,3,33,47,900,['n'],1,right,['1'],6,184,[-0.08450097],100,47,medium,plus,dotcolour,alfa,,,113,19,V,R,
501,123,39,11,3,36,44,566,['n'],1,right,['1'],6,316,[-0.12105011],100,44,hard,plus,dotcolour,alfa,,,113,19,V,R,
502,124,40,11,3,47,33,633,['c'],1,left,['1'],6,175,[0.02432238],89,47,medium,plus,dotcolour,alfa,,,113,19,V,R,
503,125,41,11,3,27,53,1100,['n'],1,right,['1'],6,157,[-0.13086775],100,53,easy,plus,dotcolour,alfa,,,113,19,V,R,
504,0,0,12,4,47,33,684,['c'],1,left,['1'],6,615,[0.07261505],70,47,medium,minus,dotcolour,alfa,,,113,19,V,R,
505,1,1,12,4,33,47,682,['c'],0,right,['1'],6,149,[0.02028564],62,47,medium,minus,dotcolour,alfa,,,113,19,V,R,
506,2,2,12,4,47,33,500,['c'],1,left,['1'],6,139,[0.09784728],91,47,medium,minus,dotcolour,alfa,,,113,19,V,R,
507,3,3,12,4,36,44,817,['c'],0,right,['1'],6,151,[0.09704095],90,44,hard,minus,dotcolour,alfa,,,113,19,V,R,
508,4,4,12,4,47,33,600,['c'],1,left,['1'],6,130,[0.14041351],97,47,medium,minus,dotcolour,alfa,,,113,19,V,R,
509,5,5,12,4,36,44,500,['c'],0,right,['3'],4,1490,[0.18072643],79,44,hard,minus,dotcolour,alfa,,,113,19,V,R,
510,6,6,12,4,53,27,750,['c'],1,left,['1'],6,145,[0.08674636],89,53,easy,minus,dotcolour,alfa,,,113,19,V,R,
511,7,7,12,4,44,36,2049,['c'],1,left,['2'],5,619,[0.16153075],86,44,hard,minus,dotcolour,alfa,,,113,19,V,R,
512,8,8,12,4,44,36,1118,['c'],1,left,['1'],6,151,[0.14049217],96,44,hard,minus,dotcolour,alfa,,,113,19,V,R,
513,9,9,12,4,47,33,483,['c'],1,left,['2'],5,1239,[0.14867424],77,47,medium,minus,dotcolour,alfa,,,113,19,V,R,
514,10,10,12,4,36,44,867,['c'],0,right,['2'],5,428,[0.07169993],73,44,hard,minus,dotcolour,alfa,,,113,19,V,R,
515,11,11,12,4,47,33,550,['c'],1,left,['1'],6,286,[0.12448319],89,47,medium,minus,dotcolour,alfa,,,113,19,V,R,
516,12,12,12,4,44,36,651,['c'],1,left,['1'],6,145,[0.07890456],87,44,hard,minus,dotcolour,alfa,,,113,19,V,R,
517,13,13,12,4,27,53,716,['n'],1,right,['1'],6,136,[-0.11312517],94,53,easy,minus,dotcolour,alfa,,,113,19,V,R,
518,14,14,12,4,27,53,517,['n'],1,right,['1'],6,128,[-0.11272298],94,53,easy,minus,dotcolour,alfa,,,113,19,V,R,
519,15,15,12,4,47,33,734,['c'],1,left,['1'],6,182,[0.1051068],90,47,medium,minus,dotcolour,alfa,,,113,19,V,R,
520,16,16,12,4,53,27,683,['c'],1,left,['1'],6,190,[0.08004063],84,53,easy,minus,dotcolour,alfa,,,113,19,V,R,
521,17,17,12,4,33,47,1433,['n'],1,right,['2'],5,141,[-0.08810347],89,47,medium,minus,dotcolour,alfa,,,113,19,V,R,
522,18,18,12,4,53,27,650,['c'],1,left,['1'],6,119,[0.07666931],88,53,easy,minus,dotcolour,alfa,,,113,19,V,R,
523,19,19,12,4,44,36,766,['c'],1,left,['1'],6,116,[0.06651619],85,44,hard,minus,dotcolour,alfa,,,113,19,V,R,
524,20,20,12,4,53,27,584,['c'],1,left,['1'],6,146,[0.02882818],66,53,easy,minus,dotcolour,alfa,,,113,19,V,R,
525,21,21,12,4,27,53,1368,['c'],0,right,['1'],6,119,[-0.02748857],33,53,easy,minus,dotcolour,alfa,,,113,19,V,R,
526,22,22,12,4,27,53,850,['n'],1,right,['1'],6,106,[-0.09412614],93,53,easy,minus,dotcolour,alfa,,,113,19,V,R,
527,23,23,12,4,33,47,1216,['n'],1,right,['2'],5,1158,[-0.48812518],98,47,medium,minus,dotcolour,alfa,,,113,19,V,R,
528,24,24,12,4,27,53,1183,['n'],1,right,['1'],6,153,[-0.05897521],80,53,easy,minus,dotcolour,alfa,,,113,19,V,R,
529,25,25,12,4,47,33,884,['c'],1,left,['1'],6,161,[0.15973301],97,47,medium,minus,dotcolour,alfa,,,113,19,V,R,
530,26,26,12,4,44,36,1033,['c'],1,left,['2'],5,1170,[0.13146916],75,44,hard,minus,dotcolour,alfa,,,113,19,V,R,
531,27,27,12,4,33,47,2267,['n'],1,right,['3'],4,922,[0.00769626],48,47,medium,minus,dotcolour,alfa,,,113,19,V,R,
532,28,28,12,4,44,36,2217,['c'],1,left,['1'],6,214,[0.10749456],89,44,hard,minus,dotcolour,alfa,,,113,19,V,R,
533,29,29,12,4,44,36,967,['c'],1,left,['2'],5,199,[0.10614397],89,44,hard,minus,dotcolour,alfa,,,113,19,V,R,
534,30,30,12,4,53,27,583,['c'],1,left,['1'],6,194,[0.1213278],92,53,easy,minus,dotcolour,alfa,,,113,19,V,R,
535,31,31,12,4,36,44,2083,['n'],1,right,['2'],5,336,[-0.0260728],60,44,hard,minus,dotcolour,alfa,,,113,19,V,R,
536,32,32,12,4,33,47,783,['n'],1,right,['1'],6,524,[-0.17325605],90,47,medium,minus,dotcolour,alfa,,,113,19,V,R,
537,33,33,12,4,27,53,550,['n'],1,right,['1'],6,130,[-0.11349201],94,53,easy,minus,dotcolour,alfa,,,113,19,V,R,
538,34,34,12,4,36,44,766,['n'],1,right,['2'],5,800,[-0.17872863],86,44,hard,minus,dotcolour,alfa,,,113,19,V,R,
539,35,35,12,4,53,27,767,['c'],1,left,['1'],6,146,[0.08123702],87,53,easy,minus,dotcolour,alfa,,,113,19,V,R,
540,36,36,12,4,27,53,750,['n'],1,right,['1'],6,144,[-0.08976539],89,53,easy,minus,dotcolour,alfa,,,113,19,V,R,
541,37,37,12,4,36,44,1050,['n'],1,right,['1'],6,193,[-0.09572241],88,44,hard,minus,dotcolour,alfa,,,113,19,V,R,
542,38,38,12,4,53,27,634,['n'],0,left,['0'],1,1713,[0.11598819],31,53,easy,minus,dotcolour,alfa,,,113,19,V,R,
543,39,39,12,4,36,44,2066,['n'],1,right,['2'],5,571,[-0.18756792],90,44,hard,minus,dotcolour,alfa,,,113,19,V,R,
544,40,40,12,4,33,47,3534,['n'],1,right,['3'],4,759,[-0.23973975],92,47,medium,minus,dotcolour,alfa,,,113,19,V,R,
545,41,41,12,4,33,47,1952,['n'],1,right,['8'],3,1380,[-0.43504038],97,47,medium,minus,dotcolour,alfa,,,113,19,V,R,
546,42,0,13,4,44,36,1950,['c'],1,left,['2'],5,294,[-0.04786596],31,44,hard,minus,dotcolour,alfa,,,113,19,V,R,
547,43,1,13,4,33,47,934,['n'],1,right,['1'],6,134,[-0.08615247],89,47,medium,minus,dotcolour,alfa,,,113,19,V,R,
548,44,2,13,4,44,36,883,['c'],1,left,['1'],6,143,[0.14044352],97,44,hard,minus,dotcolour,alfa,,,113,19,V,R,
549,45,3,13,4,44,36,1035,['c'],1,left,['2'],5,401,[0.18473735],93,44,hard,minus,dotcolour,alfa,,,113,19,V,R,
550,46,4,13,4,33,47,634,['n'],1,right,['1'],6,105,[-0.05770967],83,47,medium,minus,dotcolour,alfa,,,113,19,V,R,
551,47,5,13,4,27,53,516,['n'],1,right,['1'],6,97,[-0.11953689],97,53,easy,minus,dotcolour,alfa,,,113,19,V,R,
552,48,6,13,4,33,47,516,['n'],1,right,['1'],6,114,[-0.08480532],91,47,medium,minus,dotcolour,alfa,,,113,19,V,R,
553,49,7,13,4,33,47,617,['n'],1,right,['1'],6,150,[-0.1020215],91,47,medium,minus,dotcolour,alfa,,,113,19,V,R,
554,50,8,13,4,27,53,917,['n'],1,right,['1'],6,237,[-0.03626366],66,53,easy,minus,dotcolour,alfa,,,113,19,V,R,
555,51,9,13,4,53,27,1000,['c'],1,left,['1'],6,381,[0.25835169],98,53,easy,minus,dotcolour,alfa,,,113,19,V,R,
556,52,10,13,4,53,27,1367,['c'],1,left,['1'],6,152,[0.11003561],93,53,easy,minus,dotcolour,alfa,,,113,19,V,R,
557,53,11,13,4,36,44,900,['n'],1,right,['2'],5,1200,[-0.28095838],91,44,hard,minus,dotcolour,alfa,,,113,19,V,R,
558,54,12,13,4,36,44,2351,['c'],0,right,['2'],5,178,[0.0517023],75,44,hard,minus,dotcolour,alfa,,,113,19,V,R,
559,55,13,13,4,47,33,866,['c'],1,left,['1'],6,121,[0.06227732],83,47,medium,minus,dotcolour,alfa,,,113,19,V,R,
560,56,14,13,4,33,47,766,['n'],1,right,['2'],5,504,[-0.20953911],93,47,medium,minus,dotcolour,alfa,,,113,19,V,R,
561,57,15,13,4,47,33,800,['c'],1,left,['2'],5,549,[-0.0552207],34,47,medium,minus,dotcolour,alfa,,,113,19,V,R,
562,58,16,13,4,36,44,2499,['c'],0,right,['2'],5,549,[0.19834021],92,44,hard,minus,dotcolour,alfa,,,113,19,V,R,
563,59,17,13,4,27,53,1584,['n'],1,right,['1'],6,104,[-0.07121137],88,53,easy,minus,dotcolour,alfa,,,113,19,V,R,
564,60,18,13,4,47,33,783,['c'],1,left,['1'],6,134,[0.04375562],75,47,medium,minus,dotcolour,alfa,,,113,19,V,R,
565,61,19,13,4,47,33,1034,['c'],1,left,['1'],6,145,[0.02906362],67,47,medium,minus,dotcolour,alfa,,,113,19,V,R,
566,62,20,13,4,27,53,767,['n'],1,right,['1'],6,134,[-0.05459416],79,53,easy,minus,dotcolour,alfa,,,113,19,V,R,
567,63,21,13,4,53,27,884,['c'],1,left,['1'],6,119,[0.1091033],95,53,easy,minus,dotcolour,alfa,,,113,19,V,R,
568,64,22,13,4,44,36,1300,['c'],1,left,['2'],5,295,[0.15478962],93,44,hard,minus,dotcolour,alfa,,,113,19,V,R,
569,65,23,13,4,44,36,733,['c'],1,left,['1'],6,471,[0.15848666],89,44,hard,minus,dotcolour,alfa,,,113,19,V,R,
570,66,24,13,4,27,53,699,['n'],1,right,['1'],6,82,[-0.06582555],89,53,easy,minus,dotcolour,alfa,,,113,19,V,R,
571,67,25,13,4,33,47,999,['n'],1,right,['3'],4,967,[-0.06815935],65,47,medium,minus,dotcolour,alfa,,,113,19,V,R,
572,68,26,13,4,53,27,651,['c'],1,left,['1'],6,127,[0.1091589],94,53,easy,minus,dotcolour,alfa,,,113,19,V,R,
573,69,27,13,4,53,27,600,['c'],1,left,['2'],5,275,[0.05410477],72,53,easy,minus,dotcolour,alfa,,,113,19,V,R,
574,70,28,13,4,44,36,667,['c'],1,left,['1'],6,191,[0.10628025],90,44,hard,minus,dotcolour,alfa,,,113,19,V,R,
575,71,29,13,4,27,53,717,['n'],1,right,['1'],6,99,[-0.09653258],94,53,easy,minus,dotcolour,alfa,,,113,19,V,R,
576,72,30,13,4,53,27,1999,['c'],1,left,['1'],6,216,[0.0897372],85,53,easy,minus,dotcolour,alfa,,,113,19,V,R,
577,73,31,13,4,36,44,1500,['c'],0,right,['2'],5,173,[0.08684498],87,44,hard,minus,dotcolour,alfa,,,113,19,V,R,
578,74,32,13,4,36,44,650,['n'],1,right,['1'],6,149,[-0.09220662],90,44,hard,minus,dotcolour,alfa,,,113,19,V,R,
579,75,33,13,4,47,33,683,['c'],1,left,['1'],6,141,[0.10097711],92,47,medium,minus,dotcolour,alfa,,,113,19,V,R,
580,76,34,13,4,33,47,700,['n'],1,right,['2'],5,245,[0.0424503],32,47,medium,minus,dotcolour,alfa,,,113,19,V,R,
581,77,35,13,4,36,44,1333,['n'],1,right,['2'],5,527,[-0.04286452],63,44,hard,minus,dotcolour,alfa,,,113,19,V,R,
582,78,36,13,4,36,44,850,['n'],1,right,['2'],5,1025,[-0.15289105],80,44,hard,minus,dotcolour,alfa,,,113,19,V,R,
583,79,37,13,4,47,33,966,['c'],1,left,['1'],6,114,[0.07259208],87,47,medium,minus,dotcolour,alfa,,,113,19,V,R,
584,80,38,13,4,27,53,632,['n'],1,right,['1'],6,157,[-0.08180771],87,53,easy,minus,dotcolour,alfa,,,113,19,V,R,
585,81,39,13,4,47,33,933,['c'],1,left,['1'],6,147,[0.08465453],88,47,medium,minus,dotcolour,alfa,,,113,19,V,R,
586,82,40,13,4,44,36,1566,['c'],1,left,['1'],6,136,[0.10452127],93,44,hard,minus,dotcolour,alfa,,,113,19,V,R,
587,83,41,13,4,53,27,867,['c'],1,left,['1'],6,153,[0.09844162],91,53,easy,minus,dotcolour,alfa,,,113,19,V,R,
588,84,0,14,4,27,53,834,['n'],1,right,['1'],6,145,[-0.11096312],93,53,easy,minus,dotcolour,alfa,,,113,19,V,R,
589,85,1,14,4,27,53,582,['n'],1,right,['1'],6,132,[-0.08860629],90,53,easy,minus,dotcolour,alfa,,,113,19,V,R,
590,86,2,14,4,47,33,699,['c'],1,left,['1'],6,148,[0.10356347],92,47,medium,minus,dotcolour,alfa,,,113,19,V,R,
591,87,3,14,4,27,53,1833,['n'],1,right,['1'],6,110,[-0.07136383],87,53,easy,minus,dotcolour,alfa,,,113,19,V,R,
592,88,4,14,4,36,44,716,['c'],0,right,['1'],6,238,[0.13219109],92,44,hard,minus,dotcolour,alfa,,,113,19,V,R,
593,89,5,14,4,36,44,1000,['c'],0,right,['2'],5,278,[-0.01632487],43,44,hard,minus,dotcolour,alfa,,,113,19,V,R,
594,90,6,14,4,27,53,684,['n'],1,right,['1'],6,129,[-0.08295606],89,53,easy,minus,dotcolour,alfa,,,113,19,V,R,
595,91,7,14,4,44,36,718,['c'],1,left,['1'],6,152,[0.04532939],74,44,hard,minus,dotcolour,alfa,,,113,19,V,R,
596,92,8,14,4,33,47,1150,['c'],0,right,['1'],6,158,[0.04409161],73,47,medium,minus,dotcolour,alfa,,,113,19,V,R,
597,93,9,14,4,47,33,849,['c'],1,left,['1'],6,199,[0.14726227],95,47,medium,minus,dotcolour,alfa,,,113,19,V,R,
598,94,10,14,4,44,36,534,['c'],1,left,['2'],5,475,[0.14368442],87,44,hard,minus,dotcolour,alfa,,,113,19,V,R,
599,95,11,14,4,33,47,2317,['n'],1,right,['2'],5,364,[-0.2250112],97,47,medium,minus,dotcolour,alfa,,,113,19,V,R,
600,96,12,14,4,44,36,617,['c'],1,left,['1'],6,150,[0.12046288],94,44,hard,minus,dotcolour,alfa,,,113,19,V,R,
601,97,13,14,4,53,27,633,['c'],1,left,['1'],6,112,[0.07607162],89,53,easy,minus,dotcolour,alfa,,,113,19,V,R,
602,98,14,14,4,36,44,1266,['n'],1,right,['2'],5,442,[-0.06020444],69,44,hard,minus,dotcolour,alfa,,,113,19,V,R,
603,99,15,14,4,36,44,1716,['c'],0,right,['2'],5,181,[0.01644402],59,44,hard,minus,dotcolour,alfa,,,113,19,V,R,
604,100,16,14,4,44,36,617,['c'],1,left,['1'],6,143,[0.08633767],89,44,hard,minus,dotcolour,alfa,,,113,19,V,R,
605,101,17,14,4,44,36,699,['c'],1,left,['2'],5,397,[0.06563545],72,44,hard,minus,dotcolour,alfa,,,113,19,V,R,
606,102,18,14,4,53,27,600,['c'],1,left,['1'],6,111,[0.09120857],92,53,easy,minus,dotcolour,alfa,,,113,19,V,R,
607,103,19,14,4,44,36,583,['c'],1,left,['2'],5,628,[0.00394093],51,44,hard,minus,dotcolour,alfa,,,113,19,V,R,
608,104,20,14,4,27,53,1152,['n'],1,right,['2'],5,478,[-0.19989815],93,53,easy,minus,dotcolour,alfa,,,113,19,V,R,
609,105,21,14,4,47,33,967,['c'],1,left,['1'],6,158,[0.08995563],88,47,medium,minus,dotcolour,alfa,,,113,19,V,R,
610,106,22,14,4,33,47,718,['n'],1,right,['2'],5,715,[-0.18751285],88,47,medium,minus,dotcolour,alfa,,,113,19,V,R,
611,107,23,14,4,53,27,634,['c'],1,left,['1'],6,118,[0.0956799],92,53,easy,minus,dotcolour,alfa,,,113,19,V,R,
612,108,24,14,4,33,47,3182,['n'],1,right,['2'],5,84,[-0.07544159],91,47,medium,minus,dotcolour,alfa,,,113,19,V,R,
613,109,25,14,4,27,53,850,['n'],1,right,['1'],6,112,[-0.14720106],98,53,easy,minus,dotcolour,alfa,,,113,19,V,R,
614,110,26,14,4,36,44,1016,['n'],1,right,['3'],4,1164,[-0.18857155],83,44,hard,minus,dotcolour,alfa,,,113,19,V,R,
615,111,27,14,4,33,47,767,['n'],1,right,['1'],6,624,[-0.12189005],80,47,medium,minus,dotcolour,alfa,,,113,19,V,R,
616,112,28,14,4,27,53,550,['n'],1,right,['1'],6,122,[-0.10311156],93,53,easy,minus,dotcolour,alfa,,,113,19,V,R,
617,113,29,14,4,47,33,1500,['c'],1,left,['1'],6,227,[0.15474934],95,47,medium,minus,dotcolour,alfa,,,113,19,V,R,
618,114,30,14,4,47,33,817,['c'],1,left,['1'],6,371,[-0.05505188],31,47,medium,minus,dotcolour,alfa,,,113,19,V,R,
619,115,31,14,4,53,27,566,['c'],1,left,['1'],6,134,[0.08092044],88,53,easy,minus,dotcolour,alfa,,,113,19,V,R,
620,116,32,14,4,36,44,1383,['c'],0,right,['2'],5,203,[0.00244995],51,44,hard,minus,dotcolour,alfa,,,113,19,V,R,
621,117,33,14,4,47,33,567,['c'],1,left,['1'],6,126,[0.16705744],99,47,medium,minus,dotcolour,alfa,,,113,19,V,R,
622,118,34,14,4,33,47,2483,['n'],1,right,['2'],5,207,[-0.10612207],89,47,medium,minus,dotcolour,alfa,,,113,19,V,R,
623,119,35,14,4,44,36,966,['c'],1,left,['1'],6,104,[0.17462121],99,44,hard,minus,dotcolour,alfa,,,113,19,V,R,
624,120,36,14,4,47,33,2533,['c'],1,left,['2'],5,177,[0.07581228],84,47,medium,minus,dotcolour,alfa,,,113,19,V,R,
625,121,37,14,4,33,47,1667,['n'],1,right,['2'],5,472,[-0.04782458],65,47,medium,minus,dotcolour,alfa,,,113,19,V,R,
626,122,38,14,4,53,27,666,['c'],1,left,['1'],6,99,[0.13279095],98,53,easy,minus,dotcolour,alfa,,,113,19,V,R,
627,123,39,14,4,53,27,684,['c'],1,left,['1'],6,253,[0.0707047],78,53,easy,minus,dotcolour,alfa,,,113,19,V,R,
628,124,40,14,4,36,44,1050,['n'],1,right,['9'],2,1563,[-0.16760985],77,44,hard,minus,dotcolour,alfa,,,113,19,V,R,
629,125,41,14,4,53,27,1417,['c'],1,left,['2'],5,245,[0.21268315],98,53,easy,minus,dotcolour,alfa,,,113,19,V,R,
630,0,0,15,5,27,53,1551,['n'],1,right,['1'],6,144,[-0.06010769],100,53,easy,plus,dotcolour,alfa,,,113,19,V,R,
631,1,1,15,5,36,44,850,['c'],0,right,['2'],5,337,[0.06827987],99,44,hard,plus,dotcolour,alfa,,,113,19,V,R,
632,2,2,15,5,27,53,683,['n'],1,right,['1'],6,129,[-0.09486632],100,53,easy,plus,dotcolour,alfa,,,113,19,V,R,
633,3,3,15,5,36,44,967,['n'],1,right,['1'],6,143,[-0.05582395],100,44,hard,plus,dotcolour,alfa,,,113,19,V,R,
634,4,4,15,5,33,47,517,['n'],1,right,['1'],6,110,[-0.06891155],100,47,medium,plus,dotcolour,alfa,,,113,19,V,R,
635,5,5,15,5,33,47,484,['n'],1,right,['1'],6,111,[-0.06121879],100,47,medium,plus,dotcolour,alfa,,,113,19,V,R,
636,6,6,15,5,27,53,683,['n'],1,right,['1'],6,672,[-0.19053211],100,53,easy,plus,dotcolour,alfa,,,113,19,V,R,
637,7,7,15,5,27,53,583,['n'],1,right,['1'],6,103,[-0.08448025],100,53,easy,plus,dotcolour,alfa,,,113,19,V,R,
638,8,8,15,5,47,33,1084,['c'],1,left,['1'],6,113,[0.10928587],100,47,medium,plus,dotcolour,alfa,,,113,19,V,R,
639,9,9,15,5,47,33,1300,['n'],0,left,['2'],5,562,[0.08413143],2,47,medium,plus,dotcolour,alfa,,,113,19,V,R,
640,10,10,15,5,44,36,8667,['n'],0,left,['3'],4,138,[-0.09390952],100,44,hard,plus,dotcolour,alfa,,,113,19,V,R,
641,11,11,15,5,44,36,1166,['c'],1,left,['1'],6,159,[0.05232966],99,44,hard,plus,dotcolour,alfa,,,113,19,V,R,
642,12,12,15,5,47,33,616,['c'],1,left,['2'],5,290,[0.12101911],100,47,medium,plus,dotcolour,alfa,,,113,19,V,R,
643,13,13,15,5,33,47,701,['n'],1,right,['1'],6,114,[-0.06443773],100,47,medium,plus,dotcolour,alfa,,,113,19,V,R,
644,14,14,15,5,44,36,867,['c'],1,left,['1'],6,117,[0.02491065],93,44,hard,plus,dotcolour,alfa,,,113,19,V,R,
645,15,15,15,5,53,27,567,['c'],1,left,['1'],6,139,[0.05556849],100,53,easy,plus,dotcolour,alfa,,,113,19,V,R,
646,16,16,15,5,44,36,800,['c'],1,left,['2'],5,223,[0.08537158],100,44,hard,plus,dotcolour,alfa,,,113,19,V,R,
647,17,17,15,5,53,27,583,['c'],1,left,['1'],6,144,[0.06878824],100,53,easy,plus,dotcolour,alfa,,,113,19,V,R,
648,18,18,15,5,53,27,467,['c'],1,left,['1'],6,144,[0.16200638],100,53,easy,plus,dotcolour,alfa,,,113,19,V,R,
649,19,19,15,5,44,36,551,['c'],1,left,['2'],5,629,[-0.01420266],34,44,hard,plus,dotcolour,alfa,,,113,19,V,R,
650,20,20,15,5,47,33,550,['c'],1,left,['1'],6,112,[0.04919614],99,47,medium,plus,dotcolour,alfa,,,113,19,V,R,
651,21,21,15,5,33,47,1551,['c'],0,right,['1'],6,102,[0.09217091],100,47,medium,plus,dotcolour,alfa,,,113,19,V,R,
652,22,22,15,5,27,53,950,['n'],1,right,['2'],5,389,[-0.12796402],100,53,easy,plus,dotcolour,alfa,,,113,19,V,R,
653,23,23,15,5,47,33,1400,['c'],1,left,['1'],6,119,[0.09151786],100,47,medium,plus,dotcolour,alfa,,,113,19,V,R,
654,24,24,15,5,27,53,1000,['n'],1,right,['1'],6,139,[-0.12899093],100,53,easy,plus,dotcolour,alfa,,,113,19,V,R,
655,25,25,15,5,36,44,1850,['c'],0,right,['1'],6,142,[0.06214111],100,44,hard,plus,dotcolour,alfa,,,113,19,V,R,
656,26,26,15,5,53,27,700,['c'],1,left,['1'],6,117,[0.07420955],100,53,easy,plus,dotcolour,alfa,,,113,19,V,R,
657,27,27,15,5,27,53,617,['n'],1,right,['1'],6,137,[-0.08383198],100,53,easy,plus,dotcolour,alfa,,,113,19,V,R,
658,28,28,15,5,33,47,1767,['c'],0,right,['1'],6,150,[0.10569589],100,47,medium,plus,dotcolour,alfa,,,113,19,V,R,
659,29,29,15,5,47,33,567,['c'],1,left,['1'],6,155,[0.07169064],100,47,medium,plus,dotcolour,alfa,,,113,19,V,R,
660,30,30,15,5,53,27,617,['c'],1,left,['1'],6,109,[0.05541853],100,53,easy,plus,dotcolour,alfa,,,113,19,V,R,
661,31,31,15,5,36,44,867,['n'],1,right,['2'],5,240,[0.03998599],5,44,hard,plus,dotcolour,alfa,,,113,19,V,R,
662,32,32,15,5,33,47,1883,['c'],0,right,['1'],6,115,[0.10284184],100,47,medium,plus,dotcolour,alfa,,,113,19,V,R,
663,33,33,15,5,44,36,649,['c'],1,left,['1'],6,406,[-0.02593735],19,44,hard,plus,dotcolour,alfa,,,113,19,V,R,
664,34,34,15,5,36,44,600,['n'],1,right,['2'],5,591,[-0.03784956],85,44,hard,plus,dotcolour,alfa,,,113,19,V,R,
665,35,35,15,5,36,44,634,['n'],1,right,['2'],5,544,[-0.11824392],100,44,hard,plus,dotcolour,alfa,,,113,19,V,R,
666,36,36,15,5,53,27,849,['c'],1,left,['1'],6,121,[0.0254966],93,53,easy,plus,dotcolour,alfa,,,113,19,V,R,
667,37,37,15,5,36,44,1300,['n'],1,right,['2'],5,153,[-0.12590119],100,44,hard,plus,dotcolour,alfa,,,113,19,V,R,
668,38,38,15,5,44,36,734,['c'],1,left,['1'],6,151,[0.02579371],92,44,hard,plus,dotcolour,alfa,,,113,19,V,R,
669,39,39,15,5,53,27,584,['c'],1,left,['1'],6,107,[0.03005377],96,53,easy,plus,dotcolour,alfa,,,113,19,V,R,
670,40,40,15,5,47,33,634,['c'],1,left,['1'],6,335,[0.04010768],92,47,medium,plus,dotcolour,alfa,,,113,19,V,R,
671,41,41,15,5,33,47,2634,['n'],1,right,['2'],5,113,[-0.08961733],100,47,medium,plus,dotcolour,alfa,,,113,19,V,R,
672,42,0,16,5,27,53,651,['c'],0,right,['1'],6,95,[0.04386378],99,53,easy,plus,dotcolour,alfa,,,113,19,V,R,
673,43,1,16,5,36,44,700,['c'],0,right,['1'],6,113,[-0.01836087],12,44,hard,plus,dotcolour,alfa,,,113,19,V,R,
674,44,2,16,5,36,44,1450,['c'],0,right,['2'],5,355,[0.08812023],100,44,hard,plus,dotcolour,alfa,,,113,19,V,R,
675,45,3,16,5,53,27,651,['c'],1,left,['1'],6,116,[0.11419275],100,53,easy,plus,dotcolour,alfa,,,113,19,V,R,
676,46,4,16,5,53,27,584,['c'],1,left,['1'],6,137,[0.0712379],100,53,easy,plus,dotcolour,alfa,,,113,19,V,R,
677,47,5,16,5,44,36,550,['c'],1,left,['1'],6,111,[0.0174504],87,44,hard,plus,dotcolour,alfa,,,113,19,V,R,
678,48,6,16,5,33,47,734,['n'],1,right,['1'],6,239,[0.02189938],17,47,medium,plus,dotcolour,alfa,,,113,19,V,R,
679,49,7,16,5,27,53,567,['c'],0,right,['1'],6,104,[0.02695935],95,53,easy,plus,dotcolour,alfa,,,113,19,V,R,
680,50,8,16,5,47,33,1201,['c'],1,left,['1'],6,110,[0.11690043],100,47,medium,plus,dotcolour,alfa,,,113,19,V,R,
681,51,9,16,5,47,33,634,['c'],1,left,['1'],6,137,[0.09092853],100,47,medium,plus,dotcolour,alfa,,,113,19,V,R,
682,52,10,16,5,27,53,783,['n'],1,right,['1'],6,494,[-0.12771994],100,53,easy,plus,dotcolour,alfa,,,113,19,V,R,
683,53,11,16,5,36,44,1333,['c'],0,right,['2'],5,829,[0.10665554],99,44,hard,plus,dotcolour,alfa,,,113,19,V,R,
684,54,12,16,5,33,47,749,['n'],1,right,['1'],6,72,[-0.0745032],100,47,medium,plus,dotcolour,alfa,,,113,19,V,R,
685,55,13,16,5,33,47,2000,['c'],0,right,['3'],4,1310,[-0.05778955],14,47,medium,plus,dotcolour,alfa,,,113,19,V,R,
686,56,14,16,5,36,44,1316,['c'],0,right,['1'],6,182,[0.05655559],99,44,hard,plus,dotcolour,alfa,,,113,19,V,R,
687,57,15,16,5,36,44,900,['c'],0,right,['1'],6,109,[0.09184628],100,44,hard,plus,dotcolour,alfa,,,113,19,V,R,
688,58,16,16,5,44,36,584,['c'],1,left,['1'],6,114,[0.09021037],100,44,hard,plus,dotcolour,alfa,,,113,19,V,R,
689,59,17,16,5,47,33,1117,['c'],1,left,['1'],6,201,[0.11875904],100,47,medium,plus,dotcolour,alfa,,,113,19,V,R,
690,60,18,16,5,33,47,634,['n'],1,right,['2'],5,298,[-0.10110707],100,47,medium,plus,dotcolour,alfa,,,113,19,V,R,
691,61,19,16,5,53,27,600,['c'],1,left,['1'],6,127,[0.09381848],100,53,easy,plus,dotcolour,alfa,,,113,19,V,R,
692,62,20,16,5,33,47,783,['n'],1,right,['1'],6,83,[-0.08129406],100,47,medium,plus,dotcolour,alfa,,,113,19,V,R,
693,63,21,16,5,44,36,1167,['c'],1,left,['1'],6,155,[0.06147195],100,44,hard,plus,dotcolour,alfa,,,113,19,V,R,
694,64,22,16,5,27,53,618,['n'],1,right,['1'],6,110,[-0.10655887],100,53,easy,plus,dotcolour,alfa,,,113,19,V,R,
695,65,23,16,5,47,33,684,['c'],1,left,['1'],6,119,[0.1188166],100,47,medium,plus,dotcolour,alfa,,,113,19,V,R,
696,66,24,16,5,33,47,650,['n'],1,right,['1'],6,130,[-0.09325563],100,47,medium,plus,dotcolour,alfa,,,113,19,V,R,
697,67,25,16,5,44,36,1000,['c'],1,left,['1'],6,86,[0.03806907],99,44,hard,plus,dotcolour,alfa,,,113,19,V,R,
698,68,26,16,5,53,27,567,['c'],1,left,['1'],6,93,[0.07307455],100,53,easy,plus,dotcolour,alfa,,,113,19,V,R,
699,69,27,16,5,36,44,1366,['c'],0,right,['1'],6,156,[0.02396858],90,44,hard,plus,dotcolour,alfa,,,113,19,V,R,
700,70,28,16,5,53,27,550,['c'],1,left,['1'],6,145,[0.0794378],100,53,easy,plus,dotcolour,alfa,,,113,19,V,R,
701,71,29,16,5,47,33,1100,['c'],1,left,['2'],5,1273,[0.1816332],100,47,medium,plus,dotcolour,alfa,,,113,19,V,R,
702,72,30,16,5,47,33,634,['c'],1,left,['1'],6,117,[0.03894335],98,47,medium,plus,dotcolour,alfa,,,113,19,V,R,
703,73,31,16,5,27,53,550,['n'],1,right,['1'],6,100,[-0.07540566],100,53,easy,plus,dotcolour,alfa,,,113,19,V,R,
704,74,32,16,5,27,53,650,['n'],1,right,['1'],6,143,[-0.0457576],99,53,easy,plus,dotcolour,alfa,,,113,19,V,R,
705,75,33,16,5,47,33,734,['c'],1,left,['2'],5,901,[0.23730145],100,47,medium,plus,dotcolour,alfa,,,113,19,V,R,
706,76,34,16,5,53,27,551,['c'],1,left,['1'],6,180,[0.07336726],100,53,easy,plus,dotcolour,alfa,,,113,19,V,R,
707,77,35,16,5,44,36,900,['c'],1,left,['1'],6,170,[0.06853185],100,44,hard,plus,dotcolour,alfa,,,113,19,V,R,
708,78,36,16,5,44,36,617,['c'],1,left,['1'],6,884,[0.16173527],100,44,hard,plus,dotcolour,alfa,,,113,19,V,R,
709,79,37,16,5,36,44,1134,['c'],0,right,['1'],6,132,[0.02591445],93,44,hard,plus,dotcolour,alfa,,,113,19,V,R,
710,80,38,16,5,33,47,2001,['c'],0,right,['1'],6,16,[0.06912768],100,47,medium,plus,dotcolour,alfa,,,113,19,V,R,
711,81,39,16,5,27,53,1700,['n'],1,right,['1'],6,124,[-0.07390653],100,53,easy,plus,dotcolour,alfa,,,113,19,V,R,
712,82,40,16,5,44,36,1217,['c'],1,left,['1'],6,424,[0.03437225],87,44,hard,plus,dotcolour,alfa,,,113,19,V,R,
713,83,41,16,5,53,27,684,['c'],1,left,['1'],6,125,[0.15547758],100,53,easy,plus,dotcolour,alfa,,,113,19,V,R,
714,84,0,17,5,44,36,984,['n'],0,left,['1'],6,172,[-0.07143546],100,44,hard,plus,dotcolour,alfa,,,113,19,V,R,
715,85,1,17,5,33,47,700,['n'],1,right,['2'],5,235,[-0.15415487],100,47,medium,plus,dotcolour,alfa,,,113,19,V,R,
716,86,2,17,5,33,47,683,['n'],1,right,['1'],6,280,[-0.18348554],100,47,medium,plus,dotcolour,alfa,,,113,19,V,R,
717,87,3,17,5,36,44,516,['n'],1,right,['2'],5,409,[-0.16233398],100,44,hard,plus,dotcolour,alfa,,,113,19,V,R,
718,88,4,17,5,33,47,667,['n'],1,right,['2'],5,455,[-0.23041685],100,47,medium,plus,dotcolour,alfa,,,113,19,V,R,
719,89,5,17,5,44,36,667,['c'],1,left,['1'],6,107,[0.02717158],95,44,hard,plus,dotcolour,alfa,,,113,19,V,R,
720,90,6,17,5,27,53,801,['n'],1,right,['1'],6,103,[-0.08841419],100,53,easy,plus,dotcolour,alfa,,,113,19,V,R,
721,91,7,17,5,27,53,517,['n'],1,right,['1'],6,104,[-0.11349519],100,53,easy,plus,dotcolour,alfa,,,113,19,V,R,
722,92,8,17,5,47,33,900,['c'],1,left,['1'],6,50,[0.05957954],100,47,medium,plus,dotcolour,alfa,,,113,19,V,R,
723,93,9,17,5,27,53,617,['n'],1,right,['1'],6,88,[-0.1132176],100,53,easy,plus,dotcolour,alfa,,,113,19,V,R,
724,94,10,17,5,36,44,450,['n'],1,right,['1'],6,140,[0.00306186],43,44,hard,plus,dotcolour,alfa,,,113,19,V,R,
725,95,11,17,5,36,44,2183,['c'],0,right,['2'],5,241,[0.0146297],75,44,hard,plus,dotcolour,alfa,,,113,19,V,R,
726,96,12,17,5,53,27,616,['c'],1,left,['1'],6,135,[0.12339691],100,53,easy,plus,dotcolour,alfa,,,113,19,V,R,
727,97,13,17,5,36,44,1067,['c'],0,right,['1'],6,105,[0.03931023],99,44,hard,plus,dotcolour,alfa,,,113,19,V,R,
728,98,14,17,5,27,53,1750,['n'],1,right,['1'],6,112,[-0.0889557],100,53,easy,plus,dotcolour,alfa,,,113,19,V,R,
729,99,15,17,5,53,27,617,['c'],1,left,['1'],6,124,[0.0494595],99,53,easy,plus,dotcolour,alfa,,,113,19,V,R,
730,100,16,17,5,47,33,650,['c'],1,left,['1'],6,38,[0.06032192],100,47,medium,plus,dotcolour,alfa,,,113,19,V,R,
731,101,17,17,5,47,33,499,['c'],1,left,['1'],6,155,[0.08714946],100,47,medium,plus,dotcolour,alfa,,,113,19,V,R,
732,102,18,17,5,53,27,534,['c'],1,left,['1'],6,144,[0.11529653],100,53,easy,plus,dotcolour,alfa,,,113,19,V,R,
733,103,19,17,5,53,27,483,['c'],1,left,['1'],6,144,[0.04336845],98,53,easy,plus,dotcolour,alfa,,,113,19,V,R,
734,104,20,17,5,44,36,768,['c'],1,left,['1'],6,165,[0.05021704],99,44,hard,plus,dotcolour,alfa,,,113,19,V,R,
735,105,21,17,5,36,44,883,['c'],0,right,['1'],6,52,[0.02116582],97,44,hard,plus,dotcolour,alfa,,,113,19,V,R,
736,106,22,17,5,47,33,550,['c'],1,left,['1'],6,126,[0.06629746],100,47,medium,plus,dotcolour,alfa,,,113,19,V,R,
737,107,23,17,5,27,53,834,['n'],1,right,['2'],5,256,[-0.1094816],100,53,easy,plus,dotcolour,alfa,,,113,19,V,R,
738,108,24,17,5,27,53,1017,['n'],1,right,['1'],6,126,[-0.18099574],100,53,easy,plus,dotcolour,alfa,,,113,19,V,R,
739,109,25,17,5,47,33,800,['c'],1,left,['2'],5,2419,[0.47377627],100,47,medium,plus,dotcolour,alfa,,,113,19,V,R,
740,110,26,17,5,27,53,716,['n'],1,right,['1'],6,117,[-0.05503577],100,53,easy,plus,dotcolour,alfa,,,113,19,V,R,
741,111,27,17,5,33,47,534,['n'],1,right,['1'],6,101,[-0.07742078],100,47,medium,plus,dotcolour,alfa,,,113,19,V,R,
742,112,28,17,5,44,36,716,['c'],1,left,['1'],6,142,[0.06224339],100,44,hard,plus,dotcolour,alfa,,,113,19,V,R,
743,113,29,17,5,36,44,1099,['n'],1,right,['2'],5,278,[-0.13782281],100,44,hard,plus,dotcolour,alfa,,,113,19,V,R,
744,114,30,17,5,33,47,1500,['n'],1,right,['2'],5,287,[-0.14529515],100,47,medium,plus,dotcolour,alfa,,,113,19,V,R,
745,115,31,17,5,53,27,601,['c'],1,left,['1'],6,85,[0.05910439],100,53,easy,plus,dotcolour,alfa,,,113,19,V,R,
746,116,32,17,5,47,33,1150,['c'],1,left,['1'],6,117,[0.05913236],100,47,medium,plus,dotcolour,alfa,,,113,19,V,R,
747,117,33,17,5,33,47,617,['n'],1,right,['1'],6,97,[-0.07768185],100,47,medium,plus,dotcolour,alfa,,,113,19,V,R,
748,118,34,17,5,44,36,1083,['n'],0,left,['3'],4,1059,[-0.1573501],100,44,hard,plus,dotcolour,alfa,,,113,19,V,R,
749,119,35,17,5,36,44,1134,['n'],1,right,['9'],2,2813,[-0.06127919],79,44,hard,plus,dotcolour,alfa,,,113,19,V,R,
750,120,36,17,5,44,36,867,['c'],1,left,['1'],6,114,[0.12423588],100,44,hard,plus,dotcolour,alfa,,,113,19,V,R,
751,121,37,17,5,33,47,866,['n'],1,right,['1'],6,332,[-0.09188654],100,47,medium,plus,dotcolour,alfa,,,113,19,V,R,
752,122,38,17,5,53,27,933,['c'],1,left,['1'],6,138,[0.07729626],100,53,easy,plus,dotcolour,alfa,,,113,19,V,R,
753,123,39,17,5,44,36,584,['c'],1,left,['1'],6,167,[0.10789732],100,44,hard,plus,dotcolour,alfa,,,113,19,V,R,
754,124,40,17,5,53,27,585,['c'],1,left,['1'],6,186,[0.16056333],100,53,easy,plus,dotcolour,alfa,,,113,19,V,R,
755,125,41,17,5,47,33,566,['c'],1,left,['2'],5,598,[0.23858148],100,47,medium,plus,dotcolour,alfa,,,113,19,V,R,
,,,,,,,,,,,,,,,,,,,,,1, nee                ,113,19,V,R,
,,,,,,,,,,,,,,,,,,,,,2,['f'],113,19,V,R,
,,,,,,,,,,,,,,,,,,,,,3,['g'],113,19,V,R,
,,,,,,,,,,,,,,,,,,,,,5,['5'],113,19,V,R,
