trial,withinphasetrial,withinblocktrial,block,phase,dotsLeft,dotsRight,rt,resp,cor,cresp,conf_press,cj,RTconf,ev,fb,diff,difflevel,condition,task,manip,questionID,questionResp,sub,age,gender,handedness,
0,0,0,0,0,53,27,6484,['n'],0,left,['8'],3,10730,[1.86147698],0,53,easy,plus,dotcolour,beta,,,32,20,M,R,
1,1,1,0,0,53,27,3950,['c'],1,left,['2'],5,4916,[0.67200067],100,53,easy,plus,dotcolour,beta,,,32,20,M,R,
2,2,2,0,0,36,44,3533,['c'],0,right,['2'],5,5258,[-0.08288245],45,44,hard,plus,dotcolour,beta,,,32,20,M,R,
3,3,3,0,0,36,44,2068,['n'],1,right,['2'],5,6117,[-0.31842448],94,44,hard,plus,dotcolour,beta,,,32,20,M,R,
4,4,4,0,0,36,44,1600,['n'],1,right,['2'],5,1416,[-0.05833587],85,44,hard,plus,dotcolour,beta,,,32,20,M,R,
5,5,5,0,0,33,47,1333,['n'],1,right,['3'],4,946,[-0.15293961],98,47,medium,plus,dotcolour,beta,,,32,20,M,R,
6,6,6,0,0,44,36,2183,['c'],1,left,['2'],5,1502,[0.2862968],99,44,hard,plus,dotcolour,beta,,,32,20,M,R,
7,7,7,0,0,44,36,1467,['n'],0,left,['2'],5,2737,[-0.07042459],80,44,hard,plus,dotcolour,beta,,,32,20,M,R,
8,8,8,0,0,27,53,867,['n'],1,right,['2'],5,857,[-0.02243423],82,53,easy,plus,dotcolour,beta,,,32,20,M,R,
9,9,9,0,0,36,44,833,['n'],1,right,['1'],6,527,[-0.13611683],99,44,hard,plus,dotcolour,beta,,,32,20,M,R,
10,10,10,0,0,53,27,1483,['c'],1,left,['1'],6,327,[0.13873821],100,53,easy,plus,dotcolour,beta,,,32,20,M,R,
11,11,11,0,0,27,53,1249,['n'],1,right,['1'],6,305,[-0.05997846],98,53,easy,plus,dotcolour,beta,,,32,20,M,R,
12,12,12,0,0,47,33,1518,['n'],0,left,['2'],5,361,[-0.03713993],94,47,medium,plus,dotcolour,beta,,,32,20,M,R,
13,13,13,0,0,53,27,1467,['c'],1,left,['1'],6,248,[0.11028891],100,53,easy,plus,dotcolour,beta,,,32,20,M,R,
14,14,14,0,0,33,47,1200,['n'],1,right,['1'],6,208,[-0.02134952],95,47,medium,plus,dotcolour,beta,,,32,20,M,R,
15,15,15,0,0,44,36,1394,['c'],1,left,['1'],6,208,[0.14917874],100,44,hard,plus,dotcolour,beta,,,32,20,M,R,
16,16,16,0,0,36,44,1999,['n'],1,right,['3'],4,1064,[0.00938493],69,44,hard,plus,dotcolour,beta,,,32,20,M,R,
17,17,17,0,0,44,36,1951,['n'],0,left,['2'],5,856,[0.03271695],61,44,hard,plus,dotcolour,beta,,,32,20,M,R,
18,18,18,0,0,27,53,1399,['n'],1,right,['1'],6,511,[-0.21753269],100,53,easy,plus,dotcolour,beta,,,32,20,M,R,
19,19,19,0,0,33,47,733,['n'],1,right,['1'],6,182,[-0.10285194],100,47,medium,plus,dotcolour,beta,,,32,20,M,R,
20,20,20,0,0,36,44,884,['n'],1,right,['2'],5,261,[-0.04662685],97,44,hard,plus,dotcolour,beta,,,32,20,M,R,
21,21,21,0,0,33,47,534,['n'],1,right,['2'],5,542,[-0.16513142],100,47,medium,plus,dotcolour,beta,,,32,20,M,R,
22,22,22,0,0,33,47,550,['n'],1,right,['2'],5,468,[-0.20246628],100,47,medium,plus,dotcolour,beta,,,32,20,M,R,
23,23,23,0,0,47,33,784,['n'],0,left,['3'],4,699,[0.00256314],76,47,medium,plus,dotcolour,beta,,,32,20,M,R,
24,24,24,0,0,47,33,617,['n'],0,left,['2'],5,256,[0.00562232],86,47,medium,plus,dotcolour,beta,,,32,20,M,R,
25,25,25,0,0,53,27,1433,['c'],1,left,['2'],5,245,[0.02072969],94,53,easy,plus,dotcolour,beta,,,32,20,M,R,
26,26,26,0,0,27,53,767,['n'],1,right,['1'],6,614,[-0.19488879],100,53,easy,plus,dotcolour,beta,,,32,20,M,R,
27,27,27,0,0,47,33,1699,['c'],1,left,['1'],6,123,[0.11806819],100,47,medium,plus,dotcolour,beta,,,32,20,M,R,
28,28,28,0,0,33,47,1568,['n'],1,right,['2'],5,385,[-0.11995115],99,47,medium,plus,dotcolour,beta,,,32,20,M,R,
29,29,29,0,0,27,53,1167,['n'],1,right,['2'],5,213,[-0.03741824],97,53,easy,plus,dotcolour,beta,,,32,20,M,R,
30,30,30,0,0,44,36,1068,['n'],0,left,['3'],4,234,[-0.03609341],97,44,hard,plus,dotcolour,beta,,,32,20,M,R,
31,31,31,0,0,53,27,1399,['c'],1,left,['2'],5,194,[0.1237282],100,53,easy,plus,dotcolour,beta,,,32,20,M,R,
32,32,32,0,0,44,36,1451,['c'],1,left,['2'],5,258,[0.17692353],100,44,hard,plus,dotcolour,beta,,,32,20,M,R,
33,33,33,0,0,27,53,1534,['n'],1,right,['2'],5,267,[-0.15066629],100,53,easy,plus,dotcolour,beta,,,32,20,M,R,
34,34,34,0,0,53,27,1451,['c'],1,left,['2'],5,168,[0.06141462],99,53,easy,plus,dotcolour,beta,,,32,20,M,R,
35,35,35,0,0,33,47,1468,['n'],1,right,['2'],5,336,[-0.13007624],100,47,medium,plus,dotcolour,beta,,,32,20,M,R,
36,36,36,0,0,47,33,1284,['c'],1,left,['3'],4,368,[0.09141274],99,47,medium,plus,dotcolour,beta,,,32,20,M,R,
37,37,37,0,0,47,33,2101,['n'],0,left,['2'],5,663,[-0.07679512],95,47,medium,plus,dotcolour,beta,,,32,20,M,R,
38,38,38,0,0,44,36,1284,['n'],0,left,['2'],5,115,[-0.02513165],99,44,hard,plus,dotcolour,beta,,,32,20,M,R,
39,39,39,0,0,36,44,1150,['n'],1,right,['3'],4,233,[-0.06617275],99,44,hard,plus,dotcolour,beta,,,32,20,M,R,
40,40,40,0,0,27,53,1183,['n'],1,right,['1'],6,250,[-0.15004011],100,53,easy,plus,dotcolour,beta,,,32,20,M,R,
41,41,41,0,0,47,33,1167,['n'],0,left,['1'],6,219,[0.03781495],66,47,medium,plus,dotcolour,beta,,,32,20,M,R,
42,42,0,1,0,53,27,2001,['c'],1,left,['2'],5,950,[0.24512459],100,53,easy,plus,dotcolour,beta,,,32,20,M,R,
43,43,1,1,0,27,53,1149,['n'],1,right,['1'],6,155,[-0.0737867],100,53,easy,plus,dotcolour,beta,,,32,20,M,R,
44,44,2,1,0,27,53,1302,['n'],1,right,['1'],6,242,[-0.06884612],99,53,easy,plus,dotcolour,beta,,,32,20,M,R,
45,45,3,1,0,27,53,901,['n'],1,right,['1'],6,142,[-0.14722629],100,53,easy,plus,dotcolour,beta,,,32,20,M,R,
46,46,4,1,0,53,27,1501,['c'],1,left,['1'],6,172,[0.09963992],100,53,easy,plus,dotcolour,beta,,,32,20,M,R,
47,47,5,1,0,33,47,1067,['c'],0,right,['1'],6,268,[0.08078229],99,47,medium,plus,dotcolour,beta,,,32,20,M,R,
48,48,6,1,0,27,53,1783,['n'],1,right,['1'],6,795,[-0.19950762],99,53,easy,plus,dotcolour,beta,,,32,20,M,R,
49,49,7,1,0,47,33,1533,['c'],1,left,['2'],5,1519,[0.2783432],99,47,medium,plus,dotcolour,beta,,,32,20,M,R,
50,50,8,1,0,44,36,1100,['c'],1,left,['1'],6,464,[0.10933049],99,44,hard,plus,dotcolour,beta,,,32,20,M,R,
51,51,9,1,0,33,47,1084,['n'],1,right,['1'],6,290,[-0.05942391],98,47,medium,plus,dotcolour,beta,,,32,20,M,R,
52,52,10,1,0,36,44,1033,['n'],1,right,['1'],6,206,[-0.00717889],92,44,hard,plus,dotcolour,beta,,,32,20,M,R,
53,53,11,1,0,44,36,983,['n'],0,left,['1'],6,168,[-0.04755802],99,44,hard,plus,dotcolour,beta,,,32,20,M,R,
54,54,12,1,0,27,53,966,['n'],1,right,['1'],6,253,[-0.05169917],98,53,easy,plus,dotcolour,beta,,,32,20,M,R,
55,55,13,1,0,44,36,1550,['n'],0,left,['2'],5,485,[-0.17560204],100,44,hard,plus,dotcolour,beta,,,32,20,M,R,
56,56,14,1,0,47,33,1134,['n'],0,left,['2'],5,382,[-0.04081412],94,47,medium,plus,dotcolour,beta,,,32,20,M,R,
57,57,15,1,0,53,27,1267,['c'],1,left,['1'],6,238,[0.01712789],94,53,easy,plus,dotcolour,beta,,,32,20,M,R,
58,58,16,1,0,36,44,1802,['n'],1,right,['1'],6,158,[-0.1419571],100,44,hard,plus,dotcolour,beta,,,32,20,M,R,
59,59,17,1,0,53,27,2533,['c'],1,left,['1'],6,995,[0.12609657],96,53,easy,plus,dotcolour,beta,,,32,20,M,R,
60,60,18,1,0,47,33,2050,['c'],1,left,['1'],6,626,[0.1526061],99,47,medium,plus,dotcolour,beta,,,32,20,M,R,
61,61,19,1,0,33,47,2651,['c'],0,right,['2'],5,1000,[-0.0296744],61,47,medium,plus,dotcolour,beta,,,32,20,M,R,
62,62,20,1,0,36,44,1500,['n'],1,right,['1'],6,125,[-0.0561071],100,44,hard,plus,dotcolour,beta,,,32,20,M,R,
63,63,21,1,0,33,47,1016,['n'],1,right,['1'],6,160,[-0.11393967],100,47,medium,plus,dotcolour,beta,,,32,20,M,R,
64,64,22,1,0,33,47,1082,['n'],1,right,['1'],6,184,[-0.05586088],99,47,medium,plus,dotcolour,beta,,,32,20,M,R,
65,65,23,1,0,33,47,933,['n'],1,right,['1'],6,205,[-0.03856959],98,47,medium,plus,dotcolour,beta,,,32,20,M,R,
66,66,24,1,0,33,47,1333,['n'],1,right,['1'],6,96,[-0.11969085],100,47,medium,plus,dotcolour,beta,,,32,20,M,R,
67,67,25,1,0,44,36,1150,['n'],0,left,['1'],6,96,[-0.02213041],99,44,hard,plus,dotcolour,beta,,,32,20,M,R,
68,68,26,1,0,53,27,1333,['c'],1,left,['1'],6,168,[0.07578256],100,53,easy,plus,dotcolour,beta,,,32,20,M,R,
69,69,27,1,0,53,27,7100,['n'],0,left,['3'],4,2775,[0.6344059],0,53,easy,plus,dotcolour,beta,,,32,20,M,R,
70,70,28,1,0,44,36,1499,['n'],0,left,['1'],6,236,[-0.03388733],96,44,hard,plus,dotcolour,beta,,,32,20,M,R,
71,71,29,1,0,27,53,1034,['n'],1,right,['1'],6,187,[-0.10430092],100,53,easy,plus,dotcolour,beta,,,32,20,M,R,
72,72,30,1,0,36,44,1616,['c'],0,right,['1'],6,164,[0.14433472],100,44,hard,plus,dotcolour,beta,,,32,20,M,R,
73,73,31,1,0,47,33,2700,['c'],1,left,['1'],6,1003,[0.26891914],100,47,medium,plus,dotcolour,beta,,,32,20,M,R,
74,74,32,1,0,53,27,1083,['c'],1,left,['1'],6,264,[0.17943405],100,53,easy,plus,dotcolour,beta,,,32,20,M,R,
75,75,33,1,0,47,33,1083,['c'],1,left,['1'],6,228,[0.03509499],97,47,medium,plus,dotcolour,beta,,,32,20,M,R,
76,76,34,1,0,27,53,934,['n'],1,right,['1'],6,150,[-0.02020097],97,53,easy,plus,dotcolour,beta,,,32,20,M,R,
77,77,35,1,0,36,44,1584,['c'],0,right,['1'],6,290,[0.09936103],99,44,hard,plus,dotcolour,beta,,,32,20,M,R,
78,78,36,1,0,44,36,1049,['n'],0,left,['1'],6,197,[0.03576619],69,44,hard,plus,dotcolour,beta,,,32,20,M,R,
79,79,37,1,0,44,36,1266,['n'],0,left,['1'],6,563,[-0.12197257],99,44,hard,plus,dotcolour,beta,,,32,20,M,R,
80,80,38,1,0,36,44,1117,['n'],1,right,['1'],6,163,[-0.04592514],99,44,hard,plus,dotcolour,beta,,,32,20,M,R,
81,81,39,1,0,47,33,2333,['n'],0,left,['1'],6,112,[0.01415486],90,47,medium,plus,dotcolour,beta,,,32,20,M,R,
82,82,40,1,0,47,33,999,['c'],1,left,['1'],6,268,[0.13469704],100,47,medium,plus,dotcolour,beta,,,32,20,M,R,
83,83,41,1,0,36,44,1118,['n'],1,right,['1'],6,109,[-0.02758414],99,44,hard,plus,dotcolour,beta,,,32,20,M,R,
84,84,0,2,0,47,33,1467,['c'],1,left,['1'],6,247,[0.14068622],100,47,medium,plus,dotcolour,beta,,,32,20,M,R,
85,85,1,2,0,44,36,2050,['c'],1,left,['2'],5,388,[0.20148088],100,44,hard,plus,dotcolour,beta,,,32,20,M,R,
86,86,2,2,0,36,44,1117,['n'],1,right,['2'],5,337,[-0.1594121],100,44,hard,plus,dotcolour,beta,,,32,20,M,R,
87,87,3,2,0,53,27,1383,['c'],1,left,['2'],5,397,[0.11636854],99,53,easy,plus,dotcolour,beta,,,32,20,M,R,
88,88,4,2,0,33,47,1200,['n'],1,right,['1'],6,495,[-0.05376993],94,47,medium,plus,dotcolour,beta,,,32,20,M,R,
89,89,5,2,0,33,47,1033,['n'],1,right,['1'],6,234,[-0.01522861],93,47,medium,plus,dotcolour,beta,,,32,20,M,R,
90,90,6,2,0,44,36,1234,['n'],0,left,['1'],6,90,[-0.12577572],100,44,hard,plus,dotcolour,beta,,,32,20,M,R,
91,91,7,2,0,33,47,1117,['n'],1,right,['1'],6,291,[-0.13841475],100,47,medium,plus,dotcolour,beta,,,32,20,M,R,
92,92,8,2,0,27,53,949,['n'],1,right,['1'],6,178,[-0.10112315],100,53,easy,plus,dotcolour,beta,,,32,20,M,R,
93,93,9,2,0,33,47,1067,['n'],1,right,['1'],6,90,[-0.07670809],100,47,medium,plus,dotcolour,beta,,,32,20,M,R,
94,94,10,2,0,27,53,883,['n'],1,right,['1'],6,187,[-0.13278487],100,53,easy,plus,dotcolour,beta,,,32,20,M,R,
95,95,11,2,0,47,33,935,['n'],0,left,['1'],6,88,[-0.04349996],100,47,medium,plus,dotcolour,beta,,,32,20,M,R,
96,96,12,2,0,27,53,899,['n'],1,right,['1'],6,154,[-0.0952922],100,53,easy,plus,dotcolour,beta,,,32,20,M,R,
97,97,13,2,0,53,27,1050,['c'],1,left,['1'],6,251,[0.1478361],100,53,easy,plus,dotcolour,beta,,,32,20,M,R,
98,98,14,2,0,27,53,1035,['n'],1,right,['1'],6,193,[-0.10325109],100,53,easy,plus,dotcolour,beta,,,32,20,M,R,
99,99,15,2,0,44,36,883,['n'],0,left,['1'],6,175,[-0.11128409],100,44,hard,plus,dotcolour,beta,,,32,20,M,R,
100,100,16,2,0,53,27,950,['c'],1,left,['1'],6,260,[0.11155232],100,53,easy,plus,dotcolour,beta,,,32,20,M,R,
101,101,17,2,0,33,47,883,['n'],1,right,['1'],6,126,[-0.06318445],100,47,medium,plus,dotcolour,beta,,,32,20,M,R,
102,102,18,2,0,53,27,783,['c'],1,left,['1'],6,260,[0.11149502],100,53,easy,plus,dotcolour,beta,,,32,20,M,R,
103,103,19,2,0,27,53,783,['c'],0,right,['1'],6,226,[0.0887291],100,53,easy,plus,dotcolour,beta,,,32,20,M,R,
104,104,20,2,0,53,27,1566,['c'],1,left,['1'],6,316,[0.01042221],89,53,easy,plus,dotcolour,beta,,,32,20,M,R,
105,105,21,2,0,36,44,1100,['n'],1,right,['1'],6,124,[-0.02007848],98,44,hard,plus,dotcolour,beta,,,32,20,M,R,
106,106,22,2,0,44,36,883,['n'],0,left,['1'],6,197,[-0.00884314],93,44,hard,plus,dotcolour,beta,,,32,20,M,R,
107,107,23,2,0,44,36,917,['c'],1,left,['1'],6,338,[-0.01148713],80,44,hard,plus,dotcolour,beta,,,32,20,M,R,
108,108,24,2,0,36,44,1017,['c'],0,right,['1'],6,500,[0.0378161],92,44,hard,plus,dotcolour,beta,,,32,20,M,R,
109,109,25,2,0,53,27,1784,['c'],1,left,['1'],6,578,[0.15076949],99,53,easy,plus,dotcolour,beta,,,32,20,M,R,
110,110,26,2,0,36,44,1233,['n'],1,right,['2'],5,299,[0.00367471],85,44,hard,plus,dotcolour,beta,,,32,20,M,R,
111,111,27,2,0,27,53,883,['n'],1,right,['1'],6,181,[-0.10347593],100,53,easy,plus,dotcolour,beta,,,32,20,M,R,
112,112,28,2,0,47,33,917,['n'],0,left,['1'],6,218,[-0.02469709],96,47,medium,plus,dotcolour,beta,,,32,20,M,R,
113,113,29,2,0,47,33,1150,['n'],0,left,['1'],6,645,[0.10438605],25,47,medium,plus,dotcolour,beta,,,32,20,M,R,
114,114,30,2,0,27,53,1317,['n'],1,right,['1'],6,231,[-0.16862335],100,53,easy,plus,dotcolour,beta,,,32,20,M,R,
115,115,31,2,0,44,36,1100,['c'],1,left,['1'],6,252,[0.05238558],98,44,hard,plus,dotcolour,beta,,,32,20,M,R,
116,116,32,2,0,44,36,1333,['n'],0,left,['1'],6,318,[-0.04284977],96,44,hard,plus,dotcolour,beta,,,32,20,M,R,
117,117,33,2,0,53,27,1000,['c'],1,left,['1'],6,347,[0.12199098],100,53,easy,plus,dotcolour,beta,,,32,20,M,R,
118,118,34,2,0,36,44,1083,['n'],1,right,['1'],6,130,[-0.03956555],99,44,hard,plus,dotcolour,beta,,,32,20,M,R,
119,119,35,2,0,33,47,2650,['n'],1,right,['1'],6,437,[-0.09107348],98,47,medium,plus,dotcolour,beta,,,32,20,M,R,
120,120,36,2,0,36,44,1084,['n'],1,right,['1'],6,209,[-0.05909419],99,44,hard,plus,dotcolour,beta,,,32,20,M,R,
121,121,37,2,0,47,33,949,['n'],0,left,['1'],6,212,[-0.0312678],97,47,medium,plus,dotcolour,beta,,,32,20,M,R,
122,122,38,2,0,47,33,1133,['n'],0,left,['1'],6,360,[-0.01190989],88,47,medium,plus,dotcolour,beta,,,32,20,M,R,
123,123,39,2,0,33,47,884,['n'],1,right,['1'],6,167,[-0.09576218],100,47,medium,plus,dotcolour,beta,,,32,20,M,R,
124,124,40,2,0,47,33,1666,['n'],0,left,['1'],6,207,[-0.05885102],99,47,medium,plus,dotcolour,beta,,,32,20,M,R,
125,125,41,2,0,36,44,667,['n'],1,right,['2'],5,749,[-0.11882642],97,44,hard,plus,dotcolour,beta,,,32,20,M,R,
126,0,0,3,1,53,27,1551,['n'],0,left,['2'],5,388,[0.10303439],1,53,easy,minus,dotcolour,beta,,,32,20,M,R,
127,1,1,3,1,27,53,1083,['n'],1,right,['1'],6,162,[-0.15587812],99,53,easy,minus,dotcolour,beta,,,32,20,M,R,
128,2,2,3,1,36,44,1751,['n'],1,right,['1'],6,271,[-0.14418821],96,44,hard,minus,dotcolour,beta,,,32,20,M,R,
129,3,3,3,1,53,27,1216,['c'],1,left,['1'],6,285,[0.11391658],88,53,easy,minus,dotcolour,beta,,,32,20,M,R,
130,4,4,3,1,47,33,852,['c'],1,left,['1'],6,265,[0.17145907],98,47,medium,minus,dotcolour,beta,,,32,20,M,R,
131,5,5,3,1,53,27,717,['c'],1,left,['1'],6,307,[0.15864799],97,53,easy,minus,dotcolour,beta,,,32,20,M,R,
132,6,6,3,1,33,47,1033,['n'],1,right,['1'],6,190,[-0.12683671],95,47,medium,minus,dotcolour,beta,,,32,20,M,R,
133,7,7,3,1,27,53,718,['n'],1,right,['1'],6,132,[-0.13253571],98,53,easy,minus,dotcolour,beta,,,32,20,M,R,
134,8,8,3,1,27,53,484,['n'],1,right,['1'],6,171,[-0.13669756],97,53,easy,minus,dotcolour,beta,,,32,20,M,R,
135,9,9,3,1,47,33,667,['n'],0,left,['1'],6,116,[-0.08466911],82,47,medium,minus,dotcolour,beta,,,32,20,M,R,
136,10,10,3,1,53,27,867,['c'],1,left,['1'],6,277,[0.16842547],98,53,easy,minus,dotcolour,beta,,,32,20,M,R,
137,11,11,3,1,44,36,717,['n'],0,left,['1'],6,167,[-0.091304],83,44,hard,minus,dotcolour,beta,,,32,20,M,R,
138,12,12,3,1,33,47,384,['n'],1,right,['1'],6,186,[-0.06422547],59,47,medium,minus,dotcolour,beta,,,32,20,M,R,
139,13,13,3,1,44,36,666,['n'],0,left,['1'],6,154,[-0.0281756],22,44,hard,minus,dotcolour,beta,,,32,20,M,R,
140,14,14,3,1,33,47,1316,['n'],1,right,['1'],6,129,[-0.13979218],99,47,medium,minus,dotcolour,beta,,,32,20,M,R,
141,15,15,3,1,53,27,417,['n'],0,left,['1'],6,148,[-0.06455888],60,53,easy,minus,dotcolour,beta,,,32,20,M,R,
142,16,16,3,1,27,53,584,['n'],1,right,['1'],6,144,[-0.11600824],95,53,easy,minus,dotcolour,beta,,,32,20,M,R,
143,17,17,3,1,44,36,534,['n'],0,left,['1'],6,134,[-0.03628616],28,44,hard,minus,dotcolour,beta,,,32,20,M,R,
144,18,18,3,1,27,53,500,['n'],1,right,['1'],6,165,[-0.09630048],86,53,easy,minus,dotcolour,beta,,,32,20,M,R,
145,19,19,3,1,53,27,584,['n'],0,left,['1'],6,145,[-0.06575331],62,53,easy,minus,dotcolour,beta,,,32,20,M,R,
146,20,20,3,1,36,44,450,['n'],1,right,['1'],6,131,[-0.08894853],84,44,hard,minus,dotcolour,beta,,,32,20,M,R,
147,21,21,3,1,47,33,383,['n'],0,left,['1'],6,151,[-0.09755788],87,47,medium,minus,dotcolour,beta,,,32,20,M,R,
148,22,22,3,1,53,27,1101,['c'],1,left,['1'],6,222,[0.06786892],62,53,easy,minus,dotcolour,beta,,,32,20,M,R,
149,23,23,3,1,36,44,549,['n'],1,right,['1'],6,105,[-0.05087496],44,44,hard,minus,dotcolour,beta,,,32,20,M,R,
150,24,24,3,1,47,33,951,['c'],1,left,['1'],6,247,[0.13245277],94,47,medium,minus,dotcolour,beta,,,32,20,M,R,
151,25,25,3,1,47,33,700,['c'],1,left,['1'],6,515,[0.16054406],93,47,medium,minus,dotcolour,beta,,,32,20,M,R,
152,26,26,3,1,36,44,917,['c'],0,right,['1'],6,227,[0.02045705],21,44,hard,minus,dotcolour,beta,,,32,20,M,R,
153,27,27,3,1,44,36,617,['n'],0,left,['1'],6,122,[-0.0730342],71,44,hard,minus,dotcolour,beta,,,32,20,M,R,
154,28,28,3,1,44,36,483,['n'],0,left,['1'],6,115,[-0.04130584],32,44,hard,minus,dotcolour,beta,,,32,20,M,R,
155,29,29,3,1,33,47,1233,['n'],1,right,['1'],6,119,[-0.08585805],83,47,medium,minus,dotcolour,beta,,,32,20,M,R,
156,30,30,3,1,33,47,533,['n'],1,right,['1'],6,166,[-0.07693831],72,47,medium,minus,dotcolour,beta,,,32,20,M,R,
157,31,31,3,1,36,44,617,['n'],1,right,['1'],6,144,[-0.05637419],51,44,hard,minus,dotcolour,beta,,,32,20,M,R,
158,32,32,3,1,33,47,449,['n'],1,right,['1'],6,154,[-0.06934418],65,47,medium,minus,dotcolour,beta,,,32,20,M,R,
159,33,33,3,1,36,44,517,['n'],1,right,['1'],6,208,[-0.14550833],97,44,hard,minus,dotcolour,beta,,,32,20,M,R,
160,34,34,3,1,47,33,650,['n'],0,left,['1'],6,143,[-0.09474568],87,47,medium,minus,dotcolour,beta,,,32,20,M,R,
161,35,35,3,1,47,33,1017,['c'],1,left,['1'],6,266,[0.0409003],37,47,medium,minus,dotcolour,beta,,,32,20,M,R,
162,36,36,3,1,44,36,1366,['n'],0,left,['1'],6,130,[-0.05745202],52,44,hard,minus,dotcolour,beta,,,32,20,M,R,
163,37,37,3,1,33,47,433,['n'],1,right,['1'],6,141,[-0.06683871],63,47,medium,minus,dotcolour,beta,,,32,20,M,R,
164,38,38,3,1,27,53,501,['n'],1,right,['1'],6,172,[-0.09980094],87,53,easy,minus,dotcolour,beta,,,32,20,M,R,
165,39,39,3,1,27,53,400,['n'],1,right,['1'],6,102,[-0.08370886],83,53,easy,minus,dotcolour,beta,,,32,20,M,R,
166,40,40,3,1,36,44,451,['n'],1,right,['1'],6,106,[-0.06931953],68,44,hard,minus,dotcolour,beta,,,32,20,M,R,
167,41,41,3,1,44,36,1566,['c'],1,left,['1'],6,281,[0.1142851],88,44,hard,minus,dotcolour,beta,,,32,20,M,R,
168,42,0,4,1,36,44,534,['n'],1,right,['1'],6,122,[-0.07608585],74,44,hard,minus,dotcolour,beta,,,32,20,M,R,
169,43,1,4,1,47,33,632,['n'],0,left,['1'],6,117,[-0.12245963],97,47,medium,minus,dotcolour,beta,,,32,20,M,R,
170,44,2,4,1,44,36,617,['n'],0,left,['1'],6,432,[-0.20436898],98,44,hard,minus,dotcolour,beta,,,32,20,M,R,
171,45,3,4,1,36,44,717,['n'],1,right,['1'],6,100,[-0.08735025],86,44,hard,minus,dotcolour,beta,,,32,20,M,R,
172,46,4,4,1,53,27,966,['c'],1,left,['1'],6,251,[0.07133004],64,53,easy,minus,dotcolour,beta,,,32,20,M,R,
173,47,5,4,1,36,44,717,['n'],1,right,['1'],6,124,[-0.10637912],93,44,hard,minus,dotcolour,beta,,,32,20,M,R,
174,48,6,4,1,44,36,1517,['n'],0,left,['2'],5,437,[-0.0519226],48,44,hard,minus,dotcolour,beta,,,32,20,M,R,
175,49,7,4,1,33,47,650,['n'],1,right,['1'],6,138,[-0.07672232],74,47,medium,minus,dotcolour,beta,,,32,20,M,R,
176,50,8,4,1,47,33,1034,['n'],0,left,['1'],6,117,[-0.01616271],11,47,medium,minus,dotcolour,beta,,,32,20,M,R,
177,51,9,4,1,36,44,666,['n'],1,right,['1'],6,159,[-0.04254364],36,44,hard,minus,dotcolour,beta,,,32,20,M,R,
178,52,10,4,1,27,53,567,['n'],1,right,['1'],6,83,[-0.04152745],29,53,easy,minus,dotcolour,beta,,,32,20,M,R,
179,53,11,4,1,33,47,600,['n'],1,right,['1'],6,121,[-0.0458442],38,47,medium,minus,dotcolour,beta,,,32,20,M,R,
180,54,12,4,1,27,53,451,['n'],1,right,['1'],6,139,[-0.15344348],99,53,easy,minus,dotcolour,beta,,,32,20,M,R,
181,55,13,4,1,47,33,1182,['c'],1,left,['1'],6,321,[0.12561305],90,47,medium,minus,dotcolour,beta,,,32,20,M,R,
182,56,14,4,1,33,47,800,['n'],1,right,['1'],6,180,[-0.03892981],33,47,medium,minus,dotcolour,beta,,,32,20,M,R,
183,57,15,4,1,53,27,1749,['c'],1,left,['2'],5,473,[0.14781583],92,53,easy,minus,dotcolour,beta,,,32,20,M,R,
184,58,16,4,1,33,47,750,['n'],1,right,['1'],6,337,[-0.10724689],83,47,medium,minus,dotcolour,beta,,,32,20,M,R,
185,59,17,4,1,36,44,533,['n'],1,right,['1'],6,135,[-0.15559601],99,44,hard,minus,dotcolour,beta,,,32,20,M,R,
186,60,18,4,1,53,27,1383,['c'],1,left,['2'],5,388,[0.12095433],87,53,easy,minus,dotcolour,beta,,,32,20,M,R,
187,61,19,4,1,53,27,1201,['c'],1,left,['2'],5,765,[0.14392087],86,53,easy,minus,dotcolour,beta,,,32,20,M,R,
188,62,20,4,1,44,36,751,['n'],0,left,['1'],6,369,[-0.09347301],75,44,hard,minus,dotcolour,beta,,,32,20,M,R,
189,63,21,4,1,27,53,450,['n'],1,right,['1'],6,138,[-0.14131214],98,53,easy,minus,dotcolour,beta,,,32,20,M,R,
190,64,22,4,1,27,53,449,['n'],1,right,['1'],6,141,[-0.06072745],56,53,easy,minus,dotcolour,beta,,,32,20,M,R,
191,65,23,4,1,53,27,4183,['c'],1,left,['1'],6,369,[0.11178941],84,53,easy,minus,dotcolour,beta,,,32,20,M,R,
192,66,24,4,1,33,47,600,['n'],1,right,['1'],6,170,[-0.12829306],96,47,medium,minus,dotcolour,beta,,,32,20,M,R,
193,67,25,4,1,44,36,667,['n'],0,left,['1'],6,131,[-0.04520812],37,44,hard,minus,dotcolour,beta,,,32,20,M,R,
194,68,26,4,1,27,53,583,['n'],1,right,['1'],6,144,[-0.05618049],51,53,easy,minus,dotcolour,beta,,,32,20,M,R,
195,69,27,4,1,27,53,666,['n'],1,right,['1'],6,184,[-0.07150847],66,53,easy,minus,dotcolour,beta,,,32,20,M,R,
196,70,28,4,1,44,36,551,['n'],0,left,['1'],6,125,[-0.04145588],33,44,hard,minus,dotcolour,beta,,,32,20,M,R,
197,71,29,4,1,44,36,551,['n'],0,left,['1'],6,138,[-0.00083054],7,44,hard,minus,dotcolour,beta,,,32,20,M,R,
198,72,30,4,1,33,47,517,['n'],1,right,['1'],6,145,[-0.10508874],91,47,medium,minus,dotcolour,beta,,,32,20,M,R,
199,73,31,4,1,47,33,450,['n'],0,left,['1'],6,91,[-0.07638181],78,47,medium,minus,dotcolour,beta,,,32,20,M,R,
200,74,32,4,1,47,33,1250,['c'],1,left,['1'],6,238,[0.06255309],56,47,medium,minus,dotcolour,beta,,,32,20,M,R,
201,75,33,4,1,36,44,500,['n'],1,right,['1'],6,154,[-0.03525521],28,44,hard,minus,dotcolour,beta,,,32,20,M,R,
202,76,34,4,1,44,36,1318,['n'],0,left,['1'],6,305,[-0.03232879],32,44,hard,minus,dotcolour,beta,,,32,20,M,R,
203,77,35,4,1,47,33,1066,['n'],0,left,['2'],5,484,[-0.07167113],60,47,medium,minus,dotcolour,beta,,,32,20,M,R,
204,78,36,4,1,53,27,583,['n'],0,left,['1'],6,162,[-0.01956179],17,53,easy,minus,dotcolour,beta,,,32,20,M,R,
205,79,37,4,1,36,44,767,['n'],1,right,['1'],6,183,[-0.11032628],91,44,hard,minus,dotcolour,beta,,,32,20,M,R,
206,80,38,4,1,27,53,568,['n'],1,right,['1'],6,170,[-0.11057769],92,53,easy,minus,dotcolour,beta,,,32,20,M,R,
207,81,39,4,1,33,47,1217,['c'],0,right,['2'],5,332,[0.0312722],32,47,medium,minus,dotcolour,beta,,,32,20,M,R,
208,82,40,4,1,53,27,550,['n'],0,left,['8'],3,5394,[0.35867919],4,53,easy,minus,dotcolour,beta,,,32,20,M,R,
209,83,41,4,1,47,33,1984,['c'],1,left,['1'],6,939,[0.22668209],96,47,medium,minus,dotcolour,beta,,,32,20,M,R,
210,84,0,5,1,33,47,1450,['n'],1,right,['1'],6,304,[-0.13250041],92,47,medium,minus,dotcolour,beta,,,32,20,M,R,
211,85,1,5,1,36,44,615,['n'],1,right,['2'],5,485,[-0.18585417],97,44,hard,minus,dotcolour,beta,,,32,20,M,R,
212,86,2,5,1,44,36,968,['c'],1,left,['2'],5,436,[0.16729206],95,44,hard,minus,dotcolour,beta,,,32,20,M,R,
213,87,3,5,1,33,47,1033,['n'],1,right,['2'],5,218,[-0.05422911],49,47,medium,minus,dotcolour,beta,,,32,20,M,R,
214,88,4,5,1,44,36,1366,['c'],1,left,['2'],5,398,[0.18683409],98,44,hard,minus,dotcolour,beta,,,32,20,M,R,
215,89,5,5,1,47,33,833,['c'],1,left,['2'],5,900,[0.2999136],99,47,medium,minus,dotcolour,beta,,,32,20,M,R,
216,90,6,5,1,44,36,1233,['n'],0,left,['2'],5,313,[0.03488233],5,44,hard,minus,dotcolour,beta,,,32,20,M,R,
217,91,7,5,1,27,53,1284,['n'],1,right,['1'],6,250,[-0.12401766],92,53,easy,minus,dotcolour,beta,,,32,20,M,R,
218,92,8,5,1,53,27,2167,['c'],1,left,['1'],6,459,[0.24994682],99,53,easy,minus,dotcolour,beta,,,32,20,M,R,
219,93,9,5,1,36,44,1000,['n'],1,right,['1'],6,537,[-0.03208679],36,44,hard,minus,dotcolour,beta,,,32,20,M,R,
220,94,10,5,1,27,53,1299,['n'],1,right,['1'],6,240,[-0.13156199],94,53,easy,minus,dotcolour,beta,,,32,20,M,R,
221,95,11,5,1,53,27,1633,['c'],1,left,['1'],6,191,[0.11411358],92,53,easy,minus,dotcolour,beta,,,32,20,M,R,
222,96,12,5,1,44,36,1033,['n'],0,left,['1'],6,262,[-0.05696769],51,44,hard,minus,dotcolour,beta,,,32,20,M,R,
223,97,13,5,1,36,44,717,['n'],1,right,['1'],6,185,[-0.02959305],25,44,hard,minus,dotcolour,beta,,,32,20,M,R,
224,98,14,5,1,47,33,2833,['c'],1,left,['3'],4,1297,[0.26172868],96,47,medium,minus,dotcolour,beta,,,32,20,M,R,
225,99,15,5,1,44,36,949,['n'],0,left,['2'],5,288,[-0.04353972],40,44,hard,minus,dotcolour,beta,,,32,20,M,R,
226,100,16,5,1,36,44,1083,['n'],1,right,['1'],6,123,[-0.09088622],86,44,hard,minus,dotcolour,beta,,,32,20,M,R,
227,101,17,5,1,53,27,951,['c'],1,left,['2'],5,313,[0.07863412],68,53,easy,minus,dotcolour,beta,,,32,20,M,R,
228,102,18,5,1,44,36,967,['n'],0,left,['2'],5,167,[-0.02874442],23,44,hard,minus,dotcolour,beta,,,32,20,M,R,
229,103,19,5,1,27,53,933,['n'],1,right,['1'],6,301,[-0.16277675],97,53,easy,minus,dotcolour,beta,,,32,20,M,R,
230,104,20,5,1,47,33,3534,['c'],1,left,['2'],5,508,[0.10339],77,47,medium,minus,dotcolour,beta,,,32,20,M,R,
231,105,21,5,1,47,33,950,['n'],0,left,['2'],5,611,[-0.07872716],63,47,medium,minus,dotcolour,beta,,,32,20,M,R,
232,106,22,5,1,27,53,1533,['n'],1,right,['2'],5,1294,[-0.31367338],98,53,easy,minus,dotcolour,beta,,,32,20,M,R,
233,107,23,5,1,47,33,650,['n'],0,left,['2'],5,218,[0.01986586],5,47,medium,minus,dotcolour,beta,,,32,20,M,R,
234,108,24,5,1,33,47,850,['n'],1,right,['1'],6,464,[-0.23050774],99,47,medium,minus,dotcolour,beta,,,32,20,M,R,
235,109,25,5,1,53,27,1184,['c'],1,left,['1'],6,264,[0.07173504],64,53,easy,minus,dotcolour,beta,,,32,20,M,R,
236,110,26,5,1,44,36,1050,['n'],0,left,['3'],4,1628,[0.04661329],19,44,hard,minus,dotcolour,beta,,,32,20,M,R,
237,111,27,5,1,53,27,1084,['c'],1,left,['2'],5,425,[0.09238386],73,53,easy,minus,dotcolour,beta,,,32,20,M,R,
238,112,28,5,1,33,47,1000,['n'],1,right,['2'],5,401,[-0.04950106],46,47,medium,minus,dotcolour,beta,,,32,20,M,R,
239,113,29,5,1,27,53,917,['n'],1,right,['2'],5,390,[-0.15645875],95,53,easy,minus,dotcolour,beta,,,32,20,M,R,
240,114,30,5,1,33,47,850,['n'],1,right,['2'],5,405,[-0.18448083],97,47,medium,minus,dotcolour,beta,,,32,20,M,R,
241,115,31,5,1,36,44,1233,['n'],1,right,['2'],5,292,[-0.07143384],63,44,hard,minus,dotcolour,beta,,,32,20,M,R,
242,116,32,5,1,47,33,1283,['c'],1,left,['2'],5,311,[0.18075128],98,47,medium,minus,dotcolour,beta,,,32,20,M,R,
243,117,33,5,1,36,44,967,['n'],1,right,['2'],5,429,[-0.16840381],96,44,hard,minus,dotcolour,beta,,,32,20,M,R,
244,118,34,5,1,53,27,1767,['c'],1,left,['2'],5,294,[0.10862595],85,53,easy,minus,dotcolour,beta,,,32,20,M,R,
245,119,35,5,1,27,53,683,['n'],1,right,['2'],5,496,[-0.028562],33,53,easy,minus,dotcolour,beta,,,32,20,M,R,
246,120,36,5,1,33,47,1450,['n'],1,right,['2'],5,299,[-0.03579726],34,47,medium,minus,dotcolour,beta,,,32,20,M,R,
247,121,37,5,1,33,47,750,['n'],1,right,['2'],5,290,[-0.14803553],96,47,medium,minus,dotcolour,beta,,,32,20,M,R,
248,122,38,5,1,53,27,1417,['n'],0,left,['2'],5,487,[0.04547623],7,53,easy,minus,dotcolour,beta,,,32,20,M,R,
249,123,39,5,1,47,33,1800,['c'],1,left,['2'],5,284,[0.10636807],85,47,medium,minus,dotcolour,beta,,,32,20,M,R,
250,124,40,5,1,36,44,650,['n'],1,right,['2'],5,1841,[-0.34484089],98,44,hard,minus,dotcolour,beta,,,32,20,M,R,
251,125,41,5,1,27,53,834,['n'],1,right,['2'],5,2070,[-0.15141439],77,53,easy,minus,dotcolour,beta,,,32,20,M,R,
252,0,0,6,2,36,44,834,['n'],1,right,['2'],5,683,[-0.09681298],97,44,hard,plus,dotcolour,beta,,,32,20,M,R,
253,1,1,6,2,44,36,1234,['n'],0,left,['2'],5,183,[-0.16950397],100,44,hard,plus,dotcolour,beta,,,32,20,M,R,
254,2,2,6,2,36,44,534,['n'],1,right,['2'],5,588,[-0.05049282],92,44,hard,plus,dotcolour,beta,,,32,20,M,R,
255,3,3,6,2,33,47,501,['n'],1,right,['2'],5,145,[-0.09209251],100,47,medium,plus,dotcolour,beta,,,32,20,M,R,
256,4,4,6,2,53,27,383,['n'],0,left,['1'],6,125,[-0.03291344],99,53,easy,plus,dotcolour,beta,,,32,20,M,R,
257,5,5,6,2,27,53,567,['n'],1,right,['1'],6,146,[-0.09503724],100,53,easy,plus,dotcolour,beta,,,32,20,M,R,
258,6,6,6,2,27,53,500,['n'],1,right,['1'],6,178,[-0.11531004],100,53,easy,plus,dotcolour,beta,,,32,20,M,R,
259,7,7,6,2,47,33,1083,['n'],0,left,['2'],5,176,[-0.06130194],99,47,medium,plus,dotcolour,beta,,,32,20,M,R,
260,8,8,6,2,44,36,1150,['c'],1,left,['2'],5,244,[0.09017156],100,44,hard,plus,dotcolour,beta,,,32,20,M,R,
261,9,9,6,2,27,53,651,['n'],1,right,['2'],5,242,[-0.10615631],100,53,easy,plus,dotcolour,beta,,,32,20,M,R,
262,10,10,6,2,47,33,533,['n'],0,left,['2'],5,556,[-0.04042669],91,47,medium,plus,dotcolour,beta,,,32,20,M,R,
263,11,11,6,2,33,47,417,['n'],1,right,['2'],5,110,[-0.05603064],100,47,medium,plus,dotcolour,beta,,,32,20,M,R,
264,12,12,6,2,53,27,917,['c'],1,left,['1'],6,613,[0.07799531],96,53,easy,plus,dotcolour,beta,,,32,20,M,R,
265,13,13,6,2,47,33,1034,['c'],1,left,['2'],5,661,[0.16589624],99,47,medium,plus,dotcolour,beta,,,32,20,M,R,
266,14,14,6,2,47,33,651,['n'],0,left,['2'],5,121,[-0.11041177],100,47,medium,plus,dotcolour,beta,,,32,20,M,R,
267,15,15,6,2,33,47,600,['n'],1,right,['2'],5,94,[-0.08795391],100,47,medium,plus,dotcolour,beta,,,32,20,M,R,
268,16,16,6,2,27,53,733,['n'],1,right,['2'],5,270,[-0.03937695],96,53,easy,plus,dotcolour,beta,,,32,20,M,R,
269,17,17,6,2,44,36,550,['n'],0,left,['2'],5,263,[-0.10803127],100,44,hard,plus,dotcolour,beta,,,32,20,M,R,
270,18,18,6,2,33,47,650,['n'],1,right,['2'],5,284,[-0.12376861],100,47,medium,plus,dotcolour,beta,,,32,20,M,R,
271,19,19,6,2,36,44,667,['n'],1,right,['2'],5,279,[-0.04601233],97,44,hard,plus,dotcolour,beta,,,32,20,M,R,
272,20,20,6,2,53,27,1567,['c'],1,left,['2'],5,390,[0.24078828],100,53,easy,plus,dotcolour,beta,,,32,20,M,R,
273,21,21,6,2,36,44,567,['n'],1,right,['2'],5,161,[-0.11494441],100,44,hard,plus,dotcolour,beta,,,32,20,M,R,
274,22,22,6,2,47,33,950,['c'],1,left,['2'],5,421,[0.07235939],97,47,medium,plus,dotcolour,beta,,,32,20,M,R,
275,23,23,6,2,33,47,1600,['c'],0,right,['2'],5,614,[-0.05052703],53,47,medium,plus,dotcolour,beta,,,32,20,M,R,
276,24,24,6,2,53,27,1149,['c'],1,left,['1'],6,657,[0.2410379],100,53,easy,plus,dotcolour,beta,,,32,20,M,R,
277,25,25,6,2,53,27,1049,['c'],1,left,['1'],6,454,[0.06119873],96,53,easy,plus,dotcolour,beta,,,32,20,M,R,
278,26,26,6,2,53,27,833,['c'],1,left,['2'],5,251,[0.16698188],100,53,easy,plus,dotcolour,beta,,,32,20,M,R,
279,27,27,6,2,36,44,933,['n'],1,right,['2'],5,309,[-0.16028164],100,44,hard,plus,dotcolour,beta,,,32,20,M,R,
280,28,28,6,2,44,36,650,['n'],0,left,['2'],5,135,[-0.05287141],100,44,hard,plus,dotcolour,beta,,,32,20,M,R,
281,29,29,6,2,36,44,601,['n'],1,right,['2'],5,91,[-0.05617976],100,44,hard,plus,dotcolour,beta,,,32,20,M,R,
282,30,30,6,2,27,53,584,['n'],1,right,['1'],6,578,[-0.09995598],98,53,easy,plus,dotcolour,beta,,,32,20,M,R,
283,31,31,6,2,47,33,1284,['c'],1,left,['2'],5,288,[0.0995332],99,47,medium,plus,dotcolour,beta,,,32,20,M,R,
284,32,32,6,2,36,44,900,['n'],1,right,['2'],5,234,[-0.05705987],99,44,hard,plus,dotcolour,beta,,,32,20,M,R,
285,33,33,6,2,44,36,967,['c'],1,left,['2'],5,236,[0.10813299],100,44,hard,plus,dotcolour,beta,,,32,20,M,R,
286,34,34,6,2,44,36,750,['n'],0,left,['2'],5,318,[-0.1273173],100,44,hard,plus,dotcolour,beta,,,32,20,M,R,
287,35,35,6,2,27,53,500,['n'],1,right,['2'],5,86,[-0.08905813],100,53,easy,plus,dotcolour,beta,,,32,20,M,R,
288,36,36,6,2,44,36,1500,['c'],1,left,['2'],5,248,[0.18220335],100,44,hard,plus,dotcolour,beta,,,32,20,M,R,
289,37,37,6,2,53,27,817,['c'],1,left,['2'],5,190,[0.10938895],100,53,easy,plus,dotcolour,beta,,,32,20,M,R,
290,38,38,6,2,33,47,633,['n'],1,right,['2'],5,143,[-0.07661121],100,47,medium,plus,dotcolour,beta,,,32,20,M,R,
291,39,39,6,2,33,47,700,['n'],1,right,['2'],5,134,[-0.13218033],100,47,medium,plus,dotcolour,beta,,,32,20,M,R,
292,40,40,6,2,27,53,501,['n'],1,right,['2'],5,150,[-0.041791],99,53,easy,plus,dotcolour,beta,,,32,20,M,R,
293,41,41,6,2,47,33,800,['c'],1,left,['2'],5,202,[0.04764722],98,47,medium,plus,dotcolour,beta,,,32,20,M,R,
294,42,0,7,2,36,44,584,['n'],1,right,['2'],5,118,[-0.04530194],99,44,hard,plus,dotcolour,beta,,,32,20,M,R,
295,43,1,7,2,53,27,934,['c'],1,left,['2'],5,182,[0.14730312],100,53,easy,plus,dotcolour,beta,,,32,20,M,R,
296,44,2,7,2,53,27,767,['c'],1,left,['2'],5,185,[0.06699341],99,53,easy,plus,dotcolour,beta,,,32,20,M,R,
297,45,3,7,2,47,33,867,['c'],1,left,['2'],5,192,[0.06679673],99,47,medium,plus,dotcolour,beta,,,32,20,M,R,
298,46,4,7,2,27,53,450,['n'],1,right,['2'],5,151,[-0.12694897],100,53,easy,plus,dotcolour,beta,,,32,20,M,R,
299,47,5,7,2,53,27,733,['c'],1,left,['2'],5,165,[0.1418312],100,53,easy,plus,dotcolour,beta,,,32,20,M,R,
300,48,6,7,2,36,44,1016,['n'],1,right,['2'],5,103,[-0.05604299],100,44,hard,plus,dotcolour,beta,,,32,20,M,R,
301,49,7,7,2,33,47,566,['n'],1,right,['2'],5,94,[-0.10234032],100,47,medium,plus,dotcolour,beta,,,32,20,M,R,
302,50,8,7,2,33,47,717,['n'],1,right,['2'],5,143,[-0.11099075],100,47,medium,plus,dotcolour,beta,,,32,20,M,R,
303,51,9,7,2,27,53,568,['n'],1,right,['2'],5,171,[-0.11258518],100,53,easy,plus,dotcolour,beta,,,32,20,M,R,
304,52,10,7,2,33,47,416,['n'],1,right,['2'],5,149,[-0.07952361],100,47,medium,plus,dotcolour,beta,,,32,20,M,R,
305,53,11,7,2,33,47,533,['n'],1,right,['2'],5,91,[-0.0939916],100,47,medium,plus,dotcolour,beta,,,32,20,M,R,
306,54,12,7,2,44,36,734,['c'],1,left,['2'],5,147,[0.12912274],100,44,hard,plus,dotcolour,beta,,,32,20,M,R,
307,55,13,7,2,36,44,834,['n'],1,right,['2'],5,101,[-0.03746913],99,44,hard,plus,dotcolour,beta,,,32,20,M,R,
308,56,14,7,2,44,36,683,['n'],0,left,['2'],5,111,[-0.04893294],100,44,hard,plus,dotcolour,beta,,,32,20,M,R,
309,57,15,7,2,44,36,1951,['c'],1,left,['2'],5,174,[0.08164943],100,44,hard,plus,dotcolour,beta,,,32,20,M,R,
310,58,16,7,2,27,53,500,['n'],1,right,['2'],5,100,[-0.08013741],100,53,easy,plus,dotcolour,beta,,,32,20,M,R,
311,59,17,7,2,44,36,852,['n'],0,left,['2'],5,80,[-0.09675415],100,44,hard,plus,dotcolour,beta,,,32,20,M,R,
312,60,18,7,2,33,47,417,['n'],1,right,['2'],5,77,[-0.03407188],100,47,medium,plus,dotcolour,beta,,,32,20,M,R,
313,61,19,7,2,27,53,517,['n'],1,right,['2'],5,78,[-0.0931559],100,53,easy,plus,dotcolour,beta,,,32,20,M,R,
314,62,20,7,2,53,27,1084,['c'],1,left,['2'],5,145,[0.11679313],100,53,easy,plus,dotcolour,beta,,,32,20,M,R,
315,63,21,7,2,53,27,583,['c'],1,left,['2'],5,149,[0.03900483],99,53,easy,plus,dotcolour,beta,,,32,20,M,R,
316,64,22,7,2,36,44,1201,['n'],1,right,['2'],5,48,[-0.06419147],100,44,hard,plus,dotcolour,beta,,,32,20,M,R,
317,65,23,7,2,44,36,1117,['n'],0,left,['2'],5,75,[-0.03403172],100,44,hard,plus,dotcolour,beta,,,32,20,M,R,
318,66,24,7,2,36,44,584,['c'],0,right,['2'],5,145,[0.11008777],100,44,hard,plus,dotcolour,beta,,,32,20,M,R,
319,67,25,7,2,27,53,450,['n'],1,right,['2'],5,91,[-0.09450423],100,53,easy,plus,dotcolour,beta,,,32,20,M,R,
320,68,26,7,2,36,44,1017,['c'],0,right,['2'],5,112,[0.04500407],100,44,hard,plus,dotcolour,beta,,,32,20,M,R,
321,69,27,7,2,36,44,2333,['n'],1,right,['2'],5,23,[-0.04670939],100,44,hard,plus,dotcolour,beta,,,32,20,M,R,
322,70,28,7,2,27,53,500,['n'],1,right,['2'],5,67,[-0.07206822],100,53,easy,plus,dotcolour,beta,,,32,20,M,R,
323,71,29,7,2,44,36,783,['c'],1,left,['2'],5,155,[0.10883841],100,44,hard,plus,dotcolour,beta,,,32,20,M,R,
324,72,30,7,2,47,33,617,['c'],1,left,['2'],5,109,[0.11465616],100,47,medium,plus,dotcolour,beta,,,32,20,M,R,
325,73,31,7,2,27,53,766,['n'],1,right,['2'],5,59,[-0.09683645],100,53,easy,plus,dotcolour,beta,,,32,20,M,R,
326,74,32,7,2,47,33,1033,['c'],1,left,['2'],5,465,[0.12739495],99,47,medium,plus,dotcolour,beta,,,32,20,M,R,
327,75,33,7,2,47,33,500,['c'],1,left,['2'],5,107,[0.04927161],100,47,medium,plus,dotcolour,beta,,,32,20,M,R,
328,76,34,7,2,53,27,516,['c'],1,left,['2'],5,140,[0.1136951],100,53,easy,plus,dotcolour,beta,,,32,20,M,R,
329,77,35,7,2,47,33,485,['c'],1,left,['2'],5,124,[0.09807232],100,47,medium,plus,dotcolour,beta,,,32,20,M,R,
330,78,36,7,2,47,33,433,['c'],1,left,['2'],5,110,[0.14709094],100,47,medium,plus,dotcolour,beta,,,32,20,M,R,
331,79,37,7,2,44,36,367,['c'],1,left,['2'],5,133,[0.07678879],100,44,hard,plus,dotcolour,beta,,,32,20,M,R,
332,80,38,7,2,33,47,366,['c'],0,right,['2'],5,650,[-0.16586478],8,47,medium,plus,dotcolour,beta,,,32,20,M,R,
333,81,39,7,2,53,27,1217,['c'],1,left,['2'],5,32,[0.06407075],100,53,easy,plus,dotcolour,beta,,,32,20,M,R,
334,82,40,7,2,33,47,584,['n'],1,right,['2'],5,89,[-0.05248798],100,47,medium,plus,dotcolour,beta,,,32,20,M,R,
335,83,41,7,2,47,33,584,['n'],0,left,['0'],1,2528,[0.37143844],3,47,medium,plus,dotcolour,beta,,,32,20,M,R,
336,84,0,8,2,47,33,934,['n'],0,left,['2'],5,93,[-0.08107331],100,47,medium,plus,dotcolour,beta,,,32,20,M,R,
337,85,1,8,2,36,44,666,['n'],1,right,['2'],5,64,[-0.0375557],100,44,hard,plus,dotcolour,beta,,,32,20,M,R,
338,86,2,8,2,53,27,549,['c'],1,left,['2'],5,72,[0.10566827],100,53,easy,plus,dotcolour,beta,,,32,20,M,R,
339,87,3,8,2,44,36,950,['c'],1,left,['2'],5,137,[0.08050435],100,44,hard,plus,dotcolour,beta,,,32,20,M,R,
340,88,4,8,2,36,44,634,['n'],1,right,['2'],5,83,[-0.09501187],100,44,hard,plus,dotcolour,beta,,,32,20,M,R,
341,89,5,8,2,47,33,767,['c'],1,left,['2'],5,202,[0.07704333],100,47,medium,plus,dotcolour,beta,,,32,20,M,R,
342,90,6,8,2,53,27,600,['c'],1,left,['2'],5,196,[0.12370584],100,53,easy,plus,dotcolour,beta,,,32,20,M,R,
343,91,7,8,2,44,36,667,['c'],1,left,['2'],5,170,[0.07589603],100,44,hard,plus,dotcolour,beta,,,32,20,M,R,
344,92,8,8,2,47,33,668,['c'],1,left,['2'],5,123,[0.07190196],100,47,medium,plus,dotcolour,beta,,,32,20,M,R,
345,93,9,8,2,27,53,583,['n'],1,right,['2'],5,64,[-0.07156091],100,53,easy,plus,dotcolour,beta,,,32,20,M,R,
346,94,10,8,2,53,27,583,['c'],1,left,['2'],5,119,[0.0598072],100,53,easy,plus,dotcolour,beta,,,32,20,M,R,
347,95,11,8,2,27,53,667,['n'],1,right,['2'],5,89,[-0.08186283],100,53,easy,plus,dotcolour,beta,,,32,20,M,R,
348,96,12,8,2,27,53,650,['n'],1,right,['2'],5,77,[-0.12987922],100,53,easy,plus,dotcolour,beta,,,32,20,M,R,
349,97,13,8,2,53,27,434,['c'],1,left,['2'],5,82,[0.05867417],100,53,easy,plus,dotcolour,beta,,,32,20,M,R,
350,98,14,8,2,44,36,1867,['n'],0,left,['2'],5,37,[-0.06605631],100,44,hard,plus,dotcolour,beta,,,32,20,M,R,
351,99,15,8,2,27,53,467,['n'],1,right,['2'],5,59,[-0.08224694],100,53,easy,plus,dotcolour,beta,,,32,20,M,R,
352,100,16,8,2,33,47,733,['n'],1,right,['2'],5,52,[-0.07938826],100,47,medium,plus,dotcolour,beta,,,32,20,M,R,
353,101,17,8,2,27,53,601,['n'],1,right,['2'],5,83,[-0.07357748],100,53,easy,plus,dotcolour,beta,,,32,20,M,R,
354,102,18,8,2,47,33,518,['c'],1,left,['2'],5,109,[0.14721785],100,47,medium,plus,dotcolour,beta,,,32,20,M,R,
355,103,19,8,2,33,47,551,['n'],1,right,['2'],5,36,[-0.04864352],100,47,medium,plus,dotcolour,beta,,,32,20,M,R,
356,104,20,8,2,47,33,1016,['c'],1,left,['2'],5,1099,[0.13420148],96,47,medium,plus,dotcolour,beta,,,32,20,M,R,
357,105,21,8,2,33,47,634,['n'],1,right,['2'],5,70,[-0.02950038],100,47,medium,plus,dotcolour,beta,,,32,20,M,R,
358,106,22,8,2,44,36,583,['n'],0,left,['2'],5,686,[-0.0466196],90,44,hard,plus,dotcolour,beta,,,32,20,M,R,
359,107,23,8,2,27,53,516,['n'],1,right,['2'],5,78,[-0.11964081],100,53,easy,plus,dotcolour,beta,,,32,20,M,R,
360,108,24,8,2,36,44,600,['n'],1,right,['2'],5,36,[-0.05240034],100,44,hard,plus,dotcolour,beta,,,32,20,M,R,
361,109,25,8,2,36,44,850,['c'],0,right,['2'],5,170,[0.03726405],98,44,hard,plus,dotcolour,beta,,,32,20,M,R,
362,110,26,8,2,53,27,716,['c'],1,left,['2'],5,256,[0.13389497],100,53,easy,plus,dotcolour,beta,,,32,20,M,R,
363,111,27,8,2,53,27,1200,['c'],1,left,['2'],5,159,[0.14379088],100,53,easy,plus,dotcolour,beta,,,32,20,M,R,
364,112,28,8,2,33,47,784,['c'],0,right,['2'],5,123,[0.07451236],100,47,medium,plus,dotcolour,beta,,,32,20,M,R,
365,113,29,8,2,36,44,884,['c'],0,right,['2'],5,268,[-0.04697129],57,44,hard,plus,dotcolour,beta,,,32,20,M,R,
366,114,30,8,2,44,36,834,['c'],1,left,['2'],5,201,[0.01200215],94,44,hard,plus,dotcolour,beta,,,32,20,M,R,
367,115,31,8,2,33,47,800,['c'],0,right,['2'],5,178,[0.05437707],99,47,medium,plus,dotcolour,beta,,,32,20,M,R,
368,116,32,8,2,53,27,600,['c'],1,left,['2'],5,132,[0.07094913],100,53,easy,plus,dotcolour,beta,,,32,20,M,R,
369,117,33,8,2,33,47,650,['n'],1,right,['2'],5,54,[-0.06919354],100,47,medium,plus,dotcolour,beta,,,32,20,M,R,
370,118,34,8,2,44,36,917,['n'],0,left,['2'],5,73,[-0.08910117],100,44,hard,plus,dotcolour,beta,,,32,20,M,R,
371,119,35,8,2,47,33,483,['c'],1,left,['2'],5,164,[0.0574582],99,47,medium,plus,dotcolour,beta,,,32,20,M,R,
372,120,36,8,2,36,44,517,['c'],0,right,['2'],5,138,[0.00376679],95,44,hard,plus,dotcolour,beta,,,32,20,M,R,
373,121,37,8,2,33,47,400,['n'],1,right,['2'],5,63,[-0.05723096],100,47,medium,plus,dotcolour,beta,,,32,20,M,R,
374,122,38,8,2,27,53,567,['n'],1,right,['2'],5,103,[-0.03321208],99,53,easy,plus,dotcolour,beta,,,32,20,M,R,
375,123,39,8,2,47,33,567,['c'],1,left,['2'],5,77,[0.11010104],100,47,medium,plus,dotcolour,beta,,,32,20,M,R,
376,124,40,8,2,44,36,633,['c'],1,left,['2'],5,98,[0.03098386],99,44,hard,plus,dotcolour,beta,,,32,20,M,R,
377,125,41,8,2,36,44,533,['n'],1,right,['2'],5,82,[-0.09485841],100,44,hard,plus,dotcolour,beta,,,32,20,M,R,
378,0,0,9,3,44,36,2484,['n'],0,left,['2'],5,811,[0.01896462],18,44,hard,minus,dotcolour,beta,,,32,20,M,R,
379,1,1,9,3,44,36,1767,['n'],0,left,['2'],5,92,[-0.10859284],96,44,hard,minus,dotcolour,beta,,,32,20,M,R,
380,2,2,9,3,27,53,550,['n'],1,right,['2'],5,60,[-0.10646822],98,53,easy,minus,dotcolour,beta,,,32,20,M,R,
381,3,3,9,3,47,33,1183,['c'],1,left,['2'],5,611,[0.37655566],100,47,medium,minus,dotcolour,beta,,,32,20,M,R,
382,4,4,9,3,44,36,1133,['c'],1,left,['2'],5,118,[0.07203346],70,44,hard,minus,dotcolour,beta,,,32,20,M,R,
383,5,5,9,3,47,33,1033,['n'],0,left,['2'],5,58,[-0.08216837],88,47,medium,minus,dotcolour,beta,,,32,20,M,R,
384,6,6,9,3,33,47,568,['n'],1,right,['2'],5,98,[-0.09129367],89,47,medium,minus,dotcolour,beta,,,32,20,M,R,
385,7,7,9,3,53,27,950,['c'],1,left,['2'],5,153,[0.11554663],94,53,easy,minus,dotcolour,beta,,,32,20,M,R,
386,8,8,9,3,44,36,850,['n'],0,left,['2'],5,83,[-0.02103287],10,44,hard,minus,dotcolour,beta,,,32,20,M,R,
387,9,9,9,3,53,27,634,['c'],1,left,['2'],5,55,[0.05462218],48,53,easy,minus,dotcolour,beta,,,32,20,M,R,
388,10,10,9,3,27,53,584,['n'],1,right,['2'],5,127,[-0.09878897],90,53,easy,minus,dotcolour,beta,,,32,20,M,R,
389,11,11,9,3,36,44,683,['n'],1,right,['2'],5,80,[-0.07818867],81,44,hard,minus,dotcolour,beta,,,32,20,M,R,
390,12,12,9,3,36,44,416,['n'],1,right,['2'],5,165,[-0.11650209],94,44,hard,minus,dotcolour,beta,,,32,20,M,R,
391,13,13,9,3,27,53,399,['n'],1,right,['2'],5,40,[-0.07531139],86,53,easy,minus,dotcolour,beta,,,32,20,M,R,
392,14,14,9,3,44,36,617,['c'],1,left,['2'],5,39,[0.06334524],67,44,hard,minus,dotcolour,beta,,,32,20,M,R,
393,15,15,9,3,36,44,633,['n'],1,right,['2'],5,70,[-0.10371182],96,44,hard,minus,dotcolour,beta,,,32,20,M,R,
394,16,16,9,3,47,33,1017,['n'],0,left,['2'],5,84,[-0.06707874],67,47,medium,minus,dotcolour,beta,,,32,20,M,R,
395,17,17,9,3,53,27,501,['n'],0,left,['2'],5,38,[-0.08007786],91,53,easy,minus,dotcolour,beta,,,32,20,M,R,
396,18,18,9,3,47,33,917,['c'],1,left,['2'],5,41,[0.04557703],29,47,medium,minus,dotcolour,beta,,,32,20,M,R,
397,19,19,9,3,36,44,700,['c'],0,right,['2'],5,76,[0.06843626],70,44,hard,minus,dotcolour,beta,,,32,20,M,R,
398,20,20,9,3,27,53,750,['n'],1,right,['2'],5,92,[-0.08590201],86,53,easy,minus,dotcolour,beta,,,32,20,M,R,
399,21,21,9,3,27,53,934,['c'],0,right,['2'],5,76,[-0.00721234],2,53,easy,minus,dotcolour,beta,,,32,20,M,R,
400,22,22,9,3,33,47,533,['n'],1,right,['2'],5,101,[-0.09445204],90,47,medium,minus,dotcolour,beta,,,32,20,M,R,
401,23,23,9,3,47,33,666,['c'],1,left,['2'],5,120,[0.04250471],34,47,medium,minus,dotcolour,beta,,,32,20,M,R,
402,24,24,9,3,36,44,899,['c'],0,right,['2'],5,65,[0.05326461],46,44,hard,minus,dotcolour,beta,,,32,20,M,R,
403,25,25,9,3,53,27,533,['c'],1,left,['2'],5,50,[0.09026183],94,53,easy,minus,dotcolour,beta,,,32,20,M,R,
404,26,26,9,3,53,27,467,['c'],1,left,['2'],5,95,[0.10301417],94,53,easy,minus,dotcolour,beta,,,32,20,M,R,
405,27,27,9,3,53,27,584,['c'],1,left,['2'],5,341,[0.00972031],20,53,easy,minus,dotcolour,beta,,,32,20,M,R,
406,28,28,9,3,27,53,733,['c'],0,right,['0'],1,2075,[-0.130074],9,53,easy,minus,dotcolour,beta,,,32,20,M,R,
407,29,29,9,3,33,47,1517,['n'],1,right,['1'],6,164,[-0.1225612],95,47,medium,minus,dotcolour,beta,,,32,20,M,R,
408,30,30,9,3,33,47,1684,['c'],0,right,['2'],5,131,[0.10706376],93,47,medium,minus,dotcolour,beta,,,32,20,M,R,
409,31,31,9,3,44,36,1583,['n'],0,left,['2'],5,176,[-0.10643603],90,44,hard,minus,dotcolour,beta,,,32,20,M,R,
410,32,32,9,3,47,33,1817,['c'],1,left,['2'],5,89,[0.05312074],46,47,medium,minus,dotcolour,beta,,,32,20,M,R,
411,33,33,9,3,36,44,617,['n'],1,right,['2'],5,118,[-0.03703363],27,44,hard,minus,dotcolour,beta,,,32,20,M,R,
412,34,34,9,3,33,47,483,['n'],1,right,['2'],5,136,[-0.11677153],95,47,medium,minus,dotcolour,beta,,,32,20,M,R,
413,35,35,9,3,33,47,467,['n'],1,right,['2'],5,137,[-0.07947321],76,47,medium,minus,dotcolour,beta,,,32,20,M,R,
414,36,36,9,3,44,36,850,['c'],1,left,['2'],5,99,[0.02014157],12,44,hard,minus,dotcolour,beta,,,32,20,M,R,
415,37,37,9,3,53,27,1484,['c'],1,left,['2'],5,181,[0.0952147],84,53,easy,minus,dotcolour,beta,,,32,20,M,R,
416,38,38,9,3,36,44,717,['n'],1,right,['2'],5,98,[-0.08049097],81,44,hard,minus,dotcolour,beta,,,32,20,M,R,
417,39,39,9,3,47,33,650,['n'],0,left,['2'],5,254,[-0.09796126],82,47,medium,minus,dotcolour,beta,,,32,20,M,R,
418,40,40,9,3,33,47,1050,['n'],1,right,['2'],5,187,[-0.0530614],47,47,medium,minus,dotcolour,beta,,,32,20,M,R,
419,41,41,9,3,27,53,1433,['n'],1,right,['2'],5,132,[-0.06788052],65,53,easy,minus,dotcolour,beta,,,32,20,M,R,
420,42,0,10,3,36,44,501,['n'],1,right,['2'],5,175,[-0.14858543],98,44,hard,minus,dotcolour,beta,,,32,20,M,R,
421,43,1,10,3,27,53,434,['n'],1,right,['2'],5,95,[-0.07099175],71,53,easy,minus,dotcolour,beta,,,32,20,M,R,
422,44,2,10,3,36,44,550,['n'],1,right,['2'],5,71,[-0.06291962],62,44,hard,minus,dotcolour,beta,,,32,20,M,R,
423,45,3,10,3,47,33,533,['n'],0,left,['2'],5,56,[-0.08245717],89,47,medium,minus,dotcolour,beta,,,32,20,M,R,
424,46,4,10,3,44,36,517,['n'],0,left,['2'],5,107,[-0.07285802],72,44,hard,minus,dotcolour,beta,,,32,20,M,R,
425,47,5,10,3,47,33,700,['c'],1,left,['2'],5,116,[0.04737624],39,47,medium,minus,dotcolour,beta,,,32,20,M,R,
426,48,6,10,3,53,27,734,['n'],0,left,['2'],5,131,[-0.10593964],92,53,easy,minus,dotcolour,beta,,,32,20,M,R,
427,49,7,10,3,33,47,567,['n'],1,right,['2'],5,64,[-0.11239176],98,47,medium,minus,dotcolour,beta,,,32,20,M,R,
428,50,8,10,3,27,53,1100,['n'],1,right,['2'],5,115,[-0.06740908],65,53,easy,minus,dotcolour,beta,,,32,20,M,R,
429,51,9,10,3,53,27,466,['n'],0,left,['2'],5,125,[-0.11188025],95,53,easy,minus,dotcolour,beta,,,32,20,M,R,
430,52,10,10,3,47,33,1700,['c'],1,left,['2'],5,589,[0.14948588],90,47,medium,minus,dotcolour,beta,,,32,20,M,R,
431,53,11,10,3,33,47,634,['n'],1,right,['2'],5,93,[-0.08061113],81,47,medium,minus,dotcolour,beta,,,32,20,M,R,
432,54,12,10,3,33,47,484,['n'],1,right,['2'],5,343,[-0.10845877],84,47,medium,minus,dotcolour,beta,,,32,20,M,R,
433,55,13,10,3,47,33,767,['c'],1,left,['2'],5,83,[0.07523699],77,47,medium,minus,dotcolour,beta,,,32,20,M,R,
434,56,14,10,3,36,44,483,['n'],1,right,['2'],5,126,[-0.07840781],76,44,hard,minus,dotcolour,beta,,,32,20,M,R,
435,57,15,10,3,47,33,967,['n'],0,left,['2'],5,91,[-0.03245485],20,47,medium,minus,dotcolour,beta,,,32,20,M,R,
436,58,16,10,3,33,47,883,['n'],1,right,['1'],6,429,[-0.05355291],49,47,medium,minus,dotcolour,beta,,,32,20,M,R,
437,59,17,10,3,36,44,567,['n'],1,right,['1'],6,367,[-0.04462697],42,44,hard,minus,dotcolour,beta,,,32,20,M,R,
438,60,18,10,3,33,47,583,['n'],1,right,['1'],6,274,[-0.21187893],100,47,medium,minus,dotcolour,beta,,,32,20,M,R,
439,61,19,10,3,27,53,434,['n'],1,right,['1'],6,191,[-0.07899014],72,53,easy,minus,dotcolour,beta,,,32,20,M,R,
440,62,20,10,3,36,44,1283,['n'],1,right,['2'],5,237,[-0.10919658],88,44,hard,minus,dotcolour,beta,,,32,20,M,R,
441,63,21,10,3,44,36,667,['n'],0,left,['2'],5,146,[-0.10389063],91,44,hard,minus,dotcolour,beta,,,32,20,M,R,
442,64,22,10,3,53,27,1066,['c'],1,left,['2'],5,2147,[0.40775255],99,53,easy,minus,dotcolour,beta,,,32,20,M,R,
443,65,23,10,3,33,47,650,['n'],1,right,['2'],5,251,[0.00765537],9,47,medium,minus,dotcolour,beta,,,32,20,M,R,
444,66,24,10,3,44,36,584,['n'],0,left,['2'],5,163,[-0.04593427],39,44,hard,minus,dotcolour,beta,,,32,20,M,R,
445,67,25,10,3,27,53,584,['n'],1,right,['2'],5,335,[-0.17483992],98,53,easy,minus,dotcolour,beta,,,32,20,M,R,
446,68,26,10,3,44,36,666,['c'],1,left,['2'],5,120,[0.02345774],16,44,hard,minus,dotcolour,beta,,,32,20,M,R,
447,69,27,10,3,44,36,1083,['n'],0,left,['2'],5,233,[-0.04697903],42,44,hard,minus,dotcolour,beta,,,32,20,M,R,
448,70,28,10,3,47,33,666,['n'],0,left,['2'],5,111,[-0.06475943],62,47,medium,minus,dotcolour,beta,,,32,20,M,R,
449,71,29,10,3,53,27,884,['c'],1,left,['2'],5,81,[0.08331039],85,53,easy,minus,dotcolour,beta,,,32,20,M,R,
450,72,30,10,3,36,44,684,['n'],1,right,['2'],5,83,[-0.05615065],51,44,hard,minus,dotcolour,beta,,,32,20,M,R,
451,73,31,10,3,44,36,1166,['n'],0,left,['2'],5,139,[-0.10933197],93,44,hard,minus,dotcolour,beta,,,32,20,M,R,
452,74,32,10,3,53,27,901,['c'],1,left,['2'],5,498,[0.12011919],84,53,easy,minus,dotcolour,beta,,,32,20,M,R,
453,75,33,10,3,53,27,683,['c'],1,left,['2'],5,316,[0.09636383],79,53,easy,minus,dotcolour,beta,,,32,20,M,R,
454,76,34,10,3,47,33,683,['c'],1,left,['2'],5,230,[0.08711057],77,47,medium,minus,dotcolour,beta,,,32,20,M,R,
455,77,35,10,3,33,47,982,['c'],0,right,['2'],5,350,[0.05712626],51,47,medium,minus,dotcolour,beta,,,32,20,M,R,
456,78,36,10,3,27,53,617,['c'],0,right,['2'],5,641,[-0.12020885],2,53,easy,minus,dotcolour,beta,,,32,20,M,R,
457,79,37,10,3,53,27,467,['n'],0,left,['2'],5,605,[0.05979011],6,53,easy,minus,dotcolour,beta,,,32,20,M,R,
458,80,38,10,3,36,44,616,['n'],1,right,['2'],5,182,[-0.05589189],50,44,hard,minus,dotcolour,beta,,,32,20,M,R,
459,81,39,10,3,27,53,883,['c'],0,right,['2'],5,1684,[-0.21155141],2,53,easy,minus,dotcolour,beta,,,32,20,M,R,
460,82,40,10,3,27,53,1266,['n'],1,right,['2'],5,295,[-0.05383466],49,53,easy,minus,dotcolour,beta,,,32,20,M,R,
461,83,41,10,3,44,36,1617,['c'],1,left,['2'],5,323,[0.05778885],52,44,hard,minus,dotcolour,beta,,,32,20,M,R,
462,84,0,11,3,27,53,701,['n'],1,right,['1'],6,305,[-0.05053427],46,53,easy,minus,dotcolour,beta,,,32,20,M,R,
463,85,1,11,3,27,53,600,['n'],1,right,['2'],5,286,[-0.10697545],85,53,easy,minus,dotcolour,beta,,,32,20,M,R,
464,86,2,11,3,44,36,617,['c'],1,left,['2'],5,116,[0.08911908],85,44,hard,minus,dotcolour,beta,,,32,20,M,R,
465,87,3,11,3,44,36,700,['n'],0,left,['2'],5,172,[-0.09357504],84,44,hard,minus,dotcolour,beta,,,32,20,M,R,
466,88,4,11,3,44,36,650,['c'],1,left,['2'],5,148,[0.07946554],75,44,hard,minus,dotcolour,beta,,,32,20,M,R,
467,89,5,11,3,53,27,700,['c'],1,left,['2'],5,195,[0.12838381],95,53,easy,minus,dotcolour,beta,,,32,20,M,R,
468,90,6,11,3,27,53,550,['n'],1,right,['2'],5,175,[-0.02074326],18,53,easy,minus,dotcolour,beta,,,32,20,M,R,
469,91,7,11,3,33,47,884,['n'],1,right,['2'],5,157,[-0.092769],84,47,medium,minus,dotcolour,beta,,,32,20,M,R,
470,92,8,11,3,33,47,567,['n'],1,right,['2'],5,145,[-0.10286982],90,47,medium,minus,dotcolour,beta,,,32,20,M,R,
471,93,9,11,3,53,27,501,['c'],1,left,['2'],5,128,[0.07635787],74,53,easy,minus,dotcolour,beta,,,32,20,M,R,
472,94,10,11,3,53,27,501,['c'],1,left,['2'],5,112,[0.05728549],52,53,easy,minus,dotcolour,beta,,,32,20,M,R,
473,95,11,11,3,33,47,566,['n'],1,right,['2'],5,119,[-0.02958162],21,47,medium,minus,dotcolour,beta,,,32,20,M,R,
474,96,12,11,3,53,27,483,['n'],0,left,['2'],5,2472,[0.31849552],1,53,easy,minus,dotcolour,beta,,,32,20,M,R,
475,97,13,11,3,36,44,3733,['n'],1,right,['2'],5,280,[-0.09486967],79,44,hard,minus,dotcolour,beta,,,32,20,M,R,
476,98,14,11,3,44,36,566,['n'],0,left,['2'],5,144,[-0.04967258],43,44,hard,minus,dotcolour,beta,,,32,20,M,R,
477,99,15,11,3,27,53,500,['n'],1,right,['2'],5,159,[-0.11998932],95,53,easy,minus,dotcolour,beta,,,32,20,M,R,
478,100,16,11,3,36,44,767,['c'],0,right,['2'],5,91,[0.05099092],43,44,hard,minus,dotcolour,beta,,,32,20,M,R,
479,101,17,11,3,36,44,584,['n'],1,right,['2'],5,106,[-0.06010047],56,44,hard,minus,dotcolour,beta,,,32,20,M,R,
480,102,18,11,3,53,27,816,['c'],1,left,['2'],5,230,[0.19757335],100,53,easy,minus,dotcolour,beta,,,32,20,M,R,
481,103,19,11,3,36,44,851,['n'],1,right,['2'],5,108,[-0.05757939],53,44,hard,minus,dotcolour,beta,,,32,20,M,R,
482,104,20,11,3,47,33,683,['c'],1,left,['2'],5,110,[0.11782138],97,47,medium,minus,dotcolour,beta,,,32,20,M,R,
483,105,21,11,3,27,53,616,['n'],1,right,['2'],5,153,[-0.03551048],28,53,easy,minus,dotcolour,beta,,,32,20,M,R,
484,106,22,11,3,53,27,2567,['c'],1,left,['2'],5,182,[0.11948525],94,53,easy,minus,dotcolour,beta,,,32,20,M,R,
485,107,23,11,3,44,36,733,['n'],0,left,['2'],5,115,[-0.09394847],88,44,hard,minus,dotcolour,beta,,,32,20,M,R,
486,108,24,11,3,36,44,467,['n'],1,right,['2'],5,117,[-0.09359128],88,44,hard,minus,dotcolour,beta,,,32,20,M,R,
487,109,25,11,3,44,36,667,['c'],1,left,['2'],5,150,[0.07564313],72,44,hard,minus,dotcolour,beta,,,32,20,M,R,
488,110,26,11,3,47,33,550,['c'],1,left,['2'],5,100,[0.10740932],95,47,medium,minus,dotcolour,beta,,,32,20,M,R,
489,111,27,11,3,47,33,916,['c'],1,left,['2'],5,125,[0.11562007],96,47,medium,minus,dotcolour,beta,,,32,20,M,R,
490,112,28,11,3,47,33,783,['c'],1,left,['2'],5,121,[0.06048626],56,47,medium,minus,dotcolour,beta,,,32,20,M,R,
491,113,29,11,3,47,33,983,['c'],1,left,['2'],5,135,[0.07115533],68,47,medium,minus,dotcolour,beta,,,32,20,M,R,
492,114,30,11,3,33,47,350,['n'],1,right,['2'],5,116,[-0.05260904],46,47,medium,minus,dotcolour,beta,,,32,20,M,R,
493,115,31,11,3,36,44,833,['n'],1,right,['2'],5,136,[-0.06304988],59,44,hard,minus,dotcolour,beta,,,32,20,M,R,
494,116,32,11,3,27,53,333,['n'],1,right,['2'],5,110,[-0.11736534],97,53,easy,minus,dotcolour,beta,,,32,20,M,R,
495,117,33,11,3,33,47,500,['n'],1,right,['2'],5,111,[-0.05513318],49,47,medium,minus,dotcolour,beta,,,32,20,M,R,
496,118,34,11,3,53,27,650,['c'],1,left,['2'],5,122,[0.07298816],71,53,easy,minus,dotcolour,beta,,,32,20,M,R,
497,119,35,11,3,47,33,700,['n'],0,left,['2'],5,131,[-0.04290123],35,47,medium,minus,dotcolour,beta,,,32,20,M,R,
498,120,36,11,3,44,36,634,['n'],0,left,['2'],5,142,[-0.11318551],94,44,hard,minus,dotcolour,beta,,,32,20,M,R,
499,121,37,11,3,33,47,668,['n'],1,right,['2'],5,158,[-0.08603128],80,47,medium,minus,dotcolour,beta,,,32,20,M,R,
500,122,38,11,3,33,47,1033,['n'],1,right,['2'],5,167,[-0.10872367],91,47,medium,minus,dotcolour,beta,,,32,20,M,R,
501,123,39,11,3,47,33,484,['n'],0,left,['2'],5,166,[0.00681528],6,47,medium,minus,dotcolour,beta,,,32,20,M,R,
502,124,40,11,3,27,53,551,['n'],1,right,['2'],5,227,[-0.11093063],89,53,easy,minus,dotcolour,beta,,,32,20,M,R,
503,125,41,11,3,36,44,483,['n'],1,right,['2'],5,96,[-0.08298077],83,44,hard,minus,dotcolour,beta,,,32,20,M,R,
504,0,0,12,4,27,53,484,['n'],1,right,['2'],5,90,[-0.10181335],100,53,easy,plus,dotcolour,beta,,,32,20,M,R,
505,1,1,12,4,53,27,684,['c'],1,left,['2'],5,68,[0.11972875],100,53,easy,plus,dotcolour,beta,,,32,20,M,R,
506,2,2,12,4,33,47,750,['n'],1,right,['2'],5,133,[-0.09218582],100,47,medium,plus,dotcolour,beta,,,32,20,M,R,
507,3,3,12,4,44,36,817,['c'],1,left,['2'],5,32,[0.05351194],100,44,hard,plus,dotcolour,beta,,,32,20,M,R,
508,4,4,12,4,53,27,466,['c'],1,left,['2'],5,134,[0.07161933],100,53,easy,plus,dotcolour,beta,,,32,20,M,R,
509,5,5,12,4,44,36,734,['n'],0,left,['2'],5,116,[-0.06358698],100,44,hard,plus,dotcolour,beta,,,32,20,M,R,
510,6,6,12,4,33,47,551,['n'],1,right,['2'],5,75,[-0.04467524],100,47,medium,plus,dotcolour,beta,,,32,20,M,R,
511,7,7,12,4,27,53,467,['n'],1,right,['2'],5,382,[-0.03170699],93,53,easy,plus,dotcolour,beta,,,32,20,M,R,
512,8,8,12,4,44,36,800,['c'],1,left,['2'],5,129,[0.07601038],100,44,hard,plus,dotcolour,beta,,,32,20,M,R,
513,9,9,12,4,27,53,634,['n'],1,right,['2'],5,131,[-0.06245915],100,53,easy,plus,dotcolour,beta,,,32,20,M,R,
514,10,10,12,4,47,33,766,['c'],1,left,['2'],5,72,[0.07317468],100,47,medium,plus,dotcolour,beta,,,32,20,M,R,
515,11,11,12,4,47,33,583,['n'],0,left,['2'],5,176,[-0.09541919],100,47,medium,plus,dotcolour,beta,,,32,20,M,R,
516,12,12,12,4,27,53,2166,['n'],1,right,['2'],5,99,[-0.13683358],100,53,easy,plus,dotcolour,beta,,,32,20,M,R,
517,13,13,12,4,36,44,567,['n'],1,right,['2'],5,226,[-0.14070931],100,44,hard,plus,dotcolour,beta,,,32,20,M,R,
518,14,14,12,4,53,27,451,['c'],1,left,['2'],5,128,[0.069362],100,53,easy,plus,dotcolour,beta,,,32,20,M,R,
519,15,15,12,4,47,33,634,['c'],1,left,['2'],5,50,[0.07343369],100,47,medium,plus,dotcolour,beta,,,32,20,M,R,
520,16,16,12,4,27,53,417,['n'],1,right,['2'],5,161,[-0.12677041],100,53,easy,plus,dotcolour,beta,,,32,20,M,R,
521,17,17,12,4,36,44,601,['n'],1,right,['2'],5,115,[-0.08569387],100,44,hard,plus,dotcolour,beta,,,32,20,M,R,
522,18,18,12,4,47,33,500,['c'],1,left,['2'],5,92,[0.08857062],100,47,medium,plus,dotcolour,beta,,,32,20,M,R,
523,19,19,12,4,53,27,484,['c'],1,left,['2'],5,126,[0.08953419],100,53,easy,plus,dotcolour,beta,,,32,20,M,R,
524,20,20,12,4,33,47,550,['n'],1,right,['2'],5,140,[-0.08035045],100,47,medium,plus,dotcolour,beta,,,32,20,M,R,
525,21,21,12,4,44,36,750,['c'],1,left,['2'],5,185,[0.09486006],100,44,hard,plus,dotcolour,beta,,,32,20,M,R,
526,22,22,12,4,36,44,567,['c'],0,right,['2'],5,54,[0.09922378],100,44,hard,plus,dotcolour,beta,,,32,20,M,R,
527,23,23,12,4,53,27,399,['n'],0,left,['2'],5,205,[-0.02961187],97,53,easy,plus,dotcolour,beta,,,32,20,M,R,
528,24,24,12,4,44,36,1033,['n'],0,left,['2'],5,69,[-0.04976445],100,44,hard,plus,dotcolour,beta,,,32,20,M,R,
529,25,25,12,4,44,36,783,['c'],1,left,['2'],5,108,[0.04443295],100,44,hard,plus,dotcolour,beta,,,32,20,M,R,
530,26,26,12,4,36,44,1117,['c'],0,right,['2'],5,52,[0.09565952],100,44,hard,plus,dotcolour,beta,,,32,20,M,R,
531,27,27,12,4,33,47,667,['c'],0,right,['2'],5,169,[0.09185031],100,47,medium,plus,dotcolour,beta,,,32,20,M,R,
532,28,28,12,4,53,27,833,['c'],1,left,['2'],5,34,[0.0725649],100,53,easy,plus,dotcolour,beta,,,32,20,M,R,
533,29,29,12,4,47,33,651,['c'],1,left,['2'],5,64,[0.06755995],100,47,medium,plus,dotcolour,beta,,,32,20,M,R,
534,30,30,12,4,47,33,500,['c'],1,left,['2'],5,123,[0.11071818],100,47,medium,plus,dotcolour,beta,,,32,20,M,R,
535,31,31,12,4,36,44,518,['c'],0,right,['2'],5,99,[0.1147785],100,44,hard,plus,dotcolour,beta,,,32,20,M,R,
536,32,32,12,4,33,47,418,['c'],0,right,['2'],5,104,[0.01673508],98,47,medium,plus,dotcolour,beta,,,32,20,M,R,
537,33,33,12,4,53,27,466,['c'],1,left,['2'],5,106,[0.05234211],100,53,easy,plus,dotcolour,beta,,,32,20,M,R,
538,34,34,12,4,36,44,401,['c'],0,right,['2'],5,87,[0.11325779],100,44,hard,plus,dotcolour,beta,,,32,20,M,R,
539,35,35,12,4,33,47,198,['n'],1,right,['2'],5,110,[-0.09809847],100,47,medium,plus,dotcolour,beta,,,32,20,M,R,
540,36,36,12,4,47,33,700,['n'],0,left,['2'],5,141,[-0.09613877],100,47,medium,plus,dotcolour,beta,,,32,20,M,R,
541,37,37,12,4,33,47,216,['c'],0,right,['2'],5,89,[0.03396246],100,47,medium,plus,dotcolour,beta,,,32,20,M,R,
542,38,38,12,4,27,53,884,['c'],0,right,['2'],5,35,[0.06265984],100,53,easy,plus,dotcolour,beta,,,32,20,M,R,
543,39,39,12,4,36,44,767,['c'],0,right,['2'],5,212,[0.03168327],97,44,hard,plus,dotcolour,beta,,,32,20,M,R,
544,40,40,12,4,27,53,867,['n'],1,right,['2'],5,162,[-0.08113523],100,53,easy,plus,dotcolour,beta,,,32,20,M,R,
545,41,41,12,4,44,36,867,['n'],0,left,['2'],5,186,[-0.05754674],99,44,hard,plus,dotcolour,beta,,,32,20,M,R,
546,42,0,13,4,27,53,700,['n'],1,right,['2'],5,159,[-0.16596504],100,53,easy,plus,dotcolour,beta,,,32,20,M,R,
547,43,1,13,4,27,53,450,['n'],1,right,['2'],5,136,[-0.04003481],99,53,easy,plus,dotcolour,beta,,,32,20,M,R,
548,44,2,13,4,33,47,483,['c'],0,right,['2'],5,129,[0.11336238],100,47,medium,plus,dotcolour,beta,,,32,20,M,R,
549,45,3,13,4,36,44,284,['n'],1,right,['2'],5,169,[-0.06135672],99,44,hard,plus,dotcolour,beta,,,32,20,M,R,
550,46,4,13,4,47,33,983,['c'],1,left,['2'],5,149,[0.11734105],100,47,medium,plus,dotcolour,beta,,,32,20,M,R,
551,47,5,13,4,44,36,767,['n'],0,left,['2'],5,177,[-0.03920517],98,44,hard,plus,dotcolour,beta,,,32,20,M,R,
552,48,6,13,4,27,53,834,['n'],1,right,['1'],6,698,[-0.13219431],98,53,easy,plus,dotcolour,beta,,,32,20,M,R,
553,49,7,13,4,36,44,733,['n'],1,right,['1'],6,146,[-0.10215949],100,44,hard,plus,dotcolour,beta,,,32,20,M,R,
554,50,8,13,4,33,47,683,['n'],1,right,['1'],6,162,[-0.17323576],100,47,medium,plus,dotcolour,beta,,,32,20,M,R,
555,51,9,13,4,44,36,717,['c'],1,left,['1'],6,168,[0.04970263],99,44,hard,plus,dotcolour,beta,,,32,20,M,R,
556,52,10,13,4,47,33,650,['n'],0,left,['2'],5,201,[-0.06950415],99,47,medium,plus,dotcolour,beta,,,32,20,M,R,
557,53,11,13,4,47,33,684,['c'],1,left,['1'],6,183,[0.12836906],100,47,medium,plus,dotcolour,beta,,,32,20,M,R,
558,54,12,13,4,53,27,650,['c'],1,left,['2'],5,599,[0.13468105],99,53,easy,plus,dotcolour,beta,,,32,20,M,R,
559,55,13,13,4,44,36,666,['c'],1,left,['3'],4,1485,[-0.05541935],50,44,hard,plus,dotcolour,beta,,,32,20,M,R,
560,56,14,13,4,36,44,3800,['n'],1,right,['2'],5,371,[-0.10820391],99,44,hard,plus,dotcolour,beta,,,32,20,M,R,
561,57,15,13,4,53,27,1234,['c'],1,left,['2'],5,180,[0.09204473],100,53,easy,plus,dotcolour,beta,,,32,20,M,R,
562,58,16,13,4,44,36,1034,['n'],0,left,['2'],5,261,[-0.08044582],99,44,hard,plus,dotcolour,beta,,,32,20,M,R,
563,59,17,13,4,53,27,549,['n'],0,left,['2'],5,181,[-0.03221826],98,53,easy,plus,dotcolour,beta,,,32,20,M,R,
564,60,18,13,4,36,44,550,['n'],1,right,['2'],5,169,[-0.09479573],100,44,hard,plus,dotcolour,beta,,,32,20,M,R,
565,61,19,13,4,27,53,567,['n'],1,right,['2'],5,173,[-0.05225329],99,53,easy,plus,dotcolour,beta,,,32,20,M,R,
566,62,20,13,4,47,33,434,['n'],0,left,['2'],5,374,[-0.01200145],88,47,medium,plus,dotcolour,beta,,,32,20,M,R,
567,63,21,13,4,53,27,433,['n'],0,left,['2'],5,455,[0.02491293],69,53,easy,plus,dotcolour,beta,,,32,20,M,R,
568,64,22,13,4,27,53,451,['n'],1,right,['2'],5,115,[-0.12764138],100,53,easy,plus,dotcolour,beta,,,32,20,M,R,
569,65,23,13,4,33,47,484,['n'],1,right,['2'],5,101,[-0.1030187],100,47,medium,plus,dotcolour,beta,,,32,20,M,R,
570,66,24,13,4,33,47,633,['n'],1,right,['2'],5,113,[-0.11227015],100,47,medium,plus,dotcolour,beta,,,32,20,M,R,
571,67,25,13,4,44,36,1301,['c'],1,left,['2'],5,65,[0.05179403],100,44,hard,plus,dotcolour,beta,,,32,20,M,R,
572,68,26,13,4,44,36,1217,['n'],0,left,['2'],5,143,[-0.06618838],100,44,hard,plus,dotcolour,beta,,,32,20,M,R,
573,69,27,13,4,33,47,883,['n'],1,right,['2'],5,223,[-0.0508987],98,47,medium,plus,dotcolour,beta,,,32,20,M,R,
574,70,28,13,4,27,53,850,['n'],1,right,['2'],5,181,[-0.13219538],100,53,easy,plus,dotcolour,beta,,,32,20,M,R,
575,71,29,13,4,36,44,550,['n'],1,right,['2'],5,145,[-0.03614927],99,44,hard,plus,dotcolour,beta,,,32,20,M,R,
576,72,30,13,4,33,47,483,['n'],1,right,['2'],5,169,[-0.07771801],100,47,medium,plus,dotcolour,beta,,,32,20,M,R,
577,73,31,13,4,36,44,433,['n'],1,right,['2'],5,139,[-0.132065],100,44,hard,plus,dotcolour,beta,,,32,20,M,R,
578,74,32,13,4,44,36,1000,['c'],1,left,['2'],5,103,[0.05554898],100,44,hard,plus,dotcolour,beta,,,32,20,M,R,
579,75,33,13,4,53,27,1116,['n'],0,left,['2'],5,143,[-0.04913386],99,53,easy,plus,dotcolour,beta,,,32,20,M,R,
580,76,34,13,4,53,27,917,['c'],1,left,['2'],5,182,[0.10338173],100,53,easy,plus,dotcolour,beta,,,32,20,M,R,
581,77,35,13,4,33,47,1767,['n'],1,right,['2'],5,633,[-0.07575285],95,47,medium,plus,dotcolour,beta,,,32,20,M,R,
582,78,36,13,4,27,53,517,['n'],1,right,['2'],5,149,[-0.20295186],100,53,easy,plus,dotcolour,beta,,,32,20,M,R,
583,79,37,13,4,53,27,900,['c'],1,left,['2'],5,84,[0.09667848],100,53,easy,plus,dotcolour,beta,,,32,20,M,R,
584,80,38,13,4,47,33,951,['c'],1,left,['2'],5,100,[0.08020943],100,47,medium,plus,dotcolour,beta,,,32,20,M,R,
585,81,39,13,4,47,33,551,['c'],1,left,['2'],5,211,[0.13053894],100,47,medium,plus,dotcolour,beta,,,32,20,M,R,
586,82,40,13,4,36,44,1317,['n'],1,right,['2'],5,200,[-0.03373795],97,44,hard,plus,dotcolour,beta,,,32,20,M,R,
587,83,41,13,4,47,33,750,['n'],0,left,['2'],5,146,[0.00236162],92,47,medium,plus,dotcolour,beta,,,32,20,M,R,
588,84,0,14,4,27,53,501,['n'],1,right,['2'],5,129,[-0.06543942],100,53,easy,plus,dotcolour,beta,,,32,20,M,R,
589,85,1,14,4,44,36,1034,['c'],1,left,['2'],5,156,[0.04524364],99,44,hard,plus,dotcolour,beta,,,32,20,M,R,
590,86,2,14,4,47,33,734,['c'],1,left,['2'],5,162,[0.11377552],100,47,medium,plus,dotcolour,beta,,,32,20,M,R,
591,87,3,14,4,53,27,750,['c'],1,left,['2'],5,167,[0.12143337],100,53,easy,plus,dotcolour,beta,,,32,20,M,R,
592,88,4,14,4,47,33,1499,['n'],0,left,['2'],5,173,[-0.01855495],96,47,medium,plus,dotcolour,beta,,,32,20,M,R,
593,89,5,14,4,44,36,833,['c'],1,left,['2'],5,126,[0.11674151],100,44,hard,plus,dotcolour,beta,,,32,20,M,R,
594,90,6,14,4,36,44,766,['c'],0,right,['2'],5,156,[0.01140576],95,44,hard,plus,dotcolour,beta,,,32,20,M,R,
595,91,7,14,4,47,33,800,['c'],1,left,['2'],5,119,[0.08818577],100,47,medium,plus,dotcolour,beta,,,32,20,M,R,
596,92,8,14,4,47,33,551,['c'],1,left,['2'],5,141,[0.11115732],100,47,medium,plus,dotcolour,beta,,,32,20,M,R,
597,93,9,14,4,33,47,700,['c'],0,right,['2'],5,116,[0.08690744],100,47,medium,plus,dotcolour,beta,,,32,20,M,R,
598,94,10,14,4,44,36,1716,['c'],1,left,['2'],5,437,[0.16745234],100,44,hard,plus,dotcolour,beta,,,32,20,M,R,
599,95,11,14,4,27,53,1100,['n'],1,right,['2'],5,225,[-0.13953005],100,53,easy,plus,dotcolour,beta,,,32,20,M,R,
600,96,12,14,4,53,27,901,['c'],1,left,['1'],6,261,[0.16328131],100,53,easy,plus,dotcolour,beta,,,32,20,M,R,
601,97,13,14,4,33,47,1234,['n'],1,right,['1'],6,146,[-0.09031887],100,47,medium,plus,dotcolour,beta,,,32,20,M,R,
602,98,14,14,4,36,44,567,['n'],1,right,['1'],6,246,[-0.06246669],99,44,hard,plus,dotcolour,beta,,,32,20,M,R,
603,99,15,14,4,27,53,535,['n'],1,right,['1'],6,224,[-0.11687322],100,53,easy,plus,dotcolour,beta,,,32,20,M,R,
604,100,16,14,4,33,47,533,['n'],1,right,['1'],6,243,[-0.04449078],97,47,medium,plus,dotcolour,beta,,,32,20,M,R,
605,101,17,14,4,53,27,434,['n'],0,left,['2'],5,1161,[-0.12676716],95,53,easy,plus,dotcolour,beta,,,32,20,M,R,
606,102,18,14,4,53,27,567,['n'],0,left,['2'],5,141,[-0.00019688],94,53,easy,plus,dotcolour,beta,,,32,20,M,R,
607,103,19,14,4,36,44,751,['n'],1,right,['2'],5,115,[-0.02375528],99,44,hard,plus,dotcolour,beta,,,32,20,M,R,
608,104,20,14,4,36,44,566,['n'],1,right,['2'],5,128,[0.01449411],89,44,hard,plus,dotcolour,beta,,,32,20,M,R,
609,105,21,14,4,44,36,617,['n'],0,left,['2'],5,156,[-0.05893957],99,44,hard,plus,dotcolour,beta,,,32,20,M,R,
610,106,22,14,4,47,33,666,['n'],0,left,['1'],6,204,[-0.18128243],100,47,medium,plus,dotcolour,beta,,,32,20,M,R,
611,107,23,14,4,47,33,1068,['c'],1,left,['1'],6,426,[0.12936692],99,47,medium,plus,dotcolour,beta,,,32,20,M,R,
612,108,24,14,4,53,27,966,['c'],1,left,['1'],6,452,[0.22466009],100,53,easy,plus,dotcolour,beta,,,32,20,M,R,
613,109,25,14,4,36,44,650,['n'],1,right,['1'],6,193,[-0.1493831],100,44,hard,plus,dotcolour,beta,,,32,20,M,R,
614,110,26,14,4,33,47,517,['n'],1,right,['1'],6,134,[-0.09185436],100,47,medium,plus,dotcolour,beta,,,32,20,M,R,
615,111,27,14,4,53,27,1066,['c'],1,left,['1'],6,511,[0.13779424],99,53,easy,plus,dotcolour,beta,,,32,20,M,R,
616,112,28,14,4,44,36,650,['n'],0,left,['2'],5,170,[0.02934438],76,44,hard,plus,dotcolour,beta,,,32,20,M,R,
617,113,29,14,4,27,53,550,['n'],1,right,['2'],5,167,[-0.13581214],100,53,easy,plus,dotcolour,beta,,,32,20,M,R,
618,114,30,14,4,33,47,466,['n'],1,right,['2'],5,174,[-0.04407842],99,47,medium,plus,dotcolour,beta,,,32,20,M,R,
619,115,31,14,4,33,47,532,['n'],1,right,['2'],5,171,[-0.02387928],97,47,medium,plus,dotcolour,beta,,,32,20,M,R,
620,116,32,14,4,44,36,734,['n'],0,left,['2'],5,129,[0.00218099],94,44,hard,plus,dotcolour,beta,,,32,20,M,R,
621,117,33,14,4,44,36,534,['n'],0,left,['2'],5,159,[-0.00680984],94,44,hard,plus,dotcolour,beta,,,32,20,M,R,
622,118,34,14,4,47,33,650,['n'],0,left,['2'],5,192,[-0.0157235],95,47,medium,plus,dotcolour,beta,,,32,20,M,R,
623,119,35,14,4,53,27,1500,['c'],1,left,['2'],5,453,[0.17335049],100,53,easy,plus,dotcolour,beta,,,32,20,M,R,
624,120,36,14,4,33,47,450,['n'],1,right,['2'],5,146,[-0.08614411],100,47,medium,plus,dotcolour,beta,,,32,20,M,R,
625,121,37,14,4,36,44,1567,['n'],1,right,['2'],5,1015,[-0.15497478],98,44,hard,plus,dotcolour,beta,,,32,20,M,R,
626,122,38,14,4,27,53,484,['n'],1,right,['2'],5,213,[-0.14447219],100,53,easy,plus,dotcolour,beta,,,32,20,M,R,
627,123,39,14,4,36,44,350,['n'],1,right,['2'],5,143,[-0.11879599],100,44,hard,plus,dotcolour,beta,,,32,20,M,R,
628,124,40,14,4,27,53,466,['n'],1,right,['2'],5,160,[0.04590881],61,53,easy,plus,dotcolour,beta,,,32,20,M,R,
629,125,41,14,4,27,53,550,['n'],1,right,['2'],5,180,[-0.10866373],100,53,easy,plus,dotcolour,beta,,,32,20,M,R,
630,0,0,15,5,27,53,434,['n'],1,right,['2'],5,140,[-0.04029905],32,53,easy,minus,dotcolour,beta,,,32,20,M,R,
631,1,1,15,5,36,44,450,['n'],1,right,['1'],6,253,[-0.08919324],77,44,hard,minus,dotcolour,beta,,,32,20,M,R,
632,2,2,15,5,33,47,500,['n'],1,right,['2'],5,88,[-0.03021848],18,47,medium,minus,dotcolour,beta,,,32,20,M,R,
633,3,3,15,5,44,36,1000,['c'],1,left,['2'],5,335,[0.14860706],95,44,hard,minus,dotcolour,beta,,,32,20,M,R,
634,4,4,15,5,47,33,450,['n'],0,left,['2'],5,176,[-0.0491937],43,47,medium,minus,dotcolour,beta,,,32,20,M,R,
635,5,5,15,5,27,53,650,['n'],1,right,['2'],5,144,[-0.12818515],97,53,easy,minus,dotcolour,beta,,,32,20,M,R,
636,6,6,15,5,33,47,400,['n'],1,right,['2'],5,164,[-0.08625847],80,47,medium,minus,dotcolour,beta,,,32,20,M,R,
637,7,7,15,5,33,47,301,['n'],1,right,['2'],5,107,[-0.14277347],99,47,medium,minus,dotcolour,beta,,,32,20,M,R,
638,8,8,15,5,33,47,433,['n'],1,right,['2'],5,150,[-0.12010654],95,47,medium,minus,dotcolour,beta,,,32,20,M,R,
639,9,9,15,5,27,53,417,['n'],1,right,['2'],5,105,[-0.09470138],90,53,easy,minus,dotcolour,beta,,,32,20,M,R,
640,10,10,15,5,53,27,1000,['c'],1,left,['2'],5,303,[0.16122989],97,53,easy,minus,dotcolour,beta,,,32,20,M,R,
641,11,11,15,5,33,47,433,['n'],1,right,['2'],5,114,[-0.04745399],39,47,medium,minus,dotcolour,beta,,,32,20,M,R,
642,12,12,15,5,36,44,434,['n'],1,right,['2'],5,150,[-0.12461302],96,44,hard,minus,dotcolour,beta,,,32,20,M,R,
643,13,13,15,5,36,44,484,['n'],1,right,['2'],5,110,[-0.05450946],49,44,hard,minus,dotcolour,beta,,,32,20,M,R,
644,14,14,15,5,53,27,1101,['c'],1,left,['2'],5,359,[0.10266662],80,53,easy,minus,dotcolour,beta,,,32,20,M,R,
645,15,15,15,5,53,27,867,['c'],1,left,['2'],5,399,[0.20777101],99,53,easy,minus,dotcolour,beta,,,32,20,M,R,
646,16,16,15,5,33,47,650,['n'],1,right,['2'],5,294,[-0.06299924],56,47,medium,minus,dotcolour,beta,,,32,20,M,R,
647,17,17,15,5,44,36,500,['n'],0,left,['2'],5,95,[-0.09065606],89,44,hard,minus,dotcolour,beta,,,32,20,M,R,
648,18,18,15,5,36,44,349,['n'],1,right,['2'],5,191,[-0.10287414],88,44,hard,minus,dotcolour,beta,,,32,20,M,R,
649,19,19,15,5,27,53,866,['n'],1,right,['2'],5,117,[-0.04876202],41,53,easy,minus,dotcolour,beta,,,32,20,M,R,
650,20,20,15,5,27,53,417,['n'],1,right,['2'],5,153,[-0.0893612],83,53,easy,minus,dotcolour,beta,,,32,20,M,R,
651,21,21,15,5,47,33,951,['c'],1,left,['2'],5,407,[0.10743848],81,47,medium,minus,dotcolour,beta,,,32,20,M,R,
652,22,22,15,5,47,33,984,['c'],1,left,['2'],5,400,[0.07011178],60,47,medium,minus,dotcolour,beta,,,32,20,M,R,
653,23,23,15,5,36,44,883,['c'],0,right,['1'],6,478,[-0.01285616],14,44,hard,minus,dotcolour,beta,,,32,20,M,R,
654,24,24,15,5,36,44,634,['n'],1,right,['2'],5,139,[-0.04848313],42,44,hard,minus,dotcolour,beta,,,32,20,M,R,
655,25,25,15,5,27,53,267,['n'],1,right,['2'],5,156,[-0.09687628],87,53,easy,minus,dotcolour,beta,,,32,20,M,R,
656,26,26,15,5,53,27,883,['c'],1,left,['2'],5,372,[0.05172958],47,53,easy,minus,dotcolour,beta,,,32,20,M,R,
657,27,27,15,5,27,53,385,['n'],1,right,['2'],5,150,[-0.11175441],93,53,easy,minus,dotcolour,beta,,,32,20,M,R,
658,28,28,15,5,44,36,317,['n'],0,left,['2'],5,141,[-0.01859373],15,44,hard,minus,dotcolour,beta,,,32,20,M,R,
659,29,29,15,5,47,33,57,['n'],0,left,['2'],5,1353,[0.19115726],2,47,medium,minus,dotcolour,beta,,,32,20,M,R,
660,30,30,15,5,33,47,716,['n'],1,right,['2'],5,183,[-0.15471658],98,47,medium,minus,dotcolour,beta,,,32,20,M,R,
661,31,31,15,5,44,36,451,['n'],0,left,['2'],5,110,[-0.02305072],15,44,hard,minus,dotcolour,beta,,,32,20,M,R,
662,32,32,15,5,47,33,1368,['c'],1,left,['2'],5,444,[0.13748574],90,47,medium,minus,dotcolour,beta,,,32,20,M,R,
663,33,33,15,5,53,27,1117,['c'],1,left,['2'],5,367,[0.04177122],40,53,easy,minus,dotcolour,beta,,,32,20,M,R,
664,34,34,15,5,53,27,817,['c'],1,left,['2'],5,361,[0.14398495],93,53,easy,minus,dotcolour,beta,,,32,20,M,R,
665,35,35,15,5,44,36,384,['n'],0,left,['2'],5,124,[-0.01608304],12,44,hard,minus,dotcolour,beta,,,32,20,M,R,
666,36,36,15,5,53,27,983,['c'],1,left,['2'],5,338,[0.11784682],87,53,easy,minus,dotcolour,beta,,,32,20,M,R,
667,37,37,15,5,36,44,884,['c'],0,right,['2'],5,634,[0.17053463],93,44,hard,minus,dotcolour,beta,,,32,20,M,R,
668,38,38,15,5,47,33,900,['c'],1,left,['2'],5,341,[0.18412219],98,47,medium,minus,dotcolour,beta,,,32,20,M,R,
669,39,39,15,5,44,36,984,['c'],1,left,['2'],5,402,[0.10199455],79,44,hard,minus,dotcolour,beta,,,32,20,M,R,
670,40,40,15,5,44,36,850,['c'],1,left,['2'],5,297,[0.10350308],83,44,hard,minus,dotcolour,beta,,,32,20,M,R,
671,41,41,15,5,47,33,1083,['c'],1,left,['2'],5,843,[0.40347171],100,47,medium,minus,dotcolour,beta,,,32,20,M,R,
672,42,0,16,5,53,27,984,['c'],1,left,['2'],5,402,[0.0191179],26,53,easy,minus,dotcolour,beta,,,32,20,M,R,
673,43,1,16,5,36,44,501,['n'],1,right,['2'],5,143,[-0.09564481],87,44,hard,minus,dotcolour,beta,,,32,20,M,R,
674,44,2,16,5,47,33,384,['n'],0,left,['2'],5,99,[-0.14252435],99,47,medium,minus,dotcolour,beta,,,32,20,M,R,
675,45,3,16,5,47,33,266,['n'],0,left,['2'],5,173,[-0.06522847],60,47,medium,minus,dotcolour,beta,,,32,20,M,R,
676,46,4,16,5,27,53,600,['n'],1,right,['2'],5,143,[-0.13922804],98,53,easy,minus,dotcolour,beta,,,32,20,M,R,
677,47,5,16,5,27,53,367,['n'],1,right,['2'],5,124,[-0.11897416],96,53,easy,minus,dotcolour,beta,,,32,20,M,R,
678,48,6,16,5,47,33,866,['c'],1,left,['2'],5,381,[0.11799018],86,47,medium,minus,dotcolour,beta,,,32,20,M,R,
679,49,7,16,5,44,36,1951,['n'],0,left,['2'],5,594,[-0.18055141],95,44,hard,minus,dotcolour,beta,,,32,20,M,R,
680,50,8,16,5,27,53,534,['n'],1,right,['2'],5,189,[-0.05782504],52,53,easy,minus,dotcolour,beta,,,32,20,M,R,
681,51,9,16,5,33,47,334,['n'],1,right,['2'],5,114,[-0.04657139],38,47,medium,minus,dotcolour,beta,,,32,20,M,R,
682,52,10,16,5,36,44,300,['n'],1,right,['2'],5,114,[-0.06997758],68,44,hard,minus,dotcolour,beta,,,32,20,M,R,
683,53,11,16,5,27,53,383,['n'],1,right,['2'],5,127,[-0.07326618],71,53,easy,minus,dotcolour,beta,,,32,20,M,R,
684,54,12,16,5,27,53,450,['n'],1,right,['2'],5,106,[0.01596457],2,53,easy,minus,dotcolour,beta,,,32,20,M,R,
685,55,13,16,5,47,33,917,['n'],0,left,['2'],5,106,[-0.09360283],89,47,medium,minus,dotcolour,beta,,,32,20,M,R,
686,56,14,16,5,36,44,384,['n'],1,right,['2'],5,104,[-0.0956671],90,44,hard,minus,dotcolour,beta,,,32,20,M,R,
687,57,15,16,5,27,53,284,['n'],1,right,['2'],5,162,[-0.15368807],99,53,easy,minus,dotcolour,beta,,,32,20,M,R,
688,58,16,16,5,53,27,102,['n'],0,left,['2'],5,670,[0.09303618],4,53,easy,minus,dotcolour,beta,,,32,20,M,R,
689,59,17,16,5,44,36,600,['n'],0,left,['2'],5,187,[-0.10809933],90,44,hard,minus,dotcolour,beta,,,32,20,M,R,
690,60,18,16,5,36,44,466,['n'],1,right,['2'],5,147,[-0.0973145],88,44,hard,minus,dotcolour,beta,,,32,20,M,R,
691,61,19,16,5,53,27,933,['c'],1,left,['2'],5,361,[0.11369703],85,53,easy,minus,dotcolour,beta,,,32,20,M,R,
692,62,20,16,5,44,36,417,['n'],0,left,['2'],5,171,[-0.08996229],82,44,hard,minus,dotcolour,beta,,,32,20,M,R,
693,63,21,16,5,33,47,317,['n'],1,right,['2'],5,153,[-0.09422547],86,47,medium,minus,dotcolour,beta,,,32,20,M,R,
694,64,22,16,5,44,36,884,['c'],1,left,['2'],5,393,[0.04424756],42,44,hard,minus,dotcolour,beta,,,32,20,M,R,
695,65,23,16,5,33,47,384,['n'],1,right,['2'],5,187,[-0.11352624],92,47,medium,minus,dotcolour,beta,,,32,20,M,R,
696,66,24,16,5,44,36,383,['n'],0,left,['2'],5,157,[-0.02196675],18,44,hard,minus,dotcolour,beta,,,32,20,M,R,
697,67,25,16,5,44,36,416,['n'],0,left,['2'],5,167,[-0.00190409],9,44,hard,minus,dotcolour,beta,,,32,20,M,R,
698,68,26,16,5,47,33,933,['n'],0,left,['2'],5,125,[-0.07711817],75,47,medium,minus,dotcolour,beta,,,32,20,M,R,
699,69,27,16,5,33,47,130,['n'],1,right,['2'],5,73,[-0.0319661],17,47,medium,minus,dotcolour,beta,,,32,20,M,R,
700,70,28,16,5,27,53,417,['n'],1,right,['2'],5,151,[-0.09937062],88,53,easy,minus,dotcolour,beta,,,32,20,M,R,
701,71,29,16,5,53,27,833,['c'],1,left,['2'],5,321,[0.1637061],97,53,easy,minus,dotcolour,beta,,,32,20,M,R,
702,72,30,16,5,36,44,416,['n'],1,right,['2'],5,245,[-0.0585882],53,44,hard,minus,dotcolour,beta,,,32,20,M,R,
703,73,31,16,5,53,27,450,['c'],1,left,['2'],5,627,[0.09235763],70,53,easy,minus,dotcolour,beta,,,32,20,M,R,
704,74,32,16,5,47,33,700,['c'],1,left,['2'],5,278,[0.11455043],88,47,medium,minus,dotcolour,beta,,,32,20,M,R,
705,75,33,16,5,53,27,384,['n'],0,left,['2'],5,133,[-0.0269459],20,53,easy,minus,dotcolour,beta,,,32,20,M,R,
706,76,34,16,5,33,47,601,['c'],0,right,['2'],5,537,[-0.0024144],19,47,medium,minus,dotcolour,beta,,,32,20,M,R,
707,77,35,16,5,36,44,350,['n'],1,right,['2'],5,134,[-0.01534744],12,44,hard,minus,dotcolour,beta,,,32,20,M,R,
708,78,36,16,5,47,33,1017,['c'],1,left,['2'],5,370,[0.22987818],99,47,medium,minus,dotcolour,beta,,,32,20,M,R,
709,79,37,16,5,44,36,600,['n'],0,left,['2'],5,172,[-0.10288489],89,44,hard,minus,dotcolour,beta,,,32,20,M,R,
710,80,38,16,5,33,47,383,['n'],1,right,['2'],5,111,[-0.13400155],99,47,medium,minus,dotcolour,beta,,,32,20,M,R,
711,81,39,16,5,33,47,534,['n'],1,right,['2'],5,207,[-0.14859069],98,47,medium,minus,dotcolour,beta,,,32,20,M,R,
712,82,40,16,5,53,27,284,['n'],0,left,['2'],5,116,[-0.00872703],8,53,easy,minus,dotcolour,beta,,,32,20,M,R,
713,83,41,16,5,36,44,516,['n'],1,right,['2'],5,236,[-0.08786413],77,44,hard,minus,dotcolour,beta,,,32,20,M,R,
714,84,0,17,5,44,36,600,['n'],0,left,['2'],5,136,[-0.12380013],97,44,hard,minus,dotcolour,beta,,,32,20,M,R,
715,85,1,17,5,33,47,1133,['c'],0,right,['2'],5,294,[-0.07997574],1,47,medium,minus,dotcolour,beta,,,32,20,M,R,
716,86,2,17,5,53,27,400,['n'],0,left,['2'],5,164,[-0.06873366],64,53,easy,minus,dotcolour,beta,,,32,20,M,R,
717,87,3,17,5,47,33,1583,['n'],0,left,['2'],5,255,[-0.14965977],97,47,medium,minus,dotcolour,beta,,,32,20,M,R,
718,88,4,17,5,33,47,383,['n'],1,right,['2'],5,143,[-0.12973963],97,47,medium,minus,dotcolour,beta,,,32,20,M,R,
719,89,5,17,5,47,33,417,['n'],0,left,['2'],5,161,[-0.10039741],88,47,medium,minus,dotcolour,beta,,,32,20,M,R,
720,90,6,17,5,33,47,617,['n'],1,right,['2'],5,900,[-0.19114416],93,47,medium,minus,dotcolour,beta,,,32,20,M,R,
721,91,7,17,5,53,27,1000,['c'],1,left,['2'],5,257,[0.16465815],98,53,easy,minus,dotcolour,beta,,,32,20,M,R,
722,92,8,17,5,44,36,800,['n'],0,left,['2'],5,175,[-0.07011909],65,44,hard,minus,dotcolour,beta,,,32,20,M,R,
723,93,9,17,5,47,33,883,['c'],1,left,['2'],5,294,[0.14780021],96,47,medium,minus,dotcolour,beta,,,32,20,M,R,
724,94,10,17,5,27,53,483,['n'],1,right,['2'],5,384,[-0.13372968],91,53,easy,minus,dotcolour,beta,,,32,20,M,R,
725,95,11,17,5,33,47,867,['n'],1,right,['2'],5,127,[-0.07585631],74,47,medium,minus,dotcolour,beta,,,32,20,M,R,
726,96,12,17,5,36,44,400,['n'],1,right,['2'],5,115,[-0.12924041],98,44,hard,minus,dotcolour,beta,,,32,20,M,R,
727,97,13,17,5,36,44,283,['n'],1,right,['2'],5,61,[-0.07141698],76,44,hard,minus,dotcolour,beta,,,32,20,M,R,
728,98,14,17,5,36,44,283,['n'],1,right,['2'],5,88,[-0.13550879],99,44,hard,minus,dotcolour,beta,,,32,20,M,R,
729,99,15,17,5,47,33,233,['n'],0,left,['2'],5,109,[-0.04545376],37,47,medium,minus,dotcolour,beta,,,32,20,M,R,
730,100,16,17,5,36,44,170,['n'],1,right,['2'],5,74,[-0.07974833],83,44,hard,minus,dotcolour,beta,,,32,20,M,R,
731,101,17,17,5,36,44,81,['n'],1,right,['2'],5,1000,[-0.11335399],74,44,hard,minus,dotcolour,beta,,,32,20,M,R,
732,102,18,17,5,53,27,550,['n'],0,left,['2'],5,82,[-0.07555396],78,53,easy,minus,dotcolour,beta,,,32,20,M,R,
733,103,19,17,5,33,47,333,['n'],1,right,['2'],5,171,[-0.11976133],94,47,medium,minus,dotcolour,beta,,,32,20,M,R,
734,104,20,17,5,27,53,566,['n'],1,right,['2'],5,87,[-0.13270848],99,53,easy,minus,dotcolour,beta,,,32,20,M,R,
735,105,21,17,5,33,47,366,['n'],1,right,['2'],5,134,[-0.12408043],97,47,medium,minus,dotcolour,beta,,,32,20,M,R,
736,106,22,17,5,53,27,249,['n'],0,left,['8'],3,3417,[0.26969992],4,53,easy,minus,dotcolour,beta,,,32,20,M,R,
737,107,23,17,5,53,27,650,['n'],0,left,['2'],5,981,[0.02012722],20,53,easy,minus,dotcolour,beta,,,32,20,M,R,
738,108,24,17,5,27,53,450,['n'],1,right,['2'],5,190,[-0.11148749],91,53,easy,minus,dotcolour,beta,,,32,20,M,R,
739,109,25,17,5,27,53,284,['n'],1,right,['2'],5,124,[-0.12147697],97,53,easy,minus,dotcolour,beta,,,32,20,M,R,
740,110,26,17,5,47,33,170,['n'],0,left,['2'],5,104,[-0.08687996],85,47,medium,minus,dotcolour,beta,,,32,20,M,R,
741,111,27,17,5,53,27,249,['n'],0,left,['2'],5,131,[-0.04967175],43,53,easy,minus,dotcolour,beta,,,32,20,M,R,
742,112,28,17,5,53,27,900,['c'],1,left,['2'],5,211,[0.13670352],96,53,easy,minus,dotcolour,beta,,,32,20,M,R,
743,113,29,17,5,33,47,650,['n'],1,right,['2'],5,122,[-0.10433719],93,47,medium,minus,dotcolour,beta,,,32,20,M,R,
744,114,30,17,5,27,53,1067,['n'],1,right,['2'],5,123,[-0.09612],89,53,easy,minus,dotcolour,beta,,,32,20,M,R,
745,115,31,17,5,44,36,616,['n'],0,left,['2'],5,182,[-0.04476864],39,44,hard,minus,dotcolour,beta,,,32,20,M,R,
746,116,32,17,5,36,44,750,['n'],1,right,['2'],5,146,[-0.02654376],20,44,hard,minus,dotcolour,beta,,,32,20,M,R,
747,117,33,17,5,44,36,584,['n'],0,left,['2'],5,150,[-0.12835043],97,44,hard,minus,dotcolour,beta,,,32,20,M,R,
748,118,34,17,5,47,33,1017,['c'],1,left,['2'],5,273,[0.09325573],79,47,medium,minus,dotcolour,beta,,,32,20,M,R,
749,119,35,17,5,47,33,583,['n'],0,left,['2'],5,144,[-0.01007174],10,47,medium,minus,dotcolour,beta,,,32,20,M,R,
750,120,36,17,5,27,53,601,['n'],1,right,['2'],5,259,[-0.03727617],34,53,easy,minus,dotcolour,beta,,,32,20,M,R,
751,121,37,17,5,44,36,1451,['c'],1,left,['2'],5,224,[0.05172355],46,44,hard,minus,dotcolour,beta,,,32,20,M,R,
752,122,38,17,5,36,44,685,['c'],0,right,['2'],5,196,[0.13774838],97,44,hard,minus,dotcolour,beta,,,32,20,M,R,
753,123,39,17,5,44,36,717,['n'],0,left,['2'],5,121,[-0.07044098],68,44,hard,minus,dotcolour,beta,,,32,20,M,R,
754,124,40,17,5,27,53,901,['n'],1,right,['2'],5,946,[-0.34806215],100,53,easy,minus,dotcolour,beta,,,32,20,M,R,
755,125,41,17,5,44,36,617,['n'],0,left,['2'],5,244,[-0.02357528],24,44,hard,minus,dotcolour,beta,,,32,20,M,R,
,,,,,,,,,,,,,,,,,,,,,1,ja de resultaten kwamen soms niet overeen dacht ik te zien,32,20,M,R,
,,,,,,,,,,,,,,,,,,,,,2,['g'],32,20,M,R,
,,,,,,,,,,,,,,,,,,,,,3,['g'],32,20,M,R,
,,,,,,,,,,,,,,,,,,,,,5,['3'],32,20,M,R,
