trial,withinphasetrial,withinblocktrial,block,phase,dotsLeft,dotsRight,rt,resp,cor,cresp,conf_press,cj,RTconf,ev,fb,diff,difflevel,condition,task,manip,questionID,questionResp,sub,age,gender,handedness,
0,0,0,0,0,36,44,1750,['n'],1,right,['8'],4,1840,[-0.35819468],100,44,hard,plus,dotcolour,beta,,,50,19,M,R,
1,1,1,0,0,44,36,1549,['c'],1,left,['9'],5,1672,[0.21305064],98,44,hard,plus,dotcolour,beta,,,50,19,M,R,
2,2,2,0,0,33,47,1034,['n'],1,right,['8'],4,501,[-0.1468948],99,47,medium,plus,dotcolour,beta,,,50,19,M,R,
3,3,3,0,0,27,53,917,['n'],1,right,['9'],5,334,[-0.17686552],100,53,easy,plus,dotcolour,beta,,,50,19,M,R,
4,4,4,0,0,53,27,1199,['c'],1,left,['9'],5,769,[0.18515227],99,53,easy,plus,dotcolour,beta,,,50,19,M,R,
5,5,5,0,0,53,27,1200,['c'],1,left,['0'],6,388,[0.14094096],100,53,easy,plus,dotcolour,beta,,,50,19,M,R,
6,6,6,0,0,47,33,1133,['n'],0,left,['8'],4,400,[-0.0333247],93,47,medium,plus,dotcolour,beta,,,50,19,M,R,
7,7,7,0,0,47,33,1467,['n'],0,left,['9'],5,278,[-0.11215959],100,47,medium,plus,dotcolour,beta,,,50,19,M,R,
8,8,8,0,0,27,53,900,['n'],1,right,['9'],5,273,[-0.08936736],99,53,easy,plus,dotcolour,beta,,,50,19,M,R,
9,9,9,0,0,36,44,1734,['n'],1,right,['9'],5,2681,[-0.29522897],98,44,hard,plus,dotcolour,beta,,,50,19,M,R,
10,10,10,0,0,53,27,700,['c'],1,left,['3'],3,434,[0.11832447],99,53,easy,plus,dotcolour,beta,,,50,19,M,R,
11,11,11,0,0,44,36,1033,['c'],1,left,['9'],5,169,[0.04569331],99,44,hard,plus,dotcolour,beta,,,50,19,M,R,
12,12,12,0,0,36,44,933,['n'],1,right,['0'],6,191,[-0.15894386],100,44,hard,plus,dotcolour,beta,,,50,19,M,R,
13,13,13,0,0,27,53,900,['n'],1,right,['0'],6,340,[-0.20918379],100,53,easy,plus,dotcolour,beta,,,50,19,M,R,
14,14,14,0,0,44,36,933,['c'],1,left,['8'],4,1290,[0.30090429],100,44,hard,plus,dotcolour,beta,,,50,19,M,R,
15,15,15,0,0,36,44,1001,['n'],1,right,['9'],5,311,[-0.06897972],98,44,hard,plus,dotcolour,beta,,,50,19,M,R,
16,16,16,0,0,47,33,884,['n'],0,left,['0'],6,368,[-0.08281256],98,47,medium,plus,dotcolour,beta,,,50,19,M,R,
17,17,17,0,0,47,33,700,['c'],1,left,['9'],5,391,[0.05532223],96,47,medium,plus,dotcolour,beta,,,50,19,M,R,
18,18,18,0,0,27,53,900,['n'],1,right,['0'],6,309,[-0.09625138],99,53,easy,plus,dotcolour,beta,,,50,19,M,R,
19,19,19,0,0,33,47,950,['n'],1,right,['0'],6,227,[-0.10984252],100,47,medium,plus,dotcolour,beta,,,50,19,M,R,
20,20,20,0,0,36,44,800,['n'],1,right,['9'],5,387,[-0.0807721],98,44,hard,plus,dotcolour,beta,,,50,19,M,R,
21,21,21,0,0,47,33,1118,['c'],1,left,['9'],5,248,[0.07402379],99,47,medium,plus,dotcolour,beta,,,50,19,M,R,
22,22,22,0,0,36,44,1317,['c'],0,right,['9'],5,275,[0.00071025],87,44,hard,plus,dotcolour,beta,,,50,19,M,R,
23,23,23,0,0,33,47,1150,['n'],1,right,['0'],6,275,[-0.02917263],95,47,medium,plus,dotcolour,beta,,,50,19,M,R,
24,24,24,0,0,47,33,1633,['c'],1,left,['8'],4,576,[-0.00294274],78,47,medium,plus,dotcolour,beta,,,50,19,M,R,
25,25,25,0,0,33,47,933,['n'],1,right,['9'],5,508,[-0.28594171],100,47,medium,plus,dotcolour,beta,,,50,19,M,R,
26,26,26,0,0,27,53,916,['n'],1,right,['0'],6,228,[-0.10061471],100,53,easy,plus,dotcolour,beta,,,50,19,M,R,
27,27,27,0,0,27,53,833,['n'],1,right,['9'],5,387,[-0.25576565],100,53,easy,plus,dotcolour,beta,,,50,19,M,R,
28,28,28,0,0,27,53,716,['n'],1,right,['9'],5,296,[-0.078557],99,53,easy,plus,dotcolour,beta,,,50,19,M,R,
29,29,29,0,0,36,44,2084,['n'],1,right,['9'],5,178,[-0.09630419],100,44,hard,plus,dotcolour,beta,,,50,19,M,R,
30,30,30,0,0,53,27,965,['c'],1,left,['9'],5,150,[0.17562495],100,53,easy,plus,dotcolour,beta,,,50,19,M,R,
31,31,31,0,0,53,27,1067,['c'],1,left,['9'],5,199,[0.13477365],100,53,easy,plus,dotcolour,beta,,,50,19,M,R,
32,32,32,0,0,44,36,1234,['c'],1,left,['9'],5,222,[0.07428165],99,44,hard,plus,dotcolour,beta,,,50,19,M,R,
33,33,33,0,0,53,27,934,['c'],1,left,['8'],4,425,[0.30333847],100,53,easy,plus,dotcolour,beta,,,50,19,M,R,
34,34,34,0,0,47,33,1149,['c'],1,left,['9'],5,260,[0.14433187],100,47,medium,plus,dotcolour,beta,,,50,19,M,R,
35,35,35,0,0,44,36,1050,['c'],1,left,['0'],6,248,[0.04767533],98,44,hard,plus,dotcolour,beta,,,50,19,M,R,
36,36,36,0,0,33,47,1267,['n'],1,right,['9'],5,253,[-0.12915276],100,47,medium,plus,dotcolour,beta,,,50,19,M,R,
37,37,37,0,0,53,27,816,['c'],1,left,['0'],6,707,[0.18242603],99,53,easy,plus,dotcolour,beta,,,50,19,M,R,
38,38,38,0,0,44,36,1450,['c'],1,left,['9'],5,1206,[-0.02359245],63,44,hard,plus,dotcolour,beta,,,50,19,M,R,
39,39,39,0,0,44,36,1001,['c'],1,left,['9'],5,175,[0.08336895],100,44,hard,plus,dotcolour,beta,,,50,19,M,R,
40,40,40,0,0,33,47,818,['n'],1,right,['0'],6,216,[-0.17317934],100,47,medium,plus,dotcolour,beta,,,50,19,M,R,
41,41,41,0,0,33,47,1251,['c'],0,right,['9'],5,223,[-0.00527397],87,47,medium,plus,dotcolour,beta,,,50,19,M,R,
42,42,0,1,0,47,33,766,['c'],1,left,['9'],5,211,[0.07688166],99,47,medium,plus,dotcolour,beta,,,50,19,M,R,
43,43,1,1,0,36,44,983,['n'],1,right,['9'],5,340,[-0.03142811],94,44,hard,plus,dotcolour,beta,,,50,19,M,R,
44,44,2,1,0,27,53,2651,['n'],1,right,['0'],6,325,[-0.15437889],100,53,easy,plus,dotcolour,beta,,,50,19,M,R,
45,45,3,1,0,53,27,885,['c'],1,left,['9'],5,207,[0.09743685],100,53,easy,plus,dotcolour,beta,,,50,19,M,R,
46,46,4,1,0,27,53,883,['n'],1,right,['9'],5,516,[-0.16337],100,53,easy,plus,dotcolour,beta,,,50,19,M,R,
47,47,5,1,0,27,53,800,['n'],1,right,['0'],6,225,[-0.1473744],100,53,easy,plus,dotcolour,beta,,,50,19,M,R,
48,48,6,1,0,44,36,817,['c'],1,left,['9'],5,191,[0.10948857],100,44,hard,plus,dotcolour,beta,,,50,19,M,R,
49,49,7,1,0,47,33,667,['n'],0,left,['9'],5,246,[-0.02040579],94,47,medium,plus,dotcolour,beta,,,50,19,M,R,
50,50,8,1,0,44,36,917,['c'],1,left,['9'],5,209,[0.06414624],99,44,hard,plus,dotcolour,beta,,,50,19,M,R,
51,51,9,1,0,47,33,734,['c'],1,left,['0'],6,180,[0.10162964],100,47,medium,plus,dotcolour,beta,,,50,19,M,R,
52,52,10,1,0,27,53,550,['n'],1,right,['0'],6,184,[-0.07638808],100,53,easy,plus,dotcolour,beta,,,50,19,M,R,
53,53,11,1,0,36,44,816,['n'],1,right,['0'],6,162,[-0.08022757],100,44,hard,plus,dotcolour,beta,,,50,19,M,R,
54,54,12,1,0,33,47,633,['n'],1,right,['0'],6,188,[-0.10641319],100,47,medium,plus,dotcolour,beta,,,50,19,M,R,
55,55,13,1,0,44,36,800,['c'],1,left,['0'],6,141,[0.05441998],99,44,hard,plus,dotcolour,beta,,,50,19,M,R,
56,56,14,1,0,33,47,900,['n'],1,right,['9'],5,189,[-0.1411338],100,47,medium,plus,dotcolour,beta,,,50,19,M,R,
57,57,15,1,0,36,44,900,['n'],1,right,['0'],6,202,[-0.02632375],96,44,hard,plus,dotcolour,beta,,,50,19,M,R,
58,58,16,1,0,36,44,950,['c'],0,right,['9'],5,190,[0.03422199],98,44,hard,plus,dotcolour,beta,,,50,19,M,R,
59,59,17,1,0,27,53,600,['n'],1,right,['0'],6,199,[-0.12465283],100,53,easy,plus,dotcolour,beta,,,50,19,M,R,
60,60,18,1,0,36,44,767,['n'],1,right,['0'],6,186,[-0.1560823],100,44,hard,plus,dotcolour,beta,,,50,19,M,R,
61,61,19,1,0,33,47,750,['n'],1,right,['0'],6,166,[-0.16199687],100,47,medium,plus,dotcolour,beta,,,50,19,M,R,
62,62,20,1,0,44,36,884,['c'],1,left,['0'],6,246,[0.10507273],100,44,hard,plus,dotcolour,beta,,,50,19,M,R,
63,63,21,1,0,47,33,884,['n'],0,left,['0'],6,209,[-0.07875867],99,47,medium,plus,dotcolour,beta,,,50,19,M,R,
64,64,22,1,0,27,53,884,['n'],1,right,['9'],5,311,[-0.16215052],100,53,easy,plus,dotcolour,beta,,,50,19,M,R,
65,65,23,1,0,33,47,684,['n'],1,right,['9'],5,160,[-0.00507068],94,47,medium,plus,dotcolour,beta,,,50,19,M,R,
66,66,24,1,0,36,44,950,['n'],1,right,['9'],5,149,[-0.12125448],100,44,hard,plus,dotcolour,beta,,,50,19,M,R,
67,67,25,1,0,53,27,1150,['c'],1,left,['9'],5,194,[0.11117725],100,53,easy,plus,dotcolour,beta,,,50,19,M,R,
68,68,26,1,0,36,44,1034,['n'],1,right,['9'],5,186,[-0.13104641],100,44,hard,plus,dotcolour,beta,,,50,19,M,R,
69,69,27,1,0,47,33,1050,['c'],1,left,['0'],6,146,[0.10833419],100,47,medium,plus,dotcolour,beta,,,50,19,M,R,
70,70,28,1,0,47,33,767,['n'],0,left,['0'],6,159,[-0.01511971],96,47,medium,plus,dotcolour,beta,,,50,19,M,R,
71,71,29,1,0,44,36,933,['n'],0,left,['8'],4,204,[-0.04244767],98,44,hard,plus,dotcolour,beta,,,50,19,M,R,
72,72,30,1,0,44,36,784,['n'],0,left,['8'],4,214,[-0.08537354],100,44,hard,plus,dotcolour,beta,,,50,19,M,R,
73,73,31,1,0,47,33,968,['c'],1,left,['8'],4,152,[0.06032332],100,47,medium,plus,dotcolour,beta,,,50,19,M,R,
74,74,32,1,0,44,36,1200,['c'],1,left,['8'],4,180,[0.07918619],100,44,hard,plus,dotcolour,beta,,,50,19,M,R,
75,75,33,1,0,53,27,1084,['n'],0,left,['8'],4,363,[-0.03602219],94,53,easy,plus,dotcolour,beta,,,50,19,M,R,
76,76,34,1,0,53,27,867,['c'],1,left,['8'],4,227,[0.127047],100,53,easy,plus,dotcolour,beta,,,50,19,M,R,
77,77,35,1,0,53,27,1416,['c'],1,left,['8'],4,178,[0.06325168],99,53,easy,plus,dotcolour,beta,,,50,19,M,R,
78,78,36,1,0,33,47,1050,['n'],1,right,['9'],5,170,[-0.13469988],100,47,medium,plus,dotcolour,beta,,,50,19,M,R,
79,79,37,1,0,33,47,785,['n'],1,right,['9'],5,149,[-0.02414081],98,47,medium,plus,dotcolour,beta,,,50,19,M,R,
80,80,38,1,0,33,47,650,['n'],1,right,['9'],5,151,[-0.13093752],100,47,medium,plus,dotcolour,beta,,,50,19,M,R,
81,81,39,1,0,53,27,800,['c'],1,left,['9'],5,154,[0.0638602],100,53,easy,plus,dotcolour,beta,,,50,19,M,R,
82,82,40,1,0,27,53,1217,['n'],1,right,['9'],5,205,[-0.06231277],99,53,easy,plus,dotcolour,beta,,,50,19,M,R,
83,83,41,1,0,53,27,783,['c'],1,left,['9'],5,166,[0.14379113],100,53,easy,plus,dotcolour,beta,,,50,19,M,R,
84,84,0,2,0,27,53,667,['n'],1,right,['9'],5,204,[-0.13013096],100,53,easy,plus,dotcolour,beta,,,50,19,M,R,
85,85,1,2,0,47,33,1284,['c'],1,left,['9'],5,186,[0.11114724],100,47,medium,plus,dotcolour,beta,,,50,19,M,R,
86,86,2,2,0,47,33,866,['c'],1,left,['9'],5,169,[0.09313094],100,47,medium,plus,dotcolour,beta,,,50,19,M,R,
87,87,3,2,0,33,47,767,['n'],1,right,['9'],5,285,[-0.04519021],97,47,medium,plus,dotcolour,beta,,,50,19,M,R,
88,88,4,2,0,53,27,1500,['n'],0,left,['1'],1,2399,[0.14611108],26,53,easy,plus,dotcolour,beta,,,50,19,M,R,
89,89,5,2,0,53,27,817,['n'],0,left,['9'],5,215,[-0.02785403],96,53,easy,plus,dotcolour,beta,,,50,19,M,R,
90,90,6,2,0,53,27,750,['c'],1,left,['9'],5,186,[0.14444976],100,53,easy,plus,dotcolour,beta,,,50,19,M,R,
91,91,7,2,0,53,27,867,['c'],1,left,['0'],6,289,[0.11323298],100,53,easy,plus,dotcolour,beta,,,50,19,M,R,
92,92,8,2,0,44,36,1100,['c'],1,left,['9'],5,218,[0.11071129],100,44,hard,plus,dotcolour,beta,,,50,19,M,R,
93,93,9,2,0,44,36,1467,['c'],1,left,['3'],3,784,[0.13917583],98,44,hard,plus,dotcolour,beta,,,50,19,M,R,
94,94,10,2,0,47,33,2683,['n'],0,left,['3'],3,1191,[-0.02562924],79,47,medium,plus,dotcolour,beta,,,50,19,M,R,
95,95,11,2,0,47,33,684,['n'],0,left,['9'],5,196,[-0.08544643],100,47,medium,plus,dotcolour,beta,,,50,19,M,R,
96,96,12,2,0,33,47,583,['n'],1,right,['9'],5,174,[-0.12907665],100,47,medium,plus,dotcolour,beta,,,50,19,M,R,
97,97,13,2,0,47,33,832,['n'],0,left,['2'],2,2007,[0.09920459],36,47,medium,plus,dotcolour,beta,,,50,19,M,R,
98,98,14,2,0,27,53,683,['n'],1,right,['8'],4,796,[-0.24232364],100,53,easy,plus,dotcolour,beta,,,50,19,M,R,
99,99,15,2,0,44,36,700,['n'],0,left,['9'],5,282,[-0.06398787],98,44,hard,plus,dotcolour,beta,,,50,19,M,R,
100,100,16,2,0,47,33,1218,['c'],1,left,['9'],5,215,[0.14410781],100,47,medium,plus,dotcolour,beta,,,50,19,M,R,
101,101,17,2,0,36,44,850,['c'],0,right,['9'],5,198,[0.00872572],93,44,hard,plus,dotcolour,beta,,,50,19,M,R,
102,102,18,2,0,44,36,1334,['n'],0,left,['8'],4,194,[-0.02332597],96,44,hard,plus,dotcolour,beta,,,50,19,M,R,
103,103,19,2,0,44,36,1517,['c'],1,left,['9'],5,151,[0.03555044],99,44,hard,plus,dotcolour,beta,,,50,19,M,R,
104,104,20,2,0,36,44,884,['n'],1,right,['9'],5,199,[0.02133735],80,44,hard,plus,dotcolour,beta,,,50,19,M,R,
105,105,21,2,0,36,44,850,['n'],1,right,['9'],5,190,[-0.14030879],100,44,hard,plus,dotcolour,beta,,,50,19,M,R,
106,106,22,2,0,27,53,1116,['n'],1,right,['9'],5,275,[-0.11176092],100,53,easy,plus,dotcolour,beta,,,50,19,M,R,
107,107,23,2,0,53,27,1017,['c'],1,left,['9'],5,160,[0.02576791],97,53,easy,plus,dotcolour,beta,,,50,19,M,R,
108,108,24,2,0,44,36,700,['n'],0,left,['9'],5,151,[-0.07035821],100,44,hard,plus,dotcolour,beta,,,50,19,M,R,
109,109,25,2,0,27,53,667,['n'],1,right,['9'],5,144,[-0.11256706],100,53,easy,plus,dotcolour,beta,,,50,19,M,R,
110,110,26,2,0,36,44,684,['n'],1,right,['9'],5,152,[-0.0577963],99,44,hard,plus,dotcolour,beta,,,50,19,M,R,
111,111,27,2,0,33,47,667,['n'],1,right,['0'],6,257,[-0.07094462],99,47,medium,plus,dotcolour,beta,,,50,19,M,R,
112,112,28,2,0,36,44,767,['n'],1,right,['0'],6,137,[-0.04972112],99,44,hard,plus,dotcolour,beta,,,50,19,M,R,
113,113,29,2,0,33,47,784,['n'],1,right,['0'],6,149,[0.01577865],86,47,medium,plus,dotcolour,beta,,,50,19,M,R,
114,114,30,2,0,47,33,1801,['c'],1,left,['9'],5,160,[0.09040097],100,47,medium,plus,dotcolour,beta,,,50,19,M,R,
115,115,31,2,0,27,53,634,['n'],1,right,['9'],5,138,[-0.13252883],100,53,easy,plus,dotcolour,beta,,,50,19,M,R,
116,116,32,2,0,36,44,702,['n'],1,right,['0'],6,170,[-0.02204456],97,44,hard,plus,dotcolour,beta,,,50,19,M,R,
117,117,33,2,0,53,27,766,['c'],1,left,['9'],5,198,[0.14361023],100,53,easy,plus,dotcolour,beta,,,50,19,M,R,
118,118,34,2,0,27,53,767,['n'],1,right,['0'],6,216,[-0.0914616],100,53,easy,plus,dotcolour,beta,,,50,19,M,R,
119,119,35,2,0,36,44,684,['n'],1,right,['8'],4,158,[-0.09439731],100,44,hard,plus,dotcolour,beta,,,50,19,M,R,
120,120,36,2,0,27,53,984,['n'],1,right,['9'],5,153,[-0.096693],100,53,easy,plus,dotcolour,beta,,,50,19,M,R,
121,121,37,2,0,33,47,549,['n'],1,right,['9'],5,183,[-0.06136303],99,47,medium,plus,dotcolour,beta,,,50,19,M,R,
122,122,38,2,0,33,47,667,['n'],1,right,['9'],5,134,[-0.047565],99,47,medium,plus,dotcolour,beta,,,50,19,M,R,
123,123,39,2,0,53,27,1017,['c'],1,left,['8'],4,153,[0.1004291],100,53,easy,plus,dotcolour,beta,,,50,19,M,R,
124,124,40,2,0,44,36,851,['c'],1,left,['9'],5,187,[0.10566327],100,44,hard,plus,dotcolour,beta,,,50,19,M,R,
125,125,41,2,0,33,47,667,['n'],1,right,['9'],5,138,[-0.08524984],100,47,medium,plus,dotcolour,beta,,,50,19,M,R,
126,0,0,3,1,44,36,917,['c'],1,left,['0'],6,133,[0.00799841],9,44,hard,minus,dotcolour,beta,,,50,19,M,R,
127,1,1,3,1,44,36,1034,['n'],0,left,['9'],5,248,[-0.03049583],29,44,hard,minus,dotcolour,beta,,,50,19,M,R,
128,2,2,3,1,36,44,700,['n'],1,right,['9'],5,148,[-0.11854123],95,44,hard,minus,dotcolour,beta,,,50,19,M,R,
129,3,3,3,1,33,47,616,['n'],1,right,['9'],5,197,[-0.07274435],67,47,medium,minus,dotcolour,beta,,,50,19,M,R,
130,4,4,3,1,33,47,751,['n'],1,right,['8'],4,194,[-0.14562115],98,47,medium,minus,dotcolour,beta,,,50,19,M,R,
131,5,5,3,1,36,44,999,['c'],0,right,['9'],5,170,[0.02697316],22,44,hard,minus,dotcolour,beta,,,50,19,M,R,
132,6,6,3,1,53,27,717,['n'],0,left,['9'],5,201,[-0.04234159],37,53,easy,minus,dotcolour,beta,,,50,19,M,R,
133,7,7,3,1,33,47,684,['n'],1,right,['9'],5,191,[-0.04866419],43,47,medium,minus,dotcolour,beta,,,50,19,M,R,
134,8,8,3,1,47,33,1117,['n'],0,left,['8'],4,236,[-0.07264518],65,47,medium,minus,dotcolour,beta,,,50,19,M,R,
135,9,9,3,1,36,44,1250,['n'],1,right,['8'],4,193,[-0.07305423],67,44,hard,minus,dotcolour,beta,,,50,19,M,R,
136,10,10,3,1,44,36,767,['n'],0,left,['8'],4,220,[-0.09514604],82,44,hard,minus,dotcolour,beta,,,50,19,M,R,
137,11,11,3,1,47,33,667,['n'],0,left,['8'],4,169,[-0.05831902],53,47,medium,minus,dotcolour,beta,,,50,19,M,R,
138,12,12,3,1,53,27,933,['c'],1,left,['8'],4,175,[0.13775513],97,53,easy,minus,dotcolour,beta,,,50,19,M,R,
139,13,13,3,1,33,47,683,['n'],1,right,['8'],4,181,[-0.14563253],98,47,medium,minus,dotcolour,beta,,,50,19,M,R,
140,14,14,3,1,53,27,1334,['c'],1,left,['9'],5,162,[0.03204467],26,53,easy,minus,dotcolour,beta,,,50,19,M,R,
141,15,15,3,1,47,33,1151,['n'],0,left,['9'],5,623,[0.10517292],2,47,medium,minus,dotcolour,beta,,,50,19,M,R,
142,16,16,3,1,33,47,567,['n'],1,right,['9'],5,152,[-0.14225954],98,47,medium,minus,dotcolour,beta,,,50,19,M,R,
143,17,17,3,1,44,36,852,['c'],1,left,['9'],5,161,[0.09506285],85,44,hard,minus,dotcolour,beta,,,50,19,M,R,
144,18,18,3,1,47,33,700,['c'],1,left,['9'],5,168,[0.0683219],64,47,medium,minus,dotcolour,beta,,,50,19,M,R,
145,19,19,3,1,27,53,700,['n'],1,right,['0'],6,231,[-0.19545367],99,53,easy,minus,dotcolour,beta,,,50,19,M,R,
146,20,20,3,1,53,27,650,['c'],1,left,['0'],6,245,[0.1362767],95,53,easy,minus,dotcolour,beta,,,50,19,M,R,
147,21,21,3,1,27,53,683,['n'],1,right,['0'],6,185,[0.00139339],8,53,easy,minus,dotcolour,beta,,,50,19,M,R,
148,22,22,3,1,27,53,784,['n'],1,right,['0'],6,203,[-0.10578607],88,53,easy,minus,dotcolour,beta,,,50,19,M,R,
149,23,23,3,1,36,44,1117,['c'],0,right,['0'],6,176,[0.07160786],67,44,hard,minus,dotcolour,beta,,,50,19,M,R,
150,24,24,3,1,36,44,766,['n'],1,right,['9'],5,276,[-0.12586345],92,44,hard,minus,dotcolour,beta,,,50,19,M,R,
151,25,25,3,1,47,33,783,['c'],1,left,['0'],6,250,[-0.01455181],7,47,medium,minus,dotcolour,beta,,,50,19,M,R,
152,26,26,3,1,33,47,1200,['n'],1,right,['9'],5,298,[-0.06856322],61,47,medium,minus,dotcolour,beta,,,50,19,M,R,
153,27,27,3,1,44,36,2167,['c'],1,left,['0'],6,176,[0.01786733],17,44,hard,minus,dotcolour,beta,,,50,19,M,R,
154,28,28,3,1,47,33,950,['n'],0,left,['0'],6,260,[-0.01427734],19,47,medium,minus,dotcolour,beta,,,50,19,M,R,
155,29,29,3,1,27,53,500,['n'],1,right,['0'],6,543,[0.04240898],8,53,easy,minus,dotcolour,beta,,,50,19,M,R,
156,30,30,3,1,36,44,633,['n'],1,right,['0'],6,409,[-0.12859045],89,44,hard,minus,dotcolour,beta,,,50,19,M,R,
157,31,31,3,1,27,53,550,['n'],1,right,['0'],6,236,[-0.10231764],85,53,easy,minus,dotcolour,beta,,,50,19,M,R,
158,32,32,3,1,33,47,600,['n'],1,right,['0'],6,212,[-0.06649434],61,47,medium,minus,dotcolour,beta,,,50,19,M,R,
159,33,33,3,1,27,53,750,['n'],1,right,['0'],6,366,[-0.11176468],84,53,easy,minus,dotcolour,beta,,,50,19,M,R,
160,34,34,3,1,44,36,1000,['c'],1,left,['0'],6,153,[0.09783602],87,44,hard,minus,dotcolour,beta,,,50,19,M,R,
161,35,35,3,1,53,27,716,['c'],1,left,['0'],6,208,[0.11495907],91,53,easy,minus,dotcolour,beta,,,50,19,M,R,
162,36,36,3,1,36,44,916,['n'],1,right,['0'],6,164,[-0.0517504],46,44,hard,minus,dotcolour,beta,,,50,19,M,R,
163,37,37,3,1,53,27,600,['c'],1,left,['0'],6,231,[0.15815664],98,53,easy,minus,dotcolour,beta,,,50,19,M,R,
164,38,38,3,1,47,33,1167,['n'],0,left,['0'],6,176,[0.01994058],4,47,medium,minus,dotcolour,beta,,,50,19,M,R,
165,39,39,3,1,27,53,733,['n'],1,right,['0'],6,276,[-0.18920859],99,53,easy,minus,dotcolour,beta,,,50,19,M,R,
166,40,40,3,1,44,36,666,['n'],0,left,['9'],5,208,[-0.11032775],90,44,hard,minus,dotcolour,beta,,,50,19,M,R,
167,41,41,3,1,53,27,650,['c'],1,left,['9'],5,206,[0.11169404],90,53,easy,minus,dotcolour,beta,,,50,19,M,R,
168,42,0,4,1,27,53,601,['n'],1,right,['0'],6,211,[-0.09862345],84,53,easy,minus,dotcolour,beta,,,50,19,M,R,
169,43,1,4,1,33,47,450,['n'],1,right,['0'],6,185,[-0.05532313],50,47,medium,minus,dotcolour,beta,,,50,19,M,R,
170,44,2,4,1,53,27,1117,['c'],1,left,['3'],3,143,[0.11604718],95,53,easy,minus,dotcolour,beta,,,50,19,M,R,
171,45,3,4,1,44,36,1050,['n'],0,left,['0'],6,384,[-0.0564979],51,44,hard,minus,dotcolour,beta,,,50,19,M,R,
172,46,4,4,1,44,36,884,['n'],0,left,['9'],5,287,[-0.15836922],97,44,hard,minus,dotcolour,beta,,,50,19,M,R,
173,47,5,4,1,53,27,833,['c'],1,left,['9'],5,212,[-0.02938533],3,53,easy,minus,dotcolour,beta,,,50,19,M,R,
174,48,6,4,1,33,47,665,['n'],1,right,['0'],6,202,[-0.17434758],99,47,medium,minus,dotcolour,beta,,,50,19,M,R,
175,49,7,4,1,27,53,783,['n'],1,right,['0'],6,163,[-0.10926097],92,53,easy,minus,dotcolour,beta,,,50,19,M,R,
176,50,8,4,1,44,36,768,['c'],1,left,['0'],6,151,[0.04079802],34,44,hard,minus,dotcolour,beta,,,50,19,M,R,
177,51,9,4,1,53,27,783,['c'],1,left,['0'],6,211,[0.14201421],97,53,easy,minus,dotcolour,beta,,,50,19,M,R,
178,52,10,4,1,36,44,600,['n'],1,right,['0'],6,189,[-0.05550803],50,44,hard,minus,dotcolour,beta,,,50,19,M,R,
179,53,11,4,1,33,47,717,['n'],1,right,['0'],6,137,[-0.14626036],99,47,medium,minus,dotcolour,beta,,,50,19,M,R,
180,54,12,4,1,53,27,2000,['n'],0,left,['1'],1,1229,[-0.03668942],42,53,easy,minus,dotcolour,beta,,,50,19,M,R,
181,55,13,4,1,33,47,650,['n'],1,right,['0'],6,180,[-0.01636743],16,47,medium,minus,dotcolour,beta,,,50,19,M,R,
182,56,14,4,1,33,47,651,['n'],1,right,['9'],5,716,[-0.26973695],99,47,medium,minus,dotcolour,beta,,,50,19,M,R,
183,57,15,4,1,27,53,534,['n'],1,right,['0'],6,235,[-0.06716156],61,53,easy,minus,dotcolour,beta,,,50,19,M,R,
184,58,16,4,1,53,27,999,['c'],1,left,['3'],3,163,[0.05995129],55,53,easy,minus,dotcolour,beta,,,50,19,M,R,
185,59,17,4,1,53,27,1284,['c'],1,left,['0'],6,266,[0.1098692],87,53,easy,minus,dotcolour,beta,,,50,19,M,R,
186,60,18,4,1,36,44,533,['n'],1,right,['0'],6,140,[-0.10460044],91,44,hard,minus,dotcolour,beta,,,50,19,M,R,
187,61,19,4,1,27,53,532,['n'],1,right,['0'],6,162,[-0.07233214],68,53,easy,minus,dotcolour,beta,,,50,19,M,R,
188,62,20,4,1,36,44,733,['n'],1,right,['0'],6,167,[-0.04032226],34,44,hard,minus,dotcolour,beta,,,50,19,M,R,
189,63,21,4,1,47,33,799,['c'],1,left,['0'],6,178,[0.10607796],90,47,medium,minus,dotcolour,beta,,,50,19,M,R,
190,64,22,4,1,27,53,533,['n'],1,right,['0'],6,199,[-0.05876334],53,53,easy,minus,dotcolour,beta,,,50,19,M,R,
191,65,23,4,1,44,36,883,['c'],1,left,['0'],6,213,[0.13162523],95,44,hard,minus,dotcolour,beta,,,50,19,M,R,
192,66,24,4,1,44,36,800,['c'],1,left,['0'],6,189,[0.0377404],32,44,hard,minus,dotcolour,beta,,,50,19,M,R,
193,67,25,4,1,27,53,600,['n'],1,right,['0'],6,175,[-0.13329597],97,53,easy,minus,dotcolour,beta,,,50,19,M,R,
194,68,26,4,1,33,47,601,['n'],1,right,['0'],6,201,[-0.17201524],99,47,medium,minus,dotcolour,beta,,,50,19,M,R,
195,69,27,4,1,53,27,618,['n'],0,left,['1'],1,833,[-0.0291842],37,53,easy,minus,dotcolour,beta,,,50,19,M,R,
196,70,28,4,1,27,53,550,['n'],1,right,['0'],6,155,[-0.12338468],96,53,easy,minus,dotcolour,beta,,,50,19,M,R,
197,71,29,4,1,36,44,1234,['c'],0,right,['0'],6,174,[0.08067614],75,44,hard,minus,dotcolour,beta,,,50,19,M,R,
198,72,30,4,1,47,33,2100,['c'],1,left,['8'],4,211,[0.0517874],46,47,medium,minus,dotcolour,beta,,,50,19,M,R,
199,73,31,4,1,44,36,866,['n'],0,left,['9'],5,201,[-0.11150583],90,44,hard,minus,dotcolour,beta,,,50,19,M,R,
200,74,32,4,1,36,44,650,['n'],1,right,['0'],6,129,[-0.08659288],83,44,hard,minus,dotcolour,beta,,,50,19,M,R,
201,75,33,4,1,36,44,1666,['n'],1,right,['0'],6,146,[-0.12127479],96,44,hard,minus,dotcolour,beta,,,50,19,M,R,
202,76,34,4,1,44,36,1416,['n'],0,left,['0'],6,149,[-0.02882113],22,44,hard,minus,dotcolour,beta,,,50,19,M,R,
203,77,35,4,1,47,33,1249,['c'],1,left,['9'],5,158,[0.07788571],73,47,medium,minus,dotcolour,beta,,,50,19,M,R,
204,78,36,4,1,47,33,750,['n'],0,left,['9'],5,203,[-0.09393006],82,47,medium,minus,dotcolour,beta,,,50,19,M,R,
205,79,37,4,1,47,33,1700,['c'],1,left,['9'],5,145,[0.0807865],77,47,medium,minus,dotcolour,beta,,,50,19,M,R,
206,80,38,4,1,47,33,984,['n'],0,left,['8'],4,220,[-0.09579202],82,47,medium,minus,dotcolour,beta,,,50,19,M,R,
207,81,39,4,1,33,47,1017,['n'],1,right,['0'],6,180,[-0.04983492],44,47,medium,minus,dotcolour,beta,,,50,19,M,R,
208,82,40,4,1,36,44,967,['n'],1,right,['9'],5,184,[-0.00788783],12,44,hard,minus,dotcolour,beta,,,50,19,M,R,
209,83,41,4,1,47,33,1066,['n'],0,left,['9'],5,191,[-0.04819766],42,47,medium,minus,dotcolour,beta,,,50,19,M,R,
210,84,0,5,1,53,27,917,['c'],1,left,['9'],5,151,[0.09518006],86,53,easy,minus,dotcolour,beta,,,50,19,M,R,
211,85,1,5,1,47,33,883,['c'],1,left,['9'],5,158,[0.00302718],8,47,medium,minus,dotcolour,beta,,,50,19,M,R,
212,86,2,5,1,27,53,733,['n'],1,right,['9'],5,188,[-0.14037049],97,53,easy,minus,dotcolour,beta,,,50,19,M,R,
213,87,3,5,1,44,36,683,['n'],0,left,['0'],6,178,[-0.00641026],11,44,hard,minus,dotcolour,beta,,,50,19,M,R,
214,88,4,5,1,53,27,933,['c'],1,left,['9'],5,159,[0.11060394],92,53,easy,minus,dotcolour,beta,,,50,19,M,R,
215,89,5,5,1,36,44,617,['n'],1,right,['9'],5,201,[-0.10564448],88,44,hard,minus,dotcolour,beta,,,50,19,M,R,
216,90,6,5,1,53,27,983,['c'],1,left,['0'],6,236,[0.04527764],41,53,easy,minus,dotcolour,beta,,,50,19,M,R,
217,91,7,5,1,44,36,717,['n'],0,left,['0'],6,175,[-0.02964316],25,44,hard,minus,dotcolour,beta,,,50,19,M,R,
218,92,8,5,1,36,44,501,['n'],1,right,['9'],5,276,[-0.09025036],77,44,hard,minus,dotcolour,beta,,,50,19,M,R,
219,93,9,5,1,44,36,751,['n'],0,left,['9'],5,252,[-0.06269332],56,44,hard,minus,dotcolour,beta,,,50,19,M,R,
220,94,10,5,1,36,44,683,['n'],1,right,['9'],5,160,[-0.08440612],79,44,hard,minus,dotcolour,beta,,,50,19,M,R,
221,95,11,5,1,33,47,601,['n'],1,right,['9'],5,155,[-0.10624563],91,47,medium,minus,dotcolour,beta,,,50,19,M,R,
222,96,12,5,1,33,47,634,['n'],1,right,['9'],5,117,[-0.08191865],80,47,medium,minus,dotcolour,beta,,,50,19,M,R,
223,97,13,5,1,44,36,1068,['c'],1,left,['9'],5,215,[0.06536764],59,44,hard,minus,dotcolour,beta,,,50,19,M,R,
224,98,14,5,1,33,47,500,['n'],1,right,['9'],5,187,[-0.08674367],79,47,medium,minus,dotcolour,beta,,,50,19,M,R,
225,99,15,5,1,47,33,767,['c'],1,left,['0'],6,223,[0.10489583],87,47,medium,minus,dotcolour,beta,,,50,19,M,R,
226,100,16,5,1,33,47,1066,['c'],0,right,['0'],6,156,[-0.0347953],2,47,medium,minus,dotcolour,beta,,,50,19,M,R,
227,101,17,5,1,53,27,1000,['c'],1,left,['9'],5,167,[0.12432485],95,53,easy,minus,dotcolour,beta,,,50,19,M,R,
228,102,18,5,1,33,47,1450,['n'],1,right,['0'],6,264,[-0.08819147],76,47,medium,minus,dotcolour,beta,,,50,19,M,R,
229,103,19,5,1,36,44,601,['n'],1,right,['0'],6,190,[-0.05088537],45,44,hard,minus,dotcolour,beta,,,50,19,M,R,
230,104,20,5,1,27,53,600,['n'],1,right,['9'],5,176,[-0.04317511],37,53,easy,minus,dotcolour,beta,,,50,19,M,R,
231,105,21,5,1,27,53,567,['n'],1,right,['9'],5,123,[-0.06681486],64,53,easy,minus,dotcolour,beta,,,50,19,M,R,
232,106,22,5,1,27,53,650,['n'],1,right,['9'],5,181,[-0.12225951],94,53,easy,minus,dotcolour,beta,,,50,19,M,R,
233,107,23,5,1,47,33,700,['n'],0,left,['9'],5,171,[0.01980063],4,47,medium,minus,dotcolour,beta,,,50,19,M,R,
234,108,24,5,1,44,36,600,['n'],0,left,['9'],5,166,[-0.21438164],100,44,hard,minus,dotcolour,beta,,,50,19,M,R,
235,109,25,5,1,44,36,535,['n'],0,left,['0'],6,171,[-0.12073896],94,44,hard,minus,dotcolour,beta,,,50,19,M,R,
236,110,26,5,1,27,53,551,['n'],1,right,['0'],6,152,[-0.07805013],74,53,easy,minus,dotcolour,beta,,,50,19,M,R,
237,111,27,5,1,47,33,817,['c'],1,left,['0'],6,138,[0.1245882],97,47,medium,minus,dotcolour,beta,,,50,19,M,R,
238,112,28,5,1,33,47,751,['n'],1,right,['0'],6,169,[-0.09236716],83,47,medium,minus,dotcolour,beta,,,50,19,M,R,
239,113,29,5,1,27,53,467,['n'],1,right,['9'],5,233,[-0.03405175],31,53,easy,minus,dotcolour,beta,,,50,19,M,R,
240,114,30,5,1,53,27,816,['c'],1,left,['9'],5,168,[0.16267485],99,53,easy,minus,dotcolour,beta,,,50,19,M,R,
241,115,31,5,1,53,27,733,['c'],1,left,['0'],6,181,[0.1253963],95,53,easy,minus,dotcolour,beta,,,50,19,M,R,
242,116,32,5,1,36,44,1134,['n'],1,right,['0'],6,226,[-0.08552419],76,44,hard,minus,dotcolour,beta,,,50,19,M,R,
243,117,33,5,1,36,44,1201,['n'],1,right,['0'],6,554,[-0.13375376],87,44,hard,minus,dotcolour,beta,,,50,19,M,R,
244,118,34,5,1,47,33,483,['c'],1,left,['0'],6,394,[0.28340873],100,47,medium,minus,dotcolour,beta,,,50,19,M,R,
245,119,35,5,1,33,47,618,['n'],1,right,['0'],6,114,[-0.05595286],51,47,medium,minus,dotcolour,beta,,,50,19,M,R,
246,120,36,5,1,53,27,1432,['c'],1,left,['0'],6,158,[0.04992127],44,53,easy,minus,dotcolour,beta,,,50,19,M,R,
247,121,37,5,1,36,44,616,['n'],1,right,['0'],6,111,[-0.11212656],96,44,hard,minus,dotcolour,beta,,,50,19,M,R,
248,122,38,5,1,47,33,900,['c'],1,left,['0'],6,120,[0.02768683],19,47,medium,minus,dotcolour,beta,,,50,19,M,R,
249,123,39,5,1,27,53,866,['n'],1,right,['0'],6,99,[-0.15738737],100,53,easy,minus,dotcolour,beta,,,50,19,M,R,
250,124,40,5,1,44,36,967,['n'],0,left,['8'],4,145,[-0.06840816],65,44,hard,minus,dotcolour,beta,,,50,19,M,R,
251,125,41,5,1,47,33,767,['c'],1,left,['8'],4,198,[0.03249959],28,47,medium,minus,dotcolour,beta,,,50,19,M,R,
252,0,0,6,2,44,36,1551,['n'],0,left,['9'],5,135,[-0.02869008],98,44,hard,plus,dotcolour,beta,,,50,19,M,R,
253,1,1,6,2,36,44,799,['n'],1,right,['9'],5,123,[-0.07917587],100,44,hard,plus,dotcolour,beta,,,50,19,M,R,
254,2,2,6,2,53,27,800,['n'],0,left,['9'],5,184,[-0.05002318],99,53,easy,plus,dotcolour,beta,,,50,19,M,R,
255,3,3,6,2,53,27,1017,['c'],1,left,['9'],5,145,[0.0999946],100,53,easy,plus,dotcolour,beta,,,50,19,M,R,
256,4,4,6,2,33,47,699,['n'],1,right,['9'],5,137,[-0.10113236],100,47,medium,plus,dotcolour,beta,,,50,19,M,R,
257,5,5,6,2,44,36,917,['c'],1,left,['9'],5,119,[0.01463951],97,44,hard,plus,dotcolour,beta,,,50,19,M,R,
258,6,6,6,2,44,36,1617,['c'],1,left,['9'],5,147,[0.11556298],100,44,hard,plus,dotcolour,beta,,,50,19,M,R,
259,7,7,6,2,33,47,1534,['n'],1,right,['9'],5,34,[-0.04515726],100,47,medium,plus,dotcolour,beta,,,50,19,M,R,
260,8,8,6,2,33,47,1000,['n'],1,right,['9'],5,121,[-0.14997249],100,47,medium,plus,dotcolour,beta,,,50,19,M,R,
261,9,9,6,2,36,44,1467,['n'],1,right,['9'],5,139,[-0.10736395],100,44,hard,plus,dotcolour,beta,,,50,19,M,R,
262,10,10,6,2,33,47,1066,['n'],1,right,['8'],4,492,[-0.22992378],100,47,medium,plus,dotcolour,beta,,,50,19,M,R,
263,11,11,6,2,47,33,799,['n'],0,left,['9'],5,98,[-0.04849836],100,47,medium,plus,dotcolour,beta,,,50,19,M,R,
264,12,12,6,2,44,36,750,['n'],0,left,['9'],5,153,[-0.01655006],97,44,hard,plus,dotcolour,beta,,,50,19,M,R,
265,13,13,6,2,47,33,1400,['c'],1,left,['9'],5,140,[0.08820582],100,47,medium,plus,dotcolour,beta,,,50,19,M,R,
266,14,14,6,2,44,36,716,['n'],0,left,['9'],5,131,[-0.06118283],100,44,hard,plus,dotcolour,beta,,,50,19,M,R,
267,15,15,6,2,47,33,783,['c'],1,left,['9'],5,152,[0.10668986],100,47,medium,plus,dotcolour,beta,,,50,19,M,R,
268,16,16,6,2,27,53,617,['n'],1,right,['9'],5,106,[-0.05883332],100,53,easy,plus,dotcolour,beta,,,50,19,M,R,
269,17,17,6,2,53,27,784,['c'],1,left,['9'],5,168,[0.10905245],100,53,easy,plus,dotcolour,beta,,,50,19,M,R,
270,18,18,6,2,33,47,750,['c'],0,right,['9'],5,172,[-0.00288279],91,47,medium,plus,dotcolour,beta,,,50,19,M,R,
271,19,19,6,2,27,53,2250,['n'],1,right,['9'],5,150,[-0.14079192],100,53,easy,plus,dotcolour,beta,,,50,19,M,R,
272,20,20,6,2,47,33,833,['c'],1,left,['9'],5,208,[0.15487465],100,47,medium,plus,dotcolour,beta,,,50,19,M,R,
273,21,21,6,2,53,27,1401,['c'],1,left,['9'],5,832,[0.35115304],100,53,easy,plus,dotcolour,beta,,,50,19,M,R,
274,22,22,6,2,33,47,983,['n'],1,right,['9'],5,192,[-0.05997073],99,47,medium,plus,dotcolour,beta,,,50,19,M,R,
275,23,23,6,2,47,33,817,['n'],0,left,['9'],5,145,[-0.10067139],100,47,medium,plus,dotcolour,beta,,,50,19,M,R,
276,24,24,6,2,36,44,1584,['c'],0,right,['0'],6,142,[0.06684165],100,44,hard,plus,dotcolour,beta,,,50,19,M,R,
277,25,25,6,2,44,36,799,['c'],1,left,['0'],6,249,[0.08463032],99,44,hard,plus,dotcolour,beta,,,50,19,M,R,
278,26,26,6,2,47,33,699,['c'],1,left,['9'],5,164,[0.07372854],100,47,medium,plus,dotcolour,beta,,,50,19,M,R,
279,27,27,6,2,27,53,718,['n'],1,right,['9'],5,154,[-0.07399981],100,53,easy,plus,dotcolour,beta,,,50,19,M,R,
280,28,28,6,2,44,36,1149,['c'],1,left,['9'],5,152,[0.11141468],100,44,hard,plus,dotcolour,beta,,,50,19,M,R,
281,29,29,6,2,53,27,733,['c'],1,left,['9'],5,173,[0.11148073],100,53,easy,plus,dotcolour,beta,,,50,19,M,R,
282,30,30,6,2,53,27,750,['c'],1,left,['9'],5,201,[0.14356017],100,53,easy,plus,dotcolour,beta,,,50,19,M,R,
283,31,31,6,2,27,53,683,['n'],1,right,['9'],5,144,[-0.00184844],94,53,easy,plus,dotcolour,beta,,,50,19,M,R,
284,32,32,6,2,36,44,700,['n'],1,right,['9'],5,127,[-0.05385167],100,44,hard,plus,dotcolour,beta,,,50,19,M,R,
285,33,33,6,2,47,33,767,['c'],1,left,['9'],5,157,[0.03778228],99,47,medium,plus,dotcolour,beta,,,50,19,M,R,
286,34,34,6,2,33,47,1100,['n'],1,right,['9'],5,163,[-0.05560354],99,47,medium,plus,dotcolour,beta,,,50,19,M,R,
287,35,35,6,2,53,27,1350,['c'],1,left,['9'],5,152,[0.10264997],100,53,easy,plus,dotcolour,beta,,,50,19,M,R,
288,36,36,6,2,27,53,850,['n'],1,right,['9'],5,153,[-0.1634448],100,53,easy,plus,dotcolour,beta,,,50,19,M,R,
289,37,37,6,2,27,53,666,['n'],1,right,['9'],5,177,[-0.05130513],99,53,easy,plus,dotcolour,beta,,,50,19,M,R,
290,38,38,6,2,36,44,933,['c'],0,right,['9'],5,183,[0.07978038],100,44,hard,plus,dotcolour,beta,,,50,19,M,R,
291,39,39,6,2,27,53,649,['n'],1,right,['0'],6,198,[-0.06293324],99,53,easy,plus,dotcolour,beta,,,50,19,M,R,
292,40,40,6,2,36,44,1117,['n'],1,right,['9'],5,163,[-0.0927733],100,44,hard,plus,dotcolour,beta,,,50,19,M,R,
293,41,41,6,2,36,44,733,['n'],1,right,['0'],6,192,[-0.03357276],97,44,hard,plus,dotcolour,beta,,,50,19,M,R,
294,42,0,7,2,33,47,1635,['n'],1,right,['8'],4,1809,[-0.18103083],96,47,medium,plus,dotcolour,beta,,,50,19,M,R,
295,43,1,7,2,44,36,767,['n'],0,left,['9'],5,187,[0.0350984],70,44,hard,plus,dotcolour,beta,,,50,19,M,R,
296,44,2,7,2,47,33,768,['c'],1,left,['9'],5,206,[0.05668979],99,47,medium,plus,dotcolour,beta,,,50,19,M,R,
297,45,3,7,2,53,27,799,['c'],1,left,['9'],5,151,[0.1000788],100,53,easy,plus,dotcolour,beta,,,50,19,M,R,
298,46,4,7,2,36,44,834,['n'],1,right,['9'],5,160,[-0.06215189],100,44,hard,plus,dotcolour,beta,,,50,19,M,R,
299,47,5,7,2,44,36,650,['n'],0,left,['9'],5,178,[-0.08773042],100,44,hard,plus,dotcolour,beta,,,50,19,M,R,
300,48,6,7,2,47,33,2033,['c'],1,left,['0'],6,1154,[0.01584528],77,47,medium,plus,dotcolour,beta,,,50,19,M,R,
301,49,7,7,2,47,33,751,['c'],1,left,['9'],5,207,[0.05588576],99,47,medium,plus,dotcolour,beta,,,50,19,M,R,
302,50,8,7,2,27,53,684,['n'],1,right,['9'],5,156,[-0.11552157],100,53,easy,plus,dotcolour,beta,,,50,19,M,R,
303,51,9,7,2,53,27,800,['c'],1,left,['9'],5,151,[0.10234527],100,53,easy,plus,dotcolour,beta,,,50,19,M,R,
304,52,10,7,2,27,53,1050,['n'],1,right,['9'],5,128,[-0.10314288],100,53,easy,plus,dotcolour,beta,,,50,19,M,R,
305,53,11,7,2,53,27,684,['c'],1,left,['9'],5,161,[0.05574436],99,53,easy,plus,dotcolour,beta,,,50,19,M,R,
306,54,12,7,2,27,53,650,['n'],1,right,['9'],5,274,[-0.06555309],98,53,easy,plus,dotcolour,beta,,,50,19,M,R,
307,55,13,7,2,44,36,1483,['c'],1,left,['0'],6,172,[0.0807894],100,44,hard,plus,dotcolour,beta,,,50,19,M,R,
308,56,14,7,2,44,36,800,['n'],0,left,['9'],5,167,[-0.09556916],100,44,hard,plus,dotcolour,beta,,,50,19,M,R,
309,57,15,7,2,47,33,834,['n'],0,left,['9'],5,144,[-0.00452114],95,47,medium,plus,dotcolour,beta,,,50,19,M,R,
310,58,16,7,2,33,47,850,['n'],1,right,['9'],5,114,[-0.0675718],100,47,medium,plus,dotcolour,beta,,,50,19,M,R,
311,59,17,7,2,36,44,750,['n'],1,right,['0'],6,201,[-0.11691846],100,44,hard,plus,dotcolour,beta,,,50,19,M,R,
312,60,18,7,2,27,53,717,['n'],1,right,['0'],6,173,[-0.09427244],100,53,easy,plus,dotcolour,beta,,,50,19,M,R,
313,61,19,7,2,36,44,633,['n'],1,right,['9'],5,310,[-0.06638024],98,44,hard,plus,dotcolour,beta,,,50,19,M,R,
314,62,20,7,2,27,53,533,['n'],1,right,['9'],5,158,[-0.04965272],99,53,easy,plus,dotcolour,beta,,,50,19,M,R,
315,63,21,7,2,33,47,684,['n'],1,right,['9'],5,125,[-0.08603618],100,47,medium,plus,dotcolour,beta,,,50,19,M,R,
316,64,22,7,2,36,44,1417,['n'],1,right,['8'],4,176,[-0.04752553],99,44,hard,plus,dotcolour,beta,,,50,19,M,R,
317,65,23,7,2,44,36,1067,['c'],1,left,['9'],5,831,[0.24330995],100,44,hard,plus,dotcolour,beta,,,50,19,M,R,
318,66,24,7,2,47,33,1117,['c'],1,left,['9'],5,203,[0.0575449],99,47,medium,plus,dotcolour,beta,,,50,19,M,R,
319,67,25,7,2,53,27,917,['c'],1,left,['9'],5,143,[0.13714527],100,53,easy,plus,dotcolour,beta,,,50,19,M,R,
320,68,26,7,2,53,27,700,['n'],0,left,['9'],5,135,[-0.0804529],100,53,easy,plus,dotcolour,beta,,,50,19,M,R,
321,69,27,7,2,53,27,1066,['c'],1,left,['9'],5,152,[0.15238133],100,53,easy,plus,dotcolour,beta,,,50,19,M,R,
322,70,28,7,2,47,33,2101,['c'],1,left,['9'],5,239,[0.13156504],100,47,medium,plus,dotcolour,beta,,,50,19,M,R,
323,71,29,7,2,33,47,817,['n'],1,right,['9'],5,174,[-0.09192493],100,47,medium,plus,dotcolour,beta,,,50,19,M,R,
324,72,30,7,2,33,47,734,['n'],1,right,['9'],5,211,[-0.15887578],100,47,medium,plus,dotcolour,beta,,,50,19,M,R,
325,73,31,7,2,36,44,584,['n'],1,right,['9'],5,164,[-0.15058655],100,44,hard,plus,dotcolour,beta,,,50,19,M,R,
326,74,32,7,2,44,36,733,['n'],0,left,['9'],5,154,[-0.01784081],97,44,hard,plus,dotcolour,beta,,,50,19,M,R,
327,75,33,7,2,27,53,884,['c'],0,right,['9'],5,170,[0.05077887],99,53,easy,plus,dotcolour,beta,,,50,19,M,R,
328,76,34,7,2,47,33,917,['c'],1,left,['9'],5,208,[0.09132208],100,47,medium,plus,dotcolour,beta,,,50,19,M,R,
329,77,35,7,2,44,36,1333,['c'],1,left,['3'],3,379,[0.14274059],100,44,hard,plus,dotcolour,beta,,,50,19,M,R,
330,78,36,7,2,33,47,699,['c'],0,right,['9'],5,234,[-0.01665447],81,47,medium,plus,dotcolour,beta,,,50,19,M,R,
331,79,37,7,2,53,27,583,['n'],0,left,['2'],2,1402,[-0.04876128],83,53,easy,plus,dotcolour,beta,,,50,19,M,R,
332,80,38,7,2,36,44,817,['n'],1,right,['9'],5,154,[-0.0534386],99,44,hard,plus,dotcolour,beta,,,50,19,M,R,
333,81,39,7,2,27,53,534,['n'],1,right,['9'],5,152,[-0.1043294],100,53,easy,plus,dotcolour,beta,,,50,19,M,R,
334,82,40,7,2,33,47,1100,['c'],0,right,['9'],5,144,[0.08220133],100,47,medium,plus,dotcolour,beta,,,50,19,M,R,
335,83,41,7,2,36,44,1000,['n'],1,right,['8'],4,186,[-0.10067136],100,44,hard,plus,dotcolour,beta,,,50,19,M,R,
336,84,0,8,2,44,36,1318,['c'],1,left,['9'],5,168,[0.10414124],100,44,hard,plus,dotcolour,beta,,,50,19,M,R,
337,85,1,8,2,36,44,717,['n'],1,right,['9'],5,111,[-0.12862252],100,44,hard,plus,dotcolour,beta,,,50,19,M,R,
338,86,2,8,2,44,36,667,['n'],0,left,['9'],5,81,[-0.11329048],100,44,hard,plus,dotcolour,beta,,,50,19,M,R,
339,87,3,8,2,33,47,618,['n'],1,right,['9'],5,143,[-0.09182743],100,47,medium,plus,dotcolour,beta,,,50,19,M,R,
340,88,4,8,2,44,36,966,['c'],1,left,['9'],5,179,[0.08145815],100,44,hard,plus,dotcolour,beta,,,50,19,M,R,
341,89,5,8,2,44,36,750,['c'],1,left,['9'],5,214,[0.15448701],100,44,hard,plus,dotcolour,beta,,,50,19,M,R,
342,90,6,8,2,27,53,617,['n'],1,right,['9'],5,134,[-0.18104],100,53,easy,plus,dotcolour,beta,,,50,19,M,R,
343,91,7,8,2,36,44,1118,['n'],1,right,['9'],5,158,[-0.0738523],100,44,hard,plus,dotcolour,beta,,,50,19,M,R,
344,92,8,8,2,47,33,2600,['n'],0,left,['9'],5,145,[-0.01111234],96,47,medium,plus,dotcolour,beta,,,50,19,M,R,
345,93,9,8,2,53,27,633,['c'],1,left,['9'],5,155,[0.04208634],99,53,easy,plus,dotcolour,beta,,,50,19,M,R,
346,94,10,8,2,53,27,650,['c'],1,left,['9'],5,149,[0.12842296],100,53,easy,plus,dotcolour,beta,,,50,19,M,R,
347,95,11,8,2,27,53,550,['n'],1,right,['9'],5,154,[-0.12092744],100,53,easy,plus,dotcolour,beta,,,50,19,M,R,
348,96,12,8,2,33,47,600,['n'],1,right,['9'],5,117,[-0.08710915],100,47,medium,plus,dotcolour,beta,,,50,19,M,R,
349,97,13,8,2,27,53,616,['n'],1,right,['9'],5,89,[-0.10316555],100,53,easy,plus,dotcolour,beta,,,50,19,M,R,
350,98,14,8,2,47,33,700,['c'],1,left,['0'],6,227,[0.03950891],97,47,medium,plus,dotcolour,beta,,,50,19,M,R,
351,99,15,8,2,47,33,617,['n'],0,left,['9'],5,290,[0.04854717],56,47,medium,plus,dotcolour,beta,,,50,19,M,R,
352,100,16,8,2,44,36,1234,['c'],1,left,['9'],5,838,[-0.00664783],72,44,hard,plus,dotcolour,beta,,,50,19,M,R,
353,101,17,8,2,33,47,600,['n'],1,right,['9'],5,150,[-0.03000275],98,47,medium,plus,dotcolour,beta,,,50,19,M,R,
354,102,18,8,2,47,33,684,['n'],0,left,['9'],5,190,[-0.00884611],93,47,medium,plus,dotcolour,beta,,,50,19,M,R,
355,103,19,8,2,36,44,734,['n'],1,right,['9'],5,122,[-0.10541748],100,44,hard,plus,dotcolour,beta,,,50,19,M,R,
356,104,20,8,2,53,27,767,['c'],1,left,['9'],5,152,[0.1208675],100,53,easy,plus,dotcolour,beta,,,50,19,M,R,
357,105,21,8,2,27,53,1117,['n'],1,right,['9'],5,134,[-0.08236456],100,53,easy,plus,dotcolour,beta,,,50,19,M,R,
358,106,22,8,2,33,47,817,['n'],1,right,['9'],5,130,[-0.13081189],100,47,medium,plus,dotcolour,beta,,,50,19,M,R,
359,107,23,8,2,36,44,566,['n'],1,right,['9'],5,79,[-0.10637852],100,44,hard,plus,dotcolour,beta,,,50,19,M,R,
360,108,24,8,2,44,36,1467,['c'],1,left,['9'],5,187,[0.06773492],99,44,hard,plus,dotcolour,beta,,,50,19,M,R,
361,109,25,8,2,33,47,767,['n'],1,right,['9'],5,166,[-0.11217126],100,47,medium,plus,dotcolour,beta,,,50,19,M,R,
362,110,26,8,2,36,44,717,['n'],1,right,['9'],5,100,[-0.05769349],100,44,hard,plus,dotcolour,beta,,,50,19,M,R,
363,111,27,8,2,53,27,1034,['c'],1,left,['9'],5,160,[0.08419064],100,53,easy,plus,dotcolour,beta,,,50,19,M,R,
364,112,28,8,2,53,27,1732,['c'],1,left,['9'],5,173,[0.12347588],100,53,easy,plus,dotcolour,beta,,,50,19,M,R,
365,113,29,8,2,27,53,667,['n'],1,right,['9'],5,165,[-0.10103163],100,53,easy,plus,dotcolour,beta,,,50,19,M,R,
366,114,30,8,2,33,47,734,['c'],0,right,['9'],5,154,[0.1119155],100,47,medium,plus,dotcolour,beta,,,50,19,M,R,
367,115,31,8,2,27,53,550,['n'],1,right,['9'],5,144,[-0.14462781],100,53,easy,plus,dotcolour,beta,,,50,19,M,R,
368,116,32,8,2,36,44,1200,['n'],1,right,['9'],5,115,[-0.09890575],100,44,hard,plus,dotcolour,beta,,,50,19,M,R,
369,117,33,8,2,47,33,817,['n'],0,left,['9'],5,95,[-0.10400766],100,47,medium,plus,dotcolour,beta,,,50,19,M,R,
370,118,34,8,2,53,27,802,['c'],1,left,['9'],5,60,[0.07538011],100,53,easy,plus,dotcolour,beta,,,50,19,M,R,
371,119,35,8,2,47,33,867,['c'],1,left,['9'],5,129,[0.03195],99,47,medium,plus,dotcolour,beta,,,50,19,M,R,
372,120,36,8,2,33,47,666,['n'],1,right,['8'],4,210,[-0.15387123],100,47,medium,plus,dotcolour,beta,,,50,19,M,R,
373,121,37,8,2,44,36,1302,['n'],0,left,['3'],3,191,[-0.08476657],100,44,hard,plus,dotcolour,beta,,,50,19,M,R,
374,122,38,8,2,47,33,1600,['c'],1,left,['9'],5,95,[0.12434505],100,47,medium,plus,dotcolour,beta,,,50,19,M,R,
375,123,39,8,2,27,53,733,['n'],1,right,['9'],5,72,[-0.0624305],100,53,easy,plus,dotcolour,beta,,,50,19,M,R,
376,124,40,8,2,36,44,833,['n'],1,right,['9'],5,117,[-0.0696895],100,44,hard,plus,dotcolour,beta,,,50,19,M,R,
377,125,41,8,2,53,27,801,['n'],0,left,['0'],6,266,[0.01864984],78,53,easy,plus,dotcolour,beta,,,50,19,M,R,
378,0,0,9,3,53,27,850,['c'],1,left,['9'],5,138,[0.09873768],89,53,easy,minus,dotcolour,beta,,,50,19,M,R,
379,1,1,9,3,36,44,517,['n'],1,right,['9'],5,81,[-0.06854035],69,44,hard,minus,dotcolour,beta,,,50,19,M,R,
380,2,2,9,3,27,53,635,['n'],1,right,['9'],5,86,[-0.05379951],47,53,easy,minus,dotcolour,beta,,,50,19,M,R,
381,3,3,9,3,44,36,850,['n'],0,left,['0'],6,170,[-0.05834018],53,44,hard,minus,dotcolour,beta,,,50,19,M,R,
382,4,4,9,3,33,47,549,['n'],1,right,['9'],5,143,[-0.04118889],34,47,medium,minus,dotcolour,beta,,,50,19,M,R,
383,5,5,9,3,53,27,467,['n'],0,left,['9'],5,176,[0.05011235],1,53,easy,minus,dotcolour,beta,,,50,19,M,R,
384,6,6,9,3,53,27,850,['c'],1,left,['9'],5,144,[0.07451971],71,53,easy,minus,dotcolour,beta,,,50,19,M,R,
385,7,7,9,3,47,33,600,['c'],1,left,['0'],6,195,[0.15656337],98,47,medium,minus,dotcolour,beta,,,50,19,M,R,
386,8,8,9,3,53,27,718,['c'],1,left,['0'],6,127,[0.11486595],95,53,easy,minus,dotcolour,beta,,,50,19,M,R,
387,9,9,9,3,33,47,833,['c'],0,right,['0'],6,154,[0.05531098],50,47,medium,minus,dotcolour,beta,,,50,19,M,R,
388,10,10,9,3,53,27,651,['c'],1,left,['9'],5,227,[0.05471062],49,53,easy,minus,dotcolour,beta,,,50,19,M,R,
389,11,11,9,3,33,47,633,['c'],0,right,['1'],1,1498,[-0.41527764],0,47,medium,minus,dotcolour,beta,,,50,19,M,R,
390,12,12,9,3,33,47,800,['n'],1,right,['9'],5,167,[-0.07331605],69,47,medium,minus,dotcolour,beta,,,50,19,M,R,
391,13,13,9,3,27,53,1350,['c'],0,right,['9'],5,884,[-0.04769759],12,53,easy,minus,dotcolour,beta,,,50,19,M,R,
392,14,14,9,3,47,33,1083,['c'],1,left,['0'],6,191,[0.05805651],53,47,medium,minus,dotcolour,beta,,,50,19,M,R,
393,15,15,9,3,47,33,1001,['c'],1,left,['9'],5,271,[0.09913495],82,47,medium,minus,dotcolour,beta,,,50,19,M,R,
394,16,16,9,3,36,44,717,['n'],1,right,['9'],5,169,[-0.12283349],95,44,hard,minus,dotcolour,beta,,,50,19,M,R,
395,17,17,9,3,27,53,683,['n'],1,right,['9'],5,112,[-0.11243409],96,53,easy,minus,dotcolour,beta,,,50,19,M,R,
396,18,18,9,3,44,36,784,['c'],1,left,['9'],5,149,[0.06855898],65,44,hard,minus,dotcolour,beta,,,50,19,M,R,
397,19,19,9,3,27,53,701,['n'],1,right,['9'],5,213,[-0.13924258],96,53,easy,minus,dotcolour,beta,,,50,19,M,R,
398,20,20,9,3,36,44,666,['n'],1,right,['9'],5,139,[-0.04908048],42,44,hard,minus,dotcolour,beta,,,50,19,M,R,
399,21,21,9,3,47,33,766,['c'],1,left,['9'],5,128,[0.11473092],95,47,medium,minus,dotcolour,beta,,,50,19,M,R,
400,22,22,9,3,44,36,733,['c'],1,left,['9'],5,135,[0.04312486],35,44,hard,minus,dotcolour,beta,,,50,19,M,R,
401,23,23,9,3,36,44,484,['n'],1,right,['9'],5,208,[-0.10206806],86,44,hard,minus,dotcolour,beta,,,50,19,M,R,
402,24,24,9,3,44,36,450,['n'],0,left,['9'],5,110,[-0.02614737],17,44,hard,minus,dotcolour,beta,,,50,19,M,R,
403,25,25,9,3,53,27,1034,['c'],1,left,['9'],5,106,[0.03579294],25,53,easy,minus,dotcolour,beta,,,50,19,M,R,
404,26,26,9,3,53,27,900,['c'],1,left,['9'],5,139,[0.06785721],64,53,easy,minus,dotcolour,beta,,,50,19,M,R,
405,27,27,9,3,27,53,2933,['c'],0,right,['3'],3,730,[-0.23159253],0,53,easy,minus,dotcolour,beta,,,50,19,M,R,
406,28,28,9,3,47,33,783,['c'],1,left,['9'],5,167,[0.12726585],96,47,medium,minus,dotcolour,beta,,,50,19,M,R,
407,29,29,9,3,44,36,933,['c'],1,left,['9'],5,132,[0.01266414],11,44,hard,minus,dotcolour,beta,,,50,19,M,R,
408,30,30,9,3,36,44,800,['n'],1,right,['9'],5,232,[-0.11514124],90,44,hard,minus,dotcolour,beta,,,50,19,M,R,
409,31,31,9,3,36,44,733,['c'],0,right,['9'],5,259,[0.0362394],34,44,hard,minus,dotcolour,beta,,,50,19,M,R,
410,32,32,9,3,44,36,783,['c'],1,left,['8'],4,130,[0.07439897],72,44,hard,minus,dotcolour,beta,,,50,19,M,R,
411,33,33,9,3,47,33,850,['c'],1,left,['8'],4,116,[0.10176073],92,47,medium,minus,dotcolour,beta,,,50,19,M,R,
412,34,34,9,3,33,47,818,['n'],1,right,['9'],5,137,[-0.05297656],47,47,medium,minus,dotcolour,beta,,,50,19,M,R,
413,35,35,9,3,33,47,700,['n'],1,right,['9'],5,176,[-0.03817191],32,47,medium,minus,dotcolour,beta,,,50,19,M,R,
414,36,36,9,3,47,33,634,['c'],1,left,['9'],5,169,[0.13507071],97,47,medium,minus,dotcolour,beta,,,50,19,M,R,
415,37,37,9,3,33,47,701,['n'],1,right,['9'],5,183,[-0.09604746],85,47,medium,minus,dotcolour,beta,,,50,19,M,R,
416,38,38,9,3,27,53,667,['n'],1,right,['9'],5,159,[-0.04158929],35,53,easy,minus,dotcolour,beta,,,50,19,M,R,
417,39,39,9,3,44,36,1417,['n'],0,left,['9'],5,153,[-0.07629179],72,44,hard,minus,dotcolour,beta,,,50,19,M,R,
418,40,40,9,3,27,53,600,['n'],1,right,['9'],5,140,[-0.08786961],83,53,easy,minus,dotcolour,beta,,,50,19,M,R,
419,41,41,9,3,36,44,667,['n'],1,right,['9'],5,173,[-0.16289277],99,44,hard,minus,dotcolour,beta,,,50,19,M,R,
420,42,0,10,3,53,27,783,['c'],1,left,['9'],5,134,[0.05700139],52,53,easy,minus,dotcolour,beta,,,50,19,M,R,
421,43,1,10,3,53,27,734,['c'],1,left,['9'],5,141,[0.05189784],46,53,easy,minus,dotcolour,beta,,,50,19,M,R,
422,44,2,10,3,44,36,1051,['c'],1,left,['9'],5,118,[0.0835494],81,44,hard,minus,dotcolour,beta,,,50,19,M,R,
423,45,3,10,3,53,27,717,['c'],1,left,['9'],5,143,[0.09627258],87,53,easy,minus,dotcolour,beta,,,50,19,M,R,
424,46,4,10,3,44,36,683,['c'],1,left,['9'],5,118,[0.07361041],72,44,hard,minus,dotcolour,beta,,,50,19,M,R,
425,47,5,10,3,36,44,583,['n'],1,right,['0'],6,164,[-0.06096762],56,44,hard,minus,dotcolour,beta,,,50,19,M,R,
426,48,6,10,3,36,44,683,['n'],1,right,['9'],5,115,[-0.07144209],70,44,hard,minus,dotcolour,beta,,,50,19,M,R,
427,49,7,10,3,44,36,567,['n'],0,left,['9'],5,161,[-0.02056434],17,44,hard,minus,dotcolour,beta,,,50,19,M,R,
428,50,8,10,3,53,27,534,['c'],1,left,['9'],5,151,[0.06887654],65,53,easy,minus,dotcolour,beta,,,50,19,M,R,
429,51,9,10,3,27,53,550,['n'],1,right,['9'],5,68,[-0.06625812],68,53,easy,minus,dotcolour,beta,,,50,19,M,R,
430,52,10,10,3,47,33,750,['n'],0,left,['9'],5,85,[-0.07107252],72,47,medium,minus,dotcolour,beta,,,50,19,M,R,
431,53,11,10,3,47,33,1349,['c'],1,left,['9'],5,141,[0.15722344],99,47,medium,minus,dotcolour,beta,,,50,19,M,R,
432,54,12,10,3,33,47,600,['n'],1,right,['9'],5,128,[-0.04747344],40,47,medium,minus,dotcolour,beta,,,50,19,M,R,
433,55,13,10,3,53,27,1150,['c'],1,left,['0'],6,230,[0.06255239],57,53,easy,minus,dotcolour,beta,,,50,19,M,R,
434,56,14,10,3,27,53,683,['n'],1,right,['0'],6,147,[-0.07006848],66,53,easy,minus,dotcolour,beta,,,50,19,M,R,
435,57,15,10,3,33,47,1034,['n'],1,right,['9'],5,133,[-0.14069405],99,47,medium,minus,dotcolour,beta,,,50,19,M,R,
436,58,16,10,3,53,27,617,['c'],1,left,['9'],5,160,[0.10399709],90,53,easy,minus,dotcolour,beta,,,50,19,M,R,
437,59,17,10,3,27,53,634,['n'],1,right,['9'],5,122,[-0.10630497],93,53,easy,minus,dotcolour,beta,,,50,19,M,R,
438,60,18,10,3,33,47,816,['n'],1,right,['9'],5,62,[-0.08748725],91,47,medium,minus,dotcolour,beta,,,50,19,M,R,
439,61,19,10,3,44,36,1251,['c'],1,left,['9'],5,107,[0.08524714],84,44,hard,minus,dotcolour,beta,,,50,19,M,R,
440,62,20,10,3,47,33,883,['c'],1,left,['9'],5,132,[0.10130924],91,47,medium,minus,dotcolour,beta,,,50,19,M,R,
441,63,21,10,3,33,47,767,['n'],1,right,['9'],5,81,[-0.07173064],74,47,medium,minus,dotcolour,beta,,,50,19,M,R,
442,64,22,10,3,36,44,850,['n'],1,right,['9'],5,109,[-0.09142705],88,44,hard,minus,dotcolour,beta,,,50,19,M,R,
443,65,23,10,3,44,36,934,['c'],1,left,['9'],5,164,[0.06367228],59,44,hard,minus,dotcolour,beta,,,50,19,M,R,
444,66,24,10,3,33,47,550,['n'],1,right,['9'],5,97,[-0.04924752],41,47,medium,minus,dotcolour,beta,,,50,19,M,R,
445,67,25,10,3,44,36,1318,['n'],0,left,['9'],5,98,[-0.06372824],62,44,hard,minus,dotcolour,beta,,,50,19,M,R,
446,68,26,10,3,27,53,700,['n'],1,right,['9'],5,91,[-0.091052],89,53,easy,minus,dotcolour,beta,,,50,19,M,R,
447,69,27,10,3,36,44,683,['n'],1,right,['9'],5,110,[-0.07505362],74,44,hard,minus,dotcolour,beta,,,50,19,M,R,
448,70,28,10,3,36,44,1084,['n'],1,right,['9'],5,70,[-0.09464265],93,44,hard,minus,dotcolour,beta,,,50,19,M,R,
449,71,29,10,3,47,33,1101,['n'],0,left,['9'],5,97,[-0.02912088],18,47,medium,minus,dotcolour,beta,,,50,19,M,R,
450,72,30,10,3,36,44,700,['n'],1,right,['9'],5,155,[-0.06907262],65,44,hard,minus,dotcolour,beta,,,50,19,M,R,
451,73,31,10,3,47,33,800,['c'],1,left,['9'],5,126,[0.13631793],98,47,medium,minus,dotcolour,beta,,,50,19,M,R,
452,74,32,10,3,44,36,600,['n'],0,left,['9'],5,82,[-0.06404968],63,44,hard,minus,dotcolour,beta,,,50,19,M,R,
453,75,33,10,3,47,33,1049,['c'],1,left,['9'],5,198,[0.11010057],90,47,medium,minus,dotcolour,beta,,,50,19,M,R,
454,76,34,10,3,53,27,883,['c'],1,left,['0'],6,268,[0.12642928],92,53,easy,minus,dotcolour,beta,,,50,19,M,R,
455,77,35,10,3,36,44,783,['n'],1,right,['9'],5,187,[-0.08337977],76,44,hard,minus,dotcolour,beta,,,50,19,M,R,
456,78,36,10,3,27,53,617,['n'],1,right,['9'],5,141,[-0.13012366],97,53,easy,minus,dotcolour,beta,,,50,19,M,R,
457,79,37,10,3,27,53,750,['n'],1,right,['9'],5,114,[-0.07012287],68,53,easy,minus,dotcolour,beta,,,50,19,M,R,
458,80,38,10,3,27,53,700,['n'],1,right,['9'],5,123,[-0.07869451],77,53,easy,minus,dotcolour,beta,,,50,19,M,R,
459,81,39,10,3,33,47,1500,['n'],1,right,['9'],5,411,[-0.09010287],73,47,medium,minus,dotcolour,beta,,,50,19,M,R,
460,82,40,10,3,33,47,1000,['n'],1,right,['9'],5,116,[-0.04943633],42,47,medium,minus,dotcolour,beta,,,50,19,M,R,
461,83,41,10,3,47,33,1567,['c'],1,left,['9'],5,650,[-0.15623807],1,47,medium,minus,dotcolour,beta,,,50,19,M,R,
462,84,0,11,3,33,47,734,['n'],1,right,['9'],5,233,[-0.14651866],97,47,medium,minus,dotcolour,beta,,,50,19,M,R,
463,85,1,11,3,36,44,666,['n'],1,right,['9'],5,117,[-0.03477803],25,44,hard,minus,dotcolour,beta,,,50,19,M,R,
464,86,2,11,3,53,27,750,['c'],1,left,['9'],5,140,[0.1098647],93,53,easy,minus,dotcolour,beta,,,50,19,M,R,
465,87,3,11,3,36,44,733,['n'],1,right,['9'],5,146,[-0.16511802],99,44,hard,minus,dotcolour,beta,,,50,19,M,R,
466,88,4,11,3,53,27,817,['c'],1,left,['9'],5,141,[0.11735429],95,53,easy,minus,dotcolour,beta,,,50,19,M,R,
467,89,5,11,3,33,47,551,['n'],1,right,['9'],5,106,[-0.09924061],92,47,medium,minus,dotcolour,beta,,,50,19,M,R,
468,90,6,11,3,44,36,1000,['c'],1,left,['9'],5,103,[0.11932497],97,44,hard,minus,dotcolour,beta,,,50,19,M,R,
469,91,7,11,3,33,47,984,['n'],1,right,['9'],5,125,[-0.11783201],96,47,medium,minus,dotcolour,beta,,,50,19,M,R,
470,92,8,11,3,36,44,783,['n'],1,right,['8'],4,1322,[-0.36671567],99,44,hard,minus,dotcolour,beta,,,50,19,M,R,
471,93,9,11,3,33,47,749,['n'],1,right,['9'],5,31,[-0.06146039],65,47,medium,minus,dotcolour,beta,,,50,19,M,R,
472,94,10,11,3,27,53,1267,['n'],1,right,['9'],5,117,[-0.0755709],74,53,easy,minus,dotcolour,beta,,,50,19,M,R,
473,95,11,11,3,44,36,1016,['c'],1,left,['0'],6,105,[0.05924508],55,44,hard,minus,dotcolour,beta,,,50,19,M,R,
474,96,12,11,3,27,53,700,['n'],1,right,['9'],5,130,[-0.12865484],97,53,easy,minus,dotcolour,beta,,,50,19,M,R,
475,97,13,11,3,47,33,1200,['n'],0,left,['8'],4,278,[0.00385057],12,47,medium,minus,dotcolour,beta,,,50,19,M,R,
476,98,14,11,3,44,36,1050,['c'],1,left,['9'],5,154,[0.03191755],25,44,hard,minus,dotcolour,beta,,,50,19,M,R,
477,99,15,11,3,33,47,801,['n'],1,right,['9'],5,349,[-0.12307856],89,47,medium,minus,dotcolour,beta,,,50,19,M,R,
478,100,16,11,3,44,36,1933,['c'],1,left,['9'],5,163,[0.11646584],94,44,hard,minus,dotcolour,beta,,,50,19,M,R,
479,101,17,11,3,27,53,700,['n'],1,right,['9'],5,147,[-0.13025719],97,53,easy,minus,dotcolour,beta,,,50,19,M,R,
480,102,18,11,3,47,33,1000,['c'],1,left,['9'],5,150,[0.06813911],64,47,medium,minus,dotcolour,beta,,,50,19,M,R,
481,103,19,11,3,53,27,733,['c'],1,left,['9'],5,172,[0.08416123],78,53,easy,minus,dotcolour,beta,,,50,19,M,R,
482,104,20,11,3,36,44,717,['n'],1,right,['9'],5,145,[-0.02848793],22,44,hard,minus,dotcolour,beta,,,50,19,M,R,
483,105,21,11,3,44,36,700,['n'],0,left,['9'],5,177,[-0.09558594],85,44,hard,minus,dotcolour,beta,,,50,19,M,R,
484,106,22,11,3,36,44,884,['c'],0,right,['9'],5,120,[0.09200175],87,44,hard,minus,dotcolour,beta,,,50,19,M,R,
485,107,23,11,3,27,53,716,['n'],1,right,['9'],5,168,[-0.13459065],97,53,easy,minus,dotcolour,beta,,,50,19,M,R,
486,108,24,11,3,44,36,3117,['n'],0,left,['9'],5,142,[-0.03319646],26,44,hard,minus,dotcolour,beta,,,50,19,M,R,
487,109,25,11,3,47,33,1517,['c'],1,left,['9'],5,140,[0.09019344],84,47,medium,minus,dotcolour,beta,,,50,19,M,R,
488,110,26,11,3,36,44,1100,['n'],1,right,['9'],5,236,[-0.14631125],97,44,hard,minus,dotcolour,beta,,,50,19,M,R,
489,111,27,11,3,47,33,1116,['n'],0,left,['8'],4,607,[-0.08537998],67,47,medium,minus,dotcolour,beta,,,50,19,M,R,
490,112,28,11,3,33,47,800,['n'],1,right,['8'],4,464,[-0.10648633],79,47,medium,minus,dotcolour,beta,,,50,19,M,R,
491,113,29,11,3,33,47,1084,['n'],1,right,['8'],4,203,[-0.10143904],86,47,medium,minus,dotcolour,beta,,,50,19,M,R,
492,114,30,11,3,47,33,800,['n'],0,left,['9'],5,221,[-0.09600923],82,47,medium,minus,dotcolour,beta,,,50,19,M,R,
493,115,31,11,3,53,27,1566,['c'],1,left,['8'],4,543,[0.0799714],64,53,easy,minus,dotcolour,beta,,,50,19,M,R,
494,116,32,11,3,27,53,1266,['n'],1,right,['8'],4,240,[-0.10919526],88,53,easy,minus,dotcolour,beta,,,50,19,M,R,
495,117,33,11,3,27,53,650,['n'],1,right,['9'],5,149,[-0.12172795],96,53,easy,minus,dotcolour,beta,,,50,19,M,R,
496,118,34,11,3,47,33,2867,['n'],0,left,['0'],6,197,[-0.01166511],14,47,medium,minus,dotcolour,beta,,,50,19,M,R,
497,119,35,11,3,44,36,933,['n'],0,left,['9'],5,122,[-0.10291082],92,44,hard,minus,dotcolour,beta,,,50,19,M,R,
498,120,36,11,3,53,27,766,['c'],1,left,['9'],5,119,[0.08723403],84,53,easy,minus,dotcolour,beta,,,50,19,M,R,
499,121,37,11,3,36,44,717,['n'],1,right,['9'],5,159,[-0.00198947],8,44,hard,minus,dotcolour,beta,,,50,19,M,R,
500,122,38,11,3,53,27,685,['c'],1,left,['9'],5,159,[0.12336936],96,53,easy,minus,dotcolour,beta,,,50,19,M,R,
501,123,39,11,3,47,33,783,['n'],0,left,['9'],5,298,[0.08307461],1,47,medium,minus,dotcolour,beta,,,50,19,M,R,
502,124,40,11,3,53,27,934,['c'],1,left,['9'],5,162,[0.12235613],95,53,easy,minus,dotcolour,beta,,,50,19,M,R,
503,125,41,11,3,27,53,1033,['n'],1,right,['9'],5,196,[-0.05729534],52,53,easy,minus,dotcolour,beta,,,50,19,M,R,
504,0,0,12,4,27,53,699,['n'],1,right,['9'],5,146,[-0.08552488],100,53,easy,plus,dotcolour,beta,,,50,19,M,R,
505,1,1,12,4,33,47,750,['n'],1,right,['9'],5,143,[-0.0915086],100,47,medium,plus,dotcolour,beta,,,50,19,M,R,
506,2,2,12,4,47,33,733,['c'],1,left,['9'],5,149,[0.08011204],100,47,medium,plus,dotcolour,beta,,,50,19,M,R,
507,3,3,12,4,33,47,733,['n'],1,right,['9'],5,170,[-0.09196131],100,47,medium,plus,dotcolour,beta,,,50,19,M,R,
508,4,4,12,4,36,44,584,['n'],1,right,['9'],5,150,[-0.11912456],100,44,hard,plus,dotcolour,beta,,,50,19,M,R,
509,5,5,12,4,47,33,649,['n'],0,left,['9'],5,127,[-0.07335736],100,47,medium,plus,dotcolour,beta,,,50,19,M,R,
510,6,6,12,4,47,33,817,['n'],0,left,['9'],5,146,[-0.0273863],98,47,medium,plus,dotcolour,beta,,,50,19,M,R,
511,7,7,12,4,44,36,1850,['c'],1,left,['9'],5,148,[0.10755785],100,44,hard,plus,dotcolour,beta,,,50,19,M,R,
512,8,8,12,4,36,44,567,['n'],1,right,['9'],5,153,[-0.09100953],100,44,hard,plus,dotcolour,beta,,,50,19,M,R,
513,9,9,12,4,33,47,733,['n'],1,right,['9'],5,151,[-0.11315311],100,47,medium,plus,dotcolour,beta,,,50,19,M,R,
514,10,10,12,4,47,33,650,['n'],0,left,['9'],5,152,[-0.03222903],98,47,medium,plus,dotcolour,beta,,,50,19,M,R,
515,11,11,12,4,44,36,700,['n'],0,left,['9'],5,143,[-0.01894294],97,44,hard,plus,dotcolour,beta,,,50,19,M,R,
516,12,12,12,4,53,27,951,['c'],1,left,['9'],5,181,[-0.00664605],89,53,easy,plus,dotcolour,beta,,,50,19,M,R,
517,13,13,12,4,33,47,516,['n'],1,right,['9'],5,170,[-0.09585824],100,47,medium,plus,dotcolour,beta,,,50,19,M,R,
518,14,14,12,4,53,27,667,['c'],1,left,['9'],5,154,[0.10097902],100,53,easy,plus,dotcolour,beta,,,50,19,M,R,
519,15,15,12,4,33,47,767,['n'],1,right,['9'],5,255,[-0.06885513],99,47,medium,plus,dotcolour,beta,,,50,19,M,R,
520,16,16,12,4,27,53,616,['n'],1,right,['9'],5,149,[-0.08664879],100,53,easy,plus,dotcolour,beta,,,50,19,M,R,
521,17,17,12,4,44,36,1100,['c'],1,left,['9'],5,149,[0.08719375],100,44,hard,plus,dotcolour,beta,,,50,19,M,R,
522,18,18,12,4,44,36,2200,['n'],0,left,['9'],5,159,[-0.1073681],100,44,hard,plus,dotcolour,beta,,,50,19,M,R,
523,19,19,12,4,53,27,1733,['c'],1,left,['9'],5,126,[0.08265105],100,53,easy,plus,dotcolour,beta,,,50,19,M,R,
524,20,20,12,4,33,47,1549,['n'],1,right,['9'],5,163,[-0.12594708],100,47,medium,plus,dotcolour,beta,,,50,19,M,R,
525,21,21,12,4,47,33,1650,['c'],1,left,['9'],5,164,[0.12756252],100,47,medium,plus,dotcolour,beta,,,50,19,M,R,
526,22,22,12,4,27,53,1317,['n'],1,right,['9'],5,162,[-0.07067981],100,53,easy,plus,dotcolour,beta,,,50,19,M,R,
527,23,23,12,4,44,36,2166,['c'],1,left,['9'],5,111,[0.09337276],100,44,hard,plus,dotcolour,beta,,,50,19,M,R,
528,24,24,12,4,36,44,983,['n'],1,right,['9'],5,187,[-0.12377446],100,44,hard,plus,dotcolour,beta,,,50,19,M,R,
529,25,25,12,4,27,53,851,['n'],1,right,['9'],5,155,[-0.07355098],100,53,easy,plus,dotcolour,beta,,,50,19,M,R,
530,26,26,12,4,27,53,1117,['n'],1,right,['9'],5,130,[-0.02918513],99,53,easy,plus,dotcolour,beta,,,50,19,M,R,
531,27,27,12,4,44,36,1116,['n'],0,left,['9'],5,153,[-0.11827009],100,44,hard,plus,dotcolour,beta,,,50,19,M,R,
532,28,28,12,4,36,44,1567,['n'],1,right,['9'],5,199,[-0.07938187],100,44,hard,plus,dotcolour,beta,,,50,19,M,R,
533,29,29,12,4,47,33,1083,['c'],1,left,['8'],4,204,[0.14324602],100,47,medium,plus,dotcolour,beta,,,50,19,M,R,
534,30,30,12,4,36,44,717,['n'],1,right,['9'],5,160,[-0.08481622],100,44,hard,plus,dotcolour,beta,,,50,19,M,R,
535,31,31,12,4,53,27,734,['c'],1,left,['9'],5,174,[0.0660538],99,53,easy,plus,dotcolour,beta,,,50,19,M,R,
536,32,32,12,4,44,36,1067,['n'],0,left,['9'],5,182,[-0.12156114],100,44,hard,plus,dotcolour,beta,,,50,19,M,R,
537,33,33,12,4,27,53,834,['n'],1,right,['9'],5,166,[-0.13120214],100,53,easy,plus,dotcolour,beta,,,50,19,M,R,
538,34,34,12,4,47,33,1150,['n'],0,left,['9'],5,243,[-0.05659225],98,47,medium,plus,dotcolour,beta,,,50,19,M,R,
539,35,35,12,4,36,44,1267,['c'],0,right,['9'],5,176,[0.01899029],96,44,hard,plus,dotcolour,beta,,,50,19,M,R,
540,36,36,12,4,33,47,1733,['n'],1,right,['9'],5,204,[-0.13339711],100,47,medium,plus,dotcolour,beta,,,50,19,M,R,
541,37,37,12,4,53,27,1266,['c'],1,left,['9'],5,171,[0.06976218],100,53,easy,plus,dotcolour,beta,,,50,19,M,R,
542,38,38,12,4,27,53,883,['n'],1,right,['9'],5,195,[-0.07243822],99,53,easy,plus,dotcolour,beta,,,50,19,M,R,
543,39,39,12,4,53,27,1751,['c'],1,left,['9'],5,182,[0.18254335],100,53,easy,plus,dotcolour,beta,,,50,19,M,R,
544,40,40,12,4,36,44,1483,['n'],1,right,['9'],5,172,[-0.12647948],100,44,hard,plus,dotcolour,beta,,,50,19,M,R,
545,41,41,12,4,53,27,1134,['c'],1,left,['9'],5,170,[0.10238744],100,53,easy,plus,dotcolour,beta,,,50,19,M,R,
546,42,0,13,4,33,47,835,['n'],1,right,['9'],5,125,[-0.04470673],99,47,medium,plus,dotcolour,beta,,,50,19,M,R,
547,43,1,13,4,44,36,1150,['n'],0,left,['9'],5,171,[-0.1103722],100,44,hard,plus,dotcolour,beta,,,50,19,M,R,
548,44,2,13,4,36,44,733,['n'],1,right,['9'],5,152,[-0.07561345],100,44,hard,plus,dotcolour,beta,,,50,19,M,R,
549,45,3,13,4,33,47,717,['n'],1,right,['9'],5,127,[-0.10091846],100,47,medium,plus,dotcolour,beta,,,50,19,M,R,
550,46,4,13,4,53,27,583,['c'],1,left,['9'],5,188,[0.10557137],100,53,easy,plus,dotcolour,beta,,,50,19,M,R,
551,47,5,13,4,36,44,600,['n'],1,right,['9'],5,133,[-0.06360759],100,44,hard,plus,dotcolour,beta,,,50,19,M,R,
552,48,6,13,4,47,33,834,['c'],1,left,['9'],5,144,[0.08694691],100,47,medium,plus,dotcolour,beta,,,50,19,M,R,
553,49,7,13,4,53,27,667,['c'],1,left,['9'],5,137,[0.09018585],100,53,easy,plus,dotcolour,beta,,,50,19,M,R,
554,50,8,13,4,33,47,1083,['n'],1,right,['9'],5,153,[-0.0724669],100,47,medium,plus,dotcolour,beta,,,50,19,M,R,
555,51,9,13,4,53,27,700,['c'],1,left,['9'],5,153,[0.0813603],100,53,easy,plus,dotcolour,beta,,,50,19,M,R,
556,52,10,13,4,33,47,934,['n'],1,right,['9'],5,183,[-0.0964181],100,47,medium,plus,dotcolour,beta,,,50,19,M,R,
557,53,11,13,4,44,36,850,['c'],1,left,['9'],5,215,[0.03631384],97,44,hard,plus,dotcolour,beta,,,50,19,M,R,
558,54,12,13,4,47,33,767,['c'],1,left,['9'],5,161,[0.12489068],100,47,medium,plus,dotcolour,beta,,,50,19,M,R,
559,55,13,13,4,44,36,584,['n'],0,left,['9'],5,197,[-0.03595974],98,44,hard,plus,dotcolour,beta,,,50,19,M,R,
560,56,14,13,4,47,33,849,['c'],1,left,['9'],5,196,[0.16046323],100,47,medium,plus,dotcolour,beta,,,50,19,M,R,
561,57,15,13,4,36,44,717,['c'],0,right,['2'],2,1376,[0.12918804],94,44,hard,plus,dotcolour,beta,,,50,19,M,R,
562,58,16,13,4,33,47,683,['n'],1,right,['9'],5,215,[-0.13486812],100,47,medium,plus,dotcolour,beta,,,50,19,M,R,
563,59,17,13,4,47,33,749,['n'],0,left,['8'],4,874,[-0.05751395],90,47,medium,plus,dotcolour,beta,,,50,19,M,R,
564,60,18,13,4,44,36,1217,['n'],0,left,['8'],4,191,[-0.07324419],100,44,hard,plus,dotcolour,beta,,,50,19,M,R,
565,61,19,13,4,33,47,734,['n'],1,right,['8'],4,563,[-0.32059766],100,47,medium,plus,dotcolour,beta,,,50,19,M,R,
566,62,20,13,4,47,33,833,['c'],1,left,['9'],5,164,[0.06261815],99,47,medium,plus,dotcolour,beta,,,50,19,M,R,
567,63,21,13,4,27,53,634,['n'],1,right,['9'],5,158,[-0.05796905],99,53,easy,plus,dotcolour,beta,,,50,19,M,R,
568,64,22,13,4,27,53,652,['n'],1,right,['9'],5,199,[-0.11132464],100,53,easy,plus,dotcolour,beta,,,50,19,M,R,
569,65,23,13,4,33,47,734,['n'],1,right,['9'],5,163,[-0.08590551],100,47,medium,plus,dotcolour,beta,,,50,19,M,R,
570,66,24,13,4,53,27,467,['n'],0,left,['1'],1,1075,[-0.29704345],100,53,easy,plus,dotcolour,beta,,,50,19,M,R,
571,67,25,13,4,53,27,883,['c'],1,left,['9'],5,229,[0.07268231],99,53,easy,plus,dotcolour,beta,,,50,19,M,R,
572,68,26,13,4,53,27,1300,['c'],1,left,['9'],5,154,[0.07052936],100,53,easy,plus,dotcolour,beta,,,50,19,M,R,
573,69,27,13,4,36,44,484,['n'],1,right,['9'],5,178,[-0.09662498],100,44,hard,plus,dotcolour,beta,,,50,19,M,R,
574,70,28,13,4,47,33,999,['c'],1,left,['9'],5,179,[0.133069],100,47,medium,plus,dotcolour,beta,,,50,19,M,R,
575,71,29,13,4,47,33,1100,['c'],1,left,['9'],5,362,[0.06309235],97,47,medium,plus,dotcolour,beta,,,50,19,M,R,
576,72,30,13,4,44,36,1233,['n'],0,left,['8'],4,403,[-0.14955984],100,44,hard,plus,dotcolour,beta,,,50,19,M,R,
577,73,31,13,4,44,36,667,['n'],0,left,['9'],5,202,[-0.1337036],100,44,hard,plus,dotcolour,beta,,,50,19,M,R,
578,74,32,13,4,27,53,684,['n'],1,right,['9'],5,184,[-0.06298524],99,53,easy,plus,dotcolour,beta,,,50,19,M,R,
579,75,33,13,4,27,53,734,['n'],1,right,['9'],5,332,[-0.11818364],100,53,easy,plus,dotcolour,beta,,,50,19,M,R,
580,76,34,13,4,53,27,667,['c'],1,left,['9'],5,125,[0.14943515],100,53,easy,plus,dotcolour,beta,,,50,19,M,R,
581,77,35,13,4,27,53,668,['n'],1,right,['9'],5,136,[-0.06709327],100,53,easy,plus,dotcolour,beta,,,50,19,M,R,
582,78,36,13,4,36,44,600,['n'],1,right,['9'],5,155,[-0.1025228],100,44,hard,plus,dotcolour,beta,,,50,19,M,R,
583,79,37,13,4,27,53,534,['n'],1,right,['9'],5,161,[-0.06280671],100,53,easy,plus,dotcolour,beta,,,50,19,M,R,
584,80,38,13,4,36,44,583,['n'],1,right,['9'],5,148,[-0.07652157],100,44,hard,plus,dotcolour,beta,,,50,19,M,R,
585,81,39,13,4,44,36,983,['n'],0,left,['9'],5,193,[-0.07574244],100,44,hard,plus,dotcolour,beta,,,50,19,M,R,
586,82,40,13,4,36,44,884,['n'],1,right,['9'],5,198,[-0.11167333],100,44,hard,plus,dotcolour,beta,,,50,19,M,R,
587,83,41,13,4,27,53,733,['n'],1,right,['9'],5,154,[-0.14651953],100,53,easy,plus,dotcolour,beta,,,50,19,M,R,
588,84,0,14,4,53,27,700,['c'],1,left,['9'],5,225,[0.07744022],99,53,easy,plus,dotcolour,beta,,,50,19,M,R,
589,85,1,14,4,44,36,867,['c'],1,left,['9'],5,102,[0.14535689],100,44,hard,plus,dotcolour,beta,,,50,19,M,R,
590,86,2,14,4,53,27,749,['c'],1,left,['9'],5,149,[0.11104114],100,53,easy,plus,dotcolour,beta,,,50,19,M,R,
591,87,3,14,4,36,44,600,['n'],1,right,['9'],5,169,[-0.03428472],98,44,hard,plus,dotcolour,beta,,,50,19,M,R,
592,88,4,14,4,27,53,651,['n'],1,right,['9'],5,137,[-0.05273093],99,53,easy,plus,dotcolour,beta,,,50,19,M,R,
593,89,5,14,4,27,53,600,['n'],1,right,['9'],5,189,[-0.1081192],100,53,easy,plus,dotcolour,beta,,,50,19,M,R,
594,90,6,14,4,33,47,650,['n'],1,right,['9'],5,181,[-0.07344052],100,47,medium,plus,dotcolour,beta,,,50,19,M,R,
595,91,7,14,4,44,36,883,['c'],1,left,['9'],5,148,[0.05139491],99,44,hard,plus,dotcolour,beta,,,50,19,M,R,
596,92,8,14,4,53,27,734,['c'],1,left,['9'],5,169,[0.08103065],100,53,easy,plus,dotcolour,beta,,,50,19,M,R,
597,93,9,14,4,27,53,667,['n'],1,right,['9'],5,154,[-0.09279922],100,53,easy,plus,dotcolour,beta,,,50,19,M,R,
598,94,10,14,4,27,53,667,['n'],1,right,['9'],5,202,[-0.08126232],100,53,easy,plus,dotcolour,beta,,,50,19,M,R,
599,95,11,14,4,47,33,900,['c'],1,left,['9'],5,152,[0.06206602],100,47,medium,plus,dotcolour,beta,,,50,19,M,R,
600,96,12,14,4,33,47,617,['n'],1,right,['9'],5,146,[-0.05000515],99,47,medium,plus,dotcolour,beta,,,50,19,M,R,
601,97,13,14,4,44,36,833,['c'],1,left,['9'],5,140,[0.06522724],100,44,hard,plus,dotcolour,beta,,,50,19,M,R,
602,98,14,14,4,44,36,1033,['n'],0,left,['9'],5,150,[-0.1200407],100,44,hard,plus,dotcolour,beta,,,50,19,M,R,
603,99,15,14,4,47,33,784,['c'],1,left,['9'],5,122,[0.08301555],100,47,medium,plus,dotcolour,beta,,,50,19,M,R,
604,100,16,14,4,53,27,1151,['c'],1,left,['9'],5,161,[0.13438634],100,53,easy,plus,dotcolour,beta,,,50,19,M,R,
605,101,17,14,4,47,33,751,['c'],1,left,['9'],5,142,[0.03612079],99,47,medium,plus,dotcolour,beta,,,50,19,M,R,
606,102,18,14,4,47,33,716,['c'],1,left,['9'],5,157,[0.08720467],100,47,medium,plus,dotcolour,beta,,,50,19,M,R,
607,103,19,14,4,53,27,567,['c'],1,left,['9'],5,144,[0.10663969],100,53,easy,plus,dotcolour,beta,,,50,19,M,R,
608,104,20,14,4,27,53,584,['n'],1,right,['9'],5,164,[-0.11719666],100,53,easy,plus,dotcolour,beta,,,50,19,M,R,
609,105,21,14,4,33,47,1567,['n'],1,right,['9'],5,161,[-0.07724292],100,47,medium,plus,dotcolour,beta,,,50,19,M,R,
610,106,22,14,4,44,36,1083,['c'],1,left,['9'],5,120,[0.09923173],100,44,hard,plus,dotcolour,beta,,,50,19,M,R,
611,107,23,14,4,33,47,1000,['c'],0,right,['9'],5,108,[0.12018439],100,47,medium,plus,dotcolour,beta,,,50,19,M,R,
612,108,24,14,4,47,33,817,['n'],0,left,['9'],5,129,[-0.02470104],98,47,medium,plus,dotcolour,beta,,,50,19,M,R,
613,109,25,14,4,53,27,1199,['c'],1,left,['9'],5,357,[0.17817867],100,53,easy,plus,dotcolour,beta,,,50,19,M,R,
614,110,26,14,4,36,44,500,['n'],1,right,['9'],5,163,[-0.15812117],100,44,hard,plus,dotcolour,beta,,,50,19,M,R,
615,111,27,14,4,44,36,1066,['c'],1,left,['9'],5,124,[0.09871614],100,44,hard,plus,dotcolour,beta,,,50,19,M,R,
616,112,28,14,4,27,53,583,['n'],1,right,['9'],5,176,[-0.07159798],100,53,easy,plus,dotcolour,beta,,,50,19,M,R,
617,113,29,14,4,36,44,634,['n'],1,right,['9'],5,169,[-0.02864237],98,44,hard,plus,dotcolour,beta,,,50,19,M,R,
618,114,30,14,4,47,33,799,['c'],1,left,['9'],5,147,[0.07727002],100,47,medium,plus,dotcolour,beta,,,50,19,M,R,
619,115,31,14,4,36,44,884,['n'],1,right,['9'],5,163,[-0.07358194],100,44,hard,plus,dotcolour,beta,,,50,19,M,R,
620,116,32,14,4,33,47,666,['n'],1,right,['9'],5,155,[-0.12445888],100,47,medium,plus,dotcolour,beta,,,50,19,M,R,
621,117,33,14,4,33,47,617,['n'],1,right,['9'],5,182,[-0.00328625],92,47,medium,plus,dotcolour,beta,,,50,19,M,R,
622,118,34,14,4,36,44,567,['n'],1,right,['9'],5,153,[-0.10340517],100,44,hard,plus,dotcolour,beta,,,50,19,M,R,
623,119,35,14,4,33,47,651,['n'],1,right,['9'],5,179,[-0.07198354],100,47,medium,plus,dotcolour,beta,,,50,19,M,R,
624,120,36,14,4,36,44,800,['n'],1,right,['0'],6,157,[-0.0454731],99,44,hard,plus,dotcolour,beta,,,50,19,M,R,
625,121,37,14,4,44,36,1017,['c'],1,left,['9'],5,183,[0.09230163],100,44,hard,plus,dotcolour,beta,,,50,19,M,R,
626,122,38,14,4,27,53,566,['n'],1,right,['9'],5,194,[-0.15949816],100,53,easy,plus,dotcolour,beta,,,50,19,M,R,
627,123,39,14,4,36,44,484,['n'],1,right,['0'],6,200,[-0.1357129],100,44,hard,plus,dotcolour,beta,,,50,19,M,R,
628,124,40,14,4,53,27,699,['c'],1,left,['9'],5,173,[0.03565345],98,53,easy,plus,dotcolour,beta,,,50,19,M,R,
629,125,41,14,4,47,33,617,['n'],0,left,['9'],5,215,[-0.09276866],100,47,medium,plus,dotcolour,beta,,,50,19,M,R,
630,0,0,15,5,33,47,651,['n'],1,right,['9'],5,176,[-0.04273807],37,47,medium,minus,dotcolour,beta,,,50,19,M,R,
631,1,1,15,5,53,27,517,['n'],0,left,['9'],5,125,[0.01777913],2,53,easy,minus,dotcolour,beta,,,50,19,M,R,
632,2,2,15,5,47,33,734,['c'],1,left,['9'],5,124,[0.04863066],41,47,medium,minus,dotcolour,beta,,,50,19,M,R,
633,3,3,15,5,44,36,666,['n'],0,left,['9'],5,85,[-0.09190591],90,44,hard,minus,dotcolour,beta,,,50,19,M,R,
634,4,4,15,5,36,44,600,['n'],1,right,['9'],5,147,[-0.00168489],7,44,hard,minus,dotcolour,beta,,,50,19,M,R,
635,5,5,15,5,53,27,683,['c'],1,left,['9'],5,180,[0.04999921],44,53,easy,minus,dotcolour,beta,,,50,19,M,R,
636,6,6,15,5,33,47,967,['n'],1,right,['9'],5,127,[-0.08634094],83,47,medium,minus,dotcolour,beta,,,50,19,M,R,
637,7,7,15,5,44,36,817,['n'],0,left,['9'],5,194,[-0.07159053],66,44,hard,minus,dotcolour,beta,,,50,19,M,R,
638,8,8,15,5,47,33,1433,['c'],1,left,['9'],5,138,[0.11134194],94,47,medium,minus,dotcolour,beta,,,50,19,M,R,
639,9,9,15,5,27,53,917,['n'],1,right,['9'],5,138,[-0.08340848],79,53,easy,minus,dotcolour,beta,,,50,19,M,R,
640,10,10,15,5,27,53,717,['n'],1,right,['9'],5,130,[-0.09275334],86,53,easy,minus,dotcolour,beta,,,50,19,M,R,
641,11,11,15,5,44,36,1118,['n'],0,left,['9'],5,177,[-0.10266557],88,44,hard,minus,dotcolour,beta,,,50,19,M,R,
642,12,12,15,5,33,47,650,['n'],1,right,['9'],5,136,[-0.11464326],95,47,medium,minus,dotcolour,beta,,,50,19,M,R,
643,13,13,15,5,36,44,900,['n'],1,right,['9'],5,104,[-0.08712004],85,44,hard,minus,dotcolour,beta,,,50,19,M,R,
644,14,14,15,5,27,53,584,['n'],1,right,['9'],5,150,[-0.11670894],94,53,easy,minus,dotcolour,beta,,,50,19,M,R,
645,15,15,15,5,47,33,1101,['c'],1,left,['9'],5,174,[0.05206551],46,47,medium,minus,dotcolour,beta,,,50,19,M,R,
646,16,16,15,5,47,33,1351,['n'],0,left,['9'],5,89,[-0.03180692],19,47,medium,minus,dotcolour,beta,,,50,19,M,R,
647,17,17,15,5,53,27,1450,['c'],1,left,['9'],5,142,[0.1642623],99,53,easy,minus,dotcolour,beta,,,50,19,M,R,
648,18,18,15,5,44,36,1200,['n'],0,left,['9'],5,225,[0.04485027],2,44,hard,minus,dotcolour,beta,,,50,19,M,R,
649,19,19,15,5,27,53,600,['n'],1,right,['9'],5,106,[-0.09908937],92,53,easy,minus,dotcolour,beta,,,50,19,M,R,
650,20,20,15,5,36,44,617,['n'],1,right,['9'],5,165,[-0.10156583],88,44,hard,minus,dotcolour,beta,,,50,19,M,R,
651,21,21,15,5,44,36,684,['c'],1,left,['9'],5,157,[0.1246496],96,44,hard,minus,dotcolour,beta,,,50,19,M,R,
652,22,22,15,5,44,36,1534,['n'],0,left,['8'],4,450,[-0.1624491],95,44,hard,minus,dotcolour,beta,,,50,19,M,R,
653,23,23,15,5,36,44,850,['c'],0,right,['9'],5,128,[0.03929678],31,44,hard,minus,dotcolour,beta,,,50,19,M,R,
654,24,24,15,5,53,27,734,['c'],1,left,['9'],5,126,[0.04965494],43,53,easy,minus,dotcolour,beta,,,50,19,M,R,
655,25,25,15,5,44,36,1300,['n'],0,left,['9'],5,159,[-0.0111377],12,44,hard,minus,dotcolour,beta,,,50,19,M,R,
656,26,26,15,5,27,53,683,['n'],1,right,['9'],5,158,[-0.12722913],96,53,easy,minus,dotcolour,beta,,,50,19,M,R,
657,27,27,15,5,27,53,650,['n'],1,right,['0'],6,166,[-0.13458548],97,53,easy,minus,dotcolour,beta,,,50,19,M,R,
658,28,28,15,5,53,27,884,['c'],1,left,['9'],5,142,[0.06029506],56,53,easy,minus,dotcolour,beta,,,50,19,M,R,
659,29,29,15,5,47,33,867,['c'],1,left,['9'],5,126,[0.11382307],95,47,medium,minus,dotcolour,beta,,,50,19,M,R,
660,30,30,15,5,27,53,500,['n'],1,right,['9'],5,159,[-0.07780876],73,53,easy,minus,dotcolour,beta,,,50,19,M,R,
661,31,31,15,5,53,27,717,['c'],1,left,['9'],5,172,[0.10409574],89,53,easy,minus,dotcolour,beta,,,50,19,M,R,
662,32,32,15,5,33,47,667,['c'],0,right,['1'],1,828,[-0.0886967],5,47,medium,minus,dotcolour,beta,,,50,19,M,R,
663,33,33,15,5,36,44,600,['n'],1,right,['9'],5,180,[-0.09448384],84,44,hard,minus,dotcolour,beta,,,50,19,M,R,
664,34,34,15,5,47,33,1450,['c'],1,left,['9'],5,188,[0.08573778],78,47,medium,minus,dotcolour,beta,,,50,19,M,R,
665,35,35,15,5,36,44,1150,['c'],0,right,['9'],5,176,[0.03590515],30,44,hard,minus,dotcolour,beta,,,50,19,M,R,
666,36,36,15,5,53,27,1383,['c'],1,left,['9'],5,155,[0.09012839],83,53,easy,minus,dotcolour,beta,,,50,19,M,R,
667,37,37,15,5,33,47,900,['c'],0,right,['9'],5,130,[0.02768086],20,47,medium,minus,dotcolour,beta,,,50,19,M,R,
668,38,38,15,5,47,33,1317,['n'],0,left,['3'],3,386,[-0.10170472],79,47,medium,minus,dotcolour,beta,,,50,19,M,R,
669,39,39,15,5,33,47,1100,['n'],1,right,['9'],5,184,[-0.05566068],50,47,medium,minus,dotcolour,beta,,,50,19,M,R,
670,40,40,15,5,33,47,1033,['c'],0,right,['9'],5,192,[0.03549548],30,47,medium,minus,dotcolour,beta,,,50,19,M,R,
671,41,41,15,5,36,44,1017,['n'],1,right,['9'],5,290,[-0.00585988],16,44,hard,minus,dotcolour,beta,,,50,19,M,R,
672,42,0,16,5,27,53,584,['n'],1,right,['9'],5,118,[-0.15182807],99,53,easy,minus,dotcolour,beta,,,50,19,M,R,
673,43,1,16,5,53,27,633,['c'],1,left,['9'],5,98,[0.08976174],88,53,easy,minus,dotcolour,beta,,,50,19,M,R,
674,44,2,16,5,33,47,433,['n'],1,right,['9'],5,166,[-0.04457833],38,47,medium,minus,dotcolour,beta,,,50,19,M,R,
675,45,3,16,5,27,53,600,['n'],1,right,['9'],5,161,[-0.11754464],94,53,easy,minus,dotcolour,beta,,,50,19,M,R,
676,46,4,16,5,44,36,1116,['c'],1,left,['9'],5,110,[0.06677623],65,44,hard,minus,dotcolour,beta,,,50,19,M,R,
677,47,5,16,5,53,27,883,['n'],0,left,['9'],5,184,[-0.06689258],62,53,easy,minus,dotcolour,beta,,,50,19,M,R,
678,48,6,16,5,47,33,867,['n'],0,left,['8'],4,127,[-0.12529912],97,47,medium,minus,dotcolour,beta,,,50,19,M,R,
679,49,7,16,5,36,44,634,['n'],1,right,['9'],5,42,[-0.0812174],90,44,hard,minus,dotcolour,beta,,,50,19,M,R,
680,50,8,16,5,36,44,501,['n'],1,right,['9'],5,134,[-0.04990691],43,44,hard,minus,dotcolour,beta,,,50,19,M,R,
681,51,9,16,5,44,36,833,['c'],1,left,['9'],5,104,[0.10838104],95,44,hard,minus,dotcolour,beta,,,50,19,M,R,
682,52,10,16,5,44,36,516,['n'],0,left,['9'],5,121,[-0.06893433],67,44,hard,minus,dotcolour,beta,,,50,19,M,R,
683,53,11,16,5,33,47,684,['n'],1,right,['9'],5,82,[-0.10426085],96,47,medium,minus,dotcolour,beta,,,50,19,M,R,
684,54,12,16,5,33,47,517,['n'],1,right,['9'],5,427,[-0.13732712],90,47,medium,minus,dotcolour,beta,,,50,19,M,R,
685,55,13,16,5,47,33,668,['c'],1,left,['9'],5,121,[0.04674669],39,47,medium,minus,dotcolour,beta,,,50,19,M,R,
686,56,14,16,5,36,44,566,['n'],1,right,['9'],5,335,[-0.09267949],76,44,hard,minus,dotcolour,beta,,,50,19,M,R,
687,57,15,16,5,27,53,701,['n'],1,right,['9'],5,95,[-0.03607808],24,53,easy,minus,dotcolour,beta,,,50,19,M,R,
688,58,16,16,5,36,44,517,['n'],1,right,['9'],5,95,[-0.08880077],87,44,hard,minus,dotcolour,beta,,,50,19,M,R,
689,59,17,16,5,36,44,500,['n'],1,right,['9'],5,57,[-0.03673029],19,44,hard,minus,dotcolour,beta,,,50,19,M,R,
690,60,18,16,5,44,36,484,['n'],0,left,['9'],5,132,[-0.09679624],89,44,hard,minus,dotcolour,beta,,,50,19,M,R,
691,61,19,16,5,44,36,716,['c'],1,left,['9'],5,132,[0.06843594],65,44,hard,minus,dotcolour,beta,,,50,19,M,R,
692,62,20,16,5,33,47,650,['n'],1,right,['9'],5,94,[-0.13332053],99,47,medium,minus,dotcolour,beta,,,50,19,M,R,
693,63,21,16,5,27,53,517,['n'],1,right,['9'],5,119,[-0.06790464],66,53,easy,minus,dotcolour,beta,,,50,19,M,R,
694,64,22,16,5,36,44,517,['n'],1,right,['9'],5,167,[-0.09814922],87,44,hard,minus,dotcolour,beta,,,50,19,M,R,
695,65,23,16,5,47,33,467,['n'],0,left,['3'],3,911,[0.0642459],9,47,medium,minus,dotcolour,beta,,,50,19,M,R,
696,66,24,16,5,53,27,784,['c'],1,left,['9'],5,108,[0.08296345],82,53,easy,minus,dotcolour,beta,,,50,19,M,R,
697,67,25,16,5,44,36,816,['c'],1,left,['9'],5,120,[0.01075321],9,44,hard,minus,dotcolour,beta,,,50,19,M,R,
698,68,26,16,5,47,33,1317,['c'],1,left,['9'],5,176,[0.11012559],91,47,medium,minus,dotcolour,beta,,,50,19,M,R,
699,69,27,16,5,53,27,1133,['n'],0,left,['9'],5,172,[0.0177316],4,53,easy,minus,dotcolour,beta,,,50,19,M,R,
700,70,28,16,5,47,33,417,['n'],0,left,['9'],5,142,[-0.08305626],79,47,medium,minus,dotcolour,beta,,,50,19,M,R,
701,71,29,16,5,53,27,783,['c'],1,left,['9'],5,114,[0.07113391],70,53,easy,minus,dotcolour,beta,,,50,19,M,R,
702,72,30,16,5,27,53,767,['n'],1,right,['9'],5,105,[-0.10064437],92,53,easy,minus,dotcolour,beta,,,50,19,M,R,
703,73,31,16,5,44,36,667,['c'],1,left,['9'],5,155,[0.05114072],45,44,hard,minus,dotcolour,beta,,,50,19,M,R,
704,74,32,16,5,33,47,484,['n'],1,right,['9'],5,131,[-0.0548268],49,47,medium,minus,dotcolour,beta,,,50,19,M,R,
705,75,33,16,5,47,33,784,['c'],1,left,['9'],5,135,[0.07449749],72,47,medium,minus,dotcolour,beta,,,50,19,M,R,
706,76,34,16,5,53,27,1000,['c'],1,left,['0'],6,187,[0.00964416],13,53,easy,minus,dotcolour,beta,,,50,19,M,R,
707,77,35,16,5,27,53,600,['n'],1,right,['9'],5,366,[-0.20837865],99,53,easy,minus,dotcolour,beta,,,50,19,M,R,
708,78,36,16,5,53,27,649,['c'],1,left,['9'],5,198,[0.13602365],96,53,easy,minus,dotcolour,beta,,,50,19,M,R,
709,79,37,16,5,33,47,666,['n'],1,right,['9'],5,133,[-0.09032383],85,47,medium,minus,dotcolour,beta,,,50,19,M,R,
710,80,38,16,5,33,47,600,['n'],1,right,['9'],5,137,[-0.07789474],75,47,medium,minus,dotcolour,beta,,,50,19,M,R,
711,81,39,16,5,36,44,649,['n'],1,right,['9'],5,179,[-0.01873761],17,44,hard,minus,dotcolour,beta,,,50,19,M,R,
712,82,40,16,5,27,53,1218,['n'],1,right,['9'],5,164,[-0.03295497],27,53,easy,minus,dotcolour,beta,,,50,19,M,R,
713,83,41,16,5,47,33,1617,['c'],1,left,['9'],5,159,[0.05209845],46,47,medium,minus,dotcolour,beta,,,50,19,M,R,
714,84,0,17,5,47,33,1251,['c'],1,left,['9'],5,86,[0.09847983],93,47,medium,minus,dotcolour,beta,,,50,19,M,R,
715,85,1,17,5,27,53,800,['n'],1,right,['9'],5,84,[-0.03667789],24,53,easy,minus,dotcolour,beta,,,50,19,M,R,
716,86,2,17,5,33,47,684,['n'],1,right,['9'],5,87,[-0.08091674],82,47,medium,minus,dotcolour,beta,,,50,19,M,R,
717,87,3,17,5,53,27,1167,['c'],1,left,['9'],5,118,[0.08328339],81,53,easy,minus,dotcolour,beta,,,50,19,M,R,
718,88,4,17,5,44,36,883,['c'],1,left,['9'],5,127,[0.04631459],39,44,hard,minus,dotcolour,beta,,,50,19,M,R,
719,89,5,17,5,36,44,550,['n'],1,right,['9'],5,141,[-0.06677402],63,44,hard,minus,dotcolour,beta,,,50,19,M,R,
720,90,6,17,5,27,53,582,['n'],1,right,['9'],5,153,[-0.09387752],85,53,easy,minus,dotcolour,beta,,,50,19,M,R,
721,91,7,17,5,36,44,600,['n'],1,right,['9'],5,189,[-0.03695184],32,44,hard,minus,dotcolour,beta,,,50,19,M,R,
722,92,8,17,5,27,53,601,['n'],1,right,['9'],5,119,[-0.08494591],82,53,easy,minus,dotcolour,beta,,,50,19,M,R,
723,93,9,17,5,33,47,583,['n'],1,right,['9'],5,140,[-0.1216091],96,47,medium,minus,dotcolour,beta,,,50,19,M,R,
724,94,10,17,5,27,53,583,['n'],1,right,['9'],5,88,[-0.08535656],86,53,easy,minus,dotcolour,beta,,,50,19,M,R,
725,95,11,17,5,44,36,1117,['c'],1,left,['9'],5,113,[0.10679543],94,44,hard,minus,dotcolour,beta,,,50,19,M,R,
726,96,12,17,5,47,33,1118,['n'],0,left,['9'],5,162,[-0.07799905],73,47,medium,minus,dotcolour,beta,,,50,19,M,R,
727,97,13,17,5,53,27,950,['c'],1,left,['9'],5,95,[0.10976612],96,53,easy,minus,dotcolour,beta,,,50,19,M,R,
728,98,14,17,5,36,44,650,['n'],1,right,['9'],5,114,[-0.03043026],21,44,hard,minus,dotcolour,beta,,,50,19,M,R,
729,99,15,17,5,44,36,784,['n'],0,left,['9'],5,111,[-0.10327894],93,44,hard,minus,dotcolour,beta,,,50,19,M,R,
730,100,16,17,5,47,33,1101,['c'],1,left,['9'],5,104,[0.07630313],76,47,medium,minus,dotcolour,beta,,,50,19,M,R,
731,101,17,17,5,27,53,599,['n'],1,right,['9'],5,133,[-0.042637],35,53,easy,minus,dotcolour,beta,,,50,19,M,R,
732,102,18,17,5,44,36,866,['c'],1,left,['9'],5,102,[0.02623325],16,44,hard,minus,dotcolour,beta,,,50,19,M,R,
733,103,19,17,5,36,44,534,['n'],1,right,['9'],5,126,[-0.14152651],99,44,hard,minus,dotcolour,beta,,,50,19,M,R,
734,104,20,17,5,36,44,584,['n'],1,right,['9'],5,179,[-0.04336192],37,44,hard,minus,dotcolour,beta,,,50,19,M,R,
735,105,21,17,5,33,47,649,['n'],1,right,['9'],5,83,[-0.06060185],58,47,medium,minus,dotcolour,beta,,,50,19,M,R,
736,106,22,17,5,44,36,450,['n'],0,left,['9'],5,111,[-0.08611783],84,44,hard,minus,dotcolour,beta,,,50,19,M,R,
737,107,23,17,5,44,36,667,['n'],0,left,['9'],5,89,[-0.1036416],95,44,hard,minus,dotcolour,beta,,,50,19,M,R,
738,108,24,17,5,53,27,551,['n'],0,left,['9'],5,113,[-0.00264474],6,53,easy,minus,dotcolour,beta,,,50,19,M,R,
739,109,25,17,5,47,33,1467,['c'],1,left,['9'],5,132,[0.09895802],90,47,medium,minus,dotcolour,beta,,,50,19,M,R,
740,110,26,17,5,53,27,868,['c'],1,left,['9'],5,148,[0.08951958],83,53,easy,minus,dotcolour,beta,,,50,19,M,R,
741,111,27,17,5,36,44,600,['n'],1,right,['9'],5,48,[-0.06698569],72,44,hard,minus,dotcolour,beta,,,50,19,M,R,
742,112,28,17,5,33,47,600,['n'],1,right,['9'],5,127,[-0.14286931],99,47,medium,minus,dotcolour,beta,,,50,19,M,R,
743,113,29,17,5,47,33,933,['c'],1,left,['9'],5,86,[0.08292707],84,47,medium,minus,dotcolour,beta,,,50,19,M,R,
744,114,30,17,5,27,53,534,['n'],1,right,['9'],5,95,[-0.09682602],92,53,easy,minus,dotcolour,beta,,,50,19,M,R,
745,115,31,17,5,33,47,751,['n'],1,right,['9'],5,109,[-0.0971377],91,47,medium,minus,dotcolour,beta,,,50,19,M,R,
746,116,32,17,5,44,36,849,['c'],1,left,['9'],5,89,[0.0614169],59,44,hard,minus,dotcolour,beta,,,50,19,M,R,
747,117,33,17,5,36,44,583,['n'],1,right,['9'],5,71,[-0.05044897],41,44,hard,minus,dotcolour,beta,,,50,19,M,R,
748,118,34,17,5,33,47,867,['n'],1,right,['9'],5,36,[-0.07931381],90,47,medium,minus,dotcolour,beta,,,50,19,M,R,
749,119,35,17,5,33,47,516,['n'],1,right,['9'],5,87,[-0.06817965],68,47,medium,minus,dotcolour,beta,,,50,19,M,R,
750,120,36,17,5,53,27,700,['c'],1,left,['9'],5,97,[0.09357384],90,53,easy,minus,dotcolour,beta,,,50,19,M,R,
751,121,37,17,5,47,33,1400,['c'],1,left,['9'],5,166,[0.15801945],99,47,medium,minus,dotcolour,beta,,,50,19,M,R,
752,122,38,17,5,53,27,700,['c'],1,left,['9'],5,125,[0.13096758],98,53,easy,minus,dotcolour,beta,,,50,19,M,R,
753,123,39,17,5,47,33,834,['c'],1,left,['9'],5,136,[0.09897772],89,47,medium,minus,dotcolour,beta,,,50,19,M,R,
754,124,40,17,5,27,53,683,['n'],1,right,['9'],5,128,[-0.06025422],56,53,easy,minus,dotcolour,beta,,,50,19,M,R,
755,125,41,17,5,53,27,700,['c'],1,left,['9'],5,88,[0.05415347],48,53,easy,minus,dotcolour,beta,,,50,19,M,R,
,,,,,,,,,,,,,,,,,,,,,1,vaker blauw dan rood ,50,19,M,R,
,,,,,,,,,,,,,,,,,,,,,2,['h'],50,19,M,R,
,,,,,,,,,,,,,,,,,,,,,3,['f'],50,19,M,R,
,,,,,,,,,,,,,,,,,,,,,5,"['5', '3']",50,19,M,R,
