trial,withinphasetrial,withinblocktrial,block,phase,dotsLeft,dotsRight,rt,resp,cor,cresp,conf_press,cj,RTconf,ev,fb,diff,difflevel,condition,task,manip,questionID,questionResp,sub,age,gender,handedness,
0,0,0,0,0,27,53,1184,['c'],0,right,['1'],1,1872,[-0.01710005],28,53,easy,minus,dotcolour,beta,,,47,18,V,R,
1,1,1,0,0,53,27,933,['c'],1,left,['0'],6,1128,[0.19775922],92,53,easy,minus,dotcolour,beta,,,47,18,V,R,
2,2,2,0,0,47,33,900,['n'],0,left,['9'],5,1345,[0.17900087],3,47,medium,minus,dotcolour,beta,,,47,18,V,R,
3,3,3,0,0,36,44,1201,['n'],1,right,['0'],6,1059,[-0.0336891],41,44,hard,minus,dotcolour,beta,,,47,18,V,R,
4,4,4,0,0,33,47,1767,['c'],0,right,['9'],5,1844,[0.04257776],46,47,medium,minus,dotcolour,beta,,,47,18,V,R,
5,5,5,0,0,53,27,2050,['c'],1,left,['9'],5,1760,[0.30120711],97,53,easy,minus,dotcolour,beta,,,47,18,V,R,
6,6,6,0,0,36,44,2117,['n'],1,right,['9'],5,1181,[-0.12450337],76,44,hard,minus,dotcolour,beta,,,47,18,V,R,
7,7,7,0,0,33,47,1217,['n'],1,right,['9'],5,455,[-0.02206063],29,47,medium,minus,dotcolour,beta,,,47,18,V,R,
8,8,8,0,0,27,53,1567,['n'],1,right,['9'],5,439,[-0.1448025],92,53,easy,minus,dotcolour,beta,,,47,18,V,R,
9,9,9,0,0,44,36,1684,['c'],1,left,['8'],4,947,[0.14727387],85,44,hard,minus,dotcolour,beta,,,47,18,V,R,
10,10,10,0,0,53,27,1566,['c'],1,left,['0'],6,4256,[0.72799148],100,53,easy,minus,dotcolour,beta,,,47,18,V,R,
11,11,11,0,0,27,53,1149,['n'],1,right,['0'],6,368,[-0.13570301],92,53,easy,minus,dotcolour,beta,,,47,18,V,R,
12,12,12,0,0,53,27,867,['c'],1,left,['0'],6,456,[0.17063925],96,53,easy,minus,dotcolour,beta,,,47,18,V,R,
13,13,13,0,0,27,53,700,['n'],1,right,['0'],6,386,[-0.0430235],41,53,easy,minus,dotcolour,beta,,,47,18,V,R,
14,14,14,0,0,36,44,900,['c'],0,right,['9'],5,832,[0.03882831],42,44,hard,minus,dotcolour,beta,,,47,18,V,R,
15,15,15,0,0,44,36,1167,['c'],1,left,['0'],6,394,[0.03048198],33,44,hard,minus,dotcolour,beta,,,47,18,V,R,
16,16,16,0,0,47,33,767,['n'],0,left,['0'],6,484,[0.02166045],12,47,medium,minus,dotcolour,beta,,,47,18,V,R,
17,17,17,0,0,33,47,1100,['n'],1,right,['0'],6,375,[-0.03784722],37,47,medium,minus,dotcolour,beta,,,47,18,V,R,
18,18,18,0,0,47,33,1032,['c'],1,left,['9'],5,927,[0.02945318],38,47,medium,minus,dotcolour,beta,,,47,18,V,R,
19,19,19,0,0,47,33,900,['c'],1,left,['0'],6,399,[0.09548278],76,47,medium,minus,dotcolour,beta,,,47,18,V,R,
20,20,20,0,0,44,36,883,['c'],1,left,['8'],4,1701,[0.0949985],63,44,hard,minus,dotcolour,beta,,,47,18,V,R,
21,21,21,0,0,27,53,683,['n'],1,right,['0'],6,503,[-0.0873264],69,53,easy,minus,dotcolour,beta,,,47,18,V,R,
22,22,22,0,0,27,53,1734,['n'],1,right,['0'],6,439,[-0.12558877],87,53,easy,minus,dotcolour,beta,,,47,18,V,R,
23,23,23,0,0,44,36,850,['n'],0,left,['9'],5,396,[-0.06013415],53,44,hard,minus,dotcolour,beta,,,47,18,V,R,
24,24,24,0,0,33,47,617,['n'],1,right,['9'],5,381,[-0.16551661],96,47,medium,minus,dotcolour,beta,,,47,18,V,R,
25,25,25,0,0,33,47,1250,['c'],0,right,['8'],4,1045,[-0.0886826],7,47,medium,minus,dotcolour,beta,,,47,18,V,R,
26,26,26,0,0,36,44,751,['n'],1,right,['9'],5,686,[-0.15912391],90,44,hard,minus,dotcolour,beta,,,47,18,V,R,
27,27,27,0,0,33,47,1500,['n'],1,right,['8'],4,1344,[-0.18652681],88,47,medium,minus,dotcolour,beta,,,47,18,V,R,
28,28,28,0,0,47,33,833,['c'],1,left,['8'],4,434,[0.05114086],47,47,medium,minus,dotcolour,beta,,,47,18,V,R,
29,29,29,0,0,44,36,1267,['c'],1,left,['8'],4,311,[0.19451369],99,44,hard,minus,dotcolour,beta,,,47,18,V,R,
30,30,30,0,0,44,36,1549,['n'],0,left,['3'],3,1462,[-0.17399802],85,44,hard,minus,dotcolour,beta,,,47,18,V,R,
31,31,31,0,0,36,44,868,['n'],1,right,['8'],4,570,[0.02051461],14,44,hard,minus,dotcolour,beta,,,47,18,V,R,
32,32,32,0,0,33,47,1068,['n'],1,right,['0'],6,249,[-0.07555282],67,47,medium,minus,dotcolour,beta,,,47,18,V,R,
33,33,33,0,0,53,27,733,['c'],1,left,['9'],5,403,[0.28174692],100,53,easy,minus,dotcolour,beta,,,47,18,V,R,
34,34,34,0,0,53,27,1184,['c'],1,left,['0'],6,485,[0.22069781],99,53,easy,minus,dotcolour,beta,,,47,18,V,R,
35,35,35,0,0,36,44,1033,['n'],1,right,['8'],4,441,[-0.16897633],96,44,hard,minus,dotcolour,beta,,,47,18,V,R,
36,36,36,0,0,44,36,900,['n'],0,left,['3'],3,1613,[-0.19610263],88,44,hard,minus,dotcolour,beta,,,47,18,V,R,
37,37,37,0,0,47,33,983,['c'],1,left,['8'],4,445,[0.10440817],79,47,medium,minus,dotcolour,beta,,,47,18,V,R,
38,38,38,0,0,36,44,666,['n'],1,right,['9'],5,458,[-0.07706793],64,44,hard,minus,dotcolour,beta,,,47,18,V,R,
39,39,39,0,0,53,27,633,['c'],1,left,['0'],6,448,[0.11520758],83,53,easy,minus,dotcolour,beta,,,47,18,V,R,
40,40,40,0,0,47,33,667,['c'],1,left,['9'],5,516,[0.16483036],94,47,medium,minus,dotcolour,beta,,,47,18,V,R,
41,41,41,0,0,27,53,534,['n'],1,right,['8'],4,427,[-0.03986389],39,53,easy,minus,dotcolour,beta,,,47,18,V,R,
42,42,0,1,0,53,27,751,['c'],1,left,['0'],6,339,[0.13748702],93,53,easy,minus,dotcolour,beta,,,47,18,V,R,
43,43,1,1,0,53,27,749,['c'],1,left,['0'],6,457,[0.22818164],99,53,easy,minus,dotcolour,beta,,,47,18,V,R,
44,44,2,1,0,36,44,400,['n'],1,right,['9'],5,583,[-0.16534385],93,44,hard,minus,dotcolour,beta,,,47,18,V,R,
45,45,3,1,0,47,33,501,['n'],0,left,['3'],3,821,[-0.110991],75,47,medium,minus,dotcolour,beta,,,47,18,V,R,
46,46,4,1,0,36,44,900,['n'],1,right,['8'],4,353,[-0.09412287],76,44,hard,minus,dotcolour,beta,,,47,18,V,R,
47,47,5,1,0,44,36,400,['c'],1,left,['8'],4,773,[0.15008397],87,44,hard,minus,dotcolour,beta,,,47,18,V,R,
48,48,6,1,0,33,47,634,['n'],1,right,['8'],4,341,[-0.11968249],88,47,medium,minus,dotcolour,beta,,,47,18,V,R,
49,49,7,1,0,36,44,967,['c'],0,right,['8'],4,266,[0.11501964],89,44,hard,minus,dotcolour,beta,,,47,18,V,R,
50,50,8,1,0,47,33,884,['n'],0,left,['9'],5,269,[-0.12237203],91,47,medium,minus,dotcolour,beta,,,47,18,V,R,
51,51,9,1,0,53,27,634,['c'],1,left,['0'],6,330,[0.15330503],96,53,easy,minus,dotcolour,beta,,,47,18,V,R,
52,52,10,1,0,44,36,867,['n'],0,left,['3'],3,708,[0.06341772],7,44,hard,minus,dotcolour,beta,,,47,18,V,R,
53,53,11,1,0,33,47,966,['n'],1,right,['8'],4,387,[-0.11050126],83,47,medium,minus,dotcolour,beta,,,47,18,V,R,
54,54,12,1,0,36,44,767,['n'],1,right,['0'],6,205,[-0.08366636],75,44,hard,minus,dotcolour,beta,,,47,18,V,R,
55,55,13,1,0,53,27,834,['c'],1,left,['0'],6,349,[0.09104363],75,53,easy,minus,dotcolour,beta,,,47,18,V,R,
56,56,14,1,0,33,47,700,['n'],1,right,['0'],6,453,[-0.04482899],43,47,medium,minus,dotcolour,beta,,,47,18,V,R,
57,57,15,1,0,44,36,717,['c'],1,left,['9'],5,296,[0.03325114],32,44,hard,minus,dotcolour,beta,,,47,18,V,R,
58,58,16,1,0,33,47,884,['n'],1,right,['8'],4,730,[-0.21209788],96,47,medium,minus,dotcolour,beta,,,47,18,V,R,
59,59,17,1,0,53,27,1117,['c'],1,left,['8'],4,417,[0.05412924],49,53,easy,minus,dotcolour,beta,,,47,18,V,R,
60,60,18,1,0,27,53,650,['n'],1,right,['8'],4,255,[-0.0801985],71,53,easy,minus,dotcolour,beta,,,47,18,V,R,
61,61,19,1,0,27,53,667,['n'],1,right,['9'],5,291,[-0.18780417],99,53,easy,minus,dotcolour,beta,,,47,18,V,R,
62,62,20,1,0,53,27,1251,['c'],1,left,['9'],5,903,[0.15904063],88,53,easy,minus,dotcolour,beta,,,47,18,V,R,
63,63,21,1,0,36,44,1184,['n'],1,right,['9'],5,284,[-0.07465531],66,44,hard,minus,dotcolour,beta,,,47,18,V,R,
64,64,22,1,0,44,36,1334,['c'],1,left,['1'],1,1757,[0.23497134],92,44,hard,minus,dotcolour,beta,,,47,18,V,R,
65,65,23,1,0,44,36,2250,['n'],0,left,['3'],3,1885,[0.05595323],19,44,hard,minus,dotcolour,beta,,,47,18,V,R,
66,66,24,1,0,47,33,800,['c'],1,left,['8'],4,483,[0.22530436],99,47,medium,minus,dotcolour,beta,,,47,18,V,R,
67,67,25,1,0,47,33,1050,['n'],0,left,['9'],5,367,[-0.07867661],67,47,medium,minus,dotcolour,beta,,,47,18,V,R,
68,68,26,1,0,27,53,766,['n'],1,right,['0'],6,219,[-0.21712326],100,53,easy,minus,dotcolour,beta,,,47,18,V,R,
69,69,27,1,0,33,47,1383,['n'],1,right,['0'],6,205,[-0.1074959],89,47,medium,minus,dotcolour,beta,,,47,18,V,R,
70,70,28,1,0,36,44,950,['c'],0,right,['8'],4,640,[0.06178872],54,44,hard,minus,dotcolour,beta,,,47,18,V,R,
71,71,29,1,0,27,53,866,['n'],1,right,['0'],6,157,[-0.07064148],66,53,easy,minus,dotcolour,beta,,,47,18,V,R,
72,72,30,1,0,44,36,901,['c'],1,left,['8'],4,499,[-0.02984222],10,44,hard,minus,dotcolour,beta,,,47,18,V,R,
73,73,31,1,0,47,33,1233,['c'],1,left,['9'],5,1263,[0.22137411],93,47,medium,minus,dotcolour,beta,,,47,18,V,R,
74,74,32,1,0,27,53,917,['n'],1,right,['0'],6,433,[-0.24982358],100,53,easy,minus,dotcolour,beta,,,47,18,V,R,
75,75,33,1,0,33,47,1083,['n'],1,right,['0'],6,358,[-0.01401971],22,47,medium,minus,dotcolour,beta,,,47,18,V,R,
76,76,34,1,0,47,33,1067,['c'],1,left,['8'],4,822,[0.0666873],56,47,medium,minus,dotcolour,beta,,,47,18,V,R,
77,77,35,1,0,27,53,617,['n'],1,right,['0'],6,286,[-0.12449974],91,53,easy,minus,dotcolour,beta,,,47,18,V,R,
78,78,36,1,0,44,36,884,['n'],0,left,['9'],5,376,[-0.1133646],85,44,hard,minus,dotcolour,beta,,,47,18,V,R,
79,79,37,1,0,36,44,833,['n'],1,right,['9'],5,336,[-0.10543337],82,44,hard,minus,dotcolour,beta,,,47,18,V,R,
80,80,38,1,0,47,33,834,['c'],1,left,['9'],5,291,[0.16107873],97,47,medium,minus,dotcolour,beta,,,47,18,V,R,
81,81,39,1,0,33,47,901,['n'],1,right,['0'],6,508,[-0.13110406],87,47,medium,minus,dotcolour,beta,,,47,18,V,R,
82,82,40,1,0,27,53,833,['n'],1,right,['0'],6,248,[-0.16658961],98,53,easy,minus,dotcolour,beta,,,47,18,V,R,
83,83,41,1,0,53,27,700,['c'],1,left,['8'],4,419,[0.08951174],72,53,easy,minus,dotcolour,beta,,,47,18,V,R,
84,84,0,2,0,27,53,550,['n'],1,right,['0'],6,227,[-0.01312494],17,53,easy,minus,dotcolour,beta,,,47,18,V,R,
85,85,1,2,0,33,47,800,['n'],1,right,['0'],6,218,[-0.10370526],86,47,medium,minus,dotcolour,beta,,,47,18,V,R,
86,86,2,2,0,33,47,583,['n'],1,right,['9'],5,307,[-0.08330709],71,47,medium,minus,dotcolour,beta,,,47,18,V,R,
87,87,3,2,0,36,44,850,['n'],1,right,['0'],6,246,[-0.01091092],17,44,hard,minus,dotcolour,beta,,,47,18,V,R,
88,88,4,2,0,47,33,1150,['n'],0,left,['0'],6,239,[-0.05850451],53,47,medium,minus,dotcolour,beta,,,47,18,V,R,
89,89,5,2,0,47,33,833,['c'],1,left,['9'],5,517,[0.12145936],84,47,medium,minus,dotcolour,beta,,,47,18,V,R,
90,90,6,2,0,47,33,1066,['c'],1,left,['9'],5,279,[-0.07150741],1,47,medium,minus,dotcolour,beta,,,47,18,V,R,
91,91,7,2,0,27,53,700,['n'],1,right,['0'],6,249,[-0.15553145],97,53,easy,minus,dotcolour,beta,,,47,18,V,R,
92,92,8,2,0,33,47,984,['n'],1,right,['0'],6,201,[-0.00053045],10,47,medium,minus,dotcolour,beta,,,47,18,V,R,
93,93,9,2,0,53,27,817,['c'],1,left,['0'],6,498,[0.10171885],76,53,easy,minus,dotcolour,beta,,,47,18,V,R,
94,94,10,2,0,53,27,984,['c'],1,left,['0'],6,128,[0.10921467],94,53,easy,minus,dotcolour,beta,,,47,18,V,R,
95,95,11,2,0,53,27,700,['c'],1,left,['0'],6,152,[0.09339255],85,53,easy,minus,dotcolour,beta,,,47,18,V,R,
96,96,12,2,0,27,53,684,['n'],1,right,['9'],5,320,[-0.15356728],96,53,easy,minus,dotcolour,beta,,,47,18,V,R,
97,97,13,2,0,44,36,783,['c'],1,left,['9'],5,205,[0.12695523],94,44,hard,minus,dotcolour,beta,,,47,18,V,R,
98,98,14,2,0,53,27,683,['n'],0,left,['1'],1,980,[0.10931352],5,53,easy,minus,dotcolour,beta,,,47,18,V,R,
99,99,15,2,0,33,47,616,['n'],1,right,['9'],5,461,[-0.06728024],58,47,medium,minus,dotcolour,beta,,,47,18,V,R,
100,100,16,2,0,47,33,783,['n'],0,left,['8'],4,252,[-0.01469705],19,47,medium,minus,dotcolour,beta,,,47,18,V,R,
101,101,17,2,0,53,27,1550,['c'],1,left,['9'],5,93,[0.09444703],91,53,easy,minus,dotcolour,beta,,,47,18,V,R,
102,102,18,2,0,44,36,1267,['n'],0,left,['8'],4,120,[-0.05568393],50,44,hard,minus,dotcolour,beta,,,47,18,V,R,
103,103,19,2,0,33,47,750,['n'],1,right,['8'],4,159,[-0.09233628],84,47,medium,minus,dotcolour,beta,,,47,18,V,R,
104,104,20,2,0,27,53,684,['n'],1,right,['9'],5,254,[-0.03944926],36,53,easy,minus,dotcolour,beta,,,47,18,V,R,
105,105,21,2,0,47,33,1084,['c'],1,left,['9'],5,2034,[0.41668235],99,47,medium,minus,dotcolour,beta,,,47,18,V,R,
106,106,22,2,0,27,53,867,['n'],1,right,['0'],6,175,[-0.1623018],99,53,easy,minus,dotcolour,beta,,,47,18,V,R,
107,107,23,2,0,27,53,650,['n'],1,right,['0'],6,263,[-0.09706867],81,53,easy,minus,dotcolour,beta,,,47,18,V,R,
108,108,24,2,0,33,47,717,['n'],1,right,['9'],5,385,[-0.07249575],62,47,medium,minus,dotcolour,beta,,,47,18,V,R,
109,109,25,2,0,27,53,901,['n'],1,right,['0'],6,127,[-0.00011906],6,53,easy,minus,dotcolour,beta,,,47,18,V,R,
110,110,26,2,0,33,47,1900,['c'],0,right,['3'],3,1527,[-0.11561873],8,47,medium,minus,dotcolour,beta,,,47,18,V,R,
111,111,27,2,0,44,36,1067,['c'],1,left,['8'],4,280,[0.07004715],62,44,hard,minus,dotcolour,beta,,,47,18,V,R,
112,112,28,2,0,47,33,817,['n'],0,left,['8'],4,294,[-0.02982543],30,47,medium,minus,dotcolour,beta,,,47,18,V,R,
113,113,29,2,0,36,44,1435,['c'],0,right,['8'],4,314,[0.06897692],61,44,hard,minus,dotcolour,beta,,,47,18,V,R,
114,114,30,2,0,36,44,983,['n'],1,right,['8'],4,88,[-0.0491385],40,44,hard,minus,dotcolour,beta,,,47,18,V,R,
115,115,31,2,0,36,44,967,['n'],1,right,['9'],5,199,[-0.15950858],99,44,hard,minus,dotcolour,beta,,,47,18,V,R,
116,116,32,2,0,47,33,683,['n'],0,left,['9'],5,140,[-0.06119252],57,47,medium,minus,dotcolour,beta,,,47,18,V,R,
117,117,33,2,0,53,27,1317,['c'],1,left,['9'],5,147,[0.05290588],47,53,easy,minus,dotcolour,beta,,,47,18,V,R,
118,118,34,2,0,36,44,1551,['n'],1,right,['8'],4,168,[-0.06454888],60,44,hard,minus,dotcolour,beta,,,47,18,V,R,
119,119,35,2,0,44,36,950,['c'],1,left,['8'],4,149,[0.06886383],65,44,hard,minus,dotcolour,beta,,,47,18,V,R,
120,120,36,2,0,44,36,617,['c'],1,left,['9'],5,128,[0.07434443],72,44,hard,minus,dotcolour,beta,,,47,18,V,R,
121,121,37,2,0,36,44,2050,['n'],1,right,['8'],4,162,[-0.05978435],55,44,hard,minus,dotcolour,beta,,,47,18,V,R,
122,122,38,2,0,44,36,1517,['n'],0,left,['9'],5,96,[-0.06390404],62,44,hard,minus,dotcolour,beta,,,47,18,V,R,
123,123,39,2,0,44,36,1467,['c'],1,left,['8'],4,75,[0.12302802],99,44,hard,minus,dotcolour,beta,,,47,18,V,R,
124,124,40,2,0,36,44,867,['n'],1,right,['8'],4,126,[-0.00743057],8,44,hard,minus,dotcolour,beta,,,47,18,V,R,
125,125,41,2,0,53,27,817,['c'],1,left,['0'],6,1002,[0.13570626],81,53,easy,minus,dotcolour,beta,,,47,18,V,R,
126,0,0,3,1,44,36,884,['n'],0,left,['9'],5,138,[-0.07987622],100,44,hard,plus,dotcolour,beta,,,47,18,V,R,
127,1,1,3,1,27,53,634,['n'],1,right,['0'],6,117,[-0.10447105],100,53,easy,plus,dotcolour,beta,,,47,18,V,R,
128,2,2,3,1,53,27,2668,['c'],1,left,['9'],5,79,[0.14765116],100,53,easy,plus,dotcolour,beta,,,47,18,V,R,
129,3,3,3,1,33,47,1184,['n'],1,right,['0'],6,134,[-0.12397944],100,47,medium,plus,dotcolour,beta,,,47,18,V,R,
130,4,4,3,1,44,36,1200,['n'],0,left,['8'],4,105,[-0.04705585],100,44,hard,plus,dotcolour,beta,,,47,18,V,R,
131,5,5,3,1,47,33,1650,['c'],1,left,['9'],5,101,[0.09999988],100,47,medium,plus,dotcolour,beta,,,47,18,V,R,
132,6,6,3,1,27,53,767,['n'],1,right,['0'],6,100,[-0.13736819],100,53,easy,plus,dotcolour,beta,,,47,18,V,R,
133,7,7,3,1,27,53,717,['n'],1,right,['0'],6,164,[-0.06036999],99,53,easy,plus,dotcolour,beta,,,47,18,V,R,
134,8,8,3,1,36,44,1134,['n'],1,right,['0'],6,114,[-0.10180473],100,44,hard,plus,dotcolour,beta,,,47,18,V,R,
135,9,9,3,1,53,27,2217,['c'],1,left,['8'],4,117,[0.0854885],100,53,easy,plus,dotcolour,beta,,,47,18,V,R,
136,10,10,3,1,44,36,1084,['n'],0,left,['9'],5,127,[-0.05299353],100,44,hard,plus,dotcolour,beta,,,47,18,V,R,
137,11,11,3,1,47,33,1033,['n'],0,left,['9'],5,122,[-0.05994507],100,47,medium,plus,dotcolour,beta,,,47,18,V,R,
138,12,12,3,1,53,27,1534,['c'],1,left,['9'],5,89,[0.0813302],100,53,easy,plus,dotcolour,beta,,,47,18,V,R,
139,13,13,3,1,47,33,1251,['c'],1,left,['9'],5,85,[0.12206011],100,47,medium,plus,dotcolour,beta,,,47,18,V,R,
140,14,14,3,1,27,53,1183,['n'],1,right,['0'],6,188,[-0.08743603],100,53,easy,plus,dotcolour,beta,,,47,18,V,R,
141,15,15,3,1,36,44,800,['n'],1,right,['9'],5,166,[-0.12699937],100,44,hard,plus,dotcolour,beta,,,47,18,V,R,
142,16,16,3,1,27,53,667,['n'],1,right,['0'],6,117,[-0.03081799],99,53,easy,plus,dotcolour,beta,,,47,18,V,R,
143,17,17,3,1,33,47,650,['n'],1,right,['0'],6,104,[-0.08422354],100,47,medium,plus,dotcolour,beta,,,47,18,V,R,
144,18,18,3,1,36,44,650,['n'],1,right,['0'],6,84,[-0.09571636],100,44,hard,plus,dotcolour,beta,,,47,18,V,R,
145,19,19,3,1,53,27,783,['c'],1,left,['9'],5,83,[0.08097228],100,53,easy,plus,dotcolour,beta,,,47,18,V,R,
146,20,20,3,1,53,27,733,['n'],0,left,['9'],5,284,[0.06410292],43,53,easy,plus,dotcolour,beta,,,47,18,V,R,
147,21,21,3,1,33,47,750,['n'],1,right,['0'],6,211,[-0.17641752],100,47,medium,plus,dotcolour,beta,,,47,18,V,R,
148,22,22,3,1,53,27,1550,['c'],1,left,['9'],5,78,[0.03958077],100,53,easy,plus,dotcolour,beta,,,47,18,V,R,
149,23,23,3,1,36,44,983,['n'],1,right,['0'],6,101,[-0.07075314],100,44,hard,plus,dotcolour,beta,,,47,18,V,R,
150,24,24,3,1,33,47,883,['n'],1,right,['9'],5,103,[-0.0638415],100,47,medium,plus,dotcolour,beta,,,47,18,V,R,
151,25,25,3,1,47,33,884,['c'],1,left,['9'],5,105,[0.09445814],100,47,medium,plus,dotcolour,beta,,,47,18,V,R,
152,26,26,3,1,47,33,984,['c'],1,left,['8'],4,103,[0.02945257],99,47,medium,plus,dotcolour,beta,,,47,18,V,R,
153,27,27,3,1,44,36,1050,['c'],1,left,['9'],5,74,[0.10825167],100,44,hard,plus,dotcolour,beta,,,47,18,V,R,
154,28,28,3,1,33,47,834,['n'],1,right,['9'],5,87,[-0.07493462],100,47,medium,plus,dotcolour,beta,,,47,18,V,R,
155,29,29,3,1,33,47,618,['n'],1,right,['0'],6,108,[-0.11715737],100,47,medium,plus,dotcolour,beta,,,47,18,V,R,
156,30,30,3,1,36,44,767,['n'],1,right,['9'],5,122,[-0.10143039],100,44,hard,plus,dotcolour,beta,,,47,18,V,R,
157,31,31,3,1,47,33,984,['n'],0,left,['9'],5,120,[-0.11542398],100,47,medium,plus,dotcolour,beta,,,47,18,V,R,
158,32,32,3,1,36,44,1383,['n'],1,right,['8'],4,85,[-0.04027257],100,44,hard,plus,dotcolour,beta,,,47,18,V,R,
159,33,33,3,1,27,53,784,['n'],1,right,['9'],5,67,[-0.12230357],100,53,easy,plus,dotcolour,beta,,,47,18,V,R,
160,34,34,3,1,36,44,550,['n'],1,right,['0'],6,132,[-0.08970601],100,44,hard,plus,dotcolour,beta,,,47,18,V,R,
161,35,35,3,1,44,36,767,['n'],0,left,['9'],5,98,[-0.0869268],100,44,hard,plus,dotcolour,beta,,,47,18,V,R,
162,36,36,3,1,44,36,716,['n'],0,left,['8'],4,139,[-0.02862859],98,44,hard,plus,dotcolour,beta,,,47,18,V,R,
163,37,37,3,1,27,53,600,['n'],1,right,['9'],5,78,[-0.03723298],100,53,easy,plus,dotcolour,beta,,,47,18,V,R,
164,38,38,3,1,47,33,450,['n'],0,left,['1'],1,1218,[0.17827847],12,47,medium,plus,dotcolour,beta,,,47,18,V,R,
165,39,39,3,1,53,27,2699,['c'],1,left,['8'],4,151,[0.08318841],100,53,easy,plus,dotcolour,beta,,,47,18,V,R,
166,40,40,3,1,33,47,1016,['n'],1,right,['8'],4,49,[-0.05426611],100,47,medium,plus,dotcolour,beta,,,47,18,V,R,
167,41,41,3,1,44,36,1033,['c'],1,left,['8'],4,112,[0.10729681],100,44,hard,plus,dotcolour,beta,,,47,18,V,R,
168,42,0,4,1,53,27,1217,['c'],1,left,['9'],5,83,[0.09386727],100,53,easy,plus,dotcolour,beta,,,47,18,V,R,
169,43,1,4,1,53,27,801,['c'],1,left,['0'],6,97,[0.10562269],100,53,easy,plus,dotcolour,beta,,,47,18,V,R,
170,44,2,4,1,27,53,933,['n'],1,right,['9'],5,97,[-0.0805748],100,53,easy,plus,dotcolour,beta,,,47,18,V,R,
171,45,3,4,1,33,47,634,['n'],1,right,['9'],5,117,[-0.0968323],100,47,medium,plus,dotcolour,beta,,,47,18,V,R,
172,46,4,4,1,44,36,1116,['c'],1,left,['8'],4,109,[0.1249904],100,44,hard,plus,dotcolour,beta,,,47,18,V,R,
173,47,5,4,1,36,44,817,['n'],1,right,['9'],5,89,[-0.05853942],100,44,hard,plus,dotcolour,beta,,,47,18,V,R,
174,48,6,4,1,33,47,1000,['c'],0,right,['9'],5,175,[0.10675649],100,47,medium,plus,dotcolour,beta,,,47,18,V,R,
175,49,7,4,1,33,47,800,['n'],1,right,['9'],5,81,[-0.05584044],100,47,medium,plus,dotcolour,beta,,,47,18,V,R,
176,50,8,4,1,33,47,667,['c'],0,right,['9'],5,92,[0.05629966],100,47,medium,plus,dotcolour,beta,,,47,18,V,R,
177,51,9,4,1,36,44,1533,['c'],0,right,['8'],4,85,[0.01261963],99,44,hard,plus,dotcolour,beta,,,47,18,V,R,
178,52,10,4,1,27,53,750,['n'],1,right,['9'],5,68,[-0.05563876],100,53,easy,plus,dotcolour,beta,,,47,18,V,R,
179,53,11,4,1,27,53,733,['c'],0,right,['9'],5,70,[0.07055342],100,53,easy,plus,dotcolour,beta,,,47,18,V,R,
180,54,12,4,1,47,33,850,['c'],1,left,['9'],5,130,[0.09800761],100,47,medium,plus,dotcolour,beta,,,47,18,V,R,
181,55,13,4,1,27,53,667,['n'],1,right,['9'],5,100,[-0.02413721],99,53,easy,plus,dotcolour,beta,,,47,18,V,R,
182,56,14,4,1,44,36,1367,['c'],1,left,['9'],5,115,[0.13263534],100,44,hard,plus,dotcolour,beta,,,47,18,V,R,
183,57,15,4,1,47,33,934,['c'],1,left,['0'],6,90,[0.11786939],100,47,medium,plus,dotcolour,beta,,,47,18,V,R,
184,58,16,4,1,36,44,733,['c'],0,right,['0'],6,114,[0.0554519],100,44,hard,plus,dotcolour,beta,,,47,18,V,R,
185,59,17,4,1,44,36,1000,['c'],1,left,['9'],5,134,[0.06118201],100,44,hard,plus,dotcolour,beta,,,47,18,V,R,
186,60,18,4,1,44,36,817,['c'],1,left,['9'],5,162,[0.03468444],98,44,hard,plus,dotcolour,beta,,,47,18,V,R,
187,61,19,4,1,27,53,716,['n'],1,right,['0'],6,144,[-0.15144021],100,53,easy,plus,dotcolour,beta,,,47,18,V,R,
188,62,20,4,1,47,33,767,['n'],0,left,['0'],6,116,[-0.11185198],100,47,medium,plus,dotcolour,beta,,,47,18,V,R,
189,63,21,4,1,47,33,918,['c'],1,left,['9'],5,133,[0.09112736],100,47,medium,plus,dotcolour,beta,,,47,18,V,R,
190,64,22,4,1,36,44,800,['n'],1,right,['9'],5,129,[-0.03128609],99,44,hard,plus,dotcolour,beta,,,47,18,V,R,
191,65,23,4,1,36,44,1151,['n'],1,right,['0'],6,119,[-0.05588111],100,44,hard,plus,dotcolour,beta,,,47,18,V,R,
192,66,24,4,1,47,33,1316,['c'],1,left,['0'],6,63,[0.05792209],100,47,medium,plus,dotcolour,beta,,,47,18,V,R,
193,67,25,4,1,44,36,1249,['c'],1,left,['9'],5,83,[0.06830315],100,44,hard,plus,dotcolour,beta,,,47,18,V,R,
194,68,26,4,1,47,33,934,['n'],0,left,['9'],5,132,[-0.07552149],100,47,medium,plus,dotcolour,beta,,,47,18,V,R,
195,69,27,4,1,36,44,600,['n'],1,right,['0'],6,96,[-0.08961725],100,44,hard,plus,dotcolour,beta,,,47,18,V,R,
196,70,28,4,1,53,27,567,['c'],1,left,['9'],5,63,[0.05426825],100,53,easy,plus,dotcolour,beta,,,47,18,V,R,
197,71,29,4,1,53,27,1001,['c'],1,left,['9'],5,62,[0.07346399],100,53,easy,plus,dotcolour,beta,,,47,18,V,R,
198,72,30,4,1,44,36,817,['c'],1,left,['0'],6,91,[0.1027158],100,44,hard,plus,dotcolour,beta,,,47,18,V,R,
199,73,31,4,1,27,53,700,['n'],1,right,['0'],6,93,[-0.07345682],100,53,easy,plus,dotcolour,beta,,,47,18,V,R,
200,74,32,4,1,33,47,550,['n'],1,right,['0'],6,116,[-0.09252726],100,47,medium,plus,dotcolour,beta,,,47,18,V,R,
201,75,33,4,1,33,47,1250,['c'],0,right,['9'],5,47,[0.06278116],100,47,medium,plus,dotcolour,beta,,,47,18,V,R,
202,76,34,4,1,44,36,950,['c'],1,left,['8'],4,248,[0.06616812],99,44,hard,plus,dotcolour,beta,,,47,18,V,R,
203,77,35,4,1,47,33,1067,['c'],1,left,['0'],6,101,[0.08578489],100,47,medium,plus,dotcolour,beta,,,47,18,V,R,
204,78,36,4,1,36,44,884,['c'],0,right,['9'],5,79,[0.04669745],100,44,hard,plus,dotcolour,beta,,,47,18,V,R,
205,79,37,4,1,53,27,500,['c'],1,left,['9'],5,265,[0.06454902],99,53,easy,plus,dotcolour,beta,,,47,18,V,R,
206,80,38,4,1,53,27,800,['c'],1,left,['0'],6,40,[0.09232517],100,53,easy,plus,dotcolour,beta,,,47,18,V,R,
207,81,39,4,1,33,47,1017,['n'],1,right,['8'],4,86,[-0.06350768],100,47,medium,plus,dotcolour,beta,,,47,18,V,R,
208,82,40,4,1,27,53,666,['n'],1,right,['0'],6,122,[-0.11115119],100,53,easy,plus,dotcolour,beta,,,47,18,V,R,
209,83,41,4,1,53,27,1500,['c'],1,left,['0'],6,91,[0.08621409],100,53,easy,plus,dotcolour,beta,,,47,18,V,R,
210,84,0,5,1,27,53,1201,['n'],1,right,['0'],6,76,[-0.06617367],100,53,easy,plus,dotcolour,beta,,,47,18,V,R,
211,85,1,5,1,27,53,584,['n'],1,right,['0'],6,106,[-0.10472004],100,53,easy,plus,dotcolour,beta,,,47,18,V,R,
212,86,2,5,1,27,53,534,['n'],1,right,['0'],6,107,[-0.07975808],100,53,easy,plus,dotcolour,beta,,,47,18,V,R,
213,87,3,5,1,27,53,666,['n'],1,right,['0'],6,125,[0.00769203],92,53,easy,plus,dotcolour,beta,,,47,18,V,R,
214,88,4,5,1,44,36,867,['c'],1,left,['0'],6,62,[0.07072555],100,44,hard,plus,dotcolour,beta,,,47,18,V,R,
215,89,5,5,1,53,27,768,['c'],1,left,['0'],6,102,[0.10503249],100,53,easy,plus,dotcolour,beta,,,47,18,V,R,
216,90,6,5,1,44,36,683,['c'],1,left,['0'],6,80,[0.0564623],100,44,hard,plus,dotcolour,beta,,,47,18,V,R,
217,91,7,5,1,47,33,833,['c'],1,left,['0'],6,69,[0.08534017],100,47,medium,plus,dotcolour,beta,,,47,18,V,R,
218,92,8,5,1,47,33,767,['c'],1,left,['0'],6,84,[0.14626236],100,47,medium,plus,dotcolour,beta,,,47,18,V,R,
219,93,9,5,1,33,47,834,['n'],1,right,['0'],6,97,[-0.08908877],100,47,medium,plus,dotcolour,beta,,,47,18,V,R,
220,94,10,5,1,36,44,733,['n'],1,right,['9'],5,153,[-0.13922245],100,44,hard,plus,dotcolour,beta,,,47,18,V,R,
221,95,11,5,1,44,36,1418,['c'],1,left,['9'],5,492,[0.01700777],87,44,hard,plus,dotcolour,beta,,,47,18,V,R,
222,96,12,5,1,27,53,617,['n'],1,right,['0'],6,113,[-0.08472073],100,53,easy,plus,dotcolour,beta,,,47,18,V,R,
223,97,13,5,1,44,36,600,['n'],0,left,['0'],6,85,[-0.08004487],100,44,hard,plus,dotcolour,beta,,,47,18,V,R,
224,98,14,5,1,47,33,983,['c'],1,left,['0'],6,60,[0.07408543],100,47,medium,plus,dotcolour,beta,,,47,18,V,R,
225,99,15,5,1,47,33,550,['n'],0,left,['0'],6,101,[-0.11933443],100,47,medium,plus,dotcolour,beta,,,47,18,V,R,
226,100,16,5,1,36,44,816,['n'],1,right,['0'],6,42,[-0.08793236],100,44,hard,plus,dotcolour,beta,,,47,18,V,R,
227,101,17,5,1,27,53,716,['n'],1,right,['0'],6,85,[-0.05027404],100,53,easy,plus,dotcolour,beta,,,47,18,V,R,
228,102,18,5,1,44,36,600,['c'],1,left,['0'],6,90,[0.07058788],100,44,hard,plus,dotcolour,beta,,,47,18,V,R,
229,103,19,5,1,53,27,449,['n'],0,left,['1'],1,958,[0.13321168],19,53,easy,plus,dotcolour,beta,,,47,18,V,R,
230,104,20,5,1,44,36,1433,['c'],1,left,['0'],6,1191,[0.03871174],83,44,hard,plus,dotcolour,beta,,,47,18,V,R,
231,105,21,5,1,44,36,850,['c'],1,left,['0'],6,46,[0.07266401],100,44,hard,plus,dotcolour,beta,,,47,18,V,R,
232,106,22,5,1,36,44,567,['n'],1,right,['0'],6,31,[-0.06943413],100,44,hard,plus,dotcolour,beta,,,47,18,V,R,
233,107,23,5,1,33,47,650,['n'],1,right,['0'],6,37,[-0.0539673],100,47,medium,plus,dotcolour,beta,,,47,18,V,R,
234,108,24,5,1,33,47,617,['n'],1,right,['0'],6,68,[-0.0796506],100,47,medium,plus,dotcolour,beta,,,47,18,V,R,
235,109,25,5,1,36,44,599,['n'],1,right,['0'],6,91,[-0.13205773],100,44,hard,plus,dotcolour,beta,,,47,18,V,R,
236,110,26,5,1,47,33,634,['c'],1,left,['0'],6,63,[0.11816893],100,47,medium,plus,dotcolour,beta,,,47,18,V,R,
237,111,27,5,1,33,47,866,['n'],1,right,['0'],6,100,[-0.08871521],100,47,medium,plus,dotcolour,beta,,,47,18,V,R,
238,112,28,5,1,53,27,617,['c'],1,left,['0'],6,24,[0.09096566],100,53,easy,plus,dotcolour,beta,,,47,18,V,R,
239,113,29,5,1,53,27,467,['c'],1,left,['0'],6,37,[0.04627821],100,53,easy,plus,dotcolour,beta,,,47,18,V,R,
240,114,30,5,1,53,27,550,['c'],1,left,['0'],6,24,[0.07029715],100,53,easy,plus,dotcolour,beta,,,47,18,V,R,
241,115,31,5,1,27,53,466,['n'],1,right,['0'],6,46,[-0.09141697],100,53,easy,plus,dotcolour,beta,,,47,18,V,R,
242,116,32,5,1,33,47,550,['n'],1,right,['0'],6,63,[-0.01348497],99,47,medium,plus,dotcolour,beta,,,47,18,V,R,
243,117,33,5,1,33,47,519,['c'],0,right,['0'],6,57,[0.0917458],100,47,medium,plus,dotcolour,beta,,,47,18,V,R,
244,118,34,5,1,53,27,633,['n'],0,left,['0'],6,638,[0.12363088],18,53,easy,plus,dotcolour,beta,,,47,18,V,R,
245,119,35,5,1,33,47,766,['n'],1,right,['0'],6,55,[-0.06061433],100,47,medium,plus,dotcolour,beta,,,47,18,V,R,
246,120,36,5,1,36,44,683,['c'],0,right,['0'],6,59,[0.07064986],100,44,hard,plus,dotcolour,beta,,,47,18,V,R,
247,121,37,5,1,53,27,549,['c'],1,left,['0'],6,44,[0.05134036],100,53,easy,plus,dotcolour,beta,,,47,18,V,R,
248,122,38,5,1,36,44,550,['c'],0,right,['0'],6,141,[0.01886564],97,44,hard,plus,dotcolour,beta,,,47,18,V,R,
249,123,39,5,1,36,44,784,['n'],1,right,['0'],6,82,[-0.08902869],100,44,hard,plus,dotcolour,beta,,,47,18,V,R,
250,124,40,5,1,47,33,683,['c'],1,left,['0'],6,44,[0.08839192],100,47,medium,plus,dotcolour,beta,,,47,18,V,R,
251,125,41,5,1,47,33,399,['c'],1,left,['0'],6,43,[0.05134452],100,47,medium,plus,dotcolour,beta,,,47,18,V,R,
252,0,0,6,2,53,27,602,['c'],1,left,['0'],6,39,[0.10175381],99,53,easy,minus,dotcolour,beta,,,47,18,V,R,
253,1,1,6,2,36,44,551,['n'],1,right,['0'],6,57,[-0.08046888],87,44,hard,minus,dotcolour,beta,,,47,18,V,R,
254,2,2,6,2,36,44,466,['n'],1,right,['0'],6,53,[-0.08843697],93,44,hard,minus,dotcolour,beta,,,47,18,V,R,
255,3,3,6,2,27,53,533,['n'],1,right,['0'],6,95,[-0.09877171],93,53,easy,minus,dotcolour,beta,,,47,18,V,R,
256,4,4,6,2,27,53,500,['n'],1,right,['0'],6,89,[-0.06482508],64,53,easy,minus,dotcolour,beta,,,47,18,V,R,
257,5,5,6,2,53,27,683,['c'],1,left,['0'],6,67,[0.08573999],89,53,easy,minus,dotcolour,beta,,,47,18,V,R,
258,6,6,6,2,47,33,416,['c'],1,left,['0'],6,81,[0.01995028],10,47,medium,minus,dotcolour,beta,,,47,18,V,R,
259,7,7,6,2,33,47,567,['n'],1,right,['0'],6,49,[-0.06244797],64,47,medium,minus,dotcolour,beta,,,47,18,V,R,
260,8,8,6,2,27,53,550,['n'],1,right,['0'],6,42,[-0.05588785],51,53,easy,minus,dotcolour,beta,,,47,18,V,R,
261,9,9,6,2,44,36,483,['n'],0,left,['0'],6,46,[-0.06391945],67,44,hard,minus,dotcolour,beta,,,47,18,V,R,
262,10,10,6,2,33,47,533,['n'],1,right,['0'],6,24,[-0.07767215],93,47,medium,minus,dotcolour,beta,,,47,18,V,R,
263,11,11,6,2,36,44,417,['c'],0,right,['0'],6,16,[0.07898378],97,44,hard,minus,dotcolour,beta,,,47,18,V,R,
264,12,12,6,2,27,53,366,['n'],1,right,['0'],6,83,[-0.10817942],96,53,easy,minus,dotcolour,beta,,,47,18,V,R,
265,13,13,6,2,44,36,483,['n'],0,left,['0'],6,93,[-0.09874037],93,44,hard,minus,dotcolour,beta,,,47,18,V,R,
266,14,14,6,2,53,27,533,['c'],1,left,['0'],6,29,[0.08543803],96,53,easy,minus,dotcolour,beta,,,47,18,V,R,
267,15,15,6,2,53,27,450,['c'],1,left,['0'],6,83,[0.06864368],69,53,easy,minus,dotcolour,beta,,,47,18,V,R,
268,16,16,6,2,53,27,649,['c'],1,left,['0'],6,271,[0.06307042],56,53,easy,minus,dotcolour,beta,,,47,18,V,R,
269,17,17,6,2,47,33,1184,['c'],1,left,['0'],6,110,[0.04633187],38,47,medium,minus,dotcolour,beta,,,47,18,V,R,
270,18,18,6,2,47,33,583,['c'],1,left,['0'],6,116,[0.07884527],77,47,medium,minus,dotcolour,beta,,,47,18,V,R,
271,19,19,6,2,36,44,533,['c'],0,right,['0'],6,83,[0.07809668],80,44,hard,minus,dotcolour,beta,,,47,18,V,R,
272,20,20,6,2,44,36,584,['c'],1,left,['0'],6,73,[0.09504814],93,44,hard,minus,dotcolour,beta,,,47,18,V,R,
273,21,21,6,2,27,53,384,['c'],0,right,['0'],6,272,[0.18404926],99,53,easy,minus,dotcolour,beta,,,47,18,V,R,
274,22,22,6,2,33,47,1517,['c'],0,right,['9'],5,154,[0.05661563],51,47,medium,minus,dotcolour,beta,,,47,18,V,R,
275,23,23,6,2,53,27,850,['c'],1,left,['0'],6,91,[0.07790501],79,53,easy,minus,dotcolour,beta,,,47,18,V,R,
276,24,24,6,2,44,36,635,['c'],1,left,['0'],6,71,[0.09239468],92,44,hard,minus,dotcolour,beta,,,47,18,V,R,
277,25,25,6,2,33,47,800,['n'],1,right,['0'],6,110,[-0.07528582],74,47,medium,minus,dotcolour,beta,,,47,18,V,R,
278,26,26,6,2,44,36,500,['c'],1,left,['0'],6,78,[0.07264562],75,44,hard,minus,dotcolour,beta,,,47,18,V,R,
279,27,27,6,2,47,33,516,['n'],0,left,['0'],6,64,[-0.05504869],49,47,medium,minus,dotcolour,beta,,,47,18,V,R,
280,28,28,6,2,47,33,616,['c'],1,left,['0'],6,78,[0.09952177],94,47,medium,minus,dotcolour,beta,,,47,18,V,R,
281,29,29,6,2,36,44,984,['n'],1,right,['0'],6,60,[-0.07904195],85,44,hard,minus,dotcolour,beta,,,47,18,V,R,
282,30,30,6,2,27,53,617,['n'],1,right,['0'],6,51,[-0.07505496],83,53,easy,minus,dotcolour,beta,,,47,18,V,R,
283,31,31,6,2,33,47,600,['c'],0,right,['0'],6,146,[0.01933313],15,47,medium,minus,dotcolour,beta,,,47,18,V,R,
284,32,32,6,2,36,44,767,['n'],1,right,['0'],6,6,[-0.07802069],99,44,hard,minus,dotcolour,beta,,,47,18,V,R,
285,33,33,6,2,53,27,783,['c'],1,left,['0'],6,280,[0.17755861],98,53,easy,minus,dotcolour,beta,,,47,18,V,R,
286,34,34,6,2,33,47,1050,['c'],0,right,['9'],5,116,[0.12961403],98,47,medium,minus,dotcolour,beta,,,47,18,V,R,
287,35,35,6,2,44,36,650,['c'],1,left,['9'],5,103,[0.06543009],64,44,hard,minus,dotcolour,beta,,,47,18,V,R,
288,36,36,6,2,47,33,667,['c'],1,left,['0'],6,218,[0.14550156],97,47,medium,minus,dotcolour,beta,,,47,18,V,R,
289,37,37,6,2,44,36,1449,['n'],0,left,['9'],5,121,[-0.05998664],56,44,hard,minus,dotcolour,beta,,,47,18,V,R,
290,38,38,6,2,36,44,950,['n'],1,right,['0'],6,151,[0.00661546],5,44,hard,minus,dotcolour,beta,,,47,18,V,R,
291,39,39,6,2,27,53,683,['n'],1,right,['0'],6,79,[-0.0414587],29,53,easy,minus,dotcolour,beta,,,47,18,V,R,
292,40,40,6,2,33,47,1232,['n'],1,right,['0'],6,68,[-0.0687621],71,47,medium,minus,dotcolour,beta,,,47,18,V,R,
293,41,41,6,2,47,33,1267,['c'],1,left,['0'],6,176,[0.06916569],64,47,medium,minus,dotcolour,beta,,,47,18,V,R,
294,42,0,7,2,47,33,1018,['c'],1,left,['0'],6,98,[0.09244997],89,47,medium,minus,dotcolour,beta,,,47,18,V,R,
295,43,1,7,2,47,33,949,['c'],1,left,['0'],6,25,[0.05879422],59,47,medium,minus,dotcolour,beta,,,47,18,V,R,
296,44,2,7,2,47,33,1417,['c'],1,left,['9'],5,65,[0.06353019],64,47,medium,minus,dotcolour,beta,,,47,18,V,R,
297,45,3,7,2,36,44,583,['n'],1,right,['0'],6,8,[-0.06242763],80,44,hard,minus,dotcolour,beta,,,47,18,V,R,
298,46,4,7,2,36,44,1799,['c'],0,right,['9'],5,73,[0.04550942],34,44,hard,minus,dotcolour,beta,,,47,18,V,R,
299,47,5,7,2,53,27,800,['n'],0,left,['1'],1,712,[0.02369843],16,53,easy,minus,dotcolour,beta,,,47,18,V,R,
300,48,6,7,2,36,44,734,['n'],1,right,['0'],6,95,[-0.10125882],94,44,hard,minus,dotcolour,beta,,,47,18,V,R,
301,49,7,7,2,53,27,901,['c'],1,left,['0'],6,80,[0.0262571],13,53,easy,minus,dotcolour,beta,,,47,18,V,R,
302,50,8,7,2,53,27,1033,['c'],1,left,['0'],6,117,[0.08916949],85,53,easy,minus,dotcolour,beta,,,47,18,V,R,
303,51,9,7,2,53,27,984,['c'],1,left,['0'],6,74,[0.08472693],87,53,easy,minus,dotcolour,beta,,,47,18,V,R,
304,52,10,7,2,27,53,1499,['c'],0,right,['9'],5,60,[0.06325447],64,53,easy,minus,dotcolour,beta,,,47,18,V,R,
305,53,11,7,2,44,36,967,['c'],1,left,['0'],6,37,[0.04156665],21,44,hard,minus,dotcolour,beta,,,47,18,V,R,
306,54,12,7,2,53,27,1633,['c'],1,left,['0'],6,99,[0.03814556],27,53,easy,minus,dotcolour,beta,,,47,18,V,R,
307,55,13,7,2,44,36,2017,['c'],1,left,['9'],5,48,[0.11062785],99,44,hard,minus,dotcolour,beta,,,47,18,V,R,
308,56,14,7,2,27,53,633,['n'],1,right,['0'],6,29,[-0.08180654],94,53,easy,minus,dotcolour,beta,,,47,18,V,R,
309,57,15,7,2,47,33,683,['c'],1,left,['9'],5,74,[0.03599392],22,47,medium,minus,dotcolour,beta,,,47,18,V,R,
310,58,16,7,2,27,53,667,['n'],1,right,['0'],6,94,[-0.07504565],76,53,easy,minus,dotcolour,beta,,,47,18,V,R,
311,59,17,7,2,27,53,501,['n'],1,right,['0'],6,143,[-0.08644248],81,53,easy,minus,dotcolour,beta,,,47,18,V,R,
312,60,18,7,2,47,33,650,['c'],1,left,['9'],5,96,[0.06429973],62,47,medium,minus,dotcolour,beta,,,47,18,V,R,
313,61,19,7,2,33,47,533,['c'],0,right,['0'],6,136,[0.05628253],51,47,medium,minus,dotcolour,beta,,,47,18,V,R,
314,62,20,7,2,27,53,566,['n'],1,right,['0'],6,86,[-0.08538764],86,53,easy,minus,dotcolour,beta,,,47,18,V,R,
315,63,21,7,2,47,33,717,['c'],1,left,['0'],6,207,[0.14323724],97,47,medium,minus,dotcolour,beta,,,47,18,V,R,
316,64,22,7,2,33,47,616,['n'],1,right,['0'],6,1087,[-0.10312887],69,47,medium,minus,dotcolour,beta,,,47,18,V,R,
317,65,23,7,2,36,44,666,['n'],1,right,['0'],6,50,[-0.06079667],60,44,hard,minus,dotcolour,beta,,,47,18,V,R,
318,66,24,7,2,53,27,650,['c'],1,left,['9'],5,135,[0.07808995],75,53,easy,minus,dotcolour,beta,,,47,18,V,R,
319,67,25,7,2,44,36,933,['c'],1,left,['0'],6,94,[0.0691419],69,44,hard,minus,dotcolour,beta,,,47,18,V,R,
320,68,26,7,2,44,36,1067,['c'],1,left,['0'],6,1024,[0.12359856],77,44,hard,minus,dotcolour,beta,,,47,18,V,R,
321,69,27,7,2,27,53,666,['n'],1,right,['0'],6,998,[-0.19681602],93,53,easy,minus,dotcolour,beta,,,47,18,V,R,
322,70,28,7,2,27,53,517,['n'],1,right,['0'],6,131,[-0.11541315],95,53,easy,minus,dotcolour,beta,,,47,18,V,R,
323,71,29,7,2,33,47,584,['n'],1,right,['0'],6,111,[-0.08315071],82,47,medium,minus,dotcolour,beta,,,47,18,V,R,
324,72,30,7,2,44,36,550,['n'],0,left,['0'],6,110,[-0.08756043],85,44,hard,minus,dotcolour,beta,,,47,18,V,R,
325,73,31,7,2,33,47,1001,['n'],1,right,['0'],6,274,[-0.02391944],25,47,medium,minus,dotcolour,beta,,,47,18,V,R,
326,74,32,7,2,44,36,1500,['c'],1,left,['0'],6,509,[0.01612743],27,44,hard,minus,dotcolour,beta,,,47,18,V,R,
327,75,33,7,2,33,47,1184,['n'],1,right,['9'],5,114,[-0.03862449],29,47,medium,minus,dotcolour,beta,,,47,18,V,R,
328,76,34,7,2,47,33,1200,['c'],1,left,['9'],5,127,[0.1061288],93,47,medium,minus,dotcolour,beta,,,47,18,V,R,
329,77,35,7,2,33,47,1300,['n'],1,right,['0'],6,87,[-0.08701963],87,47,medium,minus,dotcolour,beta,,,47,18,V,R,
330,78,36,7,2,36,44,600,['n'],1,right,['0'],6,109,[-0.05800526],53,44,hard,minus,dotcolour,beta,,,47,18,V,R,
331,79,37,7,2,53,27,833,['c'],1,left,['0'],6,288,[0.06868835],61,53,easy,minus,dotcolour,beta,,,47,18,V,R,
332,80,38,7,2,36,44,966,['c'],0,right,['9'],5,96,[0.09874882],92,44,hard,minus,dotcolour,beta,,,47,18,V,R,
333,81,39,7,2,33,47,751,['n'],1,right,['0'],6,119,[-0.14829906],99,47,medium,minus,dotcolour,beta,,,47,18,V,R,
334,82,40,7,2,44,36,818,['c'],1,left,['0'],6,75,[0.07181672],74,44,hard,minus,dotcolour,beta,,,47,18,V,R,
335,83,41,7,2,36,44,533,['n'],1,right,['0'],6,123,[-0.1727602],100,44,hard,minus,dotcolour,beta,,,47,18,V,R,
336,84,0,8,2,27,53,1101,['n'],1,right,['0'],6,83,[-0.09174438],91,53,easy,minus,dotcolour,beta,,,47,18,V,R,
337,85,1,8,2,53,27,817,['c'],1,left,['0'],6,32,[0.08836296],96,53,easy,minus,dotcolour,beta,,,47,18,V,R,
338,86,2,8,2,47,33,601,['n'],0,left,['0'],6,96,[-0.068644],68,47,medium,minus,dotcolour,beta,,,47,18,V,R,
339,87,3,8,2,27,53,518,['n'],1,right,['0'],6,96,[-0.12031921],98,53,easy,minus,dotcolour,beta,,,47,18,V,R,
340,88,4,8,2,47,33,717,['c'],1,left,['0'],6,42,[0.09541316],97,47,medium,minus,dotcolour,beta,,,47,18,V,R,
341,89,5,8,2,53,27,634,['c'],1,left,['0'],6,15,[0.07178523],92,53,easy,minus,dotcolour,beta,,,47,18,V,R,
342,90,6,8,2,33,47,466,['n'],1,right,['0'],6,101,[-0.07271691],73,47,medium,minus,dotcolour,beta,,,47,18,V,R,
343,91,7,8,2,53,27,484,['c'],1,left,['0'],6,39,[0.05975992],59,53,easy,minus,dotcolour,beta,,,47,18,V,R,
344,92,8,8,2,47,33,567,['c'],1,left,['0'],6,24,[0.0774495],93,47,medium,minus,dotcolour,beta,,,47,18,V,R,
345,93,9,8,2,44,36,1467,['c'],1,left,['0'],6,6,[0.08216821],100,44,hard,minus,dotcolour,beta,,,47,18,V,R,
346,94,10,8,2,33,47,617,['n'],1,right,['0'],6,94,[-0.0780662],79,47,medium,minus,dotcolour,beta,,,47,18,V,R,
347,95,11,8,2,47,33,634,['c'],1,left,['0'],6,74,[0.11485631],98,47,medium,minus,dotcolour,beta,,,47,18,V,R,
348,96,12,8,2,36,44,1268,['c'],0,right,['9'],5,94,[0.06851572],68,44,hard,minus,dotcolour,beta,,,47,18,V,R,
349,97,13,8,2,33,47,600,['n'],1,right,['0'],6,59,[-0.05644272],52,47,medium,minus,dotcolour,beta,,,47,18,V,R,
350,98,14,8,2,36,44,683,['c'],0,right,['0'],6,31,[0.08145341],93,44,hard,minus,dotcolour,beta,,,47,18,V,R,
351,99,15,8,2,53,27,583,['c'],1,left,['0'],6,127,[0.01668382],12,53,easy,minus,dotcolour,beta,,,47,18,V,R,
352,100,16,8,2,27,53,767,['n'],1,right,['0'],6,36,[-0.06187561],65,53,easy,minus,dotcolour,beta,,,47,18,V,R,
353,101,17,8,2,44,36,684,['c'],1,left,['0'],6,201,[0.04039702],35,44,hard,minus,dotcolour,beta,,,47,18,V,R,
354,102,18,8,2,47,33,1850,['c'],1,left,['8'],4,57,[0.07912329],86,47,medium,minus,dotcolour,beta,,,47,18,V,R,
355,103,19,8,2,44,36,1750,['c'],1,left,['9'],5,137,[0.07809419],75,44,hard,minus,dotcolour,beta,,,47,18,V,R,
356,104,20,8,2,36,44,633,['n'],1,right,['0'],6,76,[-0.12632472],99,44,hard,minus,dotcolour,beta,,,47,18,V,R,
357,105,21,8,2,36,44,617,['n'],1,right,['0'],6,81,[-0.07231229],74,44,hard,minus,dotcolour,beta,,,47,18,V,R,
358,106,22,8,2,44,36,584,['n'],0,left,['1'],1,776,[-0.02428835],35,44,hard,minus,dotcolour,beta,,,47,18,V,R,
359,107,23,8,2,47,33,1334,['c'],1,left,['0'],6,85,[0.07917447],81,47,medium,minus,dotcolour,beta,,,47,18,V,R,
360,108,24,8,2,44,36,650,['n'],0,left,['0'],6,49,[-0.04156362],24,44,hard,minus,dotcolour,beta,,,47,18,V,R,
361,109,25,8,2,33,47,866,['c'],0,right,['9'],5,101,[0.1012744],93,47,medium,minus,dotcolour,beta,,,47,18,V,R,
362,110,26,8,2,44,36,750,['n'],0,left,['0'],6,69,[-0.06753444],69,44,hard,minus,dotcolour,beta,,,47,18,V,R,
363,111,27,8,2,36,44,633,['n'],1,right,['0'],6,18,[-0.06186367],70,44,hard,minus,dotcolour,beta,,,47,18,V,R,
364,112,28,8,2,36,44,617,['n'],1,right,['0'],6,50,[-0.1081259],99,44,hard,minus,dotcolour,beta,,,47,18,V,R,
365,113,29,8,2,33,47,582,['n'],1,right,['0'],6,90,[-0.06756744],67,47,medium,minus,dotcolour,beta,,,47,18,V,R,
366,114,30,8,2,27,53,600,['n'],1,right,['0'],6,63,[-0.06629701],68,53,easy,minus,dotcolour,beta,,,47,18,V,R,
367,115,31,8,2,27,53,600,['n'],1,right,['0'],6,159,[-0.08841638],82,53,easy,minus,dotcolour,beta,,,47,18,V,R,
368,116,32,8,2,33,47,1017,['c'],0,right,['9'],5,56,[0.09121345],94,47,medium,minus,dotcolour,beta,,,47,18,V,R,
369,117,33,8,2,53,27,934,['c'],1,left,['9'],5,57,[0.11352103],99,53,easy,minus,dotcolour,beta,,,47,18,V,R,
370,118,34,8,2,44,36,800,['c'],1,left,['9'],5,48,[0.04736449],34,44,hard,minus,dotcolour,beta,,,47,18,V,R,
371,119,35,8,2,36,44,816,['n'],1,right,['0'],6,86,[-0.06464021],64,44,hard,minus,dotcolour,beta,,,47,18,V,R,
372,120,36,8,2,53,27,850,['c'],1,left,['9'],5,995,[0.14487069],83,53,easy,minus,dotcolour,beta,,,47,18,V,R,
373,121,37,8,2,27,53,651,['n'],1,right,['0'],6,74,[-0.08100471],84,53,easy,minus,dotcolour,beta,,,47,18,V,R,
374,122,38,8,2,27,53,801,['n'],1,right,['0'],6,808,[-0.36398545],100,53,easy,minus,dotcolour,beta,,,47,18,V,R,
375,123,39,8,2,53,27,650,['c'],1,left,['0'],6,95,[0.1083501],96,53,easy,minus,dotcolour,beta,,,47,18,V,R,
376,124,40,8,2,47,33,783,['c'],1,left,['0'],6,53,[0.09478643],96,47,medium,minus,dotcolour,beta,,,47,18,V,R,
377,125,41,8,2,33,47,700,['n'],1,right,['0'],6,48,[-0.10393671],98,47,medium,minus,dotcolour,beta,,,47,18,V,R,
378,0,0,9,3,36,44,901,['n'],1,right,['8'],4,97,[-0.09124827],100,44,hard,plus,dotcolour,beta,,,47,18,V,R,
379,1,1,9,3,36,44,534,['n'],1,right,['0'],6,105,[-0.08807575],100,44,hard,plus,dotcolour,beta,,,47,18,V,R,
380,2,2,9,3,36,44,618,['n'],1,right,['0'],6,126,[-0.0693194],100,44,hard,plus,dotcolour,beta,,,47,18,V,R,
381,3,3,9,3,27,53,499,['n'],1,right,['0'],6,86,[-0.02158363],99,53,easy,plus,dotcolour,beta,,,47,18,V,R,
382,4,4,9,3,44,36,617,['c'],1,left,['0'],6,99,[0.04155673],100,44,hard,plus,dotcolour,beta,,,47,18,V,R,
383,5,5,9,3,27,53,366,['n'],1,right,['0'],6,33,[-0.06532482],100,53,easy,plus,dotcolour,beta,,,47,18,V,R,
384,6,6,9,3,44,36,517,['c'],1,left,['0'],6,61,[0.05209517],100,44,hard,plus,dotcolour,beta,,,47,18,V,R,
385,7,7,9,3,47,33,484,['n'],0,left,['0'],6,72,[-0.07310038],100,47,medium,plus,dotcolour,beta,,,47,18,V,R,
386,8,8,9,3,27,53,433,['n'],1,right,['0'],6,109,[-0.07569278],100,53,easy,plus,dotcolour,beta,,,47,18,V,R,
387,9,9,9,3,33,47,450,['n'],1,right,['0'],6,56,[-0.05136079],100,47,medium,plus,dotcolour,beta,,,47,18,V,R,
388,10,10,9,3,33,47,467,['n'],1,right,['0'],6,69,[-0.03273638],100,47,medium,plus,dotcolour,beta,,,47,18,V,R,
389,11,11,9,3,53,27,500,['c'],1,left,['0'],6,776,[0.1109747],97,53,easy,plus,dotcolour,beta,,,47,18,V,R,
390,12,12,9,3,33,47,499,['n'],1,right,['0'],6,30,[-0.06295131],100,47,medium,plus,dotcolour,beta,,,47,18,V,R,
391,13,13,9,3,47,33,749,['c'],1,left,['0'],6,63,[0.06713104],100,47,medium,plus,dotcolour,beta,,,47,18,V,R,
392,14,14,9,3,44,36,517,['c'],1,left,['0'],6,74,[0.06204535],100,44,hard,plus,dotcolour,beta,,,47,18,V,R,
393,15,15,9,3,47,33,400,['c'],1,left,['0'],6,48,[0.11307829],100,47,medium,plus,dotcolour,beta,,,47,18,V,R,
394,16,16,9,3,47,33,600,['c'],1,left,['0'],6,167,[0.0471992],99,47,medium,plus,dotcolour,beta,,,47,18,V,R,
395,17,17,9,3,53,27,434,['c'],1,left,['0'],6,56,[0.03799832],100,53,easy,plus,dotcolour,beta,,,47,18,V,R,
396,18,18,9,3,44,36,450,['c'],1,left,['0'],6,70,[0.0845224],100,44,hard,plus,dotcolour,beta,,,47,18,V,R,
397,19,19,9,3,53,27,533,['c'],1,left,['0'],6,95,[0.14013877],100,53,easy,plus,dotcolour,beta,,,47,18,V,R,
398,20,20,9,3,33,47,684,['n'],1,right,['0'],6,41,[-0.09407073],100,47,medium,plus,dotcolour,beta,,,47,18,V,R,
399,21,21,9,3,53,27,616,['c'],1,left,['0'],6,104,[0.09476754],100,53,easy,plus,dotcolour,beta,,,47,18,V,R,
400,22,22,9,3,27,53,517,['n'],1,right,['0'],6,64,[-0.09035593],100,53,easy,plus,dotcolour,beta,,,47,18,V,R,
401,23,23,9,3,36,44,567,['n'],1,right,['0'],6,48,[-0.07240332],100,44,hard,plus,dotcolour,beta,,,47,18,V,R,
402,24,24,9,3,44,36,534,['c'],1,left,['0'],6,106,[0.07666952],100,44,hard,plus,dotcolour,beta,,,47,18,V,R,
403,25,25,9,3,33,47,684,['n'],1,right,['0'],6,660,[-0.01589947],83,47,medium,plus,dotcolour,beta,,,47,18,V,R,
404,26,26,9,3,53,27,667,['c'],1,left,['0'],6,96,[0.08468165],100,53,easy,plus,dotcolour,beta,,,47,18,V,R,
405,27,27,9,3,27,53,450,['n'],1,right,['0'],6,75,[-0.11977538],100,53,easy,plus,dotcolour,beta,,,47,18,V,R,
406,28,28,9,3,27,53,500,['n'],1,right,['0'],6,45,[-0.06773704],100,53,easy,plus,dotcolour,beta,,,47,18,V,R,
407,29,29,9,3,36,44,400,['c'],0,right,['0'],6,244,[0.10617917],100,44,hard,plus,dotcolour,beta,,,47,18,V,R,
408,30,30,9,3,47,33,617,['c'],1,left,['0'],6,91,[0.08257681],100,47,medium,plus,dotcolour,beta,,,47,18,V,R,
409,31,31,9,3,27,53,533,['n'],1,right,['0'],6,44,[-0.09968212],100,53,easy,plus,dotcolour,beta,,,47,18,V,R,
410,32,32,9,3,33,47,451,['n'],1,right,['0'],6,16,[-0.07438138],100,47,medium,plus,dotcolour,beta,,,47,18,V,R,
411,33,33,9,3,47,33,517,['c'],1,left,['0'],6,36,[0.0502252],100,47,medium,plus,dotcolour,beta,,,47,18,V,R,
412,34,34,9,3,44,36,650,['n'],0,left,['0'],6,74,[-0.04196667],100,44,hard,plus,dotcolour,beta,,,47,18,V,R,
413,35,35,9,3,36,44,533,['n'],1,right,['0'],6,51,[-0.07843863],100,44,hard,plus,dotcolour,beta,,,47,18,V,R,
414,36,36,9,3,33,47,566,['n'],1,right,['0'],6,12,[-0.09291273],100,47,medium,plus,dotcolour,beta,,,47,18,V,R,
415,37,37,9,3,53,27,384,['c'],1,left,['0'],6,53,[0.08548899],100,53,easy,plus,dotcolour,beta,,,47,18,V,R,
416,38,38,9,3,36,44,434,['n'],1,right,['0'],6,27,[-0.09259511],100,44,hard,plus,dotcolour,beta,,,47,18,V,R,
417,39,39,9,3,47,33,317,['c'],1,left,['0'],6,23,[0.07866641],100,47,medium,plus,dotcolour,beta,,,47,18,V,R,
418,40,40,9,3,44,36,933,['n'],0,left,['0'],6,26,[-0.05157245],100,44,hard,plus,dotcolour,beta,,,47,18,V,R,
419,41,41,9,3,53,27,467,['c'],1,left,['0'],6,47,[0.08000438],100,53,easy,plus,dotcolour,beta,,,47,18,V,R,
420,42,0,10,3,27,53,618,['n'],1,right,['0'],6,12,[-0.07646765],100,53,easy,plus,dotcolour,beta,,,47,18,V,R,
421,43,1,10,3,27,53,383,['n'],1,right,['0'],6,21,[-0.07762599],100,53,easy,plus,dotcolour,beta,,,47,18,V,R,
422,44,2,10,3,33,47,400,['n'],1,right,['0'],6,14,[-0.07773389],100,47,medium,plus,dotcolour,beta,,,47,18,V,R,
423,45,3,10,3,36,44,484,['n'],1,right,['0'],6,19,[-0.08013234],100,44,hard,plus,dotcolour,beta,,,47,18,V,R,
424,46,4,10,3,53,27,350,['c'],1,left,['0'],6,38,[0.07014471],100,53,easy,plus,dotcolour,beta,,,47,18,V,R,
425,47,5,10,3,36,44,533,['n'],1,right,['0'],6,48,[-0.0933162],100,44,hard,plus,dotcolour,beta,,,47,18,V,R,
426,48,6,10,3,36,44,434,['n'],1,right,['0'],6,47,[-0.1262875],100,44,hard,plus,dotcolour,beta,,,47,18,V,R,
427,49,7,10,3,47,33,384,['c'],1,left,['0'],6,39,[0.09807135],100,47,medium,plus,dotcolour,beta,,,47,18,V,R,
428,50,8,10,3,36,44,501,['n'],1,right,['0'],6,19,[-0.07274898],100,44,hard,plus,dotcolour,beta,,,47,18,V,R,
429,51,9,10,3,44,36,317,['c'],1,left,['0'],6,94,[0.08032759],100,44,hard,plus,dotcolour,beta,,,47,18,V,R,
430,52,10,10,3,53,27,452,['c'],1,left,['0'],6,98,[0.04108684],100,53,easy,plus,dotcolour,beta,,,47,18,V,R,
431,53,11,10,3,47,33,416,['n'],0,left,['0'],6,423,[-0.0473204],95,47,medium,plus,dotcolour,beta,,,47,18,V,R,
432,54,12,10,3,47,33,499,['c'],1,left,['0'],6,163,[0.10103534],100,47,medium,plus,dotcolour,beta,,,47,18,V,R,
433,55,13,10,3,27,53,434,['n'],1,right,['0'],6,20,[-0.07432354],100,53,easy,plus,dotcolour,beta,,,47,18,V,R,
434,56,14,10,3,44,36,567,['c'],1,left,['0'],6,95,[0.06640862],100,44,hard,plus,dotcolour,beta,,,47,18,V,R,
435,57,15,10,3,53,27,484,['c'],1,left,['0'],6,104,[0.0991555],100,53,easy,plus,dotcolour,beta,,,47,18,V,R,
436,58,16,10,3,47,33,350,['c'],1,left,['0'],6,48,[0.11726232],100,47,medium,plus,dotcolour,beta,,,47,18,V,R,
437,59,17,10,3,44,36,767,['c'],1,left,['0'],6,40,[0.08682903],100,44,hard,plus,dotcolour,beta,,,47,18,V,R,
438,60,18,10,3,33,47,600,['c'],0,right,['0'],6,104,[0.02196974],99,47,medium,plus,dotcolour,beta,,,47,18,V,R,
439,61,19,10,3,36,44,534,['n'],1,right,['0'],6,720,[-0.09441641],96,44,hard,plus,dotcolour,beta,,,47,18,V,R,
440,62,20,10,3,44,36,734,['c'],1,left,['0'],6,86,[0.13852963],100,44,hard,plus,dotcolour,beta,,,47,18,V,R,
441,63,21,10,3,47,33,484,['c'],1,left,['0'],6,105,[0.14355223],100,47,medium,plus,dotcolour,beta,,,47,18,V,R,
442,64,22,10,3,33,47,434,['n'],1,right,['0'],6,93,[-0.0569394],100,47,medium,plus,dotcolour,beta,,,47,18,V,R,
443,65,23,10,3,53,27,951,['c'],1,left,['0'],6,76,[0.08616594],100,53,easy,plus,dotcolour,beta,,,47,18,V,R,
444,66,24,10,3,33,47,700,['n'],1,right,['0'],6,86,[-0.06384951],100,47,medium,plus,dotcolour,beta,,,47,18,V,R,
445,67,25,10,3,27,53,533,['n'],1,right,['0'],6,47,[-0.06778453],100,53,easy,plus,dotcolour,beta,,,47,18,V,R,
446,68,26,10,3,27,53,600,['n'],1,right,['0'],6,46,[-0.07473246],100,53,easy,plus,dotcolour,beta,,,47,18,V,R,
447,69,27,10,3,27,53,500,['n'],1,right,['0'],6,26,[-0.08751117],100,53,easy,plus,dotcolour,beta,,,47,18,V,R,
448,70,28,10,3,53,27,517,['c'],1,left,['0'],6,85,[0.07730623],100,53,easy,plus,dotcolour,beta,,,47,18,V,R,
449,71,29,10,3,53,27,550,['c'],1,left,['0'],6,117,[0.10164434],100,53,easy,plus,dotcolour,beta,,,47,18,V,R,
450,72,30,10,3,47,33,849,['c'],1,left,['0'],6,40,[0.09216883],100,47,medium,plus,dotcolour,beta,,,47,18,V,R,
451,73,31,10,3,33,47,567,['n'],1,right,['0'],6,98,[-0.0501943],100,47,medium,plus,dotcolour,beta,,,47,18,V,R,
452,74,32,10,3,44,36,750,['c'],1,left,['0'],6,112,[0.10996232],100,44,hard,plus,dotcolour,beta,,,47,18,V,R,
453,75,33,10,3,27,53,533,['n'],1,right,['0'],6,72,[-0.07431295],100,53,easy,plus,dotcolour,beta,,,47,18,V,R,
454,76,34,10,3,44,36,550,['c'],1,left,['0'],6,56,[0.06808772],100,44,hard,plus,dotcolour,beta,,,47,18,V,R,
455,77,35,10,3,44,36,668,['c'],1,left,['0'],6,93,[0.04567946],100,44,hard,plus,dotcolour,beta,,,47,18,V,R,
456,78,36,10,3,53,27,550,['c'],1,left,['0'],6,93,[0.07835452],100,53,easy,plus,dotcolour,beta,,,47,18,V,R,
457,79,37,10,3,33,47,717,['n'],1,right,['0'],6,149,[0.02145322],83,47,medium,plus,dotcolour,beta,,,47,18,V,R,
458,80,38,10,3,36,44,733,['n'],1,right,['0'],6,51,[-0.10565076],100,44,hard,plus,dotcolour,beta,,,47,18,V,R,
459,81,39,10,3,47,33,784,['c'],1,left,['0'],6,99,[0.11920746],100,47,medium,plus,dotcolour,beta,,,47,18,V,R,
460,82,40,10,3,36,44,650,['c'],0,right,['0'],6,95,[0.04430643],100,44,hard,plus,dotcolour,beta,,,47,18,V,R,
461,83,41,10,3,33,47,716,['n'],1,right,['0'],6,119,[-0.07372996],100,47,medium,plus,dotcolour,beta,,,47,18,V,R,
462,84,0,11,3,27,53,616,['n'],1,right,['0'],6,24,[-0.08667772],100,53,easy,plus,dotcolour,beta,,,47,18,V,R,
463,85,1,11,3,47,33,534,['c'],1,left,['0'],6,139,[0.07178477],100,47,medium,plus,dotcolour,beta,,,47,18,V,R,
464,86,2,11,3,47,33,650,['c'],1,left,['0'],6,117,[0.14285922],100,47,medium,plus,dotcolour,beta,,,47,18,V,R,
465,87,3,11,3,27,53,500,['n'],1,right,['0'],6,93,[-0.11798255],100,53,easy,plus,dotcolour,beta,,,47,18,V,R,
466,88,4,11,3,27,53,467,['n'],1,right,['0'],6,112,[-0.08948694],100,53,easy,plus,dotcolour,beta,,,47,18,V,R,
467,89,5,11,3,47,33,584,['c'],1,left,['0'],6,77,[0.12532982],100,47,medium,plus,dotcolour,beta,,,47,18,V,R,
468,90,6,11,3,47,33,850,['n'],0,left,['0'],6,81,[-0.00936423],98,47,medium,plus,dotcolour,beta,,,47,18,V,R,
469,91,7,11,3,53,27,450,['c'],1,left,['0'],6,53,[0.08950392],100,53,easy,plus,dotcolour,beta,,,47,18,V,R,
470,92,8,11,3,53,27,501,['c'],1,left,['0'],6,65,[0.09152842],100,53,easy,plus,dotcolour,beta,,,47,18,V,R,
471,93,9,11,3,36,44,500,['n'],1,right,['0'],6,67,[-0.04245925],100,44,hard,plus,dotcolour,beta,,,47,18,V,R,
472,94,10,11,3,44,36,516,['c'],1,left,['0'],6,29,[0.06573901],100,44,hard,plus,dotcolour,beta,,,47,18,V,R,
473,95,11,11,3,36,44,550,['n'],1,right,['0'],6,63,[-0.12444679],100,44,hard,plus,dotcolour,beta,,,47,18,V,R,
474,96,12,11,3,53,27,433,['c'],1,left,['0'],6,37,[0.0905512],100,53,easy,plus,dotcolour,beta,,,47,18,V,R,
475,97,13,11,3,44,36,416,['c'],1,left,['0'],6,68,[0.04666731],100,44,hard,plus,dotcolour,beta,,,47,18,V,R,
476,98,14,11,3,47,33,634,['c'],1,left,['0'],6,74,[0.11782069],100,47,medium,plus,dotcolour,beta,,,47,18,V,R,
477,99,15,11,3,36,44,601,['c'],0,right,['0'],6,47,[0.0706836],100,44,hard,plus,dotcolour,beta,,,47,18,V,R,
478,100,16,11,3,27,53,417,['n'],1,right,['0'],6,126,[-0.13262178],100,53,easy,plus,dotcolour,beta,,,47,18,V,R,
479,101,17,11,3,47,33,449,['n'],0,left,['0'],6,16,[-0.0942994],100,47,medium,plus,dotcolour,beta,,,47,18,V,R,
480,102,18,11,3,47,33,484,['c'],1,left,['0'],6,37,[0.04021973],100,47,medium,plus,dotcolour,beta,,,47,18,V,R,
481,103,19,11,3,33,47,601,['n'],1,right,['0'],6,46,[-0.09087577],100,47,medium,plus,dotcolour,beta,,,47,18,V,R,
482,104,20,11,3,33,47,518,['c'],0,right,['0'],6,632,[-0.17224626],7,47,medium,plus,dotcolour,beta,,,47,18,V,R,
483,105,21,11,3,44,36,1100,['c'],1,left,['0'],6,37,[0.05449098],100,44,hard,plus,dotcolour,beta,,,47,18,V,R,
484,106,22,11,3,44,36,667,['c'],1,left,['0'],6,66,[0.09561981],100,44,hard,plus,dotcolour,beta,,,47,18,V,R,
485,107,23,11,3,33,47,500,['c'],0,right,['0'],6,68,[0.07035729],100,47,medium,plus,dotcolour,beta,,,47,18,V,R,
486,108,24,11,3,44,36,467,['c'],1,left,['0'],6,80,[0.06880567],100,44,hard,plus,dotcolour,beta,,,47,18,V,R,
487,109,25,11,3,36,44,601,['c'],0,right,['0'],6,70,[0.09729536],100,44,hard,plus,dotcolour,beta,,,47,18,V,R,
488,110,26,11,3,44,36,584,['c'],1,left,['0'],6,69,[0.10700629],100,44,hard,plus,dotcolour,beta,,,47,18,V,R,
489,111,27,11,3,53,27,533,['c'],1,left,['0'],6,63,[0.09821985],100,53,easy,plus,dotcolour,beta,,,47,18,V,R,
490,112,28,11,3,33,47,716,['c'],0,right,['0'],6,33,[0.07406064],100,47,medium,plus,dotcolour,beta,,,47,18,V,R,
491,113,29,11,3,33,47,450,['n'],1,right,['0'],6,31,[-0.0716036],100,47,medium,plus,dotcolour,beta,,,47,18,V,R,
492,114,30,11,3,36,44,650,['c'],0,right,['0'],6,78,[0.10102886],100,44,hard,plus,dotcolour,beta,,,47,18,V,R,
493,115,31,11,3,44,36,1100,['c'],1,left,['0'],6,47,[0.05498552],100,44,hard,plus,dotcolour,beta,,,47,18,V,R,
494,116,32,11,3,36,44,567,['c'],0,right,['0'],6,32,[0.06960798],100,44,hard,plus,dotcolour,beta,,,47,18,V,R,
495,117,33,11,3,33,47,600,['n'],1,right,['0'],6,128,[-0.09711033],100,47,medium,plus,dotcolour,beta,,,47,18,V,R,
496,118,34,11,3,36,44,2216,['c'],0,right,['0'],6,59,[0.04762849],100,44,hard,plus,dotcolour,beta,,,47,18,V,R,
497,119,35,11,3,27,53,618,['n'],1,right,['0'],6,25,[-0.07377183],100,53,easy,plus,dotcolour,beta,,,47,18,V,R,
498,120,36,11,3,27,53,533,['n'],1,right,['0'],6,101,[-0.10560525],100,53,easy,plus,dotcolour,beta,,,47,18,V,R,
499,121,37,11,3,33,47,717,['c'],0,right,['0'],6,60,[0.04437843],100,47,medium,plus,dotcolour,beta,,,47,18,V,R,
500,122,38,11,3,53,27,617,['c'],1,left,['0'],6,35,[0.06560171],100,53,easy,plus,dotcolour,beta,,,47,18,V,R,
501,123,39,11,3,27,53,500,['n'],1,right,['0'],6,88,[-0.09401051],100,53,easy,plus,dotcolour,beta,,,47,18,V,R,
502,124,40,11,3,53,27,633,['c'],1,left,['0'],6,83,[0.09534293],100,53,easy,plus,dotcolour,beta,,,47,18,V,R,
503,125,41,11,3,53,27,533,['c'],1,left,['0'],6,44,[0.0676487],100,53,easy,plus,dotcolour,beta,,,47,18,V,R,
504,0,0,12,4,27,53,785,['n'],1,right,['0'],6,39,[-0.0785305],89,53,easy,minus,dotcolour,beta,,,47,18,V,R,
505,1,1,12,4,53,27,401,['c'],1,left,['0'],6,79,[0.09517391],93,53,easy,minus,dotcolour,beta,,,47,18,V,R,
506,2,2,12,4,47,33,550,['c'],1,left,['0'],6,71,[0.10326485],96,47,medium,minus,dotcolour,beta,,,47,18,V,R,
507,3,3,12,4,36,44,466,['n'],1,right,['0'],6,35,[-0.06133312],64,44,hard,minus,dotcolour,beta,,,47,18,V,R,
508,4,4,12,4,44,36,600,['c'],1,left,['0'],6,82,[0.04979157],41,44,hard,minus,dotcolour,beta,,,47,18,V,R,
509,5,5,12,4,47,33,567,['c'],1,left,['0'],6,74,[0.06566912],66,47,medium,minus,dotcolour,beta,,,47,18,V,R,
510,6,6,12,4,44,36,467,['c'],1,left,['0'],6,61,[0.07988996],85,44,hard,minus,dotcolour,beta,,,47,18,V,R,
511,7,7,12,4,53,27,466,['c'],1,left,['0'],6,1,[0.07533456],100,53,easy,minus,dotcolour,beta,,,47,18,V,R,
512,8,8,12,4,36,44,417,['c'],0,right,['0'],6,74,[0.03164215],17,44,hard,minus,dotcolour,beta,,,47,18,V,R,
513,9,9,12,4,47,33,484,['c'],1,left,['0'],6,229,[0.07994508],71,47,medium,minus,dotcolour,beta,,,47,18,V,R,
514,10,10,12,4,36,44,500,['c'],0,right,['0'],6,121,[0.09535059],89,44,hard,minus,dotcolour,beta,,,47,18,V,R,
515,11,11,12,4,53,27,467,['c'],1,left,['0'],6,90,[0.07291894],74,53,easy,minus,dotcolour,beta,,,47,18,V,R,
516,12,12,12,4,47,33,534,['c'],1,left,['0'],6,43,[0.07939739],89,47,medium,minus,dotcolour,beta,,,47,18,V,R,
517,13,13,12,4,27,53,535,['n'],1,right,['0'],6,77,[-0.1111208],97,53,easy,minus,dotcolour,beta,,,47,18,V,R,
518,14,14,12,4,44,36,584,['c'],1,left,['0'],6,59,[0.05650246],52,44,hard,minus,dotcolour,beta,,,47,18,V,R,
519,15,15,12,4,27,53,783,['n'],1,right,['0'],6,59,[-0.04798878],36,53,easy,minus,dotcolour,beta,,,47,18,V,R,
520,16,16,12,4,33,47,683,['c'],0,right,['0'],6,70,[0.05533502],50,47,medium,minus,dotcolour,beta,,,47,18,V,R,
521,17,17,12,4,33,47,467,['n'],1,right,['0'],6,75,[-0.10764415],97,47,medium,minus,dotcolour,beta,,,47,18,V,R,
522,18,18,12,4,36,44,684,['n'],1,right,['0'],6,1101,[-0.05104206],48,44,hard,minus,dotcolour,beta,,,47,18,V,R,
523,19,19,12,4,53,27,850,['c'],1,left,['0'],6,32,[0.08873456],97,53,easy,minus,dotcolour,beta,,,47,18,V,R,
524,20,20,12,4,44,36,1017,['n'],0,left,['0'],6,31,[-0.06495538],72,44,hard,minus,dotcolour,beta,,,47,18,V,R,
525,21,21,12,4,53,27,866,['c'],1,left,['9'],5,157,[0.06554348],61,53,easy,minus,dotcolour,beta,,,47,18,V,R,
526,22,22,12,4,27,53,683,['n'],1,right,['0'],6,36,[-0.04728356],31,53,easy,minus,dotcolour,beta,,,47,18,V,R,
527,23,23,12,4,27,53,583,['n'],1,right,['0'],6,101,[-0.09604204],91,53,easy,minus,dotcolour,beta,,,47,18,V,R,
528,24,24,12,4,47,33,666,['c'],1,left,['9'],5,111,[0.09813951],91,47,medium,minus,dotcolour,beta,,,47,18,V,R,
529,25,25,12,4,33,47,616,['n'],1,right,['0'],6,11,[-0.07015611],92,47,medium,minus,dotcolour,beta,,,47,18,V,R,
530,26,26,12,4,33,47,1133,['c'],0,right,['0'],6,71,[0.08993929],91,47,medium,minus,dotcolour,beta,,,47,18,V,R,
531,27,27,12,4,44,36,550,['n'],0,left,['0'],6,159,[-0.06867013],64,44,hard,minus,dotcolour,beta,,,47,18,V,R,
532,28,28,12,4,36,44,666,['n'],1,right,['0'],6,31,[-0.05177285],40,44,hard,minus,dotcolour,beta,,,47,18,V,R,
533,29,29,12,4,33,47,783,['c'],0,right,['0'],6,224,[0.08033377],72,47,medium,minus,dotcolour,beta,,,47,18,V,R,
534,30,30,12,4,36,44,833,['c'],0,right,['0'],6,95,[-0.02800034],1,44,hard,minus,dotcolour,beta,,,47,18,V,R,
535,31,31,12,4,36,44,799,['c'],0,right,['0'],6,36,[0.05549782],50,44,hard,minus,dotcolour,beta,,,47,18,V,R,
536,32,32,12,4,33,47,766,['c'],0,right,['0'],6,85,[0.13076997],99,47,medium,minus,dotcolour,beta,,,47,18,V,R,
537,33,33,12,4,44,36,700,['c'],1,left,['0'],6,87,[0.06996544],71,44,hard,minus,dotcolour,beta,,,47,18,V,R,
538,34,34,12,4,27,53,751,['n'],1,right,['0'],6,776,[-0.26268133],99,53,easy,minus,dotcolour,beta,,,47,18,V,R,
539,35,35,12,4,53,27,733,['c'],1,left,['0'],6,36,[0.06363064],68,53,easy,minus,dotcolour,beta,,,47,18,V,R,
540,36,36,12,4,53,27,733,['c'],1,left,['0'],6,94,[0.03747947],26,53,easy,minus,dotcolour,beta,,,47,18,V,R,
541,37,37,12,4,44,36,932,['c'],1,left,['0'],6,102,[0.0236176],14,44,hard,minus,dotcolour,beta,,,47,18,V,R,
542,38,38,12,4,33,47,867,['n'],1,right,['0'],6,49,[-0.09284421],95,47,medium,minus,dotcolour,beta,,,47,18,V,R,
543,39,39,12,4,27,53,1017,['n'],1,right,['0'],6,680,[-0.22058611],97,53,easy,minus,dotcolour,beta,,,47,18,V,R,
544,40,40,12,4,47,33,500,['n'],0,left,['0'],6,130,[-0.03874213],30,47,medium,minus,dotcolour,beta,,,47,18,V,R,
545,41,41,12,4,47,33,768,['c'],1,left,['0'],6,63,[0.07275659],77,47,medium,minus,dotcolour,beta,,,47,18,V,R,
546,42,0,13,4,36,44,951,['c'],0,right,['0'],6,263,[0.06179656],55,44,hard,minus,dotcolour,beta,,,47,18,V,R,
547,43,1,13,4,33,47,750,['n'],1,right,['0'],6,79,[-0.07937733],82,47,medium,minus,dotcolour,beta,,,47,18,V,R,
548,44,2,13,4,44,36,667,['c'],1,left,['0'],6,67,[0.12681481],99,44,hard,minus,dotcolour,beta,,,47,18,V,R,
549,45,3,13,4,33,47,534,['n'],1,right,['0'],6,140,[-0.0678502],64,47,medium,minus,dotcolour,beta,,,47,18,V,R,
550,46,4,13,4,53,27,700,['c'],1,left,['0'],6,83,[0.10496184],96,53,easy,minus,dotcolour,beta,,,47,18,V,R,
551,47,5,13,4,44,36,416,['n'],0,left,['0'],6,113,[-0.08573802],83,44,hard,minus,dotcolour,beta,,,47,18,V,R,
552,48,6,13,4,33,47,667,['n'],1,right,['0'],6,12,[-0.05243067],37,47,medium,minus,dotcolour,beta,,,47,18,V,R,
553,49,7,13,4,36,44,768,['c'],0,right,['0'],6,61,[0.09946181],96,44,hard,minus,dotcolour,beta,,,47,18,V,R,
554,50,8,13,4,33,47,683,['n'],1,right,['0'],6,192,[-0.14832854],98,47,medium,minus,dotcolour,beta,,,47,18,V,R,
555,51,9,13,4,27,53,700,['n'],1,right,['0'],6,645,[-0.14499361],88,53,easy,minus,dotcolour,beta,,,47,18,V,R,
556,52,10,13,4,44,36,467,['c'],1,left,['0'],6,58,[0.0303514],13,44,hard,minus,dotcolour,beta,,,47,18,V,R,
557,53,11,13,4,27,53,583,['n'],1,right,['0'],6,90,[-0.10992793],96,53,easy,minus,dotcolour,beta,,,47,18,V,R,
558,54,12,13,4,36,44,883,['n'],1,right,['0'],6,147,[-0.12147493],96,44,hard,minus,dotcolour,beta,,,47,18,V,R,
559,55,13,13,4,36,44,668,['n'],1,right,['0'],6,93,[-0.02004038],11,44,hard,minus,dotcolour,beta,,,47,18,V,R,
560,56,14,13,4,27,53,801,['c'],0,right,['0'],6,50,[0.05042857],40,53,easy,minus,dotcolour,beta,,,47,18,V,R,
561,57,15,13,4,47,33,617,['c'],1,left,['0'],6,24,[0.06663909],78,47,medium,minus,dotcolour,beta,,,47,18,V,R,
562,58,16,13,4,53,27,651,['c'],1,left,['0'],6,62,[0.09348911],94,53,easy,minus,dotcolour,beta,,,47,18,V,R,
563,59,17,13,4,47,33,651,['c'],1,left,['0'],6,35,[0.09798183],98,47,medium,minus,dotcolour,beta,,,47,18,V,R,
564,60,18,13,4,36,44,600,['n'],1,right,['0'],6,91,[-0.03733342],25,44,hard,minus,dotcolour,beta,,,47,18,V,R,
565,61,19,13,4,33,47,649,['n'],1,right,['0'],6,103,[-0.04930798],41,47,medium,minus,dotcolour,beta,,,47,18,V,R,
566,62,20,13,4,53,27,516,['c'],1,left,['0'],6,47,[0.1033925],98,53,easy,minus,dotcolour,beta,,,47,18,V,R,
567,63,21,13,4,27,53,733,['n'],1,right,['0'],6,73,[-0.10782696],97,53,easy,minus,dotcolour,beta,,,47,18,V,R,
568,64,22,13,4,36,44,716,['n'],1,right,['0'],6,539,[-0.17055074],94,44,hard,minus,dotcolour,beta,,,47,18,V,R,
569,65,23,13,4,47,33,666,['c'],1,left,['0'],6,204,[0.07997242],73,47,medium,minus,dotcolour,beta,,,47,18,V,R,
570,66,24,13,4,53,27,700,['c'],1,left,['9'],5,161,[0.13435807],97,53,easy,minus,dotcolour,beta,,,47,18,V,R,
571,67,25,13,4,47,33,833,['n'],0,left,['0'],6,42,[-0.05232105],43,47,medium,minus,dotcolour,beta,,,47,18,V,R,
572,68,26,13,4,53,27,650,['c'],1,left,['9'],5,80,[0.11210224],97,53,easy,minus,dotcolour,beta,,,47,18,V,R,
573,69,27,13,4,44,36,700,['c'],1,left,['0'],6,42,[0.08554143],93,44,hard,minus,dotcolour,beta,,,47,18,V,R,
574,70,28,13,4,27,53,600,['n'],1,right,['0'],6,33,[-0.08205103],93,53,easy,minus,dotcolour,beta,,,47,18,V,R,
575,71,29,13,4,47,33,617,['c'],1,left,['0'],6,360,[0.02361184],28,47,medium,minus,dotcolour,beta,,,47,18,V,R,
576,72,30,13,4,47,33,867,['c'],1,left,['9'],5,56,[0.06048728],59,47,medium,minus,dotcolour,beta,,,47,18,V,R,
577,73,31,13,4,33,47,734,['c'],0,right,['9'],5,747,[0.2045341],96,47,medium,minus,dotcolour,beta,,,47,18,V,R,
578,74,32,13,4,53,27,734,['c'],1,left,['0'],6,56,[0.07701156],84,53,easy,minus,dotcolour,beta,,,47,18,V,R,
579,75,33,13,4,53,27,551,['c'],1,left,['0'],6,41,[0.06502711],70,53,easy,minus,dotcolour,beta,,,47,18,V,R,
580,76,34,13,4,27,53,566,['n'],1,right,['0'],6,50,[-0.11442186],99,53,easy,minus,dotcolour,beta,,,47,18,V,R,
581,77,35,13,4,27,53,717,['n'],1,right,['0'],6,101,[-0.06220993],59,53,easy,minus,dotcolour,beta,,,47,18,V,R,
582,78,36,13,4,36,44,733,['c'],0,right,['0'],6,117,[0.07109953],69,44,hard,minus,dotcolour,beta,,,47,18,V,R,
583,79,37,13,4,44,36,1117,['c'],1,left,['8'],4,477,[0.10038888],76,44,hard,minus,dotcolour,beta,,,47,18,V,R,
584,80,38,13,4,44,36,752,['c'],1,left,['0'],6,61,[0.05159809],43,44,hard,minus,dotcolour,beta,,,47,18,V,R,
585,81,39,13,4,47,33,567,['c'],1,left,['0'],6,133,[0.08665643],82,47,medium,minus,dotcolour,beta,,,47,18,V,R,
586,82,40,13,4,44,36,649,['c'],1,left,['0'],6,71,[0.04524887],33,44,hard,minus,dotcolour,beta,,,47,18,V,R,
587,83,41,13,4,33,47,517,['n'],1,right,['0'],6,49,[-0.08511903],92,47,medium,minus,dotcolour,beta,,,47,18,V,R,
588,84,0,14,4,47,33,1019,['c'],1,left,['0'],6,107,[0.06117703],58,47,medium,minus,dotcolour,beta,,,47,18,V,R,
589,85,1,14,4,36,44,500,['n'],1,right,['0'],6,101,[-0.10566669],94,44,hard,minus,dotcolour,beta,,,47,18,V,R,
590,86,2,14,4,44,36,567,['n'],0,left,['0'],6,43,[-0.0754866],85,44,hard,minus,dotcolour,beta,,,47,18,V,R,
591,87,3,14,4,47,33,500,['c'],1,left,['0'],6,759,[0.26052808],99,47,medium,minus,dotcolour,beta,,,47,18,V,R,
592,88,4,14,4,44,36,649,['c'],1,left,['0'],6,23,[0.04708435],27,44,hard,minus,dotcolour,beta,,,47,18,V,R,
593,89,5,14,4,33,47,500,['n'],1,right,['0'],6,20,[-0.06498852],77,47,medium,minus,dotcolour,beta,,,47,18,V,R,
594,90,6,14,4,33,47,517,['n'],1,right,['0'],6,64,[-0.04910425],39,47,medium,minus,dotcolour,beta,,,47,18,V,R,
595,91,7,14,4,36,44,601,['n'],1,right,['0'],6,54,[-0.03646671],19,44,hard,minus,dotcolour,beta,,,47,18,V,R,
596,92,8,14,4,27,53,667,['n'],1,right,['0'],6,44,[-0.06671144],72,53,easy,minus,dotcolour,beta,,,47,18,V,R,
597,93,9,14,4,27,53,866,['n'],1,right,['0'],6,56,[-0.09258895],94,53,easy,minus,dotcolour,beta,,,47,18,V,R,
598,94,10,14,4,47,33,533,['n'],0,left,['0'],6,18,[-0.07326843],92,47,medium,minus,dotcolour,beta,,,47,18,V,R,
599,95,11,14,4,33,47,500,['n'],1,right,['0'],6,39,[-0.0579963],56,47,medium,minus,dotcolour,beta,,,47,18,V,R,
600,96,12,14,4,44,36,583,['n'],0,left,['0'],6,79,[-0.03440514],21,44,hard,minus,dotcolour,beta,,,47,18,V,R,
601,97,13,14,4,33,47,583,['n'],1,right,['0'],6,62,[-0.07533977],81,47,medium,minus,dotcolour,beta,,,47,18,V,R,
602,98,14,14,4,53,27,700,['c'],1,left,['0'],6,73,[0.04564482],34,53,easy,minus,dotcolour,beta,,,47,18,V,R,
603,99,15,14,4,27,53,432,['n'],1,right,['0'],6,22,[-0.09978562],100,53,easy,minus,dotcolour,beta,,,47,18,V,R,
604,100,16,14,4,47,33,617,['c'],1,left,['9'],5,54,[0.10581654],98,47,medium,minus,dotcolour,beta,,,47,18,V,R,
605,101,17,14,4,33,47,716,['n'],1,right,['0'],6,32,[-0.0460377],28,47,medium,minus,dotcolour,beta,,,47,18,V,R,
606,102,18,14,4,36,44,583,['n'],1,right,['0'],6,10,[-0.07529826],97,44,hard,minus,dotcolour,beta,,,47,18,V,R,
607,103,19,14,4,53,27,717,['c'],1,left,['0'],6,101,[0.12595753],98,53,easy,minus,dotcolour,beta,,,47,18,V,R,
608,104,20,14,4,53,27,984,['c'],1,left,['0'],6,603,[0.18194025],95,53,easy,minus,dotcolour,beta,,,47,18,V,R,
609,105,21,14,4,44,36,950,['c'],1,left,['0'],6,94,[0.04910582],41,44,hard,minus,dotcolour,beta,,,47,18,V,R,
610,106,22,14,4,36,44,599,['n'],1,right,['0'],6,27,[-0.09703636],99,44,hard,minus,dotcolour,beta,,,47,18,V,R,
611,107,23,14,4,33,47,699,['n'],1,right,['0'],6,80,[-0.07407916],76,47,medium,minus,dotcolour,beta,,,47,18,V,R,
612,108,24,14,4,27,53,550,['n'],1,right,['0'],6,88,[-0.105283],95,53,easy,minus,dotcolour,beta,,,47,18,V,R,
613,109,25,14,4,47,33,717,['c'],1,left,['0'],6,81,[0.06304266],62,47,medium,minus,dotcolour,beta,,,47,18,V,R,
614,110,26,14,4,44,36,734,['c'],1,left,['0'],6,122,[0.07016976],68,44,hard,minus,dotcolour,beta,,,47,18,V,R,
615,111,27,14,4,36,44,617,['n'],1,right,['0'],6,78,[-0.07814136],81,44,hard,minus,dotcolour,beta,,,47,18,V,R,
616,112,28,14,4,27,53,566,['n'],1,right,['0'],6,5,[-0.07535032],99,53,easy,minus,dotcolour,beta,,,47,18,V,R,
617,113,29,14,4,36,44,585,['n'],1,right,['2'],2,1463,[-0.02313107],38,44,hard,minus,dotcolour,beta,,,47,18,V,R,
618,114,30,14,4,44,36,783,['c'],1,left,['0'],6,101,[0.07723768],77,44,hard,minus,dotcolour,beta,,,47,18,V,R,
619,115,31,14,4,47,33,784,['c'],1,left,['0'],6,83,[0.07372102],76,47,medium,minus,dotcolour,beta,,,47,18,V,R,
620,116,32,14,4,27,53,501,['n'],1,right,['0'],6,62,[-0.0893959],92,53,easy,minus,dotcolour,beta,,,47,18,V,R,
621,117,33,14,4,53,27,617,['c'],1,left,['0'],6,68,[0.12465373],99,53,easy,minus,dotcolour,beta,,,47,18,V,R,
622,118,34,14,4,33,47,717,['c'],0,right,['0'],6,94,[0.07526177],76,47,medium,minus,dotcolour,beta,,,47,18,V,R,
623,119,35,14,4,53,27,566,['c'],1,left,['0'],6,92,[0.05026738],42,53,easy,minus,dotcolour,beta,,,47,18,V,R,
624,120,36,14,4,47,33,733,['c'],1,left,['0'],6,68,[0.07553252],80,47,medium,minus,dotcolour,beta,,,47,18,V,R,
625,121,37,14,4,36,44,867,['n'],1,right,['0'],6,40,[-0.04019477],20,44,hard,minus,dotcolour,beta,,,47,18,V,R,
626,122,38,14,4,53,27,635,['c'],1,left,['0'],6,87,[0.06693662],67,53,easy,minus,dotcolour,beta,,,47,18,V,R,
627,123,39,14,4,44,36,716,['c'],1,left,['0'],6,96,[0.02522716],15,44,hard,minus,dotcolour,beta,,,47,18,V,R,
628,124,40,14,4,53,27,701,['c'],1,left,['0'],6,185,[0.07261587],67,53,easy,minus,dotcolour,beta,,,47,18,V,R,
629,125,41,14,4,27,53,716,['n'],1,right,['0'],6,38,[-0.06911386],78,53,easy,minus,dotcolour,beta,,,47,18,V,R,
630,0,0,15,5,44,36,734,['c'],1,left,['0'],6,88,[0.08453486],100,44,hard,plus,dotcolour,beta,,,47,18,V,R,
631,1,1,15,5,36,44,699,['n'],1,right,['0'],6,34,[-0.09016512],100,44,hard,plus,dotcolour,beta,,,47,18,V,R,
632,2,2,15,5,47,33,633,['c'],1,left,['0'],6,48,[0.07469318],100,47,medium,plus,dotcolour,beta,,,47,18,V,R,
633,3,3,15,5,53,27,517,['c'],1,left,['0'],6,75,[0.10391808],100,53,easy,plus,dotcolour,beta,,,47,18,V,R,
634,4,4,15,5,53,27,534,['c'],1,left,['0'],6,84,[0.04305876],100,53,easy,plus,dotcolour,beta,,,47,18,V,R,
635,5,5,15,5,47,33,532,['c'],1,left,['0'],6,45,[0.09484563],100,47,medium,plus,dotcolour,beta,,,47,18,V,R,
636,6,6,15,5,53,27,483,['c'],1,left,['0'],6,80,[0.06313559],100,53,easy,plus,dotcolour,beta,,,47,18,V,R,
637,7,7,15,5,36,44,434,['c'],0,right,['0'],6,158,[0.09528544],100,44,hard,plus,dotcolour,beta,,,47,18,V,R,
638,8,8,15,5,33,47,517,['c'],0,right,['0'],6,91,[0.01827292],99,47,medium,plus,dotcolour,beta,,,47,18,V,R,
639,9,9,15,5,27,53,634,['n'],1,right,['0'],6,111,[-0.04136948],99,53,easy,plus,dotcolour,beta,,,47,18,V,R,
640,10,10,15,5,27,53,550,['c'],0,right,['0'],6,862,[-0.06526513],45,53,easy,plus,dotcolour,beta,,,47,18,V,R,
641,11,11,15,5,33,47,884,['n'],1,right,['0'],6,689,[-0.2127013],100,47,medium,plus,dotcolour,beta,,,47,18,V,R,
642,12,12,15,5,53,27,633,['c'],1,left,['0'],6,77,[-0.00557788],96,53,easy,plus,dotcolour,beta,,,47,18,V,R,
643,13,13,15,5,53,27,650,['c'],1,left,['0'],6,49,[0.05120923],100,53,easy,plus,dotcolour,beta,,,47,18,V,R,
644,14,14,15,5,27,53,718,['n'],1,right,['0'],6,28,[-0.08103344],100,53,easy,plus,dotcolour,beta,,,47,18,V,R,
645,15,15,15,5,36,44,684,['n'],1,right,['0'],6,33,[-0.09027173],100,44,hard,plus,dotcolour,beta,,,47,18,V,R,
646,16,16,15,5,44,36,717,['c'],1,left,['0'],6,5,[0.07761049],100,44,hard,plus,dotcolour,beta,,,47,18,V,R,
647,17,17,15,5,27,53,633,['n'],1,right,['0'],6,76,[-0.13046327],100,53,easy,plus,dotcolour,beta,,,47,18,V,R,
648,18,18,15,5,44,36,650,['c'],1,left,['0'],6,89,[0.06749755],100,44,hard,plus,dotcolour,beta,,,47,18,V,R,
649,19,19,15,5,27,53,634,['n'],1,right,['0'],6,29,[-0.08152302],100,53,easy,plus,dotcolour,beta,,,47,18,V,R,
650,20,20,15,5,33,47,434,['n'],1,right,['0'],6,44,[-0.06897609],100,47,medium,plus,dotcolour,beta,,,47,18,V,R,
651,21,21,15,5,53,27,583,['c'],1,left,['0'],6,107,[0.02429842],99,53,easy,plus,dotcolour,beta,,,47,18,V,R,
652,22,22,15,5,44,36,1234,['c'],1,left,['0'],6,71,[0.06525693],100,44,hard,plus,dotcolour,beta,,,47,18,V,R,
653,23,23,15,5,36,44,550,['n'],1,right,['0'],6,24,[-0.07932239],100,44,hard,plus,dotcolour,beta,,,47,18,V,R,
654,24,24,15,5,36,44,733,['n'],1,right,['0'],6,3,[-0.07422417],100,44,hard,plus,dotcolour,beta,,,47,18,V,R,
655,25,25,15,5,47,33,717,['c'],1,left,['0'],6,71,[0.09627834],100,47,medium,plus,dotcolour,beta,,,47,18,V,R,
656,26,26,15,5,47,33,567,['c'],1,left,['0'],6,79,[0.06909984],100,47,medium,plus,dotcolour,beta,,,47,18,V,R,
657,27,27,15,5,44,36,584,['c'],1,left,['0'],6,78,[0.01393355],99,44,hard,plus,dotcolour,beta,,,47,18,V,R,
658,28,28,15,5,44,36,634,['c'],1,left,['0'],6,98,[0.12469396],100,44,hard,plus,dotcolour,beta,,,47,18,V,R,
659,29,29,15,5,33,47,767,['n'],1,right,['0'],6,25,[-0.09021454],100,47,medium,plus,dotcolour,beta,,,47,18,V,R,
660,30,30,15,5,47,33,651,['n'],0,left,['0'],6,63,[-0.09594049],100,47,medium,plus,dotcolour,beta,,,47,18,V,R,
661,31,31,15,5,53,27,567,['c'],1,left,['0'],6,103,[0.08528314],100,53,easy,plus,dotcolour,beta,,,47,18,V,R,
662,32,32,15,5,33,47,717,['n'],1,right,['0'],6,880,[-0.06984088],92,47,medium,plus,dotcolour,beta,,,47,18,V,R,
663,33,33,15,5,47,33,767,['c'],1,left,['0'],6,47,[0.06457971],100,47,medium,plus,dotcolour,beta,,,47,18,V,R,
664,34,34,15,5,36,44,599,['n'],1,right,['0'],6,110,[-0.10688196],100,44,hard,plus,dotcolour,beta,,,47,18,V,R,
665,35,35,15,5,44,36,684,['n'],0,left,['0'],6,112,[-0.03910602],99,44,hard,plus,dotcolour,beta,,,47,18,V,R,
666,36,36,15,5,47,33,567,['c'],1,left,['0'],6,94,[0.07867645],100,47,medium,plus,dotcolour,beta,,,47,18,V,R,
667,37,37,15,5,33,47,651,['n'],1,right,['0'],6,81,[-0.08327986],100,47,medium,plus,dotcolour,beta,,,47,18,V,R,
668,38,38,15,5,27,53,650,['n'],1,right,['0'],6,45,[-0.0646744],100,53,easy,plus,dotcolour,beta,,,47,18,V,R,
669,39,39,15,5,33,47,617,['n'],1,right,['0'],6,52,[-0.04742613],100,47,medium,plus,dotcolour,beta,,,47,18,V,R,
670,40,40,15,5,36,44,650,['n'],1,right,['0'],6,49,[-0.11748759],100,44,hard,plus,dotcolour,beta,,,47,18,V,R,
671,41,41,15,5,27,53,517,['n'],1,right,['0'],6,76,[-0.08337468],100,53,easy,plus,dotcolour,beta,,,47,18,V,R,
672,42,0,16,5,36,44,550,['n'],1,right,['0'],6,87,[-0.08369306],100,44,hard,plus,dotcolour,beta,,,47,18,V,R,
673,43,1,16,5,44,36,467,['n'],0,left,['0'],6,66,[-0.06937471],100,44,hard,plus,dotcolour,beta,,,47,18,V,R,
674,44,2,16,5,53,27,568,['c'],1,left,['9'],5,74,[0.1208529],100,53,easy,plus,dotcolour,beta,,,47,18,V,R,
675,45,3,16,5,27,53,450,['n'],1,right,['0'],6,54,[-0.13070439],100,53,easy,plus,dotcolour,beta,,,47,18,V,R,
676,46,4,16,5,33,47,500,['n'],1,right,['0'],6,18,[-0.07497371],100,47,medium,plus,dotcolour,beta,,,47,18,V,R,
677,47,5,16,5,44,36,866,['c'],1,left,['0'],6,79,[0.03527588],100,44,hard,plus,dotcolour,beta,,,47,18,V,R,
678,48,6,16,5,36,44,467,['n'],1,right,['0'],6,66,[-0.06630878],100,44,hard,plus,dotcolour,beta,,,47,18,V,R,
679,49,7,16,5,33,47,517,['n'],1,right,['0'],6,21,[-0.0504605],100,47,medium,plus,dotcolour,beta,,,47,18,V,R,
680,50,8,16,5,27,53,600,['n'],1,right,['0'],6,21,[-0.0608542],100,53,easy,plus,dotcolour,beta,,,47,18,V,R,
681,51,9,16,5,53,27,567,['c'],1,left,['0'],6,87,[0.03473815],100,53,easy,plus,dotcolour,beta,,,47,18,V,R,
682,52,10,16,5,33,47,567,['n'],1,right,['0'],6,31,[-0.06849122],100,47,medium,plus,dotcolour,beta,,,47,18,V,R,
683,53,11,16,5,27,53,850,['n'],1,right,['0'],6,37,[-0.04588309],100,53,easy,plus,dotcolour,beta,,,47,18,V,R,
684,54,12,16,5,47,33,850,['c'],1,left,['0'],6,98,[0.13888556],100,47,medium,plus,dotcolour,beta,,,47,18,V,R,
685,55,13,16,5,53,27,567,['c'],1,left,['0'],6,90,[0.09970328],100,53,easy,plus,dotcolour,beta,,,47,18,V,R,
686,56,14,16,5,47,33,683,['c'],1,left,['0'],6,84,[0.08538063],100,47,medium,plus,dotcolour,beta,,,47,18,V,R,
687,57,15,16,5,47,33,517,['c'],1,left,['0'],6,77,[0.0788988],100,47,medium,plus,dotcolour,beta,,,47,18,V,R,
688,58,16,16,5,53,27,567,['c'],1,left,['0'],6,44,[0.05827525],100,53,easy,plus,dotcolour,beta,,,47,18,V,R,
689,59,17,16,5,36,44,451,['c'],0,right,['0'],6,73,[0.07510741],100,44,hard,plus,dotcolour,beta,,,47,18,V,R,
690,60,18,16,5,36,44,634,['n'],1,right,['0'],6,14,[-0.067403],100,44,hard,plus,dotcolour,beta,,,47,18,V,R,
691,61,19,16,5,44,36,601,['c'],1,left,['0'],6,87,[0.08232555],100,44,hard,plus,dotcolour,beta,,,47,18,V,R,
692,62,20,16,5,44,36,583,['c'],1,left,['0'],6,86,[0.07886501],100,44,hard,plus,dotcolour,beta,,,47,18,V,R,
693,63,21,16,5,47,33,533,['c'],1,left,['0'],6,95,[0.04359651],100,47,medium,plus,dotcolour,beta,,,47,18,V,R,
694,64,22,16,5,33,47,483,['c'],0,right,['0'],6,137,[0.08264651],100,47,medium,plus,dotcolour,beta,,,47,18,V,R,
695,65,23,16,5,53,27,417,['c'],1,left,['0'],6,76,[0.10609291],100,53,easy,plus,dotcolour,beta,,,47,18,V,R,
696,66,24,16,5,44,36,951,['n'],0,left,['0'],6,44,[-0.08546854],100,44,hard,plus,dotcolour,beta,,,47,18,V,R,
697,67,25,16,5,27,53,550,['n'],1,right,['0'],6,85,[-0.12671392],100,53,easy,plus,dotcolour,beta,,,47,18,V,R,
698,68,26,16,5,27,53,517,['n'],1,right,['0'],6,102,[-0.13145726],100,53,easy,plus,dotcolour,beta,,,47,18,V,R,
699,69,27,16,5,47,33,817,['c'],1,left,['0'],6,59,[0.06730812],100,47,medium,plus,dotcolour,beta,,,47,18,V,R,
700,70,28,16,5,33,47,601,['n'],1,right,['0'],6,42,[-0.08078505],100,47,medium,plus,dotcolour,beta,,,47,18,V,R,
701,71,29,16,5,33,47,800,['n'],1,right,['0'],6,114,[-0.10832892],100,47,medium,plus,dotcolour,beta,,,47,18,V,R,
702,72,30,16,5,44,36,733,['c'],1,left,['0'],6,113,[0.12995285],100,44,hard,plus,dotcolour,beta,,,47,18,V,R,
703,73,31,16,5,47,33,800,['c'],1,left,['0'],6,69,[0.07921117],100,47,medium,plus,dotcolour,beta,,,47,18,V,R,
704,74,32,16,5,36,44,517,['n'],1,right,['0'],6,95,[-0.04989401],100,44,hard,plus,dotcolour,beta,,,47,18,V,R,
705,75,33,16,5,53,27,683,['c'],1,left,['0'],6,81,[0.08052933],100,53,easy,plus,dotcolour,beta,,,47,18,V,R,
706,76,34,16,5,27,53,433,['n'],1,right,['0'],6,78,[-0.10072314],100,53,easy,plus,dotcolour,beta,,,47,18,V,R,
707,77,35,16,5,44,36,416,['n'],0,left,['0'],6,443,[-0.00949029],85,44,hard,plus,dotcolour,beta,,,47,18,V,R,
708,78,36,16,5,36,44,617,['n'],1,right,['0'],6,2,[-0.07650142],100,44,hard,plus,dotcolour,beta,,,47,18,V,R,
709,79,37,16,5,53,27,649,['c'],1,left,['0'],6,81,[0.09313237],100,53,easy,plus,dotcolour,beta,,,47,18,V,R,
710,80,38,16,5,36,44,617,['n'],1,right,['0'],6,79,[-0.03603951],100,44,hard,plus,dotcolour,beta,,,47,18,V,R,
711,81,39,16,5,47,33,750,['c'],1,left,['0'],6,135,[0.13014736],100,47,medium,plus,dotcolour,beta,,,47,18,V,R,
712,82,40,16,5,27,53,584,['n'],1,right,['0'],6,59,[-0.12531426],100,53,easy,plus,dotcolour,beta,,,47,18,V,R,
713,83,41,16,5,33,47,584,['c'],0,right,['0'],6,107,[0.0398741],99,47,medium,plus,dotcolour,beta,,,47,18,V,R,
714,84,0,17,5,27,53,584,['n'],1,right,['0'],6,58,[-0.07209436],100,53,easy,plus,dotcolour,beta,,,47,18,V,R,
715,85,1,17,5,53,27,634,['c'],1,left,['0'],6,78,[0.09047686],100,53,easy,plus,dotcolour,beta,,,47,18,V,R,
716,86,2,17,5,27,53,484,['n'],1,right,['0'],6,82,[-0.05989083],100,53,easy,plus,dotcolour,beta,,,47,18,V,R,
717,87,3,17,5,36,44,1067,['c'],0,right,['0'],6,45,[0.0801887],100,44,hard,plus,dotcolour,beta,,,47,18,V,R,
718,88,4,17,5,44,36,633,['c'],1,left,['0'],6,43,[0.10504426],100,44,hard,plus,dotcolour,beta,,,47,18,V,R,
719,89,5,17,5,53,27,567,['c'],1,left,['0'],6,59,[0.05994915],100,53,easy,plus,dotcolour,beta,,,47,18,V,R,
720,90,6,17,5,33,47,834,['c'],0,right,['0'],6,73,[0.11597147],100,47,medium,plus,dotcolour,beta,,,47,18,V,R,
721,91,7,17,5,36,44,534,['n'],1,right,['0'],6,66,[-0.08508263],100,44,hard,plus,dotcolour,beta,,,47,18,V,R,
722,92,8,17,5,33,47,584,['n'],1,right,['0'],6,2,[-0.06778898],100,47,medium,plus,dotcolour,beta,,,47,18,V,R,
723,93,9,17,5,53,27,517,['c'],1,left,['0'],6,86,[0.10525737],100,53,easy,plus,dotcolour,beta,,,47,18,V,R,
724,94,10,17,5,44,36,668,['n'],0,left,['0'],6,73,[-0.02703347],100,44,hard,plus,dotcolour,beta,,,47,18,V,R,
725,95,11,17,5,47,33,517,['c'],1,left,['0'],6,35,[0.05538242],100,47,medium,plus,dotcolour,beta,,,47,18,V,R,
726,96,12,17,5,44,36,516,['c'],1,left,['0'],6,70,[0.10520448],100,44,hard,plus,dotcolour,beta,,,47,18,V,R,
727,97,13,17,5,47,33,466,['c'],1,left,['0'],6,114,[0.07293792],100,47,medium,plus,dotcolour,beta,,,47,18,V,R,
728,98,14,17,5,33,47,800,['n'],1,right,['0'],6,135,[-0.08976408],100,47,medium,plus,dotcolour,beta,,,47,18,V,R,
729,99,15,17,5,36,44,550,['n'],1,right,['0'],6,37,[-0.10925291],100,44,hard,plus,dotcolour,beta,,,47,18,V,R,
730,100,16,17,5,47,33,567,['c'],1,left,['0'],6,102,[0.05585814],100,47,medium,plus,dotcolour,beta,,,47,18,V,R,
731,101,17,17,5,53,27,716,['c'],1,left,['0'],6,64,[0.03542732],100,53,easy,plus,dotcolour,beta,,,47,18,V,R,
732,102,18,17,5,44,36,451,['c'],1,left,['0'],6,60,[0.08067331],100,44,hard,plus,dotcolour,beta,,,47,18,V,R,
733,103,19,17,5,27,53,483,['c'],0,right,['0'],6,656,[-0.10113318],27,53,easy,plus,dotcolour,beta,,,47,18,V,R,
734,104,20,17,5,36,44,483,['n'],1,right,['0'],6,99,[-0.007781],97,44,hard,plus,dotcolour,beta,,,47,18,V,R,
735,105,21,17,5,44,36,551,['c'],1,left,['0'],6,66,[0.10383149],100,44,hard,plus,dotcolour,beta,,,47,18,V,R,
736,106,22,17,5,33,47,500,['n'],1,right,['0'],6,76,[-0.06247276],100,47,medium,plus,dotcolour,beta,,,47,18,V,R,
737,107,23,17,5,27,53,500,['n'],1,right,['0'],6,62,[-0.08796554],100,53,easy,plus,dotcolour,beta,,,47,18,V,R,
738,108,24,17,5,27,53,500,['n'],1,right,['0'],6,41,[-0.11948695],100,53,easy,plus,dotcolour,beta,,,47,18,V,R,
739,109,25,17,5,53,27,600,['c'],1,left,['0'],6,73,[0.07134841],100,53,easy,plus,dotcolour,beta,,,47,18,V,R,
740,110,26,17,5,44,36,783,['c'],1,left,['0'],6,48,[0.0665494],100,44,hard,plus,dotcolour,beta,,,47,18,V,R,
741,111,27,17,5,36,44,517,['n'],1,right,['0'],6,66,[-0.10268288],100,44,hard,plus,dotcolour,beta,,,47,18,V,R,
742,112,28,17,5,36,44,550,['c'],0,right,['0'],6,84,[0.05602542],100,44,hard,plus,dotcolour,beta,,,47,18,V,R,
743,113,29,17,5,53,27,901,['c'],1,left,['0'],6,101,[0.10778893],100,53,easy,plus,dotcolour,beta,,,47,18,V,R,
744,114,30,17,5,33,47,500,['c'],0,right,['0'],6,366,[-0.03202222],67,47,medium,plus,dotcolour,beta,,,47,18,V,R,
745,115,31,17,5,47,33,717,['c'],1,left,['0'],6,52,[0.09511724],100,47,medium,plus,dotcolour,beta,,,47,18,V,R,
746,116,32,17,5,27,53,517,['n'],1,right,['0'],6,15,[-0.09343108],100,53,easy,plus,dotcolour,beta,,,47,18,V,R,
747,117,33,17,5,36,44,551,['n'],1,right,['0'],6,10,[-0.08517654],100,44,hard,plus,dotcolour,beta,,,47,18,V,R,
748,118,34,17,5,44,36,700,['c'],1,left,['0'],6,47,[0.09932338],100,44,hard,plus,dotcolour,beta,,,47,18,V,R,
749,119,35,17,5,47,33,916,['c'],1,left,['0'],6,65,[0.02964922],100,47,medium,plus,dotcolour,beta,,,47,18,V,R,
750,120,36,17,5,33,47,533,['n'],1,right,['0'],6,58,[-0.04021583],100,47,medium,plus,dotcolour,beta,,,47,18,V,R,
751,121,37,17,5,47,33,684,['c'],1,left,['0'],6,62,[0.11059454],100,47,medium,plus,dotcolour,beta,,,47,18,V,R,
752,122,38,17,5,53,27,534,['c'],1,left,['0'],6,95,[0.11711475],100,53,easy,plus,dotcolour,beta,,,47,18,V,R,
753,123,39,17,5,33,47,1050,['n'],1,right,['0'],6,43,[-0.06163212],100,47,medium,plus,dotcolour,beta,,,47,18,V,R,
754,124,40,17,5,27,53,617,['c'],0,right,['0'],6,129,[0.01027922],96,53,easy,plus,dotcolour,beta,,,47,18,V,R,
755,125,41,17,5,47,33,682,['c'],1,left,['0'],6,114,[0.12013206],100,47,medium,plus,dotcolour,beta,,,47,18,V,R,
,,,,,,,,,,,,,,,,,,,,,1," tijdens sommige rondes kreeg ik telkens heel goede feedback, ookal dacht ik so
ms dat ik het fout ging hebben, en bij andere rondes kreeg ik zeer slechte feed
back ookal was ik ervan overtuigd dat ik juist was",47,18,V,R,
,,,,,,,,,,,,,,,,,,,,,2,['d'],47,18,V,R,
,,,,,,,,,,,,,,,,,,,,,3,['d'],47,18,V,R,
,,,,,,,,,,,,,,,,,,,,,5,['5'],47,18,V,R,
