trial,withinphasetrial,withinblocktrial,block,phase,dotsLeft,dotsRight,rt,resp,cor,cresp,conf_press,cj,RTconf,ev,fb,diff,difflevel,condition,task,manip,questionID,questionResp,sub,age,gender,handedness,
0,0,0,0,0,47,33,1082,['n'],0,left,['3'],4,4859,[0.4979506],3,47,medium,plus,dotcolour,beta,,,16,18,M,R,
1,1,1,0,0,27,53,1532,['n'],1,right,['9'],2,1139,[-0.12467464],95,53,easy,plus,dotcolour,beta,,,16,18,M,R,
2,2,2,0,0,47,33,1949,['c'],1,left,['3'],4,5872,[1.03214052],100,47,medium,plus,dotcolour,beta,,,16,18,M,R,
3,3,3,0,0,53,27,1149,['c'],1,left,['2'],5,503,[0.14393647],99,53,easy,plus,dotcolour,beta,,,16,18,M,R,
4,4,4,0,0,53,27,1648,['c'],1,left,['3'],4,801,[0.2521899],100,53,easy,plus,dotcolour,beta,,,16,18,M,R,
5,5,5,0,0,44,36,1031,['n'],0,left,['3'],4,842,[0.0298744],62,44,hard,plus,dotcolour,beta,,,16,18,M,R,
6,6,6,0,0,27,53,848,['n'],1,right,['1'],6,366,[-0.15267262],100,53,easy,plus,dotcolour,beta,,,16,18,M,R,
7,7,7,0,0,27,53,732,['n'],1,right,['1'],6,252,[-0.11343103],100,53,easy,plus,dotcolour,beta,,,16,18,M,R,
8,8,8,0,0,36,44,948,['n'],1,right,['3'],4,382,[-0.03858394],94,44,hard,plus,dotcolour,beta,,,16,18,M,R,
9,9,9,0,0,53,27,964,['c'],1,left,['2'],5,689,[0.12252884],98,53,easy,plus,dotcolour,beta,,,16,18,M,R,
10,10,10,0,0,47,33,982,['c'],1,left,['2'],5,398,[0.06766216],97,47,medium,plus,dotcolour,beta,,,16,18,M,R,
11,11,11,0,0,33,47,849,['n'],1,right,['2'],5,318,[-0.11345392],100,47,medium,plus,dotcolour,beta,,,16,18,M,R,
12,12,12,0,0,47,33,1649,['c'],1,left,['2'],5,472,[0.10729128],99,47,medium,plus,dotcolour,beta,,,16,18,M,R,
13,13,13,0,0,44,36,1330,['c'],1,left,['2'],5,609,[0.13875856],99,44,hard,plus,dotcolour,beta,,,16,18,M,R,
14,14,14,0,0,33,47,1081,['n'],1,right,['1'],6,535,[-0.22387909],100,47,medium,plus,dotcolour,beta,,,16,18,M,R,
15,15,15,0,0,44,36,1150,['n'],0,left,['2'],5,308,[-0.09986548],99,44,hard,plus,dotcolour,beta,,,16,18,M,R,
16,16,16,0,0,27,53,783,['n'],1,right,['1'],6,242,[-0.1574603],100,53,easy,plus,dotcolour,beta,,,16,18,M,R,
17,17,17,0,0,36,44,981,['n'],1,right,['2'],5,490,[-0.15354173],100,44,hard,plus,dotcolour,beta,,,16,18,M,R,
18,18,18,0,0,47,33,1198,['n'],0,left,['8'],3,863,[-0.04322887],87,47,medium,plus,dotcolour,beta,,,16,18,M,R,
19,19,19,0,0,44,36,882,['c'],1,left,['3'],4,722,[0.00203011],77,44,hard,plus,dotcolour,beta,,,16,18,M,R,
20,20,20,0,0,33,47,1615,['n'],1,right,['3'],4,718,[-0.2625056],100,47,medium,plus,dotcolour,beta,,,16,18,M,R,
21,21,21,0,0,27,53,766,['n'],1,right,['2'],5,226,[-0.0515671],98,53,easy,plus,dotcolour,beta,,,16,18,M,R,
22,22,22,0,0,33,47,882,['n'],1,right,['1'],6,240,[-0.14216097],100,47,medium,plus,dotcolour,beta,,,16,18,M,R,
23,23,23,0,0,44,36,882,['c'],1,left,['2'],5,804,[0.19579643],99,44,hard,plus,dotcolour,beta,,,16,18,M,R,
24,24,24,0,0,47,33,832,['c'],1,left,['2'],5,252,[0.18891145],100,47,medium,plus,dotcolour,beta,,,16,18,M,R,
25,25,25,0,0,36,44,1266,['n'],1,right,['2'],5,440,[-0.1652578],100,44,hard,plus,dotcolour,beta,,,16,18,M,R,
26,26,26,0,0,27,53,733,['n'],1,right,['2'],5,178,[-0.09325689],100,53,easy,plus,dotcolour,beta,,,16,18,M,R,
27,27,27,0,0,36,44,648,['n'],1,right,['1'],6,82,[-0.07177039],100,44,hard,plus,dotcolour,beta,,,16,18,M,R,
28,28,28,0,0,44,36,848,['n'],0,left,['3'],4,318,[0.0278022],71,44,hard,plus,dotcolour,beta,,,16,18,M,R,
29,29,29,0,0,53,27,898,['c'],1,left,['3'],4,239,[0.1118059],100,53,easy,plus,dotcolour,beta,,,16,18,M,R,
30,30,30,0,0,44,36,781,['n'],0,left,['3'],4,247,[-0.12464074],100,44,hard,plus,dotcolour,beta,,,16,18,M,R,
31,31,31,0,0,33,47,665,['n'],1,right,['3'],4,948,[-0.31937575],100,47,medium,plus,dotcolour,beta,,,16,18,M,R,
32,32,32,0,0,36,44,665,['n'],1,right,['2'],5,788,[-0.2104707],100,44,hard,plus,dotcolour,beta,,,16,18,M,R,
33,33,33,0,0,27,53,631,['n'],1,right,['2'],5,245,[-0.07149363],99,53,easy,plus,dotcolour,beta,,,16,18,M,R,
34,34,34,0,0,47,33,933,['c'],1,left,['2'],5,151,[0.11075109],100,47,medium,plus,dotcolour,beta,,,16,18,M,R,
35,35,35,0,0,53,27,1217,['c'],1,left,['2'],5,193,[0.14570983],100,53,easy,plus,dotcolour,beta,,,16,18,M,R,
36,36,36,0,0,53,27,848,['n'],0,left,['3'],4,297,[0.04500639],59,53,easy,plus,dotcolour,beta,,,16,18,M,R,
37,37,37,0,0,53,27,800,['c'],1,left,['2'],5,334,[0.16922299],100,53,easy,plus,dotcolour,beta,,,16,18,M,R,
38,38,38,0,0,36,44,800,['n'],1,right,['2'],5,746,[-0.27589138],100,44,hard,plus,dotcolour,beta,,,16,18,M,R,
39,39,39,0,0,33,47,1083,['n'],1,right,['3'],4,626,[-0.0037334],79,47,medium,plus,dotcolour,beta,,,16,18,M,R,
40,40,40,0,0,36,44,882,['n'],1,right,['3'],4,158,[-0.08204537],100,44,hard,plus,dotcolour,beta,,,16,18,M,R,
41,41,41,0,0,33,47,732,['n'],1,right,['3'],4,91,[-0.0719338],100,47,medium,plus,dotcolour,beta,,,16,18,M,R,
42,42,0,1,0,36,44,799,['n'],1,right,['3'],4,189,[-0.03737058],98,44,hard,plus,dotcolour,beta,,,16,18,M,R,
43,43,1,1,0,33,47,799,['n'],1,right,['2'],5,142,[-0.05089455],99,47,medium,plus,dotcolour,beta,,,16,18,M,R,
44,44,2,1,0,36,44,899,['n'],1,right,['2'],5,350,[-0.15333465],100,44,hard,plus,dotcolour,beta,,,16,18,M,R,
45,45,3,1,0,44,36,932,['c'],1,left,['2'],5,170,[0.0703947],100,44,hard,plus,dotcolour,beta,,,16,18,M,R,
46,46,4,1,0,33,47,698,['n'],1,right,['2'],5,409,[-0.22199153],100,47,medium,plus,dotcolour,beta,,,16,18,M,R,
47,47,5,1,0,27,53,566,['n'],1,right,['2'],5,211,[-0.05767682],99,53,easy,plus,dotcolour,beta,,,16,18,M,R,
48,48,6,1,0,53,27,682,['c'],1,left,['2'],5,177,[0.15210877],100,53,easy,plus,dotcolour,beta,,,16,18,M,R,
49,49,7,1,0,36,44,715,['n'],1,right,['2'],5,230,[-0.07471336],99,44,hard,plus,dotcolour,beta,,,16,18,M,R,
50,50,8,1,0,47,33,833,['c'],1,left,['2'],5,164,[0.10146505],100,47,medium,plus,dotcolour,beta,,,16,18,M,R,
51,51,9,1,0,44,36,1015,['n'],0,left,['2'],5,94,[-0.01381439],98,44,hard,plus,dotcolour,beta,,,16,18,M,R,
52,52,10,1,0,44,36,1032,['c'],1,left,['2'],5,195,[0.09426341],100,44,hard,plus,dotcolour,beta,,,16,18,M,R,
53,53,11,1,0,47,33,1832,['c'],1,left,['3'],4,402,[0.15184826],100,47,medium,plus,dotcolour,beta,,,16,18,M,R,
54,54,12,1,0,27,53,800,['n'],1,right,['1'],6,276,[-0.12358891],100,53,easy,plus,dotcolour,beta,,,16,18,M,R,
55,55,13,1,0,27,53,631,['n'],1,right,['1'],6,144,[-0.1414501],100,53,easy,plus,dotcolour,beta,,,16,18,M,R,
56,56,14,1,0,27,53,549,['n'],1,right,['1'],6,134,[-0.08212361],100,53,easy,plus,dotcolour,beta,,,16,18,M,R,
57,57,15,1,0,53,27,682,['c'],1,left,['2'],5,351,[0.14227307],100,53,easy,plus,dotcolour,beta,,,16,18,M,R,
58,58,16,1,0,33,47,848,['n'],1,right,['1'],6,159,[-0.07169747],100,47,medium,plus,dotcolour,beta,,,16,18,M,R,
59,59,17,1,0,53,27,882,['c'],1,left,['2'],5,270,[0.10447299],100,53,easy,plus,dotcolour,beta,,,16,18,M,R,
60,60,18,1,0,44,36,1215,['c'],1,left,['2'],5,252,[0.09292668],100,44,hard,plus,dotcolour,beta,,,16,18,M,R,
61,61,19,1,0,33,47,666,['n'],1,right,['1'],6,185,[-0.05343588],99,47,medium,plus,dotcolour,beta,,,16,18,M,R,
62,62,20,1,0,36,44,716,['n'],1,right,['1'],6,126,[-0.01101961],97,44,hard,plus,dotcolour,beta,,,16,18,M,R,
63,63,21,1,0,44,36,1866,['n'],0,left,['3'],4,224,[-0.09570667],100,44,hard,plus,dotcolour,beta,,,16,18,M,R,
64,64,22,1,0,36,44,598,['n'],1,right,['1'],6,664,[-0.16313288],99,44,hard,plus,dotcolour,beta,,,16,18,M,R,
65,65,23,1,0,53,27,1066,['c'],1,left,['2'],5,196,[0.12801439],100,53,easy,plus,dotcolour,beta,,,16,18,M,R,
66,66,24,1,0,47,33,1716,['c'],1,left,['2'],5,401,[0.07297018],97,47,medium,plus,dotcolour,beta,,,16,18,M,R,
67,67,25,1,0,33,47,1133,['n'],1,right,['1'],6,197,[-0.14642411],100,47,medium,plus,dotcolour,beta,,,16,18,M,R,
68,68,26,1,0,47,33,1665,['n'],0,left,['2'],5,436,[0.05406164],51,47,medium,plus,dotcolour,beta,,,16,18,M,R,
69,69,27,1,0,53,27,783,['c'],1,left,['1'],6,188,[0.15121298],100,53,easy,plus,dotcolour,beta,,,16,18,M,R,
70,70,28,1,0,44,36,1299,['c'],1,left,['3'],4,466,[0.18592495],100,44,hard,plus,dotcolour,beta,,,16,18,M,R,
71,71,29,1,0,27,53,665,['n'],1,right,['1'],6,182,[-0.08824356],100,53,easy,plus,dotcolour,beta,,,16,18,M,R,
72,72,30,1,0,53,27,849,['c'],1,left,['2'],5,270,[0.10685332],100,53,easy,plus,dotcolour,beta,,,16,18,M,R,
73,73,31,1,0,27,53,915,['n'],1,right,['2'],5,335,[-0.07986807],99,53,easy,plus,dotcolour,beta,,,16,18,M,R,
74,74,32,1,0,47,33,1265,['c'],1,left,['2'],5,378,[0.19215762],100,47,medium,plus,dotcolour,beta,,,16,18,M,R,
75,75,33,1,0,47,33,1116,['c'],1,left,['3'],4,775,[0.11132772],97,47,medium,plus,dotcolour,beta,,,16,18,M,R,
76,76,34,1,0,53,27,948,['c'],1,left,['2'],5,146,[0.10156052],100,53,easy,plus,dotcolour,beta,,,16,18,M,R,
77,77,35,1,0,44,36,899,['n'],0,left,['2'],5,346,[-0.11695353],99,44,hard,plus,dotcolour,beta,,,16,18,M,R,
78,78,36,1,0,33,47,799,['n'],1,right,['2'],5,190,[-0.10861008],100,47,medium,plus,dotcolour,beta,,,16,18,M,R,
79,79,37,1,0,36,44,899,['n'],1,right,['2'],5,244,[-0.07098767],99,44,hard,plus,dotcolour,beta,,,16,18,M,R,
80,80,38,1,0,47,33,731,['c'],1,left,['2'],5,197,[0.15979195],100,47,medium,plus,dotcolour,beta,,,16,18,M,R,
81,81,39,1,0,36,44,1015,['n'],1,right,['3'],4,1158,[-0.15566522],97,44,hard,plus,dotcolour,beta,,,16,18,M,R,
82,82,40,1,0,33,47,598,['n'],1,right,['3'],4,393,[-0.18558005],100,47,medium,plus,dotcolour,beta,,,16,18,M,R,
83,83,41,1,0,27,53,698,['n'],1,right,['2'],5,302,[-0.12806437],100,53,easy,plus,dotcolour,beta,,,16,18,M,R,
84,84,0,2,0,47,33,1216,['n'],0,left,['3'],4,226,[-0.08716581],100,47,medium,plus,dotcolour,beta,,,16,18,M,R,
85,85,1,2,0,33,47,681,['n'],1,right,['3'],4,319,[-0.07919918],99,47,medium,plus,dotcolour,beta,,,16,18,M,R,
86,86,2,2,0,36,44,747,['n'],1,right,['2'],5,212,[-0.06033724],99,44,hard,plus,dotcolour,beta,,,16,18,M,R,
87,87,3,2,0,53,27,915,['c'],1,left,['2'],5,633,[0.13202025],99,53,easy,plus,dotcolour,beta,,,16,18,M,R,
88,88,4,2,0,47,33,950,['c'],1,left,['3'],4,194,[0.14040903],100,47,medium,plus,dotcolour,beta,,,16,18,M,R,
89,89,5,2,0,33,47,948,['n'],1,right,['3'],4,374,[-0.10667198],99,47,medium,plus,dotcolour,beta,,,16,18,M,R,
90,90,6,2,0,47,33,1016,['n'],0,left,['3'],4,463,[-0.01261001],86,47,medium,plus,dotcolour,beta,,,16,18,M,R,
91,91,7,2,0,36,44,1165,['c'],0,right,['3'],4,151,[0.13490011],100,44,hard,plus,dotcolour,beta,,,16,18,M,R,
92,92,8,2,0,44,36,900,['n'],0,left,['3'],4,470,[0.02835428],67,44,hard,plus,dotcolour,beta,,,16,18,M,R,
93,93,9,2,0,53,27,1283,['c'],1,left,['2'],5,938,[0.34457264],100,53,easy,plus,dotcolour,beta,,,16,18,M,R,
94,94,10,2,0,44,36,1148,['c'],1,left,['3'],4,367,[0.11246934],99,44,hard,plus,dotcolour,beta,,,16,18,M,R,
95,95,11,2,0,47,33,865,['c'],1,left,['2'],5,255,[0.18259343],100,47,medium,plus,dotcolour,beta,,,16,18,M,R,
96,96,12,2,0,53,27,666,['c'],1,left,['2'],5,244,[0.09394645],100,53,easy,plus,dotcolour,beta,,,16,18,M,R,
97,97,13,2,0,27,53,598,['n'],1,right,['1'],6,299,[-0.13511811],100,53,easy,plus,dotcolour,beta,,,16,18,M,R,
98,98,14,2,0,53,27,1632,['c'],1,left,['3'],4,407,[0.03253776],92,53,easy,plus,dotcolour,beta,,,16,18,M,R,
99,99,15,2,0,53,27,932,['c'],1,left,['3'],4,258,[0.02905034],95,53,easy,plus,dotcolour,beta,,,16,18,M,R,
100,100,16,2,0,47,33,1299,['c'],1,left,['2'],5,165,[0.07009468],100,47,medium,plus,dotcolour,beta,,,16,18,M,R,
101,101,17,2,0,36,44,865,['n'],1,right,['1'],6,157,[-0.09737178],100,44,hard,plus,dotcolour,beta,,,16,18,M,R,
102,102,18,2,0,47,33,2098,['n'],0,left,['3'],4,100,[-0.08986343],100,47,medium,plus,dotcolour,beta,,,16,18,M,R,
103,103,19,2,0,36,44,1266,['n'],1,right,['1'],6,47,[-0.06605354],100,44,hard,plus,dotcolour,beta,,,16,18,M,R,
104,104,20,2,0,33,47,733,['n'],1,right,['1'],6,65,[-0.07895571],100,47,medium,plus,dotcolour,beta,,,16,18,M,R,
105,105,21,2,0,53,27,1082,['c'],1,left,['1'],6,268,[0.05076986],98,53,easy,plus,dotcolour,beta,,,16,18,M,R,
106,106,22,2,0,36,44,1050,['n'],1,right,['1'],6,48,[-0.11862363],100,44,hard,plus,dotcolour,beta,,,16,18,M,R,
107,107,23,2,0,33,47,816,['n'],1,right,['1'],6,39,[-0.08401501],100,47,medium,plus,dotcolour,beta,,,16,18,M,R,
108,108,24,2,0,44,36,2715,['n'],0,left,['3'],4,1170,[0.14110482],19,44,hard,plus,dotcolour,beta,,,16,18,M,R,
109,109,25,2,0,44,36,1698,['n'],0,left,['3'],4,624,[0.00328126],77,44,hard,plus,dotcolour,beta,,,16,18,M,R,
110,110,26,2,0,36,44,664,['n'],1,right,['2'],5,453,[-0.18265716],100,44,hard,plus,dotcolour,beta,,,16,18,M,R,
111,111,27,2,0,44,36,1365,['c'],1,left,['2'],5,182,[0.07615654],100,44,hard,plus,dotcolour,beta,,,16,18,M,R,
112,112,28,2,0,47,33,1165,['c'],1,left,['2'],5,185,[0.07711989],100,47,medium,plus,dotcolour,beta,,,16,18,M,R,
113,113,29,2,0,27,53,716,['n'],1,right,['2'],5,286,[-0.15514082],100,53,easy,plus,dotcolour,beta,,,16,18,M,R,
114,114,30,2,0,33,47,883,['n'],1,right,['1'],6,136,[-0.04649077],99,47,medium,plus,dotcolour,beta,,,16,18,M,R,
115,115,31,2,0,27,53,615,['n'],1,right,['1'],6,100,[-0.06405971],100,53,easy,plus,dotcolour,beta,,,16,18,M,R,
116,116,32,2,0,33,47,614,['n'],1,right,['1'],6,97,[-0.08114554],100,47,medium,plus,dotcolour,beta,,,16,18,M,R,
117,117,33,2,0,53,27,898,['c'],1,left,['2'],5,122,[0.07538719],100,53,easy,plus,dotcolour,beta,,,16,18,M,R,
118,118,34,2,0,27,53,716,['n'],1,right,['1'],6,114,[-0.13150467],100,53,easy,plus,dotcolour,beta,,,16,18,M,R,
119,119,35,2,0,27,53,682,['n'],1,right,['1'],6,51,[-0.07786156],100,53,easy,plus,dotcolour,beta,,,16,18,M,R,
120,120,36,2,0,44,36,882,['n'],0,left,['2'],5,135,[-0.05105254],99,44,hard,plus,dotcolour,beta,,,16,18,M,R,
121,121,37,2,0,36,44,615,['n'],1,right,['1'],6,83,[-0.06649252],100,44,hard,plus,dotcolour,beta,,,16,18,M,R,
122,122,38,2,0,33,47,732,['n'],1,right,['1'],6,83,[-0.08997392],100,47,medium,plus,dotcolour,beta,,,16,18,M,R,
123,123,39,2,0,44,36,799,['n'],0,left,['2'],5,41,[-0.06544713],100,44,hard,plus,dotcolour,beta,,,16,18,M,R,
124,124,40,2,0,27,53,482,['n'],1,right,['2'],5,102,[-0.07050866],100,53,easy,plus,dotcolour,beta,,,16,18,M,R,
125,125,41,2,0,27,53,682,['n'],1,right,['2'],5,200,[-0.03454265],97,53,easy,plus,dotcolour,beta,,,16,18,M,R,
126,0,0,3,1,47,33,1316,['c'],1,left,['2'],5,129,[0.12093196],96,47,medium,minus,dotcolour,beta,,,16,18,M,R,
127,1,1,3,1,44,36,850,['c'],1,left,['2'],5,331,[0.00086878],15,44,hard,minus,dotcolour,beta,,,16,18,M,R,
128,2,2,3,1,44,36,1099,['c'],1,left,['2'],5,155,[0.08168164],77,44,hard,minus,dotcolour,beta,,,16,18,M,R,
129,3,3,3,1,36,44,699,['n'],1,right,['2'],5,243,[-0.01510804],19,44,hard,minus,dotcolour,beta,,,16,18,M,R,
130,4,4,3,1,44,36,1117,['c'],1,left,['3'],4,285,[0.07964806],69,44,hard,minus,dotcolour,beta,,,16,18,M,R,
131,5,5,3,1,47,33,915,['c'],1,left,['3'],4,191,[0.1446401],98,47,medium,minus,dotcolour,beta,,,16,18,M,R,
132,6,6,3,1,47,33,798,['c'],1,left,['3'],4,160,[0.08326778],78,47,medium,minus,dotcolour,beta,,,16,18,M,R,
133,7,7,3,1,33,47,699,['n'],1,right,['2'],5,342,[-0.0591879],53,47,medium,minus,dotcolour,beta,,,16,18,M,R,
134,8,8,3,1,53,27,1000,['c'],1,left,['2'],5,282,[0.17613487],98,53,easy,minus,dotcolour,beta,,,16,18,M,R,
135,9,9,3,1,47,33,1031,['c'],1,left,['2'],5,94,[0.06764238],67,47,medium,minus,dotcolour,beta,,,16,18,M,R,
136,10,10,3,1,33,47,618,['n'],1,right,['1'],6,163,[-0.11579595],94,47,medium,minus,dotcolour,beta,,,16,18,M,R,
137,11,11,3,1,36,44,1400,['c'],0,right,['2'],5,310,[0.0642038],57,44,hard,minus,dotcolour,beta,,,16,18,M,R,
138,12,12,3,1,44,36,1430,['c'],1,left,['2'],5,625,[0.20676147],97,44,hard,minus,dotcolour,beta,,,16,18,M,R,
139,13,13,3,1,33,47,731,['n'],1,right,['1'],6,116,[-0.07592114],75,47,medium,minus,dotcolour,beta,,,16,18,M,R,
140,14,14,3,1,27,53,616,['n'],1,right,['1'],6,72,[-0.07667104],80,53,easy,minus,dotcolour,beta,,,16,18,M,R,
141,15,15,3,1,33,47,815,['n'],1,right,['2'],5,101,[-0.08334347],83,47,medium,minus,dotcolour,beta,,,16,18,M,R,
142,16,16,3,1,27,53,1349,['n'],1,right,['2'],5,100,[-0.09524162],91,53,easy,minus,dotcolour,beta,,,16,18,M,R,
143,17,17,3,1,53,27,782,['c'],1,left,['3'],4,322,[0.0874524],73,53,easy,minus,dotcolour,beta,,,16,18,M,R,
144,18,18,3,1,53,27,1033,['c'],1,left,['2'],5,198,[0.0388883],34,53,easy,minus,dotcolour,beta,,,16,18,M,R,
145,19,19,3,1,47,33,931,['c'],1,left,['2'],5,201,[0.08849345],79,47,medium,minus,dotcolour,beta,,,16,18,M,R,
146,20,20,3,1,44,36,865,['n'],0,left,['2'],5,112,[-0.0757092],75,44,hard,minus,dotcolour,beta,,,16,18,M,R,
147,21,21,3,1,36,44,766,['n'],1,right,['2'],5,102,[-0.10863237],95,44,hard,minus,dotcolour,beta,,,16,18,M,R,
148,22,22,3,1,36,44,581,['n'],1,right,['2'],5,100,[-0.11918025],97,44,hard,minus,dotcolour,beta,,,16,18,M,R,
149,23,23,3,1,53,27,1015,['c'],1,left,['3'],4,153,[0.09313616],85,53,easy,minus,dotcolour,beta,,,16,18,M,R,
150,24,24,3,1,53,27,849,['c'],1,left,['3'],4,138,[0.14549887],99,53,easy,minus,dotcolour,beta,,,16,18,M,R,
151,25,25,3,1,36,44,950,['c'],0,right,['3'],4,440,[-0.01265427],14,44,hard,minus,dotcolour,beta,,,16,18,M,R,
152,26,26,3,1,27,53,616,['n'],1,right,['3'],4,311,[-0.06255251],56,53,easy,minus,dotcolour,beta,,,16,18,M,R,
153,27,27,3,1,44,36,1733,['c'],1,left,['3'],4,374,[0.15403019],95,44,hard,minus,dotcolour,beta,,,16,18,M,R,
154,28,28,3,1,33,47,899,['n'],1,right,['2'],5,124,[-0.08077402],78,47,medium,minus,dotcolour,beta,,,16,18,M,R,
155,29,29,3,1,27,53,747,['n'],1,right,['1'],6,115,[-0.05542098],50,53,easy,minus,dotcolour,beta,,,16,18,M,R,
156,30,30,3,1,27,53,648,['n'],1,right,['1'],6,101,[-0.13383419],99,53,easy,minus,dotcolour,beta,,,16,18,M,R,
157,31,31,3,1,33,47,616,['n'],1,right,['1'],6,74,[-0.08862853],90,47,medium,minus,dotcolour,beta,,,16,18,M,R,
158,32,32,3,1,53,27,849,['c'],1,left,['2'],5,111,[0.09061957],87,53,easy,minus,dotcolour,beta,,,16,18,M,R,
159,33,33,3,1,27,53,565,['n'],1,right,['1'],6,117,[-0.08643485],84,53,easy,minus,dotcolour,beta,,,16,18,M,R,
160,34,34,3,1,27,53,515,['n'],1,right,['1'],6,77,[-0.09141712],91,53,easy,minus,dotcolour,beta,,,16,18,M,R,
161,35,35,3,1,33,47,782,['n'],1,right,['2'],5,91,[-0.08108858],82,47,medium,minus,dotcolour,beta,,,16,18,M,R,
162,36,36,3,1,44,36,731,['c'],1,left,['2'],5,148,[0.10696612],92,44,hard,minus,dotcolour,beta,,,16,18,M,R,
163,37,37,3,1,36,44,699,['n'],1,right,['1'],6,51,[-0.11501146],99,44,hard,minus,dotcolour,beta,,,16,18,M,R,
164,38,38,3,1,53,27,715,['c'],1,left,['1'],6,182,[0.09893264],86,53,easy,minus,dotcolour,beta,,,16,18,M,R,
165,39,39,3,1,36,44,665,['n'],1,right,['1'],6,181,[-0.09610909],85,44,hard,minus,dotcolour,beta,,,16,18,M,R,
166,40,40,3,1,47,33,998,['c'],1,left,['2'],5,255,[0.08833426],76,47,medium,minus,dotcolour,beta,,,16,18,M,R,
167,41,41,3,1,47,33,747,['n'],0,left,['2'],5,272,[-0.04873455],44,47,medium,minus,dotcolour,beta,,,16,18,M,R,
168,42,0,4,1,44,36,1184,['c'],1,left,['2'],5,138,[0.03565006],28,44,hard,minus,dotcolour,beta,,,16,18,M,R,
169,43,1,4,1,47,33,998,['c'],1,left,['2'],5,253,[0.07141343],64,47,medium,minus,dotcolour,beta,,,16,18,M,R,
170,44,2,4,1,53,27,665,['c'],1,left,['2'],5,114,[0.10444129],93,53,easy,minus,dotcolour,beta,,,16,18,M,R,
171,45,3,4,1,44,36,898,['c'],1,left,['2'],5,154,[0.00780083],10,44,hard,minus,dotcolour,beta,,,16,18,M,R,
172,46,4,4,1,47,33,898,['n'],0,left,['3'],4,249,[-0.08447027],74,47,medium,minus,dotcolour,beta,,,16,18,M,R,
173,47,5,4,1,36,44,933,['n'],1,right,['2'],5,267,[-0.07483396],66,44,hard,minus,dotcolour,beta,,,16,18,M,R,
174,48,6,4,1,53,27,814,['c'],1,left,['3'],4,504,[0.19442893],97,53,easy,minus,dotcolour,beta,,,16,18,M,R,
175,49,7,4,1,27,53,867,['n'],1,right,['1'],6,362,[-0.12869993],90,53,easy,minus,dotcolour,beta,,,16,18,M,R,
176,50,8,4,1,44,36,1150,['c'],1,left,['3'],4,319,[0.09400727],77,44,hard,minus,dotcolour,beta,,,16,18,M,R,
177,51,9,4,1,27,53,914,['n'],1,right,['2'],5,127,[-0.06850603],66,53,easy,minus,dotcolour,beta,,,16,18,M,R,
178,52,10,4,1,27,53,665,['n'],1,right,['1'],6,80,[-0.10118442],95,53,easy,minus,dotcolour,beta,,,16,18,M,R,
179,53,11,4,1,33,47,2666,['n'],1,right,['1'],6,379,[-0.13079664],90,47,medium,minus,dotcolour,beta,,,16,18,M,R,
180,54,12,4,1,44,36,998,['c'],1,left,['2'],5,165,[0.10440184],90,44,hard,minus,dotcolour,beta,,,16,18,M,R,
181,55,13,4,1,27,53,716,['n'],1,right,['2'],5,107,[-0.08586404],84,53,easy,minus,dotcolour,beta,,,16,18,M,R,
182,56,14,4,1,53,27,766,['c'],1,left,['2'],5,266,[0.11884142],90,53,easy,minus,dotcolour,beta,,,16,18,M,R,
183,57,15,4,1,36,44,681,['n'],1,right,['3'],4,517,[-0.01014031],24,44,hard,minus,dotcolour,beta,,,16,18,M,R,
184,58,16,4,1,36,44,666,['n'],1,right,['2'],5,359,[-0.08871405],73,44,hard,minus,dotcolour,beta,,,16,18,M,R,
185,59,17,4,1,36,44,715,['n'],1,right,['3'],4,380,[-0.15060489],94,44,hard,minus,dotcolour,beta,,,16,18,M,R,
186,60,18,4,1,27,53,550,['n'],1,right,['2'],5,272,[-0.16271436],98,53,easy,minus,dotcolour,beta,,,16,18,M,R,
187,61,19,4,1,47,33,665,['c'],1,left,['2'],5,275,[0.11173577],87,47,medium,minus,dotcolour,beta,,,16,18,M,R,
188,62,20,4,1,47,33,1616,['c'],1,left,['8'],3,921,[0.22734099],96,47,medium,minus,dotcolour,beta,,,16,18,M,R,
189,63,21,4,1,53,27,1116,['c'],1,left,['3'],4,1016,[0.2930037],99,53,easy,minus,dotcolour,beta,,,16,18,M,R,
190,64,22,4,1,53,27,1099,['c'],1,left,['3'],4,292,[0.13539543],93,53,easy,minus,dotcolour,beta,,,16,18,M,R,
191,65,23,4,1,27,53,681,['n'],1,right,['2'],5,262,[-0.12206117],91,53,easy,minus,dotcolour,beta,,,16,18,M,R,
192,66,24,4,1,36,44,1032,['c'],0,right,['3'],4,187,[0.02057418],19,44,hard,minus,dotcolour,beta,,,16,18,M,R,
193,67,25,4,1,53,27,815,['c'],1,left,['3'],4,485,[0.28090483],100,53,easy,minus,dotcolour,beta,,,16,18,M,R,
194,68,26,4,1,36,44,1248,['n'],1,right,['3'],4,209,[-0.11582103],91,44,hard,minus,dotcolour,beta,,,16,18,M,R,
195,69,27,4,1,33,47,1016,['n'],1,right,['3'],4,153,[-0.07233021],68,47,medium,minus,dotcolour,beta,,,16,18,M,R,
196,70,28,4,1,36,44,731,['n'],1,right,['2'],5,199,[-0.05939382],54,44,hard,minus,dotcolour,beta,,,16,18,M,R,
197,71,29,4,1,44,36,1015,['c'],1,left,['3'],4,383,[0.0754372],64,44,hard,minus,dotcolour,beta,,,16,18,M,R,
198,72,30,4,1,33,47,633,['n'],1,right,['2'],5,423,[-0.28232963],100,47,medium,minus,dotcolour,beta,,,16,18,M,R,
199,73,31,4,1,44,36,882,['c'],1,left,['2'],5,276,[0.06574779],59,44,hard,minus,dotcolour,beta,,,16,18,M,R,
200,74,32,4,1,47,33,882,['c'],1,left,['3'],4,239,[0.02363432],24,47,medium,minus,dotcolour,beta,,,16,18,M,R,
201,75,33,4,1,27,53,915,['n'],1,right,['2'],5,714,[-0.33698285],100,53,easy,minus,dotcolour,beta,,,16,18,M,R,
202,76,34,4,1,33,47,764,['n'],1,right,['1'],6,328,[-0.15004999],95,47,medium,minus,dotcolour,beta,,,16,18,M,R,
203,77,35,4,1,44,36,815,['c'],1,left,['3'],4,163,[0.06680879],62,44,hard,minus,dotcolour,beta,,,16,18,M,R,
204,78,36,4,1,47,33,999,['c'],1,left,['3'],4,214,[0.04809975],43,47,medium,minus,dotcolour,beta,,,16,18,M,R,
205,79,37,4,1,47,33,982,['c'],1,left,['3'],4,143,[0.01887657],15,47,medium,minus,dotcolour,beta,,,16,18,M,R,
206,80,38,4,1,53,27,932,['c'],1,left,['2'],5,261,[0.15553063],97,53,easy,minus,dotcolour,beta,,,16,18,M,R,
207,81,39,4,1,33,47,798,['n'],1,right,['2'],5,140,[-0.05882335],54,47,medium,minus,dotcolour,beta,,,16,18,M,R,
208,82,40,4,1,33,47,598,['n'],1,right,['2'],5,129,[-0.01838256],13,47,medium,minus,dotcolour,beta,,,16,18,M,R,
209,83,41,4,1,33,47,732,['n'],1,right,['3'],4,95,[-0.09005908],88,47,medium,minus,dotcolour,beta,,,16,18,M,R,
210,84,0,5,1,53,27,766,['c'],1,left,['3'],4,88,[0.06909436],69,53,easy,minus,dotcolour,beta,,,16,18,M,R,
211,85,1,5,1,33,47,815,['n'],1,right,['3'],4,101,[-0.0518445],45,47,medium,minus,dotcolour,beta,,,16,18,M,R,
212,86,2,5,1,47,33,1032,['c'],1,left,['3'],4,73,[0.04872018],39,47,medium,minus,dotcolour,beta,,,16,18,M,R,
213,87,3,5,1,44,36,1715,['c'],1,left,['2'],5,307,[0.15066855],96,44,hard,minus,dotcolour,beta,,,16,18,M,R,
214,88,4,5,1,27,53,831,['n'],1,right,['1'],6,94,[-0.07977651],81,53,easy,minus,dotcolour,beta,,,16,18,M,R,
215,89,5,5,1,33,47,665,['n'],1,right,['2'],5,241,[-0.11646208],90,47,medium,minus,dotcolour,beta,,,16,18,M,R,
216,90,6,5,1,36,44,782,['n'],1,right,['1'],6,233,[-0.07509243],67,44,hard,minus,dotcolour,beta,,,16,18,M,R,
217,91,7,5,1,47,33,849,['c'],1,left,['2'],5,143,[0.00995235],10,47,medium,minus,dotcolour,beta,,,16,18,M,R,
218,92,8,5,1,47,33,1132,['c'],1,left,['2'],5,605,[0.20485947],97,47,medium,minus,dotcolour,beta,,,16,18,M,R,
219,93,9,5,1,53,27,766,['c'],1,left,['2'],5,87,[0.0541569],48,53,easy,minus,dotcolour,beta,,,16,18,M,R,
220,94,10,5,1,53,27,830,['c'],1,left,['2'],5,132,[0.08535011],81,53,easy,minus,dotcolour,beta,,,16,18,M,R,
221,95,11,5,1,27,53,750,['n'],1,right,['1'],6,146,[-0.19576436],100,53,easy,minus,dotcolour,beta,,,16,18,M,R,
222,96,12,5,1,27,53,482,['n'],1,right,['1'],6,66,[-0.07493777],80,53,easy,minus,dotcolour,beta,,,16,18,M,R,
223,97,13,5,1,44,36,682,['c'],1,left,['2'],5,109,[0.07162345],71,44,hard,minus,dotcolour,beta,,,16,18,M,R,
224,98,14,5,1,33,47,749,['n'],1,right,['1'],6,100,[-0.08981701],88,47,medium,minus,dotcolour,beta,,,16,18,M,R,
225,99,15,5,1,27,53,648,['n'],1,right,['1'],6,191,[-0.16589935],99,53,easy,minus,dotcolour,beta,,,16,18,M,R,
226,100,16,5,1,36,44,1799,['n'],1,right,['3'],4,360,[-0.11314946],85,44,hard,minus,dotcolour,beta,,,16,18,M,R,
227,101,17,5,1,44,36,1331,['c'],1,left,['3'],4,381,[0.0444579],42,44,hard,minus,dotcolour,beta,,,16,18,M,R,
228,102,18,5,1,27,53,1148,['n'],1,right,['3'],4,697,[-0.23760359],98,53,easy,minus,dotcolour,beta,,,16,18,M,R,
229,103,19,5,1,53,27,814,['c'],1,left,['3'],4,86,[0.08092724],83,53,easy,minus,dotcolour,beta,,,16,18,M,R,
230,104,20,5,1,53,27,633,['c'],1,left,['2'],5,219,[0.12717618],94,53,easy,minus,dotcolour,beta,,,16,18,M,R,
231,105,21,5,1,36,44,832,['n'],1,right,['1'],6,146,[-0.05690955],52,44,hard,minus,dotcolour,beta,,,16,18,M,R,
232,106,22,5,1,47,33,798,['c'],1,left,['3'],4,109,[0.0531434],47,47,medium,minus,dotcolour,beta,,,16,18,M,R,
233,107,23,5,1,33,47,666,['n'],1,right,['1'],6,95,[-0.08590494],85,47,medium,minus,dotcolour,beta,,,16,18,M,R,
234,108,24,5,1,44,36,1382,['c'],1,left,['2'],5,222,[0.07121776],65,44,hard,minus,dotcolour,beta,,,16,18,M,R,
235,109,25,5,1,33,47,665,['n'],1,right,['2'],5,236,[-0.05242572],47,47,medium,minus,dotcolour,beta,,,16,18,M,R,
236,110,26,5,1,36,44,1382,['n'],1,right,['2'],5,179,[-0.13327834],96,44,hard,minus,dotcolour,beta,,,16,18,M,R,
237,111,27,5,1,33,47,565,['n'],1,right,['2'],5,175,[-0.06770716],63,47,medium,minus,dotcolour,beta,,,16,18,M,R,
238,112,28,5,1,47,33,998,['c'],1,left,['3'],4,353,[0.08709919],72,47,medium,minus,dotcolour,beta,,,16,18,M,R,
239,113,29,5,1,53,27,865,['c'],1,left,['3'],4,185,[0.13033818],96,53,easy,minus,dotcolour,beta,,,16,18,M,R,
240,114,30,5,1,27,53,567,['n'],1,right,['3'],4,140,[-0.07448807],71,53,easy,minus,dotcolour,beta,,,16,18,M,R,
241,115,31,5,1,44,36,1483,['n'],0,left,['3'],4,261,[-0.02305017],24,44,hard,minus,dotcolour,beta,,,16,18,M,R,
242,116,32,5,1,44,36,866,['c'],1,left,['3'],4,184,[0.05647926],51,44,hard,minus,dotcolour,beta,,,16,18,M,R,
243,117,33,5,1,36,44,1215,['c'],0,right,['2'],5,906,[-0.13180041],3,44,hard,minus,dotcolour,beta,,,16,18,M,R,
244,118,34,5,1,47,33,1165,['c'],1,left,['3'],4,112,[0.04167071],32,47,medium,minus,dotcolour,beta,,,16,18,M,R,
245,119,35,5,1,36,44,1065,['n'],1,right,['8'],3,274,[-0.0495195],45,44,hard,minus,dotcolour,beta,,,16,18,M,R,
246,120,36,5,1,53,27,1634,['c'],1,left,['2'],5,191,[0.18605533],100,53,easy,minus,dotcolour,beta,,,16,18,M,R,
247,121,37,5,1,36,44,1300,['n'],1,right,['8'],3,3476,[-0.0269171],43,44,hard,minus,dotcolour,beta,,,16,18,M,R,
248,122,38,5,1,47,33,1966,['c'],1,left,['3'],4,507,[0.12319141],85,47,medium,minus,dotcolour,beta,,,16,18,M,R,
249,123,39,5,1,27,53,948,['n'],1,right,['3'],4,377,[-0.03501347],35,53,easy,minus,dotcolour,beta,,,16,18,M,R,
250,124,40,5,1,44,36,1365,['c'],1,left,['3'],4,884,[0.21666874],96,44,hard,minus,dotcolour,beta,,,16,18,M,R,
251,125,41,5,1,33,47,1182,['n'],1,right,['3'],4,635,[-0.25922437],99,47,medium,minus,dotcolour,beta,,,16,18,M,R,
252,0,0,6,2,44,36,815,['c'],1,left,['3'],4,648,[-0.20275796],4,44,hard,plus,dotcolour,beta,,,16,18,M,R,
253,1,1,6,2,44,36,1132,['c'],1,left,['2'],5,266,[0.10736589],100,44,hard,plus,dotcolour,beta,,,16,18,M,R,
254,2,2,6,2,27,53,632,['n'],1,right,['1'],6,255,[-0.1217931],100,53,easy,plus,dotcolour,beta,,,16,18,M,R,
255,3,3,6,2,47,33,865,['c'],1,left,['3'],4,251,[0.07177608],99,47,medium,plus,dotcolour,beta,,,16,18,M,R,
256,4,4,6,2,47,33,716,['c'],1,left,['2'],5,182,[0.10352382],100,47,medium,plus,dotcolour,beta,,,16,18,M,R,
257,5,5,6,2,33,47,865,['n'],1,right,['1'],6,173,[-0.09636884],100,47,medium,plus,dotcolour,beta,,,16,18,M,R,
258,6,6,6,2,53,27,531,['c'],1,left,['1'],6,410,[0.01602196],88,53,easy,plus,dotcolour,beta,,,16,18,M,R,
259,7,7,6,2,44,36,949,['n'],0,left,['2'],5,333,[-0.02098471],92,44,hard,plus,dotcolour,beta,,,16,18,M,R,
260,8,8,6,2,27,53,832,['n'],1,right,['2'],5,608,[-0.18848775],100,53,easy,plus,dotcolour,beta,,,16,18,M,R,
261,9,9,6,2,36,44,766,['n'],1,right,['1'],6,258,[-0.13624577],100,44,hard,plus,dotcolour,beta,,,16,18,M,R,
262,10,10,6,2,27,53,649,['n'],1,right,['1'],6,126,[-0.04513911],99,53,easy,plus,dotcolour,beta,,,16,18,M,R,
263,11,11,6,2,47,33,799,['c'],1,left,['2'],5,202,[0.12423739],100,47,medium,plus,dotcolour,beta,,,16,18,M,R,
264,12,12,6,2,47,33,700,['c'],1,left,['2'],5,183,[0.12730878],100,47,medium,plus,dotcolour,beta,,,16,18,M,R,
265,13,13,6,2,53,27,549,['c'],1,left,['2'],5,138,[0.14120449],100,53,easy,plus,dotcolour,beta,,,16,18,M,R,
266,14,14,6,2,36,44,717,['n'],1,right,['1'],6,138,[-0.06991084],100,44,hard,plus,dotcolour,beta,,,16,18,M,R,
267,15,15,6,2,27,53,633,['n'],1,right,['1'],6,93,[-0.04498474],100,53,easy,plus,dotcolour,beta,,,16,18,M,R,
268,16,16,6,2,44,36,764,['c'],1,left,['2'],5,164,[0.09627465],100,44,hard,plus,dotcolour,beta,,,16,18,M,R,
269,17,17,6,2,53,27,699,['c'],1,left,['2'],5,106,[0.03555417],99,53,easy,plus,dotcolour,beta,,,16,18,M,R,
270,18,18,6,2,36,44,766,['n'],1,right,['2'],5,98,[-0.04374973],100,44,hard,plus,dotcolour,beta,,,16,18,M,R,
271,19,19,6,2,33,47,598,['n'],1,right,['2'],5,342,[-0.06220712],97,47,medium,plus,dotcolour,beta,,,16,18,M,R,
272,20,20,6,2,33,47,599,['n'],1,right,['2'],5,129,[-0.11172117],100,47,medium,plus,dotcolour,beta,,,16,18,M,R,
273,21,21,6,2,27,53,630,['n'],1,right,['1'],6,76,[-0.05345964],100,53,easy,plus,dotcolour,beta,,,16,18,M,R,
274,22,22,6,2,36,44,898,['c'],0,right,['3'],4,270,[0.14194695],100,44,hard,plus,dotcolour,beta,,,16,18,M,R,
275,23,23,6,2,27,53,581,['n'],1,right,['2'],5,413,[-0.00560305],85,53,easy,plus,dotcolour,beta,,,16,18,M,R,
276,24,24,6,2,33,47,1067,['n'],1,right,['2'],5,171,[-0.04550756],99,47,medium,plus,dotcolour,beta,,,16,18,M,R,
277,25,25,6,2,47,33,1250,['c'],1,left,['3'],4,204,[0.0667369],99,47,medium,plus,dotcolour,beta,,,16,18,M,R,
278,26,26,6,2,36,44,782,['n'],1,right,['1'],6,109,[-0.14911598],100,44,hard,plus,dotcolour,beta,,,16,18,M,R,
279,27,27,6,2,33,47,1498,['n'],1,right,['3'],4,270,[-0.07236541],99,47,medium,plus,dotcolour,beta,,,16,18,M,R,
280,28,28,6,2,44,36,733,['n'],0,left,['8'],3,1023,[0.02902784],62,44,hard,plus,dotcolour,beta,,,16,18,M,R,
281,29,29,6,2,44,36,965,['n'],0,left,['3'],4,208,[-0.09893267],100,44,hard,plus,dotcolour,beta,,,16,18,M,R,
282,30,30,6,2,53,27,882,['c'],1,left,['3'],4,254,[0.14054087],100,53,easy,plus,dotcolour,beta,,,16,18,M,R,
283,31,31,6,2,53,27,598,['c'],1,left,['3'],4,124,[0.11305119],100,53,easy,plus,dotcolour,beta,,,16,18,M,R,
284,32,32,6,2,33,47,983,['n'],1,right,['2'],5,34,[-0.07632402],100,47,medium,plus,dotcolour,beta,,,16,18,M,R,
285,33,33,6,2,36,44,865,['n'],1,right,['2'],5,39,[-0.09745083],100,44,hard,plus,dotcolour,beta,,,16,18,M,R,
286,34,34,6,2,53,27,780,['c'],1,left,['2'],5,96,[0.03477537],99,53,easy,plus,dotcolour,beta,,,16,18,M,R,
287,35,35,6,2,53,27,781,['c'],1,left,['2'],5,118,[0.12342278],100,53,easy,plus,dotcolour,beta,,,16,18,M,R,
288,36,36,6,2,33,47,966,['n'],1,right,['2'],5,116,[-0.08418339],100,47,medium,plus,dotcolour,beta,,,16,18,M,R,
289,37,37,6,2,44,36,966,['n'],0,left,['2'],5,146,[-0.08860962],100,44,hard,plus,dotcolour,beta,,,16,18,M,R,
290,38,38,6,2,47,33,766,['c'],1,left,['2'],5,94,[0.07581076],100,47,medium,plus,dotcolour,beta,,,16,18,M,R,
291,39,39,6,2,36,44,633,['n'],1,right,['2'],5,122,[-0.07191916],100,44,hard,plus,dotcolour,beta,,,16,18,M,R,
292,40,40,6,2,27,53,547,['n'],1,right,['1'],6,81,[-0.07628689],100,53,easy,plus,dotcolour,beta,,,16,18,M,R,
293,41,41,6,2,47,33,1549,['n'],0,left,['3'],4,369,[0.00829483],80,47,medium,plus,dotcolour,beta,,,16,18,M,R,
294,42,0,7,2,33,47,900,['n'],1,right,['2'],5,216,[-0.14021337],100,47,medium,plus,dotcolour,beta,,,16,18,M,R,
295,43,1,7,2,33,47,649,['n'],1,right,['1'],6,69,[-0.05757754],100,47,medium,plus,dotcolour,beta,,,16,18,M,R,
296,44,2,7,2,36,44,749,['n'],1,right,['2'],5,126,[-0.0489695],100,44,hard,plus,dotcolour,beta,,,16,18,M,R,
297,45,3,7,2,27,53,583,['n'],1,right,['1'],6,170,[-0.06340919],99,53,easy,plus,dotcolour,beta,,,16,18,M,R,
298,46,4,7,2,27,53,748,['n'],1,right,['1'],6,79,[-0.13558716],100,53,easy,plus,dotcolour,beta,,,16,18,M,R,
299,47,5,7,2,44,36,1250,['c'],1,left,['2'],5,138,[0.05948956],100,44,hard,plus,dotcolour,beta,,,16,18,M,R,
300,48,6,7,2,36,44,665,['n'],1,right,['1'],6,100,[-0.02090941],99,44,hard,plus,dotcolour,beta,,,16,18,M,R,
301,49,7,7,2,53,27,798,['c'],1,left,['2'],5,145,[0.13352124],100,53,easy,plus,dotcolour,beta,,,16,18,M,R,
302,50,8,7,2,53,27,947,['c'],1,left,['2'],5,206,[0.07114357],99,53,easy,plus,dotcolour,beta,,,16,18,M,R,
303,51,9,7,2,53,27,915,['c'],1,left,['1'],6,123,[0.04187544],99,53,easy,plus,dotcolour,beta,,,16,18,M,R,
304,52,10,7,2,44,36,632,['c'],1,left,['1'],6,174,[0.14807751],100,44,hard,plus,dotcolour,beta,,,16,18,M,R,
305,53,11,7,2,53,27,582,['c'],1,left,['1'],6,136,[0.01905076],97,53,easy,plus,dotcolour,beta,,,16,18,M,R,
306,54,12,7,2,27,53,831,['n'],1,right,['1'],6,98,[-0.13140828],100,53,easy,plus,dotcolour,beta,,,16,18,M,R,
307,55,13,7,2,47,33,1016,['c'],1,left,['1'],6,167,[0.08369972],100,47,medium,plus,dotcolour,beta,,,16,18,M,R,
308,56,14,7,2,33,47,616,['n'],1,right,['1'],6,64,[-0.08275958],100,47,medium,plus,dotcolour,beta,,,16,18,M,R,
309,57,15,7,2,47,33,749,['n'],0,left,['1'],6,57,[-0.06411747],100,47,medium,plus,dotcolour,beta,,,16,18,M,R,
310,58,16,7,2,44,36,583,['n'],0,left,['3'],4,833,[-0.19864797],99,44,hard,plus,dotcolour,beta,,,16,18,M,R,
311,59,17,7,2,47,33,1149,['n'],0,left,['3'],4,147,[-0.03722854],99,47,medium,plus,dotcolour,beta,,,16,18,M,R,
312,60,18,7,2,33,47,648,['n'],1,right,['1'],6,500,[-0.18567868],100,47,medium,plus,dotcolour,beta,,,16,18,M,R,
313,61,19,7,2,36,44,665,['n'],1,right,['2'],5,175,[-0.1053355],100,44,hard,plus,dotcolour,beta,,,16,18,M,R,
314,62,20,7,2,44,36,1132,['n'],0,left,['2'],5,516,[0.04063855],59,44,hard,plus,dotcolour,beta,,,16,18,M,R,
315,63,21,7,2,27,53,667,['n'],1,right,['1'],6,213,[-0.11543712],100,53,easy,plus,dotcolour,beta,,,16,18,M,R,
316,64,22,7,2,53,27,780,['c'],1,left,['2'],5,279,[0.16107723],100,53,easy,plus,dotcolour,beta,,,16,18,M,R,
317,65,23,7,2,27,53,529,['n'],1,right,['1'],6,127,[-0.16574586],100,53,easy,plus,dotcolour,beta,,,16,18,M,R,
318,66,24,7,2,47,33,848,['n'],0,left,['2'],5,177,[-0.0731541],100,47,medium,plus,dotcolour,beta,,,16,18,M,R,
319,67,25,7,2,27,53,515,['n'],1,right,['1'],6,55,[-0.0688318],100,53,easy,plus,dotcolour,beta,,,16,18,M,R,
320,68,26,7,2,47,33,765,['c'],1,left,['2'],5,159,[0.08747647],100,47,medium,plus,dotcolour,beta,,,16,18,M,R,
321,69,27,7,2,36,44,665,['n'],1,right,['2'],5,135,[-0.08619134],100,44,hard,plus,dotcolour,beta,,,16,18,M,R,
322,70,28,7,2,53,27,765,['c'],1,left,['3'],4,181,[0.11244006],100,53,easy,plus,dotcolour,beta,,,16,18,M,R,
323,71,29,7,2,33,47,596,['n'],1,right,['2'],5,167,[-0.05098715],99,47,medium,plus,dotcolour,beta,,,16,18,M,R,
324,72,30,7,2,36,44,515,['n'],1,right,['3'],4,485,[-0.08566766],97,44,hard,plus,dotcolour,beta,,,16,18,M,R,
325,73,31,7,2,44,36,897,['n'],0,left,['8'],3,774,[0.02105729],67,44,hard,plus,dotcolour,beta,,,16,18,M,R,
326,74,32,7,2,27,53,765,['n'],1,right,['1'],6,105,[-0.04443292],100,53,easy,plus,dotcolour,beta,,,16,18,M,R,
327,75,33,7,2,44,36,882,['c'],1,left,['3'],4,283,[0.14030516],100,44,hard,plus,dotcolour,beta,,,16,18,M,R,
328,76,34,7,2,47,33,849,['c'],1,left,['9'],2,424,[0.13642563],100,47,medium,plus,dotcolour,beta,,,16,18,M,R,
329,77,35,7,2,36,44,2916,['n'],1,right,['0'],1,251,[0.00467193],86,44,hard,plus,dotcolour,beta,,,16,18,M,R,
330,78,36,7,2,47,33,1082,['c'],1,left,['2'],5,159,[0.01901764],97,47,medium,plus,dotcolour,beta,,,16,18,M,R,
331,79,37,7,2,44,36,898,['c'],1,left,['9'],2,1053,[0.17626754],98,44,hard,plus,dotcolour,beta,,,16,18,M,R,
332,80,38,7,2,33,47,999,['n'],1,right,['2'],5,276,[-0.02559956],94,47,medium,plus,dotcolour,beta,,,16,18,M,R,
333,81,39,7,2,33,47,1348,['n'],1,right,['2'],5,260,[-0.05373343],98,47,medium,plus,dotcolour,beta,,,16,18,M,R,
334,82,40,7,2,53,27,1030,['c'],1,left,['2'],5,201,[0.08556195],100,53,easy,plus,dotcolour,beta,,,16,18,M,R,
335,83,41,7,2,36,44,1165,['n'],1,right,['1'],6,116,[-0.11893085],100,44,hard,plus,dotcolour,beta,,,16,18,M,R,
336,84,0,8,2,47,33,816,['c'],1,left,['2'],5,115,[0.11795952],100,47,medium,plus,dotcolour,beta,,,16,18,M,R,
337,85,1,8,2,33,47,600,['n'],1,right,['1'],6,120,[-0.03744073],99,47,medium,plus,dotcolour,beta,,,16,18,M,R,
338,86,2,8,2,44,36,882,['c'],1,left,['2'],5,153,[0.07620115],100,44,hard,plus,dotcolour,beta,,,16,18,M,R,
339,87,3,8,2,27,53,583,['n'],1,right,['1'],6,85,[-0.06963675],100,53,easy,plus,dotcolour,beta,,,16,18,M,R,
340,88,4,8,2,27,53,566,['n'],1,right,['1'],6,12,[-0.07507046],100,53,easy,plus,dotcolour,beta,,,16,18,M,R,
341,89,5,8,2,47,33,749,['c'],1,left,['2'],5,95,[0.08820523],100,47,medium,plus,dotcolour,beta,,,16,18,M,R,
342,90,6,8,2,47,33,949,['c'],1,left,['2'],5,118,[0.0731926],100,47,medium,plus,dotcolour,beta,,,16,18,M,R,
343,91,7,8,2,27,53,732,['n'],1,right,['1'],6,85,[-0.10022604],100,53,easy,plus,dotcolour,beta,,,16,18,M,R,
344,92,8,8,2,36,44,1098,['n'],1,right,['2'],5,95,[-0.04784931],100,44,hard,plus,dotcolour,beta,,,16,18,M,R,
345,93,9,8,2,44,36,700,['c'],1,left,['2'],5,128,[0.0957824],100,44,hard,plus,dotcolour,beta,,,16,18,M,R,
346,94,10,8,2,36,44,601,['n'],1,right,['1'],6,252,[-0.10064824],100,44,hard,plus,dotcolour,beta,,,16,18,M,R,
347,95,11,8,2,53,27,864,['c'],1,left,['3'],4,177,[0.07343914],100,53,easy,plus,dotcolour,beta,,,16,18,M,R,
348,96,12,8,2,33,47,548,['n'],1,right,['1'],6,69,[-0.06974261],100,47,medium,plus,dotcolour,beta,,,16,18,M,R,
349,97,13,8,2,44,36,984,['c'],1,left,['3'],4,180,[0.06786719],99,44,hard,plus,dotcolour,beta,,,16,18,M,R,
350,98,14,8,2,47,33,1132,['c'],1,left,['3'],4,113,[0.06693525],100,47,medium,plus,dotcolour,beta,,,16,18,M,R,
351,99,15,8,2,33,47,516,['n'],1,right,['1'],6,97,[-0.10485571],100,47,medium,plus,dotcolour,beta,,,16,18,M,R,
352,100,16,8,2,36,44,532,['n'],1,right,['1'],6,105,[-0.07264858],100,44,hard,plus,dotcolour,beta,,,16,18,M,R,
353,101,17,8,2,33,47,482,['n'],1,right,['1'],6,67,[-0.08319133],100,47,medium,plus,dotcolour,beta,,,16,18,M,R,
354,102,18,8,2,44,36,565,['n'],0,left,['2'],5,122,[-0.09386289],100,44,hard,plus,dotcolour,beta,,,16,18,M,R,
355,103,19,8,2,53,27,798,['c'],1,left,['3'],4,111,[0.15430273],100,53,easy,plus,dotcolour,beta,,,16,18,M,R,
356,104,20,8,2,44,36,899,['c'],1,left,['3'],4,136,[0.12232306],100,44,hard,plus,dotcolour,beta,,,16,18,M,R,
357,105,21,8,2,53,27,699,['c'],1,left,['3'],4,167,[0.06502931],100,53,easy,plus,dotcolour,beta,,,16,18,M,R,
358,106,22,8,2,36,44,665,['n'],1,right,['1'],6,87,[-0.06304964],100,44,hard,plus,dotcolour,beta,,,16,18,M,R,
359,107,23,8,2,36,44,597,['n'],1,right,['1'],6,60,[-0.0612114],100,44,hard,plus,dotcolour,beta,,,16,18,M,R,
360,108,24,8,2,44,36,965,['c'],1,left,['3'],4,204,[0.10320868],100,44,hard,plus,dotcolour,beta,,,16,18,M,R,
361,109,25,8,2,33,47,515,['n'],1,right,['2'],5,488,[-0.15789332],100,47,medium,plus,dotcolour,beta,,,16,18,M,R,
362,110,26,8,2,47,33,882,['c'],1,left,['2'],5,210,[0.2167167],100,47,medium,plus,dotcolour,beta,,,16,18,M,R,
363,111,27,8,2,27,53,649,['n'],1,right,['1'],6,64,[-0.13282159],100,53,easy,plus,dotcolour,beta,,,16,18,M,R,
364,112,28,8,2,53,27,832,['c'],1,left,['2'],5,230,[0.09509867],100,53,easy,plus,dotcolour,beta,,,16,18,M,R,
365,113,29,8,2,36,44,815,['n'],1,right,['3'],4,461,[-0.13252419],99,44,hard,plus,dotcolour,beta,,,16,18,M,R,
366,114,30,8,2,27,53,565,['n'],1,right,['3'],4,277,[-0.19339219],100,53,easy,plus,dotcolour,beta,,,16,18,M,R,
367,115,31,8,2,53,27,681,['c'],1,left,['1'],6,136,[0.0558611],100,53,easy,plus,dotcolour,beta,,,16,18,M,R,
368,116,32,8,2,33,47,647,['n'],1,right,['2'],5,122,[-0.1132662],100,47,medium,plus,dotcolour,beta,,,16,18,M,R,
369,117,33,8,2,47,33,782,['n'],0,left,['3'],4,319,[-0.09070778],99,47,medium,plus,dotcolour,beta,,,16,18,M,R,
370,118,34,8,2,53,27,781,['c'],1,left,['2'],5,173,[0.0154857],96,53,easy,plus,dotcolour,beta,,,16,18,M,R,
371,119,35,8,2,53,27,682,['c'],1,left,['1'],6,187,[0.09896558],100,53,easy,plus,dotcolour,beta,,,16,18,M,R,
372,120,36,8,2,36,44,716,['n'],1,right,['2'],5,233,[-0.05057764],98,44,hard,plus,dotcolour,beta,,,16,18,M,R,
373,121,37,8,2,33,47,1166,['n'],1,right,['3'],4,146,[-0.16397373],100,47,medium,plus,dotcolour,beta,,,16,18,M,R,
374,122,38,8,2,44,36,882,['c'],1,left,['3'],4,114,[0.08692856],100,44,hard,plus,dotcolour,beta,,,16,18,M,R,
375,123,39,8,2,47,33,648,['c'],1,left,['2'],5,245,[0.16495918],100,47,medium,plus,dotcolour,beta,,,16,18,M,R,
376,124,40,8,2,27,53,649,['n'],1,right,['1'],6,58,[-0.10949274],100,53,easy,plus,dotcolour,beta,,,16,18,M,R,
377,125,41,8,2,27,53,615,['n'],1,right,['1'],6,112,[-0.1016642],100,53,easy,plus,dotcolour,beta,,,16,18,M,R,
378,0,0,9,3,36,44,833,['n'],1,right,['2'],5,145,[-0.0311495],24,44,hard,minus,dotcolour,beta,,,16,18,M,R,
379,1,1,9,3,27,53,564,['n'],1,right,['1'],6,86,[-0.13943806],99,53,easy,minus,dotcolour,beta,,,16,18,M,R,
380,2,2,9,3,36,44,649,['n'],1,right,['1'],6,73,[-0.09052623],91,44,hard,minus,dotcolour,beta,,,16,18,M,R,
381,3,3,9,3,36,44,532,['n'],1,right,['2'],5,83,[-0.06912313],70,44,hard,minus,dotcolour,beta,,,16,18,M,R,
382,4,4,9,3,47,33,698,['c'],1,left,['2'],5,101,[0.11243022],96,47,medium,minus,dotcolour,beta,,,16,18,M,R,
383,5,5,9,3,44,36,565,['n'],0,left,['2'],5,132,[-0.06159514],57,44,hard,minus,dotcolour,beta,,,16,18,M,R,
384,6,6,9,3,36,44,683,['n'],1,right,['1'],6,172,[-0.09240785],83,44,hard,minus,dotcolour,beta,,,16,18,M,R,
385,7,7,9,3,53,27,700,['c'],1,left,['3'],4,131,[0.08334299],80,53,easy,minus,dotcolour,beta,,,16,18,M,R,
386,8,8,9,3,53,27,566,['c'],1,left,['3'],4,88,[0.00971925],6,53,easy,minus,dotcolour,beta,,,16,18,M,R,
387,9,9,9,3,47,33,1117,['c'],1,left,['3'],4,329,[0.09369991],77,47,medium,minus,dotcolour,beta,,,16,18,M,R,
388,10,10,9,3,53,27,648,['c'],1,left,['1'],6,219,[0.047657],42,53,easy,minus,dotcolour,beta,,,16,18,M,R,
389,11,11,9,3,33,47,966,['n'],1,right,['1'],6,165,[-0.16244381],99,47,medium,minus,dotcolour,beta,,,16,18,M,R,
390,12,12,9,3,47,33,866,['n'],0,left,['3'],4,109,[-0.08853379],86,47,medium,minus,dotcolour,beta,,,16,18,M,R,
391,13,13,9,3,44,36,899,['c'],1,left,['3'],4,165,[0.07329821],69,44,hard,minus,dotcolour,beta,,,16,18,M,R,
392,14,14,9,3,44,36,648,['c'],1,left,['2'],5,215,[0.05329709],48,44,hard,minus,dotcolour,beta,,,16,18,M,R,
393,15,15,9,3,44,36,1380,['c'],1,left,['2'],5,183,[0.11564369],93,44,hard,minus,dotcolour,beta,,,16,18,M,R,
394,16,16,9,3,44,36,2049,['c'],1,left,['2'],5,120,[0.05993755],56,44,hard,minus,dotcolour,beta,,,16,18,M,R,
395,17,17,9,3,33,47,665,['n'],1,right,['1'],6,121,[-0.10629321],93,47,medium,minus,dotcolour,beta,,,16,18,M,R,
396,18,18,9,3,33,47,549,['n'],1,right,['1'],6,48,[-0.11813463],99,47,medium,minus,dotcolour,beta,,,16,18,M,R,
397,19,19,9,3,27,53,567,['n'],1,right,['1'],6,129,[-0.07005244],67,53,easy,minus,dotcolour,beta,,,16,18,M,R,
398,20,20,9,3,27,53,433,['n'],1,right,['1'],6,75,[-0.07331769],76,53,easy,minus,dotcolour,beta,,,16,18,M,R,
399,21,21,9,3,47,33,1097,['c'],1,left,['2'],5,182,[0.07792315],72,47,medium,minus,dotcolour,beta,,,16,18,M,R,
400,22,22,9,3,33,47,767,['n'],1,right,['1'],6,113,[-0.06699618],65,47,medium,minus,dotcolour,beta,,,16,18,M,R,
401,23,23,9,3,27,53,532,['n'],1,right,['1'],6,64,[-0.03859624],23,53,easy,minus,dotcolour,beta,,,16,18,M,R,
402,24,24,9,3,53,27,765,['c'],1,left,['2'],5,128,[0.06644688],63,53,easy,minus,dotcolour,beta,,,16,18,M,R,
403,25,25,9,3,44,36,1049,['n'],0,left,['2'],5,146,[-0.05430153],49,44,hard,minus,dotcolour,beta,,,16,18,M,R,
404,26,26,9,3,27,53,630,['n'],1,right,['1'],6,44,[-0.09804264],97,53,easy,minus,dotcolour,beta,,,16,18,M,R,
405,27,27,9,3,53,27,848,['c'],1,left,['2'],5,73,[0.07487009],78,53,easy,minus,dotcolour,beta,,,16,18,M,R,
406,28,28,9,3,53,27,565,['c'],1,left,['2'],5,113,[0.02493355],16,53,easy,minus,dotcolour,beta,,,16,18,M,R,
407,29,29,9,3,36,44,531,['n'],1,right,['1'],6,65,[-0.06835875],71,44,hard,minus,dotcolour,beta,,,16,18,M,R,
408,30,30,9,3,27,53,531,['n'],1,right,['1'],6,58,[-0.10669116],98,53,easy,minus,dotcolour,beta,,,16,18,M,R,
409,31,31,9,3,47,33,765,['c'],1,left,['1'],6,122,[0.14126237],99,47,medium,minus,dotcolour,beta,,,16,18,M,R,
410,32,32,9,3,27,53,498,['n'],1,right,['1'],6,19,[-0.06128081],68,53,easy,minus,dotcolour,beta,,,16,18,M,R,
411,33,33,9,3,53,27,566,['c'],1,left,['1'],6,126,[0.06170672],58,53,easy,minus,dotcolour,beta,,,16,18,M,R,
412,34,34,9,3,47,33,884,['c'],1,left,['2'],5,118,[0.05221286],46,47,medium,minus,dotcolour,beta,,,16,18,M,R,
413,35,35,9,3,47,33,1216,['n'],0,left,['2'],5,194,[-0.08923718],80,47,medium,minus,dotcolour,beta,,,16,18,M,R,
414,36,36,9,3,33,47,564,['n'],1,right,['1'],6,221,[-0.04572698],41,47,medium,minus,dotcolour,beta,,,16,18,M,R,
415,37,37,9,3,33,47,616,['n'],1,right,['3'],4,156,[-0.09770607],87,47,medium,minus,dotcolour,beta,,,16,18,M,R,
416,38,38,9,3,36,44,1182,['n'],1,right,['3'],4,96,[-0.10866541],96,44,hard,minus,dotcolour,beta,,,16,18,M,R,
417,39,39,9,3,36,44,1331,['c'],0,right,['3'],4,120,[0.05902155],54,44,hard,minus,dotcolour,beta,,,16,18,M,R,
418,40,40,9,3,44,36,965,['c'],1,left,['3'],4,102,[0.09949163],92,44,hard,minus,dotcolour,beta,,,16,18,M,R,
419,41,41,9,3,33,47,614,['n'],1,right,['2'],5,426,[-0.2221995],99,47,medium,minus,dotcolour,beta,,,16,18,M,R,
420,42,0,10,3,33,47,1433,['n'],1,right,['2'],5,203,[-0.0416534],36,47,medium,minus,dotcolour,beta,,,16,18,M,R,
421,43,1,10,3,33,47,698,['n'],1,right,['3'],4,497,[-0.0133401],25,47,medium,minus,dotcolour,beta,,,16,18,M,R,
422,44,2,10,3,53,27,651,['c'],1,left,['3'],4,180,[0.1830864],100,53,easy,minus,dotcolour,beta,,,16,18,M,R,
423,45,3,10,3,36,44,765,['n'],1,right,['2'],5,167,[-0.03202712],26,44,hard,minus,dotcolour,beta,,,16,18,M,R,
424,46,4,10,3,33,47,665,['n'],1,right,['3'],4,127,[-0.05082762],44,47,medium,minus,dotcolour,beta,,,16,18,M,R,
425,47,5,10,3,36,44,798,['n'],1,right,['3'],4,131,[-0.06181041],58,44,hard,minus,dotcolour,beta,,,16,18,M,R,
426,48,6,10,3,53,27,715,['c'],1,left,['3'],4,155,[0.11657787],94,53,easy,minus,dotcolour,beta,,,16,18,M,R,
427,49,7,10,3,36,44,615,['n'],1,right,['3'],4,165,[-0.10011627],88,44,hard,minus,dotcolour,beta,,,16,18,M,R,
428,50,8,10,3,53,27,533,['c'],1,left,['3'],4,122,[0.0425063],34,53,easy,minus,dotcolour,beta,,,16,18,M,R,
429,51,9,10,3,47,33,2065,['n'],0,left,['3'],4,60,[-0.03119354],14,47,medium,minus,dotcolour,beta,,,16,18,M,R,
430,52,10,10,3,47,33,864,['c'],1,left,['3'],4,320,[0.06093894],54,47,medium,minus,dotcolour,beta,,,16,18,M,R,
431,53,11,10,3,47,33,782,['c'],1,left,['3'],4,181,[0.11617276],93,47,medium,minus,dotcolour,beta,,,16,18,M,R,
432,54,12,10,3,33,47,715,['n'],1,right,['1'],6,59,[-0.11018506],98,47,medium,minus,dotcolour,beta,,,16,18,M,R,
433,55,13,10,3,27,53,732,['n'],1,right,['1'],6,147,[-0.03116906],24,53,easy,minus,dotcolour,beta,,,16,18,M,R,
434,56,14,10,3,44,36,983,['c'],1,left,['2'],5,71,[0.08324986],87,44,hard,minus,dotcolour,beta,,,16,18,M,R,
435,57,15,10,3,36,44,882,['n'],1,right,['1'],6,83,[-0.06056714],58,44,hard,minus,dotcolour,beta,,,16,18,M,R,
436,58,16,10,3,44,36,798,['c'],1,left,['2'],5,161,[0.08263466],77,44,hard,minus,dotcolour,beta,,,16,18,M,R,
437,59,17,10,3,47,33,715,['c'],1,left,['2'],5,119,[0.10222763],92,47,medium,minus,dotcolour,beta,,,16,18,M,R,
438,60,18,10,3,47,33,633,['c'],1,left,['2'],5,98,[0.08368329],83,47,medium,minus,dotcolour,beta,,,16,18,M,R,
439,61,19,10,3,53,27,882,['c'],1,left,['2'],5,180,[0.08728904],79,53,easy,minus,dotcolour,beta,,,16,18,M,R,
440,62,20,10,3,53,27,799,['c'],1,left,['2'],5,102,[0.08682738],85,53,easy,minus,dotcolour,beta,,,16,18,M,R,
441,63,21,10,3,53,27,933,['c'],1,left,['1'],6,606,[0.07952362],64,53,easy,minus,dotcolour,beta,,,16,18,M,R,
442,64,22,10,3,53,27,549,['c'],1,left,['2'],5,97,[0.14079948],99,53,easy,minus,dotcolour,beta,,,16,18,M,R,
443,65,23,10,3,36,44,548,['n'],1,right,['2'],5,184,[-0.0296504],25,44,hard,minus,dotcolour,beta,,,16,18,M,R,
444,66,24,10,3,27,53,465,['n'],1,right,['2'],5,120,[-0.06773338],65,53,easy,minus,dotcolour,beta,,,16,18,M,R,
445,67,25,10,3,47,33,832,['n'],0,left,['0'],1,1019,[0.02583502],19,47,medium,minus,dotcolour,beta,,,16,18,M,R,
446,68,26,10,3,44,36,997,['c'],1,left,['2'],5,267,[0.02334093],25,44,hard,minus,dotcolour,beta,,,16,18,M,R,
447,69,27,10,3,44,36,648,['c'],1,left,['2'],5,103,[0.03687694],26,44,hard,minus,dotcolour,beta,,,16,18,M,R,
448,70,28,10,3,27,53,548,['n'],1,right,['1'],6,158,[-0.06312916],58,53,easy,minus,dotcolour,beta,,,16,18,M,R,
449,71,29,10,3,27,53,466,['n'],1,right,['1'],6,63,[-0.07708114],82,53,easy,minus,dotcolour,beta,,,16,18,M,R,
450,72,30,10,3,33,47,767,['n'],1,right,['2'],5,38,[-0.06625916],73,47,medium,minus,dotcolour,beta,,,16,18,M,R,
451,73,31,10,3,27,53,516,['n'],1,right,['1'],6,66,[-0.11563737],99,53,easy,minus,dotcolour,beta,,,16,18,M,R,
452,74,32,10,3,27,53,648,['n'],1,right,['1'],6,79,[-0.10586638],96,53,easy,minus,dotcolour,beta,,,16,18,M,R,
453,75,33,10,3,44,36,981,['n'],0,left,['2'],5,157,[-0.0116987],12,44,hard,minus,dotcolour,beta,,,16,18,M,R,
454,76,34,10,3,33,47,747,['n'],1,right,['3'],4,267,[-0.04363829],40,47,medium,minus,dotcolour,beta,,,16,18,M,R,
455,77,35,10,3,36,44,699,['n'],1,right,['1'],6,77,[-0.05511694],49,44,hard,minus,dotcolour,beta,,,16,18,M,R,
456,78,36,10,3,47,33,782,['c'],1,left,['2'],5,204,[0.07799076],71,47,medium,minus,dotcolour,beta,,,16,18,M,R,
457,79,37,10,3,27,53,598,['n'],1,right,['1'],6,45,[-0.0681244],74,53,easy,minus,dotcolour,beta,,,16,18,M,R,
458,80,38,10,3,36,44,748,['n'],1,right,['2'],5,55,[-0.09185506],94,44,hard,minus,dotcolour,beta,,,16,18,M,R,
459,81,39,10,3,44,36,866,['c'],1,left,['3'],4,226,[0.02959371],27,44,hard,minus,dotcolour,beta,,,16,18,M,R,
460,82,40,10,3,33,47,816,['n'],1,right,['2'],5,202,[-0.22504058],100,47,medium,minus,dotcolour,beta,,,16,18,M,R,
461,83,41,10,3,44,36,1233,['c'],1,left,['3'],4,106,[0.03474004],24,44,hard,minus,dotcolour,beta,,,16,18,M,R,
462,84,0,11,3,36,44,733,['n'],1,right,['2'],5,68,[-0.03861238],24,44,hard,minus,dotcolour,beta,,,16,18,M,R,
463,85,1,11,3,53,27,898,['c'],1,left,['1'],6,327,[0.06813796],60,53,easy,minus,dotcolour,beta,,,16,18,M,R,
464,86,2,11,3,33,47,664,['n'],1,right,['1'],6,160,[-0.06614511],62,47,medium,minus,dotcolour,beta,,,16,18,M,R,
465,87,3,11,3,53,27,1699,['n'],0,left,['3'],4,423,[-0.03838204],38,53,easy,minus,dotcolour,beta,,,16,18,M,R,
466,88,4,11,3,47,33,715,['c'],1,left,['3'],4,162,[0.12308986],95,47,medium,minus,dotcolour,beta,,,16,18,M,R,
467,89,5,11,3,53,27,633,['c'],1,left,['3'],4,76,[0.15244658],100,53,easy,minus,dotcolour,beta,,,16,18,M,R,
468,90,6,11,3,36,44,897,['n'],1,right,['3'],4,30,[-0.05575638],51,44,hard,minus,dotcolour,beta,,,16,18,M,R,
469,91,7,11,3,47,33,815,['c'],1,left,['3'],4,85,[0.12880876],99,47,medium,minus,dotcolour,beta,,,16,18,M,R,
470,92,8,11,3,36,44,933,['n'],1,right,['3'],4,22,[-0.07712487],93,44,hard,minus,dotcolour,beta,,,16,18,M,R,
471,93,9,11,3,36,44,1331,['c'],0,right,['3'],4,201,[0.04252726],37,44,hard,minus,dotcolour,beta,,,16,18,M,R,
472,94,10,11,3,36,44,699,['n'],1,right,['1'],6,110,[-0.10012318],92,44,hard,minus,dotcolour,beta,,,16,18,M,R,
473,95,11,11,3,27,53,548,['n'],1,right,['2'],5,69,[-0.09157817],92,53,easy,minus,dotcolour,beta,,,16,18,M,R,
474,96,12,11,3,33,47,482,['n'],1,right,['2'],5,48,[-0.15031136],100,47,medium,minus,dotcolour,beta,,,16,18,M,R,
475,97,13,11,3,33,47,582,['n'],1,right,['3'],4,96,[-0.07788555],79,47,medium,minus,dotcolour,beta,,,16,18,M,R,
476,98,14,11,3,47,33,715,['c'],1,left,['3'],4,81,[0.11390376],98,47,medium,minus,dotcolour,beta,,,16,18,M,R,
477,99,15,11,3,33,47,632,['n'],1,right,['2'],5,37,[-0.06474739],70,47,medium,minus,dotcolour,beta,,,16,18,M,R,
478,100,16,11,3,47,33,882,['c'],1,left,['3'],4,98,[0.10996699],96,47,medium,minus,dotcolour,beta,,,16,18,M,R,
479,101,17,11,3,44,36,933,['n'],0,left,['2'],5,2,[-0.07391402],100,44,hard,minus,dotcolour,beta,,,16,18,M,R,
480,102,18,11,3,36,44,615,['n'],1,right,['2'],5,123,[-0.01650626],12,44,hard,minus,dotcolour,beta,,,16,18,M,R,
481,103,19,11,3,47,33,715,['c'],1,left,['3'],4,202,[-0.00676258],8,47,medium,minus,dotcolour,beta,,,16,18,M,R,
482,104,20,11,3,27,53,517,['n'],1,right,['2'],5,86,[-0.07675334],79,53,easy,minus,dotcolour,beta,,,16,18,M,R,
483,105,21,11,3,36,44,582,['n'],1,right,['3'],4,478,[-0.13432755],89,44,hard,minus,dotcolour,beta,,,16,18,M,R,
484,106,22,11,3,33,47,533,['n'],1,right,['3'],4,37,[-0.05927546],59,47,medium,minus,dotcolour,beta,,,16,18,M,R,
485,107,23,11,3,27,53,616,['n'],1,right,['2'],5,109,[-0.03887083],29,53,easy,minus,dotcolour,beta,,,16,18,M,R,
486,108,24,11,3,44,36,983,['c'],1,left,['2'],5,178,[0.09653754],85,44,hard,minus,dotcolour,beta,,,16,18,M,R,
487,109,25,11,3,47,33,900,['c'],1,left,['2'],5,160,[0.07585923],71,47,medium,minus,dotcolour,beta,,,16,18,M,R,
488,110,26,11,3,44,36,782,['n'],0,left,['2'],5,243,[-0.0615381],55,44,hard,minus,dotcolour,beta,,,16,18,M,R,
489,111,27,11,3,27,53,483,['n'],1,right,['2'],5,127,[-0.09825753],90,53,easy,minus,dotcolour,beta,,,16,18,M,R,
490,112,28,11,3,44,36,765,['c'],1,left,['2'],5,197,[0.11962065],93,44,hard,minus,dotcolour,beta,,,16,18,M,R,
491,113,29,11,3,47,33,765,['c'],1,left,['2'],5,191,[0.11842949],93,47,medium,minus,dotcolour,beta,,,16,18,M,R,
492,114,30,11,3,53,27,649,['c'],1,left,['2'],5,151,[0.0949327],86,53,easy,minus,dotcolour,beta,,,16,18,M,R,
493,115,31,11,3,53,27,732,['c'],1,left,['1'],6,277,[0.15434666],97,53,easy,minus,dotcolour,beta,,,16,18,M,R,
494,116,32,11,3,44,36,749,['n'],0,left,['2'],5,277,[-0.078049],68,44,hard,minus,dotcolour,beta,,,16,18,M,R,
495,117,33,11,3,53,27,766,['c'],1,left,['2'],5,172,[0.13517992],97,53,easy,minus,dotcolour,beta,,,16,18,M,R,
496,118,34,11,3,44,36,698,['c'],1,left,['3'],4,698,[0.01686948],30,44,hard,minus,dotcolour,beta,,,16,18,M,R,
497,119,35,11,3,44,36,616,['c'],1,left,['2'],5,231,[0.0876478],77,44,hard,minus,dotcolour,beta,,,16,18,M,R,
498,120,36,11,3,27,53,599,['n'],1,right,['1'],6,231,[-0.07207479],65,53,easy,minus,dotcolour,beta,,,16,18,M,R,
499,121,37,11,3,33,47,782,['n'],1,right,['1'],6,191,[-0.13493592],96,47,medium,minus,dotcolour,beta,,,16,18,M,R,
500,122,38,11,3,27,53,582,['n'],1,right,['2'],5,233,[-0.15294224],97,53,easy,minus,dotcolour,beta,,,16,18,M,R,
501,123,39,11,3,33,47,649,['n'],1,right,['2'],5,223,[-0.09113809],80,47,medium,minus,dotcolour,beta,,,16,18,M,R,
502,124,40,11,3,53,27,716,['c'],1,left,['2'],5,259,[0.09726419],81,53,easy,minus,dotcolour,beta,,,16,18,M,R,
503,125,41,11,3,27,53,583,['n'],1,right,['2'],5,162,[-0.08656784],80,53,easy,minus,dotcolour,beta,,,16,18,M,R,
504,0,0,12,4,36,44,600,['n'],1,right,['2'],5,104,[-0.09446336],100,44,hard,plus,dotcolour,beta,,,16,18,M,R,
505,1,1,12,4,47,33,665,['c'],1,left,['2'],5,122,[0.03282909],99,47,medium,plus,dotcolour,beta,,,16,18,M,R,
506,2,2,12,4,33,47,633,['n'],1,right,['2'],5,166,[-0.05721561],99,47,medium,plus,dotcolour,beta,,,16,18,M,R,
507,3,3,12,4,53,27,483,['c'],1,left,['2'],5,133,[0.08000142],100,53,easy,plus,dotcolour,beta,,,16,18,M,R,
508,4,4,12,4,44,36,883,['c'],1,left,['3'],4,174,[0.14847338],100,44,hard,plus,dotcolour,beta,,,16,18,M,R,
509,5,5,12,4,44,36,800,['n'],0,left,['3'],4,321,[0.05199186],53,44,hard,plus,dotcolour,beta,,,16,18,M,R,
510,6,6,12,4,47,33,749,['c'],1,left,['3'],4,182,[0.04906897],99,47,medium,plus,dotcolour,beta,,,16,18,M,R,
511,7,7,12,4,27,53,566,['n'],1,right,['2'],5,90,[-0.08224677],100,53,easy,plus,dotcolour,beta,,,16,18,M,R,
512,8,8,12,4,53,27,716,['c'],1,left,['2'],5,147,[0.07096271],100,53,easy,plus,dotcolour,beta,,,16,18,M,R,
513,9,9,12,4,27,53,582,['n'],1,right,['1'],6,127,[-0.06787719],100,53,easy,plus,dotcolour,beta,,,16,18,M,R,
514,10,10,12,4,44,36,882,['c'],1,left,['1'],6,176,[0.04414699],99,44,hard,plus,dotcolour,beta,,,16,18,M,R,
515,11,11,12,4,47,33,715,['c'],1,left,['2'],5,125,[0.09073348],100,47,medium,plus,dotcolour,beta,,,16,18,M,R,
516,12,12,12,4,53,27,631,['c'],1,left,['2'],5,104,[0.08610804],100,53,easy,plus,dotcolour,beta,,,16,18,M,R,
517,13,13,12,4,33,47,498,['n'],1,right,['1'],6,105,[-0.08181596],100,47,medium,plus,dotcolour,beta,,,16,18,M,R,
518,14,14,12,4,36,44,565,['n'],1,right,['2'],5,127,[-0.10967531],100,44,hard,plus,dotcolour,beta,,,16,18,M,R,
519,15,15,12,4,27,53,466,['n'],1,right,['2'],5,120,[-0.05751907],100,53,easy,plus,dotcolour,beta,,,16,18,M,R,
520,16,16,12,4,44,36,666,['c'],1,left,['2'],5,170,[0.02445347],97,44,hard,plus,dotcolour,beta,,,16,18,M,R,
521,17,17,12,4,36,44,598,['n'],1,right,['2'],5,109,[-0.06538055],100,44,hard,plus,dotcolour,beta,,,16,18,M,R,
522,18,18,12,4,33,47,432,['n'],1,right,['2'],5,144,[-0.03491921],99,47,medium,plus,dotcolour,beta,,,16,18,M,R,
523,19,19,12,4,33,47,599,['n'],1,right,['2'],5,211,[-0.11016634],100,47,medium,plus,dotcolour,beta,,,16,18,M,R,
524,20,20,12,4,27,53,531,['n'],1,right,['2'],5,135,[-0.04934855],99,53,easy,plus,dotcolour,beta,,,16,18,M,R,
525,21,21,12,4,47,33,681,['c'],1,left,['1'],6,167,[0.02615643],97,47,medium,plus,dotcolour,beta,,,16,18,M,R,
526,22,22,12,4,36,44,749,['n'],1,right,['2'],5,196,[-0.12289988],100,44,hard,plus,dotcolour,beta,,,16,18,M,R,
527,23,23,12,4,27,53,482,['n'],1,right,['1'],6,146,[-0.02744389],98,53,easy,plus,dotcolour,beta,,,16,18,M,R,
528,24,24,12,4,47,33,616,['c'],1,left,['2'],5,213,[0.00310059],91,47,medium,plus,dotcolour,beta,,,16,18,M,R,
529,25,25,12,4,44,36,632,['c'],1,left,['3'],4,204,[0.13130953],100,44,hard,plus,dotcolour,beta,,,16,18,M,R,
530,26,26,12,4,33,47,566,['n'],1,right,['2'],5,287,[-0.12493015],100,47,medium,plus,dotcolour,beta,,,16,18,M,R,
531,27,27,12,4,53,27,699,['c'],1,left,['2'],5,177,[0.08970619],100,53,easy,plus,dotcolour,beta,,,16,18,M,R,
532,28,28,12,4,36,44,1000,['c'],0,right,['3'],4,355,[0.10328596],99,44,hard,plus,dotcolour,beta,,,16,18,M,R,
533,29,29,12,4,53,27,648,['c'],1,left,['3'],4,243,[0.08888648],99,53,easy,plus,dotcolour,beta,,,16,18,M,R,
534,30,30,12,4,53,27,632,['c'],1,left,['2'],5,577,[0.07871958],96,53,easy,plus,dotcolour,beta,,,16,18,M,R,
535,31,31,12,4,33,47,516,['n'],1,right,['1'],6,239,[-0.17111495],100,47,medium,plus,dotcolour,beta,,,16,18,M,R,
536,32,32,12,4,33,47,550,['n'],1,right,['1'],6,104,[-0.13583885],100,47,medium,plus,dotcolour,beta,,,16,18,M,R,
537,33,33,12,4,27,53,516,['n'],1,right,['2'],5,105,[-0.08521186],100,53,easy,plus,dotcolour,beta,,,16,18,M,R,
538,34,34,12,4,47,33,815,['n'],0,left,['3'],4,237,[-0.0157733],93,47,medium,plus,dotcolour,beta,,,16,18,M,R,
539,35,35,12,4,47,33,1080,['c'],1,left,['3'],4,170,[0.08407386],100,47,medium,plus,dotcolour,beta,,,16,18,M,R,
540,36,36,12,4,36,44,566,['n'],1,right,['2'],5,342,[-0.14277576],100,44,hard,plus,dotcolour,beta,,,16,18,M,R,
541,37,37,12,4,27,53,565,['n'],1,right,['2'],5,218,[-0.09963179],100,53,easy,plus,dotcolour,beta,,,16,18,M,R,
542,38,38,12,4,44,36,1066,['c'],1,left,['3'],4,217,[0.0246916],96,44,hard,plus,dotcolour,beta,,,16,18,M,R,
543,39,39,12,4,44,36,866,['c'],1,left,['1'],6,190,[0.10201408],100,44,hard,plus,dotcolour,beta,,,16,18,M,R,
544,40,40,12,4,36,44,716,['n'],1,right,['2'],5,132,[-0.12030823],100,44,hard,plus,dotcolour,beta,,,16,18,M,R,
545,41,41,12,4,53,27,731,['c'],1,left,['2'],5,194,[0.14614175],100,53,easy,plus,dotcolour,beta,,,16,18,M,R,
546,42,0,13,4,27,53,566,['n'],1,right,['1'],6,166,[-0.12017131],100,53,easy,plus,dotcolour,beta,,,16,18,M,R,
547,43,1,13,4,33,47,749,['c'],0,right,['2'],5,226,[0.05682985],99,47,medium,plus,dotcolour,beta,,,16,18,M,R,
548,44,2,13,4,44,36,1316,['c'],1,left,['3'],4,190,[0.06306931],99,44,hard,plus,dotcolour,beta,,,16,18,M,R,
549,45,3,13,4,47,33,748,['c'],1,left,['3'],4,194,[0.06907136],99,47,medium,plus,dotcolour,beta,,,16,18,M,R,
550,46,4,13,4,36,44,498,['n'],1,right,['1'],6,103,[-0.11536746],100,44,hard,plus,dotcolour,beta,,,16,18,M,R,
551,47,5,13,4,53,27,616,['c'],1,left,['2'],5,132,[0.09276345],100,53,easy,plus,dotcolour,beta,,,16,18,M,R,
552,48,6,13,4,44,36,649,['c'],1,left,['2'],5,230,[0.09006063],100,44,hard,plus,dotcolour,beta,,,16,18,M,R,
553,49,7,13,4,44,36,765,['c'],1,left,['2'],5,127,[0.1119024],100,44,hard,plus,dotcolour,beta,,,16,18,M,R,
554,50,8,13,4,44,36,813,['c'],1,left,['3'],4,147,[0.07837337],100,44,hard,plus,dotcolour,beta,,,16,18,M,R,
555,51,9,13,4,27,53,616,['n'],1,right,['1'],6,293,[-0.09879269],99,53,easy,plus,dotcolour,beta,,,16,18,M,R,
556,52,10,13,4,53,27,583,['c'],1,left,['2'],5,155,[0.08037873],100,53,easy,plus,dotcolour,beta,,,16,18,M,R,
557,53,11,13,4,27,53,666,['n'],1,right,['3'],4,331,[-0.13428266],100,53,easy,plus,dotcolour,beta,,,16,18,M,R,
558,54,12,13,4,36,44,782,['n'],1,right,['3'],4,208,[-0.02713796],96,44,hard,plus,dotcolour,beta,,,16,18,M,R,
559,55,13,13,4,27,53,581,['n'],1,right,['1'],6,162,[-0.07945402],100,53,easy,plus,dotcolour,beta,,,16,18,M,R,
560,56,14,13,4,47,33,766,['c'],1,left,['2'],5,125,[0.08888198],100,47,medium,plus,dotcolour,beta,,,16,18,M,R,
561,57,15,13,4,53,27,600,['n'],0,left,['0'],1,1130,[0.07653301],41,53,easy,plus,dotcolour,beta,,,16,18,M,R,
562,58,16,13,4,53,27,632,['c'],1,left,['2'],5,420,[0.11980814],99,53,easy,plus,dotcolour,beta,,,16,18,M,R,
563,59,17,13,4,27,53,600,['n'],1,right,['1'],6,172,[-0.09669788],100,53,easy,plus,dotcolour,beta,,,16,18,M,R,
564,60,18,13,4,27,53,549,['n'],1,right,['1'],6,120,[-0.07543581],100,53,easy,plus,dotcolour,beta,,,16,18,M,R,
565,61,19,13,4,44,36,765,['c'],1,left,['3'],4,166,[0.0823653],100,44,hard,plus,dotcolour,beta,,,16,18,M,R,
566,62,20,13,4,36,44,534,['n'],1,right,['2'],5,187,[-0.05506868],99,44,hard,plus,dotcolour,beta,,,16,18,M,R,
567,63,21,13,4,36,44,465,['n'],1,right,['2'],5,251,[-0.07738559],99,44,hard,plus,dotcolour,beta,,,16,18,M,R,
568,64,22,13,4,36,44,501,['n'],1,right,['1'],6,70,[-0.08225671],100,44,hard,plus,dotcolour,beta,,,16,18,M,R,
569,65,23,13,4,47,33,764,['c'],1,left,['2'],5,190,[0.0893554],100,47,medium,plus,dotcolour,beta,,,16,18,M,R,
570,66,24,13,4,53,27,616,['c'],1,left,['1'],6,111,[0.08017575],100,53,easy,plus,dotcolour,beta,,,16,18,M,R,
571,67,25,13,4,27,53,616,['n'],1,right,['1'],6,115,[-0.14991705],100,53,easy,plus,dotcolour,beta,,,16,18,M,R,
572,68,26,13,4,44,36,832,['n'],0,left,['3'],4,278,[-0.02233209],93,44,hard,plus,dotcolour,beta,,,16,18,M,R,
573,69,27,13,4,33,47,549,['n'],1,right,['2'],5,294,[-0.027567],94,47,medium,plus,dotcolour,beta,,,16,18,M,R,
574,70,28,13,4,36,44,648,['n'],1,right,['2'],5,81,[-0.10444815],100,44,hard,plus,dotcolour,beta,,,16,18,M,R,
575,71,29,13,4,47,33,698,['c'],1,left,['2'],5,83,[0.08600657],100,47,medium,plus,dotcolour,beta,,,16,18,M,R,
576,72,30,13,4,33,47,532,['n'],1,right,['1'],6,84,[-0.01540911],99,47,medium,plus,dotcolour,beta,,,16,18,M,R,
577,73,31,13,4,47,33,782,['c'],1,left,['2'],5,275,[0.07367826],99,47,medium,plus,dotcolour,beta,,,16,18,M,R,
578,74,32,13,4,33,47,683,['c'],0,right,['0'],1,909,[0.0544341],89,47,medium,plus,dotcolour,beta,,,16,18,M,R,
579,75,33,13,4,47,33,833,['c'],1,left,['2'],5,672,[0.12957726],98,47,medium,plus,dotcolour,beta,,,16,18,M,R,
580,76,34,13,4,33,47,616,['n'],1,right,['2'],5,118,[-0.05603455],100,47,medium,plus,dotcolour,beta,,,16,18,M,R,
581,77,35,13,4,33,47,632,['n'],1,right,['2'],5,73,[-0.08543157],100,47,medium,plus,dotcolour,beta,,,16,18,M,R,
582,78,36,13,4,36,44,649,['n'],1,right,['1'],6,93,[-0.07180988],100,44,hard,plus,dotcolour,beta,,,16,18,M,R,
583,79,37,13,4,47,33,849,['c'],1,left,['2'],5,201,[0.04814986],98,47,medium,plus,dotcolour,beta,,,16,18,M,R,
584,80,38,13,4,53,27,783,['c'],1,left,['2'],5,114,[0.09977998],100,53,easy,plus,dotcolour,beta,,,16,18,M,R,
585,81,39,13,4,53,27,632,['c'],1,left,['2'],5,134,[0.05482309],100,53,easy,plus,dotcolour,beta,,,16,18,M,R,
586,82,40,13,4,44,36,883,['n'],0,left,['1'],6,79,[-0.06603607],100,44,hard,plus,dotcolour,beta,,,16,18,M,R,
587,83,41,13,4,33,47,665,['n'],1,right,['1'],6,83,[-0.05305834],100,47,medium,plus,dotcolour,beta,,,16,18,M,R,
588,84,0,14,4,33,47,633,['n'],1,right,['2'],5,92,[-0.0450178],100,47,medium,plus,dotcolour,beta,,,16,18,M,R,
589,85,1,14,4,53,27,615,['c'],1,left,['2'],5,88,[0.06792793],100,53,easy,plus,dotcolour,beta,,,16,18,M,R,
590,86,2,14,4,53,27,632,['c'],1,left,['2'],5,140,[0.10383835],100,53,easy,plus,dotcolour,beta,,,16,18,M,R,
591,87,3,14,4,53,27,532,['c'],1,left,['3'],4,155,[0.1099198],100,53,easy,plus,dotcolour,beta,,,16,18,M,R,
592,88,4,14,4,44,36,883,['c'],1,left,['2'],5,138,[0.16977554],100,44,hard,plus,dotcolour,beta,,,16,18,M,R,
593,89,5,14,4,44,36,733,['n'],0,left,['3'],4,129,[-0.04239492],99,44,hard,plus,dotcolour,beta,,,16,18,M,R,
594,90,6,14,4,44,36,614,['c'],1,left,['2'],5,125,[0.1244122],100,44,hard,plus,dotcolour,beta,,,16,18,M,R,
595,91,7,14,4,47,33,698,['c'],1,left,['3'],4,140,[0.11111006],100,47,medium,plus,dotcolour,beta,,,16,18,M,R,
596,92,8,14,4,33,47,632,['n'],1,right,['2'],5,135,[-0.0759449],100,47,medium,plus,dotcolour,beta,,,16,18,M,R,
597,93,9,14,4,36,44,816,['n'],1,right,['2'],5,146,[-0.12094812],100,44,hard,plus,dotcolour,beta,,,16,18,M,R,
598,94,10,14,4,27,53,565,['n'],1,right,['3'],4,214,[-0.1151664],100,53,easy,plus,dotcolour,beta,,,16,18,M,R,
599,95,11,14,4,33,47,614,['n'],1,right,['2'],5,326,[-0.08593101],99,47,medium,plus,dotcolour,beta,,,16,18,M,R,
600,96,12,14,4,27,53,416,['n'],1,right,['2'],5,146,[-0.09040157],100,53,easy,plus,dotcolour,beta,,,16,18,M,R,
601,97,13,14,4,53,27,665,['c'],1,left,['2'],5,98,[0.07740893],100,53,easy,plus,dotcolour,beta,,,16,18,M,R,
602,98,14,14,4,44,36,615,['n'],0,left,['2'],5,119,[-0.04660548],100,44,hard,plus,dotcolour,beta,,,16,18,M,R,
603,99,15,14,4,33,47,697,['n'],1,right,['2'],5,95,[-0.06802462],100,47,medium,plus,dotcolour,beta,,,16,18,M,R,
604,100,16,14,4,53,27,699,['c'],1,left,['2'],5,137,[0.0923391],100,53,easy,plus,dotcolour,beta,,,16,18,M,R,
605,101,17,14,4,47,33,734,['n'],0,left,['2'],5,215,[-0.04932168],98,47,medium,plus,dotcolour,beta,,,16,18,M,R,
606,102,18,14,4,36,44,716,['n'],1,right,['1'],6,92,[-0.05195928],100,44,hard,plus,dotcolour,beta,,,16,18,M,R,
607,103,19,14,4,27,53,548,['n'],1,right,['1'],6,67,[-0.14234804],100,53,easy,plus,dotcolour,beta,,,16,18,M,R,
608,104,20,14,4,53,27,613,['c'],1,left,['1'],6,105,[0.07459876],100,53,easy,plus,dotcolour,beta,,,16,18,M,R,
609,105,21,14,4,36,44,682,['n'],1,right,['1'],6,123,[-0.03802369],99,44,hard,plus,dotcolour,beta,,,16,18,M,R,
610,106,22,14,4,47,33,715,['c'],1,left,['2'],5,171,[0.08190057],100,47,medium,plus,dotcolour,beta,,,16,18,M,R,
611,107,23,14,4,47,33,698,['c'],1,left,['2'],5,185,[0.09420463],100,47,medium,plus,dotcolour,beta,,,16,18,M,R,
612,108,24,14,4,27,53,582,['n'],1,right,['1'],6,99,[-0.12612955],100,53,easy,plus,dotcolour,beta,,,16,18,M,R,
613,109,25,14,4,33,47,498,['n'],1,right,['1'],6,117,[-0.08088863],100,47,medium,plus,dotcolour,beta,,,16,18,M,R,
614,110,26,14,4,33,47,581,['n'],1,right,['1'],6,90,[-0.06392659],100,47,medium,plus,dotcolour,beta,,,16,18,M,R,
615,111,27,14,4,47,33,716,['c'],1,left,['2'],5,155,[0.07749993],100,47,medium,plus,dotcolour,beta,,,16,18,M,R,
616,112,28,14,4,44,36,597,['n'],0,left,['2'],5,134,[-0.05877884],100,44,hard,plus,dotcolour,beta,,,16,18,M,R,
617,113,29,14,4,36,44,565,['n'],1,right,['2'],5,75,[-0.03898136],100,44,hard,plus,dotcolour,beta,,,16,18,M,R,
618,114,30,14,4,44,36,866,['c'],1,left,['3'],4,327,[0.11067724],99,44,hard,plus,dotcolour,beta,,,16,18,M,R,
619,115,31,14,4,53,27,765,['c'],1,left,['2'],5,276,[0.106222],100,53,easy,plus,dotcolour,beta,,,16,18,M,R,
620,116,32,14,4,36,44,683,['n'],1,right,['2'],5,231,[0.00592731],87,44,hard,plus,dotcolour,beta,,,16,18,M,R,
621,117,33,14,4,33,47,548,['n'],1,right,['3'],4,226,[-0.12870548],100,47,medium,plus,dotcolour,beta,,,16,18,M,R,
622,118,34,14,4,44,36,748,['c'],1,left,['3'],4,219,[0.03193857],97,44,hard,plus,dotcolour,beta,,,16,18,M,R,
623,119,35,14,4,47,33,798,['c'],1,left,['2'],5,123,[0.07064446],100,47,medium,plus,dotcolour,beta,,,16,18,M,R,
624,120,36,14,4,36,44,700,['n'],1,right,['3'],4,203,[-0.09383672],100,44,hard,plus,dotcolour,beta,,,16,18,M,R,
625,121,37,14,4,36,44,898,['c'],0,right,['2'],5,193,[0.10203384],100,44,hard,plus,dotcolour,beta,,,16,18,M,R,
626,122,38,14,4,27,53,782,['n'],1,right,['2'],5,139,[-0.06812162],100,53,easy,plus,dotcolour,beta,,,16,18,M,R,
627,123,39,14,4,47,33,683,['c'],1,left,['2'],5,179,[0.0961724],100,47,medium,plus,dotcolour,beta,,,16,18,M,R,
628,124,40,14,4,27,53,667,['n'],1,right,['3'],4,202,[-0.12720035],100,53,easy,plus,dotcolour,beta,,,16,18,M,R,
629,125,41,14,4,27,53,698,['n'],1,right,['2'],5,111,[-0.04070839],99,53,easy,plus,dotcolour,beta,,,16,18,M,R,
630,0,0,15,5,47,33,800,['c'],1,left,['2'],5,127,[0.10450663],92,47,medium,minus,dotcolour,beta,,,16,18,M,R,
631,1,1,15,5,33,47,583,['n'],1,right,['2'],5,156,[-0.07704253],73,47,medium,minus,dotcolour,beta,,,16,18,M,R,
632,2,2,15,5,33,47,630,['n'],1,right,['2'],5,110,[-0.1285235],98,47,medium,minus,dotcolour,beta,,,16,18,M,R,
633,3,3,15,5,33,47,798,['c'],0,right,['2'],5,170,[0.1492149],98,47,medium,minus,dotcolour,beta,,,16,18,M,R,
634,4,4,15,5,44,36,1548,['c'],1,left,['3'],4,655,[0.14153539],87,44,hard,minus,dotcolour,beta,,,16,18,M,R,
635,5,5,15,5,53,27,599,['c'],1,left,['2'],5,302,[0.17970605],98,53,easy,minus,dotcolour,beta,,,16,18,M,R,
636,6,6,15,5,47,33,765,['c'],1,left,['3'],4,285,[0.13234359],93,47,medium,minus,dotcolour,beta,,,16,18,M,R,
637,7,7,15,5,53,27,933,['c'],1,left,['2'],5,293,[0.18751131],99,53,easy,minus,dotcolour,beta,,,16,18,M,R,
638,8,8,15,5,53,27,633,['c'],1,left,['2'],5,121,[0.07606432],74,53,easy,minus,dotcolour,beta,,,16,18,M,R,
639,9,9,15,5,33,47,965,['n'],1,right,['2'],5,159,[-0.03303419],27,47,medium,minus,dotcolour,beta,,,16,18,M,R,
640,10,10,15,5,33,47,683,['n'],1,right,['2'],5,158,[-0.09431354],85,47,medium,minus,dotcolour,beta,,,16,18,M,R,
641,11,11,15,5,27,53,684,['n'],1,right,['2'],5,173,[-0.09265676],83,53,easy,minus,dotcolour,beta,,,16,18,M,R,
642,12,12,15,5,33,47,732,['n'],1,right,['2'],5,153,[-0.04107491],34,47,medium,minus,dotcolour,beta,,,16,18,M,R,
643,13,13,15,5,27,53,533,['n'],1,right,['2'],5,152,[-0.12768056],97,53,easy,minus,dotcolour,beta,,,16,18,M,R,
644,14,14,15,5,44,36,765,['c'],1,left,['2'],5,108,[0.13099485],98,44,hard,minus,dotcolour,beta,,,16,18,M,R,
645,15,15,15,5,44,36,814,['n'],0,left,['2'],5,328,[-0.1559608],96,44,hard,minus,dotcolour,beta,,,16,18,M,R,
646,16,16,15,5,36,44,599,['n'],1,right,['2'],5,109,[-0.04330746],34,44,hard,minus,dotcolour,beta,,,16,18,M,R,
647,17,17,15,5,47,33,750,['c'],1,left,['2'],5,131,[0.13418863],98,47,medium,minus,dotcolour,beta,,,16,18,M,R,
648,18,18,15,5,27,53,632,['n'],1,right,['2'],5,237,[-0.12905895],94,53,easy,minus,dotcolour,beta,,,16,18,M,R,
649,19,19,15,5,47,33,799,['c'],1,left,['2'],5,86,[0.06101467],58,47,medium,minus,dotcolour,beta,,,16,18,M,R,
650,20,20,15,5,53,27,665,['c'],1,left,['1'],6,81,[0.09045561],90,53,easy,minus,dotcolour,beta,,,16,18,M,R,
651,21,21,15,5,36,44,782,['n'],1,right,['1'],6,151,[-0.11224572],93,44,hard,minus,dotcolour,beta,,,16,18,M,R,
652,22,22,15,5,36,44,817,['n'],1,right,['1'],6,234,[-0.03643709],33,44,hard,minus,dotcolour,beta,,,16,18,M,R,
653,23,23,15,5,53,27,631,['c'],1,left,['1'],6,137,[0.19087621],100,53,easy,minus,dotcolour,beta,,,16,18,M,R,
654,24,24,15,5,44,36,581,['c'],1,left,['1'],6,102,[0.10611486],95,44,hard,minus,dotcolour,beta,,,16,18,M,R,
655,25,25,15,5,47,33,500,['c'],1,left,['1'],6,87,[0.07337997],75,47,medium,minus,dotcolour,beta,,,16,18,M,R,
656,26,26,15,5,36,44,749,['n'],1,right,['1'],6,183,[-0.09005759],81,44,hard,minus,dotcolour,beta,,,16,18,M,R,
657,27,27,15,5,47,33,616,['c'],1,left,['1'],6,88,[0.0964777],92,47,medium,minus,dotcolour,beta,,,16,18,M,R,
658,28,28,15,5,27,53,916,['n'],1,right,['1'],6,162,[-0.1155035],94,53,easy,minus,dotcolour,beta,,,16,18,M,R,
659,29,29,15,5,47,33,600,['c'],1,left,['1'],6,116,[0.06080858],57,47,medium,minus,dotcolour,beta,,,16,18,M,R,
660,30,30,15,5,33,47,714,['n'],1,right,['2'],5,212,[-0.0772339],70,47,medium,minus,dotcolour,beta,,,16,18,M,R,
661,31,31,15,5,44,36,597,['c'],1,left,['1'],6,133,[0.0647225],61,44,hard,minus,dotcolour,beta,,,16,18,M,R,
662,32,32,15,5,36,44,580,['n'],1,right,['2'],5,185,[-0.15617277],99,44,hard,minus,dotcolour,beta,,,16,18,M,R,
663,33,33,15,5,27,53,614,['n'],1,right,['2'],5,74,[-0.05463686],48,53,easy,minus,dotcolour,beta,,,16,18,M,R,
664,34,34,15,5,44,36,784,['c'],1,left,['2'],5,161,[0.07505869],71,44,hard,minus,dotcolour,beta,,,16,18,M,R,
665,35,35,15,5,53,27,749,['c'],1,left,['2'],5,629,[0.10794627],77,53,easy,minus,dotcolour,beta,,,16,18,M,R,
666,36,36,15,5,44,36,782,['c'],1,left,['2'],5,262,[0.01954718],22,44,hard,minus,dotcolour,beta,,,16,18,M,R,
667,37,37,15,5,36,44,648,['n'],1,right,['2'],5,171,[-0.02648256],22,44,hard,minus,dotcolour,beta,,,16,18,M,R,
668,38,38,15,5,27,53,517,['n'],1,right,['2'],5,161,[-0.06438223],60,53,easy,minus,dotcolour,beta,,,16,18,M,R,
669,39,39,15,5,36,44,699,['n'],1,right,['3'],4,695,[-0.05709552],51,44,hard,minus,dotcolour,beta,,,16,18,M,R,
670,40,40,15,5,27,53,649,['n'],1,right,['1'],6,50,[-0.04146508],24,53,easy,minus,dotcolour,beta,,,16,18,M,R,
671,41,41,15,5,53,27,915,['c'],1,left,['2'],5,165,[0.16459326],99,53,easy,minus,dotcolour,beta,,,16,18,M,R,
672,42,0,16,5,27,53,700,['n'],1,right,['1'],6,98,[-0.06981134],69,53,easy,minus,dotcolour,beta,,,16,18,M,R,
673,43,1,16,5,44,36,1116,['c'],1,left,['2'],5,131,[0.07963564],77,44,hard,minus,dotcolour,beta,,,16,18,M,R,
674,44,2,16,5,33,47,783,['n'],1,right,['2'],5,112,[-0.08786895],85,47,medium,minus,dotcolour,beta,,,16,18,M,R,
675,45,3,16,5,47,33,783,['c'],1,left,['2'],5,125,[0.11725896],96,47,medium,minus,dotcolour,beta,,,16,18,M,R,
676,46,4,16,5,44,36,1049,['c'],1,left,['3'],4,679,[0.02794939],35,44,hard,minus,dotcolour,beta,,,16,18,M,R,
677,47,5,16,5,27,53,516,['n'],1,right,['1'],6,169,[-0.1055075],90,53,easy,minus,dotcolour,beta,,,16,18,M,R,
678,48,6,16,5,27,53,467,['n'],1,right,['1'],6,72,[-0.09154446],92,53,easy,minus,dotcolour,beta,,,16,18,M,R,
679,49,7,16,5,27,53,464,['n'],1,right,['1'],6,93,[-0.07737789],78,53,easy,minus,dotcolour,beta,,,16,18,M,R,
680,50,8,16,5,47,33,765,['c'],1,left,['2'],5,115,[0.07020786],69,47,medium,minus,dotcolour,beta,,,16,18,M,R,
681,51,9,16,5,33,47,2632,['n'],1,right,['2'],5,615,[-0.13576617],86,47,medium,minus,dotcolour,beta,,,16,18,M,R,
682,52,10,16,5,53,27,683,['c'],1,left,['2'],5,124,[0.09311446],87,53,easy,minus,dotcolour,beta,,,16,18,M,R,
683,53,11,16,5,53,27,1415,['c'],1,left,['2'],5,535,[0.19526762],97,53,easy,minus,dotcolour,beta,,,16,18,M,R,
684,54,12,16,5,36,44,615,['n'],1,right,['1'],6,106,[-0.06467424],62,44,hard,minus,dotcolour,beta,,,16,18,M,R,
685,55,13,16,5,47,33,749,['c'],1,left,['2'],5,186,[0.07927091],73,47,medium,minus,dotcolour,beta,,,16,18,M,R,
686,56,14,16,5,44,36,698,['c'],1,left,['2'],5,144,[0.1305565],97,44,hard,minus,dotcolour,beta,,,16,18,M,R,
687,57,15,16,5,27,53,582,['n'],1,right,['2'],5,91,[-0.08905821],88,53,easy,minus,dotcolour,beta,,,16,18,M,R,
688,58,16,16,5,44,36,1032,['c'],1,left,['2'],5,168,[0.09714511],86,44,hard,minus,dotcolour,beta,,,16,18,M,R,
689,59,17,16,5,36,44,682,['n'],1,right,['2'],5,103,[-0.02721418],17,44,hard,minus,dotcolour,beta,,,16,18,M,R,
690,60,18,16,5,27,53,600,['n'],1,right,['2'],5,116,[-0.05038498],43,53,easy,minus,dotcolour,beta,,,16,18,M,R,
691,61,19,16,5,44,36,749,['c'],1,left,['2'],5,123,[0.02606916],18,44,hard,minus,dotcolour,beta,,,16,18,M,R,
692,62,20,16,5,27,53,483,['n'],1,right,['3'],4,132,[-0.07920245],76,53,easy,minus,dotcolour,beta,,,16,18,M,R,
693,63,21,16,5,33,47,516,['n'],1,right,['3'],4,116,[-0.05206705],45,47,medium,minus,dotcolour,beta,,,16,18,M,R,
694,64,22,16,5,53,27,681,['c'],1,left,['2'],5,117,[0.05516884],49,53,easy,minus,dotcolour,beta,,,16,18,M,R,
695,65,23,16,5,44,36,466,['n'],0,left,['2'],5,191,[-0.03960904],34,44,hard,minus,dotcolour,beta,,,16,18,M,R,
696,66,24,16,5,53,27,679,['c'],1,left,['2'],5,101,[0.1060378],95,53,easy,minus,dotcolour,beta,,,16,18,M,R,
697,67,25,16,5,33,47,1516,['c'],0,right,['2'],5,46,[0.09083865],95,47,medium,minus,dotcolour,beta,,,16,18,M,R,
698,68,26,16,5,47,33,830,['c'],1,left,['2'],5,67,[0.08894471],91,47,medium,minus,dotcolour,beta,,,16,18,M,R,
699,69,27,16,5,53,27,564,['c'],1,left,['2'],5,92,[0.05189422],45,53,easy,minus,dotcolour,beta,,,16,18,M,R,
700,70,28,16,5,33,47,765,['n'],1,right,['1'],6,59,[-0.06359685],64,47,medium,minus,dotcolour,beta,,,16,18,M,R,
701,71,29,16,5,36,44,615,['n'],1,right,['2'],5,65,[-0.04366347],30,44,hard,minus,dotcolour,beta,,,16,18,M,R,
702,72,30,16,5,53,27,832,['c'],1,left,['2'],5,127,[0.09727547],89,53,easy,minus,dotcolour,beta,,,16,18,M,R,
703,73,31,16,5,36,44,983,['n'],1,right,['1'],6,123,[-0.13012024],98,44,hard,minus,dotcolour,beta,,,16,18,M,R,
704,74,32,16,5,47,33,832,['c'],1,left,['2'],5,374,[0.09668913],77,47,medium,minus,dotcolour,beta,,,16,18,M,R,
705,75,33,16,5,53,27,650,['n'],0,left,['2'],5,86,[-0.00075146],3,53,easy,minus,dotcolour,beta,,,16,18,M,R,
706,76,34,16,5,47,33,2049,['c'],1,left,['3'],4,314,[0.17735586],98,47,medium,minus,dotcolour,beta,,,16,18,M,R,
707,77,35,16,5,33,47,1017,['n'],1,right,['1'],6,110,[-0.13100595],98,47,medium,minus,dotcolour,beta,,,16,18,M,R,
708,78,36,16,5,47,33,1115,['c'],1,left,['2'],5,142,[0.02290517],17,47,medium,minus,dotcolour,beta,,,16,18,M,R,
709,79,37,16,5,36,44,899,['c'],0,right,['2'],5,149,[0.04697109],40,44,hard,minus,dotcolour,beta,,,16,18,M,R,
710,80,38,16,5,44,36,982,['n'],0,left,['3'],4,441,[-0.06339091],55,44,hard,minus,dotcolour,beta,,,16,18,M,R,
711,81,39,16,5,36,44,966,['c'],0,right,['2'],5,226,[0.02195358],22,44,hard,minus,dotcolour,beta,,,16,18,M,R,
712,82,40,16,5,33,47,649,['n'],1,right,['2'],5,128,[-0.12697686],97,47,medium,minus,dotcolour,beta,,,16,18,M,R,
713,83,41,16,5,36,44,731,['n'],1,right,['2'],5,175,[-0.0943206],84,44,hard,minus,dotcolour,beta,,,16,18,M,R,
714,84,0,17,5,44,36,800,['n'],0,left,['2'],5,149,[-0.12202433],96,44,hard,minus,dotcolour,beta,,,16,18,M,R,
715,85,1,17,5,53,27,566,['c'],1,left,['2'],5,129,[0.05499906],49,53,easy,minus,dotcolour,beta,,,16,18,M,R,
716,86,2,17,5,44,36,882,['c'],1,left,['2'],5,170,[0.07013507],65,44,hard,minus,dotcolour,beta,,,16,18,M,R,
717,87,3,17,5,36,44,799,['n'],1,right,['2'],5,181,[-0.09719096],85,44,hard,minus,dotcolour,beta,,,16,18,M,R,
718,88,4,17,5,44,36,683,['c'],1,left,['2'],5,123,[0.04068216],32,44,hard,minus,dotcolour,beta,,,16,18,M,R,
719,89,5,17,5,27,53,599,['n'],1,right,['2'],5,223,[-0.13047388],95,53,easy,minus,dotcolour,beta,,,16,18,M,R,
720,90,6,17,5,33,47,533,['n'],1,right,['2'],5,138,[-0.06262536],58,47,medium,minus,dotcolour,beta,,,16,18,M,R,
721,91,7,17,5,33,47,931,['n'],1,right,['2'],5,209,[-0.09342543],82,47,medium,minus,dotcolour,beta,,,16,18,M,R,
722,92,8,17,5,36,44,866,['n'],1,right,['3'],4,168,[-0.03320575],27,44,hard,minus,dotcolour,beta,,,16,18,M,R,
723,93,9,17,5,47,33,700,['c'],1,left,['3'],4,174,[0.08512738],78,47,medium,minus,dotcolour,beta,,,16,18,M,R,
724,94,10,17,5,47,33,681,['c'],1,left,['3'],4,141,[0.08737335],82,47,medium,minus,dotcolour,beta,,,16,18,M,R,
725,95,11,17,5,53,27,632,['c'],1,left,['3'],4,111,[0.05095819],44,53,easy,minus,dotcolour,beta,,,16,18,M,R,
726,96,12,17,5,27,53,599,['n'],1,right,['2'],5,355,[-0.10592717],82,53,easy,minus,dotcolour,beta,,,16,18,M,R,
727,97,13,17,5,27,53,616,['n'],1,right,['1'],6,198,[-0.08701105],78,53,easy,minus,dotcolour,beta,,,16,18,M,R,
728,98,14,17,5,27,53,548,['n'],1,right,['1'],6,97,[-0.06997953],70,53,easy,minus,dotcolour,beta,,,16,18,M,R,
729,99,15,17,5,36,44,699,['n'],1,right,['2'],5,227,[-0.04671506],42,44,hard,minus,dotcolour,beta,,,16,18,M,R,
730,100,16,17,5,53,27,732,['c'],1,left,['2'],5,285,[0.15890785],97,53,easy,minus,dotcolour,beta,,,16,18,M,R,
731,101,17,17,5,36,44,547,['n'],1,right,['1'],6,133,[-0.12043751],96,44,hard,minus,dotcolour,beta,,,16,18,M,R,
732,102,18,17,5,36,44,582,['n'],1,right,['2'],5,138,[-0.13179669],98,44,hard,minus,dotcolour,beta,,,16,18,M,R,
733,103,19,17,5,36,44,781,['n'],1,right,['2'],5,118,[-0.06963739],68,44,hard,minus,dotcolour,beta,,,16,18,M,R,
734,104,20,17,5,53,27,681,['c'],1,left,['2'],5,136,[0.07280484],70,53,easy,minus,dotcolour,beta,,,16,18,M,R,
735,105,21,17,5,47,33,531,['n'],0,left,['3'],4,782,[0.14249596],2,47,medium,minus,dotcolour,beta,,,16,18,M,R,
736,106,22,17,5,36,44,515,['n'],1,right,['1'],6,380,[-0.09498493],76,44,hard,minus,dotcolour,beta,,,16,18,M,R,
737,107,23,17,5,44,36,932,['c'],1,left,['2'],5,160,[0.04725281],41,44,hard,minus,dotcolour,beta,,,16,18,M,R,
738,108,24,17,5,47,33,2017,['c'],1,left,['2'],5,194,[0.11580373],92,47,medium,minus,dotcolour,beta,,,16,18,M,R,
739,109,25,17,5,27,53,733,['n'],1,right,['1'],6,142,[-0.03217275],25,53,easy,minus,dotcolour,beta,,,16,18,M,R,
740,110,26,17,5,27,53,798,['n'],1,right,['2'],5,282,[-0.11205426],87,53,easy,minus,dotcolour,beta,,,16,18,M,R,
741,111,27,17,5,53,27,898,['c'],1,left,['2'],5,163,[0.14872016],98,53,easy,minus,dotcolour,beta,,,16,18,M,R,
742,112,28,17,5,33,47,782,['n'],1,right,['1'],6,183,[-0.00947227],13,47,medium,minus,dotcolour,beta,,,16,18,M,R,
743,113,29,17,5,33,47,682,['n'],1,right,['2'],5,174,[-0.0832769],77,47,medium,minus,dotcolour,beta,,,16,18,M,R,
744,114,30,17,5,33,47,483,['n'],1,right,['2'],5,100,[-0.05592545],51,47,medium,minus,dotcolour,beta,,,16,18,M,R,
745,115,31,17,5,44,36,883,['c'],1,left,['2'],5,126,[0.09409168],88,44,hard,minus,dotcolour,beta,,,16,18,M,R,
746,116,32,17,5,47,33,682,['c'],1,left,['2'],5,111,[0.10943265],95,47,medium,minus,dotcolour,beta,,,16,18,M,R,
747,117,33,17,5,53,27,549,['c'],1,left,['2'],5,141,[0.05505714],49,53,easy,minus,dotcolour,beta,,,16,18,M,R,
748,118,34,17,5,44,36,931,['n'],0,left,['3'],4,332,[0.00755961],12,44,hard,minus,dotcolour,beta,,,16,18,M,R,
749,119,35,17,5,44,36,1215,['c'],1,left,['3'],4,103,[0.09807236],92,44,hard,minus,dotcolour,beta,,,16,18,M,R,
750,120,36,17,5,33,47,799,['n'],1,right,['3'],4,68,[-0.12009056],99,47,medium,minus,dotcolour,beta,,,16,18,M,R,
751,121,37,17,5,33,47,631,['n'],1,right,['3'],4,58,[-0.10150765],97,47,medium,minus,dotcolour,beta,,,16,18,M,R,
752,122,38,17,5,47,33,649,['c'],1,left,['3'],4,127,[0.04738016],40,47,medium,minus,dotcolour,beta,,,16,18,M,R,
753,123,39,17,5,53,27,563,['c'],1,left,['3'],4,92,[0.09486391],91,53,easy,minus,dotcolour,beta,,,16,18,M,R,
754,124,40,17,5,27,53,615,['n'],1,right,['1'],6,81,[-0.1296275],99,53,easy,minus,dotcolour,beta,,,16,18,M,R,
755,125,41,17,5,47,33,782,['c'],1,left,['2'],5,143,[0.04228485],35,47,medium,minus,dotcolour,beta,,,16,18,M,R,
,,,,,,,,,,,,,,,,,,,,,1,je kreeg meer procent als je gokte,16,18,M,R,
,,,,,,,,,,,,,,,,,,,,,2,['g'],16,18,M,R,
,,,,,,,,,,,,,,,,,,,,,3,['g'],16,18,M,R,
,,,,,,,,,,,,,,,,,,,,,5,['3'],16,18,M,R,
