trial,withinphasetrial,withinblocktrial,block,phase,dotsLeft,dotsRight,rt,resp,cor,cresp,conf_press,cj,RTconf,ev,fb,diff,difflevel,condition,task,manip,questionID,questionResp,sub,age,gender,handedness,
0,0,0,0,0,33,47,6533,['n'],1,right,['3'],3,2018,[-0.54634677],100,47,medium,plus,dotcolour,beta,,,22,18,V,R,
1,1,1,0,0,33,47,1498,['n'],1,right,['8'],4,2006,[-0.31927356],99,47,medium,plus,dotcolour,beta,,,22,18,V,R,
2,2,2,0,0,36,44,1548,['n'],1,right,['3'],3,1489,[-0.29293439],99,44,hard,plus,dotcolour,beta,,,22,18,V,R,
3,3,3,0,0,47,33,1617,['c'],1,left,['8'],4,1925,[0.38652191],100,47,medium,plus,dotcolour,beta,,,22,18,V,R,
4,4,4,0,0,47,33,1234,['n'],0,left,['8'],4,1192,[0.09063762],36,47,medium,plus,dotcolour,beta,,,22,18,V,R,
5,5,5,0,0,27,53,866,['n'],1,right,['0'],6,974,[-0.43300715],100,53,easy,plus,dotcolour,beta,,,22,18,V,R,
6,6,6,0,0,47,33,4098,['c'],1,left,['9'],5,749,[0.14966682],99,47,medium,plus,dotcolour,beta,,,22,18,V,R,
7,7,7,0,0,44,36,4182,['n'],0,left,['8'],4,1624,[-0.08678995],88,44,hard,plus,dotcolour,beta,,,22,18,V,R,
8,8,8,0,0,47,33,3215,['n'],0,left,['8'],4,1592,[-0.00184357],69,47,medium,plus,dotcolour,beta,,,22,18,V,R,
9,9,9,0,0,27,53,783,['n'],1,right,['0'],6,1018,[-0.17765411],98,53,easy,plus,dotcolour,beta,,,22,18,V,R,
10,10,10,0,0,44,36,1947,['n'],0,left,['9'],5,588,[-0.07267655],95,44,hard,plus,dotcolour,beta,,,22,18,V,R,
11,11,11,0,0,47,33,1581,['c'],1,left,['3'],3,726,[0.04405616],89,47,medium,plus,dotcolour,beta,,,22,18,V,R,
12,12,12,0,0,44,36,2032,['c'],1,left,['9'],5,944,[0.25375931],100,44,hard,plus,dotcolour,beta,,,22,18,V,R,
13,13,13,0,0,33,47,1231,['n'],1,right,['9'],5,507,[-0.06685035],96,47,medium,plus,dotcolour,beta,,,22,18,V,R,
14,14,14,0,0,33,47,832,['n'],1,right,['8'],4,654,[-0.08503091],96,47,medium,plus,dotcolour,beta,,,22,18,V,R,
15,15,15,0,0,44,36,766,['n'],0,left,['9'],5,1054,[-0.01180433],77,44,hard,plus,dotcolour,beta,,,22,18,V,R,
16,16,16,0,0,33,47,782,['n'],1,right,['0'],6,533,[-0.27498003],100,47,medium,plus,dotcolour,beta,,,22,18,V,R,
17,17,17,0,0,36,44,1181,['n'],1,right,['9'],5,578,[-0.03712121],90,44,hard,plus,dotcolour,beta,,,22,18,V,R,
18,18,18,0,0,36,44,1182,['n'],1,right,['9'],5,612,[-0.15381662],99,44,hard,plus,dotcolour,beta,,,22,18,V,R,
19,19,19,0,0,36,44,1800,['n'],1,right,['8'],4,909,[-0.21129114],99,44,hard,plus,dotcolour,beta,,,22,18,V,R,
20,20,20,0,0,53,27,1033,['c'],1,left,['9'],5,689,[0.11336505],97,53,easy,plus,dotcolour,beta,,,22,18,V,R,
21,21,21,0,0,33,47,866,['n'],1,right,['0'],6,596,[-0.11865519],98,47,medium,plus,dotcolour,beta,,,22,18,V,R,
22,22,22,0,0,27,53,947,['n'],1,right,['0'],6,415,[-0.14108701],100,53,easy,plus,dotcolour,beta,,,22,18,V,R,
23,23,23,0,0,27,53,683,['n'],1,right,['0'],6,364,[-0.12513745],100,53,easy,plus,dotcolour,beta,,,22,18,V,R,
24,24,24,0,0,36,44,2581,['c'],0,right,['2'],2,1455,[0.26132525],99,44,hard,plus,dotcolour,beta,,,22,18,V,R,
25,25,25,0,0,47,33,1565,['c'],1,left,['8'],4,1191,[0.16148268],97,47,medium,plus,dotcolour,beta,,,22,18,V,R,
26,26,26,0,0,27,53,782,['n'],1,right,['9'],5,497,[-0.02442337],89,53,easy,plus,dotcolour,beta,,,22,18,V,R,
27,27,27,0,0,44,36,1398,['n'],0,left,['9'],5,399,[0.00921233],79,44,hard,plus,dotcolour,beta,,,22,18,V,R,
28,28,28,0,0,53,27,1049,['c'],1,left,['0'],6,478,[0.24321307],100,53,easy,plus,dotcolour,beta,,,22,18,V,R,
29,29,29,0,0,36,44,865,['n'],1,right,['9'],5,769,[-0.15182275],99,44,hard,plus,dotcolour,beta,,,22,18,V,R,
30,30,30,0,0,53,27,1099,['c'],1,left,['9'],5,399,[0.14545921],100,53,easy,plus,dotcolour,beta,,,22,18,V,R,
31,31,31,0,0,53,27,1148,['c'],1,left,['9'],5,394,[0.15164629],100,53,easy,plus,dotcolour,beta,,,22,18,V,R,
32,32,32,0,0,44,36,981,['n'],0,left,['8'],4,797,[0.05442814],51,44,hard,plus,dotcolour,beta,,,22,18,V,R,
33,33,33,0,0,44,36,1498,['c'],1,left,['8'],4,698,[0.23354964],100,44,hard,plus,dotcolour,beta,,,22,18,V,R,
34,34,34,0,0,53,27,2898,['c'],1,left,['8'],4,395,[0.07449891],98,53,easy,plus,dotcolour,beta,,,22,18,V,R,
35,35,35,0,0,33,47,598,['n'],1,right,['9'],5,413,[-0.12153518],99,47,medium,plus,dotcolour,beta,,,22,18,V,R,
36,36,36,0,0,27,53,1216,['n'],1,right,['0'],6,364,[-0.1840866],100,53,easy,plus,dotcolour,beta,,,22,18,V,R,
37,37,37,0,0,53,27,815,['c'],1,left,['0'],6,342,[0.08756945],99,53,easy,plus,dotcolour,beta,,,22,18,V,R,
38,38,38,0,0,27,53,701,['n'],1,right,['8'],4,558,[-0.20146051],100,53,easy,plus,dotcolour,beta,,,22,18,V,R,
39,39,39,0,0,36,44,1149,['c'],0,right,['8'],4,690,[0.27224765],100,44,hard,plus,dotcolour,beta,,,22,18,V,R,
40,40,40,0,0,53,27,963,['c'],1,left,['0'],6,665,[-0.01520443],71,53,easy,plus,dotcolour,beta,,,22,18,V,R,
41,41,41,0,0,47,33,849,['c'],1,left,['9'],5,413,[0.06587987],97,47,medium,plus,dotcolour,beta,,,22,18,V,R,
42,42,0,1,0,27,53,1499,['n'],1,right,['9'],5,427,[-0.0477544],95,53,easy,plus,dotcolour,beta,,,22,18,V,R,
43,43,1,1,0,33,47,698,['n'],1,right,['9'],5,495,[-0.01925654],87,47,medium,plus,dotcolour,beta,,,22,18,V,R,
44,44,2,1,0,27,53,749,['n'],1,right,['0'],6,719,[0.03120531],63,53,easy,plus,dotcolour,beta,,,22,18,V,R,
45,45,3,1,0,33,47,782,['n'],1,right,['9'],5,483,[-0.23705637],100,47,medium,plus,dotcolour,beta,,,22,18,V,R,
46,46,4,1,0,47,33,681,['c'],1,left,['0'],6,430,[0.09405652],98,47,medium,plus,dotcolour,beta,,,22,18,V,R,
47,47,5,1,0,33,47,847,['n'],1,right,['9'],5,388,[-0.13641444],100,47,medium,plus,dotcolour,beta,,,22,18,V,R,
48,48,6,1,0,36,44,748,['n'],1,right,['9'],5,408,[-0.04811001],95,44,hard,plus,dotcolour,beta,,,22,18,V,R,
49,49,7,1,0,44,36,1148,['n'],0,left,['8'],4,434,[-0.19880397],100,44,hard,plus,dotcolour,beta,,,22,18,V,R,
50,50,8,1,0,27,53,764,['n'],1,right,['0'],6,371,[-0.12903799],100,53,easy,plus,dotcolour,beta,,,22,18,V,R,
51,51,9,1,0,53,27,565,['c'],1,left,['9'],5,432,[0.19625001],100,53,easy,plus,dotcolour,beta,,,22,18,V,R,
52,52,10,1,0,47,33,831,['n'],0,left,['9'],5,423,[-0.04709074],94,47,medium,plus,dotcolour,beta,,,22,18,V,R,
53,53,11,1,0,53,27,999,['c'],1,left,['9'],5,582,[0.146024],99,53,easy,plus,dotcolour,beta,,,22,18,V,R,
54,54,12,1,0,44,36,1483,['n'],0,left,['8'],4,862,[-0.11429912],96,44,hard,plus,dotcolour,beta,,,22,18,V,R,
55,55,13,1,0,27,53,899,['n'],1,right,['9'],5,368,[-0.1708792],100,53,easy,plus,dotcolour,beta,,,22,18,V,R,
56,56,14,1,0,47,33,930,['c'],1,left,['9'],5,429,[0.15367465],100,47,medium,plus,dotcolour,beta,,,22,18,V,R,
57,57,15,1,0,27,53,682,['n'],1,right,['0'],6,506,[-0.26111889],100,53,easy,plus,dotcolour,beta,,,22,18,V,R,
58,58,16,1,0,33,47,748,['n'],1,right,['0'],6,344,[-0.13198768],100,47,medium,plus,dotcolour,beta,,,22,18,V,R,
59,59,17,1,0,47,33,1382,['c'],1,left,['9'],5,316,[0.00934471],89,47,medium,plus,dotcolour,beta,,,22,18,V,R,
60,60,18,1,0,36,44,1299,['n'],1,right,['9'],5,1789,[-0.22636082],98,44,hard,plus,dotcolour,beta,,,22,18,V,R,
61,61,19,1,0,53,27,1415,['c'],1,left,['0'],6,533,[0.18925012],100,53,easy,plus,dotcolour,beta,,,22,18,V,R,
62,62,20,1,0,44,36,1898,['c'],1,left,['0'],6,789,[0.18924157],99,44,hard,plus,dotcolour,beta,,,22,18,V,R,
63,63,21,1,0,36,44,1131,['n'],1,right,['9'],5,537,[-0.27688222],100,44,hard,plus,dotcolour,beta,,,22,18,V,R,
64,64,22,1,0,44,36,798,['n'],0,left,['3'],3,1845,[-0.08135842],86,44,hard,plus,dotcolour,beta,,,22,18,V,R,
65,65,23,1,0,36,44,1129,['n'],1,right,['9'],5,607,[0.05605328],50,44,hard,plus,dotcolour,beta,,,22,18,V,R,
66,66,24,1,0,47,33,2564,['n'],0,left,['3'],3,2073,[0.26608857],7,47,medium,plus,dotcolour,beta,,,22,18,V,R,
67,67,25,1,0,53,27,3116,['c'],1,left,['8'],4,1378,[0.1854489],98,53,easy,plus,dotcolour,beta,,,22,18,V,R,
68,68,26,1,0,33,47,848,['n'],1,right,['0'],6,850,[-0.10378921],96,47,medium,plus,dotcolour,beta,,,22,18,V,R,
69,69,27,1,0,36,44,2633,['n'],1,right,['1'],1,1624,[-0.07721434],87,44,hard,plus,dotcolour,beta,,,22,18,V,R,
70,70,28,1,0,36,44,1033,['n'],1,right,['8'],4,1063,[-0.05661517],88,44,hard,plus,dotcolour,beta,,,22,18,V,R,
71,71,29,1,0,53,27,765,['n'],0,left,['8'],4,471,[-0.00722064],84,53,easy,plus,dotcolour,beta,,,22,18,V,R,
72,72,30,1,0,53,27,1198,['c'],1,left,['8'],4,581,[0.11327872],98,53,easy,plus,dotcolour,beta,,,22,18,V,R,
73,73,31,1,0,47,33,1064,['c'],1,left,['9'],5,860,[0.2123556],99,47,medium,plus,dotcolour,beta,,,22,18,V,R,
74,74,32,1,0,33,47,799,['n'],1,right,['9'],5,1178,[-0.25530383],99,47,medium,plus,dotcolour,beta,,,22,18,V,R,
75,75,33,1,0,27,53,1050,['n'],1,right,['0'],6,1186,[-0.28282252],100,53,easy,plus,dotcolour,beta,,,22,18,V,R,
76,76,34,1,0,44,36,766,['c'],1,left,['0'],6,597,[0.15534842],99,44,hard,plus,dotcolour,beta,,,22,18,V,R,
77,77,35,1,0,33,47,649,['n'],1,right,['9'],5,444,[-0.19210147],100,47,medium,plus,dotcolour,beta,,,22,18,V,R,
78,78,36,1,0,36,44,1048,['n'],1,right,['9'],5,473,[0.01751769],73,44,hard,plus,dotcolour,beta,,,22,18,V,R,
79,79,37,1,0,27,53,713,['n'],1,right,['0'],6,434,[-0.03577949],92,53,easy,plus,dotcolour,beta,,,22,18,V,R,
80,80,38,1,0,44,36,782,['c'],1,left,['8'],4,915,[0.08710459],94,44,hard,plus,dotcolour,beta,,,22,18,V,R,
81,81,39,1,0,53,27,1466,['c'],1,left,['0'],6,829,[0.29171675],100,53,easy,plus,dotcolour,beta,,,22,18,V,R,
82,82,40,1,0,47,33,898,['n'],0,left,['3'],3,1528,[0.21107737],9,47,medium,plus,dotcolour,beta,,,22,18,V,R,
83,83,41,1,0,44,36,2932,['n'],0,left,['0'],6,527,[-0.09616914],98,44,hard,plus,dotcolour,beta,,,22,18,V,R,
84,84,0,2,0,47,33,1233,['c'],1,left,['9'],5,355,[0.04026513],95,47,medium,plus,dotcolour,beta,,,22,18,V,R,
85,85,1,2,0,53,27,799,['c'],1,left,['0'],6,925,[0.17360568],99,53,easy,plus,dotcolour,beta,,,22,18,V,R,
86,86,2,2,0,36,44,1049,['c'],0,right,['9'],5,239,[-0.02939925],72,44,hard,plus,dotcolour,beta,,,22,18,V,R,
87,87,3,2,0,27,53,799,['n'],1,right,['0'],6,951,[-0.18059453],99,53,easy,plus,dotcolour,beta,,,22,18,V,R,
88,88,4,2,0,33,47,783,['n'],1,right,['0'],6,547,[-0.16139077],99,47,medium,plus,dotcolour,beta,,,22,18,V,R,
89,89,5,2,0,47,33,1082,['c'],1,left,['8'],4,531,[0.15897621],100,47,medium,plus,dotcolour,beta,,,22,18,V,R,
90,90,6,2,0,47,33,882,['c'],1,left,['9'],5,371,[0.19898607],100,47,medium,plus,dotcolour,beta,,,22,18,V,R,
91,91,7,2,0,36,44,749,['c'],0,right,['9'],5,360,[0.08704549],99,44,hard,plus,dotcolour,beta,,,22,18,V,R,
92,92,8,2,0,27,53,682,['n'],1,right,['0'],6,535,[-0.10682723],98,53,easy,plus,dotcolour,beta,,,22,18,V,R,
93,93,9,2,0,44,36,1600,['n'],0,left,['3'],3,1931,[0.18438614],16,44,hard,plus,dotcolour,beta,,,22,18,V,R,
94,94,10,2,0,36,44,1033,['n'],1,right,['0'],6,373,[-0.01377742],89,44,hard,plus,dotcolour,beta,,,22,18,V,R,
95,95,11,2,0,36,44,748,['n'],1,right,['0'],6,385,[-0.12920788],100,44,hard,plus,dotcolour,beta,,,22,18,V,R,
96,96,12,2,0,47,33,1581,['c'],1,left,['8'],4,1051,[0.1181347],95,47,medium,plus,dotcolour,beta,,,22,18,V,R,
97,97,13,2,0,44,36,1099,['n'],0,left,['9'],5,486,[-0.16489301],100,44,hard,plus,dotcolour,beta,,,22,18,V,R,
98,98,14,2,0,33,47,614,['n'],1,right,['9'],5,427,[-0.09330173],98,47,medium,plus,dotcolour,beta,,,22,18,V,R,
99,99,15,2,0,27,53,550,['n'],1,right,['9'],5,397,[-0.12164807],99,53,easy,plus,dotcolour,beta,,,22,18,V,R,
100,100,16,2,0,44,36,882,['c'],1,left,['8'],4,571,[0.03750027],90,44,hard,plus,dotcolour,beta,,,22,18,V,R,
101,101,17,2,0,27,53,933,['n'],1,right,['9'],5,416,[-0.17146865],100,53,easy,plus,dotcolour,beta,,,22,18,V,R,
102,102,18,2,0,47,33,714,['c'],1,left,['0'],6,284,[0.04726513],97,47,medium,plus,dotcolour,beta,,,22,18,V,R,
103,103,19,2,0,44,36,948,['n'],0,left,['9'],5,484,[-0.01511532],86,44,hard,plus,dotcolour,beta,,,22,18,V,R,
104,104,20,2,0,33,47,1198,['n'],1,right,['8'],4,602,[-0.12565185],99,47,medium,plus,dotcolour,beta,,,22,18,V,R,
105,105,21,2,0,36,44,1015,['n'],1,right,['0'],6,402,[-0.10509282],99,44,hard,plus,dotcolour,beta,,,22,18,V,R,
106,106,22,2,0,33,47,682,['n'],1,right,['8'],4,320,[-0.16515857],100,47,medium,plus,dotcolour,beta,,,22,18,V,R,
107,107,23,2,0,53,27,932,['c'],1,left,['9'],5,591,[0.26870083],100,53,easy,plus,dotcolour,beta,,,22,18,V,R,
108,108,24,2,0,53,27,715,['c'],1,left,['9'],5,307,[0.15846294],100,53,easy,plus,dotcolour,beta,,,22,18,V,R,
109,109,25,2,0,53,27,615,['c'],1,left,['9'],5,216,[0.16008311],100,53,easy,plus,dotcolour,beta,,,22,18,V,R,
110,110,26,2,0,27,53,680,['n'],1,right,['9'],5,334,[-0.04626344],96,53,easy,plus,dotcolour,beta,,,22,18,V,R,
111,111,27,2,0,53,27,749,['c'],1,left,['0'],6,403,[-0.02731939],69,53,easy,plus,dotcolour,beta,,,22,18,V,R,
112,112,28,2,0,33,47,765,['n'],1,right,['8'],4,462,[-0.16204153],100,47,medium,plus,dotcolour,beta,,,22,18,V,R,
113,113,29,2,0,53,27,898,['c'],1,left,['0'],6,640,[0.10760031],98,53,easy,plus,dotcolour,beta,,,22,18,V,R,
114,114,30,2,0,47,33,2015,['n'],0,left,['3'],3,824,[0.09975059],29,47,medium,plus,dotcolour,beta,,,22,18,V,R,
115,115,31,2,0,53,27,2599,['c'],1,left,['9'],5,295,[0.15649204],100,53,easy,plus,dotcolour,beta,,,22,18,V,R,
116,116,32,2,0,27,53,814,['n'],1,right,['9'],5,332,[-0.11959965],100,53,easy,plus,dotcolour,beta,,,22,18,V,R,
117,117,33,2,0,44,36,814,['n'],0,left,['0'],6,423,[-0.06151118],96,44,hard,plus,dotcolour,beta,,,22,18,V,R,
118,118,34,2,0,36,44,782,['n'],1,right,['8'],4,456,[-0.02883888],90,44,hard,plus,dotcolour,beta,,,22,18,V,R,
119,119,35,2,0,33,47,1067,['c'],0,right,['9'],5,492,[0.00015878],81,47,medium,plus,dotcolour,beta,,,22,18,V,R,
120,120,36,2,0,33,47,1214,['n'],1,right,['0'],6,401,[-0.04265776],94,47,medium,plus,dotcolour,beta,,,22,18,V,R,
121,121,37,2,0,44,36,865,['n'],0,left,['8'],4,662,[-0.13844383],99,44,hard,plus,dotcolour,beta,,,22,18,V,R,
122,122,38,2,0,27,53,832,['n'],1,right,['0'],6,364,[-0.17327986],100,53,easy,plus,dotcolour,beta,,,22,18,V,R,
123,123,39,2,0,36,44,915,['n'],1,right,['9'],5,490,[-0.09888199],98,44,hard,plus,dotcolour,beta,,,22,18,V,R,
124,124,40,2,0,44,36,715,['n'],0,left,['8'],4,506,[0.08203571],34,44,hard,plus,dotcolour,beta,,,22,18,V,R,
125,125,41,2,0,47,33,748,['c'],1,left,['9'],5,425,[0.14659282],100,47,medium,plus,dotcolour,beta,,,22,18,V,R,
126,0,0,3,1,44,36,1266,['c'],1,left,['8'],4,790,[0.23341609],97,44,hard,minus,dotcolour,beta,,,22,18,V,R,
127,1,1,3,1,36,44,1215,['n'],1,right,['9'],5,415,[-0.07415545],63,44,hard,minus,dotcolour,beta,,,22,18,V,R,
128,2,2,3,1,33,47,665,['n'],1,right,['9'],5,389,[-0.0823997],68,47,medium,minus,dotcolour,beta,,,22,18,V,R,
129,3,3,3,1,47,33,981,['c'],1,left,['8'],4,367,[0.19244309],98,47,medium,minus,dotcolour,beta,,,22,18,V,R,
130,4,4,3,1,53,27,765,['c'],1,left,['0'],6,579,[0.16592049],93,53,easy,minus,dotcolour,beta,,,22,18,V,R,
131,5,5,3,1,53,27,749,['c'],1,left,['9'],5,375,[0.08390418],70,53,easy,minus,dotcolour,beta,,,22,18,V,R,
132,6,6,3,1,47,33,797,['c'],1,left,['8'],4,481,[0.11226778],81,47,medium,minus,dotcolour,beta,,,22,18,V,R,
133,7,7,3,1,36,44,3317,['n'],1,right,['0'],6,467,[0.07042595],3,44,hard,minus,dotcolour,beta,,,22,18,V,R,
134,8,8,3,1,33,47,747,['n'],1,right,['9'],5,466,[-0.03986178],40,47,medium,minus,dotcolour,beta,,,22,18,V,R,
135,9,9,3,1,33,47,749,['n'],1,right,['9'],5,499,[-0.12795276],86,47,medium,minus,dotcolour,beta,,,22,18,V,R,
136,10,10,3,1,33,47,666,['n'],1,right,['0'],6,326,[-0.11357548],86,47,medium,minus,dotcolour,beta,,,22,18,V,R,
137,11,11,3,1,36,44,565,['n'],1,right,['0'],6,347,[-0.12802638],90,44,hard,minus,dotcolour,beta,,,22,18,V,R,
138,12,12,3,1,44,36,998,['n'],0,left,['0'],6,359,[-0.05914285],53,44,hard,minus,dotcolour,beta,,,22,18,V,R,
139,13,13,3,1,47,33,1032,['c'],1,left,['0'],6,384,[0.07523501],64,47,medium,minus,dotcolour,beta,,,22,18,V,R,
140,14,14,3,1,53,27,482,['c'],1,left,['0'],6,254,[0.11704661],90,53,easy,minus,dotcolour,beta,,,22,18,V,R,
141,15,15,3,1,36,44,998,['c'],0,right,['9'],5,574,[0.0700646],59,44,hard,minus,dotcolour,beta,,,22,18,V,R,
142,16,16,3,1,33,47,748,['c'],0,right,['1'],1,1954,[0.13595033],74,47,medium,minus,dotcolour,beta,,,22,18,V,R,
143,17,17,3,1,36,44,2150,['n'],1,right,['0'],6,462,[-0.03944061],39,44,hard,minus,dotcolour,beta,,,22,18,V,R,
144,18,18,3,1,47,33,832,['c'],1,left,['0'],6,356,[0.0292412],31,47,medium,minus,dotcolour,beta,,,22,18,V,R,
145,19,19,3,1,33,47,1950,['n'],1,right,['8'],4,809,[-0.02910731],37,47,medium,minus,dotcolour,beta,,,22,18,V,R,
146,20,20,3,1,53,27,1616,['c'],1,left,['8'],4,888,[0.25150637],98,53,easy,minus,dotcolour,beta,,,22,18,V,R,
147,21,21,3,1,27,53,2215,['n'],1,right,['9'],5,437,[-0.01321192],24,53,easy,minus,dotcolour,beta,,,22,18,V,R,
148,22,22,3,1,33,47,1781,['n'],1,right,['9'],5,558,[-0.12119354],83,47,medium,minus,dotcolour,beta,,,22,18,V,R,
149,23,23,3,1,27,53,1081,['n'],1,right,['0'],6,612,[-0.20308821],97,53,easy,minus,dotcolour,beta,,,22,18,V,R,
150,24,24,3,1,44,36,1215,['c'],1,left,['9'],5,524,[0.08243323],66,44,hard,minus,dotcolour,beta,,,22,18,V,R,
151,25,25,3,1,27,53,681,['n'],1,right,['0'],6,598,[-0.04147088],42,53,easy,minus,dotcolour,beta,,,22,18,V,R,
152,26,26,3,1,44,36,780,['c'],1,left,['0'],6,783,[-0.02117988],17,44,hard,minus,dotcolour,beta,,,22,18,V,R,
153,27,27,3,1,47,33,967,['c'],1,left,['8'],4,403,[0.10898733],82,47,medium,minus,dotcolour,beta,,,22,18,V,R,
154,28,28,3,1,27,53,1231,['n'],1,right,['3'],3,482,[-0.14007088],90,53,easy,minus,dotcolour,beta,,,22,18,V,R,
155,29,29,3,1,44,36,1332,['n'],0,left,['2'],2,706,[0.17242601],1,44,hard,minus,dotcolour,beta,,,22,18,V,R,
156,30,30,3,1,53,27,1717,['n'],0,left,['0'],6,610,[0.21331374],0,53,easy,minus,dotcolour,beta,,,22,18,V,R,
157,31,31,3,1,47,33,1766,['c'],1,left,['8'],4,1364,[0.16144299],84,47,medium,minus,dotcolour,beta,,,22,18,V,R,
158,32,32,3,1,36,44,1264,['n'],1,right,['9'],5,1027,[-0.222068],95,44,hard,minus,dotcolour,beta,,,22,18,V,R,
159,33,33,3,1,27,53,749,['n'],1,right,['9'],5,653,[-0.2152588],97,53,easy,minus,dotcolour,beta,,,22,18,V,R,
160,34,34,3,1,27,53,732,['n'],1,right,['9'],5,639,[-0.11691457],80,53,easy,minus,dotcolour,beta,,,22,18,V,R,
161,35,35,3,1,36,44,1182,['n'],1,right,['9'],5,511,[-0.13074167],87,44,hard,minus,dotcolour,beta,,,22,18,V,R,
162,36,36,3,1,53,27,881,['c'],1,left,['8'],4,1064,[0.22766422],95,53,easy,minus,dotcolour,beta,,,22,18,V,R,
163,37,37,3,1,44,36,1147,['c'],1,left,['8'],4,393,[0.09475417],76,44,hard,minus,dotcolour,beta,,,22,18,V,R,
164,38,38,3,1,44,36,682,['c'],1,left,['8'],4,463,[0.24171987],99,44,hard,minus,dotcolour,beta,,,22,18,V,R,
165,39,39,3,1,47,33,631,['c'],1,left,['9'],5,372,[0.04078435],39,47,medium,minus,dotcolour,beta,,,22,18,V,R,
166,40,40,3,1,53,27,932,['c'],1,left,['8'],4,362,[0.1130284],85,53,easy,minus,dotcolour,beta,,,22,18,V,R,
167,41,41,3,1,27,53,1199,['n'],1,right,['0'],6,580,[-0.25315948],99,53,easy,minus,dotcolour,beta,,,22,18,V,R,
168,42,0,4,1,44,36,816,['c'],1,left,['0'],6,405,[0.08123364],67,44,hard,minus,dotcolour,beta,,,22,18,V,R,
169,43,1,4,1,36,44,600,['c'],0,right,['1'],1,1231,[-0.17097077],2,44,hard,minus,dotcolour,beta,,,22,18,V,R,
170,44,2,4,1,27,53,1382,['n'],1,right,['8'],4,527,[-0.24346705],99,53,easy,minus,dotcolour,beta,,,22,18,V,R,
171,45,3,4,1,33,47,716,['n'],1,right,['8'],4,302,[-0.11385296],87,47,medium,minus,dotcolour,beta,,,22,18,V,R,
172,46,4,4,1,27,53,533,['n'],1,right,['9'],5,294,[-0.11022522],86,53,easy,minus,dotcolour,beta,,,22,18,V,R,
173,47,5,4,1,44,36,816,['n'],0,left,['8'],4,619,[0.03787308],11,44,hard,minus,dotcolour,beta,,,22,18,V,R,
174,48,6,4,1,33,47,701,['n'],1,right,['8'],4,912,[-0.10461496],72,47,medium,minus,dotcolour,beta,,,22,18,V,R,
175,49,7,4,1,47,33,948,['c'],1,left,['3'],3,1198,[0.21287664],93,47,medium,minus,dotcolour,beta,,,22,18,V,R,
176,50,8,4,1,47,33,630,['c'],1,left,['8'],4,734,[0.23641697],98,47,medium,minus,dotcolour,beta,,,22,18,V,R,
177,51,9,4,1,47,33,714,['c'],1,left,['9'],5,509,[0.14624657],91,47,medium,minus,dotcolour,beta,,,22,18,V,R,
178,52,10,4,1,27,53,1200,['n'],1,right,['0'],6,361,[-0.10738097],83,53,easy,minus,dotcolour,beta,,,22,18,V,R,
179,53,11,4,1,53,27,1147,['c'],1,left,['2'],2,742,[0.19334399],95,53,easy,minus,dotcolour,beta,,,22,18,V,R,
180,54,12,4,1,44,36,1199,['n'],0,left,['8'],4,609,[0.03385136],11,44,hard,minus,dotcolour,beta,,,22,18,V,R,
181,55,13,4,1,53,27,649,['c'],1,left,['0'],6,352,[0.11701938],87,53,easy,minus,dotcolour,beta,,,22,18,V,R,
182,56,14,4,1,36,44,967,['c'],0,right,['9'],5,316,[0.04667366],43,44,hard,minus,dotcolour,beta,,,22,18,V,R,
183,57,15,4,1,44,36,1149,['n'],0,left,['8'],4,426,[-0.17072027],96,44,hard,minus,dotcolour,beta,,,22,18,V,R,
184,58,16,4,1,44,36,866,['c'],1,left,['0'],6,375,[0.0006662],17,44,hard,minus,dotcolour,beta,,,22,18,V,R,
185,59,17,4,1,47,33,1731,['c'],1,left,['9'],5,1140,[0.26770181],97,47,medium,minus,dotcolour,beta,,,22,18,V,R,
186,60,18,4,1,53,27,765,['c'],1,left,['9'],5,433,[0.19079605],98,53,easy,minus,dotcolour,beta,,,22,18,V,R,
187,61,19,4,1,36,44,682,['n'],1,right,['9'],5,389,[-0.18737947],98,44,hard,minus,dotcolour,beta,,,22,18,V,R,
188,62,20,4,1,53,27,1197,['c'],1,left,['0'],6,782,[0.21851193],97,53,easy,minus,dotcolour,beta,,,22,18,V,R,
189,63,21,4,1,44,36,930,['c'],1,left,['8'],4,522,[0.12534523],85,44,hard,minus,dotcolour,beta,,,22,18,V,R,
190,64,22,4,1,33,47,1298,['n'],1,right,['3'],3,1554,[-0.28563648],97,47,medium,minus,dotcolour,beta,,,22,18,V,R,
191,65,23,4,1,27,53,716,['c'],0,right,['1'],1,2232,[-0.23471288],3,53,easy,minus,dotcolour,beta,,,22,18,V,R,
192,66,24,4,1,27,53,665,['n'],1,right,['8'],4,580,[-0.12918339],85,53,easy,minus,dotcolour,beta,,,22,18,V,R,
193,67,25,4,1,47,33,715,['c'],1,left,['8'],4,626,[0.14990986],90,47,medium,minus,dotcolour,beta,,,22,18,V,R,
194,68,26,4,1,47,33,631,['c'],1,left,['9'],5,321,[0.15348949],96,47,medium,minus,dotcolour,beta,,,22,18,V,R,
195,69,27,4,1,27,53,882,['n'],1,right,['0'],6,562,[-0.16560247],93,53,easy,minus,dotcolour,beta,,,22,18,V,R,
196,70,28,4,1,47,33,882,['c'],1,left,['8'],4,857,[0.11106695],75,47,medium,minus,dotcolour,beta,,,22,18,V,R,
197,71,29,4,1,33,47,765,['n'],1,right,['0'],6,465,[-0.07060847],60,47,medium,minus,dotcolour,beta,,,22,18,V,R,
198,72,30,4,1,33,47,1098,['n'],1,right,['9'],5,764,[0.06691594],7,47,medium,minus,dotcolour,beta,,,22,18,V,R,
199,73,31,4,1,36,44,1430,['c'],0,right,['9'],5,397,[0.01220254],22,44,hard,minus,dotcolour,beta,,,22,18,V,R,
200,74,32,4,1,33,47,1081,['n'],1,right,['8'],4,763,[-0.36013836],100,47,medium,minus,dotcolour,beta,,,22,18,V,R,
201,75,33,4,1,27,53,699,['n'],1,right,['0'],6,354,[-0.15417184],95,53,easy,minus,dotcolour,beta,,,22,18,V,R,
202,76,34,4,1,36,44,932,['n'],1,right,['9'],5,799,[-0.25282223],98,44,hard,minus,dotcolour,beta,,,22,18,V,R,
203,77,35,4,1,36,44,3798,['n'],1,right,['9'],5,712,[-0.02290963],33,44,hard,minus,dotcolour,beta,,,22,18,V,R,
204,78,36,4,1,44,36,1098,['n'],0,left,['0'],6,744,[0.05194555],10,44,hard,minus,dotcolour,beta,,,22,18,V,R,
205,79,37,4,1,33,47,798,['n'],1,right,['0'],6,420,[-0.19961366],98,47,medium,minus,dotcolour,beta,,,22,18,V,R,
206,80,38,4,1,53,27,982,['c'],1,left,['9'],5,988,[0.33973778],99,53,easy,minus,dotcolour,beta,,,22,18,V,R,
207,81,39,4,1,36,44,781,['n'],1,right,['9'],5,558,[-0.01936071],29,44,hard,minus,dotcolour,beta,,,22,18,V,R,
208,82,40,4,1,53,27,932,['c'],1,left,['0'],6,340,[0.09678056],78,53,easy,minus,dotcolour,beta,,,22,18,V,R,
209,83,41,4,1,53,27,515,['c'],1,left,['0'],6,274,[0.05552407],50,53,easy,minus,dotcolour,beta,,,22,18,V,R,
210,84,0,5,1,53,27,883,['c'],1,left,['9'],5,500,[0.17159812],95,53,easy,minus,dotcolour,beta,,,22,18,V,R,
211,85,1,5,1,27,53,1481,['n'],1,right,['0'],6,342,[-0.15928913],96,53,easy,minus,dotcolour,beta,,,22,18,V,R,
212,86,2,5,1,33,47,1782,['n'],1,right,['3'],3,650,[-0.17645504],94,47,medium,minus,dotcolour,beta,,,22,18,V,R,
213,87,3,5,1,36,44,965,['n'],1,right,['8'],4,1386,[-0.09485544],65,44,hard,minus,dotcolour,beta,,,22,18,V,R,
214,88,4,5,1,33,47,649,['n'],1,right,['8'],4,473,[-0.05248279],48,47,medium,minus,dotcolour,beta,,,22,18,V,R,
215,89,5,5,1,53,27,566,['c'],1,left,['9'],5,392,[0.09909838],78,53,easy,minus,dotcolour,beta,,,22,18,V,R,
216,90,6,5,1,44,36,1165,['c'],1,left,['9'],5,283,[-0.00030531],13,44,hard,minus,dotcolour,beta,,,22,18,V,R,
217,91,7,5,1,27,53,832,['n'],1,right,['0'],6,344,[-0.09806985],79,53,easy,minus,dotcolour,beta,,,22,18,V,R,
218,92,8,5,1,33,47,1015,['n'],1,right,['0'],6,354,[-0.16053378],96,47,medium,minus,dotcolour,beta,,,22,18,V,R,
219,93,9,5,1,36,44,699,['n'],1,right,['0'],6,313,[-0.13020978],92,44,hard,minus,dotcolour,beta,,,22,18,V,R,
220,94,10,5,1,27,53,1166,['n'],1,right,['0'],6,367,[-0.1476778],94,53,easy,minus,dotcolour,beta,,,22,18,V,R,
221,95,11,5,1,47,33,499,['c'],1,left,['9'],5,350,[0.14196984],93,47,medium,minus,dotcolour,beta,,,22,18,V,R,
222,96,12,5,1,33,47,663,['c'],0,right,['9'],5,623,[0.1497794],90,47,medium,minus,dotcolour,beta,,,22,18,V,R,
223,97,13,5,1,47,33,999,['n'],0,left,['9'],5,399,[-0.08865638],72,47,medium,minus,dotcolour,beta,,,22,18,V,R,
224,98,14,5,1,36,44,866,['c'],0,right,['9'],5,349,[0.08870226],73,44,hard,minus,dotcolour,beta,,,22,18,V,R,
225,99,15,5,1,36,44,1198,['n'],1,right,['9'],5,665,[-0.23034025],98,44,hard,minus,dotcolour,beta,,,22,18,V,R,
226,100,16,5,1,44,36,582,['n'],0,left,['8'],4,544,[-0.05750979],51,44,hard,minus,dotcolour,beta,,,22,18,V,R,
227,101,17,5,1,47,33,1183,['c'],1,left,['0'],6,444,[0.10849137],81,47,medium,minus,dotcolour,beta,,,22,18,V,R,
228,102,18,5,1,27,53,1083,['n'],1,right,['9'],5,752,[-0.30459709],99,53,easy,minus,dotcolour,beta,,,22,18,V,R,
229,103,19,5,1,47,33,932,['c'],1,left,['9'],5,397,[0.0818138],68,47,medium,minus,dotcolour,beta,,,22,18,V,R,
230,104,20,5,1,44,36,650,['c'],1,left,['0'],6,341,[0.13052199],91,44,hard,minus,dotcolour,beta,,,22,18,V,R,
231,105,21,5,1,44,36,650,['c'],1,left,['0'],6,350,[0.15879501],96,44,hard,minus,dotcolour,beta,,,22,18,V,R,
232,106,22,5,1,47,33,601,['c'],1,left,['0'],6,337,[0.05020261],46,47,medium,minus,dotcolour,beta,,,22,18,V,R,
233,107,23,5,1,53,27,682,['c'],1,left,['0'],6,290,[0.09435806],79,53,easy,minus,dotcolour,beta,,,22,18,V,R,
234,108,24,5,1,44,36,699,['c'],1,left,['0'],6,299,[0.06377797],57,44,hard,minus,dotcolour,beta,,,22,18,V,R,
235,109,25,5,1,33,47,932,['n'],1,right,['9'],5,643,[-0.15524192],90,47,medium,minus,dotcolour,beta,,,22,18,V,R,
236,110,26,5,1,47,33,749,['c'],1,left,['9'],5,589,[0.08361309],66,47,medium,minus,dotcolour,beta,,,22,18,V,R,
237,111,27,5,1,53,27,1199,['c'],1,left,['0'],6,382,[0.0611937],54,53,easy,minus,dotcolour,beta,,,22,18,V,R,
238,112,28,5,1,53,27,647,['c'],1,left,['0'],6,703,[0.19677604],95,53,easy,minus,dotcolour,beta,,,22,18,V,R,
239,113,29,5,1,44,36,566,['c'],1,left,['0'],6,300,[0.06013582],54,44,hard,minus,dotcolour,beta,,,22,18,V,R,
240,114,30,5,1,33,47,831,['n'],1,right,['9'],5,576,[-0.13980036],88,47,medium,minus,dotcolour,beta,,,22,18,V,R,
241,115,31,5,1,33,47,1148,['c'],0,right,['8'],4,532,[-0.00548969],18,47,medium,minus,dotcolour,beta,,,22,18,V,R,
242,116,32,5,1,53,27,964,['c'],1,left,['0'],6,522,[0.1787637],96,53,easy,minus,dotcolour,beta,,,22,18,V,R,
243,117,33,5,1,36,44,814,['n'],1,right,['0'],6,365,[-0.17763595],97,44,hard,minus,dotcolour,beta,,,22,18,V,R,
244,118,34,5,1,27,53,681,['n'],1,right,['0'],6,500,[-0.26835282],100,53,easy,minus,dotcolour,beta,,,22,18,V,R,
245,119,35,5,1,53,27,766,['c'],1,left,['0'],6,354,[0.18139426],98,53,easy,minus,dotcolour,beta,,,22,18,V,R,
246,120,36,5,1,36,44,848,['c'],0,right,['8'],4,859,[0.03339332],39,44,hard,minus,dotcolour,beta,,,22,18,V,R,
247,121,37,5,1,47,33,648,['c'],1,left,['8'],4,416,[0.1454118],92,47,medium,minus,dotcolour,beta,,,22,18,V,R,
248,122,38,5,1,44,36,666,['c'],1,left,['9'],5,430,[0.161392],95,44,hard,minus,dotcolour,beta,,,22,18,V,R,
249,123,39,5,1,27,53,366,['c'],0,right,['0'],6,446,[0.01752283],26,53,easy,minus,dotcolour,beta,,,22,18,V,R,
250,124,40,5,1,27,53,432,['n'],1,right,['0'],6,325,[-0.17889916],98,53,easy,minus,dotcolour,beta,,,22,18,V,R,
251,125,41,5,1,36,44,866,['c'],0,right,['9'],5,406,[0.0423111],41,44,hard,minus,dotcolour,beta,,,22,18,V,R,
252,0,0,6,2,44,36,650,['n'],0,left,['9'],5,611,[-0.1130074],98,44,hard,plus,dotcolour,beta,,,22,18,V,R,
253,1,1,6,2,27,53,1017,['n'],1,right,['0'],6,419,[-0.19519401],100,53,easy,plus,dotcolour,beta,,,22,18,V,R,
254,2,2,6,2,33,47,581,['n'],1,right,['0'],6,380,[-0.09444072],99,47,medium,plus,dotcolour,beta,,,22,18,V,R,
255,3,3,6,2,44,36,649,['c'],1,left,['9'],5,468,[-0.05765394],49,44,hard,plus,dotcolour,beta,,,22,18,V,R,
256,4,4,6,2,44,36,1432,['n'],0,left,['8'],4,601,[0.09785751],27,44,hard,plus,dotcolour,beta,,,22,18,V,R,
257,5,5,6,2,27,53,915,['n'],1,right,['0'],6,637,[-0.11483746],98,53,easy,plus,dotcolour,beta,,,22,18,V,R,
258,6,6,6,2,27,53,949,['n'],1,right,['9'],5,359,[-0.12073331],100,53,easy,plus,dotcolour,beta,,,22,18,V,R,
259,7,7,6,2,53,27,632,['c'],1,left,['0'],6,281,[0.11803382],100,53,easy,plus,dotcolour,beta,,,22,18,V,R,
260,8,8,6,2,36,44,733,['n'],1,right,['9'],5,457,[-0.03619196],92,44,hard,plus,dotcolour,beta,,,22,18,V,R,
261,9,9,6,2,47,33,748,['c'],1,left,['9'],5,562,[0.16221073],99,47,medium,plus,dotcolour,beta,,,22,18,V,R,
262,10,10,6,2,44,36,566,['c'],1,left,['0'],6,454,[-0.00566841],79,44,hard,plus,dotcolour,beta,,,22,18,V,R,
263,11,11,6,2,53,27,564,['c'],1,left,['0'],6,462,[0.06080408],96,53,easy,plus,dotcolour,beta,,,22,18,V,R,
264,12,12,6,2,53,27,466,['c'],1,left,['0'],6,330,[0.08815108],99,53,easy,plus,dotcolour,beta,,,22,18,V,R,
265,13,13,6,2,27,53,581,['n'],1,right,['0'],6,479,[-0.29356846],100,53,easy,plus,dotcolour,beta,,,22,18,V,R,
266,14,14,6,2,47,33,1465,['c'],1,left,['9'],5,819,[0.23072398],100,47,medium,plus,dotcolour,beta,,,22,18,V,R,
267,15,15,6,2,44,36,683,['n'],0,left,['0'],6,375,[-0.01889391],90,44,hard,plus,dotcolour,beta,,,22,18,V,R,
268,16,16,6,2,53,27,1066,['c'],1,left,['0'],6,214,[0.16627101],100,53,easy,plus,dotcolour,beta,,,22,18,V,R,
269,17,17,6,2,27,53,649,['c'],0,right,['9'],5,829,[-0.07727296],39,53,easy,plus,dotcolour,beta,,,22,18,V,R,
270,18,18,6,2,44,36,550,['c'],1,left,['0'],6,415,[0.0758127],98,44,hard,plus,dotcolour,beta,,,22,18,V,R,
271,19,19,6,2,47,33,797,['c'],1,left,['0'],6,543,[0.07214332],96,47,medium,plus,dotcolour,beta,,,22,18,V,R,
272,20,20,6,2,33,47,582,['n'],1,right,['9'],5,444,[-0.09251055],98,47,medium,plus,dotcolour,beta,,,22,18,V,R,
273,21,21,6,2,44,36,1266,['c'],1,left,['9'],5,376,[0.1528801],100,44,hard,plus,dotcolour,beta,,,22,18,V,R,
274,22,22,6,2,36,44,765,['n'],1,right,['9'],5,580,[-0.20126881],100,44,hard,plus,dotcolour,beta,,,22,18,V,R,
275,23,23,6,2,53,27,566,['c'],1,left,['9'],5,311,[0.07944855],99,53,easy,plus,dotcolour,beta,,,22,18,V,R,
276,24,24,6,2,53,27,731,['c'],1,left,['0'],6,262,[0.12837336],100,53,easy,plus,dotcolour,beta,,,22,18,V,R,
277,25,25,6,2,36,44,1233,['c'],0,right,['8'],4,1764,[-0.30356406],3,44,hard,plus,dotcolour,beta,,,22,18,V,R,
278,26,26,6,2,47,33,1049,['c'],1,left,['8'],4,404,[0.13142824],100,47,medium,plus,dotcolour,beta,,,22,18,V,R,
279,27,27,6,2,33,47,1266,['n'],1,right,['0'],6,410,[-0.14633764],100,47,medium,plus,dotcolour,beta,,,22,18,V,R,
280,28,28,6,2,36,44,1083,['n'],1,right,['3'],3,863,[-0.1474947],98,44,hard,plus,dotcolour,beta,,,22,18,V,R,
281,29,29,6,2,53,27,650,['c'],1,left,['0'],6,331,[0.16514058],100,53,easy,plus,dotcolour,beta,,,22,18,V,R,
282,30,30,6,2,47,33,1115,['c'],1,left,['9'],5,483,[0.26071735],100,47,medium,plus,dotcolour,beta,,,22,18,V,R,
283,31,31,6,2,33,47,948,['n'],1,right,['0'],6,387,[-0.01428863],88,47,medium,plus,dotcolour,beta,,,22,18,V,R,
284,32,32,6,2,47,33,915,['c'],1,left,['0'],6,320,[0.0678805],98,47,medium,plus,dotcolour,beta,,,22,18,V,R,
285,33,33,6,2,36,44,1816,['n'],1,right,['9'],5,387,[-0.17205145],100,44,hard,plus,dotcolour,beta,,,22,18,V,R,
286,34,34,6,2,27,53,664,['n'],1,right,['9'],5,282,[-0.17153877],100,53,easy,plus,dotcolour,beta,,,22,18,V,R,
287,35,35,6,2,33,47,884,['n'],1,right,['9'],5,333,[-0.20624407],100,47,medium,plus,dotcolour,beta,,,22,18,V,R,
288,36,36,6,2,36,44,1115,['c'],0,right,['9'],5,372,[0.06524473],97,44,hard,plus,dotcolour,beta,,,22,18,V,R,
289,37,37,6,2,33,47,1331,['c'],0,right,['9'],5,281,[0.07824805],99,47,medium,plus,dotcolour,beta,,,22,18,V,R,
290,38,38,6,2,36,44,966,['n'],1,right,['9'],5,296,[-0.07029525],98,44,hard,plus,dotcolour,beta,,,22,18,V,R,
291,39,39,6,2,27,53,1048,['n'],1,right,['9'],5,476,[-0.28029182],100,53,easy,plus,dotcolour,beta,,,22,18,V,R,
292,40,40,6,2,47,33,865,['c'],1,left,['8'],4,335,[0.12251628],100,47,medium,plus,dotcolour,beta,,,22,18,V,R,
293,41,41,6,2,33,47,1248,['n'],1,right,['9'],5,264,[-0.13949713],100,47,medium,plus,dotcolour,beta,,,22,18,V,R,
294,42,0,7,2,33,47,1000,['n'],1,right,['9'],5,704,[-0.03471558],87,47,medium,plus,dotcolour,beta,,,22,18,V,R,
295,43,1,7,2,47,33,649,['c'],1,left,['9'],5,370,[0.13877409],100,47,medium,plus,dotcolour,beta,,,22,18,V,R,
296,44,2,7,2,53,27,700,['c'],1,left,['8'],4,369,[0.17271401],100,53,easy,plus,dotcolour,beta,,,22,18,V,R,
297,45,3,7,2,33,47,731,['n'],1,right,['0'],6,342,[-0.1796788],100,47,medium,plus,dotcolour,beta,,,22,18,V,R,
298,46,4,7,2,33,47,1065,['n'],1,right,['9'],5,455,[-0.121743],99,47,medium,plus,dotcolour,beta,,,22,18,V,R,
299,47,5,7,2,44,36,1064,['c'],1,left,['9'],5,491,[0.21799452],100,44,hard,plus,dotcolour,beta,,,22,18,V,R,
300,48,6,7,2,47,33,599,['c'],1,left,['0'],6,352,[0.04747431],96,47,medium,plus,dotcolour,beta,,,22,18,V,R,
301,49,7,7,2,44,36,531,['c'],1,left,['8'],4,351,[0.15764792],100,44,hard,plus,dotcolour,beta,,,22,18,V,R,
302,50,8,7,2,33,47,1515,['c'],0,right,['9'],5,1293,[0.04870127],84,47,medium,plus,dotcolour,beta,,,22,18,V,R,
303,51,9,7,2,44,36,814,['c'],1,left,['9'],5,369,[0.16508806],100,44,hard,plus,dotcolour,beta,,,22,18,V,R,
304,52,10,7,2,53,27,764,['c'],1,left,['0'],6,309,[0.09058052],99,53,easy,plus,dotcolour,beta,,,22,18,V,R,
305,53,11,7,2,36,44,767,['n'],1,right,['8'],4,1107,[-0.18431481],98,44,hard,plus,dotcolour,beta,,,22,18,V,R,
306,54,12,7,2,47,33,716,['c'],1,left,['0'],6,419,[0.03369158],92,47,medium,plus,dotcolour,beta,,,22,18,V,R,
307,55,13,7,2,36,44,1131,['n'],1,right,['9'],5,335,[-0.0204789],91,44,hard,plus,dotcolour,beta,,,22,18,V,R,
308,56,14,7,2,36,44,748,['c'],0,right,['9'],5,469,[0.11947123],99,44,hard,plus,dotcolour,beta,,,22,18,V,R,
309,57,15,7,2,27,53,449,['n'],1,right,['0'],6,329,[-0.07140353],98,53,easy,plus,dotcolour,beta,,,22,18,V,R,
310,58,16,7,2,53,27,698,['c'],1,left,['0'],6,369,[0.11349789],99,53,easy,plus,dotcolour,beta,,,22,18,V,R,
311,59,17,7,2,53,27,548,['c'],1,left,['0'],6,253,[0.09253165],100,53,easy,plus,dotcolour,beta,,,22,18,V,R,
312,60,18,7,2,47,33,614,['c'],1,left,['0'],6,251,[0.08421035],99,47,medium,plus,dotcolour,beta,,,22,18,V,R,
313,61,19,7,2,36,44,1349,['n'],1,right,['3'],3,1085,[-0.11012903],95,44,hard,plus,dotcolour,beta,,,22,18,V,R,
314,62,20,7,2,44,36,847,['c'],1,left,['1'],1,880,[0.17036492],99,44,hard,plus,dotcolour,beta,,,22,18,V,R,
315,63,21,7,2,27,53,783,['n'],1,right,['0'],6,335,[-0.11058687],99,53,easy,plus,dotcolour,beta,,,22,18,V,R,
316,64,22,7,2,47,33,1466,['c'],1,left,['0'],6,600,[0.20236136],100,47,medium,plus,dotcolour,beta,,,22,18,V,R,
317,65,23,7,2,27,53,817,['n'],1,right,['0'],6,296,[-0.09808843],99,53,easy,plus,dotcolour,beta,,,22,18,V,R,
318,66,24,7,2,36,44,2165,['c'],0,right,['8'],4,1519,[0.0412633],80,44,hard,plus,dotcolour,beta,,,22,18,V,R,
319,67,25,7,2,36,44,1232,['n'],1,right,['8'],4,642,[-0.15608128],99,44,hard,plus,dotcolour,beta,,,22,18,V,R,
320,68,26,7,2,44,36,1499,['c'],1,left,['9'],5,501,[0.00088278],81,44,hard,plus,dotcolour,beta,,,22,18,V,R,
321,69,27,7,2,47,33,666,['c'],1,left,['9'],5,343,[0.1079834],99,47,medium,plus,dotcolour,beta,,,22,18,V,R,
322,70,28,7,2,33,47,763,['n'],1,right,['1'],1,1092,[-0.29516129],100,47,medium,plus,dotcolour,beta,,,22,18,V,R,
323,71,29,7,2,53,27,1883,['c'],1,left,['8'],4,830,[0.18878704],99,53,easy,plus,dotcolour,beta,,,22,18,V,R,
324,72,30,7,2,53,27,981,['c'],1,left,['0'],6,671,[0.28673023],100,53,easy,plus,dotcolour,beta,,,22,18,V,R,
325,73,31,7,2,53,27,466,['c'],1,left,['0'],6,322,[0.08096033],99,53,easy,plus,dotcolour,beta,,,22,18,V,R,
326,74,32,7,2,33,47,1082,['n'],1,right,['9'],5,475,[-0.16160753],100,47,medium,plus,dotcolour,beta,,,22,18,V,R,
327,75,33,7,2,44,36,1265,['n'],0,left,['2'],2,1390,[0.07402061],43,44,hard,plus,dotcolour,beta,,,22,18,V,R,
328,76,34,7,2,44,36,1348,['c'],1,left,['9'],5,489,[0.15320142],100,44,hard,plus,dotcolour,beta,,,22,18,V,R,
329,77,35,7,2,27,53,1230,['n'],1,right,['9'],5,325,[-0.11887496],100,53,easy,plus,dotcolour,beta,,,22,18,V,R,
330,78,36,7,2,27,53,566,['n'],1,right,['0'],6,315,[-0.16903656],100,53,easy,plus,dotcolour,beta,,,22,18,V,R,
331,79,37,7,2,36,44,1415,['c'],0,right,['2'],2,855,[0.05101033],89,44,hard,plus,dotcolour,beta,,,22,18,V,R,
332,80,38,7,2,47,33,815,['n'],0,left,['9'],5,741,[-0.05726364],91,47,medium,plus,dotcolour,beta,,,22,18,V,R,
333,81,39,7,2,33,47,798,['n'],1,right,['9'],5,296,[-0.1384785],100,47,medium,plus,dotcolour,beta,,,22,18,V,R,
334,82,40,7,2,27,53,566,['n'],1,right,['9'],5,310,[-0.13094921],100,53,easy,plus,dotcolour,beta,,,22,18,V,R,
335,83,41,7,2,27,53,498,['n'],1,right,['9'],5,415,[-0.18164625],100,53,easy,plus,dotcolour,beta,,,22,18,V,R,
336,84,0,8,2,44,36,816,['n'],0,left,['9'],5,247,[-0.13990103],100,44,hard,plus,dotcolour,beta,,,22,18,V,R,
337,85,1,8,2,36,44,432,['c'],0,right,['1'],1,750,[0.01882525],82,44,hard,plus,dotcolour,beta,,,22,18,V,R,
338,86,2,8,2,33,47,764,['n'],1,right,['9'],5,377,[-0.15082935],100,47,medium,plus,dotcolour,beta,,,22,18,V,R,
339,87,3,8,2,33,47,1114,['n'],1,right,['9'],5,422,[-0.00575863],85,47,medium,plus,dotcolour,beta,,,22,18,V,R,
340,88,4,8,2,33,47,483,['n'],1,right,['9'],5,291,[-0.0626637],98,47,medium,plus,dotcolour,beta,,,22,18,V,R,
341,89,5,8,2,44,36,632,['c'],1,left,['3'],3,1471,[0.10808543],92,44,hard,plus,dotcolour,beta,,,22,18,V,R,
342,90,6,8,2,33,47,899,['n'],1,right,['0'],6,361,[-0.11225848],99,47,medium,plus,dotcolour,beta,,,22,18,V,R,
343,91,7,8,2,36,44,1065,['c'],0,right,['3'],3,506,[-0.03238315],64,44,hard,plus,dotcolour,beta,,,22,18,V,R,
344,92,8,8,2,47,33,1431,['c'],1,left,['8'],4,685,[0.13775304],99,47,medium,plus,dotcolour,beta,,,22,18,V,R,
345,93,9,8,2,27,53,749,['n'],1,right,['0'],6,396,[-0.09934014],99,53,easy,plus,dotcolour,beta,,,22,18,V,R,
346,94,10,8,2,33,47,565,['n'],1,right,['9'],5,375,[-0.11681308],99,47,medium,plus,dotcolour,beta,,,22,18,V,R,
347,95,11,8,2,36,44,1499,['n'],1,right,['8'],4,493,[-0.21989611],100,44,hard,plus,dotcolour,beta,,,22,18,V,R,
348,96,12,8,2,44,36,815,['c'],1,left,['8'],4,633,[0.22331209],100,44,hard,plus,dotcolour,beta,,,22,18,V,R,
349,97,13,8,2,44,36,1330,['c'],1,left,['9'],5,612,[0.02243757],86,44,hard,plus,dotcolour,beta,,,22,18,V,R,
350,98,14,8,2,27,53,815,['n'],1,right,['0'],6,803,[-0.09697221],96,53,easy,plus,dotcolour,beta,,,22,18,V,R,
351,99,15,8,2,53,27,797,['c'],1,left,['9'],5,372,[0.08094067],98,53,easy,plus,dotcolour,beta,,,22,18,V,R,
352,100,16,8,2,53,27,530,['c'],1,left,['0'],6,306,[0.13085129],100,53,easy,plus,dotcolour,beta,,,22,18,V,R,
353,101,17,8,2,47,33,498,['c'],1,left,['9'],5,234,[0.07600511],99,47,medium,plus,dotcolour,beta,,,22,18,V,R,
354,102,18,8,2,33,47,734,['n'],1,right,['0'],6,316,[-0.08013118],99,47,medium,plus,dotcolour,beta,,,22,18,V,R,
355,103,19,8,2,27,53,766,['c'],0,right,['1'],1,954,[-0.09202642],34,53,easy,plus,dotcolour,beta,,,22,18,V,R,
356,104,20,8,2,47,33,1346,['c'],1,left,['9'],5,519,[0.03232015],90,47,medium,plus,dotcolour,beta,,,22,18,V,R,
357,105,21,8,2,53,27,750,['c'],1,left,['9'],5,462,[0.07994631],97,53,easy,plus,dotcolour,beta,,,22,18,V,R,
358,106,22,8,2,27,53,916,['n'],1,right,['9'],5,623,[-0.29806453],100,53,easy,plus,dotcolour,beta,,,22,18,V,R,
359,107,23,8,2,53,27,632,['c'],1,left,['0'],6,382,[0.2516375],100,53,easy,plus,dotcolour,beta,,,22,18,V,R,
360,108,24,8,2,36,44,765,['n'],1,right,['9'],5,369,[-0.04488577],95,44,hard,plus,dotcolour,beta,,,22,18,V,R,
361,109,25,8,2,36,44,848,['n'],1,right,['9'],5,658,[-0.24665232],100,44,hard,plus,dotcolour,beta,,,22,18,V,R,
362,110,26,8,2,33,47,933,['c'],0,right,['8'],4,587,[0.014253],84,47,medium,plus,dotcolour,beta,,,22,18,V,R,
363,111,27,8,2,36,44,616,['n'],1,right,['9'],5,348,[-0.09158716],99,44,hard,plus,dotcolour,beta,,,22,18,V,R,
364,112,28,8,2,47,33,1013,['c'],1,left,['0'],6,383,[0.21032893],100,47,medium,plus,dotcolour,beta,,,22,18,V,R,
365,113,29,8,2,53,27,716,['c'],1,left,['0'],6,325,[0.15402618],100,53,easy,plus,dotcolour,beta,,,22,18,V,R,
366,114,30,8,2,27,53,2314,['n'],1,right,['3'],3,428,[-0.14775681],100,53,easy,plus,dotcolour,beta,,,22,18,V,R,
367,115,31,8,2,44,36,1365,['c'],1,left,['9'],5,357,[0.12414529],100,44,hard,plus,dotcolour,beta,,,22,18,V,R,
368,116,32,8,2,44,36,981,['c'],1,left,['0'],6,280,[0.03012949],95,44,hard,plus,dotcolour,beta,,,22,18,V,R,
369,117,33,8,2,53,27,664,['c'],1,left,['0'],6,244,[0.15873026],100,53,easy,plus,dotcolour,beta,,,22,18,V,R,
370,118,34,8,2,47,33,1116,['n'],0,left,['2'],2,1110,[-0.11406685],95,47,medium,plus,dotcolour,beta,,,22,18,V,R,
371,119,35,8,2,47,33,1184,['c'],1,left,['9'],5,396,[0.0412106],94,47,medium,plus,dotcolour,beta,,,22,18,V,R,
372,120,36,8,2,53,27,1748,['c'],1,left,['9'],5,528,[0.07459324],96,53,easy,plus,dotcolour,beta,,,22,18,V,R,
373,121,37,8,2,27,53,1115,['n'],1,right,['8'],4,558,[-0.15268613],99,53,easy,plus,dotcolour,beta,,,22,18,V,R,
374,122,38,8,2,47,33,815,['c'],1,left,['0'],6,321,[0.07104505],98,47,medium,plus,dotcolour,beta,,,22,18,V,R,
375,123,39,8,2,27,53,1281,['n'],1,right,['8'],4,594,[-0.26249962],100,53,easy,plus,dotcolour,beta,,,22,18,V,R,
376,124,40,8,2,36,44,699,['c'],0,right,['9'],5,311,[0.12901218],100,44,hard,plus,dotcolour,beta,,,22,18,V,R,
377,125,41,8,2,44,36,883,['c'],1,left,['8'],4,432,[0.03965931],93,44,hard,plus,dotcolour,beta,,,22,18,V,R,
378,0,0,9,3,47,33,1266,['n'],0,left,['9'],5,398,[0.05856768],4,47,medium,minus,dotcolour,beta,,,22,18,V,R,
379,1,1,9,3,47,33,866,['c'],1,left,['0'],6,317,[0.06294385],56,47,medium,minus,dotcolour,beta,,,22,18,V,R,
380,2,2,9,3,27,53,682,['n'],1,right,['8'],4,502,[-0.22846902],99,53,easy,minus,dotcolour,beta,,,22,18,V,R,
381,3,3,9,3,53,27,547,['c'],1,left,['9'],5,429,[0.16673719],96,53,easy,minus,dotcolour,beta,,,22,18,V,R,
382,4,4,9,3,47,33,649,['c'],1,left,['9'],5,307,[0.08217165],70,47,medium,minus,dotcolour,beta,,,22,18,V,R,
383,5,5,9,3,53,27,549,['c'],1,left,['0'],6,402,[0.05102314],47,53,easy,minus,dotcolour,beta,,,22,18,V,R,
384,6,6,9,3,33,47,1032,['n'],1,right,['0'],6,553,[-0.18793406],96,47,medium,minus,dotcolour,beta,,,22,18,V,R,
385,7,7,9,3,53,27,632,['c'],1,left,['9'],5,299,[0.12771806],91,53,easy,minus,dotcolour,beta,,,22,18,V,R,
386,8,8,9,3,44,36,1532,['c'],1,left,['9'],5,459,[0.10452191],79,44,hard,minus,dotcolour,beta,,,22,18,V,R,
387,9,9,9,3,44,36,549,['c'],1,left,['0'],6,276,[0.10455723],84,44,hard,minus,dotcolour,beta,,,22,18,V,R,
388,10,10,9,3,27,53,698,['n'],1,right,['8'],4,614,[-0.13918803],87,53,easy,minus,dotcolour,beta,,,22,18,V,R,
389,11,11,9,3,27,53,1247,['c'],0,right,['9'],5,388,[-0.05509285],4,53,easy,minus,dotcolour,beta,,,22,18,V,R,
390,12,12,9,3,33,47,931,['c'],0,right,['0'],6,328,[0.08335818],71,47,medium,minus,dotcolour,beta,,,22,18,V,R,
391,13,13,9,3,36,44,649,['c'],0,right,['0'],6,426,[0.09263462],74,44,hard,minus,dotcolour,beta,,,22,18,V,R,
392,14,14,9,3,47,33,881,['c'],1,left,['0'],6,447,[0.09603682],75,47,medium,minus,dotcolour,beta,,,22,18,V,R,
393,15,15,9,3,36,44,1381,['c'],0,right,['8'],4,679,[-0.10861237],3,44,hard,minus,dotcolour,beta,,,22,18,V,R,
394,16,16,9,3,47,33,866,['c'],1,left,['9'],5,522,[0.16122844],93,47,medium,minus,dotcolour,beta,,,22,18,V,R,
395,17,17,9,3,33,47,900,['c'],0,right,['0'],6,3098,[-0.17494811],9,47,medium,minus,dotcolour,beta,,,22,18,V,R,
396,18,18,9,3,36,44,1398,['n'],1,right,['0'],6,327,[-0.1038548],82,44,hard,minus,dotcolour,beta,,,22,18,V,R,
397,19,19,9,3,44,36,1332,['n'],0,left,['9'],5,405,[-0.13010119],89,44,hard,minus,dotcolour,beta,,,22,18,V,R,
398,20,20,9,3,33,47,649,['c'],0,right,['1'],1,948,[-0.00267523],25,47,medium,minus,dotcolour,beta,,,22,18,V,R,
399,21,21,9,3,47,33,1099,['n'],0,left,['9'],5,539,[0.12977777],1,47,medium,minus,dotcolour,beta,,,22,18,V,R,
400,22,22,9,3,53,27,683,['c'],1,left,['8'],4,419,[0.00319697],19,53,easy,minus,dotcolour,beta,,,22,18,V,R,
401,23,23,9,3,53,27,881,['c'],1,left,['0'],6,409,[0.14173102],92,53,easy,minus,dotcolour,beta,,,22,18,V,R,
402,24,24,9,3,53,27,582,['c'],1,left,['0'],6,346,[0.12448508],89,53,easy,minus,dotcolour,beta,,,22,18,V,R,
403,25,25,9,3,36,44,1332,['n'],1,right,['8'],4,1120,[-0.05504586],50,44,hard,minus,dotcolour,beta,,,22,18,V,R,
404,26,26,9,3,33,47,2615,['c'],0,right,['0'],6,532,[-0.06933349],4,47,medium,minus,dotcolour,beta,,,22,18,V,R,
405,27,27,9,3,36,44,1483,['n'],1,right,['9'],5,387,[-0.12013672],87,44,hard,minus,dotcolour,beta,,,22,18,V,R,
406,28,28,9,3,33,47,565,['c'],0,right,['9'],5,382,[0.05017359],46,47,medium,minus,dotcolour,beta,,,22,18,V,R,
407,29,29,9,3,27,53,831,['c'],0,right,['1'],1,887,[-0.12425653],3,53,easy,minus,dotcolour,beta,,,22,18,V,R,
408,30,30,9,3,33,47,732,['n'],1,right,['9'],5,390,[-0.13178064],90,47,medium,minus,dotcolour,beta,,,22,18,V,R,
409,31,31,9,3,36,44,698,['n'],1,right,['8'],4,372,[-0.04217507],40,44,hard,minus,dotcolour,beta,,,22,18,V,R,
410,32,32,9,3,44,36,1031,['c'],1,left,['0'],6,709,[0.14484082],87,44,hard,minus,dotcolour,beta,,,22,18,V,R,
411,33,33,9,3,27,53,716,['n'],1,right,['9'],5,413,[-0.1533037],94,53,easy,minus,dotcolour,beta,,,22,18,V,R,
412,34,34,9,3,44,36,1147,['c'],1,left,['8'],4,536,[0.13230274],87,44,hard,minus,dotcolour,beta,,,22,18,V,R,
413,35,35,9,3,36,44,963,['n'],1,right,['9'],5,340,[-0.03294104],33,44,hard,minus,dotcolour,beta,,,22,18,V,R,
414,36,36,9,3,27,53,999,['n'],1,right,['9'],5,352,[-0.07684996],66,53,easy,minus,dotcolour,beta,,,22,18,V,R,
415,37,37,9,3,44,36,649,['c'],1,left,['8'],4,930,[0.02937265],38,44,hard,minus,dotcolour,beta,,,22,18,V,R,
416,38,38,9,3,44,36,1050,['n'],0,left,['9'],5,643,[0.01977099],16,44,hard,minus,dotcolour,beta,,,22,18,V,R,
417,39,39,9,3,27,53,747,['n'],1,right,['0'],6,372,[-0.00709565],19,53,easy,minus,dotcolour,beta,,,22,18,V,R,
418,40,40,9,3,53,27,766,['c'],1,left,['0'],6,272,[0.13946159],95,53,easy,minus,dotcolour,beta,,,22,18,V,R,
419,41,41,9,3,47,33,465,['c'],1,left,['0'],6,268,[0.0181709],21,47,medium,minus,dotcolour,beta,,,22,18,V,R,
420,42,0,10,3,33,47,1199,['n'],1,right,['0'],6,335,[-0.052068],47,47,medium,minus,dotcolour,beta,,,22,18,V,R,
421,43,1,10,3,33,47,598,['n'],1,right,['0'],6,339,[-0.11931762],88,47,medium,minus,dotcolour,beta,,,22,18,V,R,
422,44,2,10,3,27,53,532,['n'],1,right,['0'],6,305,[-0.10720316],84,53,easy,minus,dotcolour,beta,,,22,18,V,R,
423,45,3,10,3,27,53,498,['n'],1,right,['0'],6,330,[-0.12769397],91,53,easy,minus,dotcolour,beta,,,22,18,V,R,
424,46,4,10,3,53,27,632,['c'],1,left,['0'],6,508,[0.21263322],98,53,easy,minus,dotcolour,beta,,,22,18,V,R,
425,47,5,10,3,33,47,681,['n'],1,right,['9'],5,774,[-0.25917147],98,47,medium,minus,dotcolour,beta,,,22,18,V,R,
426,48,6,10,3,33,47,832,['n'],1,right,['9'],5,351,[-0.00857408],19,47,medium,minus,dotcolour,beta,,,22,18,V,R,
427,49,7,10,3,53,27,683,['c'],1,left,['0'],6,254,[0.09352056],80,53,easy,minus,dotcolour,beta,,,22,18,V,R,
428,50,8,10,3,47,33,1298,['c'],1,left,['9'],5,593,[0.04643119],45,47,medium,minus,dotcolour,beta,,,22,18,V,R,
429,51,9,10,3,44,36,632,['c'],1,left,['9'],5,297,[0.0467527],43,44,hard,minus,dotcolour,beta,,,22,18,V,R,
430,52,10,10,3,47,33,900,['c'],1,left,['9'],5,434,[0.15148174],93,47,medium,minus,dotcolour,beta,,,22,18,V,R,
431,53,11,10,3,27,53,600,['n'],1,right,['9'],5,490,[-0.11192162],81,53,easy,minus,dotcolour,beta,,,22,18,V,R,
432,54,12,10,3,53,27,515,['c'],1,left,['0'],6,275,[0.09981262],82,53,easy,minus,dotcolour,beta,,,22,18,V,R,
433,55,13,10,3,47,33,764,['c'],1,left,['0'],6,362,[0.12335788],88,47,medium,minus,dotcolour,beta,,,22,18,V,R,
434,56,14,10,3,44,36,983,['c'],1,left,['0'],6,349,[0.03973099],38,44,hard,minus,dotcolour,beta,,,22,18,V,R,
435,57,15,10,3,27,53,917,['n'],1,right,['2'],2,860,[-0.24588221],98,53,easy,minus,dotcolour,beta,,,22,18,V,R,
436,58,16,10,3,33,47,1581,['n'],1,right,['3'],3,971,[-0.04603171],46,47,medium,minus,dotcolour,beta,,,22,18,V,R,
437,59,17,10,3,44,36,848,['c'],1,left,['1'],1,1019,[0.07012291],56,44,hard,minus,dotcolour,beta,,,22,18,V,R,
438,60,18,10,3,33,47,814,['n'],1,right,['9'],5,651,[-0.05260762],48,47,medium,minus,dotcolour,beta,,,22,18,V,R,
439,61,19,10,3,44,36,881,['n'],0,left,['8'],4,702,[-0.10195035],73,44,hard,minus,dotcolour,beta,,,22,18,V,R,
440,62,20,10,3,53,27,583,['c'],1,left,['0'],6,395,[0.16113864],95,53,easy,minus,dotcolour,beta,,,22,18,V,R,
441,63,21,10,3,27,53,915,['c'],0,right,['2'],2,1080,[-0.08597338],8,53,easy,minus,dotcolour,beta,,,22,18,V,R,
442,64,22,10,3,53,27,1182,['c'],1,left,['0'],6,255,[0.16355668],98,53,easy,minus,dotcolour,beta,,,22,18,V,R,
443,65,23,10,3,36,44,932,['c'],0,right,['9'],5,457,[0.00496348],21,44,hard,minus,dotcolour,beta,,,22,18,V,R,
444,66,24,10,3,36,44,1347,['n'],1,right,['9'],5,537,[-0.08900139],69,44,hard,minus,dotcolour,beta,,,22,18,V,R,
445,67,25,10,3,27,53,816,['n'],1,right,['0'],6,388,[-0.1453229],93,53,easy,minus,dotcolour,beta,,,22,18,V,R,
446,68,26,10,3,36,44,731,['c'],0,right,['8'],4,728,[-0.16705417],1,44,hard,minus,dotcolour,beta,,,22,18,V,R,
447,69,27,10,3,36,44,1833,['n'],1,right,['8'],4,595,[-0.07401753],61,44,hard,minus,dotcolour,beta,,,22,18,V,R,
448,70,28,10,3,47,33,665,['c'],1,left,['9'],5,402,[0.11236383],83,47,medium,minus,dotcolour,beta,,,22,18,V,R,
449,71,29,10,3,47,33,682,['c'],1,left,['9'],5,511,[0.23154753],99,47,medium,minus,dotcolour,beta,,,22,18,V,R,
450,72,30,10,3,53,27,715,['c'],1,left,['0'],6,479,[0.12772674],87,53,easy,minus,dotcolour,beta,,,22,18,V,R,
451,73,31,10,3,36,44,632,['c'],0,right,['9'],5,284,[0.08193863],71,44,hard,minus,dotcolour,beta,,,22,18,V,R,
452,74,32,10,3,47,33,532,['c'],1,left,['9'],5,324,[0.05670371],51,47,medium,minus,dotcolour,beta,,,22,18,V,R,
453,75,33,10,3,36,44,1133,['n'],1,right,['8'],4,355,[-0.04770726],44,44,hard,minus,dotcolour,beta,,,22,18,V,R,
454,76,34,10,3,36,44,747,['c'],0,right,['0'],6,1119,[0.00667885],30,44,hard,minus,dotcolour,beta,,,22,18,V,R,
455,77,35,10,3,27,53,617,['c'],0,right,['9'],5,387,[0.05989607],53,53,easy,minus,dotcolour,beta,,,22,18,V,R,
456,78,36,10,3,44,36,1250,['n'],0,left,['9'],5,426,[-0.07285899],62,44,hard,minus,dotcolour,beta,,,22,18,V,R,
457,79,37,10,3,47,33,999,['c'],1,left,['8'],4,490,[0.2729702],100,47,medium,minus,dotcolour,beta,,,22,18,V,R,
458,80,38,10,3,44,36,1032,['c'],1,left,['9'],5,222,[0.06320878],57,44,hard,minus,dotcolour,beta,,,22,18,V,R,
459,81,39,10,3,33,47,1015,['c'],0,right,['9'],5,270,[0.07183769],64,47,medium,minus,dotcolour,beta,,,22,18,V,R,
460,82,40,10,3,44,36,1234,['n'],0,left,['3'],3,1267,[-0.14857694],82,44,hard,minus,dotcolour,beta,,,22,18,V,R,
461,83,41,10,3,53,27,766,['c'],1,left,['0'],6,258,[0.12539854],92,53,easy,minus,dotcolour,beta,,,22,18,V,R,
462,84,0,11,3,33,47,1017,['n'],1,right,['9'],5,369,[-0.16921748],97,47,medium,minus,dotcolour,beta,,,22,18,V,R,
463,85,1,11,3,53,27,615,['c'],1,left,['9'],5,362,[0.0971174],78,53,easy,minus,dotcolour,beta,,,22,18,V,R,
464,86,2,11,3,44,36,1280,['c'],1,left,['0'],6,250,[0.0829434],73,44,hard,minus,dotcolour,beta,,,22,18,V,R,
465,87,3,11,3,44,36,947,['n'],0,left,['9'],5,363,[-0.03422013],35,44,hard,minus,dotcolour,beta,,,22,18,V,R,
466,88,4,11,3,27,53,716,['n'],1,right,['0'],6,393,[-0.11936548],86,53,easy,minus,dotcolour,beta,,,22,18,V,R,
467,89,5,11,3,47,33,666,['c'],1,left,['8'],4,544,[0.11335854],80,47,medium,minus,dotcolour,beta,,,22,18,V,R,
468,90,6,11,3,36,44,765,['n'],1,right,['9'],5,564,[-0.02442632],32,44,hard,minus,dotcolour,beta,,,22,18,V,R,
469,91,7,11,3,33,47,533,['c'],0,right,['9'],5,386,[0.08134739],68,47,medium,minus,dotcolour,beta,,,22,18,V,R,
470,92,8,11,3,47,33,547,['n'],0,left,['0'],6,302,[-0.085719],73,47,medium,minus,dotcolour,beta,,,22,18,V,R,
471,93,9,11,3,47,33,915,['n'],0,left,['1'],1,943,[0.11064392],4,47,medium,minus,dotcolour,beta,,,22,18,V,R,
472,94,10,11,3,44,36,767,['c'],1,left,['8'],4,875,[0.12922902],80,44,hard,minus,dotcolour,beta,,,22,18,V,R,
473,95,11,11,3,44,36,1299,['c'],1,left,['9'],5,317,[0.04090393],38,44,hard,minus,dotcolour,beta,,,22,18,V,R,
474,96,12,11,3,33,47,1133,['c'],0,right,['0'],6,380,[-0.0580893],3,47,medium,minus,dotcolour,beta,,,22,18,V,R,
475,97,13,11,3,44,36,747,['n'],0,left,['9'],5,312,[0.02987477],6,44,hard,minus,dotcolour,beta,,,22,18,V,R,
476,98,14,11,3,36,44,1416,['n'],1,right,['9'],5,460,[-0.13394362],89,44,hard,minus,dotcolour,beta,,,22,18,V,R,
477,99,15,11,3,27,53,831,['n'],1,right,['9'],5,362,[-0.15712608],95,53,easy,minus,dotcolour,beta,,,22,18,V,R,
478,100,16,11,3,47,33,715,['c'],1,left,['9'],5,319,[0.14906188],95,47,medium,minus,dotcolour,beta,,,22,18,V,R,
479,101,17,11,3,36,44,583,['c'],0,right,['8'],4,764,[-0.01034634],20,44,hard,minus,dotcolour,beta,,,22,18,V,R,
480,102,18,11,3,36,44,1199,['n'],1,right,['9'],5,295,[-0.13298725],93,44,hard,minus,dotcolour,beta,,,22,18,V,R,
481,103,19,11,3,36,44,1315,['n'],1,right,['8'],4,567,[-0.19304692],96,44,hard,minus,dotcolour,beta,,,22,18,V,R,
482,104,20,11,3,33,47,633,['n'],1,right,['9'],5,304,[-0.07772428],67,47,medium,minus,dotcolour,beta,,,22,18,V,R,
483,105,21,11,3,44,36,1032,['c'],1,left,['3'],3,804,[0.18187067],93,44,hard,minus,dotcolour,beta,,,22,18,V,R,
484,106,22,11,3,36,44,763,['n'],1,right,['9'],5,341,[-0.20716702],99,44,hard,minus,dotcolour,beta,,,22,18,V,R,
485,107,23,11,3,53,27,3665,['c'],1,left,['9'],5,879,[0.14304375],84,53,easy,minus,dotcolour,beta,,,22,18,V,R,
486,108,24,11,3,33,47,1097,['c'],0,right,['0'],6,481,[-0.02104579],12,47,medium,minus,dotcolour,beta,,,22,18,V,R,
487,109,25,11,3,47,33,765,['n'],0,left,['3'],3,648,[0.04194697],10,47,medium,minus,dotcolour,beta,,,22,18,V,R,
488,110,26,11,3,36,44,798,['c'],0,right,['8'],4,446,[0.0150428],25,44,hard,minus,dotcolour,beta,,,22,18,V,R,
489,111,27,11,3,27,53,765,['n'],1,right,['9'],5,375,[-0.024886],29,53,easy,minus,dotcolour,beta,,,22,18,V,R,
490,112,28,11,3,53,27,682,['c'],1,left,['0'],6,334,[0.08773288],73,53,easy,minus,dotcolour,beta,,,22,18,V,R,
491,113,29,11,3,53,27,782,['c'],1,left,['0'],6,338,[0.04741876],44,53,easy,minus,dotcolour,beta,,,22,18,V,R,
492,114,30,11,3,27,53,830,['n'],1,right,['0'],6,357,[-0.16469196],96,53,easy,minus,dotcolour,beta,,,22,18,V,R,
493,115,31,11,3,27,53,799,['n'],1,right,['0'],6,344,[-0.10242881],81,53,easy,minus,dotcolour,beta,,,22,18,V,R,
494,116,32,11,3,53,27,683,['c'],1,left,['0'],6,280,[0.03338133],32,53,easy,minus,dotcolour,beta,,,22,18,V,R,
495,117,33,11,3,53,27,466,['c'],1,left,['0'],6,435,[0.08324995],68,53,easy,minus,dotcolour,beta,,,22,18,V,R,
496,118,34,11,3,53,27,783,['c'],1,left,['0'],6,420,[0.12441612],87,53,easy,minus,dotcolour,beta,,,22,18,V,R,
497,119,35,11,3,47,33,580,['c'],1,left,['0'],6,261,[0.11136364],88,47,medium,minus,dotcolour,beta,,,22,18,V,R,
498,120,36,11,3,33,47,847,['n'],1,right,['9'],5,826,[-0.04109067],43,47,medium,minus,dotcolour,beta,,,22,18,V,R,
499,121,37,11,3,27,53,550,['n'],1,right,['0'],6,324,[-0.14025151],94,53,easy,minus,dotcolour,beta,,,22,18,V,R,
500,122,38,11,3,33,47,1382,['c'],0,right,['8'],4,1561,[-0.12695074],7,47,medium,minus,dotcolour,beta,,,22,18,V,R,
501,123,39,11,3,27,53,1198,['n'],1,right,['8'],4,619,[-0.34058484],100,53,easy,minus,dotcolour,beta,,,22,18,V,R,
502,124,40,11,3,44,36,864,['c'],1,left,['3'],3,753,[0.11305097],77,44,hard,minus,dotcolour,beta,,,22,18,V,R,
503,125,41,11,3,47,33,898,['c'],1,left,['0'],6,824,[0.20398239],95,47,medium,minus,dotcolour,beta,,,22,18,V,R,
504,0,0,12,4,27,53,683,['n'],1,right,['9'],5,300,[-0.10949504],100,53,easy,plus,dotcolour,beta,,,22,18,V,R,
505,1,1,12,4,47,33,447,['c'],1,left,['8'],4,224,[0.09475106],100,47,medium,plus,dotcolour,beta,,,22,18,V,R,
506,2,2,12,4,27,53,748,['n'],1,right,['9'],5,257,[-0.13236127],100,53,easy,plus,dotcolour,beta,,,22,18,V,R,
507,3,3,12,4,36,44,1183,['n'],1,right,['9'],5,257,[-0.07990853],99,44,hard,plus,dotcolour,beta,,,22,18,V,R,
508,4,4,12,4,36,44,714,['n'],1,right,['0'],6,275,[-0.06574087],98,44,hard,plus,dotcolour,beta,,,22,18,V,R,
509,5,5,12,4,33,47,633,['n'],1,right,['9'],5,247,[-0.11713373],100,47,medium,plus,dotcolour,beta,,,22,18,V,R,
510,6,6,12,4,33,47,566,['n'],1,right,['9'],5,288,[-0.03277339],95,47,medium,plus,dotcolour,beta,,,22,18,V,R,
511,7,7,12,4,33,47,666,['n'],1,right,['0'],6,299,[-0.19593473],100,47,medium,plus,dotcolour,beta,,,22,18,V,R,
512,8,8,12,4,44,36,915,['c'],1,left,['3'],3,363,[0.04170461],95,44,hard,plus,dotcolour,beta,,,22,18,V,R,
513,9,9,12,4,33,47,615,['c'],0,right,['9'],5,261,[-0.01778952],79,47,medium,plus,dotcolour,beta,,,22,18,V,R,
514,10,10,12,4,33,47,565,['n'],1,right,['1'],1,861,[-0.10852211],96,47,medium,plus,dotcolour,beta,,,22,18,V,R,
515,11,11,12,4,44,36,548,['n'],0,left,['8'],4,406,[0.05996573],47,44,hard,plus,dotcolour,beta,,,22,18,V,R,
516,12,12,12,4,27,53,650,['c'],0,right,['9'],5,261,[0.02779423],95,53,easy,plus,dotcolour,beta,,,22,18,V,R,
517,13,13,12,4,36,44,350,['n'],1,right,['9'],5,277,[-0.10583439],100,44,hard,plus,dotcolour,beta,,,22,18,V,R,
518,14,14,12,4,53,27,798,['c'],1,left,['9'],5,276,[0.17387456],100,53,easy,plus,dotcolour,beta,,,22,18,V,R,
519,15,15,12,4,27,53,698,['n'],1,right,['0'],6,325,[-0.09706695],99,53,easy,plus,dotcolour,beta,,,22,18,V,R,
520,16,16,12,4,53,27,530,['n'],0,left,['1'],1,700,[-0.07241027],94,53,easy,plus,dotcolour,beta,,,22,18,V,R,
521,17,17,12,4,36,44,848,['c'],0,right,['0'],6,376,[-0.05536116],50,44,hard,plus,dotcolour,beta,,,22,18,V,R,
522,18,18,12,4,44,36,849,['c'],1,left,['0'],6,263,[0.15580657],100,44,hard,plus,dotcolour,beta,,,22,18,V,R,
523,19,19,12,4,47,33,632,['c'],1,left,['0'],6,221,[0.10856041],100,47,medium,plus,dotcolour,beta,,,22,18,V,R,
524,20,20,12,4,53,27,780,['n'],0,left,['3'],3,918,[-0.03311128],84,53,easy,plus,dotcolour,beta,,,22,18,V,R,
525,21,21,12,4,53,27,750,['c'],1,left,['0'],6,396,[0.13971816],100,53,easy,plus,dotcolour,beta,,,22,18,V,R,
526,22,22,12,4,47,33,631,['c'],1,left,['0'],6,228,[0.07270181],99,47,medium,plus,dotcolour,beta,,,22,18,V,R,
527,23,23,12,4,44,36,1315,['c'],1,left,['0'],6,232,[0.016268],94,44,hard,plus,dotcolour,beta,,,22,18,V,R,
528,24,24,12,4,53,27,598,['c'],1,left,['0'],6,247,[0.18757041],100,53,easy,plus,dotcolour,beta,,,22,18,V,R,
529,25,25,12,4,33,47,1799,['n'],1,right,['9'],5,335,[-0.19871206],100,47,medium,plus,dotcolour,beta,,,22,18,V,R,
530,26,26,12,4,47,33,549,['c'],1,left,['0'],6,268,[0.09930799],100,47,medium,plus,dotcolour,beta,,,22,18,V,R,
531,27,27,12,4,53,27,567,['c'],1,left,['9'],5,267,[0.03306445],96,53,easy,plus,dotcolour,beta,,,22,18,V,R,
532,28,28,12,4,53,27,632,['c'],1,left,['9'],5,297,[0.07791383],99,53,easy,plus,dotcolour,beta,,,22,18,V,R,
533,29,29,12,4,44,36,683,['c'],1,left,['9'],5,267,[0.1159899],100,44,hard,plus,dotcolour,beta,,,22,18,V,R,
534,30,30,12,4,27,53,1281,['n'],1,right,['8'],4,486,[-0.17338691],100,53,easy,plus,dotcolour,beta,,,22,18,V,R,
535,31,31,12,4,33,47,1149,['n'],1,right,['8'],4,342,[-0.16597322],100,47,medium,plus,dotcolour,beta,,,22,18,V,R,
536,32,32,12,4,47,33,1181,['n'],0,left,['8'],4,274,[-0.05795642],98,47,medium,plus,dotcolour,beta,,,22,18,V,R,
537,33,33,12,4,36,44,730,['c'],0,right,['8'],4,267,[-0.02671859],73,44,hard,plus,dotcolour,beta,,,22,18,V,R,
538,34,34,12,4,47,33,834,['c'],1,left,['9'],5,248,[0.14233133],100,47,medium,plus,dotcolour,beta,,,22,18,V,R,
539,35,35,12,4,36,44,816,['c'],0,right,['9'],5,199,[0.05697537],99,44,hard,plus,dotcolour,beta,,,22,18,V,R,
540,36,36,12,4,36,44,933,['n'],1,right,['9'],5,227,[-0.13857796],100,44,hard,plus,dotcolour,beta,,,22,18,V,R,
541,37,37,12,4,47,33,733,['c'],1,left,['9'],5,254,[0.0799888],99,47,medium,plus,dotcolour,beta,,,22,18,V,R,
542,38,38,12,4,27,53,681,['c'],0,right,['9'],5,281,[0.00304497],88,53,easy,plus,dotcolour,beta,,,22,18,V,R,
543,39,39,12,4,27,53,1232,['c'],0,right,['9'],5,294,[-0.10435706],17,53,easy,plus,dotcolour,beta,,,22,18,V,R,
544,40,40,12,4,44,36,632,['c'],1,left,['8'],4,306,[0.03654185],95,44,hard,plus,dotcolour,beta,,,22,18,V,R,
545,41,41,12,4,44,36,732,['c'],1,left,['8'],4,257,[0.05569667],98,44,hard,plus,dotcolour,beta,,,22,18,V,R,
546,42,0,13,4,44,36,2099,['n'],0,left,['9'],5,307,[-0.00088498],86,44,hard,plus,dotcolour,beta,,,22,18,V,R,
547,43,1,13,4,47,33,615,['c'],1,left,['9'],5,231,[0.0450589],98,47,medium,plus,dotcolour,beta,,,22,18,V,R,
548,44,2,13,4,36,44,665,['c'],0,right,['9'],5,212,[0.06132234],99,44,hard,plus,dotcolour,beta,,,22,18,V,R,
549,45,3,13,4,36,44,546,['c'],0,right,['8'],4,358,[0.12347541],100,44,hard,plus,dotcolour,beta,,,22,18,V,R,
550,46,4,13,4,27,53,865,['n'],1,right,['0'],6,431,[-0.08726662],98,53,easy,plus,dotcolour,beta,,,22,18,V,R,
551,47,5,13,4,44,36,716,['c'],1,left,['9'],5,266,[0.14466624],100,44,hard,plus,dotcolour,beta,,,22,18,V,R,
552,48,6,13,4,44,36,847,['c'],1,left,['9'],5,455,[-0.01732952],73,44,hard,plus,dotcolour,beta,,,22,18,V,R,
553,49,7,13,4,36,44,1249,['n'],1,right,['9'],5,507,[-0.17708331],100,44,hard,plus,dotcolour,beta,,,22,18,V,R,
554,50,8,13,4,53,27,699,['c'],1,left,['9'],5,260,[0.13361029],100,53,easy,plus,dotcolour,beta,,,22,18,V,R,
555,51,9,13,4,36,44,664,['c'],0,right,['8'],4,472,[-0.05628817],50,44,hard,plus,dotcolour,beta,,,22,18,V,R,
556,52,10,13,4,36,44,750,['c'],0,right,['9'],5,264,[0.09489634],99,44,hard,plus,dotcolour,beta,,,22,18,V,R,
557,53,11,13,4,27,53,798,['n'],1,right,['0'],6,383,[-0.17845547],100,53,easy,plus,dotcolour,beta,,,22,18,V,R,
558,54,12,13,4,47,33,1749,['c'],1,left,['9'],5,291,[-0.03284912],68,47,medium,plus,dotcolour,beta,,,22,18,V,R,
559,55,13,13,4,36,44,1515,['n'],1,right,['2'],2,299,[-0.05811659],98,44,hard,plus,dotcolour,beta,,,22,18,V,R,
560,56,14,13,4,53,27,914,['n'],0,left,['1'],1,924,[0.09877995],31,53,easy,plus,dotcolour,beta,,,22,18,V,R,
561,57,15,13,4,44,36,1182,['c'],1,left,['9'],5,345,[0.04168424],95,44,hard,plus,dotcolour,beta,,,22,18,V,R,
562,58,16,13,4,53,27,1183,['c'],1,left,['1'],1,661,[0.10723576],97,53,easy,plus,dotcolour,beta,,,22,18,V,R,
563,59,17,13,4,33,47,950,['n'],1,right,['8'],4,541,[-0.05203822],93,47,medium,plus,dotcolour,beta,,,22,18,V,R,
564,60,18,13,4,27,53,698,['n'],1,right,['9'],5,269,[-0.00651515],90,53,easy,plus,dotcolour,beta,,,22,18,V,R,
565,61,19,13,4,47,33,481,['c'],1,left,['9'],5,320,[0.14949301],100,47,medium,plus,dotcolour,beta,,,22,18,V,R,
566,62,20,13,4,33,47,750,['c'],0,right,['9'],5,239,[0.11524883],100,47,medium,plus,dotcolour,beta,,,22,18,V,R,
567,63,21,13,4,33,47,566,['n'],1,right,['8'],4,296,[-0.09402039],99,47,medium,plus,dotcolour,beta,,,22,18,V,R,
568,64,22,13,4,33,47,615,['n'],1,right,['8'],4,221,[-0.14181242],100,47,medium,plus,dotcolour,beta,,,22,18,V,R,
569,65,23,13,4,47,33,683,['c'],1,left,['9'],5,283,[0.09159758],99,47,medium,plus,dotcolour,beta,,,22,18,V,R,
570,66,24,13,4,44,36,683,['c'],1,left,['0'],6,221,[0.18043859],100,44,hard,plus,dotcolour,beta,,,22,18,V,R,
571,67,25,13,4,33,47,1365,['n'],1,right,['9'],5,287,[-0.12326469],100,47,medium,plus,dotcolour,beta,,,22,18,V,R,
572,68,26,13,4,44,36,4299,['n'],0,left,['3'],3,656,[0.04827555],54,44,hard,plus,dotcolour,beta,,,22,18,V,R,
573,69,27,13,4,27,53,948,['n'],1,right,['8'],4,233,[-0.14107881],100,53,easy,plus,dotcolour,beta,,,22,18,V,R,
574,70,28,13,4,44,36,649,['c'],1,left,['9'],5,238,[0.08266361],99,44,hard,plus,dotcolour,beta,,,22,18,V,R,
575,71,29,13,4,47,33,415,['c'],1,left,['9'],5,245,[0.07445255],99,47,medium,plus,dotcolour,beta,,,22,18,V,R,
576,72,30,13,4,53,27,465,['c'],1,left,['9'],5,226,[0.07317414],99,53,easy,plus,dotcolour,beta,,,22,18,V,R,
577,73,31,13,4,33,47,383,['c'],0,right,['0'],6,266,[0.06984079],99,47,medium,plus,dotcolour,beta,,,22,18,V,R,
578,74,32,13,4,53,27,515,['c'],1,left,['0'],6,204,[0.08755705],100,53,easy,plus,dotcolour,beta,,,22,18,V,R,
579,75,33,13,4,27,53,797,['n'],1,right,['0'],6,806,[-0.1651187],99,53,easy,plus,dotcolour,beta,,,22,18,V,R,
580,76,34,13,4,47,33,633,['c'],1,left,['0'],6,221,[0.0516524],98,47,medium,plus,dotcolour,beta,,,22,18,V,R,
581,77,35,13,4,27,53,733,['n'],1,right,['0'],6,240,[-0.11670386],100,53,easy,plus,dotcolour,beta,,,22,18,V,R,
582,78,36,13,4,53,27,1167,['c'],1,left,['9'],5,257,[0.05147304],98,53,easy,plus,dotcolour,beta,,,22,18,V,R,
583,79,37,13,4,33,47,782,['n'],1,right,['0'],6,232,[-0.0652492],99,47,medium,plus,dotcolour,beta,,,22,18,V,R,
584,80,38,13,4,47,33,633,['n'],0,left,['0'],6,311,[0.01799669],77,47,medium,plus,dotcolour,beta,,,22,18,V,R,
585,81,39,13,4,36,44,583,['c'],0,right,['9'],5,260,[0.00012458],88,44,hard,plus,dotcolour,beta,,,22,18,V,R,
586,82,40,13,4,27,53,1166,['n'],1,right,['0'],6,293,[-0.12799087],100,53,easy,plus,dotcolour,beta,,,22,18,V,R,
587,83,41,13,4,53,27,598,['c'],1,left,['8'],4,330,[0.14532816],100,53,easy,plus,dotcolour,beta,,,22,18,V,R,
588,84,0,14,4,33,47,716,['n'],1,right,['9'],5,304,[-0.09207384],99,47,medium,plus,dotcolour,beta,,,22,18,V,R,
589,85,1,14,4,36,44,598,['n'],1,right,['9'],5,221,[-0.20730255],100,44,hard,plus,dotcolour,beta,,,22,18,V,R,
590,86,2,14,4,33,47,467,['n'],1,right,['0'],6,227,[-0.02434207],95,47,medium,plus,dotcolour,beta,,,22,18,V,R,
591,87,3,14,4,33,47,549,['n'],1,right,['9'],5,333,[-0.06016753],97,47,medium,plus,dotcolour,beta,,,22,18,V,R,
592,88,4,14,4,36,44,847,['n'],1,right,['3'],3,647,[-0.02176362],85,44,hard,plus,dotcolour,beta,,,22,18,V,R,
593,89,5,14,4,33,47,731,['n'],1,right,['0'],6,272,[-0.04586919],97,47,medium,plus,dotcolour,beta,,,22,18,V,R,
594,90,6,14,4,36,44,549,['n'],1,right,['9'],5,257,[-0.10902727],100,44,hard,plus,dotcolour,beta,,,22,18,V,R,
595,91,7,14,4,27,53,599,['n'],1,right,['8'],4,296,[-0.095544],99,53,easy,plus,dotcolour,beta,,,22,18,V,R,
596,92,8,14,4,27,53,647,['n'],1,right,['9'],5,244,[-0.11302129],100,53,easy,plus,dotcolour,beta,,,22,18,V,R,
597,93,9,14,4,47,33,414,['c'],1,left,['9'],5,210,[0.1528168],100,47,medium,plus,dotcolour,beta,,,22,18,V,R,
598,94,10,14,4,47,33,548,['c'],1,left,['8'],4,253,[0.04001047],97,47,medium,plus,dotcolour,beta,,,22,18,V,R,
599,95,11,14,4,44,36,549,['n'],0,left,['1'],1,765,[0.05872372],48,44,hard,plus,dotcolour,beta,,,22,18,V,R,
600,96,12,14,4,44,36,633,['c'],1,left,['9'],5,174,[0.06500923],99,44,hard,plus,dotcolour,beta,,,22,18,V,R,
601,97,13,14,4,47,33,431,['c'],1,left,['9'],5,207,[0.13381806],100,47,medium,plus,dotcolour,beta,,,22,18,V,R,
602,98,14,14,4,53,27,415,['c'],1,left,['0'],6,151,[0.09122653],100,53,easy,plus,dotcolour,beta,,,22,18,V,R,
603,99,15,14,4,44,36,565,['c'],1,left,['0'],6,108,[0.04612983],100,44,hard,plus,dotcolour,beta,,,22,18,V,R,
604,100,16,14,4,53,27,549,['c'],1,left,['0'],6,122,[0.11188192],100,53,easy,plus,dotcolour,beta,,,22,18,V,R,
605,101,17,14,4,47,33,449,['c'],1,left,['9'],5,165,[0.02348663],97,47,medium,plus,dotcolour,beta,,,22,18,V,R,
606,102,18,14,4,53,27,414,['c'],1,left,['0'],6,263,[0.13994661],100,53,easy,plus,dotcolour,beta,,,22,18,V,R,
607,103,19,14,4,27,53,565,['n'],1,right,['1'],1,655,[-0.12750467],98,53,easy,plus,dotcolour,beta,,,22,18,V,R,
608,104,20,14,4,53,27,965,['c'],1,left,['9'],5,111,[0.06786252],100,53,easy,plus,dotcolour,beta,,,22,18,V,R,
609,105,21,14,4,27,53,650,['n'],1,right,['9'],5,234,[-0.08933495],100,53,easy,plus,dotcolour,beta,,,22,18,V,R,
610,106,22,14,4,36,44,514,['n'],1,right,['0'],6,93,[-0.09623969],100,44,hard,plus,dotcolour,beta,,,22,18,V,R,
611,107,23,14,4,44,36,1283,['c'],1,left,['9'],5,119,[0.11152446],100,44,hard,plus,dotcolour,beta,,,22,18,V,R,
612,108,24,14,4,47,33,416,['c'],1,left,['0'],6,123,[0.06233643],100,47,medium,plus,dotcolour,beta,,,22,18,V,R,
613,109,25,14,4,53,27,614,['c'],1,left,['0'],6,702,[0.18636324],99,53,easy,plus,dotcolour,beta,,,22,18,V,R,
614,110,26,14,4,27,53,848,['n'],1,right,['0'],6,234,[-0.11987891],100,53,easy,plus,dotcolour,beta,,,22,18,V,R,
615,111,27,14,4,53,27,1232,['c'],1,left,['9'],5,160,[0.1076906],100,53,easy,plus,dotcolour,beta,,,22,18,V,R,
616,112,28,14,4,44,36,897,['c'],1,left,['9'],5,103,[0.12118761],100,44,hard,plus,dotcolour,beta,,,22,18,V,R,
617,113,29,14,4,36,44,765,['c'],0,right,['0'],6,182,[0.0199291],96,44,hard,plus,dotcolour,beta,,,22,18,V,R,
618,114,30,14,4,33,47,747,['c'],0,right,['9'],5,146,[0.14330975],100,47,medium,plus,dotcolour,beta,,,22,18,V,R,
619,115,31,14,4,47,33,547,['c'],1,left,['9'],5,111,[0.0766413],100,47,medium,plus,dotcolour,beta,,,22,18,V,R,
620,116,32,14,4,27,53,864,['n'],1,right,['9'],5,1513,[-0.39486392],100,53,easy,plus,dotcolour,beta,,,22,18,V,R,
621,117,33,14,4,27,53,582,['n'],1,right,['9'],5,167,[-0.09920788],100,53,easy,plus,dotcolour,beta,,,22,18,V,R,
622,118,34,14,4,44,36,1066,['c'],1,left,['9'],5,166,[0.06294657],99,44,hard,plus,dotcolour,beta,,,22,18,V,R,
623,119,35,14,4,53,27,565,['c'],1,left,['9'],5,130,[0.04494018],99,53,easy,plus,dotcolour,beta,,,22,18,V,R,
624,120,36,14,4,33,47,547,['c'],0,right,['0'],6,120,[0.17253939],100,47,medium,plus,dotcolour,beta,,,22,18,V,R,
625,121,37,14,4,33,47,432,['n'],1,right,['9'],5,331,[-0.163498],100,47,medium,plus,dotcolour,beta,,,22,18,V,R,
626,122,38,14,4,36,44,415,['n'],1,right,['0'],6,255,[-0.10545466],100,44,hard,plus,dotcolour,beta,,,22,18,V,R,
627,123,39,14,4,44,36,45,['c'],1,left,['9'],5,78,[0.08303621],100,44,hard,plus,dotcolour,beta,,,22,18,V,R,
628,124,40,14,4,47,33,58,['c'],1,left,['0'],6,156,[0.11594263],100,47,medium,plus,dotcolour,beta,,,22,18,V,R,
629,125,41,14,4,36,44,616,['c'],0,right,['1'],1,614,[0.000524],78,44,hard,plus,dotcolour,beta,,,22,18,V,R,
630,0,0,15,5,33,47,716,['c'],0,right,['0'],6,145,[0.10793634],92,47,medium,minus,dotcolour,beta,,,22,18,V,R,
631,1,1,15,5,44,36,699,['c'],1,left,['0'],6,137,[0.01683964],13,44,hard,minus,dotcolour,beta,,,22,18,V,R,
632,2,2,15,5,47,33,516,['c'],1,left,['9'],5,184,[0.09953258],86,47,medium,minus,dotcolour,beta,,,22,18,V,R,
633,3,3,15,5,27,53,598,['n'],1,right,['9'],5,314,[-0.10960108],85,53,easy,minus,dotcolour,beta,,,22,18,V,R,
634,4,4,15,5,36,44,983,['n'],1,right,['9'],5,383,[-0.10305257],80,44,hard,minus,dotcolour,beta,,,22,18,V,R,
635,5,5,15,5,47,33,1015,['c'],1,left,['0'],6,417,[0.22725286],99,47,medium,minus,dotcolour,beta,,,22,18,V,R,
636,6,6,15,5,44,36,1547,['c'],1,left,['9'],5,91,[0.07536173],77,44,hard,minus,dotcolour,beta,,,22,18,V,R,
637,7,7,15,5,36,44,732,['n'],1,right,['0'],6,508,[-0.07968307],65,44,hard,minus,dotcolour,beta,,,22,18,V,R,
638,8,8,15,5,53,27,1065,['c'],1,left,['9'],5,214,[0.18052888],99,53,easy,minus,dotcolour,beta,,,22,18,V,R,
639,9,9,15,5,47,33,481,['c'],1,left,['1'],1,692,[0.11670371],79,47,medium,minus,dotcolour,beta,,,22,18,V,R,
640,10,10,15,5,44,36,1698,['c'],1,left,['3'],3,621,[0.10211787],74,44,hard,minus,dotcolour,beta,,,22,18,V,R,
641,11,11,15,5,27,53,833,['n'],1,right,['9'],5,411,[-0.06147791],54,53,easy,minus,dotcolour,beta,,,22,18,V,R,
642,12,12,15,5,36,44,665,['n'],1,right,['9'],5,361,[-0.18038661],98,44,hard,minus,dotcolour,beta,,,22,18,V,R,
643,13,13,15,5,33,47,782,['c'],0,right,['9'],5,268,[0.08600348],74,47,medium,minus,dotcolour,beta,,,22,18,V,R,
644,14,14,15,5,47,33,964,['c'],1,left,['0'],6,229,[0.10362764],86,47,medium,minus,dotcolour,beta,,,22,18,V,R,
645,15,15,15,5,47,33,615,['c'],1,left,['0'],6,204,[0.1646383],99,47,medium,minus,dotcolour,beta,,,22,18,V,R,
646,16,16,15,5,44,36,564,['c'],1,left,['0'],6,214,[0.10778903],88,44,hard,minus,dotcolour,beta,,,22,18,V,R,
647,17,17,15,5,33,47,714,['n'],1,right,['9'],5,282,[-0.06024609],54,47,medium,minus,dotcolour,beta,,,22,18,V,R,
648,18,18,15,5,53,27,666,['c'],1,left,['0'],6,238,[0.17707751],99,53,easy,minus,dotcolour,beta,,,22,18,V,R,
649,19,19,15,5,36,44,715,['c'],0,right,['0'],6,201,[0.06185342],56,44,hard,minus,dotcolour,beta,,,22,18,V,R,
650,20,20,15,5,27,53,565,['n'],1,right,['9'],5,291,[-0.20172384],99,53,easy,minus,dotcolour,beta,,,22,18,V,R,
651,21,21,15,5,33,47,848,['c'],0,right,['9'],5,318,[0.07401573],64,47,medium,minus,dotcolour,beta,,,22,18,V,R,
652,22,22,15,5,36,44,1017,['c'],0,right,['9'],5,258,[0.11862867],90,44,hard,minus,dotcolour,beta,,,22,18,V,R,
653,23,23,15,5,36,44,816,['c'],0,right,['0'],6,241,[0.06682673],60,44,hard,minus,dotcolour,beta,,,22,18,V,R,
654,24,24,15,5,53,27,1113,['c'],1,left,['0'],6,203,[0.11379426],91,53,easy,minus,dotcolour,beta,,,22,18,V,R,
655,25,25,15,5,27,53,682,['n'],1,right,['9'],5,264,[-0.10005564],83,53,easy,minus,dotcolour,beta,,,22,18,V,R,
656,26,26,15,5,47,33,699,['c'],1,left,['0'],6,219,[0.12921485],94,47,medium,minus,dotcolour,beta,,,22,18,V,R,
657,27,27,15,5,44,36,765,['c'],1,left,['1'],1,893,[0.21164453],95,44,hard,minus,dotcolour,beta,,,22,18,V,R,
658,28,28,15,5,53,27,966,['c'],1,left,['0'],6,244,[0.15937871],98,53,easy,minus,dotcolour,beta,,,22,18,V,R,
659,29,29,15,5,47,33,616,['c'],1,left,['0'],6,226,[0.09131471],79,47,medium,minus,dotcolour,beta,,,22,18,V,R,
660,30,30,15,5,53,27,567,['c'],1,left,['0'],6,292,[0.02721988],28,53,easy,minus,dotcolour,beta,,,22,18,V,R,
661,31,31,15,5,33,47,616,['n'],1,right,['9'],5,280,[-0.05299989],48,47,medium,minus,dotcolour,beta,,,22,18,V,R,
662,32,32,15,5,44,36,716,['c'],1,left,['9'],5,378,[0.15788593],95,44,hard,minus,dotcolour,beta,,,22,18,V,R,
663,33,33,15,5,33,47,916,['c'],0,right,['9'],5,247,[0.03132009],29,47,medium,minus,dotcolour,beta,,,22,18,V,R,
664,34,34,15,5,27,53,464,['n'],1,right,['9'],5,99,[-0.06743596],66,53,easy,minus,dotcolour,beta,,,22,18,V,R,
665,35,35,15,5,53,27,631,['c'],1,left,['9'],5,336,[0.23749032],100,53,easy,minus,dotcolour,beta,,,22,18,V,R,
666,36,36,15,5,44,36,516,['c'],1,left,['8'],4,247,[0.1092395],87,44,hard,minus,dotcolour,beta,,,22,18,V,R,
667,37,37,15,5,27,53,665,['c'],0,right,['8'],4,188,[0.07414737],68,53,easy,minus,dotcolour,beta,,,22,18,V,R,
668,38,38,15,5,33,47,999,['c'],0,right,['9'],5,253,[0.09127741],78,47,medium,minus,dotcolour,beta,,,22,18,V,R,
669,39,39,15,5,36,44,732,['c'],0,right,['0'],6,271,[0.09354583],79,44,hard,minus,dotcolour,beta,,,22,18,V,R,
670,40,40,15,5,53,27,648,['c'],1,left,['0'],6,371,[0.02123146],27,53,easy,minus,dotcolour,beta,,,22,18,V,R,
671,41,41,15,5,27,53,566,['n'],1,right,['0'],6,111,[-0.16574712],100,53,easy,minus,dotcolour,beta,,,22,18,V,R,
672,42,0,16,5,47,33,1366,['c'],1,left,['0'],6,205,[0.11392798],91,47,medium,minus,dotcolour,beta,,,22,18,V,R,
673,43,1,16,5,33,47,633,['n'],1,right,['0'],6,260,[-0.04475045],41,47,medium,minus,dotcolour,beta,,,22,18,V,R,
674,44,2,16,5,44,36,715,['c'],1,left,['0'],6,335,[0.09489926],77,44,hard,minus,dotcolour,beta,,,22,18,V,R,
675,45,3,16,5,44,36,617,['c'],1,left,['9'],5,250,[0.08191111],72,44,hard,minus,dotcolour,beta,,,22,18,V,R,
676,46,4,16,5,53,27,349,['c'],1,left,['0'],6,235,[0.14326527],96,53,easy,minus,dotcolour,beta,,,22,18,V,R,
677,47,5,16,5,33,47,350,['c'],0,right,['9'],5,333,[0.0343852],34,47,medium,minus,dotcolour,beta,,,22,18,V,R,
678,48,6,16,5,47,33,683,['c'],1,left,['0'],6,269,[0.16988462],98,47,medium,minus,dotcolour,beta,,,22,18,V,R,
679,49,7,16,5,36,44,432,['n'],1,right,['0'],6,322,[0.04751522],4,44,hard,minus,dotcolour,beta,,,22,18,V,R,
680,50,8,16,5,53,27,763,['c'],1,left,['9'],5,200,[0.20132279],100,53,easy,minus,dotcolour,beta,,,22,18,V,R,
681,51,9,16,5,27,53,597,['c'],0,right,['1'],1,641,[-0.06657659],6,53,easy,minus,dotcolour,beta,,,22,18,V,R,
682,52,10,16,5,33,47,600,['n'],1,right,['9'],5,408,[0.02804947],9,47,medium,minus,dotcolour,beta,,,22,18,V,R,
683,53,11,16,5,47,33,682,['c'],1,left,['9'],5,261,[0.05861097],53,47,medium,minus,dotcolour,beta,,,22,18,V,R,
684,54,12,16,5,33,47,382,['n'],1,right,['9'],5,261,[-0.13406464],94,47,medium,minus,dotcolour,beta,,,22,18,V,R,
685,55,13,16,5,47,33,599,['c'],1,left,['9'],5,235,[0.02923254],27,47,medium,minus,dotcolour,beta,,,22,18,V,R,
686,56,14,16,5,33,47,716,['n'],1,right,['8'],4,487,[-0.25227242],99,47,medium,minus,dotcolour,beta,,,22,18,V,R,
687,57,15,16,5,36,44,699,['n'],1,right,['8'],4,312,[-0.09335017],77,44,hard,minus,dotcolour,beta,,,22,18,V,R,
688,58,16,16,5,53,27,583,['c'],1,left,['0'],6,269,[0.06625563],59,53,easy,minus,dotcolour,beta,,,22,18,V,R,
689,59,17,16,5,53,27,1731,['c'],1,left,['0'],6,271,[0.05357256],48,53,easy,minus,dotcolour,beta,,,22,18,V,R,
690,60,18,16,5,53,27,731,['c'],1,left,['9'],5,256,[0.09724356],82,53,easy,minus,dotcolour,beta,,,22,18,V,R,
691,61,19,16,5,47,33,665,['c'],1,left,['9'],5,211,[0.13931098],96,47,medium,minus,dotcolour,beta,,,22,18,V,R,
692,62,20,16,5,27,53,498,['n'],1,right,['8'],4,288,[-0.09639032],80,53,easy,minus,dotcolour,beta,,,22,18,V,R,
693,63,21,16,5,44,36,749,['c'],1,left,['0'],6,224,[0.11304437],90,44,hard,minus,dotcolour,beta,,,22,18,V,R,
694,64,22,16,5,47,33,682,['n'],0,left,['9'],5,300,[-0.03475667],34,47,medium,minus,dotcolour,beta,,,22,18,V,R,
695,65,23,16,5,27,53,882,['n'],1,right,['8'],4,319,[-0.2238627],100,53,easy,minus,dotcolour,beta,,,22,18,V,R,
696,66,24,16,5,36,44,597,['n'],1,right,['0'],6,355,[-0.04235117],40,44,hard,minus,dotcolour,beta,,,22,18,V,R,
697,67,25,16,5,36,44,682,['n'],1,right,['8'],4,355,[-0.01928262],25,44,hard,minus,dotcolour,beta,,,22,18,V,R,
698,68,26,16,5,36,44,696,['c'],0,right,['9'],5,217,[0.03315587],30,44,hard,minus,dotcolour,beta,,,22,18,V,R,
699,69,27,16,5,44,36,747,['c'],1,left,['9'],5,268,[0.04486693],41,44,hard,minus,dotcolour,beta,,,22,18,V,R,
700,70,28,16,5,27,53,2500,['n'],1,right,['8'],4,911,[-0.02163275],35,53,easy,minus,dotcolour,beta,,,22,18,V,R,
701,71,29,16,5,27,53,549,['n'],1,right,['9'],5,277,[-0.10355192],84,53,easy,minus,dotcolour,beta,,,22,18,V,R,
702,72,30,16,5,53,27,599,['c'],1,left,['0'],6,275,[0.19679447],99,53,easy,minus,dotcolour,beta,,,22,18,V,R,
703,73,31,16,5,33,47,766,['n'],1,right,['0'],6,283,[-0.14331695],95,47,medium,minus,dotcolour,beta,,,22,18,V,R,
704,74,32,16,5,33,47,916,['n'],1,right,['0'],6,204,[-0.17133529],99,47,medium,minus,dotcolour,beta,,,22,18,V,R,
705,75,33,16,5,27,53,997,['n'],1,right,['9'],5,428,[-0.13196794],89,53,easy,minus,dotcolour,beta,,,22,18,V,R,
706,76,34,16,5,36,44,531,['n'],1,right,['9'],5,71,[-0.08481859],88,44,hard,minus,dotcolour,beta,,,22,18,V,R,
707,77,35,16,5,47,33,648,['c'],1,left,['9'],5,284,[0.04876624],44,47,medium,minus,dotcolour,beta,,,22,18,V,R,
708,78,36,16,5,44,36,682,['c'],1,left,['9'],5,222,[0.11887895],92,44,hard,minus,dotcolour,beta,,,22,18,V,R,
709,79,37,16,5,44,36,583,['c'],1,left,['0'],6,223,[0.05406777],49,44,hard,minus,dotcolour,beta,,,22,18,V,R,
710,80,38,16,5,27,53,698,['n'],1,right,['9'],5,267,[-0.04240645],39,53,easy,minus,dotcolour,beta,,,22,18,V,R,
711,81,39,16,5,53,27,916,['c'],1,left,['0'],6,221,[0.1574108],98,53,easy,minus,dotcolour,beta,,,22,18,V,R,
712,82,40,16,5,44,36,1050,['n'],0,left,['9'],5,428,[0.0800429],2,44,hard,minus,dotcolour,beta,,,22,18,V,R,
713,83,41,16,5,36,44,715,['n'],1,right,['8'],4,264,[-0.04355635],40,44,hard,minus,dotcolour,beta,,,22,18,V,R,
714,84,0,17,5,36,44,683,['n'],1,right,['9'],5,250,[-0.13836991],95,44,hard,minus,dotcolour,beta,,,22,18,V,R,
715,85,1,17,5,33,47,515,['n'],1,right,['9'],5,180,[-0.16440417],99,47,medium,minus,dotcolour,beta,,,22,18,V,R,
716,86,2,17,5,47,33,782,['c'],1,left,['9'],5,183,[0.08064711],74,47,medium,minus,dotcolour,beta,,,22,18,V,R,
717,87,3,17,5,47,33,598,['c'],1,left,['9'],5,145,[0.10775252],92,47,medium,minus,dotcolour,beta,,,22,18,V,R,
718,88,4,17,5,44,36,415,['c'],1,left,['8'],4,123,[0.05327718],47,44,hard,minus,dotcolour,beta,,,22,18,V,R,
719,89,5,17,5,44,36,283,['n'],0,left,['0'],6,276,[-0.02306933],25,44,hard,minus,dotcolour,beta,,,22,18,V,R,
720,90,6,17,5,53,27,448,['c'],1,left,['8'],4,216,[0.1506386],98,53,easy,minus,dotcolour,beta,,,22,18,V,R,
721,91,7,17,5,47,33,698,['n'],0,left,['8'],4,301,[-0.03815421],36,47,medium,minus,dotcolour,beta,,,22,18,V,R,
722,92,8,17,5,44,36,433,['c'],1,left,['8'],4,176,[0.10424466],89,44,hard,minus,dotcolour,beta,,,22,18,V,R,
723,93,9,17,5,36,44,716,['c'],0,right,['9'],5,165,[0.07571119],71,44,hard,minus,dotcolour,beta,,,22,18,V,R,
724,94,10,17,5,53,27,516,['c'],1,left,['9'],5,324,[0.11012717],85,53,easy,minus,dotcolour,beta,,,22,18,V,R,
725,95,11,17,5,33,47,815,['c'],0,right,['0'],6,255,[0.02746372],27,47,medium,minus,dotcolour,beta,,,22,18,V,R,
726,96,12,17,5,27,53,533,['n'],1,right,['0'],6,265,[-0.10272328],84,53,easy,minus,dotcolour,beta,,,22,18,V,R,
727,97,13,17,5,33,47,831,['n'],1,right,['0'],6,342,[-0.07028973],61,47,medium,minus,dotcolour,beta,,,22,18,V,R,
728,98,14,17,5,44,36,617,['c'],1,left,['0'],6,249,[0.03815749],35,44,hard,minus,dotcolour,beta,,,22,18,V,R,
729,99,15,17,5,53,27,348,['n'],0,left,['9'],5,306,[-0.04567402],42,53,easy,minus,dotcolour,beta,,,22,18,V,R,
730,100,16,17,5,33,47,1232,['n'],1,right,['9'],5,365,[-0.07795961],66,47,medium,minus,dotcolour,beta,,,22,18,V,R,
731,101,17,17,5,27,53,699,['n'],1,right,['9'],5,228,[-0.09169881],80,53,easy,minus,dotcolour,beta,,,22,18,V,R,
732,102,18,17,5,47,33,931,['c'],1,left,['8'],4,415,[0.04391946],42,47,medium,minus,dotcolour,beta,,,22,18,V,R,
733,103,19,17,5,47,33,816,['c'],1,left,['2'],2,343,[0.03328849],34,47,medium,minus,dotcolour,beta,,,22,18,V,R,
734,104,20,17,5,36,44,950,['c'],0,right,['9'],5,404,[0.12075925],86,44,hard,minus,dotcolour,beta,,,22,18,V,R,
735,105,21,17,5,27,53,782,['n'],1,right,['8'],4,550,[-0.1139095],80,53,easy,minus,dotcolour,beta,,,22,18,V,R,
736,106,22,17,5,33,47,948,['c'],0,right,['9'],5,282,[0.05272144],48,47,medium,minus,dotcolour,beta,,,22,18,V,R,
737,107,23,17,5,27,53,1432,['n'],1,right,['9'],5,287,[-0.23437955],100,53,easy,minus,dotcolour,beta,,,22,18,V,R,
738,108,24,17,5,44,36,632,['c'],1,left,['9'],5,211,[0.18132528],99,44,hard,minus,dotcolour,beta,,,22,18,V,R,
739,109,25,17,5,33,47,1115,['c'],0,right,['3'],3,495,[-0.06217696],5,47,medium,minus,dotcolour,beta,,,22,18,V,R,
740,110,26,17,5,33,47,965,['c'],0,right,['1'],1,366,[-0.02428242],9,47,medium,minus,dotcolour,beta,,,22,18,V,R,
741,111,27,17,5,53,27,648,['n'],0,left,['1'],1,670,[0.08343121],4,53,easy,minus,dotcolour,beta,,,22,18,V,R,
742,112,28,17,5,36,44,665,['c'],0,right,['9'],5,227,[0.03554702],32,44,hard,minus,dotcolour,beta,,,22,18,V,R,
743,113,29,17,5,44,36,1198,['c'],1,left,['9'],5,179,[0.13271813],96,44,hard,minus,dotcolour,beta,,,22,18,V,R,
744,114,30,17,5,47,33,565,['c'],1,left,['9'],5,182,[0.13210544],96,47,medium,minus,dotcolour,beta,,,22,18,V,R,
745,115,31,17,5,27,53,614,['n'],1,right,['0'],6,319,[-0.14834906],95,53,easy,minus,dotcolour,beta,,,22,18,V,R,
746,116,32,17,5,53,27,2063,['c'],1,left,['9'],5,409,[0.04672074],44,53,easy,minus,dotcolour,beta,,,22,18,V,R,
747,117,33,17,5,36,44,716,['c'],0,right,['0'],6,158,[0.03355623],27,44,hard,minus,dotcolour,beta,,,22,18,V,R,
748,118,34,17,5,36,44,599,['c'],0,right,['9'],5,216,[0.06303418],57,44,hard,minus,dotcolour,beta,,,22,18,V,R,
749,119,35,17,5,47,33,517,['n'],0,left,['9'],5,484,[-0.0834512],67,47,medium,minus,dotcolour,beta,,,22,18,V,R,
750,120,36,17,5,27,53,831,['n'],1,right,['9'],5,216,[-0.11137187],90,53,easy,minus,dotcolour,beta,,,22,18,V,R,
751,121,37,17,5,36,44,600,['c'],0,right,['9'],5,201,[0.08089214],73,44,hard,minus,dotcolour,beta,,,22,18,V,R,
752,122,38,17,5,44,36,713,['n'],0,left,['9'],5,270,[-0.17138398],98,44,hard,minus,dotcolour,beta,,,22,18,V,R,
753,123,39,17,5,53,27,865,['c'],1,left,['8'],4,298,[0.17899053],98,53,easy,minus,dotcolour,beta,,,22,18,V,R,
754,124,40,17,5,53,27,665,['c'],1,left,['8'],4,477,[0.22902157],99,53,easy,minus,dotcolour,beta,,,22,18,V,R,
755,125,41,17,5,27,53,900,['n'],1,right,['0'],6,471,[-0.22142134],99,53,easy,minus,dotcolour,beta,,,22,18,V,R,
,,,,,,,,,,,,,,,,,,,,,1,   neen ,22,18,V,R,
,,,,,,,,,,,,,,,,,,,,,2,['g'],22,18,V,R,
,,,,,,,,,,,,,,,,,,,,,3,['f'],22,18,V,R,
,,,,,,,,,,,,,,,,,,,,,5,['5'],22,18,V,R,
