trial,withinphasetrial,withinblocktrial,block,phase,dotsLeft,dotsRight,rt,resp,cor,cresp,conf_press,cj,RTconf,ev,fb,diff,difflevel,condition,task,manip,questionID,questionResp,sub,age,gender,handedness,
0,0,0,0,0,36,44,934,['c'],0,right,['0'],6,875,[0.0583051],90,44,hard,plus,dotcolour,beta,,,42,18,V,R,
1,1,1,0,0,36,44,667,['n'],1,right,['2'],2,622,[-0.06630512],94,44,hard,plus,dotcolour,beta,,,42,18,V,R,
2,2,2,0,0,47,33,2049,['c'],1,left,['0'],6,772,[0.18768457],99,47,medium,plus,dotcolour,beta,,,42,18,V,R,
3,3,3,0,0,27,53,1051,['n'],1,right,['0'],6,436,[-0.18225186],100,53,easy,plus,dotcolour,beta,,,42,18,V,R,
4,4,4,0,0,33,47,716,['c'],0,right,['2'],2,551,[0.07844053],96,47,medium,plus,dotcolour,beta,,,42,18,V,R,
5,5,5,0,0,27,53,800,['n'],1,right,['0'],6,459,[-0.08621045],98,53,easy,plus,dotcolour,beta,,,42,18,V,R,
6,6,6,0,0,27,53,533,['n'],1,right,['0'],6,452,[-0.10370286],99,53,easy,plus,dotcolour,beta,,,42,18,V,R,
7,7,7,0,0,33,47,600,['c'],0,right,['0'],6,539,[-0.09959264],25,47,medium,plus,dotcolour,beta,,,42,18,V,R,
8,8,8,0,0,36,44,683,['n'],1,right,['2'],2,339,[-0.09353029],99,44,hard,plus,dotcolour,beta,,,42,18,V,R,
9,9,9,0,0,27,53,1784,['n'],1,right,['0'],6,335,[-0.09883235],99,53,easy,plus,dotcolour,beta,,,42,18,V,R,
10,10,10,0,0,53,27,1101,['c'],1,left,['1'],1,479,[0.16052216],100,53,easy,plus,dotcolour,beta,,,42,18,V,R,
11,11,11,0,0,47,33,1134,['c'],1,left,['0'],6,432,[0.14157219],100,47,medium,plus,dotcolour,beta,,,42,18,V,R,
12,12,12,0,0,44,36,900,['n'],0,left,['2'],2,629,[0.07383493],40,44,hard,plus,dotcolour,beta,,,42,18,V,R,
13,13,13,0,0,47,33,850,['n'],0,left,['2'],2,387,[-0.06471452],97,47,medium,plus,dotcolour,beta,,,42,18,V,R,
14,14,14,0,0,27,53,733,['c'],0,right,['1'],1,351,[-0.02268071],73,53,easy,plus,dotcolour,beta,,,42,18,V,R,
15,15,15,0,0,44,36,700,['n'],0,left,['0'],6,334,[-0.0890037],99,44,hard,plus,dotcolour,beta,,,42,18,V,R,
16,16,16,0,0,53,27,800,['c'],1,left,['0'],6,682,[0.05588606],92,53,easy,plus,dotcolour,beta,,,42,18,V,R,
17,17,17,0,0,53,27,550,['n'],0,left,['2'],2,314,[-0.11395134],100,53,easy,plus,dotcolour,beta,,,42,18,V,R,
18,18,18,0,0,47,33,649,['n'],0,left,['0'],6,414,[-0.02518112],91,47,medium,plus,dotcolour,beta,,,42,18,V,R,
19,19,19,0,0,44,36,917,['n'],0,left,['2'],2,609,[-0.00375933],80,44,hard,plus,dotcolour,beta,,,42,18,V,R,
20,20,20,0,0,33,47,467,['n'],1,right,['0'],6,487,[-0.16119457],100,47,medium,plus,dotcolour,beta,,,42,18,V,R,
21,21,21,0,0,33,47,1017,['c'],0,right,['9'],5,332,[-0.0376032],64,47,medium,plus,dotcolour,beta,,,42,18,V,R,
22,22,22,0,0,36,44,850,['n'],1,right,['1'],1,438,[-0.17324283],100,44,hard,plus,dotcolour,beta,,,42,18,V,R,
23,23,23,0,0,44,36,616,['c'],1,left,['0'],6,348,[0.00762533],87,44,hard,plus,dotcolour,beta,,,42,18,V,R,
24,24,24,0,0,27,53,1450,['c'],0,right,['1'],1,678,[-0.01878457],69,53,easy,plus,dotcolour,beta,,,42,18,V,R,
25,25,25,0,0,53,27,550,['n'],0,left,['0'],6,374,[0.07206884],38,53,easy,plus,dotcolour,beta,,,42,18,V,R,
26,26,26,0,0,47,33,767,['c'],1,left,['0'],6,337,[0.18078327],100,47,medium,plus,dotcolour,beta,,,42,18,V,R,
27,27,27,0,0,44,36,750,['c'],1,left,['0'],6,288,[0.17587978],100,44,hard,plus,dotcolour,beta,,,42,18,V,R,
28,28,28,0,0,44,36,866,['c'],1,left,['0'],6,338,[-0.01634137],77,44,hard,plus,dotcolour,beta,,,42,18,V,R,
29,29,29,0,0,33,47,1117,['c'],0,right,['9'],5,841,[0.06684132],92,47,medium,plus,dotcolour,beta,,,42,18,V,R,
30,30,30,0,0,44,36,850,['n'],0,left,['9'],5,335,[-0.05232423],97,44,hard,plus,dotcolour,beta,,,42,18,V,R,
31,31,31,0,0,36,44,583,['n'],1,right,['1'],1,340,[0.00847884],81,44,hard,plus,dotcolour,beta,,,42,18,V,R,
32,32,32,0,0,47,33,633,['n'],0,left,['1'],1,357,[-0.06032085],97,47,medium,plus,dotcolour,beta,,,42,18,V,R,
33,33,33,0,0,36,44,350,['n'],1,right,['9'],5,674,[0.04458434],56,44,hard,plus,dotcolour,beta,,,42,18,V,R,
34,34,34,0,0,33,47,816,['n'],1,right,['0'],6,408,[-0.04566416],95,47,medium,plus,dotcolour,beta,,,42,18,V,R,
35,35,35,0,0,53,27,700,['c'],1,left,['1'],1,348,[0.11296472],99,53,easy,plus,dotcolour,beta,,,42,18,V,R,
36,36,36,0,0,53,27,649,['c'],1,left,['0'],6,325,[0.06949425],98,53,easy,plus,dotcolour,beta,,,42,18,V,R,
37,37,37,0,0,36,44,332,['n'],1,right,['2'],2,364,[-0.08315917],98,44,hard,plus,dotcolour,beta,,,42,18,V,R,
38,38,38,0,0,47,33,400,['n'],0,left,['0'],6,359,[0.08228591],31,47,medium,plus,dotcolour,beta,,,42,18,V,R,
39,39,39,0,0,33,47,383,['c'],0,right,['1'],1,346,[0.04285644],95,47,medium,plus,dotcolour,beta,,,42,18,V,R,
40,40,40,0,0,27,53,383,['n'],1,right,['2'],2,334,[-0.07505737],98,53,easy,plus,dotcolour,beta,,,42,18,V,R,
41,41,41,0,0,53,27,767,['n'],0,left,['0'],6,571,[0.12314025],17,53,easy,plus,dotcolour,beta,,,42,18,V,R,
42,42,0,1,0,36,44,750,['c'],0,right,['0'],6,385,[-0.01718261],75,44,hard,plus,dotcolour,beta,,,42,18,V,R,
43,43,1,1,0,33,47,433,['c'],0,right,['0'],6,289,[-0.07522192],34,47,medium,plus,dotcolour,beta,,,42,18,V,R,
44,44,2,1,0,47,33,1184,['c'],1,left,['9'],5,360,[0.04031145],95,47,medium,plus,dotcolour,beta,,,42,18,V,R,
45,45,3,1,0,27,53,785,['c'],0,right,['8'],4,435,[-0.03754868],62,53,easy,plus,dotcolour,beta,,,42,18,V,R,
46,46,4,1,0,33,47,533,['c'],0,right,['3'],3,726,[0.14506451],99,47,medium,plus,dotcolour,beta,,,42,18,V,R,
47,47,5,1,0,44,36,400,['n'],0,left,['0'],6,370,[-0.0158928],89,44,hard,plus,dotcolour,beta,,,42,18,V,R,
48,48,6,1,0,47,33,784,['n'],0,left,['0'],6,373,[0.02851399],69,47,medium,plus,dotcolour,beta,,,42,18,V,R,
49,49,7,1,0,47,33,566,['c'],1,left,['8'],4,512,[0.13167843],99,47,medium,plus,dotcolour,beta,,,42,18,V,R,
50,50,8,1,0,27,53,700,['n'],1,right,['8'],4,1017,[-0.00503731],75,53,easy,plus,dotcolour,beta,,,42,18,V,R,
51,51,9,1,0,33,47,983,['n'],1,right,['0'],6,482,[-0.27668255],100,47,medium,plus,dotcolour,beta,,,42,18,V,R,
52,52,10,1,0,36,44,1101,['n'],1,right,['0'],6,596,[-0.19194524],100,44,hard,plus,dotcolour,beta,,,42,18,V,R,
53,53,11,1,0,33,47,616,['n'],1,right,['0'],6,324,[-0.12017228],100,47,medium,plus,dotcolour,beta,,,42,18,V,R,
54,54,12,1,0,44,36,1284,['n'],0,left,['0'],6,693,[0.05927632],48,44,hard,plus,dotcolour,beta,,,42,18,V,R,
55,55,13,1,0,53,27,1100,['c'],1,left,['3'],3,678,[0.12045627],98,53,easy,plus,dotcolour,beta,,,42,18,V,R,
56,56,14,1,0,36,44,734,['n'],1,right,['0'],6,399,[-0.07606489],98,44,hard,plus,dotcolour,beta,,,42,18,V,R,
57,57,15,1,0,27,53,784,['n'],1,right,['0'],6,337,[0.01232762],79,53,easy,plus,dotcolour,beta,,,42,18,V,R,
58,58,16,1,0,33,47,400,['c'],0,right,['9'],5,549,[-0.19935519],3,47,medium,plus,dotcolour,beta,,,42,18,V,R,
59,59,17,1,0,53,27,933,['c'],1,left,['9'],5,531,[0.0671816],95,53,easy,plus,dotcolour,beta,,,42,18,V,R,
60,60,18,1,0,36,44,850,['n'],1,right,['0'],6,389,[-0.1186081],99,44,hard,plus,dotcolour,beta,,,42,18,V,R,
61,61,19,1,0,53,27,751,['c'],1,left,['9'],5,344,[0.09792254],99,53,easy,plus,dotcolour,beta,,,42,18,V,R,
62,62,20,1,0,53,27,733,['c'],1,left,['0'],6,367,[0.14197076],100,53,easy,plus,dotcolour,beta,,,42,18,V,R,
63,63,21,1,0,33,47,666,['c'],0,right,['0'],6,391,[0.07785208],98,47,medium,plus,dotcolour,beta,,,42,18,V,R,
64,64,22,1,0,44,36,633,['c'],1,left,['0'],6,406,[0.22614257],100,44,hard,plus,dotcolour,beta,,,42,18,V,R,
65,65,23,1,0,47,33,483,['c'],1,left,['0'],6,372,[0.1286094],100,47,medium,plus,dotcolour,beta,,,42,18,V,R,
66,66,24,1,0,47,33,534,['c'],1,left,['0'],6,328,[0.1090252],99,47,medium,plus,dotcolour,beta,,,42,18,V,R,
67,67,25,1,0,27,53,583,['c'],0,right,['0'],6,381,[0.01129034],88,53,easy,plus,dotcolour,beta,,,42,18,V,R,
68,68,26,1,0,44,36,567,['c'],1,left,['3'],3,1392,[0.0218818],77,44,hard,plus,dotcolour,beta,,,42,18,V,R,
69,69,27,1,0,27,53,766,['n'],1,right,['3'],3,283,[-0.05085377],97,53,easy,plus,dotcolour,beta,,,42,18,V,R,
70,70,28,1,0,53,27,534,['n'],0,left,['0'],6,436,[0.07371928],38,53,easy,plus,dotcolour,beta,,,42,18,V,R,
71,71,29,1,0,53,27,501,['c'],1,left,['0'],6,344,[0.06965001],98,53,easy,plus,dotcolour,beta,,,42,18,V,R,
72,72,30,1,0,53,27,450,['c'],1,left,['0'],6,322,[0.12687605],100,53,easy,plus,dotcolour,beta,,,42,18,V,R,
73,73,31,1,0,44,36,466,['c'],1,left,['0'],6,339,[0.10809575],99,44,hard,plus,dotcolour,beta,,,42,18,V,R,
74,74,32,1,0,44,36,566,['c'],1,left,['0'],6,327,[0.11007222],99,44,hard,plus,dotcolour,beta,,,42,18,V,R,
75,75,33,1,0,36,44,400,['c'],0,right,['0'],6,379,[0.09211684],99,44,hard,plus,dotcolour,beta,,,42,18,V,R,
76,76,34,1,0,36,44,650,['n'],1,right,['0'],6,388,[-0.00910402],87,44,hard,plus,dotcolour,beta,,,42,18,V,R,
77,77,35,1,0,27,53,600,['n'],1,right,['0'],6,349,[-0.10350521],99,53,easy,plus,dotcolour,beta,,,42,18,V,R,
78,78,36,1,0,27,53,1050,['c'],0,right,['0'],6,382,[0.05524103],96,53,easy,plus,dotcolour,beta,,,42,18,V,R,
79,79,37,1,0,44,36,883,['c'],1,left,['0'],6,349,[0.06048566],97,44,hard,plus,dotcolour,beta,,,42,18,V,R,
80,80,38,1,0,47,33,818,['c'],1,left,['0'],6,351,[0.09462526],99,47,medium,plus,dotcolour,beta,,,42,18,V,R,
81,81,39,1,0,47,33,550,['c'],1,left,['0'],6,293,[0.11996466],100,47,medium,plus,dotcolour,beta,,,42,18,V,R,
82,82,40,1,0,36,44,467,['c'],0,right,['0'],6,384,[0.06142262],97,44,hard,plus,dotcolour,beta,,,42,18,V,R,
83,83,41,1,0,33,47,435,['c'],0,right,['0'],6,320,[0.05797634],97,47,medium,plus,dotcolour,beta,,,42,18,V,R,
84,84,0,2,0,53,27,1266,['c'],1,left,['0'],6,299,[0.06267936],98,53,easy,plus,dotcolour,beta,,,42,18,V,R,
85,85,1,2,0,36,44,700,['c'],0,right,['0'],6,357,[0.08564351],99,44,hard,plus,dotcolour,beta,,,42,18,V,R,
86,86,2,2,0,33,47,400,['c'],0,right,['0'],6,391,[-0.18027845],3,47,medium,plus,dotcolour,beta,,,42,18,V,R,
87,87,3,2,0,47,33,417,['n'],0,left,['2'],2,216,[-0.09351091],100,47,medium,plus,dotcolour,beta,,,42,18,V,R,
88,88,4,2,0,44,36,367,['n'],0,left,['2'],2,225,[-0.00462321],91,44,hard,plus,dotcolour,beta,,,42,18,V,R,
89,89,5,2,0,27,53,195,['c'],0,right,['9'],5,274,[-0.06199102],44,53,easy,plus,dotcolour,beta,,,42,18,V,R,
90,90,6,2,0,36,44,333,['n'],1,right,['2'],2,115,[-0.07574552],100,44,hard,plus,dotcolour,beta,,,42,18,V,R,
91,91,7,2,0,33,47,367,['n'],1,right,['2'],2,249,[-0.11945287],100,47,medium,plus,dotcolour,beta,,,42,18,V,R,
92,92,8,2,0,27,53,416,['n'],1,right,['8'],4,1023,[-0.07976787],92,53,easy,plus,dotcolour,beta,,,42,18,V,R,
93,93,9,2,0,47,33,400,['n'],0,left,['2'],2,135,[-0.04871614],99,47,medium,plus,dotcolour,beta,,,42,18,V,R,
94,94,10,2,0,36,44,617,['n'],1,right,['2'],2,107,[-0.12514457],100,44,hard,plus,dotcolour,beta,,,42,18,V,R,
95,95,11,2,0,36,44,384,['n'],1,right,['9'],5,361,[-0.09065252],99,44,hard,plus,dotcolour,beta,,,42,18,V,R,
96,96,12,2,0,53,27,834,['n'],0,left,['0'],6,441,[0.04767751],55,53,easy,plus,dotcolour,beta,,,42,18,V,R,
97,97,13,2,0,33,47,1033,['n'],1,right,['3'],3,1119,[-0.33014223],100,47,medium,plus,dotcolour,beta,,,42,18,V,R,
98,98,14,2,0,36,44,950,['n'],1,right,['0'],6,293,[-0.09567158],99,44,hard,plus,dotcolour,beta,,,42,18,V,R,
99,99,15,2,0,44,36,1250,['n'],0,left,['0'],6,945,[0.06368179],46,44,hard,plus,dotcolour,beta,,,42,18,V,R,
100,100,16,2,0,44,36,832,['n'],0,left,['0'],6,363,[-0.06224407],97,44,hard,plus,dotcolour,beta,,,42,18,V,R,
101,101,17,2,0,27,53,833,['n'],1,right,['0'],6,372,[-0.02676343],92,53,easy,plus,dotcolour,beta,,,42,18,V,R,
102,102,18,2,0,33,47,466,['n'],1,right,['0'],6,540,[-0.07464815],96,47,medium,plus,dotcolour,beta,,,42,18,V,R,
103,103,19,2,0,47,33,333,['c'],1,left,['9'],5,314,[0.06086908],98,47,medium,plus,dotcolour,beta,,,42,18,V,R,
104,104,20,2,0,27,53,650,['n'],1,right,['0'],6,300,[-0.08107725],99,53,easy,plus,dotcolour,beta,,,42,18,V,R,
105,105,21,2,0,47,33,516,['c'],1,left,['9'],5,317,[0.08316189],99,47,medium,plus,dotcolour,beta,,,42,18,V,R,
106,106,22,2,0,36,44,834,['n'],1,right,['0'],6,352,[0.02370614],72,44,hard,plus,dotcolour,beta,,,42,18,V,R,
107,107,23,2,0,44,36,717,['n'],0,left,['9'],5,471,[-0.01213621],86,44,hard,plus,dotcolour,beta,,,42,18,V,R,
108,108,24,2,0,44,36,383,['c'],1,left,['9'],5,470,[0.04957277],94,44,hard,plus,dotcolour,beta,,,42,18,V,R,
109,109,25,2,0,53,27,950,['c'],1,left,['9'],5,309,[0.05412457],97,53,easy,plus,dotcolour,beta,,,42,18,V,R,
110,110,26,2,0,53,27,400,['n'],0,left,['2'],2,1074,[0.01007321],69,53,easy,plus,dotcolour,beta,,,42,18,V,R,
111,111,27,2,0,53,27,465,['c'],1,left,['9'],5,294,[0.21056099],100,53,easy,plus,dotcolour,beta,,,42,18,V,R,
112,112,28,2,0,44,36,350,['c'],1,left,['9'],5,285,[0.05669302],98,44,hard,plus,dotcolour,beta,,,42,18,V,R,
113,113,29,2,0,47,33,566,['c'],1,left,['9'],5,484,[0.10915331],99,47,medium,plus,dotcolour,beta,,,42,18,V,R,
114,114,30,2,0,53,27,616,['c'],1,left,['9'],5,290,[0.16226364],100,53,easy,plus,dotcolour,beta,,,42,18,V,R,
115,115,31,2,0,53,27,583,['c'],1,left,['9'],5,344,[0.11486691],99,53,easy,plus,dotcolour,beta,,,42,18,V,R,
116,116,32,2,0,27,53,399,['c'],0,right,['9'],5,275,[0.08191018],99,53,easy,plus,dotcolour,beta,,,42,18,V,R,
117,117,33,2,0,33,47,284,['c'],0,right,['9'],5,301,[0.08604138],99,47,medium,plus,dotcolour,beta,,,42,18,V,R,
118,118,34,2,0,36,44,283,['n'],1,right,['9'],5,192,[-0.10494734],100,44,hard,plus,dotcolour,beta,,,42,18,V,R,
119,119,35,2,0,47,33,418,['n'],0,left,['9'],5,208,[-0.07529768],99,47,medium,plus,dotcolour,beta,,,42,18,V,R,
120,120,36,2,0,27,53,283,['c'],0,right,['9'],5,270,[-0.04115915],62,53,easy,plus,dotcolour,beta,,,42,18,V,R,
121,121,37,2,0,44,36,300,['n'],0,left,['9'],5,272,[-0.18756343],100,44,hard,plus,dotcolour,beta,,,42,18,V,R,
122,122,38,2,0,33,47,399,['n'],1,right,['9'],5,295,[-0.08546191],99,47,medium,plus,dotcolour,beta,,,42,18,V,R,
123,123,39,2,0,47,33,1433,['n'],0,left,['9'],5,338,[-0.03790952],95,47,medium,plus,dotcolour,beta,,,42,18,V,R,
124,124,40,2,0,33,47,350,['c'],0,right,['9'],5,224,[0.15140115],100,47,medium,plus,dotcolour,beta,,,42,18,V,R,
125,125,41,2,0,27,53,601,['c'],0,right,['9'],5,360,[-0.02893914],69,53,easy,plus,dotcolour,beta,,,42,18,V,R,
126,0,0,3,1,33,47,801,['n'],1,right,['9'],5,619,[-0.13840832],87,47,medium,minus,dotcolour,beta,,,42,18,V,R,
127,1,1,3,1,47,33,417,['c'],1,left,['9'],5,1291,[0.18716748],89,47,medium,minus,dotcolour,beta,,,42,18,V,R,
128,2,2,3,1,27,53,334,['c'],0,right,['8'],4,595,[0.10434774],76,53,easy,minus,dotcolour,beta,,,42,18,V,R,
129,3,3,3,1,33,47,383,['c'],0,right,['8'],4,724,[-0.13029897],2,47,medium,minus,dotcolour,beta,,,42,18,V,R,
130,4,4,3,1,27,53,316,['c'],0,right,['9'],5,372,[0.01844013],25,53,easy,minus,dotcolour,beta,,,42,18,V,R,
131,5,5,3,1,47,33,484,['n'],0,left,['9'],5,651,[0.10417541],3,47,medium,minus,dotcolour,beta,,,42,18,V,R,
132,6,6,3,1,33,47,434,['c'],0,right,['0'],6,497,[-0.02339946],12,47,medium,minus,dotcolour,beta,,,42,18,V,R,
133,7,7,3,1,33,47,967,['c'],0,right,['9'],5,503,[0.03950573],40,47,medium,minus,dotcolour,beta,,,42,18,V,R,
134,8,8,3,1,36,44,316,['c'],0,right,['0'],6,328,[-0.04928237],4,44,hard,minus,dotcolour,beta,,,42,18,V,R,
135,9,9,3,1,53,27,751,['c'],1,left,['9'],5,317,[0.17217517],98,53,easy,minus,dotcolour,beta,,,42,18,V,R,
136,10,10,3,1,27,53,187,['c'],0,right,['0'],6,243,[0.08074379],71,53,easy,minus,dotcolour,beta,,,42,18,V,R,
137,11,11,3,1,27,53,351,['n'],1,right,['9'],5,691,[-0.28371596],99,53,easy,minus,dotcolour,beta,,,42,18,V,R,
138,12,12,3,1,27,53,433,['c'],0,right,['9'],5,1400,[-0.22630765],1,53,easy,minus,dotcolour,beta,,,42,18,V,R,
139,13,13,3,1,27,53,1149,['n'],1,right,['9'],5,418,[-0.19092685],98,53,easy,minus,dotcolour,beta,,,42,18,V,R,
140,14,14,3,1,44,36,1617,['n'],0,left,['3'],3,563,[-0.07543513],62,44,hard,minus,dotcolour,beta,,,42,18,V,R,
141,15,15,3,1,33,47,198,['n'],1,right,['2'],2,301,[-0.15967071],97,47,medium,minus,dotcolour,beta,,,42,18,V,R,
142,16,16,3,1,33,47,317,['n'],1,right,['3'],3,182,[-0.12266475],94,47,medium,minus,dotcolour,beta,,,42,18,V,R,
143,17,17,3,1,53,27,550,['n'],0,left,['3'],3,193,[-0.07574323],70,53,easy,minus,dotcolour,beta,,,42,18,V,R,
144,18,18,3,1,36,44,467,['c'],0,right,['3'],3,216,[0.0637265],58,44,hard,minus,dotcolour,beta,,,42,18,V,R,
145,19,19,3,1,36,44,550,['n'],1,right,['3'],3,179,[-0.01682499],16,44,hard,minus,dotcolour,beta,,,42,18,V,R,
146,20,20,3,1,47,33,465,['c'],1,left,['9'],5,419,[0.20612509],99,47,medium,minus,dotcolour,beta,,,42,18,V,R,
147,21,21,3,1,36,44,933,['c'],0,right,['3'],3,230,[-0.00472506],9,44,hard,minus,dotcolour,beta,,,42,18,V,R,
148,22,22,3,1,44,36,47,['n'],0,left,['3'],3,103,[-0.05009109],42,44,hard,minus,dotcolour,beta,,,42,18,V,R,
149,23,23,3,1,53,27,367,['n'],0,left,['3'],3,149,[-7.33368916e-05],7,53,easy,minus,dotcolour,beta,,,42,18,V,R,
150,24,24,3,1,44,36,800,['n'],0,left,['3'],3,567,[-0.1013338],75,44,hard,minus,dotcolour,beta,,,42,18,V,R,
151,25,25,3,1,47,33,517,['n'],0,left,['3'],3,229,[-0.0530308],48,47,medium,minus,dotcolour,beta,,,42,18,V,R,
152,26,26,3,1,44,36,267,['c'],1,left,['3'],3,139,[0.19108824],100,44,hard,minus,dotcolour,beta,,,42,18,V,R,
153,27,27,3,1,47,33,500,['c'],1,left,['3'],3,1139,[0.09130206],65,47,medium,minus,dotcolour,beta,,,42,18,V,R,
154,28,28,3,1,53,27,599,['c'],1,left,['3'],3,159,[0.16537186],99,53,easy,minus,dotcolour,beta,,,42,18,V,R,
155,29,29,3,1,47,33,317,['n'],0,left,['3'],3,108,[-0.12771143],98,47,medium,minus,dotcolour,beta,,,42,18,V,R,
156,30,30,3,1,44,36,1067,['c'],1,left,['3'],3,199,[0.0446679],39,44,hard,minus,dotcolour,beta,,,42,18,V,R,
157,31,31,3,1,53,27,502,['n'],0,left,['3'],3,180,[-0.08804136],80,53,easy,minus,dotcolour,beta,,,42,18,V,R,
158,32,32,3,1,44,36,434,['c'],1,left,['3'],3,165,[0.07430013],70,44,hard,minus,dotcolour,beta,,,42,18,V,R,
159,33,33,3,1,33,47,866,['c'],0,right,['1'],1,333,[0.07547806],65,47,medium,minus,dotcolour,beta,,,42,18,V,R,
160,34,34,3,1,53,27,1250,['c'],1,left,['9'],5,446,[0.08115205],67,53,easy,minus,dotcolour,beta,,,42,18,V,R,
161,35,35,3,1,44,36,917,['n'],0,left,['9'],5,1657,[-0.12146373],72,44,hard,minus,dotcolour,beta,,,42,18,V,R,
162,36,36,3,1,36,44,849,['n'],1,right,['2'],2,510,[-0.08824574],70,44,hard,minus,dotcolour,beta,,,42,18,V,R,
163,37,37,3,1,47,33,1017,['n'],0,left,['2'],2,18,[-0.06592083],80,47,medium,minus,dotcolour,beta,,,42,18,V,R,
164,38,38,3,1,36,44,1450,['c'],0,right,['0'],6,505,[-0.05535086],6,44,hard,minus,dotcolour,beta,,,42,18,V,R,
165,39,39,3,1,53,27,966,['n'],0,left,['9'],5,583,[-0.04956357],46,53,easy,minus,dotcolour,beta,,,42,18,V,R,
166,40,40,3,1,36,44,1033,['c'],0,right,['9'],5,287,[0.0370277],35,44,hard,minus,dotcolour,beta,,,42,18,V,R,
167,41,41,3,1,27,53,567,['n'],1,right,['9'],5,375,[-0.02875702],31,53,easy,minus,dotcolour,beta,,,42,18,V,R,
168,42,0,4,1,36,44,2602,['c'],0,right,['2'],2,855,[0.0653306],55,44,hard,minus,dotcolour,beta,,,42,18,V,R,
169,43,1,4,1,53,27,1284,['n'],0,left,['2'],2,561,[0.01209176],16,53,easy,minus,dotcolour,beta,,,42,18,V,R,
170,44,2,4,1,27,53,1450,['n'],1,right,['1'],1,346,[-0.09656775],78,53,easy,minus,dotcolour,beta,,,42,18,V,R,
171,45,3,4,1,36,44,433,['c'],0,right,['2'],2,796,[0.01560227],31,44,hard,minus,dotcolour,beta,,,42,18,V,R,
172,46,4,4,1,47,33,1134,['c'],1,left,['2'],2,336,[0.05669434],51,47,medium,minus,dotcolour,beta,,,42,18,V,R,
173,47,5,4,1,53,27,767,['n'],0,left,['9'],5,374,[-0.04100078],39,53,easy,minus,dotcolour,beta,,,42,18,V,R,
174,48,6,4,1,27,53,1350,['c'],0,right,['9'],5,410,[0.10673098],81,53,easy,minus,dotcolour,beta,,,42,18,V,R,
175,49,7,4,1,27,53,1533,['c'],0,right,['3'],3,461,[0.04966647],46,53,easy,minus,dotcolour,beta,,,42,18,V,R,
176,50,8,4,1,27,53,1134,['n'],1,right,['9'],5,278,[-0.12655692],92,53,easy,minus,dotcolour,beta,,,42,18,V,R,
177,51,9,4,1,47,33,717,['n'],0,left,['9'],5,336,[0.08468305],1,47,medium,minus,dotcolour,beta,,,42,18,V,R,
178,52,10,4,1,53,27,1184,['c'],1,left,['8'],4,717,[0.34684709],100,53,easy,minus,dotcolour,beta,,,42,18,V,R,
179,53,11,4,1,47,33,883,['c'],1,left,['3'],3,534,[0.23791485],99,47,medium,minus,dotcolour,beta,,,42,18,V,R,
180,54,12,4,1,53,27,883,['n'],0,left,['3'],3,367,[0.05939232],3,53,easy,minus,dotcolour,beta,,,42,18,V,R,
181,55,13,4,1,33,47,1116,['c'],0,right,['3'],3,421,[0.11346468],83,47,medium,minus,dotcolour,beta,,,42,18,V,R,
182,56,14,4,1,27,53,1067,['n'],1,right,['9'],5,307,[-0.14839626],95,53,easy,minus,dotcolour,beta,,,42,18,V,R,
183,57,15,4,1,27,53,1200,['n'],1,right,['3'],3,415,[-0.05088779],47,53,easy,minus,dotcolour,beta,,,42,18,V,R,
184,58,16,4,1,33,47,2600,['n'],1,right,['3'],3,128,[-0.04188554],33,47,medium,minus,dotcolour,beta,,,42,18,V,R,
185,59,17,4,1,27,53,351,['n'],1,right,['9'],5,374,[-0.10985178],83,53,easy,minus,dotcolour,beta,,,42,18,V,R,
186,60,18,4,1,33,47,383,['n'],1,right,['9'],5,169,[-0.08212413],76,47,medium,minus,dotcolour,beta,,,42,18,V,R,
187,61,19,4,1,53,27,334,['n'],0,left,['9'],5,214,[-0.02798557],25,53,easy,minus,dotcolour,beta,,,42,18,V,R,
188,62,20,4,1,36,44,1316,['n'],1,right,['0'],6,251,[-0.02294828],24,44,hard,minus,dotcolour,beta,,,42,18,V,R,
189,63,21,4,1,47,33,17,['c'],1,left,['9'],5,370,[0.05724056],51,47,medium,minus,dotcolour,beta,,,42,18,V,R,
190,64,22,4,1,44,36,233,['n'],0,left,['3'],3,315,[-0.16947752],97,44,hard,minus,dotcolour,beta,,,42,18,V,R,
191,65,23,4,1,47,33,417,['n'],0,left,['3'],3,247,[0.08953199],1,47,medium,minus,dotcolour,beta,,,42,18,V,R,
192,66,24,4,1,53,27,584,['n'],0,left,['2'],2,239,[-0.02533258],25,53,easy,minus,dotcolour,beta,,,42,18,V,R,
193,67,25,4,1,36,44,250,['c'],0,right,['3'],3,309,[0.0562114],51,44,hard,minus,dotcolour,beta,,,42,18,V,R,
194,68,26,4,1,44,36,284,['n'],0,left,['3'],3,22,[-0.08652519],98,44,hard,minus,dotcolour,beta,,,42,18,V,R,
195,69,27,4,1,44,36,434,['c'],1,left,['9'],5,109,[0.12317309],98,44,hard,minus,dotcolour,beta,,,42,18,V,R,
196,70,28,4,1,53,27,467,['n'],0,left,['9'],5,959,[0.13397462],3,53,easy,minus,dotcolour,beta,,,42,18,V,R,
197,71,29,4,1,44,36,300,['c'],1,left,['3'],3,206,[0.08227508],74,44,hard,minus,dotcolour,beta,,,42,18,V,R,
198,72,30,4,1,44,36,434,['n'],0,left,['3'],3,165,[-0.07898059],74,44,hard,minus,dotcolour,beta,,,42,18,V,R,
199,73,31,4,1,36,44,350,['n'],1,right,['9'],5,90,[-0.12258759],98,44,hard,minus,dotcolour,beta,,,42,18,V,R,
200,74,32,4,1,33,47,1249,['n'],1,right,['2'],2,406,[0.00076849],17,47,medium,minus,dotcolour,beta,,,42,18,V,R,
201,75,33,4,1,36,44,1450,['n'],1,right,['2'],2,420,[-0.04999374],46,44,hard,minus,dotcolour,beta,,,42,18,V,R,
202,76,34,4,1,33,47,2001,['n'],1,right,['2'],2,141,[-0.03828774],30,47,medium,minus,dotcolour,beta,,,42,18,V,R,
203,77,35,4,1,47,33,717,['n'],0,left,['2'],2,324,[0.06184229],2,47,medium,minus,dotcolour,beta,,,42,18,V,R,
204,78,36,4,1,36,44,617,['n'],1,right,['2'],2,447,[-0.13883602],90,44,hard,minus,dotcolour,beta,,,42,18,V,R,
205,79,37,4,1,33,47,284,['n'],1,right,['0'],6,147,[-0.09129417],84,47,medium,minus,dotcolour,beta,,,42,18,V,R,
206,80,38,4,1,44,36,367,['n'],0,left,['0'],6,96,[-0.04446417],34,44,hard,minus,dotcolour,beta,,,42,18,V,R,
207,81,39,4,1,47,33,417,['c'],1,left,['3'],3,4,[0.07920745],100,47,medium,minus,dotcolour,beta,,,42,18,V,R,
208,82,40,4,1,44,36,334,['n'],0,left,['9'],5,41,[-0.12326449],100,44,hard,minus,dotcolour,beta,,,42,18,V,R,
209,83,41,4,1,33,47,170,['n'],1,right,['2'],2,97,[-0.07035285],70,47,medium,minus,dotcolour,beta,,,42,18,V,R,
210,84,0,5,1,36,44,618,['c'],0,right,['0'],6,288,[0.15321628],96,44,hard,minus,dotcolour,beta,,,42,18,V,R,
211,85,1,5,1,36,44,283,['c'],0,right,['2'],2,146,[0.01349432],12,44,hard,minus,dotcolour,beta,,,42,18,V,R,
212,86,2,5,1,33,47,784,['n'],1,right,['9'],5,286,[-0.08276263],71,47,medium,minus,dotcolour,beta,,,42,18,V,R,
213,87,3,5,1,36,44,566,['n'],1,right,['9'],5,101,[-0.06282676],60,44,hard,minus,dotcolour,beta,,,42,18,V,R,
214,88,4,5,1,44,36,366,['n'],0,left,['9'],5,84,[-0.04943111],41,44,hard,minus,dotcolour,beta,,,42,18,V,R,
215,89,5,5,1,47,33,767,['n'],0,left,['2'],2,244,[-0.05863],53,47,medium,minus,dotcolour,beta,,,42,18,V,R,
216,90,6,5,1,33,47,351,['n'],1,right,['2'],2,108,[-0.14314422],99,47,medium,minus,dotcolour,beta,,,42,18,V,R,
217,91,7,5,1,47,33,367,['n'],0,left,['2'],2,99,[-0.10600256],95,47,medium,minus,dotcolour,beta,,,42,18,V,R,
218,92,8,5,1,53,27,266,['n'],0,left,['2'],2,158,[-0.09523572],86,53,easy,minus,dotcolour,beta,,,42,18,V,R,
219,93,9,5,1,36,44,433,['n'],1,right,['1'],1,174,[-0.14649278],98,44,hard,minus,dotcolour,beta,,,42,18,V,R,
220,94,10,5,1,47,33,517,['n'],0,left,['9'],5,1012,[0.06596933],10,47,medium,minus,dotcolour,beta,,,42,18,V,R,
221,95,11,5,1,27,53,1183,['n'],1,right,['2'],2,406,[-0.11368534],84,53,easy,minus,dotcolour,beta,,,42,18,V,R,
222,96,12,5,1,47,33,450,['n'],0,left,['3'],3,1132,[0.18611971],2,47,medium,minus,dotcolour,beta,,,42,18,V,R,
223,97,13,5,1,44,36,433,['c'],1,left,['9'],5,311,[0.11197097],86,44,hard,minus,dotcolour,beta,,,42,18,V,R,
224,98,14,5,1,44,36,433,['n'],0,left,['2'],2,282,[-0.029043],29,44,hard,minus,dotcolour,beta,,,42,18,V,R,
225,99,15,5,1,47,33,383,['n'],0,left,['2'],2,193,[-0.09377007],83,47,medium,minus,dotcolour,beta,,,42,18,V,R,
226,100,16,5,1,27,53,267,['c'],0,right,['3'],3,120,[0.07000131],68,53,easy,minus,dotcolour,beta,,,42,18,V,R,
227,101,17,5,1,33,47,232,['n'],1,right,['9'],5,115,[-0.00391563],6,47,medium,minus,dotcolour,beta,,,42,18,V,R,
228,102,18,5,1,47,33,250,['n'],0,left,['2'],2,118,[-0.05972974],55,47,medium,minus,dotcolour,beta,,,42,18,V,R,
229,103,19,5,1,44,36,367,['n'],0,left,['0'],6,11,[-0.06330316],79,44,hard,minus,dotcolour,beta,,,42,18,V,R,
230,104,20,5,1,53,27,435,['n'],0,left,['3'],3,1419,[-0.04996305],48,53,easy,minus,dotcolour,beta,,,42,18,V,R,
231,105,21,5,1,36,44,467,['n'],1,right,['9'],5,9,[-0.08339699],99,44,hard,minus,dotcolour,beta,,,42,18,V,R,
232,106,22,5,1,33,47,501,['n'],1,right,['2'],2,13,[-0.08970377],100,47,medium,minus,dotcolour,beta,,,42,18,V,R,
233,107,23,5,1,53,27,367,['n'],0,left,['3'],3,64,[-0.06545617],67,53,easy,minus,dotcolour,beta,,,42,18,V,R,
234,108,24,5,1,44,36,300,['n'],0,left,['2'],2,217,[-0.09948825],85,44,hard,minus,dotcolour,beta,,,42,18,V,R,
235,109,25,5,1,36,44,532,['n'],1,right,['1'],1,141,[-0.06130127],57,44,hard,minus,dotcolour,beta,,,42,18,V,R,
236,110,26,5,1,53,27,349,['n'],0,left,['0'],6,154,[0.00781998],5,53,easy,minus,dotcolour,beta,,,42,18,V,R,
237,111,27,5,1,27,53,334,['c'],0,right,['2'],2,185,[0.01618037],16,53,easy,minus,dotcolour,beta,,,42,18,V,R,
238,112,28,5,1,36,44,383,['n'],1,right,['0'],6,68,[-0.13474356],100,44,hard,minus,dotcolour,beta,,,42,18,V,R,
239,113,29,5,1,27,53,1217,['n'],1,right,['8'],4,481,[-0.14030282],90,53,easy,minus,dotcolour,beta,,,42,18,V,R,
240,114,30,5,1,44,36,317,['n'],0,left,['3'],3,211,[-0.05348702],48,44,hard,minus,dotcolour,beta,,,42,18,V,R,
241,115,31,5,1,27,53,233,['n'],1,right,['2'],2,122,[-0.14343075],99,53,easy,minus,dotcolour,beta,,,42,18,V,R,
242,116,32,5,1,33,47,266,['c'],0,right,"['1', '0']",1,220,[-0.03182332],3,47,medium,minus,dotcolour,beta,,,42,18,V,R,
243,117,33,5,1,33,47,283,['c'],0,right,['3'],3,241,[0.11543324],90,47,medium,minus,dotcolour,beta,,,42,18,V,R,
244,118,34,5,1,47,33,162,['n'],0,left,['9'],5,329,[-0.05133473],47,47,medium,minus,dotcolour,beta,,,42,18,V,R,
245,119,35,5,1,33,47,400,['c'],0,right,['1'],1,292,[-0.02052822],7,47,medium,minus,dotcolour,beta,,,42,18,V,R,
246,120,36,5,1,53,27,533,['n'],0,left,['2'],2,325,[-0.01292423],21,53,easy,minus,dotcolour,beta,,,42,18,V,R,
247,121,37,5,1,27,53,482,['n'],1,right,['3'],3,309,[-0.14268586],94,53,easy,minus,dotcolour,beta,,,42,18,V,R,
248,122,38,5,1,44,36,500,['n'],0,left,['2'],2,526,[-0.02933187],34,44,hard,minus,dotcolour,beta,,,42,18,V,R,
249,123,39,5,1,53,27,534,['n'],0,left,['2'],2,44,[-0.04650264],32,53,easy,minus,dotcolour,beta,,,42,18,V,R,
250,124,40,5,1,53,27,399,['n'],0,left,['9'],5,1044,[-0.06453295],54,53,easy,minus,dotcolour,beta,,,42,18,V,R,
251,125,41,5,1,27,53,517,['c'],0,right,['2'],2,303,[-0.07090447],2,53,easy,minus,dotcolour,beta,,,42,18,V,R,
252,0,0,6,2,33,47,1484,['n'],1,right,['9'],5,383,[-0.20567018],100,47,medium,plus,dotcolour,beta,,,42,18,V,R,
253,1,1,6,2,53,27,400,['c'],1,left,['0'],6,409,[0.0843236],98,53,easy,plus,dotcolour,beta,,,42,18,V,R,
254,2,2,6,2,53,27,400,['n'],0,left,['2'],2,250,[-0.05167487],98,53,easy,plus,dotcolour,beta,,,42,18,V,R,
255,3,3,6,2,33,47,383,['c'],0,right,['2'],2,26,[0.06543863],100,47,medium,plus,dotcolour,beta,,,42,18,V,R,
256,4,4,6,2,33,47,300,['n'],1,right,['9'],5,118,[-0.11541842],100,47,medium,plus,dotcolour,beta,,,42,18,V,R,
257,5,5,6,2,27,53,466,['n'],1,right,['0'],6,176,[-0.10359249],100,53,easy,plus,dotcolour,beta,,,42,18,V,R,
258,6,6,6,2,33,47,283,['c'],0,right,['2'],2,103,[0.08281725],100,47,medium,plus,dotcolour,beta,,,42,18,V,R,
259,7,7,6,2,36,44,434,['n'],1,right,['0'],6,171,[-0.0951043],100,44,hard,plus,dotcolour,beta,,,42,18,V,R,
260,8,8,6,2,36,44,300,['n'],1,right,['2'],2,113,[-0.0891276],100,44,hard,plus,dotcolour,beta,,,42,18,V,R,
261,9,9,6,2,36,44,1034,['c'],0,right,['0'],6,301,[0.02437771],93,44,hard,plus,dotcolour,beta,,,42,18,V,R,
262,10,10,6,2,33,47,417,['n'],1,right,['2'],2,106,[-0.08383501],100,47,medium,plus,dotcolour,beta,,,42,18,V,R,
263,11,11,6,2,36,44,97,['c'],0,right,['2'],2,80,[0.0426771],100,44,hard,plus,dotcolour,beta,,,42,18,V,R,
264,12,12,6,2,27,53,300,['n'],1,right,['0'],6,113,[-0.05700177],100,53,easy,plus,dotcolour,beta,,,42,18,V,R,
265,13,13,6,2,44,36,400,['c'],1,left,['0'],6,254,[0.09054539],99,44,hard,plus,dotcolour,beta,,,42,18,V,R,
266,14,14,6,2,47,33,1183,['c'],1,left,['1'],1,245,[0.04186274],97,47,medium,plus,dotcolour,beta,,,42,18,V,R,
267,15,15,6,2,47,33,533,['n'],0,left,['1'],1,280,[0.04214378],61,47,medium,plus,dotcolour,beta,,,42,18,V,R,
268,16,16,6,2,44,36,284,['n'],0,left,['0'],6,219,[0.07836656],29,44,hard,plus,dotcolour,beta,,,42,18,V,R,
269,17,17,6,2,53,27,433,['n'],0,left,['0'],6,9,[-0.0689286],100,53,easy,plus,dotcolour,beta,,,42,18,V,R,
270,18,18,6,2,36,44,2050,['c'],0,right,['2'],2,249,[0.14255975],100,44,hard,plus,dotcolour,beta,,,42,18,V,R,
271,19,19,6,2,44,36,384,['n'],0,left,['0'],6,153,[-0.08412133],100,44,hard,plus,dotcolour,beta,,,42,18,V,R,
272,20,20,6,2,36,44,300,['c'],0,right,['2'],2,104,[0.07242042],100,44,hard,plus,dotcolour,beta,,,42,18,V,R,
273,21,21,6,2,44,36,1401,['c'],1,left,['9'],5,197,[0.10456896],100,44,hard,plus,dotcolour,beta,,,42,18,V,R,
274,22,22,6,2,47,33,767,['c'],1,left,['1'],1,160,[0.03905879],99,47,medium,plus,dotcolour,beta,,,42,18,V,R,
275,23,23,6,2,36,44,367,['n'],1,right,['1'],1,36,[-0.0784909],100,44,hard,plus,dotcolour,beta,,,42,18,V,R,
276,24,24,6,2,47,33,2000,['c'],1,left,['0'],6,524,[0.23226658],100,47,medium,plus,dotcolour,beta,,,42,18,V,R,
277,25,25,6,2,27,53,550,['n'],1,right,"['1', '0']",1,474,[-0.10978544],99,53,easy,plus,dotcolour,beta,,,42,18,V,R,
278,26,26,6,2,53,27,1984,['c'],1,left,['0'],6,369,[0.07116342],98,53,easy,plus,dotcolour,beta,,,42,18,V,R,
279,27,27,6,2,53,27,850,['c'],1,left,['2'],2,97,[0.08242434],100,53,easy,plus,dotcolour,beta,,,42,18,V,R,
280,28,28,6,2,33,47,533,['n'],1,right,['0'],6,169,[-0.03486],98,47,medium,plus,dotcolour,beta,,,42,18,V,R,
281,29,29,6,2,44,36,317,['n'],0,left,['1'],1,175,[-0.03395246],98,44,hard,plus,dotcolour,beta,,,42,18,V,R,
282,30,30,6,2,33,47,284,['n'],1,right,['0'],6,38,[-0.07132401],100,47,medium,plus,dotcolour,beta,,,42,18,V,R,
283,31,31,6,2,27,53,767,['c'],0,right,['9'],5,615,[-0.04913265],54,53,easy,plus,dotcolour,beta,,,42,18,V,R,
284,32,32,6,2,47,33,284,['n'],0,left,['0'],6,149,[-0.06788048],100,47,medium,plus,dotcolour,beta,,,42,18,V,R,
285,33,33,6,2,47,33,700,['c'],1,left,['0'],6,1324,[0.37403682],100,47,medium,plus,dotcolour,beta,,,42,18,V,R,
286,34,34,6,2,27,53,300,['n'],1,right,['2'],2,84,[-0.06871022],100,53,easy,plus,dotcolour,beta,,,42,18,V,R,
287,35,35,6,2,44,36,566,['c'],1,left,"['0', '2']",6,2220,[0.21092938],96,44,hard,plus,dotcolour,beta,,,42,18,V,R,
288,36,36,6,2,27,53,3082,['c'],0,right,['3'],3,48,[0.0707191],100,53,easy,plus,dotcolour,beta,,,42,18,V,R,
289,37,37,6,2,53,27,499,['n'],0,left,['3'],3,171,[-0.04748892],99,53,easy,plus,dotcolour,beta,,,42,18,V,R,
290,38,38,6,2,53,27,102,['c'],1,left,['2'],2,2255,[0.41130856],100,53,easy,plus,dotcolour,beta,,,42,18,V,R,
291,39,39,6,2,47,33,1883,['c'],1,left,['8'],4,498,[0.1001546],98,47,medium,plus,dotcolour,beta,,,42,18,V,R,
292,40,40,6,2,44,36,366,['n'],0,left,['0'],6,401,[-0.02262709],90,44,hard,plus,dotcolour,beta,,,42,18,V,R,
293,41,41,6,2,27,53,983,['n'],1,right,['3'],3,338,[-0.03726792],95,53,easy,plus,dotcolour,beta,,,42,18,V,R,
294,42,0,7,2,36,44,568,['n'],1,right,['2'],2,373,[0.02179633],73,44,hard,plus,dotcolour,beta,,,42,18,V,R,
295,43,1,7,2,53,27,384,['c'],1,left,['9'],5,456,[0.26925985],100,53,easy,plus,dotcolour,beta,,,42,18,V,R,
296,44,2,7,2,36,44,467,['n'],1,right,['9'],5,388,[-0.05958223],97,44,hard,plus,dotcolour,beta,,,42,18,V,R,
297,45,3,7,2,33,47,450,['n'],1,right,['2'],2,292,[-0.12150145],100,47,medium,plus,dotcolour,beta,,,42,18,V,R,
298,46,4,7,2,27,53,684,['n'],1,right,['0'],6,182,[-0.03912283],98,53,easy,plus,dotcolour,beta,,,42,18,V,R,
299,47,5,7,2,33,47,1099,['c'],0,right,['2'],2,140,[0.08281949],100,47,medium,plus,dotcolour,beta,,,42,18,V,R,
300,48,6,7,2,27,53,501,['n'],1,right,['2'],2,251,[-0.11625793],100,53,easy,plus,dotcolour,beta,,,42,18,V,R,
301,49,7,7,2,47,33,501,['n'],0,left,['0'],6,278,[-0.06819918],99,47,medium,plus,dotcolour,beta,,,42,18,V,R,
302,50,8,7,2,33,47,600,['n'],1,right,['8'],4,412,[-0.02586381],91,47,medium,plus,dotcolour,beta,,,42,18,V,R,
303,51,9,7,2,44,36,748,['n'],0,left,['3'],3,455,[-0.12086017],99,44,hard,plus,dotcolour,beta,,,42,18,V,R,
304,52,10,7,2,44,36,500,['c'],1,left,['3'],3,186,[0.07843063],100,44,hard,plus,dotcolour,beta,,,42,18,V,R,
305,53,11,7,2,53,27,350,['n'],0,left,['3'],3,262,[-0.04977691],98,53,easy,plus,dotcolour,beta,,,42,18,V,R,
306,54,12,7,2,47,33,383,['c'],1,left,['2'],2,221,[0.09255651],100,47,medium,plus,dotcolour,beta,,,42,18,V,R,
307,55,13,7,2,44,36,383,['c'],1,left,['9'],5,223,[0.03462556],97,44,hard,plus,dotcolour,beta,,,42,18,V,R,
308,56,14,7,2,27,53,400,['c'],0,right,['9'],5,262,[0.03703485],96,53,easy,plus,dotcolour,beta,,,42,18,V,R,
309,57,15,7,2,36,44,2050,['n'],1,right,['8'],4,411,[4.71052527e-05],83,44,hard,plus,dotcolour,beta,,,42,18,V,R,
310,58,16,7,2,36,44,283,['n'],1,right,['0'],6,273,[-0.19638597],100,44,hard,plus,dotcolour,beta,,,42,18,V,R,
311,59,17,7,2,47,33,350,['n'],0,left,['0'],6,144,[0.01045171],89,47,medium,plus,dotcolour,beta,,,42,18,V,R,
312,60,18,7,2,27,53,266,['c'],0,right,['8'],4,49,[0.02410296],100,53,easy,plus,dotcolour,beta,,,42,18,V,R,
313,61,19,7,2,33,47,366,['n'],1,right,['0'],6,114,[-0.07095533],100,47,medium,plus,dotcolour,beta,,,42,18,V,R,
314,62,20,7,2,47,33,301,['n'],0,left,['0'],6,11,[-0.08427222],100,47,medium,plus,dotcolour,beta,,,42,18,V,R,
315,63,21,7,2,47,33,1200,['n'],0,left,['0'],6,76,[-0.06403543],100,47,medium,plus,dotcolour,beta,,,42,18,V,R,
316,64,22,7,2,44,36,1866,['n'],0,left,['3'],3,247,[0.00460015],86,44,hard,plus,dotcolour,beta,,,42,18,V,R,
317,65,23,7,2,27,53,4050,['n'],1,right,"['3', '2']",3,340,[-0.19521986],100,53,easy,plus,dotcolour,beta,,,42,18,V,R,
318,66,24,7,2,27,53,2333,['n'],1,right,['8'],4,34,[-0.08836855],100,53,easy,plus,dotcolour,beta,,,42,18,V,R,
319,67,25,7,2,33,47,1351,['n'],1,right,['0'],6,188,[-0.07128572],99,47,medium,plus,dotcolour,beta,,,42,18,V,R,
320,68,26,7,2,33,47,885,['n'],1,right,['9'],5,571,[-0.09211426],97,47,medium,plus,dotcolour,beta,,,42,18,V,R,
321,69,27,7,2,36,44,749,['n'],1,right,['0'],6,200,[-0.13034482],100,44,hard,plus,dotcolour,beta,,,42,18,V,R,
322,70,28,7,2,47,33,468,['n'],0,left,['2'],2,238,[0.00060414],88,47,medium,plus,dotcolour,beta,,,42,18,V,R,
323,71,29,7,2,44,36,383,['n'],0,left,['2'],2,190,[-0.09292408],100,44,hard,plus,dotcolour,beta,,,42,18,V,R,
324,72,30,7,2,53,27,1133,['n'],0,left,['9'],5,1786,[0.19908391],13,53,easy,plus,dotcolour,beta,,,42,18,V,R,
325,73,31,7,2,33,47,1084,['n'],1,right,['2'],2,248,[-0.11161316],100,47,medium,plus,dotcolour,beta,,,42,18,V,R,
326,74,32,7,2,36,44,884,['n'],1,right,['9'],5,1029,[-0.09917819],94,44,hard,plus,dotcolour,beta,,,42,18,V,R,
327,75,33,7,2,47,33,550,['n'],0,left,['1'],1,1631,[0.0097095],66,47,medium,plus,dotcolour,beta,,,42,18,V,R,
328,76,34,7,2,53,27,350,['c'],1,left,['2'],2,184,[0.08769962],100,53,easy,plus,dotcolour,beta,,,42,18,V,R,
329,77,35,7,2,53,27,533,['c'],1,left,['0'],6,301,[0.16261921],100,53,easy,plus,dotcolour,beta,,,42,18,V,R,
330,78,36,7,2,53,27,433,['n'],0,left,['0'],6,200,[-0.02697555],97,53,easy,plus,dotcolour,beta,,,42,18,V,R,
331,79,37,7,2,44,36,267,['n'],0,left,['2'],2,119,[-0.14305501],100,44,hard,plus,dotcolour,beta,,,42,18,V,R,
332,80,38,7,2,36,44,401,['c'],0,right,['1'],1,132,[-0.00171698],94,44,hard,plus,dotcolour,beta,,,42,18,V,R,
333,81,39,7,2,44,36,2500,['c'],1,left,['9'],5,204,[0.06887144],99,44,hard,plus,dotcolour,beta,,,42,18,V,R,
334,82,40,7,2,53,27,300,['n'],0,left,['0'],6,1,[-0.06853825],100,53,easy,plus,dotcolour,beta,,,42,18,V,R,
335,83,41,7,2,27,53,434,['c'],0,right,['2'],2,65,[0.09777066],100,53,easy,plus,dotcolour,beta,,,42,18,V,R,
336,84,0,8,2,47,33,1034,['n'],0,left,['9'],5,414,[0.02108914],72,47,medium,plus,dotcolour,beta,,,42,18,V,R,
337,85,1,8,2,33,47,901,['c'],0,right,['1'],1,35,[0.05550948],100,47,medium,plus,dotcolour,beta,,,42,18,V,R,
338,86,2,8,2,44,36,350,['n'],0,left,['0'],6,117,[-0.10823254],100,44,hard,plus,dotcolour,beta,,,42,18,V,R,
339,87,3,8,2,53,27,333,['n'],0,left,['2'],2,148,[-0.08190637],100,53,easy,plus,dotcolour,beta,,,42,18,V,R,
340,88,4,8,2,36,44,650,['c'],0,right,['9'],5,2854,[0.09191781],83,44,hard,plus,dotcolour,beta,,,42,18,V,R,
341,89,5,8,2,36,44,334,['n'],1,right,['8'],4,167,[-0.07802969],100,44,hard,plus,dotcolour,beta,,,42,18,V,R,
342,90,6,8,2,47,33,483,['n'],0,left,['2'],2,165,[-0.09123772],100,47,medium,plus,dotcolour,beta,,,42,18,V,R,
343,91,7,8,2,47,33,317,['c'],1,left,['0'],6,283,[0.18064713],100,47,medium,plus,dotcolour,beta,,,42,18,V,R,
344,92,8,8,2,44,36,233,['n'],0,left,['3'],3,992,[0.12186934],23,44,hard,plus,dotcolour,beta,,,42,18,V,R,
345,93,9,8,2,27,53,784,['c'],0,right,"['8', '3']",4,539,[-0.12469944],16,53,easy,plus,dotcolour,beta,,,42,18,V,R,
346,94,10,8,2,33,47,17,['c'],0,right,['0'],6,607,[0.03251268],88,47,medium,plus,dotcolour,beta,,,42,18,V,R,
347,95,11,8,2,44,36,1067,['n'],0,left,['8'],4,652,[-0.13272962],99,44,hard,plus,dotcolour,beta,,,42,18,V,R,
348,96,12,8,2,44,36,800,['c'],1,left,['9'],5,403,[0.04719477],95,44,hard,plus,dotcolour,beta,,,42,18,V,R,
349,97,13,8,2,27,53,1333,['n'],1,right,['0'],6,567,[-0.04444787],92,53,easy,plus,dotcolour,beta,,,42,18,V,R,
350,98,14,8,2,47,33,800,['n'],0,left,['2'],2,226,[-0.09923809],100,47,medium,plus,dotcolour,beta,,,42,18,V,R,
351,99,15,8,2,53,27,163,['c'],1,left,['0'],6,497,[0.07569105],97,53,easy,plus,dotcolour,beta,,,42,18,V,R,
352,100,16,8,2,44,36,584,['n'],0,left,['2'],2,472,[0.01352664],75,44,hard,plus,dotcolour,beta,,,42,18,V,R,
353,101,17,8,2,53,27,767,['n'],0,left,['2'],2,103,[-0.08975191],100,53,easy,plus,dotcolour,beta,,,42,18,V,R,
354,102,18,8,2,36,44,366,['n'],1,right,['0'],6,70,[-0.12800706],100,44,hard,plus,dotcolour,beta,,,42,18,V,R,
355,103,19,8,2,44,36,534,['c'],1,left,['3'],3,208,[0.11851017],100,44,hard,plus,dotcolour,beta,,,42,18,V,R,
356,104,20,8,2,53,27,1584,['c'],1,left,['9'],5,504,[0.09415861],98,53,easy,plus,dotcolour,beta,,,42,18,V,R,
357,105,21,8,2,36,44,784,['c'],0,right,['2'],2,149,[0.05307522],99,44,hard,plus,dotcolour,beta,,,42,18,V,R,
358,106,22,8,2,47,33,384,['n'],0,left,['0'],6,306,[0.01566074],79,47,medium,plus,dotcolour,beta,,,42,18,V,R,
359,107,23,8,2,47,33,144,['n'],0,left,['2'],2,383,[-0.01104147],87,47,medium,plus,dotcolour,beta,,,42,18,V,R,
360,108,24,8,2,33,47,1333,['n'],1,right,['2'],2,1491,[0.1133904],30,47,medium,plus,dotcolour,beta,,,42,18,V,R,
361,109,25,8,2,33,47,500,['n'],1,right,['9'],5,356,[-0.21240926],100,47,medium,plus,dotcolour,beta,,,42,18,V,R,
362,110,26,8,2,36,44,434,['c'],0,right,['9'],5,414,[0.00114199],83,44,hard,plus,dotcolour,beta,,,42,18,V,R,
363,111,27,8,2,27,53,333,['c'],0,right,['2'],2,258,[0.03040149],95,53,easy,plus,dotcolour,beta,,,42,18,V,R,
364,112,28,8,2,33,47,400,['c'],0,right,['2'],2,24,[0.08835829],100,47,medium,plus,dotcolour,beta,,,42,18,V,R,
365,113,29,8,2,36,44,916,['c'],0,right,['9'],5,620,[0.18468022],100,44,hard,plus,dotcolour,beta,,,42,18,V,R,
366,114,30,8,2,33,47,534,['c'],0,right,['2'],2,503,[0.09758779],98,47,medium,plus,dotcolour,beta,,,42,18,V,R,
367,115,31,8,2,33,47,383,['n'],1,right,['0'],6,317,[-0.00208379],86,47,medium,plus,dotcolour,beta,,,42,18,V,R,
368,116,32,8,2,36,44,34,['n'],1,right,['9'],5,226,[-0.2133698],100,44,hard,plus,dotcolour,beta,,,42,18,V,R,
369,117,33,8,2,27,53,400,['n'],1,right,['9'],5,586,[-0.14266073],99,53,easy,plus,dotcolour,beta,,,42,18,V,R,
370,118,34,8,2,53,27,733,['n'],0,left,['2'],2,398,[0.00400519],81,53,easy,plus,dotcolour,beta,,,42,18,V,R,
371,119,35,8,2,47,33,350,['n'],0,left,['2'],2,178,[-0.00758816],94,47,medium,plus,dotcolour,beta,,,42,18,V,R,
372,120,36,8,2,53,27,800,['c'],1,left,['2'],2,243,[0.12016435],100,53,easy,plus,dotcolour,beta,,,42,18,V,R,
373,121,37,8,2,53,27,367,['n'],0,left,['2'],2,212,[-0.12094459],100,53,easy,plus,dotcolour,beta,,,42,18,V,R,
374,122,38,8,2,27,53,284,['c'],0,right,['9'],5,50,[0.03996003],100,53,easy,plus,dotcolour,beta,,,42,18,V,R,
375,123,39,8,2,27,53,367,['n'],1,right,['2'],2,146,[-0.11992039],100,53,easy,plus,dotcolour,beta,,,42,18,V,R,
376,124,40,8,2,27,53,301,['n'],1,right,['2'],2,137,[-0.05932738],100,53,easy,plus,dotcolour,beta,,,42,18,V,R,
377,125,41,8,2,44,36,1267,['n'],0,left,['2'],2,163,[-0.10837079],100,44,hard,plus,dotcolour,beta,,,42,18,V,R,
378,0,0,9,3,53,27,2401,['c'],1,left,['9'],5,3533,[0.46115402],98,53,easy,minus,dotcolour,beta,,,42,18,V,R,
379,1,1,9,3,27,53,351,['n'],1,right,['2'],2,113,[-0.1605511],100,53,easy,minus,dotcolour,beta,,,42,18,V,R,
380,2,2,9,3,36,44,400,['n'],1,right,['2'],2,142,[-0.1018701],90,44,hard,minus,dotcolour,beta,,,42,18,V,R,
381,3,3,9,3,47,33,1067,['c'],1,left,['0'],6,343,[0.03869163],37,47,medium,minus,dotcolour,beta,,,42,18,V,R,
382,4,4,9,3,44,36,367,['n'],0,left,['8'],4,76,[-0.10089189],95,44,hard,minus,dotcolour,beta,,,42,18,V,R,
383,5,5,9,3,36,44,351,['n'],1,right,['2'],2,172,[-0.0506717],45,44,hard,minus,dotcolour,beta,,,42,18,V,R,
384,6,6,9,3,36,44,333,['n'],1,right,['3'],3,81,[-0.09324622],92,44,hard,minus,dotcolour,beta,,,42,18,V,R,
385,7,7,9,3,36,44,234,['n'],1,right,['3'],3,102,[-0.07181439],71,44,hard,minus,dotcolour,beta,,,42,18,V,R,
386,8,8,9,3,47,33,383,['n'],0,left,['3'],3,100,[-0.08138499],81,47,medium,minus,dotcolour,beta,,,42,18,V,R,
387,9,9,9,3,44,36,450,['n'],0,left,['8'],4,183,[-0.07560492],70,44,hard,minus,dotcolour,beta,,,42,18,V,R,
388,10,10,9,3,33,47,867,['c'],0,right,['3'],3,199,[0.02157251],20,47,medium,minus,dotcolour,beta,,,42,18,V,R,
389,11,11,9,3,36,44,850,['c'],0,right,['3'],3,262,[0.00082143],13,44,hard,minus,dotcolour,beta,,,42,18,V,R,
390,12,12,9,3,27,53,1800,['n'],1,right,['9'],5,348,[-0.13039083],91,53,easy,minus,dotcolour,beta,,,42,18,V,R,
391,13,13,9,3,53,27,1367,['c'],1,left,['2'],2,529,[0.12153572],84,53,easy,minus,dotcolour,beta,,,42,18,V,R,
392,14,14,9,3,47,33,1084,['n'],0,left,['0'],6,490,[-0.15341072],93,47,medium,minus,dotcolour,beta,,,42,18,V,R,
393,15,15,9,3,27,53,484,['c'],0,right,['2'],2,276,[0.02154265],24,53,easy,minus,dotcolour,beta,,,42,18,V,R,
394,16,16,9,3,33,47,634,['c'],0,right,['3'],3,49,[0.03358872],14,47,medium,minus,dotcolour,beta,,,42,18,V,R,
395,17,17,9,3,47,33,466,['n'],0,left,['8'],4,29,[-0.06252294],68,47,medium,minus,dotcolour,beta,,,42,18,V,R,
396,18,18,9,3,44,36,567,['c'],1,left,['3'],3,183,[0.19711577],100,44,hard,minus,dotcolour,beta,,,42,18,V,R,
397,19,19,9,3,36,44,383,['n'],1,right,['8'],4,57,[-0.05844156],55,44,hard,minus,dotcolour,beta,,,42,18,V,R,
398,20,20,9,3,27,53,333,['n'],1,right,['8'],4,83,[-0.10127947],95,53,easy,minus,dotcolour,beta,,,42,18,V,R,
399,21,21,9,3,53,27,1134,['c'],1,left,['2'],2,179,[0.07855523],73,53,easy,minus,dotcolour,beta,,,42,18,V,R,
400,22,22,9,3,33,47,633,['n'],1,right,['1'],1,172,[-0.07209675],67,47,medium,minus,dotcolour,beta,,,42,18,V,R,
401,23,23,9,3,27,53,300,['n'],1,right,['0'],6,139,[-0.09899039],89,53,easy,minus,dotcolour,beta,,,42,18,V,R,
402,24,24,9,3,27,53,316,['c'],0,right,['2'],2,170,[0.07328547],68,53,easy,minus,dotcolour,beta,,,42,18,V,R,
403,25,25,9,3,36,44,2550,['c'],0,right,['3'],3,567,[0.17709919],95,44,hard,minus,dotcolour,beta,,,42,18,V,R,
404,26,26,9,3,47,33,666,['n'],0,left,['8'],4,15,[-0.06840086],87,47,medium,minus,dotcolour,beta,,,42,18,V,R,
405,27,27,9,3,53,27,984,['n'],0,left,['3'],3,128,[-0.00653812],8,53,easy,minus,dotcolour,beta,,,42,18,V,R,
406,28,28,9,3,33,47,1633,['n'],1,right,['2'],2,163,[-0.10761894],91,47,medium,minus,dotcolour,beta,,,42,18,V,R,
407,29,29,9,3,44,36,833,['n'],0,left,['2'],2,732,[-0.0495741],47,44,hard,minus,dotcolour,beta,,,42,18,V,R,
408,30,30,9,3,47,33,1283,['n'],0,left,['3'],3,101,[-0.07139758],71,47,medium,minus,dotcolour,beta,,,42,18,V,R,
409,31,31,9,3,27,53,1033,['n'],1,right,"['1', '2']",1,201,[-0.14772614],98,53,easy,minus,dotcolour,beta,,,42,18,V,R,
410,32,32,9,3,33,47,1184,['n'],1,right,"['1', '2']",1,156,[-0.08267511],77,47,medium,minus,dotcolour,beta,,,42,18,V,R,
411,33,33,9,3,44,36,450,['n'],0,left,['8'],4,4,[-0.07849028],100,44,hard,minus,dotcolour,beta,,,42,18,V,R,
412,34,34,9,3,44,36,767,['n'],0,left,['0'],6,247,[-0.05095361],46,44,hard,minus,dotcolour,beta,,,42,18,V,R,
413,35,35,9,3,47,33,300,['n'],0,left,['9'],5,282,[-0.02498255],26,47,medium,minus,dotcolour,beta,,,42,18,V,R,
414,36,36,9,3,33,47,483,['n'],1,right,['0'],6,261,[-0.01472775],19,47,medium,minus,dotcolour,beta,,,42,18,V,R,
415,37,37,9,3,53,27,517,['n'],0,left,['1'],1,127,[-0.00824919],8,53,easy,minus,dotcolour,beta,,,42,18,V,R,
416,38,38,9,3,44,36,717,['n'],0,left,['1'],1,6,[-0.07597474],99,44,hard,minus,dotcolour,beta,,,42,18,V,R,
417,39,39,9,3,53,27,516,['n'],0,left,['2'],2,179,[-0.03116619],26,53,easy,minus,dotcolour,beta,,,42,18,V,R,
418,40,40,9,3,53,27,634,['c'],1,left,['2'],2,4,[0.06992954],98,53,easy,minus,dotcolour,beta,,,42,18,V,R,
419,41,41,9,3,33,47,833,['n'],1,right,['0'],6,4,[-0.07423907],100,47,medium,minus,dotcolour,beta,,,42,18,V,R,
420,42,0,10,3,27,53,1485,['c'],0,right,['9'],5,95,[0.05711084],52,53,easy,minus,dotcolour,beta,,,42,18,V,R,
421,43,1,10,3,53,27,967,['c'],1,left,['0'],6,541,[0.2264773],98,53,easy,minus,dotcolour,beta,,,42,18,V,R,
422,44,2,10,3,53,27,1483,['c'],1,left,['2'],2,317,[0.20526698],99,53,easy,minus,dotcolour,beta,,,42,18,V,R,
423,45,3,10,3,53,27,1667,['c'],1,left,['2'],2,136,[0.07006376],67,53,easy,minus,dotcolour,beta,,,42,18,V,R,
424,46,4,10,3,27,53,734,['n'],1,right,['1'],1,190,[-0.07737866],71,53,easy,minus,dotcolour,beta,,,42,18,V,R,
425,47,5,10,3,27,53,884,['c'],0,right,['2'],2,1012,[-0.20920416],1,53,easy,minus,dotcolour,beta,,,42,18,V,R,
426,48,6,10,3,36,44,484,['n'],1,right,['0'],6,225,[-0.0591717],53,44,hard,minus,dotcolour,beta,,,42,18,V,R,
427,49,7,10,3,33,47,300,['c'],0,right,['2'],2,133,[0.05141445],45,47,medium,minus,dotcolour,beta,,,42,18,V,R,
428,50,8,10,3,33,47,186,['c'],0,right,['2'],2,370,[0.07712087],65,47,medium,minus,dotcolour,beta,,,42,18,V,R,
429,51,9,10,3,47,33,616,['n'],0,left,['9'],5,500,[0.09903237],2,47,medium,minus,dotcolour,beta,,,42,18,V,R,
430,52,10,10,3,36,44,1517,['c'],0,right,['9'],5,236,[0.09252297],80,44,hard,minus,dotcolour,beta,,,42,18,V,R,
431,53,11,10,3,47,33,584,['c'],1,left,['2'],2,317,[0.14681244],95,47,medium,minus,dotcolour,beta,,,42,18,V,R,
432,54,12,10,3,33,47,733,['n'],1,right,['0'],6,108,[-0.10249223],93,47,medium,minus,dotcolour,beta,,,42,18,V,R,
433,55,13,10,3,33,47,367,['c'],0,right,['2'],2,66,[0.08314688],87,47,medium,minus,dotcolour,beta,,,42,18,V,R,
434,56,14,10,3,36,44,283,['n'],1,right,['2'],2,125,[-0.00542144],7,44,hard,minus,dotcolour,beta,,,42,18,V,R,
435,57,15,10,3,47,33,2701,['c'],1,left,['3'],3,78,[0.0450757],34,47,medium,minus,dotcolour,beta,,,42,18,V,R,
436,58,16,10,3,36,44,383,['n'],1,right,['9'],5,949,[-0.14536013],84,44,hard,minus,dotcolour,beta,,,42,18,V,R,
437,59,17,10,3,53,27,284,['n'],0,left,['3'],3,84,[-0.06173256],59,53,easy,minus,dotcolour,beta,,,42,18,V,R,
438,60,18,10,3,44,36,216,['c'],1,left,['2'],2,99,[0.10905115],96,44,hard,minus,dotcolour,beta,,,42,18,V,R,
439,61,19,10,3,44,36,1767,['c'],1,left,['2'],2,153,[0.02404034],19,44,hard,minus,dotcolour,beta,,,42,18,V,R,
440,62,20,10,3,47,33,133,['c'],1,left,['2'],2,196,[0.04577686],40,47,medium,minus,dotcolour,beta,,,42,18,V,R,
441,63,21,10,3,27,53,1284,['n'],1,right,['2'],2,178,[-0.10669698],90,53,easy,minus,dotcolour,beta,,,42,18,V,R,
442,64,22,10,3,33,47,534,['n'],1,right,['9'],5,223,[-0.045611],41,47,medium,minus,dotcolour,beta,,,42,18,V,R,
443,65,23,10,3,44,36,317,['c'],1,left,['1'],1,202,[0.00812231],13,44,hard,minus,dotcolour,beta,,,42,18,V,R,
444,66,24,10,3,53,27,350,['n'],0,left,['2'],2,221,[-0.03457308],31,53,easy,minus,dotcolour,beta,,,42,18,V,R,
445,67,25,10,3,27,53,217,['c'],0,right,['9'],5,270,[0.03734572],35,53,easy,minus,dotcolour,beta,,,42,18,V,R,
446,68,26,10,3,36,44,1100,['n'],1,right,['2'],2,176,[-0.11816958],94,44,hard,minus,dotcolour,beta,,,42,18,V,R,
447,69,27,10,3,27,53,767,['c'],0,right,['2'],2,475,[-0.04009268],8,53,easy,minus,dotcolour,beta,,,42,18,V,R,
448,70,28,10,3,33,47,433,['n'],1,right,['9'],5,184,[-0.07600069],70,47,medium,minus,dotcolour,beta,,,42,18,V,R,
449,71,29,10,3,44,36,350,['n'],0,left,['2'],2,156,[-0.06097182],56,44,hard,minus,dotcolour,beta,,,42,18,V,R,
450,72,30,10,3,53,27,451,['n'],0,left,['1'],1,125,[-0.04639902],39,53,easy,minus,dotcolour,beta,,,42,18,V,R,
451,73,31,10,3,27,53,250,['c'],0,right,['2'],2,79,[0.01496131],7,53,easy,minus,dotcolour,beta,,,42,18,V,R,
452,74,32,10,3,47,33,300,['n'],0,left,['0'],6,289,[-0.13248423],93,47,medium,minus,dotcolour,beta,,,42,18,V,R,
453,75,33,10,3,33,47,250,['c'],0,right,['2'],2,85,[0.04447082],34,47,medium,minus,dotcolour,beta,,,42,18,V,R,
454,76,34,10,3,44,36,1050,['c'],1,left,['2'],2,1673,[0.10607677],67,44,hard,minus,dotcolour,beta,,,42,18,V,R,
455,77,35,10,3,44,36,583,['c'],1,left,['0'],6,239,[0.15977311],98,44,hard,minus,dotcolour,beta,,,42,18,V,R,
456,78,36,10,3,53,27,450,['n'],0,left,['0'],6,437,[0.02040406],11,53,easy,minus,dotcolour,beta,,,42,18,V,R,
457,79,37,10,3,36,44,1634,['n'],1,right,['1'],1,171,[-0.17862428],100,44,hard,minus,dotcolour,beta,,,42,18,V,R,
458,80,38,10,3,44,36,384,['n'],0,left,['0'],6,199,[-0.04984609],44,44,hard,minus,dotcolour,beta,,,42,18,V,R,
459,81,39,10,3,36,44,317,['n'],1,right,['2'],2,108,[-0.1017991],93,44,hard,minus,dotcolour,beta,,,42,18,V,R,
460,82,40,10,3,47,33,153,['n'],0,left,['2'],2,49,[-0.02496432],8,47,medium,minus,dotcolour,beta,,,42,18,V,R,
461,83,41,10,3,47,33,334,['c'],1,left,['9'],5,2,[0.06929748],100,47,medium,minus,dotcolour,beta,,,42,18,V,R,
462,84,0,11,3,27,53,1933,['c'],0,right,['1'],1,1967,[-0.19756341],4,53,easy,minus,dotcolour,beta,,,42,18,V,R,
463,85,1,11,3,44,36,433,['c'],1,left,['0'],6,39,[0.06575608],72,44,hard,minus,dotcolour,beta,,,42,18,V,R,
464,86,2,11,3,33,47,550,['n'],1,right,"['1', '9']",1,307,[-0.15540536],96,47,medium,minus,dotcolour,beta,,,42,18,V,R,
465,87,3,11,3,44,36,1334,['c'],1,left,['9'],5,673,[0.1251213],82,44,hard,minus,dotcolour,beta,,,42,18,V,R,
466,88,4,11,3,36,44,350,['n'],1,right,['0'],6,433,[-0.21312681],99,44,hard,minus,dotcolour,beta,,,42,18,V,R,
467,89,5,11,3,47,33,267,['n'],0,left,['2'],2,334,[-0.05341168],48,47,medium,minus,dotcolour,beta,,,42,18,V,R,
468,90,6,11,3,53,27,75,['c'],1,left,['8'],4,331,[0.1616914],97,53,easy,minus,dotcolour,beta,,,42,18,V,R,
469,91,7,11,3,36,44,3150,['n'],1,right,['2'],2,49,[-0.06250203],64,44,hard,minus,dotcolour,beta,,,42,18,V,R,
470,92,8,11,3,53,27,1117,['n'],0,left,['2'],2,507,[-0.08870236],70,53,easy,minus,dotcolour,beta,,,42,18,V,R,
471,93,9,11,3,53,27,684,['c'],1,left,['9'],5,261,[0.00842367],16,53,easy,minus,dotcolour,beta,,,42,18,V,R,
472,94,10,11,3,44,36,500,['c'],1,left,['0'],6,367,[0.11569315],86,44,hard,minus,dotcolour,beta,,,42,18,V,R,
473,95,11,11,3,44,36,1433,['n'],0,left,['0'],6,161,[-0.01897131],16,44,hard,minus,dotcolour,beta,,,42,18,V,R,
474,96,12,11,3,27,53,316,['c'],0,right,['0'],6,175,[0.03696319],31,53,easy,minus,dotcolour,beta,,,42,18,V,R,
475,97,13,11,3,33,47,350,['n'],1,right,['0'],6,634,[-0.14512116],88,47,medium,minus,dotcolour,beta,,,42,18,V,R,
476,98,14,11,3,47,33,451,['c'],1,left,['2'],2,17,[0.08238334],98,47,medium,minus,dotcolour,beta,,,42,18,V,R,
477,99,15,11,3,27,53,1250,['c'],0,right,['9'],5,703,[-0.06226933],7,53,easy,minus,dotcolour,beta,,,42,18,V,R,
478,100,16,11,3,33,47,367,['c'],0,right,['2'],2,29,[0.06837408],79,47,medium,minus,dotcolour,beta,,,42,18,V,R,
479,101,17,11,3,36,44,267,['n'],1,right,['2'],2,274,[0.00966774],10,44,hard,minus,dotcolour,beta,,,42,18,V,R,
480,102,18,11,3,53,27,817,['n'],0,left,['2'],2,2144,[0.2492583],2,53,easy,minus,dotcolour,beta,,,42,18,V,R,
481,103,19,11,3,47,33,618,['n'],0,left,['0'],6,1306,[0.09483945],9,47,medium,minus,dotcolour,beta,,,42,18,V,R,
482,104,20,11,3,33,47,1601,['c'],0,right,['0'],6,423,[-0.01979129],11,47,medium,minus,dotcolour,beta,,,42,18,V,R,
483,105,21,11,3,36,44,1466,['n'],1,right,"['9', '0']",5,277,[-0.07154973],63,44,hard,minus,dotcolour,beta,,,42,18,V,R,
484,106,22,11,3,33,47,384,['n'],1,right,['9'],5,195,[-0.10592912],89,47,medium,minus,dotcolour,beta,,,42,18,V,R,
485,107,23,11,3,53,27,833,['n'],0,left,['9'],5,179,[-0.04588539],40,53,easy,minus,dotcolour,beta,,,42,18,V,R,
486,108,24,11,3,27,53,1118,['n'],1,right,['3'],3,192,[-0.10903996],90,53,easy,minus,dotcolour,beta,,,42,18,V,R,
487,109,25,11,3,47,33,2417,['c'],1,left,['9'],5,273,[0.18356877],99,47,medium,minus,dotcolour,beta,,,42,18,V,R,
488,110,26,11,3,47,33,867,['n'],0,left,['2'],2,60,[-0.05430244],48,47,medium,minus,dotcolour,beta,,,42,18,V,R,
489,111,27,11,3,44,36,2149,['n'],0,left,['2'],2,253,[-0.08179082],72,44,hard,minus,dotcolour,beta,,,42,18,V,R,
490,112,28,11,3,27,53,1933,['n'],1,right,['2'],2,167,[-0.05222732],46,53,easy,minus,dotcolour,beta,,,42,18,V,R,
491,113,29,11,3,53,27,1267,['n'],0,left,['2'],2,440,[-0.00823532],22,53,easy,minus,dotcolour,beta,,,42,18,V,R,
492,114,30,11,3,44,36,717,['n'],0,left,['2'],2,442,[-0.07927704],66,44,hard,minus,dotcolour,beta,,,42,18,V,R,
493,115,31,11,3,27,53,3250,['n'],1,right,['9'],5,1759,[-0.27869326],95,53,easy,minus,dotcolour,beta,,,42,18,V,R,
494,116,32,11,3,53,27,499,['n'],0,left,['2'],2,181,[-0.04202053],36,53,easy,minus,dotcolour,beta,,,42,18,V,R,
495,117,33,11,3,27,53,933,['n'],1,right,['9'],5,258,[-0.05939895],53,53,easy,minus,dotcolour,beta,,,42,18,V,R,
496,118,34,11,3,47,33,851,['n'],0,left,['0'],6,135,[-0.09924239],89,47,medium,minus,dotcolour,beta,,,42,18,V,R,
497,119,35,11,3,47,33,300,['c'],1,left,['2'],2,23,[0.0764931],92,47,medium,minus,dotcolour,beta,,,42,18,V,R,
498,120,36,11,3,36,44,317,['n'],1,right,['1'],1,195,[-0.13141599],96,44,hard,minus,dotcolour,beta,,,42,18,V,R,
499,121,37,11,3,36,44,284,['c'],0,right,['0'],6,1178,[0.02068033],36,44,hard,minus,dotcolour,beta,,,42,18,V,R,
500,122,38,11,3,33,47,333,['c'],0,right,['0'],6,126,[0.03207],23,47,medium,minus,dotcolour,beta,,,42,18,V,R,
501,123,39,11,3,36,44,51,['n'],1,right,['0'],6,50,[-0.04519954],30,44,hard,minus,dotcolour,beta,,,42,18,V,R,
502,124,40,11,3,44,36,283,['c'],1,left,['0'],6,22,[0.06336967],72,44,hard,minus,dotcolour,beta,,,42,18,V,R,
503,125,41,11,3,33,47,283,['c'],0,right,['0'],6,155,[0.03541435],28,47,medium,minus,dotcolour,beta,,,42,18,V,R,
504,0,0,12,4,53,27,1002,['n'],0,left,['9'],5,1579,[0.11475877],30,53,easy,plus,dotcolour,beta,,,42,18,V,R,
505,1,1,12,4,36,44,350,['n'],1,right,['1'],1,350,[-0.03436741],94,44,hard,plus,dotcolour,beta,,,42,18,V,R,
506,2,2,12,4,27,53,2534,['n'],1,right,['2'],2,348,[-0.13473003],100,53,easy,plus,dotcolour,beta,,,42,18,V,R,
507,3,3,12,4,27,53,383,['n'],1,right,['1'],1,184,[-0.12251868],100,53,easy,plus,dotcolour,beta,,,42,18,V,R,
508,4,4,12,4,33,47,767,['n'],1,right,['3'],3,59,[-0.06563911],100,47,medium,plus,dotcolour,beta,,,42,18,V,R,
509,5,5,12,4,36,44,1782,['n'],1,right,['9'],5,395,[-0.12893235],99,44,hard,plus,dotcolour,beta,,,42,18,V,R,
510,6,6,12,4,27,53,934,['n'],1,right,['0'],6,63,[-0.13518631],100,53,easy,plus,dotcolour,beta,,,42,18,V,R,
511,7,7,12,4,33,47,2599,['n'],1,right,['3'],3,86,[-0.04311103],100,47,medium,plus,dotcolour,beta,,,42,18,V,R,
512,8,8,12,4,27,53,433,['n'],1,right,['2'],2,178,[-0.06920466],100,53,easy,plus,dotcolour,beta,,,42,18,V,R,
513,9,9,12,4,44,36,283,['n'],0,left,['2'],2,97,[-0.01720737],99,44,hard,plus,dotcolour,beta,,,42,18,V,R,
514,10,10,12,4,53,27,367,['n'],0,left,['8'],4,24,[-0.08646366],100,53,easy,plus,dotcolour,beta,,,42,18,V,R,
515,11,11,12,4,47,33,2233,['n'],0,left,['9'],5,47,[-0.0952933],100,47,medium,plus,dotcolour,beta,,,42,18,V,R,
516,12,12,12,4,53,27,300,['n'],0,left,['2'],2,99,[-0.03051678],99,53,easy,plus,dotcolour,beta,,,42,18,V,R,
517,13,13,12,4,44,36,718,['c'],1,left,"['9', '0']",5,299,[0.09037299],99,44,hard,plus,dotcolour,beta,,,42,18,V,R,
518,14,14,12,4,33,47,1350,['c'],0,right,['3'],3,154,[0.03176014],98,47,medium,plus,dotcolour,beta,,,42,18,V,R,
519,15,15,12,4,47,33,417,['c'],1,left,['2'],2,181,[0.13138746],100,47,medium,plus,dotcolour,beta,,,42,18,V,R,
520,16,16,12,4,27,53,300,['n'],1,right,['2'],2,35,[-0.05816664],100,53,easy,plus,dotcolour,beta,,,42,18,V,R,
521,17,17,12,4,36,44,466,['n'],1,right,['0'],6,240,[-0.07915912],99,44,hard,plus,dotcolour,beta,,,42,18,V,R,
522,18,18,12,4,36,44,866,['n'],1,right,['2'],2,117,[-0.01743644],98,44,hard,plus,dotcolour,beta,,,42,18,V,R,
523,19,19,12,4,36,44,683,['n'],1,right,['8'],4,270,[-0.12959138],100,44,hard,plus,dotcolour,beta,,,42,18,V,R,
524,20,20,12,4,33,47,400,['n'],1,right,['3'],3,125,[-0.0341686],99,47,medium,plus,dotcolour,beta,,,42,18,V,R,
525,21,21,12,4,53,27,484,['n'],0,left,['9'],5,582,[0.05621747],50,53,easy,plus,dotcolour,beta,,,42,18,V,R,
526,22,22,12,4,47,33,1100,['c'],1,left,['0'],6,395,[0.19020815],100,47,medium,plus,dotcolour,beta,,,42,18,V,R,
527,23,23,12,4,27,53,1100,['n'],1,right,['9'],5,313,[-0.06125912],98,53,easy,plus,dotcolour,beta,,,42,18,V,R,
528,24,24,12,4,53,27,783,['c'],1,left,['3'],3,134,[0.09121437],100,53,easy,plus,dotcolour,beta,,,42,18,V,R,
529,25,25,12,4,53,27,967,['c'],1,left,['3'],3,348,[0.20007258],100,53,easy,plus,dotcolour,beta,,,42,18,V,R,
530,26,26,12,4,44,36,417,['c'],1,left,['3'],3,22,[0.0891907],100,44,hard,plus,dotcolour,beta,,,42,18,V,R,
531,27,27,12,4,33,47,366,['c'],0,right,['2'],2,120,[0.04872566],100,47,medium,plus,dotcolour,beta,,,42,18,V,R,
532,28,28,12,4,36,44,1433,['c'],0,right,['0'],6,196,[0.07238764],99,44,hard,plus,dotcolour,beta,,,42,18,V,R,
533,29,29,12,4,33,47,334,['n'],1,right,['0'],6,152,[-0.07044574],100,47,medium,plus,dotcolour,beta,,,42,18,V,R,
534,30,30,12,4,47,33,366,['n'],0,left,['0'],6,165,[-0.04570141],99,47,medium,plus,dotcolour,beta,,,42,18,V,R,
535,31,31,12,4,44,36,316,['n'],0,left,['2'],2,267,[-0.02910932],95,44,hard,plus,dotcolour,beta,,,42,18,V,R,
536,32,32,12,4,44,36,400,['n'],0,left,['2'],2,289,[-0.14625539],100,44,hard,plus,dotcolour,beta,,,42,18,V,R,
537,33,33,12,4,27,53,467,['n'],1,right,['2'],2,220,[-0.13458617],100,53,easy,plus,dotcolour,beta,,,42,18,V,R,
538,34,34,12,4,53,27,884,['n'],0,left,['2'],2,489,[-0.07100272],96,53,easy,plus,dotcolour,beta,,,42,18,V,R,
539,35,35,12,4,47,33,417,['n'],0,left,['2'],2,230,[-0.08604053],100,47,medium,plus,dotcolour,beta,,,42,18,V,R,
540,36,36,12,4,47,33,449,['n'],0,left,['2'],2,180,[-0.06344822],99,47,medium,plus,dotcolour,beta,,,42,18,V,R,
541,37,37,12,4,47,33,549,['n'],0,left,['9'],5,464,[-0.05806028],95,47,medium,plus,dotcolour,beta,,,42,18,V,R,
542,38,38,12,4,33,47,334,['c'],0,right,['2'],2,138,[0.03828145],99,47,medium,plus,dotcolour,beta,,,42,18,V,R,
543,39,39,12,4,44,36,534,['n'],0,left,['2'],2,136,[-0.03233801],99,44,hard,plus,dotcolour,beta,,,42,18,V,R,
544,40,40,12,4,36,44,182,['c'],0,right,['2'],2,61,[0.00870469],99,44,hard,plus,dotcolour,beta,,,42,18,V,R,
545,41,41,12,4,44,36,350,['n'],0,left,['9'],5,77,[-0.08026397],100,44,hard,plus,dotcolour,beta,,,42,18,V,R,
546,42,0,13,4,33,47,1034,['c'],0,right,['0'],6,171,[0.07169765],100,47,medium,plus,dotcolour,beta,,,42,18,V,R,
547,43,1,13,4,44,36,333,['c'],1,left,['2'],2,136,[0.13005776],100,44,hard,plus,dotcolour,beta,,,42,18,V,R,
548,44,2,13,4,36,44,283,['n'],1,right,"['9', '0']",5,137,[-0.12850629],100,44,hard,plus,dotcolour,beta,,,42,18,V,R,
549,45,3,13,4,44,36,249,['c'],1,left,['2'],2,91,[0.06197456],100,44,hard,plus,dotcolour,beta,,,42,18,V,R,
550,46,4,13,4,53,27,600,['c'],1,left,['0'],6,664,[0.08816733],96,53,easy,plus,dotcolour,beta,,,42,18,V,R,
551,47,5,13,4,47,33,349,['c'],1,left,['2'],2,161,[0.04988544],99,47,medium,plus,dotcolour,beta,,,42,18,V,R,
552,48,6,13,4,44,36,216,['n'],0,left,['0'],6,212,[-0.06191835],99,44,hard,plus,dotcolour,beta,,,42,18,V,R,
553,49,7,13,4,53,27,534,['n'],0,left,['2'],2,198,[0.03320891],71,53,easy,plus,dotcolour,beta,,,42,18,V,R,
554,50,8,13,4,47,33,384,['n'],0,left,['2'],2,152,[-0.06754851],100,47,medium,plus,dotcolour,beta,,,42,18,V,R,
555,51,9,13,4,27,53,751,['n'],1,right,['0'],6,158,[-0.09388152],100,53,easy,plus,dotcolour,beta,,,42,18,V,R,
556,52,10,13,4,36,44,884,['c'],0,right,['8'],4,301,[0.05941735],98,44,hard,plus,dotcolour,beta,,,42,18,V,R,
557,53,11,13,4,36,44,684,['n'],1,right,['0'],6,175,[-0.05616493],99,44,hard,plus,dotcolour,beta,,,42,18,V,R,
558,54,12,13,4,44,36,384,['n'],0,left,['2'],2,226,[-0.03572184],97,44,hard,plus,dotcolour,beta,,,42,18,V,R,
559,55,13,13,4,47,33,567,['n'],0,left,['9'],5,163,[0.00535709],90,47,medium,plus,dotcolour,beta,,,42,18,V,R,
560,56,14,13,4,53,27,383,['n'],0,left,['2'],2,191,[0.01396427],85,53,easy,plus,dotcolour,beta,,,42,18,V,R,
561,57,15,13,4,44,36,351,['n'],0,left,['2'],2,234,[-0.06199692],99,44,hard,plus,dotcolour,beta,,,42,18,V,R,
562,58,16,13,4,53,27,1450,['n'],0,left,['2'],2,152,[-0.06359917],100,53,easy,plus,dotcolour,beta,,,42,18,V,R,
563,59,17,13,4,33,47,817,['n'],1,right,['9'],5,75,[-0.0658217],100,47,medium,plus,dotcolour,beta,,,42,18,V,R,
564,60,18,13,4,47,33,451,['c'],1,left,['1'],1,7,[0.07209678],100,47,medium,plus,dotcolour,beta,,,42,18,V,R,
565,61,19,13,4,33,47,249,['c'],0,right,['2'],2,118,[0.05453004],100,47,medium,plus,dotcolour,beta,,,42,18,V,R,
566,62,20,13,4,36,44,233,['c'],0,right,['1'],1,226,[-0.01752785],81,44,hard,plus,dotcolour,beta,,,42,18,V,R,
567,63,21,13,4,27,53,449,['n'],1,right,['1'],1,2304,[-0.44077429],100,53,easy,plus,dotcolour,beta,,,42,18,V,R,
568,64,22,13,4,47,33,2366,['c'],1,left,['9'],5,341,[0.1306789],100,47,medium,plus,dotcolour,beta,,,42,18,V,R,
569,65,23,13,4,33,47,1600,['n'],1,right,['0'],6,713,[-0.17210906],99,47,medium,plus,dotcolour,beta,,,42,18,V,R,
570,66,24,13,4,33,47,283,['n'],1,right,['2'],2,122,[-0.08401856],100,47,medium,plus,dotcolour,beta,,,42,18,V,R,
571,67,25,13,4,36,44,401,['n'],1,right,['8'],4,31,[-0.09144585],100,44,hard,plus,dotcolour,beta,,,42,18,V,R,
572,68,26,13,4,53,27,184,['n'],0,left,['2'],2,95,[-0.0122008],98,53,easy,plus,dotcolour,beta,,,42,18,V,R,
573,69,27,13,4,27,53,416,['n'],1,right,['2'],2,243,[-0.03575312],97,53,easy,plus,dotcolour,beta,,,42,18,V,R,
574,70,28,13,4,47,33,350,['c'],1,left,['2'],2,213,[0.1140558],100,47,medium,plus,dotcolour,beta,,,42,18,V,R,
575,71,29,13,4,53,27,584,['c'],1,left,['8'],4,78,[0.05055586],100,53,easy,plus,dotcolour,beta,,,42,18,V,R,
576,72,30,13,4,33,47,1349,['n'],1,right,['3'],3,134,[-0.05593074],100,47,medium,plus,dotcolour,beta,,,42,18,V,R,
577,73,31,13,4,27,53,367,['n'],1,right,['0'],6,36,[-0.07748189],100,53,easy,plus,dotcolour,beta,,,42,18,V,R,
578,74,32,13,4,53,27,216,['n'],0,left,['2'],2,115,[-0.03723418],99,53,easy,plus,dotcolour,beta,,,42,18,V,R,
579,75,33,13,4,47,33,400,['c'],1,left,['8'],4,183,[0.07365496],100,47,medium,plus,dotcolour,beta,,,42,18,V,R,
580,76,34,13,4,27,53,267,['n'],1,right,['0'],6,215,[-0.10952036],100,53,easy,plus,dotcolour,beta,,,42,18,V,R,
581,77,35,13,4,33,47,650,['n'],1,right,['2'],2,30,[-0.10381105],100,47,medium,plus,dotcolour,beta,,,42,18,V,R,
582,78,36,13,4,27,53,1550,['n'],1,right,['2'],2,175,[-0.08097057],100,53,easy,plus,dotcolour,beta,,,42,18,V,R,
583,79,37,13,4,44,36,1267,['n'],0,left,['8'],4,119,[-0.11965907],100,44,hard,plus,dotcolour,beta,,,42,18,V,R,
584,80,38,13,4,36,44,734,['n'],1,right,['2'],2,190,[-0.0371097],98,44,hard,plus,dotcolour,beta,,,42,18,V,R,
585,81,39,13,4,44,36,233,['n'],0,left,['2'],2,166,[-0.03007361],98,44,hard,plus,dotcolour,beta,,,42,18,V,R,
586,82,40,13,4,36,44,450,['n'],1,right,['2'],2,440,[-0.16625402],100,44,hard,plus,dotcolour,beta,,,42,18,V,R,
587,83,41,13,4,27,53,400,['c'],0,right,['0'],6,1758,[0.05012301],81,53,easy,plus,dotcolour,beta,,,42,18,V,R,
588,84,0,14,4,27,53,1084,['n'],1,right,['2'],2,274,[-0.15558402],100,53,easy,plus,dotcolour,beta,,,42,18,V,R,
589,85,1,14,4,36,44,350,['n'],1,right,['2'],2,249,[-0.15595452],100,44,hard,plus,dotcolour,beta,,,42,18,V,R,
590,86,2,14,4,44,36,367,['n'],0,left,['2'],2,98,[-0.07629533],100,44,hard,plus,dotcolour,beta,,,42,18,V,R,
591,87,3,14,4,27,53,618,['n'],1,right,['1'],1,319,[-0.08738844],99,53,easy,plus,dotcolour,beta,,,42,18,V,R,
592,88,4,14,4,47,33,1532,['c'],1,left,['9'],5,2158,[0.29591342],99,47,medium,plus,dotcolour,beta,,,42,18,V,R,
593,89,5,14,4,36,44,733,['c'],0,right,['9'],5,299,[0.02621913],94,44,hard,plus,dotcolour,beta,,,42,18,V,R,
594,90,6,14,4,33,47,129,['n'],1,right,['2'],2,65,[-0.08102381],100,47,medium,plus,dotcolour,beta,,,42,18,V,R,
595,91,7,14,4,36,44,417,['n'],1,right,['2'],2,6,[-0.07713371],100,44,hard,plus,dotcolour,beta,,,42,18,V,R,
596,92,8,14,4,53,27,516,['n'],0,left,['0'],6,204,[-0.04168577],98,53,easy,plus,dotcolour,beta,,,42,18,V,R,
597,93,9,14,4,27,53,266,['n'],1,right,['2'],2,66,[-0.06811391],100,53,easy,plus,dotcolour,beta,,,42,18,V,R,
598,94,10,14,4,47,33,299,['c'],1,left,['2'],2,5,[0.06758343],100,47,medium,plus,dotcolour,beta,,,42,18,V,R,
599,95,11,14,4,47,33,1783,['c'],1,left,['0'],6,431,[0.08670071],98,47,medium,plus,dotcolour,beta,,,42,18,V,R,
600,96,12,14,4,33,47,484,['n'],1,right,['2'],2,44,[-0.06447822],100,47,medium,plus,dotcolour,beta,,,42,18,V,R,
601,97,13,14,4,33,47,483,['n'],1,right,['0'],6,56,[-0.07773839],100,47,medium,plus,dotcolour,beta,,,42,18,V,R,
602,98,14,14,4,47,33,566,['n'],0,left,"['1', '2']",1,344,[0.04127158],61,47,medium,plus,dotcolour,beta,,,42,18,V,R,
603,99,15,14,4,44,36,174,['c'],1,left,['8'],4,1820,[0.14800986],94,44,hard,plus,dotcolour,beta,,,42,18,V,R,
604,100,16,14,4,53,27,450,['n'],0,left,['2'],2,66,[-0.06488955],100,53,easy,plus,dotcolour,beta,,,42,18,V,R,
605,101,17,14,4,44,36,284,['c'],1,left,['9'],5,413,[0.07447677],97,44,hard,plus,dotcolour,beta,,,42,18,V,R,
606,102,18,14,4,33,47,145,['n'],1,right,['9'],5,846,[-0.08793605],94,47,medium,plus,dotcolour,beta,,,42,18,V,R,
607,103,19,14,4,53,27,417,['c'],1,left,['1'],1,204,[0.06764671],99,53,easy,plus,dotcolour,beta,,,42,18,V,R,
608,104,20,14,4,27,53,566,['c'],0,right,['2'],2,79,[0.09732553],100,53,easy,plus,dotcolour,beta,,,42,18,V,R,
609,105,21,14,4,44,36,550,['n'],0,left,['2'],2,47,[-0.06385765],100,44,hard,plus,dotcolour,beta,,,42,18,V,R,
610,106,22,14,4,33,47,651,['n'],1,right,['2'],2,132,[-0.04937366],99,47,medium,plus,dotcolour,beta,,,42,18,V,R,
611,107,23,14,4,53,27,1000,['n'],0,left,['2'],2,88,[-0.0492197],100,53,easy,plus,dotcolour,beta,,,42,18,V,R,
612,108,24,14,4,44,36,1717,['n'],0,left,['2'],2,3162,[-0.19119515],92,44,hard,plus,dotcolour,beta,,,42,18,V,R,
613,109,25,14,4,27,53,716,['c'],0,right,['9'],5,216,[0.07446489],99,53,easy,plus,dotcolour,beta,,,42,18,V,R,
614,110,26,14,4,47,33,350,['n'],0,left,['2'],2,162,[-0.03909356],99,47,medium,plus,dotcolour,beta,,,42,18,V,R,
615,111,27,14,4,27,53,383,['c'],0,right,['2'],2,29,[0.08485021],100,53,easy,plus,dotcolour,beta,,,42,18,V,R,
616,112,28,14,4,33,47,334,['n'],1,right,['1'],1,72,[-0.06136285],100,47,medium,plus,dotcolour,beta,,,42,18,V,R,
617,113,29,14,4,44,36,266,['c'],1,left,['2'],2,212,[0.12066862],100,44,hard,plus,dotcolour,beta,,,42,18,V,R,
618,114,30,14,4,36,44,266,['n'],1,right,['0'],6,219,[-0.09674983],100,44,hard,plus,dotcolour,beta,,,42,18,V,R,
619,115,31,14,4,27,53,317,['n'],1,right,['1'],1,118,[-0.11479503],100,53,easy,plus,dotcolour,beta,,,42,18,V,R,
620,116,32,14,4,36,44,917,['n'],1,right,['2'],2,918,[-0.16030016],98,44,hard,plus,dotcolour,beta,,,42,18,V,R,
621,117,33,14,4,36,44,300,['n'],1,right,['2'],2,110,[-0.13213901],100,44,hard,plus,dotcolour,beta,,,42,18,V,R,
622,118,34,14,4,53,27,384,['n'],0,left,['1'],1,139,[-0.01867574],97,53,easy,plus,dotcolour,beta,,,42,18,V,R,
623,119,35,14,4,53,27,333,['n'],0,left,['0'],6,178,[-0.02292441],97,53,easy,plus,dotcolour,beta,,,42,18,V,R,
624,120,36,14,4,33,47,173,['n'],1,right,['9'],5,188,[-0.12250078],100,47,medium,plus,dotcolour,beta,,,42,18,V,R,
625,121,37,14,4,47,33,119,['c'],1,left,['9'],5,239,[-0.05185591],53,47,medium,plus,dotcolour,beta,,,42,18,V,R,
626,122,38,14,4,44,36,1583,['n'],0,left,['2'],2,191,[-0.04942141],99,44,hard,plus,dotcolour,beta,,,42,18,V,R,
627,123,39,14,4,53,27,1600,['c'],1,left,['3'],3,808,[0.13699425],98,53,easy,plus,dotcolour,beta,,,42,18,V,R,
628,124,40,14,4,36,44,137,['c'],0,right,['2'],2,2137,[-0.37063585],2,44,hard,plus,dotcolour,beta,,,42,18,V,R,
629,125,41,14,4,47,33,1350,['n'],0,left,['8'],4,214,[-0.03748341],97,47,medium,plus,dotcolour,beta,,,42,18,V,R,
630,0,0,15,5,36,44,634,['n'],1,right,['0'],6,118,[-0.07746801],76,44,hard,minus,dotcolour,beta,,,42,18,V,R,
631,1,1,15,5,36,44,233,['n'],1,right,['2'],2,106,[-0.0525103],46,44,hard,minus,dotcolour,beta,,,42,18,V,R,
632,2,2,15,5,47,33,284,['n'],0,left,['2'],2,52,[-0.04504806],30,47,medium,minus,dotcolour,beta,,,42,18,V,R,
633,3,3,15,5,33,47,116,['n'],1,right,['0'],6,52,[-0.10465064],98,47,medium,minus,dotcolour,beta,,,42,18,V,R,
634,4,4,15,5,44,36,216,['n'],0,left,['2'],2,98,[-0.09563243],91,44,hard,minus,dotcolour,beta,,,42,18,V,R,
635,5,5,15,5,36,44,192,['n'],1,right,['2'],2,112,[-0.06957722],68,44,hard,minus,dotcolour,beta,,,42,18,V,R,
636,6,6,15,5,53,27,141,['n'],0,left,['2'],2,85,[-0.0742545],76,53,easy,minus,dotcolour,beta,,,42,18,V,R,
637,7,7,15,5,33,47,99,['n'],1,right,['2'],2,74,[-0.0578266],54,47,medium,minus,dotcolour,beta,,,42,18,V,R,
638,8,8,15,5,44,36,467,['n'],0,left,['2'],2,229,[-0.02892055],27,44,hard,minus,dotcolour,beta,,,42,18,V,R,
639,9,9,15,5,47,33,199,['n'],0,left,['2'],2,190,[-0.04441759],39,47,medium,minus,dotcolour,beta,,,42,18,V,R,
640,10,10,15,5,53,27,105,['c'],1,left,['2'],2,64,[0.13379414],100,53,easy,minus,dotcolour,beta,,,42,18,V,R,
641,11,11,15,5,47,33,159,['c'],1,left,['2'],2,6,[0.06309626],85,47,medium,minus,dotcolour,beta,,,42,18,V,R,
642,12,12,15,5,53,27,216,['n'],0,left,['0'],6,135,[-0.01139083],10,53,easy,minus,dotcolour,beta,,,42,18,V,R,
643,13,13,15,5,44,36,156,['c'],1,left,['2'],2,35,[0.07366928],85,44,hard,minus,dotcolour,beta,,,42,18,V,R,
644,14,14,15,5,36,44,92,['n'],1,right,['2'],2,67,[-0.08770733],90,44,hard,minus,dotcolour,beta,,,42,18,V,R,
645,15,15,15,5,36,44,250,['n'],1,right,['2'],2,183,[-0.09086201],82,44,hard,minus,dotcolour,beta,,,42,18,V,R,
646,16,16,15,5,36,44,249,['n'],1,right,['2'],2,119,[-0.14549848],99,44,hard,minus,dotcolour,beta,,,42,18,V,R,
647,17,17,15,5,47,33,117,['c'],1,left,['9'],5,77,[0.0865626],88,47,medium,minus,dotcolour,beta,,,42,18,V,R,
648,18,18,15,5,47,33,140,['n'],0,left,['2'],2,114,[0.02559569],1,47,medium,minus,dotcolour,beta,,,42,18,V,R,
649,19,19,15,5,53,27,176,['c'],1,left,['2'],2,167,[0.1661449],99,53,easy,minus,dotcolour,beta,,,42,18,V,R,
650,20,20,15,5,27,53,484,['c'],0,right,['0'],6,278,[0.08146646],71,53,easy,minus,dotcolour,beta,,,42,18,V,R,
651,21,21,15,5,36,44,284,['n'],1,right,['2'],2,32,[-0.08502521],95,44,hard,minus,dotcolour,beta,,,42,18,V,R,
652,22,22,15,5,27,53,300,['n'],1,right,['2'],2,189,[-0.07284737],67,53,easy,minus,dotcolour,beta,,,42,18,V,R,
653,23,23,15,5,47,33,483,['c'],1,left,['2'],2,1332,[0.38845113],99,47,medium,minus,dotcolour,beta,,,42,18,V,R,
654,24,24,15,5,44,36,3000,['n'],0,left,['2'],2,391,[-0.07965749],67,44,hard,minus,dotcolour,beta,,,42,18,V,R,
655,25,25,15,5,33,47,1016,['n'],1,right,['0'],6,320,[-0.14292428],94,47,medium,minus,dotcolour,beta,,,42,18,V,R,
656,26,26,15,5,53,27,250,['n'],0,left,['0'],6,146,[-0.02656558],20,53,easy,minus,dotcolour,beta,,,42,18,V,R,
657,27,27,15,5,53,27,2217,['c'],1,left,['2'],2,213,[0.11101425],90,53,easy,minus,dotcolour,beta,,,42,18,V,R,
658,28,28,15,5,53,27,700,['c'],1,left,['2'],2,257,[0.07786716],69,53,easy,minus,dotcolour,beta,,,42,18,V,R,
659,29,29,15,5,27,53,401,['n'],1,right,['0'],6,185,[-0.15790515],99,53,easy,minus,dotcolour,beta,,,42,18,V,R,
660,30,30,15,5,33,47,601,['n'],1,right,['9'],5,106,[-0.09970822],92,47,medium,minus,dotcolour,beta,,,42,18,V,R,
661,31,31,15,5,44,36,533,['n'],0,left,['2'],2,74,[-0.05820089],54,44,hard,minus,dotcolour,beta,,,42,18,V,R,
662,32,32,15,5,47,33,349,['c'],1,left,['2'],2,58,[0.09357006],94,47,medium,minus,dotcolour,beta,,,42,18,V,R,
663,33,33,15,5,33,47,733,['n'],1,right,['2'],2,155,[-0.13085919],97,47,medium,minus,dotcolour,beta,,,42,18,V,R,
664,34,34,15,5,27,53,317,['n'],1,right,['2'],2,161,[-0.0804586],75,53,easy,minus,dotcolour,beta,,,42,18,V,R,
665,35,35,15,5,44,36,284,['c'],1,left,['0'],6,201,[0.07490406],68,44,hard,minus,dotcolour,beta,,,42,18,V,R,
666,36,36,15,5,27,53,250,['n'],1,right,['2'],2,120,[-0.05934446],55,53,easy,minus,dotcolour,beta,,,42,18,V,R,
667,37,37,15,5,44,36,400,['n'],0,left,['2'],2,237,[-0.00253131],12,44,hard,minus,dotcolour,beta,,,42,18,V,R,
668,38,38,15,5,33,47,417,['c'],0,right,['2'],2,116,[0.0425329],33,47,medium,minus,dotcolour,beta,,,42,18,V,R,
669,39,39,15,5,27,53,667,['n'],1,right,['0'],6,318,[-0.21987927],99,53,easy,minus,dotcolour,beta,,,42,18,V,R,
670,40,40,15,5,33,47,367,['n'],1,right,['0'],6,196,[-0.10340624],87,47,medium,minus,dotcolour,beta,,,42,18,V,R,
671,41,41,15,5,27,53,384,['c'],0,right,['9'],5,1807,[-0.06920714],16,53,easy,minus,dotcolour,beta,,,42,18,V,R,
672,42,0,16,5,44,36,568,['n'],0,left,['2'],2,102,[-0.08267242],82,44,hard,minus,dotcolour,beta,,,42,18,V,R,
673,43,1,16,5,27,53,125,['n'],1,right,['2'],2,76,[-0.07726238],80,53,easy,minus,dotcolour,beta,,,42,18,V,R,
674,44,2,16,5,44,36,316,['n'],0,left,['2'],2,181,[-0.02949327],25,44,hard,minus,dotcolour,beta,,,42,18,V,R,
675,45,3,16,5,47,33,128,['n'],0,left,['2'],2,40,[-0.08285898],92,47,medium,minus,dotcolour,beta,,,42,18,V,R,
676,46,4,16,5,47,33,249,['n'],0,left,['2'],2,101,[-0.01439574],9,47,medium,minus,dotcolour,beta,,,42,18,V,R,
677,47,5,16,5,44,36,1717,['n'],0,left,['9'],5,486,[-0.05368783],49,44,hard,minus,dotcolour,beta,,,42,18,V,R,
678,48,6,16,5,44,36,283,['n'],0,left,['2'],2,192,[-0.04892852],43,44,hard,minus,dotcolour,beta,,,42,18,V,R,
679,49,7,16,5,33,47,35,['n'],1,right,['2'],2,50,[-0.05613305],51,47,medium,minus,dotcolour,beta,,,42,18,V,R,
680,50,8,16,5,53,27,170,['n'],0,left,['2'],2,129,[-0.05206396],46,53,easy,minus,dotcolour,beta,,,42,18,V,R,
681,51,9,16,5,44,36,70,['n'],0,left,['2'],2,85,[-0.06086306],58,44,hard,minus,dotcolour,beta,,,42,18,V,R,
682,52,10,16,5,33,47,416,['n'],1,right,['0'],6,1179,[-0.28686052],98,47,medium,minus,dotcolour,beta,,,42,18,V,R,
683,53,11,16,5,36,44,349,['n'],1,right,['2'],2,47,[-0.06189351],63,44,hard,minus,dotcolour,beta,,,42,18,V,R,
684,54,12,16,5,27,53,249,['n'],1,right,['0'],6,147,[-0.0888908],83,53,easy,minus,dotcolour,beta,,,42,18,V,R,
685,55,13,16,5,53,27,301,['c'],1,left,['2'],2,115,[0.05232732],46,53,easy,minus,dotcolour,beta,,,42,18,V,R,
686,56,14,16,5,33,47,300,['n'],1,right,['9'],5,99,[-0.1030773],94,47,medium,minus,dotcolour,beta,,,42,18,V,R,
687,57,15,16,5,27,53,17,['n'],1,right,['2'],2,137,[-0.0676781],64,53,easy,minus,dotcolour,beta,,,42,18,V,R,
688,58,16,16,5,27,53,78,['n'],1,right,['0'],6,1742,[-0.38603317],99,53,easy,minus,dotcolour,beta,,,42,18,V,R,
689,59,17,16,5,53,27,367,['n'],0,left,['2'],2,106,[-0.09860932],92,53,easy,minus,dotcolour,beta,,,42,18,V,R,
690,60,18,16,5,33,47,284,['c'],0,right,['0'],6,180,[0.08512105],78,47,medium,minus,dotcolour,beta,,,42,18,V,R,
691,61,19,16,5,36,44,175,['c'],0,right,['0'],6,366,[0.1739309],97,44,hard,minus,dotcolour,beta,,,42,18,V,R,
692,62,20,16,5,53,27,250,['n'],0,left,['0'],6,214,[-0.07466185],68,53,easy,minus,dotcolour,beta,,,42,18,V,R,
693,63,21,16,5,47,33,284,['c'],1,left,['2'],2,4,[0.0776967],100,47,medium,minus,dotcolour,beta,,,42,18,V,R,
694,64,22,16,5,53,27,284,['c'],1,left,['0'],6,201,[0.04050952],35,53,easy,minus,dotcolour,beta,,,42,18,V,R,
695,65,23,16,5,27,53,156,['n'],1,right,['0'],6,172,[-0.07182041],67,53,easy,minus,dotcolour,beta,,,42,18,V,R,
696,66,24,16,5,47,33,95,['c'],1,left,['3'],3,166,[0.01122758],12,47,medium,minus,dotcolour,beta,,,42,18,V,R,
697,67,25,16,5,27,53,1100,['n'],1,right,['0'],6,172,[-0.20498177],100,53,easy,minus,dotcolour,beta,,,42,18,V,R,
698,68,26,16,5,33,47,192,['c'],0,right,['0'],6,199,[0.17121768],99,47,medium,minus,dotcolour,beta,,,42,18,V,R,
699,69,27,16,5,47,33,98,['c'],1,left,['0'],6,185,[0.12042271],94,47,medium,minus,dotcolour,beta,,,42,18,V,R,
700,70,28,16,5,36,44,250,['n'],1,right,['3'],3,248,[-0.07735046],69,44,hard,minus,dotcolour,beta,,,42,18,V,R,
701,71,29,16,5,47,33,169,['c'],1,left,['0'],6,224,[0.10922525],89,47,medium,minus,dotcolour,beta,,,42,18,V,R,
702,72,30,16,5,36,44,384,['n'],1,right,['0'],6,200,[-0.10351181],87,44,hard,minus,dotcolour,beta,,,42,18,V,R,
703,73,31,16,5,33,47,383,['c'],0,right,['0'],6,435,[0.02699571],31,47,medium,minus,dotcolour,beta,,,42,18,V,R,
704,74,32,16,5,36,44,171,['n'],1,right,['0'],6,211,[-0.08907147],79,44,hard,minus,dotcolour,beta,,,42,18,V,R,
705,75,33,16,5,36,44,196,['c'],0,right,['3'],3,388,[0.08794555],72,44,hard,minus,dotcolour,beta,,,42,18,V,R,
706,76,34,16,5,33,47,300,['n'],1,right,['0'],6,169,[-0.10516626],90,47,medium,minus,dotcolour,beta,,,42,18,V,R,
707,77,35,16,5,44,36,300,['c'],1,left,['0'],6,208,[0.08796479],78,44,hard,minus,dotcolour,beta,,,42,18,V,R,
708,78,36,16,5,53,27,170,['c'],1,left,['3'],3,193,[0.13188763],96,53,easy,minus,dotcolour,beta,,,42,18,V,R,
709,79,37,16,5,27,53,1100,['c'],0,right,['3'],3,534,[-0.06129343],5,53,easy,minus,dotcolour,beta,,,42,18,V,R,
710,80,38,16,5,44,36,500,['n'],0,left,['0'],6,135,[-0.07124302],68,44,hard,minus,dotcolour,beta,,,42,18,V,R,
711,81,39,16,5,36,44,2734,['n'],1,right,['9'],5,492,[-0.08524632],68,44,hard,minus,dotcolour,beta,,,42,18,V,R,
712,82,40,16,5,47,33,250,['n'],0,left,['2'],2,112,[-0.0733551],72,47,medium,minus,dotcolour,beta,,,42,18,V,R,
713,83,41,16,5,53,27,233,['n'],0,left,['0'],6,315,[0.00232886],14,53,easy,minus,dotcolour,beta,,,42,18,V,R,
714,84,0,17,5,33,47,1884,['n'],1,right,['2'],2,179,[-0.18020662],100,47,medium,minus,dotcolour,beta,,,42,18,V,R,
715,85,1,17,5,47,33,1283,['n'],0,left,['3'],3,265,[-0.05704992],51,47,medium,minus,dotcolour,beta,,,42,18,V,R,
716,86,2,17,5,44,36,600,['n'],0,left,['9'],5,184,[-0.08348514],76,44,hard,minus,dotcolour,beta,,,42,18,V,R,
717,87,3,17,5,47,33,767,['n'],0,left,['2'],2,99,[-0.07776206],78,47,medium,minus,dotcolour,beta,,,42,18,V,R,
718,88,4,17,5,53,27,900,['c'],1,left,['2'],2,157,[0.0799403],75,53,easy,minus,dotcolour,beta,,,42,18,V,R,
719,89,5,17,5,53,27,233,['c'],1,left,['9'],5,326,[0.22926618],100,53,easy,minus,dotcolour,beta,,,42,18,V,R,
720,90,6,17,5,44,36,267,['c'],1,left,['9'],5,2264,[0.18994322],83,44,hard,minus,dotcolour,beta,,,42,18,V,R,
721,91,7,17,5,44,36,550,['n'],0,left,['2'],2,159,[-0.08019537],75,44,hard,minus,dotcolour,beta,,,42,18,V,R,
722,92,8,17,5,36,44,266,['n'],1,right,['0'],6,296,[-0.10307979],83,44,hard,minus,dotcolour,beta,,,42,18,V,R,
723,93,9,17,5,33,47,300,['c'],0,right,['2'],2,74,[0.09174813],92,47,medium,minus,dotcolour,beta,,,42,18,V,R,
724,94,10,17,5,53,27,367,['n'],0,left,['2'],2,89,[-0.13855701],99,53,easy,minus,dotcolour,beta,,,42,18,V,R,
725,95,11,17,5,47,33,251,['n'],0,left,['2'],2,1293,[0.14471311],4,47,medium,minus,dotcolour,beta,,,42,18,V,R,
726,96,12,17,5,44,36,417,['n'],0,left,['2'],2,177,[-0.05562337],50,44,hard,minus,dotcolour,beta,,,42,18,V,R,
727,97,13,17,5,27,53,233,['n'],1,right,"['0', '2']",6,250,[-0.09355102],80,53,easy,minus,dotcolour,beta,,,42,18,V,R,
728,98,14,17,5,53,27,534,['c'],1,left,['2'],2,181,[0.07747337],72,53,easy,minus,dotcolour,beta,,,42,18,V,R,
729,99,15,17,5,36,44,434,['n'],1,right,['9'],5,69,[-0.0274998],13,44,hard,minus,dotcolour,beta,,,42,18,V,R,
730,100,16,17,5,53,27,197,['c'],1,left,['2'],2,84,[0.07998999],82,53,easy,minus,dotcolour,beta,,,42,18,V,R,
731,101,17,17,5,47,33,1367,['c'],1,left,['2'],2,179,[0.08330387],77,47,medium,minus,dotcolour,beta,,,42,18,V,R,
732,102,18,17,5,36,44,832,['n'],1,right,['2'],2,1628,[-0.06639134],54,44,hard,minus,dotcolour,beta,,,42,18,V,R,
733,103,19,17,5,33,47,234,['n'],1,right,['2'],2,218,[-0.05237064],47,47,medium,minus,dotcolour,beta,,,42,18,V,R,
734,104,20,17,5,36,44,500,['n'],1,right,['2'],2,351,[-0.10775908],83,44,hard,minus,dotcolour,beta,,,42,18,V,R,
735,105,21,17,5,44,36,400,['c'],1,left,['2'],2,50,[0.07045979],77,44,hard,minus,dotcolour,beta,,,42,18,V,R,
736,106,22,17,5,27,53,350,['n'],1,right,['2'],2,68,[-0.08477831],88,53,easy,minus,dotcolour,beta,,,42,18,V,R,
737,107,23,17,5,36,44,267,['n'],1,right,['2'],2,856,[-0.13194242],82,44,hard,minus,dotcolour,beta,,,42,18,V,R,
738,108,24,17,5,47,33,533,['n'],0,left,['9'],5,170,[-0.07918],74,47,medium,minus,dotcolour,beta,,,42,18,V,R,
739,109,25,17,5,27,53,317,['n'],1,right,['2'],2,111,[-0.09320118],88,53,easy,minus,dotcolour,beta,,,42,18,V,R,
740,110,26,17,5,36,44,534,['n'],1,right,['2'],2,110,[-0.0888833],86,44,hard,minus,dotcolour,beta,,,42,18,V,R,
741,111,27,17,5,53,27,333,['n'],0,left,['2'],2,126,[-0.02326394],16,53,easy,minus,dotcolour,beta,,,42,18,V,R,
742,112,28,17,5,33,47,366,['n'],1,right,['9'],5,91,[-0.10152184],94,47,medium,minus,dotcolour,beta,,,42,18,V,R,
743,113,29,17,5,44,36,417,['n'],0,left,['0'],6,104,[-0.1171513],97,44,hard,minus,dotcolour,beta,,,42,18,V,R,
744,114,30,17,5,47,33,367,['n'],0,left,['0'],6,71,[-0.05695897],52,47,medium,minus,dotcolour,beta,,,42,18,V,R,
745,115,31,17,5,36,44,142,['n'],1,right,['0'],6,94,[-0.05260157],46,44,hard,minus,dotcolour,beta,,,42,18,V,R,
746,116,32,17,5,44,36,250,['n'],0,left,['0'],6,129,[-0.05275428],46,44,hard,minus,dotcolour,beta,,,42,18,V,R,
747,117,33,17,5,27,53,317,['n'],1,right,['9'],5,16,[-0.07937185],97,53,easy,minus,dotcolour,beta,,,42,18,V,R,
748,118,34,17,5,53,27,317,['n'],0,left,['2'],2,28,[-0.05933529],60,53,easy,minus,dotcolour,beta,,,42,18,V,R,
749,119,35,17,5,47,33,197,['n'],0,left,['2'],2,172,[-0.16788689],99,47,medium,minus,dotcolour,beta,,,42,18,V,R,
750,120,36,17,5,33,47,168,['n'],1,right,['0'],6,15,[-0.04617344],20,47,medium,minus,dotcolour,beta,,,42,18,V,R,
751,121,37,17,5,27,53,1200,['n'],1,right,['2'],2,40,[-0.08583201],94,53,easy,minus,dotcolour,beta,,,42,18,V,R,
752,122,38,17,5,33,47,400,['n'],1,right,['0'],6,24,[-0.07663868],92,47,medium,minus,dotcolour,beta,,,42,18,V,R,
753,123,39,17,5,27,53,351,['n'],1,right,['2'],2,114,[-0.06016326],56,53,easy,minus,dotcolour,beta,,,42,18,V,R,
754,124,40,17,5,33,47,583,['n'],1,right,['2'],2,95,[-0.0703109],70,47,medium,minus,dotcolour,beta,,,42,18,V,R,
755,125,41,17,5,27,53,1350,['n'],1,right,['2'],2,231,[-0.15670375],98,53,easy,minus,dotcolour,beta,,,42,18,V,R,
,,,,,,,,,,,,,,,,,,,,,1,,42,18,V,R,
,,,,,,,,,,,,,,,,,,,,,2,['h'],42,18,V,R,
,,,,,,,,,,,,,,,,,,,,,3,['f'],42,18,V,R,
,,,,,,,,,,,,,,,,,,,,,5,['5'],42,18,V,R,
