trial,withinphasetrial,withinblocktrial,block,phase,dotsLeft,dotsRight,rt,resp,cor,cresp,conf_press,cj,RTconf,ev,fb,diff,difflevel,condition,task,manip,sub,age,gender,handedness,
0,0,0,0,0,47,33,766,['c'],1,left,['9'],5,2896,[0.59736179],100,47,medium,plus,dotcolour,beta,18,20,V,R,
1,1,1,0,0,44,36,1799,['c'],1,left,['8'],4,2525,[0.35138153],99,44,hard,plus,dotcolour,beta,18,20,V,R,
2,2,2,0,0,47,33,1733,['c'],1,left,['3'],3,1051,[0.15782716],98,47,medium,plus,dotcolour,beta,18,20,V,R,
3,3,3,0,0,36,44,1666,['c'],0,right,['2'],2,3560,[-0.04822649],52,44,hard,plus,dotcolour,beta,18,20,V,R,
4,4,4,0,0,27,53,1415,['c'],0,right,['8'],4,1002,[-0.06476254],46,53,easy,plus,dotcolour,beta,18,20,V,R,
5,5,5,0,0,47,33,3249,['n'],0,left,['8'],4,1033,[0.08146526],39,47,medium,plus,dotcolour,beta,18,20,V,R,
6,6,6,0,0,36,44,1383,['n'],1,right,['9'],5,825,[-0.11721908],97,44,hard,plus,dotcolour,beta,18,20,V,R,
7,7,7,0,0,44,36,1299,['c'],1,left,['0'],6,870,[0.03349957],85,44,hard,plus,dotcolour,beta,18,20,V,R,
8,8,8,0,0,47,33,1299,['c'],1,left,['8'],4,720,[0.1219199],98,47,medium,plus,dotcolour,beta,18,20,V,R,
9,9,9,0,0,53,27,1082,['c'],1,left,['8'],4,649,[0.32065891],100,53,easy,plus,dotcolour,beta,18,20,V,R,
10,10,10,0,0,53,27,1682,['c'],1,left,['0'],6,870,[0.25213503],100,53,easy,plus,dotcolour,beta,18,20,V,R,
11,11,11,0,0,33,47,1098,['c'],0,right,['9'],5,512,[0.13824647],99,47,medium,plus,dotcolour,beta,18,20,V,R,
12,12,12,0,0,27,53,1097,['n'],1,right,['0'],6,1033,[-0.22288808],99,53,easy,plus,dotcolour,beta,18,20,V,R,
13,13,13,0,0,27,53,948,['n'],1,right,['9'],5,540,[-0.147638],99,53,easy,plus,dotcolour,beta,18,20,V,R,
14,14,14,0,0,36,44,815,['n'],1,right,['8'],4,526,[-0.19042188],100,44,hard,plus,dotcolour,beta,18,20,V,R,
15,15,15,0,0,53,27,765,['c'],1,left,['8'],4,620,[0.12469578],98,53,easy,plus,dotcolour,beta,18,20,V,R,
16,16,16,0,0,33,47,1299,['n'],1,right,['9'],5,449,[-0.1343923],99,47,medium,plus,dotcolour,beta,18,20,V,R,
17,17,17,0,0,36,44,882,['n'],1,right,['9'],5,485,[-0.02527134],89,44,hard,plus,dotcolour,beta,18,20,V,R,
18,18,18,0,0,47,33,1267,['c'],1,left,['9'],5,737,[0.24191733],100,47,medium,plus,dotcolour,beta,18,20,V,R,
19,19,19,0,0,44,36,966,['c'],1,left,['9'],5,246,[0.02675795],95,44,hard,plus,dotcolour,beta,18,20,V,R,
20,20,20,0,0,53,27,832,['c'],1,left,['9'],5,292,[0.09314228],99,53,easy,plus,dotcolour,beta,18,20,V,R,
21,21,21,0,0,53,27,1383,['n'],0,left,['9'],5,275,[-0.08063334],99,53,easy,plus,dotcolour,beta,18,20,V,R,
22,22,22,0,0,53,27,797,['c'],1,left,['9'],5,209,[0.07337214],99,53,easy,plus,dotcolour,beta,18,20,V,R,
23,23,23,0,0,44,36,1199,['c'],1,left,['9'],5,490,[0.18184176],100,44,hard,plus,dotcolour,beta,18,20,V,R,
24,24,24,0,0,47,33,1630,['c'],1,left,['9'],5,479,[0.08200279],97,47,medium,plus,dotcolour,beta,18,20,V,R,
25,25,25,0,0,44,36,1066,['c'],1,left,['9'],5,250,[0.0525515],98,44,hard,plus,dotcolour,beta,18,20,V,R,
26,26,26,0,0,27,53,1032,['n'],1,right,['9'],5,377,[-0.09528702],99,53,easy,plus,dotcolour,beta,18,20,V,R,
27,27,27,0,0,33,47,765,['n'],1,right,['9'],5,764,[-0.04809826],89,47,medium,plus,dotcolour,beta,18,20,V,R,
28,28,28,0,0,47,33,683,['c'],1,left,['8'],4,404,[0.06675768],97,47,medium,plus,dotcolour,beta,18,20,V,R,
29,29,29,0,0,33,47,866,['n'],1,right,['9'],5,298,[-0.02192116],93,47,medium,plus,dotcolour,beta,18,20,V,R,
30,30,30,0,0,53,27,1664,['c'],1,left,['9'],5,277,[0.08772504],99,53,easy,plus,dotcolour,beta,18,20,V,R,
31,31,31,0,0,27,53,781,['n'],1,right,['9'],5,244,[-0.01292751],92,53,easy,plus,dotcolour,beta,18,20,V,R,
32,32,32,0,0,27,53,700,['n'],1,right,['9'],5,224,[-0.12049716],100,53,easy,plus,dotcolour,beta,18,20,V,R,
33,33,33,0,0,36,44,1616,['c'],0,right,['9'],5,192,[0.09187592],100,44,hard,plus,dotcolour,beta,18,20,V,R,
34,34,34,0,0,36,44,749,['n'],1,right,['9'],5,300,[0.00092815],86,44,hard,plus,dotcolour,beta,18,20,V,R,
35,35,35,0,0,36,44,1215,['n'],1,right,['0'],6,361,[-0.05017521],96,44,hard,plus,dotcolour,beta,18,20,V,R,
36,36,36,0,0,27,53,882,['n'],1,right,['2'],2,352,[-0.08948287],99,53,easy,plus,dotcolour,beta,18,20,V,R,
37,37,37,0,0,44,36,934,['c'],1,left,['0'],6,262,[0.03428772],96,44,hard,plus,dotcolour,beta,18,20,V,R,
38,38,38,0,0,44,36,865,['c'],1,left,['9'],5,291,[0.02250372],93,44,hard,plus,dotcolour,beta,18,20,V,R,
39,39,39,0,0,33,47,782,['c'],0,right,['9'],5,297,[0.02533939],94,47,medium,plus,dotcolour,beta,18,20,V,R,
40,40,40,0,0,33,47,1267,['n'],1,right,['9'],5,460,[-0.23694073],100,47,medium,plus,dotcolour,beta,18,20,V,R,
41,41,41,0,0,33,47,932,['c'],0,right,['9'],5,294,[0.11458716],100,47,medium,plus,dotcolour,beta,18,20,V,R,
42,42,0,1,0,47,33,2183,['c'],1,left,['9'],5,779,[0.0875353],95,47,medium,plus,dotcolour,beta,18,20,V,R,
43,43,1,1,0,27,53,699,['n'],1,right,['9'],5,305,[-0.14710941],100,53,easy,plus,dotcolour,beta,18,20,V,R,
44,44,2,1,0,36,44,932,['n'],1,right,['3'],3,513,[-0.13257199],99,44,hard,plus,dotcolour,beta,18,20,V,R,
45,45,3,1,0,27,53,882,['c'],0,right,['1'],1,1323,[-0.02085269],63,53,easy,plus,dotcolour,beta,18,20,V,R,
46,46,4,1,0,27,53,866,['n'],1,right,['0'],6,637,[-0.255067],100,53,easy,plus,dotcolour,beta,18,20,V,R,
47,47,5,1,0,27,53,882,['n'],1,right,['0'],6,1218,[-0.21023294],99,53,easy,plus,dotcolour,beta,18,20,V,R,
48,48,6,1,0,33,47,1482,['n'],1,right,['0'],6,359,[-0.09030218],99,47,medium,plus,dotcolour,beta,18,20,V,R,
49,49,7,1,0,33,47,965,['n'],1,right,['8'],4,379,[-0.17473669],100,47,medium,plus,dotcolour,beta,18,20,V,R,
50,50,8,1,0,53,27,1248,['c'],1,left,['8'],4,660,[0.08041417],95,53,easy,plus,dotcolour,beta,18,20,V,R,
51,51,9,1,0,53,27,683,['c'],1,left,['9'],5,263,[0.13777604],100,53,easy,plus,dotcolour,beta,18,20,V,R,
52,52,10,1,0,33,47,2464,['c'],0,right,['9'],5,244,[0.0572481],98,47,medium,plus,dotcolour,beta,18,20,V,R,
53,53,11,1,0,44,36,1666,['n'],0,left,['9'],5,241,[-0.03176991],96,44,hard,plus,dotcolour,beta,18,20,V,R,
54,54,12,1,0,44,36,648,['c'],1,left,['9'],5,199,[0.07996071],100,44,hard,plus,dotcolour,beta,18,20,V,R,
55,55,13,1,0,33,47,1183,['n'],1,right,['9'],5,297,[-0.10772847],100,47,medium,plus,dotcolour,beta,18,20,V,R,
56,56,14,1,0,36,44,1998,['c'],0,right,['0'],6,343,[0.09281717],99,44,hard,plus,dotcolour,beta,18,20,V,R,
57,57,15,1,0,47,33,1115,['c'],1,left,['0'],6,142,[0.08005462],100,47,medium,plus,dotcolour,beta,18,20,V,R,
58,58,16,1,0,53,27,831,['n'],0,left,['0'],6,176,[0.06115993],44,53,easy,plus,dotcolour,beta,18,20,V,R,
59,59,17,1,0,33,47,998,['n'],1,right,['0'],6,475,[-0.07568148],97,47,medium,plus,dotcolour,beta,18,20,V,R,
60,60,18,1,0,47,33,1415,['c'],1,left,['0'],6,168,[0.06662464],100,47,medium,plus,dotcolour,beta,18,20,V,R,
61,61,19,1,0,36,44,1216,['n'],1,right,['0'],6,227,[-0.05010453],98,44,hard,plus,dotcolour,beta,18,20,V,R,
62,62,20,1,0,27,53,800,['n'],1,right,['0'],6,211,[-0.09725441],100,53,easy,plus,dotcolour,beta,18,20,V,R,
63,63,21,1,0,53,27,682,['c'],1,left,['9'],5,201,[0.04590781],98,53,easy,plus,dotcolour,beta,18,20,V,R,
64,64,22,1,0,44,36,1233,['c'],1,left,['0'],6,161,[0.05029457],99,44,hard,plus,dotcolour,beta,18,20,V,R,
65,65,23,1,0,47,33,733,['c'],1,left,['0'],6,231,[0.14606076],100,47,medium,plus,dotcolour,beta,18,20,V,R,
66,66,24,1,0,33,47,1099,['n'],1,right,['0'],6,1035,[-0.2640025],100,47,medium,plus,dotcolour,beta,18,20,V,R,
67,67,25,1,0,36,44,966,['n'],1,right,['0'],6,260,[-0.06728691],99,44,hard,plus,dotcolour,beta,18,20,V,R,
68,68,26,1,0,44,36,2266,['c'],1,left,['0'],6,144,[0.0898918],100,44,hard,plus,dotcolour,beta,18,20,V,R,
69,69,27,1,0,33,47,1065,['n'],1,right,['9'],5,610,[-0.09571327],97,47,medium,plus,dotcolour,beta,18,20,V,R,
70,70,28,1,0,36,44,1415,['c'],0,right,['0'],6,210,[0.0275793],96,44,hard,plus,dotcolour,beta,18,20,V,R,
71,71,29,1,0,44,36,1098,['n'],0,left,['0'],6,255,[-0.0341492],96,44,hard,plus,dotcolour,beta,18,20,V,R,
72,72,30,1,0,53,27,1197,['c'],1,left,['0'],6,390,[0.10276451],99,53,easy,plus,dotcolour,beta,18,20,V,R,
73,73,31,1,0,36,44,816,['n'],1,right,['0'],6,311,[-0.0945114],99,44,hard,plus,dotcolour,beta,18,20,V,R,
74,74,32,1,0,47,33,748,['c'],1,left,['0'],6,238,[0.10498617],100,47,medium,plus,dotcolour,beta,18,20,V,R,
75,75,33,1,0,44,36,1633,['n'],0,left,['0'],6,397,[-0.05652694],96,44,hard,plus,dotcolour,beta,18,20,V,R,
76,76,34,1,0,27,53,999,['n'],1,right,['0'],6,278,[-0.11098475],100,53,easy,plus,dotcolour,beta,18,20,V,R,
77,77,35,1,0,53,27,783,['c'],1,left,['0'],6,269,[0.16965309],100,53,easy,plus,dotcolour,beta,18,20,V,R,
78,78,36,1,0,27,53,700,['n'],1,right,['0'],6,279,[-0.18151249],100,53,easy,plus,dotcolour,beta,18,20,V,R,
79,79,37,1,0,44,36,1116,['c'],1,left,['0'],6,233,[0.07170211],99,44,hard,plus,dotcolour,beta,18,20,V,R,
80,80,38,1,0,53,27,949,['c'],1,left,['0'],6,348,[0.02192822],91,53,easy,plus,dotcolour,beta,18,20,V,R,
81,81,39,1,0,47,33,831,['c'],1,left,['0'],6,238,[0.06372948],99,47,medium,plus,dotcolour,beta,18,20,V,R,
82,82,40,1,0,47,33,1264,['c'],1,left,['0'],6,179,[0.06522672],99,47,medium,plus,dotcolour,beta,18,20,V,R,
83,83,41,1,0,36,44,717,['n'],1,right,['0'],6,385,[-0.19324487],100,44,hard,plus,dotcolour,beta,18,20,V,R,
84,84,0,2,0,47,33,966,['c'],1,left,['0'],6,246,[0.01893046],94,47,medium,plus,dotcolour,beta,18,20,V,R,
85,85,1,2,0,27,53,681,['n'],1,right,['0'],6,170,[-0.1047441],100,53,easy,plus,dotcolour,beta,18,20,V,R,
86,86,2,2,0,33,47,666,['n'],1,right,['0'],6,282,[-0.13317608],100,47,medium,plus,dotcolour,beta,18,20,V,R,
87,87,3,2,0,27,53,1216,['n'],1,right,['0'],6,248,[-0.03866304],97,53,easy,plus,dotcolour,beta,18,20,V,R,
88,88,4,2,0,44,36,599,['c'],1,left,['0'],6,207,[0.13521231],100,44,hard,plus,dotcolour,beta,18,20,V,R,
89,89,5,2,0,33,47,866,['n'],1,right,['0'],6,245,[-0.11696428],100,47,medium,plus,dotcolour,beta,18,20,V,R,
90,90,6,2,0,47,33,1682,['c'],1,left,['0'],6,338,[0.05043257],96,47,medium,plus,dotcolour,beta,18,20,V,R,
91,91,7,2,0,33,47,1483,['n'],1,right,['9'],5,251,[-0.11970073],100,47,medium,plus,dotcolour,beta,18,20,V,R,
92,92,8,2,0,47,33,1015,['c'],1,left,['9'],5,1058,[0.19542583],99,47,medium,plus,dotcolour,beta,18,20,V,R,
93,93,9,2,0,53,27,1717,['c'],1,left,['0'],6,260,[0.0696497],99,53,easy,plus,dotcolour,beta,18,20,V,R,
94,94,10,2,0,53,27,881,['c'],1,left,['0'],6,192,[0.10520985],100,53,easy,plus,dotcolour,beta,18,20,V,R,
95,95,11,2,0,36,44,1249,['n'],1,right,['0'],6,224,[-0.03379678],97,44,hard,plus,dotcolour,beta,18,20,V,R,
96,96,12,2,0,36,44,2331,['c'],0,right,['2'],2,907,[0.04392734],87,44,hard,plus,dotcolour,beta,18,20,V,R,
97,97,13,2,0,44,36,1932,['n'],0,left,['9'],5,347,[-0.02802026],93,44,hard,plus,dotcolour,beta,18,20,V,R,
98,98,14,2,0,27,53,1066,['n'],1,right,['9'],5,260,[-0.18174963],100,53,easy,plus,dotcolour,beta,18,20,V,R,
99,99,15,2,0,36,44,549,['n'],1,right,['9'],5,365,[-0.07358007],98,44,hard,plus,dotcolour,beta,18,20,V,R,
100,100,16,2,0,47,33,716,['c'],1,left,['9'],5,195,[0.10007395],100,47,medium,plus,dotcolour,beta,18,20,V,R,
101,101,17,2,0,36,44,798,['n'],1,right,['9'],5,573,[-0.18433494],100,44,hard,plus,dotcolour,beta,18,20,V,R,
102,102,18,2,0,53,27,882,['c'],1,left,['9'],5,212,[0.0234486],96,53,easy,plus,dotcolour,beta,18,20,V,R,
103,103,19,2,0,47,33,1065,['c'],1,left,['9'],5,234,[0.1442152],100,47,medium,plus,dotcolour,beta,18,20,V,R,
104,104,20,2,0,36,44,1066,['n'],1,right,['9'],5,376,[-0.09911531],99,44,hard,plus,dotcolour,beta,18,20,V,R,
105,105,21,2,0,36,44,1082,['n'],1,right,['9'],5,271,[-0.06161586],98,44,hard,plus,dotcolour,beta,18,20,V,R,
106,106,22,2,0,27,53,765,['n'],1,right,['9'],5,302,[-0.16074025],100,53,easy,plus,dotcolour,beta,18,20,V,R,
107,107,23,2,0,44,36,899,['c'],1,left,['9'],5,152,[0.0933325],100,44,hard,plus,dotcolour,beta,18,20,V,R,
108,108,24,2,0,27,53,799,['n'],1,right,['9'],5,260,[-0.07674484],99,53,easy,plus,dotcolour,beta,18,20,V,R,
109,109,25,2,0,53,27,715,['c'],1,left,['9'],5,206,[0.02268773],96,53,easy,plus,dotcolour,beta,18,20,V,R,
110,110,26,2,0,44,36,748,['c'],1,left,['9'],5,234,[0.10912238],100,44,hard,plus,dotcolour,beta,18,20,V,R,
111,111,27,2,0,27,53,750,['n'],1,right,['9'],5,213,[-0.0974228],100,53,easy,plus,dotcolour,beta,18,20,V,R,
112,112,28,2,0,44,36,815,['c'],1,left,['9'],5,197,[0.0883687],100,44,hard,plus,dotcolour,beta,18,20,V,R,
113,113,29,2,0,47,33,915,['c'],1,left,['9'],5,145,[0.0590865],100,47,medium,plus,dotcolour,beta,18,20,V,R,
114,114,30,2,0,33,47,764,['n'],1,right,['9'],5,239,[-0.04752765],98,47,medium,plus,dotcolour,beta,18,20,V,R,
115,115,31,2,0,33,47,932,['c'],0,right,['9'],5,193,[0.03733014],98,47,medium,plus,dotcolour,beta,18,20,V,R,
116,116,32,2,0,53,27,699,['n'],0,left,['9'],5,351,[0.07347088],37,53,easy,plus,dotcolour,beta,18,20,V,R,
117,117,33,2,0,33,47,1065,['c'],0,right,['9'],5,1056,[-0.1798688],10,47,medium,plus,dotcolour,beta,18,20,V,R,
118,118,34,2,0,47,33,898,['c'],1,left,['9'],5,634,[0.21271636],100,47,medium,plus,dotcolour,beta,18,20,V,R,
119,119,35,2,0,44,36,1249,['c'],1,left,['9'],5,169,[0.08466509],100,44,hard,plus,dotcolour,beta,18,20,V,R,
120,120,36,2,0,44,36,1583,['c'],1,left,['8'],4,373,[0.10061562],99,44,hard,plus,dotcolour,beta,18,20,V,R,
121,121,37,2,0,27,53,849,['n'],1,right,['8'],4,461,[-0.06891872],96,53,easy,plus,dotcolour,beta,18,20,V,R,
122,122,38,2,0,53,27,632,['c'],1,left,['9'],5,282,[0.04826604],97,53,easy,plus,dotcolour,beta,18,20,V,R,
123,123,39,2,0,33,47,1631,['n'],1,right,['9'],5,391,[-0.16684568],100,47,medium,plus,dotcolour,beta,18,20,V,R,
124,124,40,2,0,36,44,1465,['n'],1,right,['9'],5,262,[-0.12686883],100,44,hard,plus,dotcolour,beta,18,20,V,R,
125,125,41,2,0,53,27,1248,['c'],1,left,['9'],5,331,[0.13957644],100,53,easy,plus,dotcolour,beta,18,20,V,R,
126,0,0,3,1,44,36,1149,['c'],1,left,['9'],5,196,[0.10530214],88,44,hard,minus,dotcolour,beta,18,20,V,R,
127,1,1,3,1,36,44,883,['n'],1,right,['9'],5,266,[-0.01042957],17,44,hard,minus,dotcolour,beta,18,20,V,R,
128,2,2,3,1,33,47,1049,['n'],1,right,['0'],6,656,[-0.11257698],78,47,medium,minus,dotcolour,beta,18,20,V,R,
129,3,3,3,1,47,33,999,['c'],1,left,['9'],5,254,[0.13488557],94,47,medium,minus,dotcolour,beta,18,20,V,R,
130,4,4,3,1,53,27,1281,['c'],1,left,['9'],5,474,[0.11325988],82,53,easy,minus,dotcolour,beta,18,20,V,R,
131,5,5,3,1,44,36,1117,['n'],0,left,['9'],5,324,[-0.06107169],54,44,hard,minus,dotcolour,beta,18,20,V,R,
132,6,6,3,1,36,44,2664,['c'],0,right,['0'],6,190,[0.08859135],80,44,hard,minus,dotcolour,beta,18,20,V,R,
133,7,7,3,1,27,53,815,['n'],1,right,['0'],6,760,[-0.27930535],99,53,easy,minus,dotcolour,beta,18,20,V,R,
134,8,8,3,1,27,53,916,['n'],1,right,['1'],1,990,[-0.11884599],76,53,easy,minus,dotcolour,beta,18,20,V,R,
135,9,9,3,1,33,47,830,['n'],1,right,['0'],6,518,[-0.11874563],83,47,medium,minus,dotcolour,beta,18,20,V,R,
136,10,10,3,1,47,33,1033,['c'],1,left,['0'],6,170,[0.1351938],97,47,medium,minus,dotcolour,beta,18,20,V,R,
137,11,11,3,1,33,47,833,['n'],1,right,['0'],6,292,[-0.03172267],31,47,medium,minus,dotcolour,beta,18,20,V,R,
138,12,12,3,1,44,36,1165,['n'],0,left,['0'],6,947,[0.09218728],6,44,hard,minus,dotcolour,beta,18,20,V,R,
139,13,13,3,1,27,53,1498,['c'],0,right,['0'],6,634,[0.01505516],29,53,easy,minus,dotcolour,beta,18,20,V,R,
140,14,14,3,1,36,44,783,['n'],1,right,['0'],6,467,[-0.05540354],50,44,hard,minus,dotcolour,beta,18,20,V,R,
141,15,15,3,1,27,53,799,['n'],1,right,['0'],6,458,[-0.11806147],84,53,easy,minus,dotcolour,beta,18,20,V,R,
142,16,16,3,1,33,47,682,['n'],1,right,['0'],6,453,[-0.03292626],35,47,medium,minus,dotcolour,beta,18,20,V,R,
143,17,17,3,1,27,53,1133,['n'],1,right,['0'],6,535,[-0.09342137],72,53,easy,minus,dotcolour,beta,18,20,V,R,
144,18,18,3,1,44,36,1399,['c'],1,left,['0'],6,492,[0.04938118],46,44,hard,minus,dotcolour,beta,18,20,V,R,
145,19,19,3,1,27,53,880,['n'],1,right,['0'],6,535,[-0.15494821],92,53,easy,minus,dotcolour,beta,18,20,V,R,
146,20,20,3,1,47,33,1316,['c'],1,left,['0'],6,462,[0.26759831],100,47,medium,minus,dotcolour,beta,18,20,V,R,
147,21,21,3,1,47,33,1066,['c'],1,left,['0'],6,314,[0.05676025],51,47,medium,minus,dotcolour,beta,18,20,V,R,
148,22,22,3,1,53,27,1649,['c'],1,left,['0'],6,637,[0.24380024],99,53,easy,minus,dotcolour,beta,18,20,V,R,
149,23,23,3,1,36,44,1332,['n'],1,right,['0'],6,400,[-0.23123007],99,44,hard,minus,dotcolour,beta,18,20,V,R,
150,24,24,3,1,36,44,916,['n'],1,right,['0'],6,429,[-0.08985542],72,44,hard,minus,dotcolour,beta,18,20,V,R,
151,25,25,3,1,47,33,1266,['n'],0,left,['0'],6,259,[-0.13470219],94,47,medium,minus,dotcolour,beta,18,20,V,R,
152,26,26,3,1,53,27,797,['c'],1,left,['0'],6,194,[0.06250581],57,53,easy,minus,dotcolour,beta,18,20,V,R,
153,27,27,3,1,53,27,965,['c'],1,left,['0'],6,285,[0.17795034],98,53,easy,minus,dotcolour,beta,18,20,V,R,
154,28,28,3,1,53,27,1116,['c'],1,left,['0'],6,327,[0.15434273],96,53,easy,minus,dotcolour,beta,18,20,V,R,
155,29,29,3,1,47,33,617,['c'],1,left,['0'],6,202,[0.05908978],54,47,medium,minus,dotcolour,beta,18,20,V,R,
156,30,30,3,1,33,47,716,['n'],1,right,['0'],6,263,[-0.0530836],48,47,medium,minus,dotcolour,beta,18,20,V,R,
157,31,31,3,1,33,47,1166,['n'],1,right,['0'],6,336,[-0.01896458],24,47,medium,minus,dotcolour,beta,18,20,V,R,
158,32,32,3,1,44,36,865,['c'],1,left,['0'],6,201,[0.05027954],45,44,hard,minus,dotcolour,beta,18,20,V,R,
159,33,33,3,1,33,47,799,['c'],0,right,['0'],6,203,[0.10944818],90,47,medium,minus,dotcolour,beta,18,20,V,R,
160,34,34,3,1,47,33,881,['c'],1,left,['0'],6,217,[0.03691415],33,47,medium,minus,dotcolour,beta,18,20,V,R,
161,35,35,3,1,44,36,1032,['c'],1,left,['0'],6,137,[0.02102587],16,44,hard,minus,dotcolour,beta,18,20,V,R,
162,36,36,3,1,44,36,1515,['c'],1,left,['0'],6,153,[0.07771784],73,44,hard,minus,dotcolour,beta,18,20,V,R,
163,37,37,3,1,53,27,715,['c'],1,left,['0'],6,167,[0.09621278],86,53,easy,minus,dotcolour,beta,18,20,V,R,
164,38,38,3,1,53,27,648,['c'],1,left,['0'],6,192,[0.05335493],48,53,easy,minus,dotcolour,beta,18,20,V,R,
165,39,39,3,1,36,44,581,['c'],0,right,['0'],6,194,[0.03311707],29,44,hard,minus,dotcolour,beta,18,20,V,R,
166,40,40,3,1,27,53,781,['n'],1,right,['0'],6,397,[-0.09070611],73,53,easy,minus,dotcolour,beta,18,20,V,R,
167,41,41,3,1,36,44,1416,['c'],0,right,['0'],6,198,[0.07171885],66,44,hard,minus,dotcolour,beta,18,20,V,R,
168,42,0,4,1,33,47,832,['n'],1,right,['0'],6,287,[-0.0646292],58,47,medium,minus,dotcolour,beta,18,20,V,R,
169,43,1,4,1,47,33,1098,['c'],1,left,['9'],5,665,[0.05640853],50,47,medium,minus,dotcolour,beta,18,20,V,R,
170,44,2,4,1,33,47,799,['n'],1,right,['9'],5,440,[0.00556861],16,47,medium,minus,dotcolour,beta,18,20,V,R,
171,45,3,4,1,47,33,1333,['c'],1,left,['0'],6,635,[0.11850263],81,47,medium,minus,dotcolour,beta,18,20,V,R,
172,46,4,4,1,36,44,866,['n'],1,right,['0'],6,432,[-0.07225564],61,44,hard,minus,dotcolour,beta,18,20,V,R,
173,47,5,4,1,27,53,798,['n'],1,right,['0'],6,360,[-0.19190875],98,53,easy,minus,dotcolour,beta,18,20,V,R,
174,48,6,4,1,33,47,748,['n'],1,right,['0'],6,621,[-0.17732535],94,47,medium,minus,dotcolour,beta,18,20,V,R,
175,49,7,4,1,53,27,781,['c'],1,left,['0'],6,462,[0.11987364],85,53,easy,minus,dotcolour,beta,18,20,V,R,
176,50,8,4,1,36,44,1299,['n'],1,right,['0'],6,545,[-0.03617701],38,44,hard,minus,dotcolour,beta,18,20,V,R,
177,51,9,4,1,53,27,649,['c'],1,left,['0'],6,443,[0.14423687],92,53,easy,minus,dotcolour,beta,18,20,V,R,
178,52,10,4,1,47,33,749,['c'],1,left,['0'],6,381,[0.17922463],97,47,medium,minus,dotcolour,beta,18,20,V,R,
179,53,11,4,1,27,53,749,['n'],1,right,['0'],6,465,[-0.21515622],99,53,easy,minus,dotcolour,beta,18,20,V,R,
180,54,12,4,1,33,47,1783,['c'],0,right,['0'],6,312,[0.03942594],37,47,medium,minus,dotcolour,beta,18,20,V,R,
181,55,13,4,1,53,27,730,['c'],1,left,['0'],6,200,[0.16675045],99,53,easy,minus,dotcolour,beta,18,20,V,R,
182,56,14,4,1,53,27,715,['c'],1,left,['0'],6,141,[0.12583948],97,53,easy,minus,dotcolour,beta,18,20,V,R,
183,57,15,4,1,33,47,697,['n'],1,right,['0'],6,173,[-0.03697964],31,47,medium,minus,dotcolour,beta,18,20,V,R,
184,58,16,4,1,36,44,2049,['c'],0,right,['0'],6,214,[0.07529499],68,44,hard,minus,dotcolour,beta,18,20,V,R,
185,59,17,4,1,36,44,1250,['c'],0,right,['0'],6,213,[0.13395222],96,44,hard,minus,dotcolour,beta,18,20,V,R,
186,60,18,4,1,36,44,1465,['c'],0,right,['0'],6,243,[0.11034301],88,44,hard,minus,dotcolour,beta,18,20,V,R,
187,61,19,4,1,53,27,1316,['c'],1,left,['0'],6,230,[0.07155767],65,53,easy,minus,dotcolour,beta,18,20,V,R,
188,62,20,4,1,44,36,1265,['c'],1,left,['0'],6,244,[0.10798301],87,44,hard,minus,dotcolour,beta,18,20,V,R,
189,63,21,4,1,27,53,697,['n'],1,right,['0'],6,248,[-0.09629704],81,53,easy,minus,dotcolour,beta,18,20,V,R,
190,64,22,4,1,36,44,1629,['c'],0,right,['0'],6,222,[0.08490821],75,44,hard,minus,dotcolour,beta,18,20,V,R,
191,65,23,4,1,44,36,867,['n'],0,left,['0'],6,509,[0.01653121],14,44,hard,minus,dotcolour,beta,18,20,V,R,
192,66,24,4,1,47,33,816,['c'],1,left,['0'],6,169,[0.08054883],75,47,medium,minus,dotcolour,beta,18,20,V,R,
193,67,25,4,1,27,53,767,['n'],1,right,['0'],6,285,[-0.04117818],38,53,easy,minus,dotcolour,beta,18,20,V,R,
194,68,26,4,1,27,53,1149,['n'],1,right,['0'],6,405,[-0.03200239],34,53,easy,minus,dotcolour,beta,18,20,V,R,
195,69,27,4,1,33,47,832,['n'],1,right,['0'],6,357,[-0.09787399],78,47,medium,minus,dotcolour,beta,18,20,V,R,
196,70,28,4,1,53,27,698,['c'],1,left,['0'],6,220,[0.16358681],98,53,easy,minus,dotcolour,beta,18,20,V,R,
197,71,29,4,1,53,27,966,['c'],1,left,['0'],6,479,[0.11881217],84,53,easy,minus,dotcolour,beta,18,20,V,R,
198,72,30,4,1,47,33,782,['n'],0,left,['0'],6,214,[-0.03878635],34,47,medium,minus,dotcolour,beta,18,20,V,R,
199,73,31,4,1,47,33,965,['c'],1,left,['0'],6,184,[0.16155846],99,47,medium,minus,dotcolour,beta,18,20,V,R,
200,74,32,4,1,44,36,683,['c'],1,left,['0'],6,167,[0.04087894],34,44,hard,minus,dotcolour,beta,18,20,V,R,
201,75,33,4,1,44,36,599,['c'],1,left,['0'],6,170,[0.17230137],99,44,hard,minus,dotcolour,beta,18,20,V,R,
202,76,34,4,1,44,36,798,['c'],1,left,['0'],6,165,[0.08223951],77,44,hard,minus,dotcolour,beta,18,20,V,R,
203,77,35,4,1,27,53,749,['n'],1,right,['0'],6,226,[-0.10093162],85,53,easy,minus,dotcolour,beta,18,20,V,R,
204,78,36,4,1,44,36,949,['n'],0,left,['0'],6,452,[0.18905547],0,44,hard,minus,dotcolour,beta,18,20,V,R,
205,79,37,4,1,27,53,799,['c'],0,right,['0'],6,187,[-0.01972738],4,53,easy,minus,dotcolour,beta,18,20,V,R,
206,80,38,4,1,36,44,947,['n'],1,right,['0'],6,247,[-0.08494786],74,44,hard,minus,dotcolour,beta,18,20,V,R,
207,81,39,4,1,47,33,815,['c'],1,left,['0'],6,190,[0.06202309],57,47,medium,minus,dotcolour,beta,18,20,V,R,
208,82,40,4,1,33,47,1314,['c'],0,right,['0'],6,155,[0.04079553],34,47,medium,minus,dotcolour,beta,18,20,V,R,
209,83,41,4,1,44,36,1147,['c'],1,left,['0'],6,184,[0.14536448],98,44,hard,minus,dotcolour,beta,18,20,V,R,
210,84,0,5,1,44,36,2033,['n'],0,left,['0'],6,303,[-0.02881318],29,44,hard,minus,dotcolour,beta,18,20,V,R,
211,85,1,5,1,27,53,1081,['n'],1,right,['0'],6,426,[-0.17794546],97,53,easy,minus,dotcolour,beta,18,20,V,R,
212,86,2,5,1,44,36,1164,['n'],0,left,['0'],6,171,[-0.04572967],39,44,hard,minus,dotcolour,beta,18,20,V,R,
213,87,3,5,1,53,27,732,['c'],1,left,['0'],6,168,[0.04641979],40,53,easy,minus,dotcolour,beta,18,20,V,R,
214,88,4,5,1,27,53,715,['n'],1,right,['0'],6,199,[-0.07576809],69,53,easy,minus,dotcolour,beta,18,20,V,R,
215,89,5,5,1,27,53,833,['n'],1,right,['0'],6,207,[0.0024221],9,53,easy,minus,dotcolour,beta,18,20,V,R,
216,90,6,5,1,53,27,899,['c'],1,left,['0'],6,196,[-0.03436449],3,53,easy,minus,dotcolour,beta,18,20,V,R,
217,91,7,5,1,53,27,900,['c'],1,left,['0'],6,234,[0.13134457],94,53,easy,minus,dotcolour,beta,18,20,V,R,
218,92,8,5,1,36,44,1266,['n'],1,right,['0'],6,216,[-0.05541165],50,44,hard,minus,dotcolour,beta,18,20,V,R,
219,93,9,5,1,44,36,1215,['c'],1,left,['0'],6,160,[0.08070453],76,44,hard,minus,dotcolour,beta,18,20,V,R,
220,94,10,5,1,47,33,782,['c'],1,left,['0'],6,180,[0.04175526],36,47,medium,minus,dotcolour,beta,18,20,V,R,
221,95,11,5,1,53,27,1015,['c'],1,left,['0'],6,134,[0.09130136],85,53,easy,minus,dotcolour,beta,18,20,V,R,
222,96,12,5,1,27,53,747,['n'],1,right,['0'],6,212,[-0.00295832],11,53,easy,minus,dotcolour,beta,18,20,V,R,
223,97,13,5,1,47,33,2416,['c'],1,left,['0'],6,140,[0.05259403],46,47,medium,minus,dotcolour,beta,18,20,V,R,
224,98,14,5,1,27,53,766,['n'],1,right,['0'],6,178,[-0.1035345],89,53,easy,minus,dotcolour,beta,18,20,V,R,
225,99,15,5,1,44,36,949,['n'],0,left,['0'],6,230,[-0.08735821],77,44,hard,minus,dotcolour,beta,18,20,V,R,
226,100,16,5,1,36,44,598,['n'],1,right,['0'],6,175,[-0.10482859],89,44,hard,minus,dotcolour,beta,18,20,V,R,
227,101,17,5,1,27,53,682,['n'],1,right,['0'],6,149,[-0.11203007],93,53,easy,minus,dotcolour,beta,18,20,V,R,
228,102,18,5,1,47,33,1031,['c'],1,left,['0'],6,152,[0.06098892],56,47,medium,minus,dotcolour,beta,18,20,V,R,
229,103,19,5,1,36,44,914,['n'],1,right,['0'],6,143,[-0.05179737],46,44,hard,minus,dotcolour,beta,18,20,V,R,
230,104,20,5,1,33,47,799,['n'],1,right,['8'],4,219,[-0.07135278],65,47,medium,minus,dotcolour,beta,18,20,V,R,
231,105,21,5,1,44,36,1065,['n'],0,left,['0'],6,1249,[0.12918116],5,44,hard,minus,dotcolour,beta,18,20,V,R,
232,106,22,5,1,36,44,849,['n'],1,right,['9'],5,487,[-0.13507695],89,44,hard,minus,dotcolour,beta,18,20,V,R,
233,107,23,5,1,53,27,1082,['c'],1,left,['8'],4,441,[0.16017539],94,53,easy,minus,dotcolour,beta,18,20,V,R,
234,108,24,5,1,44,36,2133,['c'],1,left,['8'],4,444,[0.16409095],95,44,hard,minus,dotcolour,beta,18,20,V,R,
235,109,25,5,1,53,27,1515,['n'],0,left,['8'],4,351,[-0.05253372],48,53,easy,minus,dotcolour,beta,18,20,V,R,
236,110,26,5,1,33,47,682,['c'],0,right,['8'],4,1031,[-0.01260508],23,47,medium,minus,dotcolour,beta,18,20,V,R,
237,111,27,5,1,33,47,831,['n'],1,right,['8'],4,462,[-0.07158692],60,47,medium,minus,dotcolour,beta,18,20,V,R,
238,112,28,5,1,33,47,1299,['n'],1,right,['8'],4,3402,[-0.52192782],99,47,medium,minus,dotcolour,beta,18,20,V,R,
239,113,29,5,1,47,33,1631,['c'],1,left,['8'],4,417,[0.12543379],88,47,medium,minus,dotcolour,beta,18,20,V,R,
240,114,30,5,1,36,44,1183,['n'],1,right,['8'],4,666,[-0.10603878],75,44,hard,minus,dotcolour,beta,18,20,V,R,
241,115,31,5,1,53,27,881,['c'],1,left,['9'],5,581,[0.2448665],99,53,easy,minus,dotcolour,beta,18,20,V,R,
242,116,32,5,1,44,36,900,['c'],1,left,['9'],5,788,[0.2110092],96,44,hard,minus,dotcolour,beta,18,20,V,R,
243,117,33,5,1,47,33,1199,['c'],1,left,['8'],4,622,[0.04591673],45,47,medium,minus,dotcolour,beta,18,20,V,R,
244,118,34,5,1,47,33,682,['c'],1,left,['9'],5,539,[0.02073037],30,47,medium,minus,dotcolour,beta,18,20,V,R,
245,119,35,5,1,33,47,999,['n'],1,right,['0'],6,798,[0.10128664],4,47,medium,minus,dotcolour,beta,18,20,V,R,
246,120,36,5,1,36,44,1030,['n'],1,right,['9'],5,1055,[-0.25341802],97,44,hard,minus,dotcolour,beta,18,20,V,R,
247,121,37,5,1,33,47,932,['n'],1,right,['9'],5,568,[-0.09007885],70,47,medium,minus,dotcolour,beta,18,20,V,R,
248,122,38,5,1,27,53,849,['n'],1,right,['9'],5,634,[-0.29511896],100,53,easy,minus,dotcolour,beta,18,20,V,R,
249,123,39,5,1,47,33,965,['c'],1,left,['8'],4,475,[0.11272831],82,47,medium,minus,dotcolour,beta,18,20,V,R,
250,124,40,5,1,33,47,1049,['n'],1,right,['8'],4,495,[-0.23121976],99,47,medium,minus,dotcolour,beta,18,20,V,R,
251,125,41,5,1,36,44,948,['c'],0,right,['8'],4,591,[-0.01829444],15,44,hard,minus,dotcolour,beta,18,20,V,R,
252,0,0,6,2,36,44,1866,['n'],1,right,['8'],4,495,[0.05595873],50,44,hard,plus,dotcolour,beta,18,20,V,R,
253,1,1,6,2,36,44,799,['n'],1,right,['8'],4,404,[-0.09157318],98,44,hard,plus,dotcolour,beta,18,20,V,R,
254,2,2,6,2,33,47,865,['n'],1,right,['8'],4,339,[-0.10404169],99,47,medium,plus,dotcolour,beta,18,20,V,R,
255,3,3,6,2,47,33,1115,['c'],1,left,['8'],4,427,[0.16433103],100,47,medium,plus,dotcolour,beta,18,20,V,R,
256,4,4,6,2,33,47,797,['n'],1,right,['8'],4,451,[-0.05910222],96,47,medium,plus,dotcolour,beta,18,20,V,R,
257,5,5,6,2,36,44,751,['n'],1,right,['9'],5,389,[-0.13347553],100,44,hard,plus,dotcolour,beta,18,20,V,R,
258,6,6,6,2,27,53,1083,['n'],1,right,['9'],5,355,[-0.24806779],100,53,easy,plus,dotcolour,beta,18,20,V,R,
259,7,7,6,2,44,36,1733,['n'],0,left,['9'],5,354,[0.01805357],76,44,hard,plus,dotcolour,beta,18,20,V,R,
260,8,8,6,2,53,27,949,['c'],1,left,['9'],5,239,[0.05849442],99,53,easy,plus,dotcolour,beta,18,20,V,R,
261,9,9,6,2,47,33,1482,['c'],1,left,['9'],5,123,[0.06027219],100,47,medium,plus,dotcolour,beta,18,20,V,R,
262,10,10,6,2,47,33,898,['c'],1,left,['9'],5,197,[0.02798126],97,47,medium,plus,dotcolour,beta,18,20,V,R,
263,11,11,6,2,47,33,764,['c'],1,left,['9'],5,144,[0.1352437],100,47,medium,plus,dotcolour,beta,18,20,V,R,
264,12,12,6,2,44,36,715,['c'],1,left,['9'],5,167,[0.10308988],100,44,hard,plus,dotcolour,beta,18,20,V,R,
265,13,13,6,2,44,36,681,['c'],1,left,['9'],5,166,[0.00619734],94,44,hard,plus,dotcolour,beta,18,20,V,R,
266,14,14,6,2,53,27,715,['c'],1,left,['9'],5,117,[0.05110022],100,53,easy,plus,dotcolour,beta,18,20,V,R,
267,15,15,6,2,47,33,1032,['n'],0,left,['9'],5,201,[0.07009148],36,47,medium,plus,dotcolour,beta,18,20,V,R,
268,16,16,6,2,33,47,632,['c'],0,right,['9'],5,145,[0.07549731],100,47,medium,plus,dotcolour,beta,18,20,V,R,
269,17,17,6,2,33,47,898,['n'],1,right,['9'],5,216,[-0.01995303],95,47,medium,plus,dotcolour,beta,18,20,V,R,
270,18,18,6,2,27,53,717,['n'],1,right,['9'],5,197,[-0.14452863],100,53,easy,plus,dotcolour,beta,18,20,V,R,
271,19,19,6,2,36,44,632,['n'],1,right,['9'],5,205,[-0.0979265],100,44,hard,plus,dotcolour,beta,18,20,V,R,
272,20,20,6,2,36,44,599,['n'],1,right,['9'],5,158,[-0.09846367],100,44,hard,plus,dotcolour,beta,18,20,V,R,
273,21,21,6,2,36,44,681,['n'],1,right,['9'],5,110,[-0.09472777],100,44,hard,plus,dotcolour,beta,18,20,V,R,
274,22,22,6,2,27,53,598,['n'],1,right,['9'],5,130,[-0.07458889],100,53,easy,plus,dotcolour,beta,18,20,V,R,
275,23,23,6,2,27,53,1015,['n'],1,right,['9'],5,742,[-0.24036296],100,53,easy,plus,dotcolour,beta,18,20,V,R,
276,24,24,6,2,27,53,598,['n'],1,right,['9'],5,82,[-0.0243915],99,53,easy,plus,dotcolour,beta,18,20,V,R,
277,25,25,6,2,33,47,583,['n'],1,right,['9'],5,121,[-0.02762566],99,47,medium,plus,dotcolour,beta,18,20,V,R,
278,26,26,6,2,36,44,581,['n'],1,right,['9'],5,807,[-0.16424106],99,44,hard,plus,dotcolour,beta,18,20,V,R,
279,27,27,6,2,44,36,931,['c'],1,left,['9'],5,186,[0.15680245],100,44,hard,plus,dotcolour,beta,18,20,V,R,
280,28,28,6,2,27,53,683,['n'],1,right,['9'],5,137,[-0.10603623],100,53,easy,plus,dotcolour,beta,18,20,V,R,
281,29,29,6,2,44,36,1048,['n'],0,left,['9'],5,107,[-0.04389792],100,44,hard,plus,dotcolour,beta,18,20,V,R,
282,30,30,6,2,44,36,1516,['n'],0,left,['9'],5,77,[-0.07109399],100,44,hard,plus,dotcolour,beta,18,20,V,R,
283,31,31,6,2,33,47,799,['n'],1,right,['9'],5,666,[-0.07344943],95,47,medium,plus,dotcolour,beta,18,20,V,R,
284,32,32,6,2,53,27,648,['c'],1,left,['9'],5,151,[0.0922607],100,53,easy,plus,dotcolour,beta,18,20,V,R,
285,33,33,6,2,33,47,599,['n'],1,right,['9'],5,42,[-0.06921681],100,47,medium,plus,dotcolour,beta,18,20,V,R,
286,34,34,6,2,47,33,1082,['c'],1,left,['9'],5,95,[0.06745048],100,47,medium,plus,dotcolour,beta,18,20,V,R,
287,35,35,6,2,53,27,649,['c'],1,left,['9'],5,131,[0.07694191],100,53,easy,plus,dotcolour,beta,18,20,V,R,
288,36,36,6,2,44,36,617,['c'],1,left,['9'],5,78,[0.08505299],100,44,hard,plus,dotcolour,beta,18,20,V,R,
289,37,37,6,2,53,27,715,['c'],1,left,['9'],5,71,[0.03247189],100,53,easy,plus,dotcolour,beta,18,20,V,R,
290,38,38,6,2,53,27,600,['c'],1,left,['9'],5,119,[0.04576134],99,53,easy,plus,dotcolour,beta,18,20,V,R,
291,39,39,6,2,47,33,615,['c'],1,left,['9'],5,114,[0.05055641],100,47,medium,plus,dotcolour,beta,18,20,V,R,
292,40,40,6,2,27,53,966,['n'],1,right,['9'],5,200,[-0.09656985],100,53,easy,plus,dotcolour,beta,18,20,V,R,
293,41,41,6,2,53,27,699,['c'],1,left,['9'],5,134,[0.07169931],100,53,easy,plus,dotcolour,beta,18,20,V,R,
294,42,0,7,2,36,44,949,['c'],0,right,['9'],5,122,[0.10491169],100,44,hard,plus,dotcolour,beta,18,20,V,R,
295,43,1,7,2,33,47,865,['n'],1,right,['9'],5,115,[-0.1188461],100,47,medium,plus,dotcolour,beta,18,20,V,R,
296,44,2,7,2,27,53,799,['n'],1,right,['9'],5,80,[-0.15348962],100,53,easy,plus,dotcolour,beta,18,20,V,R,
297,45,3,7,2,33,47,832,['n'],1,right,['9'],5,125,[-0.11589663],100,47,medium,plus,dotcolour,beta,18,20,V,R,
298,46,4,7,2,53,27,631,['c'],1,left,['9'],5,128,[0.0643357],100,53,easy,plus,dotcolour,beta,18,20,V,R,
299,47,5,7,2,44,36,599,['c'],1,left,['9'],5,84,[0.08491924],100,44,hard,plus,dotcolour,beta,18,20,V,R,
300,48,6,7,2,33,47,748,['n'],1,right,['9'],5,181,[-0.07087298],100,47,medium,plus,dotcolour,beta,18,20,V,R,
301,49,7,7,2,44,36,697,['c'],1,left,['9'],5,123,[0.11124359],100,44,hard,plus,dotcolour,beta,18,20,V,R,
302,50,8,7,2,47,33,548,['c'],1,left,['9'],5,90,[0.11482862],100,47,medium,plus,dotcolour,beta,18,20,V,R,
303,51,9,7,2,33,47,816,['n'],1,right,['9'],5,120,[-0.0771696],100,47,medium,plus,dotcolour,beta,18,20,V,R,
304,52,10,7,2,27,53,782,['n'],1,right,['9'],5,141,[-0.16815389],100,53,easy,plus,dotcolour,beta,18,20,V,R,
305,53,11,7,2,44,36,649,['c'],1,left,['9'],5,111,[0.07832322],100,44,hard,plus,dotcolour,beta,18,20,V,R,
306,54,12,7,2,27,53,682,['n'],1,right,['9'],5,137,[-0.05688038],100,53,easy,plus,dotcolour,beta,18,20,V,R,
307,55,13,7,2,53,27,631,['c'],1,left,['9'],5,156,[0.07006776],100,53,easy,plus,dotcolour,beta,18,20,V,R,
308,56,14,7,2,44,36,899,['n'],0,left,['9'],5,59,[-0.10204414],100,44,hard,plus,dotcolour,beta,18,20,V,R,
309,57,15,7,2,53,27,2149,['c'],1,left,['9'],5,124,[0.15155907],100,53,easy,plus,dotcolour,beta,18,20,V,R,
310,58,16,7,2,44,36,1566,['c'],1,left,['9'],5,82,[0.09468497],100,44,hard,plus,dotcolour,beta,18,20,V,R,
311,59,17,7,2,53,27,632,['c'],1,left,['9'],5,56,[0.0240387],100,53,easy,plus,dotcolour,beta,18,20,V,R,
312,60,18,7,2,36,44,3632,['n'],1,right,['9'],5,566,[0.021771],69,44,hard,plus,dotcolour,beta,18,20,V,R,
313,61,19,7,2,27,53,1332,['n'],1,right,['8'],4,228,[-0.18169927],100,53,easy,plus,dotcolour,beta,18,20,V,R,
314,62,20,7,2,47,33,1231,['c'],1,left,['3'],3,395,[0.00669291],86,47,medium,plus,dotcolour,beta,18,20,V,R,
315,63,21,7,2,44,36,1182,['c'],1,left,['3'],3,422,[0.07779199],98,44,hard,plus,dotcolour,beta,18,20,V,R,
316,64,22,7,2,53,27,1066,['c'],1,left,['9'],5,452,[0.07070732],97,53,easy,plus,dotcolour,beta,18,20,V,R,
317,65,23,7,2,47,33,1031,['c'],1,left,['9'],5,267,[0.10805652],100,47,medium,plus,dotcolour,beta,18,20,V,R,
318,66,24,7,2,36,44,782,['n'],1,right,['9'],5,234,[-0.13737399],100,44,hard,plus,dotcolour,beta,18,20,V,R,
319,67,25,7,2,36,44,882,['n'],1,right,['9'],5,167,[-0.07151658],100,44,hard,plus,dotcolour,beta,18,20,V,R,
320,68,26,7,2,27,53,648,['n'],1,right,['9'],5,200,[-0.13501273],100,53,easy,plus,dotcolour,beta,18,20,V,R,
321,69,27,7,2,47,33,733,['c'],1,left,['9'],5,116,[0.10224676],100,47,medium,plus,dotcolour,beta,18,20,V,R,
322,70,28,7,2,36,44,682,['c'],0,right,['9'],5,214,[0.10248795],100,44,hard,plus,dotcolour,beta,18,20,V,R,
323,71,29,7,2,47,33,1348,['c'],1,left,['9'],5,433,[0.0848626],98,47,medium,plus,dotcolour,beta,18,20,V,R,
324,72,30,7,2,33,47,1048,['n'],1,right,['9'],5,271,[-0.02846039],95,47,medium,plus,dotcolour,beta,18,20,V,R,
325,73,31,7,2,44,36,816,['c'],1,left,['9'],5,174,[0.10305038],100,44,hard,plus,dotcolour,beta,18,20,V,R,
326,74,32,7,2,33,47,1682,['n'],1,right,['9'],5,229,[-0.04417218],98,47,medium,plus,dotcolour,beta,18,20,V,R,
327,75,33,7,2,33,47,782,['n'],1,right,['9'],5,198,[-0.14545583],100,47,medium,plus,dotcolour,beta,18,20,V,R,
328,76,34,7,2,47,33,849,['c'],1,left,['9'],5,342,[0.09090472],99,47,medium,plus,dotcolour,beta,18,20,V,R,
329,77,35,7,2,27,53,682,['n'],1,right,['9'],5,181,[-0.07231706],100,53,easy,plus,dotcolour,beta,18,20,V,R,
330,78,36,7,2,47,33,833,['c'],1,left,['9'],5,159,[0.05829849],99,47,medium,plus,dotcolour,beta,18,20,V,R,
331,79,37,7,2,36,44,782,['n'],1,right,['9'],5,106,[-0.12361549],100,44,hard,plus,dotcolour,beta,18,20,V,R,
332,80,38,7,2,53,27,665,['c'],1,left,['9'],5,157,[0.11707985],100,53,easy,plus,dotcolour,beta,18,20,V,R,
333,81,39,7,2,36,44,865,['n'],1,right,['9'],5,166,[-0.03859472],98,44,hard,plus,dotcolour,beta,18,20,V,R,
334,82,40,7,2,27,53,665,['n'],1,right,['9'],5,142,[-0.05864689],100,53,easy,plus,dotcolour,beta,18,20,V,R,
335,83,41,7,2,53,27,780,['c'],1,left,['9'],5,195,[0.15953672],100,53,easy,plus,dotcolour,beta,18,20,V,R,
336,84,0,8,2,47,33,683,['c'],1,left,['9'],5,186,[0.08502453],100,47,medium,plus,dotcolour,beta,18,20,V,R,
337,85,1,8,2,36,44,615,['n'],1,right,['9'],5,139,[-0.04107632],99,44,hard,plus,dotcolour,beta,18,20,V,R,
338,86,2,8,2,33,47,566,['n'],1,right,['9'],5,129,[-0.04130051],99,47,medium,plus,dotcolour,beta,18,20,V,R,
339,87,3,8,2,36,44,1049,['c'],0,right,['9'],5,971,[0.13593134],97,44,hard,plus,dotcolour,beta,18,20,V,R,
340,88,4,8,2,44,36,2232,['n'],0,left,['9'],5,508,[-0.03438769],91,44,hard,plus,dotcolour,beta,18,20,V,R,
341,89,5,8,2,33,47,750,['n'],1,right,['9'],5,147,[-0.09609323],100,47,medium,plus,dotcolour,beta,18,20,V,R,
342,90,6,8,2,33,47,584,['n'],1,right,['9'],5,191,[-0.06329252],99,47,medium,plus,dotcolour,beta,18,20,V,R,
343,91,7,8,2,44,36,799,['c'],1,left,['9'],5,145,[0.08360304],100,44,hard,plus,dotcolour,beta,18,20,V,R,
344,92,8,8,2,53,27,832,['c'],1,left,['9'],5,131,[0.12829979],100,53,easy,plus,dotcolour,beta,18,20,V,R,
345,93,9,8,2,53,27,897,['c'],1,left,['9'],5,148,[0.12139338],100,53,easy,plus,dotcolour,beta,18,20,V,R,
346,94,10,8,2,47,33,932,['c'],1,left,['9'],5,138,[0.08897562],100,47,medium,plus,dotcolour,beta,18,20,V,R,
347,95,11,8,2,53,27,882,['c'],1,left,['9'],5,147,[0.0760161],100,53,easy,plus,dotcolour,beta,18,20,V,R,
348,96,12,8,2,36,44,1549,['n'],1,right,['9'],5,272,[-0.04362997],97,44,hard,plus,dotcolour,beta,18,20,V,R,
349,97,13,8,2,47,33,748,['c'],1,left,['9'],5,121,[0.07874495],100,47,medium,plus,dotcolour,beta,18,20,V,R,
350,98,14,8,2,53,27,965,['c'],1,left,['9'],5,167,[0.0161177],96,53,easy,plus,dotcolour,beta,18,20,V,R,
351,99,15,8,2,53,27,730,['c'],1,left,['9'],5,125,[0.08953696],100,53,easy,plus,dotcolour,beta,18,20,V,R,
352,100,16,8,2,33,47,1499,['n'],1,right,['9'],5,269,[-0.10795749],100,47,medium,plus,dotcolour,beta,18,20,V,R,
353,101,17,8,2,53,27,899,['c'],1,left,['9'],5,969,[0.24125149],100,53,easy,plus,dotcolour,beta,18,20,V,R,
354,102,18,8,2,27,53,1049,['n'],1,right,['9'],5,225,[-0.16573215],100,53,easy,plus,dotcolour,beta,18,20,V,R,
355,103,19,8,2,44,36,917,['c'],1,left,['9'],5,245,[0.10443977],100,44,hard,plus,dotcolour,beta,18,20,V,R,
356,104,20,8,2,47,33,1213,['c'],1,left,['9'],5,420,[0.12136839],99,47,medium,plus,dotcolour,beta,18,20,V,R,
357,105,21,8,2,27,53,699,['n'],1,right,['9'],5,144,[-0.05319543],99,53,easy,plus,dotcolour,beta,18,20,V,R,
358,106,22,8,2,47,33,865,['c'],1,left,['9'],5,121,[0.07175764],100,47,medium,plus,dotcolour,beta,18,20,V,R,
359,107,23,8,2,27,53,715,['n'],1,right,['9'],5,129,[-0.0809961],100,53,easy,plus,dotcolour,beta,18,20,V,R,
360,108,24,8,2,36,44,1248,['c'],0,right,['9'],5,196,[0.09194949],100,44,hard,plus,dotcolour,beta,18,20,V,R,
361,109,25,8,2,33,47,598,['c'],0,right,['2'],2,989,[0.01033812],77,47,medium,plus,dotcolour,beta,18,20,V,R,
362,110,26,8,2,27,53,650,['n'],1,right,['9'],5,173,[-0.08132029],100,53,easy,plus,dotcolour,beta,18,20,V,R,
363,111,27,8,2,27,53,615,['n'],1,right,['9'],5,151,[-0.06488758],100,53,easy,plus,dotcolour,beta,18,20,V,R,
364,112,28,8,2,33,47,666,['n'],1,right,['9'],5,152,[-0.11677527],100,47,medium,plus,dotcolour,beta,18,20,V,R,
365,113,29,8,2,44,36,1015,['c'],1,left,['9'],5,154,[0.06825473],100,44,hard,plus,dotcolour,beta,18,20,V,R,
366,114,30,8,2,36,44,1067,['c'],0,right,['8'],4,586,[0.03113774],88,44,hard,plus,dotcolour,beta,18,20,V,R,
367,115,31,8,2,36,44,1097,['n'],1,right,['3'],3,288,[-0.10409658],100,44,hard,plus,dotcolour,beta,18,20,V,R,
368,116,32,8,2,47,33,1165,['c'],1,left,['3'],3,296,[0.08621792],99,47,medium,plus,dotcolour,beta,18,20,V,R,
369,117,33,8,2,44,36,1148,['c'],1,left,['3'],3,384,[0.12036572],99,44,hard,plus,dotcolour,beta,18,20,V,R,
370,118,34,8,2,27,53,698,['n'],1,right,['3'],3,350,[-0.07413945],98,53,easy,plus,dotcolour,beta,18,20,V,R,
371,119,35,8,2,47,33,1766,['c'],1,left,['3'],3,515,[0.10484275],98,47,medium,plus,dotcolour,beta,18,20,V,R,
372,120,36,8,2,33,47,1565,['n'],1,right,['2'],2,290,[-0.15244092],100,47,medium,plus,dotcolour,beta,18,20,V,R,
373,121,37,8,2,44,36,1565,['c'],1,left,['9'],5,209,[0.09125597],100,44,hard,plus,dotcolour,beta,18,20,V,R,
374,122,38,8,2,36,44,1565,['c'],0,right,['9'],5,212,[0.07619431],99,44,hard,plus,dotcolour,beta,18,20,V,R,
375,123,39,8,2,44,36,1530,['c'],1,left,['9'],5,247,[0.13410618],100,44,hard,plus,dotcolour,beta,18,20,V,R,
376,124,40,8,2,53,27,1182,['c'],1,left,['9'],5,600,[0.15612189],99,53,easy,plus,dotcolour,beta,18,20,V,R,
377,125,41,8,2,27,53,748,['n'],1,right,['9'],5,220,[-0.09655682],100,53,easy,plus,dotcolour,beta,18,20,V,R,
378,0,0,9,3,53,27,749,['c'],1,left,['9'],5,206,[0.20332014],100,53,easy,minus,dotcolour,beta,18,20,V,R,
379,1,1,9,3,33,47,598,['n'],1,right,['9'],5,153,[-0.05852976],53,47,medium,minus,dotcolour,beta,18,20,V,R,
380,2,2,9,3,53,27,613,['c'],1,left,['9'],5,179,[0.19158159],100,53,easy,minus,dotcolour,beta,18,20,V,R,
381,3,3,9,3,36,44,865,['n'],1,right,['9'],5,179,[-0.06317623],58,44,hard,minus,dotcolour,beta,18,20,V,R,
382,4,4,9,3,47,33,717,['c'],1,left,['9'],5,144,[0.07032981],67,47,medium,minus,dotcolour,beta,18,20,V,R,
383,5,5,9,3,33,47,715,['n'],1,right,['9'],5,128,[-0.07879939],76,47,medium,minus,dotcolour,beta,18,20,V,R,
384,6,6,9,3,33,47,1081,['n'],1,right,['9'],5,305,[-0.14906726],95,47,medium,minus,dotcolour,beta,18,20,V,R,
385,7,7,9,3,47,33,782,['c'],1,left,['9'],5,191,[0.09919901],86,47,medium,minus,dotcolour,beta,18,20,V,R,
386,8,8,9,3,47,33,515,['c'],1,left,['9'],5,187,[0.11764833],93,47,medium,minus,dotcolour,beta,18,20,V,R,
387,9,9,9,3,27,53,681,['n'],1,right,['9'],5,123,[-0.09783936],90,53,easy,minus,dotcolour,beta,18,20,V,R,
388,10,10,9,3,33,47,915,['n'],1,right,['9'],5,131,[-0.07937566],77,47,medium,minus,dotcolour,beta,18,20,V,R,
389,11,11,9,3,47,33,717,['c'],1,left,['0'],6,267,[0.09337128],79,47,medium,minus,dotcolour,beta,18,20,V,R,
390,12,12,9,3,47,33,631,['c'],1,left,['0'],6,232,[0.14474991],97,47,medium,minus,dotcolour,beta,18,20,V,R,
391,13,13,9,3,27,53,782,['n'],1,right,['0'],6,217,[-0.14948276],97,53,easy,minus,dotcolour,beta,18,20,V,R,
392,14,14,9,3,27,53,848,['n'],1,right,['0'],6,105,[-0.06124283],58,53,easy,minus,dotcolour,beta,18,20,V,R,
393,15,15,9,3,33,47,932,['n'],1,right,['0'],6,369,[-0.09872896],78,47,medium,minus,dotcolour,beta,18,20,V,R,
394,16,16,9,3,36,44,1215,['n'],1,right,['0'],6,323,[-0.09937425],80,44,hard,minus,dotcolour,beta,18,20,V,R,
395,17,17,9,3,36,44,1165,['c'],0,right,['0'],6,241,[0.06337337],57,44,hard,minus,dotcolour,beta,18,20,V,R,
396,18,18,9,3,44,36,632,['c'],1,left,['0'],6,175,[0.0909812],82,44,hard,minus,dotcolour,beta,18,20,V,R,
397,19,19,9,3,27,53,715,['n'],1,right,['0'],6,197,[-0.08838831],79,53,easy,minus,dotcolour,beta,18,20,V,R,
398,20,20,9,3,36,44,498,['n'],1,right,['0'],6,218,[-0.05833583],53,44,hard,minus,dotcolour,beta,18,20,V,R,
399,21,21,9,3,53,27,565,['c'],1,left,['0'],6,197,[0.15267323],98,53,easy,minus,dotcolour,beta,18,20,V,R,
400,22,22,9,3,36,44,1115,['c'],0,right,['0'],6,185,[-0.01778293],4,44,hard,minus,dotcolour,beta,18,20,V,R,
401,23,23,9,3,44,36,916,['n'],0,left,['0'],6,199,[-0.0196359],19,44,hard,minus,dotcolour,beta,18,20,V,R,
402,24,24,9,3,53,27,699,['c'],1,left,['0'],6,189,[0.12676062],95,53,easy,minus,dotcolour,beta,18,20,V,R,
403,25,25,9,3,36,44,732,['c'],0,right,['0'],6,242,[0.19463338],99,44,hard,minus,dotcolour,beta,18,20,V,R,
404,26,26,9,3,53,27,1597,['c'],1,left,['0'],6,474,[0.11587961],83,53,easy,minus,dotcolour,beta,18,20,V,R,
405,27,27,9,3,27,53,715,['n'],1,right,['0'],6,260,[-0.0673238],60,53,easy,minus,dotcolour,beta,18,20,V,R,
406,28,28,9,3,44,36,632,['c'],1,left,['0'],6,169,[0.13877436],97,44,hard,minus,dotcolour,beta,18,20,V,R,
407,29,29,9,3,47,33,616,['n'],0,left,['2'],2,1068,[0.16480323],2,47,medium,minus,dotcolour,beta,18,20,V,R,
408,30,30,9,3,44,36,1049,['c'],1,left,['0'],6,345,[0.12905679],90,44,hard,minus,dotcolour,beta,18,20,V,R,
409,31,31,9,3,44,36,982,['n'],0,left,['0'],6,221,[-0.00407537],12,44,hard,minus,dotcolour,beta,18,20,V,R,
410,32,32,9,3,36,44,1648,['c'],0,right,['0'],6,188,[0.01456164],15,44,hard,minus,dotcolour,beta,18,20,V,R,
411,33,33,9,3,33,47,831,['n'],1,right,['0'],6,228,[-0.05677132],51,47,medium,minus,dotcolour,beta,18,20,V,R,
412,34,34,9,3,44,36,315,['c'],1,left,['0'],6,832,[0.12611745],80,44,hard,minus,dotcolour,beta,18,20,V,R,
413,35,35,9,3,53,27,781,['c'],1,left,['0'],6,105,[0.09362343],89,53,easy,minus,dotcolour,beta,18,20,V,R,
414,36,36,9,3,44,36,865,['c'],1,left,['0'],6,708,[0.05583853],50,44,hard,minus,dotcolour,beta,18,20,V,R,
415,37,37,9,3,33,47,948,['n'],1,right,['0'],6,331,[-0.13754309],93,47,medium,minus,dotcolour,beta,18,20,V,R,
416,38,38,9,3,47,33,615,['c'],1,left,['0'],6,166,[-0.01594131],4,47,medium,minus,dotcolour,beta,18,20,V,R,
417,39,39,9,3,27,53,532,['n'],1,right,['0'],6,212,[-0.01286695],16,53,easy,minus,dotcolour,beta,18,20,V,R,
418,40,40,9,3,27,53,448,['n'],1,right,['0'],6,259,[-0.12706428],93,53,easy,minus,dotcolour,beta,18,20,V,R,
419,41,41,9,3,53,27,715,['c'],1,left,['0'],6,206,[0.09035661],80,53,easy,minus,dotcolour,beta,18,20,V,R,
420,42,0,10,3,44,36,716,['c'],1,left,['0'],6,105,[0.14581866],99,44,hard,minus,dotcolour,beta,18,20,V,R,
421,43,1,10,3,27,53,515,['n'],1,right,['0'],6,154,[-0.14445866],98,53,easy,minus,dotcolour,beta,18,20,V,R,
422,44,2,10,3,27,53,631,['n'],1,right,['0'],6,164,[-0.07595553],71,53,easy,minus,dotcolour,beta,18,20,V,R,
423,45,3,10,3,36,44,700,['n'],1,right,['0'],6,147,[-0.05200321],46,44,hard,minus,dotcolour,beta,18,20,V,R,
424,46,4,10,3,27,53,765,['n'],1,right,['0'],6,168,[-0.10547293],90,53,easy,minus,dotcolour,beta,18,20,V,R,
425,47,5,10,3,44,36,882,['n'],0,left,['0'],6,95,[-0.02786162],17,44,hard,minus,dotcolour,beta,18,20,V,R,
426,48,6,10,3,53,27,816,['c'],1,left,['0'],6,132,[0.0702595],67,53,easy,minus,dotcolour,beta,18,20,V,R,
427,49,7,10,3,36,44,899,['n'],1,right,['0'],6,125,[-0.0914533],86,44,hard,minus,dotcolour,beta,18,20,V,R,
428,50,8,10,3,53,27,1216,['c'],1,left,['0'],6,128,[0.0827416],80,53,easy,minus,dotcolour,beta,18,20,V,R,
429,51,9,10,3,53,27,665,['c'],1,left,['0'],6,178,[0.14207825],98,53,easy,minus,dotcolour,beta,18,20,V,R,
430,52,10,10,3,36,44,849,['n'],1,right,['0'],6,178,[-0.05030642],44,44,hard,minus,dotcolour,beta,18,20,V,R,
431,53,11,10,3,33,47,616,['n'],1,right,['0'],6,572,[0.0008514],21,47,medium,minus,dotcolour,beta,18,20,V,R,
432,54,12,10,3,47,33,632,['c'],1,left,['0'],6,133,[0.038566],30,47,medium,minus,dotcolour,beta,18,20,V,R,
433,55,13,10,3,33,47,715,['c'],0,right,['0'],6,844,[-0.0407765],13,47,medium,minus,dotcolour,beta,18,20,V,R,
434,56,14,10,3,47,33,882,['c'],1,left,['0'],6,265,[0.1692998],98,47,medium,minus,dotcolour,beta,18,20,V,R,
435,57,15,10,3,33,47,698,['n'],1,right,['0'],6,260,[-0.09635747],81,47,medium,minus,dotcolour,beta,18,20,V,R,
436,58,16,10,3,44,36,681,['c'],1,left,['0'],6,192,[0.11615881],92,44,hard,minus,dotcolour,beta,18,20,V,R,
437,59,17,10,3,36,44,648,['n'],1,right,['0'],6,463,[-0.20828238],98,44,hard,minus,dotcolour,beta,18,20,V,R,
438,60,18,10,3,47,33,749,['c'],1,left,['0'],6,216,[0.09455304],82,47,medium,minus,dotcolour,beta,18,20,V,R,
439,61,19,10,3,53,27,764,['c'],1,left,['0'],6,195,[0.17793068],99,53,easy,minus,dotcolour,beta,18,20,V,R,
440,62,20,10,3,33,47,665,['n'],1,right,['0'],6,170,[-0.12713772],96,47,medium,minus,dotcolour,beta,18,20,V,R,
441,63,21,10,3,53,27,631,['c'],1,left,['0'],6,220,[0.157816],98,53,easy,minus,dotcolour,beta,18,20,V,R,
442,64,22,10,3,44,36,865,['c'],1,left,['0'],6,186,[0.06556551],60,44,hard,minus,dotcolour,beta,18,20,V,R,
443,65,23,10,3,53,27,765,['c'],1,left,['0'],6,181,[0.13506783],97,53,easy,minus,dotcolour,beta,18,20,V,R,
444,66,24,10,3,36,44,749,['n'],1,right,['0'],6,138,[-0.06535324],62,44,hard,minus,dotcolour,beta,18,20,V,R,
445,67,25,10,3,44,36,850,['c'],1,left,['0'],6,148,[0.04323755],36,44,hard,minus,dotcolour,beta,18,20,V,R,
446,68,26,10,3,53,27,749,['c'],1,left,['0'],6,129,[0.04998941],43,53,easy,minus,dotcolour,beta,18,20,V,R,
447,69,27,10,3,47,33,683,['c'],1,left,['0'],6,194,[0.06041613],55,47,medium,minus,dotcolour,beta,18,20,V,R,
448,70,28,10,3,27,53,717,['n'],1,right,['0'],6,207,[-0.16338887],99,53,easy,minus,dotcolour,beta,18,20,V,R,
449,71,29,10,3,27,53,615,['n'],1,right,['0'],6,175,[-0.07349515],68,53,easy,minus,dotcolour,beta,18,20,V,R,
450,72,30,10,3,27,53,649,['n'],1,right,['0'],6,216,[-0.1300014],95,53,easy,minus,dotcolour,beta,18,20,V,R,
451,73,31,10,3,44,36,1049,['c'],1,left,['0'],6,143,[0.05447077],49,44,hard,minus,dotcolour,beta,18,20,V,R,
452,74,32,10,3,36,44,615,['n'],1,right,['0'],6,122,[-0.05465885],49,44,hard,minus,dotcolour,beta,18,20,V,R,
453,75,33,10,3,47,33,1065,['n'],0,left,['0'],6,172,[-0.1058041],90,47,medium,minus,dotcolour,beta,18,20,V,R,
454,76,34,10,3,36,44,932,['c'],0,right,['0'],6,370,[0.13953239],92,44,hard,minus,dotcolour,beta,18,20,V,R,
455,77,35,10,3,47,33,1215,['c'],1,left,['2'],2,244,[0.14967616],97,47,medium,minus,dotcolour,beta,18,20,V,R,
456,78,36,10,3,47,33,682,['c'],1,left,['2'],2,288,[-0.00590696],11,47,medium,minus,dotcolour,beta,18,20,V,R,
457,79,37,10,3,33,47,568,['n'],1,right,['0'],6,1192,[-0.14959551],82,47,medium,minus,dotcolour,beta,18,20,V,R,
458,80,38,10,3,33,47,733,['n'],1,right,['9'],5,228,[-0.18213513],99,47,medium,minus,dotcolour,beta,18,20,V,R,
459,81,39,10,3,33,47,932,['n'],1,right,['9'],5,263,[-0.11634919],89,47,medium,minus,dotcolour,beta,18,20,V,R,
460,82,40,10,3,44,36,899,['c'],1,left,['0'],6,338,[0.12396822],89,44,hard,minus,dotcolour,beta,18,20,V,R,
461,83,41,10,3,27,53,733,['n'],1,right,['9'],5,241,[-0.15673992],98,53,easy,minus,dotcolour,beta,18,20,V,R,
462,84,0,11,3,33,47,816,['n'],1,right,['0'],6,279,[-0.13158212],93,47,medium,minus,dotcolour,beta,18,20,V,R,
463,85,1,11,3,53,27,700,['c'],1,left,['0'],6,193,[0.13988214],97,53,easy,minus,dotcolour,beta,18,20,V,R,
464,86,2,11,3,33,47,867,['n'],1,right,['0'],6,208,[-0.02858081],26,47,medium,minus,dotcolour,beta,18,20,V,R,
465,87,3,11,3,36,44,966,['n'],1,right,['0'],6,346,[-0.20203018],99,44,hard,minus,dotcolour,beta,18,20,V,R,
466,88,4,11,3,53,27,865,['c'],1,left,['0'],6,259,[0.11639305],90,53,easy,minus,dotcolour,beta,18,20,V,R,
467,89,5,11,3,33,47,934,['n'],1,right,['0'],6,269,[-0.08528938],74,47,medium,minus,dotcolour,beta,18,20,V,R,
468,90,6,11,3,36,44,882,['n'],1,right,['0'],6,200,[-0.08014717],73,44,hard,minus,dotcolour,beta,18,20,V,R,
469,91,7,11,3,27,53,766,['n'],1,right,['0'],6,187,[-0.10801686],90,53,easy,minus,dotcolour,beta,18,20,V,R,
470,92,8,11,3,36,44,1134,['n'],1,right,['0'],6,192,[-0.12315921],94,44,hard,minus,dotcolour,beta,18,20,V,R,
471,93,9,11,3,27,53,666,['n'],1,right,['0'],6,270,[-0.06614201],59,53,easy,minus,dotcolour,beta,18,20,V,R,
472,94,10,11,3,44,36,731,['c'],1,left,['0'],6,367,[0.02311238],28,44,hard,minus,dotcolour,beta,18,20,V,R,
473,95,11,11,3,36,44,883,['n'],1,right,['0'],6,207,[-0.12274681],93,44,hard,minus,dotcolour,beta,18,20,V,R,
474,96,12,11,3,44,36,750,['c'],1,left,['0'],6,154,[0.05419712],48,44,hard,minus,dotcolour,beta,18,20,V,R,
475,97,13,11,3,36,44,817,['n'],1,right,['0'],6,236,[-0.11207153],89,44,hard,minus,dotcolour,beta,18,20,V,R,
476,98,14,11,3,53,27,564,['c'],1,left,['0'],6,214,[0.04322574],38,53,easy,minus,dotcolour,beta,18,20,V,R,
477,99,15,11,3,47,33,615,['c'],1,left,['0'],6,271,[0.15601468],97,47,medium,minus,dotcolour,beta,18,20,V,R,
478,100,16,11,3,53,27,615,['c'],1,left,['0'],6,164,[0.1249355],96,53,easy,minus,dotcolour,beta,18,20,V,R,
479,101,17,11,3,47,33,765,['n'],0,left,['0'],6,169,[-0.03265468],27,47,medium,minus,dotcolour,beta,18,20,V,R,
480,102,18,11,3,44,36,866,['c'],1,left,['0'],6,160,[0.04244248],36,44,hard,minus,dotcolour,beta,18,20,V,R,
481,103,19,11,3,44,36,766,['n'],0,left,['0'],6,181,[-0.09503146],84,44,hard,minus,dotcolour,beta,18,20,V,R,
482,104,20,11,3,47,33,665,['n'],0,left,['0'],6,165,[-0.006264],10,47,medium,minus,dotcolour,beta,18,20,V,R,
483,105,21,11,3,47,33,1648,['n'],0,left,['0'],6,213,[-0.11954563],92,47,medium,minus,dotcolour,beta,18,20,V,R,
484,106,22,11,3,33,47,832,['n'],1,right,['0'],6,245,[-0.1296328],94,47,medium,minus,dotcolour,beta,18,20,V,R,
485,107,23,11,3,36,44,748,['n'],1,right,['0'],6,191,[-0.02634194],23,44,hard,minus,dotcolour,beta,18,20,V,R,
486,108,24,11,3,27,53,564,['n'],1,right,['0'],6,266,[-0.10137018],83,53,easy,minus,dotcolour,beta,18,20,V,R,
487,109,25,11,3,44,36,716,['n'],0,left,['0'],6,212,[-0.0389114],34,44,hard,minus,dotcolour,beta,18,20,V,R,
488,110,26,11,3,47,33,615,['c'],1,left,['0'],6,220,[0.13726678],96,47,medium,minus,dotcolour,beta,18,20,V,R,
489,111,27,11,3,27,53,948,['n'],1,right,['0'],6,215,[-0.06753474],61,53,easy,minus,dotcolour,beta,18,20,V,R,
490,112,28,11,3,33,47,732,['n'],1,right,['0'],6,250,[-0.10970821],88,47,medium,minus,dotcolour,beta,18,20,V,R,
491,113,29,11,3,36,44,832,['n'],1,right,['0'],6,273,[-0.1879442],99,44,hard,minus,dotcolour,beta,18,20,V,R,
492,114,30,11,3,47,33,817,['c'],1,left,['0'],6,246,[0.05191595],47,47,medium,minus,dotcolour,beta,18,20,V,R,
493,115,31,11,3,27,53,798,['n'],1,right,['0'],6,238,[-0.13741291],95,53,easy,minus,dotcolour,beta,18,20,V,R,
494,116,32,11,3,33,47,749,['n'],1,right,['0'],6,256,[-0.07272347],65,47,medium,minus,dotcolour,beta,18,20,V,R,
495,117,33,11,3,27,53,649,['n'],1,right,['0'],6,518,[-0.17779737],96,53,easy,minus,dotcolour,beta,18,20,V,R,
496,118,34,11,3,53,27,599,['c'],1,left,['0'],6,227,[0.08292364],74,53,easy,minus,dotcolour,beta,18,20,V,R,
497,119,35,11,3,44,36,1149,['n'],0,left,['0'],6,365,[-0.03815835],37,44,hard,minus,dotcolour,beta,18,20,V,R,
498,120,36,11,3,53,27,748,['c'],1,left,['0'],6,170,[0.1229827],95,53,easy,minus,dotcolour,beta,18,20,V,R,
499,121,37,11,3,47,33,1065,['c'],1,left,['0'],6,179,[0.02308505],20,47,medium,minus,dotcolour,beta,18,20,V,R,
500,122,38,11,3,33,47,950,['n'],1,right,['0'],6,223,[-0.16753072],99,47,medium,minus,dotcolour,beta,18,20,V,R,
501,123,39,11,3,53,27,632,['c'],1,left,['0'],6,326,[0.04943787],45,53,easy,minus,dotcolour,beta,18,20,V,R,
502,124,40,11,3,44,36,633,['n'],0,left,['0'],6,169,[-0.10298225],89,44,hard,minus,dotcolour,beta,18,20,V,R,
503,125,41,11,3,27,53,683,['c'],0,right,['0'],6,185,[-0.00117796],9,53,easy,minus,dotcolour,beta,18,20,V,R,
504,0,0,12,4,47,33,1100,['c'],1,left,['0'],6,168,[0.0969003],100,47,medium,plus,dotcolour,beta,18,20,V,R,
505,1,1,12,4,33,47,915,['n'],1,right,['0'],6,326,[-0.10305054],99,47,medium,plus,dotcolour,beta,18,20,V,R,
506,2,2,12,4,44,36,914,['c'],1,left,['0'],6,254,[0.0382079],97,44,hard,plus,dotcolour,beta,18,20,V,R,
507,3,3,12,4,33,47,748,['n'],1,right,['0'],6,280,[-0.11622293],100,47,medium,plus,dotcolour,beta,18,20,V,R,
508,4,4,12,4,36,44,733,['n'],1,right,['0'],6,144,[-0.12137471],100,44,hard,plus,dotcolour,beta,18,20,V,R,
509,5,5,12,4,53,27,617,['c'],1,left,['0'],6,163,[0.14458332],100,53,easy,plus,dotcolour,beta,18,20,V,R,
510,6,6,12,4,33,47,849,['n'],1,right,['0'],6,212,[-0.19303553],100,47,medium,plus,dotcolour,beta,18,20,V,R,
511,7,7,12,4,36,44,965,['c'],0,right,['0'],6,214,[0.01373849],94,44,hard,plus,dotcolour,beta,18,20,V,R,
512,8,8,12,4,47,33,814,['c'],1,left,['0'],6,182,[0.10715087],100,47,medium,plus,dotcolour,beta,18,20,V,R,
513,9,9,12,4,33,47,765,['n'],1,right,['0'],6,178,[-0.07319399],100,47,medium,plus,dotcolour,beta,18,20,V,R,
514,10,10,12,4,44,36,917,['c'],1,left,['0'],6,152,[0.11755417],100,44,hard,plus,dotcolour,beta,18,20,V,R,
515,11,11,12,4,53,27,915,['c'],1,left,['0'],6,247,[0.12776462],100,53,easy,plus,dotcolour,beta,18,20,V,R,
516,12,12,12,4,27,53,731,['n'],1,right,['0'],6,194,[-0.0691217],99,53,easy,plus,dotcolour,beta,18,20,V,R,
517,13,13,12,4,36,44,667,['n'],1,right,['0'],6,177,[-0.12517509],100,44,hard,plus,dotcolour,beta,18,20,V,R,
518,14,14,12,4,36,44,750,['n'],1,right,['0'],6,213,[-0.10872205],100,44,hard,plus,dotcolour,beta,18,20,V,R,
519,15,15,12,4,36,44,565,['n'],1,right,['0'],6,175,[-0.06296864],99,44,hard,plus,dotcolour,beta,18,20,V,R,
520,16,16,12,4,47,33,633,['c'],1,left,['0'],6,168,[0.09275441],100,47,medium,plus,dotcolour,beta,18,20,V,R,
521,17,17,12,4,33,47,566,['c'],0,right,['0'],6,524,[0.0833413],97,47,medium,plus,dotcolour,beta,18,20,V,R,
522,18,18,12,4,53,27,766,['c'],1,left,['0'],6,170,[0.07827856],100,53,easy,plus,dotcolour,beta,18,20,V,R,
523,19,19,12,4,27,53,716,['n'],1,right,['0'],6,216,[-0.07125625],99,53,easy,plus,dotcolour,beta,18,20,V,R,
524,20,20,12,4,44,36,799,['c'],1,left,['0'],6,177,[0.13788933],100,44,hard,plus,dotcolour,beta,18,20,V,R,
525,21,21,12,4,44,36,818,['c'],1,left,['0'],6,203,[0.0149528],94,44,hard,plus,dotcolour,beta,18,20,V,R,
526,22,22,12,4,53,27,600,['c'],1,left,['0'],6,205,[0.16105211],100,53,easy,plus,dotcolour,beta,18,20,V,R,
527,23,23,12,4,36,44,1532,['c'],0,right,['0'],6,233,[0.14083289],100,44,hard,plus,dotcolour,beta,18,20,V,R,
528,24,24,12,4,27,53,833,['n'],1,right,['0'],6,288,[-0.11943844],100,53,easy,plus,dotcolour,beta,18,20,V,R,
529,25,25,12,4,27,53,697,['n'],1,right,['0'],6,282,[-0.04033936],96,53,easy,plus,dotcolour,beta,18,20,V,R,
530,26,26,12,4,47,33,715,['c'],1,left,['0'],6,420,[0.09667909],99,47,medium,plus,dotcolour,beta,18,20,V,R,
531,27,27,12,4,47,33,566,['c'],1,left,['0'],6,174,[0.07251393],100,47,medium,plus,dotcolour,beta,18,20,V,R,
532,28,28,12,4,53,27,550,['c'],1,left,['0'],6,178,[0.11957042],100,53,easy,plus,dotcolour,beta,18,20,V,R,
533,29,29,12,4,27,53,599,['n'],1,right,['0'],6,229,[-0.07818288],99,53,easy,plus,dotcolour,beta,18,20,V,R,
534,30,30,12,4,44,36,700,['c'],1,left,['0'],6,169,[-0.02384855],80,44,hard,plus,dotcolour,beta,18,20,V,R,
535,31,31,12,4,44,36,516,['n'],0,left,['0'],6,319,[-0.06926836],98,44,hard,plus,dotcolour,beta,18,20,V,R,
536,32,32,12,4,27,53,1215,['n'],1,right,['2'],2,340,[-0.24866239],100,53,easy,plus,dotcolour,beta,18,20,V,R,
537,33,33,12,4,47,33,681,['c'],1,left,['2'],2,140,[0.11056145],100,47,medium,plus,dotcolour,beta,18,20,V,R,
538,34,34,12,4,27,53,882,['n'],1,right,['1'],1,205,[0.01613764],83,53,easy,plus,dotcolour,beta,18,20,V,R,
539,35,35,12,4,33,47,882,['c'],0,right,['9'],5,507,[-0.0188062],72,47,medium,plus,dotcolour,beta,18,20,V,R,
540,36,36,12,4,47,33,1098,['c'],1,left,['9'],5,220,[0.04434938],98,47,medium,plus,dotcolour,beta,18,20,V,R,
541,37,37,12,4,53,27,1481,['c'],1,left,['9'],5,313,[0.15160316],100,53,easy,plus,dotcolour,beta,18,20,V,R,
542,38,38,12,4,44,36,716,['c'],1,left,['2'],2,242,[0.1219375],100,44,hard,plus,dotcolour,beta,18,20,V,R,
543,39,39,12,4,33,47,950,['n'],1,right,['2'],2,227,[-0.03791457],97,47,medium,plus,dotcolour,beta,18,20,V,R,
544,40,40,12,4,53,27,1216,['c'],1,left,['0'],6,155,[0.04644515],99,53,easy,plus,dotcolour,beta,18,20,V,R,
545,41,41,12,4,36,44,898,['n'],1,right,['9'],5,315,[-0.09004468],99,44,hard,plus,dotcolour,beta,18,20,V,R,
546,42,0,13,4,33,47,1600,['n'],1,right,['9'],5,1635,[-0.15918535],95,47,medium,plus,dotcolour,beta,18,20,V,R,
547,43,1,13,4,47,33,765,['c'],1,left,['9'],5,188,[0.13846926],100,47,medium,plus,dotcolour,beta,18,20,V,R,
548,44,2,13,4,47,33,883,['c'],1,left,['9'],5,211,[0.14407127],100,47,medium,plus,dotcolour,beta,18,20,V,R,
549,45,3,13,4,47,33,1048,['n'],0,left,['9'],5,226,[-0.09666311],100,47,medium,plus,dotcolour,beta,18,20,V,R,
550,46,4,13,4,36,44,715,['c'],0,right,['9'],5,206,[0.08671355],100,44,hard,plus,dotcolour,beta,18,20,V,R,
551,47,5,13,4,53,27,665,['c'],1,left,['9'],5,172,[0.13265812],100,53,easy,plus,dotcolour,beta,18,20,V,R,
552,48,6,13,4,53,27,732,['c'],1,left,['9'],5,161,[0.14071404],100,53,easy,plus,dotcolour,beta,18,20,V,R,
553,49,7,13,4,27,53,616,['n'],1,right,['9'],5,147,[-0.06603622],100,53,easy,plus,dotcolour,beta,18,20,V,R,
554,50,8,13,4,53,27,815,['c'],1,left,['0'],6,166,[0.06411199],99,53,easy,plus,dotcolour,beta,18,20,V,R,
555,51,9,13,4,36,44,648,['c'],0,right,['9'],5,439,[0.06970166],97,44,hard,plus,dotcolour,beta,18,20,V,R,
556,52,10,13,4,33,47,982,['n'],1,right,['9'],5,216,[-0.11438931],100,47,medium,plus,dotcolour,beta,18,20,V,R,
557,53,11,13,4,36,44,899,['n'],1,right,['9'],5,500,[-0.19784089],100,44,hard,plus,dotcolour,beta,18,20,V,R,
558,54,12,13,4,44,36,832,['c'],1,left,['9'],5,145,[0.02621892],98,44,hard,plus,dotcolour,beta,18,20,V,R,
559,55,13,13,4,53,27,767,['c'],1,left,['9'],5,182,[0.10710812],100,53,easy,plus,dotcolour,beta,18,20,V,R,
560,56,14,13,4,44,36,815,['c'],1,left,['9'],5,223,[0.09219609],100,44,hard,plus,dotcolour,beta,18,20,V,R,
561,57,15,13,4,44,36,665,['c'],1,left,['9'],5,117,[0.08260043],100,44,hard,plus,dotcolour,beta,18,20,V,R,
562,58,16,13,4,44,36,748,['n'],0,left,['9'],5,132,[-0.03490771],99,44,hard,plus,dotcolour,beta,18,20,V,R,
563,59,17,13,4,53,27,748,['c'],1,left,['9'],5,162,[0.12783916],100,53,easy,plus,dotcolour,beta,18,20,V,R,
564,60,18,13,4,36,44,634,['n'],1,right,['9'],5,180,[-0.11555513],100,44,hard,plus,dotcolour,beta,18,20,V,R,
565,61,19,13,4,36,44,1515,['n'],1,right,['9'],5,714,[-0.11592357],97,44,hard,plus,dotcolour,beta,18,20,V,R,
566,62,20,13,4,27,53,865,['n'],1,right,['9'],5,341,[-0.1458954],100,53,easy,plus,dotcolour,beta,18,20,V,R,
567,63,21,13,4,27,53,749,['n'],1,right,['9'],5,258,[-0.13688156],100,53,easy,plus,dotcolour,beta,18,20,V,R,
568,64,22,13,4,44,36,765,['c'],1,left,['0'],6,218,[0.09312111],100,44,hard,plus,dotcolour,beta,18,20,V,R,
569,65,23,13,4,33,47,900,['n'],1,right,['0'],6,320,[-0.13809168],100,47,medium,plus,dotcolour,beta,18,20,V,R,
570,66,24,13,4,33,47,632,['n'],1,right,['9'],5,163,[-0.09486165],100,47,medium,plus,dotcolour,beta,18,20,V,R,
571,67,25,13,4,47,33,732,['n'],0,left,['9'],5,161,[-0.03360651],98,47,medium,plus,dotcolour,beta,18,20,V,R,
572,68,26,13,4,44,36,799,['c'],1,left,['0'],6,163,[0.02645725],97,44,hard,plus,dotcolour,beta,18,20,V,R,
573,69,27,13,4,33,47,799,['n'],1,right,['9'],5,222,[-0.07551389],99,47,medium,plus,dotcolour,beta,18,20,V,R,
574,70,28,13,4,47,33,884,['c'],1,left,['9'],5,228,[0.05706904],99,47,medium,plus,dotcolour,beta,18,20,V,R,
575,71,29,13,4,53,27,798,['c'],1,left,['9'],5,140,[0.08388185],100,53,easy,plus,dotcolour,beta,18,20,V,R,
576,72,30,13,4,27,53,566,['n'],1,right,['9'],5,113,[-0.1030078],100,53,easy,plus,dotcolour,beta,18,20,V,R,
577,73,31,13,4,47,33,682,['c'],1,left,['9'],5,203,[0.06463044],99,47,medium,plus,dotcolour,beta,18,20,V,R,
578,74,32,13,4,47,33,649,['c'],1,left,['9'],5,171,[0.03188531],98,47,medium,plus,dotcolour,beta,18,20,V,R,
579,75,33,13,4,33,47,599,['c'],0,right,['9'],5,206,[0.06805356],99,47,medium,plus,dotcolour,beta,18,20,V,R,
580,76,34,13,4,36,44,881,['c'],0,right,['9'],5,388,[0.0173982],89,44,hard,plus,dotcolour,beta,18,20,V,R,
581,77,35,13,4,36,44,732,['n'],1,right,['9'],5,161,[-0.0018643],93,44,hard,plus,dotcolour,beta,18,20,V,R,
582,78,36,13,4,53,27,648,['c'],1,left,['0'],6,114,[0.13355865],100,53,easy,plus,dotcolour,beta,18,20,V,R,
583,79,37,13,4,27,53,732,['n'],1,right,['0'],6,169,[-0.06695414],100,53,easy,plus,dotcolour,beta,18,20,V,R,
584,80,38,13,4,27,53,632,['n'],1,right,['0'],6,139,[-0.12723902],100,53,easy,plus,dotcolour,beta,18,20,V,R,
585,81,39,13,4,44,36,699,['c'],1,left,['0'],6,131,[0.06696275],100,44,hard,plus,dotcolour,beta,18,20,V,R,
586,82,40,13,4,33,47,766,['n'],1,right,['0'],6,112,[-0.05907774],100,47,medium,plus,dotcolour,beta,18,20,V,R,
587,83,41,13,4,27,53,615,['c'],0,right,['1'],1,910,[-0.21616197],5,53,easy,plus,dotcolour,beta,18,20,V,R,
588,84,0,14,4,44,36,1000,['n'],0,left,['0'],6,132,[-0.01250816],97,44,hard,plus,dotcolour,beta,18,20,V,R,
589,85,1,14,4,47,33,982,['c'],1,left,['0'],6,129,[0.08856896],100,47,medium,plus,dotcolour,beta,18,20,V,R,
590,86,2,14,4,27,53,682,['n'],1,right,['8'],4,249,[-0.04784834],98,53,easy,plus,dotcolour,beta,18,20,V,R,
591,87,3,14,4,53,27,1133,['c'],1,left,['0'],6,220,[0.10513287],100,53,easy,plus,dotcolour,beta,18,20,V,R,
592,88,4,14,4,53,27,866,['c'],1,left,['2'],2,370,[0.1524017],100,53,easy,plus,dotcolour,beta,18,20,V,R,
593,89,5,14,4,36,44,747,['n'],1,right,['9'],5,271,[-0.0703899],99,44,hard,plus,dotcolour,beta,18,20,V,R,
594,90,6,14,4,47,33,965,['c'],1,left,['2'],2,415,[0.03000665],92,47,medium,plus,dotcolour,beta,18,20,V,R,
595,91,7,14,4,27,53,698,['n'],1,right,['9'],5,156,[-0.07428149],100,53,easy,plus,dotcolour,beta,18,20,V,R,
596,92,8,14,4,53,27,832,['c'],1,left,['2'],2,126,[0.06777677],100,53,easy,plus,dotcolour,beta,18,20,V,R,
597,93,9,14,4,36,44,1233,['n'],1,right,['9'],5,265,[-0.05170458],98,44,hard,plus,dotcolour,beta,18,20,V,R,
598,94,10,14,4,47,33,833,['c'],1,left,['0'],6,182,[0.06074588],99,47,medium,plus,dotcolour,beta,18,20,V,R,
599,95,11,14,4,53,27,1550,['c'],1,left,['9'],5,491,[0.25683266],100,53,easy,plus,dotcolour,beta,18,20,V,R,
600,96,12,14,4,36,44,733,['n'],1,right,['9'],5,196,[-0.10864856],100,44,hard,plus,dotcolour,beta,18,20,V,R,
601,97,13,14,4,27,53,681,['n'],1,right,['9'],5,177,[-0.10898401],100,53,easy,plus,dotcolour,beta,18,20,V,R,
602,98,14,14,4,36,44,797,['n'],1,right,['9'],5,356,[-0.10588755],99,44,hard,plus,dotcolour,beta,18,20,V,R,
603,99,15,14,4,53,27,682,['c'],1,left,['2'],2,684,[0.18191809],99,53,easy,plus,dotcolour,beta,18,20,V,R,
604,100,16,14,4,33,47,647,['n'],1,right,['9'],5,152,[-0.08353249],100,47,medium,plus,dotcolour,beta,18,20,V,R,
605,101,17,14,4,44,36,633,['c'],1,left,['2'],2,1642,[0.16815634],96,44,hard,plus,dotcolour,beta,18,20,V,R,
606,102,18,14,4,53,27,782,['c'],1,left,['2'],2,963,[0.13526136],97,53,easy,plus,dotcolour,beta,18,20,V,R,
607,103,19,14,4,47,33,883,['c'],1,left,['2'],2,2,[0.07293865],100,47,medium,plus,dotcolour,beta,18,20,V,R,
608,104,20,14,4,44,36,764,['c'],1,left,['2'],2,765,[0.02344793],84,44,hard,plus,dotcolour,beta,18,20,V,R,
609,105,21,14,4,47,33,849,['c'],1,left,['9'],5,998,[0.16826443],98,47,medium,plus,dotcolour,beta,18,20,V,R,
610,106,22,14,4,33,47,783,['n'],1,right,['9'],5,216,[-0.06970132],99,47,medium,plus,dotcolour,beta,18,20,V,R,
611,107,23,14,4,33,47,682,['n'],1,right,['9'],5,2166,[-0.29914825],99,47,medium,plus,dotcolour,beta,18,20,V,R,
612,108,24,14,4,33,47,815,['n'],1,right,['9'],5,120,[-0.08629351],100,47,medium,plus,dotcolour,beta,18,20,V,R,
613,109,25,14,4,44,36,715,['c'],1,left,['9'],5,160,[0.13923995],100,44,hard,plus,dotcolour,beta,18,20,V,R,
614,110,26,14,4,36,44,766,['n'],1,right,['9'],5,133,[-0.06157872],100,44,hard,plus,dotcolour,beta,18,20,V,R,
615,111,27,14,4,33,47,697,['n'],1,right,['9'],5,93,[-0.08551905],100,47,medium,plus,dotcolour,beta,18,20,V,R,
616,112,28,14,4,33,47,549,['n'],1,right,['9'],5,60,[-0.0444552],100,47,medium,plus,dotcolour,beta,18,20,V,R,
617,113,29,14,4,27,53,849,['n'],1,right,['9'],5,313,[-0.11833063],100,53,easy,plus,dotcolour,beta,18,20,V,R,
618,114,30,14,4,36,44,898,['n'],1,right,['9'],5,1410,[-0.14562003],95,44,hard,plus,dotcolour,beta,18,20,V,R,
619,115,31,14,4,27,53,715,['n'],1,right,['8'],4,30,[-0.09746491],100,53,easy,plus,dotcolour,beta,18,20,V,R,
620,116,32,14,4,44,36,1082,['c'],1,left,['2'],2,476,[0.05982491],95,44,hard,plus,dotcolour,beta,18,20,V,R,
621,117,33,14,4,33,47,849,['n'],1,right,['9'],5,1672,[-0.3693913],100,47,medium,plus,dotcolour,beta,18,20,V,R,
622,118,34,14,4,27,53,616,['c'],0,right,['8'],4,582,[-0.02909577],65,53,easy,plus,dotcolour,beta,18,20,V,R,
623,119,35,14,4,53,27,699,['c'],1,left,['2'],2,1180,[0.39065929],100,53,easy,plus,dotcolour,beta,18,20,V,R,
624,120,36,14,4,44,36,1798,['c'],1,left,['0'],6,175,[0.05759877],99,44,hard,plus,dotcolour,beta,18,20,V,R,
625,121,37,14,4,44,36,1382,['c'],1,left,['0'],6,194,[0.10091639],100,44,hard,plus,dotcolour,beta,18,20,V,R,
626,122,38,14,4,47,33,831,['c'],1,left,['2'],2,98,[0.11371466],100,47,medium,plus,dotcolour,beta,18,20,V,R,
627,123,39,14,4,27,53,614,['n'],1,right,['0'],6,55,[-0.11525564],100,53,easy,plus,dotcolour,beta,18,20,V,R,
628,124,40,14,4,47,33,848,['c'],1,left,['0'],6,165,[0.05515817],99,47,medium,plus,dotcolour,beta,18,20,V,R,
629,125,41,14,4,36,44,1231,['n'],1,right,['0'],6,254,[-0.12627224],100,44,hard,plus,dotcolour,beta,18,20,V,R,
630,0,0,15,5,44,36,767,['c'],1,left,['8'],4,163,[0.09748398],87,44,hard,minus,dotcolour,beta,18,20,V,R,
