trial,withinphasetrial,withinblocktrial,block,phase,dotsLeft,dotsRight,rt,resp,cor,cresp,conf_press,cj,RTconf,ev,fb,diff,difflevel,condition,task,manip,questionID,questionResp,sub,age,gender,handedness,
0,0,0,0,0,36,44,3299,['n'],1,right,['2'],5,2172,[-0.07926426],84,44,hard,plus,dotcolour,beta,,,48,20,V,L,
1,1,1,0,0,36,44,1367,['n'],1,right,['2'],5,959,[-0.05627036],89,44,hard,plus,dotcolour,beta,,,48,20,V,L,
2,2,2,0,0,53,27,1850,['c'],1,left,['2'],5,711,[0.20398563],100,53,easy,plus,dotcolour,beta,,,48,20,V,L,
3,3,3,0,0,47,33,1300,['c'],1,left,['1'],6,456,[0.16742323],100,47,medium,plus,dotcolour,beta,,,48,20,V,L,
4,4,4,0,0,53,27,1034,['c'],1,left,['1'],6,365,[0.12451664],100,53,easy,plus,dotcolour,beta,,,48,20,V,L,
5,5,5,0,0,33,47,1100,['n'],1,right,['2'],5,404,[-0.05882686],96,47,medium,plus,dotcolour,beta,,,48,20,V,L,
6,6,6,0,0,33,47,1166,['n'],1,right,['1'],6,374,[-0.08027944],98,47,medium,plus,dotcolour,beta,,,48,20,V,L,
7,7,7,0,0,44,36,2266,['n'],0,left,['2'],5,837,[-0.11300569],96,44,hard,plus,dotcolour,beta,,,48,20,V,L,
8,8,8,0,0,44,36,800,['n'],0,left,['1'],6,325,[-0.16804746],100,44,hard,plus,dotcolour,beta,,,48,20,V,L,
9,9,9,0,0,44,36,850,['n'],0,left,['1'],6,279,[-0.05968362],98,44,hard,plus,dotcolour,beta,,,48,20,V,L,
10,10,10,0,0,27,53,816,['n'],1,right,['1'],6,188,[-0.09214647],100,53,easy,plus,dotcolour,beta,,,48,20,V,L,
11,11,11,0,0,47,33,1067,['c'],1,left,['1'],6,331,[0.09809983],99,47,medium,plus,dotcolour,beta,,,48,20,V,L,
12,12,12,0,0,47,33,1350,['c'],1,left,['1'],6,409,[0.060134],96,47,medium,plus,dotcolour,beta,,,48,20,V,L,
13,13,13,0,0,47,33,1417,['c'],1,left,['2'],5,393,[0.04957657],95,47,medium,plus,dotcolour,beta,,,48,20,V,L,
14,14,14,0,0,36,44,700,['n'],1,right,['1'],6,542,[-0.0467043],92,44,hard,plus,dotcolour,beta,,,48,20,V,L,
15,15,15,0,0,53,27,667,['c'],1,left,['1'],6,343,[0.07720119],98,53,easy,plus,dotcolour,beta,,,48,20,V,L,
16,16,16,0,0,27,53,733,['n'],1,right,['1'],6,133,[-0.09317226],100,53,easy,plus,dotcolour,beta,,,48,20,V,L,
17,17,17,0,0,27,53,617,['n'],1,right,['1'],6,120,[-0.0904449],100,53,easy,plus,dotcolour,beta,,,48,20,V,L,
18,18,18,0,0,27,53,483,['n'],1,right,['1'],6,114,[-0.08745096],100,53,easy,plus,dotcolour,beta,,,48,20,V,L,
19,19,19,0,0,47,33,618,['c'],1,left,['1'],6,222,[0.10361935],100,47,medium,plus,dotcolour,beta,,,48,20,V,L,
20,20,20,0,0,53,27,517,['n'],0,left,['9'],2,1009,[0.0524814],51,53,easy,plus,dotcolour,beta,,,48,20,V,L,
21,21,21,0,0,44,36,815,['n'],0,left,['1'],6,217,[-0.02304977],95,44,hard,plus,dotcolour,beta,,,48,20,V,L,
22,22,22,0,0,33,47,567,['n'],1,right,['1'],6,163,[-0.10456714],100,47,medium,plus,dotcolour,beta,,,48,20,V,L,
23,23,23,0,0,53,27,1034,['c'],1,left,['1'],6,261,[0.11729116],100,53,easy,plus,dotcolour,beta,,,48,20,V,L,
24,24,24,0,0,27,53,549,['n'],1,right,['1'],6,149,[-0.03679403],99,53,easy,plus,dotcolour,beta,,,48,20,V,L,
25,25,25,0,0,33,47,533,['n'],1,right,['1'],6,155,[-0.09954665],100,47,medium,plus,dotcolour,beta,,,48,20,V,L,
26,26,26,0,0,36,44,400,['n'],1,right,['1'],6,222,[-0.16266157],100,44,hard,plus,dotcolour,beta,,,48,20,V,L,
27,27,27,0,0,27,53,484,['n'],1,right,['1'],6,139,[-0.01518279],97,53,easy,plus,dotcolour,beta,,,48,20,V,L,
28,28,28,0,0,36,44,400,['n'],1,right,['1'],6,78,[-0.04623359],100,44,hard,plus,dotcolour,beta,,,48,20,V,L,
29,29,29,0,0,53,27,767,['c'],1,left,['1'],6,126,[0.09719873],100,53,easy,plus,dotcolour,beta,,,48,20,V,L,
30,30,30,0,0,53,27,1017,['c'],1,left,['1'],6,137,[0.17529848],100,53,easy,plus,dotcolour,beta,,,48,20,V,L,
31,31,31,0,0,44,36,550,['c'],1,left,['1'],6,223,[0.09368567],100,44,hard,plus,dotcolour,beta,,,48,20,V,L,
32,32,32,0,0,33,47,550,['n'],1,right,['1'],6,121,[-0.00653403],96,47,medium,plus,dotcolour,beta,,,48,20,V,L,
33,33,33,0,0,47,33,633,['c'],1,left,['1'],6,189,[0.06491433],99,47,medium,plus,dotcolour,beta,,,48,20,V,L,
34,34,34,0,0,36,44,633,['n'],1,right,['1'],6,149,[-0.07854517],100,44,hard,plus,dotcolour,beta,,,48,20,V,L,
35,35,35,0,0,33,47,683,['n'],1,right,['1'],6,157,[-0.08324594],100,47,medium,plus,dotcolour,beta,,,48,20,V,L,
36,36,36,0,0,27,53,600,['n'],1,right,['1'],6,136,[-0.10509983],100,53,easy,plus,dotcolour,beta,,,48,20,V,L,
37,37,37,0,0,36,44,766,['n'],1,right,['1'],6,117,[-0.06485159],100,44,hard,plus,dotcolour,beta,,,48,20,V,L,
38,38,38,0,0,44,36,700,['c'],1,left,['1'],6,197,[0.04517681],98,44,hard,plus,dotcolour,beta,,,48,20,V,L,
39,39,39,0,0,47,33,601,['c'],1,left,['1'],6,159,[0.11133144],100,47,medium,plus,dotcolour,beta,,,48,20,V,L,
40,40,40,0,0,44,36,683,['c'],1,left,['1'],6,167,[0.11172381],100,44,hard,plus,dotcolour,beta,,,48,20,V,L,
41,41,41,0,0,33,47,934,['n'],1,right,['1'],6,140,[-0.1260081],100,47,medium,plus,dotcolour,beta,,,48,20,V,L,
42,42,0,1,0,44,36,1051,['c'],1,left,['1'],6,190,[0.07036265],99,44,hard,plus,dotcolour,beta,,,48,20,V,L,
43,43,1,1,0,44,36,1717,['n'],0,left,['3'],4,1290,[0.0876534],38,44,hard,plus,dotcolour,beta,,,48,20,V,L,
44,44,2,1,0,47,33,1200,['c'],1,left,['3'],4,1519,[0.06043504],84,47,medium,plus,dotcolour,beta,,,48,20,V,L,
45,45,3,1,0,53,27,800,['c'],1,left,['1'],6,284,[0.09890445],99,53,easy,plus,dotcolour,beta,,,48,20,V,L,
46,46,4,1,0,53,27,650,['c'],1,left,['1'],6,375,[0.10113859],99,53,easy,plus,dotcolour,beta,,,48,20,V,L,
47,47,5,1,0,53,27,618,['c'],1,left,['1'],6,209,[0.07679244],99,53,easy,plus,dotcolour,beta,,,48,20,V,L,
48,48,6,1,0,47,33,1017,['c'],1,left,['2'],5,425,[0.07934122],98,47,medium,plus,dotcolour,beta,,,48,20,V,L,
49,49,7,1,0,33,47,666,['n'],1,right,['1'],6,222,[-0.08972926],100,47,medium,plus,dotcolour,beta,,,48,20,V,L,
50,50,8,1,0,33,47,684,['n'],1,right,['1'],6,163,[-0.14210346],100,47,medium,plus,dotcolour,beta,,,48,20,V,L,
51,51,9,1,0,33,47,584,['n'],1,right,['1'],6,126,[-0.11933646],100,47,medium,plus,dotcolour,beta,,,48,20,V,L,
52,52,10,1,0,36,44,434,['n'],1,right,['1'],6,121,[-0.1693026],100,44,hard,plus,dotcolour,beta,,,48,20,V,L,
53,53,11,1,0,44,36,433,['n'],0,left,['1'],6,108,[-0.09835821],100,44,hard,plus,dotcolour,beta,,,48,20,V,L,
54,54,12,1,0,47,33,851,['c'],1,left,['2'],5,183,[0.05818039],99,47,medium,plus,dotcolour,beta,,,48,20,V,L,
55,55,13,1,0,27,53,584,['n'],1,right,['1'],6,113,[-0.10362522],100,53,easy,plus,dotcolour,beta,,,48,20,V,L,
56,56,14,1,0,27,53,533,['n'],1,right,['1'],6,105,[-0.0762338],100,53,easy,plus,dotcolour,beta,,,48,20,V,L,
57,57,15,1,0,36,44,417,['n'],1,right,['1'],6,309,[-0.039279],96,44,hard,plus,dotcolour,beta,,,48,20,V,L,
58,58,16,1,0,36,44,516,['n'],1,right,['1'],6,125,[-0.11365271],100,44,hard,plus,dotcolour,beta,,,48,20,V,L,
59,59,17,1,0,27,53,550,['n'],1,right,['1'],6,115,[-0.09276394],100,53,easy,plus,dotcolour,beta,,,48,20,V,L,
60,60,18,1,0,47,33,1116,['c'],1,left,['2'],5,211,[0.13722019],100,47,medium,plus,dotcolour,beta,,,48,20,V,L,
61,61,19,1,0,36,44,717,['n'],1,right,['1'],6,111,[-0.1148382],100,44,hard,plus,dotcolour,beta,,,48,20,V,L,
62,62,20,1,0,27,53,533,['n'],1,right,['1'],6,111,[-0.17641945],100,53,easy,plus,dotcolour,beta,,,48,20,V,L,
63,63,21,1,0,33,47,1100,['c'],0,right,['3'],4,544,[-0.03070182],65,47,medium,plus,dotcolour,beta,,,48,20,V,L,
64,64,22,1,0,53,27,717,['n'],0,left,['0'],1,1182,[0.19546409],9,53,easy,plus,dotcolour,beta,,,48,20,V,L,
65,65,23,1,0,27,53,767,['n'],1,right,['1'],6,137,[-0.05296052],99,53,easy,plus,dotcolour,beta,,,48,20,V,L,
66,66,24,1,0,36,44,566,['n'],1,right,['1'],6,134,[-0.12662876],100,44,hard,plus,dotcolour,beta,,,48,20,V,L,
67,67,25,1,0,47,33,1083,['c'],1,left,['1'],6,248,[0.18710563],100,47,medium,plus,dotcolour,beta,,,48,20,V,L,
68,68,26,1,0,47,33,833,['c'],1,left,['1'],6,157,[0.0365079],98,47,medium,plus,dotcolour,beta,,,48,20,V,L,
69,69,27,1,0,36,44,600,['c'],0,right,['2'],5,344,[0.02084591],91,44,hard,plus,dotcolour,beta,,,48,20,V,L,
70,70,28,1,0,44,36,750,['n'],0,left,['1'],6,109,[-0.05598569],100,44,hard,plus,dotcolour,beta,,,48,20,V,L,
71,71,29,1,0,36,44,1384,['c'],0,right,['1'],6,354,[0.07284716],98,44,hard,plus,dotcolour,beta,,,48,20,V,L,
72,72,30,1,0,27,53,666,['n'],1,right,['1'],6,130,[-0.15405195],100,53,easy,plus,dotcolour,beta,,,48,20,V,L,
73,73,31,1,0,44,36,800,['c'],1,left,['2'],5,894,[0.09165024],94,44,hard,plus,dotcolour,beta,,,48,20,V,L,
74,74,32,1,0,33,47,717,['n'],1,right,['1'],6,159,[-0.07534161],100,47,medium,plus,dotcolour,beta,,,48,20,V,L,
75,75,33,1,0,44,36,1283,['n'],0,left,['1'],6,190,[-0.13560946],100,44,hard,plus,dotcolour,beta,,,48,20,V,L,
76,76,34,1,0,27,53,517,['n'],1,right,['1'],6,211,[-0.15479827],100,53,easy,plus,dotcolour,beta,,,48,20,V,L,
77,77,35,1,0,53,27,867,['c'],1,left,['1'],6,657,[0.09371462],96,53,easy,plus,dotcolour,beta,,,48,20,V,L,
78,78,36,1,0,33,47,600,['n'],1,right,['1'],6,144,[-0.10556527],100,47,medium,plus,dotcolour,beta,,,48,20,V,L,
79,79,37,1,0,53,27,2633,['n'],0,left,['8'],3,2914,[0.46403119],1,53,easy,plus,dotcolour,beta,,,48,20,V,L,
80,80,38,1,0,33,47,1000,['n'],1,right,['1'],6,414,[-0.12855405],99,47,medium,plus,dotcolour,beta,,,48,20,V,L,
81,81,39,1,0,53,27,767,['c'],1,left,['1'],6,160,[0.11353082],100,53,easy,plus,dotcolour,beta,,,48,20,V,L,
82,82,40,1,0,44,36,617,['n'],0,left,['1'],6,98,[-0.08963071],100,44,hard,plus,dotcolour,beta,,,48,20,V,L,
83,83,41,1,0,47,33,617,['n'],0,left,['1'],6,127,[-0.01926791],98,47,medium,plus,dotcolour,beta,,,48,20,V,L,
84,84,0,2,0,27,53,618,['n'],1,right,['1'],6,101,[-0.12291432],100,53,easy,plus,dotcolour,beta,,,48,20,V,L,
85,85,1,2,0,27,53,484,['n'],1,right,['1'],6,111,[-0.11962871],100,53,easy,plus,dotcolour,beta,,,48,20,V,L,
86,86,2,2,0,27,53,450,['n'],1,right,['1'],6,98,[-0.0976784],100,53,easy,plus,dotcolour,beta,,,48,20,V,L,
87,87,3,2,0,36,44,450,['n'],1,right,['1'],6,149,[-0.10119425],100,44,hard,plus,dotcolour,beta,,,48,20,V,L,
88,88,4,2,0,33,47,367,['n'],1,right,['1'],6,98,[-0.09648891],100,47,medium,plus,dotcolour,beta,,,48,20,V,L,
89,89,5,2,0,27,53,400,['n'],1,right,['1'],6,95,[-0.04469392],100,53,easy,plus,dotcolour,beta,,,48,20,V,L,
90,90,6,2,0,53,27,316,['n'],0,left,['8'],3,1720,[0.15228714],21,53,easy,plus,dotcolour,beta,,,48,20,V,L,
91,91,7,2,0,36,44,1134,['n'],1,right,['1'],6,295,[-0.10791994],100,44,hard,plus,dotcolour,beta,,,48,20,V,L,
92,92,8,2,0,36,44,517,['n'],1,right,['1'],6,95,[-0.03617315],100,44,hard,plus,dotcolour,beta,,,48,20,V,L,
93,93,9,2,0,44,36,700,['n'],0,left,['1'],6,129,[-0.06173959],100,44,hard,plus,dotcolour,beta,,,48,20,V,L,
94,94,10,2,0,44,36,1433,['c'],1,left,['3'],4,1659,[0.14080052],94,44,hard,plus,dotcolour,beta,,,48,20,V,L,
95,95,11,2,0,47,33,1934,['c'],1,left,['2'],5,580,[0.1340746],99,47,medium,plus,dotcolour,beta,,,48,20,V,L,
96,96,12,2,0,47,33,2235,['c'],1,left,['1'],6,205,[0.04410582],98,47,medium,plus,dotcolour,beta,,,48,20,V,L,
97,97,13,2,0,44,36,634,['n'],0,left,['1'],6,117,[-0.03189975],99,44,hard,plus,dotcolour,beta,,,48,20,V,L,
98,98,14,2,0,47,33,1067,['c'],1,left,['1'],6,367,[0.05562833],96,47,medium,plus,dotcolour,beta,,,48,20,V,L,
99,99,15,2,0,44,36,1133,['c'],1,left,['2'],5,365,[0.05030533],96,44,hard,plus,dotcolour,beta,,,48,20,V,L,
100,100,16,2,0,27,53,599,['n'],1,right,['1'],6,143,[-0.06607856],100,53,easy,plus,dotcolour,beta,,,48,20,V,L,
101,101,17,2,0,53,27,750,['c'],1,left,['1'],6,317,[0.03398949],95,53,easy,plus,dotcolour,beta,,,48,20,V,L,
102,102,18,2,0,33,47,600,['n'],1,right,['1'],6,97,[-0.13123855],100,47,medium,plus,dotcolour,beta,,,48,20,V,L,
103,103,19,2,0,33,47,600,['n'],1,right,['1'],6,127,[-0.11852478],100,47,medium,plus,dotcolour,beta,,,48,20,V,L,
104,104,20,2,0,47,33,1049,['c'],1,left,['1'],6,256,[0.08279303],99,47,medium,plus,dotcolour,beta,,,48,20,V,L,
105,105,21,2,0,53,27,1267,['c'],1,left,['1'],6,189,[0.06548183],99,53,easy,plus,dotcolour,beta,,,48,20,V,L,
106,106,22,2,0,36,44,900,['c'],0,right,['1'],6,202,[0.13762161],100,44,hard,plus,dotcolour,beta,,,48,20,V,L,
107,107,23,2,0,47,33,584,['n'],0,left,['0'],1,1100,[0.00100836],72,47,medium,plus,dotcolour,beta,,,48,20,V,L,
108,108,24,2,0,27,53,766,['n'],1,right,['1'],6,154,[-0.09145927],100,53,easy,plus,dotcolour,beta,,,48,20,V,L,
109,109,25,2,0,44,36,1284,['c'],1,left,['1'],6,146,[0.05960843],100,44,hard,plus,dotcolour,beta,,,48,20,V,L,
110,110,26,2,0,33,47,699,['n'],1,right,['1'],6,113,[-0.07042553],100,47,medium,plus,dotcolour,beta,,,48,20,V,L,
111,111,27,2,0,53,27,600,['c'],1,left,['1'],6,190,[0.01624309],95,53,easy,plus,dotcolour,beta,,,48,20,V,L,
112,112,28,2,0,33,47,734,['n'],1,right,['1'],6,578,[-0.13421444],99,47,medium,plus,dotcolour,beta,,,48,20,V,L,
113,113,29,2,0,36,44,949,['c'],0,right,['1'],6,143,[-0.00131565],93,44,hard,plus,dotcolour,beta,,,48,20,V,L,
114,114,30,2,0,47,33,734,['c'],1,left,['1'],6,116,[0.11940819],100,47,medium,plus,dotcolour,beta,,,48,20,V,L,
115,115,31,2,0,27,53,700,['n'],1,right,['1'],6,85,[-0.12206159],100,53,easy,plus,dotcolour,beta,,,48,20,V,L,
116,116,32,2,0,33,47,733,['c'],0,right,['1'],6,142,[0.07086421],100,47,medium,plus,dotcolour,beta,,,48,20,V,L,
117,117,33,2,0,44,36,766,['c'],1,left,['1'],6,130,[0.07875573],100,44,hard,plus,dotcolour,beta,,,48,20,V,L,
118,118,34,2,0,47,33,700,['c'],1,left,['1'],6,131,[0.10819934],100,47,medium,plus,dotcolour,beta,,,48,20,V,L,
119,119,35,2,0,53,27,551,['c'],1,left,['1'],6,128,[0.06820984],100,53,easy,plus,dotcolour,beta,,,48,20,V,L,
120,120,36,2,0,44,36,600,['c'],1,left,['1'],6,140,[0.05657371],100,44,hard,plus,dotcolour,beta,,,48,20,V,L,
121,121,37,2,0,53,27,534,['c'],1,left,['1'],6,106,[0.04939133],100,53,easy,plus,dotcolour,beta,,,48,20,V,L,
122,122,38,2,0,36,44,733,['n'],1,right,['1'],6,121,[-0.10782312],100,44,hard,plus,dotcolour,beta,,,48,20,V,L,
123,123,39,2,0,36,44,799,['n'],1,right,['1'],6,142,[-0.03056802],98,44,hard,plus,dotcolour,beta,,,48,20,V,L,
124,124,40,2,0,33,47,950,['n'],1,right,['1'],6,156,[-0.03900269],99,47,medium,plus,dotcolour,beta,,,48,20,V,L,
125,125,41,2,0,53,27,617,['c'],1,left,['1'],6,117,[0.06245665],100,53,easy,plus,dotcolour,beta,,,48,20,V,L,
126,0,0,3,1,27,53,817,['n'],1,right,['1'],6,511,[-0.23847249],99,53,easy,minus,dotcolour,beta,,,48,20,V,L,
127,1,1,3,1,33,47,733,['n'],1,right,['1'],6,151,[-0.1222022],96,47,medium,minus,dotcolour,beta,,,48,20,V,L,
128,2,2,3,1,47,33,1151,['c'],1,left,['1'],6,117,[0.10163371],92,47,medium,minus,dotcolour,beta,,,48,20,V,L,
129,3,3,3,1,47,33,2233,['c'],1,left,['2'],5,104,[0.1011884],93,47,medium,minus,dotcolour,beta,,,48,20,V,L,
130,4,4,3,1,47,33,1166,['c'],1,left,['2'],5,150,[0.01667912],14,47,medium,minus,dotcolour,beta,,,48,20,V,L,
131,5,5,3,1,53,27,934,['c'],1,left,['1'],6,148,[0.09510008],86,53,easy,minus,dotcolour,beta,,,48,20,V,L,
132,6,6,3,1,27,53,666,['n'],1,right,['1'],6,141,[-0.07540886],72,53,easy,minus,dotcolour,beta,,,48,20,V,L,
133,7,7,3,1,53,27,700,['c'],1,left,['1'],6,172,[0.11165405],92,53,easy,minus,dotcolour,beta,,,48,20,V,L,
134,8,8,3,1,33,47,1284,['c'],0,right,['2'],5,476,[0.0372212],38,47,medium,minus,dotcolour,beta,,,48,20,V,L,
135,9,9,3,1,27,53,1767,['n'],1,right,['1'],6,898,[-0.28481799],99,53,easy,minus,dotcolour,beta,,,48,20,V,L,
136,10,10,3,1,27,53,633,['n'],1,right,['1'],6,102,[-0.1118083],96,53,easy,minus,dotcolour,beta,,,48,20,V,L,
137,11,11,3,1,33,47,950,['n'],1,right,['1'],6,150,[-0.07939585],75,47,medium,minus,dotcolour,beta,,,48,20,V,L,
138,12,12,3,1,44,36,750,['c'],1,left,['1'],6,179,[0.08406175],77,44,hard,minus,dotcolour,beta,,,48,20,V,L,
139,13,13,3,1,53,27,2082,['c'],1,left,['1'],6,250,[0.21733522],100,53,easy,minus,dotcolour,beta,,,48,20,V,L,
140,14,14,3,1,36,44,617,['n'],1,right,['1'],6,80,[-0.11095435],97,44,hard,minus,dotcolour,beta,,,48,20,V,L,
141,15,15,3,1,44,36,600,['n'],0,left,['1'],6,127,[-0.06089146],57,44,hard,minus,dotcolour,beta,,,48,20,V,L,
142,16,16,3,1,47,33,650,['c'],1,left,['1'],6,128,[0.05819371],53,47,medium,minus,dotcolour,beta,,,48,20,V,L,
143,17,17,3,1,36,44,900,['n'],1,right,['1'],6,129,[-0.0603294],56,44,hard,minus,dotcolour,beta,,,48,20,V,L,
144,18,18,3,1,53,27,1833,['n'],0,left,['1'],6,995,[0.13068775],3,53,easy,minus,dotcolour,beta,,,48,20,V,L,
145,19,19,3,1,53,27,750,['c'],1,left,['1'],6,167,[0.1298756],96,53,easy,minus,dotcolour,beta,,,48,20,V,L,
146,20,20,3,1,53,27,634,['c'],1,left,['1'],6,128,[0.1248566],97,53,easy,minus,dotcolour,beta,,,48,20,V,L,
147,21,21,3,1,36,44,667,['n'],1,right,['1'],6,89,[-0.08769571],87,44,hard,minus,dotcolour,beta,,,48,20,V,L,
148,22,22,3,1,27,53,550,['n'],1,right,['1'],6,129,[-0.11552534],95,53,easy,minus,dotcolour,beta,,,48,20,V,L,
149,23,23,3,1,36,44,484,['n'],1,right,['1'],6,74,[-0.0521298],44,44,hard,minus,dotcolour,beta,,,48,20,V,L,
150,24,24,3,1,27,53,583,['n'],1,right,['1'],6,73,[-0.05391941],47,53,easy,minus,dotcolour,beta,,,48,20,V,L,
151,25,25,3,1,47,33,1067,['n'],0,left,['1'],6,236,[-0.03804977],34,47,medium,minus,dotcolour,beta,,,48,20,V,L,
152,26,26,3,1,44,36,1617,['n'],0,left,['1'],6,276,[-0.09925617],82,44,hard,minus,dotcolour,beta,,,48,20,V,L,
153,27,27,3,1,44,36,833,['n'],0,left,['1'],6,160,[-0.07791052],73,44,hard,minus,dotcolour,beta,,,48,20,V,L,
154,28,28,3,1,44,36,633,['n'],0,left,['2'],5,226,[-0.05686242],51,44,hard,minus,dotcolour,beta,,,48,20,V,L,
155,29,29,3,1,33,47,583,['n'],1,right,['1'],6,130,[-0.04199041],34,47,medium,minus,dotcolour,beta,,,48,20,V,L,
156,30,30,3,1,44,36,2168,['c'],1,left,['3'],4,744,[0.06507863],55,44,hard,minus,dotcolour,beta,,,48,20,V,L,
157,31,31,3,1,33,47,551,['n'],1,right,['1'],6,134,[-0.04635242],39,47,medium,minus,dotcolour,beta,,,48,20,V,L,
158,32,32,3,1,47,33,1700,['c'],1,left,['1'],6,229,[0.15630651],98,47,medium,minus,dotcolour,beta,,,48,20,V,L,
159,33,33,3,1,47,33,1200,['c'],1,left,['1'],6,269,[0.10185422],83,47,medium,minus,dotcolour,beta,,,48,20,V,L,
160,34,34,3,1,36,44,767,['n'],1,right,['1'],6,85,[-0.09057985],90,44,hard,minus,dotcolour,beta,,,48,20,V,L,
161,35,35,3,1,33,47,567,['n'],1,right,['1'],6,84,[-0.04720602],37,47,medium,minus,dotcolour,beta,,,48,20,V,L,
162,36,36,3,1,53,27,883,['c'],1,left,['1'],6,215,[0.14554744],97,53,easy,minus,dotcolour,beta,,,48,20,V,L,
163,37,37,3,1,36,44,834,['n'],1,right,['1'],6,118,[-0.11486836],96,44,hard,minus,dotcolour,beta,,,48,20,V,L,
164,38,38,3,1,33,47,617,['n'],1,right,['1'],6,107,[-0.07064197],70,47,medium,minus,dotcolour,beta,,,48,20,V,L,
165,39,39,3,1,27,53,517,['n'],1,right,['1'],6,66,[-0.11405956],98,53,easy,minus,dotcolour,beta,,,48,20,V,L,
166,40,40,3,1,36,44,549,['n'],1,right,['1'],6,99,[-0.08094259],81,44,hard,minus,dotcolour,beta,,,48,20,V,L,
167,41,41,3,1,44,36,668,['n'],0,left,['1'],6,206,[-0.02132266],20,44,hard,minus,dotcolour,beta,,,48,20,V,L,
168,42,0,4,1,33,47,668,['n'],1,right,['1'],6,53,[-0.06664862],70,47,medium,minus,dotcolour,beta,,,48,20,V,L,
169,43,1,4,1,44,36,434,['n'],0,left,['1'],6,83,[-0.08080166],83,44,hard,minus,dotcolour,beta,,,48,20,V,L,
170,44,2,4,1,44,36,1400,['n'],0,left,['1'],6,137,[-0.05983146],55,44,hard,minus,dotcolour,beta,,,48,20,V,L,
171,45,3,4,1,44,36,1333,['c'],1,left,['1'],6,160,[0.05441368],49,44,hard,minus,dotcolour,beta,,,48,20,V,L,
172,46,4,4,1,44,36,983,['c'],1,left,['1'],6,227,[0.14002405],96,44,hard,minus,dotcolour,beta,,,48,20,V,L,
173,47,5,4,1,36,44,600,['n'],1,right,['1'],6,91,[-0.05049261],43,44,hard,minus,dotcolour,beta,,,48,20,V,L,
174,48,6,4,1,53,27,601,['n'],0,left,['1'],6,105,[-0.04986222],42,53,easy,minus,dotcolour,beta,,,48,20,V,L,
175,49,7,4,1,27,53,650,['n'],1,right,['1'],6,76,[-0.05864234],55,53,easy,minus,dotcolour,beta,,,48,20,V,L,
176,50,8,4,1,27,53,584,['n'],1,right,['1'],6,90,[-0.10157674],94,53,easy,minus,dotcolour,beta,,,48,20,V,L,
177,51,9,4,1,36,44,867,['n'],1,right,['1'],6,181,[-0.11100218],91,44,hard,minus,dotcolour,beta,,,48,20,V,L,
178,52,10,4,1,53,27,867,['c'],1,left,['2'],5,141,[0.12709203],97,53,easy,minus,dotcolour,beta,,,48,20,V,L,
179,53,11,4,1,33,47,633,['n'],1,right,['1'],6,95,[-0.05235284],45,47,medium,minus,dotcolour,beta,,,48,20,V,L,
180,54,12,4,1,27,53,684,['n'],1,right,['1'],6,113,[-0.13248214],98,53,easy,minus,dotcolour,beta,,,48,20,V,L,
181,55,13,4,1,27,53,433,['n'],1,right,['1'],6,101,[-0.02825408],18,53,easy,minus,dotcolour,beta,,,48,20,V,L,
182,56,14,4,1,47,33,900,['n'],0,left,['1'],6,141,[-0.03457121],27,47,medium,minus,dotcolour,beta,,,48,20,V,L,
183,57,15,4,1,33,47,434,['n'],1,right,['1'],6,167,[-0.06804179],63,47,medium,minus,dotcolour,beta,,,48,20,V,L,
184,58,16,4,1,47,33,2633,['c'],1,left,['2'],5,305,[0.21186248],99,47,medium,minus,dotcolour,beta,,,48,20,V,L,
185,59,17,4,1,33,47,783,['n'],1,right,['1'],6,127,[-0.03484194],26,47,medium,minus,dotcolour,beta,,,48,20,V,L,
186,60,18,4,1,27,53,566,['n'],1,right,['1'],6,84,[-0.03942012],27,53,easy,minus,dotcolour,beta,,,48,20,V,L,
187,61,19,4,1,36,44,600,['n'],1,right,['1'],6,82,[-0.03430992],21,44,hard,minus,dotcolour,beta,,,48,20,V,L,
188,62,20,4,1,47,33,1217,['c'],1,left,['1'],6,359,[0.07713787],66,47,medium,minus,dotcolour,beta,,,48,20,V,L,
189,63,21,4,1,27,53,516,['n'],1,right,['1'],6,125,[-0.07224854],70,53,easy,minus,dotcolour,beta,,,48,20,V,L,
190,64,22,4,1,44,36,450,['n'],0,left,['1'],6,199,[-0.06920276],63,44,hard,minus,dotcolour,beta,,,48,20,V,L,
191,65,23,4,1,47,33,1450,['n'],0,left,['3'],4,686,[-0.00314704],24,47,medium,minus,dotcolour,beta,,,48,20,V,L,
192,66,24,4,1,47,33,883,['c'],1,left,['3'],4,337,[0.09134714],75,47,medium,minus,dotcolour,beta,,,48,20,V,L,
193,67,25,4,1,53,27,850,['c'],1,left,['3'],4,379,[0.15327993],95,53,easy,minus,dotcolour,beta,,,48,20,V,L,
194,68,26,4,1,36,44,667,['n'],1,right,['1'],6,106,[-0.09365466],89,44,hard,minus,dotcolour,beta,,,48,20,V,L,
195,69,27,4,1,27,53,583,['n'],1,right,['1'],6,95,[-0.04884653],40,53,easy,minus,dotcolour,beta,,,48,20,V,L,
196,70,28,4,1,47,33,1284,['n'],0,left,['3'],4,346,[0.08348877],1,47,medium,minus,dotcolour,beta,,,48,20,V,L,
197,71,29,4,1,53,27,1083,['c'],1,left,['1'],6,146,[0.15593281],99,53,easy,minus,dotcolour,beta,,,48,20,V,L,
198,72,30,4,1,36,44,1401,['n'],1,right,['1'],6,157,[-0.11965872],95,44,hard,minus,dotcolour,beta,,,48,20,V,L,
199,73,31,4,1,33,47,534,['n'],1,right,['1'],6,90,[-0.1004957],94,47,medium,minus,dotcolour,beta,,,48,20,V,L,
200,74,32,4,1,44,36,1817,['c'],1,left,['8'],3,2055,[0.36655307],98,44,hard,minus,dotcolour,beta,,,48,20,V,L,
201,75,33,4,1,53,27,834,['c'],1,left,['1'],6,661,[0.25747757],99,53,easy,minus,dotcolour,beta,,,48,20,V,L,
202,76,34,4,1,47,33,4283,['n'],0,left,['2'],5,360,[0.0873012],1,47,medium,minus,dotcolour,beta,,,48,20,V,L,
203,77,35,4,1,44,36,1117,['n'],0,left,['1'],6,510,[0.01066335],16,44,hard,minus,dotcolour,beta,,,48,20,V,L,
204,78,36,4,1,33,47,650,['n'],1,right,['1'],6,105,[-0.01855321],11,47,medium,minus,dotcolour,beta,,,48,20,V,L,
205,79,37,4,1,53,27,917,['c'],1,left,['2'],5,1017,[0.18745594],91,53,easy,minus,dotcolour,beta,,,48,20,V,L,
206,80,38,4,1,53,27,967,['n'],0,left,['1'],6,163,[-0.0445112],38,53,easy,minus,dotcolour,beta,,,48,20,V,L,
207,81,39,4,1,36,44,2066,['c'],0,right,['1'],6,171,[0.09715134],86,44,hard,minus,dotcolour,beta,,,48,20,V,L,
208,82,40,4,1,33,47,651,['n'],1,right,['1'],6,140,[-0.16456312],99,47,medium,minus,dotcolour,beta,,,48,20,V,L,
209,83,41,4,1,36,44,733,['n'],1,right,['1'],6,241,[-0.10953232],88,44,hard,minus,dotcolour,beta,,,48,20,V,L,
210,84,0,5,1,53,27,851,['c'],1,left,['1'],6,123,[0.05802538],53,53,easy,minus,dotcolour,beta,,,48,20,V,L,
211,85,1,5,1,36,44,584,['n'],1,right,['1'],6,88,[-0.09413049],91,44,hard,minus,dotcolour,beta,,,48,20,V,L,
212,86,2,5,1,36,44,784,['c'],0,right,['1'],6,127,[0.07416066],72,44,hard,minus,dotcolour,beta,,,48,20,V,L,
213,87,3,5,1,27,53,533,['n'],1,right,['1'],6,69,[-0.03892521],24,53,easy,minus,dotcolour,beta,,,48,20,V,L,
214,88,4,5,1,44,36,816,['n'],0,left,['1'],6,107,[-0.05928073],55,44,hard,minus,dotcolour,beta,,,48,20,V,L,
215,89,5,5,1,33,47,649,['n'],1,right,['1'],6,118,[-0.0575968],53,47,medium,minus,dotcolour,beta,,,48,20,V,L,
216,90,6,5,1,47,33,601,['c'],1,left,['1'],6,107,[0.12489568],98,47,medium,minus,dotcolour,beta,,,48,20,V,L,
217,91,7,5,1,27,53,617,['n'],1,right,['1'],6,87,[-0.05768424],53,53,easy,minus,dotcolour,beta,,,48,20,V,L,
218,92,8,5,1,27,53,533,['n'],1,right,['1'],6,56,[-0.06805198],72,53,easy,minus,dotcolour,beta,,,48,20,V,L,
219,93,9,5,1,47,33,717,['c'],1,left,['1'],6,1202,[0.26855187],97,47,medium,minus,dotcolour,beta,,,48,20,V,L,
220,94,10,5,1,27,53,651,['n'],1,right,['1'],6,129,[-0.14163152],99,53,easy,minus,dotcolour,beta,,,48,20,V,L,
221,95,11,5,1,53,27,667,['c'],1,left,['1'],6,1938,[0.19639584],86,53,easy,minus,dotcolour,beta,,,48,20,V,L,
222,96,12,5,1,44,36,851,['n'],0,left,['1'],6,124,[-0.08336739],81,44,hard,minus,dotcolour,beta,,,48,20,V,L,
223,97,13,5,1,47,33,1450,['c'],1,left,['1'],6,174,[0.04449336],38,47,medium,minus,dotcolour,beta,,,48,20,V,L,
224,98,14,5,1,53,27,1233,['n'],0,left,['3'],4,567,[0.01160926],17,53,easy,minus,dotcolour,beta,,,48,20,V,L,
225,99,15,5,1,33,47,599,['n'],1,right,['1'],6,113,[-0.07770098],77,47,medium,minus,dotcolour,beta,,,48,20,V,L,
226,100,16,5,1,44,36,4950,['n'],0,left,['2'],5,568,[-0.02619006],33,44,hard,minus,dotcolour,beta,,,48,20,V,L,
227,101,17,5,1,36,44,716,['n'],1,right,['1'],6,158,[-0.1350764],97,44,hard,minus,dotcolour,beta,,,48,20,V,L,
228,102,18,5,1,33,47,616,['n'],1,right,['1'],6,120,[-0.11690975],96,47,medium,minus,dotcolour,beta,,,48,20,V,L,
229,103,19,5,1,47,33,651,['n'],0,left,['2'],5,643,[-0.09248133],70,47,medium,minus,dotcolour,beta,,,48,20,V,L,
230,104,20,5,1,36,44,601,['n'],1,right,['1'],6,170,[-0.09694649],86,44,hard,minus,dotcolour,beta,,,48,20,V,L,
231,105,21,5,1,53,27,1266,['c'],1,left,['1'],6,554,[0.29574448],100,53,easy,minus,dotcolour,beta,,,48,20,V,L,
232,106,22,5,1,44,36,918,['c'],1,left,['1'],6,184,[0.10915597],90,44,hard,minus,dotcolour,beta,,,48,20,V,L,
233,107,23,5,1,47,33,617,['c'],1,left,['1'],6,193,[0.04441864],39,47,medium,minus,dotcolour,beta,,,48,20,V,L,
234,108,24,5,1,44,36,1000,['n'],0,left,['1'],6,603,[-0.00576417],24,44,hard,minus,dotcolour,beta,,,48,20,V,L,
235,109,25,5,1,53,27,2067,['n'],0,left,['3'],4,2321,[0.16907144],7,53,easy,minus,dotcolour,beta,,,48,20,V,L,
236,110,26,5,1,27,53,784,['n'],1,right,['1'],6,165,[-0.09993848],88,53,easy,minus,dotcolour,beta,,,48,20,V,L,
237,111,27,5,1,36,44,933,['n'],1,right,['1'],6,427,[-0.04760012],45,44,hard,minus,dotcolour,beta,,,48,20,V,L,
238,112,28,5,1,33,47,717,['n'],1,right,['1'],6,134,[-0.07139664],69,47,medium,minus,dotcolour,beta,,,48,20,V,L,
239,113,29,5,1,47,33,783,['n'],0,left,['1'],6,275,[-0.13930116],95,47,medium,minus,dotcolour,beta,,,48,20,V,L,
240,114,30,5,1,33,47,966,['n'],1,right,['2'],5,946,[-0.15442157],86,47,medium,minus,dotcolour,beta,,,48,20,V,L,
241,115,31,5,1,36,44,616,['n'],1,right,['1'],6,157,[-0.07140998],67,44,hard,minus,dotcolour,beta,,,48,20,V,L,
242,116,32,5,1,33,47,533,['n'],1,right,['1'],6,114,[0.01428309],2,47,medium,minus,dotcolour,beta,,,48,20,V,L,
243,117,33,5,1,36,44,500,['n'],1,right,['1'],6,139,[-0.1062196],92,44,hard,minus,dotcolour,beta,,,48,20,V,L,
244,118,34,5,1,27,53,417,['n'],1,right,['1'],6,150,[-0.08602611],80,53,easy,minus,dotcolour,beta,,,48,20,V,L,
245,119,35,5,1,53,27,1084,['c'],1,left,['1'],6,141,[0.02857029],22,53,easy,minus,dotcolour,beta,,,48,20,V,L,
246,120,36,5,1,44,36,1084,['n'],0,left,['2'],5,814,[-0.03910658],42,44,hard,minus,dotcolour,beta,,,48,20,V,L,
247,121,37,5,1,33,47,667,['n'],1,right,['1'],6,116,[-0.07729384],76,47,medium,minus,dotcolour,beta,,,48,20,V,L,
248,122,38,5,1,47,33,1166,['c'],1,left,['1'],6,106,[0.08628663],85,47,medium,minus,dotcolour,beta,,,48,20,V,L,
249,123,39,5,1,27,53,650,['n'],1,right,['1'],6,132,[-0.10336764],91,53,easy,minus,dotcolour,beta,,,48,20,V,L,
250,124,40,5,1,44,36,1750,['c'],1,left,['2'],5,490,[0.10927201],80,44,hard,minus,dotcolour,beta,,,48,20,V,L,
251,125,41,5,1,53,27,701,['n'],0,left,['1'],6,140,[-0.07102033],68,53,easy,minus,dotcolour,beta,,,48,20,V,L,
252,0,0,6,2,27,53,734,['n'],1,right,['1'],6,207,[-0.19246946],100,53,easy,plus,dotcolour,beta,,,48,20,V,L,
253,1,1,6,2,36,44,717,['n'],1,right,['1'],6,115,[-0.07329478],100,44,hard,plus,dotcolour,beta,,,48,20,V,L,
254,2,2,6,2,33,47,534,['n'],1,right,['1'],6,123,[-0.08390253],100,47,medium,plus,dotcolour,beta,,,48,20,V,L,
255,3,3,6,2,36,44,534,['n'],1,right,['1'],6,105,[-0.09075857],100,44,hard,plus,dotcolour,beta,,,48,20,V,L,
256,4,4,6,2,53,27,916,['c'],1,left,['1'],6,178,[0.15517848],100,53,easy,plus,dotcolour,beta,,,48,20,V,L,
257,5,5,6,2,47,33,1533,['c'],1,left,['2'],5,294,[0.05896472],98,47,medium,plus,dotcolour,beta,,,48,20,V,L,
258,6,6,6,2,27,53,617,['n'],1,right,['1'],6,131,[-0.07196943],100,53,easy,plus,dotcolour,beta,,,48,20,V,L,
259,7,7,6,2,27,53,500,['n'],1,right,['1'],6,83,[-0.01245199],99,53,easy,plus,dotcolour,beta,,,48,20,V,L,
260,8,8,6,2,27,53,417,['n'],1,right,['1'],6,96,[-0.14227674],100,53,easy,plus,dotcolour,beta,,,48,20,V,L,
261,9,9,6,2,33,47,600,['n'],1,right,['1'],6,157,[-0.0674721],100,47,medium,plus,dotcolour,beta,,,48,20,V,L,
262,10,10,6,2,53,27,1000,['c'],1,left,['2'],5,129,[0.13750119],100,53,easy,plus,dotcolour,beta,,,48,20,V,L,
263,11,11,6,2,27,53,567,['n'],1,right,['1'],6,110,[-0.1027355],100,53,easy,plus,dotcolour,beta,,,48,20,V,L,
264,12,12,6,2,36,44,1134,['n'],1,right,['2'],5,293,[-0.04914079],97,44,hard,plus,dotcolour,beta,,,48,20,V,L,
265,13,13,6,2,44,36,984,['c'],1,left,['2'],5,243,[0.0713043],99,44,hard,plus,dotcolour,beta,,,48,20,V,L,
266,14,14,6,2,47,33,600,['n'],0,left,['3'],4,1418,[0.23128405],7,47,medium,plus,dotcolour,beta,,,48,20,V,L,
267,15,15,6,2,44,36,1317,['c'],1,left,['1'],6,142,[0.08014398],100,44,hard,plus,dotcolour,beta,,,48,20,V,L,
268,16,16,6,2,47,33,2300,['c'],1,left,['2'],5,374,[0.08121578],98,47,medium,plus,dotcolour,beta,,,48,20,V,L,
269,17,17,6,2,47,33,1783,['n'],0,left,['1'],6,135,[-0.12860395],100,47,medium,plus,dotcolour,beta,,,48,20,V,L,
270,18,18,6,2,44,36,900,['c'],1,left,['3'],4,712,[0.09592843],96,44,hard,plus,dotcolour,beta,,,48,20,V,L,
271,19,19,6,2,27,53,683,['n'],1,right,['1'],6,185,[-0.07194744],100,53,easy,plus,dotcolour,beta,,,48,20,V,L,
272,20,20,6,2,53,27,934,['c'],1,left,['2'],5,302,[0.09693216],99,53,easy,plus,dotcolour,beta,,,48,20,V,L,
273,21,21,6,2,47,33,1850,['c'],1,left,['2'],5,577,[0.0493669],92,47,medium,plus,dotcolour,beta,,,48,20,V,L,
274,22,22,6,2,53,27,817,['c'],1,left,['2'],5,331,[0.1041512],99,53,easy,plus,dotcolour,beta,,,48,20,V,L,
275,23,23,6,2,33,47,767,['n'],1,right,['2'],5,344,[-0.04089581],95,47,medium,plus,dotcolour,beta,,,48,20,V,L,
276,24,24,6,2,36,44,1884,['n'],1,right,['2'],5,417,[-0.0836647],98,44,hard,plus,dotcolour,beta,,,48,20,V,L,
277,25,25,6,2,44,36,1650,['n'],0,left,['2'],5,302,[-0.07218168],98,44,hard,plus,dotcolour,beta,,,48,20,V,L,
278,26,26,6,2,33,47,883,['n'],1,right,['2'],5,258,[-0.10103697],100,47,medium,plus,dotcolour,beta,,,48,20,V,L,
279,27,27,6,2,27,53,533,['n'],1,right,['1'],6,106,[-0.04833488],100,53,easy,plus,dotcolour,beta,,,48,20,V,L,
280,28,28,6,2,44,36,933,['n'],0,left,['1'],6,161,[-0.11362444],100,44,hard,plus,dotcolour,beta,,,48,20,V,L,
281,29,29,6,2,33,47,799,['n'],1,right,['1'],6,148,[-0.08012299],100,47,medium,plus,dotcolour,beta,,,48,20,V,L,
282,30,30,6,2,36,44,800,['n'],1,right,['3'],4,1175,[-0.09851469],93,44,hard,plus,dotcolour,beta,,,48,20,V,L,
283,31,31,6,2,44,36,800,['n'],0,left,['1'],6,113,[-0.08153299],100,44,hard,plus,dotcolour,beta,,,48,20,V,L,
284,32,32,6,2,36,44,633,['n'],1,right,['1'],6,109,[-0.08571515],100,44,hard,plus,dotcolour,beta,,,48,20,V,L,
285,33,33,6,2,53,27,917,['c'],1,left,['1'],6,117,[0.08747573],100,53,easy,plus,dotcolour,beta,,,48,20,V,L,
286,34,34,6,2,53,27,1001,['c'],1,left,['1'],6,145,[0.09043299],100,53,easy,plus,dotcolour,beta,,,48,20,V,L,
287,35,35,6,2,53,27,900,['c'],1,left,['1'],6,153,[0.14287523],100,53,easy,plus,dotcolour,beta,,,48,20,V,L,
288,36,36,6,2,36,44,667,['n'],1,right,['1'],6,161,[-0.06615844],100,44,hard,plus,dotcolour,beta,,,48,20,V,L,
289,37,37,6,2,33,47,867,['n'],1,right,['1'],6,369,[-0.116815],99,47,medium,plus,dotcolour,beta,,,48,20,V,L,
290,38,38,6,2,33,47,517,['n'],1,right,['1'],6,120,[-0.02440283],98,47,medium,plus,dotcolour,beta,,,48,20,V,L,
291,39,39,6,2,47,33,967,['c'],1,left,['2'],5,222,[0.05482114],99,47,medium,plus,dotcolour,beta,,,48,20,V,L,
292,40,40,6,2,44,36,1601,['n'],0,left,['2'],5,622,[-0.21259883],100,44,hard,plus,dotcolour,beta,,,48,20,V,L,
293,41,41,6,2,47,33,1917,['c'],1,left,['2'],5,369,[0.03558018],94,47,medium,plus,dotcolour,beta,,,48,20,V,L,
294,42,0,7,2,27,53,701,['n'],1,right,['1'],6,129,[-0.11491925],100,53,easy,plus,dotcolour,beta,,,48,20,V,L,
295,43,1,7,2,53,27,683,['c'],1,left,['1'],6,106,[0.08126507],100,53,easy,plus,dotcolour,beta,,,48,20,V,L,
296,44,2,7,2,36,44,551,['n'],1,right,['1'],6,144,[-0.10291145],100,44,hard,plus,dotcolour,beta,,,48,20,V,L,
297,45,3,7,2,44,36,1684,['c'],1,left,['3'],4,449,[0.19094505],100,44,hard,plus,dotcolour,beta,,,48,20,V,L,
298,46,4,7,2,44,36,1033,['c'],1,left,['1'],6,135,[0.11197093],100,44,hard,plus,dotcolour,beta,,,48,20,V,L,
299,47,5,7,2,44,36,884,['c'],1,left,['1'],6,135,[0.06816532],100,44,hard,plus,dotcolour,beta,,,48,20,V,L,
300,48,6,7,2,27,53,800,['n'],1,right,['1'],6,123,[-0.06226037],100,53,easy,plus,dotcolour,beta,,,48,20,V,L,
301,49,7,7,2,53,27,550,['c'],1,left,['1'],6,129,[0.05309187],100,53,easy,plus,dotcolour,beta,,,48,20,V,L,
302,50,8,7,2,33,47,567,['c'],0,right,['1'],6,166,[0.04855043],99,47,medium,plus,dotcolour,beta,,,48,20,V,L,
303,51,9,7,2,44,36,1317,['c'],1,left,['1'],6,116,[0.13664087],100,44,hard,plus,dotcolour,beta,,,48,20,V,L,
304,52,10,7,2,47,33,1433,['c'],1,left,['1'],6,128,[0.11336291],100,47,medium,plus,dotcolour,beta,,,48,20,V,L,
305,53,11,7,2,33,47,550,['n'],1,right,['1'],6,158,[-0.11808158],100,47,medium,plus,dotcolour,beta,,,48,20,V,L,
306,54,12,7,2,44,36,634,['c'],1,left,['1'],6,128,[0.10723993],100,44,hard,plus,dotcolour,beta,,,48,20,V,L,
307,55,13,7,2,47,33,717,['c'],1,left,['1'],6,166,[0.0786163],100,47,medium,plus,dotcolour,beta,,,48,20,V,L,
308,56,14,7,2,47,33,867,['c'],1,left,['1'],6,150,[0.12914867],100,47,medium,plus,dotcolour,beta,,,48,20,V,L,
309,57,15,7,2,36,44,1050,['n'],1,right,['1'],6,216,[-0.10791534],100,44,hard,plus,dotcolour,beta,,,48,20,V,L,
310,58,16,7,2,27,53,667,['n'],1,right,['1'],6,166,[-0.09484705],100,53,easy,plus,dotcolour,beta,,,48,20,V,L,
311,59,17,7,2,47,33,1234,['c'],1,left,['1'],6,151,[0.0819033],100,47,medium,plus,dotcolour,beta,,,48,20,V,L,
312,60,18,7,2,27,53,583,['n'],1,right,['1'],6,131,[-0.09577632],100,53,easy,plus,dotcolour,beta,,,48,20,V,L,
313,61,19,7,2,44,36,1017,['c'],1,left,['8'],3,1903,[0.2705851],99,44,hard,plus,dotcolour,beta,,,48,20,V,L,
314,62,20,7,2,33,47,633,['n'],1,right,['1'],6,106,[-0.05010617],100,47,medium,plus,dotcolour,beta,,,48,20,V,L,
315,63,21,7,2,33,47,751,['n'],1,right,['1'],6,98,[-0.04327762],100,47,medium,plus,dotcolour,beta,,,48,20,V,L,
316,64,22,7,2,53,27,784,['c'],1,left,['1'],6,63,[0.12634225],100,53,easy,plus,dotcolour,beta,,,48,20,V,L,
317,65,23,7,2,27,53,567,['n'],1,right,['1'],6,151,[-0.07250959],100,53,easy,plus,dotcolour,beta,,,48,20,V,L,
318,66,24,7,2,36,44,1233,['c'],0,right,['2'],5,337,[0.10565552],99,44,hard,plus,dotcolour,beta,,,48,20,V,L,
319,67,25,7,2,36,44,684,['n'],1,right,['1'],6,145,[-0.08803578],100,44,hard,plus,dotcolour,beta,,,48,20,V,L,
320,68,26,7,2,53,27,633,['c'],1,left,['1'],6,131,[0.06429937],100,53,easy,plus,dotcolour,beta,,,48,20,V,L,
321,69,27,7,2,47,33,717,['n'],0,left,['1'],6,323,[-0.07247025],98,47,medium,plus,dotcolour,beta,,,48,20,V,L,
322,70,28,7,2,53,27,667,['c'],1,left,['1'],6,124,[0.052029],100,53,easy,plus,dotcolour,beta,,,48,20,V,L,
323,71,29,7,2,44,36,850,['c'],1,left,['1'],6,95,[0.10233398],100,44,hard,plus,dotcolour,beta,,,48,20,V,L,
324,72,30,7,2,47,33,1416,['c'],1,left,['2'],5,139,[0.10732539],100,47,medium,plus,dotcolour,beta,,,48,20,V,L,
325,73,31,7,2,36,44,700,['n'],1,right,['2'],5,186,[-0.06727694],99,44,hard,plus,dotcolour,beta,,,48,20,V,L,
326,74,32,7,2,53,27,1450,['c'],1,left,['1'],6,242,[0.09663867],100,53,easy,plus,dotcolour,beta,,,48,20,V,L,
327,75,33,7,2,36,44,601,['n'],1,right,['1'],6,98,[-0.0634001],100,44,hard,plus,dotcolour,beta,,,48,20,V,L,
328,76,34,7,2,53,27,817,['c'],1,left,['1'],6,142,[0.0188722],97,53,easy,plus,dotcolour,beta,,,48,20,V,L,
329,77,35,7,2,33,47,650,['n'],1,right,['1'],6,136,[-0.06932056],100,47,medium,plus,dotcolour,beta,,,48,20,V,L,
330,78,36,7,2,33,47,599,['n'],1,right,['1'],6,123,[-0.03974942],99,47,medium,plus,dotcolour,beta,,,48,20,V,L,
331,79,37,7,2,36,44,784,['c'],0,right,['1'],6,128,[0.04181957],99,44,hard,plus,dotcolour,beta,,,48,20,V,L,
332,80,38,7,2,27,53,633,['n'],1,right,['1'],6,131,[-0.11667267],100,53,easy,plus,dotcolour,beta,,,48,20,V,L,
333,81,39,7,2,27,53,566,['n'],1,right,['1'],6,120,[-0.05419228],100,53,easy,plus,dotcolour,beta,,,48,20,V,L,
334,82,40,7,2,33,47,1035,['n'],1,right,['1'],6,172,[-0.08792476],100,47,medium,plus,dotcolour,beta,,,48,20,V,L,
335,83,41,7,2,47,33,684,['c'],1,left,['1'],6,138,[0.06122413],100,47,medium,plus,dotcolour,beta,,,48,20,V,L,
336,84,0,8,2,27,53,1018,['n'],1,right,['2'],5,2832,[-0.5656056],100,53,easy,plus,dotcolour,beta,,,48,20,V,L,
337,85,1,8,2,27,53,2219,['c'],0,right,['1'],6,439,[-0.17506046],4,53,easy,plus,dotcolour,beta,,,48,20,V,L,
338,86,2,8,2,53,27,683,['c'],1,left,['1'],6,107,[0.07462552],100,53,easy,plus,dotcolour,beta,,,48,20,V,L,
339,87,3,8,2,44,36,851,['c'],1,left,['1'],6,141,[0.10443975],100,44,hard,plus,dotcolour,beta,,,48,20,V,L,
340,88,4,8,2,47,33,666,['n'],0,left,['1'],6,110,[-0.10018441],100,47,medium,plus,dotcolour,beta,,,48,20,V,L,
341,89,5,8,2,36,44,999,['n'],1,right,['2'],5,291,[-0.02381923],93,44,hard,plus,dotcolour,beta,,,48,20,V,L,
342,90,6,8,2,47,33,534,['c'],1,left,['1'],6,107,[0.12226363],100,47,medium,plus,dotcolour,beta,,,48,20,V,L,
343,91,7,8,2,36,44,1384,['c'],0,right,['1'],6,200,[0.03642262],98,44,hard,plus,dotcolour,beta,,,48,20,V,L,
344,92,8,8,2,36,44,1050,['n'],1,right,['1'],6,111,[-0.08367256],100,44,hard,plus,dotcolour,beta,,,48,20,V,L,
345,93,9,8,2,27,53,650,['n'],1,right,['1'],6,114,[-0.02679496],99,53,easy,plus,dotcolour,beta,,,48,20,V,L,
346,94,10,8,2,36,44,600,['n'],1,right,['1'],6,135,[-0.07551028],100,44,hard,plus,dotcolour,beta,,,48,20,V,L,
347,95,11,8,2,44,36,733,['c'],1,left,['1'],6,165,[0.03185535],98,44,hard,plus,dotcolour,beta,,,48,20,V,L,
348,96,12,8,2,36,44,650,['n'],1,right,['1'],6,174,[-0.07528584],100,44,hard,plus,dotcolour,beta,,,48,20,V,L,
349,97,13,8,2,44,36,1650,['n'],0,left,['1'],6,134,[-0.00704847],96,44,hard,plus,dotcolour,beta,,,48,20,V,L,
350,98,14,8,2,27,53,550,['n'],1,right,['1'],6,124,[-0.08656223],100,53,easy,plus,dotcolour,beta,,,48,20,V,L,
351,99,15,8,2,53,27,683,['c'],1,left,['1'],6,221,[0.11570067],100,53,easy,plus,dotcolour,beta,,,48,20,V,L,
352,100,16,8,2,44,36,701,['c'],1,left,['1'],6,122,[0.09224435],100,44,hard,plus,dotcolour,beta,,,48,20,V,L,
353,101,17,8,2,27,53,517,['n'],1,right,['1'],6,74,[-0.05741491],100,53,easy,plus,dotcolour,beta,,,48,20,V,L,
354,102,18,8,2,33,47,799,['n'],1,right,['1'],6,128,[-0.10148804],100,47,medium,plus,dotcolour,beta,,,48,20,V,L,
355,103,19,8,2,27,53,551,['n'],1,right,['1'],6,86,[0.01264706],93,53,easy,plus,dotcolour,beta,,,48,20,V,L,
356,104,20,8,2,53,27,650,['c'],1,left,['1'],6,145,[0.05621988],99,53,easy,plus,dotcolour,beta,,,48,20,V,L,
357,105,21,8,2,36,44,3565,['n'],1,right,['2'],5,127,[-0.11095576],100,44,hard,plus,dotcolour,beta,,,48,20,V,L,
358,106,22,8,2,33,47,699,['n'],1,right,['2'],5,190,[-0.01862995],96,47,medium,plus,dotcolour,beta,,,48,20,V,L,
359,107,23,8,2,33,47,567,['n'],1,right,['1'],6,98,[-0.04318999],100,47,medium,plus,dotcolour,beta,,,48,20,V,L,
360,108,24,8,2,47,33,752,['c'],1,left,['2'],5,424,[0.10441644],99,47,medium,plus,dotcolour,beta,,,48,20,V,L,
361,109,25,8,2,33,47,617,['n'],1,right,['1'],6,96,[-0.09766686],100,47,medium,plus,dotcolour,beta,,,48,20,V,L,
362,110,26,8,2,36,44,532,['n'],1,right,['1'],6,88,[-0.03381911],100,44,hard,plus,dotcolour,beta,,,48,20,V,L,
363,111,27,8,2,47,33,901,['c'],1,left,['2'],5,241,[0.06830228],99,47,medium,plus,dotcolour,beta,,,48,20,V,L,
364,112,28,8,2,53,27,782,['c'],1,left,['2'],5,138,[0.06186347],100,53,easy,plus,dotcolour,beta,,,48,20,V,L,
365,113,29,8,2,33,47,2133,['n'],1,right,['2'],5,200,[-0.09184833],100,47,medium,plus,dotcolour,beta,,,48,20,V,L,
366,114,30,8,2,53,27,1367,['c'],1,left,['2'],5,299,[-0.00950978],82,53,easy,plus,dotcolour,beta,,,48,20,V,L,
367,115,31,8,2,53,27,951,['c'],1,left,['2'],5,202,[0.09641453],100,53,easy,plus,dotcolour,beta,,,48,20,V,L,
368,116,32,8,2,47,33,1167,['c'],1,left,['2'],5,141,[0.04062683],99,47,medium,plus,dotcolour,beta,,,48,20,V,L,
369,117,33,8,2,47,33,1066,['n'],0,left,['2'],5,142,[-0.04359885],99,47,medium,plus,dotcolour,beta,,,48,20,V,L,
370,118,34,8,2,47,33,933,['c'],1,left,['2'],5,132,[0.07909676],100,47,medium,plus,dotcolour,beta,,,48,20,V,L,
371,119,35,8,2,44,36,700,['n'],0,left,['2'],5,116,[-0.02948626],99,44,hard,plus,dotcolour,beta,,,48,20,V,L,
372,120,36,8,2,44,36,733,['n'],0,left,['2'],5,100,[-0.10714588],100,44,hard,plus,dotcolour,beta,,,48,20,V,L,
373,121,37,8,2,33,47,784,['n'],1,right,['2'],5,138,[0.01715084],87,47,medium,plus,dotcolour,beta,,,48,20,V,L,
374,122,38,8,2,53,27,900,['c'],1,left,['2'],5,114,[0.07185843],100,53,easy,plus,dotcolour,beta,,,48,20,V,L,
375,123,39,8,2,44,36,734,['c'],1,left,['2'],5,113,[0.10881584],100,44,hard,plus,dotcolour,beta,,,48,20,V,L,
376,124,40,8,2,27,53,700,['n'],1,right,['1'],6,130,[-0.10295319],100,53,easy,plus,dotcolour,beta,,,48,20,V,L,
377,125,41,8,2,33,47,633,['n'],1,right,['1'],6,148,[-0.08973525],100,47,medium,plus,dotcolour,beta,,,48,20,V,L,
378,0,0,9,3,44,36,1284,['c'],1,left,['2'],5,454,[0.12375782],86,44,hard,minus,dotcolour,beta,,,48,20,V,L,
379,1,1,9,3,27,53,600,['n'],1,right,['1'],6,124,[-0.14515383],99,53,easy,minus,dotcolour,beta,,,48,20,V,L,
380,2,2,9,3,53,27,667,['c'],1,left,['1'],6,102,[0.10005769],92,53,easy,minus,dotcolour,beta,,,48,20,V,L,
381,3,3,9,3,44,36,650,['c'],1,left,['1'],6,121,[0.0212937],15,44,hard,minus,dotcolour,beta,,,48,20,V,L,
382,4,4,9,3,33,47,834,['n'],1,right,['1'],6,172,[-0.10472493],89,47,medium,minus,dotcolour,beta,,,48,20,V,L,
383,5,5,9,3,47,33,534,['c'],1,left,['1'],6,105,[0.08521554],84,47,medium,minus,dotcolour,beta,,,48,20,V,L,
384,6,6,9,3,27,53,567,['n'],1,right,['1'],6,104,[-0.11424522],96,53,easy,minus,dotcolour,beta,,,48,20,V,L,
385,7,7,9,3,27,53,516,['n'],1,right,['1'],6,128,[-0.05280789],47,53,easy,minus,dotcolour,beta,,,48,20,V,L,
386,8,8,9,3,53,27,600,['c'],1,left,['1'],6,92,[0.07796743],79,53,easy,minus,dotcolour,beta,,,48,20,V,L,
387,9,9,9,3,53,27,1783,['c'],1,left,['1'],6,114,[0.13869374],99,53,easy,minus,dotcolour,beta,,,48,20,V,L,
388,10,10,9,3,47,33,567,['c'],1,left,['1'],6,104,[0.06458444],62,47,medium,minus,dotcolour,beta,,,48,20,V,L,
389,11,11,9,3,27,53,633,['n'],1,right,['1'],6,125,[-0.14922235],99,53,easy,minus,dotcolour,beta,,,48,20,V,L,
390,12,12,9,3,47,33,600,['c'],1,left,['1'],6,113,[0.08064529],79,47,medium,minus,dotcolour,beta,,,48,20,V,L,
391,13,13,9,3,36,44,583,['n'],1,right,['1'],6,118,[-0.10826073],94,44,hard,minus,dotcolour,beta,,,48,20,V,L,
392,14,14,9,3,33,47,567,['n'],1,right,['1'],6,60,[-0.08787411],91,47,medium,minus,dotcolour,beta,,,48,20,V,L,
393,15,15,9,3,33,47,550,['n'],1,right,['1'],6,116,[-0.01724944],12,47,medium,minus,dotcolour,beta,,,48,20,V,L,
394,16,16,9,3,53,27,634,['c'],1,left,['1'],6,88,[0.05403576],48,53,easy,minus,dotcolour,beta,,,48,20,V,L,
395,17,17,9,3,33,47,917,['n'],1,right,['1'],6,113,[-0.08993908],86,47,medium,minus,dotcolour,beta,,,48,20,V,L,
396,18,18,9,3,53,27,850,['c'],1,left,['1'],6,125,[0.10264292],92,53,easy,minus,dotcolour,beta,,,48,20,V,L,
397,19,19,9,3,47,33,701,['c'],1,left,['1'],6,84,[0.07706363],79,47,medium,minus,dotcolour,beta,,,48,20,V,L,
398,20,20,9,3,47,33,1200,['c'],1,left,['2'],5,82,[0.08136737],84,47,medium,minus,dotcolour,beta,,,48,20,V,L,
399,21,21,9,3,44,36,1034,['n'],0,left,['1'],6,79,[-0.02266013],11,44,hard,minus,dotcolour,beta,,,48,20,V,L,
400,22,22,9,3,47,33,701,['n'],0,left,['2'],5,1233,[0.07403177],11,47,medium,minus,dotcolour,beta,,,48,20,V,L,
401,23,23,9,3,36,44,1000,['n'],1,right,['1'],6,96,[-0.08750211],86,44,hard,minus,dotcolour,beta,,,48,20,V,L,
402,24,24,9,3,33,47,633,['n'],1,right,['1'],6,125,[-0.09212417],87,47,medium,minus,dotcolour,beta,,,48,20,V,L,
403,25,25,9,3,36,44,584,['n'],1,right,['1'],6,105,[-0.09328916],89,44,hard,minus,dotcolour,beta,,,48,20,V,L,
404,26,26,9,3,36,44,783,['n'],1,right,['1'],6,335,[-0.03238021],33,44,hard,minus,dotcolour,beta,,,48,20,V,L,
405,27,27,9,3,33,47,717,['n'],1,right,['1'],6,206,[-0.1179974],92,47,medium,minus,dotcolour,beta,,,48,20,V,L,
406,28,28,9,3,27,53,651,['n'],1,right,['1'],6,93,[-0.11972598],98,53,easy,minus,dotcolour,beta,,,48,20,V,L,
407,29,29,9,3,33,47,534,['n'],1,right,['1'],6,77,[-0.09535114],93,47,medium,minus,dotcolour,beta,,,48,20,V,L,
408,30,30,9,3,36,44,966,['n'],1,right,['1'],6,148,[-0.03451742],27,44,hard,minus,dotcolour,beta,,,48,20,V,L,
409,31,31,9,3,36,44,1833,['n'],1,right,['2'],5,215,[-0.09452747],82,44,hard,minus,dotcolour,beta,,,48,20,V,L,
410,32,32,9,3,44,36,1183,['n'],0,left,['2'],5,152,[-0.04283793],36,44,hard,minus,dotcolour,beta,,,48,20,V,L,
411,33,33,9,3,36,44,684,['n'],1,right,['2'],5,144,[0.00507666],5,44,hard,minus,dotcolour,beta,,,48,20,V,L,
412,34,34,9,3,44,36,1400,['c'],1,left,['2'],5,259,[0.15357921],97,44,hard,minus,dotcolour,beta,,,48,20,V,L,
413,35,35,9,3,53,27,1583,['c'],1,left,['1'],6,362,[0.12182038],88,53,easy,minus,dotcolour,beta,,,48,20,V,L,
414,36,36,9,3,44,36,2333,['n'],0,left,['2'],5,160,[-0.05268219],47,44,hard,minus,dotcolour,beta,,,48,20,V,L,
415,37,37,9,3,27,53,583,['n'],1,right,['2'],5,147,[-0.1175958],95,53,easy,minus,dotcolour,beta,,,48,20,V,L,
416,38,38,9,3,44,36,900,['c'],1,left,['1'],6,123,[0.0961442],89,44,hard,minus,dotcolour,beta,,,48,20,V,L,
417,39,39,9,3,53,27,568,['c'],1,left,['1'],6,104,[0.11715814],97,53,easy,minus,dotcolour,beta,,,48,20,V,L,
418,40,40,9,3,27,53,600,['n'],1,right,['1'],6,126,[-0.04138793],33,53,easy,minus,dotcolour,beta,,,48,20,V,L,
419,41,41,9,3,47,33,667,['c'],1,left,['1'],6,71,[0.10590076],97,47,medium,minus,dotcolour,beta,,,48,20,V,L,
420,42,0,10,3,36,44,751,['n'],1,right,['1'],6,122,[-0.06126321],57,44,hard,minus,dotcolour,beta,,,48,20,V,L,
421,43,1,10,3,44,36,584,['n'],0,left,['1'],6,103,[-0.07472146],75,44,hard,minus,dotcolour,beta,,,48,20,V,L,
422,44,2,10,3,53,27,567,['c'],1,left,['1'],6,70,[0.10359444],96,53,easy,minus,dotcolour,beta,,,48,20,V,L,
423,45,3,10,3,47,33,584,['c'],1,left,['1'],6,61,[0.1138321],99,47,medium,minus,dotcolour,beta,,,48,20,V,L,
424,46,4,10,3,27,53,549,['n'],1,right,['1'],6,70,[-0.08745042],90,53,easy,minus,dotcolour,beta,,,48,20,V,L,
425,47,5,10,3,47,33,734,['c'],1,left,['1'],6,71,[0.06710165],69,47,medium,minus,dotcolour,beta,,,48,20,V,L,
426,48,6,10,3,47,33,450,['c'],1,left,['1'],6,140,[0.033815],26,47,medium,minus,dotcolour,beta,,,48,20,V,L,
427,49,7,10,3,47,33,533,['c'],1,left,['1'],6,90,[0.12966544],99,47,medium,minus,dotcolour,beta,,,48,20,V,L,
428,50,8,10,3,27,53,584,['n'],1,right,['1'],6,96,[-0.06750933],67,53,easy,minus,dotcolour,beta,,,48,20,V,L,
429,51,9,10,3,53,27,533,['c'],1,left,['1'],6,104,[0.10410134],94,53,easy,minus,dotcolour,beta,,,48,20,V,L,
430,52,10,10,3,44,36,1400,['c'],1,left,['2'],5,101,[0.10420023],94,44,hard,minus,dotcolour,beta,,,48,20,V,L,
431,53,11,10,3,53,27,984,['c'],1,left,['2'],5,115,[0.06947216],68,53,easy,minus,dotcolour,beta,,,48,20,V,L,
432,54,12,10,3,33,47,834,['n'],1,right,['1'],6,134,[-0.04975369],43,47,medium,minus,dotcolour,beta,,,48,20,V,L,
433,55,13,10,3,33,47,500,['n'],1,right,['1'],6,94,[-0.09759848],92,47,medium,minus,dotcolour,beta,,,48,20,V,L,
434,56,14,10,3,53,27,600,['c'],1,left,['1'],6,76,[0.12823526],99,53,easy,minus,dotcolour,beta,,,48,20,V,L,
435,57,15,10,3,33,47,1667,['n'],1,right,['2'],5,255,[-0.14001814],95,47,medium,minus,dotcolour,beta,,,48,20,V,L,
436,58,16,10,3,53,27,701,['c'],1,left,['1'],6,99,[0.06936511],69,53,easy,minus,dotcolour,beta,,,48,20,V,L,
437,59,17,10,3,27,53,1283,['n'],1,right,['1'],6,117,[-0.08208387],80,53,easy,minus,dotcolour,beta,,,48,20,V,L,
438,60,18,10,3,33,47,666,['n'],1,right,['1'],6,142,[-0.09532287],87,47,medium,minus,dotcolour,beta,,,48,20,V,L,
439,61,19,10,3,36,44,583,['n'],1,right,['1'],6,178,[-0.0660221],61,44,hard,minus,dotcolour,beta,,,48,20,V,L,
440,62,20,10,3,44,36,917,['c'],1,left,['1'],6,167,[0.0475033],41,44,hard,minus,dotcolour,beta,,,48,20,V,L,
441,63,21,10,3,36,44,884,['n'],1,right,['1'],6,287,[-0.05471583],49,44,hard,minus,dotcolour,beta,,,48,20,V,L,
442,64,22,10,3,33,47,634,['n'],1,right,['1'],6,163,[-0.12625475],96,47,medium,minus,dotcolour,beta,,,48,20,V,L,
443,65,23,10,3,36,44,1768,['n'],1,right,['2'],5,175,[-0.09404569],84,44,hard,minus,dotcolour,beta,,,48,20,V,L,
444,66,24,10,3,27,53,617,['n'],1,right,['1'],6,192,[-0.09539482],84,53,easy,minus,dotcolour,beta,,,48,20,V,L,
445,67,25,10,3,53,27,650,['c'],1,left,['1'],6,120,[0.08253476],80,53,easy,minus,dotcolour,beta,,,48,20,V,L,
446,68,26,10,3,27,53,683,['n'],1,right,['1'],6,161,[-0.06531544],61,53,easy,minus,dotcolour,beta,,,48,20,V,L,
447,69,27,10,3,33,47,1167,['n'],1,right,['1'],6,246,[-0.14839673],97,47,medium,minus,dotcolour,beta,,,48,20,V,L,
448,70,28,10,3,27,53,533,['n'],1,right,['1'],6,111,[-0.05258737],46,53,easy,minus,dotcolour,beta,,,48,20,V,L,
449,71,29,10,3,44,36,1616,['c'],1,left,['1'],6,148,[0.09104418],84,44,hard,minus,dotcolour,beta,,,48,20,V,L,
450,72,30,10,3,44,36,650,['n'],0,left,['1'],6,125,[-0.02028124],14,44,hard,minus,dotcolour,beta,,,48,20,V,L,
451,73,31,10,3,53,27,667,['c'],1,left,['1'],6,182,[0.06931831],64,53,easy,minus,dotcolour,beta,,,48,20,V,L,
452,74,32,10,3,47,33,833,['c'],1,left,['1'],6,103,[0.08942077],87,47,medium,minus,dotcolour,beta,,,48,20,V,L,
453,75,33,10,3,44,36,767,['c'],1,left,['1'],6,102,[0.00542849],6,44,hard,minus,dotcolour,beta,,,48,20,V,L,
454,76,34,10,3,47,33,617,['c'],1,left,['1'],6,114,[0.08251835],81,47,medium,minus,dotcolour,beta,,,48,20,V,L,
455,77,35,10,3,33,47,1000,['n'],1,right,['1'],6,143,[-0.05289241],47,47,medium,minus,dotcolour,beta,,,48,20,V,L,
456,78,36,10,3,44,36,683,['c'],1,left,['1'],6,87,[0.11089387],97,44,hard,minus,dotcolour,beta,,,48,20,V,L,
457,79,37,10,3,36,44,550,['n'],1,right,['1'],6,103,[-0.06931513],68,44,hard,minus,dotcolour,beta,,,48,20,V,L,
458,80,38,10,3,47,33,966,['c'],1,left,['1'],6,102,[0.03414617],23,47,medium,minus,dotcolour,beta,,,48,20,V,L,
459,81,39,10,3,36,44,617,['n'],1,right,['1'],6,178,[-0.0782743],72,44,hard,minus,dotcolour,beta,,,48,20,V,L,
460,82,40,10,3,36,44,1250,['n'],1,right,['1'],6,138,[-0.02434488],18,44,hard,minus,dotcolour,beta,,,48,20,V,L,
461,83,41,10,3,27,53,1266,['n'],1,right,['1'],6,93,[-0.0527586],46,53,easy,minus,dotcolour,beta,,,48,20,V,L,
462,84,0,11,3,36,44,1500,['n'],1,right,['1'],6,130,[-0.09254299],86,44,hard,minus,dotcolour,beta,,,48,20,V,L,
463,85,1,11,3,47,33,783,['c'],1,left,['1'],6,103,[0.0265882],16,47,medium,minus,dotcolour,beta,,,48,20,V,L,
464,86,2,11,3,47,33,633,['c'],1,left,['1'],6,115,[0.04949745],42,47,medium,minus,dotcolour,beta,,,48,20,V,L,
465,87,3,11,3,47,33,568,['c'],1,left,['1'],6,113,[0.08438764],82,47,medium,minus,dotcolour,beta,,,48,20,V,L,
466,88,4,11,3,27,53,582,['n'],1,right,['1'],6,95,[-0.09129752],89,53,easy,minus,dotcolour,beta,,,48,20,V,L,
467,89,5,11,3,33,47,783,['c'],0,right,['1'],6,92,[0.0690665],69,47,medium,minus,dotcolour,beta,,,48,20,V,L,
468,90,6,11,3,36,44,866,['c'],0,right,['1'],6,79,[0.09689178],93,44,hard,minus,dotcolour,beta,,,48,20,V,L,
469,91,7,11,3,47,33,917,['c'],1,left,['1'],6,96,[0.04908722],41,47,medium,minus,dotcolour,beta,,,48,20,V,L,
470,92,8,11,3,53,27,634,['c'],1,left,['1'],6,117,[0.04705673],39,53,easy,minus,dotcolour,beta,,,48,20,V,L,
471,93,9,11,3,47,33,684,['c'],1,left,['1'],6,102,[0.01671825],10,47,medium,minus,dotcolour,beta,,,48,20,V,L,
472,94,10,11,3,44,36,567,['c'],1,left,['1'],6,21,[0.07848784],95,44,hard,minus,dotcolour,beta,,,48,20,V,L,
473,95,11,11,3,27,53,700,['n'],1,right,['1'],6,121,[-0.12026591],97,53,easy,minus,dotcolour,beta,,,48,20,V,L,
474,96,12,11,3,33,47,2567,['n'],1,right,['1'],6,151,[-0.15743586],99,47,medium,minus,dotcolour,beta,,,48,20,V,L,
475,97,13,11,3,53,27,600,['c'],1,left,['1'],6,27,[0.07436049],89,53,easy,minus,dotcolour,beta,,,48,20,V,L,
476,98,14,11,3,44,36,667,['c'],1,left,['1'],6,41,[0.0772113],87,44,hard,minus,dotcolour,beta,,,48,20,V,L,
477,99,15,11,3,53,27,467,['c'],1,left,['1'],6,125,[0.0834612],81,53,easy,minus,dotcolour,beta,,,48,20,V,L,
478,100,16,11,3,36,44,667,['n'],1,right,['1'],6,127,[-0.09081603],86,44,hard,minus,dotcolour,beta,,,48,20,V,L,
479,101,17,11,3,27,53,483,['n'],1,right,['1'],6,80,[-0.08923126],90,53,easy,minus,dotcolour,beta,,,48,20,V,L,
480,102,18,11,3,44,36,750,['c'],1,left,['1'],6,95,[0.10870195],96,44,hard,minus,dotcolour,beta,,,48,20,V,L,
481,103,19,11,3,47,33,700,['c'],1,left,['1'],6,129,[0.08626157],82,47,medium,minus,dotcolour,beta,,,48,20,V,L,
482,104,20,11,3,53,27,633,['c'],1,left,['1'],6,91,[0.07720218],78,53,easy,minus,dotcolour,beta,,,48,20,V,L,
483,105,21,11,3,36,44,818,['n'],1,right,['1'],6,112,[-0.08626601],84,44,hard,minus,dotcolour,beta,,,48,20,V,L,
484,106,22,11,3,33,47,616,['n'],1,right,['1'],6,140,[-0.13632302],98,47,medium,minus,dotcolour,beta,,,48,20,V,L,
485,107,23,11,3,33,47,601,['n'],1,right,['1'],6,63,[-0.08880555],92,47,medium,minus,dotcolour,beta,,,48,20,V,L,
486,108,24,11,3,47,33,584,['c'],1,left,['1'],6,55,[0.11565332],99,47,medium,minus,dotcolour,beta,,,48,20,V,L,
487,109,25,11,3,33,47,616,['n'],1,right,['1'],6,142,[-0.07763463],74,47,medium,minus,dotcolour,beta,,,48,20,V,L,
488,110,26,11,3,36,44,567,['n'],1,right,['1'],6,138,[-0.05075754],44,44,hard,minus,dotcolour,beta,,,48,20,V,L,
489,111,27,11,3,33,47,500,['n'],1,right,['1'],6,138,[-0.03454745],27,47,medium,minus,dotcolour,beta,,,48,20,V,L,
490,112,28,11,3,44,36,717,['c'],1,left,['1'],6,66,[0.08607717],89,44,hard,minus,dotcolour,beta,,,48,20,V,L,
491,113,29,11,3,53,27,700,['c'],1,left,['1'],6,141,[0.09505492],87,53,easy,minus,dotcolour,beta,,,48,20,V,L,
492,114,30,11,3,33,47,534,['n'],1,right,['1'],6,106,[-0.06585312],64,47,medium,minus,dotcolour,beta,,,48,20,V,L,
493,115,31,11,3,27,53,583,['n'],1,right,['1'],6,96,[-0.14138689],99,53,easy,minus,dotcolour,beta,,,48,20,V,L,
494,116,32,11,3,44,36,734,['c'],1,left,['1'],6,56,[0.08912475],93,44,hard,minus,dotcolour,beta,,,48,20,V,L,
495,117,33,11,3,53,27,500,['c'],1,left,['1'],6,60,[0.05376492],47,53,easy,minus,dotcolour,beta,,,48,20,V,L,
496,118,34,11,3,44,36,767,['n'],0,left,['2'],5,67,[-0.0698462],73,44,hard,minus,dotcolour,beta,,,48,20,V,L,
497,119,35,11,3,53,27,651,['c'],1,left,['1'],6,104,[0.04723471],39,53,easy,minus,dotcolour,beta,,,48,20,V,L,
498,120,36,11,3,27,53,650,['n'],1,right,['2'],5,107,[-0.09777407],91,53,easy,minus,dotcolour,beta,,,48,20,V,L,
499,121,37,11,3,36,44,2084,['c'],0,right,['1'],6,148,[0.06883436],65,44,hard,minus,dotcolour,beta,,,48,20,V,L,
500,122,38,11,3,27,53,584,['n'],1,right,['1'],6,97,[-0.04155143],31,53,easy,minus,dotcolour,beta,,,48,20,V,L,
501,123,39,11,3,27,53,666,['n'],1,right,['2'],5,179,[-0.17355937],99,53,easy,minus,dotcolour,beta,,,48,20,V,L,
502,124,40,11,3,44,36,900,['c'],1,left,['2'],5,138,[0.01426848],12,44,hard,minus,dotcolour,beta,,,48,20,V,L,
503,125,41,11,3,36,44,617,['n'],1,right,['2'],5,261,[-0.14676985],96,44,hard,minus,dotcolour,beta,,,48,20,V,L,
504,0,0,12,4,44,36,701,['c'],1,left,['1'],6,114,[0.12134722],100,44,hard,plus,dotcolour,beta,,,48,20,V,L,
505,1,1,12,4,36,44,633,['n'],1,right,['2'],5,85,[-0.08121404],100,44,hard,plus,dotcolour,beta,,,48,20,V,L,
506,2,2,12,4,44,36,1300,['n'],0,left,['2'],5,111,[-0.09739157],100,44,hard,plus,dotcolour,beta,,,48,20,V,L,
507,3,3,12,4,33,47,584,['n'],1,right,['2'],5,68,[-0.0153775],99,47,medium,plus,dotcolour,beta,,,48,20,V,L,
508,4,4,12,4,53,27,833,['c'],1,left,['1'],6,153,[0.12551759],100,53,easy,plus,dotcolour,beta,,,48,20,V,L,
509,5,5,12,4,27,53,683,['n'],1,right,['1'],6,97,[-0.11043188],100,53,easy,plus,dotcolour,beta,,,48,20,V,L,
510,6,6,12,4,33,47,750,['n'],1,right,['1'],6,153,[-0.0421382],99,47,medium,plus,dotcolour,beta,,,48,20,V,L,
511,7,7,12,4,36,44,533,['n'],1,right,['1'],6,119,[-0.03359418],99,44,hard,plus,dotcolour,beta,,,48,20,V,L,
512,8,8,12,4,36,44,600,['n'],1,right,['1'],6,251,[-0.22377893],100,44,hard,plus,dotcolour,beta,,,48,20,V,L,
513,9,9,12,4,27,53,550,['n'],1,right,['1'],6,101,[-0.14079017],100,53,easy,plus,dotcolour,beta,,,48,20,V,L,
514,10,10,12,4,53,27,1033,['c'],1,left,['1'],6,58,[0.07917384],100,53,easy,plus,dotcolour,beta,,,48,20,V,L,
515,11,11,12,4,36,44,1200,['n'],1,right,['1'],6,111,[-0.04715561],100,44,hard,plus,dotcolour,beta,,,48,20,V,L,
516,12,12,12,4,27,53,533,['n'],1,right,['1'],6,136,[-0.04854892],99,53,easy,plus,dotcolour,beta,,,48,20,V,L,
517,13,13,12,4,27,53,468,['n'],1,right,['1'],6,64,[-0.11520456],100,53,easy,plus,dotcolour,beta,,,48,20,V,L,
518,14,14,12,4,44,36,966,['n'],0,left,['1'],6,88,[-0.07106536],100,44,hard,plus,dotcolour,beta,,,48,20,V,L,
519,15,15,12,4,36,44,1067,['n'],1,right,['1'],6,147,[-0.03839074],99,44,hard,plus,dotcolour,beta,,,48,20,V,L,
520,16,16,12,4,44,36,833,['c'],1,left,['1'],6,126,[0.06530266],100,44,hard,plus,dotcolour,beta,,,48,20,V,L,
521,17,17,12,4,33,47,584,['n'],1,right,['1'],6,114,[-0.06963944],100,47,medium,plus,dotcolour,beta,,,48,20,V,L,
522,18,18,12,4,27,53,567,['n'],1,right,['1'],6,120,[-0.15824659],100,53,easy,plus,dotcolour,beta,,,48,20,V,L,
523,19,19,12,4,36,44,967,['c'],0,right,['2'],5,134,[0.06161797],100,44,hard,plus,dotcolour,beta,,,48,20,V,L,
524,20,20,12,4,33,47,734,['n'],1,right,['1'],6,157,[-0.05408612],99,47,medium,plus,dotcolour,beta,,,48,20,V,L,
525,21,21,12,4,44,36,850,['c'],1,left,['2'],5,150,[0.07947476],100,44,hard,plus,dotcolour,beta,,,48,20,V,L,
526,22,22,12,4,53,27,584,['c'],1,left,['2'],5,122,[0.00897613],97,53,easy,plus,dotcolour,beta,,,48,20,V,L,
527,23,23,12,4,47,33,950,['c'],1,left,['2'],5,144,[0.09101929],100,47,medium,plus,dotcolour,beta,,,48,20,V,L,
528,24,24,12,4,27,53,650,['n'],1,right,['1'],6,114,[-0.03736673],99,53,easy,plus,dotcolour,beta,,,48,20,V,L,
529,25,25,12,4,47,33,617,['c'],1,left,['2'],5,142,[0.07003268],100,47,medium,plus,dotcolour,beta,,,48,20,V,L,
530,26,26,12,4,47,33,784,['n'],0,left,['2'],5,186,[-0.04716197],99,47,medium,plus,dotcolour,beta,,,48,20,V,L,
531,27,27,12,4,33,47,850,['n'],1,right,['2'],5,58,[-0.06319337],100,47,medium,plus,dotcolour,beta,,,48,20,V,L,
532,28,28,12,4,33,47,816,['n'],1,right,['2'],5,112,[-0.13352512],100,47,medium,plus,dotcolour,beta,,,48,20,V,L,
533,29,29,12,4,27,53,566,['n'],1,right,['1'],6,103,[-0.11838135],100,53,easy,plus,dotcolour,beta,,,48,20,V,L,
534,30,30,12,4,44,36,783,['c'],1,left,['1'],6,44,[0.05540068],100,44,hard,plus,dotcolour,beta,,,48,20,V,L,
535,31,31,12,4,53,27,700,['c'],1,left,['1'],6,103,[0.11193593],100,53,easy,plus,dotcolour,beta,,,48,20,V,L,
536,32,32,12,4,47,33,699,['c'],1,left,['1'],6,89,[0.08670803],100,47,medium,plus,dotcolour,beta,,,48,20,V,L,
537,33,33,12,4,47,33,650,['c'],1,left,['1'],6,84,[0.1365581],100,47,medium,plus,dotcolour,beta,,,48,20,V,L,
538,34,34,12,4,47,33,500,['c'],1,left,['1'],6,94,[0.09532594],100,47,medium,plus,dotcolour,beta,,,48,20,V,L,
539,35,35,12,4,53,27,567,['c'],1,left,['1'],6,93,[0.12168069],100,53,easy,plus,dotcolour,beta,,,48,20,V,L,
540,36,36,12,4,47,33,600,['c'],1,left,['1'],6,43,[0.1066508],100,47,medium,plus,dotcolour,beta,,,48,20,V,L,
541,37,37,12,4,53,27,484,['c'],1,left,['1'],6,119,[0.0896639],100,53,easy,plus,dotcolour,beta,,,48,20,V,L,
542,38,38,12,4,33,47,999,['n'],1,right,['2'],5,195,[-0.13173455],100,47,medium,plus,dotcolour,beta,,,48,20,V,L,
543,39,39,12,4,36,44,584,['n'],1,right,['1'],6,110,[-0.11436504],100,44,hard,plus,dotcolour,beta,,,48,20,V,L,
544,40,40,12,4,44,36,833,['c'],1,left,['1'],6,97,[0.12204764],100,44,hard,plus,dotcolour,beta,,,48,20,V,L,
545,41,41,12,4,53,27,500,['c'],1,left,['1'],6,74,[0.11710843],100,53,easy,plus,dotcolour,beta,,,48,20,V,L,
546,42,0,13,4,44,36,718,['c'],1,left,['1'],6,128,[0.12092788],100,44,hard,plus,dotcolour,beta,,,48,20,V,L,
547,43,1,13,4,53,27,467,['c'],1,left,['1'],6,57,[0.11951948],100,53,easy,plus,dotcolour,beta,,,48,20,V,L,
548,44,2,13,4,36,44,666,['n'],1,right,['2'],5,357,[-0.10085162],99,44,hard,plus,dotcolour,beta,,,48,20,V,L,
549,45,3,13,4,36,44,1650,['n'],1,right,['2'],5,157,[-0.0836405],100,44,hard,plus,dotcolour,beta,,,48,20,V,L,
550,46,4,13,4,44,36,683,['c'],1,left,['1'],6,165,[0.06968804],100,44,hard,plus,dotcolour,beta,,,48,20,V,L,
551,47,5,13,4,47,33,717,['c'],1,left,['1'],6,99,[0.02419266],99,47,medium,plus,dotcolour,beta,,,48,20,V,L,
552,48,6,13,4,33,47,649,['n'],1,right,['1'],6,110,[-0.04910393],100,47,medium,plus,dotcolour,beta,,,48,20,V,L,
553,49,7,13,4,33,47,700,['n'],1,right,['1'],6,135,[-0.04988866],99,47,medium,plus,dotcolour,beta,,,48,20,V,L,
554,50,8,13,4,44,36,632,['c'],1,left,['1'],6,89,[0.11941144],100,44,hard,plus,dotcolour,beta,,,48,20,V,L,
555,51,9,13,4,44,36,1250,['c'],1,left,['1'],6,101,[0.0827506],100,44,hard,plus,dotcolour,beta,,,48,20,V,L,
556,52,10,13,4,36,44,616,['n'],1,right,['1'],6,130,[-0.03891691],99,44,hard,plus,dotcolour,beta,,,48,20,V,L,
557,53,11,13,4,47,33,950,['c'],1,left,['1'],6,112,[0.09040806],100,47,medium,plus,dotcolour,beta,,,48,20,V,L,
558,54,12,13,4,27,53,534,['n'],1,right,['1'],6,119,[-0.078494],100,53,easy,plus,dotcolour,beta,,,48,20,V,L,
559,55,13,13,4,27,53,667,['n'],1,right,['1'],6,89,[-0.07692269],100,53,easy,plus,dotcolour,beta,,,48,20,V,L,
560,56,14,13,4,53,27,600,['c'],1,left,['1'],6,103,[0.0928979],100,53,easy,plus,dotcolour,beta,,,48,20,V,L,
561,57,15,13,4,47,33,583,['c'],1,left,['1'],6,53,[0.08470222],100,47,medium,plus,dotcolour,beta,,,48,20,V,L,
562,58,16,13,4,33,47,584,['n'],1,right,['1'],6,125,[-0.00440198],95,47,medium,plus,dotcolour,beta,,,48,20,V,L,
563,59,17,13,4,47,33,550,['c'],1,left,['1'],6,172,[0.07030372],100,47,medium,plus,dotcolour,beta,,,48,20,V,L,
564,60,18,13,4,44,36,700,['c'],1,left,['1'],6,105,[0.08157795],100,44,hard,plus,dotcolour,beta,,,48,20,V,L,
565,61,19,13,4,53,27,616,['c'],1,left,['1'],6,102,[0.07221519],100,53,easy,plus,dotcolour,beta,,,48,20,V,L,
566,62,20,13,4,44,36,550,['c'],1,left,['1'],6,149,[0.02077345],97,44,hard,plus,dotcolour,beta,,,48,20,V,L,
567,63,21,13,4,36,44,802,['c'],0,right,['1'],6,80,[0.06230262],100,44,hard,plus,dotcolour,beta,,,48,20,V,L,
568,64,22,13,4,53,27,499,['c'],1,left,['1'],6,75,[0.0941638],100,53,easy,plus,dotcolour,beta,,,48,20,V,L,
569,65,23,13,4,33,47,633,['n'],1,right,['1'],6,71,[-0.04786419],100,47,medium,plus,dotcolour,beta,,,48,20,V,L,
570,66,24,13,4,27,53,450,['n'],1,right,['1'],6,76,[-0.03462957],100,53,easy,plus,dotcolour,beta,,,48,20,V,L,
571,67,25,13,4,47,33,484,['n'],0,left,['1'],6,159,[-0.00289584],93,47,medium,plus,dotcolour,beta,,,48,20,V,L,
572,68,26,13,4,27,53,499,['n'],1,right,['1'],6,61,[-0.07485397],100,53,easy,plus,dotcolour,beta,,,48,20,V,L,
573,69,27,13,4,53,27,633,['n'],0,left,['1'],6,234,[-0.10617323],100,53,easy,plus,dotcolour,beta,,,48,20,V,L,
574,70,28,13,4,33,47,566,['n'],1,right,['1'],6,124,[-0.08029007],100,47,medium,plus,dotcolour,beta,,,48,20,V,L,
575,71,29,13,4,33,47,517,['n'],1,right,['1'],6,43,[-0.05007106],100,47,medium,plus,dotcolour,beta,,,48,20,V,L,
576,72,30,13,4,53,27,500,['c'],1,left,['1'],6,46,[0.05630321],100,53,easy,plus,dotcolour,beta,,,48,20,V,L,
577,73,31,13,4,36,44,568,['n'],1,right,['1'],6,87,[-0.07923562],100,44,hard,plus,dotcolour,beta,,,48,20,V,L,
578,74,32,13,4,27,53,567,['n'],1,right,['1'],6,111,[-0.06012627],100,53,easy,plus,dotcolour,beta,,,48,20,V,L,
579,75,33,13,4,53,27,567,['c'],1,left,['1'],6,77,[0.02388797],99,53,easy,plus,dotcolour,beta,,,48,20,V,L,
580,76,34,13,4,44,36,616,['c'],1,left,['1'],6,82,[0.14420383],100,44,hard,plus,dotcolour,beta,,,48,20,V,L,
581,77,35,13,4,47,33,500,['c'],1,left,['1'],6,28,[0.06807945],100,47,medium,plus,dotcolour,beta,,,48,20,V,L,
582,78,36,13,4,27,53,616,['n'],1,right,['1'],6,108,[-0.06425062],100,53,easy,plus,dotcolour,beta,,,48,20,V,L,
583,79,37,13,4,47,33,416,['c'],1,left,['1'],6,96,[0.09765715],100,47,medium,plus,dotcolour,beta,,,48,20,V,L,
584,80,38,13,4,33,47,449,['n'],1,right,['1'],6,75,[-0.07212216],100,47,medium,plus,dotcolour,beta,,,48,20,V,L,
585,81,39,13,4,36,44,834,['n'],1,right,['1'],6,72,[-0.06634421],100,44,hard,plus,dotcolour,beta,,,48,20,V,L,
586,82,40,13,4,27,53,500,['n'],1,right,['1'],6,82,[-0.10803624],100,53,easy,plus,dotcolour,beta,,,48,20,V,L,
587,83,41,13,4,36,44,584,['c'],0,right,['1'],6,49,[0.06464486],100,44,hard,plus,dotcolour,beta,,,48,20,V,L,
588,84,0,14,4,47,33,633,['c'],1,left,['1'],6,64,[0.08748609],100,47,medium,plus,dotcolour,beta,,,48,20,V,L,
589,85,1,14,4,33,47,584,['n'],1,right,['1'],6,142,[-0.09612894],100,47,medium,plus,dotcolour,beta,,,48,20,V,L,
590,86,2,14,4,33,47,617,['n'],1,right,['1'],6,81,[-0.05390167],100,47,medium,plus,dotcolour,beta,,,48,20,V,L,
591,87,3,14,4,44,36,1218,['c'],1,left,['2'],5,46,[0.05598602],100,44,hard,plus,dotcolour,beta,,,48,20,V,L,
592,88,4,14,4,27,53,584,['n'],1,right,['2'],5,102,[-0.02464138],99,53,easy,plus,dotcolour,beta,,,48,20,V,L,
593,89,5,14,4,47,33,583,['c'],1,left,['1'],6,36,[0.08066156],100,47,medium,plus,dotcolour,beta,,,48,20,V,L,
594,90,6,14,4,33,47,533,['n'],1,right,['2'],5,119,[-0.10450425],100,47,medium,plus,dotcolour,beta,,,48,20,V,L,
595,91,7,14,4,27,53,750,['n'],1,right,['1'],6,70,[-0.05238527],100,53,easy,plus,dotcolour,beta,,,48,20,V,L,
596,92,8,14,4,47,33,585,['c'],1,left,['1'],6,77,[0.02242688],99,47,medium,plus,dotcolour,beta,,,48,20,V,L,
597,93,9,14,4,33,47,567,['n'],1,right,['1'],6,92,[-0.07864994],100,47,medium,plus,dotcolour,beta,,,48,20,V,L,
598,94,10,14,4,36,44,649,['n'],1,right,['1'],6,80,[-0.00867567],98,44,hard,plus,dotcolour,beta,,,48,20,V,L,
599,95,11,14,4,44,36,667,['c'],1,left,['1'],6,75,[0.10717378],100,44,hard,plus,dotcolour,beta,,,48,20,V,L,
600,96,12,14,4,36,44,749,['n'],1,right,['1'],6,51,[-0.08105583],100,44,hard,plus,dotcolour,beta,,,48,20,V,L,
601,97,13,14,4,33,47,700,['n'],1,right,['1'],6,94,[-0.10189066],100,47,medium,plus,dotcolour,beta,,,48,20,V,L,
602,98,14,14,4,44,36,633,['c'],1,left,['1'],6,1162,[0.10624213],94,44,hard,plus,dotcolour,beta,,,48,20,V,L,
603,99,15,14,4,36,44,732,['n'],1,right,['1'],6,104,[-0.06214496],100,44,hard,plus,dotcolour,beta,,,48,20,V,L,
604,100,16,14,4,53,27,751,['c'],1,left,['1'],6,1159,[0.17036354],98,53,easy,plus,dotcolour,beta,,,48,20,V,L,
605,101,17,14,4,27,53,650,['n'],1,right,['1'],6,104,[-0.08718362],100,53,easy,plus,dotcolour,beta,,,48,20,V,L,
606,102,18,14,4,44,36,600,['c'],1,left,['1'],6,133,[0.05040479],99,44,hard,plus,dotcolour,beta,,,48,20,V,L,
607,103,19,14,4,53,27,532,['c'],1,left,['1'],6,100,[0.15656425],100,53,easy,plus,dotcolour,beta,,,48,20,V,L,
608,104,20,14,4,27,53,583,['n'],1,right,['1'],6,66,[-0.11959988],100,53,easy,plus,dotcolour,beta,,,48,20,V,L,
609,105,21,14,4,47,33,633,['c'],1,left,['1'],6,15,[0.08154623],100,47,medium,plus,dotcolour,beta,,,48,20,V,L,
610,106,22,14,4,36,44,918,['n'],1,right,['1'],6,67,[-0.08790147],100,44,hard,plus,dotcolour,beta,,,48,20,V,L,
611,107,23,14,4,44,36,1533,['c'],1,left,['1'],6,101,[0.07755865],100,44,hard,plus,dotcolour,beta,,,48,20,V,L,
612,108,24,14,4,44,36,633,['c'],1,left,['1'],6,73,[0.00694061],98,44,hard,plus,dotcolour,beta,,,48,20,V,L,
613,109,25,14,4,53,27,551,['c'],1,left,['1'],6,33,[0.10247739],100,53,easy,plus,dotcolour,beta,,,48,20,V,L,
614,110,26,14,4,36,44,599,['n'],1,right,['2'],5,250,[-0.15051424],100,44,hard,plus,dotcolour,beta,,,48,20,V,L,
615,111,27,14,4,44,36,550,['c'],1,left,['1'],6,75,[0.10653976],100,44,hard,plus,dotcolour,beta,,,48,20,V,L,
616,112,28,14,4,27,53,583,['n'],1,right,['2'],5,138,[-0.12237293],100,53,easy,plus,dotcolour,beta,,,48,20,V,L,
617,113,29,14,4,33,47,734,['n'],1,right,['2'],5,128,[-0.0536611],100,47,medium,plus,dotcolour,beta,,,48,20,V,L,
618,114,30,14,4,27,53,600,['n'],1,right,['1'],6,148,[-0.11743417],100,53,easy,plus,dotcolour,beta,,,48,20,V,L,
619,115,31,14,4,27,53,500,['n'],1,right,['1'],6,76,[-0.04609297],100,53,easy,plus,dotcolour,beta,,,48,20,V,L,
620,116,32,14,4,53,27,733,['c'],1,left,['1'],6,92,[0.08306591],100,53,easy,plus,dotcolour,beta,,,48,20,V,L,
621,117,33,14,4,53,27,600,['c'],1,left,['1'],6,826,[0.15854796],99,53,easy,plus,dotcolour,beta,,,48,20,V,L,
622,118,34,14,4,47,33,582,['c'],1,left,['1'],6,43,[0.06248323],100,47,medium,plus,dotcolour,beta,,,48,20,V,L,
623,119,35,14,4,36,44,984,['c'],0,right,['1'],6,98,[0.04727992],100,44,hard,plus,dotcolour,beta,,,48,20,V,L,
624,120,36,14,4,53,27,534,['c'],1,left,['1'],6,58,[0.07175188],100,53,easy,plus,dotcolour,beta,,,48,20,V,L,
625,121,37,14,4,53,27,716,['c'],1,left,['1'],6,100,[0.11899494],100,53,easy,plus,dotcolour,beta,,,48,20,V,L,
626,122,38,14,4,33,47,750,['c'],0,right,['1'],6,60,[0.04179199],100,47,medium,plus,dotcolour,beta,,,48,20,V,L,
627,123,39,14,4,36,44,966,['n'],1,right,['1'],6,84,[-0.10102175],100,44,hard,plus,dotcolour,beta,,,48,20,V,L,
628,124,40,14,4,47,33,751,['c'],1,left,['1'],6,92,[0.10608922],100,47,medium,plus,dotcolour,beta,,,48,20,V,L,
629,125,41,14,4,47,33,1050,['c'],1,left,['1'],6,15,[0.06395001],100,47,medium,plus,dotcolour,beta,,,48,20,V,L,
630,0,0,15,5,27,53,668,['n'],1,right,['1'],6,87,[-0.02208579],11,53,easy,minus,dotcolour,beta,,,48,20,V,L,
631,1,1,15,5,44,36,717,['c'],1,left,['1'],6,1248,[0.19699589],91,44,hard,minus,dotcolour,beta,,,48,20,V,L,
632,2,2,15,5,27,53,616,['n'],1,right,['1'],6,70,[-0.12978328],99,53,easy,minus,dotcolour,beta,,,48,20,V,L,
633,3,3,15,5,53,27,533,['c'],1,left,['1'],6,64,[0.06422869],65,53,easy,minus,dotcolour,beta,,,48,20,V,L,
634,4,4,15,5,33,47,634,['n'],1,right,['1'],6,29,[-0.06783471],79,47,medium,minus,dotcolour,beta,,,48,20,V,L,
635,5,5,15,5,36,44,784,['n'],1,right,['1'],6,54,[-0.05373612],46,44,hard,minus,dotcolour,beta,,,48,20,V,L,
636,6,6,15,5,44,36,1416,['c'],1,left,['1'],6,708,[0.20273939],96,44,hard,minus,dotcolour,beta,,,48,20,V,L,
637,7,7,15,5,47,33,733,['c'],1,left,['1'],6,268,[0.13529101],94,47,medium,minus,dotcolour,beta,,,48,20,V,L,
638,8,8,15,5,36,44,700,['c'],0,right,['1'],6,79,[0.06180101],60,44,hard,minus,dotcolour,beta,,,48,20,V,L,
639,9,9,15,5,53,27,717,['c'],1,left,['1'],6,88,[0.08030693],82,53,easy,minus,dotcolour,beta,,,48,20,V,L,
640,10,10,15,5,44,36,667,['c'],1,left,['1'],6,43,[0.09891199],98,44,hard,minus,dotcolour,beta,,,48,20,V,L,
641,11,11,15,5,27,53,566,['n'],1,right,['1'],6,108,[-0.08741878],85,53,easy,minus,dotcolour,beta,,,48,20,V,L,
642,12,12,15,5,47,33,884,['c'],1,left,['1'],6,85,[0.08441322],86,47,medium,minus,dotcolour,beta,,,48,20,V,L,
643,13,13,15,5,33,47,1067,['c'],0,right,['1'],6,73,[0.03117452],16,47,medium,minus,dotcolour,beta,,,48,20,V,L,
644,14,14,15,5,53,27,701,['c'],1,left,['1'],6,34,[0.11535225],100,53,easy,minus,dotcolour,beta,,,48,20,V,L,
645,15,15,15,5,53,27,517,['c'],1,left,['1'],6,118,[0.10782917],94,53,easy,minus,dotcolour,beta,,,48,20,V,L,
646,16,16,15,5,33,47,718,['c'],0,right,['1'],6,118,[0.12687735],98,47,medium,minus,dotcolour,beta,,,48,20,V,L,
647,17,17,15,5,47,33,533,['c'],1,left,['1'],6,29,[0.08333012],95,47,medium,minus,dotcolour,beta,,,48,20,V,L,
648,18,18,15,5,27,53,666,['n'],1,right,['1'],6,91,[-0.06318999],61,53,easy,minus,dotcolour,beta,,,48,20,V,L,
649,19,19,15,5,53,27,567,['c'],1,left,['1'],6,50,[0.06376673],66,53,easy,minus,dotcolour,beta,,,48,20,V,L,
650,20,20,15,5,33,47,634,['c'],0,right,['1'],6,159,[0.11223623],93,47,medium,minus,dotcolour,beta,,,48,20,V,L,
651,21,21,15,5,36,44,1335,['n'],1,right,['1'],6,125,[-0.0764139],74,44,hard,minus,dotcolour,beta,,,48,20,V,L,
652,22,22,15,5,53,27,567,['c'],1,left,['1'],6,90,[0.10805807],96,53,easy,minus,dotcolour,beta,,,48,20,V,L,
653,23,23,15,5,27,53,949,['n'],1,right,['1'],6,313,[-0.12655737],91,53,easy,minus,dotcolour,beta,,,48,20,V,L,
654,24,24,15,5,33,47,883,['n'],1,right,['1'],6,131,[-0.10148414],91,47,medium,minus,dotcolour,beta,,,48,20,V,L,
655,25,25,15,5,47,33,600,['c'],1,left,['1'],6,719,[0.09524963],70,47,medium,minus,dotcolour,beta,,,48,20,V,L,
656,26,26,15,5,33,47,950,['n'],1,right,['1'],6,70,[-0.08114868],85,47,medium,minus,dotcolour,beta,,,48,20,V,L,
657,27,27,15,5,44,36,1350,['c'],1,left,['1'],6,5,[0.06712578],95,44,hard,minus,dotcolour,beta,,,48,20,V,L,
658,28,28,15,5,47,33,634,['c'],1,left,['1'],6,126,[0.05199884],46,47,medium,minus,dotcolour,beta,,,48,20,V,L,
659,29,29,15,5,27,53,817,['n'],1,right,['1'],6,601,[-0.1443478],89,53,easy,minus,dotcolour,beta,,,48,20,V,L,
660,30,30,15,5,36,44,1034,['c'],0,right,['1'],6,113,[-0.00650297],3,44,hard,minus,dotcolour,beta,,,48,20,V,L,
661,31,31,15,5,44,36,783,['n'],0,left,['1'],6,102,[-0.12696624],98,44,hard,minus,dotcolour,beta,,,48,20,V,L,
662,32,32,15,5,36,44,966,['n'],1,right,['1'],6,85,[-0.08247093],84,44,hard,minus,dotcolour,beta,,,48,20,V,L,
663,33,33,15,5,33,47,583,['n'],1,right,['1'],6,92,[-0.06945268],70,47,medium,minus,dotcolour,beta,,,48,20,V,L,
664,34,34,15,5,44,36,1350,['n'],0,left,['1'],6,139,[-0.12331837],96,44,hard,minus,dotcolour,beta,,,48,20,V,L,
665,35,35,15,5,53,27,666,['c'],1,left,['1'],6,60,[0.06725796],70,53,easy,minus,dotcolour,beta,,,48,20,V,L,
666,36,36,15,5,36,44,667,['n'],1,right,['1'],6,96,[-0.08300118],83,44,hard,minus,dotcolour,beta,,,48,20,V,L,
667,37,37,15,5,47,33,600,['c'],1,left,['1'],6,133,[0.03756189],29,47,medium,minus,dotcolour,beta,,,48,20,V,L,
668,38,38,15,5,36,44,684,['n'],1,right,['1'],6,46,[-0.08057623],89,44,hard,minus,dotcolour,beta,,,48,20,V,L,
669,39,39,15,5,27,53,650,['n'],1,right,['1'],6,83,[-0.08718541],88,53,easy,minus,dotcolour,beta,,,48,20,V,L,
670,40,40,15,5,47,33,634,['c'],1,left,['1'],6,56,[0.06420457],66,47,medium,minus,dotcolour,beta,,,48,20,V,L,
671,41,41,15,5,44,36,850,['c'],1,left,['1'],6,645,[0.16533923],92,44,hard,minus,dotcolour,beta,,,48,20,V,L,
672,42,0,16,5,53,27,650,['c'],1,left,['1'],6,67,[0.06762172],70,53,easy,minus,dotcolour,beta,,,48,20,V,L,
673,43,1,16,5,44,36,666,['c'],1,left,['1'],6,152,[0.08303003],78,44,hard,minus,dotcolour,beta,,,48,20,V,L,
674,44,2,16,5,47,33,518,['c'],1,left,['1'],6,78,[0.07906788],82,47,medium,minus,dotcolour,beta,,,48,20,V,L,
675,45,3,16,5,44,36,417,['c'],1,left,['1'],6,115,[0.0649923],62,44,hard,minus,dotcolour,beta,,,48,20,V,L,
676,46,4,16,5,47,33,450,['c'],1,left,['1'],6,70,[0.06730719],69,47,medium,minus,dotcolour,beta,,,48,20,V,L,
677,47,5,16,5,53,27,601,['c'],1,left,['1'],6,37,[0.07405001],85,53,easy,minus,dotcolour,beta,,,48,20,V,L,
678,48,6,16,5,47,33,500,['c'],1,left,['1'],6,113,[0.03643754],26,47,medium,minus,dotcolour,beta,,,48,20,V,L,
679,49,7,16,5,27,53,584,['n'],1,right,['1'],6,110,[-0.05901305],55,53,easy,minus,dotcolour,beta,,,48,20,V,L,
680,50,8,16,5,33,47,1050,['n'],1,right,['1'],6,97,[-0.068818],68,47,medium,minus,dotcolour,beta,,,48,20,V,L,
681,51,9,16,5,36,44,834,['c'],0,right,['1'],6,101,[0.07856447],79,44,hard,minus,dotcolour,beta,,,48,20,V,L,
682,52,10,16,5,44,36,933,['c'],1,left,['1'],6,68,[0.07908326],84,44,hard,minus,dotcolour,beta,,,48,20,V,L,
683,53,11,16,5,47,33,633,['c'],1,left,['1'],6,98,[0.06678361],66,47,medium,minus,dotcolour,beta,,,48,20,V,L,
684,54,12,16,5,47,33,1217,['c'],1,left,['1'],6,143,[0.1161167],95,47,medium,minus,dotcolour,beta,,,48,20,V,L,
685,55,13,16,5,53,27,634,['c'],1,left,['1'],6,33,[0.08234438],93,53,easy,minus,dotcolour,beta,,,48,20,V,L,
686,56,14,16,5,27,53,967,['n'],1,right,['1'],6,290,[-0.08781539],75,53,easy,minus,dotcolour,beta,,,48,20,V,L,
687,57,15,16,5,44,36,1449,['n'],0,left,['2'],5,158,[-0.0097904],11,44,hard,minus,dotcolour,beta,,,48,20,V,L,
688,58,16,16,5,33,47,984,['n'],1,right,['1'],6,89,[-0.09082041],89,47,medium,minus,dotcolour,beta,,,48,20,V,L,
689,59,17,16,5,33,47,684,['n'],1,right,['1'],6,51,[-0.09434814],96,47,medium,minus,dotcolour,beta,,,48,20,V,L,
690,60,18,16,5,36,44,1167,['n'],1,right,['1'],6,149,[-0.06990592],66,44,hard,minus,dotcolour,beta,,,48,20,V,L,
691,61,19,16,5,44,36,1117,['c'],1,left,['1'],6,99,[0.05252529],46,44,hard,minus,dotcolour,beta,,,48,20,V,L,
692,62,20,16,5,36,44,784,['c'],0,right,['1'],6,130,[0.0207034],15,44,hard,minus,dotcolour,beta,,,48,20,V,L,
693,63,21,16,5,44,36,717,['c'],1,left,['1'],6,64,[0.06659842],69,44,hard,minus,dotcolour,beta,,,48,20,V,L,
694,64,22,16,5,44,36,1267,['n'],0,left,['2'],5,236,[-0.00207611],12,44,hard,minus,dotcolour,beta,,,48,20,V,L,
695,65,23,16,5,33,47,1099,['n'],1,right,['1'],6,104,[-0.08344463],83,47,medium,minus,dotcolour,beta,,,48,20,V,L,
696,66,24,16,5,27,53,734,['n'],1,right,['1'],6,72,[-0.12471545],99,53,easy,minus,dotcolour,beta,,,48,20,V,L,
697,67,25,16,5,27,53,650,['n'],1,right,['1'],6,141,[-0.09320132],86,53,easy,minus,dotcolour,beta,,,48,20,V,L,
698,68,26,16,5,36,44,534,['n'],1,right,['1'],6,115,[-0.07947318],78,44,hard,minus,dotcolour,beta,,,48,20,V,L,
699,69,27,16,5,53,27,800,['c'],1,left,['1'],6,72,[0.04588402],34,53,easy,minus,dotcolour,beta,,,48,20,V,L,
700,70,28,16,5,53,27,700,['c'],1,left,['1'],6,66,[0.12093153],99,53,easy,minus,dotcolour,beta,,,48,20,V,L,
701,71,29,16,5,53,27,549,['c'],1,left,['1'],6,115,[0.08161182],80,53,easy,minus,dotcolour,beta,,,48,20,V,L,
702,72,30,16,5,27,53,767,['n'],1,right,['1'],6,113,[-0.1079508],94,53,easy,minus,dotcolour,beta,,,48,20,V,L,
703,73,31,16,5,36,44,666,['n'],1,right,['1'],6,107,[-0.10127865],93,44,hard,minus,dotcolour,beta,,,48,20,V,L,
704,74,32,16,5,27,53,567,['n'],1,right,['1'],6,106,[-0.05832291],54,53,easy,minus,dotcolour,beta,,,48,20,V,L,
705,75,33,16,5,47,33,834,['c'],1,left,['1'],6,62,[0.09419371],94,47,medium,minus,dotcolour,beta,,,48,20,V,L,
706,76,34,16,5,36,44,950,['n'],1,right,['1'],6,134,[-0.05450667],49,44,hard,minus,dotcolour,beta,,,48,20,V,L,
707,77,35,16,5,53,27,1083,['c'],1,left,['1'],6,118,[0.11352645],95,53,easy,minus,dotcolour,beta,,,48,20,V,L,
708,78,36,16,5,47,33,717,['c'],1,left,['1'],6,87,[0.10838847],96,47,medium,minus,dotcolour,beta,,,48,20,V,L,
709,79,37,16,5,33,47,616,['n'],1,right,['1'],6,60,[-0.13263768],100,47,medium,minus,dotcolour,beta,,,48,20,V,L,
710,80,38,16,5,33,47,833,['n'],1,right,['1'],6,58,[-0.08536334],90,47,medium,minus,dotcolour,beta,,,48,20,V,L,
711,81,39,16,5,33,47,834,['n'],1,right,['1'],6,103,[-0.07049336],70,47,medium,minus,dotcolour,beta,,,48,20,V,L,
712,82,40,16,5,36,44,749,['c'],0,right,['1'],6,6,[0.08587216],100,44,hard,minus,dotcolour,beta,,,48,20,V,L,
713,83,41,16,5,27,53,617,['n'],1,right,['1'],6,94,[-0.0586862],55,53,easy,minus,dotcolour,beta,,,48,20,V,L,
714,84,0,17,5,27,53,767,['n'],1,right,['1'],6,53,[-0.0775526],85,53,easy,minus,dotcolour,beta,,,48,20,V,L,
715,85,1,17,5,44,36,1016,['c'],1,left,['1'],6,133,[0.09322299],87,44,hard,minus,dotcolour,beta,,,48,20,V,L,
716,86,2,17,5,53,27,650,['c'],1,left,['1'],6,38,[0.06662086],74,53,easy,minus,dotcolour,beta,,,48,20,V,L,
717,87,3,17,5,53,27,500,['c'],1,left,['1'],6,34,[0.07610541],88,53,easy,minus,dotcolour,beta,,,48,20,V,L,
718,88,4,17,5,53,27,517,['c'],1,left,['1'],6,29,[0.08880995],97,53,easy,minus,dotcolour,beta,,,48,20,V,L,
719,89,5,17,5,44,36,483,['c'],1,left,['1'],6,66,[0.04889822],39,44,hard,minus,dotcolour,beta,,,48,20,V,L,
720,90,6,17,5,27,53,650,['n'],1,right,['1'],6,79,[-0.05151085],44,53,easy,minus,dotcolour,beta,,,48,20,V,L,
721,91,7,17,5,33,47,1033,['n'],1,right,['1'],6,11,[-0.08115324],99,47,medium,minus,dotcolour,beta,,,48,20,V,L,
722,92,8,17,5,33,47,567,['n'],1,right,['1'],6,125,[-0.09142905],86,47,medium,minus,dotcolour,beta,,,48,20,V,L,
723,93,9,17,5,53,27,750,['c'],1,left,['1'],6,28,[0.09268997],98,53,easy,minus,dotcolour,beta,,,48,20,V,L,
724,94,10,17,5,33,47,634,['n'],1,right,['1'],6,98,[-0.12283295],98,47,medium,minus,dotcolour,beta,,,48,20,V,L,
725,95,11,17,5,33,47,817,['n'],1,right,['1'],6,63,[-0.09179664],93,47,medium,minus,dotcolour,beta,,,48,20,V,L,
726,96,12,17,5,27,53,800,['n'],1,right,['1'],6,70,[-0.08584413],89,53,easy,minus,dotcolour,beta,,,48,20,V,L,
727,97,13,17,5,47,33,933,['c'],1,left,['1'],6,72,[0.07017037],73,47,medium,minus,dotcolour,beta,,,48,20,V,L,
728,98,14,17,5,27,53,550,['n'],1,right,['1'],6,72,[-0.07580091],80,53,easy,minus,dotcolour,beta,,,48,20,V,L,
729,99,15,17,5,47,33,1217,['c'],1,left,['1'],6,662,[0.30599934],100,47,medium,minus,dotcolour,beta,,,48,20,V,L,
730,100,16,17,5,47,33,867,['c'],1,left,['1'],6,98,[0.10159758],93,47,medium,minus,dotcolour,beta,,,48,20,V,L,
731,101,17,17,5,36,44,517,['n'],1,right,['1'],6,122,[-0.08790339],84,44,hard,minus,dotcolour,beta,,,48,20,V,L,
732,102,18,17,5,33,47,550,['n'],1,right,['1'],6,88,[-0.06594588],65,47,medium,minus,dotcolour,beta,,,48,20,V,L,
733,103,19,17,5,44,36,750,['c'],1,left,['1'],6,80,[0.10802439],97,44,hard,minus,dotcolour,beta,,,48,20,V,L,
734,104,20,17,5,53,27,700,['c'],1,left,['1'],6,122,[0.09690568],89,53,easy,minus,dotcolour,beta,,,48,20,V,L,
735,105,21,17,5,36,44,700,['n'],1,right,['1'],6,163,[-0.02115455],18,44,hard,minus,dotcolour,beta,,,48,20,V,L,
736,106,22,17,5,47,33,1084,['c'],1,left,['1'],6,138,[0.08969333],84,47,medium,minus,dotcolour,beta,,,48,20,V,L,
737,107,23,17,5,53,27,684,['c'],1,left,['1'],6,107,[0.07230507],72,53,easy,minus,dotcolour,beta,,,48,20,V,L,
738,108,24,17,5,47,33,533,['c'],1,left,['1'],6,106,[0.08997165],87,47,medium,minus,dotcolour,beta,,,48,20,V,L,
739,109,25,17,5,44,36,567,['c'],1,left,['1'],6,89,[0.06489991],64,44,hard,minus,dotcolour,beta,,,48,20,V,L,
740,110,26,17,5,27,53,584,['n'],1,right,['1'],6,103,[-0.10621068],94,53,easy,minus,dotcolour,beta,,,48,20,V,L,
741,111,27,17,5,53,27,550,['c'],1,left,['1'],6,47,[0.0853416],92,53,easy,minus,dotcolour,beta,,,48,20,V,L,
742,112,28,17,5,44,36,650,['c'],1,left,['1'],6,108,[0.02374169],15,44,hard,minus,dotcolour,beta,,,48,20,V,L,
743,113,29,17,5,27,53,667,['n'],1,right,['1'],6,126,[-0.02882262],20,53,easy,minus,dotcolour,beta,,,48,20,V,L,
744,114,30,17,5,47,33,718,['c'],1,left,['1'],6,69,[0.05018375],41,47,medium,minus,dotcolour,beta,,,48,20,V,L,
745,115,31,17,5,33,47,617,['n'],1,right,['1'],6,123,[-0.07754273],76,47,medium,minus,dotcolour,beta,,,48,20,V,L,
746,116,32,17,5,36,44,800,['n'],1,right,['1'],6,119,[-0.05859004],54,44,hard,minus,dotcolour,beta,,,48,20,V,L,
747,117,33,17,5,36,44,750,['n'],1,right,['1'],6,142,[-0.08499722],80,44,hard,minus,dotcolour,beta,,,48,20,V,L,
748,118,34,17,5,47,33,634,['c'],1,left,['1'],6,88,[0.03968189],28,47,medium,minus,dotcolour,beta,,,48,20,V,L,
749,119,35,17,5,44,36,1701,['n'],0,left,['1'],6,114,[-0.15078267],99,44,hard,minus,dotcolour,beta,,,48,20,V,L,
750,120,36,17,5,36,44,600,['n'],1,right,['1'],6,87,[-0.07116604],72,44,hard,minus,dotcolour,beta,,,48,20,V,L,
751,121,37,17,5,27,53,634,['n'],1,right,['1'],6,76,[-0.07483609],78,53,easy,minus,dotcolour,beta,,,48,20,V,L,
752,122,38,17,5,36,44,400,['n'],1,right,['1'],6,121,[-0.06326065],60,44,hard,minus,dotcolour,beta,,,48,20,V,L,
753,123,39,17,5,44,36,1250,['c'],1,left,['1'],6,52,[0.09270518],95,44,hard,minus,dotcolour,beta,,,48,20,V,L,
754,124,40,17,5,36,44,1283,['c'],0,right,['1'],6,113,[0.06008458],56,44,hard,minus,dotcolour,beta,,,48,20,V,L,
755,125,41,17,5,33,47,633,['n'],1,right,['1'],6,99,[-0.07547088],76,47,medium,minus,dotcolour,beta,,,48,20,V,L,
,,,,,,,,,,,,,,,,,,,,,1,nee eigenlijk niet,48,20,V,L,
,,,,,,,,,,,,,,,,,,,,,2,['d'],48,20,V,L,
,,,,,,,,,,,,,,,,,,,,,3,['d'],48,20,V,L,
,,,,,,,,,,,,,,,,,,,,,5,['3'],48,20,V,L,
