trial,withinphasetrial,withinblocktrial,block,phase,dotsLeft,dotsRight,rt,resp,cor,cresp,conf_press,cj,RTconf,ev,fb,diff,difflevel,condition,task,manip,questionID,questionResp,sub,age,gender,handedness,
0,0,0,0,0,47,33,568,['c'],1,left,['9'],5,1955,[-0.05074772],21,47,medium,plus,dotcolour,alfa,,,78,18,V,R,
1,1,1,0,0,33,47,782,['n'],1,right,['3'],3,1962,[-0.11641656],95,47,medium,plus,dotcolour,alfa,,,78,18,V,R,
2,2,2,0,0,47,33,1117,['c'],1,left,['8'],4,2003,[0.31172519],100,47,medium,plus,dotcolour,alfa,,,78,18,V,R,
3,3,3,0,0,33,47,1433,['c'],0,right,['8'],4,2437,[-0.09278001],11,47,medium,plus,dotcolour,alfa,,,78,18,V,R,
4,4,4,0,0,47,33,1200,['n'],0,left,['3'],3,5158,[0.65421707],0,47,medium,plus,dotcolour,alfa,,,78,18,V,R,
5,5,5,0,0,53,27,766,['n'],0,left,['2'],2,2626,[0.14073561],4,53,easy,plus,dotcolour,alfa,,,78,18,V,R,
6,6,6,0,0,27,53,932,['n'],1,right,['8'],4,2070,[-0.36016826],100,53,easy,plus,dotcolour,alfa,,,78,18,V,R,
7,7,7,0,0,27,53,715,['n'],1,right,['3'],3,1684,[-0.23256604],100,53,easy,plus,dotcolour,alfa,,,78,18,V,R,
8,8,8,0,0,44,36,749,['c'],1,left,['8'],4,1479,[-0.00674673],45,44,hard,plus,dotcolour,alfa,,,78,18,V,R,
9,9,9,0,0,33,47,783,['c'],0,right,['8'],4,2498,[-0.1360365],4,47,medium,plus,dotcolour,alfa,,,78,18,V,R,
10,10,10,0,0,27,53,1201,['n'],1,right,['8'],4,1817,[-0.39867367],100,53,easy,plus,dotcolour,alfa,,,78,18,V,R,
11,11,11,0,0,36,44,1517,['c'],0,right,['3'],3,768,[-0.02981371],23,44,hard,plus,dotcolour,alfa,,,78,18,V,R,
12,12,12,0,0,27,53,700,['n'],1,right,['8'],4,851,[-0.25350329],100,53,easy,plus,dotcolour,alfa,,,78,18,V,R,
13,13,13,0,0,36,44,698,['n'],1,right,['8'],4,594,[-0.1135207],100,44,hard,plus,dotcolour,alfa,,,78,18,V,R,
14,14,14,0,0,33,47,916,['c'],0,right,['3'],3,875,[-0.16594378],0,47,medium,plus,dotcolour,alfa,,,78,18,V,R,
15,15,15,0,0,36,44,1868,['c'],0,right,['3'],3,1619,[-0.19090441],0,44,hard,plus,dotcolour,alfa,,,78,18,V,R,
16,16,16,0,0,44,36,1317,['c'],1,left,['8'],4,785,[0.04720524],87,44,hard,plus,dotcolour,alfa,,,78,18,V,R,
17,17,17,0,0,44,36,784,['c'],1,left,['8'],4,624,[0.16688453],100,44,hard,plus,dotcolour,alfa,,,78,18,V,R,
18,18,18,0,0,53,27,750,['c'],1,left,['9'],5,799,[0.27559069],100,53,easy,plus,dotcolour,alfa,,,78,18,V,R,
19,19,19,0,0,36,44,950,['n'],1,right,['3'],3,735,[-0.03806656],83,44,hard,plus,dotcolour,alfa,,,78,18,V,R,
20,20,20,0,0,44,36,833,['c'],1,left,['8'],4,918,[0.1824658],100,44,hard,plus,dotcolour,alfa,,,78,18,V,R,
21,21,21,0,0,33,47,765,['n'],1,right,['8'],4,728,[-0.20430667],100,47,medium,plus,dotcolour,alfa,,,78,18,V,R,
22,22,22,0,0,47,33,698,['c'],1,left,['8'],4,830,[0.22303859],100,47,medium,plus,dotcolour,alfa,,,78,18,V,R,
23,23,23,0,0,53,27,667,['c'],1,left,['8'],4,463,[0.17103288],100,53,easy,plus,dotcolour,alfa,,,78,18,V,R,
24,24,24,0,0,33,47,1465,['n'],1,right,['8'],4,1440,[-0.35182038],100,47,medium,plus,dotcolour,alfa,,,78,18,V,R,
25,25,25,0,0,36,44,1334,['c'],0,right,['8'],4,1086,[-0.00744141],44,44,hard,plus,dotcolour,alfa,,,78,18,V,R,
26,26,26,0,0,47,33,1499,['c'],1,left,['9'],5,691,[0.01489123],66,47,medium,plus,dotcolour,alfa,,,78,18,V,R,
27,27,27,0,0,27,53,1016,['n'],1,right,['9'],5,516,[-0.13484246],100,53,easy,plus,dotcolour,alfa,,,78,18,V,R,
28,28,28,0,0,53,27,917,['c'],1,left,['9'],5,344,[0.23888971],100,53,easy,plus,dotcolour,alfa,,,78,18,V,R,
29,29,29,0,0,36,44,1318,['c'],0,right,['8'],4,676,[-0.05347124],9,44,hard,plus,dotcolour,alfa,,,78,18,V,R,
30,30,30,0,0,47,33,1168,['c'],1,left,['8'],4,576,[0.09565804],99,47,medium,plus,dotcolour,alfa,,,78,18,V,R,
31,31,31,0,0,33,47,1218,['n'],1,right,['8'],4,894,[-0.05165785],88,47,medium,plus,dotcolour,alfa,,,78,18,V,R,
32,32,32,0,0,53,27,867,['c'],1,left,['9'],5,278,[0.14982977],100,53,easy,plus,dotcolour,alfa,,,78,18,V,R,
33,33,33,0,0,53,27,900,['c'],1,left,['8'],4,324,[0.15498344],100,53,easy,plus,dotcolour,alfa,,,78,18,V,R,
34,34,34,0,0,47,33,865,['c'],1,left,['9'],5,379,[0.08591127],99,47,medium,plus,dotcolour,alfa,,,78,18,V,R,
35,35,35,0,0,44,36,1384,['c'],1,left,['8'],4,795,[0.10546109],99,44,hard,plus,dotcolour,alfa,,,78,18,V,R,
36,36,36,0,0,44,36,866,['c'],1,left,['9'],5,270,[0.07792039],100,44,hard,plus,dotcolour,alfa,,,78,18,V,R,
37,37,37,0,0,53,27,867,['c'],1,left,['9'],5,327,[0.15541632],100,53,easy,plus,dotcolour,alfa,,,78,18,V,R,
38,38,38,0,0,36,44,1016,['c'],0,right,['9'],5,215,[0.08469848],100,44,hard,plus,dotcolour,alfa,,,78,18,V,R,
39,39,39,0,0,27,53,783,['n'],1,right,['9'],5,614,[-0.30285154],100,53,easy,plus,dotcolour,alfa,,,78,18,V,R,
40,40,40,0,0,44,36,733,['c'],1,left,['9'],5,270,[0.09570532],100,44,hard,plus,dotcolour,alfa,,,78,18,V,R,
41,41,41,0,0,27,53,1284,['c'],0,right,['9'],5,247,[0.05243273],98,53,easy,plus,dotcolour,alfa,,,78,18,V,R,
42,42,0,1,0,47,33,951,['n'],0,left,['9'],5,997,[0.07620986],6,47,medium,plus,dotcolour,alfa,,,78,18,V,R,
43,43,1,1,0,53,27,766,['c'],1,left,['9'],5,1492,[0.0872921],93,53,easy,plus,dotcolour,alfa,,,78,18,V,R,
44,44,2,1,0,44,36,1968,['c'],1,left,['8'],4,621,[0.08338245],98,44,hard,plus,dotcolour,alfa,,,78,18,V,R,
45,45,3,1,0,33,47,1083,['n'],1,right,['8'],4,551,[-0.21267459],100,47,medium,plus,dotcolour,alfa,,,78,18,V,R,
46,46,4,1,0,36,44,918,['n'],1,right,['9'],5,570,[0.03743068],14,44,hard,plus,dotcolour,alfa,,,78,18,V,R,
47,47,5,1,0,36,44,1333,['n'],1,right,['8'],4,859,[-0.19786339],100,44,hard,plus,dotcolour,alfa,,,78,18,V,R,
48,48,6,1,0,33,47,1050,['n'],1,right,['8'],4,796,[-0.24821431],100,47,medium,plus,dotcolour,alfa,,,78,18,V,R,
49,49,7,1,0,47,33,918,['c'],1,left,['9'],5,1054,[0.19104486],100,47,medium,plus,dotcolour,alfa,,,78,18,V,R,
50,50,8,1,0,27,53,1051,['n'],1,right,['8'],4,567,[-0.06414833],96,53,easy,plus,dotcolour,alfa,,,78,18,V,R,
51,51,9,1,0,33,47,883,['n'],1,right,['9'],5,635,[-0.10931818],99,47,medium,plus,dotcolour,alfa,,,78,18,V,R,
52,52,10,1,0,36,44,1067,['n'],1,right,['8'],4,341,[-0.02138857],79,44,hard,plus,dotcolour,alfa,,,78,18,V,R,
53,53,11,1,0,53,27,783,['c'],1,left,['9'],5,582,[0.16625494],100,53,easy,plus,dotcolour,alfa,,,78,18,V,R,
54,54,12,1,0,44,36,1650,['c'],1,left,['8'],4,786,[0.11081796],99,44,hard,plus,dotcolour,alfa,,,78,18,V,R,
55,55,13,1,0,47,33,902,['c'],1,left,['9'],5,292,[0.1058658],100,47,medium,plus,dotcolour,alfa,,,78,18,V,R,
56,56,14,1,0,33,47,868,['n'],1,right,['8'],4,749,[-0.18790221],100,47,medium,plus,dotcolour,alfa,,,78,18,V,R,
57,57,15,1,0,36,44,800,['n'],1,right,['9'],5,717,[-0.07083351],95,44,hard,plus,dotcolour,alfa,,,78,18,V,R,
58,58,16,1,0,27,53,883,['n'],1,right,['8'],4,531,[-0.10472495],99,53,easy,plus,dotcolour,alfa,,,78,18,V,R,
59,59,17,1,0,44,36,968,['c'],1,left,['8'],4,773,[0.19079925],100,44,hard,plus,dotcolour,alfa,,,78,18,V,R,
60,60,18,1,0,53,27,533,['c'],1,left,['8'],4,471,[0.11151696],100,53,easy,plus,dotcolour,alfa,,,78,18,V,R,
61,61,19,1,0,36,44,1102,['n'],1,right,['8'],4,646,[-0.28956405],100,44,hard,plus,dotcolour,alfa,,,78,18,V,R,
62,62,20,1,0,36,44,1567,['n'],1,right,['8'],4,411,[-0.07948297],99,44,hard,plus,dotcolour,alfa,,,78,18,V,R,
63,63,21,1,0,44,36,1117,['n'],0,left,['8'],4,332,[0.06547526],2,44,hard,plus,dotcolour,alfa,,,78,18,V,R,
64,64,22,1,0,27,53,884,['n'],1,right,['8'],4,849,[-0.18323501],100,53,easy,plus,dotcolour,alfa,,,78,18,V,R,
65,65,23,1,0,44,36,1333,['n'],0,left,['9'],5,399,[-0.18325389],100,44,hard,plus,dotcolour,alfa,,,78,18,V,R,
66,66,24,1,0,27,53,1001,['n'],1,right,['3'],3,3550,[-0.5448935],100,53,easy,plus,dotcolour,alfa,,,78,18,V,R,
67,67,25,1,0,53,27,1500,['c'],1,left,['8'],4,1829,[-0.03362553],29,53,easy,plus,dotcolour,alfa,,,78,18,V,R,
68,68,26,1,0,53,27,1251,['c'],1,left,['9'],5,1199,[0.22046249],100,53,easy,plus,dotcolour,alfa,,,78,18,V,R,
69,69,27,1,0,53,27,884,['c'],1,left,['9'],5,777,[0.13149093],100,53,easy,plus,dotcolour,alfa,,,78,18,V,R,
70,70,28,1,0,33,47,815,['n'],1,right,['9'],5,271,[-0.08369444],100,47,medium,plus,dotcolour,alfa,,,78,18,V,R,
71,71,29,1,0,53,27,650,['c'],1,left,['9'],5,321,[0.03378821],90,53,easy,plus,dotcolour,alfa,,,78,18,V,R,
72,72,30,1,0,27,53,634,['n'],1,right,['9'],5,337,[-0.17979161],100,53,easy,plus,dotcolour,alfa,,,78,18,V,R,
73,73,31,1,0,44,36,732,['c'],1,left,['9'],5,364,[0.0820048],99,44,hard,plus,dotcolour,alfa,,,78,18,V,R,
74,74,32,1,0,33,47,600,['n'],1,right,['8'],4,557,[-0.19733521],100,47,medium,plus,dotcolour,alfa,,,78,18,V,R,
75,75,33,1,0,27,53,850,['n'],1,right,['9'],5,298,[-0.06061913],98,53,easy,plus,dotcolour,alfa,,,78,18,V,R,
76,76,34,1,0,47,33,732,['c'],1,left,['9'],5,415,[-0.03161549],15,47,medium,plus,dotcolour,alfa,,,78,18,V,R,
77,77,35,1,0,47,33,766,['c'],1,left,['9'],5,271,[0.14322014],100,47,medium,plus,dotcolour,alfa,,,78,18,V,R,
78,78,36,1,0,33,47,715,['n'],1,right,['9'],5,349,[-0.12848173],100,47,medium,plus,dotcolour,alfa,,,78,18,V,R,
79,79,37,1,0,36,44,2084,['c'],0,right,['8'],4,602,[0.0629003],95,44,hard,plus,dotcolour,alfa,,,78,18,V,R,
80,80,38,1,0,47,33,1584,['n'],0,left,['3'],3,904,[0.00210151],48,47,medium,plus,dotcolour,alfa,,,78,18,V,R,
81,81,39,1,0,47,33,984,['c'],1,left,['8'],4,546,[0.02415832],76,47,medium,plus,dotcolour,alfa,,,78,18,V,R,
82,82,40,1,0,27,53,850,['n'],1,right,['9'],5,720,[-0.18061031],100,53,easy,plus,dotcolour,alfa,,,78,18,V,R,
83,83,41,1,0,44,36,1667,['c'],1,left,['9'],5,566,[0.12665123],100,44,hard,plus,dotcolour,alfa,,,78,18,V,R,
84,84,0,2,0,33,47,784,['n'],1,right,['9'],5,908,[-0.29676982],100,47,medium,plus,dotcolour,alfa,,,78,18,V,R,
85,85,1,2,0,44,36,981,['c'],1,left,['9'],5,670,[0.23639163],100,44,hard,plus,dotcolour,alfa,,,78,18,V,R,
86,86,2,2,0,44,36,833,['c'],1,left,['9'],5,273,[0.075609],99,44,hard,plus,dotcolour,alfa,,,78,18,V,R,
87,87,3,2,0,27,53,850,['n'],1,right,['9'],5,546,[-0.14236098],100,53,easy,plus,dotcolour,alfa,,,78,18,V,R,
88,88,4,2,0,33,47,984,['n'],1,right,['9'],5,699,[-0.10612004],99,47,medium,plus,dotcolour,alfa,,,78,18,V,R,
89,89,5,2,0,47,33,1319,['c'],1,left,['8'],4,264,[0.11867714],100,47,medium,plus,dotcolour,alfa,,,78,18,V,R,
90,90,6,2,0,36,44,1283,['n'],1,right,['9'],5,1080,[0.08831638],4,44,hard,plus,dotcolour,alfa,,,78,18,V,R,
91,91,7,2,0,53,27,1051,['c'],1,left,['9'],5,1040,[0.06846501],92,53,easy,plus,dotcolour,alfa,,,78,18,V,R,
92,92,8,2,0,33,47,950,['n'],1,right,['8'],4,574,[-0.15387939],100,47,medium,plus,dotcolour,alfa,,,78,18,V,R,
93,93,9,2,0,47,33,750,['c'],1,left,['8'],4,719,[0.10753838],99,47,medium,plus,dotcolour,alfa,,,78,18,V,R,
94,94,10,2,0,44,36,966,['c'],1,left,['8'],4,874,[0.09742877],98,44,hard,plus,dotcolour,alfa,,,78,18,V,R,
95,95,11,2,0,33,47,1200,['n'],1,right,['8'],4,476,[-0.10857488],100,47,medium,plus,dotcolour,alfa,,,78,18,V,R,
96,96,12,2,0,53,27,666,['c'],1,left,['9'],5,349,[0.15052732],100,53,easy,plus,dotcolour,alfa,,,78,18,V,R,
97,97,13,2,0,36,44,1200,['n'],1,right,['3'],3,644,[-0.18107042],100,44,hard,plus,dotcolour,alfa,,,78,18,V,R,
98,98,14,2,0,36,44,1852,['n'],1,right,['8'],4,485,[-0.018019],72,44,hard,plus,dotcolour,alfa,,,78,18,V,R,
99,99,15,2,0,47,33,899,['c'],1,left,['8'],4,332,[0.07100827],99,47,medium,plus,dotcolour,alfa,,,78,18,V,R,
100,100,16,2,0,27,53,850,['n'],1,right,['9'],5,436,[-0.16891916],100,53,easy,plus,dotcolour,alfa,,,78,18,V,R,
101,101,17,2,0,33,47,701,['n'],1,right,['8'],4,284,[-0.15409975],100,47,medium,plus,dotcolour,alfa,,,78,18,V,R,
102,102,18,2,0,36,44,1484,['c'],0,right,['8'],4,412,[0.04589162],93,44,hard,plus,dotcolour,alfa,,,78,18,V,R,
103,103,19,2,0,44,36,700,['n'],0,left,['8'],4,518,[-0.02020976],73,44,hard,plus,dotcolour,alfa,,,78,18,V,R,
104,104,20,2,0,47,33,1149,['c'],1,left,['8'],4,673,[0.11741267],99,47,medium,plus,dotcolour,alfa,,,78,18,V,R,
105,105,21,2,0,47,33,798,['c'],1,left,['8'],4,365,[0.17023297],100,47,medium,plus,dotcolour,alfa,,,78,18,V,R,
106,106,22,2,0,36,44,933,['n'],1,right,['8'],4,271,[-0.14126856],100,44,hard,plus,dotcolour,alfa,,,78,18,V,R,
107,107,23,2,0,27,53,701,['c'],0,right,['8'],4,982,[-0.17976737],0,53,easy,plus,dotcolour,alfa,,,78,18,V,R,
108,108,24,2,0,36,44,1468,['n'],1,right,['9'],5,1985,[-0.04169184],74,44,hard,plus,dotcolour,alfa,,,78,18,V,R,
109,109,25,2,0,47,33,1185,['c'],1,left,['9'],5,1126,[0.34655998],100,47,medium,plus,dotcolour,alfa,,,78,18,V,R,
110,110,26,2,0,33,47,2068,['c'],0,right,['3'],3,1155,[-0.15635892],1,47,medium,plus,dotcolour,alfa,,,78,18,V,R,
111,111,27,2,0,44,36,1366,['c'],1,left,['9'],5,1179,[0.19086626],100,44,hard,plus,dotcolour,alfa,,,78,18,V,R,
112,112,28,2,0,44,36,1350,['c'],1,left,['8'],4,1538,[0.36067759],100,44,hard,plus,dotcolour,alfa,,,78,18,V,R,
113,113,29,2,0,53,27,731,['c'],1,left,['9'],5,261,[0.14261557],100,53,easy,plus,dotcolour,alfa,,,78,18,V,R,
114,114,30,2,0,27,53,599,['n'],1,right,['9'],5,321,[-0.05396969],97,53,easy,plus,dotcolour,alfa,,,78,18,V,R,
115,115,31,2,0,36,44,1517,['n'],1,right,['8'],4,934,[-0.01160861],61,44,hard,plus,dotcolour,alfa,,,78,18,V,R,
116,116,32,2,0,53,27,983,['c'],1,left,['9'],5,671,[0.25317331],100,53,easy,plus,dotcolour,alfa,,,78,18,V,R,
117,117,33,2,0,44,36,850,['c'],1,left,['9'],5,249,[0.16203495],100,44,hard,plus,dotcolour,alfa,,,78,18,V,R,
118,118,34,2,0,53,27,767,['c'],1,left,['9'],5,174,[0.11775657],100,53,easy,plus,dotcolour,alfa,,,78,18,V,R,
119,119,35,2,0,47,33,666,['c'],1,left,['9'],5,259,[0.05230688],98,47,medium,plus,dotcolour,alfa,,,78,18,V,R,
120,120,36,2,0,53,27,599,['c'],1,left,['0'],6,431,[0.30137797],100,53,easy,plus,dotcolour,alfa,,,78,18,V,R,
121,121,37,2,0,27,53,766,['n'],1,right,['0'],6,447,[-0.13313534],100,53,easy,plus,dotcolour,alfa,,,78,18,V,R,
122,122,38,2,0,27,53,1000,['n'],1,right,['0'],6,314,[-0.13934581],100,53,easy,plus,dotcolour,alfa,,,78,18,V,R,
123,123,39,2,0,27,53,865,['n'],1,right,['0'],6,538,[-0.14201261],100,53,easy,plus,dotcolour,alfa,,,78,18,V,R,
124,124,40,2,0,53,27,801,['c'],1,left,['0'],6,227,[0.07370069],100,53,easy,plus,dotcolour,alfa,,,78,18,V,R,
125,125,41,2,0,33,47,949,['c'],0,right,['8'],4,578,[0.01011994],62,47,medium,plus,dotcolour,alfa,,,78,18,V,R,
126,0,0,3,1,47,33,1768,['n'],0,left,['8'],4,904,[0.0485908],39,47,medium,minus,dotcolour,alfa,,,78,18,V,R,
127,1,1,3,1,27,53,800,['n'],1,right,['8'],4,689,[-0.08649757],72,53,easy,minus,dotcolour,alfa,,,78,18,V,R,
128,2,2,3,1,44,36,868,['c'],1,left,['8'],4,265,[-0.00177297],49,44,hard,minus,dotcolour,alfa,,,78,18,V,R,
129,3,3,3,1,47,33,865,['c'],1,left,['8'],4,402,[0.21879693],96,47,medium,minus,dotcolour,alfa,,,78,18,V,R,
130,4,4,3,1,47,33,1201,['n'],0,left,['8'],4,247,[-0.10461572],87,47,medium,minus,dotcolour,alfa,,,78,18,V,R,
131,5,5,3,1,36,44,732,['n'],1,right,['8'],4,343,[0.01051543],46,44,hard,minus,dotcolour,alfa,,,78,18,V,R,
132,6,6,3,1,27,53,832,['n'],1,right,['8'],4,278,[-0.1884322],96,53,easy,minus,dotcolour,alfa,,,78,18,V,R,
133,7,7,3,1,36,44,933,['n'],1,right,['8'],4,228,[-0.07948255],82,44,hard,minus,dotcolour,alfa,,,78,18,V,R,
134,8,8,3,1,47,33,748,['c'],1,left,['9'],5,556,[0.1327027],83,47,medium,minus,dotcolour,alfa,,,78,18,V,R,
135,9,9,3,1,44,36,1566,['c'],1,left,['8'],4,740,[0.03637426],59,44,hard,minus,dotcolour,alfa,,,78,18,V,R,
136,10,10,3,1,27,53,817,['n'],1,right,['8'],4,539,[-0.07353953],71,53,easy,minus,dotcolour,alfa,,,78,18,V,R,
137,11,11,3,1,53,27,851,['c'],1,left,['9'],5,434,[0.14382836],88,53,easy,minus,dotcolour,alfa,,,78,18,V,R,
138,12,12,3,1,27,53,1251,['c'],0,right,['8'],4,604,[0.0836476],72,53,easy,minus,dotcolour,alfa,,,78,18,V,R,
139,13,13,3,1,53,27,716,['c'],1,left,['9'],5,413,[-0.03249961],39,53,easy,minus,dotcolour,alfa,,,78,18,V,R,
140,14,14,3,1,36,44,1269,['c'],0,right,['8'],4,304,[0.02072003],58,44,hard,minus,dotcolour,alfa,,,78,18,V,R,
141,15,15,3,1,27,53,765,['n'],1,right,['8'],4,332,[-0.13257636],89,53,easy,minus,dotcolour,alfa,,,78,18,V,R,
142,16,16,3,1,36,44,1400,['n'],1,right,['8'],4,365,[-0.18091138],94,44,hard,minus,dotcolour,alfa,,,78,18,V,R,
143,17,17,3,1,47,33,1132,['c'],1,left,['8'],4,335,[0.02500373],60,47,medium,minus,dotcolour,alfa,,,78,18,V,R,
144,18,18,3,1,33,47,1018,['n'],1,right,['8'],4,328,[-0.1333222],89,47,medium,minus,dotcolour,alfa,,,78,18,V,R,
145,19,19,3,1,33,47,1366,['c'],0,right,['8'],4,322,[-0.04464984],33,47,medium,minus,dotcolour,alfa,,,78,18,V,R,
146,20,20,3,1,33,47,1265,['c'],0,right,['8'],4,288,[0.01478625],56,47,medium,minus,dotcolour,alfa,,,78,18,V,R,
147,21,21,3,1,33,47,1434,['n'],1,right,['8'],4,345,[-0.22606653],97,47,medium,minus,dotcolour,alfa,,,78,18,V,R,
148,22,22,3,1,27,53,750,['n'],1,right,['8'],4,244,[-0.0937444],85,53,easy,minus,dotcolour,alfa,,,78,18,V,R,
149,23,23,3,1,47,33,717,['c'],1,left,['8'],4,300,[0.03193457],63,47,medium,minus,dotcolour,alfa,,,78,18,V,R,
150,24,24,3,1,36,44,1853,['c'],0,right,['8'],4,252,[0.12044206],90,44,hard,minus,dotcolour,alfa,,,78,18,V,R,
151,25,25,3,1,44,36,1334,['n'],0,left,['9'],5,402,[-0.11067341],83,44,hard,minus,dotcolour,alfa,,,78,18,V,R,
152,26,26,3,1,36,44,2202,['n'],1,right,['8'],4,1095,[-0.13287445],76,44,hard,minus,dotcolour,alfa,,,78,18,V,R,
153,27,27,3,1,44,36,1216,['n'],0,left,['9'],5,352,[-0.094719],81,44,hard,minus,dotcolour,alfa,,,78,18,V,R,
154,28,28,3,1,27,53,1466,['n'],1,right,['9'],5,261,[-0.06609567],76,53,easy,minus,dotcolour,alfa,,,78,18,V,R,
155,29,29,3,1,53,27,700,['c'],1,left,['9'],5,301,[0.14505093],92,53,easy,minus,dotcolour,alfa,,,78,18,V,R,
156,30,30,3,1,44,36,766,['c'],1,left,['9'],5,265,[0.0695165],77,44,hard,minus,dotcolour,alfa,,,78,18,V,R,
157,31,31,3,1,33,47,1332,['n'],1,right,['8'],4,407,[-0.11460348],83,47,medium,minus,dotcolour,alfa,,,78,18,V,R,
158,32,32,3,1,53,27,884,['c'],1,left,['9'],5,265,[0.1449657],93,53,easy,minus,dotcolour,alfa,,,78,18,V,R,
159,33,33,3,1,53,27,700,['c'],1,left,['9'],5,193,[0.1181842],92,53,easy,minus,dotcolour,alfa,,,78,18,V,R,
160,34,34,3,1,33,47,1584,['n'],1,right,['8'],4,304,[-0.06640126],75,47,medium,minus,dotcolour,alfa,,,78,18,V,R,
161,35,35,3,1,44,36,1283,['c'],1,left,['8'],4,358,[0.15126799],91,44,hard,minus,dotcolour,alfa,,,78,18,V,R,
162,36,36,3,1,33,47,1367,['n'],1,right,['8'],4,735,[-0.21716169],91,47,medium,minus,dotcolour,alfa,,,78,18,V,R,
163,37,37,3,1,53,27,768,['c'],1,left,['9'],5,304,[0.15721053],93,53,easy,minus,dotcolour,alfa,,,78,18,V,R,
164,38,38,3,1,47,33,1667,['n'],0,left,['8'],4,288,[0.02725044],39,47,medium,minus,dotcolour,alfa,,,78,18,V,R,
165,39,39,3,1,36,44,1265,['n'],1,right,['8'],4,311,[-0.06328169],74,44,hard,minus,dotcolour,alfa,,,78,18,V,R,
166,40,40,3,1,44,36,1416,['c'],1,left,['9'],5,568,[0.09902846],77,44,hard,minus,dotcolour,alfa,,,78,18,V,R,
167,41,41,3,1,53,27,749,['c'],1,left,['9'],5,177,[0.09265033],88,53,easy,minus,dotcolour,alfa,,,78,18,V,R,
168,42,0,4,1,47,33,1168,['c'],1,left,['9'],5,539,[0.1132935],80,47,medium,minus,dotcolour,alfa,,,78,18,V,R,
169,43,1,4,1,53,27,815,['c'],1,left,['9'],5,219,[0.11874632],91,53,easy,minus,dotcolour,alfa,,,78,18,V,R,
170,44,2,4,1,33,47,685,['n'],1,right,['9'],5,293,[-0.10990474],86,47,medium,minus,dotcolour,alfa,,,78,18,V,R,
171,45,3,4,1,47,33,667,['n'],0,left,['1'],1,1621,[0.0992336],33,47,medium,minus,dotcolour,alfa,,,78,18,V,R,
172,46,4,4,1,36,44,1084,['c'],0,right,['9'],5,309,[0.01782362],57,44,hard,minus,dotcolour,alfa,,,78,18,V,R,
173,47,5,4,1,53,27,698,['c'],1,left,['9'],5,780,[0.00560266],51,53,easy,minus,dotcolour,alfa,,,78,18,V,R,
174,48,6,4,1,44,36,1868,['c'],1,left,['9'],5,287,[0.06897409],76,44,hard,minus,dotcolour,alfa,,,78,18,V,R,
175,49,7,4,1,44,36,1033,['n'],0,left,['8'],4,433,[-0.06240411],70,44,hard,minus,dotcolour,alfa,,,78,18,V,R,
176,50,8,4,1,53,27,934,['c'],1,left,['8'],4,545,[0.18566971],91,53,easy,minus,dotcolour,alfa,,,78,18,V,R,
177,51,9,4,1,27,53,732,['n'],1,right,['9'],5,435,[-0.18670596],93,53,easy,minus,dotcolour,alfa,,,78,18,V,R,
178,52,10,4,1,47,33,1219,['c'],1,left,['9'],5,368,[0.04539664],66,47,medium,minus,dotcolour,alfa,,,78,18,V,R,
179,53,11,4,1,27,53,850,['n'],1,right,['9'],5,285,[-0.15578611],93,53,easy,minus,dotcolour,alfa,,,78,18,V,R,
180,54,12,4,1,44,36,718,['c'],1,left,['9'],5,236,[0.14691079],94,44,hard,minus,dotcolour,alfa,,,78,18,V,R,
181,55,13,4,1,36,44,783,['c'],0,right,['9'],5,193,[0.07378816],82,44,hard,minus,dotcolour,alfa,,,78,18,V,R,
182,56,14,4,1,53,27,717,['c'],1,left,['9'],5,251,[0.08366823],82,53,easy,minus,dotcolour,alfa,,,78,18,V,R,
183,57,15,4,1,27,53,650,['n'],1,right,['9'],5,294,[-0.09257042],82,53,easy,minus,dotcolour,alfa,,,78,18,V,R,
184,58,16,4,1,53,27,833,['c'],1,left,['9'],5,271,[0.15743519],94,53,easy,minus,dotcolour,alfa,,,78,18,V,R,
185,59,17,4,1,36,44,931,['n'],1,right,['9'],5,429,[-0.07506889],74,44,hard,minus,dotcolour,alfa,,,78,18,V,R,
186,60,18,4,1,27,53,781,['n'],1,right,['9'],5,275,[-0.0599734],74,53,easy,minus,dotcolour,alfa,,,78,18,V,R,
187,61,19,4,1,47,33,632,['c'],1,left,['0'],6,709,[0.10804413],76,47,medium,minus,dotcolour,alfa,,,78,18,V,R,
188,62,20,4,1,27,53,866,['n'],1,right,['0'],6,276,[-0.08888898],82,53,easy,minus,dotcolour,alfa,,,78,18,V,R,
189,63,21,4,1,33,47,1586,['n'],1,right,['9'],5,375,[-0.15325058],90,47,medium,minus,dotcolour,alfa,,,78,18,V,R,
190,64,22,4,1,36,44,1065,['c'],0,right,['8'],4,276,[0.096615],84,44,hard,minus,dotcolour,alfa,,,78,18,V,R,
191,65,23,4,1,33,47,1400,['c'],0,right,['8'],4,599,[-0.01363706],46,47,medium,minus,dotcolour,alfa,,,78,18,V,R,
192,66,24,4,1,27,53,784,['n'],1,right,['8'],4,461,[-0.06408675],70,53,easy,minus,dotcolour,alfa,,,78,18,V,R,
193,67,25,4,1,47,33,1250,['c'],1,left,['8'],4,334,[0.11891974],86,47,medium,minus,dotcolour,alfa,,,78,18,V,R,
194,68,26,4,1,53,27,882,['c'],1,left,['9'],5,405,[0.06315868],71,53,easy,minus,dotcolour,alfa,,,78,18,V,R,
195,69,27,4,1,36,44,1066,['n'],1,right,['9'],5,335,[-0.13679737],89,44,hard,minus,dotcolour,alfa,,,78,18,V,R,
196,70,28,4,1,33,47,1667,['n'],1,right,['8'],4,741,[-0.08164774],70,47,medium,minus,dotcolour,alfa,,,78,18,V,R,
197,71,29,4,1,47,33,732,['c'],1,left,['8'],4,440,[0.09963333],79,47,medium,minus,dotcolour,alfa,,,78,18,V,R,
198,72,30,4,1,33,47,716,['n'],1,right,['8'],4,384,[-0.15073488],90,47,medium,minus,dotcolour,alfa,,,78,18,V,R,
199,73,31,4,1,44,36,918,['c'],1,left,['9'],5,250,[0.23420686],99,44,hard,minus,dotcolour,alfa,,,78,18,V,R,
200,74,32,4,1,44,36,1016,['n'],0,left,['8'],4,277,[-0.02018254],59,44,hard,minus,dotcolour,alfa,,,78,18,V,R,
201,75,33,4,1,47,33,799,['c'],1,left,['9'],5,249,[0.00429776],52,47,medium,minus,dotcolour,alfa,,,78,18,V,R,
202,76,34,4,1,27,53,766,['n'],1,right,['9'],5,263,[-0.04080587],67,53,easy,minus,dotcolour,alfa,,,78,18,V,R,
203,77,35,4,1,33,47,1134,['n'],1,right,['9'],5,189,[-0.06492875],79,47,medium,minus,dotcolour,alfa,,,78,18,V,R,
204,78,36,4,1,44,36,733,['c'],1,left,['8'],4,295,[0.05451308],71,44,hard,minus,dotcolour,alfa,,,78,18,V,R,
205,79,37,4,1,44,36,815,['c'],1,left,['8'],4,241,[0.05595097],74,44,hard,minus,dotcolour,alfa,,,78,18,V,R,
206,80,38,4,1,36,44,1000,['n'],1,right,['0'],6,245,[-0.15605264],94,44,hard,minus,dotcolour,alfa,,,78,18,V,R,
207,81,39,4,1,36,44,1850,['c'],0,right,['8'],4,623,[-0.0049917],49,44,hard,minus,dotcolour,alfa,,,78,18,V,R,
208,82,40,4,1,33,47,949,['c'],0,right,['2'],2,1046,[0.02248501],55,47,medium,minus,dotcolour,alfa,,,78,18,V,R,
209,83,41,4,1,53,27,850,['c'],1,left,['8'],4,768,[0.22901616],91,53,easy,minus,dotcolour,alfa,,,78,18,V,R,
210,84,0,5,1,27,53,851,['n'],1,right,['9'],5,816,[-0.28299557],94,53,easy,minus,dotcolour,alfa,,,78,18,V,R,
211,85,1,5,1,44,36,1449,['n'],0,left,['8'],4,507,[0.00418181],49,44,hard,minus,dotcolour,alfa,,,78,18,V,R,
212,86,2,5,1,33,47,683,['n'],1,right,['9'],5,401,[0.03496876],38,47,medium,minus,dotcolour,alfa,,,78,18,V,R,
213,87,3,5,1,36,44,1667,['c'],0,right,['8'],4,828,[-0.0733712],33,44,hard,minus,dotcolour,alfa,,,78,18,V,R,
214,88,4,5,1,33,47,1100,['n'],1,right,['8'],4,749,[-0.04109077],61,47,medium,minus,dotcolour,alfa,,,78,18,V,R,
215,89,5,5,1,53,27,633,['c'],1,left,['9'],5,308,[0.18448895],95,53,easy,minus,dotcolour,alfa,,,78,18,V,R,
216,90,6,5,1,36,44,967,['n'],1,right,['9'],5,383,[-0.08915014],79,44,hard,minus,dotcolour,alfa,,,78,18,V,R,
217,91,7,5,1,33,47,1001,['n'],1,right,['8'],4,543,[-0.18124054],90,47,medium,minus,dotcolour,alfa,,,78,18,V,R,
218,92,8,5,1,44,36,766,['c'],1,left,['9'],5,288,[0.03445032],64,44,hard,minus,dotcolour,alfa,,,78,18,V,R,
219,93,9,5,1,47,33,734,['c'],1,left,['8'],4,310,[0.11370962],86,47,medium,minus,dotcolour,alfa,,,78,18,V,R,
220,94,10,5,1,27,53,816,['n'],1,right,['8'],4,287,[-0.08802855],81,53,easy,minus,dotcolour,alfa,,,78,18,V,R,
221,95,11,5,1,53,27,1183,['c'],1,left,['9'],5,331,[0.15531613],92,53,easy,minus,dotcolour,alfa,,,78,18,V,R,
222,96,12,5,1,53,27,834,['c'],1,left,['9'],5,251,[0.10821719],87,53,easy,minus,dotcolour,alfa,,,78,18,V,R,
223,97,13,5,1,36,44,750,['c'],0,right,['9'],5,178,[0.13581399],95,44,hard,minus,dotcolour,alfa,,,78,18,V,R,
224,98,14,5,1,36,44,767,['c'],0,right,['9'],5,171,[0.00727049],54,44,hard,minus,dotcolour,alfa,,,78,18,V,R,
225,99,15,5,1,47,33,883,['c'],1,left,['9'],5,215,[0.0466031],71,47,medium,minus,dotcolour,alfa,,,78,18,V,R,
226,100,16,5,1,53,27,599,['c'],1,left,['9'],5,270,[0.15033029],93,53,easy,minus,dotcolour,alfa,,,78,18,V,R,
227,101,17,5,1,27,53,732,['n'],1,right,['9'],5,612,[-0.22856395],93,53,easy,minus,dotcolour,alfa,,,78,18,V,R,
228,102,18,5,1,44,36,1833,['n'],0,left,['8'],4,239,[-0.02534375],61,44,hard,minus,dotcolour,alfa,,,78,18,V,R,
229,103,19,5,1,47,33,849,['c'],1,left,['8'],4,299,[0.00267692],51,47,medium,minus,dotcolour,alfa,,,78,18,V,R,
230,104,20,5,1,36,44,967,['n'],1,right,['8'],4,311,[-0.03109147],62,44,hard,minus,dotcolour,alfa,,,78,18,V,R,
231,105,21,5,1,47,33,732,['c'],1,left,['8'],4,259,[0.08431996],82,47,medium,minus,dotcolour,alfa,,,78,18,V,R,
232,106,22,5,1,27,53,934,['n'],1,right,['8'],4,274,[-0.05602314],72,53,easy,minus,dotcolour,alfa,,,78,18,V,R,
233,107,23,5,1,33,47,917,['n'],1,right,['9'],5,240,[-0.08327839],82,47,medium,minus,dotcolour,alfa,,,78,18,V,R,
234,108,24,5,1,53,27,1049,['c'],1,left,['9'],5,267,[0.12259816],89,53,easy,minus,dotcolour,alfa,,,78,18,V,R,
235,109,25,5,1,36,44,950,['n'],1,right,['9'],5,705,[-0.1261336],79,44,hard,minus,dotcolour,alfa,,,78,18,V,R,
236,110,26,5,1,36,44,1034,['n'],1,right,['8'],4,1001,[-0.05239865],62,44,hard,minus,dotcolour,alfa,,,78,18,V,R,
237,111,27,5,1,53,27,766,['c'],1,left,['9'],5,455,[0.21322249],95,53,easy,minus,dotcolour,alfa,,,78,18,V,R,
238,112,28,5,1,53,27,684,['c'],1,left,['9'],5,217,[0.08463194],84,53,easy,minus,dotcolour,alfa,,,78,18,V,R,
239,113,29,5,1,47,33,801,['c'],1,left,['9'],5,199,[0.04682762],72,47,medium,minus,dotcolour,alfa,,,78,18,V,R,
240,114,30,5,1,44,36,599,['c'],1,left,['9'],5,214,[0.06786236],79,44,hard,minus,dotcolour,alfa,,,78,18,V,R,
241,115,31,5,1,27,53,799,['n'],1,right,['9'],5,436,[-0.03410636],61,53,easy,minus,dotcolour,alfa,,,78,18,V,R,
242,116,32,5,1,44,36,1333,['c'],1,left,['8'],4,1043,[0.265443],91,44,hard,minus,dotcolour,alfa,,,78,18,V,R,
243,117,33,5,1,44,36,1049,['n'],0,left,['8'],4,492,[0.0562277],33,44,hard,minus,dotcolour,alfa,,,78,18,V,R,
244,118,34,5,1,27,53,799,['n'],1,right,['8'],4,247,[-0.10186837],86,53,easy,minus,dotcolour,alfa,,,78,18,V,R,
245,119,35,5,1,33,47,1218,['c'],0,right,['8'],4,314,[0.09565231],82,47,medium,minus,dotcolour,alfa,,,78,18,V,R,
246,120,36,5,1,27,53,800,['n'],1,right,['9'],5,276,[-0.17157224],95,53,easy,minus,dotcolour,alfa,,,78,18,V,R,
247,121,37,5,1,47,33,1683,['c'],1,left,['8'],4,627,[0.08412956],72,47,medium,minus,dotcolour,alfa,,,78,18,V,R,
248,122,38,5,1,44,36,1333,['c'],1,left,['8'],4,251,[0.16582977],95,44,hard,minus,dotcolour,alfa,,,78,18,V,R,
249,123,39,5,1,47,33,666,['n'],0,left,['3'],3,1301,[0.05720957],39,47,medium,minus,dotcolour,alfa,,,78,18,V,R,
250,124,40,5,1,33,47,933,['n'],1,right,['8'],4,1040,[-0.11360443],73,47,medium,minus,dotcolour,alfa,,,78,18,V,R,
251,125,41,5,1,33,47,851,['n'],1,right,['8'],4,530,[-0.04124047],62,47,medium,minus,dotcolour,alfa,,,78,18,V,R,
252,0,0,6,2,53,27,735,['c'],1,left,['9'],5,317,[0.13923578],100,53,easy,plus,dotcolour,alfa,,,78,18,V,R,
253,1,1,6,2,44,36,900,['c'],1,left,['8'],4,491,[0.06962713],97,44,hard,plus,dotcolour,alfa,,,78,18,V,R,
254,2,2,6,2,36,44,733,['n'],1,right,['8'],4,768,[-0.0069335],57,44,hard,plus,dotcolour,alfa,,,78,18,V,R,
255,3,3,6,2,33,47,1049,['n'],1,right,['9'],5,773,[-0.15091731],100,47,medium,plus,dotcolour,alfa,,,78,18,V,R,
256,4,4,6,2,36,44,1515,['n'],1,right,['8'],4,902,[-0.22032853],100,44,hard,plus,dotcolour,alfa,,,78,18,V,R,
257,5,5,6,2,33,47,1183,['n'],1,right,['8'],4,281,[-0.04660453],96,47,medium,plus,dotcolour,alfa,,,78,18,V,R,
258,6,6,6,2,36,44,1216,['c'],0,right,['8'],4,411,[0.0254698],81,44,hard,plus,dotcolour,alfa,,,78,18,V,R,
259,7,7,6,2,47,33,785,['c'],1,left,['8'],4,274,[0.06736355],99,47,medium,plus,dotcolour,alfa,,,78,18,V,R,
260,8,8,6,2,53,27,766,['c'],1,left,['8'],4,286,[0.15166385],100,53,easy,plus,dotcolour,alfa,,,78,18,V,R,
261,9,9,6,2,53,27,584,['c'],1,left,['9'],5,291,[0.13535289],100,53,easy,plus,dotcolour,alfa,,,78,18,V,R,
262,10,10,6,2,44,36,1201,['n'],0,left,['8'],4,277,[-0.12376062],100,44,hard,plus,dotcolour,alfa,,,78,18,V,R,
263,11,11,6,2,27,53,767,['n'],1,right,['8'],4,482,[-0.10748753],100,53,easy,plus,dotcolour,alfa,,,78,18,V,R,
264,12,12,6,2,53,27,716,['c'],1,left,['9'],5,336,[0.04895066],95,53,easy,plus,dotcolour,alfa,,,78,18,V,R,
265,13,13,6,2,53,27,751,['c'],1,left,['9'],5,315,[0.05309789],97,53,easy,plus,dotcolour,alfa,,,78,18,V,R,
266,14,14,6,2,44,36,1235,['c'],1,left,['9'],5,315,[0.12942516],100,44,hard,plus,dotcolour,alfa,,,78,18,V,R,
267,15,15,6,2,53,27,917,['c'],1,left,['9'],5,288,[0.09693884],100,53,easy,plus,dotcolour,alfa,,,78,18,V,R,
268,16,16,6,2,27,53,766,['n'],1,right,['9'],5,269,[-0.11945641],100,53,easy,plus,dotcolour,alfa,,,78,18,V,R,
269,17,17,6,2,44,36,1066,['n'],0,left,['8'],4,582,[0.10050883],1,44,hard,plus,dotcolour,alfa,,,78,18,V,R,
270,18,18,6,2,33,47,752,['n'],1,right,['8'],4,326,[0.00151827],48,47,medium,plus,dotcolour,alfa,,,78,18,V,R,
271,19,19,6,2,27,53,767,['n'],1,right,['8'],4,497,[-0.12169979],100,53,easy,plus,dotcolour,alfa,,,78,18,V,R,
272,20,20,6,2,33,47,751,['n'],1,right,['8'],4,310,[-0.07883363],99,47,medium,plus,dotcolour,alfa,,,78,18,V,R,
273,21,21,6,2,33,47,850,['n'],1,right,['8'],4,198,[-0.086485],100,47,medium,plus,dotcolour,alfa,,,78,18,V,R,
274,22,22,6,2,47,33,1282,['n'],0,left,['8'],4,273,[-0.14580017],100,47,medium,plus,dotcolour,alfa,,,78,18,V,R,
275,23,23,6,2,36,44,984,['c'],0,right,['8'],4,221,[-0.00825605],35,44,hard,plus,dotcolour,alfa,,,78,18,V,R,
276,24,24,6,2,47,33,718,['c'],1,left,['8'],4,694,[0.14435833],100,47,medium,plus,dotcolour,alfa,,,78,18,V,R,
277,25,25,6,2,44,36,1700,['n'],0,left,['8'],4,3556,[-0.15065228],95,44,hard,plus,dotcolour,alfa,,,78,18,V,R,
278,26,26,6,2,47,33,697,['c'],1,left,['8'],4,340,[0.19259855],100,47,medium,plus,dotcolour,alfa,,,78,18,V,R,
279,27,27,6,2,47,33,900,['c'],1,left,['9'],5,241,[0.09765355],100,47,medium,plus,dotcolour,alfa,,,78,18,V,R,
280,28,28,6,2,36,44,969,['n'],1,right,['9'],5,199,[-0.04970869],98,44,hard,plus,dotcolour,alfa,,,78,18,V,R,
281,29,29,6,2,33,47,1250,['n'],1,right,['8'],4,531,[-0.13229267],100,47,medium,plus,dotcolour,alfa,,,78,18,V,R,
282,30,30,6,2,27,53,952,['n'],1,right,['8'],4,270,[-0.08291332],100,53,easy,plus,dotcolour,alfa,,,78,18,V,R,
283,31,31,6,2,33,47,733,['n'],1,right,['8'],4,437,[-0.14704381],100,47,medium,plus,dotcolour,alfa,,,78,18,V,R,
284,32,32,6,2,27,53,749,['n'],1,right,['9'],5,219,[-0.13672737],100,53,easy,plus,dotcolour,alfa,,,78,18,V,R,
285,33,33,6,2,27,53,834,['n'],1,right,['9'],5,1647,[-0.43775185],100,53,easy,plus,dotcolour,alfa,,,78,18,V,R,
286,34,34,6,2,53,27,683,['c'],1,left,['9'],5,263,[0.17272495],100,53,easy,plus,dotcolour,alfa,,,78,18,V,R,
287,35,35,6,2,36,44,767,['n'],1,right,['9'],5,252,[-0.10993992],100,44,hard,plus,dotcolour,alfa,,,78,18,V,R,
288,36,36,6,2,47,33,932,['c'],1,left,['9'],5,194,[0.06852282],100,47,medium,plus,dotcolour,alfa,,,78,18,V,R,
289,37,37,6,2,44,36,733,['c'],1,left,['9'],5,292,[0.05212689],97,44,hard,plus,dotcolour,alfa,,,78,18,V,R,
290,38,38,6,2,47,33,900,['c'],1,left,['9'],5,147,[0.04803728],99,47,medium,plus,dotcolour,alfa,,,78,18,V,R,
291,39,39,6,2,36,44,833,['n'],1,right,['9'],5,250,[-0.03267124],91,44,hard,plus,dotcolour,alfa,,,78,18,V,R,
292,40,40,6,2,27,53,1050,['n'],1,right,['9'],5,229,[-0.17275334],100,53,easy,plus,dotcolour,alfa,,,78,18,V,R,
293,41,41,6,2,44,36,1351,['n'],0,left,['9'],5,627,[0.06989765],4,44,hard,plus,dotcolour,alfa,,,78,18,V,R,
294,42,0,7,2,47,33,735,['c'],1,left,['8'],4,316,[-0.03965597],7,47,medium,plus,dotcolour,alfa,,,78,18,V,R,
295,43,1,7,2,33,47,800,['n'],1,right,['8'],4,679,[-0.12091048],99,47,medium,plus,dotcolour,alfa,,,78,18,V,R,
296,44,2,7,2,44,36,801,['c'],1,left,['9'],5,353,[0.08359906],99,44,hard,plus,dotcolour,alfa,,,78,18,V,R,
297,45,3,7,2,44,36,1117,['c'],1,left,['9'],5,229,[-0.03304895],8,44,hard,plus,dotcolour,alfa,,,78,18,V,R,
298,46,4,7,2,36,44,1017,['n'],1,right,['8'],4,289,[-0.16931759],100,44,hard,plus,dotcolour,alfa,,,78,18,V,R,
299,47,5,7,2,33,47,1702,['c'],0,right,['8'],4,439,[-0.06418842],3,47,medium,plus,dotcolour,alfa,,,78,18,V,R,
300,48,6,7,2,33,47,1318,['c'],0,right,['8'],4,622,[0.05676701],93,47,medium,plus,dotcolour,alfa,,,78,18,V,R,
301,49,7,7,2,53,27,1016,['c'],1,left,['8'],4,266,[0.11367194],100,53,easy,plus,dotcolour,alfa,,,78,18,V,R,
302,50,8,7,2,27,53,682,['n'],1,right,['9'],5,476,[-0.15480963],100,53,easy,plus,dotcolour,alfa,,,78,18,V,R,
303,51,9,7,2,27,53,766,['n'],1,right,['9'],5,280,[-0.11601053],100,53,easy,plus,dotcolour,alfa,,,78,18,V,R,
304,52,10,7,2,53,27,833,['c'],1,left,['9'],5,306,[0.13010926],100,53,easy,plus,dotcolour,alfa,,,78,18,V,R,
305,53,11,7,2,33,47,851,['n'],1,right,['8'],4,338,[-0.16503607],100,47,medium,plus,dotcolour,alfa,,,78,18,V,R,
306,54,12,7,2,44,36,1217,['c'],1,left,['8'],4,281,[0.04198223],95,44,hard,plus,dotcolour,alfa,,,78,18,V,R,
307,55,13,7,2,33,47,665,['n'],1,right,['8'],4,274,[-0.2090404],100,47,medium,plus,dotcolour,alfa,,,78,18,V,R,
308,56,14,7,2,53,27,766,['c'],1,left,['9'],5,295,[0.20481932],100,53,easy,plus,dotcolour,alfa,,,78,18,V,R,
309,57,15,7,2,36,44,900,['n'],1,right,['8'],4,277,[-0.12675095],100,44,hard,plus,dotcolour,alfa,,,78,18,V,R,
310,58,16,7,2,53,27,799,['c'],1,left,['9'],5,217,[0.10291115],100,53,easy,plus,dotcolour,alfa,,,78,18,V,R,
311,59,17,7,2,44,36,1485,['c'],1,left,['8'],4,219,[0.1146408],100,44,hard,plus,dotcolour,alfa,,,78,18,V,R,
312,60,18,7,2,53,27,867,['c'],1,left,['8'],4,222,[0.10746435],100,53,easy,plus,dotcolour,alfa,,,78,18,V,R,
313,61,19,7,2,33,47,782,['n'],1,right,['9'],5,444,[-0.11823189],100,47,medium,plus,dotcolour,alfa,,,78,18,V,R,
314,62,20,7,2,47,33,782,['c'],1,left,['8'],4,210,[0.07621716],100,47,medium,plus,dotcolour,alfa,,,78,18,V,R,
315,63,21,7,2,27,53,684,['n'],1,right,['9'],5,549,[-0.23319322],100,53,easy,plus,dotcolour,alfa,,,78,18,V,R,
316,64,22,7,2,33,47,850,['n'],1,right,['9'],5,403,[0.00539197],42,47,medium,plus,dotcolour,alfa,,,78,18,V,R,
317,65,23,7,2,47,33,1216,['c'],1,left,['8'],4,696,[-0.02259507],27,47,medium,plus,dotcolour,alfa,,,78,18,V,R,
318,66,24,7,2,36,44,816,['n'],1,right,['9'],5,306,[-0.05282508],97,44,hard,plus,dotcolour,alfa,,,78,18,V,R,
319,67,25,7,2,44,36,851,['c'],1,left,['8'],4,602,[0.15054907],100,44,hard,plus,dotcolour,alfa,,,78,18,V,R,
320,68,26,7,2,36,44,900,['n'],1,right,['8'],4,532,[-0.2346269],100,44,hard,plus,dotcolour,alfa,,,78,18,V,R,
321,69,27,7,2,36,44,683,['n'],1,right,['9'],5,490,[-0.11140771],100,44,hard,plus,dotcolour,alfa,,,78,18,V,R,
322,70,28,7,2,44,36,918,['c'],1,left,['9'],5,192,[0.03966522],96,44,hard,plus,dotcolour,alfa,,,78,18,V,R,
323,71,29,7,2,53,27,900,['c'],1,left,['9'],5,226,[0.17203656],100,53,easy,plus,dotcolour,alfa,,,78,18,V,R,
324,72,30,7,2,47,33,966,['c'],1,left,['9'],5,137,[0.16304302],100,47,medium,plus,dotcolour,alfa,,,78,18,V,R,
325,73,31,7,2,53,27,548,['c'],1,left,['9'],5,132,[0.11787984],100,53,easy,plus,dotcolour,alfa,,,78,18,V,R,
326,74,32,7,2,27,53,733,['n'],1,right,['9'],5,177,[-0.1311828],100,53,easy,plus,dotcolour,alfa,,,78,18,V,R,
327,75,33,7,2,36,44,866,['n'],1,right,['9'],5,214,[-0.1439758],100,44,hard,plus,dotcolour,alfa,,,78,18,V,R,
328,76,34,7,2,36,44,648,['c'],0,right,['9'],5,234,[0.06417081],99,44,hard,plus,dotcolour,alfa,,,78,18,V,R,
329,77,35,7,2,27,53,683,['n'],1,right,['9'],5,252,[-0.10899518],100,53,easy,plus,dotcolour,alfa,,,78,18,V,R,
330,78,36,7,2,47,33,667,['c'],1,left,['9'],5,206,[0.14029567],100,47,medium,plus,dotcolour,alfa,,,78,18,V,R,
331,79,37,7,2,47,33,1099,['n'],0,left,['9'],5,272,[-0.03009843],89,47,medium,plus,dotcolour,alfa,,,78,18,V,R,
332,80,38,7,2,44,36,700,['c'],1,left,['9'],5,177,[0.12422097],100,44,hard,plus,dotcolour,alfa,,,78,18,V,R,
333,81,39,7,2,27,53,615,['n'],1,right,['9'],5,256,[-0.10992504],100,53,easy,plus,dotcolour,alfa,,,78,18,V,R,
334,82,40,7,2,47,33,714,['c'],1,left,['9'],5,184,[0.06474311],100,47,medium,plus,dotcolour,alfa,,,78,18,V,R,
335,83,41,7,2,27,53,1014,['n'],1,right,['9'],5,286,[-0.04525323],95,53,easy,plus,dotcolour,alfa,,,78,18,V,R,
336,84,0,8,2,44,36,851,['c'],1,left,['9'],5,140,[0.04502378],99,44,hard,plus,dotcolour,alfa,,,78,18,V,R,
337,85,1,8,2,47,33,816,['c'],1,left,['9'],5,244,[-0.02243705],16,47,medium,plus,dotcolour,alfa,,,78,18,V,R,
338,86,2,8,2,47,33,767,['c'],1,left,['9'],5,170,[0.07468564],100,47,medium,plus,dotcolour,alfa,,,78,18,V,R,
339,87,3,8,2,33,47,884,['n'],1,right,['8'],4,471,[-0.07528833],98,47,medium,plus,dotcolour,alfa,,,78,18,V,R,
340,88,4,8,2,44,36,1050,['n'],0,left,['8'],4,271,[-0.05417799],98,44,hard,plus,dotcolour,alfa,,,78,18,V,R,
341,89,5,8,2,44,36,732,['c'],1,left,['8'],4,222,[0.02212385],84,44,hard,plus,dotcolour,alfa,,,78,18,V,R,
342,90,6,8,2,47,33,767,['c'],1,left,['8'],4,446,[0.1191207],100,47,medium,plus,dotcolour,alfa,,,78,18,V,R,
343,91,7,8,2,53,27,916,['c'],1,left,['9'],5,166,[0.18580535],100,53,easy,plus,dotcolour,alfa,,,78,18,V,R,
344,92,8,8,2,53,27,764,['c'],1,left,['9'],5,174,[0.05858708],99,53,easy,plus,dotcolour,alfa,,,78,18,V,R,
345,93,9,8,2,36,44,735,['n'],1,right,['9'],5,193,[-0.01774946],81,44,hard,plus,dotcolour,alfa,,,78,18,V,R,
346,94,10,8,2,47,33,718,['c'],1,left,['9'],5,187,[0.08040023],100,47,medium,plus,dotcolour,alfa,,,78,18,V,R,
347,95,11,8,2,27,53,634,['n'],1,right,['9'],5,321,[-0.13700723],100,53,easy,plus,dotcolour,alfa,,,78,18,V,R,
348,96,12,8,2,47,33,716,['c'],1,left,['9'],5,214,[0.04356535],97,47,medium,plus,dotcolour,alfa,,,78,18,V,R,
349,97,13,8,2,36,44,1000,['n'],1,right,['9'],5,236,[-0.12356834],100,44,hard,plus,dotcolour,alfa,,,78,18,V,R,
350,98,14,8,2,53,27,550,['c'],1,left,['9'],5,235,[0.09342541],100,53,easy,plus,dotcolour,alfa,,,78,18,V,R,
351,99,15,8,2,36,44,850,['n'],1,right,['9'],5,254,[-0.02452438],85,44,hard,plus,dotcolour,alfa,,,78,18,V,R,
352,100,16,8,2,27,53,800,['n'],1,right,['9'],5,242,[-0.0657107],99,53,easy,plus,dotcolour,alfa,,,78,18,V,R,
353,101,17,8,2,44,36,800,['c'],1,left,['9'],5,215,[0.01958419],82,44,hard,plus,dotcolour,alfa,,,78,18,V,R,
354,102,18,8,2,53,27,800,['c'],1,left,['9'],5,165,[0.06679507],100,53,easy,plus,dotcolour,alfa,,,78,18,V,R,
355,103,19,8,2,44,36,902,['c'],1,left,['9'],5,169,[0.08740609],100,44,hard,plus,dotcolour,alfa,,,78,18,V,R,
356,104,20,8,2,44,36,718,['n'],0,left,['9'],5,284,[-0.05073958],97,44,hard,plus,dotcolour,alfa,,,78,18,V,R,
357,105,21,8,2,27,53,617,['n'],1,right,['9'],5,182,[-0.15326342],100,53,easy,plus,dotcolour,alfa,,,78,18,V,R,
358,106,22,8,2,27,53,933,['n'],1,right,['9'],5,209,[-0.11821561],100,53,easy,plus,dotcolour,alfa,,,78,18,V,R,
359,107,23,8,2,33,47,816,['n'],1,right,['9'],5,214,[-0.06053091],99,47,medium,plus,dotcolour,alfa,,,78,18,V,R,
360,108,24,8,2,53,27,750,['c'],1,left,['9'],5,342,[0.10723314],100,53,easy,plus,dotcolour,alfa,,,78,18,V,R,
361,109,25,8,2,36,44,783,['n'],1,right,['9'],5,271,[-0.11117694],100,44,hard,plus,dotcolour,alfa,,,78,18,V,R,
362,110,26,8,2,53,27,664,['c'],1,left,['9'],5,216,[0.14437839],100,53,easy,plus,dotcolour,alfa,,,78,18,V,R,
363,111,27,8,2,33,47,701,['n'],1,right,['9'],5,210,[-0.11389235],100,47,medium,plus,dotcolour,alfa,,,78,18,V,R,
364,112,28,8,2,47,33,734,['c'],1,left,['9'],5,171,[0.18757036],100,47,medium,plus,dotcolour,alfa,,,78,18,V,R,
365,113,29,8,2,33,47,651,['n'],1,right,['9'],5,369,[-0.2076094],100,47,medium,plus,dotcolour,alfa,,,78,18,V,R,
366,114,30,8,2,33,47,866,['n'],1,right,['9'],5,239,[-0.15241167],100,47,medium,plus,dotcolour,alfa,,,78,18,V,R,
367,115,31,8,2,47,33,566,['c'],1,left,['9'],5,196,[0.0729352],100,47,medium,plus,dotcolour,alfa,,,78,18,V,R,
368,116,32,8,2,53,27,733,['c'],1,left,['9'],5,174,[0.15413884],100,53,easy,plus,dotcolour,alfa,,,78,18,V,R,
369,117,33,8,2,36,44,717,['n'],1,right,['9'],5,177,[-0.06851757],100,44,hard,plus,dotcolour,alfa,,,78,18,V,R,
370,118,34,8,2,27,53,782,['n'],1,right,['9'],5,153,[-0.08423505],100,53,easy,plus,dotcolour,alfa,,,78,18,V,R,
371,119,35,8,2,36,44,617,['n'],1,right,['9'],5,217,[-0.08525901],100,44,hard,plus,dotcolour,alfa,,,78,18,V,R,
372,120,36,8,2,27,53,901,['n'],1,right,['9'],5,299,[-0.14411612],100,53,easy,plus,dotcolour,alfa,,,78,18,V,R,
373,121,37,8,2,33,47,799,['n'],1,right,['9'],5,182,[-0.14251832],100,47,medium,plus,dotcolour,alfa,,,78,18,V,R,
374,122,38,8,2,27,53,950,['n'],1,right,['9'],5,183,[-0.10243088],100,53,easy,plus,dotcolour,alfa,,,78,18,V,R,
375,123,39,8,2,44,36,966,['n'],0,left,['8'],4,200,[-0.11802698],100,44,hard,plus,dotcolour,alfa,,,78,18,V,R,
376,124,40,8,2,33,47,732,['n'],1,right,['8'],4,201,[-0.11009021],100,47,medium,plus,dotcolour,alfa,,,78,18,V,R,
377,125,41,8,2,36,44,1102,['n'],1,right,['8'],4,204,[-0.04639892],98,44,hard,plus,dotcolour,alfa,,,78,18,V,R,
378,0,0,9,3,53,27,902,['c'],1,left,['9'],5,245,[0.12221357],90,53,easy,minus,dotcolour,alfa,,,78,18,V,R,
379,1,1,9,3,33,47,818,['n'],1,right,['9'],5,241,[-0.11708328],90,47,medium,minus,dotcolour,alfa,,,78,18,V,R,
380,2,2,9,3,44,36,966,['c'],1,left,['9'],5,207,[0.12019537],92,44,hard,minus,dotcolour,alfa,,,78,18,V,R,
381,3,3,9,3,27,53,649,['n'],1,right,['9'],5,188,[-0.03317065],67,53,easy,minus,dotcolour,alfa,,,78,18,V,R,
382,4,4,9,3,44,36,750,['c'],1,left,['9'],5,181,[0.06028213],78,44,hard,minus,dotcolour,alfa,,,78,18,V,R,
383,5,5,9,3,36,44,1083,['c'],0,right,['8'],4,225,[0.04845697],71,44,hard,minus,dotcolour,alfa,,,78,18,V,R,
384,6,6,9,3,44,36,984,['c'],1,left,['9'],5,294,[0.19422521],96,44,hard,minus,dotcolour,alfa,,,78,18,V,R,
385,7,7,9,3,33,47,999,['n'],1,right,['9'],5,257,[-0.11242842],88,47,medium,minus,dotcolour,alfa,,,78,18,V,R,
386,8,8,9,3,44,36,1200,['n'],0,left,['8'],4,325,[-0.02007131],58,44,hard,minus,dotcolour,alfa,,,78,18,V,R,
387,9,9,9,3,47,33,1316,['c'],1,left,['8'],4,281,[0.18403738],96,47,medium,minus,dotcolour,alfa,,,78,18,V,R,
388,10,10,9,3,33,47,1084,['n'],1,right,['8'],4,201,[-0.0644572],78,47,medium,minus,dotcolour,alfa,,,78,18,V,R,
389,11,11,9,3,33,47,800,['n'],1,right,['8'],4,271,[-0.14151976],92,47,medium,minus,dotcolour,alfa,,,78,18,V,R,
390,12,12,9,3,53,27,833,['c'],1,left,['9'],5,322,[0.04238777],66,53,easy,minus,dotcolour,alfa,,,78,18,V,R,
391,13,13,9,3,33,47,784,['n'],1,right,['9'],5,308,[-0.07373056],77,47,medium,minus,dotcolour,alfa,,,78,18,V,R,
392,14,14,9,3,33,47,1234,['n'],1,right,['8'],4,556,[-0.10357277],78,47,medium,minus,dotcolour,alfa,,,78,18,V,R,
393,15,15,9,3,53,27,917,['c'],1,left,['8'],4,263,[0.0488319],70,53,easy,minus,dotcolour,alfa,,,78,18,V,R,
394,16,16,9,3,53,27,666,['c'],1,left,['9'],5,281,[0.13750913],91,53,easy,minus,dotcolour,alfa,,,78,18,V,R,
395,17,17,9,3,36,44,982,['n'],1,right,['8'],4,413,[-0.16981275],92,44,hard,minus,dotcolour,alfa,,,78,18,V,R,
396,18,18,9,3,33,47,851,['n'],1,right,['9'],5,224,[-0.05076881],72,47,medium,minus,dotcolour,alfa,,,78,18,V,R,
397,19,19,9,3,27,53,783,['n'],1,right,['9'],5,214,[-0.12897298],92,53,easy,minus,dotcolour,alfa,,,78,18,V,R,
398,20,20,9,3,27,53,734,['n'],1,right,['9'],5,183,[-0.10658912],90,53,easy,minus,dotcolour,alfa,,,78,18,V,R,
399,21,21,9,3,27,53,767,['n'],1,right,['9'],5,224,[-0.13453468],93,53,easy,minus,dotcolour,alfa,,,78,18,V,R,
400,22,22,9,3,27,53,666,['n'],1,right,['9'],5,195,[-0.060725],78,53,easy,minus,dotcolour,alfa,,,78,18,V,R,
401,23,23,9,3,27,53,632,['n'],1,right,['9'],5,201,[-0.06576428],79,53,easy,minus,dotcolour,alfa,,,78,18,V,R,
402,24,24,9,3,53,27,982,['c'],1,left,['9'],5,216,[0.12271281],92,53,easy,minus,dotcolour,alfa,,,78,18,V,R,
403,25,25,9,3,36,44,700,['n'],1,right,['9'],5,194,[-0.08782891],86,44,hard,minus,dotcolour,alfa,,,78,18,V,R,
404,26,26,9,3,47,33,817,['c'],1,left,['9'],5,256,[0.00183104],51,47,medium,minus,dotcolour,alfa,,,78,18,V,R,
405,27,27,9,3,47,33,850,['c'],1,left,['9'],5,258,[0.02150082],59,47,medium,minus,dotcolour,alfa,,,78,18,V,R,
406,28,28,9,3,47,33,766,['c'],1,left,['9'],5,168,[0.07045024],82,47,medium,minus,dotcolour,alfa,,,78,18,V,R,
407,29,29,9,3,47,33,833,['n'],0,left,['8'],4,246,[-0.07095828],78,47,medium,minus,dotcolour,alfa,,,78,18,V,R,
408,30,30,9,3,47,33,1083,['c'],1,left,['8'],4,432,[0.08706611],77,47,medium,minus,dotcolour,alfa,,,78,18,V,R,
409,31,31,9,3,44,36,732,['c'],1,left,['9'],5,200,[0.18700647],98,44,hard,minus,dotcolour,alfa,,,78,18,V,R,
410,32,32,9,3,36,44,1035,['n'],1,right,['9'],5,165,[-0.05762942],78,44,hard,minus,dotcolour,alfa,,,78,18,V,R,
411,33,33,9,3,53,27,917,['c'],1,left,['9'],5,192,[0.09460412],87,53,easy,minus,dotcolour,alfa,,,78,18,V,R,
412,34,34,9,3,47,33,852,['c'],1,left,['9'],5,165,[0.07788055],85,47,medium,minus,dotcolour,alfa,,,78,18,V,R,
413,35,35,9,3,44,36,1083,['c'],1,left,['9'],5,234,[0.17033166],96,44,hard,minus,dotcolour,alfa,,,78,18,V,R,
414,36,36,9,3,36,44,715,['n'],1,right,['9'],5,210,[-0.09633188],87,44,hard,minus,dotcolour,alfa,,,78,18,V,R,
415,37,37,9,3,44,36,900,['c'],1,left,['9'],5,244,[0.08395042],82,44,hard,minus,dotcolour,alfa,,,78,18,V,R,
416,38,38,9,3,27,53,750,['n'],1,right,['9'],5,219,[-0.08656821],84,53,easy,minus,dotcolour,alfa,,,78,18,V,R,
417,39,39,9,3,53,27,734,['c'],1,left,['9'],5,220,[0.19163195],98,53,easy,minus,dotcolour,alfa,,,78,18,V,R,
418,40,40,9,3,36,44,784,['n'],1,right,['9'],5,218,[-0.02373406],61,44,hard,minus,dotcolour,alfa,,,78,18,V,R,
419,41,41,9,3,36,44,798,['n'],1,right,['9'],5,304,[-0.05220882],70,44,hard,minus,dotcolour,alfa,,,78,18,V,R,
420,42,0,10,3,27,53,751,['n'],1,right,['8'],4,969,[-0.24246103],90,53,easy,minus,dotcolour,alfa,,,78,18,V,R,
421,43,1,10,3,36,44,1101,['n'],1,right,['8'],4,548,[-0.07151493],70,44,hard,minus,dotcolour,alfa,,,78,18,V,R,
422,44,2,10,3,33,47,750,['n'],1,right,['8'],4,198,[-0.04300292],70,47,medium,minus,dotcolour,alfa,,,78,18,V,R,
423,45,3,10,3,53,27,667,['c'],1,left,['8'],4,322,[0.04856018],68,53,easy,minus,dotcolour,alfa,,,78,18,V,R,
424,46,4,10,3,36,44,700,['n'],1,right,['8'],4,224,[-0.14678802],94,44,hard,minus,dotcolour,alfa,,,78,18,V,R,
425,47,5,10,3,47,33,784,['c'],1,left,['8'],4,767,[0.18394196],87,47,medium,minus,dotcolour,alfa,,,78,18,V,R,
426,48,6,10,3,33,47,698,['n'],1,right,['8'],4,202,[-0.08398922],84,47,medium,minus,dotcolour,alfa,,,78,18,V,R,
427,49,7,10,3,53,27,834,['c'],1,left,['8'],4,1175,[0.29268715],92,53,easy,minus,dotcolour,alfa,,,78,18,V,R,
428,50,8,10,3,44,36,933,['n'],0,left,['8'],4,288,[-0.00261061],51,44,hard,minus,dotcolour,alfa,,,78,18,V,R,
429,51,9,10,3,36,44,617,['n'],1,right,['8'],4,363,[-0.10999759],84,44,hard,minus,dotcolour,alfa,,,78,18,V,R,
430,52,10,10,3,47,33,784,['c'],1,left,['9'],5,252,[0.04399991],69,47,medium,minus,dotcolour,alfa,,,78,18,V,R,
431,53,11,10,3,44,36,1218,['n'],0,left,['8'],4,614,[-0.06663608],68,44,hard,minus,dotcolour,alfa,,,78,18,V,R,
432,54,12,10,3,53,27,950,['c'],1,left,['9'],5,374,[0.10775986],83,53,easy,minus,dotcolour,alfa,,,78,18,V,R,
433,55,13,10,3,33,47,2568,['n'],1,right,['8'],4,957,[-0.16666368],82,47,medium,minus,dotcolour,alfa,,,78,18,V,R,
434,56,14,10,3,44,36,715,['n'],0,left,['9'],5,240,[-0.16527547],95,44,hard,minus,dotcolour,alfa,,,78,18,V,R,
435,57,15,10,3,47,33,801,['c'],1,left,['9'],5,260,[0.05271949],72,47,medium,minus,dotcolour,alfa,,,78,18,V,R,
436,58,16,10,3,47,33,1001,['c'],1,left,['9'],5,208,[0.14346376],94,47,medium,minus,dotcolour,alfa,,,78,18,V,R,
437,59,17,10,3,27,53,684,['n'],1,right,['9'],5,251,[-0.16078713],95,53,easy,minus,dotcolour,alfa,,,78,18,V,R,
438,60,18,10,3,27,53,650,['n'],1,right,['8'],4,206,[-0.10884546],90,53,easy,minus,dotcolour,alfa,,,78,18,V,R,
439,61,19,10,3,36,44,1084,['c'],0,right,['9'],5,264,[0.03977385],67,44,hard,minus,dotcolour,alfa,,,78,18,V,R,
440,62,20,10,3,44,36,834,['c'],1,left,['9'],5,186,[0.09372324],88,44,hard,minus,dotcolour,alfa,,,78,18,V,R,
441,63,21,10,3,36,44,832,['n'],1,right,['9'],5,216,[-0.06891473],79,44,hard,minus,dotcolour,alfa,,,78,18,V,R,
442,64,22,10,3,53,27,1116,['c'],1,left,['9'],5,690,[0.17053773],86,53,easy,minus,dotcolour,alfa,,,78,18,V,R,
443,65,23,10,3,36,44,816,['n'],1,right,['9'],5,235,[-0.04702982],71,44,hard,minus,dotcolour,alfa,,,78,18,V,R,
444,66,24,10,3,53,27,1115,['c'],1,left,['9'],5,580,[0.22557776],93,53,easy,minus,dotcolour,alfa,,,78,18,V,R,
445,67,25,10,3,33,47,916,['n'],1,right,['8'],4,518,[-0.14567986],86,47,medium,minus,dotcolour,alfa,,,78,18,V,R,
446,68,26,10,3,44,36,733,['c'],1,left,['8'],4,794,[0.12501396],78,44,hard,minus,dotcolour,alfa,,,78,18,V,R,
447,69,27,10,3,27,53,733,['n'],1,right,['9'],5,379,[-0.07518103],75,53,easy,minus,dotcolour,alfa,,,78,18,V,R,
448,70,28,10,3,47,33,949,['c'],1,left,['9'],5,332,[0.03651128],64,47,medium,minus,dotcolour,alfa,,,78,18,V,R,
449,71,29,10,3,36,44,1218,['n'],1,right,['8'],4,813,[-0.14870145],82,44,hard,minus,dotcolour,alfa,,,78,18,V,R,
450,72,30,10,3,44,36,750,['c'],1,left,['9'],5,364,[0.16559129],92,44,hard,minus,dotcolour,alfa,,,78,18,V,R,
451,73,31,10,3,27,53,1134,['n'],1,right,['8'],4,423,[-0.21151707],95,53,easy,minus,dotcolour,alfa,,,78,18,V,R,
452,74,32,10,3,33,47,884,['n'],1,right,['8'],4,336,[-0.18351692],95,47,medium,minus,dotcolour,alfa,,,78,18,V,R,
453,75,33,10,3,27,53,800,['n'],1,right,['9'],5,290,[-0.07159138],77,53,easy,minus,dotcolour,alfa,,,78,18,V,R,
454,76,34,10,3,44,36,816,['c'],1,left,['9'],5,340,[0.17686943],94,44,hard,minus,dotcolour,alfa,,,78,18,V,R,
455,77,35,10,3,47,33,767,['c'],1,left,['9'],5,261,[0.0741826],79,47,medium,minus,dotcolour,alfa,,,78,18,V,R,
456,78,36,10,3,47,33,884,['c'],1,left,['9'],5,270,[0.04837463],70,47,medium,minus,dotcolour,alfa,,,78,18,V,R,
457,79,37,10,3,33,47,651,['n'],1,right,['9'],5,289,[-0.08579006],81,47,medium,minus,dotcolour,alfa,,,78,18,V,R,
458,80,38,10,3,33,47,666,['n'],1,right,['9'],5,321,[-0.01713468],57,47,medium,minus,dotcolour,alfa,,,78,18,V,R,
459,81,39,10,3,53,27,684,['c'],1,left,['9'],5,240,[0.15395883],94,53,easy,minus,dotcolour,alfa,,,78,18,V,R,
460,82,40,10,3,27,53,651,['n'],1,right,['9'],5,307,[-0.06238501],73,53,easy,minus,dotcolour,alfa,,,78,18,V,R,
461,83,41,10,3,53,27,633,['c'],1,left,['9'],5,220,[0.05551989],74,53,easy,minus,dotcolour,alfa,,,78,18,V,R,
462,84,0,11,3,53,27,701,['c'],1,left,['9'],5,284,[0.18149761],96,53,easy,minus,dotcolour,alfa,,,78,18,V,R,
463,85,1,11,3,44,36,633,['c'],1,left,['9'],5,214,[0.04607778],71,44,hard,minus,dotcolour,alfa,,,78,18,V,R,
464,86,2,11,3,27,53,649,['n'],1,right,['8'],4,234,[-0.20822809],98,53,easy,minus,dotcolour,alfa,,,78,18,V,R,
465,87,3,11,3,33,47,784,['n'],1,right,['9'],5,209,[-0.11480683],91,47,medium,minus,dotcolour,alfa,,,78,18,V,R,
466,88,4,11,3,27,53,783,['n'],1,right,['9'],5,135,[-0.06143027],82,53,easy,minus,dotcolour,alfa,,,78,18,V,R,
467,89,5,11,3,36,44,918,['n'],1,right,['9'],5,180,[-0.03504009],68,44,hard,minus,dotcolour,alfa,,,78,18,V,R,
468,90,6,11,3,33,47,1117,['n'],1,right,['8'],4,286,[-0.12712719],89,47,medium,minus,dotcolour,alfa,,,78,18,V,R,
469,91,7,11,3,36,44,1066,['n'],1,right,['8'],4,759,[-0.10073661],74,44,hard,minus,dotcolour,alfa,,,78,18,V,R,
470,92,8,11,3,36,44,868,['n'],1,right,['9'],5,252,[-0.07380117],79,44,hard,minus,dotcolour,alfa,,,78,18,V,R,
471,93,9,11,3,36,44,984,['n'],1,right,['9'],5,681,[-0.05808439],65,44,hard,minus,dotcolour,alfa,,,78,18,V,R,
472,94,10,11,3,33,47,634,['n'],1,right,['9'],5,218,[-0.07232541],80,47,medium,minus,dotcolour,alfa,,,78,18,V,R,
473,95,11,11,3,47,33,850,['c'],1,left,['9'],5,271,[0.08092654],80,47,medium,minus,dotcolour,alfa,,,78,18,V,R,
474,96,12,11,3,33,47,716,['n'],1,right,['9'],5,206,[-0.09788423],87,47,medium,minus,dotcolour,alfa,,,78,18,V,R,
475,97,13,11,3,27,53,581,['n'],1,right,['9'],5,174,[-0.0742014],83,53,easy,minus,dotcolour,alfa,,,78,18,V,R,
476,98,14,11,3,44,36,1001,['c'],1,left,['9'],5,262,[-0.01170481],45,44,hard,minus,dotcolour,alfa,,,78,18,V,R,
477,99,15,11,3,47,33,1049,['c'],1,left,['9'],5,239,[0.11714571],90,47,medium,minus,dotcolour,alfa,,,78,18,V,R,
478,100,16,11,3,53,27,684,['c'],1,left,['9'],5,161,[0.05904182],79,53,easy,minus,dotcolour,alfa,,,78,18,V,R,
479,101,17,11,3,27,53,683,['n'],1,right,['9'],5,182,[-0.10204282],90,53,easy,minus,dotcolour,alfa,,,78,18,V,R,
480,102,18,11,3,53,27,734,['c'],1,left,['9'],5,168,[0.08724454],87,53,easy,minus,dotcolour,alfa,,,78,18,V,R,
481,103,19,11,3,27,53,665,['n'],1,right,['9'],5,198,[-0.07327165],81,53,easy,minus,dotcolour,alfa,,,78,18,V,R,
482,104,20,11,3,53,27,833,['c'],1,left,['9'],5,131,[0.1137634],94,53,easy,minus,dotcolour,alfa,,,78,18,V,R,
483,105,21,11,3,44,36,900,['c'],1,left,['9'],5,128,[0.08952336],90,44,hard,minus,dotcolour,alfa,,,78,18,V,R,
484,106,22,11,3,36,44,750,['n'],1,right,['9'],5,148,[-0.10313544],92,44,hard,minus,dotcolour,alfa,,,78,18,V,R,
485,107,23,11,3,47,33,1218,['c'],1,left,['9'],5,180,[0.12722264],94,47,medium,minus,dotcolour,alfa,,,78,18,V,R,
486,108,24,11,3,53,27,666,['c'],1,left,['9'],5,137,[0.07036333],85,53,easy,minus,dotcolour,alfa,,,78,18,V,R,
487,109,25,11,3,53,27,633,['c'],1,left,['9'],5,137,[0.06107737],82,53,easy,minus,dotcolour,alfa,,,78,18,V,R,
488,110,26,11,3,53,27,616,['c'],1,left,['9'],5,194,[0.1103385],91,53,easy,minus,dotcolour,alfa,,,78,18,V,R,
489,111,27,11,3,33,47,616,['n'],1,right,['9'],5,207,[-0.08807266],85,47,medium,minus,dotcolour,alfa,,,78,18,V,R,
490,112,28,11,3,47,33,682,['n'],0,left,['9'],5,154,[-0.02115633],62,47,medium,minus,dotcolour,alfa,,,78,18,V,R,
491,113,29,11,3,44,36,933,['c'],1,left,['9'],5,165,[0.11256708],92,44,hard,minus,dotcolour,alfa,,,78,18,V,R,
492,114,30,11,3,33,47,649,['n'],1,right,['9'],5,171,[-0.03152437],67,47,medium,minus,dotcolour,alfa,,,78,18,V,R,
493,115,31,11,3,44,36,883,['n'],0,left,['9'],5,152,[-0.07847309],86,44,hard,minus,dotcolour,alfa,,,78,18,V,R,
494,116,32,11,3,47,33,750,['n'],0,left,['9'],5,298,[-0.03249267],63,47,medium,minus,dotcolour,alfa,,,78,18,V,R,
495,117,33,11,3,33,47,868,['n'],1,right,['9'],5,194,[-0.03805178],69,47,medium,minus,dotcolour,alfa,,,78,18,V,R,
496,118,34,11,3,47,33,1719,['n'],0,left,['8'],4,500,[-0.12379334],83,47,medium,minus,dotcolour,alfa,,,78,18,V,R,
497,119,35,11,3,44,36,865,['n'],0,left,['9'],5,203,[-0.03754127],68,44,hard,minus,dotcolour,alfa,,,78,18,V,R,
498,120,36,11,3,47,33,1015,['c'],1,left,['8'],4,233,[0.14153688],93,47,medium,minus,dotcolour,alfa,,,78,18,V,R,
499,121,37,11,3,36,44,1301,['c'],0,right,['8'],4,386,[0.09306228],79,44,hard,minus,dotcolour,alfa,,,78,18,V,R,
500,122,38,11,3,36,44,833,['n'],1,right,['9'],5,328,[-0.04189365],66,44,hard,minus,dotcolour,alfa,,,78,18,V,R,
501,123,39,11,3,44,36,932,['c'],1,left,['9'],5,284,[0.07816549],79,44,hard,minus,dotcolour,alfa,,,78,18,V,R,
502,124,40,11,3,27,53,816,['n'],1,right,['9'],5,182,[-0.08229516],85,53,easy,minus,dotcolour,alfa,,,78,18,V,R,
503,125,41,11,3,27,53,1017,['n'],1,right,['9'],5,237,[-0.11429022],89,53,easy,minus,dotcolour,alfa,,,78,18,V,R,
504,0,0,12,4,44,36,835,['c'],1,left,['9'],5,191,[0.18204281],100,44,hard,plus,dotcolour,alfa,,,78,18,V,R,
505,1,1,12,4,36,44,999,['n'],1,right,['9'],5,182,[-0.11321964],100,44,hard,plus,dotcolour,alfa,,,78,18,V,R,
506,2,2,12,4,47,33,815,['c'],1,left,['9'],5,173,[0.14616879],100,47,medium,plus,dotcolour,alfa,,,78,18,V,R,
507,3,3,12,4,27,53,749,['n'],1,right,['9'],5,246,[-0.11680418],100,53,easy,plus,dotcolour,alfa,,,78,18,V,R,
508,4,4,12,4,53,27,698,['c'],1,left,['9'],5,151,[0.10881428],100,53,easy,plus,dotcolour,alfa,,,78,18,V,R,
509,5,5,12,4,47,33,601,['c'],1,left,['9'],5,152,[0.05837179],100,47,medium,plus,dotcolour,alfa,,,78,18,V,R,
510,6,6,12,4,36,44,650,['n'],1,right,['9'],5,166,[-0.09330141],100,44,hard,plus,dotcolour,alfa,,,78,18,V,R,
511,7,7,12,4,33,47,700,['n'],1,right,['9'],5,194,[-0.08745632],100,47,medium,plus,dotcolour,alfa,,,78,18,V,R,
512,8,8,12,4,27,53,864,['n'],1,right,['9'],5,319,[-0.23036704],100,53,easy,plus,dotcolour,alfa,,,78,18,V,R,
513,9,9,12,4,33,47,900,['n'],1,right,['9'],5,253,[-0.01630287],76,47,medium,plus,dotcolour,alfa,,,78,18,V,R,
514,10,10,12,4,27,53,682,['n'],1,right,['9'],5,150,[-0.07144173],100,53,easy,plus,dotcolour,alfa,,,78,18,V,R,
515,11,11,12,4,44,36,667,['c'],1,left,['9'],5,220,[0.12577534],100,44,hard,plus,dotcolour,alfa,,,78,18,V,R,
516,12,12,12,4,27,53,849,['n'],1,right,['9'],5,152,[-0.03276019],95,53,easy,plus,dotcolour,alfa,,,78,18,V,R,
517,13,13,12,4,53,27,717,['c'],1,left,['9'],5,172,[0.12127284],100,53,easy,plus,dotcolour,alfa,,,78,18,V,R,
518,14,14,12,4,27,53,768,['n'],1,right,['9'],5,158,[-0.07157439],100,53,easy,plus,dotcolour,alfa,,,78,18,V,R,
519,15,15,12,4,36,44,835,['c'],0,right,['9'],5,140,[0.07071599],100,44,hard,plus,dotcolour,alfa,,,78,18,V,R,
520,16,16,12,4,44,36,833,['c'],1,left,['9'],5,140,[0.02088065],88,44,hard,plus,dotcolour,alfa,,,78,18,V,R,
521,17,17,12,4,33,47,699,['n'],1,right,['9'],5,242,[-0.15786086],100,47,medium,plus,dotcolour,alfa,,,78,18,V,R,
522,18,18,12,4,53,27,698,['c'],1,left,['9'],5,171,[0.10565902],100,53,easy,plus,dotcolour,alfa,,,78,18,V,R,
523,19,19,12,4,47,33,867,['n'],0,left,['9'],5,400,[-0.04251639],92,47,medium,plus,dotcolour,alfa,,,78,18,V,R,
524,20,20,12,4,27,53,649,['n'],1,right,['9'],5,165,[0.00115494],47,53,easy,plus,dotcolour,alfa,,,78,18,V,R,
525,21,21,12,4,36,44,850,['n'],1,right,['9'],5,187,[-0.02948331],92,44,hard,plus,dotcolour,alfa,,,78,18,V,R,
526,22,22,12,4,44,36,950,['c'],1,left,['8'],4,243,[0.136498],100,44,hard,plus,dotcolour,alfa,,,78,18,V,R,
527,23,23,12,4,47,33,800,['c'],1,left,['8'],4,168,[0.15137278],100,47,medium,plus,dotcolour,alfa,,,78,18,V,R,
528,24,24,12,4,53,27,716,['c'],1,left,['8'],4,164,[0.15613595],100,53,easy,plus,dotcolour,alfa,,,78,18,V,R,
529,25,25,12,4,33,47,766,['n'],1,right,['8'],4,357,[-0.0574745],97,47,medium,plus,dotcolour,alfa,,,78,18,V,R,
530,26,26,12,4,53,27,649,['c'],1,left,['8'],4,179,[0.01451919],77,53,easy,plus,dotcolour,alfa,,,78,18,V,R,
531,27,27,12,4,47,33,1217,['c'],1,left,['8'],4,178,[0.07459336],100,47,medium,plus,dotcolour,alfa,,,78,18,V,R,
532,28,28,12,4,33,47,549,['n'],1,right,['8'],4,316,[-0.12248375],100,47,medium,plus,dotcolour,alfa,,,78,18,V,R,
533,29,29,12,4,44,36,683,['c'],1,left,['8'],4,162,[0.13370365],100,44,hard,plus,dotcolour,alfa,,,78,18,V,R,
534,30,30,12,4,27,53,683,['n'],1,right,['8'],4,192,[-0.06211487],99,53,easy,plus,dotcolour,alfa,,,78,18,V,R,
535,31,31,12,4,53,27,633,['c'],1,left,['8'],4,197,[0.10221857],100,53,easy,plus,dotcolour,alfa,,,78,18,V,R,
536,32,32,12,4,36,44,718,['n'],1,right,['8'],4,215,[-0.11109992],100,44,hard,plus,dotcolour,alfa,,,78,18,V,R,
537,33,33,12,4,44,36,817,['c'],1,left,['9'],5,189,[0.07862118],100,44,hard,plus,dotcolour,alfa,,,78,18,V,R,
538,34,34,12,4,53,27,600,['c'],1,left,['9'],5,156,[0.11324674],100,53,easy,plus,dotcolour,alfa,,,78,18,V,R,
539,35,35,12,4,47,33,833,['c'],1,left,['9'],5,178,[0.00838163],67,47,medium,plus,dotcolour,alfa,,,78,18,V,R,
540,36,36,12,4,36,44,800,['n'],1,right,['8'],4,322,[-0.06271088],98,44,hard,plus,dotcolour,alfa,,,78,18,V,R,
541,37,37,12,4,33,47,616,['c'],0,right,['9'],5,187,[0.07136924],100,47,medium,plus,dotcolour,alfa,,,78,18,V,R,
542,38,38,12,4,47,33,600,['n'],0,left,['9'],5,322,[-0.09751875],100,47,medium,plus,dotcolour,alfa,,,78,18,V,R,
543,39,39,12,4,36,44,701,['c'],0,right,['8'],4,192,[0.01312937],75,44,hard,plus,dotcolour,alfa,,,78,18,V,R,
544,40,40,12,4,44,36,1067,['c'],1,left,['8'],4,180,[0.04448637],98,44,hard,plus,dotcolour,alfa,,,78,18,V,R,
545,41,41,12,4,33,47,784,['n'],1,right,['8'],4,196,[-0.04588738],98,47,medium,plus,dotcolour,alfa,,,78,18,V,R,
546,42,0,13,4,47,33,768,['c'],1,left,['9'],5,186,[0.08580672],100,47,medium,plus,dotcolour,alfa,,,78,18,V,R,
547,43,1,13,4,53,27,668,['c'],1,left,['8'],4,520,[0.06496648],96,53,easy,plus,dotcolour,alfa,,,78,18,V,R,
548,44,2,13,4,44,36,766,['c'],1,left,['9'],5,154,[0.0551062],99,44,hard,plus,dotcolour,alfa,,,78,18,V,R,
549,45,3,13,4,44,36,799,['n'],0,left,['8'],4,234,[-0.13330789],100,44,hard,plus,dotcolour,alfa,,,78,18,V,R,
550,46,4,13,4,47,33,718,['n'],0,left,['8'],4,155,[-0.08041927],100,47,medium,plus,dotcolour,alfa,,,78,18,V,R,
551,47,5,13,4,36,44,800,['n'],1,right,['8'],4,196,[-0.03515956],95,44,hard,plus,dotcolour,alfa,,,78,18,V,R,
552,48,6,13,4,47,33,783,['c'],1,left,['8'],4,171,[0.05859166],99,47,medium,plus,dotcolour,alfa,,,78,18,V,R,
553,49,7,13,4,33,47,633,['c'],0,right,['8'],4,169,[0.03535087],96,47,medium,plus,dotcolour,alfa,,,78,18,V,R,
554,50,8,13,4,33,47,566,['c'],0,right,['8'],4,251,[0.07012386],99,47,medium,plus,dotcolour,alfa,,,78,18,V,R,
555,51,9,13,4,36,44,766,['n'],1,right,['8'],4,217,[-0.06690892],99,44,hard,plus,dotcolour,alfa,,,78,18,V,R,
556,52,10,13,4,27,53,819,['n'],1,right,['8'],4,223,[-0.13966747],100,53,easy,plus,dotcolour,alfa,,,78,18,V,R,
557,53,11,13,4,27,53,932,['n'],1,right,['9'],5,222,[-0.1046668],100,53,easy,plus,dotcolour,alfa,,,78,18,V,R,
558,54,12,13,4,33,47,868,['n'],1,right,['9'],5,177,[-0.0924581],100,47,medium,plus,dotcolour,alfa,,,78,18,V,R,
559,55,13,13,4,27,53,667,['n'],1,right,['9'],5,141,[-0.08376661],100,53,easy,plus,dotcolour,alfa,,,78,18,V,R,
560,56,14,13,4,47,33,618,['c'],1,left,['9'],5,182,[0.13654253],100,47,medium,plus,dotcolour,alfa,,,78,18,V,R,
561,57,15,13,4,47,33,765,['c'],1,left,['9'],5,135,[0.06619558],100,47,medium,plus,dotcolour,alfa,,,78,18,V,R,
562,58,16,13,4,53,27,483,['c'],1,left,['0'],6,190,[0.10835823],100,53,easy,plus,dotcolour,alfa,,,78,18,V,R,
563,59,17,13,4,33,47,650,['n'],1,right,['9'],5,291,[-0.06195918],98,47,medium,plus,dotcolour,alfa,,,78,18,V,R,
564,60,18,13,4,36,44,834,['n'],1,right,['0'],6,236,[-0.12108673],100,44,hard,plus,dotcolour,alfa,,,78,18,V,R,
565,61,19,13,4,53,27,733,['c'],1,left,['9'],5,204,[0.10365622],100,53,easy,plus,dotcolour,alfa,,,78,18,V,R,
566,62,20,13,4,36,44,1684,['n'],1,right,['9'],5,222,[-0.06108925],99,44,hard,plus,dotcolour,alfa,,,78,18,V,R,
567,63,21,13,4,33,47,716,['n'],1,right,['9'],5,200,[-0.03967364],96,47,medium,plus,dotcolour,alfa,,,78,18,V,R,
568,64,22,13,4,53,27,616,['c'],1,left,['0'],6,399,[0.01906291],75,53,easy,plus,dotcolour,alfa,,,78,18,V,R,
569,65,23,13,4,36,44,1018,['n'],1,right,['0'],6,284,[-0.14491041],100,44,hard,plus,dotcolour,alfa,,,78,18,V,R,
570,66,24,13,4,44,36,684,['c'],1,left,['9'],5,236,[0.18220315],100,44,hard,plus,dotcolour,alfa,,,78,18,V,R,
571,67,25,13,4,47,33,1350,['c'],1,left,['8'],4,627,[0.09441573],99,47,medium,plus,dotcolour,alfa,,,78,18,V,R,
572,68,26,13,4,36,44,733,['n'],1,right,['9'],5,531,[-0.03421022],84,44,hard,plus,dotcolour,alfa,,,78,18,V,R,
573,69,27,13,4,33,47,717,['n'],1,right,['9'],5,215,[-0.13829763],100,47,medium,plus,dotcolour,alfa,,,78,18,V,R,
574,70,28,13,4,33,47,550,['c'],0,right,['3'],3,1056,[-0.00034271],50,47,medium,plus,dotcolour,alfa,,,78,18,V,R,
575,71,29,13,4,27,53,783,['n'],1,right,['9'],5,268,[-0.09566195],100,53,easy,plus,dotcolour,alfa,,,78,18,V,R,
576,72,30,13,4,27,53,884,['n'],1,right,['9'],5,268,[-0.09965102],100,53,easy,plus,dotcolour,alfa,,,78,18,V,R,
577,73,31,13,4,27,53,649,['n'],1,right,['9'],5,254,[-0.0668021],99,53,easy,plus,dotcolour,alfa,,,78,18,V,R,
578,74,32,13,4,44,36,849,['n'],0,left,['9'],5,177,[-0.06755417],100,44,hard,plus,dotcolour,alfa,,,78,18,V,R,
579,75,33,13,4,44,36,700,['c'],1,left,['9'],5,205,[0.04813629],98,44,hard,plus,dotcolour,alfa,,,78,18,V,R,
580,76,34,13,4,53,27,649,['n'],0,left,['3'],3,1770,[0.14876071],2,53,easy,plus,dotcolour,alfa,,,78,18,V,R,
581,77,35,13,4,53,27,1000,['c'],1,left,['9'],5,263,[0.17539567],100,53,easy,plus,dotcolour,alfa,,,78,18,V,R,
582,78,36,13,4,47,33,751,['c'],1,left,['9'],5,221,[0.1093063],100,47,medium,plus,dotcolour,alfa,,,78,18,V,R,
583,79,37,13,4,53,27,650,['c'],1,left,['9'],5,201,[0.14704438],100,53,easy,plus,dotcolour,alfa,,,78,18,V,R,
584,80,38,13,4,36,44,701,['n'],1,right,['9'],5,203,[-0.01465728],76,44,hard,plus,dotcolour,alfa,,,78,18,V,R,
585,81,39,13,4,44,36,932,['n'],0,left,['9'],5,188,[-0.02077297],85,44,hard,plus,dotcolour,alfa,,,78,18,V,R,
586,82,40,13,4,44,36,699,['c'],1,left,['9'],5,174,[0.09161403],100,44,hard,plus,dotcolour,alfa,,,78,18,V,R,
587,83,41,13,4,27,53,716,['n'],1,right,['9'],5,178,[-0.15017965],100,53,easy,plus,dotcolour,alfa,,,78,18,V,R,
588,84,0,14,4,44,36,751,['c'],1,left,['8'],4,538,[0.05682842],94,44,hard,plus,dotcolour,alfa,,,78,18,V,R,
589,85,1,14,4,27,53,1334,['c'],0,right,['8'],4,268,[-0.00208937],46,53,easy,plus,dotcolour,alfa,,,78,18,V,R,
590,86,2,14,4,33,47,848,['n'],1,right,['8'],4,231,[-0.05269782],98,47,medium,plus,dotcolour,alfa,,,78,18,V,R,
591,87,3,14,4,36,44,717,['n'],1,right,['8'],4,255,[-0.15459119],100,44,hard,plus,dotcolour,alfa,,,78,18,V,R,
592,88,4,14,4,47,33,649,['c'],1,left,['8'],4,258,[0.17721591],100,47,medium,plus,dotcolour,alfa,,,78,18,V,R,
593,89,5,14,4,53,27,1051,['c'],1,left,['8'],4,228,[0.12009075],100,53,easy,plus,dotcolour,alfa,,,78,18,V,R,
594,90,6,14,4,47,33,701,['n'],0,left,['9'],5,261,[-0.02776251],88,47,medium,plus,dotcolour,alfa,,,78,18,V,R,
595,91,7,14,4,36,44,784,['n'],1,right,['9'],5,226,[-0.13402359],100,44,hard,plus,dotcolour,alfa,,,78,18,V,R,
596,92,8,14,4,44,36,834,['c'],1,left,['9'],5,222,[0.10796739],100,44,hard,plus,dotcolour,alfa,,,78,18,V,R,
597,93,9,14,4,33,47,800,['n'],1,right,['9'],5,211,[-0.07448775],100,47,medium,plus,dotcolour,alfa,,,78,18,V,R,
598,94,10,14,4,53,27,666,['c'],1,left,['9'],5,176,[0.06680186],100,53,easy,plus,dotcolour,alfa,,,78,18,V,R,
599,95,11,14,4,33,47,799,['n'],1,right,['9'],5,190,[-0.01171086],72,47,medium,plus,dotcolour,alfa,,,78,18,V,R,
600,96,12,14,4,47,33,666,['c'],1,left,['9'],5,170,[0.01796128],83,47,medium,plus,dotcolour,alfa,,,78,18,V,R,
601,97,13,14,4,53,27,1033,['n'],0,left,['9'],5,194,[-0.0955814],100,53,easy,plus,dotcolour,alfa,,,78,18,V,R,
602,98,14,14,4,36,44,883,['n'],1,right,['9'],5,172,[-0.08556029],100,44,hard,plus,dotcolour,alfa,,,78,18,V,R,
603,99,15,14,4,36,44,801,['n'],1,right,['9'],5,237,[-0.07858612],100,44,hard,plus,dotcolour,alfa,,,78,18,V,R,
604,100,16,14,4,36,44,1082,['c'],0,right,['9'],5,143,[0.07883054],100,44,hard,plus,dotcolour,alfa,,,78,18,V,R,
605,101,17,14,4,47,33,598,['c'],1,left,['9'],5,128,[0.10251053],100,47,medium,plus,dotcolour,alfa,,,78,18,V,R,
606,102,18,14,4,53,27,650,['c'],1,left,['9'],5,151,[0.04729997],99,53,easy,plus,dotcolour,alfa,,,78,18,V,R,
607,103,19,14,4,44,36,798,['c'],1,left,['9'],5,176,[0.03685424],96,44,hard,plus,dotcolour,alfa,,,78,18,V,R,
608,104,20,14,4,47,33,715,['c'],1,left,['9'],5,178,[0.11339107],100,47,medium,plus,dotcolour,alfa,,,78,18,V,R,
609,105,21,14,4,47,33,800,['c'],1,left,['9'],5,178,[0.17662841],100,47,medium,plus,dotcolour,alfa,,,78,18,V,R,
610,106,22,14,4,33,47,916,['n'],1,right,['9'],5,228,[-0.12666088],100,47,medium,plus,dotcolour,alfa,,,78,18,V,R,
611,107,23,14,4,44,36,866,['c'],1,left,['9'],5,183,[0.09994736],100,44,hard,plus,dotcolour,alfa,,,78,18,V,R,
612,108,24,14,4,33,47,665,['n'],1,right,['9'],5,212,[-0.08172772],100,47,medium,plus,dotcolour,alfa,,,78,18,V,R,
613,109,25,14,4,36,44,1083,['n'],1,right,['9'],5,238,[-0.05096859],98,44,hard,plus,dotcolour,alfa,,,78,18,V,R,
614,110,26,14,4,33,47,1417,['n'],1,right,['8'],4,394,[-0.12000211],100,47,medium,plus,dotcolour,alfa,,,78,18,V,R,
615,111,27,14,4,27,53,602,['n'],1,right,['8'],4,169,[-0.0141592],78,53,easy,plus,dotcolour,alfa,,,78,18,V,R,
616,112,28,14,4,36,44,917,['n'],1,right,['9'],5,221,[-0.17461816],100,44,hard,plus,dotcolour,alfa,,,78,18,V,R,
617,113,29,14,4,44,36,1066,['c'],1,left,['9'],5,200,[0.07595475],100,44,hard,plus,dotcolour,alfa,,,78,18,V,R,
618,114,30,14,4,33,47,782,['c'],0,right,['9'],5,175,[0.01757416],82,47,medium,plus,dotcolour,alfa,,,78,18,V,R,
619,115,31,14,4,53,27,767,['c'],1,left,['9'],5,136,[0.04021026],98,53,easy,plus,dotcolour,alfa,,,78,18,V,R,
620,116,32,14,4,27,53,685,['c'],0,right,['1'],1,1559,[-0.09810187],6,53,easy,plus,dotcolour,alfa,,,78,18,V,R,
621,117,33,14,4,53,27,1301,['c'],1,left,['9'],5,169,[0.13104913],100,53,easy,plus,dotcolour,alfa,,,78,18,V,R,
622,118,34,14,4,44,36,799,['c'],1,left,['9'],5,145,[0.0883699],100,44,hard,plus,dotcolour,alfa,,,78,18,V,R,
623,119,35,14,4,53,27,916,['c'],1,left,['9'],5,365,[0.14992007],100,53,easy,plus,dotcolour,alfa,,,78,18,V,R,
624,120,36,14,4,27,53,785,['n'],1,right,['9'],5,341,[-0.07219474],99,53,easy,plus,dotcolour,alfa,,,78,18,V,R,
625,121,37,14,4,44,36,932,['c'],1,left,['9'],5,248,[0.11244804],100,44,hard,plus,dotcolour,alfa,,,78,18,V,R,
626,122,38,14,4,47,33,767,['c'],1,left,['9'],5,207,[0.09736654],100,47,medium,plus,dotcolour,alfa,,,78,18,V,R,
627,123,39,14,4,27,53,783,['n'],1,right,['9'],5,230,[-0.19111949],100,53,easy,plus,dotcolour,alfa,,,78,18,V,R,
628,124,40,14,4,27,53,765,['n'],1,right,['9'],5,213,[-0.16848109],100,53,easy,plus,dotcolour,alfa,,,78,18,V,R,
629,125,41,14,4,27,53,934,['n'],1,right,['0'],6,589,[-0.26752946],100,53,easy,plus,dotcolour,alfa,,,78,18,V,R,
630,0,0,15,5,53,27,751,['c'],1,left,['9'],5,292,[0.12847111],89,53,easy,minus,dotcolour,alfa,,,78,18,V,R,
631,1,1,15,5,53,27,799,['c'],1,left,['9'],5,255,[0.14932919],93,53,easy,minus,dotcolour,alfa,,,78,18,V,R,
632,2,2,15,5,27,53,652,['n'],1,right,['9'],5,234,[-0.08311583],82,53,easy,minus,dotcolour,alfa,,,78,18,V,R,
633,3,3,15,5,44,36,801,['c'],1,left,['9'],5,199,[0.0972705],88,44,hard,minus,dotcolour,alfa,,,78,18,V,R,
634,4,4,15,5,36,44,868,['n'],1,right,['8'],4,235,[-0.04872345],71,44,hard,minus,dotcolour,alfa,,,78,18,V,R,
635,5,5,15,5,27,53,568,['n'],1,right,['8'],4,194,[-0.14049612],95,53,easy,minus,dotcolour,alfa,,,78,18,V,R,
636,6,6,15,5,33,47,751,['n'],1,right,['8'],4,203,[-0.06558306],79,47,medium,minus,dotcolour,alfa,,,78,18,V,R,
637,7,7,15,5,33,47,833,['n'],1,right,['8'],4,184,[-0.07102311],82,47,medium,minus,dotcolour,alfa,,,78,18,V,R,
638,8,8,15,5,36,44,784,['n'],1,right,['9'],5,201,[-0.08658743],85,44,hard,minus,dotcolour,alfa,,,78,18,V,R,
639,9,9,15,5,33,47,767,['n'],1,right,['9'],5,361,[-0.02172673],58,47,medium,minus,dotcolour,alfa,,,78,18,V,R,
640,10,10,15,5,44,36,1133,['c'],1,left,['9'],5,259,[0.06152778],75,44,hard,minus,dotcolour,alfa,,,78,18,V,R,
641,11,11,15,5,47,33,1016,['c'],1,left,['9'],5,206,[0.10345105],89,47,medium,minus,dotcolour,alfa,,,78,18,V,R,
642,12,12,15,5,33,47,984,['n'],1,right,['9'],5,230,[-0.09495865],86,47,medium,minus,dotcolour,alfa,,,78,18,V,R,
643,13,13,15,5,53,27,616,['c'],1,left,['9'],5,195,[0.12537571],93,53,easy,minus,dotcolour,alfa,,,78,18,V,R,
644,14,14,15,5,27,53,552,['n'],1,right,['9'],5,187,[-0.14145529],95,53,easy,minus,dotcolour,alfa,,,78,18,V,R,
645,15,15,15,5,53,27,682,['c'],1,left,['9'],5,184,[0.06706592],80,53,easy,minus,dotcolour,alfa,,,78,18,V,R,
646,16,16,15,5,44,36,799,['c'],1,left,['9'],5,143,[0.07512653],86,44,hard,minus,dotcolour,alfa,,,78,18,V,R,
647,17,17,15,5,53,27,783,['c'],1,left,['9'],5,201,[0.08105346],84,53,easy,minus,dotcolour,alfa,,,78,18,V,R,
648,18,18,15,5,33,47,1217,['n'],1,right,['9'],5,1598,[-0.08113164],64,47,medium,minus,dotcolour,alfa,,,78,18,V,R,
649,19,19,15,5,36,44,751,['n'],1,right,['9'],5,189,[-0.09728292],88,44,hard,minus,dotcolour,alfa,,,78,18,V,R,
650,20,20,15,5,27,53,667,['n'],1,right,['9'],5,186,[-0.11615657],92,53,easy,minus,dotcolour,alfa,,,78,18,V,R,
651,21,21,15,5,27,53,667,['n'],1,right,['9'],5,151,[-0.12491008],95,53,easy,minus,dotcolour,alfa,,,78,18,V,R,
652,22,22,15,5,53,27,632,['c'],1,left,['9'],5,174,[0.19321787],98,53,easy,minus,dotcolour,alfa,,,78,18,V,R,
653,23,23,15,5,44,36,650,['c'],1,left,['9'],5,132,[0.10506186],93,44,hard,minus,dotcolour,alfa,,,78,18,V,R,
654,24,24,15,5,27,53,749,['n'],1,right,['9'],5,168,[-0.05284531],76,53,easy,minus,dotcolour,alfa,,,78,18,V,R,
655,25,25,15,5,36,44,1100,['c'],0,right,['8'],4,164,[0.02164783],62,44,hard,minus,dotcolour,alfa,,,78,18,V,R,
656,26,26,15,5,44,36,966,['c'],1,left,['8'],4,245,[0.05387594],73,44,hard,minus,dotcolour,alfa,,,78,18,V,R,
657,27,27,15,5,36,44,951,['n'],1,right,['8'],4,332,[-0.16263543],93,44,hard,minus,dotcolour,alfa,,,78,18,V,R,
658,28,28,15,5,44,36,799,['c'],1,left,['8'],4,213,[-0.01585751],42,44,hard,minus,dotcolour,alfa,,,78,18,V,R,
659,29,29,15,5,36,44,867,['n'],1,right,['8'],4,224,[-0.12961592],92,44,hard,minus,dotcolour,alfa,,,78,18,V,R,
660,30,30,15,5,27,53,599,['n'],1,right,['9'],5,214,[0.00497361],48,53,easy,minus,dotcolour,alfa,,,78,18,V,R,
661,31,31,15,5,53,27,734,['c'],1,left,['9'],5,223,[0.11393226],90,53,easy,minus,dotcolour,alfa,,,78,18,V,R,
662,32,32,15,5,47,33,800,['c'],1,left,['9'],5,244,[0.0600014],75,47,medium,minus,dotcolour,alfa,,,78,18,V,R,
663,33,33,15,5,47,33,1165,['c'],1,left,['8'],4,170,[0.05553877],77,47,medium,minus,dotcolour,alfa,,,78,18,V,R,
664,34,34,15,5,33,47,667,['n'],1,right,['8'],4,471,[-0.1724743],91,47,medium,minus,dotcolour,alfa,,,78,18,V,R,
665,35,35,15,5,36,44,750,['n'],1,right,['8'],4,220,[-0.09899687],87,44,hard,minus,dotcolour,alfa,,,78,18,V,R,
666,36,36,15,5,33,47,799,['n'],1,right,['8'],4,178,[-0.11578258],92,47,medium,minus,dotcolour,alfa,,,78,18,V,R,
667,37,37,15,5,47,33,734,['c'],1,left,['8'],4,172,[0.19326039],99,47,medium,minus,dotcolour,alfa,,,78,18,V,R,
668,38,38,15,5,47,33,916,['n'],0,left,['8'],4,183,[0.01461048],42,47,medium,minus,dotcolour,alfa,,,78,18,V,R,
669,39,39,15,5,44,36,716,['c'],1,left,['8'],4,226,[0.13791868],93,44,hard,minus,dotcolour,alfa,,,78,18,V,R,
670,40,40,15,5,47,33,815,['c'],1,left,['9'],5,327,[0.12183945],87,47,medium,minus,dotcolour,alfa,,,78,18,V,R,
671,41,41,15,5,47,33,667,['c'],1,left,['9'],5,181,[0.15556817],96,47,medium,minus,dotcolour,alfa,,,78,18,V,R,
672,42,0,16,5,33,47,801,['n'],1,right,['8'],4,213,[0.00494018],48,47,medium,minus,dotcolour,alfa,,,78,18,V,R,
673,43,1,16,5,53,27,668,['c'],1,left,['9'],5,177,[0.0894323],87,53,easy,minus,dotcolour,alfa,,,78,18,V,R,
674,44,2,16,5,33,47,733,['n'],1,right,['9'],5,219,[-0.04467959],70,47,medium,minus,dotcolour,alfa,,,78,18,V,R,
675,45,3,16,5,36,44,666,['n'],1,right,['9'],5,222,[-0.01586216],58,44,hard,minus,dotcolour,alfa,,,78,18,V,R,
676,46,4,16,5,36,44,1049,['c'],0,right,['9'],5,177,[0.05058713],75,44,hard,minus,dotcolour,alfa,,,78,18,V,R,
677,47,5,16,5,44,36,1119,['c'],1,left,['9'],5,244,[0.07675448],80,44,hard,minus,dotcolour,alfa,,,78,18,V,R,
678,48,6,16,5,47,33,617,['c'],1,left,['9'],5,200,[0.10873668],90,47,medium,minus,dotcolour,alfa,,,78,18,V,R,
679,49,7,16,5,27,53,766,['n'],1,right,['9'],5,336,[-0.17998022],94,53,easy,minus,dotcolour,alfa,,,78,18,V,R,
680,50,8,16,5,53,27,532,['c'],1,left,['0'],6,461,[0.01623381],55,53,easy,minus,dotcolour,alfa,,,78,18,V,R,
681,51,9,16,5,53,27,832,['c'],1,left,['0'],6,215,[0.08593692],84,53,easy,minus,dotcolour,alfa,,,78,18,V,R,
682,52,10,16,5,53,27,735,['c'],1,left,['0'],6,216,[0.09881587],87,53,easy,minus,dotcolour,alfa,,,78,18,V,R,
683,53,11,16,5,44,36,1000,['n'],0,left,['9'],5,238,[-0.11961556],90,44,hard,minus,dotcolour,alfa,,,78,18,V,R,
684,54,12,16,5,36,44,700,['n'],1,right,['9'],5,143,[-0.10786418],93,44,hard,minus,dotcolour,alfa,,,78,18,V,R,
685,55,13,16,5,27,53,783,['n'],1,right,['0'],6,304,[-0.05400061],71,53,easy,minus,dotcolour,alfa,,,78,18,V,R,
686,56,14,16,5,53,27,682,['c'],1,left,['0'],6,223,[0.06051672],76,53,easy,minus,dotcolour,alfa,,,78,18,V,R,
687,57,15,16,5,47,33,850,['c'],1,left,['0'],6,187,[0.08099052],84,47,medium,minus,dotcolour,alfa,,,78,18,V,R,
688,58,16,16,5,44,36,901,['n'],0,left,['0'],6,205,[-0.05812444],76,44,hard,minus,dotcolour,alfa,,,78,18,V,R,
689,59,17,16,5,47,33,884,['n'],0,left,['0'],6,232,[0.04012744],32,47,medium,minus,dotcolour,alfa,,,78,18,V,R,
690,60,18,16,5,33,47,831,['n'],1,right,['9'],5,236,[-0.18620608],97,47,medium,minus,dotcolour,alfa,,,78,18,V,R,
691,61,19,16,5,53,27,650,['c'],1,left,['9'],5,287,[0.02606714],61,53,easy,minus,dotcolour,alfa,,,78,18,V,R,
692,62,20,16,5,36,44,733,['n'],1,right,['9'],5,213,[-0.17155339],97,44,hard,minus,dotcolour,alfa,,,78,18,V,R,
693,63,21,16,5,47,33,716,['c'],1,left,['9'],5,278,[0.09711606],84,47,medium,minus,dotcolour,alfa,,,78,18,V,R,
694,64,22,16,5,36,44,716,['n'],1,right,['9'],5,253,[-0.20501652],98,44,hard,minus,dotcolour,alfa,,,78,18,V,R,
695,65,23,16,5,44,36,866,['c'],1,left,['9'],5,278,[0.11578254],88,44,hard,minus,dotcolour,alfa,,,78,18,V,R,
696,66,24,16,5,53,27,683,['c'],1,left,['9'],5,190,[0.13399149],94,53,easy,minus,dotcolour,alfa,,,78,18,V,R,
697,67,25,16,5,33,47,799,['n'],1,right,['9'],5,301,[-0.11187845],86,47,medium,minus,dotcolour,alfa,,,78,18,V,R,
698,68,26,16,5,47,33,766,['c'],1,left,['9'],5,224,[0.07507494],81,47,medium,minus,dotcolour,alfa,,,78,18,V,R,
699,69,27,16,5,27,53,749,['n'],1,right,['9'],5,208,[-0.07468022],81,53,easy,minus,dotcolour,alfa,,,78,18,V,R,
700,70,28,16,5,27,53,816,['n'],1,right,['9'],5,189,[-0.1209552],92,53,easy,minus,dotcolour,alfa,,,78,18,V,R,
701,71,29,16,5,33,47,884,['n'],1,right,['9'],5,457,[-0.19828158],93,47,medium,minus,dotcolour,alfa,,,78,18,V,R,
702,72,30,16,5,44,36,800,['n'],0,left,['9'],5,260,[-0.10408731],86,44,hard,minus,dotcolour,alfa,,,78,18,V,R,
703,73,31,16,5,44,36,683,['n'],0,left,['9'],5,213,[0.00856764],46,44,hard,minus,dotcolour,alfa,,,78,18,V,R,
704,74,32,16,5,47,33,632,['c'],1,left,['9'],5,210,[0.11357705],90,47,medium,minus,dotcolour,alfa,,,78,18,V,R,
705,75,33,16,5,36,44,700,['n'],1,right,['9'],5,196,[-0.1105683],90,44,hard,minus,dotcolour,alfa,,,78,18,V,R,
706,76,34,16,5,27,53,866,['n'],1,right,['9'],5,208,[-0.09304],86,53,easy,minus,dotcolour,alfa,,,78,18,V,R,
707,77,35,16,5,44,36,1234,['n'],0,left,['8'],4,205,[-0.01219739],56,44,hard,minus,dotcolour,alfa,,,78,18,V,R,
708,78,36,16,5,33,47,767,['n'],1,right,['9'],5,172,[-0.05601517],77,47,medium,minus,dotcolour,alfa,,,78,18,V,R,
709,79,37,16,5,36,44,864,['n'],1,right,['9'],5,305,[-0.11563985],87,44,hard,minus,dotcolour,alfa,,,78,18,V,R,
710,80,38,16,5,33,47,1466,['c'],0,right,['8'],4,288,[-0.03428832],36,47,medium,minus,dotcolour,alfa,,,78,18,V,R,
711,81,39,16,5,47,33,800,['c'],1,left,['8'],4,715,[0.2451936],93,47,medium,minus,dotcolour,alfa,,,78,18,V,R,
712,82,40,16,5,27,53,632,['c'],0,right,['8'],4,220,[0.01410384],57,53,easy,minus,dotcolour,alfa,,,78,18,V,R,
713,83,41,16,5,27,53,815,['n'],1,right,['8'],4,457,[-0.14499551],87,53,easy,minus,dotcolour,alfa,,,78,18,V,R,
714,84,0,17,5,44,36,650,['n'],0,left,['8'],4,242,[0.00318402],49,44,hard,minus,dotcolour,alfa,,,78,18,V,R,
715,85,1,17,5,27,53,666,['n'],1,right,['8'],4,188,[-0.03888567],69,53,easy,minus,dotcolour,alfa,,,78,18,V,R,
716,86,2,17,5,47,33,750,['c'],1,left,['8'],4,206,[0.15792605],96,47,medium,minus,dotcolour,alfa,,,78,18,V,R,
717,87,3,17,5,44,36,1151,['n'],0,left,['8'],4,229,[-0.13704126],93,44,hard,minus,dotcolour,alfa,,,78,18,V,R,
718,88,4,17,5,47,33,682,['c'],1,left,['8'],4,216,[0.09910054],87,47,medium,minus,dotcolour,alfa,,,78,18,V,R,
719,89,5,17,5,44,36,1018,['c'],1,left,['8'],4,325,[0.14195441],90,44,hard,minus,dotcolour,alfa,,,78,18,V,R,
720,90,6,17,5,53,27,532,['c'],1,left,['8'],4,161,[0.0632765],81,53,easy,minus,dotcolour,alfa,,,78,18,V,R,
721,91,7,17,5,27,53,499,['n'],1,right,['9'],5,406,[-0.18089827],93,53,easy,minus,dotcolour,alfa,,,78,18,V,R,
722,92,8,17,5,53,27,682,['c'],1,left,['0'],6,232,[0.10528133],88,53,easy,minus,dotcolour,alfa,,,78,18,V,R,
723,93,9,17,5,27,53,783,['n'],1,right,['0'],6,262,[-0.03523699],65,53,easy,minus,dotcolour,alfa,,,78,18,V,R,
724,94,10,17,5,27,53,516,['c'],0,right,['1'],1,902,[-0.18944055],14,53,easy,minus,dotcolour,alfa,,,78,18,V,R,
725,95,11,17,5,33,47,799,['n'],1,right,['9'],5,352,[-0.04578789],67,47,medium,minus,dotcolour,alfa,,,78,18,V,R,
726,96,12,17,5,33,47,867,['n'],1,right,['9'],5,246,[-0.03216763],64,47,medium,minus,dotcolour,alfa,,,78,18,V,R,
727,97,13,17,5,53,27,634,['c'],1,left,['9'],5,241,[0.20346606],98,53,easy,minus,dotcolour,alfa,,,78,18,V,R,
728,98,14,17,5,36,44,751,['n'],1,right,['9'],5,200,[-0.06976795],80,44,hard,minus,dotcolour,alfa,,,78,18,V,R,
729,99,15,17,5,33,47,667,['n'],1,right,['0'],6,373,[-0.10575625],83,47,medium,minus,dotcolour,alfa,,,78,18,V,R,
730,100,16,17,5,53,27,617,['c'],1,left,['0'],6,564,[0.10989183],79,53,easy,minus,dotcolour,alfa,,,78,18,V,R,
731,101,17,17,5,36,44,733,['n'],1,right,['9'],5,326,[-0.08094917],78,44,hard,minus,dotcolour,alfa,,,78,18,V,R,
732,102,18,17,5,36,44,802,['n'],1,right,['8'],4,272,[-0.1692523],95,44,hard,minus,dotcolour,alfa,,,78,18,V,R,
733,103,19,17,5,27,53,750,['n'],1,right,['9'],5,254,[0.02019287],41,53,easy,minus,dotcolour,alfa,,,78,18,V,R,
734,104,20,17,5,47,33,917,['n'],0,left,['8'],4,390,[0.00360855],49,47,medium,minus,dotcolour,alfa,,,78,18,V,R,
735,105,21,17,5,53,27,868,['c'],1,left,['9'],5,386,[0.1592329],91,53,easy,minus,dotcolour,alfa,,,78,18,V,R,
736,106,22,17,5,33,47,650,['n'],1,right,['9'],5,590,[-0.03050183],59,47,medium,minus,dotcolour,alfa,,,78,18,V,R,
737,107,23,17,5,47,33,784,['n'],0,left,['9'],5,213,[-0.0004236],50,47,medium,minus,dotcolour,alfa,,,78,18,V,R,
738,108,24,17,5,33,47,567,['n'],1,right,['9'],5,269,[-0.10282528],86,47,medium,minus,dotcolour,alfa,,,78,18,V,R,
739,109,25,17,5,33,47,733,['n'],1,right,['9'],5,244,[-0.10338236],87,47,medium,minus,dotcolour,alfa,,,78,18,V,R,
740,110,26,17,5,36,44,635,['n'],1,right,['9'],5,215,[-0.13319133],93,44,hard,minus,dotcolour,alfa,,,78,18,V,R,
741,111,27,17,5,36,44,982,['n'],1,right,['9'],5,246,[-0.14329233],93,44,hard,minus,dotcolour,alfa,,,78,18,V,R,
742,112,28,17,5,53,27,748,['c'],1,left,['9'],5,173,[0.08230713],86,53,easy,minus,dotcolour,alfa,,,78,18,V,R,
743,113,29,17,5,27,53,701,['n'],1,right,['9'],5,272,[-0.1195967],89,53,easy,minus,dotcolour,alfa,,,78,18,V,R,
744,114,30,17,5,53,27,884,['c'],1,left,['9'],5,218,[0.13241393],93,53,easy,minus,dotcolour,alfa,,,78,18,V,R,
745,115,31,17,5,44,36,750,['c'],1,left,['9'],5,161,[0.08636505],87,44,hard,minus,dotcolour,alfa,,,78,18,V,R,
746,116,32,17,5,44,36,833,['c'],1,left,['9'],5,160,[0.10250252],91,44,hard,minus,dotcolour,alfa,,,78,18,V,R,
747,117,33,17,5,36,44,732,['c'],0,right,['9'],5,131,[0.03288805],69,44,hard,minus,dotcolour,alfa,,,78,18,V,R,
748,118,34,17,5,27,53,567,['c'],0,right,['2'],2,1718,[-0.10529755],33,53,easy,minus,dotcolour,alfa,,,78,18,V,R,
749,119,35,17,5,44,36,1001,['c'],1,left,['9'],5,205,[0.09732511],87,44,hard,minus,dotcolour,alfa,,,78,18,V,R,
750,120,36,17,5,47,33,1450,['n'],0,left,['9'],5,233,[-0.1250028],91,47,medium,minus,dotcolour,alfa,,,78,18,V,R,
751,121,37,17,5,47,33,717,['c'],1,left,['9'],5,234,[0.04233303],69,47,medium,minus,dotcolour,alfa,,,78,18,V,R,
752,122,38,17,5,44,36,752,['c'],1,left,['9'],5,153,[0.07348178],84,44,hard,minus,dotcolour,alfa,,,78,18,V,R,
753,123,39,17,5,47,33,968,['n'],0,left,['9'],5,163,[-0.06087346],80,47,medium,minus,dotcolour,alfa,,,78,18,V,R,
754,124,40,17,5,36,44,1333,['n'],1,right,['8'],4,486,[-0.18117556],91,44,hard,minus,dotcolour,alfa,,,78,18,V,R,
755,125,41,17,5,33,47,684,['n'],1,right,['9'],5,229,[-0.032956],65,47,medium,minus,dotcolour,alfa,,,78,18,V,R,
,,,,,,,,,,,,,,,,,,,,,1,nee,78,18,V,R,
,,,,,,,,,,,,,,,,,,,,,2,['f'],78,18,V,R,
,,,,,,,,,,,,,,,,,,,,,3,['g'],78,18,V,R,
,,,,,,,,,,,,,,,,,,,,,5,['5'],78,18,V,R,
