trial,withinphasetrial,withinblocktrial,block,phase,dotsLeft,dotsRight,rt,resp,cor,cresp,conf_press,cj,RTconf,ev,fb,diff,difflevel,condition,task,manip,questionID,questionResp,sub,age,gender,handedness,
0,0,0,0,0,44,36,1784,['n'],0,left,['8'],4,1810,[-0.11739186],69,44,hard,minus,dotcolour,alfa,,,87,20,M,R,
1,1,1,0,0,27,53,1150,['n'],1,right,['9'],5,756,[-0.06678329],67,53,easy,minus,dotcolour,alfa,,,87,20,M,R,
2,2,2,0,0,53,27,784,['c'],1,left,['9'],5,815,[0.21685655],90,53,easy,minus,dotcolour,alfa,,,87,20,M,R,
3,3,3,0,0,36,44,833,['n'],1,right,['9'],5,599,[-0.14689276],85,44,hard,minus,dotcolour,alfa,,,87,20,M,R,
4,4,4,0,0,33,47,1300,['n'],1,right,['9'],5,556,[-0.03799548],61,47,medium,minus,dotcolour,alfa,,,87,20,M,R,
5,5,5,0,0,27,53,1050,['c'],0,right,['1'],1,1972,[-0.17588067],24,53,easy,minus,dotcolour,alfa,,,87,20,M,R,
6,6,6,0,0,27,53,834,['n'],1,right,['9'],5,549,[-0.07016461],70,53,easy,minus,dotcolour,alfa,,,87,20,M,R,
7,7,7,0,0,36,44,916,['c'],0,right,['8'],4,1132,[0.23771612],88,44,hard,minus,dotcolour,alfa,,,87,20,M,R,
8,8,8,0,0,33,47,1983,['n'],1,right,['8'],4,409,[-0.15529415],90,47,medium,minus,dotcolour,alfa,,,87,20,M,R,
9,9,9,0,0,44,36,917,['c'],1,left,['8'],4,685,[0.08938464],73,44,hard,minus,dotcolour,alfa,,,87,20,M,R,
10,10,10,0,0,47,33,884,['c'],1,left,['8'],4,615,[0.09186533],74,47,medium,minus,dotcolour,alfa,,,87,20,M,R,
11,11,11,0,0,44,36,900,['c'],1,left,['8'],4,436,[0.0957312],79,44,hard,minus,dotcolour,alfa,,,87,20,M,R,
12,12,12,0,0,36,44,1251,['c'],0,right,['8'],4,977,[-0.01976],46,44,hard,minus,dotcolour,alfa,,,87,20,M,R,
13,13,13,0,0,44,36,1367,['c'],1,left,['9'],5,909,[-0.03428336],42,44,hard,minus,dotcolour,alfa,,,87,20,M,R,
14,14,14,0,0,47,33,983,['c'],1,left,['9'],5,467,[0.17139845],91,47,medium,minus,dotcolour,alfa,,,87,20,M,R,
15,15,15,0,0,27,53,817,['n'],1,right,['9'],5,577,[-0.23485882],94,53,easy,minus,dotcolour,alfa,,,87,20,M,R,
16,16,16,0,0,47,33,684,['c'],1,left,['9'],5,495,[0.18256419],91,47,medium,minus,dotcolour,alfa,,,87,20,M,R,
17,17,17,0,0,36,44,867,['c'],0,right,['8'],4,513,[0.0585341],68,44,hard,minus,dotcolour,alfa,,,87,20,M,R,
18,18,18,0,0,53,27,600,['c'],1,left,['8'],4,510,[0.12332605],83,53,easy,minus,dotcolour,alfa,,,87,20,M,R,
19,19,19,0,0,33,47,767,['c'],0,right,['3'],3,1804,[0.09018535],65,47,medium,minus,dotcolour,alfa,,,87,20,M,R,
20,20,20,0,0,53,27,717,['c'],1,left,['8'],4,520,[0.11648874],81,53,easy,minus,dotcolour,alfa,,,87,20,M,R,
21,21,21,0,0,44,36,1267,['n'],0,left,['9'],5,490,[-0.17037636],90,44,hard,minus,dotcolour,alfa,,,87,20,M,R,
22,22,22,0,0,27,53,1118,['n'],1,right,['9'],5,378,[-0.20169615],95,53,easy,minus,dotcolour,alfa,,,87,20,M,R,
23,23,23,0,0,36,44,767,['n'],1,right,['9'],5,382,[-0.05795225],70,44,hard,minus,dotcolour,alfa,,,87,20,M,R,
24,24,24,0,0,47,33,1249,['n'],0,left,['9'],5,414,[-0.10322046],81,47,medium,minus,dotcolour,alfa,,,87,20,M,R,
25,25,25,0,0,53,27,699,['c'],1,left,['0'],6,362,[0.13449298],88,53,easy,minus,dotcolour,alfa,,,87,20,M,R,
26,26,26,0,0,47,33,667,['c'],1,left,['9'],5,434,[-0.03286863],39,47,medium,minus,dotcolour,alfa,,,87,20,M,R,
27,27,27,0,0,44,36,2066,['n'],0,left,['8'],4,536,[0.03033122],41,44,hard,minus,dotcolour,alfa,,,87,20,M,R,
28,28,28,0,0,53,27,600,['c'],1,left,['9'],5,340,[0.09505685],81,53,easy,minus,dotcolour,alfa,,,87,20,M,R,
29,29,29,0,0,47,33,684,['c'],1,left,['8'],4,476,[0.06876657],71,47,medium,minus,dotcolour,alfa,,,87,20,M,R,
30,30,30,0,0,53,27,634,['c'],1,left,['8'],4,352,[0.08517425],78,53,easy,minus,dotcolour,alfa,,,87,20,M,R,
31,31,31,0,0,33,47,683,['n'],1,right,['9'],5,297,[-0.18275099],95,47,medium,minus,dotcolour,alfa,,,87,20,M,R,
32,32,32,0,0,44,36,750,['n'],0,left,['9'],5,352,[-0.03293691],62,44,hard,minus,dotcolour,alfa,,,87,20,M,R,
33,33,33,0,0,47,33,600,['c'],1,left,['9'],5,315,[0.12010659],87,47,medium,minus,dotcolour,alfa,,,87,20,M,R,
34,34,34,0,0,33,47,817,['n'],1,right,['9'],5,455,[-0.04335363],64,47,medium,minus,dotcolour,alfa,,,87,20,M,R,
35,35,35,0,0,33,47,816,['c'],0,right,['3'],3,773,[0.0748417],68,47,medium,minus,dotcolour,alfa,,,87,20,M,R,
36,36,36,0,0,27,53,700,['n'],1,right,['9'],5,307,[-0.01094375],54,53,easy,minus,dotcolour,alfa,,,87,20,M,R,
37,37,37,0,0,27,53,635,['n'],1,right,['9'],5,335,[-0.12315905],87,53,easy,minus,dotcolour,alfa,,,87,20,M,R,
38,38,38,0,0,53,27,1051,['c'],1,left,['9'],5,360,[0.12898954],87,53,easy,minus,dotcolour,alfa,,,87,20,M,R,
39,39,39,0,0,36,44,1133,['n'],1,right,['9'],5,470,[-0.12641719],84,44,hard,minus,dotcolour,alfa,,,87,20,M,R,
40,40,40,0,0,33,47,683,['n'],1,right,['8'],4,393,[-0.157275],91,47,medium,minus,dotcolour,alfa,,,87,20,M,R,
41,41,41,0,0,36,44,667,['n'],1,right,['3'],3,649,[-0.21964936],92,44,hard,minus,dotcolour,alfa,,,87,20,M,R,
42,42,0,1,0,44,36,3034,['n'],0,left,['3'],3,3356,[0.01170642],49,44,hard,minus,dotcolour,alfa,,,87,20,M,R,
43,43,1,1,0,47,33,867,['n'],0,left,['3'],3,676,[-0.01546569],54,47,medium,minus,dotcolour,alfa,,,87,20,M,R,
44,44,2,1,0,27,53,499,['n'],1,right,['8'],4,574,[-0.13844859],84,53,easy,minus,dotcolour,alfa,,,87,20,M,R,
45,45,3,1,0,53,27,733,['c'],1,left,['8'],4,602,[0.14692082],85,53,easy,minus,dotcolour,alfa,,,87,20,M,R,
46,46,4,1,0,53,27,533,['c'],1,left,['9'],5,374,[0.11490477],84,53,easy,minus,dotcolour,alfa,,,87,20,M,R,
47,47,5,1,0,27,53,617,['n'],1,right,['9'],5,312,[-0.09849457],83,53,easy,minus,dotcolour,alfa,,,87,20,M,R,
48,48,6,1,0,44,36,684,['c'],1,left,['9'],5,721,[0.31672768],97,44,hard,minus,dotcolour,alfa,,,87,20,M,R,
49,49,7,1,0,47,33,651,['c'],1,left,['9'],5,307,[0.05775461],72,47,medium,minus,dotcolour,alfa,,,87,20,M,R,
50,50,8,1,0,47,33,1483,['n'],0,left,['3'],3,812,[-0.04659367],61,47,medium,minus,dotcolour,alfa,,,87,20,M,R,
51,51,9,1,0,53,27,801,['c'],1,left,['3'],3,1141,[0.16593931],80,53,easy,minus,dotcolour,alfa,,,87,20,M,R,
52,52,10,1,0,36,44,1067,['n'],1,right,['8'],4,550,[-0.05066888],65,44,hard,minus,dotcolour,alfa,,,87,20,M,R,
53,53,11,1,0,44,36,783,['c'],1,left,['3'],3,570,[0.21199685],93,44,hard,minus,dotcolour,alfa,,,87,20,M,R,
54,54,12,1,0,36,44,733,['c'],0,right,['9'],5,526,[0.11730466],81,44,hard,minus,dotcolour,alfa,,,87,20,M,R,
55,55,13,1,0,33,47,1117,['n'],1,right,['9'],5,286,[0.01480251],44,47,medium,minus,dotcolour,alfa,,,87,20,M,R,
56,56,14,1,0,27,53,833,['n'],1,right,['9'],5,218,[-0.11883282],91,53,easy,minus,dotcolour,alfa,,,87,20,M,R,
57,57,15,1,0,27,53,666,['n'],1,right,['8'],4,305,[-0.16695956],94,53,easy,minus,dotcolour,alfa,,,87,20,M,R,
58,58,16,1,0,44,36,800,['c'],1,left,['9'],5,373,[0.07880195],76,44,hard,minus,dotcolour,alfa,,,87,20,M,R,
59,59,17,1,0,53,27,583,['c'],1,left,['9'],5,401,[0.13423537],87,53,easy,minus,dotcolour,alfa,,,87,20,M,R,
60,60,18,1,0,36,44,683,['n'],1,right,['9'],5,511,[0.00655685],48,44,hard,minus,dotcolour,alfa,,,87,20,M,R,
61,61,19,1,0,36,44,967,['n'],1,right,['9'],5,469,[-0.05502529],67,44,hard,minus,dotcolour,alfa,,,87,20,M,R,
62,62,20,1,0,33,47,850,['n'],1,right,['8'],4,521,[-0.10896166],80,47,medium,minus,dotcolour,alfa,,,87,20,M,R,
63,63,21,1,0,27,53,1017,['n'],1,right,['8'],4,493,[-0.11935981],82,53,easy,minus,dotcolour,alfa,,,87,20,M,R,
64,64,22,1,0,44,36,817,['n'],0,left,['9'],5,409,[-0.08095642],76,44,hard,minus,dotcolour,alfa,,,87,20,M,R,
65,65,23,1,0,53,27,617,['c'],1,left,['9'],5,234,[0.1522929],94,53,easy,minus,dotcolour,alfa,,,87,20,M,R,
66,66,24,1,0,53,27,884,['c'],1,left,['0'],6,366,[0.18677543],94,53,easy,minus,dotcolour,alfa,,,87,20,M,R,
67,67,25,1,0,33,47,817,['n'],1,right,['3'],3,568,[-0.07407824],71,47,medium,minus,dotcolour,alfa,,,87,20,M,R,
68,68,26,1,0,47,33,601,['c'],1,left,['0'],6,394,[0.0295531],60,47,medium,minus,dotcolour,alfa,,,87,20,M,R,
69,69,27,1,0,44,36,750,['n'],0,left,['8'],4,534,[-0.00606493],52,44,hard,minus,dotcolour,alfa,,,87,20,M,R,
70,70,28,1,0,33,47,750,['n'],1,right,['9'],5,501,[-0.13353013],85,47,medium,minus,dotcolour,alfa,,,87,20,M,R,
71,71,29,1,0,47,33,617,['c'],1,left,['0'],6,305,[0.061822],73,47,medium,minus,dotcolour,alfa,,,87,20,M,R,
72,72,30,1,0,36,44,1100,['n'],1,right,['9'],5,458,[-0.11875043],83,44,hard,minus,dotcolour,alfa,,,87,20,M,R,
73,73,31,1,0,44,36,984,['n'],0,left,['8'],4,713,[0.01587037],46,44,hard,minus,dotcolour,alfa,,,87,20,M,R,
74,74,32,1,0,33,47,633,['n'],1,right,['9'],5,548,[-0.22650936],94,47,medium,minus,dotcolour,alfa,,,87,20,M,R,
75,75,33,1,0,47,33,668,['c'],1,left,['0'],6,245,[0.07299627],79,47,medium,minus,dotcolour,alfa,,,87,20,M,R,
76,76,34,1,0,33,47,684,['n'],1,right,['9'],5,265,[-0.09331297],84,47,medium,minus,dotcolour,alfa,,,87,20,M,R,
77,77,35,1,0,47,33,533,['c'],1,left,['0'],6,218,[0.09261378],86,47,medium,minus,dotcolour,alfa,,,87,20,M,R,
78,78,36,1,0,36,44,817,['n'],1,right,['9'],5,354,[-0.14414789],90,44,hard,minus,dotcolour,alfa,,,87,20,M,R,
79,79,37,1,0,53,27,650,['c'],1,left,['0'],6,227,[0.14876441],94,53,easy,minus,dotcolour,alfa,,,87,20,M,R,
80,80,38,1,0,36,44,733,['n'],1,right,['9'],5,294,[-0.1678237],94,44,hard,minus,dotcolour,alfa,,,87,20,M,R,
81,81,39,1,0,33,47,833,['n'],1,right,['9'],5,330,[-0.12695697],88,47,medium,minus,dotcolour,alfa,,,87,20,M,R,
82,82,40,1,0,27,53,767,['n'],1,right,['9'],5,311,[-0.14735959],92,53,easy,minus,dotcolour,alfa,,,87,20,M,R,
83,83,41,1,0,27,53,718,['n'],1,right,['9'],5,159,[-0.15006231],97,53,easy,minus,dotcolour,alfa,,,87,20,M,R,
84,84,0,2,0,36,44,884,['n'],1,right,['8'],4,539,[-0.17339614],89,44,hard,minus,dotcolour,alfa,,,87,20,M,R,
85,85,1,2,0,47,33,632,['c'],1,left,['9'],5,229,[0.08405727],83,47,medium,minus,dotcolour,alfa,,,87,20,M,R,
86,86,2,2,0,44,36,667,['c'],1,left,['8'],4,339,[0.07961203],77,44,hard,minus,dotcolour,alfa,,,87,20,M,R,
87,87,3,2,0,33,47,683,['n'],1,right,['9'],5,163,[-0.12751445],94,47,medium,minus,dotcolour,alfa,,,87,20,M,R,
88,88,4,2,0,27,53,533,['n'],1,right,['9'],5,192,[-0.09434254],87,53,easy,minus,dotcolour,alfa,,,87,20,M,R,
89,89,5,2,0,36,44,700,['n'],1,right,['9'],5,237,[-0.11568774],89,44,hard,minus,dotcolour,alfa,,,87,20,M,R,
90,90,6,2,0,27,53,567,['n'],1,right,['0'],6,255,[-0.1542307],94,53,easy,minus,dotcolour,alfa,,,87,20,M,R,
91,91,7,2,0,27,53,467,['n'],1,right,['0'],6,92,[-0.05661989],84,53,easy,minus,dotcolour,alfa,,,87,20,M,R,
92,92,8,2,0,44,36,633,['c'],1,left,['0'],6,103,[0.07205411],88,44,hard,minus,dotcolour,alfa,,,87,20,M,R,
93,93,9,2,0,53,27,567,['c'],1,left,['0'],6,70,[0.07291607],92,53,easy,minus,dotcolour,alfa,,,87,20,M,R,
94,94,10,2,0,27,53,567,['n'],1,right,['0'],6,62,[-0.10683505],98,53,easy,minus,dotcolour,alfa,,,87,20,M,R,
95,95,11,2,0,33,47,816,['c'],0,right,['3'],3,844,[-0.12010247],24,47,medium,minus,dotcolour,alfa,,,87,20,M,R,
96,96,12,2,0,36,44,683,['n'],1,right,['0'],6,176,[-0.13007481],94,44,hard,minus,dotcolour,alfa,,,87,20,M,R,
97,97,13,2,0,44,36,1550,['n'],0,left,['9'],5,340,[-0.10304152],83,44,hard,minus,dotcolour,alfa,,,87,20,M,R,
98,98,14,2,0,36,44,816,['n'],1,right,['9'],5,159,[0.00015509],50,44,hard,minus,dotcolour,alfa,,,87,20,M,R,
99,99,15,2,0,53,27,550,['c'],1,left,['0'],6,75,[0.05438203],86,53,easy,minus,dotcolour,alfa,,,87,20,M,R,
100,100,16,2,0,44,36,483,['c'],1,left,['0'],6,142,[0.08500998],88,44,hard,minus,dotcolour,alfa,,,87,20,M,R,
101,101,17,2,0,44,36,634,['c'],1,left,['9'],5,112,[0.04398219],77,44,hard,minus,dotcolour,alfa,,,87,20,M,R,
102,102,18,2,0,47,33,566,['c'],1,left,['0'],6,134,[0.07428207],86,47,medium,minus,dotcolour,alfa,,,87,20,M,R,
103,103,19,2,0,33,47,567,['n'],1,right,['9'],5,123,[-0.06526197],84,47,medium,minus,dotcolour,alfa,,,87,20,M,R,
104,104,20,2,0,27,53,533,['c'],0,right,['3'],3,690,[-0.05581157],35,53,easy,minus,dotcolour,alfa,,,87,20,M,R,
105,105,21,2,0,36,44,1516,['c'],0,right,['8'],4,507,[0.04051573],63,44,hard,minus,dotcolour,alfa,,,87,20,M,R,
106,106,22,2,0,27,53,550,['n'],1,right,['9'],5,234,[-0.10550677],88,53,easy,minus,dotcolour,alfa,,,87,20,M,R,
107,107,23,2,0,33,47,666,['c'],0,right,['3'],3,639,[-0.00464697],49,47,medium,minus,dotcolour,alfa,,,87,20,M,R,
108,108,24,2,0,53,27,650,['c'],1,left,['0'],6,92,[0.04626563],80,53,easy,minus,dotcolour,alfa,,,87,20,M,R,
109,109,25,2,0,36,44,683,['n'],1,right,['9'],5,318,[-0.02181091],59,44,hard,minus,dotcolour,alfa,,,87,20,M,R,
110,110,26,2,0,47,33,650,['c'],1,left,['9'],5,185,[0.09566008],88,47,medium,minus,dotcolour,alfa,,,87,20,M,R,
111,111,27,2,0,47,33,600,['c'],1,left,['9'],5,219,[0.10551929],88,47,medium,minus,dotcolour,alfa,,,87,20,M,R,
112,112,28,2,0,33,47,900,['n'],1,right,['9'],5,216,[-0.02550575],62,47,medium,minus,dotcolour,alfa,,,87,20,M,R,
113,113,29,2,0,27,53,517,['n'],1,right,['9'],5,220,[-0.07307437],80,53,easy,minus,dotcolour,alfa,,,87,20,M,R,
114,114,30,2,0,36,44,684,['n'],1,right,['9'],5,225,[-0.12494545],91,44,hard,minus,dotcolour,alfa,,,87,20,M,R,
115,115,31,2,0,53,27,567,['c'],1,left,['0'],6,227,[0.09920441],87,53,easy,minus,dotcolour,alfa,,,87,20,M,R,
116,116,32,2,0,33,47,533,['n'],1,right,['8'],4,269,[-0.03708654],66,47,medium,minus,dotcolour,alfa,,,87,20,M,R,
117,117,33,2,0,53,27,533,['c'],1,left,['0'],6,142,[0.07165369],85,53,easy,minus,dotcolour,alfa,,,87,20,M,R,
118,118,34,2,0,44,36,600,['c'],1,left,['0'],6,194,[0.161497],96,44,hard,minus,dotcolour,alfa,,,87,20,M,R,
119,119,35,2,0,47,33,567,['c'],1,left,['0'],6,92,[0.05729474],85,47,medium,minus,dotcolour,alfa,,,87,20,M,R,
120,120,36,2,0,44,36,600,['c'],1,left,['0'],6,50,[0.08011189],96,44,hard,minus,dotcolour,alfa,,,87,20,M,R,
121,121,37,2,0,53,27,450,['c'],1,left,['0'],6,87,[0.08848398],94,53,easy,minus,dotcolour,alfa,,,87,20,M,R,
122,122,38,2,0,47,33,600,['c'],1,left,['9'],5,245,[0.09181976],84,47,medium,minus,dotcolour,alfa,,,87,20,M,R,
123,123,39,2,0,33,47,600,['c'],0,right,['0'],6,157,[0.14900947],97,47,medium,minus,dotcolour,alfa,,,87,20,M,R,
124,124,40,2,0,47,33,634,['c'],1,left,['0'],6,70,[0.11674001],98,47,medium,minus,dotcolour,alfa,,,87,20,M,R,
125,125,41,2,0,53,27,534,['c'],1,left,['9'],5,175,[0.06250584],79,53,easy,minus,dotcolour,alfa,,,87,20,M,R,
126,0,0,3,1,47,33,901,['c'],1,left,['9'],5,200,[0.04116174],96,47,medium,plus,dotcolour,alfa,,,87,20,M,R,
127,1,1,3,1,36,44,767,['n'],1,right,['9'],5,113,[-0.08470881],100,44,hard,plus,dotcolour,alfa,,,87,20,M,R,
128,2,2,3,1,36,44,701,['n'],1,right,['9'],5,162,[-0.07347531],100,44,hard,plus,dotcolour,alfa,,,87,20,M,R,
129,3,3,3,1,44,36,649,['n'],0,left,['9'],5,147,[-0.11077925],100,44,hard,plus,dotcolour,alfa,,,87,20,M,R,
130,4,4,3,1,44,36,599,['c'],1,left,['0'],6,167,[0.11385107],100,44,hard,plus,dotcolour,alfa,,,87,20,M,R,
131,5,5,3,1,44,36,616,['c'],1,left,['9'],5,97,[0.10728508],100,44,hard,plus,dotcolour,alfa,,,87,20,M,R,
132,6,6,3,1,44,36,1150,['n'],0,left,['9'],5,176,[-0.09195535],100,44,hard,plus,dotcolour,alfa,,,87,20,M,R,
133,7,7,3,1,27,53,583,['n'],1,right,['9'],5,98,[-0.09055807],100,53,easy,plus,dotcolour,alfa,,,87,20,M,R,
134,8,8,3,1,53,27,517,['c'],1,left,['0'],6,83,[0.08267363],100,53,easy,plus,dotcolour,alfa,,,87,20,M,R,
135,9,9,3,1,33,47,850,['n'],1,right,['9'],5,103,[-0.0529988],100,47,medium,plus,dotcolour,alfa,,,87,20,M,R,
136,10,10,3,1,47,33,600,['c'],1,left,['9'],5,101,[0.14023281],100,47,medium,plus,dotcolour,alfa,,,87,20,M,R,
137,11,11,3,1,36,44,716,['n'],1,right,['9'],5,77,[-0.08336357],100,44,hard,plus,dotcolour,alfa,,,87,20,M,R,
138,12,12,3,1,47,33,550,['c'],1,left,['0'],6,69,[0.06235537],100,47,medium,plus,dotcolour,alfa,,,87,20,M,R,
139,13,13,3,1,36,44,617,['c'],0,right,['9'],5,1763,[0.12609058],97,44,hard,plus,dotcolour,alfa,,,87,20,M,R,
140,14,14,3,1,33,47,683,['n'],1,right,['9'],5,90,[-0.04851237],100,47,medium,plus,dotcolour,alfa,,,87,20,M,R,
141,15,15,3,1,27,53,617,['n'],1,right,['9'],5,102,[-0.11353344],100,53,easy,plus,dotcolour,alfa,,,87,20,M,R,
142,16,16,3,1,33,47,533,['n'],1,right,['9'],5,102,[-0.1054698],100,47,medium,plus,dotcolour,alfa,,,87,20,M,R,
143,17,17,3,1,27,53,666,['n'],1,right,['9'],5,81,[-0.0840549],100,53,easy,plus,dotcolour,alfa,,,87,20,M,R,
144,18,18,3,1,36,44,567,['n'],1,right,['0'],6,104,[-0.10656527],100,44,hard,plus,dotcolour,alfa,,,87,20,M,R,
145,19,19,3,1,44,36,518,['c'],1,left,['0'],6,73,[0.09405244],100,44,hard,plus,dotcolour,alfa,,,87,20,M,R,
146,20,20,3,1,53,27,550,['c'],1,left,['0'],6,65,[0.06867621],100,53,easy,plus,dotcolour,alfa,,,87,20,M,R,
147,21,21,3,1,27,53,517,['n'],1,right,['9'],5,91,[-0.08408377],100,53,easy,plus,dotcolour,alfa,,,87,20,M,R,
148,22,22,3,1,47,33,483,['c'],1,left,['0'],6,85,[0.06190016],100,47,medium,plus,dotcolour,alfa,,,87,20,M,R,
149,23,23,3,1,33,47,650,['n'],1,right,['9'],5,73,[-0.05270182],100,47,medium,plus,dotcolour,alfa,,,87,20,M,R,
150,24,24,3,1,53,27,450,['n'],0,left,['1'],1,1509,[0.11111314],4,53,easy,plus,dotcolour,alfa,,,87,20,M,R,
151,25,25,3,1,33,47,767,['n'],1,right,['0'],6,131,[-0.04445717],99,47,medium,plus,dotcolour,alfa,,,87,20,M,R,
152,26,26,3,1,27,53,533,['n'],1,right,['9'],5,98,[-0.09742551],100,53,easy,plus,dotcolour,alfa,,,87,20,M,R,
153,27,27,3,1,44,36,700,['c'],1,left,['0'],6,99,[0.04893278],100,44,hard,plus,dotcolour,alfa,,,87,20,M,R,
154,28,28,3,1,47,33,4250,['n'],0,left,['9'],5,1095,[0.07056944],8,47,medium,plus,dotcolour,alfa,,,87,20,M,R,
155,29,29,3,1,33,47,583,['n'],1,right,['9'],5,93,[-0.10258152],100,47,medium,plus,dotcolour,alfa,,,87,20,M,R,
156,30,30,3,1,53,27,433,['c'],1,left,['0'],6,65,[0.14649298],100,53,easy,plus,dotcolour,alfa,,,87,20,M,R,
157,31,31,3,1,53,27,550,['c'],1,left,['0'],6,66,[0.04038852],100,53,easy,plus,dotcolour,alfa,,,87,20,M,R,
158,32,32,3,1,27,53,551,['n'],1,right,['9'],5,74,[-0.08609049],100,53,easy,plus,dotcolour,alfa,,,87,20,M,R,
159,33,33,3,1,36,44,800,['n'],1,right,['9'],5,56,[-0.09582959],100,44,hard,plus,dotcolour,alfa,,,87,20,M,R,
160,34,34,3,1,36,44,600,['n'],1,right,['9'],5,87,[-0.06955714],100,44,hard,plus,dotcolour,alfa,,,87,20,M,R,
161,35,35,3,1,27,53,550,['n'],1,right,['9'],5,199,[-0.10854422],100,53,easy,plus,dotcolour,alfa,,,87,20,M,R,
162,36,36,3,1,53,27,483,['c'],1,left,['0'],6,141,[0.02160047],89,53,easy,plus,dotcolour,alfa,,,87,20,M,R,
163,37,37,3,1,47,33,1050,['c'],1,left,['9'],5,127,[0.09758577],100,47,medium,plus,dotcolour,alfa,,,87,20,M,R,
164,38,38,3,1,53,27,783,['c'],1,left,['9'],5,83,[0.09679462],100,53,easy,plus,dotcolour,alfa,,,87,20,M,R,
165,39,39,3,1,47,33,667,['c'],1,left,['8'],4,142,[0.06813879],100,47,medium,plus,dotcolour,alfa,,,87,20,M,R,
166,40,40,3,1,33,47,617,['n'],1,right,['9'],5,89,[-0.05563326],100,47,medium,plus,dotcolour,alfa,,,87,20,M,R,
167,41,41,3,1,44,36,599,['c'],1,left,['9'],5,111,[0.06211687],100,44,hard,plus,dotcolour,alfa,,,87,20,M,R,
168,42,0,4,1,36,44,668,['n'],1,right,['9'],5,211,[-0.0903625],100,44,hard,plus,dotcolour,alfa,,,87,20,M,R,
169,43,1,4,1,27,53,599,['n'],1,right,['9'],5,107,[-0.13132225],100,53,easy,plus,dotcolour,alfa,,,87,20,M,R,
170,44,2,4,1,47,33,533,['c'],1,left,['9'],5,115,[0.08548786],100,47,medium,plus,dotcolour,alfa,,,87,20,M,R,
171,45,3,4,1,44,36,599,['c'],1,left,['0'],6,103,[0.06590193],100,44,hard,plus,dotcolour,alfa,,,87,20,M,R,
172,46,4,4,1,53,27,666,['c'],1,left,['0'],6,51,[0.10671526],100,53,easy,plus,dotcolour,alfa,,,87,20,M,R,
173,47,5,4,1,27,53,566,['n'],1,right,['9'],5,76,[-0.09451777],100,53,easy,plus,dotcolour,alfa,,,87,20,M,R,
174,48,6,4,1,44,36,616,['c'],1,left,['9'],5,144,[0.04436319],99,44,hard,plus,dotcolour,alfa,,,87,20,M,R,
175,49,7,4,1,47,33,699,['c'],1,left,['9'],5,111,[0.10537626],100,47,medium,plus,dotcolour,alfa,,,87,20,M,R,
176,50,8,4,1,33,47,616,['n'],1,right,['9'],5,76,[-0.11801504],100,47,medium,plus,dotcolour,alfa,,,87,20,M,R,
177,51,9,4,1,36,44,649,['n'],1,right,['9'],5,95,[-0.0924171],100,44,hard,plus,dotcolour,alfa,,,87,20,M,R,
178,52,10,4,1,27,53,717,['n'],1,right,['9'],5,64,[-0.07865004],100,53,easy,plus,dotcolour,alfa,,,87,20,M,R,
179,53,11,4,1,53,27,567,['c'],1,left,['0'],6,80,[0.10343898],100,53,easy,plus,dotcolour,alfa,,,87,20,M,R,
180,54,12,4,1,33,47,517,['n'],1,right,['9'],5,73,[-0.10123801],100,47,medium,plus,dotcolour,alfa,,,87,20,M,R,
181,55,13,4,1,47,33,582,['c'],1,left,['9'],5,160,[0.09868656],100,47,medium,plus,dotcolour,alfa,,,87,20,M,R,
182,56,14,4,1,44,36,684,['c'],1,left,['9'],5,152,[-0.0007427],48,44,hard,plus,dotcolour,alfa,,,87,20,M,R,
183,57,15,4,1,44,36,817,['c'],1,left,['3'],3,754,[0.17678195],100,44,hard,plus,dotcolour,alfa,,,87,20,M,R,
184,58,16,4,1,33,47,1800,['n'],1,right,['3'],3,589,[-0.27639778],100,47,medium,plus,dotcolour,alfa,,,87,20,M,R,
185,59,17,4,1,53,27,616,['c'],1,left,['0'],6,158,[0.08747123],100,53,easy,plus,dotcolour,alfa,,,87,20,M,R,
186,60,18,4,1,44,36,1001,['c'],1,left,['0'],6,193,[-0.00351389],43,44,hard,plus,dotcolour,alfa,,,87,20,M,R,
187,61,19,4,1,47,33,1266,['c'],1,left,['0'],6,191,[0.06360991],99,47,medium,plus,dotcolour,alfa,,,87,20,M,R,
188,62,20,4,1,36,44,883,['n'],1,right,['3'],3,925,[-0.33377358],100,44,hard,plus,dotcolour,alfa,,,87,20,M,R,
189,63,21,4,1,36,44,1067,['n'],1,right,['9'],5,270,[-0.06929234],99,44,hard,plus,dotcolour,alfa,,,87,20,M,R,
190,64,22,4,1,53,27,600,['c'],1,left,['0'],6,102,[0.08763365],100,53,easy,plus,dotcolour,alfa,,,87,20,M,R,
191,65,23,4,1,27,53,633,['n'],1,right,['9'],5,89,[-0.11041419],100,53,easy,plus,dotcolour,alfa,,,87,20,M,R,
192,66,24,4,1,47,33,717,['c'],1,left,['9'],5,162,[0.03408501],95,47,medium,plus,dotcolour,alfa,,,87,20,M,R,
193,67,25,4,1,53,27,683,['c'],1,left,['0'],6,51,[0.07243286],100,53,easy,plus,dotcolour,alfa,,,87,20,M,R,
194,68,26,4,1,33,47,834,['n'],1,right,['9'],5,336,[-0.03270242],88,47,medium,plus,dotcolour,alfa,,,87,20,M,R,
195,69,27,4,1,47,33,867,['n'],0,left,['9'],5,201,[-0.1267178],100,47,medium,plus,dotcolour,alfa,,,87,20,M,R,
196,70,28,4,1,33,47,1601,['n'],1,right,['9'],5,299,[-0.11699317],100,47,medium,plus,dotcolour,alfa,,,87,20,M,R,
197,71,29,4,1,36,44,966,['c'],0,right,['0'],6,233,[0.02901193],90,44,hard,plus,dotcolour,alfa,,,87,20,M,R,
198,72,30,4,1,53,27,1232,['c'],1,left,['0'],6,56,[0.10482225],100,53,easy,plus,dotcolour,alfa,,,87,20,M,R,
199,73,31,4,1,33,47,734,['n'],1,right,['9'],5,74,[-0.07554914],100,47,medium,plus,dotcolour,alfa,,,87,20,M,R,
200,74,32,4,1,36,44,634,['n'],1,right,['9'],5,95,[-0.07529874],100,44,hard,plus,dotcolour,alfa,,,87,20,M,R,
201,75,33,4,1,44,36,1017,['n'],0,left,['9'],5,91,[-0.06760522],100,44,hard,plus,dotcolour,alfa,,,87,20,M,R,
202,76,34,4,1,47,33,634,['c'],1,left,['0'],6,95,[0.0711213],100,47,medium,plus,dotcolour,alfa,,,87,20,M,R,
203,77,35,4,1,44,36,767,['c'],1,left,['9'],5,118,[0.08621992],100,44,hard,plus,dotcolour,alfa,,,87,20,M,R,
204,78,36,4,1,27,53,717,['n'],1,right,['9'],5,78,[-0.06816339],100,53,easy,plus,dotcolour,alfa,,,87,20,M,R,
205,79,37,4,1,33,47,550,['n'],1,right,['9'],5,86,[-0.11487263],100,47,medium,plus,dotcolour,alfa,,,87,20,M,R,
206,80,38,4,1,36,44,734,['n'],1,right,['9'],5,87,[-0.07311941],100,44,hard,plus,dotcolour,alfa,,,87,20,M,R,
207,81,39,4,1,27,53,550,['n'],1,right,['9'],5,79,[-0.05361937],100,53,easy,plus,dotcolour,alfa,,,87,20,M,R,
208,82,40,4,1,53,27,451,['c'],1,left,['0'],6,59,[0.03315393],99,53,easy,plus,dotcolour,alfa,,,87,20,M,R,
209,83,41,4,1,27,53,550,['n'],1,right,['9'],5,36,[-0.1056868],100,53,easy,plus,dotcolour,alfa,,,87,20,M,R,
210,84,0,5,1,27,53,884,['n'],1,right,['9'],5,82,[-0.11262922],100,53,easy,plus,dotcolour,alfa,,,87,20,M,R,
211,85,1,5,1,27,53,617,['n'],1,right,['0'],6,224,[-0.10790052],100,53,easy,plus,dotcolour,alfa,,,87,20,M,R,
212,86,2,5,1,33,47,1099,['n'],1,right,['9'],5,91,[-0.04322527],99,47,medium,plus,dotcolour,alfa,,,87,20,M,R,
213,87,3,5,1,33,47,668,['n'],1,right,['9'],5,78,[-0.08984377],100,47,medium,plus,dotcolour,alfa,,,87,20,M,R,
214,88,4,5,1,36,44,751,['n'],1,right,['9'],5,62,[-0.0652025],100,44,hard,plus,dotcolour,alfa,,,87,20,M,R,
215,89,5,5,1,47,33,483,['c'],1,left,['0'],6,82,[0.06526763],100,47,medium,plus,dotcolour,alfa,,,87,20,M,R,
216,90,6,5,1,53,27,418,['c'],1,left,['0'],6,119,[0.07913526],100,53,easy,plus,dotcolour,alfa,,,87,20,M,R,
217,91,7,5,1,36,44,600,['n'],1,right,['9'],5,148,[-0.08631813],100,44,hard,plus,dotcolour,alfa,,,87,20,M,R,
218,92,8,5,1,53,27,999,['c'],1,left,['0'],6,128,[0.12026968],100,53,easy,plus,dotcolour,alfa,,,87,20,M,R,
219,93,9,5,1,44,36,450,['c'],1,left,['9'],5,129,[0.05350013],100,44,hard,plus,dotcolour,alfa,,,87,20,M,R,
220,94,10,5,1,44,36,1284,['c'],1,left,['9'],5,98,[0.13138351],100,44,hard,plus,dotcolour,alfa,,,87,20,M,R,
221,95,11,5,1,27,53,684,['n'],1,right,['9'],5,44,[-0.08559985],100,53,easy,plus,dotcolour,alfa,,,87,20,M,R,
222,96,12,5,1,47,33,650,['c'],1,left,['9'],5,105,[0.08530502],100,47,medium,plus,dotcolour,alfa,,,87,20,M,R,
223,97,13,5,1,44,36,1034,['n'],0,left,['9'],5,1373,[0.07480317],9,44,hard,plus,dotcolour,alfa,,,87,20,M,R,
224,98,14,5,1,36,44,1000,['n'],1,right,['0'],6,71,[-0.05658819],100,44,hard,plus,dotcolour,alfa,,,87,20,M,R,
225,99,15,5,1,44,36,650,['c'],1,left,['0'],6,60,[0.05233699],100,44,hard,plus,dotcolour,alfa,,,87,20,M,R,
226,100,16,5,1,27,53,567,['n'],1,right,['9'],5,84,[-0.10917399],100,53,easy,plus,dotcolour,alfa,,,87,20,M,R,
227,101,17,5,1,47,33,516,['c'],1,left,['0'],6,5,[0.08688808],100,47,medium,plus,dotcolour,alfa,,,87,20,M,R,
228,102,18,5,1,33,47,633,['n'],1,right,['9'],5,61,[-0.10016177],100,47,medium,plus,dotcolour,alfa,,,87,20,M,R,
229,103,19,5,1,44,36,700,['c'],1,left,['0'],6,56,[0.08919006],100,44,hard,plus,dotcolour,alfa,,,87,20,M,R,
230,104,20,5,1,36,44,1467,['n'],1,right,['9'],5,125,[-0.08067678],100,44,hard,plus,dotcolour,alfa,,,87,20,M,R,
231,105,21,5,1,36,44,1016,['n'],1,right,['9'],5,80,[-0.11994787],100,44,hard,plus,dotcolour,alfa,,,87,20,M,R,
232,106,22,5,1,33,47,667,['n'],1,right,['9'],5,75,[-0.00706067],72,47,medium,plus,dotcolour,alfa,,,87,20,M,R,
233,107,23,5,1,36,44,784,['n'],1,right,['9'],5,50,[-0.04492423],100,44,hard,plus,dotcolour,alfa,,,87,20,M,R,
234,108,24,5,1,53,27,2299,['c'],1,left,['9'],5,94,[0.09929452],100,53,easy,plus,dotcolour,alfa,,,87,20,M,R,
235,109,25,5,1,44,36,1168,['c'],1,left,['0'],6,108,[0.06130205],100,44,hard,plus,dotcolour,alfa,,,87,20,M,R,
236,110,26,5,1,27,53,584,['n'],1,right,['9'],5,58,[-0.06965282],100,53,easy,plus,dotcolour,alfa,,,87,20,M,R,
237,111,27,5,1,47,33,683,['c'],1,left,['0'],6,21,[0.06570691],100,47,medium,plus,dotcolour,alfa,,,87,20,M,R,
238,112,28,5,1,53,27,451,['c'],1,left,['9'],5,84,[0.09330163],100,53,easy,plus,dotcolour,alfa,,,87,20,M,R,
239,113,29,5,1,47,33,651,['c'],1,left,['9'],5,120,[0.07016098],100,47,medium,plus,dotcolour,alfa,,,87,20,M,R,
240,114,30,5,1,33,47,1083,['n'],1,right,['9'],5,377,[-0.14564558],100,47,medium,plus,dotcolour,alfa,,,87,20,M,R,
241,115,31,5,1,27,53,734,['n'],1,right,['0'],6,142,[-0.08974926],100,53,easy,plus,dotcolour,alfa,,,87,20,M,R,
242,116,32,5,1,53,27,600,['c'],1,left,['0'],6,33,[0.08826041],100,53,easy,plus,dotcolour,alfa,,,87,20,M,R,
243,117,33,5,1,27,53,617,['n'],1,right,['9'],5,32,[-0.0734319],100,53,easy,plus,dotcolour,alfa,,,87,20,M,R,
244,118,34,5,1,53,27,465,['c'],1,left,['0'],6,62,[0.11204548],100,53,easy,plus,dotcolour,alfa,,,87,20,M,R,
245,119,35,5,1,53,27,634,['c'],1,left,['0'],6,35,[0.04479807],100,53,easy,plus,dotcolour,alfa,,,87,20,M,R,
246,120,36,5,1,47,33,1233,['c'],1,left,['0'],6,26,[0.08564745],100,47,medium,plus,dotcolour,alfa,,,87,20,M,R,
247,121,37,5,1,33,47,700,['n'],1,right,['9'],5,45,[-0.05392911],100,47,medium,plus,dotcolour,alfa,,,87,20,M,R,
248,122,38,5,1,33,47,533,['c'],0,right,['0'],6,64,[0.08811556],100,47,medium,plus,dotcolour,alfa,,,87,20,M,R,
249,123,39,5,1,44,36,984,['c'],1,left,['0'],6,79,[0.16763455],100,44,hard,plus,dotcolour,alfa,,,87,20,M,R,
250,124,40,5,1,47,33,600,['c'],1,left,['0'],6,53,[0.09757629],100,47,medium,plus,dotcolour,alfa,,,87,20,M,R,
251,125,41,5,1,36,44,2850,['c'],0,right,['0'],6,130,[0.1067656],100,44,hard,plus,dotcolour,alfa,,,87,20,M,R,
252,0,0,6,2,27,53,1101,['n'],1,right,['9'],5,112,[-0.11426183],96,53,easy,minus,dotcolour,alfa,,,87,20,M,R,
253,1,1,6,2,36,44,584,['n'],1,right,['9'],5,117,[-0.0780564],89,44,hard,minus,dotcolour,alfa,,,87,20,M,R,
254,2,2,6,2,36,44,467,['n'],1,right,['9'],5,71,[-0.06913671],91,44,hard,minus,dotcolour,alfa,,,87,20,M,R,
255,3,3,6,2,53,27,583,['c'],1,left,['0'],6,62,[0.0522708],87,53,easy,minus,dotcolour,alfa,,,87,20,M,R,
256,4,4,6,2,33,47,550,['n'],1,right,['9'],5,39,[-0.09391385],99,47,medium,minus,dotcolour,alfa,,,87,20,M,R,
257,5,5,6,2,36,44,668,['n'],1,right,['9'],5,44,[-0.03287072],80,44,hard,minus,dotcolour,alfa,,,87,20,M,R,
258,6,6,6,2,44,36,817,['n'],0,left,['9'],5,43,[-0.08121584],97,44,hard,minus,dotcolour,alfa,,,87,20,M,R,
259,7,7,6,2,27,53,650,['n'],1,right,['9'],5,48,[-0.08898981],97,53,easy,minus,dotcolour,alfa,,,87,20,M,R,
260,8,8,6,2,36,44,801,['n'],1,right,['9'],5,31,[-0.07997618],98,44,hard,minus,dotcolour,alfa,,,87,20,M,R,
261,9,9,6,2,44,36,800,['c'],1,left,['9'],5,63,[0.04131015],81,44,hard,minus,dotcolour,alfa,,,87,20,M,R,
262,10,10,6,2,47,33,734,['c'],1,left,['9'],5,153,[0.15598603],97,47,medium,minus,dotcolour,alfa,,,87,20,M,R,
263,11,11,6,2,44,36,650,['n'],0,left,['9'],5,42,[-0.13643438],100,44,hard,minus,dotcolour,alfa,,,87,20,M,R,
264,12,12,6,2,53,27,500,['c'],1,left,['0'],6,150,[0.13803307],96,53,easy,minus,dotcolour,alfa,,,87,20,M,R,
265,13,13,6,2,27,53,567,['c'],0,right,['0'],6,50,[0.07046115],94,53,easy,minus,dotcolour,alfa,,,87,20,M,R,
266,14,14,6,2,33,47,600,['c'],0,right,['0'],6,98,[0.07696524],90,47,medium,minus,dotcolour,alfa,,,87,20,M,R,
267,15,15,6,2,44,36,950,['n'],0,left,['9'],5,121,[-0.05064924],79,44,hard,minus,dotcolour,alfa,,,87,20,M,R,
268,16,16,6,2,27,53,617,['n'],1,right,['9'],5,45,[-0.09080533],98,53,easy,minus,dotcolour,alfa,,,87,20,M,R,
269,17,17,6,2,36,44,2249,['c'],0,right,['8'],4,946,[0.19362705],86,44,hard,minus,dotcolour,alfa,,,87,20,M,R,
270,18,18,6,2,47,33,1033,['c'],1,left,['9'],5,77,[0.04607773],82,47,medium,minus,dotcolour,alfa,,,87,20,M,R,
271,19,19,6,2,33,47,1167,['n'],1,right,['9'],5,28,[-0.064583],97,47,medium,minus,dotcolour,alfa,,,87,20,M,R,
272,20,20,6,2,53,27,799,['c'],1,left,['0'],6,67,[0.08659178],95,53,easy,minus,dotcolour,alfa,,,87,20,M,R,
273,21,21,6,2,47,33,783,['n'],0,left,['3'],3,579,[-0.14220232],84,47,medium,minus,dotcolour,alfa,,,87,20,M,R,
274,22,22,6,2,44,36,900,['n'],0,left,['9'],5,57,[-0.07640773],95,44,hard,minus,dotcolour,alfa,,,87,20,M,R,
275,23,23,6,2,53,27,617,['c'],1,left,['0'],6,55,[0.08721464],97,53,easy,minus,dotcolour,alfa,,,87,20,M,R,
276,24,24,6,2,27,53,733,['n'],1,right,['9'],5,42,[-0.08170966],97,53,easy,minus,dotcolour,alfa,,,87,20,M,R,
277,25,25,6,2,33,47,750,['n'],1,right,['9'],5,67,[-0.08136226],94,47,medium,minus,dotcolour,alfa,,,87,20,M,R,
278,26,26,6,2,53,27,617,['c'],1,left,['0'],6,17,[0.08285787],100,53,easy,minus,dotcolour,alfa,,,87,20,M,R,
279,27,27,6,2,27,53,650,['n'],1,right,['9'],5,48,[-0.07535457],96,53,easy,minus,dotcolour,alfa,,,87,20,M,R,
280,28,28,6,2,53,27,717,['c'],1,left,['0'],6,58,[0.03516417],79,53,easy,minus,dotcolour,alfa,,,87,20,M,R,
281,29,29,6,2,47,33,1199,['n'],0,left,['9'],5,89,[-0.05235245],83,47,medium,minus,dotcolour,alfa,,,87,20,M,R,
282,30,30,6,2,44,36,950,['n'],0,left,['9'],5,25,[-0.06595974],98,44,hard,minus,dotcolour,alfa,,,87,20,M,R,
283,31,31,6,2,33,47,667,['n'],1,right,['9'],5,54,[-0.06579378],93,47,medium,minus,dotcolour,alfa,,,87,20,M,R,
284,32,32,6,2,27,53,416,['n'],1,right,['9'],5,37,[-0.07054273],96,53,easy,minus,dotcolour,alfa,,,87,20,M,R,
285,33,33,6,2,36,44,2217,['n'],1,right,['8'],4,181,[-0.071786],82,44,hard,minus,dotcolour,alfa,,,87,20,M,R,
286,34,34,6,2,33,47,800,['c'],0,right,['9'],5,118,[0.06803093],86,47,medium,minus,dotcolour,alfa,,,87,20,M,R,
287,35,35,6,2,47,33,866,['n'],0,left,['9'],5,32,[-0.0322625],84,47,medium,minus,dotcolour,alfa,,,87,20,M,R,
288,36,36,6,2,47,33,701,['n'],0,left,['9'],5,92,[-0.08520633],93,47,medium,minus,dotcolour,alfa,,,87,20,M,R,
289,37,37,6,2,53,27,467,['c'],1,left,['0'],6,71,[0.08540042],95,53,easy,minus,dotcolour,alfa,,,87,20,M,R,
290,38,38,6,2,44,36,516,['c'],1,left,['9'],5,65,[0.06517202],91,44,hard,minus,dotcolour,alfa,,,87,20,M,R,
291,39,39,6,2,47,33,700,['n'],0,left,['9'],5,60,[-0.07618451],94,47,medium,minus,dotcolour,alfa,,,87,20,M,R,
292,40,40,6,2,36,44,600,['c'],0,right,['8'],4,258,[-0.02144679],41,44,hard,minus,dotcolour,alfa,,,87,20,M,R,
293,41,41,6,2,33,47,750,['n'],1,right,['9'],5,59,[-0.10221113],98,47,medium,minus,dotcolour,alfa,,,87,20,M,R,
294,42,0,7,2,27,53,617,['n'],1,right,['9'],5,117,[-0.13830447],97,53,easy,minus,dotcolour,alfa,,,87,20,M,R,
295,43,1,7,2,47,33,567,['c'],1,left,['0'],6,91,[0.11193722],97,47,medium,minus,dotcolour,alfa,,,87,20,M,R,
296,44,2,7,2,33,47,600,['n'],1,right,['9'],5,105,[-0.08992192],92,47,medium,minus,dotcolour,alfa,,,87,20,M,R,
297,45,3,7,2,36,44,550,['n'],1,right,['9'],5,55,[-0.11035253],99,44,hard,minus,dotcolour,alfa,,,87,20,M,R,
298,46,4,7,2,33,47,650,['n'],1,right,['9'],5,69,[-0.03886871],79,47,medium,minus,dotcolour,alfa,,,87,20,M,R,
299,47,5,7,2,53,27,567,['c'],1,left,['0'],6,117,[0.06082873],83,53,easy,minus,dotcolour,alfa,,,87,20,M,R,
300,48,6,7,2,47,33,750,['n'],0,left,['3'],3,476,[-0.0417982],63,47,medium,minus,dotcolour,alfa,,,87,20,M,R,
301,49,7,7,2,47,33,584,['c'],1,left,['0'],6,123,[0.05463748],80,47,medium,minus,dotcolour,alfa,,,87,20,M,R,
302,50,8,7,2,36,44,733,['n'],1,right,['9'],5,27,[-0.06479715],97,44,hard,minus,dotcolour,alfa,,,87,20,M,R,
303,51,9,7,2,47,33,600,['c'],1,left,['0'],6,74,[0.09156063],95,47,medium,minus,dotcolour,alfa,,,87,20,M,R,
304,52,10,7,2,36,44,633,['n'],1,right,['9'],5,63,[-0.08254831],95,44,hard,minus,dotcolour,alfa,,,87,20,M,R,
305,53,11,7,2,33,47,584,['n'],1,right,['9'],5,62,[-0.11196666],98,47,medium,minus,dotcolour,alfa,,,87,20,M,R,
306,54,12,7,2,27,53,467,['n'],1,right,['9'],5,98,[-0.0517526],82,53,easy,minus,dotcolour,alfa,,,87,20,M,R,
307,55,13,7,2,47,33,534,['c'],1,left,['3'],3,690,[0.20870015],91,47,medium,minus,dotcolour,alfa,,,87,20,M,R,
308,56,14,7,2,44,36,884,['c'],1,left,['0'],6,60,[0.04705819],85,44,hard,minus,dotcolour,alfa,,,87,20,M,R,
309,57,15,7,2,33,47,517,['n'],1,right,['9'],5,118,[-0.08286004],90,47,medium,minus,dotcolour,alfa,,,87,20,M,R,
310,58,16,7,2,36,44,700,['n'],1,right,['9'],5,118,[-0.10773665],94,44,hard,minus,dotcolour,alfa,,,87,20,M,R,
311,59,17,7,2,53,27,500,['c'],1,left,['0'],6,175,[0.07412732],83,53,easy,minus,dotcolour,alfa,,,87,20,M,R,
312,60,18,7,2,27,53,517,['c'],0,right,['0'],6,85,[-0.00249566],48,53,easy,minus,dotcolour,alfa,,,87,20,M,R,
313,61,19,7,2,53,27,651,['c'],1,left,['0'],6,49,[0.07326847],95,53,easy,minus,dotcolour,alfa,,,87,20,M,R,
314,62,20,7,2,53,27,550,['c'],1,left,['0'],6,106,[0.11120192],96,53,easy,minus,dotcolour,alfa,,,87,20,M,R,
315,63,21,7,2,27,53,583,['n'],1,right,['9'],5,112,[-0.07300476],88,53,easy,minus,dotcolour,alfa,,,87,20,M,R,
316,64,22,7,2,36,44,850,['n'],1,right,['9'],5,75,[-0.03367443],75,44,hard,minus,dotcolour,alfa,,,87,20,M,R,
317,65,23,7,2,47,33,817,['n'],0,left,['9'],5,40,[-0.05584938],93,47,medium,minus,dotcolour,alfa,,,87,20,M,R,
318,66,24,7,2,53,27,600,['c'],1,left,['0'],6,135,[0.10822222],93,53,easy,minus,dotcolour,alfa,,,87,20,M,R,
319,67,25,7,2,33,47,583,['n'],1,right,['9'],5,36,[-0.05606846],93,47,medium,minus,dotcolour,alfa,,,87,20,M,R,
320,68,26,7,2,33,47,567,['n'],1,right,['9'],5,62,[-0.02347109],70,47,medium,minus,dotcolour,alfa,,,87,20,M,R,
321,69,27,7,2,47,33,617,['n'],0,left,['9'],5,115,[-0.01446583],59,47,medium,minus,dotcolour,alfa,,,87,20,M,R,
322,70,28,7,2,53,27,683,['c'],1,left,['8'],4,709,[0.25769614],94,53,easy,minus,dotcolour,alfa,,,87,20,M,R,
323,71,29,7,2,44,36,783,['n'],0,left,['3'],3,1035,[-0.18292066],83,44,hard,minus,dotcolour,alfa,,,87,20,M,R,
324,72,30,7,2,44,36,1283,['c'],1,left,['9'],5,302,[0.03182002],63,44,hard,minus,dotcolour,alfa,,,87,20,M,R,
325,73,31,7,2,44,36,1667,['c'],1,left,['9'],5,89,[0.08055065],92,44,hard,minus,dotcolour,alfa,,,87,20,M,R,
326,74,32,7,2,27,53,833,['n'],1,right,['9'],5,46,[-0.10057147],99,53,easy,minus,dotcolour,alfa,,,87,20,M,R,
327,75,33,7,2,36,44,800,['n'],1,right,['9'],5,5,[-0.06960962],100,44,hard,minus,dotcolour,alfa,,,87,20,M,R,
328,76,34,7,2,33,47,550,['n'],1,right,['9'],5,41,[-0.07890855],97,47,medium,minus,dotcolour,alfa,,,87,20,M,R,
329,77,35,7,2,44,36,618,['n'],0,left,['3'],3,751,[-0.08662321],71,44,hard,minus,dotcolour,alfa,,,87,20,M,R,
330,78,36,7,2,44,36,1434,['c'],1,left,['9'],5,80,[0.04570833],81,44,hard,minus,dotcolour,alfa,,,87,20,M,R,
331,79,37,7,2,27,53,534,['n'],1,right,['9'],5,105,[-0.09627163],94,53,easy,minus,dotcolour,alfa,,,87,20,M,R,
332,80,38,7,2,53,27,567,['c'],1,left,['0'],6,128,[0.12431775],96,53,easy,minus,dotcolour,alfa,,,87,20,M,R,
333,81,39,7,2,27,53,683,['n'],1,right,['9'],5,49,[-0.05068644],89,53,easy,minus,dotcolour,alfa,,,87,20,M,R,
334,82,40,7,2,44,36,700,['c'],1,left,['0'],6,68,[0.04864327],84,44,hard,minus,dotcolour,alfa,,,87,20,M,R,
335,83,41,7,2,36,44,1283,['n'],1,right,['9'],5,39,[-0.07041932],96,44,hard,minus,dotcolour,alfa,,,87,20,M,R,
336,84,0,8,2,47,33,984,['n'],0,left,['9'],5,42,[-0.07857581],97,47,medium,minus,dotcolour,alfa,,,87,20,M,R,
337,85,1,8,2,27,53,650,['n'],1,right,['9'],5,40,[-0.09102161],98,53,easy,minus,dotcolour,alfa,,,87,20,M,R,
338,86,2,8,2,33,47,950,['n'],1,right,['9'],5,42,[-0.07457934],96,47,medium,minus,dotcolour,alfa,,,87,20,M,R,
339,87,3,8,2,44,36,666,['n'],0,left,['9'],5,63,[-0.02710049],73,44,hard,minus,dotcolour,alfa,,,87,20,M,R,
340,88,4,8,2,27,53,583,['n'],1,right,['9'],5,62,[-0.13439949],99,53,easy,minus,dotcolour,alfa,,,87,20,M,R,
341,89,5,8,2,53,27,650,['c'],1,left,['0'],6,123,[0.09526006],92,53,easy,minus,dotcolour,alfa,,,87,20,M,R,
342,90,6,8,2,53,27,550,['c'],1,left,['9'],5,73,[0.09998854],97,53,easy,minus,dotcolour,alfa,,,87,20,M,R,
343,91,7,8,2,33,47,584,['n'],1,right,['9'],5,48,[-0.07005041],95,47,medium,minus,dotcolour,alfa,,,87,20,M,R,
344,92,8,8,2,44,36,850,['c'],1,left,['0'],6,62,[0.07414128],94,44,hard,minus,dotcolour,alfa,,,87,20,M,R,
345,93,9,8,2,36,44,867,['n'],1,right,['9'],5,89,[-0.0768445],91,44,hard,minus,dotcolour,alfa,,,87,20,M,R,
346,94,10,8,2,44,36,1200,['c'],1,left,['9'],5,87,[0.07116317],90,44,hard,minus,dotcolour,alfa,,,87,20,M,R,
347,95,11,8,2,36,44,2350,['n'],1,right,['9'],5,15,[-0.08416429],100,44,hard,minus,dotcolour,alfa,,,87,20,M,R,
348,96,12,8,2,44,36,783,['c'],1,left,['0'],6,97,[0.00976403],57,44,hard,minus,dotcolour,alfa,,,87,20,M,R,
349,97,13,8,2,53,27,800,['c'],1,left,['0'],6,54,[0.03669903],81,53,easy,minus,dotcolour,alfa,,,87,20,M,R,
350,98,14,8,2,36,44,600,['n'],1,right,['9'],5,46,[-0.07752745],96,44,hard,minus,dotcolour,alfa,,,87,20,M,R,
351,99,15,8,2,53,27,600,['c'],1,left,['0'],6,93,[0.09432498],94,53,easy,minus,dotcolour,alfa,,,87,20,M,R,
352,100,16,8,2,27,53,584,['n'],1,right,['9'],5,43,[-0.11559165],99,53,easy,minus,dotcolour,alfa,,,87,20,M,R,
353,101,17,8,2,33,47,750,['n'],1,right,['9'],5,4,[-0.07435797],100,47,medium,minus,dotcolour,alfa,,,87,20,M,R,
354,102,18,8,2,36,44,635,['n'],1,right,['9'],5,28,[-0.0837837],99,44,hard,minus,dotcolour,alfa,,,87,20,M,R,
355,103,19,8,2,33,47,583,['n'],1,right,['9'],5,85,[-0.11814194],97,47,medium,minus,dotcolour,alfa,,,87,20,M,R,
356,104,20,8,2,33,47,784,['n'],1,right,['9'],5,76,[-0.10087136],96,47,medium,minus,dotcolour,alfa,,,87,20,M,R,
357,105,21,8,2,33,47,633,['n'],1,right,['9'],5,48,[-0.08736896],97,47,medium,minus,dotcolour,alfa,,,87,20,M,R,
358,106,22,8,2,47,33,583,['c'],1,left,['0'],6,264,[0.0872618],82,47,medium,minus,dotcolour,alfa,,,87,20,M,R,
359,107,23,8,2,47,33,850,['n'],0,left,['3'],3,549,[0.01587301],45,47,medium,minus,dotcolour,alfa,,,87,20,M,R,
360,108,24,8,2,47,33,1101,['n'],0,left,['9'],5,76,[-0.07535936],92,47,medium,minus,dotcolour,alfa,,,87,20,M,R,
361,109,25,8,2,27,53,583,['n'],1,right,['9'],5,107,[-0.07049191],87,53,easy,minus,dotcolour,alfa,,,87,20,M,R,
362,110,26,8,2,44,36,634,['n'],0,left,['9'],5,62,[-0.11725717],99,44,hard,minus,dotcolour,alfa,,,87,20,M,R,
363,111,27,8,2,27,53,549,['n'],1,right,['9'],5,79,[-0.07620637],92,53,easy,minus,dotcolour,alfa,,,87,20,M,R,
364,112,28,8,2,36,44,600,['n'],1,right,['9'],5,389,[-0.03766608],63,44,hard,minus,dotcolour,alfa,,,87,20,M,R,
365,113,29,8,2,27,53,601,['n'],1,right,['0'],6,111,[-0.086336],91,53,easy,minus,dotcolour,alfa,,,87,20,M,R,
366,114,30,8,2,53,27,583,['c'],1,left,['0'],6,60,[0.12100636],99,53,easy,minus,dotcolour,alfa,,,87,20,M,R,
367,115,31,8,2,36,44,634,['n'],1,right,['9'],5,65,[-0.06601223],91,44,hard,minus,dotcolour,alfa,,,87,20,M,R,
368,116,32,8,2,53,27,783,['c'],1,left,['0'],6,25,[0.04661757],93,53,easy,minus,dotcolour,alfa,,,87,20,M,R,
369,117,33,8,2,47,33,833,['n'],0,left,['9'],5,63,[-0.06004396],90,47,medium,minus,dotcolour,alfa,,,87,20,M,R,
370,118,34,8,2,36,44,700,['n'],1,right,['9'],5,954,[-0.12093956],75,44,hard,minus,dotcolour,alfa,,,87,20,M,R,
371,119,35,8,2,53,27,550,['c'],1,left,['0'],6,62,[0.05640365],88,53,easy,minus,dotcolour,alfa,,,87,20,M,R,
372,120,36,8,2,47,33,800,['n'],0,left,['9'],5,173,[-0.00930531],55,47,medium,minus,dotcolour,alfa,,,87,20,M,R,
373,121,37,8,2,44,36,683,['c'],1,left,['0'],6,68,[0.00670474],56,44,hard,minus,dotcolour,alfa,,,87,20,M,R,
374,122,38,8,2,33,47,516,['n'],1,right,['9'],5,87,[-0.09489219],95,47,medium,minus,dotcolour,alfa,,,87,20,M,R,
375,123,39,8,2,47,33,500,['c'],1,left,['0'],6,48,[0.08098047],97,47,medium,minus,dotcolour,alfa,,,87,20,M,R,
376,124,40,8,2,44,36,633,['c'],1,left,['0'],6,62,[0.04357284],83,44,hard,minus,dotcolour,alfa,,,87,20,M,R,
377,125,41,8,2,27,53,500,['n'],1,right,['0'],6,145,[-0.11746423],94,53,easy,minus,dotcolour,alfa,,,87,20,M,R,
378,0,0,9,3,53,27,1101,['c'],1,left,['0'],6,220,[0.13186899],100,53,easy,plus,dotcolour,alfa,,,87,20,M,R,
379,1,1,9,3,53,27,584,['c'],1,left,['0'],6,70,[0.06680801],100,53,easy,plus,dotcolour,alfa,,,87,20,M,R,
380,2,2,9,3,36,44,550,['n'],1,right,['0'],6,71,[-0.10089093],100,44,hard,plus,dotcolour,alfa,,,87,20,M,R,
381,3,3,9,3,36,44,567,['n'],1,right,['0'],6,31,[-0.07922998],100,44,hard,plus,dotcolour,alfa,,,87,20,M,R,
382,4,4,9,3,27,53,584,['n'],1,right,['0'],6,103,[-0.06698095],100,53,easy,plus,dotcolour,alfa,,,87,20,M,R,
383,5,5,9,3,44,36,917,['n'],0,left,['0'],6,56,[-0.08451462],100,44,hard,plus,dotcolour,alfa,,,87,20,M,R,
384,6,6,9,3,27,53,467,['n'],1,right,['0'],6,45,[-0.07937068],100,53,easy,plus,dotcolour,alfa,,,87,20,M,R,
385,7,7,9,3,44,36,1700,['c'],1,left,['8'],4,368,[0.04283843],93,44,hard,plus,dotcolour,alfa,,,87,20,M,R,
386,8,8,9,3,27,53,516,['n'],1,right,['0'],6,86,[-0.03786972],99,53,easy,plus,dotcolour,alfa,,,87,20,M,R,
387,9,9,9,3,36,44,517,['n'],1,right,['0'],6,55,[-0.07446444],100,44,hard,plus,dotcolour,alfa,,,87,20,M,R,
388,10,10,9,3,53,27,983,['c'],1,left,['0'],6,47,[0.0549905],100,53,easy,plus,dotcolour,alfa,,,87,20,M,R,
389,11,11,9,3,33,47,417,['n'],1,right,['0'],6,86,[-0.00363429],61,47,medium,plus,dotcolour,alfa,,,87,20,M,R,
390,12,12,9,3,47,33,1067,['n'],0,left,['9'],5,177,[-0.06602743],100,47,medium,plus,dotcolour,alfa,,,87,20,M,R,
391,13,13,9,3,53,27,551,['c'],1,left,['0'],6,77,[0.0766967],100,53,easy,plus,dotcolour,alfa,,,87,20,M,R,
392,14,14,9,3,33,47,617,['n'],1,right,['0'],6,99,[-0.11550075],100,47,medium,plus,dotcolour,alfa,,,87,20,M,R,
393,15,15,9,3,33,47,533,['n'],1,right,['9'],5,59,[-0.11720107],100,47,medium,plus,dotcolour,alfa,,,87,20,M,R,
394,16,16,9,3,47,33,684,['c'],1,left,['0'],6,46,[0.08095534],100,47,medium,plus,dotcolour,alfa,,,87,20,M,R,
395,17,17,9,3,53,27,567,['c'],1,left,['0'],6,71,[0.05124882],100,53,easy,plus,dotcolour,alfa,,,87,20,M,R,
396,18,18,9,3,27,53,500,['n'],1,right,['0'],6,89,[-0.0782607],100,53,easy,plus,dotcolour,alfa,,,87,20,M,R,
397,19,19,9,3,47,33,967,['c'],1,left,['9'],5,105,[0.08461225],100,47,medium,plus,dotcolour,alfa,,,87,20,M,R,
398,20,20,9,3,47,33,833,['c'],1,left,['0'],6,21,[0.07049987],100,47,medium,plus,dotcolour,alfa,,,87,20,M,R,
399,21,21,9,3,44,36,617,['c'],1,left,['9'],5,85,[0.06219154],100,44,hard,plus,dotcolour,alfa,,,87,20,M,R,
400,22,22,9,3,27,53,517,['n'],1,right,['0'],6,30,[-0.07813544],100,53,easy,plus,dotcolour,alfa,,,87,20,M,R,
401,23,23,9,3,27,53,666,['n'],1,right,['0'],6,963,[-0.17352951],100,53,easy,plus,dotcolour,alfa,,,87,20,M,R,
402,24,24,9,3,33,47,684,['n'],1,right,['0'],6,82,[-0.06543015],100,47,medium,plus,dotcolour,alfa,,,87,20,M,R,
403,25,25,9,3,44,36,700,['n'],0,left,['0'],6,61,[-0.05355402],100,44,hard,plus,dotcolour,alfa,,,87,20,M,R,
404,26,26,9,3,53,27,667,['c'],1,left,['0'],6,65,[0.07738125],100,53,easy,plus,dotcolour,alfa,,,87,20,M,R,
405,27,27,9,3,36,44,950,['c'],0,right,['9'],5,81,[0.08516192],100,44,hard,plus,dotcolour,alfa,,,87,20,M,R,
406,28,28,9,3,36,44,567,['n'],1,right,['0'],6,73,[-0.10767419],100,44,hard,plus,dotcolour,alfa,,,87,20,M,R,
407,29,29,9,3,44,36,684,['c'],1,left,['0'],6,156,[0.02479212],91,44,hard,plus,dotcolour,alfa,,,87,20,M,R,
408,30,30,9,3,47,33,1817,['c'],1,left,['9'],5,238,[0.1031536],100,47,medium,plus,dotcolour,alfa,,,87,20,M,R,
409,31,31,9,3,47,33,883,['c'],1,left,['8'],4,123,[0.09595213],100,47,medium,plus,dotcolour,alfa,,,87,20,M,R,
410,32,32,9,3,36,44,683,['n'],1,right,['9'],5,83,[-0.09093281],100,44,hard,plus,dotcolour,alfa,,,87,20,M,R,
411,33,33,9,3,33,47,684,['n'],1,right,['9'],5,30,[-0.08958168],100,47,medium,plus,dotcolour,alfa,,,87,20,M,R,
412,34,34,9,3,33,47,684,['n'],1,right,['9'],5,58,[-0.10354441],100,47,medium,plus,dotcolour,alfa,,,87,20,M,R,
413,35,35,9,3,33,47,717,['n'],1,right,['9'],5,76,[-0.08660165],100,47,medium,plus,dotcolour,alfa,,,87,20,M,R,
414,36,36,9,3,44,36,818,['n'],0,left,['9'],5,18,[-0.0722136],100,44,hard,plus,dotcolour,alfa,,,87,20,M,R,
415,37,37,9,3,27,53,650,['n'],1,right,['9'],5,104,[-0.04264304],99,53,easy,plus,dotcolour,alfa,,,87,20,M,R,
416,38,38,9,3,44,36,1101,['c'],1,left,['9'],5,154,[0.06069511],100,44,hard,plus,dotcolour,alfa,,,87,20,M,R,
417,39,39,9,3,36,44,784,['n'],1,right,['9'],5,22,[-0.06057395],100,44,hard,plus,dotcolour,alfa,,,87,20,M,R,
418,40,40,9,3,53,27,616,['c'],1,left,['0'],6,118,[0.11476907],100,53,easy,plus,dotcolour,alfa,,,87,20,M,R,
419,41,41,9,3,47,33,833,['c'],1,left,['9'],5,162,[0.10062193],100,47,medium,plus,dotcolour,alfa,,,87,20,M,R,
420,42,0,10,3,27,53,583,['n'],1,right,['0'],6,126,[-0.09653409],100,53,easy,plus,dotcolour,alfa,,,87,20,M,R,
421,43,1,10,3,53,27,567,['c'],1,left,['0'],6,75,[0.07382923],100,53,easy,plus,dotcolour,alfa,,,87,20,M,R,
422,44,2,10,3,44,36,1150,['c'],1,left,['0'],6,107,[0.07325517],100,44,hard,plus,dotcolour,alfa,,,87,20,M,R,
423,45,3,10,3,36,44,800,['c'],0,right,['3'],3,471,[-0.0069837],41,44,hard,plus,dotcolour,alfa,,,87,20,M,R,
424,46,4,10,3,53,27,567,['n'],0,left,['3'],3,647,[0.10096414],1,53,easy,plus,dotcolour,alfa,,,87,20,M,R,
425,47,5,10,3,44,36,834,['n'],0,left,['0'],6,85,[-0.07158018],100,44,hard,plus,dotcolour,alfa,,,87,20,M,R,
426,48,6,10,3,27,53,467,['n'],1,right,['0'],6,80,[-0.07838061],100,53,easy,plus,dotcolour,alfa,,,87,20,M,R,
427,49,7,10,3,33,47,900,['n'],1,right,['0'],6,50,[-0.10466933],100,47,medium,plus,dotcolour,alfa,,,87,20,M,R,
428,50,8,10,3,53,27,566,['c'],1,left,['0'],6,67,[0.06449644],100,53,easy,plus,dotcolour,alfa,,,87,20,M,R,
429,51,9,10,3,36,44,551,['n'],1,right,['0'],6,27,[-0.08348234],100,44,hard,plus,dotcolour,alfa,,,87,20,M,R,
430,52,10,10,3,53,27,684,['c'],1,left,['0'],6,40,[0.05798578],100,53,easy,plus,dotcolour,alfa,,,87,20,M,R,
431,53,11,10,3,33,47,417,['n'],1,right,['0'],6,7,[-0.08271008],100,47,medium,plus,dotcolour,alfa,,,87,20,M,R,
432,54,12,10,3,33,47,534,['n'],1,right,['0'],6,34,[-0.09706675],100,47,medium,plus,dotcolour,alfa,,,87,20,M,R,
433,55,13,10,3,36,44,501,['n'],1,right,['0'],6,6,[-0.06751105],100,44,hard,plus,dotcolour,alfa,,,87,20,M,R,
434,56,14,10,3,44,36,483,['n'],0,left,['0'],6,12,[-0.06248599],100,44,hard,plus,dotcolour,alfa,,,87,20,M,R,
435,57,15,10,3,27,53,634,['n'],1,right,['0'],6,28,[-0.09120167],100,53,easy,plus,dotcolour,alfa,,,87,20,M,R,
436,58,16,10,3,36,44,566,['n'],1,right,['0'],6,845,[-0.13459483],99,44,hard,plus,dotcolour,alfa,,,87,20,M,R,
437,59,17,10,3,33,47,615,['n'],1,right,['0'],6,4,[-0.07615261],100,47,medium,plus,dotcolour,alfa,,,87,20,M,R,
438,60,18,10,3,33,47,450,['n'],1,right,['0'],6,35,[-0.09053018],100,47,medium,plus,dotcolour,alfa,,,87,20,M,R,
439,61,19,10,3,36,44,468,['n'],1,right,['0'],6,57,[-0.08239578],100,44,hard,plus,dotcolour,alfa,,,87,20,M,R,
440,62,20,10,3,47,33,683,['n'],0,left,['2'],2,813,[-0.12906442],99,47,medium,plus,dotcolour,alfa,,,87,20,M,R,
441,63,21,10,3,27,53,567,['n'],1,right,['0'],6,55,[-0.11687183],100,53,easy,plus,dotcolour,alfa,,,87,20,M,R,
442,64,22,10,3,33,47,650,['n'],1,right,['0'],6,780,[0.04227837],15,47,medium,plus,dotcolour,alfa,,,87,20,M,R,
443,65,23,10,3,47,33,800,['c'],1,left,['9'],5,230,[0.06258232],99,47,medium,plus,dotcolour,alfa,,,87,20,M,R,
444,66,24,10,3,47,33,1034,['c'],1,left,['0'],6,116,[0.0697756],100,47,medium,plus,dotcolour,alfa,,,87,20,M,R,
445,67,25,10,3,53,27,700,['c'],1,left,['9'],5,173,[0.09969319],100,53,easy,plus,dotcolour,alfa,,,87,20,M,R,
446,68,26,10,3,33,47,584,['n'],1,right,['0'],6,64,[-0.07580053],100,47,medium,plus,dotcolour,alfa,,,87,20,M,R,
447,69,27,10,3,53,27,449,['c'],1,left,['0'],6,108,[0.06672123],100,53,easy,plus,dotcolour,alfa,,,87,20,M,R,
448,70,28,10,3,44,36,567,['c'],1,left,['9'],5,235,[-0.00828306],35,44,hard,plus,dotcolour,alfa,,,87,20,M,R,
449,71,29,10,3,53,27,699,['c'],1,left,['0'],6,103,[0.11310475],100,53,easy,plus,dotcolour,alfa,,,87,20,M,R,
450,72,30,10,3,27,53,549,['n'],1,right,['0'],6,46,[-0.06015694],100,53,easy,plus,dotcolour,alfa,,,87,20,M,R,
451,73,31,10,3,44,36,800,['n'],0,left,['0'],6,37,[-0.09121039],100,44,hard,plus,dotcolour,alfa,,,87,20,M,R,
452,74,32,10,3,36,44,616,['n'],1,right,['0'],6,45,[-0.07786043],100,44,hard,plus,dotcolour,alfa,,,87,20,M,R,
453,75,33,10,3,47,33,617,['c'],1,left,['0'],6,76,[0.04860426],100,47,medium,plus,dotcolour,alfa,,,87,20,M,R,
454,76,34,10,3,47,33,1150,['n'],0,left,['9'],5,131,[-0.07321296],100,47,medium,plus,dotcolour,alfa,,,87,20,M,R,
455,77,35,10,3,47,33,583,['c'],1,left,['0'],6,80,[0.12481571],100,47,medium,plus,dotcolour,alfa,,,87,20,M,R,
456,78,36,10,3,44,36,583,['c'],1,left,['0'],6,47,[0.06469331],100,44,hard,plus,dotcolour,alfa,,,87,20,M,R,
457,79,37,10,3,27,53,483,['n'],1,right,['0'],6,35,[-0.06742175],100,53,easy,plus,dotcolour,alfa,,,87,20,M,R,
458,80,38,10,3,36,44,616,['n'],1,right,['0'],6,34,[-0.0781792],100,44,hard,plus,dotcolour,alfa,,,87,20,M,R,
459,81,39,10,3,27,53,450,['n'],1,right,['0'],6,56,[-0.06787655],100,53,easy,plus,dotcolour,alfa,,,87,20,M,R,
460,82,40,10,3,44,36,900,['n'],0,left,['0'],6,52,[-0.08365364],100,44,hard,plus,dotcolour,alfa,,,87,20,M,R,
461,83,41,10,3,47,33,551,['c'],1,left,['0'],6,77,[0.12273594],100,47,medium,plus,dotcolour,alfa,,,87,20,M,R,
462,84,0,11,3,33,47,617,['n'],1,right,['9'],5,146,[-0.13488143],100,47,medium,plus,dotcolour,alfa,,,87,20,M,R,
463,85,1,11,3,36,44,484,['n'],1,right,['9'],5,97,[-0.06556797],100,44,hard,plus,dotcolour,alfa,,,87,20,M,R,
464,86,2,11,3,27,53,450,['n'],1,right,['9'],5,101,[-0.07562364],100,53,easy,plus,dotcolour,alfa,,,87,20,M,R,
465,87,3,11,3,44,36,1017,['c'],1,left,['9'],5,82,[0.08882934],100,44,hard,plus,dotcolour,alfa,,,87,20,M,R,
466,88,4,11,3,44,36,683,['n'],0,left,['9'],5,53,[-0.05143988],100,44,hard,plus,dotcolour,alfa,,,87,20,M,R,
467,89,5,11,3,33,47,483,['n'],1,right,['9'],5,49,[-0.07235582],100,47,medium,plus,dotcolour,alfa,,,87,20,M,R,
468,90,6,11,3,53,27,567,['c'],1,left,['0'],6,41,[0.11526664],100,53,easy,plus,dotcolour,alfa,,,87,20,M,R,
469,91,7,11,3,27,53,583,['n'],1,right,['9'],5,57,[-0.11027449],100,53,easy,plus,dotcolour,alfa,,,87,20,M,R,
470,92,8,11,3,44,36,950,['c'],1,left,['0'],6,90,[0.08558111],100,44,hard,plus,dotcolour,alfa,,,87,20,M,R,
471,93,9,11,3,33,47,650,['n'],1,right,['9'],5,61,[-0.07988517],100,47,medium,plus,dotcolour,alfa,,,87,20,M,R,
472,94,10,11,3,27,53,450,['n'],1,right,['0'],6,114,[-0.05513224],100,53,easy,plus,dotcolour,alfa,,,87,20,M,R,
473,95,11,11,3,47,33,633,['c'],1,left,['0'],6,77,[0.09419533],100,47,medium,plus,dotcolour,alfa,,,87,20,M,R,
474,96,12,11,3,44,36,617,['c'],1,left,['0'],6,114,[0.09679956],100,44,hard,plus,dotcolour,alfa,,,87,20,M,R,
475,97,13,11,3,47,33,684,['c'],1,left,['9'],5,124,[0.10270883],100,47,medium,plus,dotcolour,alfa,,,87,20,M,R,
476,98,14,11,3,47,33,617,['c'],1,left,['0'],6,87,[0.02404205],95,47,medium,plus,dotcolour,alfa,,,87,20,M,R,
477,99,15,11,3,27,53,533,['c'],0,right,['1'],1,696,[-0.09327989],2,53,easy,plus,dotcolour,alfa,,,87,20,M,R,
478,100,16,11,3,53,27,633,['c'],1,left,['0'],6,84,[0.09090865],100,53,easy,plus,dotcolour,alfa,,,87,20,M,R,
479,101,17,11,3,53,27,616,['c'],1,left,['0'],6,82,[0.11452361],100,53,easy,plus,dotcolour,alfa,,,87,20,M,R,
480,102,18,11,3,44,36,583,['c'],1,left,['0'],6,104,[0.09493668],100,44,hard,plus,dotcolour,alfa,,,87,20,M,R,
481,103,19,11,3,44,36,617,['c'],1,left,['9'],5,437,[0.05806621],96,44,hard,plus,dotcolour,alfa,,,87,20,M,R,
482,104,20,11,3,53,27,600,['c'],1,left,['0'],6,101,[0.13573903],100,53,easy,plus,dotcolour,alfa,,,87,20,M,R,
483,105,21,11,3,47,33,2417,['n'],0,left,['8'],4,665,[0.02193503],28,47,medium,plus,dotcolour,alfa,,,87,20,M,R,
484,106,22,11,3,53,27,600,['c'],1,left,['0'],6,81,[0.1492538],100,53,easy,plus,dotcolour,alfa,,,87,20,M,R,
485,107,23,11,3,33,47,534,['n'],1,right,['0'],6,81,[-0.07259607],100,47,medium,plus,dotcolour,alfa,,,87,20,M,R,
486,108,24,11,3,53,27,550,['c'],1,left,['0'],6,41,[0.09301009],100,53,easy,plus,dotcolour,alfa,,,87,20,M,R,
487,109,25,11,3,27,53,533,['n'],1,right,['0'],6,43,[-0.10199083],100,53,easy,plus,dotcolour,alfa,,,87,20,M,R,
488,110,26,11,3,33,47,717,['n'],1,right,['0'],6,94,[-0.08701029],100,47,medium,plus,dotcolour,alfa,,,87,20,M,R,
489,111,27,11,3,36,44,567,['n'],1,right,['0'],6,36,[-0.07467675],100,44,hard,plus,dotcolour,alfa,,,87,20,M,R,
490,112,28,11,3,47,33,516,['c'],1,left,['0'],6,39,[0.07713661],100,47,medium,plus,dotcolour,alfa,,,87,20,M,R,
491,113,29,11,3,33,47,501,['n'],1,right,['0'],6,68,[-0.10248976],100,47,medium,plus,dotcolour,alfa,,,87,20,M,R,
492,114,30,11,3,47,33,683,['c'],1,left,['0'],6,23,[0.07352708],100,47,medium,plus,dotcolour,alfa,,,87,20,M,R,
493,115,31,11,3,36,44,684,['n'],1,right,['0'],6,29,[-0.07987517],100,44,hard,plus,dotcolour,alfa,,,87,20,M,R,
494,116,32,11,3,53,27,567,['c'],1,left,['9'],5,125,[0.08491737],100,53,easy,plus,dotcolour,alfa,,,87,20,M,R,
495,117,33,11,3,36,44,700,['n'],1,right,['0'],6,62,[-0.04747317],100,44,hard,plus,dotcolour,alfa,,,87,20,M,R,
496,118,34,11,3,44,36,650,['c'],1,left,['0'],6,99,[0.06674317],100,44,hard,plus,dotcolour,alfa,,,87,20,M,R,
497,119,35,11,3,36,44,684,['n'],1,right,['9'],5,124,[-0.03261788],97,44,hard,plus,dotcolour,alfa,,,87,20,M,R,
498,120,36,11,3,36,44,633,['n'],1,right,['9'],5,375,[-0.05217073],96,44,hard,plus,dotcolour,alfa,,,87,20,M,R,
499,121,37,11,3,33,47,467,['n'],1,right,['9'],5,55,[-0.06926276],100,47,medium,plus,dotcolour,alfa,,,87,20,M,R,
500,122,38,11,3,47,33,700,['c'],1,left,['0'],6,42,[0.08047003],100,47,medium,plus,dotcolour,alfa,,,87,20,M,R,
501,123,39,11,3,27,53,634,['n'],1,right,['9'],5,40,[-0.07593352],100,53,easy,plus,dotcolour,alfa,,,87,20,M,R,
502,124,40,11,3,27,53,450,['n'],1,right,['9'],5,78,[-0.13039063],100,53,easy,plus,dotcolour,alfa,,,87,20,M,R,
503,125,41,11,3,36,44,634,['n'],1,right,['9'],5,114,[-0.10334332],100,44,hard,plus,dotcolour,alfa,,,87,20,M,R,
504,0,0,12,4,36,44,618,['n'],1,right,['9'],5,123,[-0.03879167],73,44,hard,minus,dotcolour,alfa,,,87,20,M,R,
505,1,1,12,4,53,27,584,['c'],1,left,['0'],6,24,[0.08136297],99,53,easy,minus,dotcolour,alfa,,,87,20,M,R,
506,2,2,12,4,53,27,716,['c'],1,left,['0'],6,44,[0.07388483],96,53,easy,minus,dotcolour,alfa,,,87,20,M,R,
507,3,3,12,4,27,53,484,['n'],1,right,['0'],6,71,[-0.10025173],97,53,easy,minus,dotcolour,alfa,,,87,20,M,R,
508,4,4,12,4,47,33,533,['c'],1,left,['0'],6,81,[0.09858435],96,47,medium,minus,dotcolour,alfa,,,87,20,M,R,
509,5,5,12,4,44,36,466,['c'],1,left,['0'],6,36,[0.06328911],95,44,hard,minus,dotcolour,alfa,,,87,20,M,R,
510,6,6,12,4,36,44,500,['n'],1,right,['0'],6,72,[-0.07169197],92,44,hard,minus,dotcolour,alfa,,,87,20,M,R,
511,7,7,12,4,53,27,767,['c'],1,left,['0'],6,32,[0.05609069],94,53,easy,minus,dotcolour,alfa,,,87,20,M,R,
512,8,8,12,4,53,27,483,['c'],1,left,['0'],6,165,[0.10547038],91,53,easy,minus,dotcolour,alfa,,,87,20,M,R,
513,9,9,12,4,27,53,650,['n'],1,right,['9'],5,133,[-0.07717637],87,53,easy,minus,dotcolour,alfa,,,87,20,M,R,
514,10,10,12,4,47,33,667,['c'],1,left,['0'],6,47,[0.08720092],97,47,medium,minus,dotcolour,alfa,,,87,20,M,R,
515,11,11,12,4,44,36,1067,['c'],1,left,['0'],6,4,[0.07522652],100,44,hard,minus,dotcolour,alfa,,,87,20,M,R,
516,12,12,12,4,27,53,767,['n'],1,right,['0'],6,983,[-0.24219212],90,53,easy,minus,dotcolour,alfa,,,87,20,M,R,
517,13,13,12,4,33,47,667,['n'],1,right,['0'],6,29,[-0.07074406],98,47,medium,minus,dotcolour,alfa,,,87,20,M,R,
518,14,14,12,4,33,47,766,['n'],1,right,['9'],5,39,[-0.0949565],99,47,medium,minus,dotcolour,alfa,,,87,20,M,R,
519,15,15,12,4,44,36,717,['c'],1,left,['9'],5,114,[0.04121353],75,44,hard,minus,dotcolour,alfa,,,87,20,M,R,
520,16,16,12,4,47,33,1583,['c'],1,left,['8'],4,104,[0.05555236],82,47,medium,minus,dotcolour,alfa,,,87,20,M,R,
521,17,17,12,4,27,53,633,['n'],1,right,['0'],6,52,[-0.09051785],97,53,easy,minus,dotcolour,alfa,,,87,20,M,R,
522,18,18,12,4,36,44,567,['n'],1,right,['0'],6,36,[-0.06046852],95,44,hard,minus,dotcolour,alfa,,,87,20,M,R,
523,19,19,12,4,36,44,750,['n'],1,right,['0'],6,22,[-0.09113375],100,44,hard,minus,dotcolour,alfa,,,87,20,M,R,
524,20,20,12,4,36,44,685,['n'],1,right,['0'],6,28,[-0.03075328],84,44,hard,minus,dotcolour,alfa,,,87,20,M,R,
525,21,21,12,4,53,27,583,['c'],1,left,['0'],6,85,[0.12465771],98,53,easy,minus,dotcolour,alfa,,,87,20,M,R,
526,22,22,12,4,33,47,550,['n'],1,right,['0'],6,5,[-0.08446635],100,47,medium,minus,dotcolour,alfa,,,87,20,M,R,
527,23,23,12,4,27,53,516,['n'],1,right,['0'],6,34,[-0.05863912],95,53,easy,minus,dotcolour,alfa,,,87,20,M,R,
528,24,24,12,4,44,36,617,['c'],1,left,['0'],6,41,[0.08509221],98,44,hard,minus,dotcolour,alfa,,,87,20,M,R,
529,25,25,12,4,33,47,483,['n'],1,right,['0'],6,45,[-0.10503824],99,47,medium,minus,dotcolour,alfa,,,87,20,M,R,
530,26,26,12,4,27,53,434,['n'],1,right,['0'],6,3,[-0.07215853],100,53,easy,minus,dotcolour,alfa,,,87,20,M,R,
531,27,27,12,4,47,33,834,['c'],1,left,['0'],6,74,[0.08202922],94,47,medium,minus,dotcolour,alfa,,,87,20,M,R,
532,28,28,12,4,27,53,466,['n'],1,right,['0'],6,62,[-0.11196847],98,53,easy,minus,dotcolour,alfa,,,87,20,M,R,
533,29,29,12,4,44,36,1483,['c'],1,left,['8'],4,41,[0.03414321],82,44,hard,minus,dotcolour,alfa,,,87,20,M,R,
534,30,30,12,4,33,47,483,['n'],1,right,['0'],6,45,[-0.09691066],98,47,medium,minus,dotcolour,alfa,,,87,20,M,R,
535,31,31,12,4,33,47,933,['n'],1,right,['0'],6,64,[-0.10924394],98,47,medium,minus,dotcolour,alfa,,,87,20,M,R,
536,32,32,12,4,47,33,684,['c'],1,left,['9'],5,51,[0.07265943],95,47,medium,minus,dotcolour,alfa,,,87,20,M,R,
537,33,33,12,4,33,47,550,['n'],1,right,['0'],6,20,[-0.08014501],99,47,medium,minus,dotcolour,alfa,,,87,20,M,R,
538,34,34,12,4,36,44,567,['n'],1,right,['0'],6,6,[-0.06451144],100,44,hard,minus,dotcolour,alfa,,,87,20,M,R,
539,35,35,12,4,47,33,683,['c'],1,left,['0'],6,44,[0.09827874],99,47,medium,minus,dotcolour,alfa,,,87,20,M,R,
540,36,36,12,4,53,27,484,['c'],1,left,['0'],6,40,[0.06902743],96,53,easy,minus,dotcolour,alfa,,,87,20,M,R,
541,37,37,12,4,47,33,766,['n'],0,left,['9'],5,25,[-0.09560425],100,47,medium,minus,dotcolour,alfa,,,87,20,M,R,
542,38,38,12,4,53,27,466,['c'],1,left,['0'],6,79,[0.06915444],90,53,easy,minus,dotcolour,alfa,,,87,20,M,R,
543,39,39,12,4,44,36,634,['n'],0,left,['9'],5,43,[-0.08695418],98,44,hard,minus,dotcolour,alfa,,,87,20,M,R,
544,40,40,12,4,36,44,651,['n'],1,right,['9'],5,24,[-0.05811276],97,44,hard,minus,dotcolour,alfa,,,87,20,M,R,
545,41,41,12,4,44,36,633,['c'],1,left,['0'],6,63,[0.04314499],82,44,hard,minus,dotcolour,alfa,,,87,20,M,R,
546,42,0,13,4,47,33,584,['c'],1,left,['0'],6,2695,[0.40128612],90,47,medium,minus,dotcolour,alfa,,,87,20,M,R,
547,43,1,13,4,33,47,1933,['c'],0,right,['1'],1,902,[-0.02233344],45,47,medium,minus,dotcolour,alfa,,,87,20,M,R,
548,44,2,13,4,44,36,900,['n'],0,left,['9'],5,174,[-6.11785145e-05],50,44,hard,minus,dotcolour,alfa,,,87,20,M,R,
549,45,3,13,4,36,44,584,['n'],1,right,['9'],5,81,[-0.07148375],91,44,hard,minus,dotcolour,alfa,,,87,20,M,R,
550,46,4,13,4,27,53,567,['n'],1,right,['9'],5,65,[-0.05315054],87,53,easy,minus,dotcolour,alfa,,,87,20,M,R,
551,47,5,13,4,47,33,750,['c'],1,left,['0'],6,49,[0.09806096],98,47,medium,minus,dotcolour,alfa,,,87,20,M,R,
552,48,6,13,4,36,44,550,['n'],1,right,['0'],6,43,[-0.0918684],98,44,hard,minus,dotcolour,alfa,,,87,20,M,R,
553,49,7,13,4,27,53,700,['n'],1,right,['0'],6,38,[-0.08831567],98,53,easy,minus,dotcolour,alfa,,,87,20,M,R,
554,50,8,13,4,47,33,600,['c'],1,left,['0'],6,46,[0.07725721],96,47,medium,minus,dotcolour,alfa,,,87,20,M,R,
555,51,9,13,4,27,53,465,['n'],1,right,['9'],5,19,[-0.07632233],99,53,easy,minus,dotcolour,alfa,,,87,20,M,R,
556,52,10,13,4,44,36,767,['n'],0,left,['9'],5,61,[-0.08631933],96,44,hard,minus,dotcolour,alfa,,,87,20,M,R,
557,53,11,13,4,47,33,517,['c'],1,left,['0'],6,30,[0.0857371],99,47,medium,minus,dotcolour,alfa,,,87,20,M,R,
558,54,12,13,4,36,44,634,['c'],0,right,['3'],3,941,[0.02621059],56,44,hard,minus,dotcolour,alfa,,,87,20,M,R,
559,55,13,13,4,33,47,850,['n'],1,right,['0'],6,23,[-0.08108389],99,47,medium,minus,dotcolour,alfa,,,87,20,M,R,
560,56,14,13,4,53,27,501,['c'],1,left,['0'],6,75,[0.06301322],89,53,easy,minus,dotcolour,alfa,,,87,20,M,R,
561,57,15,13,4,27,53,449,['n'],1,right,['0'],6,55,[-0.08229781],96,53,easy,minus,dotcolour,alfa,,,87,20,M,R,
562,58,16,13,4,33,47,500,['n'],1,right,['0'],6,35,[-0.09606005],99,47,medium,minus,dotcolour,alfa,,,87,20,M,R,
563,59,17,13,4,27,53,466,['n'],1,right,['0'],6,56,[-0.09603453],97,53,easy,minus,dotcolour,alfa,,,87,20,M,R,
564,60,18,13,4,44,36,484,['c'],1,left,['0'],6,115,[0.05959735],83,44,hard,minus,dotcolour,alfa,,,87,20,M,R,
565,61,19,13,4,36,44,450,['n'],1,right,['9'],5,526,[-0.04422061],63,44,hard,minus,dotcolour,alfa,,,87,20,M,R,
566,62,20,13,4,47,33,717,['n'],0,left,['9'],5,54,[-0.0982001],98,47,medium,minus,dotcolour,alfa,,,87,20,M,R,
567,63,21,13,4,33,47,682,['n'],1,right,['9'],5,50,[-0.09224013],98,47,medium,minus,dotcolour,alfa,,,87,20,M,R,
568,64,22,13,4,47,33,633,['c'],1,left,['0'],6,32,[0.06999702],97,47,medium,minus,dotcolour,alfa,,,87,20,M,R,
569,65,23,13,4,44,36,583,['c'],1,left,['0'],6,40,[0.04407977],88,44,hard,minus,dotcolour,alfa,,,87,20,M,R,
570,66,24,13,4,33,47,534,['n'],1,right,['0'],6,26,[-0.08199079],99,47,medium,minus,dotcolour,alfa,,,87,20,M,R,
571,67,25,13,4,53,27,583,['c'],1,left,['0'],6,43,[0.06458242],94,53,easy,minus,dotcolour,alfa,,,87,20,M,R,
572,68,26,13,4,36,44,550,['n'],1,right,['9'],5,60,[-0.05439597],88,44,hard,minus,dotcolour,alfa,,,87,20,M,R,
573,69,27,13,4,36,44,599,['n'],1,right,['9'],5,436,[-0.0759345],74,44,hard,minus,dotcolour,alfa,,,87,20,M,R,
574,70,28,13,4,33,47,750,['n'],1,right,['9'],5,38,[-0.09401579],99,47,medium,minus,dotcolour,alfa,,,87,20,M,R,
575,71,29,13,4,27,53,567,['n'],1,right,['9'],5,87,[-0.09401379],95,53,easy,minus,dotcolour,alfa,,,87,20,M,R,
576,72,30,13,4,53,27,683,['c'],1,left,['0'],6,26,[0.08749429],99,53,easy,minus,dotcolour,alfa,,,87,20,M,R,
577,73,31,13,4,27,53,534,['n'],1,right,['9'],5,100,[-0.06521499],86,53,easy,minus,dotcolour,alfa,,,87,20,M,R,
578,74,32,13,4,53,27,551,['c'],1,left,['0'],6,75,[0.05442767],86,53,easy,minus,dotcolour,alfa,,,87,20,M,R,
579,75,33,13,4,44,36,750,['n'],0,left,['2'],2,867,[-0.16003267],82,44,hard,minus,dotcolour,alfa,,,87,20,M,R,
580,76,34,13,4,44,36,1182,['n'],0,left,['9'],5,27,[-0.0844049],99,44,hard,minus,dotcolour,alfa,,,87,20,M,R,
581,77,35,13,4,36,44,750,['n'],1,right,['9'],5,53,[-0.06531362],93,44,hard,minus,dotcolour,alfa,,,87,20,M,R,
582,78,36,13,4,53,27,616,['c'],1,left,['0'],6,67,[0.11368444],98,53,easy,minus,dotcolour,alfa,,,87,20,M,R,
583,79,37,13,4,44,36,567,['n'],0,left,['9'],5,75,[-0.0500639],84,44,hard,minus,dotcolour,alfa,,,87,20,M,R,
584,80,38,13,4,47,33,867,['c'],1,left,['0'],6,47,[0.08364175],97,47,medium,minus,dotcolour,alfa,,,87,20,M,R,
585,81,39,13,4,53,27,916,['c'],1,left,['9'],5,98,[0.05907125],85,53,easy,minus,dotcolour,alfa,,,87,20,M,R,
586,82,40,13,4,33,47,567,['n'],1,right,['9'],5,112,[-0.0635827],85,47,medium,minus,dotcolour,alfa,,,87,20,M,R,
587,83,41,13,4,53,27,633,['c'],1,left,['9'],5,51,[0.06475888],93,53,easy,minus,dotcolour,alfa,,,87,20,M,R,
588,84,0,14,4,33,47,718,['n'],1,right,['9'],5,70,[-0.07042275],92,47,medium,minus,dotcolour,alfa,,,87,20,M,R,
589,85,1,14,4,36,44,533,['n'],1,right,['9'],5,47,[-0.08737812],97,44,hard,minus,dotcolour,alfa,,,87,20,M,R,
590,86,2,14,4,36,44,634,['n'],1,right,['9'],5,21,[-0.05842865],97,44,hard,minus,dotcolour,alfa,,,87,20,M,R,
591,87,3,14,4,47,33,566,['n'],0,left,['9'],5,24,[-0.07213197],99,47,medium,minus,dotcolour,alfa,,,87,20,M,R,
592,88,4,14,4,36,44,801,['n'],1,right,['9'],5,32,[-0.09739265],99,44,hard,minus,dotcolour,alfa,,,87,20,M,R,
593,89,5,14,4,47,33,416,['c'],1,left,['0'],6,48,[0.07440358],96,47,medium,minus,dotcolour,alfa,,,87,20,M,R,
594,90,6,14,4,33,47,550,['n'],1,right,['9'],5,17,[-0.07771561],100,47,medium,minus,dotcolour,alfa,,,87,20,M,R,
595,91,7,14,4,47,33,484,['c'],1,left,['0'],6,71,[0.0598966],88,47,medium,minus,dotcolour,alfa,,,87,20,M,R,
596,92,8,14,4,47,33,1000,['c'],1,left,['0'],6,37,[0.02871324],79,47,medium,minus,dotcolour,alfa,,,87,20,M,R,
597,93,9,14,4,27,53,467,['n'],1,right,['9'],5,35,[-0.07211857],97,53,easy,minus,dotcolour,alfa,,,87,20,M,R,
598,94,10,14,4,27,53,566,['n'],1,right,['9'],5,19,[-0.08197622],100,53,easy,minus,dotcolour,alfa,,,87,20,M,R,
599,95,11,14,4,44,36,584,['c'],1,left,['0'],6,13,[0.04908361],98,44,hard,minus,dotcolour,alfa,,,87,20,M,R,
600,96,12,14,4,47,33,900,['c'],1,left,['0'],6,730,[0.25954183],94,47,medium,minus,dotcolour,alfa,,,87,20,M,R,
601,97,13,14,4,53,27,616,['c'],1,left,['0'],6,21,[0.06449476],98,53,easy,minus,dotcolour,alfa,,,87,20,M,R,
602,98,14,14,4,33,47,884,['n'],1,right,['9'],5,50,[-0.06628512],94,47,medium,minus,dotcolour,alfa,,,87,20,M,R,
603,99,15,14,4,53,27,883,['c'],1,left,['0'],6,38,[0.0845839],98,53,easy,minus,dotcolour,alfa,,,87,20,M,R,
604,100,16,14,4,44,36,567,['c'],1,left,['0'],6,56,[0.06432352],92,44,hard,minus,dotcolour,alfa,,,87,20,M,R,
605,101,17,14,4,27,53,534,['n'],1,right,['9'],5,58,[-0.10749712],98,53,easy,minus,dotcolour,alfa,,,87,20,M,R,
606,102,18,14,4,33,47,649,['n'],1,right,['9'],5,647,[-0.16316269],86,47,medium,minus,dotcolour,alfa,,,87,20,M,R,
607,103,19,14,4,53,27,566,['c'],1,left,['0'],6,55,[0.07029356],94,53,easy,minus,dotcolour,alfa,,,87,20,M,R,
608,104,20,14,4,33,47,599,['n'],1,right,['9'],5,151,[-0.09840291],91,47,medium,minus,dotcolour,alfa,,,87,20,M,R,
609,105,21,14,4,44,36,584,['c'],1,left,['0'],6,82,[0.02003032],65,44,hard,minus,dotcolour,alfa,,,87,20,M,R,
610,106,22,14,4,47,33,584,['c'],1,left,['0'],6,41,[0.0976989],99,47,medium,minus,dotcolour,alfa,,,87,20,M,R,
611,107,23,14,4,44,36,651,['n'],0,left,['9'],5,70,[-0.0423258],81,44,hard,minus,dotcolour,alfa,,,87,20,M,R,
612,108,24,14,4,36,44,867,['c'],0,right,['0'],6,34,[0.04417596],90,44,hard,minus,dotcolour,alfa,,,87,20,M,R,
613,109,25,14,4,53,27,482,['c'],1,left,['0'],6,103,[0.07599618],89,53,easy,minus,dotcolour,alfa,,,87,20,M,R,
614,110,26,14,4,27,53,750,['n'],1,right,['9'],5,71,[-0.08431397],95,53,easy,minus,dotcolour,alfa,,,87,20,M,R,
615,111,27,14,4,36,44,684,['n'],1,right,['9'],5,50,[-0.0900769],97,44,hard,minus,dotcolour,alfa,,,87,20,M,R,
616,112,28,14,4,36,44,534,['n'],1,right,['9'],5,85,[-0.03760549],76,44,hard,minus,dotcolour,alfa,,,87,20,M,R,
617,113,29,14,4,36,44,616,['n'],1,right,['9'],5,41,[-0.09080871],98,44,hard,minus,dotcolour,alfa,,,87,20,M,R,
618,114,30,14,4,27,53,617,['n'],1,right,['9'],5,49,[-0.06602188],94,53,easy,minus,dotcolour,alfa,,,87,20,M,R,
619,115,31,14,4,44,36,584,['c'],1,left,['0'],6,32,[0.08510964],99,44,hard,minus,dotcolour,alfa,,,87,20,M,R,
620,116,32,14,4,27,53,567,['n'],1,right,['9'],5,49,[-0.05541324],90,53,easy,minus,dotcolour,alfa,,,87,20,M,R,
621,117,33,14,4,53,27,617,['c'],1,left,['0'],6,40,[0.09802568],99,53,easy,minus,dotcolour,alfa,,,87,20,M,R,
622,118,34,14,4,47,33,650,['n'],0,left,['9'],5,86,[-0.03296436],73,47,medium,minus,dotcolour,alfa,,,87,20,M,R,
623,119,35,14,4,27,53,550,['n'],1,right,['9'],5,46,[-0.0741626],96,53,easy,minus,dotcolour,alfa,,,87,20,M,R,
624,120,36,14,4,33,47,584,['n'],1,right,['9'],5,22,[-0.07354001],99,47,medium,minus,dotcolour,alfa,,,87,20,M,R,
625,121,37,14,4,44,36,800,['c'],1,left,['9'],5,47,[0.07193688],95,44,hard,minus,dotcolour,alfa,,,87,20,M,R,
626,122,38,14,4,53,27,568,['c'],1,left,['0'],6,39,[0.06825227],96,53,easy,minus,dotcolour,alfa,,,87,20,M,R,
627,123,39,14,4,44,36,733,['n'],0,left,['9'],5,42,[-0.03832753],84,44,hard,minus,dotcolour,alfa,,,87,20,M,R,
628,124,40,14,4,53,27,516,['c'],1,left,['0'],6,53,[0.05179464],88,53,easy,minus,dotcolour,alfa,,,87,20,M,R,
629,125,41,14,4,33,47,516,['n'],1,right,['9'],5,55,[-0.07391327],94,47,medium,minus,dotcolour,alfa,,,87,20,M,R,
630,0,0,15,5,47,33,651,['n'],0,left,['9'],5,398,[-0.02735288],83,47,medium,plus,dotcolour,alfa,,,87,20,M,R,
631,1,1,15,5,47,33,584,['c'],1,left,['0'],6,63,[0.07745967],100,47,medium,plus,dotcolour,alfa,,,87,20,M,R,
632,2,2,15,5,44,36,650,['n'],0,left,['9'],5,35,[-0.08159562],100,44,hard,plus,dotcolour,alfa,,,87,20,M,R,
633,3,3,15,5,27,53,550,['n'],1,right,['9'],5,62,[-0.06381323],100,53,easy,plus,dotcolour,alfa,,,87,20,M,R,
634,4,4,15,5,53,27,634,['c'],1,left,['0'],6,619,[0.32183911],100,53,easy,plus,dotcolour,alfa,,,87,20,M,R,
635,5,5,15,5,53,27,650,['n'],0,left,['9'],5,25,[-0.07743421],100,53,easy,plus,dotcolour,alfa,,,87,20,M,R,
636,6,6,15,5,33,47,533,['n'],1,right,['9'],5,20,[-0.07760129],100,47,medium,plus,dotcolour,alfa,,,87,20,M,R,
637,7,7,15,5,44,36,967,['c'],1,left,['9'],5,118,[0.07020774],100,44,hard,plus,dotcolour,alfa,,,87,20,M,R,
638,8,8,15,5,44,36,933,['n'],0,left,['9'],5,14,[-0.08680642],100,44,hard,plus,dotcolour,alfa,,,87,20,M,R,
639,9,9,15,5,33,47,550,['n'],1,right,['9'],5,64,[-0.11717374],100,47,medium,plus,dotcolour,alfa,,,87,20,M,R,
640,10,10,15,5,27,53,600,['n'],1,right,['9'],5,31,[-0.08535136],100,53,easy,plus,dotcolour,alfa,,,87,20,M,R,
641,11,11,15,5,53,27,684,['c'],1,left,['0'],6,68,[0.11646319],100,53,easy,plus,dotcolour,alfa,,,87,20,M,R,
642,12,12,15,5,33,47,467,['n'],1,right,['9'],5,40,[-0.09719713],100,47,medium,plus,dotcolour,alfa,,,87,20,M,R,
643,13,13,15,5,36,44,650,['n'],1,right,['9'],5,38,[-0.07907545],100,44,hard,plus,dotcolour,alfa,,,87,20,M,R,
644,14,14,15,5,36,44,484,['n'],1,right,['9'],5,50,[-0.05518646],100,44,hard,plus,dotcolour,alfa,,,87,20,M,R,
645,15,15,15,5,53,27,567,['c'],1,left,['0'],6,11,[0.05716819],100,53,easy,plus,dotcolour,alfa,,,87,20,M,R,
646,16,16,15,5,47,33,617,['n'],0,left,['9'],5,275,[-0.04001932],94,47,medium,plus,dotcolour,alfa,,,87,20,M,R,
647,17,17,15,5,27,53,618,['n'],1,right,['9'],5,48,[-0.08382517],100,53,easy,plus,dotcolour,alfa,,,87,20,M,R,
648,18,18,15,5,36,44,650,['n'],1,right,['9'],5,278,[-0.04168691],95,44,hard,plus,dotcolour,alfa,,,87,20,M,R,
649,19,19,15,5,53,27,551,['c'],1,left,['0'],6,46,[0.09503049],100,53,easy,plus,dotcolour,alfa,,,87,20,M,R,
650,20,20,15,5,27,53,583,['n'],1,right,['9'],5,55,[-0.09333818],100,53,easy,plus,dotcolour,alfa,,,87,20,M,R,
651,21,21,15,5,44,36,816,['n'],0,left,['9'],5,53,[-0.11573654],100,44,hard,plus,dotcolour,alfa,,,87,20,M,R,
652,22,22,15,5,36,44,599,['n'],1,right,['9'],5,37,[-0.07724703],100,44,hard,plus,dotcolour,alfa,,,87,20,M,R,
653,23,23,15,5,47,33,634,['n'],0,left,['9'],5,59,[-0.06606437],100,47,medium,plus,dotcolour,alfa,,,87,20,M,R,
654,24,24,15,5,33,47,466,['n'],1,right,['9'],5,47,[-0.06451534],100,47,medium,plus,dotcolour,alfa,,,87,20,M,R,
655,25,25,15,5,36,44,567,['n'],1,right,['9'],5,56,[-0.07301181],100,44,hard,plus,dotcolour,alfa,,,87,20,M,R,
656,26,26,15,5,44,36,617,['c'],1,left,['0'],6,55,[0.07892371],100,44,hard,plus,dotcolour,alfa,,,87,20,M,R,
657,27,27,15,5,33,47,750,['n'],1,right,['9'],5,24,[-0.06220505],100,47,medium,plus,dotcolour,alfa,,,87,20,M,R,
658,28,28,15,5,33,47,533,['n'],1,right,['9'],5,35,[-0.03058457],100,47,medium,plus,dotcolour,alfa,,,87,20,M,R,
659,29,29,15,5,53,27,633,['c'],1,left,['0'],6,58,[0.10432636],100,53,easy,plus,dotcolour,alfa,,,87,20,M,R,
660,30,30,15,5,36,44,717,['n'],1,right,['9'],5,75,[-0.01069462],80,44,hard,plus,dotcolour,alfa,,,87,20,M,R,
661,31,31,15,5,47,33,883,['c'],1,left,['0'],6,702,[0.185919],100,47,medium,plus,dotcolour,alfa,,,87,20,M,R,
662,32,32,15,5,27,53,617,['n'],1,right,['9'],5,50,[-0.07384973],100,53,easy,plus,dotcolour,alfa,,,87,20,M,R,
663,33,33,15,5,27,53,617,['n'],1,right,['9'],5,49,[-0.06287757],100,53,easy,plus,dotcolour,alfa,,,87,20,M,R,
664,34,34,15,5,53,27,634,['c'],1,left,['0'],6,47,[0.08169518],100,53,easy,plus,dotcolour,alfa,,,87,20,M,R,
665,35,35,15,5,44,36,767,['n'],0,left,['9'],5,32,[-0.08227566],100,44,hard,plus,dotcolour,alfa,,,87,20,M,R,
666,36,36,15,5,27,53,635,['n'],1,right,['9'],5,54,[-0.0882445],100,53,easy,plus,dotcolour,alfa,,,87,20,M,R,
667,37,37,15,5,47,33,1267,['c'],1,left,['9'],5,91,[0.10294686],100,47,medium,plus,dotcolour,alfa,,,87,20,M,R,
668,38,38,15,5,36,44,684,['n'],1,right,['9'],5,93,[-0.12599825],100,44,hard,plus,dotcolour,alfa,,,87,20,M,R,
669,39,39,15,5,47,33,667,['c'],1,left,['0'],6,32,[0.03467392],100,47,medium,plus,dotcolour,alfa,,,87,20,M,R,
670,40,40,15,5,44,36,600,['c'],1,left,['0'],6,48,[0.05615244],100,44,hard,plus,dotcolour,alfa,,,87,20,M,R,
671,41,41,15,5,33,47,766,['n'],1,right,['9'],5,1,[-0.07193262],100,47,medium,plus,dotcolour,alfa,,,87,20,M,R,
672,42,0,16,5,53,27,801,['c'],1,left,['0'],6,597,[0.15171088],100,53,easy,plus,dotcolour,alfa,,,87,20,M,R,
673,43,1,16,5,36,44,717,['n'],1,right,['9'],5,58,[-0.07434381],100,44,hard,plus,dotcolour,alfa,,,87,20,M,R,
674,44,2,16,5,33,47,582,['n'],1,right,['9'],5,73,[-0.09450712],100,47,medium,plus,dotcolour,alfa,,,87,20,M,R,
675,45,3,16,5,27,53,617,['n'],1,right,['9'],5,38,[-0.06912253],100,53,easy,plus,dotcolour,alfa,,,87,20,M,R,
676,46,4,16,5,36,44,783,['n'],1,right,['9'],5,39,[-0.07271222],100,44,hard,plus,dotcolour,alfa,,,87,20,M,R,
677,47,5,16,5,36,44,666,['n'],1,right,['9'],5,61,[-0.08595121],100,44,hard,plus,dotcolour,alfa,,,87,20,M,R,
678,48,6,16,5,47,33,516,['c'],1,left,['9'],5,62,[0.09100574],100,47,medium,plus,dotcolour,alfa,,,87,20,M,R,
679,49,7,16,5,44,36,683,['c'],1,left,['9'],5,74,[0.03819151],99,44,hard,plus,dotcolour,alfa,,,87,20,M,R,
680,50,8,16,5,36,44,783,['n'],1,right,['9'],5,33,[-0.08969043],100,44,hard,plus,dotcolour,alfa,,,87,20,M,R,
681,51,9,16,5,53,27,600,['c'],1,left,['0'],6,17,[0.0802907],100,53,easy,plus,dotcolour,alfa,,,87,20,M,R,
682,52,10,16,5,36,44,650,['n'],1,right,['9'],5,55,[-0.06070597],100,44,hard,plus,dotcolour,alfa,,,87,20,M,R,
683,53,11,16,5,44,36,750,['c'],1,left,['0'],6,41,[0.06046241],100,44,hard,plus,dotcolour,alfa,,,87,20,M,R,
684,54,12,16,5,44,36,1067,['n'],0,left,['9'],5,21,[-0.10129004],100,44,hard,plus,dotcolour,alfa,,,87,20,M,R,
685,55,13,16,5,27,53,600,['n'],1,right,['9'],5,39,[-0.07202773],100,53,easy,plus,dotcolour,alfa,,,87,20,M,R,
686,56,14,16,5,27,53,500,['n'],1,right,['9'],5,26,[-0.11223414],100,53,easy,plus,dotcolour,alfa,,,87,20,M,R,
687,57,15,16,5,27,53,483,['n'],1,right,['9'],5,63,[-0.07576374],100,53,easy,plus,dotcolour,alfa,,,87,20,M,R,
688,58,16,16,5,47,33,649,['c'],1,left,['0'],6,20,[0.0958976],100,47,medium,plus,dotcolour,alfa,,,87,20,M,R,
689,59,17,16,5,36,44,900,['n'],1,right,['9'],5,24,[-0.06045699],100,44,hard,plus,dotcolour,alfa,,,87,20,M,R,
690,60,18,16,5,53,27,583,['c'],1,left,['0'],6,33,[0.09691176],100,53,easy,plus,dotcolour,alfa,,,87,20,M,R,
691,61,19,16,5,47,33,600,['c'],1,left,['0'],6,65,[0.06769887],100,47,medium,plus,dotcolour,alfa,,,87,20,M,R,
692,62,20,16,5,53,27,500,['c'],1,left,['0'],6,83,[0.08652613],100,53,easy,plus,dotcolour,alfa,,,87,20,M,R,
693,63,21,16,5,47,33,566,['c'],1,left,['0'],6,35,[0.09725926],100,47,medium,plus,dotcolour,alfa,,,87,20,M,R,
694,64,22,16,5,36,44,650,['n'],1,right,['9'],5,89,[-0.08351446],100,44,hard,plus,dotcolour,alfa,,,87,20,M,R,
695,65,23,16,5,27,53,617,['n'],1,right,['9'],5,62,[-0.08861395],100,53,easy,plus,dotcolour,alfa,,,87,20,M,R,
696,66,24,16,5,33,47,734,['n'],1,right,['9'],5,40,[-0.06476515],100,47,medium,plus,dotcolour,alfa,,,87,20,M,R,
697,67,25,16,5,33,47,634,['n'],1,right,['9'],5,70,[-0.01390573],87,47,medium,plus,dotcolour,alfa,,,87,20,M,R,
698,68,26,16,5,47,33,700,['c'],1,left,['0'],6,89,[0.03341936],98,47,medium,plus,dotcolour,alfa,,,87,20,M,R,
699,69,27,16,5,33,47,601,['n'],1,right,['9'],5,15,[-0.07256654],100,47,medium,plus,dotcolour,alfa,,,87,20,M,R,
700,70,28,16,5,44,36,1016,['c'],1,left,['0'],6,15,[0.05745121],100,44,hard,plus,dotcolour,alfa,,,87,20,M,R,
701,71,29,16,5,27,53,517,['n'],1,right,['9'],5,43,[-0.10191482],100,53,easy,plus,dotcolour,alfa,,,87,20,M,R,
702,72,30,16,5,47,33,1517,['n'],0,left,['9'],5,14,[-0.0698374],100,47,medium,plus,dotcolour,alfa,,,87,20,M,R,
703,73,31,16,5,33,47,584,['n'],1,right,['9'],5,23,[-0.08453322],100,47,medium,plus,dotcolour,alfa,,,87,20,M,R,
704,74,32,16,5,27,53,550,['n'],1,right,['9'],5,50,[-0.05758403],100,53,easy,plus,dotcolour,alfa,,,87,20,M,R,
705,75,33,16,5,44,36,817,['n'],0,left,['9'],5,1,[-0.07244042],100,44,hard,plus,dotcolour,alfa,,,87,20,M,R,
706,76,34,16,5,53,27,567,['c'],1,left,['0'],6,83,[0.08777046],100,53,easy,plus,dotcolour,alfa,,,87,20,M,R,
707,77,35,16,5,44,36,483,['c'],1,left,['0'],6,54,[0.08933376],100,44,hard,plus,dotcolour,alfa,,,87,20,M,R,
708,78,36,16,5,33,47,517,['n'],1,right,['9'],5,49,[-0.07446308],100,47,medium,plus,dotcolour,alfa,,,87,20,M,R,
709,79,37,16,5,47,33,717,['c'],1,left,['0'],6,739,[0.21827269],100,47,medium,plus,dotcolour,alfa,,,87,20,M,R,
710,80,38,16,5,53,27,568,['c'],1,left,['0'],6,64,[0.09333817],100,53,easy,plus,dotcolour,alfa,,,87,20,M,R,
711,81,39,16,5,44,36,499,['c'],1,left,['0'],6,59,[0.06694911],100,44,hard,plus,dotcolour,alfa,,,87,20,M,R,
712,82,40,16,5,33,47,633,['n'],1,right,['9'],5,72,[-0.09971242],100,47,medium,plus,dotcolour,alfa,,,87,20,M,R,
713,83,41,16,5,53,27,583,['c'],1,left,['0'],6,71,[0.12143727],100,53,easy,plus,dotcolour,alfa,,,87,20,M,R,
714,84,0,17,5,36,44,567,['n'],1,right,['9'],5,142,[-0.03081631],95,44,hard,plus,dotcolour,alfa,,,87,20,M,R,
715,85,1,17,5,27,53,501,['n'],1,right,['9'],5,53,[-0.07102112],100,53,easy,plus,dotcolour,alfa,,,87,20,M,R,
716,86,2,17,5,53,27,501,['c'],1,left,['0'],6,41,[0.12515093],100,53,easy,plus,dotcolour,alfa,,,87,20,M,R,
717,87,3,17,5,36,44,433,['n'],1,right,['9'],5,31,[-0.08640603],100,44,hard,plus,dotcolour,alfa,,,87,20,M,R,
718,88,4,17,5,47,33,551,['c'],1,left,['0'],6,9,[0.07834208],100,47,medium,plus,dotcolour,alfa,,,87,20,M,R,
719,89,5,17,5,33,47,484,['n'],1,right,['0'],6,102,[-0.12703247],100,47,medium,plus,dotcolour,alfa,,,87,20,M,R,
720,90,6,17,5,44,36,583,['n'],0,left,['9'],5,76,[-0.0722056],100,44,hard,plus,dotcolour,alfa,,,87,20,M,R,
721,91,7,17,5,47,33,450,['c'],1,left,['0'],6,32,[0.03764494],100,47,medium,plus,dotcolour,alfa,,,87,20,M,R,
722,92,8,17,5,44,36,700,['c'],1,left,['0'],6,12,[0.0874549],100,44,hard,plus,dotcolour,alfa,,,87,20,M,R,
723,93,9,17,5,53,27,400,['c'],1,left,['9'],5,69,[0.07442771],100,53,easy,plus,dotcolour,alfa,,,87,20,M,R,
724,94,10,17,5,47,33,583,['c'],1,left,['9'],5,45,[0.08237731],100,47,medium,plus,dotcolour,alfa,,,87,20,M,R,
725,95,11,17,5,53,27,400,['c'],1,left,['9'],5,68,[0.11111822],100,53,easy,plus,dotcolour,alfa,,,87,20,M,R,
726,96,12,17,5,44,36,783,['n'],0,left,['9'],5,11,[-0.0674591],100,44,hard,plus,dotcolour,alfa,,,87,20,M,R,
727,97,13,17,5,27,53,616,['n'],1,right,['9'],5,12,[-0.06723252],100,53,easy,plus,dotcolour,alfa,,,87,20,M,R,
728,98,14,17,5,53,27,467,['c'],1,left,['0'],6,57,[0.11349432],100,53,easy,plus,dotcolour,alfa,,,87,20,M,R,
729,99,15,17,5,47,33,549,['c'],1,left,['0'],6,58,[0.08635501],100,47,medium,plus,dotcolour,alfa,,,87,20,M,R,
730,100,16,17,5,44,36,467,['c'],1,left,['0'],6,45,[0.05273727],100,44,hard,plus,dotcolour,alfa,,,87,20,M,R,
731,101,17,17,5,36,44,1450,['n'],1,right,['9'],5,43,[-0.10407607],100,44,hard,plus,dotcolour,alfa,,,87,20,M,R,
732,102,18,17,5,53,27,567,['c'],1,left,['0'],6,52,[0.0751752],100,53,easy,plus,dotcolour,alfa,,,87,20,M,R,
733,103,19,17,5,36,44,1017,['n'],1,right,['9'],5,42,[-0.03862796],100,44,hard,plus,dotcolour,alfa,,,87,20,M,R,
734,104,20,17,5,36,44,867,['n'],1,right,['9'],5,31,[-0.08923273],100,44,hard,plus,dotcolour,alfa,,,87,20,M,R,
735,105,21,17,5,27,53,566,['n'],1,right,['9'],5,40,[-0.11182349],100,53,easy,plus,dotcolour,alfa,,,87,20,M,R,
736,106,22,17,5,44,36,617,['c'],1,left,['0'],6,63,[0.09187474],100,44,hard,plus,dotcolour,alfa,,,87,20,M,R,
737,107,23,17,5,44,36,500,['c'],1,left,['0'],6,50,[0.10970003],100,44,hard,plus,dotcolour,alfa,,,87,20,M,R,
738,108,24,17,5,36,44,1517,['c'],0,right,['9'],5,116,[0.03253403],97,44,hard,plus,dotcolour,alfa,,,87,20,M,R,
739,109,25,17,5,33,47,683,['n'],1,right,['9'],5,14,[-0.0642761],100,47,medium,plus,dotcolour,alfa,,,87,20,M,R,
740,110,26,17,5,47,33,484,['c'],1,left,['0'],6,43,[0.06719451],100,47,medium,plus,dotcolour,alfa,,,87,20,M,R,
741,111,27,17,5,27,53,600,['n'],1,right,['9'],5,35,[-0.07121091],100,53,easy,plus,dotcolour,alfa,,,87,20,M,R,
742,112,28,17,5,33,47,1567,['n'],1,right,['8'],4,636,[-0.15223213],100,47,medium,plus,dotcolour,alfa,,,87,20,M,R,
743,113,29,17,5,33,47,534,['n'],1,right,['9'],5,110,[-0.02180766],91,47,medium,plus,dotcolour,alfa,,,87,20,M,R,
744,114,30,17,5,47,33,533,['c'],1,left,['0'],6,45,[0.06838957],100,47,medium,plus,dotcolour,alfa,,,87,20,M,R,
745,115,31,17,5,33,47,750,['n'],1,right,['9'],5,15,[-0.08706687],100,47,medium,plus,dotcolour,alfa,,,87,20,M,R,
746,116,32,17,5,27,53,517,['n'],1,right,['9'],5,35,[-0.06951284],100,53,easy,plus,dotcolour,alfa,,,87,20,M,R,
747,117,33,17,5,27,53,550,['n'],1,right,['8'],4,533,[-0.15724769],100,53,easy,plus,dotcolour,alfa,,,87,20,M,R,
748,118,34,17,5,27,53,517,['n'],1,right,['9'],5,44,[-0.07920289],100,53,easy,plus,dotcolour,alfa,,,87,20,M,R,
749,119,35,17,5,44,36,550,['c'],1,left,['0'],6,62,[0.08901056],100,44,hard,plus,dotcolour,alfa,,,87,20,M,R,
750,120,36,17,5,33,47,499,['n'],1,right,['9'],5,8,[-0.06427235],100,47,medium,plus,dotcolour,alfa,,,87,20,M,R,
751,121,37,17,5,47,33,1100,['c'],1,left,['0'],6,37,[0.076969],100,47,medium,plus,dotcolour,alfa,,,87,20,M,R,
752,122,38,17,5,53,27,434,['c'],1,left,['9'],5,83,[0.12229717],100,53,easy,plus,dotcolour,alfa,,,87,20,M,R,
753,123,39,17,5,33,47,618,['n'],1,right,['9'],5,81,[-0.06671377],100,47,medium,plus,dotcolour,alfa,,,87,20,M,R,
754,124,40,17,5,53,27,717,['c'],1,left,['0'],6,50,[0.10804635],100,53,easy,plus,dotcolour,alfa,,,87,20,M,R,
755,125,41,17,5,36,44,617,['n'],1,right,['9'],5,25,[-0.04973334],100,44,hard,plus,dotcolour,alfa,,,87,20,M,R,
,,,,,,,,,,,,,,,,,,,,,1,"ja, het maakte niet uit welk antwoord je aanduidde, de score bleef meestal op h
onderd procent",87,20,M,R,
,,,,,,,,,,,,,,,,,,,,,2,['g'],87,20,M,R,
,,,,,,,,,,,,,,,,,,,,,3,['g'],87,20,M,R,
,,,,,,,,,,,,,,,,,,,,,5,[],87,20,M,R,
