trial,withinphasetrial,withinblocktrial,block,phase,dotsLeft,dotsRight,rt,resp,cor,cresp,conf_press,cj,RTconf,ev,fb,diff,difflevel,condition,task,manip,questionID,questionResp,sub,age,gender,handedness,
0,0,0,0,0,27,53,2467,['n'],1,right,['2'],5,2827,[-0.33789741],95,53,easy,minus,dotcolour,beta,,,17,18,V,R,
1,1,1,0,0,53,27,1579,['c'],1,left,['2'],5,2403,[0.12902782],70,53,easy,minus,dotcolour,beta,,,17,18,V,R,
2,2,2,0,0,27,53,1632,['n'],1,right,['2'],5,1698,[-0.58321103],100,53,easy,minus,dotcolour,beta,,,17,18,V,R,
3,3,3,0,0,36,44,1831,['c'],0,right,['2'],5,773,[0.14532313],86,44,hard,minus,dotcolour,beta,,,17,18,V,R,
4,4,4,0,0,53,27,1166,['c'],1,left,['2'],5,1112,[0.25174529],97,53,easy,minus,dotcolour,beta,,,17,18,V,R,
5,5,5,0,0,44,36,1080,['c'],1,left,['2'],5,738,[0.18541017],94,44,hard,minus,dotcolour,beta,,,17,18,V,R,
6,6,6,0,0,33,47,1781,['n'],1,right,['3'],4,766,[-0.04358092],44,47,medium,minus,dotcolour,beta,,,17,18,V,R,
7,7,7,0,0,44,36,1515,['c'],1,left,['3'],4,907,[0.08276388],63,44,hard,minus,dotcolour,beta,,,17,18,V,R,
8,8,8,0,0,44,36,2066,['c'],1,left,['8'],3,1381,[-0.03834224],19,44,hard,minus,dotcolour,beta,,,17,18,V,R,
9,9,9,0,0,47,33,1348,['c'],1,left,['3'],4,745,[0.18054701],93,47,medium,minus,dotcolour,beta,,,17,18,V,R,
10,10,10,0,0,36,44,1532,['n'],1,right,['3'],4,887,[-0.15090066],86,44,hard,minus,dotcolour,beta,,,17,18,V,R,
11,11,11,0,0,27,53,933,['n'],1,right,['2'],5,527,[-0.1093614],79,53,easy,minus,dotcolour,beta,,,17,18,V,R,
12,12,12,0,0,47,33,1165,['c'],1,left,['2'],5,868,[0.21985289],96,47,medium,minus,dotcolour,beta,,,17,18,V,R,
13,13,13,0,0,33,47,1066,['n'],1,right,['2'],5,888,[-0.23294213],97,47,medium,minus,dotcolour,beta,,,17,18,V,R,
14,14,14,0,0,47,33,899,['c'],1,left,['3'],4,641,[0.16702789],92,47,medium,minus,dotcolour,beta,,,17,18,V,R,
15,15,15,0,0,53,27,1682,['c'],1,left,['3'],4,582,[0.03237286],37,53,easy,minus,dotcolour,beta,,,17,18,V,R,
16,16,16,0,0,47,33,1048,['c'],1,left,['3'],4,693,[0.36981625],100,47,medium,minus,dotcolour,beta,,,17,18,V,R,
17,17,17,0,0,36,44,1498,['c'],0,right,['3'],4,726,[0.16233313],91,44,hard,minus,dotcolour,beta,,,17,18,V,R,
18,18,18,0,0,33,47,1049,['n'],1,right,['3'],4,504,[-0.12685839],86,47,medium,minus,dotcolour,beta,,,17,18,V,R,
19,19,19,0,0,53,27,1167,['c'],1,left,['3'],4,558,[0.18845383],96,53,easy,minus,dotcolour,beta,,,17,18,V,R,
20,20,20,0,0,53,27,798,['c'],1,left,['2'],5,473,[0.0882156],70,53,easy,minus,dotcolour,beta,,,17,18,V,R,
21,21,21,0,0,47,33,1265,['n'],0,left,['3'],4,596,[-0.03662429],39,47,medium,minus,dotcolour,beta,,,17,18,V,R,
22,22,22,0,0,44,36,1066,['c'],1,left,['3'],4,683,[0.14138534],87,44,hard,minus,dotcolour,beta,,,17,18,V,R,
23,23,23,0,0,36,44,1133,['n'],1,right,['2'],5,524,[-0.08664028],68,44,hard,minus,dotcolour,beta,,,17,18,V,R,
24,24,24,0,0,53,27,882,['c'],1,left,['2'],5,964,[0.14855677],85,53,easy,minus,dotcolour,beta,,,17,18,V,R,
25,25,25,0,0,27,53,1331,['n'],1,right,['3'],4,690,[-0.11107567],77,53,easy,minus,dotcolour,beta,,,17,18,V,R,
26,26,26,0,0,27,53,883,['n'],1,right,['2'],5,515,[0.00912872],16,53,easy,minus,dotcolour,beta,,,17,18,V,R,
27,27,27,0,0,33,47,1384,['n'],1,right,['8'],3,1808,[-0.42249924],99,47,medium,minus,dotcolour,beta,,,17,18,V,R,
28,28,28,0,0,44,36,1699,['c'],1,left,['8'],3,397,[0.12055667],86,44,hard,minus,dotcolour,beta,,,17,18,V,R,
29,29,29,0,0,47,33,1399,['c'],1,left,['3'],4,718,[0.26905955],99,47,medium,minus,dotcolour,beta,,,17,18,V,R,
30,30,30,0,0,27,53,1115,['n'],1,right,['2'],5,774,[-0.08980501],67,53,easy,minus,dotcolour,beta,,,17,18,V,R,
31,31,31,0,0,53,27,1282,['c'],1,left,['3'],4,741,[0.20682028],96,53,easy,minus,dotcolour,beta,,,17,18,V,R,
32,32,32,0,0,47,33,1034,['c'],1,left,['3'],4,687,[0.20357138],96,47,medium,minus,dotcolour,beta,,,17,18,V,R,
33,33,33,0,0,33,47,1249,['n'],1,right,['8'],3,666,[-0.19866575],96,47,medium,minus,dotcolour,beta,,,17,18,V,R,
34,34,34,0,0,36,44,1249,['n'],1,right,['2'],5,1047,[-0.10121541],69,44,hard,minus,dotcolour,beta,,,17,18,V,R,
35,35,35,0,0,27,53,1449,['n'],1,right,['3'],4,915,[-0.21555169],95,53,easy,minus,dotcolour,beta,,,17,18,V,R,
36,36,36,0,0,44,36,2632,['c'],1,left,['9'],2,1582,[0.07811587],58,44,hard,minus,dotcolour,beta,,,17,18,V,R,
37,37,37,0,0,36,44,1715,['c'],0,right,['3'],4,811,[0.06827343],56,44,hard,minus,dotcolour,beta,,,17,18,V,R,
38,38,38,0,0,33,47,932,['n'],1,right,['3'],4,542,[-0.14262455],89,47,medium,minus,dotcolour,beta,,,17,18,V,R,
39,39,39,0,0,44,36,2682,['c'],1,left,['3'],4,494,[0.08219481],66,44,hard,minus,dotcolour,beta,,,17,18,V,R,
40,40,40,0,0,36,44,1716,['n'],1,right,['2'],5,1271,[-0.109807],70,44,hard,minus,dotcolour,beta,,,17,18,V,R,
41,41,41,0,0,33,47,1365,['n'],1,right,['2'],5,502,[-0.10420239],77,47,medium,minus,dotcolour,beta,,,17,18,V,R,
42,42,0,1,0,47,33,1800,['n'],0,left,['3'],4,526,[0.1696988],0,47,medium,minus,dotcolour,beta,,,17,18,V,R,
43,43,1,1,0,36,44,1646,['n'],1,right,['3'],4,608,[-0.13604261],87,44,hard,minus,dotcolour,beta,,,17,18,V,R,
44,44,2,1,0,53,27,1116,['c'],1,left,['2'],5,964,[0.33344333],99,53,easy,minus,dotcolour,beta,,,17,18,V,R,
45,45,3,1,0,53,27,1416,['c'],1,left,['3'],4,725,[0.09981891],72,53,easy,minus,dotcolour,beta,,,17,18,V,R,
46,46,4,1,0,33,47,1466,['n'],1,right,['3'],4,1079,[-0.38625066],100,47,medium,minus,dotcolour,beta,,,17,18,V,R,
47,47,5,1,0,44,36,2363,['c'],1,left,['3'],4,646,[0.00910287],26,44,hard,minus,dotcolour,beta,,,17,18,V,R,
48,48,6,1,0,53,27,1099,['c'],1,left,['2'],5,634,[0.20264807],97,53,easy,minus,dotcolour,beta,,,17,18,V,R,
49,49,7,1,0,47,33,899,['c'],1,left,['2'],5,550,[-0.13817159],1,47,medium,minus,dotcolour,beta,,,17,18,V,R,
50,50,8,1,0,33,47,2082,['n'],1,right,['8'],3,2477,[-0.31783928],95,47,medium,minus,dotcolour,beta,,,17,18,V,R,
51,51,9,1,0,36,44,2265,['c'],0,right,['3'],4,816,[0.07268385],58,44,hard,minus,dotcolour,beta,,,17,18,V,R,
52,52,10,1,0,33,47,1964,['c'],0,right,['3'],4,674,[0.04935889],47,47,medium,minus,dotcolour,beta,,,17,18,V,R,
53,53,11,1,0,27,53,1796,['n'],1,right,['3'],4,496,[-0.23681218],99,53,easy,minus,dotcolour,beta,,,17,18,V,R,
54,54,12,1,0,36,44,1599,['c'],0,right,['2'],5,501,[-0.05513254],6,44,hard,minus,dotcolour,beta,,,17,18,V,R,
55,55,13,1,0,53,27,1364,['c'],1,left,['2'],5,988,[0.16848231],89,53,easy,minus,dotcolour,beta,,,17,18,V,R,
56,56,14,1,0,44,36,965,['c'],1,left,['3'],4,559,[0.08100364],65,44,hard,minus,dotcolour,beta,,,17,18,V,R,
57,57,15,1,0,47,33,1415,['c'],1,left,['3'],4,496,[-0.07028712],4,47,medium,minus,dotcolour,beta,,,17,18,V,R,
58,58,16,1,0,27,53,1132,['n'],1,right,['2'],5,1145,[-0.23152369],95,53,easy,minus,dotcolour,beta,,,17,18,V,R,
59,59,17,1,0,27,53,3249,['c'],0,right,['3'],4,770,[0.02264304],34,53,easy,minus,dotcolour,beta,,,17,18,V,R,
60,60,18,1,0,47,33,1266,['c'],1,left,['2'],5,521,[0.22902368],99,47,medium,minus,dotcolour,beta,,,17,18,V,R,
61,61,19,1,0,33,47,1165,['c'],0,right,['2'],5,614,[-0.09420882],3,47,medium,minus,dotcolour,beta,,,17,18,V,R,
62,62,20,1,0,44,36,1649,['c'],1,left,['2'],5,525,[0.11991352],83,44,hard,minus,dotcolour,beta,,,17,18,V,R,
63,63,21,1,0,47,33,1734,['c'],1,left,['3'],4,436,[0.01662009],26,47,medium,minus,dotcolour,beta,,,17,18,V,R,
64,64,22,1,0,36,44,1716,['c'],0,right,['3'],4,430,[-0.04558413],6,44,hard,minus,dotcolour,beta,,,17,18,V,R,
65,65,23,1,0,44,36,1366,['n'],0,left,['3'],4,528,[0.02561844],12,44,hard,minus,dotcolour,beta,,,17,18,V,R,
66,66,24,1,0,36,44,1915,['c'],0,right,['2'],5,903,[-0.06872635],9,44,hard,minus,dotcolour,beta,,,17,18,V,R,
67,67,25,1,0,53,27,1813,['c'],1,left,['3'],4,611,[0.15488767],91,53,easy,minus,dotcolour,beta,,,17,18,V,R,
68,68,26,1,0,44,36,2166,['n'],0,left,['9'],2,861,[-0.09051636],66,44,hard,minus,dotcolour,beta,,,17,18,V,R,
69,69,27,1,0,47,33,832,['c'],1,left,['3'],4,586,[0.11225526],79,47,medium,minus,dotcolour,beta,,,17,18,V,R,
70,70,28,1,0,27,53,866,['n'],1,right,['3'],4,801,[-0.13287456],83,53,easy,minus,dotcolour,beta,,,17,18,V,R,
71,71,29,1,0,27,53,733,['n'],1,right,['2'],5,701,[-0.22307323],97,53,easy,minus,dotcolour,beta,,,17,18,V,R,
72,72,30,1,0,53,27,865,['c'],1,left,['2'],5,735,[0.28098305],99,53,easy,minus,dotcolour,beta,,,17,18,V,R,
73,73,31,1,0,27,53,1634,['c'],0,right,['9'],2,1321,[-0.41636109],0,53,easy,minus,dotcolour,beta,,,17,18,V,R,
74,74,32,1,0,44,36,1016,['c'],1,left,['1'],6,1044,[0.13577125],80,44,hard,minus,dotcolour,beta,,,17,18,V,R,
75,75,33,1,0,53,27,765,['c'],1,left,['2'],5,973,[0.24389855],97,53,easy,minus,dotcolour,beta,,,17,18,V,R,
76,76,34,1,0,36,44,1033,['n'],1,right,['2'],5,462,[-0.16731532],95,44,hard,minus,dotcolour,beta,,,17,18,V,R,
77,77,35,1,0,36,44,2849,['c'],0,right,['9'],2,818,[0.07388208],59,44,hard,minus,dotcolour,beta,,,17,18,V,R,
78,78,36,1,0,47,33,1132,['c'],1,left,['2'],5,542,[0.0352641],38,47,medium,minus,dotcolour,beta,,,17,18,V,R,
79,79,37,1,0,33,47,983,['n'],1,right,['2'],5,610,[-0.10197862],74,47,medium,minus,dotcolour,beta,,,17,18,V,R,
80,80,38,1,0,44,36,1280,['c'],1,left,['2'],5,600,[-0.02187502],14,44,hard,minus,dotcolour,beta,,,17,18,V,R,
81,81,39,1,0,33,47,933,['n'],1,right,['2'],5,1235,[-0.14909452],82,47,medium,minus,dotcolour,beta,,,17,18,V,R,
82,82,40,1,0,27,53,799,['n'],1,right,['2'],5,386,[-0.01589079],24,53,easy,minus,dotcolour,beta,,,17,18,V,R,
83,83,41,1,0,33,47,1082,['c'],0,right,['8'],3,1553,[0.05483033],50,47,medium,minus,dotcolour,beta,,,17,18,V,R,
84,84,0,2,0,53,27,1616,['c'],1,left,['2'],5,710,[0.36620325],100,53,easy,minus,dotcolour,beta,,,17,18,V,R,
85,85,1,2,0,33,47,1449,['n'],1,right,['2'],5,440,[-0.08419028],69,47,medium,minus,dotcolour,beta,,,17,18,V,R,
86,86,2,2,0,44,36,982,['c'],1,left,['2'],5,433,[0.00465244],20,44,hard,minus,dotcolour,beta,,,17,18,V,R,
87,87,3,2,0,53,27,1433,['c'],1,left,['2'],5,487,[0.04855878],46,53,easy,minus,dotcolour,beta,,,17,18,V,R,
88,88,4,2,0,47,33,1233,['n'],0,left,['8'],3,979,[0.03449783],16,47,medium,minus,dotcolour,beta,,,17,18,V,R,
89,89,5,2,0,47,33,932,['c'],1,left,['3'],4,1071,[-0.09824536],6,47,medium,minus,dotcolour,beta,,,17,18,V,R,
90,90,6,2,0,36,44,1098,['n'],1,right,['2'],5,1049,[-0.08068353],61,44,hard,minus,dotcolour,beta,,,17,18,V,R,
91,91,7,2,0,44,36,947,['c'],1,left,['3'],4,763,[0.18890075],94,44,hard,minus,dotcolour,beta,,,17,18,V,R,
92,92,8,2,0,47,33,1349,['c'],1,left,['3'],4,551,[-0.07811648],4,47,medium,minus,dotcolour,beta,,,17,18,V,R,
93,93,9,2,0,44,36,1048,['c'],1,left,['3'],4,520,[0.10327889],77,44,hard,minus,dotcolour,beta,,,17,18,V,R,
94,94,10,2,0,53,27,931,['c'],1,left,['3'],4,742,[0.23368641],98,53,easy,minus,dotcolour,beta,,,17,18,V,R,
95,95,11,2,0,27,53,716,['n'],1,right,['2'],5,541,[-0.00301488],22,53,easy,minus,dotcolour,beta,,,17,18,V,R,
96,96,12,2,0,47,33,1899,['c'],1,left,['3'],4,548,[0.12388066],84,47,medium,minus,dotcolour,beta,,,17,18,V,R,
97,97,13,2,0,44,36,1900,['c'],1,left,['2'],5,508,[0.19684169],97,44,hard,minus,dotcolour,beta,,,17,18,V,R,
98,98,14,2,0,36,44,733,['n'],1,right,['3'],4,1059,[0.06948704],10,44,hard,minus,dotcolour,beta,,,17,18,V,R,
99,99,15,2,0,27,53,850,['n'],1,right,['2'],5,408,[-0.15788651],95,53,easy,minus,dotcolour,beta,,,17,18,V,R,
100,100,16,2,0,36,44,1567,['c'],0,right,['2'],5,489,[-0.01800054],13,44,hard,minus,dotcolour,beta,,,17,18,V,R,
101,101,17,2,0,44,36,1815,['c'],1,left,['3'],4,670,[0.0097545],27,44,hard,minus,dotcolour,beta,,,17,18,V,R,
102,102,18,2,0,53,27,1514,['c'],1,left,['2'],5,447,[0.10661876],80,53,easy,minus,dotcolour,beta,,,17,18,V,R,
103,103,19,2,0,33,47,1784,['n'],1,right,['8'],3,1296,[-0.24641363],95,47,medium,minus,dotcolour,beta,,,17,18,V,R,
104,104,20,2,0,27,53,1249,['n'],1,right,['2'],5,522,[-0.22262019],98,53,easy,minus,dotcolour,beta,,,17,18,V,R,
105,105,21,2,0,33,47,1682,['n'],1,right,['3'],4,1027,[-0.12250711],77,47,medium,minus,dotcolour,beta,,,17,18,V,R,
106,106,22,2,0,47,33,1050,['c'],1,left,['3'],4,785,[0.1886604],94,47,medium,minus,dotcolour,beta,,,17,18,V,R,
107,107,23,2,0,47,33,1783,['c'],1,left,['3'],4,483,[0.09783349],75,47,medium,minus,dotcolour,beta,,,17,18,V,R,
108,108,24,2,0,27,53,1115,['n'],1,right,['3'],4,669,[-0.24066539],98,53,easy,minus,dotcolour,beta,,,17,18,V,R,
109,109,25,2,0,33,47,1033,['n'],1,right,['3'],4,353,[-0.06380082],56,47,medium,minus,dotcolour,beta,,,17,18,V,R,
110,110,26,2,0,44,36,913,['c'],1,left,['3'],4,799,[0.08568022],65,44,hard,minus,dotcolour,beta,,,17,18,V,R,
111,111,27,2,0,27,53,782,['n'],1,right,['3'],4,849,[-0.2297943],97,53,easy,minus,dotcolour,beta,,,17,18,V,R,
112,112,28,2,0,44,36,1648,['c'],1,left,['3'],4,462,[0.11495391],83,44,hard,minus,dotcolour,beta,,,17,18,V,R,
113,113,29,2,0,33,47,831,['n'],1,right,['3'],4,484,[-0.15257751],92,47,medium,minus,dotcolour,beta,,,17,18,V,R,
114,114,30,2,0,33,47,1200,['n'],1,right,['2'],5,417,[-0.12462665],87,47,medium,minus,dotcolour,beta,,,17,18,V,R,
115,115,31,2,0,53,27,999,['c'],1,left,['3'],4,826,[0.21981004],96,53,easy,minus,dotcolour,beta,,,17,18,V,R,
116,116,32,2,0,33,47,1049,['n'],1,right,['1'],6,855,[-0.128412],81,47,medium,minus,dotcolour,beta,,,17,18,V,R,
117,117,33,2,0,53,27,748,['c'],1,left,['2'],5,560,[0.02499368],32,53,easy,minus,dotcolour,beta,,,17,18,V,R,
118,118,34,2,0,47,33,1448,['c'],1,left,['3'],4,553,[0.06049838],53,47,medium,minus,dotcolour,beta,,,17,18,V,R,
119,119,35,2,0,36,44,1132,['n'],1,right,['8'],3,903,[-0.29965085],99,44,hard,minus,dotcolour,beta,,,17,18,V,R,
120,120,36,2,0,36,44,1116,['n'],1,right,['3'],4,655,[-0.12069707],81,44,hard,minus,dotcolour,beta,,,17,18,V,R,
121,121,37,2,0,27,53,1348,['n'],1,right,['2'],5,431,[-0.11185773],82,53,easy,minus,dotcolour,beta,,,17,18,V,R,
122,122,38,2,0,36,44,1982,['n'],1,right,['3'],4,752,[-0.1457645],87,44,hard,minus,dotcolour,beta,,,17,18,V,R,
123,123,39,2,0,36,44,948,['n'],1,right,['1'],6,565,[-0.08242127],66,44,hard,minus,dotcolour,beta,,,17,18,V,R,
124,124,40,2,0,53,27,1299,['c'],1,left,['2'],5,644,[0.13749701],86,53,easy,minus,dotcolour,beta,,,17,18,V,R,
125,125,41,2,0,27,53,714,['n'],1,right,['2'],5,870,[-0.08959302],66,53,easy,minus,dotcolour,beta,,,17,18,V,R,
126,0,0,3,1,33,47,1283,['n'],1,right,['2'],5,601,[-0.03612325],89,47,medium,plus,dotcolour,beta,,,17,18,V,R,
127,1,1,3,1,36,44,965,['n'],1,right,['2'],5,491,[-0.12253825],99,44,hard,plus,dotcolour,beta,,,17,18,V,R,
128,2,2,3,1,36,44,965,['n'],1,right,['2'],5,322,[-0.06210307],98,44,hard,plus,dotcolour,beta,,,17,18,V,R,
129,3,3,3,1,33,47,782,['n'],1,right,['3'],4,519,[-0.15930107],100,47,medium,plus,dotcolour,beta,,,17,18,V,R,
130,4,4,3,1,27,53,765,['n'],1,right,['3'],4,381,[-0.07782772],98,53,easy,plus,dotcolour,beta,,,17,18,V,R,
131,5,5,3,1,47,33,999,['c'],1,left,['3'],4,831,[0.10486027],96,47,medium,plus,dotcolour,beta,,,17,18,V,R,
132,6,6,3,1,36,44,932,['n'],1,right,['3'],4,345,[-0.08635981],99,44,hard,plus,dotcolour,beta,,,17,18,V,R,
133,7,7,3,1,44,36,1366,['c'],1,left,['3'],4,478,[0.17634651],100,44,hard,plus,dotcolour,beta,,,17,18,V,R,
134,8,8,3,1,33,47,764,['n'],1,right,['3'],4,525,[-0.14650714],99,47,medium,plus,dotcolour,beta,,,17,18,V,R,
135,9,9,3,1,33,47,1765,['c'],0,right,['3'],4,531,[0.03967172],91,47,medium,plus,dotcolour,beta,,,17,18,V,R,
136,10,10,3,1,27,53,1164,['n'],1,right,['3'],4,280,[-0.0815973],99,53,easy,plus,dotcolour,beta,,,17,18,V,R,
137,11,11,3,1,44,36,1099,['c'],1,left,['3'],4,450,[-0.04383796],58,44,hard,plus,dotcolour,beta,,,17,18,V,R,
138,12,12,3,1,33,47,1232,['n'],1,right,['3'],4,240,[-0.04788575],98,47,medium,plus,dotcolour,beta,,,17,18,V,R,
139,13,13,3,1,27,53,798,['n'],1,right,['2'],5,344,[-0.10347565],99,53,easy,plus,dotcolour,beta,,,17,18,V,R,
140,14,14,3,1,27,53,780,['n'],1,right,['2'],5,228,[-0.21884095],100,53,easy,plus,dotcolour,beta,,,17,18,V,R,
141,15,15,3,1,36,44,1515,['c'],0,right,['3'],4,735,[0.06574812],93,44,hard,plus,dotcolour,beta,,,17,18,V,R,
142,16,16,3,1,53,27,1148,['c'],1,left,['3'],4,470,[0.10149355],98,53,easy,plus,dotcolour,beta,,,17,18,V,R,
143,17,17,3,1,53,27,1380,['c'],1,left,['2'],5,444,[0.24326146],100,53,easy,plus,dotcolour,beta,,,17,18,V,R,
144,18,18,3,1,27,53,1283,['n'],1,right,['2'],5,616,[-0.11821158],98,53,easy,plus,dotcolour,beta,,,17,18,V,R,
145,19,19,3,1,33,47,1232,['n'],1,right,['2'],5,551,[-0.02347191],87,47,medium,plus,dotcolour,beta,,,17,18,V,R,
146,20,20,3,1,53,27,1232,['c'],1,left,['2'],5,409,[0.16070284],100,53,easy,plus,dotcolour,beta,,,17,18,V,R,
147,21,21,3,1,36,44,1065,['n'],1,right,['2'],5,798,[-0.12782276],98,44,hard,plus,dotcolour,beta,,,17,18,V,R,
148,22,22,3,1,47,33,1565,['c'],1,left,['3'],4,649,[0.21143667],100,47,medium,plus,dotcolour,beta,,,17,18,V,R,
149,23,23,3,1,36,44,1114,['n'],1,right,['2'],5,331,[-0.12103148],100,44,hard,plus,dotcolour,beta,,,17,18,V,R,
150,24,24,3,1,44,36,1631,['n'],0,left,['8'],3,926,[0.11140973],26,44,hard,plus,dotcolour,beta,,,17,18,V,R,
151,25,25,3,1,47,33,1533,['c'],1,left,['3'],4,452,[0.23925862],100,47,medium,plus,dotcolour,beta,,,17,18,V,R,
152,26,26,3,1,53,27,1331,['n'],0,left,['8'],3,759,[-0.00720447],79,53,easy,plus,dotcolour,beta,,,17,18,V,R,
153,27,27,3,1,44,36,1400,['c'],1,left,['3'],4,722,[-0.01802593],69,44,hard,plus,dotcolour,beta,,,17,18,V,R,
154,28,28,3,1,44,36,2016,['c'],1,left,['3'],4,548,[0.11400089],98,44,hard,plus,dotcolour,beta,,,17,18,V,R,
155,29,29,3,1,33,47,1331,['n'],1,right,['2'],5,651,[-0.17103011],99,47,medium,plus,dotcolour,beta,,,17,18,V,R,
156,30,30,3,1,53,27,932,['c'],1,left,['3'],4,740,[0.15673454],99,53,easy,plus,dotcolour,beta,,,17,18,V,R,
157,31,31,3,1,44,36,2646,['c'],1,left,['3'],4,429,[0.10115017],99,44,hard,plus,dotcolour,beta,,,17,18,V,R,
158,32,32,3,1,47,33,1783,['n'],0,left,['8'],3,382,[-0.00303758],85,47,medium,plus,dotcolour,beta,,,17,18,V,R,
159,33,33,3,1,53,27,932,['c'],1,left,['2'],5,699,[0.10090417],97,53,easy,plus,dotcolour,beta,,,17,18,V,R,
160,34,34,3,1,36,44,1449,['n'],1,right,['8'],3,909,[-0.10242073],95,44,hard,plus,dotcolour,beta,,,17,18,V,R,
161,35,35,3,1,27,53,1281,['n'],1,right,['2'],5,430,[-0.11051788],99,53,easy,plus,dotcolour,beta,,,17,18,V,R,
162,36,36,3,1,47,33,1199,['c'],1,left,['2'],5,527,[0.14566869],99,47,medium,plus,dotcolour,beta,,,17,18,V,R,
163,37,37,3,1,53,27,1050,['n'],0,left,['2'],5,520,[0.03917682],60,53,easy,plus,dotcolour,beta,,,17,18,V,R,
164,38,38,3,1,47,33,1167,['n'],0,left,['3'],4,559,[-0.06764902],95,47,medium,plus,dotcolour,beta,,,17,18,V,R,
165,39,39,3,1,47,33,1382,['n'],0,left,['8'],3,762,[-0.17656623],99,47,medium,plus,dotcolour,beta,,,17,18,V,R,
166,40,40,3,1,44,36,1466,['n'],0,left,['3'],4,345,[-0.06853646],98,44,hard,plus,dotcolour,beta,,,17,18,V,R,
167,41,41,3,1,27,53,882,['n'],1,right,['2'],5,305,[-0.02169114],93,53,easy,plus,dotcolour,beta,,,17,18,V,R,
168,42,0,4,1,33,47,1951,['c'],0,right,['2'],5,532,[0.0942423],98,47,medium,plus,dotcolour,beta,,,17,18,V,R,
169,43,1,4,1,36,44,1783,['n'],1,right,['3'],4,456,[-0.10114412],98,44,hard,plus,dotcolour,beta,,,17,18,V,R,
170,44,2,4,1,53,27,1014,['c'],1,left,['2'],5,430,[0.26152202],100,53,easy,plus,dotcolour,beta,,,17,18,V,R,
171,45,3,4,1,36,44,1598,['n'],1,right,['8'],3,583,[-0.08300877],96,44,hard,plus,dotcolour,beta,,,17,18,V,R,
172,46,4,4,1,27,53,948,['n'],1,right,['2'],5,627,[-0.00838681],81,53,easy,plus,dotcolour,beta,,,17,18,V,R,
173,47,5,4,1,36,44,1915,['c'],0,right,['3'],4,438,[0.2098533],100,44,hard,plus,dotcolour,beta,,,17,18,V,R,
174,48,6,4,1,33,47,999,['n'],1,right,['2'],5,422,[-0.07672777],98,47,medium,plus,dotcolour,beta,,,17,18,V,R,
175,49,7,4,1,27,53,1450,['n'],1,right,['2'],5,539,[-0.1089591],98,53,easy,plus,dotcolour,beta,,,17,18,V,R,
176,50,8,4,1,47,33,1382,['c'],1,left,['2'],5,1887,[0.15555443],94,47,medium,plus,dotcolour,beta,,,17,18,V,R,
177,51,9,4,1,27,53,781,['n'],1,right,['2'],5,373,[-0.15257616],100,53,easy,plus,dotcolour,beta,,,17,18,V,R,
178,52,10,4,1,33,47,747,['n'],1,right,['2'],5,338,[-0.18702821],100,47,medium,plus,dotcolour,beta,,,17,18,V,R,
179,53,11,4,1,47,33,913,['c'],1,left,['3'],4,424,[0.09157437],98,47,medium,plus,dotcolour,beta,,,17,18,V,R,
180,54,12,4,1,33,47,1365,['n'],1,right,['3'],4,402,[-0.05277625],96,47,medium,plus,dotcolour,beta,,,17,18,V,R,
181,55,13,4,1,36,44,1680,['c'],0,right,['2'],5,936,[-0.00747318],71,44,hard,plus,dotcolour,beta,,,17,18,V,R,
182,56,14,4,1,53,27,850,['c'],1,left,['2'],5,417,[0.2639293],100,53,easy,plus,dotcolour,beta,,,17,18,V,R,
183,57,15,4,1,44,36,1083,['n'],0,left,['8'],3,542,[-0.08306182],97,44,hard,plus,dotcolour,beta,,,17,18,V,R,
184,58,16,4,1,53,27,1115,['c'],1,left,['2'],5,381,[0.07611953],98,53,easy,plus,dotcolour,beta,,,17,18,V,R,
185,59,17,4,1,53,27,798,['c'],1,left,['2'],5,503,[0.18550821],100,53,easy,plus,dotcolour,beta,,,17,18,V,R,
186,60,18,4,1,47,33,848,['c'],1,left,['2'],5,418,[0.08761041],98,47,medium,plus,dotcolour,beta,,,17,18,V,R,
187,61,19,4,1,36,44,1800,['c'],0,right,['3'],4,484,[-0.10578648],21,44,hard,plus,dotcolour,beta,,,17,18,V,R,
188,62,20,4,1,33,47,1099,['n'],1,right,['2'],5,548,[-0.12358383],99,47,medium,plus,dotcolour,beta,,,17,18,V,R,
189,63,21,4,1,53,27,1183,['c'],1,left,['2'],5,353,[0.2272774],100,53,easy,plus,dotcolour,beta,,,17,18,V,R,
190,64,22,4,1,27,53,780,['n'],1,right,['2'],5,285,[-0.11806771],100,53,easy,plus,dotcolour,beta,,,17,18,V,R,
191,65,23,4,1,36,44,1716,['n'],1,right,['2'],5,351,[-0.06977142],98,44,hard,plus,dotcolour,beta,,,17,18,V,R,
192,66,24,4,1,36,44,2215,['c'],0,right,['2'],5,345,[0.08740133],99,44,hard,plus,dotcolour,beta,,,17,18,V,R,
193,67,25,4,1,47,33,1247,['c'],1,left,['2'],5,322,[-0.00955634],81,47,medium,plus,dotcolour,beta,,,17,18,V,R,
194,68,26,4,1,44,36,2132,['n'],0,left,['3'],4,537,[-0.04880959],93,44,hard,plus,dotcolour,beta,,,17,18,V,R,
195,69,27,4,1,27,53,1716,['n'],1,right,['8'],3,784,[-0.26720173],100,53,easy,plus,dotcolour,beta,,,17,18,V,R,
196,70,28,4,1,44,36,1266,['c'],1,left,['2'],5,487,[0.03423951],91,44,hard,plus,dotcolour,beta,,,17,18,V,R,
197,71,29,4,1,47,33,1782,['c'],1,left,['3'],4,350,[0.07949238],98,47,medium,plus,dotcolour,beta,,,17,18,V,R,
198,72,30,4,1,27,53,1416,['n'],1,right,['2'],5,472,[-0.15530046],100,53,easy,plus,dotcolour,beta,,,17,18,V,R,
199,73,31,4,1,53,27,1199,['c'],1,left,['2'],5,406,[0.06442334],97,53,easy,plus,dotcolour,beta,,,17,18,V,R,
200,74,32,4,1,47,33,2164,['c'],1,left,['3'],4,384,[0.03066501],92,47,medium,plus,dotcolour,beta,,,17,18,V,R,
201,75,33,4,1,53,27,1249,['c'],1,left,['3'],4,368,[0.09686801],99,53,easy,plus,dotcolour,beta,,,17,18,V,R,
202,76,34,4,1,47,33,999,['c'],1,left,['2'],5,435,[0.11322359],99,47,medium,plus,dotcolour,beta,,,17,18,V,R,
203,77,35,4,1,44,36,1147,['c'],1,left,['2'],5,445,[0.08660705],98,44,hard,plus,dotcolour,beta,,,17,18,V,R,
204,78,36,4,1,44,36,1149,['c'],1,left,['2'],5,470,[0.08871796],98,44,hard,plus,dotcolour,beta,,,17,18,V,R,
205,79,37,4,1,44,36,1265,['c'],1,left,['3'],4,394,[0.04903325],95,44,hard,plus,dotcolour,beta,,,17,18,V,R,
206,80,38,4,1,33,47,799,['n'],1,right,['3'],4,523,[-0.23469242],100,47,medium,plus,dotcolour,beta,,,17,18,V,R,
207,81,39,4,1,27,53,917,['n'],1,right,['3'],4,274,[-0.16391987],100,53,easy,plus,dotcolour,beta,,,17,18,V,R,
208,82,40,4,1,44,36,1482,['c'],1,left,['3'],4,725,[0.11287402],97,44,hard,plus,dotcolour,beta,,,17,18,V,R,
209,83,41,4,1,33,47,1115,['n'],1,right,['3'],4,260,[-0.01648452],93,47,medium,plus,dotcolour,beta,,,17,18,V,R,
210,84,0,5,1,44,36,1333,['c'],1,left,['2'],5,712,[-0.00548775],74,44,hard,plus,dotcolour,beta,,,17,18,V,R,
211,85,1,5,1,53,27,898,['c'],1,left,['2'],5,408,[0.13786744],100,53,easy,plus,dotcolour,beta,,,17,18,V,R,
212,86,2,5,1,53,27,883,['c'],1,left,['3'],4,350,[0.07116742],98,53,easy,plus,dotcolour,beta,,,17,18,V,R,
213,87,3,5,1,47,33,900,['c'],1,left,['3'],4,341,[0.12259277],100,47,medium,plus,dotcolour,beta,,,17,18,V,R,
214,88,4,5,1,33,47,782,['n'],1,right,['3'],4,345,[0.03780959],63,47,medium,plus,dotcolour,beta,,,17,18,V,R,
215,89,5,5,1,36,44,1315,['c'],0,right,['3'],4,368,[0.06156411],97,44,hard,plus,dotcolour,beta,,,17,18,V,R,
216,90,6,5,1,47,33,1248,['c'],1,left,['3'],4,512,[0.00172318],81,47,medium,plus,dotcolour,beta,,,17,18,V,R,
217,91,7,5,1,27,53,817,['n'],1,right,['3'],4,516,[-0.15169491],99,53,easy,plus,dotcolour,beta,,,17,18,V,R,
218,92,8,5,1,33,47,1715,['n'],1,right,['3'],4,196,[-0.14586662],100,47,medium,plus,dotcolour,beta,,,17,18,V,R,
219,93,9,5,1,36,44,1416,['n'],1,right,['3'],4,541,[-0.08865233],97,44,hard,plus,dotcolour,beta,,,17,18,V,R,
220,94,10,5,1,27,53,1432,['n'],1,right,['2'],5,543,[-0.16765008],100,53,easy,plus,dotcolour,beta,,,17,18,V,R,
221,95,11,5,1,36,44,1715,['n'],1,right,['2'],5,221,[-0.10692418],100,44,hard,plus,dotcolour,beta,,,17,18,V,R,
222,96,12,5,1,47,33,781,['c'],1,left,['2'],5,687,[0.09482539],96,47,medium,plus,dotcolour,beta,,,17,18,V,R,
223,97,13,5,1,27,53,848,['n'],1,right,['1'],6,538,[-0.21374058],100,53,easy,plus,dotcolour,beta,,,17,18,V,R,
224,98,14,5,1,53,27,1498,['c'],1,left,['3'],4,378,[0.1124467],99,53,easy,plus,dotcolour,beta,,,17,18,V,R,
225,99,15,5,1,36,44,782,['n'],1,right,['3'],4,316,[-0.13146674],100,44,hard,plus,dotcolour,beta,,,17,18,V,R,
226,100,16,5,1,47,33,2199,['c'],1,left,['3'],4,409,[0.11990677],99,47,medium,plus,dotcolour,beta,,,17,18,V,R,
227,101,17,5,1,53,27,1081,['c'],1,left,['2'],5,358,[0.13579894],100,53,easy,plus,dotcolour,beta,,,17,18,V,R,
228,102,18,5,1,47,33,1717,['c'],1,left,['3'],4,540,[-0.01853261],71,47,medium,plus,dotcolour,beta,,,17,18,V,R,
229,103,19,5,1,27,53,1284,['n'],1,right,['2'],5,340,[-0.09194129],99,53,easy,plus,dotcolour,beta,,,17,18,V,R,
230,104,20,5,1,27,53,749,['n'],1,right,['2'],5,217,[-0.15462611],100,53,easy,plus,dotcolour,beta,,,17,18,V,R,
231,105,21,5,1,53,27,848,['c'],1,left,['3'],4,400,[0.10741824],99,53,easy,plus,dotcolour,beta,,,17,18,V,R,
232,106,22,5,1,44,36,2047,['c'],1,left,['3'],4,319,[0.05277158],97,44,hard,plus,dotcolour,beta,,,17,18,V,R,
233,107,23,5,1,44,36,1283,['c'],1,left,['3'],4,417,[0.06612183],97,44,hard,plus,dotcolour,beta,,,17,18,V,R,
234,108,24,5,1,36,44,784,['n'],1,right,['2'],5,289,[-0.05327549],97,44,hard,plus,dotcolour,beta,,,17,18,V,R,
235,109,25,5,1,36,44,1633,['c'],0,right,['3'],4,366,[0.00338146],85,44,hard,plus,dotcolour,beta,,,17,18,V,R,
236,110,26,5,1,44,36,1364,['c'],1,left,['3'],4,401,[0.07257328],97,44,hard,plus,dotcolour,beta,,,17,18,V,R,
237,111,27,5,1,44,36,1515,['c'],1,left,['3'],4,365,[0.15773368],100,44,hard,plus,dotcolour,beta,,,17,18,V,R,
238,112,28,5,1,44,36,931,['c'],1,left,['1'],6,594,[0.19551313],100,44,hard,plus,dotcolour,beta,,,17,18,V,R,
239,113,29,5,1,33,47,1682,['c'],0,right,['3'],4,416,[-0.07125675],39,47,medium,plus,dotcolour,beta,,,17,18,V,R,
240,114,30,5,1,47,33,1200,['c'],1,left,['2'],5,377,[0.12861632],100,47,medium,plus,dotcolour,beta,,,17,18,V,R,
241,115,31,5,1,44,36,799,['c'],1,left,['3'],4,387,[0.06336012],97,44,hard,plus,dotcolour,beta,,,17,18,V,R,
242,116,32,5,1,27,53,897,['n'],1,right,['2'],5,409,[-0.14232107],100,53,easy,plus,dotcolour,beta,,,17,18,V,R,
243,117,33,5,1,33,47,864,['n'],1,right,['3'],4,343,[-0.20318339],100,47,medium,plus,dotcolour,beta,,,17,18,V,R,
244,118,34,5,1,47,33,1081,['c'],1,left,['3'],4,391,[0.08523788],98,47,medium,plus,dotcolour,beta,,,17,18,V,R,
245,119,35,5,1,33,47,1582,['c'],0,right,['3'],4,297,[0.02966189],94,47,medium,plus,dotcolour,beta,,,17,18,V,R,
246,120,36,5,1,33,47,832,['n'],1,right,['3'],4,421,[-0.22581494],100,47,medium,plus,dotcolour,beta,,,17,18,V,R,
247,121,37,5,1,53,27,1000,['c'],1,left,['3'],4,541,[0.28948033],100,53,easy,plus,dotcolour,beta,,,17,18,V,R,
248,122,38,5,1,33,47,1681,['n'],1,right,['3'],4,341,[-0.04419644],96,47,medium,plus,dotcolour,beta,,,17,18,V,R,
249,123,39,5,1,36,44,1432,['n'],1,right,['3'],4,263,[-0.13588681],100,44,hard,plus,dotcolour,beta,,,17,18,V,R,
250,124,40,5,1,27,53,1084,['n'],1,right,['2'],5,426,[0.01869478],73,53,easy,plus,dotcolour,beta,,,17,18,V,R,
251,125,41,5,1,53,27,749,['c'],1,left,['3'],4,428,[0.20773717],100,53,easy,plus,dotcolour,beta,,,17,18,V,R,
252,0,0,6,2,36,44,4850,['n'],1,right,['3'],4,1031,[-0.354406],100,44,hard,minus,dotcolour,beta,,,17,18,V,R,
253,1,1,6,2,44,36,2481,['n'],0,left,['9'],2,467,[-0.07985899],65,44,hard,minus,dotcolour,beta,,,17,18,V,R,
254,2,2,6,2,44,36,2517,['n'],0,left,['9'],2,869,[0.1395846],2,44,hard,minus,dotcolour,beta,,,17,18,V,R,
255,3,3,6,2,36,44,1714,['n'],1,right,['9'],2,382,[-0.07871542],66,44,hard,minus,dotcolour,beta,,,17,18,V,R,
256,4,4,6,2,47,33,1431,['c'],1,left,['2'],5,471,[0.13298976],88,47,medium,minus,dotcolour,beta,,,17,18,V,R,
257,5,5,6,2,53,27,3066,['n'],0,left,['8'],3,458,[-0.01409348],25,53,easy,minus,dotcolour,beta,,,17,18,V,R,
258,6,6,6,2,36,44,2200,['n'],1,right,['2'],5,377,[0.01635605],11,44,hard,minus,dotcolour,beta,,,17,18,V,R,
259,7,7,6,2,47,33,1398,['c'],1,left,['2'],5,371,[0.06725],59,47,medium,minus,dotcolour,beta,,,17,18,V,R,
260,8,8,6,2,53,27,981,['c'],1,left,['2'],5,349,[0.15064048],95,53,easy,minus,dotcolour,beta,,,17,18,V,R,
261,9,9,6,2,27,53,1049,['n'],1,right,['3'],4,254,[-0.05866804],53,53,easy,minus,dotcolour,beta,,,17,18,V,R,
262,10,10,6,2,47,33,981,['c'],1,left,['2'],5,343,[0.0756428],65,47,medium,minus,dotcolour,beta,,,17,18,V,R,
263,11,11,6,2,33,47,848,['n'],1,right,['3'],4,280,[-0.09202726],78,47,medium,minus,dotcolour,beta,,,17,18,V,R,
264,12,12,6,2,33,47,2166,['c'],0,right,['2'],5,424,[0.13396654],90,47,medium,minus,dotcolour,beta,,,17,18,V,R,
265,13,13,6,2,27,53,916,['n'],1,right,['3'],4,290,[-0.08863343],75,53,easy,minus,dotcolour,beta,,,17,18,V,R,
266,14,14,6,2,53,27,1450,['c'],1,left,['2'],5,342,[0.0165128],23,53,easy,minus,dotcolour,beta,,,17,18,V,R,
267,15,15,6,2,44,36,1166,['c'],1,left,['3'],4,402,[0.07329665],62,44,hard,minus,dotcolour,beta,,,17,18,V,R,
268,16,16,6,2,53,27,1015,['c'],1,left,['2'],5,323,[0.13951295],93,53,easy,minus,dotcolour,beta,,,17,18,V,R,
269,17,17,6,2,44,36,1233,['c'],1,left,['2'],5,374,[-0.04199549],5,44,hard,minus,dotcolour,beta,,,17,18,V,R,
270,18,18,6,2,27,53,698,['n'],1,right,['2'],5,332,[-0.14059204],93,53,easy,minus,dotcolour,beta,,,17,18,V,R,
271,19,19,6,2,36,44,666,['n'],1,right,['2'],5,292,[-0.13193675],93,44,hard,minus,dotcolour,beta,,,17,18,V,R,
272,20,20,6,2,27,53,1665,['n'],1,right,['3'],4,255,[-0.12499574],92,53,easy,minus,dotcolour,beta,,,17,18,V,R,
273,21,21,6,2,33,47,1031,['n'],1,right,['3'],4,205,[-0.11343706],91,47,medium,minus,dotcolour,beta,,,17,18,V,R,
274,22,22,6,2,27,53,998,['n'],1,right,['2'],5,246,[-0.12331377],92,53,easy,minus,dotcolour,beta,,,17,18,V,R,
275,23,23,6,2,36,44,881,['n'],1,right,['3'],4,578,[-0.01946097],30,44,hard,minus,dotcolour,beta,,,17,18,V,R,
276,24,24,6,2,53,27,1048,['c'],1,left,['2'],5,394,[0.19085652],98,53,easy,minus,dotcolour,beta,,,17,18,V,R,
277,25,25,6,2,47,33,1415,['c'],1,left,['3'],4,435,[0.02293935],29,47,medium,minus,dotcolour,beta,,,17,18,V,R,
278,26,26,6,2,47,33,1482,['n'],0,left,['8'],3,1143,[-0.17496967],88,47,medium,minus,dotcolour,beta,,,17,18,V,R,
279,27,27,6,2,33,47,1365,['n'],1,right,['9'],2,539,[-0.04061118],41,47,medium,minus,dotcolour,beta,,,17,18,V,R,
280,28,28,6,2,27,53,2048,['c'],0,right,['2'],5,396,[0.00895622],21,53,easy,minus,dotcolour,beta,,,17,18,V,R,
281,29,29,6,2,27,53,1165,['n'],1,right,['2'],5,295,[0.01055496],10,53,easy,minus,dotcolour,beta,,,17,18,V,R,
282,30,30,6,2,47,33,949,['c'],1,left,['2'],5,375,[-0.05368979],4,47,medium,minus,dotcolour,beta,,,17,18,V,R,
283,31,31,6,2,53,27,1314,['c'],1,left,['2'],5,308,[0.10553541],83,53,easy,minus,dotcolour,beta,,,17,18,V,R,
284,32,32,6,2,36,44,782,['n'],1,right,['2'],5,313,[-0.12675218],91,44,hard,minus,dotcolour,beta,,,17,18,V,R,
285,33,33,6,2,33,47,1181,['n'],1,right,['2'],5,415,[-0.15121911],94,47,medium,minus,dotcolour,beta,,,17,18,V,R,
286,34,34,6,2,44,36,1882,['c'],1,left,['2'],5,380,[-0.05932385],3,44,hard,minus,dotcolour,beta,,,17,18,V,R,
287,35,35,6,2,33,47,1050,['n'],1,right,['2'],5,220,[-0.12032161],92,47,medium,minus,dotcolour,beta,,,17,18,V,R,
288,36,36,6,2,53,27,1000,['c'],1,left,['2'],5,325,[0.12018175],88,53,easy,minus,dotcolour,beta,,,17,18,V,R,
289,37,37,6,2,47,33,1666,['n'],0,left,['2'],5,277,[-0.03440475],33,47,medium,minus,dotcolour,beta,,,17,18,V,R,
290,38,38,6,2,36,44,1282,['c'],0,right,['2'],5,328,[0.08205942],70,44,hard,minus,dotcolour,beta,,,17,18,V,R,
291,39,39,6,2,44,36,1031,['n'],0,left,['2'],5,267,[-0.01424912],19,44,hard,minus,dotcolour,beta,,,17,18,V,R,
292,40,40,6,2,44,36,1398,['c'],1,left,['2'],5,258,[0.16507916],98,44,hard,minus,dotcolour,beta,,,17,18,V,R,
293,41,41,6,2,33,47,1214,['n'],1,right,['2'],5,504,[-0.20738297],98,47,medium,minus,dotcolour,beta,,,17,18,V,R,
294,42,0,7,2,47,33,1483,['c'],1,left,['2'],5,375,[0.2486288],100,47,medium,minus,dotcolour,beta,,,17,18,V,R,
295,43,1,7,2,27,53,798,['n'],1,right,['2'],5,209,[-0.18362463],99,53,easy,minus,dotcolour,beta,,,17,18,V,R,
296,44,2,7,2,27,53,899,['n'],1,right,['2'],5,134,[-0.06999415],67,53,easy,minus,dotcolour,beta,,,17,18,V,R,
297,45,3,7,2,47,33,799,['c'],1,left,['2'],5,362,[0.18175802],98,47,medium,minus,dotcolour,beta,,,17,18,V,R,
298,46,4,7,2,36,44,931,['n'],1,right,['2'],5,175,[-0.08402563],77,44,hard,minus,dotcolour,beta,,,17,18,V,R,
299,47,5,7,2,47,33,949,['c'],1,left,['2'],5,323,[0.1015028],81,47,medium,minus,dotcolour,beta,,,17,18,V,R,
300,48,6,7,2,53,27,665,['c'],1,left,['2'],5,381,[0.11049474],83,53,easy,minus,dotcolour,beta,,,17,18,V,R,
301,49,7,7,2,27,53,814,['n'],1,right,['1'],6,270,[-0.11431234],88,53,easy,minus,dotcolour,beta,,,17,18,V,R,
302,50,8,7,2,36,44,1665,['n'],1,right,['2'],5,153,[-0.09248495],85,44,hard,minus,dotcolour,beta,,,17,18,V,R,
303,51,9,7,2,44,36,1599,['n'],0,left,['2'],5,283,[-0.06903349],61,44,hard,minus,dotcolour,beta,,,17,18,V,R,
304,52,10,7,2,53,27,765,['c'],1,left,['2'],5,323,[0.08807042],74,53,easy,minus,dotcolour,beta,,,17,18,V,R,
305,53,11,7,2,33,47,1014,['n'],1,right,['2'],5,301,[-0.1191374],89,47,medium,minus,dotcolour,beta,,,17,18,V,R,
306,54,12,7,2,44,36,1066,['c'],1,left,['2'],5,385,[0.07626416],65,44,hard,minus,dotcolour,beta,,,17,18,V,R,
307,55,13,7,2,44,36,933,['n'],0,left,['1'],6,485,[-0.09606355],74,44,hard,minus,dotcolour,beta,,,17,18,V,R,
308,56,14,7,2,27,53,850,['n'],1,right,['1'],6,480,[-0.08288424],67,53,easy,minus,dotcolour,beta,,,17,18,V,R,
309,57,15,7,2,44,36,1565,['c'],1,left,['2'],5,295,[0.06605565],59,44,hard,minus,dotcolour,beta,,,17,18,V,R,
310,58,16,7,2,33,47,1347,['n'],1,right,['2'],5,206,[-0.03131555],28,47,medium,minus,dotcolour,beta,,,17,18,V,R,
311,59,17,7,2,27,53,699,['n'],1,right,['2'],5,307,[-0.05328982],48,53,easy,minus,dotcolour,beta,,,17,18,V,R,
312,60,18,7,2,47,33,1098,['c'],1,left,['2'],5,291,[0.0911727],77,47,medium,minus,dotcolour,beta,,,17,18,V,R,
313,61,19,7,2,47,33,1915,['c'],1,left,['2'],5,292,[0.12452219],91,47,medium,minus,dotcolour,beta,,,17,18,V,R,
314,62,20,7,2,53,27,1515,['c'],1,left,['3'],4,389,[0.11840474],86,53,easy,minus,dotcolour,beta,,,17,18,V,R,
315,63,21,7,2,47,33,1631,['n'],0,left,['3'],4,181,[-0.06977911],65,47,medium,minus,dotcolour,beta,,,17,18,V,R,
316,64,22,7,2,44,36,1415,['c'],1,left,['3'],4,342,[0.04184973],40,44,hard,minus,dotcolour,beta,,,17,18,V,R,
317,65,23,7,2,36,44,782,['n'],1,right,['3'],4,210,[-0.08914713],79,44,hard,minus,dotcolour,beta,,,17,18,V,R,
318,66,24,7,2,44,36,1083,['c'],1,left,['3'],4,551,[0.09267698],71,44,hard,minus,dotcolour,beta,,,17,18,V,R,
319,67,25,7,2,33,47,766,['n'],1,right,['2'],5,308,[-0.0966498],79,47,medium,minus,dotcolour,beta,,,17,18,V,R,
320,68,26,7,2,33,47,1532,['n'],1,right,['3'],4,283,[-0.07207964],64,47,medium,minus,dotcolour,beta,,,17,18,V,R,
321,69,27,7,2,33,47,899,['n'],1,right,['3'],4,341,[0.06653551],2,47,medium,minus,dotcolour,beta,,,17,18,V,R,
322,70,28,7,2,33,47,849,['n'],1,right,['3'],4,287,[-0.10097443],82,47,medium,minus,dotcolour,beta,,,17,18,V,R,
323,71,29,7,2,53,27,1033,['c'],1,left,['3'],4,291,[0.07434935],65,53,easy,minus,dotcolour,beta,,,17,18,V,R,
324,72,30,7,2,47,33,1799,['c'],1,left,['2'],5,417,[0.0679788],59,47,medium,minus,dotcolour,beta,,,17,18,V,R,
325,73,31,7,2,36,44,863,['c'],0,right,['3'],4,335,[0.073716],64,44,hard,minus,dotcolour,beta,,,17,18,V,R,
326,74,32,7,2,53,27,1148,['c'],1,left,['3'],4,341,[0.15574332],96,53,easy,minus,dotcolour,beta,,,17,18,V,R,
327,75,33,7,2,27,53,666,['n'],1,right,['3'],4,342,[-0.11499116],86,53,easy,minus,dotcolour,beta,,,17,18,V,R,
328,76,34,7,2,44,36,1066,['c'],1,left,['3'],4,302,[0.03882461],37,44,hard,minus,dotcolour,beta,,,17,18,V,R,
329,77,35,7,2,36,44,1298,['n'],1,right,['3'],4,271,[-0.06212106],56,44,hard,minus,dotcolour,beta,,,17,18,V,R,
330,78,36,7,2,53,27,664,['c'],1,left,['2'],5,403,[0.17512738],97,53,easy,minus,dotcolour,beta,,,17,18,V,R,
331,79,37,7,2,36,44,831,['n'],1,right,['2'],5,291,[-0.21014253],99,44,hard,minus,dotcolour,beta,,,17,18,V,R,
332,80,38,7,2,53,27,748,['c'],1,left,['2'],5,371,[0.1013389],79,53,easy,minus,dotcolour,beta,,,17,18,V,R,
333,81,39,7,2,36,44,1166,['n'],1,right,['3'],4,391,[-0.05598135],50,44,hard,minus,dotcolour,beta,,,17,18,V,R,
334,82,40,7,2,33,47,914,['n'],1,right,['3'],4,363,[0.0077429],13,47,medium,minus,dotcolour,beta,,,17,18,V,R,
335,83,41,7,2,27,53,814,['n'],1,right,['2'],5,213,[-0.03808592],34,53,easy,minus,dotcolour,beta,,,17,18,V,R,
336,84,0,8,2,53,27,1100,['c'],1,left,['2'],5,549,[0.16989644],94,53,easy,minus,dotcolour,beta,,,17,18,V,R,
337,85,1,8,2,44,36,1866,['c'],1,left,['3'],4,397,[0.06233867],55,44,hard,minus,dotcolour,beta,,,17,18,V,R,
338,86,2,8,2,33,47,1282,['n'],1,right,['3'],4,259,[-0.10332349],84,47,medium,minus,dotcolour,beta,,,17,18,V,R,
339,87,3,8,2,33,47,948,['n'],1,right,['3'],4,188,[-0.13789085],97,47,medium,minus,dotcolour,beta,,,17,18,V,R,
340,88,4,8,2,53,27,866,['c'],1,left,['3'],4,348,[0.10868098],83,53,easy,minus,dotcolour,beta,,,17,18,V,R,
341,89,5,8,2,27,53,965,['n'],1,right,['3'],4,176,[-0.12206021],95,53,easy,minus,dotcolour,beta,,,17,18,V,R,
342,90,6,8,2,47,33,763,['c'],1,left,['3'],4,339,[-0.00508205],13,47,medium,minus,dotcolour,beta,,,17,18,V,R,
343,91,7,8,2,27,53,1015,['n'],1,right,['2'],5,199,[-0.08967635],80,53,easy,minus,dotcolour,beta,,,17,18,V,R,
344,92,8,8,2,47,33,764,['c'],1,left,['3'],4,337,[0.07047216],61,47,medium,minus,dotcolour,beta,,,17,18,V,R,
345,93,9,8,2,47,33,1233,['c'],1,left,['3'],4,347,[0.11294652],85,47,medium,minus,dotcolour,beta,,,17,18,V,R,
346,94,10,8,2,36,44,1181,['c'],0,right,['3'],4,311,[-0.03725877],5,44,hard,minus,dotcolour,beta,,,17,18,V,R,
347,95,11,8,2,27,53,947,['n'],1,right,['2'],5,230,[-0.10581576],87,53,easy,minus,dotcolour,beta,,,17,18,V,R,
348,96,12,8,2,53,27,714,['c'],1,left,['2'],5,362,[0.1541006],95,53,easy,minus,dotcolour,beta,,,17,18,V,R,
349,97,13,8,2,44,36,984,['c'],1,left,['3'],4,445,[0.03800596],38,44,hard,minus,dotcolour,beta,,,17,18,V,R,
350,98,14,8,2,36,44,1283,['c'],0,right,['3'],4,337,[0.08475888],71,44,hard,minus,dotcolour,beta,,,17,18,V,R,
351,99,15,8,2,44,36,700,['c'],1,left,['3'],4,305,[0.07398974],65,44,hard,minus,dotcolour,beta,,,17,18,V,R,
352,100,16,8,2,36,44,1165,['c'],0,right,['3'],4,319,[0.13655002],93,44,hard,minus,dotcolour,beta,,,17,18,V,R,
353,101,17,8,2,33,47,916,['n'],1,right,['2'],5,239,[-0.07204984],65,47,medium,minus,dotcolour,beta,,,17,18,V,R,
354,102,18,8,2,36,44,1265,['c'],0,right,['3'],4,324,[-0.03095024],6,44,hard,minus,dotcolour,beta,,,17,18,V,R,
355,103,19,8,2,36,44,1664,['n'],1,right,['3'],4,285,[-0.00875259],17,44,hard,minus,dotcolour,beta,,,17,18,V,R,
356,104,20,8,2,33,47,1414,['c'],0,right,['2'],5,362,[0.05646418],51,47,medium,minus,dotcolour,beta,,,17,18,V,R,
357,105,21,8,2,33,47,982,['n'],1,right,['3'],4,310,[-0.14998714],95,47,medium,minus,dotcolour,beta,,,17,18,V,R,
358,106,22,8,2,47,33,998,['n'],0,left,['2'],5,251,[-0.04394258],40,47,medium,minus,dotcolour,beta,,,17,18,V,R,
359,107,23,8,2,27,53,1433,['n'],1,right,['3'],4,417,[-0.06724133],58,53,easy,minus,dotcolour,beta,,,17,18,V,R,
360,108,24,8,2,27,53,1298,['n'],1,right,['2'],5,357,[-0.10131569],80,53,easy,minus,dotcolour,beta,,,17,18,V,R,
361,109,25,8,2,53,27,980,['c'],1,left,['3'],4,361,[0.13796523],92,53,easy,minus,dotcolour,beta,,,17,18,V,R,
362,110,26,8,2,27,53,1199,['n'],1,right,['2'],5,323,[-0.03700679],36,53,easy,minus,dotcolour,beta,,,17,18,V,R,
363,111,27,8,2,33,47,965,['n'],1,right,['2'],5,625,[-0.15666969],91,47,medium,minus,dotcolour,beta,,,17,18,V,R,
364,112,28,8,2,47,33,850,['c'],1,left,['2'],5,351,[0.09575673],77,47,medium,minus,dotcolour,beta,,,17,18,V,R,
365,113,29,8,2,36,44,1932,['c'],0,right,['3'],4,380,[0.1975915],98,44,hard,minus,dotcolour,beta,,,17,18,V,R,
366,114,30,8,2,47,33,1716,['c'],1,left,['2'],5,890,[0.11184318],75,47,medium,minus,dotcolour,beta,,,17,18,V,R,
367,115,31,8,2,44,36,1299,['c'],1,left,['2'],5,395,[0.1857258],98,44,hard,minus,dotcolour,beta,,,17,18,V,R,
368,116,32,8,2,44,36,847,['c'],1,left,['2'],5,394,[0.15277715],94,44,hard,minus,dotcolour,beta,,,17,18,V,R,
369,117,33,8,2,53,27,631,['c'],1,left,['2'],5,298,[0.03603524],34,53,easy,minus,dotcolour,beta,,,17,18,V,R,
370,118,34,8,2,44,36,1050,['n'],0,left,['3'],4,254,[-0.01965859],22,44,hard,minus,dotcolour,beta,,,17,18,V,R,
371,119,35,8,2,53,27,884,['c'],1,left,['2'],5,386,[0.07788932],66,53,easy,minus,dotcolour,beta,,,17,18,V,R,
372,120,36,8,2,36,44,965,['n'],1,right,['3'],4,284,[-0.0849825],73,44,hard,minus,dotcolour,beta,,,17,18,V,R,
373,121,37,8,2,33,47,982,['n'],1,right,['8'],3,1019,[-0.28062434],98,47,medium,minus,dotcolour,beta,,,17,18,V,R,
374,122,38,8,2,47,33,783,['c'],1,left,['2'],5,340,[0.09453041],77,47,medium,minus,dotcolour,beta,,,17,18,V,R,
375,123,39,8,2,27,53,1198,['n'],1,right,['2'],5,319,[-0.09112541],76,53,easy,minus,dotcolour,beta,,,17,18,V,R,
376,124,40,8,2,44,36,916,['c'],1,left,['3'],4,303,[0.09540407],79,44,hard,minus,dotcolour,beta,,,17,18,V,R,
377,125,41,8,2,53,27,882,['c'],1,left,['3'],4,337,[0.01396911],22,53,easy,minus,dotcolour,beta,,,17,18,V,R,
378,0,0,9,3,47,33,1083,['c'],1,left,['2'],5,505,[0.18773263],100,47,medium,plus,dotcolour,beta,,,17,18,V,R,
379,1,1,9,3,44,36,798,['c'],1,left,['2'],5,310,[0.04973986],97,44,hard,plus,dotcolour,beta,,,17,18,V,R,
380,2,2,9,3,27,53,899,['n'],1,right,['8'],3,631,[-0.15039448],99,53,easy,plus,dotcolour,beta,,,17,18,V,R,
381,3,3,9,3,53,27,664,['c'],1,left,['2'],5,340,[0.09255381],99,53,easy,plus,dotcolour,beta,,,17,18,V,R,
382,4,4,9,3,33,47,866,['n'],1,right,['2'],5,293,[-0.16579458],100,47,medium,plus,dotcolour,beta,,,17,18,V,R,
383,5,5,9,3,27,53,848,['n'],1,right,['2'],5,192,[-0.05544334],99,53,easy,plus,dotcolour,beta,,,17,18,V,R,
384,6,6,9,3,36,44,1248,['c'],0,right,['3'],4,271,[0.06197739],98,44,hard,plus,dotcolour,beta,,,17,18,V,R,
385,7,7,9,3,36,44,715,['n'],1,right,['3'],4,233,[-0.03280161],96,44,hard,plus,dotcolour,beta,,,17,18,V,R,
386,8,8,9,3,36,44,816,['n'],1,right,['8'],3,552,[-0.2476085],100,44,hard,plus,dotcolour,beta,,,17,18,V,R,
387,9,9,9,3,27,53,1398,['n'],1,right,['2'],5,324,[-0.10089217],99,53,easy,plus,dotcolour,beta,,,17,18,V,R,
388,10,10,9,3,27,53,914,['n'],1,right,['2'],5,331,[-0.19372428],100,53,easy,plus,dotcolour,beta,,,17,18,V,R,
389,11,11,9,3,47,33,1366,['c'],1,left,['3'],4,313,[0.02973781],94,47,medium,plus,dotcolour,beta,,,17,18,V,R,
390,12,12,9,3,44,36,1415,['c'],1,left,['3'],4,325,[0.06197599],98,44,hard,plus,dotcolour,beta,,,17,18,V,R,
391,13,13,9,3,27,53,751,['n'],1,right,['2'],5,299,[-0.08922416],99,53,easy,plus,dotcolour,beta,,,17,18,V,R,
392,14,14,9,3,47,33,817,['c'],1,left,['3'],4,327,[0.09159405],99,47,medium,plus,dotcolour,beta,,,17,18,V,R,
393,15,15,9,3,44,36,1198,['c'],1,left,['3'],4,355,[0.04354004],95,44,hard,plus,dotcolour,beta,,,17,18,V,R,
394,16,16,9,3,53,27,784,['c'],1,left,['3'],4,318,[0.0889738],99,53,easy,plus,dotcolour,beta,,,17,18,V,R,
395,17,17,9,3,44,36,1283,['c'],1,left,['3'],4,280,[0.10550114],100,44,hard,plus,dotcolour,beta,,,17,18,V,R,
396,18,18,9,3,47,33,1298,['c'],1,left,['2'],5,266,[0.147143],100,47,medium,plus,dotcolour,beta,,,17,18,V,R,
397,19,19,9,3,27,53,1782,['c'],0,right,['3'],4,337,[0.06813602],98,53,easy,plus,dotcolour,beta,,,17,18,V,R,
398,20,20,9,3,47,33,882,['c'],1,left,['2'],5,313,[0.02172524],92,47,medium,plus,dotcolour,beta,,,17,18,V,R,
399,21,21,9,3,44,36,881,['n'],0,left,['8'],3,658,[-0.10577941],97,44,hard,plus,dotcolour,beta,,,17,18,V,R,
400,22,22,9,3,33,47,2148,['n'],1,right,['8'],3,371,[-0.12364709],100,47,medium,plus,dotcolour,beta,,,17,18,V,R,
401,23,23,9,3,53,27,1598,['c'],1,left,['2'],5,358,[0.11468267],99,53,easy,plus,dotcolour,beta,,,17,18,V,R,
402,24,24,9,3,53,27,997,['c'],1,left,['2'],5,345,[0.04051881],95,53,easy,plus,dotcolour,beta,,,17,18,V,R,
403,25,25,9,3,27,53,815,['n'],1,right,['2'],5,307,[-0.07678688],99,53,easy,plus,dotcolour,beta,,,17,18,V,R,
404,26,26,9,3,36,44,1164,['c'],0,right,['3'],4,673,[-0.0493321],53,44,hard,plus,dotcolour,beta,,,17,18,V,R,
405,27,27,9,3,53,27,1499,['c'],1,left,['2'],5,323,[0.1292477],100,53,easy,plus,dotcolour,beta,,,17,18,V,R,
406,28,28,9,3,33,47,1648,['n'],1,right,['2'],5,533,[-0.11794579],99,47,medium,plus,dotcolour,beta,,,17,18,V,R,
407,29,29,9,3,47,33,1282,['c'],1,left,['2'],5,302,[0.0062705],88,47,medium,plus,dotcolour,beta,,,17,18,V,R,
408,30,30,9,3,36,44,915,['n'],1,right,['2'],5,239,[-0.06419713],99,44,hard,plus,dotcolour,beta,,,17,18,V,R,
409,31,31,9,3,44,36,1198,['c'],1,left,['3'],4,310,[0.10657724],99,44,hard,plus,dotcolour,beta,,,17,18,V,R,
410,32,32,9,3,47,33,2050,['c'],1,left,['3'],4,321,[0.22513251],100,47,medium,plus,dotcolour,beta,,,17,18,V,R,
411,33,33,9,3,33,47,1165,['n'],1,right,['2'],5,278,[-0.13179982],100,47,medium,plus,dotcolour,beta,,,17,18,V,R,
412,34,34,9,3,33,47,1283,['n'],1,right,['2'],5,249,[-0.13873082],100,47,medium,plus,dotcolour,beta,,,17,18,V,R,
413,35,35,9,3,53,27,748,['c'],1,left,['2'],5,346,[0.02620409],92,53,easy,plus,dotcolour,beta,,,17,18,V,R,
414,36,36,9,3,33,47,1480,['n'],1,right,['3'],4,1091,[0.056264],50,47,medium,plus,dotcolour,beta,,,17,18,V,R,
415,37,37,9,3,33,47,881,['n'],1,right,['3'],4,268,[-0.02905527],95,47,medium,plus,dotcolour,beta,,,17,18,V,R,
416,38,38,9,3,44,36,832,['c'],1,left,['3'],4,298,[0.08115676],99,44,hard,plus,dotcolour,beta,,,17,18,V,R,
417,39,39,9,3,36,44,1198,['n'],1,right,['3'],4,263,[-0.02397189],94,44,hard,plus,dotcolour,beta,,,17,18,V,R,
418,40,40,9,3,53,27,600,['c'],1,left,['2'],5,350,[0.14162289],100,53,easy,plus,dotcolour,beta,,,17,18,V,R,
419,41,41,9,3,36,44,816,['n'],1,right,['8'],3,1400,[-0.05647188],85,44,hard,plus,dotcolour,beta,,,17,18,V,R,
420,42,0,10,3,47,33,866,['c'],1,left,['2'],5,361,[0.10280578],99,47,medium,plus,dotcolour,beta,,,17,18,V,R,
421,43,1,10,3,44,36,700,['c'],1,left,['2'],5,368,[0.03394287],93,44,hard,plus,dotcolour,beta,,,17,18,V,R,
422,44,2,10,3,27,53,664,['n'],1,right,['2'],5,416,[-0.17275454],100,53,easy,plus,dotcolour,beta,,,17,18,V,R,
423,45,3,10,3,27,53,749,['n'],1,right,['3'],4,450,[-0.13115539],99,53,easy,plus,dotcolour,beta,,,17,18,V,R,
424,46,4,10,3,44,36,1031,['c'],1,left,['3'],4,560,[0.07826395],96,44,hard,plus,dotcolour,beta,,,17,18,V,R,
425,47,5,10,3,33,47,1100,['c'],0,right,['3'],4,407,[0.05039306],95,47,medium,plus,dotcolour,beta,,,17,18,V,R,
426,48,6,10,3,33,47,1015,['n'],1,right,['3'],4,303,[-0.02195002],93,47,medium,plus,dotcolour,beta,,,17,18,V,R,
427,49,7,10,3,44,36,1449,['n'],0,left,['3'],4,322,[0.03119412],68,44,hard,plus,dotcolour,beta,,,17,18,V,R,
428,50,8,10,3,33,47,1164,['n'],1,right,['3'],4,279,[-0.03503935],96,47,medium,plus,dotcolour,beta,,,17,18,V,R,
429,51,9,10,3,27,53,932,['n'],1,right,['2'],5,223,[-0.12929845],100,53,easy,plus,dotcolour,beta,,,17,18,V,R,
430,52,10,10,3,53,27,765,['c'],1,left,['3'],4,553,[0.08708612],97,53,easy,plus,dotcolour,beta,,,17,18,V,R,
431,53,11,10,3,53,27,1116,['c'],1,left,['3'],4,335,[0.13040895],100,53,easy,plus,dotcolour,beta,,,17,18,V,R,
432,54,12,10,3,27,53,1066,['n'],1,right,['2'],5,681,[-0.04515865],90,53,easy,plus,dotcolour,beta,,,17,18,V,R,
433,55,13,10,3,36,44,1066,['c'],0,right,['3'],4,323,[-0.03721021],64,44,hard,plus,dotcolour,beta,,,17,18,V,R,
434,56,14,10,3,53,27,914,['c'],1,left,['2'],5,307,[0.12080977],100,53,easy,plus,dotcolour,beta,,,17,18,V,R,
435,57,15,10,3,33,47,733,['n'],1,right,['3'],4,339,[-0.24612411],100,47,medium,plus,dotcolour,beta,,,17,18,V,R,
436,58,16,10,3,36,44,981,['n'],1,right,['3'],4,398,[-0.12083472],99,44,hard,plus,dotcolour,beta,,,17,18,V,R,
437,59,17,10,3,47,33,1132,['n'],0,left,['3'],4,250,[-0.04281031],97,47,medium,plus,dotcolour,beta,,,17,18,V,R,
438,60,18,10,3,44,36,833,['c'],1,left,['3'],4,344,[-0.015553],77,44,hard,plus,dotcolour,beta,,,17,18,V,R,
439,61,19,10,3,36,44,798,['n'],1,right,['3'],4,371,[-0.02161229],91,44,hard,plus,dotcolour,beta,,,17,18,V,R,
440,62,20,10,3,36,44,1066,['n'],1,right,['3'],4,436,[-0.0257029],90,44,hard,plus,dotcolour,beta,,,17,18,V,R,
441,63,21,10,3,47,33,700,['c'],1,left,['3'],4,359,[0.16000078],100,47,medium,plus,dotcolour,beta,,,17,18,V,R,
442,64,22,10,3,44,36,1782,['c'],1,left,['3'],4,306,[0.04914693],97,44,hard,plus,dotcolour,beta,,,17,18,V,R,
443,65,23,10,3,33,47,865,['n'],1,right,['2'],5,333,[0.00487363],83,47,medium,plus,dotcolour,beta,,,17,18,V,R,
444,66,24,10,3,53,27,1316,['c'],1,left,['2'],5,300,[0.09420722],99,53,easy,plus,dotcolour,beta,,,17,18,V,R,
445,67,25,10,3,33,47,982,['n'],1,right,['2'],5,274,[-0.09525994],99,47,medium,plus,dotcolour,beta,,,17,18,V,R,
446,68,26,10,3,47,33,832,['c'],1,left,['2'],5,367,[0.01554313],89,47,medium,plus,dotcolour,beta,,,17,18,V,R,
447,69,27,10,3,47,33,1114,['c'],1,left,['2'],5,325,[0.1176838],100,47,medium,plus,dotcolour,beta,,,17,18,V,R,
448,70,28,10,3,27,53,699,['n'],1,right,['2'],5,253,[-0.15480837],100,53,easy,plus,dotcolour,beta,,,17,18,V,R,
449,71,29,10,3,33,47,615,['n'],1,right,['2'],5,268,[-0.06263253],98,47,medium,plus,dotcolour,beta,,,17,18,V,R,
450,72,30,10,3,36,44,1197,['n'],1,right,['3'],4,338,[-0.17247388],100,44,hard,plus,dotcolour,beta,,,17,18,V,R,
451,73,31,10,3,36,44,884,['n'],1,right,['3'],4,539,[-0.09073051],97,44,hard,plus,dotcolour,beta,,,17,18,V,R,
452,74,32,10,3,47,33,1117,['n'],0,left,['3'],4,369,[-0.09041928],99,47,medium,plus,dotcolour,beta,,,17,18,V,R,
453,75,33,10,3,36,44,1583,['n'],1,right,['3'],4,293,[-0.01938961],92,44,hard,plus,dotcolour,beta,,,17,18,V,R,
454,76,34,10,3,53,27,1032,['n'],0,left,['8'],3,753,[0.11920894],21,53,easy,plus,dotcolour,beta,,,17,18,V,R,
455,77,35,10,3,44,36,1766,['c'],1,left,['3'],4,374,[0.13363933],100,44,hard,plus,dotcolour,beta,,,17,18,V,R,
456,78,36,10,3,44,36,1517,['n'],0,left,['3'],4,163,[-0.05070429],99,44,hard,plus,dotcolour,beta,,,17,18,V,R,
457,79,37,10,3,27,53,732,['n'],1,right,['2'],5,272,[-0.14320252],100,53,easy,plus,dotcolour,beta,,,17,18,V,R,
458,80,38,10,3,53,27,1981,['c'],1,left,['2'],5,272,[0.03004821],95,53,easy,plus,dotcolour,beta,,,17,18,V,R,
459,81,39,10,3,27,53,698,['n'],1,right,['3'],4,386,[-0.06687524],97,53,easy,plus,dotcolour,beta,,,17,18,V,R,
460,82,40,10,3,47,33,815,['c'],1,left,['3'],4,371,[-0.00286948],83,47,medium,plus,dotcolour,beta,,,17,18,V,R,
461,83,41,10,3,53,27,1098,['c'],1,left,['2'],5,369,[0.04502603],95,53,easy,plus,dotcolour,beta,,,17,18,V,R,
462,84,0,11,3,53,27,932,['c'],1,left,['2'],5,351,[0.10192058],99,53,easy,plus,dotcolour,beta,,,17,18,V,R,
463,85,1,11,3,44,36,947,['n'],0,left,['2'],5,211,[-0.08619269],100,44,hard,plus,dotcolour,beta,,,17,18,V,R,
464,86,2,11,3,33,47,832,['n'],1,right,['2'],5,211,[-0.13637904],100,47,medium,plus,dotcolour,beta,,,17,18,V,R,
465,87,3,11,3,44,36,1150,['n'],0,left,['8'],3,421,[-0.12741237],99,44,hard,plus,dotcolour,beta,,,17,18,V,R,
466,88,4,11,3,36,44,1516,['n'],1,right,['3'],4,873,[-0.06962726],92,44,hard,plus,dotcolour,beta,,,17,18,V,R,
467,89,5,11,3,47,33,932,['c'],1,left,['3'],4,282,[0.13988769],100,47,medium,plus,dotcolour,beta,,,17,18,V,R,
468,90,6,11,3,44,36,1015,['c'],1,left,['3'],4,351,[0.16437415],100,44,hard,plus,dotcolour,beta,,,17,18,V,R,
469,91,7,11,3,53,27,816,['c'],1,left,['2'],5,314,[0.09530326],99,53,easy,plus,dotcolour,beta,,,17,18,V,R,
470,92,8,11,3,33,47,848,['n'],1,right,['8'],3,717,[-0.07687547],94,47,medium,plus,dotcolour,beta,,,17,18,V,R,
471,93,9,11,3,36,44,1298,['n'],1,right,['3'],4,325,[-0.05245315],97,44,hard,plus,dotcolour,beta,,,17,18,V,R,
472,94,10,11,3,27,53,1266,['n'],1,right,['3'],4,214,[-0.07871064],99,53,easy,plus,dotcolour,beta,,,17,18,V,R,
473,95,11,11,3,53,27,732,['c'],1,left,['3'],4,449,[0.16219604],100,53,easy,plus,dotcolour,beta,,,17,18,V,R,
474,96,12,11,3,36,44,1715,['c'],0,right,['3'],4,460,[0.07805422],97,44,hard,plus,dotcolour,beta,,,17,18,V,R,
475,97,13,11,3,36,44,850,['n'],1,right,['2'],5,281,[-0.11932584],100,44,hard,plus,dotcolour,beta,,,17,18,V,R,
476,98,14,11,3,27,53,948,['n'],1,right,['2'],5,217,[-0.13343845],100,53,easy,plus,dotcolour,beta,,,17,18,V,R,
477,99,15,11,3,36,44,866,['n'],1,right,['2'],5,303,[-0.05438714],97,44,hard,plus,dotcolour,beta,,,17,18,V,R,
478,100,16,11,3,47,33,683,['c'],1,left,['2'],5,329,[0.17657726],100,47,medium,plus,dotcolour,beta,,,17,18,V,R,
479,101,17,11,3,33,47,732,['n'],1,right,['2'],5,151,[-0.07351795],100,47,medium,plus,dotcolour,beta,,,17,18,V,R,
480,102,18,11,3,47,33,1282,['c'],1,left,['3'],4,320,[0.033622],94,47,medium,plus,dotcolour,beta,,,17,18,V,R,
481,103,19,11,3,33,47,814,['n'],1,right,['2'],5,187,[-0.09352936],100,47,medium,plus,dotcolour,beta,,,17,18,V,R,
482,104,20,11,3,53,27,883,['c'],1,left,['2'],5,306,[0.13458765],100,53,easy,plus,dotcolour,beta,,,17,18,V,R,
483,105,21,11,3,47,33,648,['c'],1,left,['2'],5,429,[0.06822349],97,47,medium,plus,dotcolour,beta,,,17,18,V,R,
484,106,22,11,3,27,53,851,['n'],1,right,['2'],5,235,[0.00989422],84,53,easy,plus,dotcolour,beta,,,17,18,V,R,
485,107,23,11,3,27,53,615,['n'],1,right,['2'],5,243,[-0.15775974],100,53,easy,plus,dotcolour,beta,,,17,18,V,R,
486,108,24,11,3,44,36,898,['c'],1,left,['2'],5,326,[0.04169374],96,44,hard,plus,dotcolour,beta,,,17,18,V,R,
487,109,25,11,3,47,33,1047,['c'],1,left,['2'],5,288,[0.12340483],100,47,medium,plus,dotcolour,beta,,,17,18,V,R,
488,110,26,11,3,53,27,748,['c'],1,left,['2'],5,312,[0.09854828],99,53,easy,plus,dotcolour,beta,,,17,18,V,R,
489,111,27,11,3,53,27,998,['c'],1,left,['2'],5,253,[0.18241811],100,53,easy,plus,dotcolour,beta,,,17,18,V,R,
490,112,28,11,3,36,44,815,['n'],1,right,['2'],5,178,[-0.06950339],100,44,hard,plus,dotcolour,beta,,,17,18,V,R,
491,113,29,11,3,44,36,583,['c'],1,left,['2'],5,325,[0.05203701],97,44,hard,plus,dotcolour,beta,,,17,18,V,R,
492,114,30,11,3,47,33,800,['c'],1,left,['2'],5,281,[0.07545827],99,47,medium,plus,dotcolour,beta,,,17,18,V,R,
493,115,31,11,3,27,53,650,['n'],1,right,['2'],5,229,[-0.08125374],99,53,easy,plus,dotcolour,beta,,,17,18,V,R,
494,116,32,11,3,44,36,816,['c'],1,left,['3'],4,452,[0.11306189],99,44,hard,plus,dotcolour,beta,,,17,18,V,R,
495,117,33,11,3,27,53,817,['n'],1,right,['3'],4,347,[-0.16943893],100,53,easy,plus,dotcolour,beta,,,17,18,V,R,
496,118,34,11,3,33,47,734,['n'],1,right,['3'],4,257,[-0.18712737],100,47,medium,plus,dotcolour,beta,,,17,18,V,R,
497,119,35,11,3,44,36,632,['c'],1,left,['3'],4,479,[0.09124995],98,44,hard,plus,dotcolour,beta,,,17,18,V,R,
498,120,36,11,3,47,33,714,['n'],0,left,['3'],4,344,[0.01157067],79,47,medium,plus,dotcolour,beta,,,17,18,V,R,
499,121,37,11,3,33,47,814,['n'],1,right,['2'],5,370,[-0.14289469],100,47,medium,plus,dotcolour,beta,,,17,18,V,R,
500,122,38,11,3,27,53,717,['n'],1,right,['2'],5,280,[-0.11213172],100,53,easy,plus,dotcolour,beta,,,17,18,V,R,
501,123,39,11,3,33,47,633,['n'],1,right,['2'],5,246,[-0.14564638],100,47,medium,plus,dotcolour,beta,,,17,18,V,R,
502,124,40,11,3,36,44,866,['n'],1,right,['2'],5,259,[-0.14280836],100,44,hard,plus,dotcolour,beta,,,17,18,V,R,
503,125,41,11,3,53,27,1282,['c'],1,left,['2'],5,309,[0.09099014],99,53,easy,plus,dotcolour,beta,,,17,18,V,R,
504,0,0,12,4,53,27,800,['c'],1,left,['1'],6,364,[0.09706176],78,53,easy,minus,dotcolour,beta,,,17,18,V,R,
505,1,1,12,4,33,47,883,['n'],1,right,['2'],5,236,[-0.07370264],66,47,medium,minus,dotcolour,beta,,,17,18,V,R,
506,2,2,12,4,36,44,1131,['n'],1,right,['3'],4,343,[-0.070637],61,44,hard,minus,dotcolour,beta,,,17,18,V,R,
507,3,3,12,4,27,53,798,['n'],1,right,['2'],5,210,[0.02576341],4,53,easy,minus,dotcolour,beta,,,17,18,V,R,
508,4,4,12,4,47,33,915,['c'],1,left,['3'],4,374,[0.09463216],76,47,medium,minus,dotcolour,beta,,,17,18,V,R,
509,5,5,12,4,44,36,1164,['c'],1,left,['3'],4,329,[0.14771919],95,44,hard,minus,dotcolour,beta,,,17,18,V,R,
510,6,6,12,4,33,47,800,['n'],1,right,['3'],4,213,[0.05094569],2,47,medium,minus,dotcolour,beta,,,17,18,V,R,
511,7,7,12,4,47,33,1298,['c'],1,left,['2'],5,546,[0.17341547],95,47,medium,minus,dotcolour,beta,,,17,18,V,R,
512,8,8,12,4,53,27,849,['c'],1,left,['2'],5,427,[0.17161883],96,53,easy,minus,dotcolour,beta,,,17,18,V,R,
513,9,9,12,4,33,47,850,['n'],1,right,['2'],5,410,[-0.14108137],92,47,medium,minus,dotcolour,beta,,,17,18,V,R,
514,10,10,12,4,27,53,881,['n'],1,right,['3'],4,207,[-0.12335012],94,53,easy,minus,dotcolour,beta,,,17,18,V,R,
515,11,11,12,4,47,33,816,['c'],1,left,['3'],4,342,[0.13581488],92,47,medium,minus,dotcolour,beta,,,17,18,V,R,
516,12,12,12,4,44,36,1299,['c'],1,left,['3'],4,478,[0.07531386],63,44,hard,minus,dotcolour,beta,,,17,18,V,R,
517,13,13,12,4,27,53,766,['n'],1,right,['2'],5,317,[-0.20005035],99,53,easy,minus,dotcolour,beta,,,17,18,V,R,
518,14,14,12,4,27,53,733,['n'],1,right,['2'],5,404,[-0.12500903],88,53,easy,minus,dotcolour,beta,,,17,18,V,R,
519,15,15,12,4,47,33,899,['c'],1,left,['3'],4,425,[0.16203818],95,47,medium,minus,dotcolour,beta,,,17,18,V,R,
520,16,16,12,4,33,47,665,['n'],1,right,['2'],5,359,[-0.11357908],85,47,medium,minus,dotcolour,beta,,,17,18,V,R,
521,17,17,12,4,27,53,665,['n'],1,right,['3'],4,311,[-0.13745366],93,53,easy,minus,dotcolour,beta,,,17,18,V,R,
522,18,18,12,4,36,44,666,['n'],1,right,['3'],4,352,[0.01372025],11,44,hard,minus,dotcolour,beta,,,17,18,V,R,
523,19,19,12,4,27,53,798,['n'],1,right,['3'],4,340,[-0.1760015],98,53,easy,minus,dotcolour,beta,,,17,18,V,R,
524,20,20,12,4,53,27,964,['c'],1,left,['2'],5,344,[0.15973075],96,53,easy,minus,dotcolour,beta,,,17,18,V,R,
525,21,21,12,4,36,44,915,['n'],1,right,['3'],4,463,[-0.05195266],48,44,hard,minus,dotcolour,beta,,,17,18,V,R,
526,22,22,12,4,36,44,1030,['c'],0,right,['2'],5,460,[-0.00627543],16,44,hard,minus,dotcolour,beta,,,17,18,V,R,
527,23,23,12,4,33,47,697,['n'],1,right,['2'],5,239,[-0.13299271],95,47,medium,minus,dotcolour,beta,,,17,18,V,R,
528,24,24,12,4,36,44,1198,['c'],0,right,['3'],4,255,[0.07299669],65,44,hard,minus,dotcolour,beta,,,17,18,V,R,
529,25,25,12,4,33,47,1014,['n'],1,right,['3'],4,302,[-0.13624272],93,47,medium,minus,dotcolour,beta,,,17,18,V,R,
530,26,26,12,4,44,36,1132,['c'],1,left,['3'],4,438,[0.14232898],91,44,hard,minus,dotcolour,beta,,,17,18,V,R,
531,27,27,12,4,53,27,863,['c'],1,left,['2'],5,363,[0.23087155],99,53,easy,minus,dotcolour,beta,,,17,18,V,R,
532,28,28,12,4,53,27,665,['c'],1,left,['2'],5,323,[0.08117323],69,53,easy,minus,dotcolour,beta,,,17,18,V,R,
533,29,29,12,4,44,36,899,['c'],1,left,['2'],5,354,[0.22297767],99,44,hard,minus,dotcolour,beta,,,17,18,V,R,
534,30,30,12,4,36,44,733,['n'],1,right,['2'],5,264,[-0.0585875],53,44,hard,minus,dotcolour,beta,,,17,18,V,R,
535,31,31,12,4,33,47,766,['n'],1,right,['2'],5,233,[-0.05137207],46,47,medium,minus,dotcolour,beta,,,17,18,V,R,
536,32,32,12,4,36,44,983,['c'],0,right,['2'],5,346,[0.11758357],87,44,hard,minus,dotcolour,beta,,,17,18,V,R,
537,33,33,12,4,44,36,1014,['n'],0,left,['2'],5,276,[0.00759586],10,44,hard,minus,dotcolour,beta,,,17,18,V,R,
538,34,34,12,4,53,27,766,['c'],1,left,['2'],5,332,[0.02078734],25,53,easy,minus,dotcolour,beta,,,17,18,V,R,
539,35,35,12,4,27,53,1067,['n'],1,right,['8'],3,982,[-0.22135344],95,53,easy,minus,dotcolour,beta,,,17,18,V,R,
540,36,36,12,4,47,33,849,['c'],1,left,['3'],4,461,[0.02391552],30,47,medium,minus,dotcolour,beta,,,17,18,V,R,
541,37,37,12,4,44,36,931,['c'],1,left,['2'],5,286,[0.11689063],89,44,hard,minus,dotcolour,beta,,,17,18,V,R,
542,38,38,12,4,47,33,732,['c'],1,left,['2'],5,350,[0.00266416],17,47,medium,minus,dotcolour,beta,,,17,18,V,R,
543,39,39,12,4,44,36,1533,['n'],0,left,['3'],4,596,[-0.09739476],73,44,hard,minus,dotcolour,beta,,,17,18,V,R,
544,40,40,12,4,53,27,915,['c'],1,left,['3'],4,257,[0.09866965],82,53,easy,minus,dotcolour,beta,,,17,18,V,R,
545,41,41,12,4,47,33,783,['c'],1,left,['3'],4,353,[0.07877674],67,47,medium,minus,dotcolour,beta,,,17,18,V,R,
546,42,0,13,4,53,27,800,['c'],1,left,['2'],5,344,[0.15087452],95,53,easy,minus,dotcolour,beta,,,17,18,V,R,
547,43,1,13,4,33,47,715,['n'],1,right,['3'],4,359,[-0.09769375],78,47,medium,minus,dotcolour,beta,,,17,18,V,R,
548,44,2,13,4,36,44,899,['c'],0,right,['3'],4,294,[0.05892877],53,44,hard,minus,dotcolour,beta,,,17,18,V,R,
549,45,3,13,4,47,33,683,['c'],1,left,['2'],5,303,[0.06592967],58,47,medium,minus,dotcolour,beta,,,17,18,V,R,
550,46,4,13,4,44,36,649,['c'],1,left,['3'],4,338,[-0.04833072],4,44,hard,minus,dotcolour,beta,,,17,18,V,R,
551,47,5,13,4,47,33,681,['c'],1,left,['2'],5,324,[0.13624003],93,47,medium,minus,dotcolour,beta,,,17,18,V,R,
552,48,6,13,4,47,33,780,['c'],1,left,['2'],5,313,[0.06732707],59,47,medium,minus,dotcolour,beta,,,17,18,V,R,
553,49,7,13,4,33,47,1100,['c'],0,right,['2'],5,281,[0.08346367],72,47,medium,minus,dotcolour,beta,,,17,18,V,R,
554,50,8,13,4,33,47,915,['n'],1,right,['2'],5,315,[-0.05062395],46,47,medium,minus,dotcolour,beta,,,17,18,V,R,
555,51,9,13,4,33,47,916,['n'],1,right,['3'],4,434,[-0.07217618],61,47,medium,minus,dotcolour,beta,,,17,18,V,R,
556,52,10,13,4,36,44,1232,['n'],1,right,['3'],4,345,[-0.00433595],17,44,hard,minus,dotcolour,beta,,,17,18,V,R,
557,53,11,13,4,44,36,932,['c'],1,left,['3'],4,327,[0.04946982],45,44,hard,minus,dotcolour,beta,,,17,18,V,R,
558,54,12,13,4,33,47,1582,['n'],1,right,['3'],4,260,[-0.0411384],38,47,medium,minus,dotcolour,beta,,,17,18,V,R,
559,55,13,13,4,47,33,867,['c'],1,left,['3'],4,344,[0.14995648],95,47,medium,minus,dotcolour,beta,,,17,18,V,R,
560,56,14,13,4,44,36,700,['c'],1,left,['3'],4,375,[0.05760054],52,44,hard,minus,dotcolour,beta,,,17,18,V,R,
561,57,15,13,4,44,36,782,['c'],1,left,['3'],4,409,[0.12241156],87,44,hard,minus,dotcolour,beta,,,17,18,V,R,
562,58,16,13,4,53,27,1333,['c'],1,left,['3'],4,341,[0.0885204],73,53,easy,minus,dotcolour,beta,,,17,18,V,R,
563,59,17,13,4,36,44,798,['n'],1,right,['3'],4,328,[-0.04977532],45,44,hard,minus,dotcolour,beta,,,17,18,V,R,
564,60,18,13,4,53,27,799,['c'],1,left,['3'],4,324,[0.12918308],91,53,easy,minus,dotcolour,beta,,,17,18,V,R,
565,61,19,13,4,44,36,715,['c'],1,left,['2'],5,404,[0.04671274],44,44,hard,minus,dotcolour,beta,,,17,18,V,R,
566,62,20,13,4,53,27,765,['c'],1,left,['2'],5,302,[0.16175307],97,53,easy,minus,dotcolour,beta,,,17,18,V,R,
567,63,21,13,4,53,27,681,['c'],1,left,['2'],5,279,[0.13507113],94,53,easy,minus,dotcolour,beta,,,17,18,V,R,
568,64,22,13,4,27,53,932,['n'],1,right,['2'],5,280,[-0.11879643],90,53,easy,minus,dotcolour,beta,,,17,18,V,R,
569,65,23,13,4,27,53,1015,['n'],1,right,['2'],5,301,[-0.21010793],99,53,easy,minus,dotcolour,beta,,,17,18,V,R,
570,66,24,13,4,53,27,765,['c'],1,left,['2'],5,380,[0.08405193],70,53,easy,minus,dotcolour,beta,,,17,18,V,R,
571,67,25,13,4,53,27,748,['c'],1,left,['2'],5,352,[0.14964773],95,53,easy,minus,dotcolour,beta,,,17,18,V,R,
572,68,26,13,4,44,36,1099,['c'],1,left,['2'],5,319,[0.07341173],64,44,hard,minus,dotcolour,beta,,,17,18,V,R,
573,69,27,13,4,47,33,1115,['c'],1,left,['3'],4,351,[0.14506669],94,47,medium,minus,dotcolour,beta,,,17,18,V,R,
574,70,28,13,4,36,44,815,['n'],1,right,['3'],4,705,[-0.2261185],97,44,hard,minus,dotcolour,beta,,,17,18,V,R,
575,71,29,13,4,27,53,665,['n'],1,right,['3'],4,155,[-0.12274086],96,53,easy,minus,dotcolour,beta,,,17,18,V,R,
576,72,30,13,4,27,53,1599,['c'],0,right,['3'],4,286,[0.01439507],20,53,easy,minus,dotcolour,beta,,,17,18,V,R,
577,73,31,13,4,27,53,732,['n'],1,right,['3'],4,647,[-0.17245684],93,53,easy,minus,dotcolour,beta,,,17,18,V,R,
578,74,32,13,4,33,47,966,['n'],1,right,['3'],4,232,[-0.08277625],73,47,medium,minus,dotcolour,beta,,,17,18,V,R,
579,75,33,13,4,36,44,1533,['c'],0,right,['2'],5,363,[0.00631367],19,44,hard,minus,dotcolour,beta,,,17,18,V,R,
580,76,34,13,4,33,47,682,['n'],1,right,['2'],5,306,[-0.14424243],95,47,medium,minus,dotcolour,beta,,,17,18,V,R,
581,77,35,13,4,47,33,1315,['c'],1,left,['3'],4,371,[0.06259779],55,47,medium,minus,dotcolour,beta,,,17,18,V,R,
582,78,36,13,4,36,44,1466,['c'],0,right,['3'],4,315,[0.0189937],24,44,hard,minus,dotcolour,beta,,,17,18,V,R,
583,79,37,13,4,44,36,833,['c'],1,left,['3'],4,374,[0.17033291],97,44,hard,minus,dotcolour,beta,,,17,18,V,R,
584,80,38,13,4,27,53,1297,['c'],0,right,['3'],4,349,[0.01106712],20,53,easy,minus,dotcolour,beta,,,17,18,V,R,
585,81,39,13,4,27,53,832,['n'],1,right,['3'],4,358,[-0.08329702],70,53,easy,minus,dotcolour,beta,,,17,18,V,R,
586,82,40,13,4,36,44,1466,['c'],0,right,['3'],4,398,[-0.02060473],10,44,hard,minus,dotcolour,beta,,,17,18,V,R,
587,83,41,13,4,47,33,1615,['c'],1,left,['3'],4,343,[0.15026552],95,47,medium,minus,dotcolour,beta,,,17,18,V,R,
588,84,0,14,4,36,44,1950,['c'],0,right,['3'],4,501,[0.10411341],77,44,hard,minus,dotcolour,beta,,,17,18,V,R,
589,85,1,14,4,44,36,1665,['c'],1,left,['3'],4,367,[0.11653277],86,44,hard,minus,dotcolour,beta,,,17,18,V,R,
590,86,2,14,4,27,53,800,['n'],1,right,['2'],5,322,[-0.12669923],91,53,easy,minus,dotcolour,beta,,,17,18,V,R,
591,87,3,14,4,53,27,731,['c'],1,left,['2'],5,337,[0.11074289],85,53,easy,minus,dotcolour,beta,,,17,18,V,R,
592,88,4,14,4,47,33,1116,['c'],1,left,['2'],5,295,[0.06480724],58,47,medium,minus,dotcolour,beta,,,17,18,V,R,
593,89,5,14,4,33,47,1216,['c'],0,right,['2'],5,308,[-0.05689275],3,47,medium,minus,dotcolour,beta,,,17,18,V,R,
594,90,6,14,4,44,36,765,['c'],1,left,['2'],5,290,[0.0175513],22,44,hard,minus,dotcolour,beta,,,17,18,V,R,
595,91,7,14,4,33,47,865,['n'],1,right,['3'],4,237,[-0.01227124],17,47,medium,minus,dotcolour,beta,,,17,18,V,R,
596,92,8,14,4,33,47,1114,['n'],1,right,['3'],4,223,[-0.10781209],88,47,medium,minus,dotcolour,beta,,,17,18,V,R,
597,93,9,14,4,36,44,1015,['n'],1,right,['3'],4,174,[-0.06227367],57,44,hard,minus,dotcolour,beta,,,17,18,V,R,
598,94,10,14,4,53,27,647,['c'],1,left,['3'],4,303,[0.20986476],99,53,easy,minus,dotcolour,beta,,,17,18,V,R,
599,95,11,14,4,47,33,849,['n'],0,left,['3'],4,241,[-0.09424178],81,47,medium,minus,dotcolour,beta,,,17,18,V,R,
600,96,12,14,4,44,36,1449,['c'],1,left,['3'],4,303,[0.11039536],86,44,hard,minus,dotcolour,beta,,,17,18,V,R,
601,97,13,14,4,33,47,880,['n'],1,right,['3'],4,368,[-0.1313127],90,47,medium,minus,dotcolour,beta,,,17,18,V,R,
602,98,14,14,4,47,33,1850,['c'],1,left,['3'],4,337,[0.14505702],94,47,medium,minus,dotcolour,beta,,,17,18,V,R,
603,99,15,14,4,47,33,832,['c'],1,left,['2'],5,322,[0.05099335],46,47,medium,minus,dotcolour,beta,,,17,18,V,R,
604,100,16,14,4,44,36,799,['n'],0,left,['8'],3,807,[0.12126417],3,44,hard,minus,dotcolour,beta,,,17,18,V,R,
605,101,17,14,4,27,53,798,['n'],1,right,['2'],5,264,[0.00042311],12,53,easy,minus,dotcolour,beta,,,17,18,V,R,
606,102,18,14,4,53,27,1014,['c'],1,left,['2'],5,301,[0.10139804],82,53,easy,minus,dotcolour,beta,,,17,18,V,R,
607,103,19,14,4,44,36,699,['n'],0,left,['3'],4,399,[-0.05220182],48,44,hard,minus,dotcolour,beta,,,17,18,V,R,
608,104,20,14,4,36,44,1416,['c'],0,right,['2'],5,310,[-0.01485691],9,44,hard,minus,dotcolour,beta,,,17,18,V,R,
609,105,21,14,4,53,27,798,['c'],1,left,['2'],5,403,[-0.01382903],12,53,easy,minus,dotcolour,beta,,,17,18,V,R,
610,106,22,14,4,33,47,782,['n'],1,right,['2'],5,205,[-0.03025129],27,47,medium,minus,dotcolour,beta,,,17,18,V,R,
611,107,23,14,4,33,47,1282,['c'],0,right,['3'],4,283,[0.00205216],14,47,medium,minus,dotcolour,beta,,,17,18,V,R,
612,108,24,14,4,47,33,1048,['c'],1,left,['3'],4,335,[0.06662618],59,47,medium,minus,dotcolour,beta,,,17,18,V,R,
613,109,25,14,4,36,44,780,['c'],0,right,['3'],4,524,[-0.12022016],1,44,hard,minus,dotcolour,beta,,,17,18,V,R,
614,110,26,14,4,36,44,882,['n'],1,right,['8'],3,709,[-0.02705356],35,44,hard,minus,dotcolour,beta,,,17,18,V,R,
615,111,27,14,4,27,53,733,['n'],1,right,['2'],5,284,[-0.10251606],83,53,easy,minus,dotcolour,beta,,,17,18,V,R,
616,112,28,14,4,36,44,948,['n'],1,right,['3'],4,332,[-0.08747474],73,44,hard,minus,dotcolour,beta,,,17,18,V,R,
617,113,29,14,4,27,53,583,['n'],1,right,['3'],4,249,[-0.23526038],100,53,easy,minus,dotcolour,beta,,,17,18,V,R,
618,114,30,14,4,47,33,732,['c'],1,left,['3'],4,274,[0.18884945],99,47,medium,minus,dotcolour,beta,,,17,18,V,R,
619,115,31,14,4,44,36,1265,['c'],1,left,['3'],4,326,[0.02021169],25,44,hard,minus,dotcolour,beta,,,17,18,V,R,
620,116,32,14,4,53,27,1148,['c'],1,left,['2'],5,348,[0.14087842],93,53,easy,minus,dotcolour,beta,,,17,18,V,R,
621,117,33,14,4,47,33,932,['c'],1,left,['2'],5,338,[0.20847168],99,47,medium,minus,dotcolour,beta,,,17,18,V,R,
622,118,34,14,4,44,36,1716,['n'],0,left,['8'],3,625,[-0.0249116],33,44,hard,minus,dotcolour,beta,,,17,18,V,R,
623,119,35,14,4,53,27,666,['c'],1,left,['2'],5,326,[0.11941432],88,53,easy,minus,dotcolour,beta,,,17,18,V,R,
624,120,36,14,4,53,27,963,['c'],1,left,['2'],5,325,[0.20630126],99,53,easy,minus,dotcolour,beta,,,17,18,V,R,
625,121,37,14,4,27,53,1750,['n'],1,right,['2'],5,194,[-0.13615719],96,53,easy,minus,dotcolour,beta,,,17,18,V,R,
626,122,38,14,4,27,53,750,['n'],1,right,['2'],5,237,[-0.12130052],92,53,easy,minus,dotcolour,beta,,,17,18,V,R,
627,123,39,14,4,27,53,1032,['n'],1,right,['2'],5,228,[-0.18290611],99,53,easy,minus,dotcolour,beta,,,17,18,V,R,
628,124,40,14,4,33,47,881,['n'],1,right,['3'],4,240,[-0.11958878],91,47,medium,minus,dotcolour,beta,,,17,18,V,R,
629,125,41,14,4,36,44,916,['c'],0,right,['3'],4,259,[0.1195932],91,44,hard,minus,dotcolour,beta,,,17,18,V,R,
630,0,0,15,5,36,44,1382,['c'],0,right,['3'],4,286,[0.14613641],100,44,hard,plus,dotcolour,beta,,,17,18,V,R,
631,1,1,15,5,53,27,532,['c'],1,left,['3'],4,278,[0.15364489],100,53,easy,plus,dotcolour,beta,,,17,18,V,R,
632,2,2,15,5,44,36,1498,['c'],1,left,['3'],4,312,[0.09159104],99,44,hard,plus,dotcolour,beta,,,17,18,V,R,
633,3,3,15,5,53,27,666,['c'],1,left,['2'],5,339,[0.20169228],100,53,easy,plus,dotcolour,beta,,,17,18,V,R,
634,4,4,15,5,33,47,832,['n'],1,right,['2'],5,276,[-0.00501367],89,47,medium,plus,dotcolour,beta,,,17,18,V,R,
635,5,5,15,5,27,53,764,['n'],1,right,['2'],5,196,[-0.09635229],100,53,easy,plus,dotcolour,beta,,,17,18,V,R,
636,6,6,15,5,44,36,880,['c'],1,left,['2'],5,426,[0.0966166],99,44,hard,plus,dotcolour,beta,,,17,18,V,R,
637,7,7,15,5,27,53,633,['n'],1,right,['2'],5,208,[-0.08817231],100,53,easy,plus,dotcolour,beta,,,17,18,V,R,
638,8,8,15,5,33,47,766,['n'],1,right,['2'],5,178,[-0.03295369],98,47,medium,plus,dotcolour,beta,,,17,18,V,R,
639,9,9,15,5,27,53,584,['n'],1,right,['2'],5,325,[-0.0477303],96,53,easy,plus,dotcolour,beta,,,17,18,V,R,
640,10,10,15,5,47,33,849,['c'],1,left,['2'],5,463,[-0.0242491],70,47,medium,plus,dotcolour,beta,,,17,18,V,R,
641,11,11,15,5,47,33,1297,['c'],1,left,['2'],5,362,[0.08845516],99,47,medium,plus,dotcolour,beta,,,17,18,V,R,
642,12,12,15,5,33,47,716,['n'],1,right,['2'],5,312,[-0.08443414],99,47,medium,plus,dotcolour,beta,,,17,18,V,R,
643,13,13,15,5,47,33,781,['c'],1,left,['2'],5,397,[0.13132661],100,47,medium,plus,dotcolour,beta,,,17,18,V,R,
644,14,14,15,5,47,33,765,['c'],1,left,['2'],5,360,[0.20387352],100,47,medium,plus,dotcolour,beta,,,17,18,V,R,
645,15,15,15,5,53,27,648,['c'],1,left,['2'],5,273,[0.12026257],100,53,easy,plus,dotcolour,beta,,,17,18,V,R,
646,16,16,15,5,36,44,946,['n'],1,right,['2'],5,272,[-0.1625336],100,44,hard,plus,dotcolour,beta,,,17,18,V,R,
647,17,17,15,5,53,27,598,['c'],1,left,['2'],5,302,[0.16372643],100,53,easy,plus,dotcolour,beta,,,17,18,V,R,
648,18,18,15,5,27,53,699,['n'],1,right,['2'],5,288,[-0.12014157],100,53,easy,plus,dotcolour,beta,,,17,18,V,R,
649,19,19,15,5,53,27,548,['c'],1,left,['2'],5,535,[0.17242372],100,53,easy,plus,dotcolour,beta,,,17,18,V,R,
650,20,20,15,5,44,36,932,['c'],1,left,['2'],5,245,[0.0580683],98,44,hard,plus,dotcolour,beta,,,17,18,V,R,
651,21,21,15,5,33,47,683,['n'],1,right,['2'],5,201,[-0.03864466],98,47,medium,plus,dotcolour,beta,,,17,18,V,R,
652,22,22,15,5,44,36,750,['c'],1,left,['2'],5,284,[0.05722759],98,44,hard,plus,dotcolour,beta,,,17,18,V,R,
653,23,23,15,5,36,44,633,['n'],1,right,['2'],5,264,[-0.0709584],99,44,hard,plus,dotcolour,beta,,,17,18,V,R,
654,24,24,15,5,27,53,649,['n'],1,right,['2'],5,165,[-0.13616926],100,53,easy,plus,dotcolour,beta,,,17,18,V,R,
655,25,25,15,5,47,33,534,['c'],1,left,['2'],5,242,[0.04187638],97,47,medium,plus,dotcolour,beta,,,17,18,V,R,
656,26,26,15,5,36,44,617,['n'],1,right,['2'],5,249,[-0.02188261],94,44,hard,plus,dotcolour,beta,,,17,18,V,R,
657,27,27,15,5,36,44,848,['c'],0,right,['2'],5,374,[0.17333289],100,44,hard,plus,dotcolour,beta,,,17,18,V,R,
658,28,28,15,5,33,47,550,['n'],1,right,['2'],5,186,[-0.07374466],100,47,medium,plus,dotcolour,beta,,,17,18,V,R,
659,29,29,15,5,44,36,467,['c'],1,left,['2'],5,290,[0.0868935],99,44,hard,plus,dotcolour,beta,,,17,18,V,R,
660,30,30,15,5,47,33,716,['c'],1,left,['2'],5,243,[0.18080504],100,47,medium,plus,dotcolour,beta,,,17,18,V,R,
661,31,31,15,5,33,47,600,['c'],0,right,['2'],5,314,[-0.0085578],82,47,medium,plus,dotcolour,beta,,,17,18,V,R,
662,32,32,15,5,44,36,615,['c'],1,left,['2'],5,247,[0.08484577],99,44,hard,plus,dotcolour,beta,,,17,18,V,R,
663,33,33,15,5,33,47,549,['n'],1,right,['2'],5,232,[-0.03412713],97,47,medium,plus,dotcolour,beta,,,17,18,V,R,
664,34,34,15,5,27,53,499,['n'],1,right,['2'],5,204,[-0.08421373],100,53,easy,plus,dotcolour,beta,,,17,18,V,R,
665,35,35,15,5,27,53,615,['n'],1,right,['2'],5,204,[-0.10020966],100,53,easy,plus,dotcolour,beta,,,17,18,V,R,
666,36,36,15,5,53,27,516,['c'],1,left,['2'],5,241,[0.23522351],100,53,easy,plus,dotcolour,beta,,,17,18,V,R,
667,37,37,15,5,47,33,481,['c'],1,left,['2'],5,541,[0.17232547],100,47,medium,plus,dotcolour,beta,,,17,18,V,R,
668,38,38,15,5,36,44,863,['n'],1,right,['2'],5,206,[-0.07614545],99,44,hard,plus,dotcolour,beta,,,17,18,V,R,
669,39,39,15,5,36,44,565,['c'],0,right,['2'],5,280,[0.08809892],99,44,hard,plus,dotcolour,beta,,,17,18,V,R,
670,40,40,15,5,44,36,515,['n'],0,left,['8'],3,1777,[-0.24980121],98,44,hard,plus,dotcolour,beta,,,17,18,V,R,
671,41,41,15,5,53,27,599,['c'],1,left,['2'],5,243,[0.12966981],100,53,easy,plus,dotcolour,beta,,,17,18,V,R,
672,42,0,16,5,53,27,867,['c'],1,left,['2'],5,398,[0.13709023],100,53,easy,plus,dotcolour,beta,,,17,18,V,R,
673,43,1,16,5,27,53,583,['n'],1,right,['2'],5,207,[-0.1401206],100,53,easy,plus,dotcolour,beta,,,17,18,V,R,
674,44,2,16,5,33,47,531,['n'],1,right,['2'],5,139,[-0.06274239],100,47,medium,plus,dotcolour,beta,,,17,18,V,R,
675,45,3,16,5,27,53,482,['n'],1,right,['2'],5,211,[-0.15289661],100,53,easy,plus,dotcolour,beta,,,17,18,V,R,
676,46,4,16,5,33,47,630,['n'],1,right,['2'],5,187,[-0.09150595],100,47,medium,plus,dotcolour,beta,,,17,18,V,R,
677,47,5,16,5,33,47,481,['n'],1,right,['3'],4,385,[-0.04882849],95,47,medium,plus,dotcolour,beta,,,17,18,V,R,
678,48,6,16,5,44,36,715,['n'],0,left,['3'],4,230,[-0.05370667],98,44,hard,plus,dotcolour,beta,,,17,18,V,R,
679,49,7,16,5,53,27,982,['c'],1,left,['3'],4,287,[0.08228398],99,53,easy,plus,dotcolour,beta,,,17,18,V,R,
680,50,8,16,5,44,36,1031,['c'],1,left,['3'],4,251,[0.01812277],93,44,hard,plus,dotcolour,beta,,,17,18,V,R,
681,51,9,16,5,44,36,1016,['c'],1,left,['3'],4,265,[0.06828181],99,44,hard,plus,dotcolour,beta,,,17,18,V,R,
682,52,10,16,5,33,47,599,['n'],1,right,['2'],5,367,[-0.17070122],100,47,medium,plus,dotcolour,beta,,,17,18,V,R,
683,53,11,16,5,53,27,600,['c'],1,left,['2'],5,290,[0.15208036],100,53,easy,plus,dotcolour,beta,,,17,18,V,R,
684,54,12,16,5,53,27,766,['c'],1,left,['2'],5,265,[0.19976609],100,53,easy,plus,dotcolour,beta,,,17,18,V,R,
685,55,13,16,5,44,36,700,['c'],1,left,['2'],5,252,[0.00789478],91,44,hard,plus,dotcolour,beta,,,17,18,V,R,
686,56,14,16,5,44,36,748,['c'],1,left,['2'],5,293,[0.08032061],99,44,hard,plus,dotcolour,beta,,,17,18,V,R,
687,57,15,16,5,47,33,564,['c'],1,left,['2'],5,219,[0.11032414],100,47,medium,plus,dotcolour,beta,,,17,18,V,R,
688,58,16,16,5,53,27,466,['c'],1,left,['2'],5,249,[0.08265963],99,53,easy,plus,dotcolour,beta,,,17,18,V,R,
689,59,17,16,5,27,53,666,['n'],1,right,['2'],5,253,[-0.07519612],99,53,easy,plus,dotcolour,beta,,,17,18,V,R,
690,60,18,16,5,36,44,598,['c'],0,right,['2'],5,229,[0.03377654],97,44,hard,plus,dotcolour,beta,,,17,18,V,R,
691,61,19,16,5,44,36,599,['c'],1,left,['2'],5,229,[0.07570354],99,44,hard,plus,dotcolour,beta,,,17,18,V,R,
692,62,20,16,5,33,47,614,['n'],1,right,['2'],5,164,[0.01672141],85,47,medium,plus,dotcolour,beta,,,17,18,V,R,
693,63,21,16,5,36,44,698,['c'],0,right,['2'],5,219,[0.03576151],97,44,hard,plus,dotcolour,beta,,,17,18,V,R,
694,64,22,16,5,36,44,749,['c'],0,right,['2'],5,221,[0.10180621],100,44,hard,plus,dotcolour,beta,,,17,18,V,R,
695,65,23,16,5,53,27,382,['c'],1,left,['2'],5,254,[0.02684627],95,53,easy,plus,dotcolour,beta,,,17,18,V,R,
696,66,24,16,5,36,44,349,['c'],0,right,['2'],5,359,[0.01734485],90,44,hard,plus,dotcolour,beta,,,17,18,V,R,
697,67,25,16,5,27,53,715,['n'],1,right,['2'],5,262,[-0.07048862],99,53,easy,plus,dotcolour,beta,,,17,18,V,R,
698,68,26,16,5,47,33,565,['c'],1,left,['2'],5,253,[0.12273975],100,47,medium,plus,dotcolour,beta,,,17,18,V,R,
699,69,27,16,5,47,33,515,['c'],1,left,['2'],5,216,[0.13245586],100,47,medium,plus,dotcolour,beta,,,17,18,V,R,
700,70,28,16,5,36,44,649,['c'],0,right,['2'],5,262,[0.09777439],100,44,hard,plus,dotcolour,beta,,,17,18,V,R,
701,71,29,16,5,36,44,765,['n'],1,right,['2'],5,174,[-0.0850997],100,44,hard,plus,dotcolour,beta,,,17,18,V,R,
702,72,30,16,5,33,47,599,['c'],0,right,['8'],3,801,[0.0102265],79,47,medium,plus,dotcolour,beta,,,17,18,V,R,
703,73,31,16,5,27,53,716,['n'],1,right,['2'],5,125,[-0.05317478],100,53,easy,plus,dotcolour,beta,,,17,18,V,R,
704,74,32,16,5,53,27,715,['c'],1,left,['2'],5,421,[0.21236552],100,53,easy,plus,dotcolour,beta,,,17,18,V,R,
705,75,33,16,5,27,53,531,['n'],1,right,['2'],5,151,[-0.11489846],100,53,easy,plus,dotcolour,beta,,,17,18,V,R,
706,76,34,16,5,27,53,731,['n'],1,right,['2'],5,109,[-0.08898031],100,53,easy,plus,dotcolour,beta,,,17,18,V,R,
707,77,35,16,5,47,33,582,['c'],1,left,['2'],5,242,[0.1301387],100,47,medium,plus,dotcolour,beta,,,17,18,V,R,
708,78,36,16,5,33,47,996,['n'],1,right,['2'],5,561,[-0.15909518],99,47,medium,plus,dotcolour,beta,,,17,18,V,R,
709,79,37,16,5,47,33,497,['c'],1,left,['2'],5,240,[0.03349703],96,47,medium,plus,dotcolour,beta,,,17,18,V,R,
710,80,38,16,5,47,33,549,['n'],0,left,['8'],3,809,[-0.04627062],88,47,medium,plus,dotcolour,beta,,,17,18,V,R,
711,81,39,16,5,36,44,1699,['c'],0,right,['2'],5,198,[0.10486656],100,44,hard,plus,dotcolour,beta,,,17,18,V,R,
712,82,40,16,5,44,36,781,['c'],1,left,['2'],5,248,[0.12562068],100,44,hard,plus,dotcolour,beta,,,17,18,V,R,
713,83,41,16,5,47,33,548,['c'],1,left,['3'],4,321,[0.04589668],96,47,medium,plus,dotcolour,beta,,,17,18,V,R,
714,84,0,17,5,44,36,1149,['c'],1,left,['3'],4,229,[0.03655717],97,44,hard,plus,dotcolour,beta,,,17,18,V,R,
715,85,1,17,5,36,44,1216,['c'],0,right,['3'],4,389,[-0.05713215],49,44,hard,plus,dotcolour,beta,,,17,18,V,R,
716,86,2,17,5,33,47,599,['n'],1,right,['2'],5,182,[-0.13244535],100,47,medium,plus,dotcolour,beta,,,17,18,V,R,
717,87,3,17,5,33,47,632,['n'],1,right,['2'],5,160,[-0.07508123],100,47,medium,plus,dotcolour,beta,,,17,18,V,R,
718,88,4,17,5,36,44,515,['c'],0,right,['2'],5,245,[-0.00171719],88,44,hard,plus,dotcolour,beta,,,17,18,V,R,
719,89,5,17,5,53,27,532,['c'],1,left,['2'],5,247,[-0.00066523],88,53,easy,plus,dotcolour,beta,,,17,18,V,R,
720,90,6,17,5,27,53,631,['n'],1,right,['2'],5,173,[-0.15116471],100,53,easy,plus,dotcolour,beta,,,17,18,V,R,
721,91,7,17,5,44,36,465,['c'],1,left,['2'],5,205,[0.09228871],100,44,hard,plus,dotcolour,beta,,,17,18,V,R,
722,92,8,17,5,47,33,465,['c'],1,left,['2'],5,228,[0.0857934],100,47,medium,plus,dotcolour,beta,,,17,18,V,R,
723,93,9,17,5,47,33,415,['c'],1,left,['2'],5,243,[0.07561288],99,47,medium,plus,dotcolour,beta,,,17,18,V,R,
724,94,10,17,5,44,36,365,['c'],1,left,['2'],5,259,[0.03998298],97,44,hard,plus,dotcolour,beta,,,17,18,V,R,
725,95,11,17,5,44,36,533,['c'],1,left,['2'],5,236,[0.03440094],97,44,hard,plus,dotcolour,beta,,,17,18,V,R,
726,96,12,17,5,36,44,480,['n'],1,right,['1'],6,201,[-0.09933332],100,44,hard,plus,dotcolour,beta,,,17,18,V,R,
727,97,13,17,5,27,53,498,['n'],1,right,['1'],6,166,[-0.04294295],99,53,easy,plus,dotcolour,beta,,,17,18,V,R,
728,98,14,17,5,47,33,834,['c'],1,left,['2'],5,208,[0.08882011],100,47,medium,plus,dotcolour,beta,,,17,18,V,R,
729,99,15,17,5,53,27,400,['c'],1,left,['2'],5,208,[0.08180492],100,53,easy,plus,dotcolour,beta,,,17,18,V,R,
730,100,16,17,5,47,33,465,['n'],0,left,['2'],5,487,[-0.10946685],99,47,medium,plus,dotcolour,beta,,,17,18,V,R,
731,101,17,17,5,33,47,331,['c'],0,right,['2'],5,278,[0.09878377],99,47,medium,plus,dotcolour,beta,,,17,18,V,R,
732,102,18,17,5,27,53,582,['n'],1,right,['2'],5,189,[-0.08755558],100,53,easy,plus,dotcolour,beta,,,17,18,V,R,
733,103,19,17,5,36,44,398,['n'],1,right,['2'],5,87,[-0.07902794],100,44,hard,plus,dotcolour,beta,,,17,18,V,R,
734,104,20,17,5,47,33,949,['c'],1,left,['2'],5,239,[0.13863087],100,47,medium,plus,dotcolour,beta,,,17,18,V,R,
735,105,21,17,5,53,27,1016,['c'],1,left,['2'],5,269,[0.03602332],96,53,easy,plus,dotcolour,beta,,,17,18,V,R,
736,106,22,17,5,53,27,498,['c'],1,left,['2'],5,216,[0.08832068],100,53,easy,plus,dotcolour,beta,,,17,18,V,R,
737,107,23,17,5,53,27,498,['c'],1,left,['2'],5,253,[0.05468753],98,53,easy,plus,dotcolour,beta,,,17,18,V,R,
738,108,24,17,5,44,36,532,['c'],1,left,['2'],5,279,[0.01528445],92,44,hard,plus,dotcolour,beta,,,17,18,V,R,
739,109,25,17,5,27,53,549,['n'],1,right,['2'],5,159,[-0.18958127],100,53,easy,plus,dotcolour,beta,,,17,18,V,R,
740,110,26,17,5,33,47,431,['c'],0,right,['2'],5,280,[0.06720916],98,47,medium,plus,dotcolour,beta,,,17,18,V,R,
741,111,27,17,5,44,36,583,['c'],1,left,['2'],5,255,[0.12114386],100,44,hard,plus,dotcolour,beta,,,17,18,V,R,
742,112,28,17,5,27,53,565,['n'],1,right,['2'],5,159,[-0.04092611],99,53,easy,plus,dotcolour,beta,,,17,18,V,R,
743,113,29,17,5,36,44,950,['c'],0,right,['3'],4,284,[-0.00271668],86,44,hard,plus,dotcolour,beta,,,17,18,V,R,
744,114,30,17,5,47,33,731,['c'],1,left,['3'],4,261,[0.11390903],100,47,medium,plus,dotcolour,beta,,,17,18,V,R,
745,115,31,17,5,27,53,715,['n'],1,right,['2'],5,214,[-0.11326344],100,53,easy,plus,dotcolour,beta,,,17,18,V,R,
746,116,32,17,5,33,47,1133,['c'],0,right,['2'],5,210,[0.04819268],98,47,medium,plus,dotcolour,beta,,,17,18,V,R,
747,117,33,17,5,33,47,631,['n'],1,right,['2'],5,161,[-0.07324232],100,47,medium,plus,dotcolour,beta,,,17,18,V,R,
748,118,34,17,5,53,27,513,['c'],1,left,['2'],5,183,[0.04657593],99,53,easy,plus,dotcolour,beta,,,17,18,V,R,
749,119,35,17,5,44,36,868,['n'],0,left,['3'],4,575,[-0.02855248],88,44,hard,plus,dotcolour,beta,,,17,18,V,R,
750,120,36,17,5,33,47,565,['n'],1,right,['2'],5,194,[-0.09238127],100,47,medium,plus,dotcolour,beta,,,17,18,V,R,
751,121,37,17,5,36,44,748,['c'],0,right,['2'],5,221,[-0.00180274],89,44,hard,plus,dotcolour,beta,,,17,18,V,R,
752,122,38,17,5,53,27,1414,['c'],1,left,['2'],5,174,[0.06140765],99,53,easy,plus,dotcolour,beta,,,17,18,V,R,
753,123,39,17,5,47,33,665,['n'],0,left,['3'],4,333,[-0.05245316],97,47,medium,plus,dotcolour,beta,,,17,18,V,R,
754,124,40,17,5,27,53,766,['n'],1,right,['2'],5,202,[-0.06867993],99,53,easy,plus,dotcolour,beta,,,17,18,V,R,
755,125,41,17,5,36,44,550,['n'],1,right,['3'],4,269,[-0.17939561],100,44,hard,plus,dotcolour,beta,,,17,18,V,R,
,,,,,,,,,,,,,,,,,,,,,1,soms kwam hetzelfde plaatje 2 keer na elkaar,17,18,V,R,
,,,,,,,,,,,,,,,,,,,,,2,['g'],17,18,V,R,
,,,,,,,,,,,,,,,,,,,,,3,['f'],17,18,V,R,
,,,,,,,,,,,,,,,,,,,,,5,['2'],17,18,V,R,
