trial,withinphasetrial,withinblocktrial,block,phase,dotsLeft,dotsRight,rt,resp,cor,cresp,conf_press,cj,RTconf,ev,fb,diff,difflevel,condition,task,manip,questionID,questionResp,sub,age,gender,handedness,
0,0,0,0,0,44,36,2135,['c'],1,left,['3'],3,5687,[0.59747494],100,44,hard,plus,dotcolour,alfa,,,126,18,V,R,
1,1,1,0,0,47,33,2282,['n'],0,left,['8'],4,2895,[0.02031467],39,47,medium,plus,dotcolour,alfa,,,126,18,V,R,
2,2,2,0,0,36,44,1816,['n'],1,right,['3'],3,2004,[-0.15019964],98,44,hard,plus,dotcolour,alfa,,,126,18,V,R,
3,3,3,0,0,44,36,2317,['n'],0,left,['8'],4,2647,[0.1144356],7,44,hard,plus,dotcolour,alfa,,,126,18,V,R,
4,4,4,0,0,27,53,1549,['n'],1,right,['9'],5,1496,[-0.09800766],95,53,easy,plus,dotcolour,alfa,,,126,18,V,R,
5,5,5,0,0,36,44,1967,['n'],1,right,['9'],5,1886,[-0.09594209],93,44,hard,plus,dotcolour,alfa,,,126,18,V,R,
6,6,6,0,0,36,44,2600,['c'],0,right,['3'],3,2827,[0.11331064],92,44,hard,plus,dotcolour,alfa,,,126,18,V,R,
7,7,7,0,0,53,27,1567,['c'],1,left,['9'],5,1348,[0.29566626],100,53,easy,plus,dotcolour,alfa,,,126,18,V,R,
8,8,8,0,0,27,53,1317,['n'],1,right,['0'],6,1354,[-0.29956212],100,53,easy,plus,dotcolour,alfa,,,126,18,V,R,
9,9,9,0,0,27,53,1983,['c'],0,right,['3'],3,2542,[-0.30463916],0,53,easy,plus,dotcolour,alfa,,,126,18,V,R,
10,10,10,0,0,53,27,1367,['c'],1,left,['8'],4,1866,[0.51882852],100,53,easy,plus,dotcolour,alfa,,,126,18,V,R,
11,11,11,0,0,44,36,2033,['c'],1,left,['8'],4,1375,[-0.02865034],29,44,hard,plus,dotcolour,alfa,,,126,18,V,R,
12,12,12,0,0,44,36,1833,['c'],1,left,['8'],4,1439,[0.04391604],79,44,hard,plus,dotcolour,alfa,,,126,18,V,R,
13,13,13,0,0,53,27,1000,['c'],1,left,['0'],6,775,[0.14556854],100,53,easy,plus,dotcolour,alfa,,,126,18,V,R,
14,14,14,0,0,47,33,1017,['c'],1,left,['9'],5,1728,[0.08917427],92,47,medium,plus,dotcolour,alfa,,,126,18,V,R,
15,15,15,0,0,27,53,1268,['n'],1,right,['0'],6,1176,[-0.40617124],100,53,easy,plus,dotcolour,alfa,,,126,18,V,R,
16,16,16,0,0,27,53,1100,['n'],1,right,['0'],6,607,[-0.10570327],99,53,easy,plus,dotcolour,alfa,,,126,18,V,R,
17,17,17,0,0,36,44,817,['n'],1,right,['0'],6,831,[-0.0526971],89,44,hard,plus,dotcolour,alfa,,,126,18,V,R,
18,18,18,0,0,33,47,1050,['n'],1,right,['9'],5,1013,[-0.0583783],89,47,medium,plus,dotcolour,alfa,,,126,18,V,R,
19,19,19,0,0,33,47,2317,['n'],1,right,['8'],4,873,[-0.24424897],100,47,medium,plus,dotcolour,alfa,,,126,18,V,R,
20,20,20,0,0,53,27,1384,['c'],1,left,['0'],6,1656,[0.41008712],100,53,easy,plus,dotcolour,alfa,,,126,18,V,R,
21,21,21,0,0,44,36,2150,['n'],0,left,['8'],4,865,[-0.17217433],100,44,hard,plus,dotcolour,alfa,,,126,18,V,R,
22,22,22,0,0,36,44,2166,['n'],1,right,['8'],4,832,[-0.15619934],100,44,hard,plus,dotcolour,alfa,,,126,18,V,R,
23,23,23,0,0,27,53,1800,['n'],1,right,['0'],6,1753,[-0.40064828],100,53,easy,plus,dotcolour,alfa,,,126,18,V,R,
24,24,24,0,0,44,36,2000,['n'],0,left,['0'],6,682,[-0.1362551],100,44,hard,plus,dotcolour,alfa,,,126,18,V,R,
25,25,25,0,0,33,47,850,['n'],1,right,['0'],6,487,[-0.04650957],92,47,medium,plus,dotcolour,alfa,,,126,18,V,R,
26,26,26,0,0,47,33,1051,['c'],1,left,['9'],5,1522,[0.10087278],95,47,medium,plus,dotcolour,alfa,,,126,18,V,R,
27,27,27,0,0,44,36,1533,['n'],0,left,['8'],4,889,[0.06101889],9,44,hard,plus,dotcolour,alfa,,,126,18,V,R,
28,28,28,0,0,33,47,1000,['c'],0,right,['1'],1,1910,[-0.12366219],4,47,medium,plus,dotcolour,alfa,,,126,18,V,R,
29,29,29,0,0,36,44,883,['n'],1,right,['0'],6,935,[-0.13936026],99,44,hard,plus,dotcolour,alfa,,,126,18,V,R,
30,30,30,0,0,53,27,1067,['c'],1,left,['8'],4,1128,[0.37537262],100,53,easy,plus,dotcolour,alfa,,,126,18,V,R,
31,31,31,0,0,36,44,1450,['c'],0,right,['8'],4,874,[0.09622874],98,44,hard,plus,dotcolour,alfa,,,126,18,V,R,
32,32,32,0,0,47,33,1117,['c'],1,left,['0'],6,524,[0.0142778],67,47,medium,plus,dotcolour,alfa,,,126,18,V,R,
33,33,33,0,0,33,47,1217,['n'],1,right,['0'],6,935,[-0.24774319],100,47,medium,plus,dotcolour,alfa,,,126,18,V,R,
34,34,34,0,0,47,33,1400,['n'],0,left,['0'],6,650,[-0.00414277],55,47,medium,plus,dotcolour,alfa,,,126,18,V,R,
35,35,35,0,0,33,47,967,['n'],1,right,['0'],6,531,[-0.13482752],100,47,medium,plus,dotcolour,alfa,,,126,18,V,R,
36,36,36,0,0,27,53,2417,['c'],0,right,['1'],1,2542,[-0.28863818],0,53,easy,plus,dotcolour,alfa,,,126,18,V,R,
37,37,37,0,0,47,33,1434,['c'],1,left,['9'],5,1016,[0.13981313],99,47,medium,plus,dotcolour,alfa,,,126,18,V,R,
38,38,38,0,0,33,47,1083,['n'],1,right,['0'],6,757,[-0.03175854],79,47,medium,plus,dotcolour,alfa,,,126,18,V,R,
39,39,39,0,0,53,27,917,['c'],1,left,['0'],6,659,[0.04878387],90,53,easy,plus,dotcolour,alfa,,,126,18,V,R,
40,40,40,0,0,53,27,983,['c'],1,left,['9'],5,754,[0.19641535],100,53,easy,plus,dotcolour,alfa,,,126,18,V,R,
41,41,41,0,0,47,33,951,['c'],1,left,['0'],6,447,[0.1758683],100,47,medium,plus,dotcolour,alfa,,,126,18,V,R,
42,42,0,1,0,47,33,1218,['c'],1,left,['9'],5,1606,[0.13159234],98,47,medium,plus,dotcolour,alfa,,,126,18,V,R,
43,43,1,1,0,33,47,1133,['n'],1,right,['0'],6,1161,[-0.16429823],100,47,medium,plus,dotcolour,alfa,,,126,18,V,R,
44,44,2,1,0,47,33,750,['c'],1,left,['0'],6,645,[-0.09162612],2,47,medium,plus,dotcolour,alfa,,,126,18,V,R,
45,45,3,1,0,53,27,883,['c'],1,left,['8'],4,738,[0.18941145],100,53,easy,plus,dotcolour,alfa,,,126,18,V,R,
46,46,4,1,0,27,53,2550,['n'],1,right,['0'],6,1103,[-0.14265861],99,53,easy,plus,dotcolour,alfa,,,126,18,V,R,
47,47,5,1,0,47,33,784,['c'],1,left,['1'],1,1869,[0.16315084],99,47,medium,plus,dotcolour,alfa,,,126,18,V,R,
48,48,6,1,0,36,44,2199,['n'],1,right,['9'],5,1083,[-0.13271599],99,44,hard,plus,dotcolour,alfa,,,126,18,V,R,
49,49,7,1,0,33,47,1150,['n'],1,right,['0'],6,602,[-0.07549945],97,47,medium,plus,dotcolour,alfa,,,126,18,V,R,
50,50,8,1,0,44,36,1333,['n'],0,left,['8'],4,678,[0.07223586],4,44,hard,plus,dotcolour,alfa,,,126,18,V,R,
51,51,9,1,0,44,36,1951,['n'],0,left,['9'],5,918,[-0.0172863],66,44,hard,plus,dotcolour,alfa,,,126,18,V,R,
52,52,10,1,0,36,44,1367,['n'],1,right,['9'],5,868,[-0.07033161],94,44,hard,plus,dotcolour,alfa,,,126,18,V,R,
53,53,11,1,0,53,27,749,['c'],1,left,['9'],5,1236,[0.44029824],100,53,easy,plus,dotcolour,alfa,,,126,18,V,R,
54,54,12,1,0,33,47,1482,['n'],1,right,['8'],4,1448,[-0.10597433],96,47,medium,plus,dotcolour,alfa,,,126,18,V,R,
55,55,13,1,0,44,36,2367,['n'],0,left,['8'],4,1488,[0.00117145],49,44,hard,plus,dotcolour,alfa,,,126,18,V,R,
56,56,14,1,0,36,44,1216,['n'],1,right,['8'],4,1044,[-0.2911436],100,44,hard,plus,dotcolour,alfa,,,126,18,V,R,
57,57,15,1,0,44,36,2417,['c'],1,left,['8'],4,1292,[0.16238911],99,44,hard,plus,dotcolour,alfa,,,126,18,V,R,
58,58,16,1,0,36,44,1466,['n'],1,right,['9'],5,1326,[-0.23129313],100,44,hard,plus,dotcolour,alfa,,,126,18,V,R,
59,59,17,1,0,27,53,934,['n'],1,right,['0'],6,468,[-0.22198047],100,53,easy,plus,dotcolour,alfa,,,126,18,V,R,
60,60,18,1,0,33,47,1584,['n'],1,right,['0'],6,452,[-0.08330469],99,47,medium,plus,dotcolour,alfa,,,126,18,V,R,
61,61,19,1,0,33,47,1401,['n'],1,right,['9'],5,635,[0.03671184],16,47,medium,plus,dotcolour,alfa,,,126,18,V,R,
62,62,20,1,0,53,27,933,['c'],1,left,['0'],6,613,[0.19256863],100,53,easy,plus,dotcolour,alfa,,,126,18,V,R,
63,63,21,1,0,47,33,883,['c'],1,left,['9'],5,556,[0.12171091],100,47,medium,plus,dotcolour,alfa,,,126,18,V,R,
64,64,22,1,0,33,47,1667,['n'],1,right,['0'],6,611,[-0.14450597],100,47,medium,plus,dotcolour,alfa,,,126,18,V,R,
65,65,23,1,0,36,44,1150,['n'],1,right,['0'],6,589,[-0.14853688],100,44,hard,plus,dotcolour,alfa,,,126,18,V,R,
66,66,24,1,0,47,33,766,['c'],1,left,['0'],6,536,[0.05996996],95,47,medium,plus,dotcolour,alfa,,,126,18,V,R,
67,67,25,1,0,47,33,2134,['n'],0,left,['9'],5,791,[-0.01816069],68,47,medium,plus,dotcolour,alfa,,,126,18,V,R,
68,68,26,1,0,33,47,2367,['n'],1,right,['0'],6,817,[-0.23976417],100,47,medium,plus,dotcolour,alfa,,,126,18,V,R,
69,69,27,1,0,27,53,1066,['n'],1,right,['0'],6,1815,[-0.17709484],99,53,easy,plus,dotcolour,alfa,,,126,18,V,R,
70,70,28,1,0,53,27,1100,['c'],1,left,['9'],5,643,[0.31528322],100,53,easy,plus,dotcolour,alfa,,,126,18,V,R,
71,71,29,1,0,44,36,1451,['n'],0,left,['8'],4,600,[0.01590628],32,44,hard,plus,dotcolour,alfa,,,126,18,V,R,
72,72,30,1,0,53,27,1051,['c'],1,left,['0'],6,584,[0.17244997],100,53,easy,plus,dotcolour,alfa,,,126,18,V,R,
73,73,31,1,0,27,53,1050,['n'],1,right,['0'],6,448,[-0.25639531],100,53,easy,plus,dotcolour,alfa,,,126,18,V,R,
74,74,32,1,0,36,44,800,['n'],1,right,['0'],6,487,[-0.32861916],100,44,hard,plus,dotcolour,alfa,,,126,18,V,R,
75,75,33,1,0,44,36,934,['c'],1,left,['0'],6,895,[0.12991412],99,44,hard,plus,dotcolour,alfa,,,126,18,V,R,
76,76,34,1,0,36,44,1150,['n'],1,right,['0'],6,470,[0.03124468],16,44,hard,plus,dotcolour,alfa,,,126,18,V,R,
77,77,35,1,0,44,36,900,['c'],1,left,['0'],6,528,[0.19848465],100,44,hard,plus,dotcolour,alfa,,,126,18,V,R,
78,78,36,1,0,53,27,867,['c'],1,left,['0'],6,490,[0.13331806],100,53,easy,plus,dotcolour,alfa,,,126,18,V,R,
79,79,37,1,0,27,53,1333,['n'],1,right,['0'],6,498,[-0.17556043],100,53,easy,plus,dotcolour,alfa,,,126,18,V,R,
80,80,38,1,0,27,53,967,['n'],1,right,['0'],6,433,[-0.18448514],100,53,easy,plus,dotcolour,alfa,,,126,18,V,R,
81,81,39,1,0,47,33,866,['c'],1,left,['0'],6,551,[0.06600479],96,47,medium,plus,dotcolour,alfa,,,126,18,V,R,
82,82,40,1,0,27,53,784,['n'],1,right,['0'],6,507,[-0.02210311],75,53,easy,plus,dotcolour,alfa,,,126,18,V,R,
83,83,41,1,0,53,27,984,['c'],1,left,['0'],6,512,[0.29364856],100,53,easy,plus,dotcolour,alfa,,,126,18,V,R,
84,84,0,2,0,47,33,1434,['c'],1,left,['3'],3,1614,[0.41528783],100,47,medium,plus,dotcolour,alfa,,,126,18,V,R,
85,85,1,2,0,53,27,999,['c'],1,left,['0'],6,982,[0.10644294],98,53,easy,plus,dotcolour,alfa,,,126,18,V,R,
86,86,2,2,0,47,33,867,['c'],1,left,['0'],6,421,[0.07291855],98,47,medium,plus,dotcolour,alfa,,,126,18,V,R,
87,87,3,2,0,47,33,1783,['c'],1,left,['8'],4,670,[0.0042828],55,47,medium,plus,dotcolour,alfa,,,126,18,V,R,
88,88,4,2,0,44,36,2083,['n'],0,left,['8'],4,785,[-0.04769791],87,44,hard,plus,dotcolour,alfa,,,126,18,V,R,
89,89,5,2,0,36,44,1250,['n'],1,right,['0'],6,840,[-0.11420024],99,44,hard,plus,dotcolour,alfa,,,126,18,V,R,
90,90,6,2,0,27,53,1217,['n'],1,right,['0'],6,1207,[-0.40549829],100,53,easy,plus,dotcolour,alfa,,,126,18,V,R,
91,91,7,2,0,33,47,933,['n'],1,right,['0'],6,1618,[-0.02192207],65,47,medium,plus,dotcolour,alfa,,,126,18,V,R,
92,92,8,2,0,27,53,750,['n'],1,right,['0'],6,461,[-0.15791949],100,53,easy,plus,dotcolour,alfa,,,126,18,V,R,
93,93,9,2,0,27,53,901,['n'],1,right,['0'],6,567,[-0.10290061],99,53,easy,plus,dotcolour,alfa,,,126,18,V,R,
94,94,10,2,0,36,44,783,['n'],1,right,['9'],5,835,[0.02939453],24,44,hard,plus,dotcolour,alfa,,,126,18,V,R,
95,95,11,2,0,53,27,1500,['c'],1,left,['0'],6,710,[0.13336722],100,53,easy,plus,dotcolour,alfa,,,126,18,V,R,
96,96,12,2,0,44,36,1300,['c'],1,left,['8'],4,1423,[0.03279854],73,44,hard,plus,dotcolour,alfa,,,126,18,V,R,
97,97,13,2,0,27,53,1417,['n'],1,right,['0'],6,582,[-0.21934076],100,53,easy,plus,dotcolour,alfa,,,126,18,V,R,
98,98,14,2,0,27,53,966,['n'],1,right,['0'],6,513,[-0.19321963],100,53,easy,plus,dotcolour,alfa,,,126,18,V,R,
99,99,15,2,0,53,27,784,['c'],1,left,['0'],6,615,[0.11676119],100,53,easy,plus,dotcolour,alfa,,,126,18,V,R,
100,100,16,2,0,47,33,2850,['c'],1,left,['3'],3,1861,[0.1238516],96,47,medium,plus,dotcolour,alfa,,,126,18,V,R,
101,101,17,2,0,47,33,1250,['c'],1,left,['9'],5,1113,[0.05393652],86,47,medium,plus,dotcolour,alfa,,,126,18,V,R,
102,102,18,2,0,53,27,867,['c'],1,left,['0'],6,492,[0.19433468],100,53,easy,plus,dotcolour,alfa,,,126,18,V,R,
103,103,19,2,0,44,36,1684,['c'],1,left,['8'],4,869,[0.11587816],99,44,hard,plus,dotcolour,alfa,,,126,18,V,R,
104,104,20,2,0,47,33,933,['c'],1,left,['0'],6,334,[0.14362493],100,47,medium,plus,dotcolour,alfa,,,126,18,V,R,
105,105,21,2,0,44,36,1250,['c'],1,left,['9'],5,689,[0.18205754],100,44,hard,plus,dotcolour,alfa,,,126,18,V,R,
106,106,22,2,0,36,44,1034,['n'],1,right,['0'],6,1036,[0.01799188],35,44,hard,plus,dotcolour,alfa,,,126,18,V,R,
107,107,23,2,0,53,27,1867,['c'],1,left,['8'],4,849,[0.14932177],100,53,easy,plus,dotcolour,alfa,,,126,18,V,R,
108,108,24,2,0,33,47,1833,['n'],1,right,['9'],5,1087,[-0.34106778],100,47,medium,plus,dotcolour,alfa,,,126,18,V,R,
109,109,25,2,0,27,53,1167,['n'],1,right,['0'],6,798,[-0.19694051],100,53,easy,plus,dotcolour,alfa,,,126,18,V,R,
110,110,26,2,0,36,44,2100,['c'],0,right,['8'],4,3331,[-0.24269246],1,44,hard,plus,dotcolour,alfa,,,126,18,V,R,
111,111,27,2,0,33,47,1500,['n'],1,right,['8'],4,931,[-0.15020765],100,47,medium,plus,dotcolour,alfa,,,126,18,V,R,
112,112,28,2,0,36,44,967,['n'],1,right,['0'],6,1744,[-0.38011608],100,44,hard,plus,dotcolour,alfa,,,126,18,V,R,
113,113,29,2,0,44,36,1850,['n'],0,left,['0'],6,754,[0.04658597],13,44,hard,plus,dotcolour,alfa,,,126,18,V,R,
114,114,30,2,0,33,47,1034,['n'],1,right,['8'],4,867,[-0.12592735],99,47,medium,plus,dotcolour,alfa,,,126,18,V,R,
115,115,31,2,0,36,44,867,['n'],1,right,['0'],6,415,[-0.12097965],100,44,hard,plus,dotcolour,alfa,,,126,18,V,R,
116,116,32,2,0,33,47,1534,['n'],1,right,['9'],5,570,[-0.12494282],100,47,medium,plus,dotcolour,alfa,,,126,18,V,R,
117,117,33,2,0,47,33,801,['c'],1,left,['0'],6,2556,[0.28056632],100,47,medium,plus,dotcolour,alfa,,,126,18,V,R,
118,118,34,2,0,44,36,2050,['n'],0,left,['0'],6,1692,[0.09487765],7,44,hard,plus,dotcolour,alfa,,,126,18,V,R,
119,119,35,2,0,27,53,2450,['c'],0,right,['1'],1,1072,[0.08664895],95,53,easy,plus,dotcolour,alfa,,,126,18,V,R,
120,120,36,2,0,44,36,3150,['n'],0,left,['0'],6,2935,[-0.29631733],100,44,hard,plus,dotcolour,alfa,,,126,18,V,R,
121,121,37,2,0,33,47,1233,['n'],1,right,['9'],5,441,[-0.04608542],92,47,medium,plus,dotcolour,alfa,,,126,18,V,R,
122,122,38,2,0,53,27,833,['c'],1,left,['0'],6,527,[0.14049383],100,53,easy,plus,dotcolour,alfa,,,126,18,V,R,
123,123,39,2,0,33,47,983,['n'],1,right,['9'],5,820,[-0.13402195],100,47,medium,plus,dotcolour,alfa,,,126,18,V,R,
124,124,40,2,0,36,44,1517,['n'],1,right,['9'],5,1103,[-0.15725028],100,44,hard,plus,dotcolour,alfa,,,126,18,V,R,
125,125,41,2,0,53,27,1300,['c'],1,left,['0'],6,680,[0.22590483],100,53,easy,plus,dotcolour,alfa,,,126,18,V,R,
126,0,0,3,1,36,44,1150,['n'],1,right,['0'],6,1334,[-0.3883477],95,44,hard,minus,dotcolour,alfa,,,126,18,V,R,
127,1,1,3,1,44,36,833,['c'],1,left,['0'],6,1153,[0.15510967],79,44,hard,minus,dotcolour,alfa,,,126,18,V,R,
128,2,2,3,1,27,53,3716,['c'],0,right,['3'],3,1711,[-0.08239734],36,53,easy,minus,dotcolour,alfa,,,126,18,V,R,
129,3,3,3,1,27,53,1117,['n'],1,right,['0'],6,670,[-0.27265369],95,53,easy,minus,dotcolour,alfa,,,126,18,V,R,
130,4,4,3,1,53,27,2250,['c'],1,left,['8'],4,1202,[0.10567537],70,53,easy,minus,dotcolour,alfa,,,126,18,V,R,
131,5,5,3,1,27,53,2750,['n'],1,right,['8'],4,1620,[-0.34595279],92,53,easy,minus,dotcolour,alfa,,,126,18,V,R,
132,6,6,3,1,27,53,800,['n'],1,right,['0'],6,533,[-0.0523472],66,53,easy,minus,dotcolour,alfa,,,126,18,V,R,
133,7,7,3,1,47,33,1100,['c'],1,left,['9'],5,757,[0.09943814],74,47,medium,minus,dotcolour,alfa,,,126,18,V,R,
134,8,8,3,1,36,44,1017,['n'],1,right,['9'],5,831,[-0.16246331],83,44,hard,minus,dotcolour,alfa,,,126,18,V,R,
135,9,9,3,1,44,36,2017,['c'],1,left,['9'],5,646,[0.10730985],77,44,hard,minus,dotcolour,alfa,,,126,18,V,R,
136,10,10,3,1,53,27,1367,['c'],1,left,['0'],6,415,[0.18160127],93,53,easy,minus,dotcolour,alfa,,,126,18,V,R,
137,11,11,3,1,27,53,1616,['n'],1,right,['0'],6,751,[-0.20483545],89,53,easy,minus,dotcolour,alfa,,,126,18,V,R,
138,12,12,3,1,27,53,900,['n'],1,right,['0'],6,734,[-0.32204657],97,53,easy,minus,dotcolour,alfa,,,126,18,V,R,
139,13,13,3,1,53,27,833,['c'],1,left,['0'],6,1009,[0.08009283],67,53,easy,minus,dotcolour,alfa,,,126,18,V,R,
140,14,14,3,1,36,44,2550,['n'],1,right,['8'],4,508,[0.04342769],37,44,hard,minus,dotcolour,alfa,,,126,18,V,R,
141,15,15,3,1,44,36,1433,['n'],0,left,['8'],4,543,[0.06700755],31,44,hard,minus,dotcolour,alfa,,,126,18,V,R,
142,16,16,3,1,44,36,1483,['n'],0,left,['8'],4,1096,[-0.08070662],67,44,hard,minus,dotcolour,alfa,,,126,18,V,R,
143,17,17,3,1,33,47,1150,['n'],1,right,['9'],5,559,[-0.07686324],72,47,medium,minus,dotcolour,alfa,,,126,18,V,R,
144,18,18,3,1,33,47,1134,['n'],1,right,['0'],6,652,[-0.08970202],73,47,medium,minus,dotcolour,alfa,,,126,18,V,R,
145,19,19,3,1,33,47,816,['n'],1,right,['0'],6,475,[-0.09871988],78,47,medium,minus,dotcolour,alfa,,,126,18,V,R,
146,20,20,3,1,33,47,650,['n'],1,right,['0'],6,663,[-0.30270686],97,47,medium,minus,dotcolour,alfa,,,126,18,V,R,
147,21,21,3,1,44,36,967,['c'],1,left,['3'],3,1439,[0.18285085],80,44,hard,minus,dotcolour,alfa,,,126,18,V,R,
148,22,22,3,1,36,44,1083,['n'],1,right,['0'],6,819,[-0.2818285],94,44,hard,minus,dotcolour,alfa,,,126,18,V,R,
149,23,23,3,1,47,33,1833,['c'],1,left,['9'],5,1642,[0.3868881],94,47,medium,minus,dotcolour,alfa,,,126,18,V,R,
150,24,24,3,1,47,33,1016,['c'],1,left,['0'],6,552,[0.31919698],98,47,medium,minus,dotcolour,alfa,,,126,18,V,R,
151,25,25,3,1,27,53,733,['n'],1,right,['0'],6,614,[-0.14943314],85,53,easy,minus,dotcolour,alfa,,,126,18,V,R,
152,26,26,3,1,36,44,3200,['n'],1,right,['8'],4,975,[-0.04085761],59,44,hard,minus,dotcolour,alfa,,,126,18,V,R,
153,27,27,3,1,33,47,783,['n'],1,right,['0'],6,713,[-0.14104571],82,47,medium,minus,dotcolour,alfa,,,126,18,V,R,
154,28,28,3,1,47,33,867,['c'],1,left,['8'],4,1252,[0.46077992],98,47,medium,minus,dotcolour,alfa,,,126,18,V,R,
155,29,29,3,1,47,33,1383,['c'],1,left,['9'],5,979,[-0.07856738],33,47,medium,minus,dotcolour,alfa,,,126,18,V,R,
156,30,30,3,1,44,36,1984,['n'],0,left,['8'],4,1110,[0.00965324],48,44,hard,minus,dotcolour,alfa,,,126,18,V,R,
157,31,31,3,1,53,27,1918,['c'],1,left,['9'],5,662,[0.11973612],79,53,easy,minus,dotcolour,alfa,,,126,18,V,R,
158,32,32,3,1,53,27,1067,['c'],1,left,['0'],6,650,[0.20617655],91,53,easy,minus,dotcolour,alfa,,,126,18,V,R,
159,33,33,3,1,33,47,1217,['n'],1,right,['9'],5,953,[-0.11403597],74,47,medium,minus,dotcolour,alfa,,,126,18,V,R,
160,34,34,3,1,53,27,1000,['c'],1,left,['0'],6,467,[0.03080769],60,53,easy,minus,dotcolour,alfa,,,126,18,V,R,
161,35,35,3,1,36,44,866,['n'],1,right,['9'],5,688,[-0.09996611],75,44,hard,minus,dotcolour,alfa,,,126,18,V,R,
162,36,36,3,1,47,33,2200,['n'],0,left,['8'],4,837,[0.18064957],14,47,medium,minus,dotcolour,alfa,,,126,18,V,R,
163,37,37,3,1,44,36,884,['c'],1,left,['0'],6,1921,[0.20257808],79,44,hard,minus,dotcolour,alfa,,,126,18,V,R,
164,38,38,3,1,53,27,3783,['c'],1,left,['3'],3,1518,[0.56632217],98,53,easy,minus,dotcolour,alfa,,,126,18,V,R,
165,39,39,3,1,33,47,1416,['n'],1,right,['0'],6,1673,[-0.24362937],84,47,medium,minus,dotcolour,alfa,,,126,18,V,R,
166,40,40,3,1,47,33,933,['c'],1,left,['9'],5,2194,[0.13448956],69,47,medium,minus,dotcolour,alfa,,,126,18,V,R,
167,41,41,3,1,36,44,1016,['n'],1,right,['0'],6,433,[-0.08499802],76,44,hard,minus,dotcolour,alfa,,,126,18,V,R,
168,42,0,4,1,36,44,966,['n'],1,right,['0'],6,887,[-0.13475591],78,44,hard,minus,dotcolour,alfa,,,126,18,V,R,
169,43,1,4,1,47,33,1650,['n'],0,left,['9'],5,2066,[0.01191676],48,47,medium,minus,dotcolour,alfa,,,126,18,V,R,
170,44,2,4,1,33,47,2149,['c'],0,right,['8'],4,1402,[-0.20946835],17,47,medium,minus,dotcolour,alfa,,,126,18,V,R,
171,45,3,4,1,44,36,751,['n'],0,left,['9'],5,917,[-0.05369539],62,44,hard,minus,dotcolour,alfa,,,126,18,V,R,
172,46,4,4,1,47,33,1233,['c'],1,left,['9'],5,880,[0.01518806],54,47,medium,minus,dotcolour,alfa,,,126,18,V,R,
173,47,5,4,1,27,53,982,['n'],1,right,['9'],5,783,[-0.17840328],86,53,easy,minus,dotcolour,alfa,,,126,18,V,R,
174,48,6,4,1,53,27,1116,['c'],1,left,['0'],6,884,[0.38015079],97,53,easy,minus,dotcolour,alfa,,,126,18,V,R,
175,49,7,4,1,47,33,1833,['n'],0,left,['8'],4,984,[0.13234105],23,47,medium,minus,dotcolour,alfa,,,126,18,V,R,
176,50,8,4,1,53,27,717,['c'],1,left,['9'],5,2469,[0.55766549],96,53,easy,minus,dotcolour,alfa,,,126,18,V,R,
177,51,9,4,1,27,53,817,['c'],0,right,['1'],1,2490,[-0.12867028],32,53,easy,minus,dotcolour,alfa,,,126,18,V,R,
178,52,10,4,1,36,44,1017,['n'],1,right,['9'],5,1838,[-0.05987308],60,44,hard,minus,dotcolour,alfa,,,126,18,V,R,
179,53,11,4,1,53,27,1600,['c'],1,left,['9'],5,1437,[0.20224918],82,53,easy,minus,dotcolour,alfa,,,126,18,V,R,
180,54,12,4,1,44,36,1416,['n'],0,left,['9'],5,2660,[-0.0572162],58,44,hard,minus,dotcolour,alfa,,,126,18,V,R,
181,55,13,4,1,53,27,1200,['c'],1,left,['0'],6,1778,[0.27840353],87,53,easy,minus,dotcolour,alfa,,,126,18,V,R,
182,56,14,4,1,47,33,1934,['c'],1,left,['8'],4,3167,[0.33856302],85,47,medium,minus,dotcolour,alfa,,,126,18,V,R,
183,57,15,4,1,27,53,867,['n'],1,right,['0'],6,486,[-0.06603175],70,53,easy,minus,dotcolour,alfa,,,126,18,V,R,
184,58,16,4,1,36,44,1250,['n'],1,right,['0'],6,610,[-0.1785965],89,44,hard,minus,dotcolour,alfa,,,126,18,V,R,
185,59,17,4,1,27,53,983,['n'],1,right,['0'],6,467,[-0.30266281],98,53,easy,minus,dotcolour,alfa,,,126,18,V,R,
186,60,18,4,1,44,36,1151,['c'],1,left,['9'],5,644,[0.1358291],82,44,hard,minus,dotcolour,alfa,,,126,18,V,R,
187,61,19,4,1,44,36,1733,['n'],0,left,['3'],3,2134,[-0.30704184],87,44,hard,minus,dotcolour,alfa,,,126,18,V,R,
188,62,20,4,1,44,36,2917,['c'],1,left,['8'],4,965,[0.11571825],74,44,hard,minus,dotcolour,alfa,,,126,18,V,R,
189,63,21,4,1,36,44,1650,['n'],1,right,['9'],5,549,[-0.08356879],73,44,hard,minus,dotcolour,alfa,,,126,18,V,R,
190,64,22,4,1,53,27,2200,['c'],1,left,['9'],5,1361,[0.33547368],93,53,easy,minus,dotcolour,alfa,,,126,18,V,R,
191,65,23,4,1,44,36,1116,['n'],0,left,['9'],5,575,[-0.10563628],78,44,hard,minus,dotcolour,alfa,,,126,18,V,R,
192,66,24,4,1,44,36,1734,['c'],1,left,['9'],5,531,[0.08674843],74,44,hard,minus,dotcolour,alfa,,,126,18,V,R,
193,67,25,4,1,27,53,751,['n'],1,right,['0'],6,578,[-0.20146238],92,53,easy,minus,dotcolour,alfa,,,126,18,V,R,
194,68,26,4,1,36,44,1134,['n'],1,right,['0'],6,391,[-0.07825758],76,44,hard,minus,dotcolour,alfa,,,126,18,V,R,
195,69,27,4,1,53,27,817,['c'],1,left,['0'],6,903,[0.19498853],86,53,easy,minus,dotcolour,alfa,,,126,18,V,R,
196,70,28,4,1,33,47,934,['n'],1,right,['0'],6,919,[0.06178011],36,47,medium,minus,dotcolour,alfa,,,126,18,V,R,
197,71,29,4,1,36,44,1366,['n'],1,right,['9'],5,476,[-0.09033246],76,44,hard,minus,dotcolour,alfa,,,126,18,V,R,
198,72,30,4,1,33,47,1133,['n'],1,right,['9'],5,868,[-0.11644323],75,47,medium,minus,dotcolour,alfa,,,126,18,V,R,
199,73,31,4,1,27,53,834,['n'],1,right,['0'],6,561,[-0.11939627],81,53,easy,minus,dotcolour,alfa,,,126,18,V,R,
200,74,32,4,1,47,33,867,['n'],0,left,['9'],5,865,[0.10818658],26,47,medium,minus,dotcolour,alfa,,,126,18,V,R,
201,75,33,4,1,33,47,750,['n'],1,right,['0'],6,489,[-0.10833819],80,47,medium,minus,dotcolour,alfa,,,126,18,V,R,
202,76,34,4,1,33,47,667,['n'],1,right,['0'],6,1044,[-0.18147703],83,47,medium,minus,dotcolour,alfa,,,126,18,V,R,
203,77,35,4,1,47,33,884,['n'],0,left,['8'],4,1345,[0.13050331],27,47,medium,minus,dotcolour,alfa,,,126,18,V,R,
204,78,36,4,1,33,47,883,['n'],1,right,['9'],5,1097,[-0.06091724],63,47,medium,minus,dotcolour,alfa,,,126,18,V,R,
205,79,37,4,1,33,47,1400,['n'],1,right,['0'],6,1278,[-0.19467726],82,47,medium,minus,dotcolour,alfa,,,126,18,V,R,
206,80,38,4,1,27,53,851,['n'],1,right,['9'],5,627,[-0.17766646],88,53,easy,minus,dotcolour,alfa,,,126,18,V,R,
207,81,39,4,1,36,44,1966,['n'],1,right,['9'],5,891,[-0.1441022],80,44,hard,minus,dotcolour,alfa,,,126,18,V,R,
208,82,40,4,1,47,33,2985,['n'],0,left,['8'],4,937,[-0.07621994],67,47,medium,minus,dotcolour,alfa,,,126,18,V,R,
209,83,41,4,1,53,27,1650,['c'],1,left,['8'],4,627,[0.18564953],89,53,easy,minus,dotcolour,alfa,,,126,18,V,R,
210,84,0,5,1,27,53,1183,['n'],1,right,['0'],6,939,[-0.21531378],88,53,easy,minus,dotcolour,alfa,,,126,18,V,R,
211,85,1,5,1,47,33,1517,['n'],0,left,['8'],4,603,[0.15500311],14,47,medium,minus,dotcolour,alfa,,,126,18,V,R,
212,86,2,5,1,47,33,1217,['c'],1,left,['8'],4,947,[0.0956192],71,47,medium,minus,dotcolour,alfa,,,126,18,V,R,
213,87,3,5,1,36,44,1200,['n'],1,right,['8'],4,543,[-0.08920475],75,44,hard,minus,dotcolour,alfa,,,126,18,V,R,
214,88,4,5,1,33,47,1534,['n'],1,right,['9'],5,405,[-0.06327898],71,47,medium,minus,dotcolour,alfa,,,126,18,V,R,
215,89,5,5,1,44,36,850,['n'],0,left,['9'],5,715,[0.04930718],37,44,hard,minus,dotcolour,alfa,,,126,18,V,R,
216,90,6,5,1,53,27,2067,['n'],0,left,['9'],5,2669,[0.16954584],28,53,easy,minus,dotcolour,alfa,,,126,18,V,R,
217,91,7,5,1,27,53,933,['n'],1,right,['0'],6,446,[-0.053162],67,53,easy,minus,dotcolour,alfa,,,126,18,V,R,
218,92,8,5,1,53,27,984,['c'],1,left,['8'],4,894,[0.09542356],71,53,easy,minus,dotcolour,alfa,,,126,18,V,R,
219,93,9,5,1,47,33,1650,['c'],1,left,['8'],4,585,[0.07251007],70,47,medium,minus,dotcolour,alfa,,,126,18,V,R,
220,94,10,5,1,53,27,1434,['c'],1,left,['9'],5,458,[0.18022704],92,53,easy,minus,dotcolour,alfa,,,126,18,V,R,
221,95,11,5,1,27,53,1268,['n'],1,right,['0'],6,830,[-0.07374665],67,53,easy,minus,dotcolour,alfa,,,126,18,V,R,
222,96,12,5,1,53,27,1633,['c'],1,left,['9'],5,885,[0.20269326],87,53,easy,minus,dotcolour,alfa,,,126,18,V,R,
223,97,13,5,1,53,27,2266,['n'],0,left,['8'],4,704,[0.05192826],36,53,easy,minus,dotcolour,alfa,,,126,18,V,R,
224,98,14,5,1,36,44,2050,['n'],1,right,['8'],4,1570,[-0.12625733],71,44,hard,minus,dotcolour,alfa,,,126,18,V,R,
225,99,15,5,1,44,36,1984,['n'],0,left,['9'],5,973,[-0.17879369],84,44,hard,minus,dotcolour,alfa,,,126,18,V,R,
226,100,16,5,1,44,36,2682,['c'],1,left,['8'],4,971,[0.12769154],76,44,hard,minus,dotcolour,alfa,,,126,18,V,R,
227,101,17,5,1,33,47,1100,['n'],1,right,['0'],6,473,[-0.16506126],90,47,medium,minus,dotcolour,alfa,,,126,18,V,R,
228,102,18,5,1,47,33,1967,['c'],1,left,['0'],6,1170,[0.23917887],88,47,medium,minus,dotcolour,alfa,,,126,18,V,R,
229,103,19,5,1,33,47,1150,['n'],1,right,['0'],6,1917,[-0.29728404],87,47,medium,minus,dotcolour,alfa,,,126,18,V,R,
230,104,20,5,1,36,44,783,['n'],1,right,['0'],6,506,[-0.02490807],58,44,hard,minus,dotcolour,alfa,,,126,18,V,R,
231,105,21,5,1,33,47,817,['n'],1,right,['0'],6,541,[-0.21775579],93,47,medium,minus,dotcolour,alfa,,,126,18,V,R,
232,106,22,5,1,33,47,650,['n'],1,right,['0'],6,487,[-0.02345521],58,47,medium,minus,dotcolour,alfa,,,126,18,V,R,
233,107,23,5,1,36,44,1767,['n'],1,right,['9'],5,734,[0.04132116],39,44,hard,minus,dotcolour,alfa,,,126,18,V,R,
234,108,24,5,1,44,36,1683,['c'],1,left,['9'],5,1398,[0.10063429],68,44,hard,minus,dotcolour,alfa,,,126,18,V,R,
235,109,25,5,1,47,33,1133,['c'],1,left,['9'],5,922,[0.11569222],75,47,medium,minus,dotcolour,alfa,,,126,18,V,R,
236,110,26,5,1,27,53,967,['n'],1,right,['9'],5,599,[-0.26214137],95,53,easy,minus,dotcolour,alfa,,,126,18,V,R,
237,111,27,5,1,53,27,850,['c'],1,left,['0'],6,663,[0.07163591],69,53,easy,minus,dotcolour,alfa,,,126,18,V,R,
238,112,28,5,1,27,53,1100,['n'],1,right,['0'],6,417,[-0.20821907],95,53,easy,minus,dotcolour,alfa,,,126,18,V,R,
239,113,29,5,1,27,53,817,['n'],1,right,['0'],6,689,[-0.13705172],82,53,easy,minus,dotcolour,alfa,,,126,18,V,R,
240,114,30,5,1,47,33,3200,['n'],0,left,['0'],6,975,[0.04578699],40,47,medium,minus,dotcolour,alfa,,,126,18,V,R,
241,115,31,5,1,44,36,1850,['c'],1,left,['8'],4,839,[0.21977531],90,44,hard,minus,dotcolour,alfa,,,126,18,V,R,
242,116,32,5,1,33,47,817,['n'],1,right,['9'],5,1278,[-0.20794465],84,47,medium,minus,dotcolour,alfa,,,126,18,V,R,
243,117,33,5,1,36,44,851,['n'],1,right,['0'],6,514,[-0.09749361],77,44,hard,minus,dotcolour,alfa,,,126,18,V,R,
244,118,34,5,1,53,27,1300,['c'],1,left,['0'],6,570,[0.18620707],90,53,easy,minus,dotcolour,alfa,,,126,18,V,R,
245,119,35,5,1,47,33,8633,['c'],1,left,['8'],4,1203,[0.06195506],62,47,medium,minus,dotcolour,alfa,,,126,18,V,R,
246,120,36,5,1,27,53,4850,['n'],1,right,['8'],4,770,[-0.25780012],93,53,easy,minus,dotcolour,alfa,,,126,18,V,R,
247,121,37,5,1,44,36,1650,['n'],0,left,['9'],5,882,[0.02178389],45,44,hard,minus,dotcolour,alfa,,,126,18,V,R,
248,122,38,5,1,36,44,984,['n'],1,right,['0'],6,1017,[-0.12128241],75,44,hard,minus,dotcolour,alfa,,,126,18,V,R,
249,123,39,5,1,33,47,1433,['n'],1,right,['0'],6,599,[-0.09696243],76,47,medium,minus,dotcolour,alfa,,,126,18,V,R,
250,124,40,5,1,36,44,1717,['n'],1,right,['9'],5,580,[0.03599281],40,44,hard,minus,dotcolour,alfa,,,126,18,V,R,
251,125,41,5,1,44,36,1517,['n'],0,left,['9'],5,593,[-0.077326],71,44,hard,minus,dotcolour,alfa,,,126,18,V,R,
252,0,0,6,2,53,27,850,['c'],1,left,['0'],6,471,[0.05382613],94,53,easy,plus,dotcolour,alfa,,,126,18,V,R,
253,1,1,6,2,44,36,1034,['n'],0,left,['9'],5,451,[-0.04425737],91,44,hard,plus,dotcolour,alfa,,,126,18,V,R,
254,2,2,6,2,36,44,1050,['n'],1,right,['9'],5,489,[-0.12499179],100,44,hard,plus,dotcolour,alfa,,,126,18,V,R,
255,3,3,6,2,44,36,617,['c'],1,left,['9'],5,653,[0.25877971],100,44,hard,plus,dotcolour,alfa,,,126,18,V,R,
256,4,4,6,2,44,36,616,['n'],0,left,['9'],5,515,[0.00515136],44,44,hard,plus,dotcolour,alfa,,,126,18,V,R,
257,5,5,6,2,27,53,1168,['n'],1,right,['0'],6,370,[-0.20020711],100,53,easy,plus,dotcolour,alfa,,,126,18,V,R,
258,6,6,6,2,53,27,851,['c'],1,left,['0'],6,378,[0.21593409],100,53,easy,plus,dotcolour,alfa,,,126,18,V,R,
259,7,7,6,2,33,47,799,['n'],1,right,['0'],6,508,[-0.14282438],100,47,medium,plus,dotcolour,alfa,,,126,18,V,R,
260,8,8,6,2,33,47,849,['n'],1,right,['0'],6,367,[-0.10579974],100,47,medium,plus,dotcolour,alfa,,,126,18,V,R,
261,9,9,6,2,27,53,433,['n'],1,right,['0'],6,608,[-0.0187094],70,53,easy,plus,dotcolour,alfa,,,126,18,V,R,
262,10,10,6,2,33,47,900,['n'],1,right,['0'],6,357,[-0.01259535],68,47,medium,plus,dotcolour,alfa,,,126,18,V,R,
263,11,11,6,2,53,27,850,['c'],1,left,['0'],6,342,[0.0725657],99,53,easy,plus,dotcolour,alfa,,,126,18,V,R,
264,12,12,6,2,33,47,851,['n'],1,right,['0'],6,743,[-0.11018624],99,47,medium,plus,dotcolour,alfa,,,126,18,V,R,
265,13,13,6,2,33,47,767,['c'],0,right,['0'],6,340,[0.0421259],93,47,medium,plus,dotcolour,alfa,,,126,18,V,R,
266,14,14,6,2,44,36,866,['n'],0,left,['0'],6,436,[-0.09850689],100,44,hard,plus,dotcolour,alfa,,,126,18,V,R,
267,15,15,6,2,27,53,649,['n'],1,right,['0'],6,395,[-0.10040626],100,53,easy,plus,dotcolour,alfa,,,126,18,V,R,
268,16,16,6,2,27,53,500,['n'],1,right,['0'],6,408,[-0.1788518],100,53,easy,plus,dotcolour,alfa,,,126,18,V,R,
269,17,17,6,2,47,33,666,['c'],1,left,['0'],6,350,[0.2120267],100,47,medium,plus,dotcolour,alfa,,,126,18,V,R,
270,18,18,6,2,44,36,649,['c'],1,left,['0'],6,343,[0.04826757],95,44,hard,plus,dotcolour,alfa,,,126,18,V,R,
271,19,19,6,2,36,44,634,['n'],1,right,['0'],6,361,[-0.0962393],100,44,hard,plus,dotcolour,alfa,,,126,18,V,R,
272,20,20,6,2,47,33,600,['c'],1,left,['0'],6,396,[0.01119444],65,47,medium,plus,dotcolour,alfa,,,126,18,V,R,
273,21,21,6,2,36,44,600,['n'],1,right,['0'],6,541,[-0.18810696],100,44,hard,plus,dotcolour,alfa,,,126,18,V,R,
274,22,22,6,2,36,44,800,['n'],1,right,['0'],6,449,[-0.08302579],99,44,hard,plus,dotcolour,alfa,,,126,18,V,R,
275,23,23,6,2,53,27,616,['c'],1,left,['0'],6,391,[0.06887816],98,53,easy,plus,dotcolour,alfa,,,126,18,V,R,
276,24,24,6,2,33,47,433,['n'],1,right,['0'],6,391,[-0.02461043],80,47,medium,plus,dotcolour,alfa,,,126,18,V,R,
277,25,25,6,2,27,53,467,['n'],1,right,['0'],6,358,[-0.12810385],100,53,easy,plus,dotcolour,alfa,,,126,18,V,R,
278,26,26,6,2,47,33,833,['c'],1,left,['0'],6,312,[0.1121454],100,47,medium,plus,dotcolour,alfa,,,126,18,V,R,
279,27,27,6,2,47,33,633,['c'],1,left,['0'],6,275,[0.01395889],72,47,medium,plus,dotcolour,alfa,,,126,18,V,R,
280,28,28,6,2,47,33,950,['c'],1,left,['0'],6,347,[0.09819568],100,47,medium,plus,dotcolour,alfa,,,126,18,V,R,
281,29,29,6,2,47,33,834,['c'],1,left,['0'],6,269,[0.11862307],100,47,medium,plus,dotcolour,alfa,,,126,18,V,R,
282,30,30,6,2,33,47,1183,['n'],1,right,['0'],6,436,[-0.09839125],100,47,medium,plus,dotcolour,alfa,,,126,18,V,R,
283,31,31,6,2,36,44,1084,['n'],1,right,['9'],5,834,[-0.06409458],93,44,hard,plus,dotcolour,alfa,,,126,18,V,R,
284,32,32,6,2,53,27,800,['c'],1,left,['0'],6,1040,[0.21126813],100,53,easy,plus,dotcolour,alfa,,,126,18,V,R,
285,33,33,6,2,27,53,602,['n'],1,right,['0'],6,304,[-0.22336323],100,53,easy,plus,dotcolour,alfa,,,126,18,V,R,
286,34,34,6,2,36,44,701,['c'],0,right,['1'],1,1866,[0.06477736],85,44,hard,plus,dotcolour,alfa,,,126,18,V,R,
287,35,35,6,2,36,44,900,['n'],1,right,['0'],6,324,[-0.10171641],100,44,hard,plus,dotcolour,alfa,,,126,18,V,R,
288,36,36,6,2,27,53,551,['n'],1,right,['0'],6,650,[-0.20788344],100,53,easy,plus,dotcolour,alfa,,,126,18,V,R,
289,37,37,6,2,47,33,1050,['c'],1,left,['0'],6,432,[0.14393219],100,47,medium,plus,dotcolour,alfa,,,126,18,V,R,
290,38,38,6,2,44,36,1150,['n'],0,left,['0'],6,289,[-0.13671219],100,44,hard,plus,dotcolour,alfa,,,126,18,V,R,
291,39,39,6,2,44,36,1218,['n'],0,left,['0'],6,278,[-0.12320857],100,44,hard,plus,dotcolour,alfa,,,126,18,V,R,
292,40,40,6,2,53,27,817,['c'],1,left,['0'],6,323,[0.11678045],100,53,easy,plus,dotcolour,alfa,,,126,18,V,R,
293,41,41,6,2,53,27,666,['c'],1,left,['0'],6,317,[0.02331829],82,53,easy,plus,dotcolour,alfa,,,126,18,V,R,
294,42,0,7,2,27,53,1100,['n'],1,right,['0'],6,372,[-0.12608403],100,53,easy,plus,dotcolour,alfa,,,126,18,V,R,
295,43,1,7,2,44,36,784,['c'],1,left,['0'],6,327,[0.10423122],100,44,hard,plus,dotcolour,alfa,,,126,18,V,R,
296,44,2,7,2,44,36,967,['n'],0,left,['0'],6,381,[-0.1721242],100,44,hard,plus,dotcolour,alfa,,,126,18,V,R,
297,45,3,7,2,36,44,784,['n'],1,right,['0'],6,407,[-0.07833996],99,44,hard,plus,dotcolour,alfa,,,126,18,V,R,
298,46,4,7,2,53,27,649,['c'],1,left,['0'],6,414,[0.13128933],100,53,easy,plus,dotcolour,alfa,,,126,18,V,R,
299,47,5,7,2,53,27,783,['c'],1,left,['0'],6,271,[0.1435793],100,53,easy,plus,dotcolour,alfa,,,126,18,V,R,
300,48,6,7,2,27,53,701,['n'],1,right,['0'],6,354,[-0.14219121],100,53,easy,plus,dotcolour,alfa,,,126,18,V,R,
301,49,7,7,2,36,44,566,['n'],1,right,['0'],6,367,[-0.08558517],99,44,hard,plus,dotcolour,alfa,,,126,18,V,R,
302,50,8,7,2,36,44,584,['n'],1,right,['0'],6,370,[-0.100941],100,44,hard,plus,dotcolour,alfa,,,126,18,V,R,
303,51,9,7,2,27,53,684,['n'],1,right,['0'],6,730,[-0.28490562],100,53,easy,plus,dotcolour,alfa,,,126,18,V,R,
304,52,10,7,2,44,36,515,['n'],0,left,['0'],6,393,[-0.10768294],100,44,hard,plus,dotcolour,alfa,,,126,18,V,R,
305,53,11,7,2,27,53,800,['n'],1,right,['0'],6,339,[-0.06863942],99,53,easy,plus,dotcolour,alfa,,,126,18,V,R,
306,54,12,7,2,44,36,617,['n'],0,left,['0'],6,325,[-0.03289343],89,44,hard,plus,dotcolour,alfa,,,126,18,V,R,
307,55,13,7,2,44,36,600,['n'],0,left,['0'],6,321,[-0.0621685],98,44,hard,plus,dotcolour,alfa,,,126,18,V,R,
308,56,14,7,2,27,53,467,['n'],1,right,['0'],6,323,[-0.09459411],100,53,easy,plus,dotcolour,alfa,,,126,18,V,R,
309,57,15,7,2,36,44,501,['n'],1,right,['0'],6,395,[-0.07083647],98,44,hard,plus,dotcolour,alfa,,,126,18,V,R,
310,58,16,7,2,27,53,368,['n'],1,right,['0'],6,334,[-0.08003682],99,53,easy,plus,dotcolour,alfa,,,126,18,V,R,
311,59,17,7,2,36,44,401,['n'],1,right,['0'],6,298,[-0.01733015],76,44,hard,plus,dotcolour,alfa,,,126,18,V,R,
312,60,18,7,2,33,47,500,['n'],1,right,['0'],6,331,[0.03708001],9,47,medium,plus,dotcolour,alfa,,,126,18,V,R,
313,61,19,7,2,33,47,534,['n'],1,right,['0'],6,338,[-0.09043727],100,47,medium,plus,dotcolour,alfa,,,126,18,V,R,
314,62,20,7,2,53,27,717,['c'],1,left,['0'],6,321,[0.11277702],100,53,easy,plus,dotcolour,alfa,,,126,18,V,R,
315,63,21,7,2,36,44,667,['n'],1,right,['0'],6,410,[-0.10786984],100,44,hard,plus,dotcolour,alfa,,,126,18,V,R,
316,64,22,7,2,44,36,600,['n'],0,left,['0'],6,275,[-0.04933926],97,44,hard,plus,dotcolour,alfa,,,126,18,V,R,
317,65,23,7,2,47,33,633,['n'],0,left,['0'],6,320,[-0.13043967],100,47,medium,plus,dotcolour,alfa,,,126,18,V,R,
318,66,24,7,2,47,33,601,['n'],0,left,['9'],5,932,[-0.03720773],80,47,medium,plus,dotcolour,alfa,,,126,18,V,R,
319,67,25,7,2,33,47,584,['n'],1,right,['0'],6,369,[-0.20825878],100,47,medium,plus,dotcolour,alfa,,,126,18,V,R,
320,68,26,7,2,33,47,484,['n'],1,right,['0'],6,521,[-0.29228448],100,47,medium,plus,dotcolour,alfa,,,126,18,V,R,
321,69,27,7,2,47,33,301,['n'],0,left,['9'],5,1361,[0.10011583],4,47,medium,plus,dotcolour,alfa,,,126,18,V,R,
322,70,28,7,2,47,33,716,['n'],0,left,['8'],4,919,[-0.06253777],91,47,medium,plus,dotcolour,alfa,,,126,18,V,R,
323,71,29,7,2,33,47,601,['n'],1,right,['0'],6,339,[-0.19049233],100,47,medium,plus,dotcolour,alfa,,,126,18,V,R,
324,72,30,7,2,44,36,533,['n'],0,left,['0'],6,304,[-0.06964913],99,44,hard,plus,dotcolour,alfa,,,126,18,V,R,
325,73,31,7,2,53,27,634,['n'],0,left,['8'],4,1236,[0.15213832],1,53,easy,plus,dotcolour,alfa,,,126,18,V,R,
326,74,32,7,2,53,27,1551,['c'],1,left,['0'],6,471,[0.10939365],100,53,easy,plus,dotcolour,alfa,,,126,18,V,R,
327,75,33,7,2,47,33,1483,['n'],0,left,['9'],5,481,[-0.07786572],98,47,medium,plus,dotcolour,alfa,,,126,18,V,R,
328,76,34,7,2,47,33,816,['c'],1,left,['0'],6,254,[0.03554921],93,47,medium,plus,dotcolour,alfa,,,126,18,V,R,
329,77,35,7,2,27,53,650,['n'],1,right,['0'],6,316,[-0.18737443],100,53,easy,plus,dotcolour,alfa,,,126,18,V,R,
330,78,36,7,2,53,27,784,['c'],1,left,['0'],6,289,[0.15664839],100,53,easy,plus,dotcolour,alfa,,,126,18,V,R,
331,79,37,7,2,47,33,483,['c'],1,left,['0'],6,443,[0.17778799],100,47,medium,plus,dotcolour,alfa,,,126,18,V,R,
332,80,38,7,2,33,47,934,['n'],1,right,['0'],6,253,[-0.11125512],100,47,medium,plus,dotcolour,alfa,,,126,18,V,R,
333,81,39,7,2,33,47,649,['n'],1,right,['0'],6,643,[-0.08697274],98,47,medium,plus,dotcolour,alfa,,,126,18,V,R,
334,82,40,7,2,53,27,549,['c'],1,left,['0'],6,315,[0.15017246],100,53,easy,plus,dotcolour,alfa,,,126,18,V,R,
335,83,41,7,2,36,44,684,['n'],1,right,['0'],6,302,[-0.08069569],99,44,hard,plus,dotcolour,alfa,,,126,18,V,R,
336,84,0,8,2,47,33,2951,['n'],0,left,['0'],6,485,[0.0463084],8,47,medium,plus,dotcolour,alfa,,,126,18,V,R,
337,85,1,8,2,36,44,1600,['c'],0,right,['8'],4,971,[-0.12926686],1,44,hard,plus,dotcolour,alfa,,,126,18,V,R,
338,86,2,8,2,33,47,651,['n'],1,right,['0'],6,459,[-0.25206257],100,47,medium,plus,dotcolour,alfa,,,126,18,V,R,
339,87,3,8,2,53,27,716,['c'],1,left,['0'],6,302,[0.17118271],100,53,easy,plus,dotcolour,alfa,,,126,18,V,R,
340,88,4,8,2,27,53,567,['n'],1,right,['0'],6,317,[-0.1385985],100,53,easy,plus,dotcolour,alfa,,,126,18,V,R,
341,89,5,8,2,36,44,501,['n'],1,right,['0'],6,317,[-0.05496323],97,44,hard,plus,dotcolour,alfa,,,126,18,V,R,
342,90,6,8,2,53,27,1267,['c'],1,left,['0'],6,271,[0.15802715],100,53,easy,plus,dotcolour,alfa,,,126,18,V,R,
343,91,7,8,2,33,47,483,['n'],1,right,['0'],6,290,[-0.08409077],100,47,medium,plus,dotcolour,alfa,,,126,18,V,R,
344,92,8,8,2,47,33,567,['c'],1,left,['0'],6,385,[0.25874003],100,47,medium,plus,dotcolour,alfa,,,126,18,V,R,
345,93,9,8,2,27,53,850,['n'],1,right,['0'],6,289,[-0.03834005],93,53,easy,plus,dotcolour,alfa,,,126,18,V,R,
346,94,10,8,2,33,47,500,['n'],1,right,['0'],6,330,[-0.10220938],100,47,medium,plus,dotcolour,alfa,,,126,18,V,R,
347,95,11,8,2,44,36,600,['n'],0,left,['0'],6,422,[0.01582898],29,44,hard,plus,dotcolour,alfa,,,126,18,V,R,
348,96,12,8,2,47,33,766,['c'],1,left,['0'],6,320,[0.10309228],100,47,medium,plus,dotcolour,alfa,,,126,18,V,R,
349,97,13,8,2,27,53,684,['n'],1,right,['0'],6,289,[-0.0664831],99,53,easy,plus,dotcolour,alfa,,,126,18,V,R,
350,98,14,8,2,44,36,1200,['n'],0,left,['0'],6,302,[0.0634555],2,44,hard,plus,dotcolour,alfa,,,126,18,V,R,
351,99,15,8,2,44,36,667,['n'],0,left,['9'],5,697,[-0.09112285],98,44,hard,plus,dotcolour,alfa,,,126,18,V,R,
352,100,16,8,2,33,47,1034,['n'],1,right,['0'],6,317,[-0.14456036],100,47,medium,plus,dotcolour,alfa,,,126,18,V,R,
353,101,17,8,2,27,53,566,['n'],1,right,['0'],6,324,[-0.2112057],100,53,easy,plus,dotcolour,alfa,,,126,18,V,R,
354,102,18,8,2,27,53,684,['n'],1,right,['0'],6,308,[-0.01016881],66,53,easy,plus,dotcolour,alfa,,,126,18,V,R,
355,103,19,8,2,36,44,1900,['c'],0,right,['8'],4,637,[0.05719624],93,44,hard,plus,dotcolour,alfa,,,126,18,V,R,
356,104,20,8,2,47,33,2167,['n'],0,left,['8'],4,526,[0.14311924],0,47,medium,plus,dotcolour,alfa,,,126,18,V,R,
357,105,21,8,2,33,47,900,['n'],1,right,['0'],6,285,[-0.13328816],100,47,medium,plus,dotcolour,alfa,,,126,18,V,R,
358,106,22,8,2,33,47,850,['n'],1,right,['0'],6,249,[-0.003326],56,47,medium,plus,dotcolour,alfa,,,126,18,V,R,
359,107,23,8,2,36,44,700,['n'],1,right,['0'],6,300,[-0.08351878],100,44,hard,plus,dotcolour,alfa,,,126,18,V,R,
360,108,24,8,2,27,53,666,['n'],1,right,['0'],6,255,[-0.10970913],100,53,easy,plus,dotcolour,alfa,,,126,18,V,R,
361,109,25,8,2,36,44,500,['n'],1,right,['0'],6,235,[-0.14551732],100,44,hard,plus,dotcolour,alfa,,,126,18,V,R,
362,110,26,8,2,53,27,784,['c'],1,left,['0'],6,195,[0.05445502],99,53,easy,plus,dotcolour,alfa,,,126,18,V,R,
363,111,27,8,2,44,36,1183,['c'],1,left,['0'],6,221,[0.0859401],100,44,hard,plus,dotcolour,alfa,,,126,18,V,R,
364,112,28,8,2,47,33,950,['c'],1,left,['0'],6,311,[0.1016441],100,47,medium,plus,dotcolour,alfa,,,126,18,V,R,
365,113,29,8,2,27,53,833,['n'],1,right,['0'],6,299,[-0.05557464],97,53,easy,plus,dotcolour,alfa,,,126,18,V,R,
366,114,30,8,2,36,44,482,['n'],1,right,['0'],6,606,[-0.1648938],100,44,hard,plus,dotcolour,alfa,,,126,18,V,R,
367,115,31,8,2,53,27,717,['c'],1,left,['0'],6,345,[0.06544781],98,53,easy,plus,dotcolour,alfa,,,126,18,V,R,
368,116,32,8,2,44,36,850,['c'],1,left,['0'],6,242,[0.08740682],100,44,hard,plus,dotcolour,alfa,,,126,18,V,R,
369,117,33,8,2,53,27,1149,['n'],0,left,['1'],1,1428,[0.49226379],0,53,easy,plus,dotcolour,alfa,,,126,18,V,R,
370,118,34,8,2,33,47,1183,['n'],1,right,['0'],6,773,[-0.18850592],100,47,medium,plus,dotcolour,alfa,,,126,18,V,R,
371,119,35,8,2,47,33,650,['c'],1,left,['0'],6,484,[0.06873714],97,47,medium,plus,dotcolour,alfa,,,126,18,V,R,
372,120,36,8,2,44,36,600,['c'],1,left,['0'],6,282,[0.10920156],100,44,hard,plus,dotcolour,alfa,,,126,18,V,R,
373,121,37,8,2,36,44,1200,['n'],1,right,['0'],6,688,[-0.11239075],99,44,hard,plus,dotcolour,alfa,,,126,18,V,R,
374,122,38,8,2,47,33,633,['c'],1,left,['0'],6,1108,[0.17168981],100,47,medium,plus,dotcolour,alfa,,,126,18,V,R,
375,123,39,8,2,44,36,2000,['n'],0,left,['0'],6,578,[-0.16426174],100,44,hard,plus,dotcolour,alfa,,,126,18,V,R,
376,124,40,8,2,53,27,1450,['c'],1,left,['0'],6,673,[0.16631366],100,53,easy,plus,dotcolour,alfa,,,126,18,V,R,
377,125,41,8,2,53,27,1550,['c'],1,left,['0'],6,241,[0.05959386],99,53,easy,plus,dotcolour,alfa,,,126,18,V,R,
378,0,0,9,3,47,33,1101,['c'],1,left,['0'],6,966,[0.10211985],72,47,medium,minus,dotcolour,alfa,,,126,18,V,R,
379,1,1,9,3,47,33,1784,['c'],1,left,['0'],6,521,[0.01967513],56,47,medium,minus,dotcolour,alfa,,,126,18,V,R,
380,2,2,9,3,33,47,799,['n'],1,right,['0'],6,525,[-0.14996728],87,47,medium,minus,dotcolour,alfa,,,126,18,V,R,
381,3,3,9,3,36,44,567,['n'],1,right,['0'],6,371,[-0.16200535],92,44,hard,minus,dotcolour,alfa,,,126,18,V,R,
382,4,4,9,3,27,53,550,['n'],1,right,['0'],6,343,[-0.14840216],91,53,easy,minus,dotcolour,alfa,,,126,18,V,R,
383,5,5,9,3,36,44,433,['n'],1,right,['0'],6,386,[-0.06919871],73,44,hard,minus,dotcolour,alfa,,,126,18,V,R,
384,6,6,9,3,36,44,384,['n'],1,right,['0'],6,500,[-0.03582932],61,44,hard,minus,dotcolour,alfa,,,126,18,V,R,
385,7,7,9,3,27,53,799,['n'],1,right,['0'],6,345,[-0.12307909],87,53,easy,minus,dotcolour,alfa,,,126,18,V,R,
386,8,8,9,3,33,47,534,['n'],1,right,['0'],6,303,[-0.00095076],50,47,medium,minus,dotcolour,alfa,,,126,18,V,R,
387,9,9,9,3,36,44,1068,['n'],1,right,['9'],5,659,[-0.14940489],84,44,hard,minus,dotcolour,alfa,,,126,18,V,R,
388,10,10,9,3,53,27,883,['c'],1,left,['0'],6,349,[0.15438069],91,53,easy,minus,dotcolour,alfa,,,126,18,V,R,
389,11,11,9,3,33,47,1118,['n'],1,right,['9'],5,676,[-0.0737705],69,47,medium,minus,dotcolour,alfa,,,126,18,V,R,
390,12,12,9,3,44,36,734,['n'],0,left,['0'],6,397,[-0.01387648],55,44,hard,minus,dotcolour,alfa,,,126,18,V,R,
391,13,13,9,3,44,36,2000,['c'],1,left,['8'],4,638,[0.05010011],64,44,hard,minus,dotcolour,alfa,,,126,18,V,R,
392,14,14,9,3,33,47,917,['n'],1,right,['0'],6,482,[-0.07238062],72,47,medium,minus,dotcolour,alfa,,,126,18,V,R,
393,15,15,9,3,33,47,683,['n'],1,right,['9'],5,524,[-0.12174785],82,47,medium,minus,dotcolour,alfa,,,126,18,V,R,
394,16,16,9,3,44,36,1467,['n'],0,left,['9'],5,294,[-0.06840708],76,44,hard,minus,dotcolour,alfa,,,126,18,V,R,
395,17,17,9,3,53,27,682,['c'],1,left,['0'],6,383,[0.07653406],75,53,easy,minus,dotcolour,alfa,,,126,18,V,R,
396,18,18,9,3,27,53,850,['n'],1,right,['0'],6,344,[-0.25908931],98,53,easy,minus,dotcolour,alfa,,,126,18,V,R,
397,19,19,9,3,47,33,2184,['n'],0,left,['9'],5,379,[0.07732977],24,47,medium,minus,dotcolour,alfa,,,126,18,V,R,
398,20,20,9,3,36,44,984,['n'],1,right,['0'],6,486,[-0.0130429],54,44,hard,minus,dotcolour,alfa,,,126,18,V,R,
399,21,21,9,3,53,27,1384,['c'],1,left,['0'],6,868,[0.15023135],81,53,easy,minus,dotcolour,alfa,,,126,18,V,R,
400,22,22,9,3,36,44,1133,['n'],1,right,['0'],6,774,[-0.31269924],96,44,hard,minus,dotcolour,alfa,,,126,18,V,R,
401,23,23,9,3,27,53,767,['n'],1,right,['0'],6,529,[-0.17106643],89,53,easy,minus,dotcolour,alfa,,,126,18,V,R,
402,24,24,9,3,47,33,1683,['c'],1,left,['9'],5,666,[0.16551914],86,47,medium,minus,dotcolour,alfa,,,126,18,V,R,
403,25,25,9,3,53,27,1267,['c'],1,left,['0'],6,373,[0.19182791],94,53,easy,minus,dotcolour,alfa,,,126,18,V,R,
404,26,26,9,3,44,36,684,['c'],1,left,['0'],6,340,[0.0880771],80,44,hard,minus,dotcolour,alfa,,,126,18,V,R,
405,27,27,9,3,53,27,751,['c'],1,left,['0'],6,329,[0.05716245],71,53,easy,minus,dotcolour,alfa,,,126,18,V,R,
406,28,28,9,3,47,33,1067,['c'],1,left,['0'],6,267,[0.19794566],97,47,medium,minus,dotcolour,alfa,,,126,18,V,R,
407,29,29,9,3,47,33,1267,['n'],0,left,['0'],6,455,[-0.09729308],79,47,medium,minus,dotcolour,alfa,,,126,18,V,R,
408,30,30,9,3,33,47,1017,['n'],1,right,['0'],6,461,[-0.1114931],81,47,medium,minus,dotcolour,alfa,,,126,18,V,R,
409,31,31,9,3,44,36,684,['c'],1,left,['0'],6,289,[0.13303774],90,44,hard,minus,dotcolour,alfa,,,126,18,V,R,
410,32,32,9,3,53,27,800,['c'],1,left,['0'],6,278,[0.07437],78,53,easy,minus,dotcolour,alfa,,,126,18,V,R,
411,33,33,9,3,47,33,816,['n'],0,left,['0'],6,324,[-0.01418628],56,47,medium,minus,dotcolour,alfa,,,126,18,V,R,
412,34,34,9,3,27,53,967,['n'],1,right,['0'],6,417,[-0.24286899],97,53,easy,minus,dotcolour,alfa,,,126,18,V,R,
413,35,35,9,3,33,47,617,['n'],1,right,['0'],6,329,[-0.19409345],95,47,medium,minus,dotcolour,alfa,,,126,18,V,R,
414,36,36,9,3,53,27,700,['c'],1,left,['0'],6,321,[0.03722151],64,53,easy,minus,dotcolour,alfa,,,126,18,V,R,
415,37,37,9,3,36,44,750,['n'],1,right,['0'],6,359,[0.01364364],45,44,hard,minus,dotcolour,alfa,,,126,18,V,R,
416,38,38,9,3,44,36,500,['n'],0,left,['0'],6,286,[-0.02546238],61,44,hard,minus,dotcolour,alfa,,,126,18,V,R,
417,39,39,9,3,27,53,468,['n'],1,right,['0'],6,266,[-0.19074074],97,53,easy,minus,dotcolour,alfa,,,126,18,V,R,
418,40,40,9,3,44,36,684,['c'],1,left,['0'],6,276,[0.1356145],91,44,hard,minus,dotcolour,alfa,,,126,18,V,R,
419,41,41,9,3,27,53,699,['n'],1,right,['0'],6,271,[-0.172294],95,53,easy,minus,dotcolour,alfa,,,126,18,V,R,
420,42,0,10,3,33,47,849,['n'],1,right,['0'],6,246,[-0.14859306],94,47,medium,minus,dotcolour,alfa,,,126,18,V,R,
421,43,1,10,3,33,47,449,['n'],1,right,['0'],6,260,[-0.15425447],94,47,medium,minus,dotcolour,alfa,,,126,18,V,R,
422,44,2,10,3,47,33,483,['n'],0,left,['0'],6,239,[-0.02763037],62,47,medium,minus,dotcolour,alfa,,,126,18,V,R,
423,45,3,10,3,44,36,1283,['c'],1,left,['8'],4,675,[0.11963224],79,44,hard,minus,dotcolour,alfa,,,126,18,V,R,
424,46,4,10,3,27,53,784,['n'],1,right,['0'],6,474,[-0.24123977],96,53,easy,minus,dotcolour,alfa,,,126,18,V,R,
425,47,5,10,3,47,33,400,['n'],0,left,['1'],1,1256,[0.15316363],23,47,medium,minus,dotcolour,alfa,,,126,18,V,R,
426,48,6,10,3,53,27,2250,['c'],1,left,['0'],6,1197,[0.21570028],85,53,easy,minus,dotcolour,alfa,,,126,18,V,R,
427,49,7,10,3,36,44,667,['n'],1,right,['0'],6,268,[-0.09052495],83,44,hard,minus,dotcolour,alfa,,,126,18,V,R,
428,50,8,10,3,47,33,634,['n'],0,left,['3'],3,1897,[0.03928884],44,47,medium,minus,dotcolour,alfa,,,126,18,V,R,
429,51,9,10,3,27,53,1051,['n'],1,right,['0'],6,300,[-0.06139323],73,53,easy,minus,dotcolour,alfa,,,126,18,V,R,
430,52,10,10,3,44,36,600,['n'],0,left,['0'],6,321,[-0.01786127],57,44,hard,minus,dotcolour,alfa,,,126,18,V,R,
431,53,11,10,3,33,47,600,['n'],1,right,['0'],6,262,[-0.04653946],69,47,medium,minus,dotcolour,alfa,,,126,18,V,R,
432,54,12,10,3,53,27,750,['n'],0,left,['0'],6,254,[0.0122959],45,53,easy,minus,dotcolour,alfa,,,126,18,V,R,
433,55,13,10,3,36,44,635,['n'],1,right,['0'],6,276,[-0.08271318],80,44,hard,minus,dotcolour,alfa,,,126,18,V,R,
434,56,14,10,3,44,36,650,['n'],0,left,['8'],4,1032,[0.06622628],36,44,hard,minus,dotcolour,alfa,,,126,18,V,R,
435,57,15,10,3,53,27,1234,['c'],1,left,['0'],6,302,[0.10039631],84,53,easy,minus,dotcolour,alfa,,,126,18,V,R,
436,58,16,10,3,36,44,717,['n'],1,right,['0'],6,343,[-0.17874917],94,44,hard,minus,dotcolour,alfa,,,126,18,V,R,
437,59,17,10,3,53,27,700,['c'],1,left,['0'],6,479,[0.31887401],98,53,easy,minus,dotcolour,alfa,,,126,18,V,R,
438,60,18,10,3,53,27,632,['c'],1,left,['0'],6,444,[0.09844563],79,53,easy,minus,dotcolour,alfa,,,126,18,V,R,
439,61,19,10,3,36,44,1050,['n'],1,right,['9'],5,921,[0.07441596],33,44,hard,minus,dotcolour,alfa,,,126,18,V,R,
440,62,20,10,3,47,33,1167,['c'],1,left,['0'],6,302,[0.17509044],95,47,medium,minus,dotcolour,alfa,,,126,18,V,R,
441,63,21,10,3,33,47,682,['n'],1,right,['0'],6,304,[-0.15946008],93,47,medium,minus,dotcolour,alfa,,,126,18,V,R,
442,64,22,10,3,47,33,683,['c'],1,left,['1'],1,1786,[0.37296216],92,47,medium,minus,dotcolour,alfa,,,126,18,V,R,
443,65,23,10,3,53,27,501,['n'],0,left,['1'],1,2968,[0.56251322],5,53,easy,minus,dotcolour,alfa,,,126,18,V,R,
444,66,24,10,3,36,44,818,['n'],1,right,['0'],6,433,[-0.10670336],81,44,hard,minus,dotcolour,alfa,,,126,18,V,R,
445,67,25,10,3,27,53,733,['n'],1,right,['0'],6,339,[-0.16017525],92,53,easy,minus,dotcolour,alfa,,,126,18,V,R,
446,68,26,10,3,44,36,1083,['c'],1,left,['0'],6,276,[-0.01112404],45,44,hard,minus,dotcolour,alfa,,,126,18,V,R,
447,69,27,10,3,44,36,1699,['c'],1,left,['0'],6,398,[0.1011583],81,44,hard,minus,dotcolour,alfa,,,126,18,V,R,
448,70,28,10,3,33,47,633,['n'],1,right,['0'],6,269,[-0.15167932],93,47,medium,minus,dotcolour,alfa,,,126,18,V,R,
449,71,29,10,3,47,33,783,['c'],1,left,['0'],6,253,[0.09798449],85,47,medium,minus,dotcolour,alfa,,,126,18,V,R,
450,72,30,10,3,27,53,684,['n'],1,right,['0'],6,225,[-0.07762227],81,53,easy,minus,dotcolour,alfa,,,126,18,V,R,
451,73,31,10,3,27,53,667,['n'],1,right,['0'],6,270,[-0.11675078],88,53,easy,minus,dotcolour,alfa,,,126,18,V,R,
452,74,32,10,3,47,33,583,['c'],1,left,['0'],6,261,[0.11463149],88,47,medium,minus,dotcolour,alfa,,,126,18,V,R,
453,75,33,10,3,27,53,517,['n'],1,right,['0'],6,232,[-0.11125115],89,53,easy,minus,dotcolour,alfa,,,126,18,V,R,
454,76,34,10,3,36,44,632,['n'],1,right,['0'],6,326,[-0.08555522],79,44,hard,minus,dotcolour,alfa,,,126,18,V,R,
455,77,35,10,3,44,36,767,['c'],1,left,['0'],6,244,[0.11089913],88,44,hard,minus,dotcolour,alfa,,,126,18,V,R,
456,78,36,10,3,33,47,483,['n'],1,right,['0'],6,280,[-0.08823502],82,47,medium,minus,dotcolour,alfa,,,126,18,V,R,
457,79,37,10,3,44,36,450,['c'],1,left,['0'],6,260,[0.11944781],89,44,hard,minus,dotcolour,alfa,,,126,18,V,R,
458,80,38,10,3,36,44,600,['n'],1,right,['0'],6,483,[-0.09564896],78,44,hard,minus,dotcolour,alfa,,,126,18,V,R,
459,81,39,10,3,53,27,567,['c'],1,left,['0'],6,218,[0.09771749],87,53,easy,minus,dotcolour,alfa,,,126,18,V,R,
460,82,40,10,3,27,53,750,['c'],0,right,['0'],6,380,[0.03753154],63,53,easy,minus,dotcolour,alfa,,,126,18,V,R,
461,83,41,10,3,33,47,767,['n'],1,right,['0'],6,304,[-0.11662139],87,47,medium,minus,dotcolour,alfa,,,126,18,V,R,
462,84,0,11,3,36,44,2201,['n'],1,right,['0'],6,1768,[-0.35049653],91,44,hard,minus,dotcolour,alfa,,,126,18,V,R,
463,85,1,11,3,44,36,568,['n'],0,left,['0'],6,627,[-0.06624757],68,44,hard,minus,dotcolour,alfa,,,126,18,V,R,
464,86,2,11,3,44,36,667,['n'],0,left,['0'],6,281,[-0.09377457],83,44,hard,minus,dotcolour,alfa,,,126,18,V,R,
465,87,3,11,3,33,47,517,['n'],1,right,['0'],6,298,[-0.01746861],57,47,medium,minus,dotcolour,alfa,,,126,18,V,R,
466,88,4,11,3,47,33,750,['c'],1,left,['8'],4,513,[0.12319081],82,47,medium,minus,dotcolour,alfa,,,126,18,V,R,
467,89,5,11,3,33,47,467,['n'],1,right,['9'],5,547,[-0.18172247],90,47,medium,minus,dotcolour,alfa,,,126,18,V,R,
468,90,6,11,3,36,44,467,['n'],1,right,['0'],6,388,[-0.03773992],63,44,hard,minus,dotcolour,alfa,,,126,18,V,R,
469,91,7,11,3,47,33,600,['n'],0,left,['9'],5,797,[0.11202701],24,47,medium,minus,dotcolour,alfa,,,126,18,V,R,
470,92,8,11,3,44,36,584,['n'],0,left,['9'],5,511,[-0.07538255],72,44,hard,minus,dotcolour,alfa,,,126,18,V,R,
471,93,9,11,3,36,44,451,['n'],1,right,['9'],5,570,[0.00461796],49,44,hard,minus,dotcolour,alfa,,,126,18,V,R,
472,94,10,11,3,53,27,1200,['c'],1,left,['9'],5,620,[0.26999862],96,53,easy,minus,dotcolour,alfa,,,126,18,V,R,
473,95,11,11,3,53,27,1350,['c'],1,left,['9'],5,582,[0.20830855],92,53,easy,minus,dotcolour,alfa,,,126,18,V,R,
474,96,12,11,3,36,44,733,['n'],1,right,['0'],6,610,[-0.07643815],71,44,hard,minus,dotcolour,alfa,,,126,18,V,R,
475,97,13,11,3,47,33,1284,['n'],0,left,['0'],6,504,[0.04018489],38,47,medium,minus,dotcolour,alfa,,,126,18,V,R,
476,98,14,11,3,36,44,650,['n'],1,right,['0'],6,675,[-0.01764781],55,44,hard,minus,dotcolour,alfa,,,126,18,V,R,
477,99,15,11,3,36,44,667,['n'],1,right,['0'],6,446,[-0.09808757],79,44,hard,minus,dotcolour,alfa,,,126,18,V,R,
478,100,16,11,3,33,47,535,['n'],1,right,['0'],6,457,[-0.04021631],63,47,medium,minus,dotcolour,alfa,,,126,18,V,R,
479,101,17,11,3,47,33,1600,['c'],1,left,['9'],5,831,[0.19870639],88,47,medium,minus,dotcolour,alfa,,,126,18,V,R,
480,102,18,11,3,53,27,801,['c'],1,left,['0'],6,582,[0.09812333],76,53,easy,minus,dotcolour,alfa,,,126,18,V,R,
481,103,19,11,3,27,53,617,['n'],1,right,['0'],6,345,[-0.04411951],66,53,easy,minus,dotcolour,alfa,,,126,18,V,R,
482,104,20,11,3,27,53,950,['n'],1,right,['0'],6,414,[-0.13791801],87,53,easy,minus,dotcolour,alfa,,,126,18,V,R,
483,105,21,11,3,53,27,900,['c'],1,left,['0'],6,315,[0.13878234],90,53,easy,minus,dotcolour,alfa,,,126,18,V,R,
484,106,22,11,3,53,27,699,['c'],1,left,['0'],6,315,[0.10791689],85,53,easy,minus,dotcolour,alfa,,,126,18,V,R,
485,107,23,11,3,33,47,800,['n'],1,right,['0'],6,272,[-0.11891974],89,47,medium,minus,dotcolour,alfa,,,126,18,V,R,
486,108,24,11,3,47,33,866,['c'],1,left,['0'],6,227,[0.05597246],74,47,medium,minus,dotcolour,alfa,,,126,18,V,R,
487,109,25,11,3,27,53,717,['n'],1,right,['0'],6,295,[-0.16178224],94,53,easy,minus,dotcolour,alfa,,,126,18,V,R,
488,110,26,11,3,27,53,800,['n'],1,right,['0'],6,244,[-0.12464679],91,53,easy,minus,dotcolour,alfa,,,126,18,V,R,
489,111,27,11,3,44,36,1000,['c'],1,left,['0'],6,195,[0.15880961],96,44,hard,minus,dotcolour,alfa,,,126,18,V,R,
490,112,28,11,3,36,44,817,['n'],1,right,['0'],6,260,[-0.09857041],85,44,hard,minus,dotcolour,alfa,,,126,18,V,R,
491,113,29,11,3,27,53,533,['n'],1,right,['0'],6,261,[-0.09046702],83,53,easy,minus,dotcolour,alfa,,,126,18,V,R,
492,114,30,11,3,53,27,533,['n'],0,left,['8'],4,1719,[0.05257567],41,53,easy,minus,dotcolour,alfa,,,126,18,V,R,
493,115,31,11,3,33,47,850,['n'],1,right,['0'],6,881,[-0.23103122],90,47,medium,minus,dotcolour,alfa,,,126,18,V,R,
494,116,32,11,3,44,36,917,['c'],1,left,['9'],5,794,[0.18232109],86,44,hard,minus,dotcolour,alfa,,,126,18,V,R,
495,117,33,11,3,44,36,1015,['n'],0,left,['0'],6,339,[-0.06887769],74,44,hard,minus,dotcolour,alfa,,,126,18,V,R,
496,118,34,11,3,44,36,850,['c'],1,left,['0'],6,316,[0.18416399],95,44,hard,minus,dotcolour,alfa,,,126,18,V,R,
497,119,35,11,3,27,53,667,['n'],1,right,['0'],6,574,[-0.2744444],96,53,easy,minus,dotcolour,alfa,,,126,18,V,R,
498,120,36,11,3,33,47,583,['n'],1,right,['0'],6,921,[-0.01840602],54,47,medium,minus,dotcolour,alfa,,,126,18,V,R,
499,121,37,11,3,53,27,817,['c'],1,left,['0'],6,1420,[0.10413367],69,53,easy,minus,dotcolour,alfa,,,126,18,V,R,
500,122,38,11,3,47,33,884,['c'],1,left,['9'],5,417,[0.08725724],77,47,medium,minus,dotcolour,alfa,,,126,18,V,R,
501,123,39,11,3,47,33,1450,['c'],1,left,['9'],5,304,[0.02399273],60,47,medium,minus,dotcolour,alfa,,,126,18,V,R,
502,124,40,11,3,27,53,599,['n'],1,right,['0'],6,374,[-0.19329318],95,53,easy,minus,dotcolour,alfa,,,126,18,V,R,
503,125,41,11,3,33,47,1267,['c'],0,right,['9'],5,708,[0.09425793],73,47,medium,minus,dotcolour,alfa,,,126,18,V,R,
504,0,0,12,4,53,27,1484,['c'],1,left,['9'],5,602,[0.16357782],100,53,easy,plus,dotcolour,alfa,,,126,18,V,R,
505,1,1,12,4,36,44,717,['n'],1,right,['0'],6,359,[-0.11471103],100,44,hard,plus,dotcolour,alfa,,,126,18,V,R,
506,2,2,12,4,36,44,534,['n'],1,right,['0'],6,404,[-0.07036511],98,44,hard,plus,dotcolour,alfa,,,126,18,V,R,
507,3,3,12,4,47,33,1017,['n'],0,left,['0'],6,372,[-0.13161152],100,47,medium,plus,dotcolour,alfa,,,126,18,V,R,
508,4,4,12,4,44,36,983,['n'],0,left,['0'],6,335,[-0.00717269],61,44,hard,plus,dotcolour,alfa,,,126,18,V,R,
509,5,5,12,4,47,33,667,['c'],1,left,['0'],6,385,[0.10606927],100,47,medium,plus,dotcolour,alfa,,,126,18,V,R,
510,6,6,12,4,44,36,584,['c'],1,left,['0'],6,323,[0.12148118],100,44,hard,plus,dotcolour,alfa,,,126,18,V,R,
511,7,7,12,4,44,36,1183,['n'],0,left,['0'],6,336,[0.03179019],12,44,hard,plus,dotcolour,alfa,,,126,18,V,R,
512,8,8,12,4,47,33,750,['n'],0,left,['0'],6,430,[0.04658112],7,47,medium,plus,dotcolour,alfa,,,126,18,V,R,
513,9,9,12,4,44,36,1067,['n'],0,left,['0'],6,451,[-0.05189967],94,44,hard,plus,dotcolour,alfa,,,126,18,V,R,
514,10,10,12,4,33,47,984,['n'],1,right,['0'],6,308,[-0.02743471],86,47,medium,plus,dotcolour,alfa,,,126,18,V,R,
515,11,11,12,4,33,47,1000,['n'],1,right,['0'],6,296,[-0.1219265],100,47,medium,plus,dotcolour,alfa,,,126,18,V,R,
516,12,12,12,4,44,36,784,['n'],0,left,['0'],6,303,[0.00083927],49,44,hard,plus,dotcolour,alfa,,,126,18,V,R,
517,13,13,12,4,33,47,867,['n'],1,right,['0'],6,289,[-0.15321593],100,47,medium,plus,dotcolour,alfa,,,126,18,V,R,
518,14,14,12,4,33,47,683,['n'],1,right,['0'],6,284,[-0.00489777],58,47,medium,plus,dotcolour,alfa,,,126,18,V,R,
519,15,15,12,4,53,27,700,['c'],1,left,['0'],6,301,[0.00434274],57,53,easy,plus,dotcolour,alfa,,,126,18,V,R,
520,16,16,12,4,47,33,1050,['c'],1,left,['0'],6,352,[0.11124532],100,47,medium,plus,dotcolour,alfa,,,126,18,V,R,
521,17,17,12,4,53,27,583,['c'],1,left,['0'],6,324,[0.09167526],100,53,easy,plus,dotcolour,alfa,,,126,18,V,R,
522,18,18,12,4,27,53,733,['n'],1,right,['0'],6,364,[-0.27642856],100,53,easy,plus,dotcolour,alfa,,,126,18,V,R,
523,19,19,12,4,27,53,1234,['n'],1,right,['0'],6,324,[-0.13523497],100,53,easy,plus,dotcolour,alfa,,,126,18,V,R,
524,20,20,12,4,27,53,650,['n'],1,right,['0'],6,342,[-0.23272496],100,53,easy,plus,dotcolour,alfa,,,126,18,V,R,
525,21,21,12,4,27,53,617,['n'],1,right,['9'],5,449,[-0.20603229],100,53,easy,plus,dotcolour,alfa,,,126,18,V,R,
526,22,22,12,4,53,27,800,['c'],1,left,['0'],6,224,[0.11310565],100,53,easy,plus,dotcolour,alfa,,,126,18,V,R,
527,23,23,12,4,36,44,767,['n'],1,right,['0'],6,338,[-0.04250174],93,44,hard,plus,dotcolour,alfa,,,126,18,V,R,
528,24,24,12,4,33,47,517,['n'],1,right,['0'],6,313,[-0.02647867],85,47,medium,plus,dotcolour,alfa,,,126,18,V,R,
529,25,25,12,4,27,53,515,['n'],1,right,['0'],6,409,[-0.1248928],100,53,easy,plus,dotcolour,alfa,,,126,18,V,R,
530,26,26,12,4,36,44,550,['n'],1,right,['0'],6,339,[-0.13176406],100,44,hard,plus,dotcolour,alfa,,,126,18,V,R,
531,27,27,12,4,36,44,617,['n'],1,right,['0'],6,350,[-0.16989685],100,44,hard,plus,dotcolour,alfa,,,126,18,V,R,
532,28,28,12,4,44,36,1249,['c'],1,left,['0'],6,287,[0.14001029],100,44,hard,plus,dotcolour,alfa,,,126,18,V,R,
533,29,29,12,4,47,33,766,['n'],0,left,['0'],6,527,[-0.07741131],98,47,medium,plus,dotcolour,alfa,,,126,18,V,R,
534,30,30,12,4,27,53,983,['n'],1,right,['0'],6,323,[-0.03135969],88,53,easy,plus,dotcolour,alfa,,,126,18,V,R,
535,31,31,12,4,53,27,817,['c'],1,left,['0'],6,327,[0.18891588],100,53,easy,plus,dotcolour,alfa,,,126,18,V,R,
536,32,32,12,4,36,44,1150,['n'],1,right,['0'],6,301,[-0.14930408],100,44,hard,plus,dotcolour,alfa,,,126,18,V,R,
537,33,33,12,4,47,33,700,['c'],1,left,['0'],6,294,[0.16438598],100,47,medium,plus,dotcolour,alfa,,,126,18,V,R,
538,34,34,12,4,33,47,717,['n'],1,right,['0'],6,359,[-0.18233735],100,47,medium,plus,dotcolour,alfa,,,126,18,V,R,
539,35,35,12,4,44,36,1150,['c'],1,left,['0'],6,395,[-0.01925776],25,44,hard,plus,dotcolour,alfa,,,126,18,V,R,
540,36,36,12,4,33,47,651,['n'],1,right,['0'],6,339,[-0.15677894],100,47,medium,plus,dotcolour,alfa,,,126,18,V,R,
541,37,37,12,4,47,33,433,['n'],0,left,['0'],6,349,[0.01196767],33,47,medium,plus,dotcolour,alfa,,,126,18,V,R,
542,38,38,12,4,27,53,801,['n'],1,right,['0'],6,336,[-0.26546617],100,53,easy,plus,dotcolour,alfa,,,126,18,V,R,
543,39,39,12,4,53,27,817,['c'],1,left,['0'],6,476,[0.00862914],61,53,easy,plus,dotcolour,alfa,,,126,18,V,R,
544,40,40,12,4,36,44,600,['n'],1,right,['0'],6,282,[-0.11899085],100,44,hard,plus,dotcolour,alfa,,,126,18,V,R,
545,41,41,12,4,53,27,633,['c'],1,left,['9'],5,934,[0.25505158],100,53,easy,plus,dotcolour,alfa,,,126,18,V,R,
546,42,0,13,4,27,53,1051,['n'],1,right,['0'],6,337,[-0.13096036],100,53,easy,plus,dotcolour,alfa,,,126,18,V,R,
547,43,1,13,4,53,27,800,['c'],1,left,['0'],6,302,[0.09251446],100,53,easy,plus,dotcolour,alfa,,,126,18,V,R,
548,44,2,13,4,36,44,617,['n'],1,right,['0'],6,323,[-0.04360043],94,44,hard,plus,dotcolour,alfa,,,126,18,V,R,
549,45,3,13,4,44,36,717,['c'],1,left,['9'],5,673,[0.0552581],92,44,hard,plus,dotcolour,alfa,,,126,18,V,R,
550,46,4,13,4,53,27,800,['c'],1,left,['9'],5,352,[0.06681169],98,53,easy,plus,dotcolour,alfa,,,126,18,V,R,
551,47,5,13,4,27,53,1250,['n'],1,right,['0'],6,266,[-0.15101559],100,53,easy,plus,dotcolour,alfa,,,126,18,V,R,
552,48,6,13,4,27,53,566,['n'],1,right,['0'],6,370,[-0.11351487],100,53,easy,plus,dotcolour,alfa,,,126,18,V,R,
553,49,7,13,4,33,47,550,['n'],1,right,['0'],6,350,[-0.09193442],100,47,medium,plus,dotcolour,alfa,,,126,18,V,R,
554,50,8,13,4,47,33,1017,['c'],1,left,['0'],6,257,[0.17290082],100,47,medium,plus,dotcolour,alfa,,,126,18,V,R,
555,51,9,13,4,44,36,817,['n'],0,left,['0'],6,319,[-0.0141683],71,44,hard,plus,dotcolour,alfa,,,126,18,V,R,
556,52,10,13,4,53,27,684,['c'],1,left,['0'],6,408,[0.16296326],100,53,easy,plus,dotcolour,alfa,,,126,18,V,R,
557,53,11,13,4,44,36,601,['c'],1,left,['0'],6,353,[0.08838082],100,44,hard,plus,dotcolour,alfa,,,126,18,V,R,
558,54,12,13,4,44,36,733,['n'],0,left,['0'],6,287,[-0.07299234],99,44,hard,plus,dotcolour,alfa,,,126,18,V,R,
559,55,13,13,4,44,36,1651,['c'],1,left,['9'],5,299,[0.11978037],100,44,hard,plus,dotcolour,alfa,,,126,18,V,R,
560,56,14,13,4,33,47,684,['n'],1,right,['0'],6,309,[-0.08535283],100,47,medium,plus,dotcolour,alfa,,,126,18,V,R,
561,57,15,13,4,33,47,734,['n'],1,right,['9'],5,437,[-0.18392208],100,47,medium,plus,dotcolour,alfa,,,126,18,V,R,
562,58,16,13,4,33,47,617,['n'],1,right,['9'],5,292,[-0.11593958],100,47,medium,plus,dotcolour,alfa,,,126,18,V,R,
563,59,17,13,4,44,36,716,['n'],0,left,['9'],5,276,[-0.05749564],98,44,hard,plus,dotcolour,alfa,,,126,18,V,R,
564,60,18,13,4,33,47,601,['n'],1,right,['9'],5,290,[-0.06733915],99,47,medium,plus,dotcolour,alfa,,,126,18,V,R,
565,61,19,13,4,47,33,451,['n'],0,left,['9'],5,310,[-0.06974301],99,47,medium,plus,dotcolour,alfa,,,126,18,V,R,
566,62,20,13,4,47,33,567,['c'],1,left,['9'],5,324,[0.1176376],100,47,medium,plus,dotcolour,alfa,,,126,18,V,R,
567,63,21,13,4,53,27,750,['c'],1,left,['9'],5,274,[0.16257891],100,53,easy,plus,dotcolour,alfa,,,126,18,V,R,
568,64,22,13,4,47,33,467,['c'],1,left,['0'],6,405,[0.05441664],96,47,medium,plus,dotcolour,alfa,,,126,18,V,R,
569,65,23,13,4,53,27,534,['c'],1,left,['0'],6,272,[0.10995525],100,53,easy,plus,dotcolour,alfa,,,126,18,V,R,
570,66,24,13,4,33,47,1034,['n'],1,right,['0'],6,461,[-0.11464464],100,47,medium,plus,dotcolour,alfa,,,126,18,V,R,
571,67,25,13,4,47,33,667,['c'],1,left,['8'],4,945,[0.13864903],99,47,medium,plus,dotcolour,alfa,,,126,18,V,R,
572,68,26,13,4,36,44,2501,['n'],1,right,['8'],4,897,[-0.11384155],99,44,hard,plus,dotcolour,alfa,,,126,18,V,R,
573,69,27,13,4,36,44,1017,['n'],1,right,['9'],5,581,[-0.18530366],100,44,hard,plus,dotcolour,alfa,,,126,18,V,R,
574,70,28,13,4,53,27,2300,['c'],1,left,['9'],5,691,[0.1616694],100,53,easy,plus,dotcolour,alfa,,,126,18,V,R,
575,71,29,13,4,27,53,1001,['n'],1,right,['8'],4,969,[-0.16736276],100,53,easy,plus,dotcolour,alfa,,,126,18,V,R,
576,72,30,13,4,36,44,817,['c'],0,right,['9'],5,410,[0.02949406],84,44,hard,plus,dotcolour,alfa,,,126,18,V,R,
577,73,31,13,4,27,53,850,['n'],1,right,['9'],5,609,[-0.11997707],100,53,easy,plus,dotcolour,alfa,,,126,18,V,R,
578,74,32,13,4,33,47,1034,['n'],1,right,['0'],6,584,[-0.24776032],100,47,medium,plus,dotcolour,alfa,,,126,18,V,R,
579,75,33,13,4,36,44,700,['n'],1,right,['0'],6,606,[-0.13395296],100,44,hard,plus,dotcolour,alfa,,,126,18,V,R,
580,76,34,13,4,47,33,817,['c'],1,left,['0'],6,510,[0.13251436],100,47,medium,plus,dotcolour,alfa,,,126,18,V,R,
581,77,35,13,4,47,33,1367,['c'],1,left,['0'],6,781,[0.13268632],100,47,medium,plus,dotcolour,alfa,,,126,18,V,R,
582,78,36,13,4,27,53,466,['n'],1,right,['0'],6,275,[-0.14652851],100,53,easy,plus,dotcolour,alfa,,,126,18,V,R,
583,79,37,13,4,44,36,434,['n'],0,left,['0'],6,385,[-0.0601811],97,44,hard,plus,dotcolour,alfa,,,126,18,V,R,
584,80,38,13,4,27,53,618,['n'],1,right,['0'],6,338,[-0.14243835],100,53,easy,plus,dotcolour,alfa,,,126,18,V,R,
585,81,39,13,4,36,44,483,['n'],1,right,['0'],6,274,[-0.13261658],100,44,hard,plus,dotcolour,alfa,,,126,18,V,R,
586,82,40,13,4,36,44,667,['n'],1,right,['0'],6,301,[-0.03631818],92,44,hard,plus,dotcolour,alfa,,,126,18,V,R,
587,83,41,13,4,53,27,599,['c'],1,left,['0'],6,259,[0.09586818],100,53,easy,plus,dotcolour,alfa,,,126,18,V,R,
588,84,0,14,4,47,33,684,['c'],1,left,['0'],6,222,[0.06295111],99,47,medium,plus,dotcolour,alfa,,,126,18,V,R,
589,85,1,14,4,27,53,500,['c'],0,right,['0'],6,459,[-0.03111808],16,53,easy,plus,dotcolour,alfa,,,126,18,V,R,
590,86,2,14,4,44,36,417,['n'],0,left,['0'],6,433,[-0.05226632],95,44,hard,plus,dotcolour,alfa,,,126,18,V,R,
591,87,3,14,4,47,33,632,['c'],1,left,['0'],6,239,[0.13141699],100,47,medium,plus,dotcolour,alfa,,,126,18,V,R,
592,88,4,14,4,36,44,649,['c'],0,right,['0'],6,245,[0.10697407],100,44,hard,plus,dotcolour,alfa,,,126,18,V,R,
593,89,5,14,4,36,44,1000,['n'],1,right,['0'],6,284,[-0.21332674],100,44,hard,plus,dotcolour,alfa,,,126,18,V,R,
594,90,6,14,4,33,47,950,['n'],1,right,['0'],6,340,[-0.06360423],98,47,medium,plus,dotcolour,alfa,,,126,18,V,R,
595,91,7,14,4,33,47,867,['n'],1,right,['0'],6,325,[-0.18297527],100,47,medium,plus,dotcolour,alfa,,,126,18,V,R,
596,92,8,14,4,33,47,615,['n'],1,right,['0'],6,257,[-0.17696225],100,47,medium,plus,dotcolour,alfa,,,126,18,V,R,
597,93,9,14,4,53,27,600,['c'],1,left,['0'],6,247,[0.15012521],100,53,easy,plus,dotcolour,alfa,,,126,18,V,R,
598,94,10,14,4,33,47,516,['n'],1,right,['0'],6,345,[-0.04995734],96,47,medium,plus,dotcolour,alfa,,,126,18,V,R,
599,95,11,14,4,27,53,533,['n'],1,right,['0'],6,384,[-0.2203577],100,53,easy,plus,dotcolour,alfa,,,126,18,V,R,
600,96,12,14,4,44,36,733,['c'],1,left,['0'],6,396,[0.23394205],100,44,hard,plus,dotcolour,alfa,,,126,18,V,R,
601,97,13,14,4,33,47,1784,['n'],1,right,['0'],6,1342,[-0.19131031],100,47,medium,plus,dotcolour,alfa,,,126,18,V,R,
602,98,14,14,4,44,36,850,['n'],0,left,['0'],6,287,[0.06245682],1,44,hard,plus,dotcolour,alfa,,,126,18,V,R,
603,99,15,14,4,53,27,750,['c'],1,left,['0'],6,471,[0.23439426],100,53,easy,plus,dotcolour,alfa,,,126,18,V,R,
604,100,16,14,4,27,53,650,['n'],1,right,['0'],6,267,[-0.11703981],100,53,easy,plus,dotcolour,alfa,,,126,18,V,R,
605,101,17,14,4,47,33,1233,['c'],1,left,['0'],6,281,[0.12807324],100,47,medium,plus,dotcolour,alfa,,,126,18,V,R,
606,102,18,14,4,53,27,867,['c'],1,left,['0'],6,140,[0.11001507],100,53,easy,plus,dotcolour,alfa,,,126,18,V,R,
607,103,19,14,4,27,53,1000,['n'],1,right,['0'],6,264,[-0.14665896],100,53,easy,plus,dotcolour,alfa,,,126,18,V,R,
608,104,20,14,4,36,44,884,['n'],1,right,['0'],6,427,[-0.08861941],99,44,hard,plus,dotcolour,alfa,,,126,18,V,R,
609,105,21,14,4,33,47,634,['n'],1,right,['0'],6,321,[-0.07963305],99,47,medium,plus,dotcolour,alfa,,,126,18,V,R,
610,106,22,14,4,36,44,1650,['n'],1,right,['0'],6,203,[-0.07917083],100,44,hard,plus,dotcolour,alfa,,,126,18,V,R,
611,107,23,14,4,44,36,701,['n'],0,left,['0'],6,273,[-0.00069857],51,44,hard,plus,dotcolour,alfa,,,126,18,V,R,
612,108,24,14,4,33,47,517,['n'],1,right,['0'],6,330,[0.0001982],50,47,medium,plus,dotcolour,alfa,,,126,18,V,R,
613,109,25,14,4,27,53,418,['n'],1,right,['0'],6,294,[-0.09996899],100,53,easy,plus,dotcolour,alfa,,,126,18,V,R,
614,110,26,14,4,44,36,851,['n'],0,left,['0'],6,417,[0.05136915],5,44,hard,plus,dotcolour,alfa,,,126,18,V,R,
615,111,27,14,4,36,44,816,['n'],1,right,['0'],6,321,[-0.09359819],100,44,hard,plus,dotcolour,alfa,,,126,18,V,R,
616,112,28,14,4,44,36,600,['c'],1,left,['9'],5,462,[0.13596696],100,44,hard,plus,dotcolour,alfa,,,126,18,V,R,
617,113,29,14,4,47,33,816,['c'],1,left,['0'],6,252,[0.15673],100,47,medium,plus,dotcolour,alfa,,,126,18,V,R,
618,114,30,14,4,27,53,584,['n'],1,right,['0'],6,660,[-0.30538533],100,53,easy,plus,dotcolour,alfa,,,126,18,V,R,
619,115,31,14,4,47,33,767,['n'],0,left,['0'],6,292,[0.01293033],30,47,medium,plus,dotcolour,alfa,,,126,18,V,R,
620,116,32,14,4,53,27,550,['c'],1,left,['0'],6,284,[0.08097082],100,53,easy,plus,dotcolour,alfa,,,126,18,V,R,
621,117,33,14,4,27,53,685,['n'],1,right,['0'],6,286,[-0.03919749],93,53,easy,plus,dotcolour,alfa,,,126,18,V,R,
622,118,34,14,4,53,27,534,['c'],1,left,['0'],6,399,[0.07168148],98,53,easy,plus,dotcolour,alfa,,,126,18,V,R,
623,119,35,14,4,44,36,867,['n'],0,left,['0'],6,461,[-0.03318204],85,44,hard,plus,dotcolour,alfa,,,126,18,V,R,
624,120,36,14,4,47,33,717,['c'],1,left,['0'],6,319,[0.07057368],99,47,medium,plus,dotcolour,alfa,,,126,18,V,R,
625,121,37,14,4,47,33,617,['c'],1,left,['0'],6,267,[0.08514287],100,47,medium,plus,dotcolour,alfa,,,126,18,V,R,
626,122,38,14,4,36,44,701,['n'],1,right,['0'],6,263,[-0.09967797],100,44,hard,plus,dotcolour,alfa,,,126,18,V,R,
627,123,39,14,4,53,27,583,['c'],1,left,['0'],6,270,[0.10651451],100,53,easy,plus,dotcolour,alfa,,,126,18,V,R,
628,124,40,14,4,36,44,600,['c'],0,right,['0'],6,228,[0.06156059],99,44,hard,plus,dotcolour,alfa,,,126,18,V,R,
629,125,41,14,4,53,27,534,['c'],1,left,['0'],6,199,[0.1225457],100,53,easy,plus,dotcolour,alfa,,,126,18,V,R,
630,0,0,15,5,53,27,700,['c'],1,left,['0'],6,246,[0.20900125],98,53,easy,minus,dotcolour,alfa,,,126,18,V,R,
631,1,1,15,5,44,36,550,['n'],0,left,['0'],6,239,[-0.0009005],50,44,hard,minus,dotcolour,alfa,,,126,18,V,R,
632,2,2,15,5,36,44,450,['c'],0,right,['0'],6,204,[0.00248486],51,44,hard,minus,dotcolour,alfa,,,126,18,V,R,
633,3,3,15,5,53,27,367,['n'],0,left,['0'],6,231,[-0.13041546],92,53,easy,minus,dotcolour,alfa,,,126,18,V,R,
634,4,4,15,5,47,33,550,['c'],1,left,['0'],6,161,[0.11992257],94,47,medium,minus,dotcolour,alfa,,,126,18,V,R,
635,5,5,15,5,53,27,634,['c'],1,left,['0'],6,146,[0.15549359],97,53,easy,minus,dotcolour,alfa,,,126,18,V,R,
636,6,6,15,5,33,47,533,['n'],1,right,['0'],6,224,[-0.15569108],95,47,medium,minus,dotcolour,alfa,,,126,18,V,R,
637,7,7,15,5,44,36,534,['c'],1,left,['0'],6,187,[0.09113379],87,44,hard,minus,dotcolour,alfa,,,126,18,V,R,
638,8,8,15,5,36,44,418,['n'],1,right,['0'],6,252,[-0.07851675],80,44,hard,minus,dotcolour,alfa,,,126,18,V,R,
639,9,9,15,5,27,53,516,['n'],1,right,['0'],6,295,[-0.14105344],91,53,easy,minus,dotcolour,alfa,,,126,18,V,R,
640,10,10,15,5,33,47,417,['n'],1,right,['0'],6,276,[-0.1843182],96,47,medium,minus,dotcolour,alfa,,,126,18,V,R,
641,11,11,15,5,44,36,500,['n'],0,left,['0'],6,654,[-0.08948683],73,44,hard,minus,dotcolour,alfa,,,126,18,V,R,
642,12,12,15,5,27,53,684,['n'],1,right,['0'],6,217,[-0.11190921],90,53,easy,minus,dotcolour,alfa,,,126,18,V,R,
643,13,13,15,5,47,33,700,['c'],1,left,['0'],6,278,[0.11254681],87,47,medium,minus,dotcolour,alfa,,,126,18,V,R,
644,14,14,15,5,33,47,751,['n'],1,right,['0'],6,270,[-0.08947485],82,47,medium,minus,dotcolour,alfa,,,126,18,V,R,
645,15,15,15,5,27,53,534,['n'],1,right,['0'],6,407,[-0.17506564],92,53,easy,minus,dotcolour,alfa,,,126,18,V,R,
646,16,16,15,5,53,27,1150,['n'],0,left,['0'],6,330,[-0.05922597],72,53,easy,minus,dotcolour,alfa,,,126,18,V,R,
647,17,17,15,5,36,44,483,['n'],1,right,['0'],6,251,[-0.12375192],90,44,hard,minus,dotcolour,alfa,,,126,18,V,R,
648,18,18,15,5,44,36,800,['c'],1,left,['0'],6,202,[0.03735914],68,44,hard,minus,dotcolour,alfa,,,126,18,V,R,
649,19,19,15,5,27,53,517,['n'],1,right,['0'],6,311,[-0.16157946],93,53,easy,minus,dotcolour,alfa,,,126,18,V,R,
650,20,20,15,5,36,44,1066,['c'],0,right,['0'],6,225,[0.0163603],58,44,hard,minus,dotcolour,alfa,,,126,18,V,R,
651,21,21,15,5,53,27,767,['c'],1,left,['0'],6,315,[0.04422984],67,53,easy,minus,dotcolour,alfa,,,126,18,V,R,
652,22,22,15,5,47,33,817,['c'],1,left,['0'],6,206,[0.14413448],95,47,medium,minus,dotcolour,alfa,,,126,18,V,R,
653,23,23,15,5,33,47,1133,['n'],1,right,['0'],6,265,[-0.10571195],86,47,medium,minus,dotcolour,alfa,,,126,18,V,R,
654,24,24,15,5,47,33,767,['c'],1,left,['9'],5,489,[0.24283451],96,47,medium,minus,dotcolour,alfa,,,126,18,V,R,
655,25,25,15,5,36,44,1250,['n'],1,right,['0'],6,277,[-0.16081927],94,44,hard,minus,dotcolour,alfa,,,126,18,V,R,
656,26,26,15,5,47,33,551,['c'],1,left,['0'],6,325,[0.17990605],94,47,medium,minus,dotcolour,alfa,,,126,18,V,R,
657,27,27,15,5,36,44,717,['c'],0,right,['0'],6,172,[0.12510412],94,44,hard,minus,dotcolour,alfa,,,126,18,V,R,
658,28,28,15,5,44,36,600,['c'],1,left,['0'],6,223,[0.08919158],85,44,hard,minus,dotcolour,alfa,,,126,18,V,R,
659,29,29,15,5,33,47,933,['c'],0,right,['0'],6,194,[0.02040637],60,47,medium,minus,dotcolour,alfa,,,126,18,V,R,
660,30,30,15,5,44,36,534,['n'],0,left,['0'],6,294,[-0.09269182],82,44,hard,minus,dotcolour,alfa,,,126,18,V,R,
661,31,31,15,5,27,53,533,['n'],1,right,['0'],6,390,[-0.07234834],74,53,easy,minus,dotcolour,alfa,,,126,18,V,R,
662,32,32,15,5,47,33,684,['c'],1,left,['9'],5,500,[0.15508859],88,47,medium,minus,dotcolour,alfa,,,126,18,V,R,
663,33,33,15,5,44,36,817,['c'],1,left,['0'],6,288,[0.16047322],94,44,hard,minus,dotcolour,alfa,,,126,18,V,R,
664,34,34,15,5,47,33,716,['n'],0,left,['8'],4,1177,[0.1446267],23,47,medium,minus,dotcolour,alfa,,,126,18,V,R,
665,35,35,15,5,33,47,1884,['n'],1,right,['0'],6,272,[-0.18765767],96,47,medium,minus,dotcolour,alfa,,,126,18,V,R,
666,36,36,15,5,36,44,716,['c'],0,right,['0'],6,193,[0.0128353],57,44,hard,minus,dotcolour,alfa,,,126,18,V,R,
667,37,37,15,5,53,27,700,['c'],1,left,['0'],6,183,[0.13369348],94,53,easy,minus,dotcolour,alfa,,,126,18,V,R,
668,38,38,15,5,27,53,500,['n'],1,right,['0'],6,228,[-0.15218153],95,53,easy,minus,dotcolour,alfa,,,126,18,V,R,
669,39,39,15,5,27,53,550,['n'],1,right,['0'],6,238,[-0.12166709],90,53,easy,minus,dotcolour,alfa,,,126,18,V,R,
670,40,40,15,5,53,27,667,['c'],1,left,['0'],6,164,[0.10340295],91,53,easy,minus,dotcolour,alfa,,,126,18,V,R,
671,41,41,15,5,33,47,467,['n'],1,right,['0'],6,244,[-0.07095623],78,47,medium,minus,dotcolour,alfa,,,126,18,V,R,
672,42,0,16,5,36,44,733,['c'],0,right,['0'],6,546,[-0.10190355],22,44,hard,minus,dotcolour,alfa,,,126,18,V,R,
673,43,1,16,5,36,44,650,['c'],0,right,['0'],6,1227,[0.02653308],55,44,hard,minus,dotcolour,alfa,,,126,18,V,R,
674,44,2,16,5,27,53,566,['n'],1,right,['0'],6,245,[-0.10012039],86,53,easy,minus,dotcolour,alfa,,,126,18,V,R,
675,45,3,16,5,53,27,634,['c'],1,left,['0'],6,235,[0.09425545],85,53,easy,minus,dotcolour,alfa,,,126,18,V,R,
676,46,4,16,5,27,53,450,['n'],1,right,['0'],6,233,[-0.11633233],90,53,easy,minus,dotcolour,alfa,,,126,18,V,R,
677,47,5,16,5,47,33,717,['n'],0,left,['0'],6,556,[-0.05463903],66,47,medium,minus,dotcolour,alfa,,,126,18,V,R,
678,48,6,16,5,53,27,600,['c'],1,left,['0'],6,175,[0.07336218],83,53,easy,minus,dotcolour,alfa,,,126,18,V,R,
679,49,7,16,5,47,33,783,['c'],1,left,['0'],6,177,[-0.02015942],39,47,medium,minus,dotcolour,alfa,,,126,18,V,R,
680,50,8,16,5,53,27,551,['c'],1,left,['0'],6,214,[0.05613907],75,53,easy,minus,dotcolour,alfa,,,126,18,V,R,
681,51,9,16,5,44,36,517,['n'],0,left,['0'],6,266,[-0.04219785],68,44,hard,minus,dotcolour,alfa,,,126,18,V,R,
682,52,10,16,5,33,47,1300,['n'],1,right,['0'],6,244,[-0.11207699],89,47,medium,minus,dotcolour,alfa,,,126,18,V,R,
683,53,11,16,5,44,36,683,['c'],1,left,['0'],6,248,[0.08099279],81,44,hard,minus,dotcolour,alfa,,,126,18,V,R,
684,54,12,16,5,44,36,684,['c'],1,left,['0'],6,189,[0.08658753],86,44,hard,minus,dotcolour,alfa,,,126,18,V,R,
685,55,13,16,5,53,27,701,['c'],1,left,['0'],6,234,[0.09952004],86,53,easy,minus,dotcolour,alfa,,,126,18,V,R,
686,56,14,16,5,47,33,634,['c'],1,left,['0'],6,153,[0.10594676],92,47,medium,minus,dotcolour,alfa,,,126,18,V,R,
687,57,15,16,5,33,47,733,['n'],1,right,['0'],6,239,[-0.12901742],91,47,medium,minus,dotcolour,alfa,,,126,18,V,R,
688,58,16,16,5,36,44,900,['n'],1,right,['0'],6,1634,[0.12145598],30,44,hard,minus,dotcolour,alfa,,,126,18,V,R,
689,59,17,16,5,44,36,600,['n'],0,left,['0'],6,402,[-0.00545356],52,44,hard,minus,dotcolour,alfa,,,126,18,V,R,
690,60,18,16,5,44,36,951,['c'],1,left,['9'],5,374,[0.17104268],93,44,hard,minus,dotcolour,alfa,,,126,18,V,R,
691,61,19,16,5,33,47,983,['n'],1,right,['0'],6,320,[-0.13435562],89,47,medium,minus,dotcolour,alfa,,,126,18,V,R,
692,62,20,16,5,27,53,884,['n'],1,right,['0'],6,329,[-0.06222386],73,53,easy,minus,dotcolour,alfa,,,126,18,V,R,
693,63,21,16,5,53,27,766,['c'],1,left,['0'],6,447,[0.2393676],96,53,easy,minus,dotcolour,alfa,,,126,18,V,R,
694,64,22,16,5,27,53,599,['n'],1,right,['0'],6,326,[-0.09978136],83,53,easy,minus,dotcolour,alfa,,,126,18,V,R,
695,65,23,16,5,53,27,817,['c'],1,left,['0'],6,377,[0.06238596],71,53,easy,minus,dotcolour,alfa,,,126,18,V,R,
696,66,24,16,5,36,44,849,['c'],0,right,['1'],1,1466,[-0.10571849],31,44,hard,minus,dotcolour,alfa,,,126,18,V,R,
697,67,25,16,5,33,47,1067,['n'],1,right,['0'],6,317,[-0.08744806],80,47,medium,minus,dotcolour,alfa,,,126,18,V,R,
698,68,26,16,5,47,33,1250,['c'],1,left,['0'],6,495,[0.14460223],86,47,medium,minus,dotcolour,alfa,,,126,18,V,R,
699,69,27,16,5,27,53,1301,['n'],1,right,['0'],6,385,[-0.11867738],85,53,easy,minus,dotcolour,alfa,,,126,18,V,R,
700,70,28,16,5,33,47,568,['n'],1,right,['0'],6,292,[-0.14060772],91,47,medium,minus,dotcolour,alfa,,,126,18,V,R,
701,71,29,16,5,33,47,683,['n'],1,right,['0'],6,294,[-0.03655677],65,47,medium,minus,dotcolour,alfa,,,126,18,V,R,
702,72,30,16,5,47,33,532,['c'],1,left,['0'],6,310,[0.08852009],81,47,medium,minus,dotcolour,alfa,,,126,18,V,R,
703,73,31,16,5,36,44,834,['c'],0,right,['0'],6,473,[0.07917279],74,44,hard,minus,dotcolour,alfa,,,126,18,V,R,
704,74,32,16,5,47,33,832,['c'],1,left,['0'],6,230,[0.11268629],89,47,medium,minus,dotcolour,alfa,,,126,18,V,R,
705,75,33,16,5,36,44,850,['n'],1,right,['0'],6,460,[-0.05789835],68,44,hard,minus,dotcolour,alfa,,,126,18,V,R,
706,76,34,16,5,44,36,933,['c'],1,left,['0'],6,358,[0.13611062],89,44,hard,minus,dotcolour,alfa,,,126,18,V,R,
707,77,35,16,5,33,47,568,['n'],1,right,['0'],6,346,[-0.18769309],95,47,medium,minus,dotcolour,alfa,,,126,18,V,R,
708,78,36,16,5,47,33,517,['c'],1,left,['0'],6,224,[0.08033331],82,47,medium,minus,dotcolour,alfa,,,126,18,V,R,
709,79,37,16,5,27,53,600,['n'],1,right,['0'],6,288,[-0.0931066],83,53,easy,minus,dotcolour,alfa,,,126,18,V,R,
710,80,38,16,5,36,44,650,['n'],1,right,['0'],6,276,[-0.06401959],75,44,hard,minus,dotcolour,alfa,,,126,18,V,R,
711,81,39,16,5,53,27,750,['c'],1,left,['0'],6,164,[0.02579574],64,53,easy,minus,dotcolour,alfa,,,126,18,V,R,
712,82,40,16,5,27,53,449,['n'],1,right,['0'],6,309,[-0.11783773],87,53,easy,minus,dotcolour,alfa,,,126,18,V,R,
713,83,41,16,5,44,36,550,['c'],1,left,['0'],6,419,[0.03278314],61,44,hard,minus,dotcolour,alfa,,,126,18,V,R,
714,84,0,17,5,33,47,984,['n'],1,right,['0'],6,233,[-0.04696044],71,47,medium,minus,dotcolour,alfa,,,126,18,V,R,
715,85,1,17,5,36,44,749,['n'],1,right,['0'],6,259,[-0.0813543],81,44,hard,minus,dotcolour,alfa,,,126,18,V,R,
716,86,2,17,5,53,27,567,['c'],1,left,['0'],6,211,[0.22715264],99,53,easy,minus,dotcolour,alfa,,,126,18,V,R,
717,87,3,17,5,33,47,467,['n'],1,right,['0'],6,257,[-0.13902824],92,47,medium,minus,dotcolour,alfa,,,126,18,V,R,
718,88,4,17,5,44,36,867,['c'],1,left,['0'],6,181,[0.03195255],66,44,hard,minus,dotcolour,alfa,,,126,18,V,R,
719,89,5,17,5,47,33,667,['n'],0,left,['0'],6,260,[0.00710925],47,47,medium,minus,dotcolour,alfa,,,126,18,V,R,
720,90,6,17,5,36,44,883,['n'],1,right,['0'],6,392,[-0.06070249],71,44,hard,minus,dotcolour,alfa,,,126,18,V,R,
721,91,7,17,5,47,33,501,['c'],1,left,['0'],6,269,[0.07488724],79,47,medium,minus,dotcolour,alfa,,,126,18,V,R,
722,92,8,17,5,27,53,600,['n'],1,right,['0'],6,284,[-0.10473792],85,53,easy,minus,dotcolour,alfa,,,126,18,V,R,
723,93,9,17,5,44,36,817,['c'],1,left,['0'],6,186,[0.04895854],74,44,hard,minus,dotcolour,alfa,,,126,18,V,R,
724,94,10,17,5,36,44,417,['n'],1,right,['0'],6,275,[-0.0686257],76,44,hard,minus,dotcolour,alfa,,,126,18,V,R,
725,95,11,17,5,47,33,501,['c'],1,left,['0'],6,373,[0.16606849],92,47,medium,minus,dotcolour,alfa,,,126,18,V,R,
726,96,12,17,5,47,33,467,['n'],0,left,['0'],6,220,[-0.11806899],91,47,medium,minus,dotcolour,alfa,,,126,18,V,R,
727,97,13,17,5,33,47,433,['n'],1,right,['0'],6,236,[-0.117916],90,47,medium,minus,dotcolour,alfa,,,126,18,V,R,
728,98,14,17,5,36,44,734,['c'],0,right,['0'],6,142,[0.06957009],84,44,hard,minus,dotcolour,alfa,,,126,18,V,R,
729,99,15,17,5,27,53,517,['c'],0,right,['1'],1,1253,[-0.13511619],25,53,easy,minus,dotcolour,alfa,,,126,18,V,R,
730,100,16,17,5,53,27,1584,['c'],1,left,['0'],6,364,[0.20627106],96,53,easy,minus,dotcolour,alfa,,,126,18,V,R,
731,101,17,17,5,44,36,734,['c'],1,left,['0'],6,146,[0.08476331],88,44,hard,minus,dotcolour,alfa,,,126,18,V,R,
732,102,18,17,5,44,36,917,['c'],1,left,['0'],6,200,[0.07048644],81,44,hard,minus,dotcolour,alfa,,,126,18,V,R,
733,103,19,17,5,53,27,633,['c'],1,left,['0'],6,192,[0.19054401],98,53,easy,minus,dotcolour,alfa,,,126,18,V,R,
734,104,20,17,5,53,27,616,['c'],1,left,['0'],6,185,[0.05435544],76,53,easy,minus,dotcolour,alfa,,,126,18,V,R,
735,105,21,17,5,44,36,833,['n'],0,left,['0'],6,234,[-0.12804766],92,44,hard,minus,dotcolour,alfa,,,126,18,V,R,
736,106,22,17,5,27,53,500,['n'],1,right,['0'],6,390,[-0.15449782],90,53,easy,minus,dotcolour,alfa,,,126,18,V,R,
737,107,23,17,5,36,44,800,['c'],0,right,['0'],6,599,[0.06167457],67,44,hard,minus,dotcolour,alfa,,,126,18,V,R,
738,108,24,17,5,27,53,450,['n'],1,right,['0'],6,238,[-0.0455043],70,53,easy,minus,dotcolour,alfa,,,126,18,V,R,
739,109,25,17,5,33,47,567,['n'],1,right,['0'],6,248,[-0.05016605],71,47,medium,minus,dotcolour,alfa,,,126,18,V,R,
740,110,26,17,5,53,27,817,['c'],1,left,['0'],6,111,[0.13673591],98,53,easy,minus,dotcolour,alfa,,,126,18,V,R,
741,111,27,17,5,36,44,865,['n'],1,right,['0'],6,217,[-0.07386534],81,44,hard,minus,dotcolour,alfa,,,126,18,V,R,
742,112,28,17,5,44,36,583,['c'],1,left,['0'],6,226,[0.0277194],63,44,hard,minus,dotcolour,alfa,,,126,18,V,R,
743,113,29,17,5,27,53,1033,['n'],1,right,['0'],6,561,[-0.23117069],94,53,easy,minus,dotcolour,alfa,,,126,18,V,R,
744,114,30,17,5,53,27,850,['c'],1,left,['0'],6,170,[0.13579435],95,53,easy,minus,dotcolour,alfa,,,126,18,V,R,
745,115,31,17,5,53,27,584,['c'],1,left,['0'],6,205,[0.06341668],78,53,easy,minus,dotcolour,alfa,,,126,18,V,R,
746,116,32,17,5,33,47,766,['n'],1,right,['0'],6,216,[-0.11070167],90,47,medium,minus,dotcolour,alfa,,,126,18,V,R,
747,117,33,17,5,47,33,584,['c'],1,left,['0'],6,193,[0.05622727],76,47,medium,minus,dotcolour,alfa,,,126,18,V,R,
748,118,34,17,5,47,33,617,['c'],1,left,['0'],6,241,[0.08073433],81,47,medium,minus,dotcolour,alfa,,,126,18,V,R,
749,119,35,17,5,47,33,516,['c'],1,left,['0'],6,261,[0.19737623],97,47,medium,minus,dotcolour,alfa,,,126,18,V,R,
750,120,36,17,5,27,53,682,['n'],1,right,['0'],6,239,[-0.06875345],78,53,easy,minus,dotcolour,alfa,,,126,18,V,R,
751,121,37,17,5,44,36,750,['c'],1,left,['0'],6,152,[0.07225599],84,44,hard,minus,dotcolour,alfa,,,126,18,V,R,
752,122,38,17,5,33,47,667,['c'],0,right,['0'],6,177,[0.02409265],63,47,medium,minus,dotcolour,alfa,,,126,18,V,R,
753,123,39,17,5,27,53,416,['n'],1,right,['0'],6,291,[-0.09766476],84,53,easy,minus,dotcolour,alfa,,,126,18,V,R,
754,124,40,17,5,36,44,666,['c'],0,right,['0'],6,278,[0.0785002],79,44,hard,minus,dotcolour,alfa,,,126,18,V,R,
755,125,41,17,5,33,47,384,['n'],1,right,['0'],6,204,[-0.05669897],76,47,medium,minus,dotcolour,alfa,,,126,18,V,R,
,,,,,,,,,,,,,,,,,,,,,1,soms klopte het precies niet,126,18,V,R,
,,,,,,,,,,,,,,,,,,,,,2,['f'],126,18,V,R,
,,,,,,,,,,,,,,,,,,,,,3,['f'],126,18,V,R,
,,,,,,,,,,,,,,,,,,,,,5,['3'],126,18,V,R,
