trial,withinphasetrial,withinblocktrial,block,phase,dotsLeft,dotsRight,rt,resp,cor,cresp,conf_press,cj,RTconf,ev,fb,diff,difflevel,condition,task,manip,questionID,questionResp,sub,age,gender,handedness,
0,0,0,0,0,47,33,2017,['n'],0,left,['8'],3,1618,[0.14773489],26,47,medium,minus,dotcolour,alfa,,,85,18,V,R,
1,1,1,0,0,44,36,1681,['c'],1,left,['8'],3,1647,[0.03459415],56,44,hard,minus,dotcolour,alfa,,,85,18,V,R,
2,2,2,0,0,36,44,1348,['n'],1,right,['3'],4,800,[-0.08594874],70,44,hard,minus,dotcolour,alfa,,,85,18,V,R,
3,3,3,0,0,27,53,998,['n'],1,right,['2'],5,1137,[-0.20206448],85,53,easy,minus,dotcolour,alfa,,,85,18,V,R,
4,4,4,0,0,47,33,1500,['c'],1,left,['2'],5,1137,[0.26271377],90,47,medium,minus,dotcolour,alfa,,,85,18,V,R,
5,5,5,0,0,33,47,1063,['n'],1,right,['8'],3,993,[-0.30554856],94,47,medium,minus,dotcolour,alfa,,,85,18,V,R,
6,6,6,0,0,53,27,1798,['n'],0,left,['8'],3,1011,[-0.09001723],69,53,easy,minus,dotcolour,alfa,,,85,18,V,R,
7,7,7,0,0,53,27,1265,['c'],1,left,['3'],4,721,[0.16721301],85,53,easy,minus,dotcolour,alfa,,,85,18,V,R,
8,8,8,0,0,44,36,1915,['n'],0,left,['8'],3,944,[0.13979833],22,44,hard,minus,dotcolour,alfa,,,85,18,V,R,
9,9,9,0,0,33,47,2450,['n'],1,right,['8'],3,1097,[-0.30116851],93,47,medium,minus,dotcolour,alfa,,,85,18,V,R,
10,10,10,0,0,53,27,1914,['c'],1,left,['3'],4,906,[0.13664032],78,53,easy,minus,dotcolour,alfa,,,85,18,V,R,
11,11,11,0,0,33,47,1132,['n'],1,right,['3'],4,1289,[-0.28264623],90,47,medium,minus,dotcolour,alfa,,,85,18,V,R,
12,12,12,0,0,53,27,1783,['c'],1,left,['2'],5,679,[0.202212],90,53,easy,minus,dotcolour,alfa,,,85,18,V,R,
13,13,13,0,0,33,47,1099,['n'],1,right,['3'],4,649,[-0.26700681],95,47,medium,minus,dotcolour,alfa,,,85,18,V,R,
14,14,14,0,0,44,36,1215,['n'],0,left,['2'],5,904,[-0.03035673],57,44,hard,minus,dotcolour,alfa,,,85,18,V,R,
15,15,15,0,0,33,47,1131,['n'],1,right,['3'],4,679,[-0.15976711],85,47,medium,minus,dotcolour,alfa,,,85,18,V,R,
16,16,16,0,0,27,53,698,['n'],1,right,['1'],6,633,[-0.07151824],69,53,easy,minus,dotcolour,alfa,,,85,18,V,R,
17,17,17,0,0,36,44,882,['n'],1,right,['3'],4,534,[-0.08773298],75,44,hard,minus,dotcolour,alfa,,,85,18,V,R,
18,18,18,0,0,53,27,1165,['c'],1,left,['3'],4,754,[0.18562179],87,53,easy,minus,dotcolour,alfa,,,85,18,V,R,
19,19,19,0,0,36,44,1714,['n'],1,right,['8'],3,896,[-0.20574777],88,44,hard,minus,dotcolour,alfa,,,85,18,V,R,
20,20,20,0,0,27,53,833,['n'],1,right,['1'],6,564,[-0.22831038],94,53,easy,minus,dotcolour,alfa,,,85,18,V,R,
21,21,21,0,0,27,53,815,['n'],1,right,['1'],6,486,[-0.11835754],82,53,easy,minus,dotcolour,alfa,,,85,18,V,R,
22,22,22,0,0,47,33,1265,['c'],1,left,['3'],4,824,[0.13603845],79,47,medium,minus,dotcolour,alfa,,,85,18,V,R,
23,23,23,0,0,44,36,1732,['n'],0,left,['8'],3,739,[-0.1117483],76,44,hard,minus,dotcolour,alfa,,,85,18,V,R,
24,24,24,0,0,36,44,2147,['n'],1,right,['3'],4,617,[-0.07309307],70,44,hard,minus,dotcolour,alfa,,,85,18,V,R,
25,25,25,0,0,47,33,933,['n'],0,left,['3'],4,1500,[0.02743099],45,47,medium,minus,dotcolour,alfa,,,85,18,V,R,
26,26,26,0,0,44,36,1515,['n'],0,left,['8'],3,572,[-0.15761221],87,44,hard,minus,dotcolour,alfa,,,85,18,V,R,
27,27,27,0,0,36,44,1882,['n'],1,right,['8'],3,699,[-0.01109012],53,44,hard,minus,dotcolour,alfa,,,85,18,V,R,
28,28,28,0,0,44,36,2067,['n'],0,left,['9'],2,1253,[-0.09203377],68,44,hard,minus,dotcolour,alfa,,,85,18,V,R,
29,29,29,0,0,47,33,1382,['n'],0,left,['8'],3,1197,[0.10444922],30,47,medium,minus,dotcolour,alfa,,,85,18,V,R,
30,30,30,0,0,44,36,1831,['n'],0,left,['8'],3,836,[0.13728524],21,44,hard,minus,dotcolour,alfa,,,85,18,V,R,
31,31,31,0,0,27,53,1082,['n'],1,right,['2'],5,480,[-0.25663072],97,53,easy,minus,dotcolour,alfa,,,85,18,V,R,
32,32,32,0,0,33,47,1048,['n'],1,right,['3'],4,564,[-0.09558635],76,47,medium,minus,dotcolour,alfa,,,85,18,V,R,
33,33,33,0,0,47,33,2098,['c'],1,left,['8'],3,587,[0.08964342],74,47,medium,minus,dotcolour,alfa,,,85,18,V,R,
34,34,34,0,0,53,27,1248,['c'],1,left,['3'],4,666,[0.05501796],65,53,easy,minus,dotcolour,alfa,,,85,18,V,R,
35,35,35,0,0,27,53,881,['n'],1,right,['1'],6,349,[-0.13662016],89,53,easy,minus,dotcolour,alfa,,,85,18,V,R,
36,36,36,0,0,27,53,915,['n'],1,right,['2'],5,612,[0.04262459],38,53,easy,minus,dotcolour,alfa,,,85,18,V,R,
37,37,37,0,0,36,44,1182,['n'],1,right,['3'],4,365,[-0.06402538],72,44,hard,minus,dotcolour,alfa,,,85,18,V,R,
38,38,38,0,0,36,44,1266,['n'],1,right,['2'],5,557,[-0.1520666],86,44,hard,minus,dotcolour,alfa,,,85,18,V,R,
39,39,39,0,0,47,33,1248,['c'],1,left,['3'],4,606,[0.18818369],90,47,medium,minus,dotcolour,alfa,,,85,18,V,R,
40,40,40,0,0,33,47,865,['n'],1,right,['1'],6,1228,[-0.19211497],83,47,medium,minus,dotcolour,alfa,,,85,18,V,R,
41,41,41,0,0,53,27,1215,['c'],1,left,['2'],5,587,[0.17473161],89,53,easy,minus,dotcolour,alfa,,,85,18,V,R,
42,42,0,1,0,27,53,733,['n'],1,right,['1'],6,567,[-0.10939806],79,53,easy,minus,dotcolour,alfa,,,85,18,V,R,
43,43,1,1,0,27,53,698,['n'],1,right,['1'],6,421,[-0.13611934],87,53,easy,minus,dotcolour,alfa,,,85,18,V,R,
44,44,2,1,0,44,36,1363,['n'],0,left,['3'],4,464,[-0.11388619],82,44,hard,minus,dotcolour,alfa,,,85,18,V,R,
45,45,3,1,0,53,27,1716,['c'],1,left,['2'],5,674,[0.22270167],92,53,easy,minus,dotcolour,alfa,,,85,18,V,R,
46,46,4,1,0,36,44,713,['n'],1,right,['1'],6,451,[-0.16322749],90,44,hard,minus,dotcolour,alfa,,,85,18,V,R,
47,47,5,1,0,44,36,983,['n'],0,left,['3'],4,867,[-0.04513993],61,44,hard,minus,dotcolour,alfa,,,85,18,V,R,
48,48,6,1,0,33,47,733,['n'],1,right,['2'],5,411,[-0.25723631],97,47,medium,minus,dotcolour,alfa,,,85,18,V,R,
49,49,7,1,0,53,27,1582,['c'],1,left,['8'],3,805,[0.25267528],93,53,easy,minus,dotcolour,alfa,,,85,18,V,R,
50,50,8,1,0,44,36,1315,['c'],1,left,['3'],4,545,[0.03264265],60,44,hard,minus,dotcolour,alfa,,,85,18,V,R,
51,51,9,1,0,33,47,882,['n'],1,right,['3'],4,665,[-0.19592514],90,47,medium,minus,dotcolour,alfa,,,85,18,V,R,
52,52,10,1,0,36,44,899,['n'],1,right,['2'],5,748,[-0.04733353],62,44,hard,minus,dotcolour,alfa,,,85,18,V,R,
53,53,11,1,0,44,36,2433,['n'],0,left,['8'],3,1086,[-0.13604723],76,44,hard,minus,dotcolour,alfa,,,85,18,V,R,
54,54,12,1,0,27,53,698,['n'],1,right,['3'],4,631,[-0.23308282],93,53,easy,minus,dotcolour,alfa,,,85,18,V,R,
55,55,13,1,0,47,33,898,['n'],0,left,['3'],4,611,[-0.09755431],75,47,medium,minus,dotcolour,alfa,,,85,18,V,R,
56,56,14,1,0,27,53,716,['n'],1,right,['1'],6,575,[-0.15070164],86,53,easy,minus,dotcolour,alfa,,,85,18,V,R,
57,57,15,1,0,36,44,431,['n'],1,right,['2'],5,432,[-0.0331143],61,44,hard,minus,dotcolour,alfa,,,85,18,V,R,
58,58,16,1,0,36,44,499,['n'],1,right,['8'],3,436,[-0.09347663],78,44,hard,minus,dotcolour,alfa,,,85,18,V,R,
59,59,17,1,0,44,36,647,['n'],0,left,['3'],4,521,[0.14135881],15,44,hard,minus,dotcolour,alfa,,,85,18,V,R,
60,60,18,1,0,33,47,648,['n'],1,right,['1'],6,619,[-0.02730184],58,47,medium,minus,dotcolour,alfa,,,85,18,V,R,
61,61,19,1,0,27,53,616,['n'],1,right,['1'],6,370,[-0.10722389],83,53,easy,minus,dotcolour,alfa,,,85,18,V,R,
62,62,20,1,0,53,27,864,['c'],1,left,['2'],5,498,[0.14887173],87,53,easy,minus,dotcolour,alfa,,,85,18,V,R,
63,63,21,1,0,53,27,1932,['c'],1,left,['3'],4,1059,[0.02165411],55,53,easy,minus,dotcolour,alfa,,,85,18,V,R,
64,64,22,1,0,27,53,666,['n'],1,right,['1'],6,351,[-0.09346647],81,53,easy,minus,dotcolour,alfa,,,85,18,V,R,
65,65,23,1,0,47,33,1614,['c'],1,left,['2'],5,825,[0.09201379],71,47,medium,minus,dotcolour,alfa,,,85,18,V,R,
66,66,24,1,0,53,27,1464,['c'],1,left,['3'],4,487,[0.10071976],79,53,easy,minus,dotcolour,alfa,,,85,18,V,R,
67,67,25,1,0,44,36,633,['n'],0,left,['3'],4,1426,[-0.17821559],79,44,hard,minus,dotcolour,alfa,,,85,18,V,R,
68,68,26,1,0,47,33,1398,['c'],1,left,['3'],4,546,[0.11245611],80,47,medium,minus,dotcolour,alfa,,,85,18,V,R,
69,69,27,1,0,36,44,682,['n'],1,right,['2'],5,330,[-0.08386331],79,44,hard,minus,dotcolour,alfa,,,85,18,V,R,
70,70,28,1,0,33,47,682,['n'],1,right,['2'],5,387,[-0.15384182],90,47,medium,minus,dotcolour,alfa,,,85,18,V,R,
71,71,29,1,0,44,36,1132,['n'],0,left,['3'],4,463,[-0.12515352],84,44,hard,minus,dotcolour,alfa,,,85,18,V,R,
72,72,30,1,0,36,44,549,['n'],1,right,['3'],4,472,[-0.12925576],84,44,hard,minus,dotcolour,alfa,,,85,18,V,R,
73,73,31,1,0,33,47,867,['n'],1,right,['2'],5,507,[-0.25019584],96,47,medium,minus,dotcolour,alfa,,,85,18,V,R,
74,74,32,1,0,27,53,815,['n'],1,right,['1'],6,303,[-0.04762372],69,53,easy,minus,dotcolour,alfa,,,85,18,V,R,
75,75,33,1,0,36,44,682,['n'],1,right,['2'],5,369,[-0.00206384],51,44,hard,minus,dotcolour,alfa,,,85,18,V,R,
76,76,34,1,0,47,33,1199,['c'],1,left,['8'],3,436,[0.09172348],78,47,medium,minus,dotcolour,alfa,,,85,18,V,R,
77,77,35,1,0,47,33,981,['n'],0,left,['8'],3,452,[0.03025069],40,47,medium,minus,dotcolour,alfa,,,85,18,V,R,
78,78,36,1,0,33,47,748,['n'],1,right,['3'],4,653,[-0.08642067],72,47,medium,minus,dotcolour,alfa,,,85,18,V,R,
79,79,37,1,0,33,47,2181,['c'],0,right,['3'],4,813,[0.19391659],87,47,medium,minus,dotcolour,alfa,,,85,18,V,R,
80,80,38,1,0,47,33,1150,['n'],0,left,['8'],3,472,[-0.13829834],86,47,medium,minus,dotcolour,alfa,,,85,18,V,R,
81,81,39,1,0,53,27,1017,['n'],0,left,['9'],2,245,[0.0683487],22,53,easy,minus,dotcolour,alfa,,,85,18,V,R,
82,82,40,1,0,53,27,2999,['c'],1,left,['2'],5,596,[0.16459209],87,53,easy,minus,dotcolour,alfa,,,85,18,V,R,
83,83,41,1,0,47,33,1266,['n'],0,left,['8'],3,323,[-0.02791692],61,47,medium,minus,dotcolour,alfa,,,85,18,V,R,
84,84,0,2,0,47,33,1799,['c'],1,left,['3'],4,404,[0.09468644],79,47,medium,minus,dotcolour,alfa,,,85,18,V,R,
85,85,1,2,0,44,36,3265,['c'],1,left,['3'],4,801,[0.17705945],86,44,hard,minus,dotcolour,alfa,,,85,18,V,R,
86,86,2,2,0,27,53,816,['n'],1,right,['2'],5,857,[-0.07407953],67,53,easy,minus,dotcolour,alfa,,,85,18,V,R,
87,87,3,2,0,47,33,2332,['n'],0,left,['8'],3,283,[-0.01878932],58,47,medium,minus,dotcolour,alfa,,,85,18,V,R,
88,88,4,2,0,47,33,1116,['c'],1,left,['8'],3,349,[0.14205653],90,47,medium,minus,dotcolour,alfa,,,85,18,V,R,
89,89,5,2,0,27,53,949,['n'],1,right,['1'],6,338,[-0.13072759],88,53,easy,minus,dotcolour,alfa,,,85,18,V,R,
90,90,6,2,0,36,44,1232,['n'],1,right,['1'],6,532,[-0.09409259],76,44,hard,minus,dotcolour,alfa,,,85,18,V,R,
91,91,7,2,0,53,27,1565,['c'],1,left,['3'],4,561,[0.05906117],67,53,easy,minus,dotcolour,alfa,,,85,18,V,R,
92,92,8,2,0,47,33,1247,['c'],1,left,['8'],3,474,[0.05341512],67,47,medium,minus,dotcolour,alfa,,,85,18,V,R,
93,93,9,2,0,33,47,815,['n'],1,right,['3'],4,375,[-0.10289875],82,47,medium,minus,dotcolour,alfa,,,85,18,V,R,
94,94,10,2,0,53,27,1515,['c'],1,left,['8'],3,293,[0.14999272],92,53,easy,minus,dotcolour,alfa,,,85,18,V,R,
95,95,11,2,0,47,33,5263,['c'],1,left,['3'],4,376,[0.06313962],72,47,medium,minus,dotcolour,alfa,,,85,18,V,R,
96,96,12,2,0,53,27,932,['n'],0,left,['9'],2,972,[0.05212567],38,53,easy,minus,dotcolour,alfa,,,85,18,V,R,
97,97,13,2,0,33,47,1232,['n'],1,right,['3'],4,1509,[-0.22871675],84,47,medium,minus,dotcolour,alfa,,,85,18,V,R,
98,98,14,2,0,44,36,1098,['n'],0,left,['2'],5,485,[-0.01672222],55,44,hard,minus,dotcolour,alfa,,,85,18,V,R,
99,99,15,2,0,47,33,782,['n'],0,left,['2'],5,412,[-0.03302692],61,47,medium,minus,dotcolour,alfa,,,85,18,V,R,
100,100,16,2,0,36,44,798,['n'],1,right,['2'],5,532,[-0.23189388],95,44,hard,minus,dotcolour,alfa,,,85,18,V,R,
101,101,17,2,0,33,47,865,['n'],1,right,['2'],5,421,[0.02801842],40,47,medium,minus,dotcolour,alfa,,,85,18,V,R,
102,102,18,2,0,44,36,1766,['c'],1,left,['8'],3,703,[0.09518413],74,44,hard,minus,dotcolour,alfa,,,85,18,V,R,
103,103,19,2,0,33,47,747,['n'],1,right,['2'],5,870,[-0.15436967],82,47,medium,minus,dotcolour,alfa,,,85,18,V,R,
104,104,20,2,0,36,44,1031,['n'],1,right,['3'],4,1106,[-0.06182243],63,44,hard,minus,dotcolour,alfa,,,85,18,V,R,
105,105,21,2,0,36,44,916,['n'],1,right,['3'],4,747,[-0.01381372],54,44,hard,minus,dotcolour,alfa,,,85,18,V,R,
106,106,22,2,0,27,53,782,['n'],1,right,['1'],6,407,[-0.1213227],85,53,easy,minus,dotcolour,alfa,,,85,18,V,R,
107,107,23,2,0,53,27,2149,['c'],1,left,['2'],5,1689,[0.29491608],89,53,easy,minus,dotcolour,alfa,,,85,18,V,R,
108,108,24,2,0,27,53,565,['n'],1,right,['2'],5,648,[-0.13788965],82,53,easy,minus,dotcolour,alfa,,,85,18,V,R,
109,109,25,2,0,44,36,614,['n'],0,left,['3'],4,1039,[0.10311906],29,44,hard,minus,dotcolour,alfa,,,85,18,V,R,
110,110,26,2,0,33,47,697,['n'],1,right,['2'],5,466,[-0.16338782],90,47,medium,minus,dotcolour,alfa,,,85,18,V,R,
111,111,27,2,0,44,36,980,['c'],1,left,['2'],5,769,[0.06907439],67,44,hard,minus,dotcolour,alfa,,,85,18,V,R,
112,112,28,2,0,36,44,2333,['c'],0,right,['3'],4,1270,[-0.00339899],49,44,hard,minus,dotcolour,alfa,,,85,18,V,R,
113,113,29,2,0,47,33,1249,['c'],1,left,['8'],3,505,[0.04796378],65,47,medium,minus,dotcolour,alfa,,,85,18,V,R,
114,114,30,2,0,27,53,831,['n'],1,right,['1'],6,541,[-0.03926746],62,53,easy,minus,dotcolour,alfa,,,85,18,V,R,
115,115,31,2,0,33,47,916,['n'],1,right,['2'],5,491,[-0.14113834],86,47,medium,minus,dotcolour,alfa,,,85,18,V,R,
116,116,32,2,0,27,53,683,['n'],1,right,['2'],5,550,[-0.16128653],88,53,easy,minus,dotcolour,alfa,,,85,18,V,R,
117,117,33,2,0,33,47,648,['n'],1,right,['1'],6,662,[-0.1889761],89,47,medium,minus,dotcolour,alfa,,,85,18,V,R,
118,118,34,2,0,44,36,1348,['n'],0,left,['3'],4,591,[-0.04092364],62,44,hard,minus,dotcolour,alfa,,,85,18,V,R,
119,119,35,2,0,36,44,565,['n'],1,right,['3'],4,849,[-0.03706018],59,44,hard,minus,dotcolour,alfa,,,85,18,V,R,
120,120,36,2,0,53,27,782,['c'],1,left,['2'],5,561,[0.10274154],77,53,easy,minus,dotcolour,alfa,,,85,18,V,R,
121,121,37,2,0,27,53,698,['n'],1,right,['2'],5,416,[-0.20141355],94,53,easy,minus,dotcolour,alfa,,,85,18,V,R,
122,122,38,2,0,53,27,1216,['c'],1,left,['2'],5,511,[0.26761381],97,53,easy,minus,dotcolour,alfa,,,85,18,V,R,
123,123,39,2,0,44,36,733,['n'],0,left,['3'],4,631,[-0.05276198],65,44,hard,minus,dotcolour,alfa,,,85,18,V,R,
124,124,40,2,0,36,44,831,['n'],1,right,['2'],5,934,[-0.21386526],88,44,hard,minus,dotcolour,alfa,,,85,18,V,R,
125,125,41,2,0,53,27,1099,['c'],1,left,['2'],5,421,[0.17356314],92,53,easy,minus,dotcolour,alfa,,,85,18,V,R,
126,0,0,3,1,36,44,1068,['n'],1,right,['1'],6,735,[-0.03581667],82,44,hard,plus,dotcolour,alfa,,,85,18,V,R,
127,1,1,3,1,33,47,700,['n'],1,right,['2'],5,407,[-0.14871747],100,47,medium,plus,dotcolour,alfa,,,85,18,V,R,
128,2,2,3,1,53,27,1116,['c'],1,left,['2'],5,331,[0.10343529],100,53,easy,plus,dotcolour,alfa,,,85,18,V,R,
129,3,3,3,1,47,33,1548,['c'],1,left,['2'],5,401,[0.17562823],100,47,medium,plus,dotcolour,alfa,,,85,18,V,R,
130,4,4,3,1,53,27,1149,['c'],1,left,['2'],5,332,[0.16149928],100,53,easy,plus,dotcolour,alfa,,,85,18,V,R,
131,5,5,3,1,36,44,764,['n'],1,right,['2'],5,378,[-0.152646],100,44,hard,plus,dotcolour,alfa,,,85,18,V,R,
132,6,6,3,1,47,33,881,['c'],1,left,['1'],6,417,[0.11316986],100,47,medium,plus,dotcolour,alfa,,,85,18,V,R,
133,7,7,3,1,47,33,1050,['c'],1,left,['2'],5,438,[0.05793608],96,47,medium,plus,dotcolour,alfa,,,85,18,V,R,
134,8,8,3,1,33,47,715,['n'],1,right,['1'],6,426,[-0.16828252],100,47,medium,plus,dotcolour,alfa,,,85,18,V,R,
135,9,9,3,1,27,53,698,['n'],1,right,['1'],6,365,[-0.02469521],81,53,easy,plus,dotcolour,alfa,,,85,18,V,R,
136,10,10,3,1,36,44,549,['n'],1,right,['1'],6,354,[-0.1499463],100,44,hard,plus,dotcolour,alfa,,,85,18,V,R,
137,11,11,3,1,47,33,883,['c'],1,left,['3'],4,362,[0.18034159],100,47,medium,plus,dotcolour,alfa,,,85,18,V,R,
138,12,12,3,1,44,36,583,['n'],0,left,['2'],5,341,[-0.10010172],100,44,hard,plus,dotcolour,alfa,,,85,18,V,R,
139,13,13,3,1,47,33,1499,['c'],1,left,['2'],5,325,[0.06282201],98,47,medium,plus,dotcolour,alfa,,,85,18,V,R,
140,14,14,3,1,44,36,1049,['n'],0,left,['2'],5,415,[-0.02053895],76,44,hard,plus,dotcolour,alfa,,,85,18,V,R,
141,15,15,3,1,47,33,1348,['c'],1,left,['3'],4,538,[0.16156864],100,47,medium,plus,dotcolour,alfa,,,85,18,V,R,
142,16,16,3,1,33,47,1832,['c'],0,right,['2'],5,852,[-0.13426198],1,47,medium,plus,dotcolour,alfa,,,85,18,V,R,
143,17,17,3,1,27,53,1313,['n'],1,right,['2'],5,774,[-0.12767238],99,53,easy,plus,dotcolour,alfa,,,85,18,V,R,
144,18,18,3,1,53,27,1633,['c'],1,left,['3'],4,535,[0.11804922],100,53,easy,plus,dotcolour,alfa,,,85,18,V,R,
145,19,19,3,1,27,53,716,['n'],1,right,['1'],6,958,[-0.09321783],97,53,easy,plus,dotcolour,alfa,,,85,18,V,R,
146,20,20,3,1,36,44,749,['n'],1,right,['1'],6,395,[-0.23063617],100,44,hard,plus,dotcolour,alfa,,,85,18,V,R,
147,21,21,3,1,27,53,533,['n'],1,right,['1'],6,431,[-0.20703117],100,53,easy,plus,dotcolour,alfa,,,85,18,V,R,
148,22,22,3,1,27,53,616,['n'],1,right,['1'],6,454,[-0.11027774],100,53,easy,plus,dotcolour,alfa,,,85,18,V,R,
149,23,23,3,1,47,33,648,['n'],0,left,['1'],6,260,[-0.03147997],90,47,medium,plus,dotcolour,alfa,,,85,18,V,R,
150,24,24,3,1,53,27,815,['c'],1,left,['1'],6,394,[0.20467985],100,53,easy,plus,dotcolour,alfa,,,85,18,V,R,
151,25,25,3,1,33,47,698,['n'],1,right,['1'],6,271,[-0.04429698],96,47,medium,plus,dotcolour,alfa,,,85,18,V,R,
152,26,26,3,1,53,27,1131,['c'],1,left,['2'],5,440,[0.08459766],99,53,easy,plus,dotcolour,alfa,,,85,18,V,R,
153,27,27,3,1,33,47,699,['n'],1,right,['2'],5,476,[-0.22350055],100,47,medium,plus,dotcolour,alfa,,,85,18,V,R,
154,28,28,3,1,53,27,615,['n'],0,left,['1'],6,714,[-0.01009299],61,53,easy,plus,dotcolour,alfa,,,85,18,V,R,
155,29,29,3,1,44,36,832,['n'],0,left,['2'],5,621,[-0.05422441],92,44,hard,plus,dotcolour,alfa,,,85,18,V,R,
156,30,30,3,1,53,27,967,['c'],1,left,['2'],5,510,[0.12702655],100,53,easy,plus,dotcolour,alfa,,,85,18,V,R,
157,31,31,3,1,27,53,530,['n'],1,right,['2'],5,565,[-0.08734513],98,53,easy,plus,dotcolour,alfa,,,85,18,V,R,
158,32,32,3,1,44,36,1382,['n'],0,left,['2'],5,393,[-0.1286055],100,44,hard,plus,dotcolour,alfa,,,85,18,V,R,
159,33,33,3,1,44,36,966,['c'],1,left,['3'],4,723,[0.17623533],100,44,hard,plus,dotcolour,alfa,,,85,18,V,R,
160,34,34,3,1,36,44,583,['n'],1,right,['2'],5,424,[0.01490818],30,44,hard,plus,dotcolour,alfa,,,85,18,V,R,
161,35,35,3,1,27,53,615,['n'],1,right,['2'],5,416,[-0.12343498],100,53,easy,plus,dotcolour,alfa,,,85,18,V,R,
162,36,36,3,1,44,36,1815,['n'],0,left,['2'],5,632,[0.0159062],33,44,hard,plus,dotcolour,alfa,,,85,18,V,R,
163,37,37,3,1,36,44,650,['n'],1,right,['2'],5,261,[0.00780224],37,44,hard,plus,dotcolour,alfa,,,85,18,V,R,
164,38,38,3,1,44,36,1080,['n'],0,left,['2'],5,144,[-0.10461064],100,44,hard,plus,dotcolour,alfa,,,85,18,V,R,
165,39,39,3,1,33,47,580,['n'],1,right,['2'],5,356,[-0.23404559],100,47,medium,plus,dotcolour,alfa,,,85,18,V,R,
166,40,40,3,1,33,47,648,['n'],1,right,['2'],5,261,[-0.15732386],100,47,medium,plus,dotcolour,alfa,,,85,18,V,R,
167,41,41,3,1,36,44,483,['n'],1,right,['2'],5,312,[0.00191201],47,44,hard,plus,dotcolour,alfa,,,85,18,V,R,
168,42,0,4,1,36,44,600,['n'],1,right,['2'],5,256,[-0.20899848],100,44,hard,plus,dotcolour,alfa,,,85,18,V,R,
169,43,1,4,1,33,47,565,['n'],1,right,['2'],5,191,[-0.04625615],98,47,medium,plus,dotcolour,alfa,,,85,18,V,R,
170,44,2,4,1,47,33,581,['n'],0,left,['2'],5,361,[-0.04626583],94,47,medium,plus,dotcolour,alfa,,,85,18,V,R,
171,45,3,4,1,27,53,633,['n'],1,right,['2'],5,227,[-0.15987095],100,53,easy,plus,dotcolour,alfa,,,85,18,V,R,
172,46,4,4,1,36,44,1732,['c'],0,right,['9'],2,301,[0.04389522],95,44,hard,plus,dotcolour,alfa,,,85,18,V,R,
173,47,5,4,1,36,44,598,['n'],1,right,['2'],5,274,[-0.08955621],100,44,hard,plus,dotcolour,alfa,,,85,18,V,R,
174,48,6,4,1,27,53,550,['n'],1,right,['2'],5,314,[-0.06225809],98,53,easy,plus,dotcolour,alfa,,,85,18,V,R,
175,49,7,4,1,27,53,548,['n'],1,right,['2'],5,273,[-0.1070955],100,53,easy,plus,dotcolour,alfa,,,85,18,V,R,
176,50,8,4,1,33,47,631,['n'],1,right,['2'],5,270,[-0.12451659],100,47,medium,plus,dotcolour,alfa,,,85,18,V,R,
177,51,9,4,1,47,33,1265,['c'],1,left,['3'],4,649,[0.15333134],100,47,medium,plus,dotcolour,alfa,,,85,18,V,R,
178,52,10,4,1,27,53,565,['n'],1,right,['2'],5,306,[-0.11605354],100,53,easy,plus,dotcolour,alfa,,,85,18,V,R,
179,53,11,4,1,53,27,932,['c'],1,left,['3'],4,370,[0.09709561],100,53,easy,plus,dotcolour,alfa,,,85,18,V,R,
180,54,12,4,1,44,36,1198,['c'],1,left,['2'],5,340,[0.16560044],100,44,hard,plus,dotcolour,alfa,,,85,18,V,R,
181,55,13,4,1,36,44,966,['n'],1,right,['2'],5,281,[-0.10833654],100,44,hard,plus,dotcolour,alfa,,,85,18,V,R,
182,56,14,4,1,33,47,1098,['n'],1,right,['2'],5,411,[-0.13389871],100,47,medium,plus,dotcolour,alfa,,,85,18,V,R,
183,57,15,4,1,47,33,732,['n'],0,left,['2'],5,294,[-0.06718866],99,47,medium,plus,dotcolour,alfa,,,85,18,V,R,
184,58,16,4,1,53,27,1082,['c'],1,left,['3'],4,336,[0.19310612],100,53,easy,plus,dotcolour,alfa,,,85,18,V,R,
185,59,17,4,1,33,47,566,['n'],1,right,['2'],5,325,[-0.23523812],100,47,medium,plus,dotcolour,alfa,,,85,18,V,R,
186,60,18,4,1,33,47,932,['n'],1,right,['2'],5,292,[-0.1942377],100,47,medium,plus,dotcolour,alfa,,,85,18,V,R,
187,61,19,4,1,47,33,967,['c'],1,left,['2'],5,626,[0.22676757],100,47,medium,plus,dotcolour,alfa,,,85,18,V,R,
188,62,20,4,1,44,36,1499,['n'],0,left,['3'],4,431,[-0.20401417],100,44,hard,plus,dotcolour,alfa,,,85,18,V,R,
189,63,21,4,1,53,27,2149,['c'],1,left,['2'],5,665,[0.13251775],100,53,easy,plus,dotcolour,alfa,,,85,18,V,R,
190,64,22,4,1,27,53,1149,['n'],1,right,['2'],5,162,[-0.09481042],100,53,easy,plus,dotcolour,alfa,,,85,18,V,R,
191,65,23,4,1,27,53,750,['n'],1,right,['2'],5,166,[-0.06759261],100,53,easy,plus,dotcolour,alfa,,,85,18,V,R,
192,66,24,4,1,27,53,732,['n'],1,right,['2'],5,179,[-0.09298746],100,53,easy,plus,dotcolour,alfa,,,85,18,V,R,
193,67,25,4,1,36,44,731,['n'],1,right,['1'],6,168,[-0.09757021],100,44,hard,plus,dotcolour,alfa,,,85,18,V,R,
194,68,26,4,1,33,47,565,['n'],1,right,['1'],6,251,[-0.03423855],92,47,medium,plus,dotcolour,alfa,,,85,18,V,R,
195,69,27,4,1,53,27,1165,['c'],1,left,['1'],6,356,[0.08699838],99,53,easy,plus,dotcolour,alfa,,,85,18,V,R,
196,70,28,4,1,44,36,1099,['n'],0,left,['1'],6,290,[-0.06667197],99,44,hard,plus,dotcolour,alfa,,,85,18,V,R,
197,71,29,4,1,53,27,747,['n'],0,left,['1'],6,162,[-0.06704179],100,53,easy,plus,dotcolour,alfa,,,85,18,V,R,
198,72,30,4,1,36,44,800,['n'],1,right,['8'],3,188,[-0.14665586],100,44,hard,plus,dotcolour,alfa,,,85,18,V,R,
199,73,31,4,1,47,33,831,['c'],1,left,['2'],5,428,[0.04521376],92,47,medium,plus,dotcolour,alfa,,,85,18,V,R,
200,74,32,4,1,47,33,548,['n'],0,left,['2'],5,279,[-0.04194716],95,47,medium,plus,dotcolour,alfa,,,85,18,V,R,
201,75,33,4,1,53,27,915,['n'],0,left,['3'],4,192,[-0.03108783],93,53,easy,plus,dotcolour,alfa,,,85,18,V,R,
202,76,34,4,1,47,33,1132,['n'],0,left,['3'],4,420,[-0.08776325],99,47,medium,plus,dotcolour,alfa,,,85,18,V,R,
203,77,35,4,1,36,44,764,['n'],1,right,['3'],4,510,[0.02656062],21,44,hard,plus,dotcolour,alfa,,,85,18,V,R,
204,78,36,4,1,44,36,1330,['n'],0,left,['2'],5,181,[-0.04108115],97,44,hard,plus,dotcolour,alfa,,,85,18,V,R,
205,79,37,4,1,44,36,1231,['c'],1,left,['3'],4,878,[0.06658161],93,44,hard,plus,dotcolour,alfa,,,85,18,V,R,
206,80,38,4,1,53,27,1214,['c'],1,left,['1'],6,211,[0.13488143],100,53,easy,plus,dotcolour,alfa,,,85,18,V,R,
207,81,39,4,1,44,36,1482,['c'],1,left,['1'],6,648,[0.1068483],99,44,hard,plus,dotcolour,alfa,,,85,18,V,R,
208,82,40,4,1,44,36,849,['n'],0,left,['3'],4,406,[-0.12170579],100,44,hard,plus,dotcolour,alfa,,,85,18,V,R,
209,83,41,4,1,33,47,781,['n'],1,right,['1'],6,311,[-0.20070686],100,47,medium,plus,dotcolour,alfa,,,85,18,V,R,
210,84,0,5,1,44,36,1133,['n'],0,left,['2'],5,402,[-0.10017384],100,44,hard,plus,dotcolour,alfa,,,85,18,V,R,
211,85,1,5,1,44,36,849,['c'],1,left,['2'],5,433,[0.08287788],99,44,hard,plus,dotcolour,alfa,,,85,18,V,R,
212,86,2,5,1,27,53,681,['n'],1,right,['1'],6,430,[-0.17371989],100,53,easy,plus,dotcolour,alfa,,,85,18,V,R,
213,87,3,5,1,27,53,765,['n'],1,right,['1'],6,351,[-0.15764958],100,53,easy,plus,dotcolour,alfa,,,85,18,V,R,
214,88,4,5,1,44,36,1281,['c'],1,left,['3'],4,622,[-0.0119692],37,44,hard,plus,dotcolour,alfa,,,85,18,V,R,
215,89,5,5,1,27,53,782,['n'],1,right,['2'],5,447,[-0.1094184],100,53,easy,plus,dotcolour,alfa,,,85,18,V,R,
216,90,6,5,1,53,27,831,['c'],1,left,['2'],5,653,[0.28437715],100,53,easy,plus,dotcolour,alfa,,,85,18,V,R,
217,91,7,5,1,27,53,666,['n'],1,right,['2'],5,274,[-0.2115383],100,53,easy,plus,dotcolour,alfa,,,85,18,V,R,
218,92,8,5,1,36,44,1032,['n'],1,right,['2'],5,926,[-0.26476881],100,44,hard,plus,dotcolour,alfa,,,85,18,V,R,
219,93,9,5,1,36,44,615,['n'],1,right,['2'],5,642,[-0.10831287],99,44,hard,plus,dotcolour,alfa,,,85,18,V,R,
220,94,10,5,1,53,27,915,['n'],0,left,['2'],5,380,[0.09274382],0,53,easy,plus,dotcolour,alfa,,,85,18,V,R,
221,95,11,5,1,36,44,933,['n'],1,right,['2'],5,193,[-0.19423037],100,44,hard,plus,dotcolour,alfa,,,85,18,V,R,
222,96,12,5,1,27,53,599,['n'],1,right,['3'],4,306,[-0.06008346],98,53,easy,plus,dotcolour,alfa,,,85,18,V,R,
223,97,13,5,1,53,27,899,['n'],0,left,['0'],1,1211,[-0.15430429],99,53,easy,plus,dotcolour,alfa,,,85,18,V,R,
224,98,14,5,1,47,33,1364,['c'],1,left,['2'],5,877,[0.29265025],100,47,medium,plus,dotcolour,alfa,,,85,18,V,R,
225,99,15,5,1,47,33,1049,['c'],1,left,['2'],5,633,[0.14952471],100,47,medium,plus,dotcolour,alfa,,,85,18,V,R,
226,100,16,5,1,36,44,797,['n'],1,right,['2'],5,233,[-0.0736348],100,44,hard,plus,dotcolour,alfa,,,85,18,V,R,
227,101,17,5,1,36,44,865,['n'],1,right,['2'],5,310,[-0.12925835],100,44,hard,plus,dotcolour,alfa,,,85,18,V,R,
228,102,18,5,1,36,44,2933,['c'],0,right,['3'],4,477,[-0.01080032],36,44,hard,plus,dotcolour,alfa,,,85,18,V,R,
229,103,19,5,1,33,47,749,['n'],1,right,['2'],5,565,[-0.189554],100,47,medium,plus,dotcolour,alfa,,,85,18,V,R,
230,104,20,5,1,44,36,1500,['n'],0,left,['8'],3,692,[-0.12941851],100,44,hard,plus,dotcolour,alfa,,,85,18,V,R,
231,105,21,5,1,44,36,982,['n'],0,left,['0'],1,530,[-0.01765784],71,44,hard,plus,dotcolour,alfa,,,85,18,V,R,
232,106,22,5,1,47,33,1515,['c'],1,left,['2'],5,873,[0.12587073],99,47,medium,plus,dotcolour,alfa,,,85,18,V,R,
233,107,23,5,1,27,53,1265,['n'],1,right,['2'],5,829,[-0.21430819],100,53,easy,plus,dotcolour,alfa,,,85,18,V,R,
234,108,24,5,1,53,27,1198,['c'],1,left,['2'],5,413,[0.09203199],99,53,easy,plus,dotcolour,alfa,,,85,18,V,R,
235,109,25,5,1,44,36,647,['n'],0,left,['1'],6,972,[0.04028492],19,44,hard,plus,dotcolour,alfa,,,85,18,V,R,
236,110,26,5,1,53,27,814,['c'],1,left,['2'],5,413,[0.07575656],99,53,easy,plus,dotcolour,alfa,,,85,18,V,R,
237,111,27,5,1,33,47,817,['n'],1,right,['2'],5,349,[-0.02071236],78,47,medium,plus,dotcolour,alfa,,,85,18,V,R,
238,112,28,5,1,47,33,867,['c'],1,left,['2'],5,309,[0.14543338],100,47,medium,plus,dotcolour,alfa,,,85,18,V,R,
239,113,29,5,1,36,44,1514,['c'],0,right,['1'],6,1101,[0.14023494],99,44,hard,plus,dotcolour,alfa,,,85,18,V,R,
240,114,30,5,1,47,33,932,['c'],1,left,['2'],5,413,[0.1599681],100,47,medium,plus,dotcolour,alfa,,,85,18,V,R,
241,115,31,5,1,33,47,765,['n'],1,right,['2'],5,287,[-0.13993768],100,47,medium,plus,dotcolour,alfa,,,85,18,V,R,
242,116,32,5,1,33,47,666,['n'],1,right,['2'],5,290,[-0.02793178],87,47,medium,plus,dotcolour,alfa,,,85,18,V,R,
243,117,33,5,1,33,47,715,['n'],1,right,['3'],4,659,[-0.30135551],100,47,medium,plus,dotcolour,alfa,,,85,18,V,R,
244,118,34,5,1,53,27,1498,['n'],0,left,['9'],2,1198,[0.16108814],0,53,easy,plus,dotcolour,alfa,,,85,18,V,R,
245,119,35,5,1,33,47,714,['n'],1,right,['2'],5,563,[0.00652128],42,47,medium,plus,dotcolour,alfa,,,85,18,V,R,
246,120,36,5,1,33,47,765,['n'],1,right,['2'],5,246,[-0.10584618],100,47,medium,plus,dotcolour,alfa,,,85,18,V,R,
247,121,37,5,1,47,33,1366,['c'],1,left,['2'],5,367,[0.12908186],100,47,medium,plus,dotcolour,alfa,,,85,18,V,R,
248,122,38,5,1,44,36,883,['n'],0,left,['2'],5,302,[-0.06680112],99,44,hard,plus,dotcolour,alfa,,,85,18,V,R,
249,123,39,5,1,53,27,966,['c'],1,left,['2'],5,629,[0.13761284],100,53,easy,plus,dotcolour,alfa,,,85,18,V,R,
250,124,40,5,1,27,53,531,['n'],1,right,['1'],6,439,[-0.10727893],100,53,easy,plus,dotcolour,alfa,,,85,18,V,R,
251,125,41,5,1,47,33,600,['n'],0,left,['3'],4,750,[-0.02049289],70,47,medium,plus,dotcolour,alfa,,,85,18,V,R,
252,0,0,6,2,44,36,1016,['c'],1,left,['2'],5,930,[0.04208843],60,44,hard,minus,dotcolour,alfa,,,85,18,V,R,
253,1,1,6,2,47,33,698,['n'],0,left,['0'],1,1177,[-0.11490406],72,47,medium,minus,dotcolour,alfa,,,85,18,V,R,
254,2,2,6,2,53,27,832,['c'],1,left,['2'],5,570,[0.15412286],86,53,easy,minus,dotcolour,alfa,,,85,18,V,R,
255,3,3,6,2,27,53,1248,['n'],1,right,['2'],5,1155,[-0.22929935],87,53,easy,minus,dotcolour,alfa,,,85,18,V,R,
256,4,4,6,2,33,47,782,['n'],1,right,['2'],5,294,[-0.05528215],71,47,medium,minus,dotcolour,alfa,,,85,18,V,R,
257,5,5,6,2,36,44,700,['n'],1,right,['2'],5,279,[-0.11041905],87,44,hard,minus,dotcolour,alfa,,,85,18,V,R,
258,6,6,6,2,47,33,1114,['c'],1,left,['2'],5,265,[0.11770408],89,47,medium,minus,dotcolour,alfa,,,85,18,V,R,
259,7,7,6,2,36,44,2196,['n'],1,right,['8'],3,279,[-0.14336162],92,44,hard,minus,dotcolour,alfa,,,85,18,V,R,
260,8,8,6,2,27,53,766,['n'],1,right,['1'],6,175,[-0.10882491],91,53,easy,minus,dotcolour,alfa,,,85,18,V,R,
261,9,9,6,2,44,36,1198,['c'],1,left,['2'],5,209,[-0.01450754],43,44,hard,minus,dotcolour,alfa,,,85,18,V,R,
262,10,10,6,2,33,47,998,['n'],1,right,['2'],5,193,[-0.04494503],72,47,medium,minus,dotcolour,alfa,,,85,18,V,R,
263,11,11,6,2,53,27,765,['c'],1,left,['2'],5,341,[0.11170669],85,53,easy,minus,dotcolour,alfa,,,85,18,V,R,
264,12,12,6,2,36,44,532,['n'],1,right,['2'],5,234,[-0.02895934],63,44,hard,minus,dotcolour,alfa,,,85,18,V,R,
265,13,13,6,2,47,33,915,['c'],1,left,['2'],5,526,[0.13162251],84,47,medium,minus,dotcolour,alfa,,,85,18,V,R,
266,14,14,6,2,53,27,1066,['c'],1,left,['1'],6,439,[0.10702286],81,53,easy,minus,dotcolour,alfa,,,85,18,V,R,
267,15,15,6,2,33,47,898,['n'],1,right,['2'],5,354,[-0.15636944],91,47,medium,minus,dotcolour,alfa,,,85,18,V,R,
268,16,16,6,2,36,44,1565,['n'],1,right,['2'],5,190,[-0.03964196],69,44,hard,minus,dotcolour,alfa,,,85,18,V,R,
269,17,17,6,2,47,33,1032,['c'],1,left,['2'],5,286,[0.089373],82,47,medium,minus,dotcolour,alfa,,,85,18,V,R,
270,18,18,6,2,36,44,713,['n'],1,right,['2'],5,232,[-0.12053897],90,44,hard,minus,dotcolour,alfa,,,85,18,V,R,
271,19,19,6,2,33,47,598,['n'],1,right,['2'],5,288,[-0.12370002],89,47,medium,minus,dotcolour,alfa,,,85,18,V,R,
272,20,20,6,2,27,53,497,['n'],1,right,['1'],6,313,[-0.04972793],69,53,easy,minus,dotcolour,alfa,,,85,18,V,R,
273,21,21,6,2,36,44,633,['n'],1,right,['1'],6,300,[-0.07915327],79,44,hard,minus,dotcolour,alfa,,,85,18,V,R,
274,22,22,6,2,27,53,566,['n'],1,right,['1'],6,259,[-0.09313775],84,53,easy,minus,dotcolour,alfa,,,85,18,V,R,
275,23,23,6,2,47,33,765,['n'],0,left,['2'],5,963,[0.04480804],40,47,medium,minus,dotcolour,alfa,,,85,18,V,R,
276,24,24,6,2,27,53,649,['n'],1,right,['1'],6,371,[-0.16631795],92,53,easy,minus,dotcolour,alfa,,,85,18,V,R,
277,25,25,6,2,44,36,581,['n'],0,left,['1'],6,319,[-0.15358435],92,44,hard,minus,dotcolour,alfa,,,85,18,V,R,
278,26,26,6,2,47,33,1016,['c'],1,left,['2'],5,522,[0.14681323],86,47,medium,minus,dotcolour,alfa,,,85,18,V,R,
279,27,27,6,2,33,47,582,['n'],1,right,['2'],5,695,[-0.27161062],95,47,medium,minus,dotcolour,alfa,,,85,18,V,R,
280,28,28,6,2,44,36,932,['n'],0,left,['2'],5,287,[-0.0761574],78,44,hard,minus,dotcolour,alfa,,,85,18,V,R,
281,29,29,6,2,53,27,1182,['c'],1,left,['2'],5,799,[0.26933311],94,53,easy,minus,dotcolour,alfa,,,85,18,V,R,
282,30,30,6,2,27,53,765,['n'],1,right,['2'],5,144,[-0.12454494],95,53,easy,minus,dotcolour,alfa,,,85,18,V,R,
283,31,31,6,2,27,53,615,['n'],1,right,['2'],5,219,[-0.15932951],96,53,easy,minus,dotcolour,alfa,,,85,18,V,R,
284,32,32,6,2,53,27,750,['c'],1,left,['2'],5,334,[0.10134233],83,53,easy,minus,dotcolour,alfa,,,85,18,V,R,
285,33,33,6,2,33,47,1315,['n'],1,right,['2'],5,525,[-0.12416827],82,47,medium,minus,dotcolour,alfa,,,85,18,V,R,
286,34,34,6,2,44,36,816,['n'],0,left,['2'],5,377,[-0.04498343],66,44,hard,minus,dotcolour,alfa,,,85,18,V,R,
287,35,35,6,2,53,27,948,['c'],1,left,['1'],6,477,[0.08871163],76,53,easy,minus,dotcolour,alfa,,,85,18,V,R,
288,36,36,6,2,33,47,799,['n'],1,right,['3'],4,843,[-0.16535327],83,47,medium,minus,dotcolour,alfa,,,85,18,V,R,
289,37,37,6,2,53,27,1333,['c'],1,left,['3'],4,501,[0.11180394],81,53,easy,minus,dotcolour,alfa,,,85,18,V,R,
290,38,38,6,2,44,36,915,['n'],0,left,['0'],1,1030,[0.09170732],31,44,hard,minus,dotcolour,alfa,,,85,18,V,R,
291,39,39,6,2,47,33,1983,['n'],0,left,['8'],3,918,[-0.00418493],51,47,medium,minus,dotcolour,alfa,,,85,18,V,R,
292,40,40,6,2,36,44,698,['n'],1,right,['8'],3,350,[-0.10039624],82,44,hard,minus,dotcolour,alfa,,,85,18,V,R,
293,41,41,6,2,44,36,1598,['c'],1,left,['3'],4,289,[0.14288911],92,44,hard,minus,dotcolour,alfa,,,85,18,V,R,
294,42,0,7,2,47,33,1100,['c'],1,left,['8'],3,1128,[-0.02304944],45,47,medium,minus,dotcolour,alfa,,,85,18,V,R,
295,43,1,7,2,44,36,1683,['n'],0,left,['8'],3,736,[0.00339028],49,44,hard,minus,dotcolour,alfa,,,85,18,V,R,
296,44,2,7,2,44,36,698,['n'],0,left,['2'],5,401,[0.03106947],39,44,hard,minus,dotcolour,alfa,,,85,18,V,R,
297,45,3,7,2,27,53,631,['n'],1,right,['2'],5,296,[-0.2388374],98,53,easy,minus,dotcolour,alfa,,,85,18,V,R,
298,46,4,7,2,44,36,1481,['n'],0,left,['3'],4,539,[-0.13388362],84,44,hard,minus,dotcolour,alfa,,,85,18,V,R,
299,47,5,7,2,36,44,884,['n'],1,right,['2'],5,242,[-0.12858737],91,44,hard,minus,dotcolour,alfa,,,85,18,V,R,
300,48,6,7,2,33,47,813,['n'],1,right,['2'],5,209,[-0.12770152],93,47,medium,minus,dotcolour,alfa,,,85,18,V,R,
301,49,7,7,2,33,47,615,['n'],1,right,['2'],5,161,[-0.06645925],82,47,medium,minus,dotcolour,alfa,,,85,18,V,R,
302,50,8,7,2,33,47,548,['n'],1,right,['2'],5,174,[-0.12439702],94,47,medium,minus,dotcolour,alfa,,,85,18,V,R,
303,51,9,7,2,36,44,648,['n'],1,right,['2'],5,150,[-0.08841206],89,44,hard,minus,dotcolour,alfa,,,85,18,V,R,
304,52,10,7,2,47,33,1097,['c'],1,left,['2'],5,333,[0.05433694],70,47,medium,minus,dotcolour,alfa,,,85,18,V,R,
305,53,11,7,2,36,44,1482,['n'],1,right,['3'],4,454,[-0.13540838],86,44,hard,minus,dotcolour,alfa,,,85,18,V,R,
306,54,12,7,2,27,53,499,['n'],1,right,['2'],5,217,[-0.13056853],93,53,easy,minus,dotcolour,alfa,,,85,18,V,R,
307,55,13,7,2,36,44,765,['n'],1,right,['2'],5,234,[-0.09145565],85,44,hard,minus,dotcolour,alfa,,,85,18,V,R,
308,56,14,7,2,47,33,1050,['c'],1,left,['2'],5,376,[0.09000119],79,47,medium,minus,dotcolour,alfa,,,85,18,V,R,
309,57,15,7,2,27,53,732,['n'],1,right,['2'],5,197,[-0.16536082],97,53,easy,minus,dotcolour,alfa,,,85,18,V,R,
310,58,16,7,2,53,27,1032,['c'],1,left,['2'],5,461,[0.24351477],96,53,easy,minus,dotcolour,alfa,,,85,18,V,R,
311,59,17,7,2,44,36,997,['c'],1,left,['2'],5,244,[0.0487535],71,44,hard,minus,dotcolour,alfa,,,85,18,V,R,
312,60,18,7,2,53,27,898,['c'],1,left,['2'],5,248,[0.0311298],64,53,easy,minus,dotcolour,alfa,,,85,18,V,R,
313,61,19,7,2,36,44,566,['n'],1,right,['2'],5,232,[-0.05482147],74,44,hard,minus,dotcolour,alfa,,,85,18,V,R,
314,62,20,7,2,53,27,1082,['c'],1,left,['2'],5,237,[0.15257633],94,53,easy,minus,dotcolour,alfa,,,85,18,V,R,
315,63,21,7,2,53,27,781,['c'],1,left,['2'],5,277,[0.09052464],82,53,easy,minus,dotcolour,alfa,,,85,18,V,R,
316,64,22,7,2,47,33,615,['n'],0,left,['2'],5,219,[-0.11683977],90,47,medium,minus,dotcolour,alfa,,,85,18,V,R,
317,65,23,7,2,33,47,466,['n'],1,right,['2'],5,209,[-0.1699122],97,47,medium,minus,dotcolour,alfa,,,85,18,V,R,
318,66,24,7,2,27,53,483,['n'],1,right,['1'],6,766,[-0.23345194],92,53,easy,minus,dotcolour,alfa,,,85,18,V,R,
319,67,25,7,2,44,36,967,['c'],1,left,['2'],5,1027,[-0.0385462],42,44,hard,minus,dotcolour,alfa,,,85,18,V,R,
320,68,26,7,2,47,33,1048,['c'],1,left,['2'],5,472,[0.16797828],90,47,medium,minus,dotcolour,alfa,,,85,18,V,R,
321,69,27,7,2,33,47,532,['n'],1,right,['2'],5,153,[-0.09813778],91,47,medium,minus,dotcolour,alfa,,,85,18,V,R,
322,70,28,7,2,47,33,750,['c'],1,left,['2'],5,358,[0.07455326],75,47,medium,minus,dotcolour,alfa,,,85,18,V,R,
323,71,29,7,2,33,47,566,['n'],1,right,['2'],5,171,[-0.0036627],52,47,medium,minus,dotcolour,alfa,,,85,18,V,R,
324,72,30,7,2,47,33,900,['n'],0,left,['1'],6,169,[-0.11269476],92,47,medium,minus,dotcolour,alfa,,,85,18,V,R,
325,73,31,7,2,36,44,616,['n'],1,right,['1'],6,186,[-0.09046772],87,44,hard,minus,dotcolour,alfa,,,85,18,V,R,
326,74,32,7,2,44,36,581,['n'],0,left,['1'],6,212,[-0.0749864],81,44,hard,minus,dotcolour,alfa,,,85,18,V,R,
327,75,33,7,2,44,36,1216,['n'],0,left,['3'],4,204,[-0.05509512],75,44,hard,minus,dotcolour,alfa,,,85,18,V,R,
328,76,34,7,2,27,53,598,['n'],1,right,['1'],6,214,[-0.12198056],91,53,easy,minus,dotcolour,alfa,,,85,18,V,R,
329,77,35,7,2,53,27,999,['c'],1,left,['1'],6,246,[0.08001013],81,53,easy,minus,dotcolour,alfa,,,85,18,V,R,
330,78,36,7,2,27,53,698,['n'],1,right,['1'],6,226,[-0.11262451],89,53,easy,minus,dotcolour,alfa,,,85,18,V,R,
331,79,37,7,2,53,27,898,['c'],1,left,['2'],5,766,[0.10438044],75,53,easy,minus,dotcolour,alfa,,,85,18,V,R,
332,80,38,7,2,33,47,881,['n'],1,right,['1'],6,173,[-0.10936571],91,47,medium,minus,dotcolour,alfa,,,85,18,V,R,
333,81,39,7,2,53,27,781,['c'],1,left,['1'],6,257,[0.06854868],77,53,easy,minus,dotcolour,alfa,,,85,18,V,R,
334,82,40,7,2,36,44,480,['n'],1,right,['1'],6,205,[-0.163983],96,44,hard,minus,dotcolour,alfa,,,85,18,V,R,
335,83,41,7,2,27,53,516,['n'],1,right,['1'],6,177,[-0.10965903],91,53,easy,minus,dotcolour,alfa,,,85,18,V,R,
336,84,0,8,2,33,47,783,['n'],1,right,['2'],5,564,[-0.15964535],87,47,medium,minus,dotcolour,alfa,,,85,18,V,R,
337,85,1,8,2,47,33,799,['n'],0,left,['2'],5,199,[-0.03995884],69,47,medium,minus,dotcolour,alfa,,,85,18,V,R,
338,86,2,8,2,53,27,648,['c'],1,left,['2'],5,206,[0.10466991],89,53,easy,minus,dotcolour,alfa,,,85,18,V,R,
339,87,3,8,2,36,44,631,['n'],1,right,['2'],5,158,[-0.11715263],93,44,hard,minus,dotcolour,alfa,,,85,18,V,R,
340,88,4,8,2,27,53,848,['n'],1,right,['2'],5,175,[-0.07680527],84,53,easy,minus,dotcolour,alfa,,,85,18,V,R,
341,89,5,8,2,36,44,732,['n'],1,right,['2'],5,91,[-0.08443382],93,44,hard,minus,dotcolour,alfa,,,85,18,V,R,
342,90,6,8,2,44,36,933,['c'],1,left,['2'],5,179,[0.0643623],80,44,hard,minus,dotcolour,alfa,,,85,18,V,R,
343,91,7,8,2,27,53,499,['n'],1,right,['2'],5,146,[-0.04792885],76,53,easy,minus,dotcolour,alfa,,,85,18,V,R,
344,92,8,8,2,33,47,582,['n'],1,right,['2'],5,262,[-0.13013452],91,47,medium,minus,dotcolour,alfa,,,85,18,V,R,
345,93,9,8,2,44,36,1031,['c'],1,left,['3'],4,427,[0.03081127],60,44,hard,minus,dotcolour,alfa,,,85,18,V,R,
346,94,10,8,2,53,27,1116,['c'],1,left,['2'],5,342,[0.09299013],81,53,easy,minus,dotcolour,alfa,,,85,18,V,R,
347,95,11,8,2,36,44,715,['n'],1,right,['2'],5,382,[-0.07788004],76,44,hard,minus,dotcolour,alfa,,,85,18,V,R,
348,96,12,8,2,33,47,665,['n'],1,right,['2'],5,524,[-0.08222254],74,47,medium,minus,dotcolour,alfa,,,85,18,V,R,
349,97,13,8,2,47,33,932,['c'],1,left,['3'],4,739,[0.16459326],85,47,medium,minus,dotcolour,alfa,,,85,18,V,R,
350,98,14,8,2,33,47,1082,['n'],1,right,['2'],5,347,[-0.20354816],96,47,medium,minus,dotcolour,alfa,,,85,18,V,R,
351,99,15,8,2,47,33,947,['c'],1,left,['2'],5,336,[0.11302123],85,47,medium,minus,dotcolour,alfa,,,85,18,V,R,
352,100,16,8,2,36,44,1913,['n'],1,right,['3'],4,367,[-0.02159391],58,44,hard,minus,dotcolour,alfa,,,85,18,V,R,
353,101,17,8,2,27,53,582,['n'],1,right,['2'],5,235,[-0.06038186],75,53,easy,minus,dotcolour,alfa,,,85,18,V,R,
354,102,18,8,2,36,44,899,['n'],1,right,['2'],5,287,[-0.06703603],76,44,hard,minus,dotcolour,alfa,,,85,18,V,R,
355,103,19,8,2,36,44,499,['n'],1,right,['2'],5,280,[-0.16581878],94,44,hard,minus,dotcolour,alfa,,,85,18,V,R,
356,104,20,8,2,53,27,883,['c'],1,left,['2'],5,171,[0.14650705],96,53,easy,minus,dotcolour,alfa,,,85,18,V,R,
357,105,21,8,2,47,33,1483,['c'],1,left,['2'],5,170,[0.07519244],84,47,medium,minus,dotcolour,alfa,,,85,18,V,R,
358,106,22,8,2,36,44,1349,['n'],1,right,['9'],2,639,[-0.07635379],70,44,hard,minus,dotcolour,alfa,,,85,18,V,R,
359,107,23,8,2,27,53,799,['n'],1,right,['1'],6,206,[-0.05136693],73,53,easy,minus,dotcolour,alfa,,,85,18,V,R,
360,108,24,8,2,44,36,1765,['c'],1,left,['2'],5,336,[0.06620651],74,44,hard,minus,dotcolour,alfa,,,85,18,V,R,
361,109,25,8,2,27,53,733,['n'],1,right,['1'],6,375,[-0.06361525],72,53,easy,minus,dotcolour,alfa,,,85,18,V,R,
362,110,26,8,2,44,36,2583,['c'],1,left,['3'],4,649,[-0.02468534],43,44,hard,minus,dotcolour,alfa,,,85,18,V,R,
363,111,27,8,2,33,47,1131,['n'],1,right,['1'],6,299,[-0.12783917],89,47,medium,minus,dotcolour,alfa,,,85,18,V,R,
364,112,28,8,2,44,36,682,['n'],0,left,['2'],5,261,[-0.07063298],78,44,hard,minus,dotcolour,alfa,,,85,18,V,R,
365,113,29,8,2,33,47,632,['n'],1,right,['2'],5,122,[-0.03016069],69,47,medium,minus,dotcolour,alfa,,,85,18,V,R,
366,114,30,8,2,47,33,949,['c'],1,left,['3'],4,233,[0.17252334],96,47,medium,minus,dotcolour,alfa,,,85,18,V,R,
367,115,31,8,2,47,33,1649,['c'],1,left,['2'],5,151,[0.06865835],83,47,medium,minus,dotcolour,alfa,,,85,18,V,R,
368,116,32,8,2,27,53,532,['n'],1,right,['2'],5,269,[-0.04595411],69,53,easy,minus,dotcolour,alfa,,,85,18,V,R,
369,117,33,8,2,53,27,930,['c'],1,left,['2'],5,198,[0.08145354],84,53,easy,minus,dotcolour,alfa,,,85,18,V,R,
370,118,34,8,2,53,27,649,['c'],1,left,['2'],5,269,[0.1267977],90,53,easy,minus,dotcolour,alfa,,,85,18,V,R,
371,119,35,8,2,53,27,647,['c'],1,left,['1'],6,282,[0.13523452],91,53,easy,minus,dotcolour,alfa,,,85,18,V,R,
372,120,36,8,2,44,36,1199,['c'],1,left,['2'],5,408,[0.01174965],54,44,hard,minus,dotcolour,alfa,,,85,18,V,R,
373,121,37,8,2,33,47,831,['n'],1,right,['3'],4,639,[-0.23310984],93,47,medium,minus,dotcolour,alfa,,,85,18,V,R,
374,122,38,8,2,44,36,1281,['c'],1,left,['2'],5,354,[0.05278986],69,44,hard,minus,dotcolour,alfa,,,85,18,V,R,
375,123,39,8,2,53,27,1149,['c'],1,left,['2'],5,641,[0.10728207],77,53,easy,minus,dotcolour,alfa,,,85,18,V,R,
376,124,40,8,2,47,33,965,['c'],1,left,['2'],5,225,[0.10686158],88,47,medium,minus,dotcolour,alfa,,,85,18,V,R,
377,125,41,8,2,27,53,814,['n'],1,right,['2'],5,304,[-0.09053269],81,53,easy,minus,dotcolour,alfa,,,85,18,V,R,
378,0,0,9,3,53,27,799,['c'],1,left,['2'],5,750,[0.21796796],100,53,easy,plus,dotcolour,alfa,,,85,18,V,R,
379,1,1,9,3,44,36,899,['n'],0,left,['2'],5,189,[-0.07900128],100,44,hard,plus,dotcolour,alfa,,,85,18,V,R,
380,2,2,9,3,36,44,933,['n'],1,right,['2'],5,146,[-0.06898495],100,44,hard,plus,dotcolour,alfa,,,85,18,V,R,
381,3,3,9,3,47,33,867,['c'],1,left,['2'],5,107,[0.0506304],100,47,medium,plus,dotcolour,alfa,,,85,18,V,R,
382,4,4,9,3,53,27,714,['c'],1,left,['3'],4,219,[0.11924349],100,53,easy,plus,dotcolour,alfa,,,85,18,V,R,
383,5,5,9,3,53,27,615,['c'],1,left,['2'],5,155,[0.0308828],94,53,easy,plus,dotcolour,alfa,,,85,18,V,R,
384,6,6,9,3,53,27,566,['c'],1,left,['2'],5,175,[0.09674561],100,53,easy,plus,dotcolour,alfa,,,85,18,V,R,
385,7,7,9,3,53,27,648,['c'],1,left,['2'],5,255,[0.12937039],100,53,easy,plus,dotcolour,alfa,,,85,18,V,R,
386,8,8,9,3,44,36,999,['n'],0,left,['8'],3,414,[-1.96583481e-05],50,44,hard,plus,dotcolour,alfa,,,85,18,V,R,
387,9,9,9,3,47,33,848,['n'],0,left,['8'],3,197,[0.05391832],1,47,medium,plus,dotcolour,alfa,,,85,18,V,R,
388,10,10,9,3,27,53,1847,['n'],1,right,['2'],5,132,[-0.10702939],100,53,easy,plus,dotcolour,alfa,,,85,18,V,R,
389,11,11,9,3,33,47,817,['n'],1,right,['2'],5,152,[-0.03816277],97,47,medium,plus,dotcolour,alfa,,,85,18,V,R,
390,12,12,9,3,33,47,516,['n'],1,right,['2'],5,134,[-0.04188179],98,47,medium,plus,dotcolour,alfa,,,85,18,V,R,
391,13,13,9,3,27,53,598,['n'],1,right,['2'],5,162,[-0.08196083],100,53,easy,plus,dotcolour,alfa,,,85,18,V,R,
392,14,14,9,3,36,44,533,['n'],1,right,['2'],5,112,[-0.0820059],100,44,hard,plus,dotcolour,alfa,,,85,18,V,R,
393,15,15,9,3,36,44,430,['n'],1,right,['1'],6,155,[-0.04734839],99,44,hard,plus,dotcolour,alfa,,,85,18,V,R,
394,16,16,9,3,27,53,982,['n'],1,right,['2'],5,111,[-0.11749379],100,53,easy,plus,dotcolour,alfa,,,85,18,V,R,
395,17,17,9,3,36,44,481,['n'],1,right,['2'],5,96,[-0.08917255],100,44,hard,plus,dotcolour,alfa,,,85,18,V,R,
396,18,18,9,3,44,36,599,['n'],0,left,['2'],5,125,[-0.05270848],100,44,hard,plus,dotcolour,alfa,,,85,18,V,R,
397,19,19,9,3,36,44,882,['n'],1,right,['3'],4,173,[-0.0857416],100,44,hard,plus,dotcolour,alfa,,,85,18,V,R,
398,20,20,9,3,27,53,566,['n'],1,right,['2'],5,162,[-0.10291861],100,53,easy,plus,dotcolour,alfa,,,85,18,V,R,
399,21,21,9,3,36,44,514,['n'],1,right,['2'],5,176,[-0.11307615],100,44,hard,plus,dotcolour,alfa,,,85,18,V,R,
400,22,22,9,3,33,47,1467,['n'],1,right,['1'],6,231,[-0.15275368],100,47,medium,plus,dotcolour,alfa,,,85,18,V,R,
401,23,23,9,3,47,33,683,['n'],0,left,['9'],2,853,[0.01267139],38,47,medium,plus,dotcolour,alfa,,,85,18,V,R,
402,24,24,9,3,33,47,1216,['n'],1,right,['9'],2,242,[-0.14934694],100,47,medium,plus,dotcolour,alfa,,,85,18,V,R,
403,25,25,9,3,53,27,848,['n'],0,left,['0'],1,1039,[0.10199159],3,53,easy,plus,dotcolour,alfa,,,85,18,V,R,
404,26,26,9,3,44,36,1580,['n'],0,left,['1'],6,223,[-0.07940394],100,44,hard,plus,dotcolour,alfa,,,85,18,V,R,
405,27,27,9,3,27,53,566,['n'],1,right,['2'],5,241,[-0.06988311],99,53,easy,plus,dotcolour,alfa,,,85,18,V,R,
406,28,28,9,3,44,36,1567,['c'],1,left,['2'],5,513,[0.1319037],100,44,hard,plus,dotcolour,alfa,,,85,18,V,R,
407,29,29,9,3,47,33,1066,['c'],1,left,['3'],4,507,[0.12590899],100,47,medium,plus,dotcolour,alfa,,,85,18,V,R,
408,30,30,9,3,33,47,699,['n'],1,right,['2'],5,148,[-0.12497871],100,47,medium,plus,dotcolour,alfa,,,85,18,V,R,
409,31,31,9,3,33,47,999,['c'],0,right,['2'],5,151,[0.0905897],100,47,medium,plus,dotcolour,alfa,,,85,18,V,R,
410,32,32,9,3,44,36,749,['n'],0,left,['2'],5,149,[-0.10007452],100,44,hard,plus,dotcolour,alfa,,,85,18,V,R,
411,33,33,9,3,47,33,1047,['c'],1,left,['2'],5,190,[0.14190826],100,47,medium,plus,dotcolour,alfa,,,85,18,V,R,
412,34,34,9,3,27,53,648,['n'],1,right,['2'],5,245,[-0.09891105],100,53,easy,plus,dotcolour,alfa,,,85,18,V,R,
413,35,35,9,3,53,27,1065,['c'],1,left,['2'],5,218,[0.11771273],100,53,easy,plus,dotcolour,alfa,,,85,18,V,R,
414,36,36,9,3,44,36,1064,['c'],1,left,['2'],5,224,[0.09330776],100,44,hard,plus,dotcolour,alfa,,,85,18,V,R,
415,37,37,9,3,36,44,1232,['c'],0,right,['2'],5,583,[-0.01016346],38,44,hard,plus,dotcolour,alfa,,,85,18,V,R,
416,38,38,9,3,27,53,830,['n'],1,right,['2'],5,336,[-0.11136568],100,53,easy,plus,dotcolour,alfa,,,85,18,V,R,
417,39,39,9,3,47,33,866,['c'],1,left,['2'],5,168,[0.15819934],100,47,medium,plus,dotcolour,alfa,,,85,18,V,R,
418,40,40,9,3,33,47,631,['n'],1,right,['2'],5,138,[-0.025565],92,47,medium,plus,dotcolour,alfa,,,85,18,V,R,
419,41,41,9,3,47,33,765,['n'],0,left,['2'],5,158,[-0.11755197],100,47,medium,plus,dotcolour,alfa,,,85,18,V,R,
420,42,0,10,3,33,47,517,['n'],1,right,['2'],5,199,[-0.11116424],100,47,medium,plus,dotcolour,alfa,,,85,18,V,R,
421,43,1,10,3,36,44,630,['n'],1,right,['2'],5,160,[-0.09599457],100,44,hard,plus,dotcolour,alfa,,,85,18,V,R,
422,44,2,10,3,53,27,1048,['c'],1,left,['2'],5,168,[0.123412],100,53,easy,plus,dotcolour,alfa,,,85,18,V,R,
423,45,3,10,3,47,33,1349,['c'],1,left,['2'],5,261,[0.05513507],98,47,medium,plus,dotcolour,alfa,,,85,18,V,R,
424,46,4,10,3,44,36,1315,['c'],1,left,['2'],5,351,[0.05804616],97,44,hard,plus,dotcolour,alfa,,,85,18,V,R,
425,47,5,10,3,47,33,882,['c'],1,left,['2'],5,223,[0.06075802],99,47,medium,plus,dotcolour,alfa,,,85,18,V,R,
426,48,6,10,3,44,36,998,['n'],0,left,['2'],5,56,[-0.09436982],100,44,hard,plus,dotcolour,alfa,,,85,18,V,R,
427,49,7,10,3,36,44,432,['n'],1,right,['2'],5,126,[-0.06576332],100,44,hard,plus,dotcolour,alfa,,,85,18,V,R,
428,50,8,10,3,33,47,681,['n'],1,right,['2'],5,79,[-0.06460086],100,47,medium,plus,dotcolour,alfa,,,85,18,V,R,
429,51,9,10,3,36,44,547,['n'],1,right,['2'],5,231,[-0.02021833],82,44,hard,plus,dotcolour,alfa,,,85,18,V,R,
430,52,10,10,3,33,47,565,['n'],1,right,['2'],5,168,[-0.02081934],86,47,medium,plus,dotcolour,alfa,,,85,18,V,R,
431,53,11,10,3,47,33,999,['c'],1,left,['2'],5,178,[0.09570964],100,47,medium,plus,dotcolour,alfa,,,85,18,V,R,
432,54,12,10,3,36,44,533,['n'],1,right,['2'],5,96,[-0.12386419],100,44,hard,plus,dotcolour,alfa,,,85,18,V,R,
433,55,13,10,3,53,27,698,['c'],1,left,['2'],5,137,[0.07680842],100,53,easy,plus,dotcolour,alfa,,,85,18,V,R,
434,56,14,10,3,44,36,1149,['c'],1,left,['1'],6,311,[0.03284101],89,44,hard,plus,dotcolour,alfa,,,85,18,V,R,
435,57,15,10,3,36,44,532,['n'],1,right,['3'],4,270,[-0.09343132],100,44,hard,plus,dotcolour,alfa,,,85,18,V,R,
436,58,16,10,3,47,33,1015,['c'],1,left,['2'],5,116,[0.12387539],100,47,medium,plus,dotcolour,alfa,,,85,18,V,R,
437,59,17,10,3,44,36,1816,['c'],1,left,['2'],5,184,[0.09638907],100,44,hard,plus,dotcolour,alfa,,,85,18,V,R,
438,60,18,10,3,53,27,915,['c'],1,left,['2'],5,101,[0.09320863],100,53,easy,plus,dotcolour,alfa,,,85,18,V,R,
439,61,19,10,3,27,53,614,['n'],1,right,['2'],5,530,[-0.21507497],100,53,easy,plus,dotcolour,alfa,,,85,18,V,R,
440,62,20,10,3,27,53,548,['n'],1,right,['1'],6,480,[0.00912165],38,53,easy,plus,dotcolour,alfa,,,85,18,V,R,
441,63,21,10,3,44,36,915,['c'],1,left,['2'],5,218,[0.11955822],100,44,hard,plus,dotcolour,alfa,,,85,18,V,R,
442,64,22,10,3,53,27,665,['n'],0,left,['2'],5,159,[-0.0693797],100,53,easy,plus,dotcolour,alfa,,,85,18,V,R,
443,65,23,10,3,53,27,617,['c'],1,left,['2'],5,186,[0.03778165],96,53,easy,plus,dotcolour,alfa,,,85,18,V,R,
444,66,24,10,3,27,53,682,['n'],1,right,['2'],5,257,[-0.10670996],100,53,easy,plus,dotcolour,alfa,,,85,18,V,R,
445,67,25,10,3,44,36,898,['c'],1,left,['2'],5,188,[0.02271478],87,44,hard,plus,dotcolour,alfa,,,85,18,V,R,
446,68,26,10,3,33,47,749,['n'],1,right,['2'],5,143,[-0.05782763],100,47,medium,plus,dotcolour,alfa,,,85,18,V,R,
447,69,27,10,3,47,33,998,['c'],1,left,['2'],5,138,[0.08309183],100,47,medium,plus,dotcolour,alfa,,,85,18,V,R,
448,70,28,10,3,27,53,632,['n'],1,right,['2'],5,268,[-0.2043077],100,53,easy,plus,dotcolour,alfa,,,85,18,V,R,
449,71,29,10,3,33,47,814,['c'],0,right,['2'],5,306,[0.04461524],95,47,medium,plus,dotcolour,alfa,,,85,18,V,R,
450,72,30,10,3,33,47,680,['n'],1,right,['2'],5,148,[-0.0954076],100,47,medium,plus,dotcolour,alfa,,,85,18,V,R,
451,73,31,10,3,44,36,881,['c'],1,left,['2'],5,235,[0.03127531],91,44,hard,plus,dotcolour,alfa,,,85,18,V,R,
452,74,32,10,3,27,53,582,['n'],1,right,['2'],5,164,[-0.07396841],100,53,easy,plus,dotcolour,alfa,,,85,18,V,R,
453,75,33,10,3,27,53,898,['n'],1,right,['2'],5,250,[-0.08690376],100,53,easy,plus,dotcolour,alfa,,,85,18,V,R,
454,76,34,10,3,27,53,614,['n'],1,right,['2'],5,233,[-0.14582152],100,53,easy,plus,dotcolour,alfa,,,85,18,V,R,
455,77,35,10,3,36,44,1416,['c'],0,right,['2'],5,153,[0.06567818],100,44,hard,plus,dotcolour,alfa,,,85,18,V,R,
456,78,36,10,3,53,27,949,['c'],1,left,['8'],3,614,[0.20604802],100,53,easy,plus,dotcolour,alfa,,,85,18,V,R,
457,79,37,10,3,53,27,914,['c'],1,left,['9'],2,178,[0.06291272],100,53,easy,plus,dotcolour,alfa,,,85,18,V,R,
458,80,38,10,3,36,44,682,['n'],1,right,['2'],5,168,[-0.04741192],98,44,hard,plus,dotcolour,alfa,,,85,18,V,R,
459,81,39,10,3,33,47,632,['n'],1,right,['2'],5,218,[-0.00463387],59,47,medium,plus,dotcolour,alfa,,,85,18,V,R,
460,82,40,10,3,47,33,765,['c'],1,left,['2'],5,156,[0.11910282],100,47,medium,plus,dotcolour,alfa,,,85,18,V,R,
461,83,41,10,3,47,33,698,['c'],1,left,['2'],5,178,[0.14127465],100,47,medium,plus,dotcolour,alfa,,,85,18,V,R,
462,84,0,11,3,53,27,818,['c'],1,left,['2'],5,67,[0.09760418],100,53,easy,plus,dotcolour,alfa,,,85,18,V,R,
463,85,1,11,3,44,36,615,['c'],1,left,['2'],5,105,[0.12777061],100,44,hard,plus,dotcolour,alfa,,,85,18,V,R,
464,86,2,11,3,44,36,781,['c'],1,left,['2'],5,119,[0.11868714],100,44,hard,plus,dotcolour,alfa,,,85,18,V,R,
465,87,3,11,3,47,33,616,['c'],1,left,['2'],5,123,[0.10537555],100,47,medium,plus,dotcolour,alfa,,,85,18,V,R,
466,88,4,11,3,53,27,747,['c'],1,left,['2'],5,297,[0.13477654],100,53,easy,plus,dotcolour,alfa,,,85,18,V,R,
467,89,5,11,3,47,33,665,['c'],1,left,['2'],5,132,[0.06606537],100,47,medium,plus,dotcolour,alfa,,,85,18,V,R,
468,90,6,11,3,44,36,781,['c'],1,left,['2'],5,176,[0.14439839],100,44,hard,plus,dotcolour,alfa,,,85,18,V,R,
469,91,7,11,3,36,44,931,['n'],1,right,['8'],3,173,[-0.12076184],100,44,hard,plus,dotcolour,alfa,,,85,18,V,R,
470,92,8,11,3,27,53,699,['n'],1,right,['2'],5,195,[-0.11132297],100,53,easy,plus,dotcolour,alfa,,,85,18,V,R,
471,93,9,11,3,33,47,598,['n'],1,right,['2'],5,156,[-0.07184597],100,47,medium,plus,dotcolour,alfa,,,85,18,V,R,
472,94,10,11,3,27,53,532,['n'],1,right,['2'],5,131,[-0.08652542],100,53,easy,plus,dotcolour,alfa,,,85,18,V,R,
473,95,11,11,3,47,33,932,['c'],1,left,['3'],4,505,[0.0516345],93,47,medium,plus,dotcolour,alfa,,,85,18,V,R,
474,96,12,11,3,33,47,516,['n'],1,right,['2'],5,201,[-0.05993733],99,47,medium,plus,dotcolour,alfa,,,85,18,V,R,
475,97,13,11,3,36,44,1548,['n'],1,right,['2'],5,212,[-0.08882886],100,44,hard,plus,dotcolour,alfa,,,85,18,V,R,
476,98,14,11,3,27,53,631,['n'],1,right,['2'],5,163,[-0.11655838],100,53,easy,plus,dotcolour,alfa,,,85,18,V,R,
477,99,15,11,3,33,47,582,['n'],1,right,['2'],5,159,[-0.15180051],100,47,medium,plus,dotcolour,alfa,,,85,18,V,R,
478,100,16,11,3,53,27,633,['c'],1,left,['2'],5,168,[0.06521467],100,53,easy,plus,dotcolour,alfa,,,85,18,V,R,
479,101,17,11,3,53,27,632,['c'],1,left,['2'],5,209,[0.11973881],100,53,easy,plus,dotcolour,alfa,,,85,18,V,R,
480,102,18,11,3,33,47,765,['n'],1,right,['3'],4,555,[-0.02301172],75,47,medium,plus,dotcolour,alfa,,,85,18,V,R,
481,103,19,11,3,47,33,781,['c'],1,left,['2'],5,126,[0.04540288],99,47,medium,plus,dotcolour,alfa,,,85,18,V,R,
482,104,20,11,3,53,27,848,['c'],1,left,['2'],5,193,[0.06194271],99,53,easy,plus,dotcolour,alfa,,,85,18,V,R,
483,105,21,11,3,27,53,749,['n'],1,right,['1'],6,516,[-0.11373407],100,53,easy,plus,dotcolour,alfa,,,85,18,V,R,
484,106,22,11,3,27,53,847,['n'],1,right,['1'],6,375,[-0.12456389],100,53,easy,plus,dotcolour,alfa,,,85,18,V,R,
485,107,23,11,3,44,36,1781,['n'],0,left,['2'],5,313,[-0.06303477],98,44,hard,plus,dotcolour,alfa,,,85,18,V,R,
486,108,24,11,3,53,27,847,['c'],1,left,['2'],5,204,[0.16107844],100,53,easy,plus,dotcolour,alfa,,,85,18,V,R,
487,109,25,11,3,33,47,764,['n'],1,right,['8'],3,1431,[-0.0961131],95,47,medium,plus,dotcolour,alfa,,,85,18,V,R,
488,110,26,11,3,53,27,965,['c'],1,left,['1'],6,495,[0.01938217],73,53,easy,plus,dotcolour,alfa,,,85,18,V,R,
489,111,27,11,3,44,36,1016,['c'],1,left,['2'],5,164,[0.04364957],98,44,hard,plus,dotcolour,alfa,,,85,18,V,R,
490,112,28,11,3,36,44,732,['c'],0,right,['2'],5,154,[0.06320942],100,44,hard,plus,dotcolour,alfa,,,85,18,V,R,
491,113,29,11,3,33,47,897,['n'],1,right,['3'],4,721,[-0.10019659],99,47,medium,plus,dotcolour,alfa,,,85,18,V,R,
492,114,30,11,3,36,44,1149,['c'],0,right,['2'],5,871,[-0.04729847],14,44,hard,plus,dotcolour,alfa,,,85,18,V,R,
493,115,31,11,3,36,44,2431,['n'],1,right,['8'],3,244,[-0.07834029],100,44,hard,plus,dotcolour,alfa,,,85,18,V,R,
494,116,32,11,3,47,33,900,['c'],1,left,['3'],4,199,[0.07614923],100,47,medium,plus,dotcolour,alfa,,,85,18,V,R,
495,117,33,11,3,47,33,732,['c'],1,left,['2'],5,331,[0.13698542],100,47,medium,plus,dotcolour,alfa,,,85,18,V,R,
496,118,34,11,3,36,44,917,['n'],1,right,['3'],4,362,[-0.01812936],75,44,hard,plus,dotcolour,alfa,,,85,18,V,R,
497,119,35,11,3,27,53,1148,['n'],1,right,['2'],5,679,[-0.14597746],100,53,easy,plus,dotcolour,alfa,,,85,18,V,R,
498,120,36,11,3,47,33,864,['c'],1,left,['2'],5,874,[0.1453562],100,47,medium,plus,dotcolour,alfa,,,85,18,V,R,
499,121,37,11,3,44,36,664,['c'],1,left,['2'],5,150,[0.09348406],100,44,hard,plus,dotcolour,alfa,,,85,18,V,R,
500,122,38,11,3,44,36,814,['n'],0,left,['3'],4,417,[-0.09151306],99,44,hard,plus,dotcolour,alfa,,,85,18,V,R,
501,123,39,11,3,36,44,1014,['n'],1,right,['2'],5,176,[-0.08560225],100,44,hard,plus,dotcolour,alfa,,,85,18,V,R,
502,124,40,11,3,33,47,780,['n'],1,right,['2'],5,211,[-0.15990333],100,47,medium,plus,dotcolour,alfa,,,85,18,V,R,
503,125,41,11,3,27,53,649,['n'],1,right,['3'],4,354,[-0.08749746],100,53,easy,plus,dotcolour,alfa,,,85,18,V,R,
504,0,0,12,4,27,53,666,['n'],1,right,['2'],5,261,[-0.0844683],82,53,easy,minus,dotcolour,alfa,,,85,18,V,R,
505,1,1,12,4,36,44,716,['n'],1,right,['2'],5,135,[-0.05137894],78,44,hard,minus,dotcolour,alfa,,,85,18,V,R,
506,2,2,12,4,27,53,631,['n'],1,right,['2'],5,1074,[-0.27322635],91,53,easy,minus,dotcolour,alfa,,,85,18,V,R,
507,3,3,12,4,47,33,1598,['c'],1,left,['8'],3,727,[0.19128198],88,47,medium,minus,dotcolour,alfa,,,85,18,V,R,
508,4,4,12,4,36,44,633,['n'],1,right,['2'],5,186,[-0.05705915],77,44,hard,minus,dotcolour,alfa,,,85,18,V,R,
509,5,5,12,4,33,47,749,['n'],1,right,['2'],5,126,[-0.05460233],80,47,medium,minus,dotcolour,alfa,,,85,18,V,R,
510,6,6,12,4,53,27,749,['c'],1,left,['2'],5,116,[0.10963501],95,53,easy,minus,dotcolour,alfa,,,85,18,V,R,
511,7,7,12,4,33,47,482,['n'],1,right,['2'],5,174,[-0.10080334],90,47,medium,minus,dotcolour,alfa,,,85,18,V,R,
512,8,8,12,4,33,47,583,['n'],1,right,['1'],6,232,[-0.03675049],67,47,medium,minus,dotcolour,alfa,,,85,18,V,R,
513,9,9,12,4,44,36,849,['c'],1,left,['2'],5,126,[0.05548151],80,44,hard,minus,dotcolour,alfa,,,85,18,V,R,
514,10,10,12,4,27,53,1015,['n'],1,right,['9'],2,137,[-0.13078579],96,53,easy,minus,dotcolour,alfa,,,85,18,V,R,
515,11,11,12,4,47,33,1465,['c'],1,left,['2'],5,35,[0.0787478],98,47,medium,minus,dotcolour,alfa,,,85,18,V,R,
516,12,12,12,4,36,44,1348,['n'],1,right,['2'],5,525,[-0.06914804],70,44,hard,minus,dotcolour,alfa,,,85,18,V,R,
517,13,13,12,4,47,33,965,['n'],0,left,['2'],5,123,[-0.07715461],88,47,medium,minus,dotcolour,alfa,,,85,18,V,R,
518,14,14,12,4,36,44,765,['n'],1,right,['2'],5,152,[-0.08130397],87,44,hard,minus,dotcolour,alfa,,,85,18,V,R,
519,15,15,12,4,47,33,1049,['c'],1,left,['2'],5,129,[0.05083425],78,47,medium,minus,dotcolour,alfa,,,85,18,V,R,
520,16,16,12,4,27,53,750,['n'],1,right,['2'],5,152,[-0.12790739],95,53,easy,minus,dotcolour,alfa,,,85,18,V,R,
521,17,17,12,4,33,47,682,['n'],1,right,['2'],5,159,[-0.0652567],81,47,medium,minus,dotcolour,alfa,,,85,18,V,R,
522,18,18,12,4,44,36,899,['c'],1,left,['3'],4,422,[0.09263569],78,44,hard,minus,dotcolour,alfa,,,85,18,V,R,
523,19,19,12,4,44,36,1016,['c'],1,left,['2'],5,350,[0.08429964],78,44,hard,minus,dotcolour,alfa,,,85,18,V,R,
524,20,20,12,4,36,44,600,['n'],1,right,['2'],5,209,[-0.02986025],64,44,hard,minus,dotcolour,alfa,,,85,18,V,R,
525,21,21,12,4,33,47,850,['n'],1,right,['2'],5,279,[-0.09880606],84,47,medium,minus,dotcolour,alfa,,,85,18,V,R,
526,22,22,12,4,36,44,734,['n'],1,right,['2'],5,224,[-0.07855065],82,44,hard,minus,dotcolour,alfa,,,85,18,V,R,
527,23,23,12,4,47,33,1098,['c'],1,left,['2'],5,212,[0.08918358],85,47,medium,minus,dotcolour,alfa,,,85,18,V,R,
528,24,24,12,4,27,53,550,['n'],1,right,['2'],5,174,[-0.04826282],74,53,easy,minus,dotcolour,alfa,,,85,18,V,R,
529,25,25,12,4,47,33,1148,['n'],0,left,['2'],5,171,[-0.04248102],72,47,medium,minus,dotcolour,alfa,,,85,18,V,R,
530,26,26,12,4,47,33,749,['c'],1,left,['2'],5,143,[0.09209725],90,47,medium,minus,dotcolour,alfa,,,85,18,V,R,
531,27,27,12,4,53,27,798,['c'],1,left,['2'],5,202,[0.11536084],91,53,easy,minus,dotcolour,alfa,,,85,18,V,R,
532,28,28,12,4,53,27,832,['c'],1,left,['2'],5,155,[0.12892209],95,53,easy,minus,dotcolour,alfa,,,85,18,V,R,
533,29,29,12,4,33,47,582,['n'],1,right,['2'],5,215,[-0.05089227],73,47,medium,minus,dotcolour,alfa,,,85,18,V,R,
534,30,30,12,4,44,36,798,['c'],1,left,['2'],5,159,[0.12948313],95,44,hard,minus,dotcolour,alfa,,,85,18,V,R,
535,31,31,12,4,53,27,599,['c'],1,left,['1'],6,138,[0.04822354],76,53,easy,minus,dotcolour,alfa,,,85,18,V,R,
536,32,32,12,4,36,44,598,['n'],1,right,['3'],4,318,[-0.12714334],88,44,hard,minus,dotcolour,alfa,,,85,18,V,R,
537,33,33,12,4,44,36,482,['n'],0,left,['3'],4,575,[-0.19705555],91,44,hard,minus,dotcolour,alfa,,,85,18,V,R,
538,34,34,12,4,44,36,1048,['n'],0,left,['8'],3,328,[-0.05637259],71,44,hard,minus,dotcolour,alfa,,,85,18,V,R,
539,35,35,12,4,53,27,714,['c'],1,left,['2'],5,111,[0.07882896],89,53,easy,minus,dotcolour,alfa,,,85,18,V,R,
540,36,36,12,4,33,47,732,['n'],1,right,['1'],6,798,[-0.07389859],68,47,medium,minus,dotcolour,alfa,,,85,18,V,R,
541,37,37,12,4,44,36,882,['c'],1,left,['2'],5,252,[0.07508988],79,44,hard,minus,dotcolour,alfa,,,85,18,V,R,
542,38,38,12,4,53,27,848,['c'],1,left,['1'],6,161,[0.13450025],95,53,easy,minus,dotcolour,alfa,,,85,18,V,R,
543,39,39,12,4,27,53,665,['n'],1,right,['1'],6,313,[-0.08893156],81,53,easy,minus,dotcolour,alfa,,,85,18,V,R,
544,40,40,12,4,27,53,597,['n'],1,right,['1'],6,182,[-0.14076592],95,53,easy,minus,dotcolour,alfa,,,85,18,V,R,
545,41,41,12,4,53,27,900,['c'],1,left,['2'],5,132,[0.06382071],83,53,easy,minus,dotcolour,alfa,,,85,18,V,R,
546,42,0,13,4,53,27,1249,['c'],1,left,['2'],5,107,[0.09961088],94,53,easy,minus,dotcolour,alfa,,,85,18,V,R,
547,43,1,13,4,36,44,517,['n'],1,right,['2'],5,164,[-0.06632597],81,44,hard,minus,dotcolour,alfa,,,85,18,V,R,
548,44,2,13,4,47,33,916,['c'],1,left,['2'],5,145,[0.1160548],94,47,medium,minus,dotcolour,alfa,,,85,18,V,R,
549,45,3,13,4,47,33,1332,['c'],1,left,['2'],5,152,[0.07894137],86,47,medium,minus,dotcolour,alfa,,,85,18,V,R,
550,46,4,13,4,27,53,464,['n'],1,right,['1'],6,432,[-0.21639288],95,53,easy,minus,dotcolour,alfa,,,85,18,V,R,
551,47,5,13,4,27,53,516,['n'],1,right,['1'],6,316,[-0.11862245],87,53,easy,minus,dotcolour,alfa,,,85,18,V,R,
552,48,6,13,4,44,36,1133,['c'],1,left,['2'],5,251,[-0.02026595],41,44,hard,minus,dotcolour,alfa,,,85,18,V,R,
553,49,7,13,4,44,36,1148,['c'],1,left,['3'],4,140,[0.09927018],92,44,hard,minus,dotcolour,alfa,,,85,18,V,R,
554,50,8,13,4,53,27,799,['c'],1,left,['2'],5,168,[0.12333795],94,53,easy,minus,dotcolour,alfa,,,85,18,V,R,
555,51,9,13,4,47,33,1081,['c'],1,left,['2'],5,160,[0.12939651],95,47,medium,minus,dotcolour,alfa,,,85,18,V,R,
556,52,10,13,4,33,47,848,['n'],1,right,['1'],6,520,[-0.11477832],81,47,medium,minus,dotcolour,alfa,,,85,18,V,R,
557,53,11,13,4,36,44,616,['n'],1,right,['1'],6,188,[-0.01786828],59,44,hard,minus,dotcolour,alfa,,,85,18,V,R,
558,54,12,13,4,33,47,565,['n'],1,right,['1'],6,175,[-0.13240026],95,47,medium,minus,dotcolour,alfa,,,85,18,V,R,
559,55,13,13,4,44,36,1065,['c'],1,left,['2'],5,175,[0.09313616],88,44,hard,minus,dotcolour,alfa,,,85,18,V,R,
560,56,14,13,4,27,53,548,['n'],1,right,['1'],6,619,[-0.28658171],96,53,easy,minus,dotcolour,alfa,,,85,18,V,R,
561,57,15,13,4,27,53,567,['n'],1,right,['1'],6,213,[-0.09415094],86,53,easy,minus,dotcolour,alfa,,,85,18,V,R,
562,58,16,13,4,44,36,780,['c'],1,left,['1'],6,230,[0.10002395],87,44,hard,minus,dotcolour,alfa,,,85,18,V,R,
563,59,17,13,4,36,44,966,['c'],0,right,['1'],6,247,[0.02849856],63,44,hard,minus,dotcolour,alfa,,,85,18,V,R,
564,60,18,13,4,33,47,581,['n'],1,right,['1'],6,343,[-0.0834463],78,47,medium,minus,dotcolour,alfa,,,85,18,V,R,
565,61,19,13,4,53,27,898,['c'],1,left,['2'],5,223,[0.18988201],97,53,easy,minus,dotcolour,alfa,,,85,18,V,R,
566,62,20,13,4,53,27,813,['c'],1,left,['2'],5,167,[0.06186278],80,53,easy,minus,dotcolour,alfa,,,85,18,V,R,
567,63,21,13,4,36,44,2898,['n'],1,right,['2'],5,397,[-0.07324403],74,44,hard,minus,dotcolour,alfa,,,85,18,V,R,
568,64,22,13,4,36,44,1099,['n'],1,right,['2'],5,171,[-0.1597165],97,44,hard,minus,dotcolour,alfa,,,85,18,V,R,
569,65,23,13,4,47,33,900,['c'],1,left,['2'],5,121,[0.10102785],93,47,medium,minus,dotcolour,alfa,,,85,18,V,R,
570,66,24,13,4,27,53,584,['n'],1,right,['1'],6,374,[-0.06776258],73,53,easy,minus,dotcolour,alfa,,,85,18,V,R,
571,67,25,13,4,44,36,1033,['c'],1,left,['2'],5,159,[0.11409507],93,44,hard,minus,dotcolour,alfa,,,85,18,V,R,
572,68,26,13,4,44,36,899,['c'],1,left,['2'],5,437,[0.0258434],59,44,hard,minus,dotcolour,alfa,,,85,18,V,R,
573,69,27,13,4,33,47,964,['n'],1,right,['2'],5,247,[-0.17057992],96,47,medium,minus,dotcolour,alfa,,,85,18,V,R,
574,70,28,13,4,47,33,980,['c'],1,left,['2'],5,151,[0.06568639],82,47,medium,minus,dotcolour,alfa,,,85,18,V,R,
575,71,29,13,4,53,27,1265,['c'],1,left,['2'],5,167,[0.09819027],90,53,easy,minus,dotcolour,alfa,,,85,18,V,R,
576,72,30,13,4,53,27,781,['c'],1,left,['2'],5,147,[0.10532474],92,53,easy,minus,dotcolour,alfa,,,85,18,V,R,
577,73,31,13,4,53,27,998,['c'],1,left,['2'],5,118,[0.05784393],82,53,easy,minus,dotcolour,alfa,,,85,18,V,R,
578,74,32,13,4,47,33,1348,['c'],1,left,['2'],5,109,[0.11359243],96,47,medium,minus,dotcolour,alfa,,,85,18,V,R,
579,75,33,13,4,36,44,783,['n'],1,right,['1'],6,362,[0.02350647],41,44,hard,minus,dotcolour,alfa,,,85,18,V,R,
580,76,34,13,4,33,47,633,['n'],1,right,['1'],6,171,[-0.00688233],54,47,medium,minus,dotcolour,alfa,,,85,18,V,R,
581,77,35,13,4,36,44,463,['n'],1,right,['1'],6,268,[-0.03788294],66,44,hard,minus,dotcolour,alfa,,,85,18,V,R,
582,78,36,13,4,27,53,599,['n'],1,right,['1'],6,154,[-0.11274892],93,53,easy,minus,dotcolour,alfa,,,85,18,V,R,
583,79,37,13,4,33,47,465,['n'],1,right,['1'],6,251,[-0.00236757],51,47,medium,minus,dotcolour,alfa,,,85,18,V,R,
584,80,38,13,4,27,53,683,['n'],1,right,['1'],6,175,[-0.10302975],90,53,easy,minus,dotcolour,alfa,,,85,18,V,R,
585,81,39,13,4,33,47,532,['n'],1,right,['2'],5,196,[-0.11457022],91,47,medium,minus,dotcolour,alfa,,,85,18,V,R,
586,82,40,13,4,47,33,932,['c'],1,left,['2'],5,144,[0.09871767],91,47,medium,minus,dotcolour,alfa,,,85,18,V,R,
587,83,41,13,4,44,36,916,['c'],1,left,['2'],5,126,[0.04902048],78,44,hard,minus,dotcolour,alfa,,,85,18,V,R,
588,84,0,14,4,47,33,799,['c'],1,left,['2'],5,121,[0.09903341],93,47,medium,minus,dotcolour,alfa,,,85,18,V,R,
589,85,1,14,4,33,47,1216,['n'],1,right,['2'],5,133,[-0.10594532],93,47,medium,minus,dotcolour,alfa,,,85,18,V,R,
590,86,2,14,4,47,33,833,['c'],1,left,['2'],5,151,[0.04688481],75,47,medium,minus,dotcolour,alfa,,,85,18,V,R,
591,87,3,14,4,47,33,900,['n'],0,left,['2'],5,151,[-0.02425413],64,47,medium,minus,dotcolour,alfa,,,85,18,V,R,
592,88,4,14,4,36,44,630,['n'],1,right,['2'],5,184,[-0.08231462],85,44,hard,minus,dotcolour,alfa,,,85,18,V,R,
593,89,5,14,4,44,36,682,['c'],1,left,['2'],5,351,[0.15718573],92,44,hard,minus,dotcolour,alfa,,,85,18,V,R,
594,90,6,14,4,47,33,1600,['c'],1,left,['2'],5,298,[0.15591328],93,47,medium,minus,dotcolour,alfa,,,85,18,V,R,
595,91,7,14,4,36,44,465,['n'],1,right,['2'],5,140,[-0.07330717],85,44,hard,minus,dotcolour,alfa,,,85,18,V,R,
596,92,8,14,4,36,44,1150,['c'],0,right,['2'],5,3,[0.07708626],100,44,hard,minus,dotcolour,alfa,,,85,18,V,R,
597,93,9,14,4,27,53,715,['n'],1,right,['2'],5,168,[-0.03227047],67,53,easy,minus,dotcolour,alfa,,,85,18,V,R,
598,94,10,14,4,53,27,699,['c'],1,left,['2'],5,382,[0.08581023],78,53,easy,minus,dotcolour,alfa,,,85,18,V,R,
599,95,11,14,4,33,47,632,['n'],1,right,['2'],5,231,[-0.05611888],74,47,medium,minus,dotcolour,alfa,,,85,18,V,R,
600,96,12,14,4,44,36,1033,['c'],1,left,['2'],5,213,[0.01079474],55,44,hard,minus,dotcolour,alfa,,,85,18,V,R,
601,97,13,14,4,27,53,582,['n'],1,right,['2'],5,167,[-0.12658641],94,53,easy,minus,dotcolour,alfa,,,85,18,V,R,
602,98,14,14,4,27,53,816,['n'],1,right,['2'],5,121,[-0.1776258],99,53,easy,minus,dotcolour,alfa,,,85,18,V,R,
603,99,15,14,4,33,47,599,['n'],1,right,['2'],5,134,[-0.09624168],91,47,medium,minus,dotcolour,alfa,,,85,18,V,R,
604,100,16,14,4,27,53,449,['n'],1,right,['2'],5,144,[-0.08546069],88,53,easy,minus,dotcolour,alfa,,,85,18,V,R,
605,101,17,14,4,33,47,383,['n'],1,right,['2'],5,164,[-0.0832058],86,47,medium,minus,dotcolour,alfa,,,85,18,V,R,
606,102,18,14,4,44,36,398,['n'],0,left,['9'],2,822,[-0.1317439],79,44,hard,minus,dotcolour,alfa,,,85,18,V,R,
607,103,19,14,4,53,27,797,['c'],1,left,['2'],5,255,[0.1709851],95,53,easy,minus,dotcolour,alfa,,,85,18,V,R,
608,104,20,14,4,44,36,1216,['c'],1,left,['2'],5,133,[0.03251305],69,44,hard,minus,dotcolour,alfa,,,85,18,V,R,
609,105,21,14,4,47,33,848,['c'],1,left,['2'],5,175,[0.08371893],86,47,medium,minus,dotcolour,alfa,,,85,18,V,R,
610,106,22,14,4,36,44,649,['n'],1,right,['2'],5,135,[-0.08578295],89,44,hard,minus,dotcolour,alfa,,,85,18,V,R,
611,107,23,14,4,44,36,899,['c'],1,left,['2'],5,143,[0.04693383],75,44,hard,minus,dotcolour,alfa,,,85,18,V,R,
612,108,24,14,4,33,47,882,['c'],0,right,['2'],5,230,[-0.02285745],39,47,medium,minus,dotcolour,alfa,,,85,18,V,R,
613,109,25,14,4,33,47,565,['n'],1,right,['2'],5,337,[-0.16384649],93,47,medium,minus,dotcolour,alfa,,,85,18,V,R,
614,110,26,14,4,47,33,780,['c'],1,left,['2'],5,53,[0.07584574],95,47,medium,minus,dotcolour,alfa,,,85,18,V,R,
615,111,27,14,4,36,44,931,['n'],1,right,['2'],5,183,[-0.05891196],78,44,hard,minus,dotcolour,alfa,,,85,18,V,R,
616,112,28,14,4,47,33,767,['n'],0,left,['2'],5,163,[-0.05580622],78,47,medium,minus,dotcolour,alfa,,,85,18,V,R,
617,113,29,14,4,36,44,815,['c'],0,right,['2'],5,109,[0.08691709],91,44,hard,minus,dotcolour,alfa,,,85,18,V,R,
618,114,30,14,4,36,44,1049,['n'],1,right,['2'],5,135,[-0.09525532],91,44,hard,minus,dotcolour,alfa,,,85,18,V,R,
619,115,31,14,4,53,27,931,['n'],0,left,['2'],5,126,[-0.03081069],69,53,easy,minus,dotcolour,alfa,,,85,18,V,R,
620,116,32,14,4,44,36,882,['c'],1,left,['2'],5,78,[0.04963101],83,44,hard,minus,dotcolour,alfa,,,85,18,V,R,
621,117,33,14,4,53,27,698,['c'],1,left,['2'],5,113,[0.0862542],91,53,easy,minus,dotcolour,alfa,,,85,18,V,R,
622,118,34,14,4,44,36,782,['c'],1,left,['2'],5,86,[0.09803699],95,44,hard,minus,dotcolour,alfa,,,85,18,V,R,
623,119,35,14,4,33,47,863,['n'],1,right,['8'],3,105,[-0.03606209],73,47,medium,minus,dotcolour,alfa,,,85,18,V,R,
624,120,36,14,4,27,53,599,['n'],1,right,['2'],5,503,[-0.24172962],96,53,easy,minus,dotcolour,alfa,,,85,18,V,R,
625,121,37,14,4,27,53,700,['n'],1,right,['1'],6,184,[-0.11528556],92,53,easy,minus,dotcolour,alfa,,,85,18,V,R,
626,122,38,14,4,53,27,1282,['c'],1,left,['1'],6,127,[0.07654533],87,53,easy,minus,dotcolour,alfa,,,85,18,V,R,
627,123,39,14,4,53,27,731,['c'],1,left,['1'],6,125,[0.08095009],89,53,easy,minus,dotcolour,alfa,,,85,18,V,R,
628,124,40,14,4,53,27,983,['c'],1,left,['1'],6,114,[0.08518582],91,53,easy,minus,dotcolour,alfa,,,85,18,V,R,
629,125,41,14,4,27,53,598,['n'],1,right,['1'],6,215,[-0.15227007],95,53,easy,minus,dotcolour,alfa,,,85,18,V,R,
630,0,0,15,5,27,53,666,['n'],1,right,['2'],5,172,[-0.06345111],100,53,easy,plus,dotcolour,alfa,,,85,18,V,R,
631,1,1,15,5,36,44,483,['n'],1,right,['2'],5,99,[-0.05811753],100,44,hard,plus,dotcolour,alfa,,,85,18,V,R,
632,2,2,15,5,53,27,932,['c'],1,left,['2'],5,107,[0.03575641],98,53,easy,plus,dotcolour,alfa,,,85,18,V,R,
633,3,3,15,5,44,36,799,['n'],0,left,['2'],5,120,[-0.05681893],100,44,hard,plus,dotcolour,alfa,,,85,18,V,R,
634,4,4,15,5,53,27,748,['c'],1,left,['2'],5,118,[0.11962271],100,53,easy,plus,dotcolour,alfa,,,85,18,V,R,
635,5,5,15,5,36,44,598,['n'],1,right,['2'],5,51,[-0.09575671],100,44,hard,plus,dotcolour,alfa,,,85,18,V,R,
636,6,6,15,5,27,53,797,['n'],1,right,['2'],5,82,[-0.07645418],100,53,easy,plus,dotcolour,alfa,,,85,18,V,R,
637,7,7,15,5,36,44,782,['n'],1,right,['1'],6,153,[-0.15960774],100,44,hard,plus,dotcolour,alfa,,,85,18,V,R,
638,8,8,15,5,44,36,1516,['n'],0,left,['8'],3,207,[0.01380635],25,44,hard,plus,dotcolour,alfa,,,85,18,V,R,
639,9,9,15,5,33,47,1281,['n'],1,right,['2'],5,156,[-0.13527298],100,47,medium,plus,dotcolour,alfa,,,85,18,V,R,
640,10,10,15,5,33,47,716,['n'],1,right,['2'],5,107,[-0.09051518],100,47,medium,plus,dotcolour,alfa,,,85,18,V,R,
641,11,11,15,5,27,53,649,['n'],1,right,['2'],5,93,[-0.05596902],100,53,easy,plus,dotcolour,alfa,,,85,18,V,R,
642,12,12,15,5,47,33,882,['c'],1,left,['2'],5,127,[0.10858702],100,47,medium,plus,dotcolour,alfa,,,85,18,V,R,
643,13,13,15,5,36,44,816,['n'],1,right,['2'],5,163,[-0.13785033],100,44,hard,plus,dotcolour,alfa,,,85,18,V,R,
644,14,14,15,5,53,27,881,['c'],1,left,['2'],5,130,[0.11679328],100,53,easy,plus,dotcolour,alfa,,,85,18,V,R,
645,15,15,15,5,27,53,681,['n'],1,right,['2'],5,82,[-0.09367111],100,53,easy,plus,dotcolour,alfa,,,85,18,V,R,
646,16,16,15,5,47,33,883,['c'],1,left,['2'],5,125,[0.09238138],100,47,medium,plus,dotcolour,alfa,,,85,18,V,R,
647,17,17,15,5,27,53,614,['n'],1,right,['2'],5,128,[-0.07748037],100,53,easy,plus,dotcolour,alfa,,,85,18,V,R,
648,18,18,15,5,44,36,780,['c'],1,left,['2'],5,117,[0.09782283],100,44,hard,plus,dotcolour,alfa,,,85,18,V,R,
649,19,19,15,5,53,27,881,['c'],1,left,['2'],5,142,[0.04384398],99,53,easy,plus,dotcolour,alfa,,,85,18,V,R,
650,20,20,15,5,33,47,983,['n'],1,right,['2'],5,163,[-0.09752352],100,47,medium,plus,dotcolour,alfa,,,85,18,V,R,
651,21,21,15,5,44,36,1699,['c'],1,left,['2'],5,106,[0.15215602],100,44,hard,plus,dotcolour,alfa,,,85,18,V,R,
652,22,22,15,5,33,47,832,['n'],1,right,['1'],6,205,[-0.05621325],99,47,medium,plus,dotcolour,alfa,,,85,18,V,R,
653,23,23,15,5,33,47,717,['n'],1,right,['1'],6,266,[-0.04646914],96,47,medium,plus,dotcolour,alfa,,,85,18,V,R,
654,24,24,15,5,33,47,583,['n'],1,right,['1'],6,201,[-0.07004427],100,47,medium,plus,dotcolour,alfa,,,85,18,V,R,
655,25,25,15,5,27,53,615,['n'],1,right,['1'],6,185,[-0.04355276],97,53,easy,plus,dotcolour,alfa,,,85,18,V,R,
656,26,26,15,5,53,27,1199,['c'],1,left,['8'],3,556,[0.18847983],100,53,easy,plus,dotcolour,alfa,,,85,18,V,R,
657,27,27,15,5,36,44,599,['n'],1,right,['1'],6,198,[-0.14195583],100,44,hard,plus,dotcolour,alfa,,,85,18,V,R,
658,28,28,15,5,44,36,934,['n'],0,left,['2'],5,130,[-0.06681891],100,44,hard,plus,dotcolour,alfa,,,85,18,V,R,
659,29,29,15,5,44,36,1181,['c'],1,left,['2'],5,191,[0.07046609],100,44,hard,plus,dotcolour,alfa,,,85,18,V,R,
660,30,30,15,5,47,33,931,['c'],1,left,['2'],5,132,[0.14947634],100,47,medium,plus,dotcolour,alfa,,,85,18,V,R,
661,31,31,15,5,33,47,715,['n'],1,right,['2'],5,114,[-0.13709979],100,47,medium,plus,dotcolour,alfa,,,85,18,V,R,
662,32,32,15,5,47,33,965,['c'],1,left,['2'],5,112,[0.11737379],100,47,medium,plus,dotcolour,alfa,,,85,18,V,R,
663,33,33,15,5,36,44,982,['n'],1,right,['3'],4,206,[-0.04987964],98,44,hard,plus,dotcolour,alfa,,,85,18,V,R,
664,34,34,15,5,47,33,965,['c'],1,left,['2'],5,96,[0.06644454],100,47,medium,plus,dotcolour,alfa,,,85,18,V,R,
665,35,35,15,5,53,27,932,['c'],1,left,['2'],5,89,[0.07171184],100,53,easy,plus,dotcolour,alfa,,,85,18,V,R,
666,36,36,15,5,44,36,565,['n'],0,left,['2'],5,119,[-0.07763898],100,44,hard,plus,dotcolour,alfa,,,85,18,V,R,
667,37,37,15,5,47,33,850,['c'],1,left,['2'],5,122,[0.05247725],100,47,medium,plus,dotcolour,alfa,,,85,18,V,R,
668,38,38,15,5,47,33,700,['c'],1,left,['2'],5,131,[0.08822098],100,47,medium,plus,dotcolour,alfa,,,85,18,V,R,
669,39,39,15,5,36,44,1016,['n'],1,right,['2'],5,142,[-0.12049679],100,44,hard,plus,dotcolour,alfa,,,85,18,V,R,
670,40,40,15,5,27,53,815,['c'],0,right,['9'],2,1128,[-0.05052092],15,53,easy,plus,dotcolour,alfa,,,85,18,V,R,
671,41,41,15,5,53,27,848,['c'],1,left,['2'],5,98,[0.10123929],100,53,easy,plus,dotcolour,alfa,,,85,18,V,R,
672,42,0,16,5,36,44,633,['n'],1,right,['2'],5,115,[-0.0807245],100,44,hard,plus,dotcolour,alfa,,,85,18,V,R,
673,43,1,16,5,27,53,832,['n'],1,right,['2'],5,30,[-0.08243608],100,53,easy,plus,dotcolour,alfa,,,85,18,V,R,
674,44,2,16,5,44,36,1265,['c'],1,left,['2'],5,795,[0.16353569],100,44,hard,plus,dotcolour,alfa,,,85,18,V,R,
675,45,3,16,5,33,47,498,['n'],1,right,['2'],5,233,[-0.05625012],99,47,medium,plus,dotcolour,alfa,,,85,18,V,R,
676,46,4,16,5,53,27,931,['n'],0,left,['2'],5,219,[-0.0550767],99,53,easy,plus,dotcolour,alfa,,,85,18,V,R,
677,47,5,16,5,53,27,1049,['c'],1,left,['2'],5,122,[0.08577561],100,53,easy,plus,dotcolour,alfa,,,85,18,V,R,
678,48,6,16,5,44,36,849,['c'],1,left,['2'],5,100,[0.08963493],100,44,hard,plus,dotcolour,alfa,,,85,18,V,R,
679,49,7,16,5,27,53,732,['n'],1,right,['2'],5,124,[-0.12250489],100,53,easy,plus,dotcolour,alfa,,,85,18,V,R,
680,50,8,16,5,36,44,950,['c'],0,right,['2'],5,123,[0.01849453],87,44,hard,plus,dotcolour,alfa,,,85,18,V,R,
681,51,9,16,5,27,53,415,['n'],1,right,['2'],5,255,[-0.13641913],100,53,easy,plus,dotcolour,alfa,,,85,18,V,R,
682,52,10,16,5,36,44,633,['n'],1,right,['2'],5,149,[-0.09976058],100,44,hard,plus,dotcolour,alfa,,,85,18,V,R,
683,53,11,16,5,33,47,1100,['n'],1,right,['2'],5,172,[-0.04817507],98,47,medium,plus,dotcolour,alfa,,,85,18,V,R,
684,54,12,16,5,53,27,832,['c'],1,left,['2'],5,125,[0.06506586],100,53,easy,plus,dotcolour,alfa,,,85,18,V,R,
685,55,13,16,5,53,27,815,['c'],1,left,['2'],5,136,[0.05230782],99,53,easy,plus,dotcolour,alfa,,,85,18,V,R,
686,56,14,16,5,47,33,882,['c'],1,left,['2'],5,89,[0.09480359],100,47,medium,plus,dotcolour,alfa,,,85,18,V,R,
687,57,15,16,5,44,36,999,['c'],1,left,['3'],4,327,[0.09512666],100,44,hard,plus,dotcolour,alfa,,,85,18,V,R,
688,58,16,16,5,47,33,2032,['c'],1,left,['2'],5,98,[0.11156659],100,47,medium,plus,dotcolour,alfa,,,85,18,V,R,
689,59,17,16,5,33,47,631,['n'],1,right,['2'],5,134,[-0.09102889],100,47,medium,plus,dotcolour,alfa,,,85,18,V,R,
690,60,18,16,5,47,33,1331,['n'],0,left,['2'],5,132,[0.00244984],44,47,medium,plus,dotcolour,alfa,,,85,18,V,R,
691,61,19,16,5,47,33,817,['c'],1,left,['2'],5,128,[0.11914916],100,47,medium,plus,dotcolour,alfa,,,85,18,V,R,
692,62,20,16,5,36,44,634,['n'],1,right,['2'],5,178,[-0.02048503],85,44,hard,plus,dotcolour,alfa,,,85,18,V,R,
693,63,21,16,5,33,47,549,['n'],1,right,['2'],5,190,[-0.07995324],100,47,medium,plus,dotcolour,alfa,,,85,18,V,R,
694,64,22,16,5,36,44,498,['n'],1,right,['2'],5,164,[-0.08497689],100,44,hard,plus,dotcolour,alfa,,,85,18,V,R,
695,65,23,16,5,36,44,647,['n'],1,right,['2'],5,108,[-0.05672174],100,44,hard,plus,dotcolour,alfa,,,85,18,V,R,
696,66,24,16,5,47,33,865,['c'],1,left,['2'],5,118,[0.12031672],100,47,medium,plus,dotcolour,alfa,,,85,18,V,R,
697,67,25,16,5,33,47,533,['n'],1,right,['2'],5,181,[-0.08136829],100,47,medium,plus,dotcolour,alfa,,,85,18,V,R,
698,68,26,16,5,27,53,532,['n'],1,right,['2'],5,98,[-0.05588111],100,53,easy,plus,dotcolour,alfa,,,85,18,V,R,
699,69,27,16,5,53,27,731,['c'],1,left,['2'],5,122,[0.08912253],100,53,easy,plus,dotcolour,alfa,,,85,18,V,R,
700,70,28,16,5,53,27,833,['c'],1,left,['2'],5,133,[0.05880979],100,53,easy,plus,dotcolour,alfa,,,85,18,V,R,
701,71,29,16,5,36,44,700,['n'],1,right,['2'],5,101,[-0.14988703],100,44,hard,plus,dotcolour,alfa,,,85,18,V,R,
702,72,30,16,5,44,36,432,['n'],0,left,['2'],5,241,[-0.05514691],98,44,hard,plus,dotcolour,alfa,,,85,18,V,R,
703,73,31,16,5,27,53,531,['n'],1,right,['2'],5,131,[-0.09756911],100,53,easy,plus,dotcolour,alfa,,,85,18,V,R,
704,74,32,16,5,27,53,500,['n'],1,right,['1'],6,235,[-0.12296583],100,53,easy,plus,dotcolour,alfa,,,85,18,V,R,
705,75,33,16,5,44,36,834,['c'],1,left,['2'],5,90,[0.07436699],100,44,hard,plus,dotcolour,alfa,,,85,18,V,R,
706,76,34,16,5,33,47,582,['n'],1,right,['2'],5,97,[-0.07585871],100,47,medium,plus,dotcolour,alfa,,,85,18,V,R,
707,77,35,16,5,33,47,581,['n'],1,right,['2'],5,119,[-0.06520974],100,47,medium,plus,dotcolour,alfa,,,85,18,V,R,
708,78,36,16,5,47,33,966,['c'],1,left,['2'],5,173,[0.10401012],100,47,medium,plus,dotcolour,alfa,,,85,18,V,R,
709,79,37,16,5,27,53,516,['n'],1,right,['2'],5,123,[-0.08176655],100,53,easy,plus,dotcolour,alfa,,,85,18,V,R,
710,80,38,16,5,53,27,730,['c'],1,left,['2'],5,130,[0.10113841],100,53,easy,plus,dotcolour,alfa,,,85,18,V,R,
711,81,39,16,5,44,36,1265,['c'],1,left,['2'],5,131,[0.04347861],99,44,hard,plus,dotcolour,alfa,,,85,18,V,R,
712,82,40,16,5,47,33,933,['c'],1,left,['2'],5,66,[0.09618123],100,47,medium,plus,dotcolour,alfa,,,85,18,V,R,
713,83,41,16,5,44,36,1179,['c'],1,left,['1'],6,129,[0.10356979],100,44,hard,plus,dotcolour,alfa,,,85,18,V,R,
714,84,0,17,5,47,33,1533,['n'],0,left,['3'],4,1218,[-0.14134061],99,47,medium,plus,dotcolour,alfa,,,85,18,V,R,
715,85,1,17,5,27,53,981,['n'],1,right,['2'],5,51,[-0.14932668],100,53,easy,plus,dotcolour,alfa,,,85,18,V,R,
716,86,2,17,5,36,44,783,['n'],1,right,['2'],5,155,[-0.08907812],100,44,hard,plus,dotcolour,alfa,,,85,18,V,R,
717,87,3,17,5,36,44,714,['n'],1,right,['2'],5,177,[-0.12063214],100,44,hard,plus,dotcolour,alfa,,,85,18,V,R,
718,88,4,17,5,53,27,933,['c'],1,left,['2'],5,158,[0.08011022],100,53,easy,plus,dotcolour,alfa,,,85,18,V,R,
719,89,5,17,5,36,44,697,['n'],1,right,['2'],5,12637,[-0.38122666],98,44,hard,plus,dotcolour,alfa,,,85,18,V,R,
720,90,6,17,5,53,27,981,['n'],0,left,['8'],3,162,[-0.00599073],63,53,easy,plus,dotcolour,alfa,,,85,18,V,R,
721,91,7,17,5,53,27,999,['c'],1,left,['2'],5,85,[0.0768233],100,53,easy,plus,dotcolour,alfa,,,85,18,V,R,
722,92,8,17,5,27,53,649,['n'],1,right,['9'],2,208,[-0.08465239],100,53,easy,plus,dotcolour,alfa,,,85,18,V,R,
723,93,9,17,5,33,47,516,['n'],1,right,['2'],5,85,[-0.02087382],93,47,medium,plus,dotcolour,alfa,,,85,18,V,R,
724,94,10,17,5,36,44,466,['n'],1,right,['2'],5,144,[-0.01669655],83,44,hard,plus,dotcolour,alfa,,,85,18,V,R,
725,95,11,17,5,44,36,899,['n'],0,left,['2'],5,112,[-0.0400668],99,44,hard,plus,dotcolour,alfa,,,85,18,V,R,
726,96,12,17,5,33,47,565,['n'],1,right,['2'],5,101,[-0.09634005],100,47,medium,plus,dotcolour,alfa,,,85,18,V,R,
727,97,13,17,5,33,47,499,['n'],1,right,['2'],5,95,[-0.13084133],100,47,medium,plus,dotcolour,alfa,,,85,18,V,R,
728,98,14,17,5,53,27,765,['c'],1,left,['2'],5,117,[0.07167323],100,53,easy,plus,dotcolour,alfa,,,85,18,V,R,
729,99,15,17,5,36,44,647,['n'],1,right,['2'],5,96,[-0.05633891],100,44,hard,plus,dotcolour,alfa,,,85,18,V,R,
730,100,16,17,5,44,36,1865,['c'],1,left,['2'],5,227,[0.06284507],99,44,hard,plus,dotcolour,alfa,,,85,18,V,R,
731,101,17,17,5,33,47,631,['n'],1,right,['2'],5,121,[-0.04652935],99,47,medium,plus,dotcolour,alfa,,,85,18,V,R,
732,102,18,17,5,44,36,1231,['c'],1,left,['2'],5,109,[0.03391984],98,44,hard,plus,dotcolour,alfa,,,85,18,V,R,
733,103,19,17,5,27,53,1064,['n'],1,right,['2'],5,127,[-0.08803107],100,53,easy,plus,dotcolour,alfa,,,85,18,V,R,
734,104,20,17,5,27,53,565,['n'],1,right,['2'],5,140,[-0.06482659],100,53,easy,plus,dotcolour,alfa,,,85,18,V,R,
735,105,21,17,5,27,53,463,['n'],1,right,['2'],5,149,[-0.09917912],100,53,easy,plus,dotcolour,alfa,,,85,18,V,R,
736,106,22,17,5,47,33,849,['c'],1,left,['2'],5,95,[0.06023151],100,47,medium,plus,dotcolour,alfa,,,85,18,V,R,
737,107,23,17,5,44,36,765,['c'],1,left,['2'],5,110,[0.0523304],100,44,hard,plus,dotcolour,alfa,,,85,18,V,R,
738,108,24,17,5,47,33,699,['c'],1,left,['2'],5,134,[0.13408818],100,47,medium,plus,dotcolour,alfa,,,85,18,V,R,
739,109,25,17,5,47,33,565,['c'],1,left,['2'],5,59,[0.07460583],100,47,medium,plus,dotcolour,alfa,,,85,18,V,R,
740,110,26,17,5,33,47,632,['n'],1,right,['8'],3,193,[-0.1135265],100,47,medium,plus,dotcolour,alfa,,,85,18,V,R,
741,111,27,17,5,44,36,153,['c'],1,left,['2'],5,27,[0.090916],100,44,hard,plus,dotcolour,alfa,,,85,18,V,R,
742,112,28,17,5,44,36,648,['c'],1,left,['2'],5,96,[0.09705431],100,44,hard,plus,dotcolour,alfa,,,85,18,V,R,
743,113,29,17,5,36,44,783,['n'],1,right,['2'],5,190,[-0.10170984],100,44,hard,plus,dotcolour,alfa,,,85,18,V,R,
744,114,30,17,5,44,36,883,['c'],1,left,['2'],5,85,[0.10264224],100,44,hard,plus,dotcolour,alfa,,,85,18,V,R,
745,115,31,17,5,27,53,499,['n'],1,right,['2'],5,198,[-0.10407468],100,53,easy,plus,dotcolour,alfa,,,85,18,V,R,
746,116,32,17,5,33,47,633,['n'],1,right,['2'],5,143,[-0.13443414],100,47,medium,plus,dotcolour,alfa,,,85,18,V,R,
747,117,33,17,5,53,27,681,['c'],1,left,['2'],5,86,[0.09653607],100,53,easy,plus,dotcolour,alfa,,,85,18,V,R,
748,118,34,17,5,27,53,765,['n'],1,right,['2'],5,110,[-0.08050229],100,53,easy,plus,dotcolour,alfa,,,85,18,V,R,
749,119,35,17,5,36,44,1065,['n'],1,right,['2'],5,104,[-0.12676763],100,44,hard,plus,dotcolour,alfa,,,85,18,V,R,
750,120,36,17,5,47,33,815,['c'],1,left,['2'],5,108,[0.06300628],100,47,medium,plus,dotcolour,alfa,,,85,18,V,R,
751,121,37,17,5,47,33,816,['c'],1,left,['2'],5,89,[0.08225669],100,47,medium,plus,dotcolour,alfa,,,85,18,V,R,
752,122,38,17,5,53,27,599,['c'],1,left,['2'],5,119,[0.05587261],100,53,easy,plus,dotcolour,alfa,,,85,18,V,R,
753,123,39,17,5,33,47,715,['n'],1,right,['2'],5,166,[-0.10731931],100,47,medium,plus,dotcolour,alfa,,,85,18,V,R,
754,124,40,17,5,47,33,549,['n'],0,left,['2'],5,91,[-0.08802224],100,47,medium,plus,dotcolour,alfa,,,85,18,V,R,
755,125,41,17,5,53,27,698,['c'],1,left,['2'],5,148,[0.09378052],100,53,easy,plus,dotcolour,alfa,,,85,18,V,R,
,,,,,,,,,,,,,,,,,,,,,1,  nee,85,18,V,R,
,,,,,,,,,,,,,,,,,,,,,2,['f'],85,18,V,R,
,,,,,,,,,,,,,,,,,,,,,3,['d'],85,18,V,R,
,,,,,,,,,,,,,,,,,,,,,5,[],85,18,V,R,
