trial,withinphasetrial,withinblocktrial,block,phase,dotsLeft,dotsRight,rt,resp,cor,cresp,conf_press,cj,RTconf,ev,fb,diff,difflevel,condition,task,manip,questionID,questionResp,sub,age,gender,handedness,
0,0,0,0,0,33,47,2701,['n'],1,right,['3'],4,2233,[-0.27699312],100,47,medium,plus,dotcolour,alfa,,,108,19,V,R,
1,1,1,0,0,36,44,3134,['c'],0,right,['9'],2,2235,[-0.03133922],32,44,hard,plus,dotcolour,alfa,,,108,19,V,R,
2,2,2,0,0,53,27,1300,['n'],0,left,['2'],5,911,[0.13238284],1,53,easy,plus,dotcolour,alfa,,,108,19,V,R,
3,3,3,0,0,33,47,1450,['n'],1,right,['9'],2,945,[-0.23122022],100,47,medium,plus,dotcolour,alfa,,,108,19,V,R,
4,4,4,0,0,44,36,2250,['c'],1,left,['2'],5,946,[0.16713983],100,44,hard,plus,dotcolour,alfa,,,108,19,V,R,
5,5,5,0,0,33,47,2550,['n'],1,right,['9'],2,992,[-0.16977228],100,47,medium,plus,dotcolour,alfa,,,108,19,V,R,
6,6,6,0,0,27,53,1649,['n'],1,right,['3'],4,1808,[-0.37838335],100,53,easy,plus,dotcolour,alfa,,,108,19,V,R,
7,7,7,0,0,53,27,1783,['c'],1,left,['1'],6,560,[-0.00068439],49,53,easy,plus,dotcolour,alfa,,,108,19,V,R,
8,8,8,0,0,33,47,1216,['n'],1,right,['2'],5,746,[-0.20847885],100,47,medium,plus,dotcolour,alfa,,,108,19,V,R,
9,9,9,0,0,36,44,1767,['c'],0,right,['2'],5,655,[0.02585266],76,44,hard,plus,dotcolour,alfa,,,108,19,V,R,
10,10,10,0,0,44,36,1600,['c'],1,left,['2'],5,654,[0.16181766],100,44,hard,plus,dotcolour,alfa,,,108,19,V,R,
11,11,11,0,0,53,27,1516,['n'],0,left,['2'],5,391,[-0.08175515],99,53,easy,plus,dotcolour,alfa,,,108,19,V,R,
12,12,12,0,0,36,44,717,['n'],1,right,['1'],6,516,[-0.08624561],99,44,hard,plus,dotcolour,alfa,,,108,19,V,R,
13,13,13,0,0,44,36,884,['c'],1,left,['1'],6,357,[0.14904315],100,44,hard,plus,dotcolour,alfa,,,108,19,V,R,
14,14,14,0,0,47,33,716,['c'],1,left,['1'],6,348,[0.12631932],100,47,medium,plus,dotcolour,alfa,,,108,19,V,R,
15,15,15,0,0,33,47,550,['n'],1,right,['1'],6,593,[-0.25589385],100,47,medium,plus,dotcolour,alfa,,,108,19,V,R,
16,16,16,0,0,27,53,667,['n'],1,right,['1'],6,280,[-0.08373858],100,53,easy,plus,dotcolour,alfa,,,108,19,V,R,
17,17,17,0,0,36,44,517,['n'],1,right,['1'],6,289,[-0.01765174],77,44,hard,plus,dotcolour,alfa,,,108,19,V,R,
18,18,18,0,0,27,53,1050,['n'],1,right,['1'],6,252,[-0.2176007],100,53,easy,plus,dotcolour,alfa,,,108,19,V,R,
19,19,19,0,0,44,36,850,['c'],1,left,['3'],4,922,[0.14025457],99,44,hard,plus,dotcolour,alfa,,,108,19,V,R,
20,20,20,0,0,27,53,717,['n'],1,right,['2'],5,313,[0.01882404],23,53,easy,plus,dotcolour,alfa,,,108,19,V,R,
21,21,21,0,0,33,47,1083,['n'],1,right,['1'],6,1027,[-0.33441536],100,47,medium,plus,dotcolour,alfa,,,108,19,V,R,
22,22,22,0,0,44,36,933,['n'],0,left,['3'],4,765,[0.09060098],2,44,hard,plus,dotcolour,alfa,,,108,19,V,R,
23,23,23,0,0,47,33,817,['n'],0,left,['1'],6,456,[-0.18127419],100,47,medium,plus,dotcolour,alfa,,,108,19,V,R,
24,24,24,0,0,47,33,1367,['c'],1,left,['1'],6,439,[0.02496136],80,47,medium,plus,dotcolour,alfa,,,108,19,V,R,
25,25,25,0,0,47,33,1300,['c'],1,left,['1'],6,362,[0.1405361],100,47,medium,plus,dotcolour,alfa,,,108,19,V,R,
26,26,26,0,0,36,44,750,['n'],1,right,['1'],6,327,[-0.13700136],100,44,hard,plus,dotcolour,alfa,,,108,19,V,R,
27,27,27,0,0,33,47,851,['n'],1,right,['1'],6,169,[-0.13577439],100,47,medium,plus,dotcolour,alfa,,,108,19,V,R,
28,28,28,0,0,27,53,617,['n'],1,right,['1'],6,355,[-0.04758417],95,53,easy,plus,dotcolour,alfa,,,108,19,V,R,
29,29,29,0,0,27,53,550,['n'],1,right,['1'],6,320,[-0.04621933],95,53,easy,plus,dotcolour,alfa,,,108,19,V,R,
30,30,30,0,0,27,53,666,['n'],1,right,['1'],6,267,[-0.0551901],98,53,easy,plus,dotcolour,alfa,,,108,19,V,R,
31,31,31,0,0,47,33,983,['c'],1,left,['1'],6,393,[0.08812705],99,47,medium,plus,dotcolour,alfa,,,108,19,V,R,
32,32,32,0,0,47,33,801,['n'],0,left,['1'],6,458,[0.01034518],37,47,medium,plus,dotcolour,alfa,,,108,19,V,R,
33,33,33,0,0,44,36,966,['n'],0,left,['8'],3,947,[-0.04508582],84,44,hard,plus,dotcolour,alfa,,,108,19,V,R,
34,34,34,0,0,53,27,801,['c'],1,left,['1'],6,390,[0.15594263],100,53,easy,plus,dotcolour,alfa,,,108,19,V,R,
35,35,35,0,0,44,36,1649,['c'],1,left,['1'],6,365,[0.15239604],100,44,hard,plus,dotcolour,alfa,,,108,19,V,R,
36,36,36,0,0,47,33,717,['n'],0,left,['3'],4,811,[0.11023949],1,47,medium,plus,dotcolour,alfa,,,108,19,V,R,
37,37,37,0,0,36,44,750,['n'],1,right,['3'],4,662,[-0.10406323],99,44,hard,plus,dotcolour,alfa,,,108,19,V,R,
38,38,38,0,0,53,27,883,['c'],1,left,['1'],6,354,[0.24788482],100,53,easy,plus,dotcolour,alfa,,,108,19,V,R,
39,39,39,0,0,53,27,767,['c'],1,left,['1'],6,374,[0.13758016],100,53,easy,plus,dotcolour,alfa,,,108,19,V,R,
40,40,40,0,0,53,27,883,['c'],1,left,['1'],6,429,[0.14441068],100,53,easy,plus,dotcolour,alfa,,,108,19,V,R,
41,41,41,0,0,36,44,616,['n'],1,right,['1'],6,236,[-0.13064294],100,44,hard,plus,dotcolour,alfa,,,108,19,V,R,
42,42,0,1,0,47,33,2034,['c'],1,left,['1'],6,332,[0.01900315],77,47,medium,plus,dotcolour,alfa,,,108,19,V,R,
43,43,1,1,0,44,36,1085,['c'],1,left,['1'],6,277,[0.07874888],100,44,hard,plus,dotcolour,alfa,,,108,19,V,R,
44,44,2,1,0,33,47,766,['n'],1,right,['1'],6,196,[-0.13158736],100,47,medium,plus,dotcolour,alfa,,,108,19,V,R,
45,45,3,1,0,53,27,916,['c'],1,left,['1'],6,305,[0.08174008],100,53,easy,plus,dotcolour,alfa,,,108,19,V,R,
46,46,4,1,0,33,47,649,['n'],1,right,['1'],6,259,[-0.0679322],99,47,medium,plus,dotcolour,alfa,,,108,19,V,R,
47,47,5,1,0,27,53,867,['n'],1,right,['1'],6,183,[-0.1140632],100,53,easy,plus,dotcolour,alfa,,,108,19,V,R,
48,48,6,1,0,44,36,934,['c'],1,left,['2'],5,668,[0.02121161],72,44,hard,plus,dotcolour,alfa,,,108,19,V,R,
49,49,7,1,0,53,27,1367,['c'],1,left,['1'],6,348,[0.06044165],98,53,easy,plus,dotcolour,alfa,,,108,19,V,R,
50,50,8,1,0,53,27,1250,['c'],1,left,['1'],6,454,[0.01699991],71,53,easy,plus,dotcolour,alfa,,,108,19,V,R,
51,51,9,1,0,47,33,933,['n'],0,left,['3'],4,824,[-0.20304879],100,47,medium,plus,dotcolour,alfa,,,108,19,V,R,
52,52,10,1,0,36,44,834,['n'],1,right,['3'],4,590,[-0.23562059],100,44,hard,plus,dotcolour,alfa,,,108,19,V,R,
53,53,11,1,0,36,44,600,['n'],1,right,['1'],6,504,[-0.03946167],88,44,hard,plus,dotcolour,alfa,,,108,19,V,R,
54,54,12,1,0,44,36,817,['n'],0,left,['1'],6,323,[-0.08982516],100,44,hard,plus,dotcolour,alfa,,,108,19,V,R,
55,55,13,1,0,33,47,667,['n'],1,right,['1'],6,509,[-0.08757353],99,47,medium,plus,dotcolour,alfa,,,108,19,V,R,
56,56,14,1,0,47,33,1300,['n'],0,left,['8'],3,694,[-0.02026816],71,47,medium,plus,dotcolour,alfa,,,108,19,V,R,
57,57,15,1,0,36,44,700,['n'],1,right,['3'],4,599,[-0.20105973],100,44,hard,plus,dotcolour,alfa,,,108,19,V,R,
58,58,16,1,0,36,44,617,['n'],1,right,['3'],4,328,[-0.06303124],98,44,hard,plus,dotcolour,alfa,,,108,19,V,R,
59,59,17,1,0,47,33,817,['n'],0,left,['0'],1,2484,[0.48422716],0,47,medium,plus,dotcolour,alfa,,,108,19,V,R,
60,60,18,1,0,27,53,1533,['n'],1,right,['1'],6,316,[-0.10331409],100,53,easy,plus,dotcolour,alfa,,,108,19,V,R,
61,61,19,1,0,47,33,850,['n'],0,left,['2'],5,742,[-0.00348189],54,47,medium,plus,dotcolour,alfa,,,108,19,V,R,
62,62,20,1,0,33,47,800,['n'],1,right,['2'],5,449,[-0.19291918],100,47,medium,plus,dotcolour,alfa,,,108,19,V,R,
63,63,21,1,0,47,33,1384,['c'],1,left,['1'],6,385,[0.19937409],100,47,medium,plus,dotcolour,alfa,,,108,19,V,R,
64,64,22,1,0,44,36,684,['n'],0,left,['2'],5,752,[-0.1232141],99,44,hard,plus,dotcolour,alfa,,,108,19,V,R,
65,65,23,1,0,53,27,1433,['n'],0,left,['1'],6,353,[0.01705132],26,53,easy,plus,dotcolour,alfa,,,108,19,V,R,
66,66,24,1,0,33,47,701,['n'],1,right,['1'],6,305,[-0.11276394],100,47,medium,plus,dotcolour,alfa,,,108,19,V,R,
67,67,25,1,0,53,27,1750,['c'],1,left,['1'],6,345,[0.05831352],97,53,easy,plus,dotcolour,alfa,,,108,19,V,R,
68,68,26,1,0,27,53,716,['n'],1,right,['1'],6,207,[-0.01341463],74,53,easy,plus,dotcolour,alfa,,,108,19,V,R,
69,69,27,1,0,36,44,683,['n'],1,right,['1'],6,236,[-0.06814183],99,44,hard,plus,dotcolour,alfa,,,108,19,V,R,
70,70,28,1,0,53,27,1233,['c'],1,left,['1'],6,482,[0.14405235],100,53,easy,plus,dotcolour,alfa,,,108,19,V,R,
71,71,29,1,0,27,53,650,['n'],1,right,['1'],6,230,[-0.07460697],100,53,easy,plus,dotcolour,alfa,,,108,19,V,R,
72,72,30,1,0,36,44,700,['n'],1,right,['1'],6,251,[-0.1334082],100,44,hard,plus,dotcolour,alfa,,,108,19,V,R,
73,73,31,1,0,33,47,916,['n'],1,right,['1'],6,205,[-0.04440545],97,47,medium,plus,dotcolour,alfa,,,108,19,V,R,
74,74,32,1,0,27,53,683,['n'],1,right,['1'],6,291,[-0.13119502],100,53,easy,plus,dotcolour,alfa,,,108,19,V,R,
75,75,33,1,0,44,36,1250,['n'],0,left,['2'],5,471,[-0.02801907],81,44,hard,plus,dotcolour,alfa,,,108,19,V,R,
76,76,34,1,0,53,27,1650,['n'],0,left,['0'],1,995,[-0.13570116],99,53,easy,plus,dotcolour,alfa,,,108,19,V,R,
77,77,35,1,0,27,53,783,['n'],1,right,['2'],5,477,[-0.24552631],100,53,easy,plus,dotcolour,alfa,,,108,19,V,R,
78,78,36,1,0,47,33,1151,['c'],1,left,['2'],5,645,[-0.04305562],13,47,medium,plus,dotcolour,alfa,,,108,19,V,R,
79,79,37,1,0,33,47,733,['n'],1,right,['3'],4,719,[-0.12822144],100,47,medium,plus,dotcolour,alfa,,,108,19,V,R,
80,80,38,1,0,36,44,667,['n'],1,right,['3'],4,585,[-0.08900984],99,44,hard,plus,dotcolour,alfa,,,108,19,V,R,
81,81,39,1,0,27,53,1134,['n'],1,right,['2'],5,453,[-0.12778634],100,53,easy,plus,dotcolour,alfa,,,108,19,V,R,
82,82,40,1,0,44,36,1167,['c'],1,left,['1'],6,413,[0.07344957],98,44,hard,plus,dotcolour,alfa,,,108,19,V,R,
83,83,41,1,0,44,36,750,['n'],0,left,['8'],3,1289,[-0.23407296],100,44,hard,plus,dotcolour,alfa,,,108,19,V,R,
84,84,0,2,0,53,27,1751,['c'],1,left,['3'],4,490,[0.14021245],100,53,easy,plus,dotcolour,alfa,,,108,19,V,R,
85,85,1,2,0,47,33,750,['n'],0,left,['3'],4,498,[-0.02588208],79,47,medium,plus,dotcolour,alfa,,,108,19,V,R,
86,86,2,2,0,47,33,1383,['c'],1,left,['1'],6,319,[0.05859936],98,47,medium,plus,dotcolour,alfa,,,108,19,V,R,
87,87,3,2,0,27,53,667,['n'],1,right,['2'],5,537,[-0.14960222],100,53,easy,plus,dotcolour,alfa,,,108,19,V,R,
88,88,4,2,0,33,47,901,['n'],1,right,['2'],5,369,[-0.16266825],100,47,medium,plus,dotcolour,alfa,,,108,19,V,R,
89,89,5,2,0,47,33,901,['n'],0,left,['2'],5,336,[-0.06156561],98,47,medium,plus,dotcolour,alfa,,,108,19,V,R,
90,90,6,2,0,36,44,684,['n'],1,right,['2'],5,297,[0.0350051],9,44,hard,plus,dotcolour,alfa,,,108,19,V,R,
91,91,7,2,0,36,44,751,['n'],1,right,['2'],5,304,[-0.19276276],100,44,hard,plus,dotcolour,alfa,,,108,19,V,R,
92,92,8,2,0,44,36,1116,['c'],1,left,['3'],4,953,[0.1727423],100,44,hard,plus,dotcolour,alfa,,,108,19,V,R,
93,93,9,2,0,44,36,700,['n'],0,left,['3'],4,327,[-0.04844276],95,44,hard,plus,dotcolour,alfa,,,108,19,V,R,
94,94,10,2,0,44,36,701,['n'],0,left,['8'],3,848,[-0.03942185],82,44,hard,plus,dotcolour,alfa,,,108,19,V,R,
95,95,11,2,0,27,53,1167,['n'],1,right,['1'],6,848,[-0.0616398],92,53,easy,plus,dotcolour,alfa,,,108,19,V,R,
96,96,12,2,0,33,47,683,['n'],1,right,['1'],6,452,[-0.07459489],98,47,medium,plus,dotcolour,alfa,,,108,19,V,R,
97,97,13,2,0,47,33,967,['c'],1,left,['1'],6,396,[0.27359121],100,47,medium,plus,dotcolour,alfa,,,108,19,V,R,
98,98,14,2,0,53,27,1284,['n'],0,left,['9'],2,1475,[0.17111058],1,53,easy,plus,dotcolour,alfa,,,108,19,V,R,
99,99,15,2,0,36,44,1450,['n'],1,right,['9'],2,343,[-0.03363182],89,44,hard,plus,dotcolour,alfa,,,108,19,V,R,
100,100,16,2,0,53,27,1667,['n'],0,left,['8'],3,991,[0.21622819],0,53,easy,plus,dotcolour,alfa,,,108,19,V,R,
101,101,17,2,0,33,47,917,['n'],1,right,['3'],4,1140,[-0.08428007],94,47,medium,plus,dotcolour,alfa,,,108,19,V,R,
102,102,18,2,0,27,53,734,['n'],1,right,['2'],5,1362,[-0.42418175],100,53,easy,plus,dotcolour,alfa,,,108,19,V,R,
103,103,19,2,0,27,53,1401,['n'],1,right,['1'],6,1397,[-0.34488576],100,53,easy,plus,dotcolour,alfa,,,108,19,V,R,
104,104,20,2,0,47,33,1466,['c'],1,left,['1'],6,364,[0.01231151],68,47,medium,plus,dotcolour,alfa,,,108,19,V,R,
105,105,21,2,0,53,27,1116,['c'],1,left,['1'],6,785,[0.1667568],100,53,easy,plus,dotcolour,alfa,,,108,19,V,R,
106,106,22,2,0,27,53,1233,['n'],1,right,['1'],6,497,[-0.1494103],100,53,easy,plus,dotcolour,alfa,,,108,19,V,R,
107,107,23,2,0,44,36,1118,['c'],1,left,['1'],6,594,[0.19627007],100,44,hard,plus,dotcolour,alfa,,,108,19,V,R,
108,108,24,2,0,53,27,1000,['c'],1,left,['1'],6,588,[0.04408612],89,53,easy,plus,dotcolour,alfa,,,108,19,V,R,
109,109,25,2,0,27,53,717,['n'],1,right,['2'],5,632,[0.03035607],20,53,easy,plus,dotcolour,alfa,,,108,19,V,R,
110,110,26,2,0,44,36,1316,['c'],1,left,['2'],5,587,[0.04375141],89,44,hard,plus,dotcolour,alfa,,,108,19,V,R,
111,111,27,2,0,47,33,767,['n'],0,left,['2'],5,486,[-0.0923089],99,47,medium,plus,dotcolour,alfa,,,108,19,V,R,
112,112,28,2,0,33,47,684,['n'],1,right,['2'],5,537,[-0.20257054],100,47,medium,plus,dotcolour,alfa,,,108,19,V,R,
113,113,29,2,0,36,44,816,['n'],1,right,['2'],5,555,[-0.18960364],100,44,hard,plus,dotcolour,alfa,,,108,19,V,R,
114,114,30,2,0,33,47,1567,['n'],1,right,['3'],4,855,[-0.12122896],99,47,medium,plus,dotcolour,alfa,,,108,19,V,R,
115,115,31,2,0,53,27,784,['n'],0,left,['3'],4,759,[0.08345409],3,53,easy,plus,dotcolour,alfa,,,108,19,V,R,
116,116,32,2,0,33,47,700,['n'],1,right,['3'],4,381,[-0.13763789],100,47,medium,plus,dotcolour,alfa,,,108,19,V,R,
117,117,33,2,0,36,44,717,['n'],1,right,['3'],4,363,[-0.04514327],94,44,hard,plus,dotcolour,alfa,,,108,19,V,R,
118,118,34,2,0,47,33,1117,['c'],1,left,['3'],4,457,[0.19789123],100,47,medium,plus,dotcolour,alfa,,,108,19,V,R,
119,119,35,2,0,27,53,917,['n'],1,right,['2'],5,851,[-0.11409173],99,53,easy,plus,dotcolour,alfa,,,108,19,V,R,
120,120,36,2,0,36,44,767,['n'],1,right,['2'],5,411,[-0.09560067],100,44,hard,plus,dotcolour,alfa,,,108,19,V,R,
121,121,37,2,0,36,44,667,['n'],1,right,['2'],5,353,[-0.05192949],96,44,hard,plus,dotcolour,alfa,,,108,19,V,R,
122,122,38,2,0,33,47,549,['n'],1,right,['2'],5,254,[-0.15149998],100,47,medium,plus,dotcolour,alfa,,,108,19,V,R,
123,123,39,2,0,53,27,1066,['c'],1,left,['1'],6,339,[0.0570829],97,53,easy,plus,dotcolour,alfa,,,108,19,V,R,
124,124,40,2,0,44,36,717,['n'],0,left,['2'],5,298,[-0.02796444],86,44,hard,plus,dotcolour,alfa,,,108,19,V,R,
125,125,41,2,0,44,36,783,['n'],0,left,['2'],5,455,[-0.02715661],81,44,hard,plus,dotcolour,alfa,,,108,19,V,R,
126,0,0,3,1,27,53,817,['n'],1,right,['2'],5,307,[-0.15912043],93,53,easy,minus,dotcolour,alfa,,,108,19,V,R,
127,1,1,3,1,27,53,685,['n'],1,right,['2'],5,261,[-0.1272414],90,53,easy,minus,dotcolour,alfa,,,108,19,V,R,
128,2,2,3,1,53,27,1666,['c'],1,left,['1'],6,562,[0.24412957],95,53,easy,minus,dotcolour,alfa,,,108,19,V,R,
129,3,3,3,1,33,47,867,['n'],1,right,['2'],5,289,[-0.18371161],96,47,medium,minus,dotcolour,alfa,,,108,19,V,R,
130,4,4,3,1,27,53,751,['n'],1,right,['2'],5,256,[-0.04240732],68,53,easy,minus,dotcolour,alfa,,,108,19,V,R,
131,5,5,3,1,36,44,932,['n'],1,right,['2'],5,530,[-0.14023738],85,44,hard,minus,dotcolour,alfa,,,108,19,V,R,
132,6,6,3,1,47,33,683,['n'],0,left,['2'],5,282,[-0.1031654],85,47,medium,minus,dotcolour,alfa,,,108,19,V,R,
133,7,7,3,1,53,27,650,['n'],0,left,['2'],5,319,[-0.03424558],63,53,easy,minus,dotcolour,alfa,,,108,19,V,R,
134,8,8,3,1,44,36,684,['n'],0,left,['2'],5,248,[-0.00893497],54,44,hard,minus,dotcolour,alfa,,,108,19,V,R,
135,9,9,3,1,53,27,1033,['c'],1,left,['1'],6,326,[0.09603855],82,53,easy,minus,dotcolour,alfa,,,108,19,V,R,
136,10,10,3,1,53,27,784,['n'],0,left,['8'],3,978,[0.11514424],26,53,easy,minus,dotcolour,alfa,,,108,19,V,R,
137,11,11,3,1,47,33,734,['n'],0,left,['2'],5,439,[-0.04900261],66,47,medium,minus,dotcolour,alfa,,,108,19,V,R,
138,12,12,3,1,47,33,1500,['c'],1,left,['1'],6,434,[0.12088846],84,47,medium,minus,dotcolour,alfa,,,108,19,V,R,
139,13,13,3,1,47,33,667,['n'],0,left,['2'],5,392,[-0.13833246],88,47,medium,minus,dotcolour,alfa,,,108,19,V,R,
140,14,14,3,1,27,53,817,['n'],1,right,['2'],5,400,[-0.19143626],94,53,easy,minus,dotcolour,alfa,,,108,19,V,R,
141,15,15,3,1,36,44,667,['n'],1,right,['2'],5,336,[-0.0844987],79,44,hard,minus,dotcolour,alfa,,,108,19,V,R,
142,16,16,3,1,53,27,1883,['c'],1,left,['1'],6,296,[0.10047857],84,53,easy,minus,dotcolour,alfa,,,108,19,V,R,
143,17,17,3,1,47,33,799,['n'],0,left,['2'],5,341,[0.10339755],17,47,medium,minus,dotcolour,alfa,,,108,19,V,R,
144,18,18,3,1,27,53,766,['n'],1,right,['2'],5,506,[-0.09430533],77,53,easy,minus,dotcolour,alfa,,,108,19,V,R,
145,19,19,3,1,44,36,833,['n'],0,left,['2'],5,277,[-0.02211994],59,44,hard,minus,dotcolour,alfa,,,108,19,V,R,
146,20,20,3,1,53,27,1150,['c'],1,left,['1'],6,349,[0.16122647],92,53,easy,minus,dotcolour,alfa,,,108,19,V,R,
147,21,21,3,1,36,44,917,['n'],1,right,['3'],4,804,[-0.03705306],59,44,hard,minus,dotcolour,alfa,,,108,19,V,R,
148,22,22,3,1,47,33,635,['n'],0,left,['3'],4,355,[0.07288793],25,47,medium,minus,dotcolour,alfa,,,108,19,V,R,
149,23,23,3,1,33,47,717,['n'],1,right,['3'],4,489,[-0.09732082],78,47,medium,minus,dotcolour,alfa,,,108,19,V,R,
150,24,24,3,1,47,33,916,['n'],0,left,['0'],1,2755,[0.19162674],26,47,medium,minus,dotcolour,alfa,,,108,19,V,R,
151,25,25,3,1,44,36,817,['n'],0,left,['3'],4,419,[-0.14632689],88,44,hard,minus,dotcolour,alfa,,,108,19,V,R,
152,26,26,3,1,36,44,784,['n'],1,right,['3'],4,245,[-0.04307561],69,44,hard,minus,dotcolour,alfa,,,108,19,V,R,
153,27,27,3,1,36,44,1534,['n'],1,right,['1'],6,279,[-0.17436704],95,44,hard,minus,dotcolour,alfa,,,108,19,V,R,
154,28,28,3,1,44,36,1917,['c'],1,left,['2'],5,856,[0.0765197],68,44,hard,minus,dotcolour,alfa,,,108,19,V,R,
155,29,29,3,1,33,47,1300,['n'],1,right,['1'],6,755,[-0.20515679],89,47,medium,minus,dotcolour,alfa,,,108,19,V,R,
156,30,30,3,1,36,44,817,['n'],1,right,['1'],6,645,[-0.18341356],89,44,hard,minus,dotcolour,alfa,,,108,19,V,R,
157,31,31,3,1,33,47,633,['n'],1,right,['2'],5,699,[-0.21971359],91,47,medium,minus,dotcolour,alfa,,,108,19,V,R,
158,32,32,3,1,27,53,683,['n'],1,right,['1'],6,493,[-0.21951975],94,53,easy,minus,dotcolour,alfa,,,108,19,V,R,
159,33,33,3,1,44,36,1683,['n'],0,left,['3'],4,495,[0.02981714],41,44,hard,minus,dotcolour,alfa,,,108,19,V,R,
160,34,34,3,1,44,36,1233,['n'],0,left,['1'],6,267,[-0.04127081],67,44,hard,minus,dotcolour,alfa,,,108,19,V,R,
161,35,35,3,1,36,44,683,['n'],1,right,['2'],5,550,[-0.1300233],83,44,hard,minus,dotcolour,alfa,,,108,19,V,R,
162,36,36,3,1,33,47,684,['n'],1,right,['2'],5,422,[-0.16642404],91,47,medium,minus,dotcolour,alfa,,,108,19,V,R,
163,37,37,3,1,53,27,1517,['c'],1,left,['1'],6,985,[0.1946933],85,53,easy,minus,dotcolour,alfa,,,108,19,V,R,
164,38,38,3,1,33,47,850,['n'],1,right,['1'],6,457,[-0.09382872],78,47,medium,minus,dotcolour,alfa,,,108,19,V,R,
165,39,39,3,1,27,53,700,['n'],1,right,['1'],6,459,[-0.1765428],91,53,easy,minus,dotcolour,alfa,,,108,19,V,R,
166,40,40,3,1,44,36,899,['n'],0,left,['2'],5,303,[-0.04594796],68,44,hard,minus,dotcolour,alfa,,,108,19,V,R,
167,41,41,3,1,33,47,1000,['n'],1,right,['2'],5,396,[-0.1739886],92,47,medium,minus,dotcolour,alfa,,,108,19,V,R,
168,42,0,4,1,44,36,1850,['c'],1,left,['2'],5,409,[-0.01062311],46,44,hard,minus,dotcolour,alfa,,,108,19,V,R,
169,43,1,4,1,53,27,1583,['c'],1,left,['1'],6,450,[0.01423331],55,53,easy,minus,dotcolour,alfa,,,108,19,V,R,
170,44,2,4,1,33,47,750,['n'],1,right,['2'],5,396,[-0.0996254],81,47,medium,minus,dotcolour,alfa,,,108,19,V,R,
171,45,3,4,1,47,33,783,['n'],0,left,['2'],5,334,[-0.01227448],55,47,medium,minus,dotcolour,alfa,,,108,19,V,R,
172,46,4,4,1,53,27,1400,['c'],1,left,['1'],6,322,[0.03136261],62,53,easy,minus,dotcolour,alfa,,,108,19,V,R,
173,47,5,4,1,36,44,717,['n'],1,right,['2'],5,409,[-0.05469599],68,44,hard,minus,dotcolour,alfa,,,108,19,V,R,
174,48,6,4,1,27,53,733,['n'],1,right,['2'],5,293,[-0.13299066],90,53,easy,minus,dotcolour,alfa,,,108,19,V,R,
175,49,7,4,1,44,36,750,['n'],0,left,['2'],5,308,[-0.08944913],81,44,hard,minus,dotcolour,alfa,,,108,19,V,R,
176,50,8,4,1,44,36,683,['n'],0,left,['1'],6,357,[-0.03022566],61,44,hard,minus,dotcolour,alfa,,,108,19,V,R,
177,51,9,4,1,36,44,884,['n'],1,right,['1'],6,293,[-0.04690958],69,44,hard,minus,dotcolour,alfa,,,108,19,V,R,
178,52,10,4,1,47,33,1699,['c'],1,left,['1'],6,222,[0.05550268],74,47,medium,minus,dotcolour,alfa,,,108,19,V,R,
179,53,11,4,1,53,27,716,['n'],0,left,['3'],4,866,[0.00474506],49,53,easy,minus,dotcolour,alfa,,,108,19,V,R,
180,54,12,4,1,27,53,816,['n'],1,right,['3'],4,368,[-0.16748595],92,53,easy,minus,dotcolour,alfa,,,108,19,V,R,
181,55,13,4,1,53,27,1868,['c'],1,left,['3'],4,520,[0.14056667],85,53,easy,minus,dotcolour,alfa,,,108,19,V,R,
182,56,14,4,1,53,27,817,['n'],0,left,['2'],5,405,[-0.14065774],88,53,easy,minus,dotcolour,alfa,,,108,19,V,R,
183,57,15,4,1,36,44,583,['n'],1,right,['2'],5,237,[-0.04758042],71,44,hard,minus,dotcolour,alfa,,,108,19,V,R,
184,58,16,4,1,47,33,916,['n'],0,left,['3'],4,2816,[0.17605445],28,47,medium,minus,dotcolour,alfa,,,108,19,V,R,
185,59,17,4,1,44,36,767,['n'],0,left,['3'],4,282,[0.02632858],39,44,hard,minus,dotcolour,alfa,,,108,19,V,R,
186,60,18,4,1,33,47,583,['n'],1,right,['3'],4,224,[-0.16059735],95,47,medium,minus,dotcolour,alfa,,,108,19,V,R,
187,61,19,4,1,36,44,767,['n'],1,right,['3'],4,290,[-0.21947007],98,44,hard,minus,dotcolour,alfa,,,108,19,V,R,
188,62,20,4,1,36,44,484,['n'],1,right,['3'],4,292,[-0.09941164],84,44,hard,minus,dotcolour,alfa,,,108,19,V,R,
189,63,21,4,1,53,27,417,['n'],0,left,['3'],4,297,[0.0834174],20,53,easy,minus,dotcolour,alfa,,,108,19,V,R,
190,64,22,4,1,44,36,949,['c'],1,left,['2'],5,336,[-0.05499926],30,44,hard,minus,dotcolour,alfa,,,108,19,V,R,
191,65,23,4,1,27,53,800,['n'],1,right,['3'],4,493,[-0.09650927],78,53,easy,minus,dotcolour,alfa,,,108,19,V,R,
192,66,24,4,1,33,47,851,['c'],0,right,['2'],5,272,[0.06168004],74,47,medium,minus,dotcolour,alfa,,,108,19,V,R,
193,67,25,4,1,47,33,618,['n'],0,left,['2'],5,220,[-0.07806952],82,47,medium,minus,dotcolour,alfa,,,108,19,V,R,
194,68,26,4,1,44,36,1450,['c'],1,left,['2'],5,443,[0.12375461],84,44,hard,minus,dotcolour,alfa,,,108,19,V,R,
195,69,27,4,1,27,53,567,['n'],1,right,['2'],5,252,[-0.09578127],85,53,easy,minus,dotcolour,alfa,,,108,19,V,R,
196,70,28,4,1,27,53,1099,['n'],1,right,['2'],5,216,[-0.0464835],71,53,easy,minus,dotcolour,alfa,,,108,19,V,R,
197,71,29,4,1,33,47,533,['n'],1,right,['2'],5,203,[-0.0895733],86,47,medium,minus,dotcolour,alfa,,,108,19,V,R,
198,72,30,4,1,27,53,400,['n'],1,right,['2'],5,300,[-0.02424857],60,53,easy,minus,dotcolour,alfa,,,108,19,V,R,
199,73,31,4,1,47,33,950,['c'],1,left,['1'],6,436,[0.11054703],82,47,medium,minus,dotcolour,alfa,,,108,19,V,R,
200,74,32,4,1,33,47,683,['n'],1,right,['2'],5,280,[-0.07963107],79,47,medium,minus,dotcolour,alfa,,,108,19,V,R,
201,75,33,4,1,36,44,784,['n'],1,right,['2'],5,190,[-0.15115816],96,44,hard,minus,dotcolour,alfa,,,108,19,V,R,
202,76,34,4,1,36,44,582,['n'],1,right,['2'],5,185,[-0.02902755],65,44,hard,minus,dotcolour,alfa,,,108,19,V,R,
203,77,35,4,1,33,47,866,['n'],1,right,['2'],5,208,[-0.13493598],93,47,medium,minus,dotcolour,alfa,,,108,19,V,R,
204,78,36,4,1,44,36,967,['c'],1,left,['2'],5,346,[0.1542182],91,44,hard,minus,dotcolour,alfa,,,108,19,V,R,
205,79,37,4,1,33,47,500,['n'],1,right,['2'],5,242,[-0.07665561],80,47,medium,minus,dotcolour,alfa,,,108,19,V,R,
206,80,38,4,1,47,33,1267,['c'],1,left,['2'],5,254,[0.10161759],86,47,medium,minus,dotcolour,alfa,,,108,19,V,R,
207,81,39,4,1,27,53,434,['n'],1,right,['1'],6,756,[-0.13080186],79,53,easy,minus,dotcolour,alfa,,,108,19,V,R,
208,82,40,4,1,47,33,999,['c'],1,left,['1'],6,280,[0.2022409],97,47,medium,minus,dotcolour,alfa,,,108,19,V,R,
209,83,41,4,1,53,27,983,['c'],1,left,['1'],6,373,[0.12287501],86,53,easy,minus,dotcolour,alfa,,,108,19,V,R,
210,84,0,5,1,27,53,851,['n'],1,right,['2'],5,469,[-0.17905168],91,53,easy,minus,dotcolour,alfa,,,108,19,V,R,
211,85,1,5,1,36,44,684,['n'],1,right,['1'],6,257,[-0.04215697],68,44,hard,minus,dotcolour,alfa,,,108,19,V,R,
212,86,2,5,1,47,33,1199,['c'],1,left,['1'],6,431,[0.03933069],63,47,medium,minus,dotcolour,alfa,,,108,19,V,R,
213,87,3,5,1,36,44,633,['n'],1,right,['1'],6,302,[-0.15855598],93,44,hard,minus,dotcolour,alfa,,,108,19,V,R,
214,88,4,5,1,44,36,883,['n'],0,left,['1'],6,400,[-0.15816971],90,44,hard,minus,dotcolour,alfa,,,108,19,V,R,
215,89,5,5,1,53,27,1000,['c'],1,left,['1'],6,313,[0.02390097],59,53,easy,minus,dotcolour,alfa,,,108,19,V,R,
216,90,6,5,1,44,36,583,['n'],0,left,['3'],4,824,[0.08494615],30,44,hard,minus,dotcolour,alfa,,,108,19,V,R,
217,91,7,5,1,44,36,717,['n'],0,left,['2'],5,274,[-0.06584752],76,44,hard,minus,dotcolour,alfa,,,108,19,V,R,
218,92,8,5,1,53,27,1200,['c'],1,left,['1'],6,313,[0.0720268],76,53,easy,minus,dotcolour,alfa,,,108,19,V,R,
219,93,9,5,1,44,36,1216,['c'],1,left,['1'],6,284,[0.14340925],92,44,hard,minus,dotcolour,alfa,,,108,19,V,R,
220,94,10,5,1,33,47,833,['n'],1,right,['1'],6,193,[-0.02664952],63,47,medium,minus,dotcolour,alfa,,,108,19,V,R,
221,95,11,5,1,33,47,801,['n'],1,right,['1'],6,259,[-0.02516708],61,47,medium,minus,dotcolour,alfa,,,108,19,V,R,
222,96,12,5,1,44,36,566,['n'],0,left,['1'],6,258,[-0.06607668],76,44,hard,minus,dotcolour,alfa,,,108,19,V,R,
223,97,13,5,1,47,33,683,['n'],0,left,['1'],6,325,[-0.03032482],62,47,medium,minus,dotcolour,alfa,,,108,19,V,R,
224,98,14,5,1,27,53,683,['n'],1,right,['1'],6,319,[-0.21434198],97,53,easy,minus,dotcolour,alfa,,,108,19,V,R,
225,99,15,5,1,33,47,734,['n'],1,right,['1'],6,198,[-0.13861111],94,47,medium,minus,dotcolour,alfa,,,108,19,V,R,
226,100,16,5,1,36,44,633,['n'],1,right,['1'],6,215,[-0.19209283],98,44,hard,minus,dotcolour,alfa,,,108,19,V,R,
227,101,17,5,1,47,33,1166,['c'],1,left,['3'],4,848,[0.21206028],89,47,medium,minus,dotcolour,alfa,,,108,19,V,R,
228,102,18,5,1,27,53,550,['n'],1,right,['1'],6,329,[-0.15846995],92,53,easy,minus,dotcolour,alfa,,,108,19,V,R,
229,103,19,5,1,36,44,1049,['n'],1,right,['1'],6,163,[-0.05718928],78,44,hard,minus,dotcolour,alfa,,,108,19,V,R,
230,104,20,5,1,27,53,667,['n'],1,right,['1'],6,340,[-0.12063688],87,53,easy,minus,dotcolour,alfa,,,108,19,V,R,
231,105,21,5,1,47,33,1315,['c'],1,left,['1'],6,386,[-0.02761346],40,47,medium,minus,dotcolour,alfa,,,108,19,V,R,
232,106,22,5,1,36,44,802,['n'],1,right,['1'],6,268,[-0.04934484],70,44,hard,minus,dotcolour,alfa,,,108,19,V,R,
233,107,23,5,1,53,27,784,['n'],0,left,['0'],1,2579,[0.20800468],24,53,easy,minus,dotcolour,alfa,,,108,19,V,R,
234,108,24,5,1,53,27,884,['n'],0,left,['2'],5,610,[0.03289524],41,53,easy,minus,dotcolour,alfa,,,108,19,V,R,
235,109,25,5,1,36,44,1567,['n'],1,right,['3'],4,875,[0.02314833],44,44,hard,minus,dotcolour,alfa,,,108,19,V,R,
236,110,26,5,1,36,44,816,['n'],1,right,['3'],4,480,[-0.12724387],84,44,hard,minus,dotcolour,alfa,,,108,19,V,R,
237,111,27,5,1,27,53,1117,['n'],1,right,['1'],6,346,[-0.15954356],92,53,easy,minus,dotcolour,alfa,,,108,19,V,R,
238,112,28,5,1,33,47,1200,['n'],1,right,['1'],6,254,[-0.20307021],97,47,medium,minus,dotcolour,alfa,,,108,19,V,R,
239,113,29,5,1,33,47,734,['n'],1,right,['1'],6,200,[-0.05437766],75,47,medium,minus,dotcolour,alfa,,,108,19,V,R,
240,114,30,5,1,33,47,499,['n'],1,right,['1'],6,220,[-0.0172664],58,47,medium,minus,dotcolour,alfa,,,108,19,V,R,
241,115,31,5,1,27,53,1034,['n'],1,right,['1'],6,220,[-0.11710879],90,53,easy,minus,dotcolour,alfa,,,108,19,V,R,
242,116,32,5,1,53,27,400,['n'],0,left,['1'],6,260,[-0.1349091],92,53,easy,minus,dotcolour,alfa,,,108,19,V,R,
243,117,33,5,1,47,33,1515,['c'],1,left,['1'],6,255,[0.07620507],80,47,medium,minus,dotcolour,alfa,,,108,19,V,R,
244,118,34,5,1,53,27,1234,['c'],1,left,['1'],6,252,[-0.01311149],44,53,easy,minus,dotcolour,alfa,,,108,19,V,R,
245,119,35,5,1,47,33,1134,['c'],1,left,['1'],6,303,[0.1182344],87,47,medium,minus,dotcolour,alfa,,,108,19,V,R,
246,120,36,5,1,33,47,733,['n'],1,right,['3'],4,1639,[-0.21394032],82,47,medium,minus,dotcolour,alfa,,,108,19,V,R,
247,121,37,5,1,44,36,1683,['c'],1,left,['1'],6,515,[0.12458849],83,44,hard,minus,dotcolour,alfa,,,108,19,V,R,
248,122,38,5,1,44,36,1067,['n'],0,left,['3'],4,885,[0.01201203],47,44,hard,minus,dotcolour,alfa,,,108,19,V,R,
249,123,39,5,1,47,33,884,['n'],0,left,['3'],4,351,[-0.02086553],58,47,medium,minus,dotcolour,alfa,,,108,19,V,R,
250,124,40,5,1,27,53,1317,['n'],1,right,['1'],6,605,[-0.02850603],58,53,easy,minus,dotcolour,alfa,,,108,19,V,R,
251,125,41,5,1,53,27,784,['n'],0,left,['1'],6,263,[0.03511858],35,53,easy,minus,dotcolour,alfa,,,108,19,V,R,
252,0,0,6,2,36,44,1201,['n'],1,right,['1'],6,386,[-0.27468371],100,44,hard,plus,dotcolour,alfa,,,108,19,V,R,
253,1,1,6,2,53,27,1151,['c'],1,left,['1'],6,382,[0.12920629],100,53,easy,plus,dotcolour,alfa,,,108,19,V,R,
254,2,2,6,2,33,47,1117,['n'],1,right,['1'],6,220,[-0.01306107],73,47,medium,plus,dotcolour,alfa,,,108,19,V,R,
255,3,3,6,2,36,44,701,['n'],1,right,['1'],6,272,[-0.04845719],97,44,hard,plus,dotcolour,alfa,,,108,19,V,R,
256,4,4,6,2,36,44,1200,['c'],0,right,['1'],6,303,[0.08102714],100,44,hard,plus,dotcolour,alfa,,,108,19,V,R,
257,5,5,6,2,27,53,916,['n'],1,right,['2'],5,855,[-0.05192426],88,53,easy,plus,dotcolour,alfa,,,108,19,V,R,
258,6,6,6,2,53,27,1533,['n'],0,left,['3'],4,680,[-0.00578388],56,53,easy,plus,dotcolour,alfa,,,108,19,V,R,
259,7,7,6,2,47,33,717,['n'],0,left,['8'],3,938,[0.03597831],21,47,medium,plus,dotcolour,alfa,,,108,19,V,R,
260,8,8,6,2,53,27,883,['n'],0,left,['1'],6,154,[-0.08733829],100,53,easy,plus,dotcolour,alfa,,,108,19,V,R,
261,9,9,6,2,44,36,1401,['n'],0,left,['1'],6,757,[-0.07378656],95,44,hard,plus,dotcolour,alfa,,,108,19,V,R,
262,10,10,6,2,33,47,1149,['n'],1,right,['3'],4,426,[-0.09811563],100,47,medium,plus,dotcolour,alfa,,,108,19,V,R,
263,11,11,6,2,44,36,1165,['c'],1,left,['1'],6,499,[-0.04599699],9,44,hard,plus,dotcolour,alfa,,,108,19,V,R,
264,12,12,6,2,36,44,733,['n'],1,right,['1'],6,339,[-0.09477478],100,44,hard,plus,dotcolour,alfa,,,108,19,V,R,
265,13,13,6,2,44,36,917,['n'],0,left,['1'],6,578,[-0.01972745],72,44,hard,plus,dotcolour,alfa,,,108,19,V,R,
266,14,14,6,2,47,33,617,['n'],0,left,['1'],6,219,[-0.09037099],100,47,medium,plus,dotcolour,alfa,,,108,19,V,R,
267,15,15,6,2,53,27,1033,['c'],1,left,['1'],6,330,[0.19790267],100,53,easy,plus,dotcolour,alfa,,,108,19,V,R,
268,16,16,6,2,47,33,849,['c'],1,left,['1'],6,372,[0.08646302],99,47,medium,plus,dotcolour,alfa,,,108,19,V,R,
269,17,17,6,2,33,47,968,['n'],1,right,['1'],6,360,[-0.0149502],71,47,medium,plus,dotcolour,alfa,,,108,19,V,R,
270,18,18,6,2,33,47,716,['n'],1,right,['1'],6,350,[-0.23702265],100,47,medium,plus,dotcolour,alfa,,,108,19,V,R,
271,19,19,6,2,33,47,650,['n'],1,right,['1'],6,287,[-0.00539581],59,47,medium,plus,dotcolour,alfa,,,108,19,V,R,
272,20,20,6,2,27,53,650,['n'],1,right,['1'],6,235,[-0.13726131],100,53,easy,plus,dotcolour,alfa,,,108,19,V,R,
273,21,21,6,2,36,44,717,['n'],1,right,['1'],6,255,[-0.00532152],59,44,hard,plus,dotcolour,alfa,,,108,19,V,R,
274,22,22,6,2,27,53,783,['n'],1,right,['1'],6,302,[-0.10957099],100,53,easy,plus,dotcolour,alfa,,,108,19,V,R,
275,23,23,6,2,53,27,700,['c'],1,left,['1'],6,360,[0.24800494],100,53,easy,plus,dotcolour,alfa,,,108,19,V,R,
276,24,24,6,2,33,47,766,['n'],1,right,['1'],6,188,[-0.10919446],100,47,medium,plus,dotcolour,alfa,,,108,19,V,R,
277,25,25,6,2,53,27,1117,['c'],1,left,['1'],6,297,[0.22037842],100,53,easy,plus,dotcolour,alfa,,,108,19,V,R,
278,26,26,6,2,47,33,917,['c'],1,left,['1'],6,266,[0.15460384],100,47,medium,plus,dotcolour,alfa,,,108,19,V,R,
279,27,27,6,2,44,36,1134,['c'],1,left,['1'],6,243,[0.04889325],97,44,hard,plus,dotcolour,alfa,,,108,19,V,R,
280,28,28,6,2,47,33,917,['c'],1,left,['1'],6,293,[0.18248413],100,47,medium,plus,dotcolour,alfa,,,108,19,V,R,
281,29,29,6,2,36,44,1234,['n'],1,right,['1'],6,363,[-0.08567044],99,44,hard,plus,dotcolour,alfa,,,108,19,V,R,
282,30,30,6,2,27,53,733,['n'],1,right,['1'],6,215,[-0.03103498],92,53,easy,plus,dotcolour,alfa,,,108,19,V,R,
283,31,31,6,2,47,33,834,['n'],0,left,['0'],1,1647,[0.07567008],11,47,medium,plus,dotcolour,alfa,,,108,19,V,R,
284,32,32,6,2,33,47,950,['n'],1,right,['2'],5,631,[-0.08136886],98,47,medium,plus,dotcolour,alfa,,,108,19,V,R,
285,33,33,6,2,27,53,801,['c'],0,right,['0'],1,1479,[-0.1459784],1,53,easy,plus,dotcolour,alfa,,,108,19,V,R,
286,34,34,6,2,27,53,784,['n'],1,right,['1'],6,310,[-0.20360507],100,53,easy,plus,dotcolour,alfa,,,108,19,V,R,
287,35,35,6,2,44,36,950,['n'],0,left,['1'],6,229,[-0.06971381],99,44,hard,plus,dotcolour,alfa,,,108,19,V,R,
288,36,36,6,2,36,44,800,['n'],1,right,['2'],5,197,[-0.05066417],98,44,hard,plus,dotcolour,alfa,,,108,19,V,R,
289,37,37,6,2,47,33,1002,['c'],1,left,['2'],5,398,[0.16329592],100,47,medium,plus,dotcolour,alfa,,,108,19,V,R,
290,38,38,6,2,27,53,833,['n'],1,right,['1'],6,703,[0.02943049],22,53,easy,plus,dotcolour,alfa,,,108,19,V,R,
291,39,39,6,2,53,27,1201,['c'],1,left,['1'],6,348,[0.17983677],100,53,easy,plus,dotcolour,alfa,,,108,19,V,R,
292,40,40,6,2,44,36,1000,['n'],0,left,['2'],5,358,[-0.13811855],100,44,hard,plus,dotcolour,alfa,,,108,19,V,R,
293,41,41,6,2,44,36,1316,['n'],0,left,['3'],4,660,[-0.06637093],95,44,hard,plus,dotcolour,alfa,,,108,19,V,R,
294,42,0,7,2,47,33,968,['c'],1,left,['1'],6,366,[0.12964974],100,47,medium,plus,dotcolour,alfa,,,108,19,V,R,
295,43,1,7,2,53,27,1050,['c'],1,left,['1'],6,287,[0.11468141],100,53,easy,plus,dotcolour,alfa,,,108,19,V,R,
296,44,2,7,2,36,44,1000,['n'],1,right,['2'],5,285,[-0.0858158],100,44,hard,plus,dotcolour,alfa,,,108,19,V,R,
297,45,3,7,2,47,33,1017,['c'],1,left,['1'],6,330,[0.00545904],58,47,medium,plus,dotcolour,alfa,,,108,19,V,R,
298,46,4,7,2,33,47,701,['n'],1,right,['1'],6,194,[-0.00774946],65,47,medium,plus,dotcolour,alfa,,,108,19,V,R,
299,47,5,7,2,53,27,683,['n'],0,left,['1'],6,312,[-0.07035612],99,53,easy,plus,dotcolour,alfa,,,108,19,V,R,
300,48,6,7,2,44,36,567,['n'],0,left,['1'],6,295,[-0.10793478],100,44,hard,plus,dotcolour,alfa,,,108,19,V,R,
301,49,7,7,2,53,27,867,['c'],1,left,['1'],6,273,[0.12157084],100,53,easy,plus,dotcolour,alfa,,,108,19,V,R,
302,50,8,7,2,44,36,833,['n'],0,left,['1'],6,254,[-0.0443574],96,44,hard,plus,dotcolour,alfa,,,108,19,V,R,
303,51,9,7,2,36,44,884,['c'],0,right,['1'],6,337,[-0.00851532],37,44,hard,plus,dotcolour,alfa,,,108,19,V,R,
304,52,10,7,2,53,27,833,['c'],1,left,['1'],6,333,[0.12805641],100,53,easy,plus,dotcolour,alfa,,,108,19,V,R,
305,53,11,7,2,27,53,933,['n'],1,right,['1'],6,235,[-0.08321744],100,53,easy,plus,dotcolour,alfa,,,108,19,V,R,
306,54,12,7,2,44,36,1051,['c'],1,left,['1'],6,345,[0.01091634],66,44,hard,plus,dotcolour,alfa,,,108,19,V,R,
307,55,13,7,2,27,53,1133,['n'],1,right,['2'],5,415,[-0.15817281],100,53,easy,plus,dotcolour,alfa,,,108,19,V,R,
308,56,14,7,2,33,47,1150,['n'],1,right,['1'],6,378,[-0.05691964],97,47,medium,plus,dotcolour,alfa,,,108,19,V,R,
309,57,15,7,2,33,47,600,['n'],1,right,['1'],6,291,[-0.13505898],100,47,medium,plus,dotcolour,alfa,,,108,19,V,R,
310,58,16,7,2,36,44,899,['n'],1,right,['1'],6,357,[-0.1599298],100,44,hard,plus,dotcolour,alfa,,,108,19,V,R,
311,59,17,7,2,33,47,816,['n'],1,right,['1'],6,271,[-0.17253438],100,47,medium,plus,dotcolour,alfa,,,108,19,V,R,
312,60,18,7,2,47,33,800,['c'],1,left,['1'],6,325,[0.06780456],99,47,medium,plus,dotcolour,alfa,,,108,19,V,R,
313,61,19,7,2,27,53,716,['n'],1,right,['1'],6,285,[-0.22625445],100,53,easy,plus,dotcolour,alfa,,,108,19,V,R,
314,62,20,7,2,47,33,733,['c'],1,left,['1'],6,294,[0.08318705],100,47,medium,plus,dotcolour,alfa,,,108,19,V,R,
315,63,21,7,2,27,53,900,['n'],1,right,['1'],6,270,[-0.0596035],98,53,easy,plus,dotcolour,alfa,,,108,19,V,R,
316,64,22,7,2,36,44,717,['c'],0,right,['1'],6,361,[-0.00064234],49,44,hard,plus,dotcolour,alfa,,,108,19,V,R,
317,65,23,7,2,36,44,649,['n'],1,right,['3'],4,761,[-0.10931578],99,44,hard,plus,dotcolour,alfa,,,108,19,V,R,
318,66,24,7,2,27,53,800,['n'],1,right,['3'],4,508,[-0.26035707],100,53,easy,plus,dotcolour,alfa,,,108,19,V,R,
319,67,25,7,2,27,53,984,['n'],1,right,['3'],4,241,[-0.05044049],98,53,easy,plus,dotcolour,alfa,,,108,19,V,R,
320,68,26,7,2,47,33,1467,['c'],1,left,['1'],6,374,[0.11997398],100,47,medium,plus,dotcolour,alfa,,,108,19,V,R,
321,69,27,7,2,53,27,933,['c'],1,left,['1'],6,291,[0.13808367],100,53,easy,plus,dotcolour,alfa,,,108,19,V,R,
322,70,28,7,2,33,47,768,['n'],1,right,['2'],5,425,[-0.08882166],99,47,medium,plus,dotcolour,alfa,,,108,19,V,R,
323,71,29,7,2,44,36,1001,['c'],1,left,['1'],6,305,[0.15215894],100,44,hard,plus,dotcolour,alfa,,,108,19,V,R,
324,72,30,7,2,36,44,1001,['c'],0,right,['1'],6,294,[0.00228995],54,44,hard,plus,dotcolour,alfa,,,108,19,V,R,
325,73,31,7,2,44,36,867,['c'],1,left,['1'],6,273,[0.13967646],100,44,hard,plus,dotcolour,alfa,,,108,19,V,R,
326,74,32,7,2,33,47,783,['c'],0,right,['1'],6,360,[0.05430732],96,47,medium,plus,dotcolour,alfa,,,108,19,V,R,
327,75,33,7,2,47,33,784,['c'],1,left,['1'],6,466,[0.07206524],98,47,medium,plus,dotcolour,alfa,,,108,19,V,R,
328,76,34,7,2,53,27,818,['c'],1,left,['1'],6,473,[0.22298194],100,53,easy,plus,dotcolour,alfa,,,108,19,V,R,
329,77,35,7,2,47,33,834,['c'],1,left,['1'],6,350,[0.03055937],87,47,medium,plus,dotcolour,alfa,,,108,19,V,R,
330,78,36,7,2,44,36,682,['c'],1,left,['1'],6,357,[0.03413333],89,44,hard,plus,dotcolour,alfa,,,108,19,V,R,
331,79,37,7,2,36,44,800,['n'],1,right,['2'],5,296,[-0.0847177],100,44,hard,plus,dotcolour,alfa,,,108,19,V,R,
332,80,38,7,2,33,47,717,['n'],1,right,['2'],5,393,[-0.1688996],100,47,medium,plus,dotcolour,alfa,,,108,19,V,R,
333,81,39,7,2,53,27,1284,['c'],1,left,['1'],6,319,[0.03694339],91,53,easy,plus,dotcolour,alfa,,,108,19,V,R,
334,82,40,7,2,27,53,818,['n'],1,right,['1'],6,283,[-0.05568995],98,53,easy,plus,dotcolour,alfa,,,108,19,V,R,
335,83,41,7,2,44,36,783,['n'],0,left,['2'],5,281,[-0.03411932],91,44,hard,plus,dotcolour,alfa,,,108,19,V,R,
336,84,0,8,2,27,53,817,['n'],1,right,['2'],5,430,[-0.24672227],100,53,easy,plus,dotcolour,alfa,,,108,19,V,R,
337,85,1,8,2,36,44,717,['n'],1,right,['2'],5,450,[-0.08656773],99,44,hard,plus,dotcolour,alfa,,,108,19,V,R,
338,86,2,8,2,27,53,733,['n'],1,right,['2'],5,243,[-0.24685092],100,53,easy,plus,dotcolour,alfa,,,108,19,V,R,
339,87,3,8,2,47,33,700,['n'],0,left,['2'],5,191,[-0.09183303],100,47,medium,plus,dotcolour,alfa,,,108,19,V,R,
340,88,4,8,2,27,53,817,['n'],1,right,['1'],6,352,[-0.22166378],100,53,easy,plus,dotcolour,alfa,,,108,19,V,R,
341,89,5,8,2,33,47,700,['n'],1,right,['2'],5,223,[-0.10535587],100,47,medium,plus,dotcolour,alfa,,,108,19,V,R,
342,90,6,8,2,33,47,717,['n'],1,right,['2'],5,195,[-0.05941646],99,47,medium,plus,dotcolour,alfa,,,108,19,V,R,
343,91,7,8,2,44,36,1133,['c'],1,left,['1'],6,342,[0.05194345],96,44,hard,plus,dotcolour,alfa,,,108,19,V,R,
344,92,8,8,2,44,36,684,['n'],0,left,['1'],6,478,[-0.0567429],95,44,hard,plus,dotcolour,alfa,,,108,19,V,R,
345,93,9,8,2,36,44,700,['n'],1,right,['2'],5,224,[-0.0969912],100,44,hard,plus,dotcolour,alfa,,,108,19,V,R,
346,94,10,8,2,53,27,667,['n'],0,left,['2'],5,222,[-0.04283693],96,53,easy,plus,dotcolour,alfa,,,108,19,V,R,
347,95,11,8,2,36,44,634,['n'],1,right,['2'],5,220,[-0.02533704],87,44,hard,plus,dotcolour,alfa,,,108,19,V,R,
348,96,12,8,2,33,47,483,['n'],1,right,['2'],5,418,[-0.11651523],100,47,medium,plus,dotcolour,alfa,,,108,19,V,R,
349,97,13,8,2,47,33,800,['n'],0,left,['1'],6,267,[-0.0299538],89,47,medium,plus,dotcolour,alfa,,,108,19,V,R,
350,98,14,8,2,44,36,567,['n'],0,left,['2'],5,218,[-0.02900504],90,44,hard,plus,dotcolour,alfa,,,108,19,V,R,
351,99,15,8,2,36,44,583,['n'],1,right,['2'],5,708,[-0.09813057],99,44,hard,plus,dotcolour,alfa,,,108,19,V,R,
352,100,16,8,2,47,33,2566,['n'],0,left,['2'],5,410,[-0.04172955],91,47,medium,plus,dotcolour,alfa,,,108,19,V,R,
353,101,17,8,2,33,47,817,['n'],1,right,['3'],4,419,[-0.10905551],100,47,medium,plus,dotcolour,alfa,,,108,19,V,R,
354,102,18,8,2,53,27,1233,['c'],1,left,['1'],6,305,[0.08490356],100,53,easy,plus,dotcolour,alfa,,,108,19,V,R,
355,103,19,8,2,53,27,1116,['c'],1,left,['1'],6,281,[0.2280894],100,53,easy,plus,dotcolour,alfa,,,108,19,V,R,
356,104,20,8,2,53,27,900,['c'],1,left,['1'],6,307,[0.17887907],100,53,easy,plus,dotcolour,alfa,,,108,19,V,R,
357,105,21,8,2,27,53,917,['n'],1,right,['2'],5,219,[-0.09446436],100,53,easy,plus,dotcolour,alfa,,,108,19,V,R,
358,106,22,8,2,33,47,567,['n'],1,right,['2'],5,197,[-0.04632029],98,47,medium,plus,dotcolour,alfa,,,108,19,V,R,
359,107,23,8,2,53,27,967,['c'],1,left,['1'],6,608,[0.29696229],100,53,easy,plus,dotcolour,alfa,,,108,19,V,R,
360,108,24,8,2,33,47,683,['n'],1,right,['2'],5,357,[-0.22263311],100,47,medium,plus,dotcolour,alfa,,,108,19,V,R,
361,109,25,8,2,36,44,801,['n'],1,right,['2'],5,376,[-0.19113284],100,44,hard,plus,dotcolour,alfa,,,108,19,V,R,
362,110,26,8,2,36,44,634,['n'],1,right,['2'],5,297,[-0.17443937],100,44,hard,plus,dotcolour,alfa,,,108,19,V,R,
363,111,27,8,2,33,47,584,['n'],1,right,['2'],5,287,[-0.07488616],99,47,medium,plus,dotcolour,alfa,,,108,19,V,R,
364,112,28,8,2,44,36,533,['n'],0,left,['2'],5,320,[-0.08940231],100,44,hard,plus,dotcolour,alfa,,,108,19,V,R,
365,113,29,8,2,47,33,367,['n'],0,left,['2'],5,325,[-0.06567936],98,47,medium,plus,dotcolour,alfa,,,108,19,V,R,
366,114,30,8,2,44,36,1100,['c'],1,left,['2'],5,589,[0.20462082],100,44,hard,plus,dotcolour,alfa,,,108,19,V,R,
367,115,31,8,2,53,27,1549,['c'],1,left,['1'],6,281,[0.14058781],100,53,easy,plus,dotcolour,alfa,,,108,19,V,R,
368,116,32,8,2,27,53,800,['n'],1,right,['2'],5,287,[-0.18887053],100,53,easy,plus,dotcolour,alfa,,,108,19,V,R,
369,117,33,8,2,44,36,1417,['c'],1,left,['1'],6,396,[0.04545478],93,44,hard,plus,dotcolour,alfa,,,108,19,V,R,
370,118,34,8,2,27,53,1283,['n'],1,right,['2'],5,474,[-0.11643989],100,53,easy,plus,dotcolour,alfa,,,108,19,V,R,
371,119,35,8,2,44,36,1167,['c'],1,left,['1'],6,417,[0.07339396],98,44,hard,plus,dotcolour,alfa,,,108,19,V,R,
372,120,36,8,2,36,44,883,['n'],1,right,['2'],5,278,[-0.16048815],100,44,hard,plus,dotcolour,alfa,,,108,19,V,R,
373,121,37,8,2,47,33,983,['c'],1,left,['2'],5,341,[0.14847493],100,47,medium,plus,dotcolour,alfa,,,108,19,V,R,
374,122,38,8,2,47,33,1084,['c'],1,left,['2'],5,326,[0.14762265],100,47,medium,plus,dotcolour,alfa,,,108,19,V,R,
375,123,39,8,2,47,33,816,['c'],1,left,['2'],5,297,[0.063064],98,47,medium,plus,dotcolour,alfa,,,108,19,V,R,
376,124,40,8,2,53,27,899,['c'],1,left,['2'],5,450,[0.06422134],97,53,easy,plus,dotcolour,alfa,,,108,19,V,R,
377,125,41,8,2,27,53,716,['n'],1,right,['2'],5,325,[-0.2039629],100,53,easy,plus,dotcolour,alfa,,,108,19,V,R,
378,0,0,9,3,36,44,800,['n'],1,right,['2'],5,250,[-0.09301297],84,44,hard,minus,dotcolour,alfa,,,108,19,V,R,
379,1,1,9,3,47,33,933,['c'],1,left,['2'],5,259,[0.06672722],76,47,medium,minus,dotcolour,alfa,,,108,19,V,R,
380,2,2,9,3,36,44,699,['n'],1,right,['2'],5,174,[-0.01699811],59,44,hard,minus,dotcolour,alfa,,,108,19,V,R,
381,3,3,9,3,44,36,750,['c'],1,left,['2'],5,226,[0.1018696],87,44,hard,minus,dotcolour,alfa,,,108,19,V,R,
382,4,4,9,3,27,53,667,['n'],1,right,['2'],5,167,[-0.12830118],94,53,easy,minus,dotcolour,alfa,,,108,19,V,R,
383,5,5,9,3,27,53,1083,['c'],0,right,['2'],5,199,[0.13830861],94,53,easy,minus,dotcolour,alfa,,,108,19,V,R,
384,6,6,9,3,44,36,1484,['c'],1,left,['3'],4,381,[0.04533872],66,44,hard,minus,dotcolour,alfa,,,108,19,V,R,
385,7,7,9,3,53,27,1167,['c'],1,left,['1'],6,296,[0.16374033],94,53,easy,minus,dotcolour,alfa,,,108,19,V,R,
386,8,8,9,3,44,36,983,['n'],0,left,['3'],4,351,[-0.09770662],82,44,hard,minus,dotcolour,alfa,,,108,19,V,R,
387,9,9,9,3,47,33,750,['n'],0,left,['3'],4,860,[0.0636715],35,47,medium,minus,dotcolour,alfa,,,108,19,V,R,
388,10,10,9,3,27,53,1001,['n'],1,right,['1'],6,258,[-0.14343152],93,53,easy,minus,dotcolour,alfa,,,108,19,V,R,
389,11,11,9,3,36,44,683,['n'],1,right,['2'],5,198,[-0.10268493],89,44,hard,minus,dotcolour,alfa,,,108,19,V,R,
390,12,12,9,3,53,27,983,['c'],1,left,['1'],6,232,[0.08507881],83,53,easy,minus,dotcolour,alfa,,,108,19,V,R,
391,13,13,9,3,36,44,700,['n'],1,right,['2'],5,276,[-0.0413447],67,44,hard,minus,dotcolour,alfa,,,108,19,V,R,
392,14,14,9,3,27,53,884,['n'],1,right,['1'],6,302,[-0.06745459],75,53,easy,minus,dotcolour,alfa,,,108,19,V,R,
393,15,15,9,3,47,33,983,['c'],1,left,['1'],6,236,[0.09235627],85,47,medium,minus,dotcolour,alfa,,,108,19,V,R,
394,16,16,9,3,44,36,1650,['c'],1,left,['1'],6,266,[0.09047649],83,44,hard,minus,dotcolour,alfa,,,108,19,V,R,
395,17,17,9,3,33,47,750,['n'],1,right,['2'],5,299,[-0.09861818],84,47,medium,minus,dotcolour,alfa,,,108,19,V,R,
396,18,18,9,3,47,33,900,['c'],1,left,['2'],5,316,[0.10311321],84,47,medium,minus,dotcolour,alfa,,,108,19,V,R,
397,19,19,9,3,27,53,700,['n'],1,right,['2'],5,245,[-0.10319315],87,53,easy,minus,dotcolour,alfa,,,108,19,V,R,
398,20,20,9,3,36,44,684,['n'],1,right,['2'],5,233,[-0.14139646],93,44,hard,minus,dotcolour,alfa,,,108,19,V,R,
399,21,21,9,3,27,53,635,['n'],1,right,['2'],5,440,[-0.17566913],92,53,easy,minus,dotcolour,alfa,,,108,19,V,R,
400,22,22,9,3,33,47,651,['n'],1,right,['2'],5,246,[-0.09799779],86,47,medium,minus,dotcolour,alfa,,,108,19,V,R,
401,23,23,9,3,47,33,567,['n'],0,left,['2'],5,254,[-0.05535966],73,47,medium,minus,dotcolour,alfa,,,108,19,V,R,
402,24,24,9,3,44,36,917,['c'],1,left,['1'],6,328,[0.18249097],95,44,hard,minus,dotcolour,alfa,,,108,19,V,R,
403,25,25,9,3,33,47,900,['n'],1,right,['2'],5,216,[-0.15310052],95,47,medium,minus,dotcolour,alfa,,,108,19,V,R,
404,26,26,9,3,27,53,833,['n'],1,right,['2'],5,240,[-0.09465072],85,53,easy,minus,dotcolour,alfa,,,108,19,V,R,
405,27,27,9,3,53,27,1201,['c'],1,left,['1'],6,279,[0.18254333],96,53,easy,minus,dotcolour,alfa,,,108,19,V,R,
406,28,28,9,3,47,33,717,['n'],0,left,['2'],5,264,[-0.0564281],73,47,medium,minus,dotcolour,alfa,,,108,19,V,R,
407,29,29,9,3,44,36,850,['c'],1,left,['2'],5,589,[0.04644243],63,44,hard,minus,dotcolour,alfa,,,108,19,V,R,
408,30,30,9,3,47,33,617,['n'],0,left,['2'],5,318,[-0.04077912],66,47,medium,minus,dotcolour,alfa,,,108,19,V,R,
409,31,31,9,3,33,47,867,['n'],1,right,['2'],5,288,[-0.08767205],81,47,medium,minus,dotcolour,alfa,,,108,19,V,R,
410,32,32,9,3,33,47,1033,['n'],1,right,['2'],5,285,[-0.08828872],82,47,medium,minus,dotcolour,alfa,,,108,19,V,R,
411,33,33,9,3,33,47,700,['n'],1,right,['2'],5,271,[-0.07451211],78,47,medium,minus,dotcolour,alfa,,,108,19,V,R,
412,34,34,9,3,33,47,601,['n'],1,right,['2'],5,334,[-0.09873262],82,47,medium,minus,dotcolour,alfa,,,108,19,V,R,
413,35,35,9,3,53,27,950,['c'],1,left,['2'],5,596,[0.22193732],93,53,easy,minus,dotcolour,alfa,,,108,19,V,R,
414,36,36,9,3,36,44,750,['n'],1,right,['2'],5,263,[-0.14296605],92,44,hard,minus,dotcolour,alfa,,,108,19,V,R,
415,37,37,9,3,53,27,1016,['c'],1,left,['2'],5,293,[0.16058792],94,53,easy,minus,dotcolour,alfa,,,108,19,V,R,
416,38,38,9,3,53,27,934,['c'],1,left,['2'],5,309,[0.17249237],94,53,easy,minus,dotcolour,alfa,,,108,19,V,R,
417,39,39,9,3,53,27,1699,['c'],1,left,['2'],5,326,[0.1765639],94,53,easy,minus,dotcolour,alfa,,,108,19,V,R,
418,40,40,9,3,36,44,800,['n'],1,right,['2'],5,249,[-0.02625485],62,44,hard,minus,dotcolour,alfa,,,108,19,V,R,
419,41,41,9,3,44,36,766,['n'],0,left,['2'],5,258,[-0.1289723],91,44,hard,minus,dotcolour,alfa,,,108,19,V,R,
420,42,0,10,3,33,47,818,['n'],1,right,['2'],5,615,[-0.07793881],71,47,medium,minus,dotcolour,alfa,,,108,19,V,R,
421,43,1,10,3,53,27,850,['c'],1,left,['1'],6,526,[0.29092037],97,53,easy,minus,dotcolour,alfa,,,108,19,V,R,
422,44,2,10,3,36,44,983,['c'],0,right,['1'],6,306,[0.09481211],82,44,hard,minus,dotcolour,alfa,,,108,19,V,R,
423,45,3,10,3,36,44,534,['n'],1,right,['2'],5,258,[-0.05192412],72,44,hard,minus,dotcolour,alfa,,,108,19,V,R,
424,46,4,10,3,44,36,1167,['c'],1,left,['1'],6,402,[0.16924667],92,44,hard,minus,dotcolour,alfa,,,108,19,V,R,
425,47,5,10,3,53,27,1017,['n'],0,left,['3'],4,306,[-0.02834514],61,53,easy,minus,dotcolour,alfa,,,108,19,V,R,
426,48,6,10,3,53,27,817,['n'],0,left,['2'],5,582,[-0.00095017],50,53,easy,minus,dotcolour,alfa,,,108,19,V,R,
427,49,7,10,3,33,47,666,['n'],1,right,['2'],5,206,[-0.08360875],84,47,medium,minus,dotcolour,alfa,,,108,19,V,R,
428,50,8,10,3,27,53,817,['n'],1,right,['2'],5,286,[-0.06994485],76,53,easy,minus,dotcolour,alfa,,,108,19,V,R,
429,51,9,10,3,47,33,1017,['c'],1,left,['1'],6,460,[0.15687452],89,47,medium,minus,dotcolour,alfa,,,108,19,V,R,
430,52,10,10,3,44,36,1018,['c'],1,left,['1'],6,298,[0.05588112],72,44,hard,minus,dotcolour,alfa,,,108,19,V,R,
431,53,11,10,3,36,44,800,['n'],1,right,['2'],5,231,[-0.13886994],93,44,hard,minus,dotcolour,alfa,,,108,19,V,R,
432,54,12,10,3,47,33,1200,['c'],1,left,['1'],6,319,[0.06514097],74,47,medium,minus,dotcolour,alfa,,,108,19,V,R,
433,55,13,10,3,44,36,984,['c'],1,left,['1'],6,525,[0.19512305],92,44,hard,minus,dotcolour,alfa,,,108,19,V,R,
434,56,14,10,3,47,33,816,['n'],0,left,['2'],5,288,[-0.04633149],69,47,medium,minus,dotcolour,alfa,,,108,19,V,R,
435,57,15,10,3,53,27,884,['c'],1,left,['1'],6,338,[0.10612634],84,53,easy,minus,dotcolour,alfa,,,108,19,V,R,
436,58,16,10,3,47,33,850,['c'],1,left,['1'],6,308,[0.08878353],81,47,medium,minus,dotcolour,alfa,,,108,19,V,R,
437,59,17,10,3,47,33,1134,['n'],0,left,['2'],5,387,[-0.06874094],73,47,medium,minus,dotcolour,alfa,,,108,19,V,R,
438,60,18,10,3,27,53,917,['n'],1,right,['2'],5,328,[-0.13997795],90,53,easy,minus,dotcolour,alfa,,,108,19,V,R,
439,61,19,10,3,27,53,668,['n'],1,right,['2'],5,202,[-0.12869265],93,53,easy,minus,dotcolour,alfa,,,108,19,V,R,
440,62,20,10,3,27,53,852,['n'],1,right,['2'],5,241,[-0.14621004],94,53,easy,minus,dotcolour,alfa,,,108,19,V,R,
441,63,21,10,3,33,47,717,['n'],1,right,['2'],5,276,[-0.05714852],73,47,medium,minus,dotcolour,alfa,,,108,19,V,R,
442,64,22,10,3,36,44,1383,['n'],1,right,['2'],5,226,[-0.05230707],73,44,hard,minus,dotcolour,alfa,,,108,19,V,R,
443,65,23,10,3,33,47,666,['n'],1,right,['2'],5,232,[-0.12795264],92,47,medium,minus,dotcolour,alfa,,,108,19,V,R,
444,66,24,10,3,33,47,633,['n'],1,right,['2'],5,246,[-0.07159649],79,47,medium,minus,dotcolour,alfa,,,108,19,V,R,
445,67,25,10,3,47,33,684,['n'],0,left,['2'],5,218,[-0.13929614],94,47,medium,minus,dotcolour,alfa,,,108,19,V,R,
446,68,26,10,3,44,36,600,['n'],0,left,['2'],5,267,[-0.03279931],64,44,hard,minus,dotcolour,alfa,,,108,19,V,R,
447,69,27,10,3,44,36,649,['n'],0,left,['2'],5,193,[-0.11919711],92,44,hard,minus,dotcolour,alfa,,,108,19,V,R,
448,70,28,10,3,27,53,616,['n'],1,right,['2'],5,201,[-0.04308569],70,53,easy,minus,dotcolour,alfa,,,108,19,V,R,
449,71,29,10,3,33,47,600,['n'],1,right,['2'],5,226,[-0.11909371],91,47,medium,minus,dotcolour,alfa,,,108,19,V,R,
450,72,30,10,3,53,27,684,['n'],0,left,['2'],5,255,[0.06624148],23,53,easy,minus,dotcolour,alfa,,,108,19,V,R,
451,73,31,10,3,44,36,752,['n'],0,left,['2'],5,160,[-0.05480531],77,44,hard,minus,dotcolour,alfa,,,108,19,V,R,
452,74,32,10,3,36,44,582,['n'],1,right,['2'],5,196,[-0.12431645],93,44,hard,minus,dotcolour,alfa,,,108,19,V,R,
453,75,33,10,3,53,27,1099,['c'],1,left,['1'],6,344,[0.15393294],91,53,easy,minus,dotcolour,alfa,,,108,19,V,R,
454,76,34,10,3,27,53,800,['n'],1,right,['2'],5,212,[-0.02522411],62,53,easy,minus,dotcolour,alfa,,,108,19,V,R,
455,77,35,10,3,27,53,650,['n'],1,right,['2'],5,186,[-0.08428823],85,53,easy,minus,dotcolour,alfa,,,108,19,V,R,
456,78,36,10,3,44,36,1084,['c'],1,left,['1'],6,281,[0.07372912],78,44,hard,minus,dotcolour,alfa,,,108,19,V,R,
457,79,37,10,3,47,33,817,['n'],0,left,['2'],5,359,[-0.02269188],58,47,medium,minus,dotcolour,alfa,,,108,19,V,R,
458,80,38,10,3,36,44,717,['n'],1,right,['2'],5,189,[-0.0883687],86,44,hard,minus,dotcolour,alfa,,,108,19,V,R,
459,81,39,10,3,36,44,1200,['c'],0,right,['1'],6,279,[0.05799258],73,44,hard,minus,dotcolour,alfa,,,108,19,V,R,
460,82,40,10,3,33,47,1051,['n'],1,right,['2'],5,218,[-0.1131353],90,47,medium,minus,dotcolour,alfa,,,108,19,V,R,
461,83,41,10,3,53,27,1016,['c'],1,left,['1'],6,315,[0.05954786],72,53,easy,minus,dotcolour,alfa,,,108,19,V,R,
462,84,0,11,3,44,36,834,['n'],0,left,['2'],5,245,[-0.11445731],89,44,hard,minus,dotcolour,alfa,,,108,19,V,R,
463,85,1,11,3,44,36,567,['n'],0,left,['2'],5,237,[-0.03234371],65,44,hard,minus,dotcolour,alfa,,,108,19,V,R,
464,86,2,11,3,53,27,867,['c'],1,left,['1'],6,355,[0.13803221],89,53,easy,minus,dotcolour,alfa,,,108,19,V,R,
465,87,3,11,3,53,27,983,['c'],1,left,['1'],6,390,[0.12274836],85,53,easy,minus,dotcolour,alfa,,,108,19,V,R,
466,88,4,11,3,47,33,1200,['n'],0,left,['1'],6,311,[0.01929048],42,47,medium,minus,dotcolour,alfa,,,108,19,V,R,
467,89,5,11,3,27,53,851,['n'],1,right,['1'],6,298,[-0.02795282],61,53,easy,minus,dotcolour,alfa,,,108,19,V,R,
468,90,6,11,3,36,44,850,['n'],1,right,['2'],5,357,[-0.07212175],75,44,hard,minus,dotcolour,alfa,,,108,19,V,R,
469,91,7,11,3,36,44,799,['n'],1,right,['2'],5,192,[-0.10149509],89,44,hard,minus,dotcolour,alfa,,,108,19,V,R,
470,92,8,11,3,33,47,849,['n'],1,right,['2'],5,264,[-0.09189079],83,47,medium,minus,dotcolour,alfa,,,108,19,V,R,
471,93,9,11,3,33,47,667,['n'],1,right,['2'],5,187,[-0.16904116],97,47,medium,minus,dotcolour,alfa,,,108,19,V,R,
472,94,10,11,3,53,27,1000,['n'],0,left,['2'],5,150,[-0.10826017],93,53,easy,minus,dotcolour,alfa,,,108,19,V,R,
473,95,11,11,3,44,36,784,['n'],0,left,['2'],5,337,[-0.02978649],61,44,hard,minus,dotcolour,alfa,,,108,19,V,R,
474,96,12,11,3,47,33,62,['n'],0,left,['2'],5,102,[-0.02231099],65,47,medium,minus,dotcolour,alfa,,,108,19,V,R,
475,97,13,11,3,53,27,784,['c'],1,left,['2'],5,292,[0.22681845],98,53,easy,minus,dotcolour,alfa,,,108,19,V,R,
476,98,14,11,3,47,33,2284,['n'],0,left,['2'],5,421,[-0.02603545],59,47,medium,minus,dotcolour,alfa,,,108,19,V,R,
477,99,15,11,3,44,36,1250,['c'],1,left,['1'],6,268,[0.04210117],68,44,hard,minus,dotcolour,alfa,,,108,19,V,R,
478,100,16,11,3,33,47,1017,['n'],1,right,['1'],6,274,[0.00800254],47,47,medium,minus,dotcolour,alfa,,,108,19,V,R,
479,101,17,11,3,33,47,866,['n'],1,right,['1'],6,269,[-0.19098312],96,47,medium,minus,dotcolour,alfa,,,108,19,V,R,
480,102,18,11,3,33,47,966,['n'],1,right,['1'],6,181,[-0.1133015],92,47,medium,minus,dotcolour,alfa,,,108,19,V,R,
481,103,19,11,3,44,36,834,['c'],1,left,['1'],6,213,[0.07325442],81,44,hard,minus,dotcolour,alfa,,,108,19,V,R,
482,104,20,11,3,47,33,917,['n'],0,left,['1'],6,170,[-0.14068971],96,47,medium,minus,dotcolour,alfa,,,108,19,V,R,
483,105,21,11,3,27,53,684,['n'],1,right,['1'],6,169,[-0.13496126],95,53,easy,minus,dotcolour,alfa,,,108,19,V,R,
484,106,22,11,3,44,36,1134,['c'],1,left,['1'],6,302,[0.06472396],74,44,hard,minus,dotcolour,alfa,,,108,19,V,R,
485,107,23,11,3,36,44,683,['n'],1,right,['1'],6,784,[-0.03256301],58,44,hard,minus,dotcolour,alfa,,,108,19,V,R,
486,108,24,11,3,27,53,799,['n'],1,right,['1'],6,178,[-0.103988],90,53,easy,minus,dotcolour,alfa,,,108,19,V,R,
487,109,25,11,3,27,53,600,['n'],1,right,['1'],6,364,[-0.08912584],79,53,easy,minus,dotcolour,alfa,,,108,19,V,R,
488,110,26,11,3,33,47,618,['n'],1,right,['1'],6,414,[-0.13925845],88,47,medium,minus,dotcolour,alfa,,,108,19,V,R,
489,111,27,11,3,53,27,984,['c'],1,left,['1'],6,247,[0.13416581],92,53,easy,minus,dotcolour,alfa,,,108,19,V,R,
490,112,28,11,3,47,33,783,['c'],1,left,['1'],6,319,[0.01651419],57,47,medium,minus,dotcolour,alfa,,,108,19,V,R,
491,113,29,11,3,27,53,782,['n'],1,right,['1'],6,349,[-0.18131603],94,53,easy,minus,dotcolour,alfa,,,108,19,V,R,
492,114,30,11,3,36,44,850,['n'],1,right,['1'],6,222,[-0.08181075],83,44,hard,minus,dotcolour,alfa,,,108,19,V,R,
493,115,31,11,3,53,27,1200,['c'],1,left,['1'],6,318,[0.11038036],85,53,easy,minus,dotcolour,alfa,,,108,19,V,R,
494,116,32,11,3,36,44,849,['n'],1,right,['1'],6,250,[-0.11543354],89,44,hard,minus,dotcolour,alfa,,,108,19,V,R,
495,117,33,11,3,27,53,783,['n'],1,right,['1'],6,193,[-0.01940175],60,53,easy,minus,dotcolour,alfa,,,108,19,V,R,
496,118,34,11,3,27,53,567,['n'],1,right,['1'],6,204,[-0.17927858],97,53,easy,minus,dotcolour,alfa,,,108,19,V,R,
497,119,35,11,3,36,44,1017,['c'],0,right,['1'],6,269,[0.1503907],93,44,hard,minus,dotcolour,alfa,,,108,19,V,R,
498,120,36,11,3,53,27,1133,['c'],1,left,['1'],6,302,[0.09985792],84,53,easy,minus,dotcolour,alfa,,,108,19,V,R,
499,121,37,11,3,36,44,734,['n'],1,right,['2'],5,638,[0.01794562],45,44,hard,minus,dotcolour,alfa,,,108,19,V,R,
500,122,38,11,3,47,33,1184,['n'],0,left,['2'],5,206,[0.01959189],40,47,medium,minus,dotcolour,alfa,,,108,19,V,R,
501,123,39,11,3,47,33,1184,['n'],0,left,['2'],5,223,[-0.07257655],80,47,medium,minus,dotcolour,alfa,,,108,19,V,R,
502,124,40,11,3,33,47,1433,['c'],0,right,['2'],5,518,[-0.10904979],20,47,medium,minus,dotcolour,alfa,,,108,19,V,R,
503,125,41,11,3,44,36,766,['n'],0,left,['3'],4,396,[0.0158157],44,44,hard,minus,dotcolour,alfa,,,108,19,V,R,
504,0,0,12,4,36,44,1117,['n'],1,right,['1'],6,401,[-0.07228547],98,44,hard,plus,dotcolour,alfa,,,108,19,V,R,
505,1,1,12,4,33,47,1016,['c'],0,right,['1'],6,233,[0.04915002],98,47,medium,plus,dotcolour,alfa,,,108,19,V,R,
506,2,2,12,4,44,36,933,['c'],1,left,['1'],6,396,[0.08357467],99,44,hard,plus,dotcolour,alfa,,,108,19,V,R,
507,3,3,12,4,36,44,850,['n'],1,right,['2'],5,275,[-0.13416659],100,44,hard,plus,dotcolour,alfa,,,108,19,V,R,
508,4,4,12,4,27,53,834,['n'],1,right,['2'],5,224,[-0.1053329],100,53,easy,plus,dotcolour,alfa,,,108,19,V,R,
509,5,5,12,4,47,33,982,['c'],1,left,['1'],6,313,[0.14618545],100,47,medium,plus,dotcolour,alfa,,,108,19,V,R,
510,6,6,12,4,47,33,684,['n'],0,left,['1'],6,323,[-0.08952889],100,47,medium,plus,dotcolour,alfa,,,108,19,V,R,
511,7,7,12,4,27,53,784,['n'],1,right,['2'],5,415,[-0.18943929],100,53,easy,plus,dotcolour,alfa,,,108,19,V,R,
512,8,8,12,4,44,36,700,['n'],0,left,['2'],5,267,[-0.05294126],98,44,hard,plus,dotcolour,alfa,,,108,19,V,R,
513,9,9,12,4,47,33,933,['c'],1,left,['1'],6,357,[0.13238994],100,47,medium,plus,dotcolour,alfa,,,108,19,V,R,
514,10,10,12,4,27,53,816,['n'],1,right,['3'],4,511,[-0.12017741],100,53,easy,plus,dotcolour,alfa,,,108,19,V,R,
515,11,11,12,4,44,36,1383,['c'],1,left,['2'],5,413,[0.14592437],100,44,hard,plus,dotcolour,alfa,,,108,19,V,R,
516,12,12,12,4,53,27,917,['c'],1,left,['1'],6,488,[0.02736902],80,53,easy,plus,dotcolour,alfa,,,108,19,V,R,
517,13,13,12,4,27,53,733,['n'],1,right,['2'],5,353,[-0.15883373],100,53,easy,plus,dotcolour,alfa,,,108,19,V,R,
518,14,14,12,4,27,53,817,['n'],1,right,['1'],6,635,[-0.24612937],100,53,easy,plus,dotcolour,alfa,,,108,19,V,R,
519,15,15,12,4,53,27,1167,['c'],1,left,['1'],6,293,[0.08065217],100,53,easy,plus,dotcolour,alfa,,,108,19,V,R,
520,16,16,12,4,27,53,767,['n'],1,right,['2'],5,331,[-0.14179727],100,53,easy,plus,dotcolour,alfa,,,108,19,V,R,
521,17,17,12,4,33,47,717,['n'],1,right,['2'],5,522,[-0.06148453],96,47,medium,plus,dotcolour,alfa,,,108,19,V,R,
522,18,18,12,4,33,47,684,['n'],1,right,['2'],5,315,[-0.20810888],100,47,medium,plus,dotcolour,alfa,,,108,19,V,R,
523,19,19,12,4,47,33,1000,['c'],1,left,['1'],6,200,[0.04754652],98,47,medium,plus,dotcolour,alfa,,,108,19,V,R,
524,20,20,12,4,47,33,950,['c'],1,left,['1'],6,315,[0.09294627],100,47,medium,plus,dotcolour,alfa,,,108,19,V,R,
525,21,21,12,4,33,47,883,['n'],1,right,['1'],6,212,[-0.07735928],100,47,medium,plus,dotcolour,alfa,,,108,19,V,R,
526,22,22,12,4,53,27,800,['c'],1,left,['1'],6,261,[0.13276772],100,53,easy,plus,dotcolour,alfa,,,108,19,V,R,
527,23,23,12,4,53,27,867,['c'],1,left,['1'],6,273,[0.08655877],100,53,easy,plus,dotcolour,alfa,,,108,19,V,R,
528,24,24,12,4,36,44,749,['n'],1,right,['2'],5,241,[-0.12496785],100,44,hard,plus,dotcolour,alfa,,,108,19,V,R,
529,25,25,12,4,44,36,1034,['c'],1,left,['1'],6,335,[0.2328438],100,44,hard,plus,dotcolour,alfa,,,108,19,V,R,
530,26,26,12,4,27,53,1983,['n'],1,right,['1'],6,1124,[-0.47862469],100,53,easy,plus,dotcolour,alfa,,,108,19,V,R,
531,27,27,12,4,44,36,934,['n'],0,left,['1'],6,171,[-0.03903569],97,44,hard,plus,dotcolour,alfa,,,108,19,V,R,
532,28,28,12,4,47,33,717,['n'],0,left,['1'],6,208,[0.00104057],48,47,medium,plus,dotcolour,alfa,,,108,19,V,R,
533,29,29,12,4,53,27,967,['c'],1,left,['1'],6,266,[0.11571125],100,53,easy,plus,dotcolour,alfa,,,108,19,V,R,
534,30,30,12,4,53,27,1084,['c'],1,left,['1'],6,262,[0.10728148],100,53,easy,plus,dotcolour,alfa,,,108,19,V,R,
535,31,31,12,4,33,47,751,['n'],1,right,['1'],6,270,[-0.18301897],100,47,medium,plus,dotcolour,alfa,,,108,19,V,R,
536,32,32,12,4,47,33,984,['c'],1,left,['1'],6,310,[0.12453087],100,47,medium,plus,dotcolour,alfa,,,108,19,V,R,
537,33,33,12,4,36,44,767,['n'],1,right,['1'],6,292,[-0.08962995],100,44,hard,plus,dotcolour,alfa,,,108,19,V,R,
538,34,34,12,4,33,47,733,['n'],1,right,['1'],6,348,[-0.08104079],99,47,medium,plus,dotcolour,alfa,,,108,19,V,R,
539,35,35,12,4,53,27,1200,['c'],1,left,['1'],6,376,[0.0900546],99,53,easy,plus,dotcolour,alfa,,,108,19,V,R,
540,36,36,12,4,44,36,1016,['n'],0,left,['2'],5,385,[-0.0476583],94,44,hard,plus,dotcolour,alfa,,,108,19,V,R,
541,37,37,12,4,36,44,733,['n'],1,right,['2'],5,446,[-0.0835126],99,44,hard,plus,dotcolour,alfa,,,108,19,V,R,
542,38,38,12,4,36,44,1167,['c'],0,right,['1'],6,358,[0.06888396],98,44,hard,plus,dotcolour,alfa,,,108,19,V,R,
543,39,39,12,4,44,36,816,['n'],0,left,['1'],6,296,[-0.0305892],88,44,hard,plus,dotcolour,alfa,,,108,19,V,R,
544,40,40,12,4,33,47,683,['n'],1,right,['1'],6,234,[-0.14504047],100,47,medium,plus,dotcolour,alfa,,,108,19,V,R,
545,41,41,12,4,36,44,2666,['c'],0,right,['2'],5,703,[0.16403691],100,44,hard,plus,dotcolour,alfa,,,108,19,V,R,
546,42,0,13,4,33,47,683,['n'],1,right,['1'],6,166,[-0.04258362],98,47,medium,plus,dotcolour,alfa,,,108,19,V,R,
547,43,1,13,4,44,36,700,['c'],1,left,['1'],6,269,[0.10400149],100,44,hard,plus,dotcolour,alfa,,,108,19,V,R,
548,44,2,13,4,53,27,867,['c'],1,left,['1'],6,273,[0.04037949],94,53,easy,plus,dotcolour,alfa,,,108,19,V,R,
549,45,3,13,4,47,33,717,['n'],0,left,['2'],5,1026,[0.1691242],0,47,medium,plus,dotcolour,alfa,,,108,19,V,R,
550,46,4,13,4,27,53,967,['n'],1,right,['2'],5,371,[-0.13635838],100,53,easy,plus,dotcolour,alfa,,,108,19,V,R,
551,47,5,13,4,44,36,1316,['n'],0,left,['3'],4,665,[-0.14983675],100,44,hard,plus,dotcolour,alfa,,,108,19,V,R,
552,48,6,13,4,44,36,785,['n'],0,left,['2'],5,328,[-0.12463148],100,44,hard,plus,dotcolour,alfa,,,108,19,V,R,
553,49,7,13,4,36,44,882,['n'],1,right,['2'],5,465,[0.00898078],38,44,hard,plus,dotcolour,alfa,,,108,19,V,R,
554,50,8,13,4,44,36,1017,['n'],0,left,['8'],3,719,[-0.23240086],100,44,hard,plus,dotcolour,alfa,,,108,19,V,R,
555,51,9,13,4,53,27,700,['n'],0,left,['1'],6,319,[-0.03688293],91,53,easy,plus,dotcolour,alfa,,,108,19,V,R,
556,52,10,13,4,47,33,750,['n'],0,left,['2'],5,229,[-0.0366802],94,47,medium,plus,dotcolour,alfa,,,108,19,V,R,
557,53,11,13,4,44,36,633,['n'],0,left,['2'],5,309,[-0.00489587],58,44,hard,plus,dotcolour,alfa,,,108,19,V,R,
558,54,12,13,4,27,53,1217,['n'],1,right,['3'],4,489,[-0.2246528],100,53,easy,plus,dotcolour,alfa,,,108,19,V,R,
559,55,13,13,4,36,44,884,['n'],1,right,['3'],4,266,[-0.02783451],87,44,hard,plus,dotcolour,alfa,,,108,19,V,R,
560,56,14,13,4,47,33,900,['n'],0,left,['2'],5,341,[-0.11044569],100,47,medium,plus,dotcolour,alfa,,,108,19,V,R,
561,57,15,13,4,33,47,767,['n'],1,right,['2'],5,282,[-0.12582828],100,47,medium,plus,dotcolour,alfa,,,108,19,V,R,
562,58,16,13,4,36,44,633,['n'],1,right,['2'],5,302,[-0.13149221],100,44,hard,plus,dotcolour,alfa,,,108,19,V,R,
563,59,17,13,4,44,36,467,['n'],0,left,['2'],5,297,[0.0015038],48,44,hard,plus,dotcolour,alfa,,,108,19,V,R,
564,60,18,13,4,27,53,784,['n'],1,right,['2'],5,359,[-0.14791322],100,53,easy,plus,dotcolour,alfa,,,108,19,V,R,
565,61,19,13,4,33,47,649,['n'],1,right,['1'],6,360,[-0.12751609],100,47,medium,plus,dotcolour,alfa,,,108,19,V,R,
566,62,20,13,4,36,44,633,['n'],1,right,['1'],6,297,[-0.05541668],97,44,hard,plus,dotcolour,alfa,,,108,19,V,R,
567,63,21,13,4,47,33,401,['n'],0,left,['1'],6,318,[-0.05671503],97,47,medium,plus,dotcolour,alfa,,,108,19,V,R,
568,64,22,13,4,47,33,383,['n'],0,left,['1'],6,283,[0.03071329],11,47,medium,plus,dotcolour,alfa,,,108,19,V,R,
569,65,23,13,4,47,33,284,['n'],0,left,['1'],6,238,[0.04547814],3,47,medium,plus,dotcolour,alfa,,,108,19,V,R,
570,66,24,13,4,27,53,583,['n'],1,right,['1'],6,246,[-0.19808139],100,53,easy,plus,dotcolour,alfa,,,108,19,V,R,
571,67,25,13,4,27,53,650,['n'],1,right,['1'],6,164,[-0.07352912],100,53,easy,plus,dotcolour,alfa,,,108,19,V,R,
572,68,26,13,4,47,33,1067,['c'],1,left,['1'],6,291,[0.09031606],100,47,medium,plus,dotcolour,alfa,,,108,19,V,R,
573,69,27,13,4,53,27,734,['c'],1,left,['1'],6,228,[0.1099391],100,53,easy,plus,dotcolour,alfa,,,108,19,V,R,
574,70,28,13,4,44,36,700,['n'],0,left,['2'],5,416,[-0.01568401],71,44,hard,plus,dotcolour,alfa,,,108,19,V,R,
575,71,29,13,4,27,53,849,['n'],1,right,['2'],5,222,[-0.06663335],99,53,easy,plus,dotcolour,alfa,,,108,19,V,R,
576,72,30,13,4,36,44,567,['n'],1,right,['2'],5,224,[-0.12111475],100,44,hard,plus,dotcolour,alfa,,,108,19,V,R,
577,73,31,13,4,53,27,584,['n'],0,left,['2'],5,192,[-0.09272582],100,53,easy,plus,dotcolour,alfa,,,108,19,V,R,
578,74,32,13,4,36,44,1100,['n'],1,right,['1'],6,229,[-0.17705486],100,44,hard,plus,dotcolour,alfa,,,108,19,V,R,
579,75,33,13,4,33,47,718,['n'],1,right,['1'],6,153,[-0.17419461],100,47,medium,plus,dotcolour,alfa,,,108,19,V,R,
580,76,34,13,4,27,53,533,['n'],1,right,['1'],6,183,[-0.07754531],100,53,easy,plus,dotcolour,alfa,,,108,19,V,R,
581,77,35,13,4,33,47,983,['c'],0,right,['1'],6,250,[0.02358104],85,47,medium,plus,dotcolour,alfa,,,108,19,V,R,
582,78,36,13,4,36,44,651,['n'],1,right,['1'],6,223,[-0.08599042],100,44,hard,plus,dotcolour,alfa,,,108,19,V,R,
583,79,37,13,4,33,47,1067,['c'],0,right,['1'],6,341,[0.03954394],92,47,medium,plus,dotcolour,alfa,,,108,19,V,R,
584,80,38,13,4,53,27,767,['c'],1,left,['1'],6,297,[0.1154703],100,53,easy,plus,dotcolour,alfa,,,108,19,V,R,
585,81,39,13,4,33,47,667,['n'],1,right,['1'],6,212,[-0.08607549],100,47,medium,plus,dotcolour,alfa,,,108,19,V,R,
586,82,40,13,4,53,27,651,['n'],0,left,['1'],6,250,[-0.04901156],97,53,easy,plus,dotcolour,alfa,,,108,19,V,R,
587,83,41,13,4,53,27,950,['n'],0,left,['1'],6,284,[-0.04755507],96,53,easy,plus,dotcolour,alfa,,,108,19,V,R,
588,84,0,14,4,36,44,651,['n'],1,right,['1'],6,191,[-0.12510881],100,44,hard,plus,dotcolour,alfa,,,108,19,V,R,
589,85,1,14,4,47,33,900,['n'],0,left,['1'],6,244,[-0.06012342],99,47,medium,plus,dotcolour,alfa,,,108,19,V,R,
590,86,2,14,4,47,33,499,['n'],0,left,['1'],6,281,[-0.03169884],90,47,medium,plus,dotcolour,alfa,,,108,19,V,R,
591,87,3,14,4,44,36,618,['n'],0,left,['8'],3,1702,[-0.04585171],78,44,hard,plus,dotcolour,alfa,,,108,19,V,R,
592,88,4,14,4,33,47,716,['n'],1,right,['2'],5,429,[-0.25198489],100,47,medium,plus,dotcolour,alfa,,,108,19,V,R,
593,89,5,14,4,53,27,1083,['c'],1,left,['1'],6,282,[0.10011881],100,53,easy,plus,dotcolour,alfa,,,108,19,V,R,
594,90,6,14,4,47,33,667,['n'],0,left,['2'],5,405,[-0.02296157],79,47,medium,plus,dotcolour,alfa,,,108,19,V,R,
595,91,7,14,4,36,44,685,['n'],1,right,['2'],5,275,[-0.12524936],100,44,hard,plus,dotcolour,alfa,,,108,19,V,R,
596,92,8,14,4,53,27,850,['c'],1,left,['1'],6,455,[0.17936865],100,53,easy,plus,dotcolour,alfa,,,108,19,V,R,
597,93,9,14,4,53,27,817,['c'],1,left,['1'],6,389,[0.2144701],100,53,easy,plus,dotcolour,alfa,,,108,19,V,R,
598,94,10,14,4,53,27,917,['c'],1,left,['1'],6,281,[0.18897786],100,53,easy,plus,dotcolour,alfa,,,108,19,V,R,
599,95,11,14,4,44,36,1067,['c'],1,left,['1'],6,341,[0.13938998],100,44,hard,plus,dotcolour,alfa,,,108,19,V,R,
600,96,12,14,4,27,53,783,['n'],1,right,['2'],5,313,[-0.03488672],90,53,easy,plus,dotcolour,alfa,,,108,19,V,R,
601,97,13,14,4,53,27,667,['n'],0,left,['1'],6,299,[0.00253112],46,53,easy,plus,dotcolour,alfa,,,108,19,V,R,
602,98,14,14,4,33,47,667,['n'],1,right,['1'],6,214,[-0.18715],100,47,medium,plus,dotcolour,alfa,,,108,19,V,R,
603,99,15,14,4,27,53,767,['n'],1,right,['2'],5,272,[-0.05555497],98,53,easy,plus,dotcolour,alfa,,,108,19,V,R,
604,100,16,14,4,27,53,633,['n'],1,right,['2'],5,229,[-0.06925269],99,53,easy,plus,dotcolour,alfa,,,108,19,V,R,
605,101,17,14,4,36,44,735,['n'],1,right,['2'],5,207,[-0.07739165],100,44,hard,plus,dotcolour,alfa,,,108,19,V,R,
606,102,18,14,4,36,44,583,['n'],1,right,['2'],5,241,[-0.13996341],100,44,hard,plus,dotcolour,alfa,,,108,19,V,R,
607,103,19,14,4,33,47,1650,['c'],0,right,['3'],4,454,[-0.006388],42,47,medium,plus,dotcolour,alfa,,,108,19,V,R,
608,104,20,14,4,44,36,583,['n'],0,left,['2'],5,238,[0.00146483],47,44,hard,plus,dotcolour,alfa,,,108,19,V,R,
609,105,21,14,4,53,27,717,['n'],0,left,['2'],5,225,[0.04647606],3,53,easy,plus,dotcolour,alfa,,,108,19,V,R,
610,106,22,14,4,47,33,717,['n'],0,left,['2'],5,213,[0.02864631],10,47,medium,plus,dotcolour,alfa,,,108,19,V,R,
611,107,23,14,4,47,33,667,['n'],0,left,['2'],5,402,[-0.02593705],81,47,medium,plus,dotcolour,alfa,,,108,19,V,R,
612,108,24,14,4,36,44,600,['n'],1,right,['2'],5,244,[-0.10192335],100,44,hard,plus,dotcolour,alfa,,,108,19,V,R,
613,109,25,14,4,36,44,567,['n'],1,right,['2'],5,116,[-0.1139223],100,44,hard,plus,dotcolour,alfa,,,108,19,V,R,
614,110,26,14,4,53,27,317,['n'],0,left,['2'],5,149,[-0.02169725],88,53,easy,plus,dotcolour,alfa,,,108,19,V,R,
615,111,27,14,4,33,47,532,['c'],0,right,['2'],5,274,[-0.01003791],33,47,medium,plus,dotcolour,alfa,,,108,19,V,R,
616,112,28,14,4,44,36,750,['c'],1,left,['2'],5,234,[0.04920317],97,44,hard,plus,dotcolour,alfa,,,108,19,V,R,
617,113,29,14,4,36,44,550,['n'],1,right,['2'],5,236,[-0.17202207],100,44,hard,plus,dotcolour,alfa,,,108,19,V,R,
618,114,30,14,4,33,47,617,['n'],1,right,['2'],5,188,[-0.09414683],100,47,medium,plus,dotcolour,alfa,,,108,19,V,R,
619,115,31,14,4,44,36,584,['c'],1,left,['2'],5,238,[0.09551915],100,44,hard,plus,dotcolour,alfa,,,108,19,V,R,
620,116,32,14,4,33,47,701,['n'],1,right,['1'],6,266,[-0.082969],100,47,medium,plus,dotcolour,alfa,,,108,19,V,R,
621,117,33,14,4,27,53,534,['n'],1,right,['1'],6,219,[-0.09996223],100,53,easy,plus,dotcolour,alfa,,,108,19,V,R,
622,118,34,14,4,44,36,533,['n'],0,left,['1'],6,230,[-0.12430789],100,44,hard,plus,dotcolour,alfa,,,108,19,V,R,
623,119,35,14,4,33,47,566,['n'],1,right,['1'],6,232,[-0.09981673],100,47,medium,plus,dotcolour,alfa,,,108,19,V,R,
624,120,36,14,4,44,36,517,['n'],0,left,['1'],6,163,[-0.04033723],97,44,hard,plus,dotcolour,alfa,,,108,19,V,R,
625,121,37,14,4,47,33,567,['n'],0,left,['1'],6,263,[-0.10962633],100,47,medium,plus,dotcolour,alfa,,,108,19,V,R,
626,122,38,14,4,27,53,566,['n'],1,right,['1'],6,215,[-0.07442186],100,53,easy,plus,dotcolour,alfa,,,108,19,V,R,
627,123,39,14,4,47,33,499,['n'],0,left,['1'],6,227,[-0.11460149],100,47,medium,plus,dotcolour,alfa,,,108,19,V,R,
628,124,40,14,4,27,53,533,['n'],1,right,['1'],6,366,[-0.15123797],100,53,easy,plus,dotcolour,alfa,,,108,19,V,R,
629,125,41,14,4,27,53,533,['n'],1,right,['1'],6,260,[-0.08010093],100,53,easy,plus,dotcolour,alfa,,,108,19,V,R,
630,0,0,15,5,53,27,917,['c'],1,left,['1'],6,244,[-0.01489058],43,53,easy,minus,dotcolour,alfa,,,108,19,V,R,
631,1,1,15,5,33,47,617,['n'],1,right,['2'],5,443,[-0.04250677],64,47,medium,minus,dotcolour,alfa,,,108,19,V,R,
632,2,2,15,5,27,53,600,['n'],1,right,['2'],5,202,[-0.01762785],59,53,easy,minus,dotcolour,alfa,,,108,19,V,R,
633,3,3,15,5,53,27,917,['c'],1,left,['1'],6,320,[0.08639946],80,53,easy,minus,dotcolour,alfa,,,108,19,V,R,
634,4,4,15,5,53,27,800,['c'],1,left,['1'],6,276,[0.14960041],93,53,easy,minus,dotcolour,alfa,,,108,19,V,R,
635,5,5,15,5,44,36,751,['n'],0,left,['2'],5,268,[-0.05268411],71,44,hard,minus,dotcolour,alfa,,,108,19,V,R,
636,6,6,15,5,53,27,850,['c'],1,left,['1'],6,321,[0.05242523],70,53,easy,minus,dotcolour,alfa,,,108,19,V,R,
637,7,7,15,5,44,36,618,['n'],0,left,['2'],5,284,[-0.13955872],91,44,hard,minus,dotcolour,alfa,,,108,19,V,R,
638,8,8,15,5,36,44,634,['n'],1,right,['2'],5,249,[-0.05880702],74,44,hard,minus,dotcolour,alfa,,,108,19,V,R,
639,9,9,15,5,47,33,160,['n'],0,left,['2'],5,473,[0.03727133],38,47,medium,minus,dotcolour,alfa,,,108,19,V,R,
640,10,10,15,5,33,47,600,['n'],1,right,['1'],6,207,[-0.03293903],66,47,medium,minus,dotcolour,alfa,,,108,19,V,R,
641,11,11,15,5,47,33,1033,['c'],1,left,['1'],6,246,[0.12274641],90,47,medium,minus,dotcolour,alfa,,,108,19,V,R,
642,12,12,15,5,36,44,517,['n'],1,right,['1'],6,257,[0.03517687],35,44,hard,minus,dotcolour,alfa,,,108,19,V,R,
643,13,13,15,5,47,33,633,['n'],0,left,['1'],6,262,[-0.01130192],55,47,medium,minus,dotcolour,alfa,,,108,19,V,R,
644,14,14,15,5,36,44,717,['n'],1,right,['1'],6,320,[-0.03540845],64,44,hard,minus,dotcolour,alfa,,,108,19,V,R,
645,15,15,15,5,53,27,884,['n'],0,left,['1'],6,529,[-0.12315462],82,53,easy,minus,dotcolour,alfa,,,108,19,V,R,
646,16,16,15,5,27,53,999,['n'],1,right,['1'],6,237,[-0.06019543],75,53,easy,minus,dotcolour,alfa,,,108,19,V,R,
647,17,17,15,5,36,44,733,['n'],1,right,['1'],6,416,[-0.18564222],93,44,hard,minus,dotcolour,alfa,,,108,19,V,R,
648,18,18,15,5,33,47,699,['n'],1,right,['1'],6,309,[-0.02287377],59,47,medium,minus,dotcolour,alfa,,,108,19,V,R,
649,19,19,15,5,27,53,785,['n'],1,right,['1'],6,274,[-0.02641759],61,53,easy,minus,dotcolour,alfa,,,108,19,V,R,
650,20,20,15,5,27,53,517,['n'],1,right,['1'],6,259,[-0.20324098],97,53,easy,minus,dotcolour,alfa,,,108,19,V,R,
651,21,21,15,5,36,44,1234,['c'],0,right,['3'],4,377,[0.10675469],83,44,hard,minus,dotcolour,alfa,,,108,19,V,R,
652,22,22,15,5,33,47,900,['n'],1,right,['2'],5,311,[-0.16018056],93,47,medium,minus,dotcolour,alfa,,,108,19,V,R,
653,23,23,15,5,36,44,1332,['c'],0,right,['1'],6,271,[0.09581791],84,44,hard,minus,dotcolour,alfa,,,108,19,V,R,
654,24,24,15,5,27,53,733,['n'],1,right,['1'],6,263,[-0.04329944],68,53,easy,minus,dotcolour,alfa,,,108,19,V,R,
655,25,25,15,5,47,33,1034,['n'],0,left,['2'],5,389,[0.04112683],36,47,medium,minus,dotcolour,alfa,,,108,19,V,R,
656,26,26,15,5,44,36,1033,['c'],1,left,['1'],6,357,[0.04547596],66,44,hard,minus,dotcolour,alfa,,,108,19,V,R,
657,27,27,15,5,44,36,1151,['c'],1,left,['1'],6,377,[0.10639194],83,44,hard,minus,dotcolour,alfa,,,108,19,V,R,
658,28,28,15,5,53,27,984,['c'],1,left,['1'],6,276,[0.09376902],83,53,easy,minus,dotcolour,alfa,,,108,19,V,R,
659,29,29,15,5,53,27,782,['c'],1,left,['1'],6,259,[0.20292056],97,53,easy,minus,dotcolour,alfa,,,108,19,V,R,
660,30,30,15,5,33,47,817,['n'],1,right,['2'],5,298,[-0.10081896],84,47,medium,minus,dotcolour,alfa,,,108,19,V,R,
661,31,31,15,5,44,36,766,['c'],1,left,['1'],6,248,[0.17788674],96,44,hard,minus,dotcolour,alfa,,,108,19,V,R,
662,32,32,15,5,27,53,600,['n'],1,right,['2'],5,255,[-0.10779648],87,53,easy,minus,dotcolour,alfa,,,108,19,V,R,
663,33,33,15,5,47,33,783,['c'],1,left,['2'],5,390,[0.07992709],76,47,medium,minus,dotcolour,alfa,,,108,19,V,R,
664,34,34,15,5,47,33,634,['n'],0,left,['2'],5,271,[-0.02086369],59,47,medium,minus,dotcolour,alfa,,,108,19,V,R,
665,35,35,15,5,44,36,30,['n'],0,left,['2'],5,222,[-0.02654158],62,44,hard,minus,dotcolour,alfa,,,108,19,V,R,
666,36,36,15,5,33,47,1516,['c'],0,right,['1'],6,290,[0.08750939],81,47,medium,minus,dotcolour,alfa,,,108,19,V,R,
667,37,37,15,5,33,47,766,['n'],1,right,['1'],6,632,[-0.19718419],90,47,medium,minus,dotcolour,alfa,,,108,19,V,R,
668,38,38,15,5,44,36,917,['n'],0,left,['2'],5,227,[0.01476781],43,44,hard,minus,dotcolour,alfa,,,108,19,V,R,
669,39,39,15,5,47,33,783,['n'],0,left,['0'],1,1292,[0.00820823],48,47,medium,minus,dotcolour,alfa,,,108,19,V,R,
670,40,40,15,5,36,44,1635,['n'],1,right,['3'],4,1488,[0.05593853],40,44,hard,minus,dotcolour,alfa,,,108,19,V,R,
671,41,41,15,5,27,53,950,['n'],1,right,['1'],6,327,[-0.04764367],68,53,easy,minus,dotcolour,alfa,,,108,19,V,R,
672,42,0,16,5,36,44,1501,['n'],1,right,['2'],5,323,[-0.11526522],86,44,hard,minus,dotcolour,alfa,,,108,19,V,R,
673,43,1,16,5,36,44,1234,['n'],1,right,['2'],5,142,[-0.13033034],96,44,hard,minus,dotcolour,alfa,,,108,19,V,R,
674,44,2,16,5,27,53,300,['n'],1,right,['2'],5,180,[-0.06983292],81,53,easy,minus,dotcolour,alfa,,,108,19,V,R,
675,45,3,16,5,53,27,700,['c'],1,left,['2'],5,171,[0.04676852],73,53,easy,minus,dotcolour,alfa,,,108,19,V,R,
676,46,4,16,5,53,27,967,['c'],1,left,['2'],5,455,[0.19168881],93,53,easy,minus,dotcolour,alfa,,,108,19,V,R,
677,47,5,16,5,53,27,617,['c'],1,left,['2'],5,245,[0.17067646],96,53,easy,minus,dotcolour,alfa,,,108,19,V,R,
678,48,6,16,5,33,47,767,['n'],1,right,['2'],5,213,[-0.10301617],88,47,medium,minus,dotcolour,alfa,,,108,19,V,R,
679,49,7,16,5,33,47,466,['n'],1,right,['2'],5,275,[-0.17423116],95,47,medium,minus,dotcolour,alfa,,,108,19,V,R,
680,50,8,16,5,27,53,766,['n'],1,right,['2'],5,227,[-0.13760759],93,53,easy,minus,dotcolour,alfa,,,108,19,V,R,
681,51,9,16,5,36,44,517,['n'],1,right,['2'],5,214,[-0.08015699],83,44,hard,minus,dotcolour,alfa,,,108,19,V,R,
682,52,10,16,5,44,36,601,['n'],0,left,['2'],5,151,[-0.10849828],93,44,hard,minus,dotcolour,alfa,,,108,19,V,R,
683,53,11,16,5,36,44,1184,['c'],0,right,['2'],5,347,[0.04604066],67,44,hard,minus,dotcolour,alfa,,,108,19,V,R,
684,54,12,16,5,27,53,600,['n'],1,right,['2'],5,206,[-0.13108132],93,53,easy,minus,dotcolour,alfa,,,108,19,V,R,
685,55,13,16,5,36,44,633,['n'],1,right,['2'],5,213,[-0.10282981],88,44,hard,minus,dotcolour,alfa,,,108,19,V,R,
686,56,14,16,5,44,36,1050,['c'],1,left,['2'],5,308,[0.15386724],92,44,hard,minus,dotcolour,alfa,,,108,19,V,R,
687,57,15,16,5,44,36,767,['n'],0,left,['2'],5,322,[-0.03167486],62,44,hard,minus,dotcolour,alfa,,,108,19,V,R,
688,58,16,16,5,47,33,849,['c'],1,left,['2'],5,388,[0.11705439],84,47,medium,minus,dotcolour,alfa,,,108,19,V,R,
689,59,17,16,5,47,33,1066,['n'],0,left,['2'],5,267,[-0.05855811],73,47,medium,minus,dotcolour,alfa,,,108,19,V,R,
690,60,18,16,5,47,33,383,['n'],0,left,['2'],5,306,[-0.01944212],58,47,medium,minus,dotcolour,alfa,,,108,19,V,R,
691,61,19,16,5,36,44,216,['n'],1,right,['2'],5,255,[-0.07973187],81,44,hard,minus,dotcolour,alfa,,,108,19,V,R,
692,62,20,16,5,33,47,103,['n'],1,right,['2'],5,246,[-0.0393575],67,47,medium,minus,dotcolour,alfa,,,108,19,V,R,
693,63,21,16,5,47,33,22,['n'],0,left,['2'],5,2350,[0.03842223],44,47,medium,minus,dotcolour,alfa,,,108,19,V,R,
694,64,22,16,5,27,53,616,['n'],1,right,['2'],5,199,[-0.06552615],79,53,easy,minus,dotcolour,alfa,,,108,19,V,R,
695,65,23,16,5,36,44,284,['n'],1,right,['2'],5,125,[-0.08003182],88,44,hard,minus,dotcolour,alfa,,,108,19,V,R,
696,66,24,16,5,27,53,300,['c'],0,right,['2'],5,269,[0.10545252],86,53,easy,minus,dotcolour,alfa,,,108,19,V,R,
697,67,25,16,5,53,27,434,['n'],0,left,['2'],5,322,[0.01651159],43,53,easy,minus,dotcolour,alfa,,,108,19,V,R,
698,68,26,16,5,33,47,733,['n'],1,right,['2'],5,153,[-0.12264525],94,47,medium,minus,dotcolour,alfa,,,108,19,V,R,
699,69,27,16,5,33,47,483,['n'],1,right,['2'],5,185,[-0.06199381],79,47,medium,minus,dotcolour,alfa,,,108,19,V,R,
700,70,28,16,5,47,33,851,['c'],1,left,['2'],5,313,[0.13865624],90,47,medium,minus,dotcolour,alfa,,,108,19,V,R,
701,71,29,16,5,53,27,533,['c'],1,left,['2'],5,296,[0.03633748],65,53,easy,minus,dotcolour,alfa,,,108,19,V,R,
702,72,30,16,5,33,47,550,['n'],1,right,['2'],5,175,[-0.09137701],88,47,medium,minus,dotcolour,alfa,,,108,19,V,R,
703,73,31,16,5,44,36,500,['n'],0,left,['2'],5,197,[-0.12044054],92,44,hard,minus,dotcolour,alfa,,,108,19,V,R,
704,74,32,16,5,44,36,400,['c'],1,left,['2'],5,239,[0.02704378],62,44,hard,minus,dotcolour,alfa,,,108,19,V,R,
705,75,33,16,5,53,27,600,['c'],1,left,['2'],5,310,[0.13115158],89,53,easy,minus,dotcolour,alfa,,,108,19,V,R,
706,76,34,16,5,27,53,550,['n'],1,right,['2'],5,221,[-0.09373685],86,53,easy,minus,dotcolour,alfa,,,108,19,V,R,
707,77,35,16,5,47,33,933,['c'],1,left,['2'],5,248,[0.10369072],87,47,medium,minus,dotcolour,alfa,,,108,19,V,R,
708,78,36,16,5,33,47,650,['n'],1,right,['2'],5,214,[-0.12358767],92,47,medium,minus,dotcolour,alfa,,,108,19,V,R,
709,79,37,16,5,44,36,417,['n'],0,left,['2'],5,222,[-0.01057883],55,44,hard,minus,dotcolour,alfa,,,108,19,V,R,
710,80,38,16,5,27,53,334,['n'],1,right,['2'],5,265,[-0.0507064],71,53,easy,minus,dotcolour,alfa,,,108,19,V,R,
711,81,39,16,5,53,27,617,['c'],1,left,['2'],5,327,[0.10420446],84,53,easy,minus,dotcolour,alfa,,,108,19,V,R,
712,82,40,16,5,44,36,566,['n'],0,left,['2'],5,284,[-0.03917998],66,44,hard,minus,dotcolour,alfa,,,108,19,V,R,
713,83,41,16,5,47,33,767,['n'],0,left,['2'],5,252,[-0.04401342],69,47,medium,minus,dotcolour,alfa,,,108,19,V,R,
714,84,0,17,5,27,53,1084,['n'],1,right,['2'],5,278,[-0.18338886],96,53,easy,minus,dotcolour,alfa,,,108,19,V,R,
715,85,1,17,5,27,53,1132,['n'],1,right,['2'],5,239,[-0.17523383],96,53,easy,minus,dotcolour,alfa,,,108,19,V,R,
716,86,2,17,5,36,44,583,['n'],1,right,['2'],5,294,[-0.0672538],75,44,hard,minus,dotcolour,alfa,,,108,19,V,R,
717,87,3,17,5,47,33,850,['n'],0,left,['2'],5,234,[0.02023108],41,47,medium,minus,dotcolour,alfa,,,108,19,V,R,
718,88,4,17,5,36,44,566,['n'],1,right,['2'],5,260,[-0.06289301],75,44,hard,minus,dotcolour,alfa,,,108,19,V,R,
719,89,5,17,5,53,27,122,['n'],0,left,['2'],5,211,[-0.01150684],56,53,easy,minus,dotcolour,alfa,,,108,19,V,R,
720,90,6,17,5,44,36,499,['c'],1,left,['2'],5,303,[0.05964273],73,44,hard,minus,dotcolour,alfa,,,108,19,V,R,
721,91,7,17,5,53,27,483,['c'],1,left,['2'],5,296,[0.11755314],87,53,easy,minus,dotcolour,alfa,,,108,19,V,R,
722,92,8,17,5,47,33,267,['c'],1,left,['2'],5,467,[0.17667431],91,47,medium,minus,dotcolour,alfa,,,108,19,V,R,
723,93,9,17,5,47,33,566,['c'],1,left,['2'],5,243,[0.05958852],75,47,medium,minus,dotcolour,alfa,,,108,19,V,R,
724,94,10,17,5,33,47,116,['c'],0,right,['2'],5,227,[0.14864279],94,47,medium,minus,dotcolour,alfa,,,108,19,V,R,
725,95,11,17,5,47,33,317,['c'],1,left,['2'],5,286,[0.06774275],76,47,medium,minus,dotcolour,alfa,,,108,19,V,R,
726,96,12,17,5,44,36,3516,['n'],0,left,['2'],5,319,[-0.09022706],81,44,hard,minus,dotcolour,alfa,,,108,19,V,R,
727,97,13,17,5,27,53,301,['n'],1,right,['2'],5,208,[-0.14633488],95,53,easy,minus,dotcolour,alfa,,,108,19,V,R,
728,98,14,17,5,33,47,501,['n'],1,right,['2'],5,157,[-0.10472963],92,47,medium,minus,dotcolour,alfa,,,108,19,V,R,
729,99,15,17,5,36,44,334,['n'],1,right,['2'],5,170,[-0.05175031],76,44,hard,minus,dotcolour,alfa,,,108,19,V,R,
730,100,16,17,5,44,36,300,['n'],0,left,['2'],5,225,[-0.09600508],86,44,hard,minus,dotcolour,alfa,,,108,19,V,R,
731,101,17,17,5,44,36,1117,['n'],0,left,['2'],5,188,[-0.08098505],84,44,hard,minus,dotcolour,alfa,,,108,19,V,R,
732,102,18,17,5,53,27,917,['c'],1,left,['2'],5,330,[0.09890406],82,53,easy,minus,dotcolour,alfa,,,108,19,V,R,
733,103,19,17,5,33,47,567,['c'],0,right,['2'],5,342,[0.11231341],85,47,medium,minus,dotcolour,alfa,,,108,19,V,R,
734,104,20,17,5,36,44,1200,['n'],1,right,['2'],5,378,[0.03417514],38,44,hard,minus,dotcolour,alfa,,,108,19,V,R,
735,105,21,17,5,36,44,684,['n'],1,right,['2'],5,329,[-0.04280695],66,44,hard,minus,dotcolour,alfa,,,108,19,V,R,
736,106,22,17,5,27,53,433,['n'],1,right,['2'],5,299,[-0.15978016],93,53,easy,minus,dotcolour,alfa,,,108,19,V,R,
737,107,23,17,5,44,36,499,['n'],0,left,['2'],5,245,[-0.04393492],69,44,hard,minus,dotcolour,alfa,,,108,19,V,R,
738,108,24,17,5,33,47,399,['n'],1,right,['2'],5,236,[-0.07812077],81,47,medium,minus,dotcolour,alfa,,,108,19,V,R,
739,109,25,17,5,53,27,982,['c'],1,left,['2'],5,253,[0.20835956],98,53,easy,minus,dotcolour,alfa,,,108,19,V,R,
740,110,26,17,5,47,33,899,['n'],0,left,['2'],5,272,[0.0495743],30,47,medium,minus,dotcolour,alfa,,,108,19,V,R,
741,111,27,17,5,33,47,683,['n'],1,right,['2'],5,195,[-0.06103722],78,47,medium,minus,dotcolour,alfa,,,108,19,V,R,
742,112,28,17,5,44,36,551,['n'],0,left,['2'],5,310,[-0.02587211],60,44,hard,minus,dotcolour,alfa,,,108,19,V,R,
743,113,29,17,5,27,53,550,['n'],1,right,['2'],5,261,[-0.07492662],79,53,easy,minus,dotcolour,alfa,,,108,19,V,R,
744,114,30,17,5,33,47,650,['n'],1,right,['2'],5,217,[-0.07229173],80,47,medium,minus,dotcolour,alfa,,,108,19,V,R,
745,115,31,17,5,53,27,701,['c'],1,left,['2'],5,254,[0.01679289],57,53,easy,minus,dotcolour,alfa,,,108,19,V,R,
746,116,32,17,5,47,33,566,['n'],0,left,['2'],5,207,[-0.02297541],61,47,medium,minus,dotcolour,alfa,,,108,19,V,R,
747,117,33,17,5,27,53,418,['n'],1,right,['2'],5,254,[-0.05803016],74,53,easy,minus,dotcolour,alfa,,,108,19,V,R,
748,118,34,17,5,33,47,550,['n'],1,right,['2'],5,464,[-0.12485954],84,47,medium,minus,dotcolour,alfa,,,108,19,V,R,
749,119,35,17,5,36,44,517,['n'],1,right,['2'],5,338,[-0.08666306],79,44,hard,minus,dotcolour,alfa,,,108,19,V,R,
750,120,36,17,5,27,53,450,['n'],1,right,['2'],5,403,[-0.19930455],94,53,easy,minus,dotcolour,alfa,,,108,19,V,R,
751,121,37,17,5,53,27,684,['c'],1,left,['2'],5,289,[0.16352066],94,53,easy,minus,dotcolour,alfa,,,108,19,V,R,
752,122,38,17,5,36,44,651,['n'],1,right,['2'],5,205,[-0.12290091],92,44,hard,minus,dotcolour,alfa,,,108,19,V,R,
753,123,39,17,5,47,33,699,['n'],0,left,['2'],5,154,[-0.01186284],57,47,medium,minus,dotcolour,alfa,,,108,19,V,R,
754,124,40,17,5,53,27,750,['c'],1,left,['2'],5,256,[0.01334308],56,53,easy,minus,dotcolour,alfa,,,108,19,V,R,
755,125,41,17,5,44,36,516,['n'],0,left,['2'],5,250,[-0.08905645],83,44,hard,minus,dotcolour,alfa,,,108,19,V,R,
,,,,,,,,,,,,,,,,,,,,,1,misleiden ook al was het juist lieten ze jou denken dat het fout was,108,19,V,R,
,,,,,,,,,,,,,,,,,,,,,2,['g'],108,19,V,R,
,,,,,,,,,,,,,,,,,,,,,3,['g'],108,19,V,R,
,,,,,,,,,,,,,,,,,,,,,5,['5'],108,19,V,R,
