trial,withinphasetrial,withinblocktrial,block,phase,dotsLeft,dotsRight,rt,resp,cor,cresp,conf_press,cj,RTconf,ev,fb,diff,difflevel,condition,task,manip,questionID,questionResp,sub,age,gender,handedness,
0,0,0,0,0,44,36,2383,['n'],0,left,['2'],5,3116,[0.28563903],19,44,hard,minus,dotcolour,alfa,,,109,19,V,L,
1,1,1,0,0,36,44,1900,['n'],1,right,['3'],4,2243,[-0.03389491],55,44,hard,minus,dotcolour,alfa,,,109,19,V,L,
2,2,2,0,0,44,36,1785,['c'],1,left,['2'],5,3987,[0.45113847],88,44,hard,minus,dotcolour,alfa,,,109,19,V,L,
3,3,3,0,0,36,44,1234,['n'],1,right,['2'],5,771,[-0.21290061],90,44,hard,minus,dotcolour,alfa,,,109,19,V,L,
4,4,4,0,0,36,44,1317,['n'],1,right,['8'],3,1584,[-0.36899857],93,44,hard,minus,dotcolour,alfa,,,109,19,V,L,
5,5,5,0,0,53,27,1168,['c'],1,left,['2'],5,1003,[0.12240839],75,53,easy,minus,dotcolour,alfa,,,109,19,V,L,
6,6,6,0,0,47,33,1017,['n'],0,left,['3'],4,786,[0.04692311],38,47,medium,minus,dotcolour,alfa,,,109,19,V,L,
7,7,7,0,0,33,47,1267,['n'],1,right,['2'],5,850,[-0.25332544],92,47,medium,minus,dotcolour,alfa,,,109,19,V,L,
8,8,8,0,0,36,44,1949,['c'],0,right,['1'],6,706,[-0.05201687],36,44,hard,minus,dotcolour,alfa,,,109,19,V,L,
9,9,9,0,0,47,33,1701,['n'],0,left,['2'],5,634,[0.03130151],41,47,medium,minus,dotcolour,alfa,,,109,19,V,L,
10,10,10,0,0,36,44,1584,['n'],1,right,['2'],5,1154,[-0.28741285],92,44,hard,minus,dotcolour,alfa,,,109,19,V,L,
11,11,11,0,0,47,33,1584,['n'],0,left,['8'],3,1085,[0.12038653],26,47,medium,minus,dotcolour,alfa,,,109,19,V,L,
12,12,12,0,0,44,36,1767,['n'],0,left,['2'],5,901,[-0.18762595],86,44,hard,minus,dotcolour,alfa,,,109,19,V,L,
13,13,13,0,0,33,47,1183,['n'],1,right,['8'],3,1674,[-0.17615204],77,47,medium,minus,dotcolour,alfa,,,109,19,V,L,
14,14,14,0,0,53,27,934,['c'],1,left,['1'],6,755,[0.02308679],56,53,easy,minus,dotcolour,alfa,,,109,19,V,L,
15,15,15,0,0,36,44,1616,['n'],1,right,['2'],5,852,[-0.12785965],78,44,hard,minus,dotcolour,alfa,,,109,19,V,L,
16,16,16,0,0,27,53,750,['n'],1,right,['2'],5,541,[-0.22065274],94,53,easy,minus,dotcolour,alfa,,,109,19,V,L,
17,17,17,0,0,44,36,1100,['c'],1,left,['8'],3,1188,[0.36346281],95,44,hard,minus,dotcolour,alfa,,,109,19,V,L,
18,18,18,0,0,33,47,1034,['n'],1,right,['2'],5,605,[-0.12687678],81,47,medium,minus,dotcolour,alfa,,,109,19,V,L,
19,19,19,0,0,36,44,767,['n'],1,right,['2'],5,439,[-0.05663086],68,44,hard,minus,dotcolour,alfa,,,109,19,V,L,
20,20,20,0,0,53,27,700,['n'],0,left,['8'],3,1018,[0.06561076],36,53,easy,minus,dotcolour,alfa,,,109,19,V,L,
21,21,21,0,0,33,47,717,['c'],0,right,['2'],5,534,[-0.04744511],36,47,medium,minus,dotcolour,alfa,,,109,19,V,L,
22,22,22,0,0,47,33,1182,['c'],1,left,['3'],4,730,[0.30563168],96,47,medium,minus,dotcolour,alfa,,,109,19,V,L,
23,23,23,0,0,47,33,900,['c'],1,left,['2'],5,410,[0.17518968],92,47,medium,minus,dotcolour,alfa,,,109,19,V,L,
24,24,24,0,0,33,47,666,['n'],1,right,['2'],5,320,[-0.19546765],96,47,medium,minus,dotcolour,alfa,,,109,19,V,L,
25,25,25,0,0,27,53,850,['n'],1,right,['2'],5,555,[-0.11159832],79,53,easy,minus,dotcolour,alfa,,,109,19,V,L,
26,26,26,0,0,44,36,1516,['c'],1,left,['3'],4,969,[0.01434339],53,44,hard,minus,dotcolour,alfa,,,109,19,V,L,
27,27,27,0,0,53,27,1268,['c'],1,left,['2'],5,312,[0.08036036],78,53,easy,minus,dotcolour,alfa,,,109,19,V,L,
28,28,28,0,0,44,36,768,['n'],0,left,['2'],5,278,[-0.06556961],75,44,hard,minus,dotcolour,alfa,,,109,19,V,L,
29,29,29,0,0,47,33,967,['c'],1,left,['3'],4,1069,[0.22460022],88,47,medium,minus,dotcolour,alfa,,,109,19,V,L,
30,30,30,0,0,27,53,667,['n'],1,right,['1'],6,697,[-0.08372362],71,53,easy,minus,dotcolour,alfa,,,109,19,V,L,
31,31,31,0,0,27,53,1101,['n'],1,right,['2'],5,498,[-0.03203609],60,53,easy,minus,dotcolour,alfa,,,109,19,V,L,
32,32,32,0,0,27,53,650,['c'],0,right,['8'],3,2005,[-0.00563441],49,53,easy,minus,dotcolour,alfa,,,109,19,V,L,
33,33,33,0,0,47,33,1267,['n'],0,left,['2'],5,579,[-0.08142323],72,47,medium,minus,dotcolour,alfa,,,109,19,V,L,
34,34,34,0,0,27,53,633,['n'],1,right,['2'],5,387,[-0.12457267],86,53,easy,minus,dotcolour,alfa,,,109,19,V,L,
35,35,35,0,0,44,36,667,['c'],1,left,['2'],5,515,[0.04645527],64,44,hard,minus,dotcolour,alfa,,,109,19,V,L,
36,36,36,0,0,53,27,601,['c'],1,left,['2'],5,440,[0.23575157],96,53,easy,minus,dotcolour,alfa,,,109,19,V,L,
37,37,37,0,0,53,27,1167,['c'],1,left,['1'],6,392,[0.21691393],96,53,easy,minus,dotcolour,alfa,,,109,19,V,L,
38,38,38,0,0,27,53,716,['n'],1,right,['1'],6,349,[-0.19015283],95,53,easy,minus,dotcolour,alfa,,,109,19,V,L,
39,39,39,0,0,33,47,1066,['n'],1,right,['2'],5,1062,[-0.04776885],60,47,medium,minus,dotcolour,alfa,,,109,19,V,L,
40,40,40,0,0,53,27,1034,['c'],1,left,['1'],6,651,[0.23428914],93,53,easy,minus,dotcolour,alfa,,,109,19,V,L,
41,41,41,0,0,33,47,700,['n'],1,right,['2'],5,1598,[-0.04287339],58,47,medium,minus,dotcolour,alfa,,,109,19,V,L,
42,42,0,1,0,33,47,884,['n'],1,right,['2'],5,274,[-0.11001701],87,47,medium,minus,dotcolour,alfa,,,109,19,V,L,
43,43,1,1,0,47,33,1850,['c'],1,left,['3'],4,246,[0.04179857],68,47,medium,minus,dotcolour,alfa,,,109,19,V,L,
44,44,2,1,0,53,27,1067,['c'],1,left,['3'],4,243,[0.13424327],92,53,easy,minus,dotcolour,alfa,,,109,19,V,L,
45,45,3,1,0,44,36,1083,['c'],1,left,['1'],6,335,[0.07995542],78,44,hard,minus,dotcolour,alfa,,,109,19,V,L,
46,46,4,1,0,33,47,950,['n'],1,right,['2'],5,365,[-0.13344738],88,47,medium,minus,dotcolour,alfa,,,109,19,V,L,
47,47,5,1,0,33,47,784,['n'],1,right,['2'],5,216,[-0.05940011],76,47,medium,minus,dotcolour,alfa,,,109,19,V,L,
48,48,6,1,0,53,27,1134,['c'],1,left,['1'],6,452,[0.02865241],59,53,easy,minus,dotcolour,alfa,,,109,19,V,L,
49,49,7,1,0,53,27,900,['c'],1,left,['1'],6,399,[0.18058139],93,53,easy,minus,dotcolour,alfa,,,109,19,V,L,
50,50,8,1,0,27,53,667,['n'],1,right,['1'],6,333,[-0.15560666],92,53,easy,minus,dotcolour,alfa,,,109,19,V,L,
51,51,9,1,0,36,44,1384,['c'],0,right,['3'],4,634,[0.1519208],85,44,hard,minus,dotcolour,alfa,,,109,19,V,L,
52,52,10,1,0,36,44,966,['c'],0,right,['1'],6,220,[0.1127074],90,44,hard,minus,dotcolour,alfa,,,109,19,V,L,
53,53,11,1,0,53,27,567,['c'],1,left,['1'],6,230,[0.09847317],86,53,easy,minus,dotcolour,alfa,,,109,19,V,L,
54,54,12,1,0,36,44,1033,['n'],1,right,['2'],5,308,[-0.10842919],85,44,hard,minus,dotcolour,alfa,,,109,19,V,L,
55,55,13,1,0,47,33,599,['c'],1,left,['1'],6,201,[0.11181438],90,47,medium,minus,dotcolour,alfa,,,109,19,V,L,
56,56,14,1,0,44,36,667,['c'],1,left,['1'],6,175,[0.09636074],89,44,hard,minus,dotcolour,alfa,,,109,19,V,L,
57,57,15,1,0,47,33,1315,['c'],1,left,['1'],6,158,[0.03022302],66,47,medium,minus,dotcolour,alfa,,,109,19,V,L,
58,58,16,1,0,36,44,800,['n'],1,right,['1'],6,168,[-0.09144111],88,44,hard,minus,dotcolour,alfa,,,109,19,V,L,
59,59,17,1,0,44,36,1800,['n'],0,left,['2'],5,498,[0.03303828],40,44,hard,minus,dotcolour,alfa,,,109,19,V,L,
60,60,18,1,0,27,53,1200,['n'],1,right,['1'],6,295,[-0.146411],92,53,easy,minus,dotcolour,alfa,,,109,19,V,L,
61,61,19,1,0,36,44,4083,['c'],0,right,['3'],4,410,[0.06907517],73,44,hard,minus,dotcolour,alfa,,,109,19,V,L,
62,62,20,1,0,27,53,666,['n'],1,right,['3'],4,575,[-0.1132337],79,53,easy,minus,dotcolour,alfa,,,109,19,V,L,
63,63,21,1,0,53,27,1050,['c'],1,left,['1'],6,231,[0.08155989],82,53,easy,minus,dotcolour,alfa,,,109,19,V,L,
64,64,22,1,0,44,36,1200,['n'],0,left,['1'],6,167,[-0.10000195],90,44,hard,minus,dotcolour,alfa,,,109,19,V,L,
65,65,23,1,0,47,33,999,['n'],0,left,['1'],6,218,[-0.04362203],70,47,medium,minus,dotcolour,alfa,,,109,19,V,L,
66,66,24,1,0,27,53,667,['n'],1,right,['1'],6,264,[-0.02039742],59,53,easy,minus,dotcolour,alfa,,,109,19,V,L,
67,67,25,1,0,33,47,884,['n'],1,right,['2'],5,356,[-0.08918886],79,47,medium,minus,dotcolour,alfa,,,109,19,V,L,
68,68,26,1,0,33,47,1001,['n'],1,right,['3'],4,470,[-0.1676531],90,47,medium,minus,dotcolour,alfa,,,109,19,V,L,
69,69,27,1,0,53,27,816,['c'],1,left,['2'],5,453,[0.26057921],97,53,easy,minus,dotcolour,alfa,,,109,19,V,L,
70,70,28,1,0,47,33,1001,['c'],1,left,['2'],5,339,[0.153738],92,47,medium,minus,dotcolour,alfa,,,109,19,V,L,
71,71,29,1,0,27,53,817,['n'],1,right,['2'],5,438,[-0.1125798],82,53,easy,minus,dotcolour,alfa,,,109,19,V,L,
72,72,30,1,0,44,36,817,['n'],0,left,['3'],4,732,[-0.0335907],59,44,hard,minus,dotcolour,alfa,,,109,19,V,L,
73,73,31,1,0,47,33,1016,['c'],1,left,['3'],4,360,[0.0445775],66,47,medium,minus,dotcolour,alfa,,,109,19,V,L,
74,74,32,1,0,36,44,967,['n'],1,right,['3'],4,181,[-0.06948181],81,44,hard,minus,dotcolour,alfa,,,109,19,V,L,
75,75,33,1,0,33,47,1100,['c'],0,right,['3'],4,218,[0.07719945],82,47,medium,minus,dotcolour,alfa,,,109,19,V,L,
76,76,34,1,0,27,53,900,['n'],1,right,['1'],6,495,[-0.08098474],74,53,easy,minus,dotcolour,alfa,,,109,19,V,L,
77,77,35,1,0,53,27,817,['c'],1,left,['1'],6,676,[0.27788641],95,53,easy,minus,dotcolour,alfa,,,109,19,V,L,
78,78,36,1,0,44,36,716,['n'],0,left,['1'],6,254,[-0.01306735],56,44,hard,minus,dotcolour,alfa,,,109,19,V,L,
79,79,37,1,0,47,33,867,['c'],1,left,['2'],5,498,[0.07230676],72,47,medium,minus,dotcolour,alfa,,,109,19,V,L,
80,80,38,1,0,44,36,983,['c'],1,left,['2'],5,359,[0.18622141],94,44,hard,minus,dotcolour,alfa,,,109,19,V,L,
81,81,39,1,0,27,53,684,['n'],1,right,['2'],5,359,[-0.0982841],81,53,easy,minus,dotcolour,alfa,,,109,19,V,L,
82,82,40,1,0,36,44,983,['n'],1,right,['2'],5,1162,[-0.06874593],64,44,hard,minus,dotcolour,alfa,,,109,19,V,L,
83,83,41,1,0,33,47,768,['n'],1,right,['2'],5,254,[-0.09248964],84,47,medium,minus,dotcolour,alfa,,,109,19,V,L,
84,84,0,2,0,33,47,668,['n'],1,right,['2'],5,317,[-0.00995939],54,47,medium,minus,dotcolour,alfa,,,109,19,V,L,
85,85,1,2,0,36,44,700,['c'],0,right,['3'],4,998,[-0.21466576],13,44,hard,minus,dotcolour,alfa,,,109,19,V,L,
86,86,2,2,0,44,36,1300,['c'],1,left,['3'],4,227,[0.08094667],82,44,hard,minus,dotcolour,alfa,,,109,19,V,L,
87,87,3,2,0,36,44,1317,['n'],1,right,['3'],4,294,[0.00382515],48,44,hard,minus,dotcolour,alfa,,,109,19,V,L,
88,88,4,2,0,53,27,800,['c'],1,left,['2'],5,315,[0.0262778],60,53,easy,minus,dotcolour,alfa,,,109,19,V,L,
89,89,5,2,0,33,47,683,['n'],1,right,['2'],5,229,[-0.11643769],90,47,medium,minus,dotcolour,alfa,,,109,19,V,L,
90,90,6,2,0,53,27,767,['c'],1,left,['1'],6,302,[-0.00875866],46,53,easy,minus,dotcolour,alfa,,,109,19,V,L,
91,91,7,2,0,33,47,767,['n'],1,right,['1'],6,253,[-0.06558635],76,47,medium,minus,dotcolour,alfa,,,109,19,V,L,
92,92,8,2,0,27,53,1150,['n'],1,right,['2'],5,422,[-0.13622984],87,53,easy,minus,dotcolour,alfa,,,109,19,V,L,
93,93,9,2,0,47,33,750,['c'],1,left,['2'],5,200,[0.14550081],95,47,medium,minus,dotcolour,alfa,,,109,19,V,L,
94,94,10,2,0,53,27,800,['c'],1,left,['2'],5,241,[0.12183145],90,53,easy,minus,dotcolour,alfa,,,109,19,V,L,
95,95,11,2,0,36,44,2000,['n'],1,right,['2'],5,673,[-0.0913846],73,44,hard,minus,dotcolour,alfa,,,109,19,V,L,
96,96,12,2,0,36,44,834,['n'],1,right,['2'],5,285,[-0.03744967],65,44,hard,minus,dotcolour,alfa,,,109,19,V,L,
97,97,13,2,0,47,33,900,['c'],1,left,['1'],6,463,[0.02648305],59,47,medium,minus,dotcolour,alfa,,,109,19,V,L,
98,98,14,2,0,44,36,1151,['c'],1,left,['1'],6,264,[0.05553399],73,44,hard,minus,dotcolour,alfa,,,109,19,V,L,
99,99,15,2,0,27,53,750,['n'],1,right,['1'],6,225,[-0.10973458],89,53,easy,minus,dotcolour,alfa,,,109,19,V,L,
100,100,16,2,0,44,36,1518,['n'],0,left,['1'],6,292,[-0.01858243],58,44,hard,minus,dotcolour,alfa,,,109,19,V,L,
101,101,17,2,0,27,53,850,['n'],1,right,['1'],6,287,[-0.08578547],81,53,easy,minus,dotcolour,alfa,,,109,19,V,L,
102,102,18,2,0,44,36,1000,['c'],1,left,['1'],6,174,[0.08093942],85,44,hard,minus,dotcolour,alfa,,,109,19,V,L,
103,103,19,2,0,36,44,750,['n'],1,right,['1'],6,178,[-0.0834667],86,44,hard,minus,dotcolour,alfa,,,109,19,V,L,
104,104,20,2,0,47,33,1017,['c'],1,left,['2'],5,475,[0.0945429],77,47,medium,minus,dotcolour,alfa,,,109,19,V,L,
105,105,21,2,0,47,33,1200,['c'],1,left,['2'],5,185,[0.03844511],69,47,medium,minus,dotcolour,alfa,,,109,19,V,L,
106,106,22,2,0,44,36,550,['c'],1,left,['2'],5,237,[0.139139],93,44,hard,minus,dotcolour,alfa,,,109,19,V,L,
107,107,23,2,0,33,47,749,['n'],1,right,['2'],5,167,[-0.14745647],96,47,medium,minus,dotcolour,alfa,,,109,19,V,L,
108,108,24,2,0,27,53,667,['n'],1,right,['2'],5,175,[-0.08141276],85,53,easy,minus,dotcolour,alfa,,,109,19,V,L,
109,109,25,2,0,44,36,1317,['c'],1,left,['2'],5,364,[0.10142088],82,44,hard,minus,dotcolour,alfa,,,109,19,V,L,
110,110,26,2,0,27,53,683,['n'],1,right,['2'],5,243,[-0.13950796],93,53,easy,minus,dotcolour,alfa,,,109,19,V,L,
111,111,27,2,0,27,53,750,['n'],1,right,['2'],5,148,[-0.13826207],96,53,easy,minus,dotcolour,alfa,,,109,19,V,L,
112,112,28,2,0,27,53,734,['n'],1,right,['2'],5,219,[-0.1023837],88,53,easy,minus,dotcolour,alfa,,,109,19,V,L,
113,113,29,2,0,33,47,567,['n'],1,right,['2'],5,197,[-0.02992891],65,47,medium,minus,dotcolour,alfa,,,109,19,V,L,
114,114,30,2,0,47,33,750,['c'],1,left,['2'],5,200,[0.1384899],94,47,medium,minus,dotcolour,alfa,,,109,19,V,L,
115,115,31,2,0,53,27,734,['c'],1,left,['2'],5,172,[0.14908296],96,53,easy,minus,dotcolour,alfa,,,109,19,V,L,
116,116,32,2,0,44,36,1017,['c'],1,left,['2'],5,198,[0.09142225],86,44,hard,minus,dotcolour,alfa,,,109,19,V,L,
117,117,33,2,0,47,33,633,['n'],0,left,['9'],2,1486,[-0.01168131],52,47,medium,minus,dotcolour,alfa,,,109,19,V,L,
118,118,34,2,0,36,44,784,['n'],1,right,['2'],5,164,[-0.11828984],93,44,hard,minus,dotcolour,alfa,,,109,19,V,L,
119,119,35,2,0,47,33,483,['c'],1,left,['2'],5,195,[0.09504197],87,47,medium,minus,dotcolour,alfa,,,109,19,V,L,
120,120,36,2,0,53,27,950,['c'],1,left,['2'],5,191,[0.11009185],91,53,easy,minus,dotcolour,alfa,,,109,19,V,L,
121,121,37,2,0,53,27,833,['c'],1,left,['2'],5,215,[0.11824564],91,53,easy,minus,dotcolour,alfa,,,109,19,V,L,
122,122,38,2,0,53,27,549,['c'],1,left,['1'],6,162,[0.07022275],83,53,easy,minus,dotcolour,alfa,,,109,19,V,L,
123,123,39,2,0,33,47,750,['n'],1,right,['2'],5,190,[-0.08141598],84,47,medium,minus,dotcolour,alfa,,,109,19,V,L,
124,124,40,2,0,36,44,2100,['c'],0,right,['3'],4,356,[0.03984925],65,44,hard,minus,dotcolour,alfa,,,109,19,V,L,
125,125,41,2,0,33,47,1149,['c'],0,right,['3'],4,192,[0.07221644],82,47,medium,minus,dotcolour,alfa,,,109,19,V,L,
126,0,0,3,1,47,33,935,['n'],0,left,['3'],4,221,[0.00698511],37,47,medium,plus,dotcolour,alfa,,,109,19,V,L,
127,1,1,3,1,33,47,567,['c'],0,right,['0'],1,1311,[-0.02683097],30,47,medium,plus,dotcolour,alfa,,,109,19,V,L,
128,2,2,3,1,53,27,1200,['c'],1,left,['3'],4,196,[0.10224197],100,53,easy,plus,dotcolour,alfa,,,109,19,V,L,
129,3,3,3,1,53,27,2767,['c'],1,left,['1'],6,278,[0.16783306],100,53,easy,plus,dotcolour,alfa,,,109,19,V,L,
130,4,4,3,1,53,27,684,['c'],1,left,['1'],6,160,[0.18099533],100,53,easy,plus,dotcolour,alfa,,,109,19,V,L,
131,5,5,3,1,44,36,1167,['c'],1,left,['1'],6,165,[0.13083662],100,44,hard,plus,dotcolour,alfa,,,109,19,V,L,
132,6,6,3,1,27,53,1849,['n'],1,right,['1'],6,2269,[-0.60239671],100,53,easy,plus,dotcolour,alfa,,,109,19,V,L,
133,7,7,3,1,47,33,1200,['c'],1,left,['1'],6,187,[0.04014096],97,47,medium,plus,dotcolour,alfa,,,109,19,V,L,
134,8,8,3,1,27,53,1017,['n'],1,right,['1'],6,212,[-0.13589438],100,53,easy,plus,dotcolour,alfa,,,109,19,V,L,
135,9,9,3,1,44,36,1267,['c'],1,left,['2'],5,635,[-0.08366423],2,44,hard,plus,dotcolour,alfa,,,109,19,V,L,
136,10,10,3,1,44,36,1099,['c'],1,left,['1'],6,199,[0.06882723],100,44,hard,plus,dotcolour,alfa,,,109,19,V,L,
137,11,11,3,1,27,53,601,['n'],1,right,['1'],6,184,[-0.11978569],100,53,easy,plus,dotcolour,alfa,,,109,19,V,L,
138,12,12,3,1,33,47,1250,['n'],1,right,['2'],5,272,[-0.09796513],100,47,medium,plus,dotcolour,alfa,,,109,19,V,L,
139,13,13,3,1,33,47,717,['n'],1,right,['2'],5,225,[-0.09595558],100,47,medium,plus,dotcolour,alfa,,,109,19,V,L,
140,14,14,3,1,36,44,817,['n'],1,right,['2'],5,216,[-0.08601199],100,44,hard,plus,dotcolour,alfa,,,109,19,V,L,
141,15,15,3,1,36,44,834,['c'],0,right,['2'],5,216,[0.00581267],61,44,hard,plus,dotcolour,alfa,,,109,19,V,L,
142,16,16,3,1,27,53,616,['n'],1,right,['1'],6,432,[-0.06743421],98,53,easy,plus,dotcolour,alfa,,,109,19,V,L,
143,17,17,3,1,36,44,1067,['n'],1,right,['1'],6,181,[-0.05890578],99,44,hard,plus,dotcolour,alfa,,,109,19,V,L,
144,18,18,3,1,53,27,967,['c'],1,left,['1'],6,193,[0.12045655],100,53,easy,plus,dotcolour,alfa,,,109,19,V,L,
145,19,19,3,1,36,44,1717,['n'],1,right,['3'],4,1102,[-0.04012031],80,44,hard,plus,dotcolour,alfa,,,109,19,V,L,
146,20,20,3,1,44,36,883,['n'],0,left,['2'],5,383,[-0.03223593],87,44,hard,plus,dotcolour,alfa,,,109,19,V,L,
147,21,21,3,1,47,33,833,['c'],1,left,['1'],6,119,[0.0866782],100,47,medium,plus,dotcolour,alfa,,,109,19,V,L,
148,22,22,3,1,53,27,783,['n'],0,left,['1'],6,501,[-0.03414598],85,53,easy,plus,dotcolour,alfa,,,109,19,V,L,
149,23,23,3,1,36,44,768,['n'],1,right,['1'],6,163,[-0.09451856],100,44,hard,plus,dotcolour,alfa,,,109,19,V,L,
150,24,24,3,1,47,33,967,['c'],1,left,['2'],5,255,[0.14592498],100,47,medium,plus,dotcolour,alfa,,,109,19,V,L,
151,25,25,3,1,47,33,783,['c'],1,left,['1'],6,182,[0.06154756],99,47,medium,plus,dotcolour,alfa,,,109,19,V,L,
152,26,26,3,1,53,27,1033,['c'],1,left,['1'],6,240,[0.10488571],100,53,easy,plus,dotcolour,alfa,,,109,19,V,L,
153,27,27,3,1,44,36,800,['n'],0,left,['1'],6,190,[-0.0622227],99,44,hard,plus,dotcolour,alfa,,,109,19,V,L,
154,28,28,3,1,36,44,866,['c'],0,right,['2'],5,349,[0.13137143],100,44,hard,plus,dotcolour,alfa,,,109,19,V,L,
155,29,29,3,1,47,33,766,['c'],1,left,['1'],6,226,[0.0742827],100,47,medium,plus,dotcolour,alfa,,,109,19,V,L,
156,30,30,3,1,27,53,550,['n'],1,right,['1'],6,204,[-0.11422227],100,53,easy,plus,dotcolour,alfa,,,109,19,V,L,
157,31,31,3,1,36,44,1184,['n'],1,right,['1'],6,230,[-0.0868716],100,44,hard,plus,dotcolour,alfa,,,109,19,V,L,
158,32,32,3,1,44,36,750,['c'],1,left,['1'],6,128,[0.08248372],100,44,hard,plus,dotcolour,alfa,,,109,19,V,L,
159,33,33,3,1,33,47,634,['n'],1,right,['1'],6,187,[-0.16764274],100,47,medium,plus,dotcolour,alfa,,,109,19,V,L,
160,34,34,3,1,33,47,1068,['c'],0,right,['2'],5,282,[0.08980389],100,47,medium,plus,dotcolour,alfa,,,109,19,V,L,
161,35,35,3,1,33,47,650,['n'],1,right,['1'],6,174,[-0.06192738],100,47,medium,plus,dotcolour,alfa,,,109,19,V,L,
162,36,36,3,1,44,36,667,['c'],1,left,['2'],5,709,[0.07216719],96,44,hard,plus,dotcolour,alfa,,,109,19,V,L,
163,37,37,3,1,27,53,701,['n'],1,right,['1'],6,182,[-0.10873503],100,53,easy,plus,dotcolour,alfa,,,109,19,V,L,
164,38,38,3,1,27,53,684,['n'],1,right,['1'],6,292,[-0.24305027],100,53,easy,plus,dotcolour,alfa,,,109,19,V,L,
165,39,39,3,1,53,27,718,['c'],1,left,['1'],6,302,[0.06449757],99,53,easy,plus,dotcolour,alfa,,,109,19,V,L,
166,40,40,3,1,33,47,1066,['n'],1,right,['2'],5,192,[-0.19142152],100,47,medium,plus,dotcolour,alfa,,,109,19,V,L,
167,41,41,3,1,47,33,617,['c'],1,left,['1'],6,145,[0.02755671],93,47,medium,plus,dotcolour,alfa,,,109,19,V,L,
168,42,0,4,1,27,53,750,['n'],1,right,['1'],6,229,[-0.15549334],100,53,easy,plus,dotcolour,alfa,,,109,19,V,L,
169,43,1,4,1,36,44,551,['n'],1,right,['1'],6,134,[-0.10203842],100,44,hard,plus,dotcolour,alfa,,,109,19,V,L,
170,44,2,4,1,47,33,534,['c'],1,left,['1'],6,157,[0.14715595],100,47,medium,plus,dotcolour,alfa,,,109,19,V,L,
171,45,3,4,1,33,47,983,['n'],1,right,['1'],6,152,[-0.07752887],100,47,medium,plus,dotcolour,alfa,,,109,19,V,L,
172,46,4,4,1,53,27,1234,['c'],1,left,['1'],6,890,[0.30849131],100,53,easy,plus,dotcolour,alfa,,,109,19,V,L,
173,47,5,4,1,53,27,550,['c'],1,left,['1'],6,225,[0.00019525],50,53,easy,plus,dotcolour,alfa,,,109,19,V,L,
174,48,6,4,1,53,27,1000,['c'],1,left,['1'],6,137,[0.15202642],100,53,easy,plus,dotcolour,alfa,,,109,19,V,L,
175,49,7,4,1,36,44,1017,['n'],1,right,['1'],6,372,[-0.11747843],100,44,hard,plus,dotcolour,alfa,,,109,19,V,L,
176,50,8,4,1,33,47,967,['c'],0,right,['1'],6,128,[0.01076454],75,47,medium,plus,dotcolour,alfa,,,109,19,V,L,
177,51,9,4,1,27,53,817,['n'],1,right,['1'],6,219,[-0.23454096],100,53,easy,plus,dotcolour,alfa,,,109,19,V,L,
178,52,10,4,1,36,44,651,['n'],1,right,['1'],6,186,[-0.09611459],100,44,hard,plus,dotcolour,alfa,,,109,19,V,L,
179,53,11,4,1,44,36,750,['c'],1,left,['1'],6,550,[0.18477078],100,44,hard,plus,dotcolour,alfa,,,109,19,V,L,
180,54,12,4,1,53,27,932,['c'],1,left,['1'],6,180,[0.15356925],100,53,easy,plus,dotcolour,alfa,,,109,19,V,L,
181,55,13,4,1,27,53,567,['n'],1,right,['1'],6,175,[-0.14107218],100,53,easy,plus,dotcolour,alfa,,,109,19,V,L,
182,56,14,4,1,44,36,700,['c'],1,left,['1'],6,118,[0.1344482],100,44,hard,plus,dotcolour,alfa,,,109,19,V,L,
183,57,15,4,1,44,36,850,['n'],0,left,['1'],6,112,[-0.10290675],100,44,hard,plus,dotcolour,alfa,,,109,19,V,L,
184,58,16,4,1,47,33,600,['c'],1,left,['1'],6,84,[0.04742036],100,47,medium,plus,dotcolour,alfa,,,109,19,V,L,
185,59,17,4,1,44,36,750,['c'],1,left,['1'],6,36,[0.0627812],100,44,hard,plus,dotcolour,alfa,,,109,19,V,L,
186,60,18,4,1,44,36,2084,['c'],1,left,['2'],5,761,[0.11133935],99,44,hard,plus,dotcolour,alfa,,,109,19,V,L,
187,61,19,4,1,47,33,917,['c'],1,left,['1'],6,151,[0.07227438],100,47,medium,plus,dotcolour,alfa,,,109,19,V,L,
188,62,20,4,1,36,44,833,['n'],1,right,['1'],6,121,[-0.07555721],100,44,hard,plus,dotcolour,alfa,,,109,19,V,L,
189,63,21,4,1,44,36,800,['n'],0,left,['1'],6,350,[-0.0301119],86,44,hard,plus,dotcolour,alfa,,,109,19,V,L,
190,64,22,4,1,53,27,533,['c'],1,left,['1'],6,92,[0.04425165],99,53,easy,plus,dotcolour,alfa,,,109,19,V,L,
191,65,23,4,1,47,33,1133,['n'],0,left,['1'],6,68,[-0.06014526],100,47,medium,plus,dotcolour,alfa,,,109,19,V,L,
192,66,24,4,1,27,53,533,['c'],0,right,['1'],6,93,[0.0858248],100,53,easy,plus,dotcolour,alfa,,,109,19,V,L,
193,67,25,4,1,47,33,833,['c'],1,left,['1'],6,129,[0.0233103],91,47,medium,plus,dotcolour,alfa,,,109,19,V,L,
194,68,26,4,1,47,33,1017,['c'],1,left,['1'],6,69,[0.09121491],100,47,medium,plus,dotcolour,alfa,,,109,19,V,L,
195,69,27,4,1,33,47,550,['n'],1,right,['1'],6,117,[-0.09544631],100,47,medium,plus,dotcolour,alfa,,,109,19,V,L,
196,70,28,4,1,53,27,600,['c'],1,left,['1'],6,114,[0.10115521],100,53,easy,plus,dotcolour,alfa,,,109,19,V,L,
197,71,29,4,1,53,27,683,['c'],1,left,['1'],6,99,[0.09072326],100,53,easy,plus,dotcolour,alfa,,,109,19,V,L,
198,72,30,4,1,27,53,617,['n'],1,right,['1'],6,80,[-0.07767891],100,53,easy,plus,dotcolour,alfa,,,109,19,V,L,
199,73,31,4,1,33,47,567,['n'],1,right,['1'],6,167,[-0.09936231],100,47,medium,plus,dotcolour,alfa,,,109,19,V,L,
200,74,32,4,1,47,33,917,['c'],1,left,['1'],6,117,[0.05953602],100,47,medium,plus,dotcolour,alfa,,,109,19,V,L,
201,75,33,4,1,36,44,733,['n'],1,right,['1'],6,108,[-0.1014476],100,44,hard,plus,dotcolour,alfa,,,109,19,V,L,
202,76,34,4,1,33,47,1766,['n'],1,right,['2'],5,594,[-0.20448819],100,47,medium,plus,dotcolour,alfa,,,109,19,V,L,
203,77,35,4,1,36,44,1033,['n'],1,right,['1'],6,363,[-0.12398494],100,44,hard,plus,dotcolour,alfa,,,109,19,V,L,
204,78,36,4,1,36,44,867,['n'],1,right,['2'],5,178,[-0.11384701],100,44,hard,plus,dotcolour,alfa,,,109,19,V,L,
205,79,37,4,1,44,36,1017,['c'],1,left,['2'],5,652,[0.11725632],99,44,hard,plus,dotcolour,alfa,,,109,19,V,L,
206,80,38,4,1,33,47,750,['n'],1,right,['2'],5,165,[0.00573298],38,47,medium,plus,dotcolour,alfa,,,109,19,V,L,
207,81,39,4,1,27,53,883,['n'],1,right,['2'],5,124,[-0.07285827],100,53,easy,plus,dotcolour,alfa,,,109,19,V,L,
208,82,40,4,1,27,53,633,['n'],1,right,['2'],5,127,[-0.05693919],100,53,easy,plus,dotcolour,alfa,,,109,19,V,L,
209,83,41,4,1,33,47,1000,['n'],1,right,['2'],5,115,[-0.0660672],100,47,medium,plus,dotcolour,alfa,,,109,19,V,L,
210,84,0,5,1,27,53,651,['n'],1,right,['2'],5,198,[-0.16076959],100,53,easy,plus,dotcolour,alfa,,,109,19,V,L,
211,85,1,5,1,47,33,783,['n'],0,left,['2'],5,152,[-0.04378682],98,47,medium,plus,dotcolour,alfa,,,109,19,V,L,
212,86,2,5,1,44,36,634,['c'],1,left,['1'],6,146,[0.1050452],100,44,hard,plus,dotcolour,alfa,,,109,19,V,L,
213,87,3,5,1,47,33,584,['n'],0,left,['1'],6,102,[-0.01433295],83,47,medium,plus,dotcolour,alfa,,,109,19,V,L,
214,88,4,5,1,27,53,534,['n'],1,right,['1'],6,85,[-0.06830252],100,53,easy,plus,dotcolour,alfa,,,109,19,V,L,
215,89,5,5,1,47,33,984,['n'],0,left,['3'],4,252,[-0.00604431],61,47,medium,plus,dotcolour,alfa,,,109,19,V,L,
216,90,6,5,1,44,36,1200,['c'],1,left,['2'],5,236,[0.12494559],100,44,hard,plus,dotcolour,alfa,,,109,19,V,L,
217,91,7,5,1,53,27,1767,['c'],1,left,['1'],6,117,[0.13506689],100,53,easy,plus,dotcolour,alfa,,,109,19,V,L,
218,92,8,5,1,47,33,717,['c'],1,left,['1'],6,149,[0.08751256],100,47,medium,plus,dotcolour,alfa,,,109,19,V,L,
219,93,9,5,1,44,36,1752,['c'],1,left,['3'],4,3546,[0.67555307],100,44,hard,plus,dotcolour,alfa,,,109,19,V,L,
220,94,10,5,1,33,47,1184,['n'],1,right,['2'],5,517,[-0.09282747],99,47,medium,plus,dotcolour,alfa,,,109,19,V,L,
221,95,11,5,1,44,36,1583,['c'],1,left,['2'],5,787,[0.11683284],99,44,hard,plus,dotcolour,alfa,,,109,19,V,L,
222,96,12,5,1,33,47,717,['n'],1,right,['2'],5,263,[-0.11116277],100,47,medium,plus,dotcolour,alfa,,,109,19,V,L,
223,97,13,5,1,27,53,599,['n'],1,right,['2'],5,311,[-0.16719776],100,53,easy,plus,dotcolour,alfa,,,109,19,V,L,
224,98,14,5,1,44,36,700,['n'],0,left,['3'],4,464,[0.07332645],2,44,hard,plus,dotcolour,alfa,,,109,19,V,L,
225,99,15,5,1,53,27,901,['c'],1,left,['1'],6,361,[0.09490238],100,53,easy,plus,dotcolour,alfa,,,109,19,V,L,
226,100,16,5,1,53,27,966,['c'],1,left,['1'],6,166,[0.12207456],100,53,easy,plus,dotcolour,alfa,,,109,19,V,L,
227,101,17,5,1,36,44,633,['n'],1,right,['2'],5,951,[-0.1611719],100,44,hard,plus,dotcolour,alfa,,,109,19,V,L,
228,102,18,5,1,36,44,817,['n'],1,right,['2'],5,457,[-0.04879166],93,44,hard,plus,dotcolour,alfa,,,109,19,V,L,
229,103,19,5,1,44,36,650,['n'],0,left,['8'],3,1582,[0.13406367],2,44,hard,plus,dotcolour,alfa,,,109,19,V,L,
230,104,20,5,1,33,47,666,['n'],1,right,['1'],6,268,[-0.08747802],100,47,medium,plus,dotcolour,alfa,,,109,19,V,L,
231,105,21,5,1,33,47,834,['n'],1,right,['1'],6,154,[-0.0724068],100,47,medium,plus,dotcolour,alfa,,,109,19,V,L,
232,106,22,5,1,36,44,1784,['n'],1,right,['2'],5,198,[-0.01778724],81,44,hard,plus,dotcolour,alfa,,,109,19,V,L,
233,107,23,5,1,53,27,850,['c'],1,left,['1'],6,141,[0.11921124],100,53,easy,plus,dotcolour,alfa,,,109,19,V,L,
234,108,24,5,1,36,44,783,['n'],1,right,['2'],5,481,[0.00366771],45,44,hard,plus,dotcolour,alfa,,,109,19,V,L,
235,109,25,5,1,36,44,750,['n'],1,right,['2'],5,273,[-0.08990115],100,44,hard,plus,dotcolour,alfa,,,109,19,V,L,
236,110,26,5,1,36,44,600,['n'],1,right,['2'],5,143,[0.0022363],45,44,hard,plus,dotcolour,alfa,,,109,19,V,L,
237,111,27,5,1,33,47,2283,['c'],0,right,['3'],4,798,[0.05913352],92,47,medium,plus,dotcolour,alfa,,,109,19,V,L,
238,112,28,5,1,33,47,633,['n'],1,right,['2'],5,191,[-0.08372866],100,47,medium,plus,dotcolour,alfa,,,109,19,V,L,
239,113,29,5,1,33,47,816,['n'],1,right,['3'],4,1000,[-0.06796987],92,47,medium,plus,dotcolour,alfa,,,109,19,V,L,
240,114,30,5,1,36,44,634,['n'],1,right,['3'],4,111,[-0.0638844],100,44,hard,plus,dotcolour,alfa,,,109,19,V,L,
241,115,31,5,1,53,27,900,['c'],1,left,['1'],6,288,[0.05368057],97,53,easy,plus,dotcolour,alfa,,,109,19,V,L,
242,116,32,5,1,47,33,1066,['c'],1,left,['1'],6,244,[0.12055887],100,47,medium,plus,dotcolour,alfa,,,109,19,V,L,
243,117,33,5,1,27,53,633,['n'],1,right,['2'],5,145,[-0.10755696],100,53,easy,plus,dotcolour,alfa,,,109,19,V,L,
244,118,34,5,1,27,53,800,['n'],1,right,['1'],6,172,[-0.06168419],100,53,easy,plus,dotcolour,alfa,,,109,19,V,L,
245,119,35,5,1,44,36,1566,['c'],1,left,['2'],5,336,[0.15002442],100,44,hard,plus,dotcolour,alfa,,,109,19,V,L,
246,120,36,5,1,47,33,983,['c'],1,left,['1'],6,285,[0.06607121],99,47,medium,plus,dotcolour,alfa,,,109,19,V,L,
247,121,37,5,1,53,27,783,['c'],1,left,['1'],6,156,[0.14013847],100,53,easy,plus,dotcolour,alfa,,,109,19,V,L,
248,122,38,5,1,27,53,484,['n'],1,right,['1'],6,204,[-0.12614094],100,53,easy,plus,dotcolour,alfa,,,109,19,V,L,
249,123,39,5,1,27,53,750,['n'],1,right,['1'],6,183,[-0.19036916],100,53,easy,plus,dotcolour,alfa,,,109,19,V,L,
250,124,40,5,1,47,33,700,['n'],0,left,['1'],6,245,[-0.02322267],84,47,medium,plus,dotcolour,alfa,,,109,19,V,L,
251,125,41,5,1,53,27,716,['c'],1,left,['1'],6,144,[0.1355715],100,53,easy,plus,dotcolour,alfa,,,109,19,V,L,
252,0,0,6,2,33,47,768,['n'],1,right,['1'],6,137,[-0.08008269],88,47,medium,minus,dotcolour,alfa,,,109,19,V,L,
253,1,1,6,2,27,53,484,['n'],1,right,['1'],6,114,[-0.08418455],90,53,easy,minus,dotcolour,alfa,,,109,19,V,L,
254,2,2,6,2,36,44,483,['n'],1,right,['1'],6,172,[-0.0854703],86,44,hard,minus,dotcolour,alfa,,,109,19,V,L,
255,3,3,6,2,44,36,1267,['c'],1,left,['2'],5,435,[0.06442288],71,44,hard,minus,dotcolour,alfa,,,109,19,V,L,
256,4,4,6,2,47,33,1200,['n'],0,left,['1'],6,211,[-0.08979053],85,47,medium,minus,dotcolour,alfa,,,109,19,V,L,
257,5,5,6,2,36,44,667,['n'],1,right,['1'],6,89,[-0.08146052],92,44,hard,minus,dotcolour,alfa,,,109,19,V,L,
258,6,6,6,2,27,53,634,['n'],1,right,['1'],6,110,[-0.07944276],90,53,easy,minus,dotcolour,alfa,,,109,19,V,L,
259,7,7,6,2,47,33,1183,['c'],1,left,['1'],6,139,[0.0794263],87,47,medium,minus,dotcolour,alfa,,,109,19,V,L,
260,8,8,6,2,53,27,1084,['c'],1,left,['1'],6,155,[0.11018572],93,53,easy,minus,dotcolour,alfa,,,109,19,V,L,
261,9,9,6,2,36,44,1150,['n'],1,right,['3'],4,193,[-0.06367031],79,44,hard,minus,dotcolour,alfa,,,109,19,V,L,
262,10,10,6,2,33,47,700,['n'],1,right,['1'],6,142,[-0.05967474],81,47,medium,minus,dotcolour,alfa,,,109,19,V,L,
263,11,11,6,2,27,53,550,['n'],1,right,['1'],6,156,[-0.0250991],64,53,easy,minus,dotcolour,alfa,,,109,19,V,L,
264,12,12,6,2,27,53,500,['n'],1,right,['1'],6,99,[-0.09925433],94,53,easy,minus,dotcolour,alfa,,,109,19,V,L,
265,13,13,6,2,53,27,817,['c'],1,left,['1'],6,71,[0.10307478],97,53,easy,minus,dotcolour,alfa,,,109,19,V,L,
266,14,14,6,2,47,33,1033,['c'],1,left,['1'],6,133,[0.08214863],88,47,medium,minus,dotcolour,alfa,,,109,19,V,L,
267,15,15,6,2,53,27,867,['c'],1,left,['1'],6,102,[0.09364964],93,53,easy,minus,dotcolour,alfa,,,109,19,V,L,
268,16,16,6,2,36,44,585,['n'],1,right,['1'],6,108,[-0.08278293],91,44,hard,minus,dotcolour,alfa,,,109,19,V,L,
269,17,17,6,2,27,53,549,['n'],1,right,['1'],6,91,[-0.07314021],90,53,easy,minus,dotcolour,alfa,,,109,19,V,L,
270,18,18,6,2,36,44,550,['n'],1,right,['1'],6,82,[-0.12824869],98,44,hard,minus,dotcolour,alfa,,,109,19,V,L,
271,19,19,6,2,33,47,683,['n'],1,right,['2'],5,165,[-0.04223121],72,47,medium,minus,dotcolour,alfa,,,109,19,V,L,
272,20,20,6,2,27,53,517,['n'],1,right,['2'],5,131,[-0.06818821],84,53,easy,minus,dotcolour,alfa,,,109,19,V,L,
273,21,21,6,2,44,36,783,['c'],1,left,['1'],6,119,[0.13334151],97,44,hard,minus,dotcolour,alfa,,,109,19,V,L,
274,22,22,6,2,33,47,816,['c'],0,right,['1'],6,107,[0.11105763],96,47,medium,minus,dotcolour,alfa,,,109,19,V,L,
275,23,23,6,2,53,27,768,['c'],1,left,['1'],6,89,[0.07467586],90,53,easy,minus,dotcolour,alfa,,,109,19,V,L,
276,24,24,6,2,44,36,784,['n'],0,left,['2'],5,600,[-0.22156827],93,44,hard,minus,dotcolour,alfa,,,109,19,V,L,
277,25,25,6,2,53,27,483,['c'],1,left,['1'],6,134,[0.09983674],92,53,easy,minus,dotcolour,alfa,,,109,19,V,L,
278,26,26,6,2,47,33,784,['n'],0,left,['3'],4,619,[0.10409995],23,47,medium,minus,dotcolour,alfa,,,109,19,V,L,
279,27,27,6,2,33,47,1001,['n'],1,right,['1'],6,148,[-0.10586055],92,47,medium,minus,dotcolour,alfa,,,109,19,V,L,
280,28,28,6,2,36,44,750,['n'],1,right,['1'],6,129,[-0.05747636],81,44,hard,minus,dotcolour,alfa,,,109,19,V,L,
281,29,29,6,2,33,47,500,['n'],1,right,['1'],6,129,[-0.05660427],81,47,medium,minus,dotcolour,alfa,,,109,19,V,L,
282,30,30,6,2,47,33,732,['c'],1,left,['1'],6,71,[0.06293098],89,47,medium,minus,dotcolour,alfa,,,109,19,V,L,
283,31,31,6,2,44,36,1234,['c'],1,left,['1'],6,37,[0.07275556],97,44,hard,minus,dotcolour,alfa,,,109,19,V,L,
284,32,32,6,2,44,36,783,['c'],1,left,['1'],6,77,[0.1081977],97,44,hard,minus,dotcolour,alfa,,,109,19,V,L,
285,33,33,6,2,27,53,550,['n'],1,right,['1'],6,77,[-0.10348745],97,53,easy,minus,dotcolour,alfa,,,109,19,V,L,
286,34,34,6,2,36,44,467,['n'],1,right,['1'],6,81,[-0.03236952],74,44,hard,minus,dotcolour,alfa,,,109,19,V,L,
287,35,35,6,2,47,33,634,['c'],1,left,['1'],6,53,[0.07958057],96,47,medium,minus,dotcolour,alfa,,,109,19,V,L,
288,36,36,6,2,33,47,600,['c'],0,right,['1'],6,85,[0.12425936],98,47,medium,minus,dotcolour,alfa,,,109,19,V,L,
289,37,37,6,2,53,27,550,['n'],0,left,['1'],6,93,[-0.07626459],90,53,easy,minus,dotcolour,alfa,,,109,19,V,L,
290,38,38,6,2,47,33,517,['c'],1,left,['1'],6,69,[0.06543134],90,47,medium,minus,dotcolour,alfa,,,109,19,V,L,
291,39,39,6,2,53,27,1134,['n'],0,left,['1'],6,103,[-0.02512925],67,53,easy,minus,dotcolour,alfa,,,109,19,V,L,
292,40,40,6,2,44,36,834,['c'],1,left,['1'],6,27,[0.07798922],99,44,hard,minus,dotcolour,alfa,,,109,19,V,L,
293,41,41,6,2,44,36,833,['c'],1,left,['2'],5,281,[0.18039081],96,44,hard,minus,dotcolour,alfa,,,109,19,V,L,
294,42,0,7,2,44,36,1601,['c'],1,left,['2'],5,346,[0.12798153],88,44,hard,minus,dotcolour,alfa,,,109,19,V,L,
295,43,1,7,2,53,27,817,['n'],0,left,['1'],6,101,[-0.08958441],93,53,easy,minus,dotcolour,alfa,,,109,19,V,L,
296,44,2,7,2,33,47,666,['c'],0,right,['1'],6,32,[0.07962405],98,47,medium,minus,dotcolour,alfa,,,109,19,V,L,
297,45,3,7,2,27,53,1166,['n'],1,right,['2'],5,145,[-0.10737946],93,53,easy,minus,dotcolour,alfa,,,109,19,V,L,
298,46,4,7,2,47,33,617,['c'],1,left,['2'],5,276,[0.08116209],80,47,medium,minus,dotcolour,alfa,,,109,19,V,L,
299,47,5,7,2,27,53,566,['n'],1,right,['2'],5,139,[-0.06402544],82,53,easy,minus,dotcolour,alfa,,,109,19,V,L,
300,48,6,7,2,36,44,833,['n'],1,right,['2'],5,437,[-0.17065801],91,44,hard,minus,dotcolour,alfa,,,109,19,V,L,
301,49,7,7,2,53,27,1317,['c'],1,left,['1'],6,144,[0.11221386],93,53,easy,minus,dotcolour,alfa,,,109,19,V,L,
302,50,8,7,2,27,53,800,['n'],1,right,['2'],5,123,[-0.07064683],86,53,easy,minus,dotcolour,alfa,,,109,19,V,L,
303,51,9,7,2,53,27,800,['c'],1,left,['1'],6,103,[0.07833688],90,53,easy,minus,dotcolour,alfa,,,109,19,V,L,
304,52,10,7,2,44,36,1884,['c'],1,left,['2'],5,409,[0.24951836],97,44,hard,minus,dotcolour,alfa,,,109,19,V,L,
305,53,11,7,2,33,47,600,['n'],1,right,['2'],5,162,[-0.18135038],98,47,medium,minus,dotcolour,alfa,,,109,19,V,L,
306,54,12,7,2,53,27,616,['c'],1,left,['1'],6,76,[0.10550359],97,53,easy,minus,dotcolour,alfa,,,109,19,V,L,
307,55,13,7,2,47,33,501,['c'],1,left,['1'],6,86,[0.09458629],95,47,medium,minus,dotcolour,alfa,,,109,19,V,L,
308,56,14,7,2,53,27,651,['c'],1,left,['2'],5,146,[0.08564972],88,53,easy,minus,dotcolour,alfa,,,109,19,V,L,
309,57,15,7,2,53,27,1033,['c'],1,left,['2'],5,84,[0.06218222],87,53,easy,minus,dotcolour,alfa,,,109,19,V,L,
310,58,16,7,2,27,53,550,['n'],1,right,['1'],6,148,[-0.10724701],92,53,easy,minus,dotcolour,alfa,,,109,19,V,L,
311,59,17,7,2,47,33,750,['c'],1,left,['1'],6,81,[0.03963206],78,47,medium,minus,dotcolour,alfa,,,109,19,V,L,
312,60,18,7,2,44,36,584,['c'],1,left,['1'],6,184,[0.14012882],95,44,hard,minus,dotcolour,alfa,,,109,19,V,L,
313,61,19,7,2,47,33,767,['c'],1,left,['1'],6,91,[0.10265754],96,47,medium,minus,dotcolour,alfa,,,109,19,V,L,
314,62,20,7,2,44,36,983,['n'],0,left,['2'],5,441,[-0.11174591],82,44,hard,minus,dotcolour,alfa,,,109,19,V,L,
315,63,21,7,2,36,44,917,['n'],1,right,['2'],5,92,[-0.06041971],86,44,hard,minus,dotcolour,alfa,,,109,19,V,L,
316,64,22,7,2,33,47,584,['n'],1,right,['2'],5,26,[-0.05928026],96,47,medium,minus,dotcolour,alfa,,,109,19,V,L,
317,65,23,7,2,44,36,1150,['c'],1,left,['1'],6,132,[0.08229556],88,44,hard,minus,dotcolour,alfa,,,109,19,V,L,
318,66,24,7,2,36,44,1134,['n'],1,right,['8'],3,1234,[-0.14070109],76,44,hard,minus,dotcolour,alfa,,,109,19,V,L,
319,67,25,7,2,36,44,716,['n'],1,right,['1'],6,94,[-0.11318769],97,44,hard,minus,dotcolour,alfa,,,109,19,V,L,
320,68,26,7,2,33,47,751,['n'],1,right,['1'],6,109,[-0.02335728],65,47,medium,minus,dotcolour,alfa,,,109,19,V,L,
321,69,27,7,2,36,44,584,['n'],1,right,['1'],6,98,[-0.06630368],87,44,hard,minus,dotcolour,alfa,,,109,19,V,L,
322,70,28,7,2,36,44,1150,['c'],0,right,['2'],5,226,[0.08033621],82,44,hard,minus,dotcolour,alfa,,,109,19,V,L,
323,71,29,7,2,27,53,1084,['n'],1,right,['1'],6,206,[-0.11109413],90,53,easy,minus,dotcolour,alfa,,,109,19,V,L,
324,72,30,7,2,36,44,734,['n'],1,right,['1'],6,105,[-0.05418125],82,44,hard,minus,dotcolour,alfa,,,109,19,V,L,
325,73,31,7,2,47,33,767,['c'],1,left,['1'],6,64,[0.06218524],90,47,medium,minus,dotcolour,alfa,,,109,19,V,L,
326,74,32,7,2,33,47,866,['c'],0,right,['1'],6,60,[0.10022029],98,47,medium,minus,dotcolour,alfa,,,109,19,V,L,
327,75,33,7,2,53,27,633,['c'],1,left,['1'],6,82,[0.14152056],99,53,easy,minus,dotcolour,alfa,,,109,19,V,L,
328,76,34,7,2,44,36,783,['c'],1,left,['1'],6,96,[0.06533871],87,44,hard,minus,dotcolour,alfa,,,109,19,V,L,
329,77,35,7,2,44,36,533,['c'],1,left,['1'],6,96,[0.09331858],94,44,hard,minus,dotcolour,alfa,,,109,19,V,L,
330,78,36,7,2,33,47,833,['c'],0,right,['1'],6,68,[0.10884392],98,47,medium,minus,dotcolour,alfa,,,109,19,V,L,
331,79,37,7,2,27,53,683,['n'],1,right,['1'],6,104,[-0.15866819],99,53,easy,minus,dotcolour,alfa,,,109,19,V,L,
332,80,38,7,2,47,33,800,['c'],1,left,['1'],6,84,[0.06415585],88,47,medium,minus,dotcolour,alfa,,,109,19,V,L,
333,81,39,7,2,47,33,634,['c'],1,left,['1'],6,9,[0.07269106],100,47,medium,minus,dotcolour,alfa,,,109,19,V,L,
334,82,40,7,2,27,53,633,['n'],1,right,['1'],6,192,[-0.09721678],88,53,easy,minus,dotcolour,alfa,,,109,19,V,L,
335,83,41,7,2,33,47,1234,['n'],1,right,['2'],5,128,[-0.09840296],92,47,medium,minus,dotcolour,alfa,,,109,19,V,L,
336,84,0,8,2,44,36,1501,['c'],1,left,['2'],5,375,[0.05693506],70,44,hard,minus,dotcolour,alfa,,,109,19,V,L,
337,85,1,8,2,33,47,600,['n'],1,right,['2'],5,130,[-0.02378276],64,47,medium,minus,dotcolour,alfa,,,109,19,V,L,
338,86,2,8,2,53,27,651,['c'],1,left,['2'],5,203,[0.12082096],92,53,easy,minus,dotcolour,alfa,,,109,19,V,L,
339,87,3,8,2,47,33,633,['c'],1,left,['1'],6,172,[0.04893831],74,47,medium,minus,dotcolour,alfa,,,109,19,V,L,
340,88,4,8,2,44,36,701,['n'],0,left,['2'],5,106,[-0.11398373],96,44,hard,minus,dotcolour,alfa,,,109,19,V,L,
341,89,5,8,2,53,27,800,['c'],1,left,['1'],6,111,[0.07205195],88,53,easy,minus,dotcolour,alfa,,,109,19,V,L,
342,90,6,8,2,36,44,1134,['n'],1,right,['1'],6,198,[-0.17602155],97,44,hard,minus,dotcolour,alfa,,,109,19,V,L,
343,91,7,8,2,27,53,617,['n'],1,right,['1'],6,95,[-0.0824535],92,53,easy,minus,dotcolour,alfa,,,109,19,V,L,
344,92,8,8,2,47,33,617,['c'],1,left,['1'],6,100,[0.07563548],90,47,medium,minus,dotcolour,alfa,,,109,19,V,L,
345,93,9,8,2,33,47,566,['n'],1,right,['1'],6,106,[-0.09311078],93,47,medium,minus,dotcolour,alfa,,,109,19,V,L,
346,94,10,8,2,53,27,567,['c'],1,left,['1'],6,64,[0.08301692],95,53,easy,minus,dotcolour,alfa,,,109,19,V,L,
347,95,11,8,2,27,53,700,['n'],1,right,['1'],6,131,[-0.1175312],95,53,easy,minus,dotcolour,alfa,,,109,19,V,L,
348,96,12,8,2,27,53,600,['c'],0,right,['1'],6,111,[0.06367851],85,53,easy,minus,dotcolour,alfa,,,109,19,V,L,
349,97,13,8,2,33,47,583,['n'],1,right,['1'],6,116,[-0.09725547],93,47,medium,minus,dotcolour,alfa,,,109,19,V,L,
350,98,14,8,2,27,53,517,['n'],1,right,['1'],6,189,[-0.13955655],95,53,easy,minus,dotcolour,alfa,,,109,19,V,L,
351,99,15,8,2,33,47,883,['n'],1,right,['2'],5,396,[-0.15061868],90,47,medium,minus,dotcolour,alfa,,,109,19,V,L,
352,100,16,8,2,27,53,567,['n'],1,right,['2'],5,78,[-0.05683276],86,53,easy,minus,dotcolour,alfa,,,109,19,V,L,
353,101,17,8,2,53,27,816,['c'],1,left,['1'],6,179,[0.08701923],86,53,easy,minus,dotcolour,alfa,,,109,19,V,L,
354,102,18,8,2,36,44,700,['n'],1,right,['1'],6,153,[-0.06787073],83,44,hard,minus,dotcolour,alfa,,,109,19,V,L,
355,103,19,8,2,47,33,1401,['c'],1,left,['2'],5,252,[0.1254775],90,47,medium,minus,dotcolour,alfa,,,109,19,V,L,
356,104,20,8,2,44,36,800,['c'],1,left,['1'],6,228,[0.09508745],86,44,hard,minus,dotcolour,alfa,,,109,19,V,L,
357,105,21,8,2,47,33,867,['n'],0,left,['1'],6,265,[-0.00287146],51,47,medium,minus,dotcolour,alfa,,,109,19,V,L,
358,106,22,8,2,47,33,767,['c'],1,left,['1'],6,89,[0.05656232],85,47,medium,minus,dotcolour,alfa,,,109,19,V,L,
359,107,23,8,2,44,36,1217,['c'],1,left,['1'],6,102,[0.02690303],68,44,hard,minus,dotcolour,alfa,,,109,19,V,L,
360,108,24,8,2,36,44,717,['n'],1,right,['1'],6,111,[-0.05315271],81,44,hard,minus,dotcolour,alfa,,,109,19,V,L,
361,109,25,8,2,44,36,1066,['n'],0,left,['1'],6,81,[-0.07639626],92,44,hard,minus,dotcolour,alfa,,,109,19,V,L,
362,110,26,8,2,47,33,584,['c'],1,left,['1'],6,120,[0.04949455],78,47,medium,minus,dotcolour,alfa,,,109,19,V,L,
363,111,27,8,2,53,27,633,['c'],1,left,['1'],6,83,[0.09410225],95,53,easy,minus,dotcolour,alfa,,,109,19,V,L,
364,112,28,8,2,27,53,499,['c'],0,right,['1'],6,70,[0.08974577],95,53,easy,minus,dotcolour,alfa,,,109,19,V,L,
365,113,29,8,2,36,44,1016,['n'],1,right,['2'],5,203,[-0.08213808],84,44,hard,minus,dotcolour,alfa,,,109,19,V,L,
366,114,30,8,2,33,47,1000,['n'],1,right,['2'],5,181,[-0.06602689],80,47,medium,minus,dotcolour,alfa,,,109,19,V,L,
367,115,31,8,2,36,44,817,['n'],1,right,['2'],5,182,[-0.05722505],77,44,hard,minus,dotcolour,alfa,,,109,19,V,L,
368,116,32,8,2,53,27,850,['c'],1,left,['2'],5,286,[0.03256469],63,53,easy,minus,dotcolour,alfa,,,109,19,V,L,
369,117,33,8,2,53,27,833,['c'],1,left,['2'],5,242,[0.21437309],98,53,easy,minus,dotcolour,alfa,,,109,19,V,L,
370,118,34,8,2,44,36,850,['n'],0,left,['2'],5,144,[-0.11868699],94,44,hard,minus,dotcolour,alfa,,,109,19,V,L,
371,119,35,8,2,44,36,684,['n'],0,left,['2'],5,96,[-0.07780618],91,44,hard,minus,dotcolour,alfa,,,109,19,V,L,
372,120,36,8,2,27,53,900,['n'],1,right,['2'],5,265,[-0.03871839],66,53,easy,minus,dotcolour,alfa,,,109,19,V,L,
373,121,37,8,2,47,33,633,['n'],0,left,['2'],5,78,[-0.04732819],82,47,medium,minus,dotcolour,alfa,,,109,19,V,L,
374,122,38,8,2,36,44,700,['n'],1,right,['2'],5,25,[-0.0633139],97,44,hard,minus,dotcolour,alfa,,,109,19,V,L,
375,123,39,8,2,36,44,600,['n'],1,right,['2'],5,40,[-0.06969791],96,44,hard,minus,dotcolour,alfa,,,109,19,V,L,
376,124,40,8,2,33,47,516,['n'],1,right,['2'],5,83,[-0.0992303],96,47,medium,minus,dotcolour,alfa,,,109,19,V,L,
377,125,41,8,2,33,47,500,['n'],1,right,['2'],5,141,[-0.11699983],94,47,medium,minus,dotcolour,alfa,,,109,19,V,L,
378,0,0,9,3,53,27,918,['c'],1,left,['1'],6,275,[0.19735011],100,53,easy,plus,dotcolour,alfa,,,109,19,V,L,
379,1,1,9,3,44,36,584,['n'],0,left,['1'],6,90,[-0.09698649],100,44,hard,plus,dotcolour,alfa,,,109,19,V,L,
380,2,2,9,3,47,33,600,['n'],0,left,['2'],5,152,[-0.02758952],93,47,medium,plus,dotcolour,alfa,,,109,19,V,L,
381,3,3,9,3,27,53,500,['n'],1,right,['2'],5,127,[-0.09935004],100,53,easy,plus,dotcolour,alfa,,,109,19,V,L,
382,4,4,9,3,33,47,534,['n'],1,right,['2'],5,134,[-0.14209621],100,47,medium,plus,dotcolour,alfa,,,109,19,V,L,
383,5,5,9,3,44,36,800,['c'],1,left,['1'],6,121,[0.08744231],100,44,hard,plus,dotcolour,alfa,,,109,19,V,L,
384,6,6,9,3,44,36,651,['n'],0,left,['1'],6,188,[-0.0332057],94,44,hard,plus,dotcolour,alfa,,,109,19,V,L,
385,7,7,9,3,53,27,950,['c'],1,left,['1'],6,160,[0.07704546],100,53,easy,plus,dotcolour,alfa,,,109,19,V,L,
386,8,8,9,3,53,27,884,['c'],1,left,['1'],6,56,[0.05806325],100,53,easy,plus,dotcolour,alfa,,,109,19,V,L,
387,9,9,9,3,44,36,684,['n'],0,left,['2'],5,500,[-0.14450513],100,44,hard,plus,dotcolour,alfa,,,109,19,V,L,
388,10,10,9,3,33,47,1049,['n'],1,right,['2'],5,343,[-0.11830776],100,47,medium,plus,dotcolour,alfa,,,109,19,V,L,
389,11,11,9,3,36,44,583,['n'],1,right,['2'],5,84,[-0.09140592],100,44,hard,plus,dotcolour,alfa,,,109,19,V,L,
390,12,12,9,3,47,33,667,['c'],1,left,['1'],6,134,[0.07073869],100,47,medium,plus,dotcolour,alfa,,,109,19,V,L,
391,13,13,9,3,33,47,550,['n'],1,right,['2'],5,68,[-0.07094949],100,47,medium,plus,dotcolour,alfa,,,109,19,V,L,
392,14,14,9,3,36,44,700,['n'],1,right,['2'],5,24,[-0.0677939],100,44,hard,plus,dotcolour,alfa,,,109,19,V,L,
393,15,15,9,3,44,36,950,['c'],1,left,['1'],6,177,[0.0184735],83,44,hard,plus,dotcolour,alfa,,,109,19,V,L,
394,16,16,9,3,33,47,633,['n'],1,right,['1'],6,339,[-0.1411056],100,47,medium,plus,dotcolour,alfa,,,109,19,V,L,
395,17,17,9,3,27,53,833,['n'],1,right,['2'],5,108,[-0.06691177],100,53,easy,plus,dotcolour,alfa,,,109,19,V,L,
396,18,18,9,3,33,47,517,['n'],1,right,['2'],5,45,[-0.11715429],100,47,medium,plus,dotcolour,alfa,,,109,19,V,L,
397,19,19,9,3,36,44,483,['n'],1,right,['2'],5,96,[0.02476252],5,44,hard,plus,dotcolour,alfa,,,109,19,V,L,
398,20,20,9,3,36,44,568,['n'],1,right,['2'],5,142,[-0.021237],88,44,hard,plus,dotcolour,alfa,,,109,19,V,L,
399,21,21,9,3,53,27,749,['c'],1,left,['1'],6,125,[0.13350516],100,53,easy,plus,dotcolour,alfa,,,109,19,V,L,
400,22,22,9,3,36,44,700,['n'],1,right,['2'],5,52,[-0.05651688],100,44,hard,plus,dotcolour,alfa,,,109,19,V,L,
401,23,23,9,3,36,44,467,['n'],1,right,['2'],5,65,[-0.06499701],100,44,hard,plus,dotcolour,alfa,,,109,19,V,L,
402,24,24,9,3,27,53,434,['n'],1,right,['2'],5,78,[-0.06960214],100,53,easy,plus,dotcolour,alfa,,,109,19,V,L,
403,25,25,9,3,27,53,466,['n'],1,right,['2'],5,289,[-0.1341569],100,53,easy,plus,dotcolour,alfa,,,109,19,V,L,
404,26,26,9,3,33,47,533,['n'],1,right,['2'],5,249,[-0.15768612],100,47,medium,plus,dotcolour,alfa,,,109,19,V,L,
405,27,27,9,3,27,53,433,['n'],1,right,['2'],5,80,[-0.10465435],100,53,easy,plus,dotcolour,alfa,,,109,19,V,L,
406,28,28,9,3,53,27,383,['c'],1,left,['1'],6,110,[0.14474376],100,53,easy,plus,dotcolour,alfa,,,109,19,V,L,
407,29,29,9,3,44,36,1150,['c'],1,left,['1'],6,221,[0.03960331],95,44,hard,plus,dotcolour,alfa,,,109,19,V,L,
408,30,30,9,3,33,47,650,['n'],1,right,['2'],5,68,[-0.07978677],100,47,medium,plus,dotcolour,alfa,,,109,19,V,L,
409,31,31,9,3,53,27,917,['c'],1,left,['1'],6,109,[0.0700387],100,53,easy,plus,dotcolour,alfa,,,109,19,V,L,
410,32,32,9,3,36,44,1301,['n'],1,right,['2'],5,190,[-0.04962235],98,44,hard,plus,dotcolour,alfa,,,109,19,V,L,
411,33,33,9,3,27,53,701,['n'],1,right,['2'],5,148,[-0.14332969],100,53,easy,plus,dotcolour,alfa,,,109,19,V,L,
412,34,34,9,3,47,33,1166,['c'],1,left,['1'],6,80,[0.04139386],99,47,medium,plus,dotcolour,alfa,,,109,19,V,L,
413,35,35,9,3,47,33,1116,['c'],1,left,['1'],6,113,[0.08914394],100,47,medium,plus,dotcolour,alfa,,,109,19,V,L,
414,36,36,9,3,47,33,667,['n'],0,left,['1'],6,331,[-0.10895396],100,47,medium,plus,dotcolour,alfa,,,109,19,V,L,
415,37,37,9,3,47,33,682,['c'],1,left,['2'],5,124,[-0.02443452],8,47,medium,plus,dotcolour,alfa,,,109,19,V,L,
416,38,38,9,3,44,36,751,['n'],0,left,['2'],5,98,[-0.05806358],100,44,hard,plus,dotcolour,alfa,,,109,19,V,L,
417,39,39,9,3,47,33,617,['c'],1,left,['2'],5,135,[0.09478526],100,47,medium,plus,dotcolour,alfa,,,109,19,V,L,
418,40,40,9,3,53,27,701,['n'],0,left,['2'],5,95,[-0.03470389],98,53,easy,plus,dotcolour,alfa,,,109,19,V,L,
419,41,41,9,3,27,53,917,['n'],1,right,['2'],5,175,[-0.09503242],100,53,easy,plus,dotcolour,alfa,,,109,19,V,L,
420,42,0,10,3,44,36,634,['n'],0,left,['2'],5,112,[-0.10620616],100,44,hard,plus,dotcolour,alfa,,,109,19,V,L,
421,43,1,10,3,44,36,733,['c'],1,left,['2'],5,104,[0.147455],100,44,hard,plus,dotcolour,alfa,,,109,19,V,L,
422,44,2,10,3,36,44,750,['n'],1,right,['2'],5,111,[-0.0987643],100,44,hard,plus,dotcolour,alfa,,,109,19,V,L,
423,45,3,10,3,33,47,650,['n'],1,right,['2'],5,114,[-0.06739089],100,47,medium,plus,dotcolour,alfa,,,109,19,V,L,
424,46,4,10,3,47,33,567,['c'],1,left,['2'],5,95,[0.04663145],100,47,medium,plus,dotcolour,alfa,,,109,19,V,L,
425,47,5,10,3,27,53,534,['n'],1,right,['2'],5,111,[-0.14519282],100,53,easy,plus,dotcolour,alfa,,,109,19,V,L,
426,48,6,10,3,36,44,850,['n'],1,right,['2'],5,50,[-0.08266628],100,44,hard,plus,dotcolour,alfa,,,109,19,V,L,
427,49,7,10,3,27,53,583,['n'],1,right,['2'],5,58,[-0.11155916],100,53,easy,plus,dotcolour,alfa,,,109,19,V,L,
428,50,8,10,3,36,44,583,['n'],1,right,['2'],5,25,[-0.07365678],100,44,hard,plus,dotcolour,alfa,,,109,19,V,L,
429,51,9,10,3,33,47,633,['n'],1,right,['2'],5,24,[-0.07244096],100,47,medium,plus,dotcolour,alfa,,,109,19,V,L,
430,52,10,10,3,33,47,650,['n'],1,right,['2'],5,110,[-0.06808087],100,47,medium,plus,dotcolour,alfa,,,109,19,V,L,
431,53,11,10,3,27,53,501,['n'],1,right,['2'],5,31,[-0.06066027],100,53,easy,plus,dotcolour,alfa,,,109,19,V,L,
432,54,12,10,3,53,27,700,['c'],1,left,['2'],5,115,[0.1175368],100,53,easy,plus,dotcolour,alfa,,,109,19,V,L,
433,55,13,10,3,44,36,767,['n'],0,left,['2'],5,969,[-0.01180857],61,44,hard,plus,dotcolour,alfa,,,109,19,V,L,
434,56,14,10,3,44,36,1150,['n'],0,left,['2'],5,101,[-0.08540627],100,44,hard,plus,dotcolour,alfa,,,109,19,V,L,
435,57,15,10,3,44,36,567,['c'],1,left,['2'],5,156,[0.0934509],100,44,hard,plus,dotcolour,alfa,,,109,19,V,L,
436,58,16,10,3,44,36,935,['c'],1,left,['2'],5,66,[0.08906443],100,44,hard,plus,dotcolour,alfa,,,109,19,V,L,
437,59,17,10,3,33,47,967,['n'],1,right,['3'],4,186,[-0.07891893],100,47,medium,plus,dotcolour,alfa,,,109,19,V,L,
438,60,18,10,3,27,53,233,['c'],0,right,['3'],4,450,[-0.01488862],31,53,easy,plus,dotcolour,alfa,,,109,19,V,L,
439,61,19,10,3,44,36,499,['c'],1,left,['3'],4,893,[0.24144639],100,44,hard,plus,dotcolour,alfa,,,109,19,V,L,
440,62,20,10,3,53,27,684,['c'],1,left,['3'],4,71,[0.11359024],100,53,easy,plus,dotcolour,alfa,,,109,19,V,L,
441,63,21,10,3,47,33,734,['c'],1,left,['3'],4,89,[0.08527006],100,47,medium,plus,dotcolour,alfa,,,109,19,V,L,
442,64,22,10,3,36,44,650,['n'],1,right,['3'],4,37,[-0.09385402],100,44,hard,plus,dotcolour,alfa,,,109,19,V,L,
443,65,23,10,3,33,47,566,['n'],1,right,['3'],4,39,[-0.09471398],100,47,medium,plus,dotcolour,alfa,,,109,19,V,L,
444,66,24,10,3,47,33,650,['c'],1,left,['3'],4,108,[0.05672322],100,47,medium,plus,dotcolour,alfa,,,109,19,V,L,
445,67,25,10,3,36,44,1065,['c'],0,right,['3'],4,71,[0.06689247],100,44,hard,plus,dotcolour,alfa,,,109,19,V,L,
446,68,26,10,3,33,47,917,['n'],1,right,['3'],4,24,[-0.07829031],100,47,medium,plus,dotcolour,alfa,,,109,19,V,L,
447,69,27,10,3,47,33,650,['c'],1,left,['3'],4,55,[0.07650502],100,47,medium,plus,dotcolour,alfa,,,109,19,V,L,
448,70,28,10,3,27,53,650,['n'],1,right,['3'],4,60,[-0.05778459],100,53,easy,plus,dotcolour,alfa,,,109,19,V,L,
449,71,29,10,3,53,27,2816,['n'],0,left,['3'],4,1066,[-0.0664761],91,53,easy,plus,dotcolour,alfa,,,109,19,V,L,
450,72,30,10,3,27,53,850,['n'],1,right,['2'],5,158,[-0.13370441],100,53,easy,plus,dotcolour,alfa,,,109,19,V,L,
451,73,31,10,3,53,27,850,['c'],1,left,['2'],5,47,[0.09141156],100,53,easy,plus,dotcolour,alfa,,,109,19,V,L,
452,74,32,10,3,47,33,917,['n'],0,left,['8'],3,1225,[0.10286421],3,47,medium,plus,dotcolour,alfa,,,109,19,V,L,
453,75,33,10,3,36,44,717,['n'],1,right,['2'],5,108,[-0.05873113],100,44,hard,plus,dotcolour,alfa,,,109,19,V,L,
454,76,34,10,3,33,47,617,['n'],1,right,['2'],5,97,[-0.04249334],99,47,medium,plus,dotcolour,alfa,,,109,19,V,L,
455,77,35,10,3,53,27,717,['c'],1,left,['2'],5,65,[0.0846124],100,53,easy,plus,dotcolour,alfa,,,109,19,V,L,
456,78,36,10,3,53,27,867,['c'],1,left,['2'],5,62,[0.09311202],100,53,easy,plus,dotcolour,alfa,,,109,19,V,L,
457,79,37,10,3,47,33,1134,['c'],1,left,['2'],5,47,[0.09949391],100,47,medium,plus,dotcolour,alfa,,,109,19,V,L,
458,80,38,10,3,27,53,867,['n'],1,right,['2'],5,123,[-0.1236113],100,53,easy,plus,dotcolour,alfa,,,109,19,V,L,
459,81,39,10,3,36,44,683,['n'],1,right,['2'],5,900,[-0.17905744],100,44,hard,plus,dotcolour,alfa,,,109,19,V,L,
460,82,40,10,3,53,27,666,['c'],1,left,['2'],5,311,[0.19054852],100,53,easy,plus,dotcolour,alfa,,,109,19,V,L,
461,83,41,10,3,47,33,784,['n'],0,left,['2'],5,67,[-0.08969185],100,47,medium,plus,dotcolour,alfa,,,109,19,V,L,
462,84,0,11,3,47,33,1318,['c'],1,left,['2'],5,173,[0.03525532],95,47,medium,plus,dotcolour,alfa,,,109,19,V,L,
463,85,1,11,3,53,27,600,['c'],1,left,['2'],5,78,[0.07970615],100,53,easy,plus,dotcolour,alfa,,,109,19,V,L,
464,86,2,11,3,36,44,667,['n'],1,right,['2'],5,138,[-0.092616],100,44,hard,plus,dotcolour,alfa,,,109,19,V,L,
465,87,3,11,3,44,36,733,['n'],0,left,['2'],5,336,[-0.1189424],100,44,hard,plus,dotcolour,alfa,,,109,19,V,L,
466,88,4,11,3,33,47,666,['n'],1,right,['2'],5,98,[-0.10662271],100,47,medium,plus,dotcolour,alfa,,,109,19,V,L,
467,89,5,11,3,33,47,617,['n'],1,right,['2'],5,94,[-0.11551484],100,47,medium,plus,dotcolour,alfa,,,109,19,V,L,
468,90,6,11,3,33,47,583,['n'],1,right,['2'],5,148,[-0.07269247],100,47,medium,plus,dotcolour,alfa,,,109,19,V,L,
469,91,7,11,3,33,47,1050,['c'],0,right,['2'],5,94,[0.10171433],100,47,medium,plus,dotcolour,alfa,,,109,19,V,L,
470,92,8,11,3,47,33,1100,['n'],0,left,['2'],5,95,[-0.09421819],100,47,medium,plus,dotcolour,alfa,,,109,19,V,L,
471,93,9,11,3,27,53,518,['n'],1,right,['2'],5,64,[-0.1098761],100,53,easy,plus,dotcolour,alfa,,,109,19,V,L,
472,94,10,11,3,44,36,600,['n'],0,left,['2'],5,87,[-0.06587419],100,44,hard,plus,dotcolour,alfa,,,109,19,V,L,
473,95,11,11,3,27,53,500,['n'],1,right,['2'],5,241,[-0.05240435],98,53,easy,plus,dotcolour,alfa,,,109,19,V,L,
474,96,12,11,3,27,53,600,['n'],1,right,['2'],5,224,[-0.13706985],100,53,easy,plus,dotcolour,alfa,,,109,19,V,L,
475,97,13,11,3,44,36,900,['c'],1,left,['2'],5,156,[0.12505891],100,44,hard,plus,dotcolour,alfa,,,109,19,V,L,
476,98,14,11,3,53,27,767,['c'],1,left,['2'],5,128,[0.08167854],100,53,easy,plus,dotcolour,alfa,,,109,19,V,L,
477,99,15,11,3,44,36,533,['n'],0,left,['2'],5,62,[-0.06038841],100,44,hard,plus,dotcolour,alfa,,,109,19,V,L,
478,100,16,11,3,44,36,533,['n'],0,left,['2'],5,32,[-0.08008847],100,44,hard,plus,dotcolour,alfa,,,109,19,V,L,
479,101,17,11,3,47,33,449,['n'],0,left,['2'],5,94,[-0.04099151],99,47,medium,plus,dotcolour,alfa,,,109,19,V,L,
480,102,18,11,3,36,44,551,['n'],1,right,['2'],5,29,[-0.05296296],100,44,hard,plus,dotcolour,alfa,,,109,19,V,L,
481,103,19,11,3,27,53,483,['n'],1,right,['2'],5,66,[-0.05776444],100,53,easy,plus,dotcolour,alfa,,,109,19,V,L,
482,104,20,11,3,53,27,817,['c'],1,left,['1'],6,88,[0.08399583],100,53,easy,plus,dotcolour,alfa,,,109,19,V,L,
483,105,21,11,3,27,53,750,['n'],1,right,['1'],6,296,[-0.13805742],100,53,easy,plus,dotcolour,alfa,,,109,19,V,L,
484,106,22,11,3,27,53,566,['n'],1,right,['1'],6,119,[-0.10036712],100,53,easy,plus,dotcolour,alfa,,,109,19,V,L,
485,107,23,11,3,36,44,1467,['c'],0,right,['2'],5,160,[0.08275716],100,44,hard,plus,dotcolour,alfa,,,109,19,V,L,
486,108,24,11,3,53,27,583,['c'],1,left,['1'],6,100,[0.05447881],100,53,easy,plus,dotcolour,alfa,,,109,19,V,L,
487,109,25,11,3,33,47,617,['n'],1,right,['1'],6,160,[-0.08440752],100,47,medium,plus,dotcolour,alfa,,,109,19,V,L,
488,110,26,11,3,53,27,950,['c'],1,left,['1'],6,45,[0.09363521],100,53,easy,plus,dotcolour,alfa,,,109,19,V,L,
489,111,27,11,3,44,36,616,['n'],0,left,['1'],6,140,[-0.08815216],100,44,hard,plus,dotcolour,alfa,,,109,19,V,L,
490,112,28,11,3,33,47,533,['n'],1,right,['1'],6,34,[-0.07653289],100,47,medium,plus,dotcolour,alfa,,,109,19,V,L,
491,113,29,11,3,53,27,583,['c'],1,left,['1'],6,82,[0.13361883],100,53,easy,plus,dotcolour,alfa,,,109,19,V,L,
492,114,30,11,3,27,53,500,['n'],1,right,['1'],6,85,[-0.11796808],100,53,easy,plus,dotcolour,alfa,,,109,19,V,L,
493,115,31,11,3,47,33,682,['c'],1,left,['1'],6,55,[0.05657131],100,47,medium,plus,dotcolour,alfa,,,109,19,V,L,
494,116,32,11,3,36,44,450,['n'],1,right,['1'],6,84,[-0.08988066],100,44,hard,plus,dotcolour,alfa,,,109,19,V,L,
495,117,33,11,3,36,44,900,['n'],1,right,['2'],5,143,[-0.1523973],100,44,hard,plus,dotcolour,alfa,,,109,19,V,L,
496,118,34,11,3,36,44,634,['c'],0,right,['2'],5,272,[-0.03069563],11,44,hard,plus,dotcolour,alfa,,,109,19,V,L,
497,119,35,11,3,47,33,700,['c'],1,left,['2'],5,138,[0.02706124],93,47,medium,plus,dotcolour,alfa,,,109,19,V,L,
498,120,36,11,3,33,47,535,['c'],0,right,['2'],5,185,[0.09151382],100,47,medium,plus,dotcolour,alfa,,,109,19,V,L,
499,121,37,11,3,44,36,633,['n'],0,left,['2'],5,66,[-0.0587023],100,44,hard,plus,dotcolour,alfa,,,109,19,V,L,
500,122,38,11,3,36,44,1132,['n'],1,right,['2'],5,91,[-0.0087096],74,44,hard,plus,dotcolour,alfa,,,109,19,V,L,
501,123,39,11,3,47,33,816,['c'],1,left,['2'],5,72,[0.05008427],100,47,medium,plus,dotcolour,alfa,,,109,19,V,L,
502,124,40,11,3,53,27,768,['c'],1,left,['2'],5,80,[0.10159418],100,53,easy,plus,dotcolour,alfa,,,109,19,V,L,
503,125,41,11,3,47,33,1017,['n'],0,left,['2'],5,213,[0.0507011],2,47,medium,plus,dotcolour,alfa,,,109,19,V,L,
504,0,0,12,4,53,27,1134,['c'],1,left,['1'],6,191,[0.13975375],95,53,easy,minus,dotcolour,alfa,,,109,19,V,L,
505,1,1,12,4,44,36,733,['n'],0,left,['1'],6,163,[-0.07418115],84,44,hard,minus,dotcolour,alfa,,,109,19,V,L,
506,2,2,12,4,33,47,584,['n'],1,right,['2'],5,166,[-0.06618167],81,47,medium,minus,dotcolour,alfa,,,109,19,V,L,
507,3,3,12,4,27,53,700,['n'],1,right,['2'],5,69,[-0.08097426],94,53,easy,minus,dotcolour,alfa,,,109,19,V,L,
508,4,4,12,4,47,33,900,['c'],1,left,['2'],5,72,[0.09773449],96,47,medium,minus,dotcolour,alfa,,,109,19,V,L,
509,5,5,12,4,27,53,550,['n'],1,right,['2'],5,56,[-0.06681355],93,53,easy,minus,dotcolour,alfa,,,109,19,V,L,
510,6,6,12,4,53,27,633,['c'],1,left,['2'],5,86,[0.09677219],95,53,easy,minus,dotcolour,alfa,,,109,19,V,L,
511,7,7,12,4,44,36,1766,['c'],1,left,['1'],6,358,[-0.01346501],45,44,hard,minus,dotcolour,alfa,,,109,19,V,L,
512,8,8,12,4,33,47,650,['n'],1,right,['2'],5,134,[-0.03905807],72,47,medium,minus,dotcolour,alfa,,,109,19,V,L,
513,9,9,12,4,53,27,734,['c'],1,left,['1'],6,125,[0.09771125],92,53,easy,minus,dotcolour,alfa,,,109,19,V,L,
514,10,10,12,4,44,36,933,['c'],1,left,['2'],5,196,[0.0083669],54,44,hard,minus,dotcolour,alfa,,,109,19,V,L,
515,11,11,12,4,47,33,549,['n'],0,left,['1'],6,375,[-0.16627014],92,47,medium,minus,dotcolour,alfa,,,109,19,V,L,
516,12,12,12,4,27,53,616,['n'],1,right,['1'],6,112,[-0.09147899],92,53,easy,minus,dotcolour,alfa,,,109,19,V,L,
517,13,13,12,4,53,27,667,['c'],1,left,['1'],6,66,[0.12121338],99,53,easy,minus,dotcolour,alfa,,,109,19,V,L,
518,14,14,12,4,33,47,583,['n'],1,right,['1'],6,50,[-0.05312144],89,47,medium,minus,dotcolour,alfa,,,109,19,V,L,
519,15,15,12,4,27,53,451,['n'],1,right,['1'],6,95,[-0.08576525],92,53,easy,minus,dotcolour,alfa,,,109,19,V,L,
520,16,16,12,4,44,36,900,['n'],0,left,['1'],6,128,[-0.01146097],57,44,hard,minus,dotcolour,alfa,,,109,19,V,L,
521,17,17,12,4,47,33,717,['c'],1,left,['2'],5,104,[0.14008985],98,47,medium,minus,dotcolour,alfa,,,109,19,V,L,
522,18,18,12,4,36,44,750,['c'],0,right,['2'],5,120,[0.08738749],91,44,hard,minus,dotcolour,alfa,,,109,19,V,L,
523,19,19,12,4,33,47,535,['n'],1,right,['2'],5,222,[-0.11429],90,47,medium,minus,dotcolour,alfa,,,109,19,V,L,
524,20,20,12,4,36,44,517,['n'],1,right,['2'],5,90,[-0.08890833],94,44,hard,minus,dotcolour,alfa,,,109,19,V,L,
525,21,21,12,4,27,53,566,['n'],1,right,['2'],5,41,[-0.08798369],98,53,easy,minus,dotcolour,alfa,,,109,19,V,L,
526,22,22,12,4,44,36,734,['c'],1,left,['2'],5,139,[0.12678767],96,44,hard,minus,dotcolour,alfa,,,109,19,V,L,
527,23,23,12,4,47,33,834,['n'],0,left,['2'],5,94,[-0.06520805],87,47,medium,minus,dotcolour,alfa,,,109,19,V,L,
528,24,24,12,4,44,36,850,['c'],1,left,['2'],5,289,[0.17393676],95,44,hard,minus,dotcolour,alfa,,,109,19,V,L,
529,25,25,12,4,27,53,484,['n'],1,right,['2'],5,51,[-0.0448313],86,53,easy,minus,dotcolour,alfa,,,109,19,V,L,
530,26,26,12,4,47,33,750,['c'],1,left,['1'],6,108,[0.05468077],82,47,medium,minus,dotcolour,alfa,,,109,19,V,L,
531,27,27,12,4,36,44,601,['n'],1,right,['2'],5,113,[-0.10924597],95,44,hard,minus,dotcolour,alfa,,,109,19,V,L,
532,28,28,12,4,53,27,500,['n'],0,left,['2'],5,130,[-0.06427008],83,53,easy,minus,dotcolour,alfa,,,109,19,V,L,
533,29,29,12,4,47,33,983,['c'],1,left,['1'],6,182,[0.06233158],79,47,medium,minus,dotcolour,alfa,,,109,19,V,L,
534,30,30,12,4,53,27,717,['c'],1,left,['1'],6,188,[0.1761163],97,53,easy,minus,dotcolour,alfa,,,109,19,V,L,
535,31,31,12,4,53,27,550,['n'],0,left,['2'],5,776,[0.09359778],28,53,easy,minus,dotcolour,alfa,,,109,19,V,L,
536,32,32,12,4,33,47,901,['n'],1,right,['1'],6,189,[-0.08826163],86,47,medium,minus,dotcolour,alfa,,,109,19,V,L,
537,33,33,12,4,33,47,783,['c'],0,right,['9'],2,1808,[-0.26021981],15,47,medium,minus,dotcolour,alfa,,,109,19,V,L,
538,34,34,12,4,27,53,634,['n'],1,right,['1'],6,239,[-0.11306543],89,53,easy,minus,dotcolour,alfa,,,109,19,V,L,
539,35,35,12,4,36,44,800,['n'],1,right,['1'],6,118,[-0.07929295],89,44,hard,minus,dotcolour,alfa,,,109,19,V,L,
540,36,36,12,4,36,44,1000,['c'],0,right,['1'],6,98,[0.04395229],78,44,hard,minus,dotcolour,alfa,,,109,19,V,L,
541,37,37,12,4,33,47,1001,['n'],1,right,['2'],5,472,[-0.11113786],81,47,medium,minus,dotcolour,alfa,,,109,19,V,L,
542,38,38,12,4,36,44,733,['n'],1,right,['2'],5,113,[-0.07397006],88,44,hard,minus,dotcolour,alfa,,,109,19,V,L,
543,39,39,12,4,47,33,600,['n'],0,left,['2'],5,69,[-0.0711401],92,47,medium,minus,dotcolour,alfa,,,109,19,V,L,
544,40,40,12,4,36,44,617,['n'],1,right,['2'],5,52,[-0.0975247],98,44,hard,minus,dotcolour,alfa,,,109,19,V,L,
545,41,41,12,4,44,36,567,['n'],0,left,['2'],5,100,[-0.0688922],88,44,hard,minus,dotcolour,alfa,,,109,19,V,L,
546,42,0,13,4,44,36,1084,['n'],0,left,['2'],5,114,[-0.03178948],70,44,hard,minus,dotcolour,alfa,,,109,19,V,L,
547,43,1,13,4,47,33,783,['c'],1,left,['2'],5,319,[0.12745559],88,47,medium,minus,dotcolour,alfa,,,109,19,V,L,
548,44,2,13,4,44,36,700,['c'],1,left,['2'],5,120,[0.03370972],71,44,hard,minus,dotcolour,alfa,,,109,19,V,L,
549,45,3,13,4,36,44,634,['n'],1,right,['2'],5,140,[-0.08489102],89,44,hard,minus,dotcolour,alfa,,,109,19,V,L,
550,46,4,13,4,44,36,934,['n'],0,left,['3'],4,58,[-0.06842432],93,44,hard,minus,dotcolour,alfa,,,109,19,V,L,
551,47,5,13,4,36,44,1033,['c'],0,right,['3'],4,119,[0.03976097],74,44,hard,minus,dotcolour,alfa,,,109,19,V,L,
552,48,6,13,4,33,47,834,['c'],0,right,['3'],4,58,[0.04329869],83,47,medium,minus,dotcolour,alfa,,,109,19,V,L,
553,49,7,13,4,36,44,667,['c'],0,right,['3'],4,870,[0.0200284],55,44,hard,minus,dotcolour,alfa,,,109,19,V,L,
554,50,8,13,4,27,53,566,['n'],1,right,['3'],4,86,[-0.03123341],72,53,easy,minus,dotcolour,alfa,,,109,19,V,L,
555,51,9,13,4,47,33,666,['c'],1,left,['3'],4,97,[0.05701868],84,47,medium,minus,dotcolour,alfa,,,109,19,V,L,
556,52,10,13,4,27,53,583,['n'],1,right,['3'],4,15,[-0.0741012],100,53,easy,minus,dotcolour,alfa,,,109,19,V,L,
557,53,11,13,4,53,27,600,['c'],1,left,['3'],4,55,[0.08706626],97,53,easy,minus,dotcolour,alfa,,,109,19,V,L,
558,54,12,13,4,47,33,717,['c'],1,left,['3'],4,10,[0.07208388],100,47,medium,minus,dotcolour,alfa,,,109,19,V,L,
559,55,13,13,4,44,36,734,['n'],0,left,['3'],4,69,[-0.10830273],98,44,hard,minus,dotcolour,alfa,,,109,19,V,L,
560,56,14,13,4,33,47,583,['n'],1,right,['3'],4,37,[-0.12052414],100,47,medium,minus,dotcolour,alfa,,,109,19,V,L,
561,57,15,13,4,53,27,601,['c'],1,left,['3'],4,45,[0.08801004],98,53,easy,minus,dotcolour,alfa,,,109,19,V,L,
562,58,16,13,4,47,33,550,['c'],1,left,['3'],4,63,[0.05681184],88,47,medium,minus,dotcolour,alfa,,,109,19,V,L,
563,59,17,13,4,53,27,700,['c'],1,left,['2'],5,169,[0.11989208],93,53,easy,minus,dotcolour,alfa,,,109,19,V,L,
564,60,18,13,4,33,47,667,['n'],1,right,['2'],5,369,[-0.15044009],90,47,medium,minus,dotcolour,alfa,,,109,19,V,L,
565,61,19,13,4,33,47,666,['n'],1,right,['2'],5,721,[-0.35898244],98,47,medium,minus,dotcolour,alfa,,,109,19,V,L,
566,62,20,13,4,44,36,633,['n'],0,left,['2'],5,107,[-0.07249272],88,44,hard,minus,dotcolour,alfa,,,109,19,V,L,
567,63,21,13,4,33,47,733,['n'],1,right,['2'],5,67,[-0.07135513],92,47,medium,minus,dotcolour,alfa,,,109,19,V,L,
568,64,22,13,4,27,53,517,['n'],1,right,['2'],5,53,[-0.09206092],97,53,easy,minus,dotcolour,alfa,,,109,19,V,L,
569,65,23,13,4,47,33,1250,['c'],1,left,['2'],5,114,[0.08097907],90,47,medium,minus,dotcolour,alfa,,,109,19,V,L,
570,66,24,13,4,36,44,615,['n'],1,right,['2'],5,71,[-0.06002559],88,44,hard,minus,dotcolour,alfa,,,109,19,V,L,
571,67,25,13,4,44,36,568,['n'],0,left,['2'],5,351,[-0.09839627],82,44,hard,minus,dotcolour,alfa,,,109,19,V,L,
572,68,26,13,4,53,27,900,['c'],1,left,['2'],5,118,[0.16149209],99,53,easy,minus,dotcolour,alfa,,,109,19,V,L,
573,69,27,13,4,27,53,550,['n'],1,right,['2'],5,148,[-0.13915801],96,53,easy,minus,dotcolour,alfa,,,109,19,V,L,
574,70,28,13,4,36,44,584,['n'],1,right,['2'],5,121,[-0.10280984],93,44,hard,minus,dotcolour,alfa,,,109,19,V,L,
575,71,29,13,4,47,33,683,['n'],0,left,['2'],5,34,[-0.04645381],91,47,medium,minus,dotcolour,alfa,,,109,19,V,L,
576,72,30,13,4,27,53,617,['c'],0,right,['2'],5,161,[0.02656665],64,53,easy,minus,dotcolour,alfa,,,109,19,V,L,
577,73,31,13,4,47,33,567,['n'],0,left,['2'],5,117,[-0.12624589],97,47,medium,minus,dotcolour,alfa,,,109,19,V,L,
578,74,32,13,4,36,44,584,['n'],1,right,['2'],5,58,[-0.03990473],82,44,hard,minus,dotcolour,alfa,,,109,19,V,L,
579,75,33,13,4,53,27,950,['c'],1,left,['2'],5,171,[0.13425644],95,53,easy,minus,dotcolour,alfa,,,109,19,V,L,
580,76,34,13,4,27,53,601,['n'],1,right,['2'],5,45,[-0.06410126],94,53,easy,minus,dotcolour,alfa,,,109,19,V,L,
581,77,35,13,4,27,53,551,['n'],1,right,['2'],5,63,[-0.05497746],88,53,easy,minus,dotcolour,alfa,,,109,19,V,L,
582,78,36,13,4,44,36,651,['c'],1,left,['2'],5,99,[0.08579218],92,44,hard,minus,dotcolour,alfa,,,109,19,V,L,
583,79,37,13,4,33,47,567,['c'],0,right,['2'],5,170,[-0.00116935],49,47,medium,minus,dotcolour,alfa,,,109,19,V,L,
584,80,38,13,4,33,47,633,['n'],1,right,['2'],5,131,[-0.02562263],65,47,medium,minus,dotcolour,alfa,,,109,19,V,L,
585,81,39,13,4,36,44,683,['n'],1,right,['2'],5,156,[-0.06328371],81,44,hard,minus,dotcolour,alfa,,,109,19,V,L,
586,82,40,13,4,53,27,600,['c'],1,left,['2'],5,119,[0.08968591],91,53,easy,minus,dotcolour,alfa,,,109,19,V,L,
587,83,41,13,4,53,27,500,['c'],1,left,['2'],5,103,[0.06868718],87,53,easy,minus,dotcolour,alfa,,,109,19,V,L,
588,84,0,14,4,33,47,634,['n'],1,right,['2'],5,87,[-0.08307738],93,47,medium,minus,dotcolour,alfa,,,109,19,V,L,
589,85,1,14,4,47,33,900,['c'],1,left,['1'],6,121,[0.0457574],77,47,medium,minus,dotcolour,alfa,,,109,19,V,L,
590,86,2,14,4,36,44,667,['n'],1,right,['2'],5,251,[-0.06804591],77,44,hard,minus,dotcolour,alfa,,,109,19,V,L,
591,87,3,14,4,44,36,800,['c'],1,left,['2'],5,99,[0.0816821],91,44,hard,minus,dotcolour,alfa,,,109,19,V,L,
592,88,4,14,4,44,36,616,['c'],1,left,['2'],5,31,[0.07078061],97,44,hard,minus,dotcolour,alfa,,,109,19,V,L,
593,89,5,14,4,36,44,700,['n'],1,right,['2'],5,99,[-0.10940113],96,44,hard,minus,dotcolour,alfa,,,109,19,V,L,
594,90,6,14,4,44,36,1067,['c'],1,left,['2'],5,278,[0.08669029],81,44,hard,minus,dotcolour,alfa,,,109,19,V,L,
595,91,7,14,4,47,33,651,['c'],1,left,['2'],5,362,[0.17045859],93,47,medium,minus,dotcolour,alfa,,,109,19,V,L,
596,92,8,14,4,27,53,517,['n'],1,right,['2'],5,128,[-0.1085795],94,53,easy,minus,dotcolour,alfa,,,109,19,V,L,
597,93,9,14,4,53,27,601,['c'],1,left,['2'],5,76,[0.04467298],81,53,easy,minus,dotcolour,alfa,,,109,19,V,L,
598,94,10,14,4,47,33,667,['c'],1,left,['2'],5,95,[0.04281199],78,47,medium,minus,dotcolour,alfa,,,109,19,V,L,
599,95,11,14,4,36,44,700,['n'],1,right,['2'],5,224,[-0.12312824],91,44,hard,minus,dotcolour,alfa,,,109,19,V,L,
600,96,12,14,4,27,53,552,['n'],1,right,['2'],5,27,[-0.0414518],91,53,easy,minus,dotcolour,alfa,,,109,19,V,L,
601,97,13,14,4,36,44,517,['n'],1,right,['2'],5,141,[-0.09497382],91,44,hard,minus,dotcolour,alfa,,,109,19,V,L,
602,98,14,14,4,44,36,834,['c'],1,left,['2'],5,199,[0.0255418],63,44,hard,minus,dotcolour,alfa,,,109,19,V,L,
603,99,15,14,4,33,47,633,['n'],1,right,['2'],5,151,[-0.06506994],82,47,medium,minus,dotcolour,alfa,,,109,19,V,L,
604,100,16,14,4,44,36,667,['n'],0,left,['8'],3,913,[0.05562065],37,44,hard,minus,dotcolour,alfa,,,109,19,V,L,
605,101,17,14,4,27,53,600,['n'],1,right,['2'],5,149,[-0.11005786],93,53,easy,minus,dotcolour,alfa,,,109,19,V,L,
606,102,18,14,4,47,33,666,['c'],1,left,['2'],5,934,[0.20378358],87,47,medium,minus,dotcolour,alfa,,,109,19,V,L,
607,103,19,14,4,44,36,550,['c'],1,left,['2'],5,139,[0.03700947],71,44,hard,minus,dotcolour,alfa,,,109,19,V,L,
608,104,20,14,4,53,27,583,['c'],1,left,['2'],5,39,[0.10422348],99,53,easy,minus,dotcolour,alfa,,,109,19,V,L,
609,105,21,14,4,47,33,484,['n'],0,left,['8'],3,732,[-0.16408935],85,47,medium,minus,dotcolour,alfa,,,109,19,V,L,
610,106,22,14,4,53,27,600,['c'],1,left,['2'],5,120,[0.04129169],75,53,easy,minus,dotcolour,alfa,,,109,19,V,L,
611,107,23,14,4,33,47,651,['c'],0,right,['1'],6,163,[0.05088393],76,47,medium,minus,dotcolour,alfa,,,109,19,V,L,
612,108,24,14,4,53,27,784,['n'],0,left,['2'],5,198,[-0.06526024],79,53,easy,minus,dotcolour,alfa,,,109,19,V,L,
613,109,25,14,4,27,53,567,['n'],1,right,['2'],5,73,[-0.08692382],95,53,easy,minus,dotcolour,alfa,,,109,19,V,L,
614,110,26,14,4,36,44,617,['c'],0,right,['2'],5,199,[0.08254733],84,44,hard,minus,dotcolour,alfa,,,109,19,V,L,
615,111,27,14,4,36,44,516,['n'],1,right,['2'],5,148,[-0.03863063],71,44,hard,minus,dotcolour,alfa,,,109,19,V,L,
616,112,28,14,4,53,27,617,['c'],1,left,['2'],5,94,[0.07506407],90,53,easy,minus,dotcolour,alfa,,,109,19,V,L,
617,113,29,14,4,27,53,417,['n'],1,right,['2'],5,123,[-0.11164954],95,53,easy,minus,dotcolour,alfa,,,109,19,V,L,
618,114,30,14,4,36,44,534,['n'],1,right,['2'],5,50,[-0.07808386],96,44,hard,minus,dotcolour,alfa,,,109,19,V,L,
619,115,31,14,4,53,27,650,['c'],1,left,['2'],5,95,[0.0943679],94,53,easy,minus,dotcolour,alfa,,,109,19,V,L,
620,116,32,14,4,47,33,867,['c'],1,left,['2'],5,25,[0.06746506],98,47,medium,minus,dotcolour,alfa,,,109,19,V,L,
621,117,33,14,4,53,27,534,['n'],0,left,['2'],5,100,[-0.08212571],91,53,easy,minus,dotcolour,alfa,,,109,19,V,L,
622,118,34,14,4,27,53,867,['n'],1,right,['1'],6,279,[-0.00198106],51,53,easy,minus,dotcolour,alfa,,,109,19,V,L,
623,119,35,14,4,47,33,733,['n'],0,left,['2'],5,183,[-0.04526286],72,47,medium,minus,dotcolour,alfa,,,109,19,V,L,
624,120,36,14,4,44,36,501,['c'],1,left,['2'],5,125,[-0.01690115],39,44,hard,minus,dotcolour,alfa,,,109,19,V,L,
625,121,37,14,4,33,47,567,['c'],0,right,['2'],5,51,[0.0745303],95,47,medium,minus,dotcolour,alfa,,,109,19,V,L,
626,122,38,14,4,33,47,717,['n'],1,right,['2'],5,117,[-0.03958917],74,47,medium,minus,dotcolour,alfa,,,109,19,V,L,
627,123,39,14,4,33,47,866,['n'],1,right,['2'],5,232,[-0.1672254],96,47,medium,minus,dotcolour,alfa,,,109,19,V,L,
628,124,40,14,4,33,47,666,['n'],1,right,['2'],5,109,[-0.10057106],94,47,medium,minus,dotcolour,alfa,,,109,19,V,L,
629,125,41,14,4,27,53,868,['c'],0,right,['3'],4,183,[0.05848147],77,53,easy,minus,dotcolour,alfa,,,109,19,V,L,
630,0,0,15,5,47,33,701,['c'],1,left,['2'],5,47,[0.08314157],100,47,medium,plus,dotcolour,alfa,,,109,19,V,L,
631,1,1,15,5,53,27,466,['n'],0,left,['2'],5,124,[-0.04350902],99,53,easy,plus,dotcolour,alfa,,,109,19,V,L,
632,2,2,15,5,36,44,618,['c'],0,right,['2'],5,127,[0.07320194],100,44,hard,plus,dotcolour,alfa,,,109,19,V,L,
633,3,3,15,5,44,36,784,['c'],1,left,['2'],5,147,[0.08422518],100,44,hard,plus,dotcolour,alfa,,,109,19,V,L,
634,4,4,15,5,44,36,516,['c'],1,left,['2'],5,98,[0.09852447],100,44,hard,plus,dotcolour,alfa,,,109,19,V,L,
635,5,5,15,5,53,27,783,['c'],1,left,['2'],5,88,[0.07092325],100,53,easy,plus,dotcolour,alfa,,,109,19,V,L,
636,6,6,15,5,33,47,549,['n'],1,right,['2'],5,129,[-0.09393105],100,47,medium,plus,dotcolour,alfa,,,109,19,V,L,
637,7,7,15,5,47,33,634,['c'],1,left,['2'],5,82,[0.06105905],100,47,medium,plus,dotcolour,alfa,,,109,19,V,L,
638,8,8,15,5,27,53,633,['n'],1,right,['2'],5,79,[-0.10023798],100,53,easy,plus,dotcolour,alfa,,,109,19,V,L,
639,9,9,15,5,27,53,634,['n'],1,right,['2'],5,116,[-0.12819859],100,53,easy,plus,dotcolour,alfa,,,109,19,V,L,
640,10,10,15,5,27,53,584,['n'],1,right,['2'],5,65,[-0.10174562],100,53,easy,plus,dotcolour,alfa,,,109,19,V,L,
641,11,11,15,5,53,27,517,['n'],0,left,['2'],5,843,[0.10764439],1,53,easy,plus,dotcolour,alfa,,,109,19,V,L,
642,12,12,15,5,33,47,884,['c'],0,right,['2'],5,175,[-0.01335668],24,47,medium,plus,dotcolour,alfa,,,109,19,V,L,
643,13,13,15,5,33,47,684,['c'],0,right,['2'],5,726,[0.02572947],75,47,medium,plus,dotcolour,alfa,,,109,19,V,L,
644,14,14,15,5,36,44,716,['n'],1,right,['2'],5,62,[-0.06340809],100,44,hard,plus,dotcolour,alfa,,,109,19,V,L,
645,15,15,15,5,27,53,501,['n'],1,right,['2'],5,112,[-0.08589872],100,53,easy,plus,dotcolour,alfa,,,109,19,V,L,
646,16,16,15,5,47,33,650,['c'],1,left,['2'],5,35,[0.0737887],100,47,medium,plus,dotcolour,alfa,,,109,19,V,L,
647,17,17,15,5,47,33,967,['c'],1,left,['2'],5,180,[0.12337922],100,47,medium,plus,dotcolour,alfa,,,109,19,V,L,
648,18,18,15,5,44,36,766,['n'],0,left,['2'],5,152,[-0.05961531],100,44,hard,plus,dotcolour,alfa,,,109,19,V,L,
649,19,19,15,5,36,44,651,['n'],1,right,['2'],5,121,[-0.06440108],100,44,hard,plus,dotcolour,alfa,,,109,19,V,L,
650,20,20,15,5,44,36,684,['c'],1,left,['2'],5,266,[0.16164112],100,44,hard,plus,dotcolour,alfa,,,109,19,V,L,
651,21,21,15,5,36,44,718,['n'],1,right,['2'],5,140,[-0.13136481],100,44,hard,plus,dotcolour,alfa,,,109,19,V,L,
652,22,22,15,5,53,27,567,['c'],1,left,['2'],5,264,[0.14539951],100,53,easy,plus,dotcolour,alfa,,,109,19,V,L,
653,23,23,15,5,27,53,634,['n'],1,right,['2'],5,94,[-0.04804476],100,53,easy,plus,dotcolour,alfa,,,109,19,V,L,
654,24,24,15,5,36,44,767,['c'],0,right,['2'],5,93,[0.08460643],100,44,hard,plus,dotcolour,alfa,,,109,19,V,L,
655,25,25,15,5,36,44,801,['n'],1,right,['2'],5,121,[-0.11357246],100,44,hard,plus,dotcolour,alfa,,,109,19,V,L,
656,26,26,15,5,44,36,667,['c'],1,left,['2'],5,308,[0.10800129],100,44,hard,plus,dotcolour,alfa,,,109,19,V,L,
657,27,27,15,5,33,47,584,['c'],0,right,['2'],5,121,[0.07731165],100,47,medium,plus,dotcolour,alfa,,,109,19,V,L,
658,28,28,15,5,33,47,449,['n'],1,right,['2'],5,132,[-0.11687849],100,47,medium,plus,dotcolour,alfa,,,109,19,V,L,
659,29,29,15,5,53,27,483,['c'],1,left,['2'],5,76,[0.09688414],100,53,easy,plus,dotcolour,alfa,,,109,19,V,L,
660,30,30,15,5,27,53,583,['n'],1,right,['2'],5,84,[-0.10187319],100,53,easy,plus,dotcolour,alfa,,,109,19,V,L,
661,31,31,15,5,47,33,700,['c'],1,left,['2'],5,53,[0.06312482],100,47,medium,plus,dotcolour,alfa,,,109,19,V,L,
662,32,32,15,5,44,36,616,['n'],0,left,['2'],5,124,[-0.0527028],100,44,hard,plus,dotcolour,alfa,,,109,19,V,L,
663,33,33,15,5,44,36,483,['c'],1,left,['2'],5,109,[0.06762908],100,44,hard,plus,dotcolour,alfa,,,109,19,V,L,
664,34,34,15,5,33,47,600,['n'],1,right,['2'],5,81,[-0.09362335],100,47,medium,plus,dotcolour,alfa,,,109,19,V,L,
665,35,35,15,5,47,33,600,['c'],1,left,['2'],5,39,[0.10156875],100,47,medium,plus,dotcolour,alfa,,,109,19,V,L,
666,36,36,15,5,36,44,684,['c'],0,right,['2'],5,4,[0.06789942],100,44,hard,plus,dotcolour,alfa,,,109,19,V,L,
667,37,37,15,5,53,27,600,['c'],1,left,['2'],5,117,[0.10075397],100,53,easy,plus,dotcolour,alfa,,,109,19,V,L,
668,38,38,15,5,33,47,683,['n'],1,right,['1'],6,135,[-0.05646879],100,47,medium,plus,dotcolour,alfa,,,109,19,V,L,
669,39,39,15,5,47,33,583,['c'],1,left,['2'],5,99,[0.10171267],100,47,medium,plus,dotcolour,alfa,,,109,19,V,L,
670,40,40,15,5,27,53,683,['n'],1,right,['2'],5,229,[-0.09658162],100,53,easy,plus,dotcolour,alfa,,,109,19,V,L,
671,41,41,15,5,53,27,583,['c'],1,left,['2'],5,102,[0.07393072],100,53,easy,plus,dotcolour,alfa,,,109,19,V,L,
672,42,0,16,5,33,47,750,['n'],1,right,['2'],5,101,[-0.04333905],99,47,medium,plus,dotcolour,alfa,,,109,19,V,L,
673,43,1,16,5,44,36,483,['c'],1,left,['2'],5,87,[0.07520082],100,44,hard,plus,dotcolour,alfa,,,109,19,V,L,
674,44,2,16,5,44,36,833,['c'],1,left,['2'],5,99,[0.08157249],100,44,hard,plus,dotcolour,alfa,,,109,19,V,L,
675,45,3,16,5,27,53,466,['n'],1,right,['2'],5,126,[-0.10202985],100,53,easy,plus,dotcolour,alfa,,,109,19,V,L,
676,46,4,16,5,47,33,684,['c'],1,left,['2'],5,119,[0.05542632],100,47,medium,plus,dotcolour,alfa,,,109,19,V,L,
677,47,5,16,5,44,36,884,['n'],0,left,['2'],5,56,[-0.06887381],100,44,hard,plus,dotcolour,alfa,,,109,19,V,L,
678,48,6,16,5,36,44,718,['c'],0,right,['2'],5,74,[0.05286824],100,44,hard,plus,dotcolour,alfa,,,109,19,V,L,
679,49,7,16,5,36,44,767,['n'],1,right,['2'],5,58,[-0.06524747],100,44,hard,plus,dotcolour,alfa,,,109,19,V,L,
680,50,8,16,5,53,27,650,['c'],1,left,['2'],5,126,[0.10632952],100,53,easy,plus,dotcolour,alfa,,,109,19,V,L,
681,51,9,16,5,33,47,717,['n'],1,right,['2'],5,158,[-0.12604485],100,47,medium,plus,dotcolour,alfa,,,109,19,V,L,
682,52,10,16,5,53,27,716,['c'],1,left,['2'],5,116,[0.08051674],100,53,easy,plus,dotcolour,alfa,,,109,19,V,L,
683,53,11,16,5,27,53,549,['n'],1,right,['2'],5,146,[-0.09655873],100,53,easy,plus,dotcolour,alfa,,,109,19,V,L,
684,54,12,16,5,53,27,566,['c'],1,left,['2'],5,103,[0.14125239],100,53,easy,plus,dotcolour,alfa,,,109,19,V,L,
685,55,13,16,5,53,27,584,['n'],0,left,['2'],5,221,[-0.00436433],58,53,easy,plus,dotcolour,alfa,,,109,19,V,L,
686,56,14,16,5,47,33,616,['n'],0,left,['2'],5,13,[-0.07497091],100,47,medium,plus,dotcolour,alfa,,,109,19,V,L,
687,57,15,16,5,47,33,483,['n'],0,left,['2'],5,850,[0.05780769],9,47,medium,plus,dotcolour,alfa,,,109,19,V,L,
688,58,16,16,5,36,44,683,['n'],1,right,['2'],5,94,[-0.10464136],100,44,hard,plus,dotcolour,alfa,,,109,19,V,L,
689,59,17,16,5,36,44,767,['n'],1,right,['2'],5,21,[-0.06669988],100,44,hard,plus,dotcolour,alfa,,,109,19,V,L,
690,60,18,16,5,33,47,684,['n'],1,right,['2'],5,99,[-0.12407995],100,47,medium,plus,dotcolour,alfa,,,109,19,V,L,
691,61,19,16,5,47,33,483,['c'],1,left,['2'],5,380,[0.09013087],99,47,medium,plus,dotcolour,alfa,,,109,19,V,L,
692,62,20,16,5,33,47,866,['n'],1,right,['2'],5,52,[-0.05002959],100,47,medium,plus,dotcolour,alfa,,,109,19,V,L,
693,63,21,16,5,44,36,800,['c'],1,left,['2'],5,100,[0.06501221],100,44,hard,plus,dotcolour,alfa,,,109,19,V,L,
694,64,22,16,5,27,53,550,['n'],1,right,['2'],5,90,[-0.07786272],100,53,easy,plus,dotcolour,alfa,,,109,19,V,L,
695,65,23,16,5,53,27,683,['c'],1,left,['2'],5,116,[0.01494484],83,53,easy,plus,dotcolour,alfa,,,109,19,V,L,
696,66,24,16,5,44,36,600,['n'],0,left,['2'],5,25,[-0.0325863],100,44,hard,plus,dotcolour,alfa,,,109,19,V,L,
697,67,25,16,5,47,33,567,['c'],1,left,['2'],5,91,[0.08740862],100,47,medium,plus,dotcolour,alfa,,,109,19,V,L,
698,68,26,16,5,53,27,567,['n'],0,left,['2'],5,82,[-0.06614101],100,53,easy,plus,dotcolour,alfa,,,109,19,V,L,
699,69,27,16,5,47,33,617,['c'],1,left,['2'],5,79,[0.01671169],89,47,medium,plus,dotcolour,alfa,,,109,19,V,L,
700,70,28,16,5,36,44,882,['n'],1,right,['2'],5,106,[-0.05528767],100,44,hard,plus,dotcolour,alfa,,,109,19,V,L,
701,71,29,16,5,27,53,649,['n'],1,right,['2'],5,141,[-0.16192286],100,53,easy,plus,dotcolour,alfa,,,109,19,V,L,
702,72,30,16,5,27,53,584,['n'],1,right,['2'],5,24,[-0.06231452],100,53,easy,plus,dotcolour,alfa,,,109,19,V,L,
703,73,31,16,5,33,47,533,['n'],1,right,['2'],5,59,[-0.05052889],100,47,medium,plus,dotcolour,alfa,,,109,19,V,L,
704,74,32,16,5,36,44,783,['n'],1,right,['2'],5,227,[-0.08081464],100,44,hard,plus,dotcolour,alfa,,,109,19,V,L,
705,75,33,16,5,33,47,517,['n'],1,right,['2'],5,174,[-0.07401609],100,47,medium,plus,dotcolour,alfa,,,109,19,V,L,
706,76,34,16,5,27,53,600,['n'],1,right,['2'],5,696,[-0.25225377],100,53,easy,plus,dotcolour,alfa,,,109,19,V,L,
707,77,35,16,5,47,33,784,['c'],1,left,['2'],5,94,[0.05779469],100,47,medium,plus,dotcolour,alfa,,,109,19,V,L,
708,78,36,16,5,36,44,635,['n'],1,right,['2'],5,58,[-0.08729077],100,44,hard,plus,dotcolour,alfa,,,109,19,V,L,
709,79,37,16,5,27,53,533,['n'],1,right,['2'],5,52,[-0.11517517],100,53,easy,plus,dotcolour,alfa,,,109,19,V,L,
710,80,38,16,5,53,27,584,['n'],0,left,['2'],5,268,[0.00928245],34,53,easy,plus,dotcolour,alfa,,,109,19,V,L,
711,81,39,16,5,33,47,767,['c'],0,right,['2'],5,28,[0.05800405],100,47,medium,plus,dotcolour,alfa,,,109,19,V,L,
712,82,40,16,5,44,36,599,['c'],1,left,['2'],5,52,[0.0883078],100,44,hard,plus,dotcolour,alfa,,,109,19,V,L,
713,83,41,16,5,44,36,600,['c'],1,left,['2'],5,19,[0.09323606],100,44,hard,plus,dotcolour,alfa,,,109,19,V,L,
714,84,0,17,5,33,47,585,['n'],1,right,['2'],5,97,[-0.04844819],100,47,medium,plus,dotcolour,alfa,,,109,19,V,L,
715,85,1,17,5,47,33,518,['n'],0,left,['2'],5,114,[-0.01251649],79,47,medium,plus,dotcolour,alfa,,,109,19,V,L,
716,86,2,17,5,33,47,534,['n'],1,right,['2'],5,89,[-0.04974051],100,47,medium,plus,dotcolour,alfa,,,109,19,V,L,
717,87,3,17,5,36,44,500,['n'],1,right,['2'],5,122,[-0.08132156],100,44,hard,plus,dotcolour,alfa,,,109,19,V,L,
718,88,4,17,5,36,44,484,['n'],1,right,['2'],5,59,[-0.07256209],100,44,hard,plus,dotcolour,alfa,,,109,19,V,L,
719,89,5,17,5,44,36,501,['n'],0,left,['2'],5,78,[-0.05982722],100,44,hard,plus,dotcolour,alfa,,,109,19,V,L,
720,90,6,17,5,44,36,717,['c'],1,left,['2'],5,47,[0.04925334],100,44,hard,plus,dotcolour,alfa,,,109,19,V,L,
721,91,7,17,5,36,44,385,['n'],1,right,['2'],5,134,[-0.04628795],99,44,hard,plus,dotcolour,alfa,,,109,19,V,L,
722,92,8,17,5,47,33,667,['c'],1,left,['2'],5,119,[0.09596839],100,47,medium,plus,dotcolour,alfa,,,109,19,V,L,
723,93,9,17,5,47,33,1750,['c'],1,left,['2'],5,134,[0.09971027],100,47,medium,plus,dotcolour,alfa,,,109,19,V,L,
724,94,10,17,5,44,36,701,['c'],1,left,['2'],5,95,[0.09551353],100,44,hard,plus,dotcolour,alfa,,,109,19,V,L,
725,95,11,17,5,33,47,634,['n'],1,right,['2'],5,90,[-0.0185577],90,47,medium,plus,dotcolour,alfa,,,109,19,V,L,
726,96,12,17,5,47,33,584,['c'],1,left,['2'],5,48,[0.03192709],99,47,medium,plus,dotcolour,alfa,,,109,19,V,L,
727,97,13,17,5,33,47,567,['n'],1,right,['2'],5,97,[-0.18367639],100,47,medium,plus,dotcolour,alfa,,,109,19,V,L,
728,98,14,17,5,33,47,600,['n'],1,right,['2'],5,46,[-0.04220185],100,47,medium,plus,dotcolour,alfa,,,109,19,V,L,
729,99,15,17,5,27,53,550,['n'],1,right,['2'],5,56,[-0.04265886],100,53,easy,plus,dotcolour,alfa,,,109,19,V,L,
730,100,16,17,5,53,27,534,['c'],1,left,['2'],5,82,[0.06946344],100,53,easy,plus,dotcolour,alfa,,,109,19,V,L,
731,101,17,17,5,27,53,534,['n'],1,right,['2'],5,122,[-0.03698256],98,53,easy,plus,dotcolour,alfa,,,109,19,V,L,
732,102,18,17,5,53,27,617,['c'],1,left,['2'],5,197,[0.09146867],100,53,easy,plus,dotcolour,alfa,,,109,19,V,L,
733,103,19,17,5,27,53,483,['c'],0,right,['2'],5,11,[0.06696179],100,53,easy,plus,dotcolour,alfa,,,109,19,V,L,
734,104,20,17,5,33,47,466,['n'],1,right,['2'],5,106,[-0.09719397],100,47,medium,plus,dotcolour,alfa,,,109,19,V,L,
735,105,21,17,5,47,33,466,['n'],0,left,['2'],5,109,[-0.08066122],100,47,medium,plus,dotcolour,alfa,,,109,19,V,L,
736,106,22,17,5,27,53,451,['n'],1,right,['2'],5,64,[-0.08557915],100,53,easy,plus,dotcolour,alfa,,,109,19,V,L,
737,107,23,17,5,53,27,484,['n'],0,left,['2'],5,602,[-0.00249994],53,53,easy,plus,dotcolour,alfa,,,109,19,V,L,
738,108,24,17,5,44,36,667,['c'],1,left,['2'],5,49,[0.07556966],100,44,hard,plus,dotcolour,alfa,,,109,19,V,L,
739,109,25,17,5,53,27,650,['c'],1,left,['2'],5,63,[0.05581095],100,53,easy,plus,dotcolour,alfa,,,109,19,V,L,
740,110,26,17,5,53,27,584,['c'],1,left,['2'],5,37,[0.0699035],100,53,easy,plus,dotcolour,alfa,,,109,19,V,L,
741,111,27,17,5,33,47,583,['n'],1,right,['2'],5,15,[-0.06472625],100,47,medium,plus,dotcolour,alfa,,,109,19,V,L,
742,112,28,17,5,44,36,584,['c'],1,left,['2'],5,71,[0.07719985],100,44,hard,plus,dotcolour,alfa,,,109,19,V,L,
743,113,29,17,5,36,44,517,['n'],1,right,['2'],5,522,[-0.14845473],100,44,hard,plus,dotcolour,alfa,,,109,19,V,L,
744,114,30,17,5,36,44,784,['n'],1,right,['2'],5,62,[-0.06568142],100,44,hard,plus,dotcolour,alfa,,,109,19,V,L,
745,115,31,17,5,53,27,533,['c'],1,left,['2'],5,79,[0.06512894],100,53,easy,plus,dotcolour,alfa,,,109,19,V,L,
746,116,32,17,5,47,33,701,['c'],1,left,['2'],5,33,[0.09502678],100,47,medium,plus,dotcolour,alfa,,,109,19,V,L,
747,117,33,17,5,36,44,584,['c'],0,right,['2'],5,50,[0.0281457],99,44,hard,plus,dotcolour,alfa,,,109,19,V,L,
748,118,34,17,5,27,53,466,['n'],1,right,['2'],5,86,[-0.1039651],100,53,easy,plus,dotcolour,alfa,,,109,19,V,L,
749,119,35,17,5,27,53,466,['n'],1,right,['2'],5,34,[-0.10583663],100,53,easy,plus,dotcolour,alfa,,,109,19,V,L,
750,120,36,17,5,44,36,667,['c'],1,left,['2'],5,39,[0.07715813],100,44,hard,plus,dotcolour,alfa,,,109,19,V,L,
751,121,37,17,5,53,27,617,['c'],1,left,['2'],5,39,[0.09923078],100,53,easy,plus,dotcolour,alfa,,,109,19,V,L,
752,122,38,17,5,27,53,417,['n'],1,right,['2'],5,78,[-0.06995158],100,53,easy,plus,dotcolour,alfa,,,109,19,V,L,
753,123,39,17,5,44,36,516,['c'],1,left,['2'],5,31,[0.07421637],100,44,hard,plus,dotcolour,alfa,,,109,19,V,L,
754,124,40,17,5,36,44,600,['n'],1,right,['2'],5,39,[-0.07808828],100,44,hard,plus,dotcolour,alfa,,,109,19,V,L,
755,125,41,17,5,47,33,683,['c'],1,left,['2'],5,108,[0.15242645],100,47,medium,plus,dotcolour,alfa,,,109,19,V,L,
,,,,,,,,,,,,,,,,,,,,,1,ik heb het gevoel dat de procenten niet juist zijn,109,19,V,L,
,,,,,,,,,,,,,,,,,,,,,2,['f'],109,19,V,L,
,,,,,,,,,,,,,,,,,,,,,3,['d'],109,19,V,L,
,,,,,,,,,,,,,,,,,,,,,5,"['3', '5']",109,19,V,L,
