trial,withinphasetrial,withinblocktrial,block,phase,dotsLeft,dotsRight,rt,resp,cor,cresp,conf_press,cj,RTconf,ev,fb,diff,difflevel,condition,task,manip,questionID,questionResp,sub,age,gender,handedness,
0,0,0,0,0,33,47,783,['c'],0,right,['3'],4,2933,[-0.21305179],25,47,medium,minus,dotcolour,alfa,,,117,19,V,R,
1,1,1,0,0,36,44,1566,['n'],1,right,['1'],6,945,[-0.02081302],55,44,hard,minus,dotcolour,alfa,,,117,19,V,R,
2,2,2,0,0,44,36,1285,['c'],1,left,['1'],6,648,[0.14041985],83,44,hard,minus,dotcolour,alfa,,,117,19,V,R,
3,3,3,0,0,33,47,901,['n'],1,right,['9'],2,948,[-0.29573393],94,47,medium,minus,dotcolour,alfa,,,117,19,V,R,
4,4,4,0,0,44,36,1733,['c'],1,left,['2'],5,682,[0.15409485],84,44,hard,minus,dotcolour,alfa,,,117,19,V,R,
5,5,5,0,0,47,33,1016,['c'],1,left,['2'],5,335,[0.1629194],93,47,medium,minus,dotcolour,alfa,,,117,19,V,R,
6,6,6,0,0,44,36,1633,['c'],1,left,['3'],4,209,[0.03408812],66,44,hard,minus,dotcolour,alfa,,,117,19,V,R,
7,7,7,0,0,36,44,3065,['n'],1,right,['8'],3,256,[0.038019],34,44,hard,minus,dotcolour,alfa,,,117,19,V,R,
8,8,8,0,0,47,33,2616,['c'],1,left,['3'],4,310,[0.15913861],93,47,medium,minus,dotcolour,alfa,,,117,19,V,R,
9,9,9,0,0,27,53,1466,['n'],1,right,['1'],6,456,[-0.11151953],82,53,easy,minus,dotcolour,alfa,,,117,19,V,R,
10,10,10,0,0,44,36,2766,['c'],1,left,['3'],4,216,[0.06565465],78,44,hard,minus,dotcolour,alfa,,,117,19,V,R,
11,11,11,0,0,44,36,3500,['c'],1,left,['8'],3,164,[0.10337423],91,44,hard,minus,dotcolour,alfa,,,117,19,V,R,
12,12,12,0,0,44,36,2583,['n'],0,left,['3'],4,296,[-0.08408305],80,44,hard,minus,dotcolour,alfa,,,117,19,V,R,
13,13,13,0,0,53,27,1152,['c'],1,left,['2'],5,255,[0.16321818],95,53,easy,minus,dotcolour,alfa,,,117,19,V,R,
14,14,14,0,0,53,27,917,['c'],1,left,['1'],6,234,[0.08553353],83,53,easy,minus,dotcolour,alfa,,,117,19,V,R,
15,15,15,0,0,53,27,2168,['c'],1,left,['2'],5,155,[0.11515704],93,53,easy,minus,dotcolour,alfa,,,117,19,V,R,
16,16,16,0,0,33,47,1784,['n'],1,right,['3'],4,199,[-0.11865144],92,47,medium,minus,dotcolour,alfa,,,117,19,V,R,
17,17,17,0,0,53,27,1701,['c'],1,left,['2'],5,228,[0.10822849],88,53,easy,minus,dotcolour,alfa,,,117,19,V,R,
18,18,18,0,0,47,33,1067,['c'],1,left,['3'],4,553,[0.08502246],74,47,medium,minus,dotcolour,alfa,,,117,19,V,R,
19,19,19,0,0,53,27,1350,['c'],1,left,['3'],4,254,[0.07844856],80,53,easy,minus,dotcolour,alfa,,,117,19,V,R,
20,20,20,0,0,33,47,1983,['c'],0,right,['8'],3,222,[0.03361127],66,47,medium,minus,dotcolour,alfa,,,117,19,V,R,
21,21,21,0,0,36,44,1767,['n'],1,right,['8'],3,272,[-0.18015709],96,44,hard,minus,dotcolour,alfa,,,117,19,V,R,
22,22,22,0,0,27,53,1467,['n'],1,right,['8'],3,267,[-0.09954531],85,53,easy,minus,dotcolour,alfa,,,117,19,V,R,
23,23,23,0,0,53,27,633,['c'],1,left,['1'],6,345,[0.08260539],78,53,easy,minus,dotcolour,alfa,,,117,19,V,R,
24,24,24,0,0,47,33,1149,['c'],1,left,['3'],4,286,[0.06724811],76,47,medium,minus,dotcolour,alfa,,,117,19,V,R,
25,25,25,0,0,44,36,867,['c'],1,left,['3'],4,248,[0.12402588],90,44,hard,minus,dotcolour,alfa,,,117,19,V,R,
26,26,26,0,0,36,44,816,['c'],0,right,['3'],4,392,[0.09502796],80,44,hard,minus,dotcolour,alfa,,,117,19,V,R,
27,27,27,0,0,47,33,666,['c'],1,left,['2'],5,831,[0.19105469],87,47,medium,minus,dotcolour,alfa,,,117,19,V,R,
28,28,28,0,0,27,53,735,['n'],1,right,['2'],5,914,[-0.07841853],68,53,easy,minus,dotcolour,alfa,,,117,19,V,R,
29,29,29,0,0,47,33,899,['c'],1,left,['2'],5,378,[0.09514727],80,47,medium,minus,dotcolour,alfa,,,117,19,V,R,
30,30,30,0,0,27,53,684,['n'],1,right,['2'],5,312,[-0.14671187],91,53,easy,minus,dotcolour,alfa,,,117,19,V,R,
31,31,31,0,0,36,44,833,['c'],0,right,['3'],4,604,[0.03934271],61,44,hard,minus,dotcolour,alfa,,,117,19,V,R,
32,32,32,0,0,36,44,1200,['n'],1,right,['8'],3,541,[-0.01292886],54,44,hard,minus,dotcolour,alfa,,,117,19,V,R,
33,33,33,0,0,47,33,768,['c'],1,left,['2'],5,577,[0.24547734],95,47,medium,minus,dotcolour,alfa,,,117,19,V,R,
34,34,34,0,0,36,44,2250,['n'],1,right,['3'],4,433,[-0.13820696],87,44,hard,minus,dotcolour,alfa,,,117,19,V,R,
35,35,35,0,0,27,53,1199,['n'],1,right,['3'],4,178,[-0.13676654],95,53,easy,minus,dotcolour,alfa,,,117,19,V,R,
36,36,36,0,0,27,53,1634,['n'],1,right,['3'],4,218,[-0.05940379],76,53,easy,minus,dotcolour,alfa,,,117,19,V,R,
37,37,37,0,0,53,27,750,['c'],1,left,['2'],5,692,[0.08428078],71,53,easy,minus,dotcolour,alfa,,,117,19,V,R,
38,38,38,0,0,33,47,833,['n'],1,right,['2'],5,441,[-0.29678447],98,47,medium,minus,dotcolour,alfa,,,117,19,V,R,
39,39,39,0,0,33,47,834,['c'],0,right,['2'],5,350,[0.01204827],55,47,medium,minus,dotcolour,alfa,,,117,19,V,R,
40,40,40,0,0,27,53,785,['n'],1,right,['2'],5,307,[-0.13649038],90,53,easy,minus,dotcolour,alfa,,,117,19,V,R,
41,41,41,0,0,33,47,633,['n'],1,right,['2'],5,270,[-0.09808186],85,47,medium,minus,dotcolour,alfa,,,117,19,V,R,
42,42,0,1,0,33,47,1184,['c'],0,right,['3'],4,595,[0.02021647],56,47,medium,minus,dotcolour,alfa,,,117,19,V,R,
43,43,1,1,0,53,27,1900,['c'],1,left,['2'],5,912,[0.19284931],86,53,easy,minus,dotcolour,alfa,,,117,19,V,R,
44,44,2,1,0,44,36,1084,['c'],1,left,['2'],5,361,[0.11092988],84,44,hard,minus,dotcolour,alfa,,,117,19,V,R,
45,45,3,1,0,44,36,917,['n'],0,left,['3'],4,368,[-0.03718678],63,44,hard,minus,dotcolour,alfa,,,117,19,V,R,
46,46,4,1,0,33,47,482,['n'],1,right,['3'],4,319,[-0.1174943],87,47,medium,minus,dotcolour,alfa,,,117,19,V,R,
47,47,5,1,0,53,27,1317,['c'],1,left,['1'],6,150,[0.07636141],86,53,easy,minus,dotcolour,alfa,,,117,19,V,R,
48,48,6,1,0,47,33,1318,['c'],1,left,['2'],5,190,[0.05513552],76,47,medium,minus,dotcolour,alfa,,,117,19,V,R,
49,49,7,1,0,27,53,1350,['n'],1,right,['9'],2,425,[-0.09879473],80,53,easy,minus,dotcolour,alfa,,,117,19,V,R,
50,50,8,1,0,53,27,1351,['c'],1,left,['2'],5,203,[0.11008903],90,53,easy,minus,dotcolour,alfa,,,117,19,V,R,
51,51,9,1,0,44,36,933,['c'],1,left,['2'],5,335,[0.17716582],94,44,hard,minus,dotcolour,alfa,,,117,19,V,R,
52,52,10,1,0,53,27,817,['c'],1,left,['1'],6,626,[0.17277683],88,53,easy,minus,dotcolour,alfa,,,117,19,V,R,
53,53,11,1,0,47,33,783,['c'],1,left,['3'],4,339,[0.09692607],82,47,medium,minus,dotcolour,alfa,,,117,19,V,R,
54,54,12,1,0,47,33,1666,['c'],1,left,['8'],3,187,[0.01613218],58,47,medium,minus,dotcolour,alfa,,,117,19,V,R,
55,55,13,1,0,33,47,716,['n'],1,right,['8'],3,312,[-0.1701335],94,47,medium,minus,dotcolour,alfa,,,117,19,V,R,
56,56,14,1,0,27,53,1101,['n'],1,right,['2'],5,457,[-0.13291434],85,53,easy,minus,dotcolour,alfa,,,117,19,V,R,
57,57,15,1,0,44,36,1383,['n'],0,left,['3'],4,856,[-0.06086776],64,44,hard,minus,dotcolour,alfa,,,117,19,V,R,
58,58,16,1,0,53,27,1067,['c'],1,left,['3'],4,580,[0.16291173],87,53,easy,minus,dotcolour,alfa,,,117,19,V,R,
59,59,17,1,0,33,47,717,['n'],1,right,['2'],5,857,[-0.13094139],78,47,medium,minus,dotcolour,alfa,,,117,19,V,R,
60,60,18,1,0,36,44,1668,['c'],0,right,['8'],3,181,[0.03494688],68,44,hard,minus,dotcolour,alfa,,,117,19,V,R,
61,61,19,1,0,36,44,866,['n'],1,right,['8'],3,286,[-0.06840683],76,44,hard,minus,dotcolour,alfa,,,117,19,V,R,
62,62,20,1,0,36,44,700,['n'],1,right,['3'],4,686,[-0.09944161],75,44,hard,minus,dotcolour,alfa,,,117,19,V,R,
63,63,21,1,0,47,33,1467,['c'],1,left,['2'],5,393,[0.16188358],91,47,medium,minus,dotcolour,alfa,,,117,19,V,R,
64,64,22,1,0,36,44,1284,['n'],1,right,['3'],4,511,[-0.24478605],96,44,hard,minus,dotcolour,alfa,,,117,19,V,R,
65,65,23,1,0,27,53,1734,['n'],1,right,['1'],6,247,[-0.17699558],96,53,easy,minus,dotcolour,alfa,,,117,19,V,R,
66,66,24,1,0,33,47,1584,['n'],1,right,['3'],4,807,[-0.08715045],71,47,medium,minus,dotcolour,alfa,,,117,19,V,R,
67,67,25,1,0,36,44,633,['n'],1,right,['3'],4,622,[-0.04859833],64,44,hard,minus,dotcolour,alfa,,,117,19,V,R,
68,68,26,1,0,27,53,701,['n'],1,right,['2'],5,411,[-0.16001999],90,53,easy,minus,dotcolour,alfa,,,117,19,V,R,
69,69,27,1,0,44,36,883,['c'],1,left,['1'],6,680,[0.13862087],82,44,hard,minus,dotcolour,alfa,,,117,19,V,R,
70,70,28,1,0,47,33,735,['c'],1,left,['1'],6,600,[0.15255727],85,47,medium,minus,dotcolour,alfa,,,117,19,V,R,
71,71,29,1,0,47,33,551,['c'],1,left,['1'],6,428,[0.1430878],88,47,medium,minus,dotcolour,alfa,,,117,19,V,R,
72,72,30,1,0,53,27,484,['c'],1,left,['1'],6,449,[0.15818227],89,53,easy,minus,dotcolour,alfa,,,117,19,V,R,
73,73,31,1,0,27,53,983,['n'],1,right,['2'],5,480,[0.00160735],49,53,easy,minus,dotcolour,alfa,,,117,19,V,R,
74,74,32,1,0,53,27,634,['c'],1,left,['1'],6,293,[0.03938043],66,53,easy,minus,dotcolour,alfa,,,117,19,V,R,
75,75,33,1,0,27,53,484,['n'],1,right,['1'],6,446,[-0.07742645],74,53,easy,minus,dotcolour,alfa,,,117,19,V,R,
76,76,34,1,0,27,53,450,['n'],1,right,['1'],6,276,[-0.2652967],99,53,easy,minus,dotcolour,alfa,,,117,19,V,R,
77,77,35,1,0,44,36,650,['c'],1,left,['3'],4,409,[0.10790195],82,44,hard,minus,dotcolour,alfa,,,117,19,V,R,
78,78,36,1,0,36,44,983,['n'],1,right,['8'],3,378,[-0.09548711],80,44,hard,minus,dotcolour,alfa,,,117,19,V,R,
79,79,37,1,0,33,47,1116,['n'],1,right,['2'],5,391,[-0.05410373],69,47,medium,minus,dotcolour,alfa,,,117,19,V,R,
80,80,38,1,0,33,47,600,['n'],1,right,['2'],5,536,[-0.16893285],89,47,medium,minus,dotcolour,alfa,,,117,19,V,R,
81,81,39,1,0,47,33,750,['c'],1,left,['2'],5,398,[0.09081542],79,47,medium,minus,dotcolour,alfa,,,117,19,V,R,
82,82,40,1,0,44,36,567,['c'],1,left,['2'],5,449,[0.04289103],64,44,hard,minus,dotcolour,alfa,,,117,19,V,R,
83,83,41,1,0,36,44,733,['n'],1,right,['2'],5,2251,[-0.23981672],81,44,hard,minus,dotcolour,alfa,,,117,19,V,R,
84,84,0,2,0,47,33,701,['n'],0,left,['8'],3,715,[-0.06068889],66,47,medium,minus,dotcolour,alfa,,,117,19,V,R,
85,85,1,2,0,53,27,583,['c'],1,left,['1'],6,392,[0.2245527],96,53,easy,minus,dotcolour,alfa,,,117,19,V,R,
86,86,2,2,0,53,27,449,['c'],1,left,['2'],5,384,[0.19809095],95,53,easy,minus,dotcolour,alfa,,,117,19,V,R,
87,87,3,2,0,47,33,433,['c'],1,left,['1'],6,393,[0.0420748],65,47,medium,minus,dotcolour,alfa,,,117,19,V,R,
88,88,4,2,0,47,33,383,['c'],1,left,['2'],5,459,[0.17158902],91,47,medium,minus,dotcolour,alfa,,,117,19,V,R,
89,89,5,2,0,27,53,667,['n'],1,right,['1'],6,286,[-0.05495331],72,53,easy,minus,dotcolour,alfa,,,117,19,V,R,
90,90,6,2,0,44,36,700,['c'],1,left,['2'],5,593,[0.15882241],86,44,hard,minus,dotcolour,alfa,,,117,19,V,R,
91,91,7,2,0,36,44,916,['n'],1,right,['2'],5,981,[-0.1384939],78,44,hard,minus,dotcolour,alfa,,,117,19,V,R,
92,92,8,2,0,27,53,483,['n'],1,right,['2'],5,276,[-0.15609289],94,53,easy,minus,dotcolour,alfa,,,117,19,V,R,
93,93,9,2,0,53,27,516,['c'],1,left,['1'],6,309,[0.13206214],89,53,easy,minus,dotcolour,alfa,,,117,19,V,R,
94,94,10,2,0,44,36,401,['c'],1,left,['2'],5,561,[-0.00605242],48,44,hard,minus,dotcolour,alfa,,,117,19,V,R,
95,95,11,2,0,44,36,684,['c'],1,left,['1'],6,401,[-0.00438657],48,44,hard,minus,dotcolour,alfa,,,117,19,V,R,
96,96,12,2,0,47,33,551,['c'],1,left,['3'],4,2724,[0.19833214],75,47,medium,minus,dotcolour,alfa,,,117,19,V,R,
97,97,13,2,0,33,47,666,['n'],1,right,['2'],5,677,[-0.20969733],91,47,medium,minus,dotcolour,alfa,,,117,19,V,R,
98,98,14,2,0,33,47,700,['n'],1,right,['2'],5,327,[-0.19531544],96,47,medium,minus,dotcolour,alfa,,,117,19,V,R,
99,99,15,2,0,44,36,1084,['c'],1,left,['3'],4,423,[0.13378995],86,44,hard,minus,dotcolour,alfa,,,117,19,V,R,
100,100,16,2,0,27,53,733,['n'],1,right,['1'],6,794,[-0.2969113],95,53,easy,minus,dotcolour,alfa,,,117,19,V,R,
101,101,17,2,0,47,33,716,['c'],1,left,['1'],6,319,[0.11058223],85,47,medium,minus,dotcolour,alfa,,,117,19,V,R,
102,102,18,2,0,36,44,1599,['n'],1,right,['8'],3,556,[-0.08066907],73,44,hard,minus,dotcolour,alfa,,,117,19,V,R,
103,103,19,2,0,53,27,701,['n'],0,left,['0'],1,1547,[0.12949621],28,53,easy,minus,dotcolour,alfa,,,117,19,V,R,
104,104,20,2,0,33,47,1334,['c'],0,right,['3'],4,591,[0.1204887],80,47,medium,minus,dotcolour,alfa,,,117,19,V,R,
105,105,21,2,0,33,47,883,['n'],1,right,['3'],4,870,[-0.11990326],76,47,medium,minus,dotcolour,alfa,,,117,19,V,R,
106,106,22,2,0,44,36,1115,['c'],1,left,['2'],5,208,[0.15448273],95,44,hard,minus,dotcolour,alfa,,,117,19,V,R,
107,107,23,2,0,36,44,952,['n'],1,right,['2'],5,225,[-0.056385],74,44,hard,minus,dotcolour,alfa,,,117,19,V,R,
108,108,24,2,0,33,47,1267,['c'],0,right,['2'],5,656,[0.0848279],72,47,medium,minus,dotcolour,alfa,,,117,19,V,R,
109,109,25,2,0,27,53,634,['n'],1,right,['1'],6,397,[-0.16010602],91,53,easy,minus,dotcolour,alfa,,,117,19,V,R,
110,110,26,2,0,27,53,699,['n'],1,right,['1'],6,282,[-0.09679038],84,53,easy,minus,dotcolour,alfa,,,117,19,V,R,
111,111,27,2,0,33,47,451,['n'],1,right,['1'],6,269,[-0.17178329],95,47,medium,minus,dotcolour,alfa,,,117,19,V,R,
112,112,28,2,0,33,47,801,['n'],1,right,['1'],6,660,[-0.05813959],66,47,medium,minus,dotcolour,alfa,,,117,19,V,R,
113,113,29,2,0,47,33,733,['c'],1,left,['1'],6,246,[0.12816255],91,47,medium,minus,dotcolour,alfa,,,117,19,V,R,
114,114,30,2,0,27,53,616,['n'],1,right,['2'],5,573,[-0.11941584],81,53,easy,minus,dotcolour,alfa,,,117,19,V,R,
115,115,31,2,0,44,36,1167,['c'],1,left,['2'],5,408,[0.17639104],92,44,hard,minus,dotcolour,alfa,,,117,19,V,R,
116,116,32,2,0,53,27,650,['c'],1,left,['1'],6,270,[0.12859329],90,53,easy,minus,dotcolour,alfa,,,117,19,V,R,
117,117,33,2,0,47,33,1250,['c'],1,left,['2'],5,659,[0.11366091],78,47,medium,minus,dotcolour,alfa,,,117,19,V,R,
118,118,34,2,0,53,27,566,['c'],1,left,['1'],6,299,[0.14022917],91,53,easy,minus,dotcolour,alfa,,,117,19,V,R,
119,119,35,2,0,36,44,849,['n'],1,right,['3'],4,431,[-0.07403852],73,44,hard,minus,dotcolour,alfa,,,117,19,V,R,
120,120,36,2,0,53,27,584,['c'],1,left,['1'],6,751,[0.20667865],90,53,easy,minus,dotcolour,alfa,,,117,19,V,R,
121,121,37,2,0,36,44,733,['c'],0,right,['2'],5,317,[0.07107678],76,44,hard,minus,dotcolour,alfa,,,117,19,V,R,
122,122,38,2,0,36,44,534,['c'],0,right,['2'],5,260,[0.06705754],77,44,hard,minus,dotcolour,alfa,,,117,19,V,R,
123,123,39,2,0,44,36,485,['n'],0,left,['8'],3,311,[0.05133126],30,44,hard,minus,dotcolour,alfa,,,117,19,V,R,
124,124,40,2,0,27,53,2150,['n'],1,right,['2'],5,285,[-0.11544594],88,53,easy,minus,dotcolour,alfa,,,117,19,V,R,
125,125,41,2,0,36,44,1716,['n'],1,right,['3'],4,311,[-0.06065333],73,44,hard,minus,dotcolour,alfa,,,117,19,V,R,
126,0,0,3,1,53,27,799,['c'],1,left,['2'],5,276,[0.05590837],98,53,easy,plus,dotcolour,alfa,,,117,19,V,R,
127,1,1,3,1,27,53,717,['n'],1,right,['3'],4,1029,[-0.1336776],99,53,easy,plus,dotcolour,alfa,,,117,19,V,R,
128,2,2,3,1,47,33,1150,['c'],1,left,['3'],4,895,[0.15187527],100,47,medium,plus,dotcolour,alfa,,,117,19,V,R,
129,3,3,3,1,33,47,1000,['n'],1,right,['3'],4,372,[-0.06753452],98,47,medium,plus,dotcolour,alfa,,,117,19,V,R,
130,4,4,3,1,53,27,1200,['c'],1,left,['2'],5,446,[0.19296719],100,53,easy,plus,dotcolour,alfa,,,117,19,V,R,
131,5,5,3,1,47,33,1101,['c'],1,left,['2'],5,337,[0.05590639],97,47,medium,plus,dotcolour,alfa,,,117,19,V,R,
132,6,6,3,1,53,27,633,['c'],1,left,['1'],6,420,[0.12759591],100,53,easy,plus,dotcolour,alfa,,,117,19,V,R,
133,7,7,3,1,53,27,850,['c'],1,left,['1'],6,234,[0.01869547],80,53,easy,plus,dotcolour,alfa,,,117,19,V,R,
134,8,8,3,1,27,53,1116,['n'],1,right,['2'],5,462,[-0.22817808],100,53,easy,plus,dotcolour,alfa,,,117,19,V,R,
135,9,9,3,1,33,47,1267,['c'],0,right,['3'],4,266,[0.03769722],93,47,medium,plus,dotcolour,alfa,,,117,19,V,R,
136,10,10,3,1,33,47,917,['n'],1,right,['3'],4,348,[-0.19984817],100,47,medium,plus,dotcolour,alfa,,,117,19,V,R,
137,11,11,3,1,53,27,716,['c'],1,left,['2'],5,507,[0.13321284],100,53,easy,plus,dotcolour,alfa,,,117,19,V,R,
138,12,12,3,1,27,53,950,['n'],1,right,['3'],4,313,[-0.16597319],100,53,easy,plus,dotcolour,alfa,,,117,19,V,R,
139,13,13,3,1,27,53,683,['n'],1,right,['3'],4,211,[-0.09283739],100,53,easy,plus,dotcolour,alfa,,,117,19,V,R,
140,14,14,3,1,47,33,936,['c'],1,left,['2'],5,470,[0.14049847],100,47,medium,plus,dotcolour,alfa,,,117,19,V,R,
141,15,15,3,1,44,36,2018,['n'],0,left,['3'],4,979,[0.10771763],2,44,hard,plus,dotcolour,alfa,,,117,19,V,R,
142,16,16,3,1,27,53,2568,['c'],0,right,['3'],4,207,[-0.01038224],31,53,easy,plus,dotcolour,alfa,,,117,19,V,R,
143,17,17,3,1,44,36,1017,['c'],1,left,['2'],5,327,[0.20388818],100,44,hard,plus,dotcolour,alfa,,,117,19,V,R,
144,18,18,3,1,47,33,751,['n'],0,left,['9'],2,1150,[0.07867835],7,47,medium,plus,dotcolour,alfa,,,117,19,V,R,
145,19,19,3,1,47,33,1350,['c'],1,left,['2'],5,338,[0.04671721],95,47,medium,plus,dotcolour,alfa,,,117,19,V,R,
146,20,20,3,1,36,44,1318,['n'],1,right,['3'],4,257,[-0.06468521],99,44,hard,plus,dotcolour,alfa,,,117,19,V,R,
147,21,21,3,1,44,36,585,['c'],1,left,['3'],4,184,[0.13090742],100,44,hard,plus,dotcolour,alfa,,,117,19,V,R,
148,22,22,3,1,27,53,618,['n'],1,right,['3'],4,266,[-0.05837084],98,53,easy,plus,dotcolour,alfa,,,117,19,V,R,
149,23,23,3,1,36,44,1917,['n'],1,right,['8'],3,307,[-0.15732881],100,44,hard,plus,dotcolour,alfa,,,117,19,V,R,
150,24,24,3,1,44,36,1583,['c'],1,left,['3'],4,281,[0.21010177],100,44,hard,plus,dotcolour,alfa,,,117,19,V,R,
151,25,25,3,1,47,33,783,['c'],1,left,['2'],5,359,[0.07657233],99,47,medium,plus,dotcolour,alfa,,,117,19,V,R,
152,26,26,3,1,33,47,767,['n'],1,right,['2'],5,299,[-0.06849133],99,47,medium,plus,dotcolour,alfa,,,117,19,V,R,
153,27,27,3,1,33,47,851,['n'],1,right,['8'],3,631,[-0.22715687],100,47,medium,plus,dotcolour,alfa,,,117,19,V,R,
154,28,28,3,1,53,27,917,['c'],1,left,['1'],6,202,[0.20168624],100,53,easy,plus,dotcolour,alfa,,,117,19,V,R,
155,29,29,3,1,44,36,984,['c'],1,left,['2'],5,220,[0.16037259],100,44,hard,plus,dotcolour,alfa,,,117,19,V,R,
156,30,30,3,1,36,44,684,['n'],1,right,['3'],4,370,[-0.1716771],100,44,hard,plus,dotcolour,alfa,,,117,19,V,R,
157,31,31,3,1,36,44,1183,['c'],0,right,['3'],4,221,[0.02282604],85,44,hard,plus,dotcolour,alfa,,,117,19,V,R,
158,32,32,3,1,36,44,734,['n'],1,right,['3'],4,248,[-0.01623277],76,44,hard,plus,dotcolour,alfa,,,117,19,V,R,
159,33,33,3,1,33,47,883,['n'],1,right,['8'],3,748,[-0.10810131],99,47,medium,plus,dotcolour,alfa,,,117,19,V,R,
160,34,34,3,1,47,33,1317,['c'],1,left,['3'],4,370,[0.09052508],100,47,medium,plus,dotcolour,alfa,,,117,19,V,R,
161,35,35,3,1,53,27,717,['c'],1,left,['2'],5,344,[0.03361119],89,53,easy,plus,dotcolour,alfa,,,117,19,V,R,
162,36,36,3,1,36,44,666,['n'],1,right,['2'],5,248,[0.00145467],47,44,hard,plus,dotcolour,alfa,,,117,19,V,R,
163,37,37,3,1,33,47,517,['n'],1,right,['2'],5,244,[-0.04957451],97,47,medium,plus,dotcolour,alfa,,,117,19,V,R,
164,38,38,3,1,36,44,1833,['n'],1,right,['2'],5,402,[-0.16799196],100,44,hard,plus,dotcolour,alfa,,,117,19,V,R,
165,39,39,3,1,44,36,1500,['c'],1,left,['1'],6,503,[-0.01678622],30,44,hard,plus,dotcolour,alfa,,,117,19,V,R,
166,40,40,3,1,44,36,1199,['n'],0,left,['3'],4,324,[-0.06301148],98,44,hard,plus,dotcolour,alfa,,,117,19,V,R,
167,41,41,3,1,27,53,699,['n'],1,right,['2'],5,516,[-0.14965368],100,53,easy,plus,dotcolour,alfa,,,117,19,V,R,
168,42,0,4,1,33,47,702,['n'],1,right,['2'],5,652,[-0.14031547],100,47,medium,plus,dotcolour,alfa,,,117,19,V,R,
169,43,1,4,1,47,33,1633,['n'],0,left,['8'],3,178,[-0.05643585],99,47,medium,plus,dotcolour,alfa,,,117,19,V,R,
170,44,2,4,1,36,44,1151,['c'],0,right,['3'],4,478,[0.0257789],79,44,hard,plus,dotcolour,alfa,,,117,19,V,R,
171,45,3,4,1,53,27,634,['c'],1,left,['3'],4,162,[0.074375],100,53,easy,plus,dotcolour,alfa,,,117,19,V,R,
172,46,4,4,1,47,33,683,['n'],0,left,['3'],4,210,[-0.0379459],95,47,medium,plus,dotcolour,alfa,,,117,19,V,R,
173,47,5,4,1,33,47,701,['n'],1,right,['3'],4,159,[-0.12662309],100,47,medium,plus,dotcolour,alfa,,,117,19,V,R,
174,48,6,4,1,44,36,683,['c'],1,left,['3'],4,166,[0.05811095],99,44,hard,plus,dotcolour,alfa,,,117,19,V,R,
175,49,7,4,1,53,27,600,['c'],1,left,['2'],5,304,[0.0724222],99,53,easy,plus,dotcolour,alfa,,,117,19,V,R,
176,50,8,4,1,36,44,1349,['n'],1,right,['8'],3,399,[-0.25418637],100,44,hard,plus,dotcolour,alfa,,,117,19,V,R,
177,51,9,4,1,33,47,1033,['n'],1,right,['2'],5,360,[-0.14213449],100,47,medium,plus,dotcolour,alfa,,,117,19,V,R,
178,52,10,4,1,53,27,550,['c'],1,left,['1'],6,517,[0.15312661],100,53,easy,plus,dotcolour,alfa,,,117,19,V,R,
179,53,11,4,1,47,33,1050,['c'],1,left,['1'],6,232,[0.03827236],95,47,medium,plus,dotcolour,alfa,,,117,19,V,R,
180,54,12,4,1,53,27,551,['c'],1,left,['1'],6,233,[0.00265141],55,53,easy,plus,dotcolour,alfa,,,117,19,V,R,
181,55,13,4,1,47,33,450,['c'],1,left,['1'],6,391,[0.02666222],82,47,medium,plus,dotcolour,alfa,,,117,19,V,R,
182,56,14,4,1,27,53,650,['n'],1,right,['1'],6,183,[-0.15381753],100,53,easy,plus,dotcolour,alfa,,,117,19,V,R,
183,57,15,4,1,44,36,566,['c'],1,left,['1'],6,322,[-0.04233909],6,44,hard,plus,dotcolour,alfa,,,117,19,V,R,
184,58,16,4,1,53,27,617,['c'],1,left,['1'],6,317,[0.19908334],100,53,easy,plus,dotcolour,alfa,,,117,19,V,R,
185,59,17,4,1,53,27,650,['c'],1,left,['2'],5,288,[0.11541536],100,53,easy,plus,dotcolour,alfa,,,117,19,V,R,
186,60,18,4,1,44,36,900,['n'],0,left,['3'],4,242,[-0.02091039],82,44,hard,plus,dotcolour,alfa,,,117,19,V,R,
187,61,19,4,1,44,36,1001,['c'],1,left,['3'],4,153,[0.06421508],100,44,hard,plus,dotcolour,alfa,,,117,19,V,R,
188,62,20,4,1,27,53,617,['n'],1,right,['3'],4,564,[-0.2850756],100,53,easy,plus,dotcolour,alfa,,,117,19,V,R,
189,63,21,4,1,27,53,1184,['n'],1,right,['2'],5,407,[-0.205826],100,53,easy,plus,dotcolour,alfa,,,117,19,V,R,
190,64,22,4,1,44,36,1066,['c'],1,left,['2'],5,1269,[0.07697564],92,44,hard,plus,dotcolour,alfa,,,117,19,V,R,
191,65,23,4,1,27,53,502,['n'],1,right,['2'],5,223,[-0.06156689],99,53,easy,plus,dotcolour,alfa,,,117,19,V,R,
192,66,24,4,1,36,44,1133,['n'],1,right,['3'],4,578,[-0.06909868],96,44,hard,plus,dotcolour,alfa,,,117,19,V,R,
193,67,25,4,1,53,27,582,['c'],1,left,['2'],5,604,[0.13272147],100,53,easy,plus,dotcolour,alfa,,,117,19,V,R,
194,68,26,4,1,36,44,633,['n'],1,right,['2'],5,244,[-0.06298467],99,44,hard,plus,dotcolour,alfa,,,117,19,V,R,
195,69,27,4,1,33,47,650,['n'],1,right,['2'],5,201,[-0.02921307],91,47,medium,plus,dotcolour,alfa,,,117,19,V,R,
196,70,28,4,1,36,44,783,['n'],1,right,['2'],5,371,[-0.01949891],76,44,hard,plus,dotcolour,alfa,,,117,19,V,R,
197,71,29,4,1,33,47,883,['n'],1,right,['8'],3,586,[-0.13828804],100,47,medium,plus,dotcolour,alfa,,,117,19,V,R,
198,72,30,4,1,47,33,1333,['c'],1,left,['3'],4,654,[0.13460421],100,47,medium,plus,dotcolour,alfa,,,117,19,V,R,
199,73,31,4,1,27,53,1168,['n'],1,right,['2'],5,622,[-0.16704294],100,53,easy,plus,dotcolour,alfa,,,117,19,V,R,
200,74,32,4,1,36,44,951,['c'],0,right,['3'],4,721,[0.05687608],92,44,hard,plus,dotcolour,alfa,,,117,19,V,R,
201,75,33,4,1,44,36,1634,['c'],1,left,['3'],4,299,[0.08331479],100,44,hard,plus,dotcolour,alfa,,,117,19,V,R,
202,76,34,4,1,33,47,650,['n'],1,right,['3'],4,1158,[-0.18239161],100,47,medium,plus,dotcolour,alfa,,,117,19,V,R,
203,77,35,4,1,44,36,1833,['c'],1,left,['8'],3,192,[0.09581862],100,44,hard,plus,dotcolour,alfa,,,117,19,V,R,
204,78,36,4,1,47,33,1450,['c'],1,left,['8'],3,127,[0.11869387],100,47,medium,plus,dotcolour,alfa,,,117,19,V,R,
205,79,37,4,1,27,53,883,['n'],1,right,['2'],5,448,[-0.0669257],97,53,easy,plus,dotcolour,alfa,,,117,19,V,R,
206,80,38,4,1,47,33,867,['c'],1,left,['8'],3,276,[0.03693289],93,47,medium,plus,dotcolour,alfa,,,117,19,V,R,
207,81,39,4,1,27,53,766,['n'],1,right,['8'],3,268,[-0.11718877],100,53,easy,plus,dotcolour,alfa,,,117,19,V,R,
208,82,40,4,1,36,44,700,['n'],1,right,['8'],3,278,[-0.13522788],100,44,hard,plus,dotcolour,alfa,,,117,19,V,R,
209,83,41,4,1,33,47,883,['n'],1,right,['8'],3,225,[-0.01793078],80,47,medium,plus,dotcolour,alfa,,,117,19,V,R,
210,84,0,5,1,36,44,1052,['n'],1,right,['8'],3,534,[-0.06701971],96,44,hard,plus,dotcolour,alfa,,,117,19,V,R,
211,85,1,5,1,36,44,1716,['n'],1,right,['3'],4,2069,[-0.22242589],100,44,hard,plus,dotcolour,alfa,,,117,19,V,R,
212,86,2,5,1,33,47,884,['n'],1,right,['3'],4,536,[-0.25448909],100,47,medium,plus,dotcolour,alfa,,,117,19,V,R,
213,87,3,5,1,53,27,683,['c'],1,left,['2'],5,505,[0.09575328],99,53,easy,plus,dotcolour,alfa,,,117,19,V,R,
214,88,4,5,1,36,44,818,['n'],1,right,['3'],4,460,[-0.06796466],97,44,hard,plus,dotcolour,alfa,,,117,19,V,R,
215,89,5,5,1,44,36,916,['c'],1,left,['3'],4,278,[0.05653601],98,44,hard,plus,dotcolour,alfa,,,117,19,V,R,
216,90,6,5,1,33,47,917,['n'],1,right,['3'],4,264,[-0.14875414],100,47,medium,plus,dotcolour,alfa,,,117,19,V,R,
217,91,7,5,1,44,36,818,['n'],0,left,['8'],3,326,[-0.07788355],99,44,hard,plus,dotcolour,alfa,,,117,19,V,R,
218,92,8,5,1,33,47,584,['n'],1,right,['8'],3,258,[-0.11136817],100,47,medium,plus,dotcolour,alfa,,,117,19,V,R,
219,93,9,5,1,44,36,633,['n'],0,left,['9'],2,584,[-0.1574845],100,44,hard,plus,dotcolour,alfa,,,117,19,V,R,
220,94,10,5,1,36,44,2283,['n'],1,right,['3'],4,342,[-0.08326887],99,44,hard,plus,dotcolour,alfa,,,117,19,V,R,
221,95,11,5,1,44,36,1083,['c'],1,left,['2'],5,350,[0.04769732],95,44,hard,plus,dotcolour,alfa,,,117,19,V,R,
222,96,12,5,1,44,36,766,['c'],1,left,['2'],5,323,[0.08197171],99,44,hard,plus,dotcolour,alfa,,,117,19,V,R,
223,97,13,5,1,36,44,1016,['n'],1,right,['2'],5,1735,[-0.10791438],95,44,hard,plus,dotcolour,alfa,,,117,19,V,R,
224,98,14,5,1,27,53,1016,['n'],1,right,['2'],5,346,[-0.15179142],100,53,easy,plus,dotcolour,alfa,,,117,19,V,R,
225,99,15,5,1,33,47,884,['n'],1,right,['2'],5,353,[-0.13698018],100,47,medium,plus,dotcolour,alfa,,,117,19,V,R,
226,100,16,5,1,47,33,951,['c'],1,left,['2'],5,287,[0.0732978],99,47,medium,plus,dotcolour,alfa,,,117,19,V,R,
227,101,17,5,1,53,27,833,['c'],1,left,['2'],5,299,[0.05675848],98,53,easy,plus,dotcolour,alfa,,,117,19,V,R,
228,102,18,5,1,27,53,733,['n'],1,right,['2'],5,267,[-0.05583933],98,53,easy,plus,dotcolour,alfa,,,117,19,V,R,
229,103,19,5,1,53,27,549,['c'],1,left,['2'],5,340,[0.25564226],100,53,easy,plus,dotcolour,alfa,,,117,19,V,R,
230,104,20,5,1,33,47,584,['n'],1,right,['2'],5,296,[-0.03365453],90,47,medium,plus,dotcolour,alfa,,,117,19,V,R,
231,105,21,5,1,53,27,767,['c'],1,left,['2'],5,358,[0.10648545],100,53,easy,plus,dotcolour,alfa,,,117,19,V,R,
232,106,22,5,1,47,33,533,['c'],1,left,['2'],5,236,[0.02566288],87,47,medium,plus,dotcolour,alfa,,,117,19,V,R,
233,107,23,5,1,53,27,450,['c'],1,left,['2'],5,266,[0.06253007],99,53,easy,plus,dotcolour,alfa,,,117,19,V,R,
234,108,24,5,1,47,33,683,['c'],1,left,['2'],5,365,[0.19748497],100,47,medium,plus,dotcolour,alfa,,,117,19,V,R,
235,109,25,5,1,47,33,450,['c'],1,left,['2'],5,246,[0.13138612],100,47,medium,plus,dotcolour,alfa,,,117,19,V,R,
236,110,26,5,1,47,33,467,['c'],1,left,['2'],5,194,[0.04929502],98,47,medium,plus,dotcolour,alfa,,,117,19,V,R,
237,111,27,5,1,44,36,416,['c'],1,left,['2'],5,259,[0.07009902],99,44,hard,plus,dotcolour,alfa,,,117,19,V,R,
238,112,28,5,1,47,33,566,['c'],1,left,['3'],4,243,[0.15994243],100,47,medium,plus,dotcolour,alfa,,,117,19,V,R,
239,113,29,5,1,53,27,700,['c'],1,left,['3'],4,190,[0.07725103],100,53,easy,plus,dotcolour,alfa,,,117,19,V,R,
240,114,30,5,1,44,36,850,['c'],1,left,['3'],4,182,[0.07702007],100,44,hard,plus,dotcolour,alfa,,,117,19,V,R,
241,115,31,5,1,27,53,700,['n'],1,right,['3'],4,228,[-0.01645169],78,53,easy,plus,dotcolour,alfa,,,117,19,V,R,
242,116,32,5,1,27,53,483,['n'],1,right,['2'],5,536,[-0.19565798],100,53,easy,plus,dotcolour,alfa,,,117,19,V,R,
243,117,33,5,1,27,53,484,['n'],1,right,['2'],5,376,[-0.10763296],100,53,easy,plus,dotcolour,alfa,,,117,19,V,R,
244,118,34,5,1,33,47,1318,['n'],1,right,['3'],4,382,[-0.10396936],100,47,medium,plus,dotcolour,alfa,,,117,19,V,R,
245,119,35,5,1,36,44,832,['n'],1,right,['9'],2,318,[-0.14559773],100,44,hard,plus,dotcolour,alfa,,,117,19,V,R,
246,120,36,5,1,27,53,1083,['n'],1,right,['1'],6,168,[-0.1240824],100,53,easy,plus,dotcolour,alfa,,,117,19,V,R,
247,121,37,5,1,27,53,550,['n'],1,right,['1'],6,157,[-0.1176196],100,53,easy,plus,dotcolour,alfa,,,117,19,V,R,
248,122,38,5,1,33,47,967,['n'],1,right,['3'],4,176,[-0.13233391],100,47,medium,plus,dotcolour,alfa,,,117,19,V,R,
249,123,39,5,1,53,27,1017,['c'],1,left,['2'],5,402,[0.04184215],91,53,easy,plus,dotcolour,alfa,,,117,19,V,R,
250,124,40,5,1,36,44,566,['n'],1,right,['8'],3,709,[-0.15590592],100,44,hard,plus,dotcolour,alfa,,,117,19,V,R,
251,125,41,5,1,47,33,867,['c'],1,left,['2'],5,342,[0.14055751],100,47,medium,plus,dotcolour,alfa,,,117,19,V,R,
252,0,0,6,2,33,47,668,['n'],1,right,['8'],3,331,[-0.12509126],88,47,medium,minus,dotcolour,alfa,,,117,19,V,R,
253,1,1,6,2,27,53,550,['n'],1,right,['8'],3,337,[-0.14714651],91,53,easy,minus,dotcolour,alfa,,,117,19,V,R,
254,2,2,6,2,47,33,1117,['c'],1,left,['2'],5,312,[0.10134089],84,47,medium,minus,dotcolour,alfa,,,117,19,V,R,
255,3,3,6,2,33,47,900,['n'],1,right,['8'],3,329,[-0.07266805],76,47,medium,minus,dotcolour,alfa,,,117,19,V,R,
256,4,4,6,2,53,27,533,['c'],1,left,['2'],5,312,[0.15775564],93,53,easy,minus,dotcolour,alfa,,,117,19,V,R,
257,5,5,6,2,33,47,483,['n'],1,right,['2'],5,210,[-0.10967633],90,47,medium,minus,dotcolour,alfa,,,117,19,V,R,
258,6,6,6,2,47,33,717,['n'],0,left,['8'],3,149,[-0.03250596],68,47,medium,minus,dotcolour,alfa,,,117,19,V,R,
259,7,7,6,2,53,27,917,['c'],1,left,['2'],5,204,[0.03232691],66,53,easy,minus,dotcolour,alfa,,,117,19,V,R,
260,8,8,6,2,44,36,833,['n'],0,left,['8'],3,892,[0.14875465],20,44,hard,minus,dotcolour,alfa,,,117,19,V,R,
261,9,9,6,2,27,53,567,['n'],1,right,['1'],6,1059,[-0.34721476],95,53,easy,minus,dotcolour,alfa,,,117,19,V,R,
262,10,10,6,2,33,47,684,['n'],1,right,['1'],6,173,[-0.09657661],89,47,medium,minus,dotcolour,alfa,,,117,19,V,R,
263,11,11,6,2,27,53,682,['n'],1,right,['1'],6,244,[-0.11178927],88,53,easy,minus,dotcolour,alfa,,,117,19,V,R,
264,12,12,6,2,27,53,1083,['n'],1,right,['1'],6,265,[-0.18381965],96,53,easy,minus,dotcolour,alfa,,,117,19,V,R,
265,13,13,6,2,36,44,2450,['n'],1,right,['8'],3,349,[-0.15336782],91,44,hard,minus,dotcolour,alfa,,,117,19,V,R,
266,14,14,6,2,44,36,967,['c'],1,left,['2'],5,258,[0.15670568],94,44,hard,minus,dotcolour,alfa,,,117,19,V,R,
267,15,15,6,2,47,33,617,['c'],1,left,['2'],5,176,[0.0454418],73,47,medium,minus,dotcolour,alfa,,,117,19,V,R,
268,16,16,6,2,33,47,733,['n'],1,right,['2'],5,229,[-0.07438709],80,47,medium,minus,dotcolour,alfa,,,117,19,V,R,
269,17,17,6,2,36,44,1400,['n'],1,right,['8'],3,93,[-0.12981471],98,44,hard,minus,dotcolour,alfa,,,117,19,V,R,
270,18,18,6,2,27,53,1284,['n'],1,right,['1'],6,943,[-0.22080757],89,53,easy,minus,dotcolour,alfa,,,117,19,V,R,
271,19,19,6,2,27,53,566,['n'],1,right,['1'],6,267,[-0.06202117],75,53,easy,minus,dotcolour,alfa,,,117,19,V,R,
272,20,20,6,2,47,33,2317,['c'],1,left,['3'],4,141,[0.04080689],73,47,medium,minus,dotcolour,alfa,,,117,19,V,R,
273,21,21,6,2,27,53,684,['n'],1,right,['3'],4,829,[-0.28983013],95,53,easy,minus,dotcolour,alfa,,,117,19,V,R,
274,22,22,6,2,33,47,1516,['c'],0,right,['3'],4,169,[0.0541749],77,47,medium,minus,dotcolour,alfa,,,117,19,V,R,
275,23,23,6,2,33,47,1667,['n'],1,right,['8'],3,480,[-0.11485126],82,47,medium,minus,dotcolour,alfa,,,117,19,V,R,
276,24,24,6,2,47,33,1351,['c'],1,left,['2'],5,361,[0.12718205],87,47,medium,minus,dotcolour,alfa,,,117,19,V,R,
277,25,25,6,2,44,36,617,['c'],1,left,['2'],5,178,[0.00373537],52,44,hard,minus,dotcolour,alfa,,,117,19,V,R,
278,26,26,6,2,53,27,550,['c'],1,left,['2'],5,198,[0.11192422],91,53,easy,minus,dotcolour,alfa,,,117,19,V,R,
279,27,27,6,2,53,27,350,['c'],1,left,['2'],5,178,[0.11594376],92,53,easy,minus,dotcolour,alfa,,,117,19,V,R,
280,28,28,6,2,44,36,516,['n'],0,left,['8'],3,231,[-0.02078806],60,44,hard,minus,dotcolour,alfa,,,117,19,V,R,
281,29,29,6,2,36,44,333,['c'],0,right,['3'],4,458,[0.06748504],71,44,hard,minus,dotcolour,alfa,,,117,19,V,R,
282,30,30,6,2,36,44,767,['c'],0,right,['8'],3,698,[0.03082566],58,44,hard,minus,dotcolour,alfa,,,117,19,V,R,
283,31,31,6,2,44,36,517,['n'],0,left,['8'],3,826,[-0.05040602],62,44,hard,minus,dotcolour,alfa,,,117,19,V,R,
284,32,32,6,2,47,33,900,['c'],1,left,['2'],5,231,[0.1612439],95,47,medium,minus,dotcolour,alfa,,,117,19,V,R,
285,33,33,6,2,44,36,1166,['n'],0,left,['2'],5,232,[-0.04696758],71,44,hard,minus,dotcolour,alfa,,,117,19,V,R,
286,34,34,6,2,53,27,866,['c'],1,left,['2'],5,237,[0.10595106],88,53,easy,minus,dotcolour,alfa,,,117,19,V,R,
287,35,35,6,2,47,33,767,['n'],0,left,['3'],4,391,[-0.00542783],52,47,medium,minus,dotcolour,alfa,,,117,19,V,R,
288,36,36,6,2,36,44,1333,['c'],0,right,['3'],4,322,[0.03813487],65,44,hard,minus,dotcolour,alfa,,,117,19,V,R,
289,37,37,6,2,36,44,667,['n'],1,right,['2'],5,445,[0.00445569],48,44,hard,minus,dotcolour,alfa,,,117,19,V,R,
290,38,38,6,2,36,44,750,['n'],1,right,['2'],5,173,[-0.06313667],80,44,hard,minus,dotcolour,alfa,,,117,19,V,R,
291,39,39,6,2,44,36,617,['c'],1,left,['2'],5,207,[0.03342908],66,44,hard,minus,dotcolour,alfa,,,117,19,V,R,
292,40,40,6,2,53,27,1117,['c'],1,left,['3'],4,322,[-0.01072896],46,53,easy,minus,dotcolour,alfa,,,117,19,V,R,
293,41,41,6,2,53,27,800,['n'],0,left,['2'],5,350,[-0.0116857],54,53,easy,minus,dotcolour,alfa,,,117,19,V,R,
294,42,0,7,2,44,36,1251,['c'],1,left,['3'],4,289,[0.02768024],61,44,hard,minus,dotcolour,alfa,,,117,19,V,R,
295,43,1,7,2,47,33,834,['c'],1,left,['2'],5,397,[0.02388036],58,47,medium,minus,dotcolour,alfa,,,117,19,V,R,
296,44,2,7,2,36,44,733,['n'],1,right,['1'],6,193,[-0.05991682],77,44,hard,minus,dotcolour,alfa,,,117,19,V,R,
297,45,3,7,2,44,36,833,['c'],1,left,['8'],3,664,[0.18731834],89,44,hard,minus,dotcolour,alfa,,,117,19,V,R,
298,46,4,7,2,27,53,1183,['n'],1,right,['2'],5,544,[-0.10373979],78,53,easy,minus,dotcolour,alfa,,,117,19,V,R,
299,47,5,7,2,27,53,599,['n'],1,right,['2'],5,235,[-0.11838327],90,53,easy,minus,dotcolour,alfa,,,117,19,V,R,
300,48,6,7,2,44,36,1500,['c'],1,left,['2'],5,975,[0.14235804],79,44,hard,minus,dotcolour,alfa,,,117,19,V,R,
301,49,7,7,2,33,47,633,['n'],1,right,['2'],5,248,[-0.06104195],75,47,medium,minus,dotcolour,alfa,,,117,19,V,R,
302,50,8,7,2,53,27,1100,['c'],1,left,['1'],6,315,[0.09128477],81,53,easy,minus,dotcolour,alfa,,,117,19,V,R,
303,51,9,7,2,33,47,534,['n'],1,right,['1'],6,250,[-0.06034715],75,47,medium,minus,dotcolour,alfa,,,117,19,V,R,
304,52,10,7,2,27,53,1167,['n'],1,right,['1'],6,220,[-0.11131461],89,53,easy,minus,dotcolour,alfa,,,117,19,V,R,
305,53,11,7,2,44,36,766,['c'],1,left,['1'],6,205,[0.04737725],72,44,hard,minus,dotcolour,alfa,,,117,19,V,R,
306,54,12,7,2,36,44,650,['n'],1,right,['1'],6,380,[-0.02954452],61,44,hard,minus,dotcolour,alfa,,,117,19,V,R,
307,55,13,7,2,44,36,1033,['n'],0,left,['9'],2,1910,[-0.01620388],53,44,hard,minus,dotcolour,alfa,,,117,19,V,R,
308,56,14,7,2,36,44,1084,['c'],0,right,['9'],2,295,[0.01841162],58,44,hard,minus,dotcolour,alfa,,,117,19,V,R,
309,57,15,7,2,27,53,549,['n'],1,right,['3'],4,1022,[-0.18409516],84,53,easy,minus,dotcolour,alfa,,,117,19,V,R,
310,58,16,7,2,36,44,1700,['n'],1,right,['2'],5,178,[-0.09703504],89,44,hard,minus,dotcolour,alfa,,,117,19,V,R,
311,59,17,7,2,47,33,883,['c'],1,left,['2'],5,360,[0.05330942],69,47,medium,minus,dotcolour,alfa,,,117,19,V,R,
312,60,18,7,2,36,44,634,['n'],1,right,['2'],5,258,[-0.09280888],84,44,hard,minus,dotcolour,alfa,,,117,19,V,R,
313,61,19,7,2,47,33,750,['n'],0,left,['2'],5,259,[-0.05064496],71,47,medium,minus,dotcolour,alfa,,,117,19,V,R,
314,62,20,7,2,44,36,1115,['c'],1,left,['9'],2,293,[0.14613712],92,44,hard,minus,dotcolour,alfa,,,117,19,V,R,
315,63,21,7,2,36,44,1167,['n'],1,right,['3'],4,995,[-0.11310177],74,44,hard,minus,dotcolour,alfa,,,117,19,V,R,
316,64,22,7,2,44,36,850,['c'],1,left,['2'],5,403,[0.04279845],65,44,hard,minus,dotcolour,alfa,,,117,19,V,R,
317,65,23,7,2,47,33,450,['c'],1,left,['2'],5,194,[0.12779013],93,47,medium,minus,dotcolour,alfa,,,117,19,V,R,
318,66,24,7,2,33,47,1250,['n'],1,right,['2'],5,266,[-0.00888991],54,47,medium,minus,dotcolour,alfa,,,117,19,V,R,
319,67,25,7,2,47,33,616,['c'],1,left,['2'],5,279,[0.01411101],56,47,medium,minus,dotcolour,alfa,,,117,19,V,R,
320,68,26,7,2,33,47,567,['n'],1,right,['2'],5,1919,[-0.25940398],84,47,medium,minus,dotcolour,alfa,,,117,19,V,R,
321,69,27,7,2,27,53,683,['n'],1,right,['2'],5,351,[-0.08354038],78,53,easy,minus,dotcolour,alfa,,,117,19,V,R,
322,70,28,7,2,53,27,1201,['c'],1,left,['2'],5,355,[0.0887233],79,53,easy,minus,dotcolour,alfa,,,117,19,V,R,
323,71,29,7,2,53,27,483,['c'],1,left,['2'],5,218,[0.13594817],93,53,easy,minus,dotcolour,alfa,,,117,19,V,R,
324,72,30,7,2,53,27,517,['c'],1,left,['2'],5,214,[0.17710334],97,53,easy,minus,dotcolour,alfa,,,117,19,V,R,
325,73,31,7,2,33,47,517,['n'],1,right,['2'],5,242,[-0.1328409],92,47,medium,minus,dotcolour,alfa,,,117,19,V,R,
326,74,32,7,2,53,27,683,['n'],0,left,['2'],5,254,[0.00896828],46,53,easy,minus,dotcolour,alfa,,,117,19,V,R,
327,75,33,7,2,36,44,1117,['n'],1,right,['8'],3,201,[-0.03013159],65,44,hard,minus,dotcolour,alfa,,,117,19,V,R,
328,76,34,7,2,33,47,1150,['n'],1,right,['2'],5,340,[-0.08299502],78,47,medium,minus,dotcolour,alfa,,,117,19,V,R,
329,77,35,7,2,47,33,501,['c'],1,left,['2'],5,171,[0.13954526],95,47,medium,minus,dotcolour,alfa,,,117,19,V,R,
330,78,36,7,2,53,27,1433,['c'],1,left,['2'],5,133,[0.06208287],82,53,easy,minus,dotcolour,alfa,,,117,19,V,R,
331,79,37,7,2,27,53,484,['n'],1,right,['2'],5,253,[-0.13056351],91,53,easy,minus,dotcolour,alfa,,,117,19,V,R,
332,80,38,7,2,33,47,984,['n'],1,right,['1'],6,317,[-0.150364],92,47,medium,minus,dotcolour,alfa,,,117,19,V,R,
333,81,39,7,2,53,27,651,['c'],1,left,['1'],6,160,[0.08857984],88,53,easy,minus,dotcolour,alfa,,,117,19,V,R,
334,82,40,7,2,47,33,983,['c'],1,left,['2'],5,548,[-0.0823052],27,47,medium,minus,dotcolour,alfa,,,117,19,V,R,
335,83,41,7,2,27,53,550,['n'],1,right,['1'],6,488,[-0.13706523],85,53,easy,minus,dotcolour,alfa,,,117,19,V,R,
336,84,0,8,2,33,47,851,['n'],1,right,['2'],5,451,[-0.08839682],77,47,medium,minus,dotcolour,alfa,,,117,19,V,R,
337,85,1,8,2,36,44,517,['n'],1,right,['3'],4,518,[-0.06192929],68,44,hard,minus,dotcolour,alfa,,,117,19,V,R,
338,86,2,8,2,44,36,1101,['c'],1,left,['3'],4,119,[0.07470972],88,44,hard,minus,dotcolour,alfa,,,117,19,V,R,
339,87,3,8,2,27,53,1251,['n'],1,right,['2'],5,321,[-0.17331678],94,53,easy,minus,dotcolour,alfa,,,117,19,V,R,
340,88,4,8,2,47,33,817,['c'],1,left,['8'],3,645,[0.13945223],83,47,medium,minus,dotcolour,alfa,,,117,19,V,R,
341,89,5,8,2,53,27,735,['c'],1,left,['8'],3,327,[0.1747556],94,53,easy,minus,dotcolour,alfa,,,117,19,V,R,
342,90,6,8,2,53,27,2717,['c'],1,left,['3'],4,150,[0.18204281],99,53,easy,minus,dotcolour,alfa,,,117,19,V,R,
343,91,7,8,2,47,33,1067,['c'],1,left,['8'],3,335,[0.13052027],88,47,medium,minus,dotcolour,alfa,,,117,19,V,R,
344,92,8,8,2,33,47,900,['n'],1,right,['8'],3,367,[-0.13070266],87,47,medium,minus,dotcolour,alfa,,,117,19,V,R,
345,93,9,8,2,53,27,800,['c'],1,left,['2'],5,338,[0.13931652],90,53,easy,minus,dotcolour,alfa,,,117,19,V,R,
346,94,10,8,2,36,44,600,['n'],1,right,['3'],4,982,[-0.15619083],81,44,hard,minus,dotcolour,alfa,,,117,19,V,R,
347,95,11,8,2,53,27,635,['c'],1,left,['1'],6,806,[-0.00703544],48,53,easy,minus,dotcolour,alfa,,,117,19,V,R,
348,96,12,8,2,47,33,600,['c'],1,left,['1'],6,279,[0.07899758],79,47,medium,minus,dotcolour,alfa,,,117,19,V,R,
349,97,13,8,2,27,53,833,['n'],1,right,['1'],6,108,[-0.08750199],92,53,easy,minus,dotcolour,alfa,,,117,19,V,R,
350,98,14,8,2,36,44,1050,['n'],1,right,['3'],4,414,[-0.1584035],90,44,hard,minus,dotcolour,alfa,,,117,19,V,R,
351,99,15,8,2,36,44,750,['n'],1,right,['8'],3,449,[-0.14764625],88,44,hard,minus,dotcolour,alfa,,,117,19,V,R,
352,100,16,8,2,33,47,1082,['n'],1,right,['3'],4,669,[-0.08673455],72,47,medium,minus,dotcolour,alfa,,,117,19,V,R,
353,101,17,8,2,33,47,834,['n'],1,right,['2'],5,490,[-0.092717],77,47,medium,minus,dotcolour,alfa,,,117,19,V,R,
354,102,18,8,2,33,47,1018,['c'],0,right,['2'],5,191,[0.0545647],75,47,medium,minus,dotcolour,alfa,,,117,19,V,R,
355,103,19,8,2,53,27,650,['c'],1,left,['1'],6,486,[0.13687983],85,53,easy,minus,dotcolour,alfa,,,117,19,V,R,
356,104,20,8,2,27,53,583,['n'],1,right,['1'],6,205,[-0.1404011],94,53,easy,minus,dotcolour,alfa,,,117,19,V,R,
357,105,21,8,2,36,44,767,['c'],0,right,['8'],3,768,[0.01642042],54,44,hard,minus,dotcolour,alfa,,,117,19,V,R,
358,106,22,8,2,27,53,1234,['n'],1,right,['2'],5,888,[-0.07659081],68,53,easy,minus,dotcolour,alfa,,,117,19,V,R,
359,107,23,8,2,53,27,1067,['c'],1,left,['1'],6,563,[0.0706593],70,53,easy,minus,dotcolour,alfa,,,117,19,V,R,
360,108,24,8,2,36,44,883,['n'],1,right,['9'],2,666,[0.02230642],44,44,hard,minus,dotcolour,alfa,,,117,19,V,R,
361,109,25,8,2,27,53,868,['n'],1,right,['1'],6,677,[-0.1935525],89,53,easy,minus,dotcolour,alfa,,,117,19,V,R,
362,110,26,8,2,27,53,699,['n'],1,right,['1'],6,192,[-0.11708618],92,53,easy,minus,dotcolour,alfa,,,117,19,V,R,
363,111,27,8,2,47,33,1033,['c'],1,left,['8'],3,1111,[0.21316931],86,47,medium,minus,dotcolour,alfa,,,117,19,V,R,
364,112,28,8,2,44,36,900,['c'],1,left,['3'],4,792,[0.00625727],52,44,hard,minus,dotcolour,alfa,,,117,19,V,R,
365,113,29,8,2,33,47,466,['n'],1,right,['3'],4,303,[-0.12017633],88,47,medium,minus,dotcolour,alfa,,,117,19,V,R,
366,114,30,8,2,36,44,966,['c'],0,right,['8'],3,165,[0.07337438],84,44,hard,minus,dotcolour,alfa,,,117,19,V,R,
367,115,31,8,2,44,36,1100,['c'],1,left,['3'],4,957,[-0.01045558],48,44,hard,minus,dotcolour,alfa,,,117,19,V,R,
368,116,32,8,2,33,47,751,['c'],0,right,['3'],4,393,[-0.03025292],39,47,medium,minus,dotcolour,alfa,,,117,19,V,R,
369,117,33,8,2,47,33,717,['c'],1,left,['8'],3,670,[0.19812258],90,47,medium,minus,dotcolour,alfa,,,117,19,V,R,
370,118,34,8,2,47,33,634,['c'],1,left,['3'],4,226,[0.16435647],96,47,medium,minus,dotcolour,alfa,,,117,19,V,R,
371,119,35,8,2,27,53,883,['n'],1,right,['3'],4,223,[-0.1254192],92,53,easy,minus,dotcolour,alfa,,,117,19,V,R,
372,120,36,8,2,44,36,1417,['c'],1,left,['8'],3,198,[0.16691333],97,44,hard,minus,dotcolour,alfa,,,117,19,V,R,
373,121,37,8,2,44,36,718,['c'],1,left,['3'],4,907,[0.21939257],89,44,hard,minus,dotcolour,alfa,,,117,19,V,R,
374,122,38,8,2,44,36,834,['c'],1,left,['3'],4,302,[0.05907194],72,44,hard,minus,dotcolour,alfa,,,117,19,V,R,
375,123,39,8,2,47,33,617,['c'],1,left,['3'],4,443,[0.07745647],74,47,medium,minus,dotcolour,alfa,,,117,19,V,R,
376,124,40,8,2,53,27,883,['c'],1,left,['3'],4,631,[0.24714035],94,53,easy,minus,dotcolour,alfa,,,117,19,V,R,
377,125,41,8,2,44,36,633,['c'],1,left,['3'],4,238,[0.16398566],95,44,hard,minus,dotcolour,alfa,,,117,19,V,R,
378,0,0,9,3,27,53,2201,['n'],1,right,['2'],5,1094,[-0.2994232],100,53,easy,plus,dotcolour,alfa,,,117,19,V,R,
379,1,1,9,3,33,47,800,['n'],1,right,['2'],5,259,[0.04110969],5,47,medium,plus,dotcolour,alfa,,,117,19,V,R,
380,2,2,9,3,53,27,633,['c'],1,left,['1'],6,216,[0.05903999],99,53,easy,plus,dotcolour,alfa,,,117,19,V,R,
381,3,3,9,3,36,44,700,['n'],1,right,['3'],4,277,[-0.12527041],100,44,hard,plus,dotcolour,alfa,,,117,19,V,R,
382,4,4,9,3,53,27,767,['c'],1,left,['8'],3,204,[0.07032837],100,53,easy,plus,dotcolour,alfa,,,117,19,V,R,
383,5,5,9,3,53,27,382,['n'],0,left,['8'],3,351,[-0.03874298],91,53,easy,plus,dotcolour,alfa,,,117,19,V,R,
384,6,6,9,3,27,53,400,['c'],0,right,['8'],3,425,[-0.05839671],4,53,easy,plus,dotcolour,alfa,,,117,19,V,R,
385,7,7,9,3,33,47,650,['n'],1,right,['8'],3,207,[-0.06285003],99,47,medium,plus,dotcolour,alfa,,,117,19,V,R,
386,8,8,9,3,44,36,5217,['n'],0,left,['8'],3,344,[-0.01246726],68,44,hard,plus,dotcolour,alfa,,,117,19,V,R,
387,9,9,9,3,44,36,584,['c'],1,left,['2'],5,316,[0.1035529],100,44,hard,plus,dotcolour,alfa,,,117,19,V,R,
388,10,10,9,3,47,33,1133,['c'],1,left,['3'],4,347,[0.08953222],100,47,medium,plus,dotcolour,alfa,,,117,19,V,R,
389,11,11,9,3,47,33,449,['c'],1,left,['2'],5,373,[0.01786011],74,47,medium,plus,dotcolour,alfa,,,117,19,V,R,
390,12,12,9,3,47,33,685,['c'],1,left,['2'],5,243,[-0.00514937],41,47,medium,plus,dotcolour,alfa,,,117,19,V,R,
391,13,13,9,3,36,44,832,['n'],1,right,['2'],5,145,[-0.09770539],100,44,hard,plus,dotcolour,alfa,,,117,19,V,R,
392,14,14,9,3,33,47,666,['n'],1,right,['2'],5,249,[-0.10708044],100,47,medium,plus,dotcolour,alfa,,,117,19,V,R,
393,15,15,9,3,44,36,1000,['n'],0,left,['8'],3,177,[-0.15017986],100,44,hard,plus,dotcolour,alfa,,,117,19,V,R,
394,16,16,9,3,33,47,1317,['n'],1,right,['3'],4,703,[-0.12783607],100,47,medium,plus,dotcolour,alfa,,,117,19,V,R,
395,17,17,9,3,53,27,1334,['c'],1,left,['3'],4,166,[0.13071461],100,53,easy,plus,dotcolour,alfa,,,117,19,V,R,
396,18,18,9,3,27,53,651,['n'],1,right,['3'],4,247,[-0.09214284],100,53,easy,plus,dotcolour,alfa,,,117,19,V,R,
397,19,19,9,3,36,44,1266,['n'],1,right,['3'],4,211,[-0.10750723],100,44,hard,plus,dotcolour,alfa,,,117,19,V,R,
398,20,20,9,3,44,36,1351,['c'],1,left,['3'],4,518,[0.03504569],85,44,hard,plus,dotcolour,alfa,,,117,19,V,R,
399,21,21,9,3,27,53,651,['n'],1,right,['3'],4,137,[-0.08418035],100,53,easy,plus,dotcolour,alfa,,,117,19,V,R,
400,22,22,9,3,33,47,718,['n'],1,right,['2'],5,303,[-0.07836407],99,47,medium,plus,dotcolour,alfa,,,117,19,V,R,
401,23,23,9,3,36,44,583,['n'],1,right,['2'],5,222,[-0.11442059],100,44,hard,plus,dotcolour,alfa,,,117,19,V,R,
402,24,24,9,3,47,33,751,['c'],1,left,['8'],3,96,[0.11066299],100,47,medium,plus,dotcolour,alfa,,,117,19,V,R,
403,25,25,9,3,44,36,1001,['n'],0,left,['8'],3,70,[-0.0719642],100,44,hard,plus,dotcolour,alfa,,,117,19,V,R,
404,26,26,9,3,47,33,783,['c'],1,left,['2'],5,148,[0.14970547],100,47,medium,plus,dotcolour,alfa,,,117,19,V,R,
405,27,27,9,3,53,27,400,['c'],1,left,['2'],5,120,[0.07173451],100,53,easy,plus,dotcolour,alfa,,,117,19,V,R,
406,28,28,9,3,33,47,482,['n'],1,right,['2'],5,145,[-0.15222199],100,47,medium,plus,dotcolour,alfa,,,117,19,V,R,
407,29,29,9,3,36,44,416,['c'],0,right,['8'],3,548,[-0.0055243],43,44,hard,plus,dotcolour,alfa,,,117,19,V,R,
408,30,30,9,3,27,53,1850,['n'],1,right,['2'],5,173,[-0.10283863],100,53,easy,plus,dotcolour,alfa,,,117,19,V,R,
409,31,31,9,3,44,36,717,['c'],1,left,['2'],5,227,[0.06079641],99,44,hard,plus,dotcolour,alfa,,,117,19,V,R,
410,32,32,9,3,36,44,618,['n'],1,right,['9'],2,306,[-0.09348241],100,44,hard,plus,dotcolour,alfa,,,117,19,V,R,
411,33,33,9,3,44,36,966,['c'],1,left,['2'],5,247,[0.18031916],100,44,hard,plus,dotcolour,alfa,,,117,19,V,R,
412,34,34,9,3,36,44,1417,['n'],1,right,['3'],4,134,[-0.06424736],100,44,hard,plus,dotcolour,alfa,,,117,19,V,R,
413,35,35,9,3,27,53,902,['n'],1,right,['2'],5,150,[-0.05964069],100,53,easy,plus,dotcolour,alfa,,,117,19,V,R,
414,36,36,9,3,27,53,667,['n'],1,right,['2'],5,95,[-0.06626839],100,53,easy,plus,dotcolour,alfa,,,117,19,V,R,
415,37,37,9,3,53,27,1734,['c'],1,left,['2'],5,1439,[0.64450782],100,53,easy,plus,dotcolour,alfa,,,117,19,V,R,
416,38,38,9,3,33,47,1565,['n'],1,right,['8'],3,152,[-0.05573934],99,47,medium,plus,dotcolour,alfa,,,117,19,V,R,
417,39,39,9,3,53,27,950,['c'],1,left,['2'],5,293,[0.07916225],99,53,easy,plus,dotcolour,alfa,,,117,19,V,R,
418,40,40,9,3,47,33,1834,['n'],0,left,['9'],2,193,[-0.04081576],97,47,medium,plus,dotcolour,alfa,,,117,19,V,R,
419,41,41,9,3,47,33,1217,['c'],1,left,['2'],5,362,[0.15077203],100,47,medium,plus,dotcolour,alfa,,,117,19,V,R,
420,42,0,10,3,36,44,750,['n'],1,right,['9'],2,631,[-0.22072593],100,44,hard,plus,dotcolour,alfa,,,117,19,V,R,
421,43,1,10,3,44,36,1184,['c'],1,left,['8'],3,303,[0.10038737],100,44,hard,plus,dotcolour,alfa,,,117,19,V,R,
422,44,2,10,3,47,33,951,['c'],1,left,['3'],4,559,[0.04176183],88,47,medium,plus,dotcolour,alfa,,,117,19,V,R,
423,45,3,10,3,36,44,1383,['c'],0,right,['2'],5,121,[0.08797243],100,44,hard,plus,dotcolour,alfa,,,117,19,V,R,
424,46,4,10,3,27,53,899,['n'],1,right,['2'],5,219,[-0.02391746],86,53,easy,plus,dotcolour,alfa,,,117,19,V,R,
425,47,5,10,3,44,36,2184,['c'],1,left,['8'],3,283,[0.18366932],100,44,hard,plus,dotcolour,alfa,,,117,19,V,R,
426,48,6,10,3,53,27,1349,['c'],1,left,['2'],5,147,[0.06213953],100,53,easy,plus,dotcolour,alfa,,,117,19,V,R,
427,49,7,10,3,44,36,716,['c'],1,left,['2'],5,131,[0.10563056],100,44,hard,plus,dotcolour,alfa,,,117,19,V,R,
428,50,8,10,3,33,47,718,['n'],1,right,['2'],5,242,[-0.09921376],100,47,medium,plus,dotcolour,alfa,,,117,19,V,R,
429,51,9,10,3,47,33,733,['c'],1,left,['2'],5,187,[0.08115181],100,47,medium,plus,dotcolour,alfa,,,117,19,V,R,
430,52,10,10,3,44,36,517,['c'],1,left,['2'],5,169,[0.0695257],100,44,hard,plus,dotcolour,alfa,,,117,19,V,R,
431,53,11,10,3,27,53,617,['n'],1,right,['2'],5,195,[-0.07149034],100,53,easy,plus,dotcolour,alfa,,,117,19,V,R,
432,54,12,10,3,36,44,800,['n'],1,right,['8'],3,205,[-0.01827251],81,44,hard,plus,dotcolour,alfa,,,117,19,V,R,
433,55,13,10,3,36,44,784,['n'],1,right,['8'],3,183,[-0.01176945],73,44,hard,plus,dotcolour,alfa,,,117,19,V,R,
434,56,14,10,3,27,53,418,['n'],1,right,['2'],5,271,[0.00457432],42,53,easy,plus,dotcolour,alfa,,,117,19,V,R,
435,57,15,10,3,47,33,800,['n'],0,left,['2'],5,127,[-0.07050731],100,47,medium,plus,dotcolour,alfa,,,117,19,V,R,
436,58,16,10,3,47,33,1301,['c'],1,left,['2'],5,134,[0.11136015],100,47,medium,plus,dotcolour,alfa,,,117,19,V,R,
437,59,17,10,3,44,36,1082,['c'],1,left,['2'],5,71,[0.03359376],99,44,hard,plus,dotcolour,alfa,,,117,19,V,R,
438,60,18,10,3,33,47,1500,['n'],1,right,['2'],5,218,[-0.07688432],100,47,medium,plus,dotcolour,alfa,,,117,19,V,R,
439,61,19,10,3,27,53,451,['n'],1,right,['2'],5,241,[-0.02958239],90,53,easy,plus,dotcolour,alfa,,,117,19,V,R,
440,62,20,10,3,33,47,500,['n'],1,right,['2'],5,540,[-0.24008583],100,47,medium,plus,dotcolour,alfa,,,117,19,V,R,
441,63,21,10,3,36,44,667,['n'],1,right,['3'],4,365,[-0.08197477],99,44,hard,plus,dotcolour,alfa,,,117,19,V,R,
442,64,22,10,3,36,44,567,['n'],1,right,['3'],4,249,[-0.15192474],100,44,hard,plus,dotcolour,alfa,,,117,19,V,R,
443,65,23,10,3,53,27,750,['c'],1,left,['3'],4,137,[0.12180443],100,53,easy,plus,dotcolour,alfa,,,117,19,V,R,
444,66,24,10,3,47,33,816,['c'],1,left,['2'],5,366,[0.22320166],100,47,medium,plus,dotcolour,alfa,,,117,19,V,R,
445,67,25,10,3,27,53,700,['n'],1,right,['2'],5,220,[-0.11850952],100,53,easy,plus,dotcolour,alfa,,,117,19,V,R,
446,68,26,10,3,27,53,466,['n'],1,right,['2'],5,218,[-0.02836804],90,53,easy,plus,dotcolour,alfa,,,117,19,V,R,
447,69,27,10,3,53,27,733,['c'],1,left,['8'],3,148,[0.08886248],100,53,easy,plus,dotcolour,alfa,,,117,19,V,R,
448,70,28,10,3,53,27,450,['c'],1,left,['2'],5,135,[0.08308327],100,53,easy,plus,dotcolour,alfa,,,117,19,V,R,
449,71,29,10,3,53,27,468,['c'],1,left,['1'],6,200,[0.13280664],100,53,easy,plus,dotcolour,alfa,,,117,19,V,R,
450,72,30,10,3,53,27,501,['c'],1,left,['1'],6,149,[0.05575238],99,53,easy,plus,dotcolour,alfa,,,117,19,V,R,
451,73,31,10,3,33,47,732,['n'],1,right,['1'],6,99,[-0.109368],100,47,medium,plus,dotcolour,alfa,,,117,19,V,R,
452,74,32,10,3,47,33,983,['c'],1,left,['3'],4,162,[0.03237016],95,47,medium,plus,dotcolour,alfa,,,117,19,V,R,
453,75,33,10,3,47,33,1067,['c'],1,left,['1'],6,162,[0.06769326],100,47,medium,plus,dotcolour,alfa,,,117,19,V,R,
454,76,34,10,3,44,36,634,['n'],0,left,['1'],6,195,[-0.08113877],100,44,hard,plus,dotcolour,alfa,,,117,19,V,R,
455,77,35,10,3,33,47,818,['n'],1,right,['2'],5,532,[-0.03763213],86,47,medium,plus,dotcolour,alfa,,,117,19,V,R,
456,78,36,10,3,53,27,600,['n'],0,left,['1'],6,135,[-0.07774144],100,53,easy,plus,dotcolour,alfa,,,117,19,V,R,
457,79,37,10,3,33,47,1517,['c'],0,right,['3'],4,583,[-0.10734142],1,47,medium,plus,dotcolour,alfa,,,117,19,V,R,
458,80,38,10,3,27,53,734,['n'],1,right,['3'],4,1644,[-0.23801432],100,53,easy,plus,dotcolour,alfa,,,117,19,V,R,
459,81,39,10,3,33,47,802,['n'],1,right,['8'],3,634,[-0.1550003],100,47,medium,plus,dotcolour,alfa,,,117,19,V,R,
460,82,40,10,3,36,44,668,['n'],1,right,['3'],4,456,[-0.12787342],100,44,hard,plus,dotcolour,alfa,,,117,19,V,R,
461,83,41,10,3,44,36,1184,['n'],0,left,['8'],3,416,[-0.0683828],98,44,hard,plus,dotcolour,alfa,,,117,19,V,R,
462,84,0,11,3,53,27,1101,['c'],1,left,['8'],3,50,[0.05848218],100,53,easy,plus,dotcolour,alfa,,,117,19,V,R,
463,85,1,11,3,36,44,765,['n'],1,right,['3'],4,330,[-0.05283932],96,44,hard,plus,dotcolour,alfa,,,117,19,V,R,
464,86,2,11,3,36,44,566,['n'],1,right,['3'],4,160,[-0.11683636],100,44,hard,plus,dotcolour,alfa,,,117,19,V,R,
465,87,3,11,3,47,33,1002,['c'],1,left,['2'],5,50,[0.09462042],100,47,medium,plus,dotcolour,alfa,,,117,19,V,R,
466,88,4,11,3,44,36,433,['c'],1,left,['2'],5,88,[0.07974901],100,44,hard,plus,dotcolour,alfa,,,117,19,V,R,
467,89,5,11,3,53,27,368,['c'],1,left,['2'],5,111,[0.0761234],100,53,easy,plus,dotcolour,alfa,,,117,19,V,R,
468,90,6,11,3,47,33,316,['c'],1,left,['2'],5,16,[0.0629595],100,47,medium,plus,dotcolour,alfa,,,117,19,V,R,
469,91,7,11,3,36,44,1165,['c'],0,right,['9'],2,42,[0.12398091],100,44,hard,plus,dotcolour,alfa,,,117,19,V,R,
470,92,8,11,3,27,53,1382,['n'],1,right,['3'],4,66,[-0.08055828],100,53,easy,plus,dotcolour,alfa,,,117,19,V,R,
471,93,9,11,3,53,27,900,['c'],1,left,['1'],6,12,[0.0682601],100,53,easy,plus,dotcolour,alfa,,,117,19,V,R,
472,94,10,11,3,36,44,1267,['n'],1,right,['2'],5,42,[-0.07937465],100,44,hard,plus,dotcolour,alfa,,,117,19,V,R,
473,95,11,11,3,47,33,817,['c'],1,left,['2'],5,80,[0.07476869],100,47,medium,plus,dotcolour,alfa,,,117,19,V,R,
474,96,12,11,3,27,53,649,['n'],1,right,['2'],5,84,[-0.15184636],100,53,easy,plus,dotcolour,alfa,,,117,19,V,R,
475,97,13,11,3,53,27,450,['c'],1,left,['2'],5,80,[0.07737129],100,53,easy,plus,dotcolour,alfa,,,117,19,V,R,
476,98,14,11,3,33,47,268,['n'],1,right,['8'],3,155,[-0.09333182],100,47,medium,plus,dotcolour,alfa,,,117,19,V,R,
477,99,15,11,3,53,27,983,['c'],1,left,['2'],5,104,[0.06516817],100,53,easy,plus,dotcolour,alfa,,,117,19,V,R,
478,100,16,11,3,27,53,501,['n'],1,right,['2'],5,113,[-0.11668548],100,53,easy,plus,dotcolour,alfa,,,117,19,V,R,
479,101,17,11,3,27,53,652,['n'],1,right,['2'],5,108,[-0.06117575],100,53,easy,plus,dotcolour,alfa,,,117,19,V,R,
480,102,18,11,3,33,47,717,['n'],1,right,['3'],4,316,[-0.14873288],100,47,medium,plus,dotcolour,alfa,,,117,19,V,R,
481,103,19,11,3,33,47,417,['n'],1,right,['3'],4,128,[-0.11797668],100,47,medium,plus,dotcolour,alfa,,,117,19,V,R,
482,104,20,11,3,36,44,1350,['c'],0,right,['9'],2,102,[0.08009211],100,44,hard,plus,dotcolour,alfa,,,117,19,V,R,
483,105,21,11,3,44,36,668,['c'],1,left,['9'],2,2688,[0.14659418],96,44,hard,plus,dotcolour,alfa,,,117,19,V,R,
484,106,22,11,3,47,33,950,['c'],1,left,['8'],3,391,[0.06746823],98,47,medium,plus,dotcolour,alfa,,,117,19,V,R,
485,107,23,11,3,44,36,2100,['c'],1,left,['3'],4,125,[0.0480395],99,44,hard,plus,dotcolour,alfa,,,117,19,V,R,
486,108,24,11,3,36,44,818,['c'],0,right,['3'],4,80,[0.05705719],100,44,hard,plus,dotcolour,alfa,,,117,19,V,R,
487,109,25,11,3,33,47,600,['n'],1,right,['3'],4,181,[-0.11489128],100,47,medium,plus,dotcolour,alfa,,,117,19,V,R,
488,110,26,11,3,36,44,733,['n'],1,right,['3'],4,131,[-0.12295172],100,44,hard,plus,dotcolour,alfa,,,117,19,V,R,
489,111,27,11,3,44,36,482,['n'],0,left,['8'],3,236,[-0.02013055],82,44,hard,plus,dotcolour,alfa,,,117,19,V,R,
490,112,28,11,3,27,53,533,['n'],1,right,['3'],4,262,[-0.05703057],98,53,easy,plus,dotcolour,alfa,,,117,19,V,R,
491,113,29,11,3,47,33,1417,['c'],1,left,['3'],4,244,[0.07791991],100,47,medium,plus,dotcolour,alfa,,,117,19,V,R,
492,114,30,11,3,44,36,1200,['c'],1,left,['3'],4,211,[0.04967164],98,44,hard,plus,dotcolour,alfa,,,117,19,V,R,
493,115,31,11,3,33,47,534,['n'],1,right,['3'],4,167,[-0.13715264],100,47,medium,plus,dotcolour,alfa,,,117,19,V,R,
494,116,32,11,3,33,47,466,['n'],1,right,['3'],4,159,[-0.05237775],99,47,medium,plus,dotcolour,alfa,,,117,19,V,R,
495,117,33,11,3,33,47,384,['n'],1,right,['3'],4,634,[-0.03195475],81,47,medium,plus,dotcolour,alfa,,,117,19,V,R,
496,118,34,11,3,44,36,2233,['c'],1,left,['2'],5,193,[0.1516606],100,44,hard,plus,dotcolour,alfa,,,117,19,V,R,
497,119,35,11,3,27,53,667,['n'],1,right,['2'],5,120,[-0.11819999],100,53,easy,plus,dotcolour,alfa,,,117,19,V,R,
498,120,36,11,3,53,27,967,['c'],1,left,['2'],5,61,[0.08098121],100,53,easy,plus,dotcolour,alfa,,,117,19,V,R,
499,121,37,11,3,27,53,517,['n'],1,right,['2'],5,104,[-0.05342837],100,53,easy,plus,dotcolour,alfa,,,117,19,V,R,
500,122,38,11,3,44,36,433,['c'],1,left,['2'],5,116,[0.06174086],100,44,hard,plus,dotcolour,alfa,,,117,19,V,R,
501,123,39,11,3,47,33,400,['c'],1,left,['2'],5,96,[0.10359375],100,47,medium,plus,dotcolour,alfa,,,117,19,V,R,
502,124,40,11,3,53,27,368,['c'],1,left,['2'],5,151,[0.10033956],100,53,easy,plus,dotcolour,alfa,,,117,19,V,R,
503,125,41,11,3,47,33,384,['c'],1,left,['3'],4,451,[0.08548066],99,47,medium,plus,dotcolour,alfa,,,117,19,V,R,
504,0,0,12,4,47,33,3234,['n'],0,left,['8'],3,302,[-0.06023411],73,47,medium,minus,dotcolour,alfa,,,117,19,V,R,
505,1,1,12,4,53,27,534,['n'],0,left,['0'],1,1414,[0.07722527],36,53,easy,minus,dotcolour,alfa,,,117,19,V,R,
506,2,2,12,4,36,44,984,['c'],0,right,['8'],3,183,[-0.02347983],38,44,hard,minus,dotcolour,alfa,,,117,19,V,R,
507,3,3,12,4,47,33,867,['c'],1,left,['2'],5,382,[0.14078536],89,47,medium,minus,dotcolour,alfa,,,117,19,V,R,
508,4,4,12,4,47,33,551,['c'],1,left,['2'],5,330,[0.07659386],77,47,medium,minus,dotcolour,alfa,,,117,19,V,R,
509,5,5,12,4,36,44,634,['c'],0,right,['8'],3,141,[0.04047238],73,44,hard,minus,dotcolour,alfa,,,117,19,V,R,
510,6,6,12,4,53,27,784,['c'],1,left,['3'],4,321,[0.10425299],84,53,easy,minus,dotcolour,alfa,,,117,19,V,R,
511,7,7,12,4,33,47,668,['c'],0,right,['2'],5,250,[0.00413205],52,47,medium,minus,dotcolour,alfa,,,117,19,V,R,
512,8,8,12,4,44,36,1801,['c'],1,left,['2'],5,138,[0.1089471],93,44,hard,minus,dotcolour,alfa,,,117,19,V,R,
513,9,9,12,4,44,36,650,['c'],1,left,['2'],5,107,[0.02418032],66,44,hard,minus,dotcolour,alfa,,,117,19,V,R,
514,10,10,12,4,36,44,551,['n'],1,right,['2'],5,146,[-0.0756301],86,44,hard,minus,dotcolour,alfa,,,117,19,V,R,
515,11,11,12,4,44,36,400,['c'],1,left,['2'],5,85,[0.10225225],96,44,hard,minus,dotcolour,alfa,,,117,19,V,R,
516,12,12,12,4,27,53,817,['n'],1,right,['2'],5,147,[-0.04076282],72,53,easy,minus,dotcolour,alfa,,,117,19,V,R,
517,13,13,12,4,44,36,734,['n'],0,left,['2'],5,128,[-0.10412165],93,44,hard,minus,dotcolour,alfa,,,117,19,V,R,
518,14,14,12,4,27,53,567,['n'],1,right,['2'],5,134,[-0.11375824],94,53,easy,minus,dotcolour,alfa,,,117,19,V,R,
519,15,15,12,4,44,36,1234,['c'],1,left,['3'],4,128,[0.11306809],95,44,hard,minus,dotcolour,alfa,,,117,19,V,R,
520,16,16,12,4,47,33,733,['c'],1,left,['3'],4,71,[0.10653753],97,47,medium,minus,dotcolour,alfa,,,117,19,V,R,
521,17,17,12,4,44,36,984,['n'],0,left,['3'],4,158,[-0.06399218],81,44,hard,minus,dotcolour,alfa,,,117,19,V,R,
522,18,18,12,4,33,47,550,['n'],1,right,['3'],4,75,[-0.04839657],83,47,medium,minus,dotcolour,alfa,,,117,19,V,R,
523,19,19,12,4,36,44,501,['n'],1,right,['3'],4,85,[-0.14462086],99,44,hard,minus,dotcolour,alfa,,,117,19,V,R,
524,20,20,12,4,47,33,1550,['c'],1,left,['2'],5,125,[0.06665128],85,47,medium,minus,dotcolour,alfa,,,117,19,V,R,
525,21,21,12,4,53,27,2351,['n'],0,left,['3'],4,179,[-0.06487091],80,53,easy,minus,dotcolour,alfa,,,117,19,V,R,
526,22,22,12,4,36,44,1017,['c'],0,right,['3'],4,300,[0.01980769],58,44,hard,minus,dotcolour,alfa,,,117,19,V,R,
527,23,23,12,4,53,27,634,['c'],1,left,['2'],5,313,[0.14111151],91,53,easy,minus,dotcolour,alfa,,,117,19,V,R,
528,24,24,12,4,27,53,534,['n'],1,right,['2'],5,128,[-0.14219867],97,53,easy,minus,dotcolour,alfa,,,117,19,V,R,
529,25,25,12,4,33,47,984,['c'],0,right,['2'],5,149,[-0.00517261],47,47,medium,minus,dotcolour,alfa,,,117,19,V,R,
530,26,26,12,4,47,33,551,['n'],0,left,['8'],3,202,[-0.02833614],64,47,medium,minus,dotcolour,alfa,,,117,19,V,R,
531,27,27,12,4,27,53,1184,['n'],1,right,['2'],5,228,[-0.12963224],92,53,easy,minus,dotcolour,alfa,,,117,19,V,R,
532,28,28,12,4,36,44,834,['n'],1,right,['8'],3,107,[-0.10006657],94,44,hard,minus,dotcolour,alfa,,,117,19,V,R,
533,29,29,12,4,33,47,583,['n'],1,right,['2'],5,151,[-0.15079699],97,47,medium,minus,dotcolour,alfa,,,117,19,V,R,
534,30,30,12,4,36,44,384,['c'],0,right,['3'],4,315,[0.03235385],63,44,hard,minus,dotcolour,alfa,,,117,19,V,R,
535,31,31,12,4,33,47,684,['n'],1,right,['3'],4,188,[-0.06519389],79,47,medium,minus,dotcolour,alfa,,,117,19,V,R,
536,32,32,12,4,44,36,467,['n'],0,left,['3'],4,212,[-0.0444351],70,44,hard,minus,dotcolour,alfa,,,117,19,V,R,
537,33,33,12,4,27,53,1116,['n'],1,right,['2'],5,175,[-0.10695207],91,53,easy,minus,dotcolour,alfa,,,117,19,V,R,
538,34,34,12,4,47,33,983,['c'],1,left,['8'],3,242,[0.06569107],77,47,medium,minus,dotcolour,alfa,,,117,19,V,R,
539,35,35,12,4,53,27,667,['n'],0,left,['0'],1,1415,[-0.04555215],59,53,easy,minus,dotcolour,alfa,,,117,19,V,R,
540,36,36,12,4,27,53,3218,['n'],1,right,['8'],3,190,[-0.00790733],54,53,easy,minus,dotcolour,alfa,,,117,19,V,R,
541,37,37,12,4,33,47,800,['n'],1,right,['3'],4,223,[-0.20799991],98,47,medium,minus,dotcolour,alfa,,,117,19,V,R,
542,38,38,12,4,33,47,784,['n'],1,right,['3'],4,120,[-0.07747319],88,47,medium,minus,dotcolour,alfa,,,117,19,V,R,
543,39,39,12,4,53,27,850,['c'],1,left,['2'],5,211,[0.14242815],94,53,easy,minus,dotcolour,alfa,,,117,19,V,R,
544,40,40,12,4,53,27,483,['c'],1,left,['2'],5,152,[0.0503749],76,53,easy,minus,dotcolour,alfa,,,117,19,V,R,
545,41,41,12,4,27,53,517,['n'],1,right,['2'],5,167,[-0.06856189],82,53,easy,minus,dotcolour,alfa,,,117,19,V,R,
546,42,0,13,4,36,44,617,['n'],1,right,['2'],5,429,[-0.13927143],87,44,hard,minus,dotcolour,alfa,,,117,19,V,R,
547,43,1,13,4,47,33,750,['c'],1,left,['3'],4,399,[0.06190793],71,47,medium,minus,dotcolour,alfa,,,117,19,V,R,
548,44,2,13,4,36,44,683,['n'],1,right,['3'],4,157,[-0.0858343],88,44,hard,minus,dotcolour,alfa,,,117,19,V,R,
549,45,3,13,4,53,27,367,['c'],1,left,['3'],4,217,[0.1343923],93,53,easy,minus,dotcolour,alfa,,,117,19,V,R,
550,46,4,13,4,36,44,667,['c'],0,right,['3'],4,79,[0.09116359],95,44,hard,minus,dotcolour,alfa,,,117,19,V,R,
551,47,5,13,4,33,47,2150,['n'],1,right,['8'],3,167,[-0.15374328],97,47,medium,minus,dotcolour,alfa,,,117,19,V,R,
552,48,6,13,4,27,53,267,['c'],0,right,['3'],4,127,[0.09068773],91,53,easy,minus,dotcolour,alfa,,,117,19,V,R,
553,49,7,13,4,47,33,667,['c'],1,left,['3'],4,96,[0.11027607],96,47,medium,minus,dotcolour,alfa,,,117,19,V,R,
554,50,8,13,4,27,53,483,['n'],1,right,['2'],5,138,[-0.10801427],93,53,easy,minus,dotcolour,alfa,,,117,19,V,R,
555,51,9,13,4,33,47,850,['n'],1,right,['2'],5,108,[-0.02095451],64,47,medium,minus,dotcolour,alfa,,,117,19,V,R,
556,52,10,13,4,44,36,666,['n'],0,left,['3'],4,134,[-0.03826956],72,44,hard,minus,dotcolour,alfa,,,117,19,V,R,
557,53,11,13,4,47,33,967,['c'],1,left,['3'],4,147,[0.07714359],86,47,medium,minus,dotcolour,alfa,,,117,19,V,R,
558,54,12,13,4,36,44,767,['n'],1,right,['3'],4,176,[-0.0955222],89,44,hard,minus,dotcolour,alfa,,,117,19,V,R,
559,55,13,13,4,36,44,683,['n'],1,right,['3'],4,135,[-0.12977895],96,44,hard,minus,dotcolour,alfa,,,117,19,V,R,
560,56,14,13,4,47,33,734,['c'],1,left,['3'],4,133,[0.05246336],78,47,medium,minus,dotcolour,alfa,,,117,19,V,R,
561,57,15,13,4,33,47,750,['n'],1,right,['3'],4,139,[-0.09291548],90,47,medium,minus,dotcolour,alfa,,,117,19,V,R,
562,58,16,13,4,53,27,1283,['c'],1,left,['3'],4,1523,[0.51083361],98,53,easy,minus,dotcolour,alfa,,,117,19,V,R,
563,59,17,13,4,44,36,800,['n'],0,left,['3'],4,751,[0.00174111],50,44,hard,minus,dotcolour,alfa,,,117,19,V,R,
564,60,18,13,4,44,36,600,['n'],0,left,['3'],4,162,[-0.03259022],67,44,hard,minus,dotcolour,alfa,,,117,19,V,R,
565,61,19,13,4,53,27,1268,['c'],1,left,['2'],5,162,[0.13133865],95,53,easy,minus,dotcolour,alfa,,,117,19,V,R,
566,62,20,13,4,53,27,2767,['n'],0,left,['9'],2,174,[-0.02799763],65,53,easy,minus,dotcolour,alfa,,,117,19,V,R,
567,63,21,13,4,44,36,1151,['c'],1,left,['2'],5,706,[0.14678286],83,44,hard,minus,dotcolour,alfa,,,117,19,V,R,
568,64,22,13,4,33,47,1134,['n'],1,right,['3'],4,337,[-0.26261142],98,47,medium,minus,dotcolour,alfa,,,117,19,V,R,
569,65,23,13,4,27,53,534,['n'],1,right,['3'],4,239,[-0.13461073],92,53,easy,minus,dotcolour,alfa,,,117,19,V,R,
570,66,24,13,4,47,33,884,['c'],1,left,['3'],4,139,[0.14897828],97,47,medium,minus,dotcolour,alfa,,,117,19,V,R,
571,67,25,13,4,27,53,634,['n'],1,right,['3'],4,141,[-0.05301963],78,53,easy,minus,dotcolour,alfa,,,117,19,V,R,
572,68,26,13,4,44,36,601,['c'],1,left,['3'],4,137,[0.05728724],80,44,hard,minus,dotcolour,alfa,,,117,19,V,R,
573,69,27,13,4,33,47,834,['n'],1,right,['2'],5,163,[-0.13579098],95,47,medium,minus,dotcolour,alfa,,,117,19,V,R,
574,70,28,13,4,36,44,650,['n'],1,right,['2'],5,100,[-0.04967767],80,44,hard,minus,dotcolour,alfa,,,117,19,V,R,
575,71,29,13,4,33,47,967,['n'],1,right,['2'],5,146,[-0.05369309],78,47,medium,minus,dotcolour,alfa,,,117,19,V,R,
576,72,30,13,4,27,53,583,['n'],1,right,['2'],5,118,[-0.07326754],87,53,easy,minus,dotcolour,alfa,,,117,19,V,R,
577,73,31,13,4,27,53,683,['n'],1,right,['2'],5,127,[-0.06622868],84,53,easy,minus,dotcolour,alfa,,,117,19,V,R,
578,74,32,13,4,47,33,1468,['c'],1,left,['3'],4,201,[0.08590157],85,47,medium,minus,dotcolour,alfa,,,117,19,V,R,
579,75,33,13,4,53,27,667,['c'],1,left,['3'],4,111,[0.15593097],99,53,easy,minus,dotcolour,alfa,,,117,19,V,R,
580,76,34,13,4,36,44,684,['n'],1,right,['2'],5,217,[-0.05524424],74,44,hard,minus,dotcolour,alfa,,,117,19,V,R,
581,77,35,13,4,47,33,834,['c'],1,left,['2'],5,1248,[0.21496564],85,47,medium,minus,dotcolour,alfa,,,117,19,V,R,
582,78,36,13,4,44,36,834,['n'],0,left,['8'],3,389,[-0.044868],66,44,hard,minus,dotcolour,alfa,,,117,19,V,R,
583,79,37,13,4,44,36,1051,['n'],0,left,['8'],3,125,[-0.04833855],77,44,hard,minus,dotcolour,alfa,,,117,19,V,R,
584,80,38,13,4,27,53,1500,['n'],1,right,['2'],5,181,[-0.08522672],86,53,easy,minus,dotcolour,alfa,,,117,19,V,R,
585,81,39,13,4,53,27,634,['c'],1,left,['2'],5,126,[0.11802817],95,53,easy,minus,dotcolour,alfa,,,117,19,V,R,
586,82,40,13,4,53,27,617,['c'],1,left,['2'],5,393,[0.16034101],91,53,easy,minus,dotcolour,alfa,,,117,19,V,R,
587,83,41,13,4,33,47,1585,['n'],1,right,['9'],2,187,[-0.10085361],89,47,medium,minus,dotcolour,alfa,,,117,19,V,R,
588,84,0,14,4,53,27,867,['c'],1,left,['2'],5,622,[0.02838244],58,53,easy,minus,dotcolour,alfa,,,117,19,V,R,
589,85,1,14,4,36,44,701,['n'],1,right,['2'],5,194,[-0.09332029],87,44,hard,minus,dotcolour,alfa,,,117,19,V,R,
590,86,2,14,4,47,33,601,['n'],0,left,['9'],2,996,[-0.08818924],69,47,medium,minus,dotcolour,alfa,,,117,19,V,R,
591,87,3,14,4,44,36,934,['c'],1,left,['3'],4,256,[0.11478417],89,44,hard,minus,dotcolour,alfa,,,117,19,V,R,
592,88,4,14,4,33,47,534,['c'],0,right,['3'],4,49,[0.01577409],66,47,medium,minus,dotcolour,alfa,,,117,19,V,R,
593,89,5,14,4,47,33,884,['c'],1,left,['2'],5,69,[0.11470878],98,47,medium,minus,dotcolour,alfa,,,117,19,V,R,
594,90,6,14,4,33,47,1418,['n'],1,right,['3'],4,547,[0.01115469],47,47,medium,minus,dotcolour,alfa,,,117,19,V,R,
595,91,7,14,4,27,53,517,['n'],1,right,['3'],4,130,[-0.06343929],83,53,easy,minus,dotcolour,alfa,,,117,19,V,R,
596,92,8,14,4,53,27,934,['c'],1,left,['2'],5,304,[0.06645406],75,53,easy,minus,dotcolour,alfa,,,117,19,V,R,
597,93,9,14,4,53,27,584,['c'],1,left,['2'],5,110,[0.09480787],93,53,easy,minus,dotcolour,alfa,,,117,19,V,R,
598,94,10,14,4,47,33,1484,['c'],1,left,['1'],6,112,[0.06794286],86,47,medium,minus,dotcolour,alfa,,,117,19,V,R,
599,95,11,14,4,36,44,851,['c'],0,right,['2'],5,146,[0.07593161],86,44,hard,minus,dotcolour,alfa,,,117,19,V,R,
600,96,12,14,4,53,27,1884,['c'],1,left,['3'],4,98,[0.15276247],99,53,easy,minus,dotcolour,alfa,,,117,19,V,R,
601,97,13,14,4,53,27,1568,['c'],1,left,['2'],5,49,[0.09693326],98,53,easy,minus,dotcolour,alfa,,,117,19,V,R,
602,98,14,14,4,36,44,967,['n'],1,right,['2'],5,82,[-0.05838307],86,44,hard,minus,dotcolour,alfa,,,117,19,V,R,
603,99,15,14,4,47,33,600,['n'],0,left,['2'],5,104,[-0.09793164],94,47,medium,minus,dotcolour,alfa,,,117,19,V,R,
604,100,16,14,4,44,36,1134,['n'],0,left,['8'],3,136,[-0.05929963],81,44,hard,minus,dotcolour,alfa,,,117,19,V,R,
605,101,17,14,4,33,47,1250,['n'],1,right,['8'],3,106,[-0.11814799],96,47,medium,minus,dotcolour,alfa,,,117,19,V,R,
606,102,18,14,4,33,47,467,['c'],0,right,['3'],4,28,[0.09741634],99,47,medium,minus,dotcolour,alfa,,,117,19,V,R,
607,103,19,14,4,27,53,584,['n'],1,right,['8'],3,60,[-0.11193735],98,53,easy,minus,dotcolour,alfa,,,117,19,V,R,
608,104,20,14,4,27,53,1200,['n'],1,right,['2'],5,123,[-0.04282089],75,53,easy,minus,dotcolour,alfa,,,117,19,V,R,
609,105,21,14,4,36,44,1100,['n'],1,right,['2'],5,60,[-0.07874874],95,44,hard,minus,dotcolour,alfa,,,117,19,V,R,
610,106,22,14,4,44,36,650,['c'],1,left,['2'],5,96,[0.06775198],88,44,hard,minus,dotcolour,alfa,,,117,19,V,R,
611,107,23,14,4,47,33,449,['c'],1,left,['2'],5,92,[0.10765262],96,47,medium,minus,dotcolour,alfa,,,117,19,V,R,
612,108,24,14,4,27,53,717,['n'],1,right,['2'],5,100,[-0.10372523],95,53,easy,minus,dotcolour,alfa,,,117,19,V,R,
613,109,25,14,4,36,44,317,['c'],0,right,['2'],5,21,[0.07649987],99,44,hard,minus,dotcolour,alfa,,,117,19,V,R,
614,110,26,14,4,53,27,867,['c'],1,left,['2'],5,835,[0.1831326],86,53,easy,minus,dotcolour,alfa,,,117,19,V,R,
615,111,27,14,4,47,33,551,['c'],1,left,['2'],5,116,[0.07616971],88,47,medium,minus,dotcolour,alfa,,,117,19,V,R,
616,112,28,14,4,44,36,616,['n'],0,left,['2'],5,112,[-0.12427578],97,44,hard,minus,dotcolour,alfa,,,117,19,V,R,
617,113,29,14,4,27,53,516,['n'],1,right,['2'],5,144,[-0.02813784],66,53,easy,minus,dotcolour,alfa,,,117,19,V,R,
618,114,30,14,4,47,33,833,['c'],1,left,['2'],5,50,[0.10373229],98,47,medium,minus,dotcolour,alfa,,,117,19,V,R,
619,115,31,14,4,27,53,550,['n'],1,right,['2'],5,76,[-0.0873628],95,53,easy,minus,dotcolour,alfa,,,117,19,V,R,
620,116,32,14,4,33,47,883,['n'],1,right,['2'],5,6,[-0.06405014],100,47,medium,minus,dotcolour,alfa,,,117,19,V,R,
621,117,33,14,4,36,44,267,['c'],0,right,['2'],5,85,[0.12425912],98,44,hard,minus,dotcolour,alfa,,,117,19,V,R,
622,118,34,14,4,33,47,734,['n'],1,right,['3'],4,54,[-0.06902174],94,47,medium,minus,dotcolour,alfa,,,117,19,V,R,
623,119,35,14,4,36,44,583,['c'],0,right,['8'],3,46,[0.09975374],99,44,hard,minus,dotcolour,alfa,,,117,19,V,R,
624,120,36,14,4,33,47,1516,['n'],1,right,['8'],3,40,[-0.08016155],97,47,medium,minus,dotcolour,alfa,,,117,19,V,R,
625,121,37,14,4,44,36,900,['c'],1,left,['8'],3,12,[0.07424799],100,44,hard,minus,dotcolour,alfa,,,117,19,V,R,
626,122,38,14,4,44,36,883,['c'],1,left,['8'],3,26,[0.06622203],98,44,hard,minus,dotcolour,alfa,,,117,19,V,R,
627,123,39,14,4,44,36,583,['c'],1,left,['8'],3,98,[0.08204198],91,44,hard,minus,dotcolour,alfa,,,117,19,V,R,
628,124,40,14,4,27,53,1001,['n'],1,right,['2'],5,152,[-0.12390491],95,53,easy,minus,dotcolour,alfa,,,117,19,V,R,
629,125,41,14,4,53,27,783,['c'],1,left,['1'],6,108,[0.15447834],99,53,easy,minus,dotcolour,alfa,,,117,19,V,R,
630,0,0,15,5,36,44,1683,['n'],1,right,['3'],4,413,[-0.10139798],100,44,hard,plus,dotcolour,alfa,,,117,19,V,R,
631,1,1,15,5,33,47,534,['n'],1,right,['3'],4,225,[-0.13613065],100,47,medium,plus,dotcolour,alfa,,,117,19,V,R,
632,2,2,15,5,47,33,300,['n'],0,left,['9'],2,1085,[0.18440744],0,47,medium,plus,dotcolour,alfa,,,117,19,V,R,
633,3,3,15,5,36,44,1166,['c'],0,right,['3'],4,243,[0.12123907],100,44,hard,plus,dotcolour,alfa,,,117,19,V,R,
634,4,4,15,5,53,27,1150,['c'],1,left,['3'],4,180,[0.09739128],100,53,easy,plus,dotcolour,alfa,,,117,19,V,R,
635,5,5,15,5,36,44,1166,['c'],0,right,['9'],2,984,[0.09115701],96,44,hard,plus,dotcolour,alfa,,,117,19,V,R,
636,6,6,15,5,36,44,1167,['n'],1,right,['3'],4,450,[-0.33229735],100,44,hard,plus,dotcolour,alfa,,,117,19,V,R,
637,7,7,15,5,33,47,667,['n'],1,right,['3'],4,159,[-0.11114287],100,47,medium,plus,dotcolour,alfa,,,117,19,V,R,
638,8,8,15,5,33,47,833,['c'],0,right,['2'],5,49,[0.09487831],100,47,medium,plus,dotcolour,alfa,,,117,19,V,R,
639,9,9,15,5,47,33,617,['c'],1,left,['2'],5,103,[0.02343554],93,47,medium,plus,dotcolour,alfa,,,117,19,V,R,
640,10,10,15,5,44,36,1750,['c'],1,left,['2'],5,111,[0.04450254],99,44,hard,plus,dotcolour,alfa,,,117,19,V,R,
641,11,11,15,5,36,44,883,['c'],0,right,['9'],2,160,[0.09862342],100,44,hard,plus,dotcolour,alfa,,,117,19,V,R,
642,12,12,15,5,44,36,1634,['c'],1,left,['3'],4,73,[0.09086396],100,44,hard,plus,dotcolour,alfa,,,117,19,V,R,
643,13,13,15,5,53,27,700,['c'],1,left,['3'],4,52,[0.05453254],100,53,easy,plus,dotcolour,alfa,,,117,19,V,R,
644,14,14,15,5,47,33,649,['c'],1,left,['3'],4,137,[0.10766988],100,47,medium,plus,dotcolour,alfa,,,117,19,V,R,
645,15,15,15,5,44,36,884,['n'],0,left,['8'],3,466,[-0.10737923],100,44,hard,plus,dotcolour,alfa,,,117,19,V,R,
646,16,16,15,5,27,53,983,['n'],1,right,['3'],4,113,[-0.14335692],100,53,easy,plus,dotcolour,alfa,,,117,19,V,R,
647,17,17,15,5,36,44,1684,['c'],0,right,['3'],4,747,[0.09923308],98,44,hard,plus,dotcolour,alfa,,,117,19,V,R,
648,18,18,15,5,27,53,1083,['n'],1,right,['3'],4,171,[-0.05326469],99,53,easy,plus,dotcolour,alfa,,,117,19,V,R,
649,19,19,15,5,53,27,1216,['c'],1,left,['3'],4,365,[0.19788934],100,53,easy,plus,dotcolour,alfa,,,117,19,V,R,
650,20,20,15,5,53,27,566,['c'],1,left,['3'],4,49,[0.09147516],100,53,easy,plus,dotcolour,alfa,,,117,19,V,R,
651,21,21,15,5,33,47,1017,['n'],1,right,['3'],4,119,[-0.04507297],99,47,medium,plus,dotcolour,alfa,,,117,19,V,R,
652,22,22,15,5,36,44,801,['c'],0,right,['3'],4,108,[0.08566631],100,44,hard,plus,dotcolour,alfa,,,117,19,V,R,
653,23,23,15,5,33,47,801,['n'],1,right,['3'],4,209,[-0.08405897],100,47,medium,plus,dotcolour,alfa,,,117,19,V,R,
654,24,24,15,5,44,36,934,['n'],0,left,['3'],4,148,[-0.01185916],75,44,hard,plus,dotcolour,alfa,,,117,19,V,R,
655,25,25,15,5,44,36,683,['c'],1,left,['3'],4,52,[0.07670291],100,44,hard,plus,dotcolour,alfa,,,117,19,V,R,
656,26,26,15,5,47,33,517,['c'],1,left,['3'],4,79,[0.09971221],100,47,medium,plus,dotcolour,alfa,,,117,19,V,R,
657,27,27,15,5,33,47,2416,['c'],0,right,['2'],5,420,[0.07783154],99,47,medium,plus,dotcolour,alfa,,,117,19,V,R,
658,28,28,15,5,53,27,499,['c'],1,left,['2'],5,89,[0.04810722],100,53,easy,plus,dotcolour,alfa,,,117,19,V,R,
659,29,29,15,5,27,53,350,['n'],1,right,['2'],5,88,[-0.14360486],100,53,easy,plus,dotcolour,alfa,,,117,19,V,R,
660,30,30,15,5,53,27,467,['c'],1,left,['2'],5,115,[0.02029464],90,53,easy,plus,dotcolour,alfa,,,117,19,V,R,
661,31,31,15,5,27,53,384,['n'],1,right,['2'],5,73,[-0.05745428],100,53,easy,plus,dotcolour,alfa,,,117,19,V,R,
662,32,32,15,5,47,33,516,['c'],1,left,['2'],5,115,[0.07715358],100,47,medium,plus,dotcolour,alfa,,,117,19,V,R,
663,33,33,15,5,47,33,1950,['c'],1,left,['2'],5,73,[0.07764018],100,47,medium,plus,dotcolour,alfa,,,117,19,V,R,
664,34,34,15,5,27,53,600,['n'],1,right,['2'],5,104,[-0.08462497],100,53,easy,plus,dotcolour,alfa,,,117,19,V,R,
665,35,35,15,5,53,27,366,['c'],1,left,['2'],5,1407,[0.14504377],99,53,easy,plus,dotcolour,alfa,,,117,19,V,R,
666,36,36,15,5,33,47,717,['n'],1,right,['3'],4,186,[-0.12267082],100,47,medium,plus,dotcolour,alfa,,,117,19,V,R,
667,37,37,15,5,27,53,417,['n'],1,right,['8'],3,100,[-0.14968652],100,53,easy,plus,dotcolour,alfa,,,117,19,V,R,
668,38,38,15,5,44,36,884,['c'],1,left,['3'],4,126,[0.13175552],100,44,hard,plus,dotcolour,alfa,,,117,19,V,R,
669,39,39,15,5,47,33,400,['c'],1,left,['1'],6,202,[0.0579087],99,47,medium,plus,dotcolour,alfa,,,117,19,V,R,
670,40,40,15,5,27,53,3000,['c'],0,right,['9'],2,147,[0.07055399],100,53,easy,plus,dotcolour,alfa,,,117,19,V,R,
671,41,41,15,5,44,36,750,['c'],1,left,['8'],3,409,[0.14588869],100,44,hard,plus,dotcolour,alfa,,,117,19,V,R,
672,42,0,16,5,47,33,1500,['c'],1,left,['3'],4,1235,[0.11252242],97,47,medium,plus,dotcolour,alfa,,,117,19,V,R,
673,43,1,16,5,27,53,550,['n'],1,right,['3'],4,149,[-0.08272808],100,53,easy,plus,dotcolour,alfa,,,117,19,V,R,
674,44,2,16,5,33,47,950,['c'],0,right,['3'],4,114,[0.11037722],100,47,medium,plus,dotcolour,alfa,,,117,19,V,R,
675,45,3,16,5,44,36,950,['c'],1,left,['3'],4,361,[0.18272513],100,44,hard,plus,dotcolour,alfa,,,117,19,V,R,
676,46,4,16,5,53,27,817,['c'],1,left,['3'],4,339,[0.08138985],99,53,easy,plus,dotcolour,alfa,,,117,19,V,R,
677,47,5,16,5,53,27,682,['c'],1,left,['3'],4,219,[0.09651857],100,53,easy,plus,dotcolour,alfa,,,117,19,V,R,
678,48,6,16,5,33,47,684,['n'],1,right,['3'],4,144,[-0.10720796],100,47,medium,plus,dotcolour,alfa,,,117,19,V,R,
679,49,7,16,5,53,27,2000,['n'],0,left,['3'],4,131,[-0.06307436],100,53,easy,plus,dotcolour,alfa,,,117,19,V,R,
680,50,8,16,5,44,36,950,['n'],0,left,['3'],4,137,[-0.07883656],100,44,hard,plus,dotcolour,alfa,,,117,19,V,R,
681,51,9,16,5,44,36,533,['c'],1,left,['3'],4,40,[0.05670811],100,44,hard,plus,dotcolour,alfa,,,117,19,V,R,
682,52,10,16,5,44,36,434,['c'],1,left,['3'],4,5159,[0.19172399],95,44,hard,plus,dotcolour,alfa,,,117,19,V,R,
683,53,11,16,5,47,33,1167,['c'],1,left,['2'],5,169,[0.13452956],100,47,medium,plus,dotcolour,alfa,,,117,19,V,R,
684,54,12,16,5,27,53,1050,['n'],1,right,['2'],5,74,[-0.04358309],100,53,easy,plus,dotcolour,alfa,,,117,19,V,R,
685,55,13,16,5,53,27,383,['c'],1,left,['2'],5,121,[0.15163088],100,53,easy,plus,dotcolour,alfa,,,117,19,V,R,
686,56,14,16,5,33,47,516,['n'],1,right,['2'],5,105,[-0.11727454],100,47,medium,plus,dotcolour,alfa,,,117,19,V,R,
687,57,15,16,5,36,44,900,['n'],1,right,['8'],3,162,[-0.08248432],100,44,hard,plus,dotcolour,alfa,,,117,19,V,R,
688,58,16,16,5,47,33,800,['c'],1,left,['3'],4,245,[0.0930169],100,47,medium,plus,dotcolour,alfa,,,117,19,V,R,
689,59,17,16,5,36,44,884,['n'],1,right,['2'],5,161,[-0.07837758],100,44,hard,plus,dotcolour,alfa,,,117,19,V,R,
690,60,18,16,5,36,44,450,['c'],0,right,['2'],5,90,[0.02233131],94,44,hard,plus,dotcolour,alfa,,,117,19,V,R,
691,61,19,16,5,33,47,418,['n'],1,right,['2'],5,151,[-0.09838163],100,47,medium,plus,dotcolour,alfa,,,117,19,V,R,
692,62,20,16,5,47,33,416,['c'],1,left,['2'],5,113,[0.14300901],100,47,medium,plus,dotcolour,alfa,,,117,19,V,R,
693,63,21,16,5,44,36,450,['c'],1,left,['2'],5,92,[0.08025371],100,44,hard,plus,dotcolour,alfa,,,117,19,V,R,
694,64,22,16,5,44,36,400,['c'],1,left,['2'],5,105,[0.10498114],100,44,hard,plus,dotcolour,alfa,,,117,19,V,R,
695,65,23,16,5,33,47,883,['n'],1,right,['2'],5,83,[-0.08011667],100,47,medium,plus,dotcolour,alfa,,,117,19,V,R,
696,66,24,16,5,36,44,850,['n'],1,right,['2'],5,95,[-0.07547718],100,44,hard,plus,dotcolour,alfa,,,117,19,V,R,
697,67,25,16,5,53,27,550,['c'],1,left,['2'],5,15,[0.08901386],100,53,easy,plus,dotcolour,alfa,,,117,19,V,R,
698,68,26,16,5,27,53,617,['n'],1,right,['2'],5,159,[-0.09333993],100,53,easy,plus,dotcolour,alfa,,,117,19,V,R,
699,69,27,16,5,47,33,634,['c'],1,left,['2'],5,72,[0.09954582],100,47,medium,plus,dotcolour,alfa,,,117,19,V,R,
700,70,28,16,5,44,36,1267,['c'],1,left,['2'],5,4,[0.07726733],100,44,hard,plus,dotcolour,alfa,,,117,19,V,R,
701,71,29,16,5,47,33,616,['c'],1,left,['2'],5,21,[0.05532004],100,47,medium,plus,dotcolour,alfa,,,117,19,V,R,
702,72,30,16,5,33,47,584,['n'],1,right,['2'],5,86,[-0.10247862],100,47,medium,plus,dotcolour,alfa,,,117,19,V,R,
703,73,31,16,5,27,53,866,['n'],1,right,['1'],6,98,[-0.02437006],94,53,easy,plus,dotcolour,alfa,,,117,19,V,R,
704,74,32,16,5,36,44,817,['n'],1,right,['8'],3,534,[-0.0472828],91,44,hard,plus,dotcolour,alfa,,,117,19,V,R,
705,75,33,16,5,47,33,884,['c'],1,left,['3'],4,455,[0.10604412],100,47,medium,plus,dotcolour,alfa,,,117,19,V,R,
706,76,34,16,5,27,53,483,['n'],1,right,['3'],4,186,[-0.0539069],99,53,easy,plus,dotcolour,alfa,,,117,19,V,R,
707,77,35,16,5,53,27,617,['c'],1,left,['3'],4,36,[0.09998991],100,53,easy,plus,dotcolour,alfa,,,117,19,V,R,
708,78,36,16,5,27,53,683,['n'],1,right,['3'],4,880,[-0.40734322],100,53,easy,plus,dotcolour,alfa,,,117,19,V,R,
709,79,37,16,5,36,44,1483,['c'],0,right,['2'],5,123,[0.03097843],96,44,hard,plus,dotcolour,alfa,,,117,19,V,R,
710,80,38,16,5,27,53,667,['n'],1,right,['2'],5,108,[-0.00280074],58,53,easy,plus,dotcolour,alfa,,,117,19,V,R,
711,81,39,16,5,36,44,501,['c'],0,right,['2'],5,957,[-0.24392946],0,44,hard,plus,dotcolour,alfa,,,117,19,V,R,
712,82,40,16,5,53,27,634,['c'],1,left,['2'],5,94,[0.107953],100,53,easy,plus,dotcolour,alfa,,,117,19,V,R,
713,83,41,16,5,33,47,667,['n'],1,right,['2'],5,89,[-0.04084585],99,47,medium,plus,dotcolour,alfa,,,117,19,V,R,
714,84,0,17,5,33,47,1966,['n'],1,right,['3'],4,126,[-0.12939232],100,47,medium,plus,dotcolour,alfa,,,117,19,V,R,
715,85,1,17,5,44,36,3100,['c'],1,left,['2'],5,1766,[-0.18456496],1,44,hard,plus,dotcolour,alfa,,,117,19,V,R,
716,86,2,17,5,33,47,817,['c'],0,right,['8'],3,64,[0.09765699],100,47,medium,plus,dotcolour,alfa,,,117,19,V,R,
717,87,3,17,5,44,36,784,['c'],1,left,['8'],3,71,[0.08796988],100,44,hard,plus,dotcolour,alfa,,,117,19,V,R,
718,88,4,17,5,47,33,2566,['n'],0,left,['8'],3,175,[-0.11054951],100,47,medium,plus,dotcolour,alfa,,,117,19,V,R,
719,89,5,17,5,27,53,568,['n'],1,right,['8'],3,155,[-0.12690515],100,53,easy,plus,dotcolour,alfa,,,117,19,V,R,
720,90,6,17,5,53,27,351,['c'],1,left,['3'],4,23,[0.09202757],100,53,easy,plus,dotcolour,alfa,,,117,19,V,R,
721,91,7,17,5,33,47,918,['n'],1,right,['8'],3,42,[-0.08351608],100,47,medium,plus,dotcolour,alfa,,,117,19,V,R,
722,92,8,17,5,44,36,1400,['c'],1,left,['2'],5,122,[0.12804603],100,44,hard,plus,dotcolour,alfa,,,117,19,V,R,
723,93,9,17,5,36,44,1251,['c'],0,right,['2'],5,13,[0.06916402],100,44,hard,plus,dotcolour,alfa,,,117,19,V,R,
724,94,10,17,5,27,53,784,['n'],1,right,['2'],5,150,[-0.04046614],98,53,easy,plus,dotcolour,alfa,,,117,19,V,R,
725,95,11,17,5,36,44,817,['c'],0,right,['2'],5,24,[0.07700767],100,44,hard,plus,dotcolour,alfa,,,117,19,V,R,
726,96,12,17,5,27,53,666,['c'],0,right,['2'],5,54,[0.04902269],100,53,easy,plus,dotcolour,alfa,,,117,19,V,R,
727,97,13,17,5,27,53,1117,['c'],0,right,['3'],4,160,[0.06059951],100,53,easy,plus,dotcolour,alfa,,,117,19,V,R,
728,98,14,17,5,33,47,1101,['n'],1,right,['3'],4,111,[-0.03903372],99,47,medium,plus,dotcolour,alfa,,,117,19,V,R,
729,99,15,17,5,33,47,550,['n'],1,right,['3'],4,78,[-0.06645779],100,47,medium,plus,dotcolour,alfa,,,117,19,V,R,
730,100,16,17,5,27,53,401,['n'],1,right,['3'],4,108,[-0.10031772],100,53,easy,plus,dotcolour,alfa,,,117,19,V,R,
731,101,17,17,5,36,44,984,['n'],1,right,['8'],3,17,[-0.08204612],100,44,hard,plus,dotcolour,alfa,,,117,19,V,R,
732,102,18,17,5,33,47,951,['n'],1,right,['3'],4,84,[-0.04234851],99,47,medium,plus,dotcolour,alfa,,,117,19,V,R,
733,103,19,17,5,27,53,500,['n'],1,right,['8'],3,286,[-0.18141404],100,53,easy,plus,dotcolour,alfa,,,117,19,V,R,
734,104,20,17,5,53,27,1351,['c'],1,left,['2'],5,118,[0.09039231],100,53,easy,plus,dotcolour,alfa,,,117,19,V,R,
735,105,21,17,5,33,47,1133,['c'],0,right,['2'],5,61,[0.06014578],100,47,medium,plus,dotcolour,alfa,,,117,19,V,R,
736,106,22,17,5,53,27,533,['c'],1,left,['2'],5,111,[0.06887471],100,53,easy,plus,dotcolour,alfa,,,117,19,V,R,
737,107,23,17,5,53,27,450,['c'],1,left,['2'],5,1097,[0.27106593],100,53,easy,plus,dotcolour,alfa,,,117,19,V,R,
738,108,24,17,5,36,44,1017,['n'],1,right,['2'],5,334,[-0.09308486],100,44,hard,plus,dotcolour,alfa,,,117,19,V,R,
739,109,25,17,5,47,33,733,['c'],1,left,['2'],5,68,[0.07574532],100,47,medium,plus,dotcolour,alfa,,,117,19,V,R,
740,110,26,17,5,44,36,768,['c'],1,left,['2'],5,1132,[0.09769164],96,44,hard,plus,dotcolour,alfa,,,117,19,V,R,
741,111,27,17,5,53,27,534,['c'],1,left,['2'],5,35,[0.08769289],100,53,easy,plus,dotcolour,alfa,,,117,19,V,R,
742,112,28,17,5,47,33,533,['n'],0,left,['2'],5,157,[-0.07041355],100,47,medium,plus,dotcolour,alfa,,,117,19,V,R,
743,113,29,17,5,47,33,816,['c'],1,left,['2'],5,71,[0.05643279],100,47,medium,plus,dotcolour,alfa,,,117,19,V,R,
744,114,30,17,5,44,36,651,['n'],0,left,['2'],5,91,[-0.05865151],100,44,hard,plus,dotcolour,alfa,,,117,19,V,R,
745,115,31,17,5,44,36,601,['n'],0,left,['2'],5,105,[-0.07841856],100,44,hard,plus,dotcolour,alfa,,,117,19,V,R,
746,116,32,17,5,36,44,667,['n'],1,right,['3'],4,132,[-0.0774121],100,44,hard,plus,dotcolour,alfa,,,117,19,V,R,
747,117,33,17,5,36,44,400,['c'],0,right,['2'],5,32,[0.07213255],100,44,hard,plus,dotcolour,alfa,,,117,19,V,R,
748,118,34,17,5,47,33,400,['n'],0,left,['8'],3,328,[-0.09376412],100,47,medium,plus,dotcolour,alfa,,,117,19,V,R,
749,119,35,17,5,47,33,1317,['n'],0,left,['8'],3,79,[-0.11918985],100,47,medium,plus,dotcolour,alfa,,,117,19,V,R,
750,120,36,17,5,27,53,1401,['n'],1,right,['3'],4,149,[-0.05207181],99,53,easy,plus,dotcolour,alfa,,,117,19,V,R,
751,121,37,17,5,53,27,433,['c'],1,left,['3'],4,31,[0.04630474],100,53,easy,plus,dotcolour,alfa,,,117,19,V,R,
752,122,38,17,5,36,44,1667,['n'],1,right,['3'],4,124,[-0.0909598],100,44,hard,plus,dotcolour,alfa,,,117,19,V,R,
753,123,39,17,5,53,27,767,['c'],1,left,['3'],4,34,[0.09153348],100,53,easy,plus,dotcolour,alfa,,,117,19,V,R,
754,124,40,17,5,44,36,666,['c'],1,left,['2'],5,103,[0.09516586],100,44,hard,plus,dotcolour,alfa,,,117,19,V,R,
755,125,41,17,5,47,33,450,['c'],1,left,['2'],5,27,[0.06465467],100,47,medium,plus,dotcolour,alfa,,,117,19,V,R,
,,,,,,,,,,,,,,,,,,,,,1,   niks speciaal  ,117,19,V,R,
,,,,,,,,,,,,,,,,,,,,,2,['g'],117,19,V,R,
,,,,,,,,,,,,,,,,,,,,,3,['f'],117,19,V,R,
,,,,,,,,,,,,,,,,,,,,,5,['5'],117,19,V,R,
