trial,withinphasetrial,withinblocktrial,block,phase,dotsLeft,dotsRight,rt,resp,cor,cresp,conf_press,cj,RTconf,ev,fb,diff,difflevel,condition,task,manip,questionID,questionResp,sub,age,gender,handedness,
0,0,0,0,0,47,33,18149,['c'],1,left,['1'],6,3635,[0.48347469],98,47,medium,minus,dotcolour,beta,,,21,18,V,R,
1,1,1,0,0,47,33,10214,['n'],0,left,['3'],4,4912,[0.70139996],0,47,medium,minus,dotcolour,beta,,,21,18,V,R,
2,2,2,0,0,27,53,2133,['n'],1,right,['2'],5,2301,[-0.37350456],98,53,easy,minus,dotcolour,beta,,,21,18,V,R,
3,3,3,0,0,36,44,2582,['n'],1,right,['3'],4,1691,[-0.18089239],85,44,hard,minus,dotcolour,beta,,,21,18,V,R,
4,4,4,0,0,47,33,3715,['c'],1,left,['8'],3,3971,[0.34476728],93,47,medium,minus,dotcolour,beta,,,21,18,V,R,
5,5,5,0,0,47,33,2482,['c'],1,left,['3'],4,5497,[0.33381337],89,47,medium,minus,dotcolour,beta,,,21,18,V,R,
6,6,6,0,0,33,47,1980,['n'],1,right,['3'],4,2006,[-0.42714115],99,47,medium,minus,dotcolour,beta,,,21,18,V,R,
7,7,7,0,0,47,33,3816,['n'],0,left,['3'],4,1758,[-0.00871122],35,47,medium,minus,dotcolour,beta,,,21,18,V,R,
8,8,8,0,0,36,44,1232,['n'],1,right,['3'],4,1967,[-0.47769479],100,44,hard,minus,dotcolour,beta,,,21,18,V,R,
9,9,9,0,0,27,53,1115,['n'],1,right,['2'],5,2957,[-0.32218954],94,53,easy,minus,dotcolour,beta,,,21,18,V,R,
10,10,10,0,0,44,36,2432,['c'],1,left,['8'],3,3421,[0.6447184],100,44,hard,minus,dotcolour,beta,,,21,18,V,R,
11,11,11,0,0,36,44,1681,['n'],1,right,['2'],5,1065,[-0.24763771],97,44,hard,minus,dotcolour,beta,,,21,18,V,R,
12,12,12,0,0,44,36,2348,['c'],1,left,['3'],4,1874,[0.35690771],98,44,hard,minus,dotcolour,beta,,,21,18,V,R,
13,13,13,0,0,53,27,2132,['c'],1,left,['3'],4,5298,[0.69751065],99,53,easy,minus,dotcolour,beta,,,21,18,V,R,
14,14,14,0,0,33,47,2514,['n'],1,right,['2'],5,2841,[-0.24919779],89,47,medium,minus,dotcolour,beta,,,21,18,V,R,
15,15,15,0,0,53,27,1800,['c'],1,left,['3'],4,2119,[0.5081688],100,53,easy,minus,dotcolour,beta,,,21,18,V,R,
16,16,16,0,0,44,36,1949,['c'],1,left,['2'],5,2117,[0.04099559],46,44,hard,minus,dotcolour,beta,,,21,18,V,R,
17,17,17,0,0,33,47,1583,['n'],1,right,['1'],6,4450,[-0.84600022],100,47,medium,minus,dotcolour,beta,,,21,18,V,R,
18,18,18,0,0,36,44,3015,['n'],1,right,['2'],5,671,[-0.05778411],51,44,hard,minus,dotcolour,beta,,,21,18,V,R,
19,19,19,0,0,53,27,1282,['c'],1,left,['1'],6,1346,[-0.01121078],26,53,easy,minus,dotcolour,beta,,,21,18,V,R,
20,20,20,0,0,44,36,4064,['n'],0,left,['8'],3,2298,[0.12875775],10,44,hard,minus,dotcolour,beta,,,21,18,V,R,
21,21,21,0,0,53,27,1449,['c'],1,left,['9'],2,4724,[0.8293209],100,53,easy,minus,dotcolour,beta,,,21,18,V,R,
22,22,22,0,0,53,27,1498,['c'],1,left,['2'],5,2267,[0.26274],92,53,easy,minus,dotcolour,beta,,,21,18,V,R,
23,23,23,0,0,44,36,3183,['c'],1,left,['8'],3,8482,[0.50185408],94,44,hard,minus,dotcolour,beta,,,21,18,V,R,
24,24,24,0,0,53,27,1816,['c'],1,left,['2'],5,2869,[0.6276767],100,53,easy,minus,dotcolour,beta,,,21,18,V,R,
25,25,25,0,0,33,47,1233,['n'],1,right,['2'],5,424,[-0.13587791],90,47,medium,minus,dotcolour,beta,,,21,18,V,R,
26,26,26,0,0,33,47,1963,['n'],1,right,['2'],5,434,[-0.16728827],95,47,medium,minus,dotcolour,beta,,,21,18,V,R,
27,27,27,0,0,36,44,1332,['n'],1,right,['2'],5,507,[-0.10331493],77,44,hard,minus,dotcolour,beta,,,21,18,V,R,
28,28,28,0,0,44,36,3267,['c'],1,left,['8'],3,278,[0.17379161],98,44,hard,minus,dotcolour,beta,,,21,18,V,R,
29,29,29,0,0,36,44,2531,['n'],1,right,['3'],4,2406,[-0.14138092],73,44,hard,minus,dotcolour,beta,,,21,18,V,R,
30,30,30,0,0,36,44,2065,['n'],1,right,['2'],5,756,[-0.20165985],95,44,hard,minus,dotcolour,beta,,,21,18,V,R,
31,31,31,0,0,27,53,765,['n'],1,right,['1'],6,816,[-0.17416873],91,53,easy,minus,dotcolour,beta,,,21,18,V,R,
32,32,32,0,0,27,53,666,['n'],1,right,['1'],6,430,[-0.01209437],23,53,easy,minus,dotcolour,beta,,,21,18,V,R,
33,33,33,0,0,27,53,782,['n'],1,right,['1'],6,446,[-0.26627684],100,53,easy,minus,dotcolour,beta,,,21,18,V,R,
34,34,34,0,0,53,27,2417,['c'],1,left,['3'],4,1141,[0.40634174],100,53,easy,minus,dotcolour,beta,,,21,18,V,R,
35,35,35,0,0,47,33,1299,['c'],1,left,['3'],4,2100,[-0.0606375],19,47,medium,minus,dotcolour,beta,,,21,18,V,R,
36,36,36,0,0,27,53,883,['n'],1,right,['1'],6,429,[-0.09949574],77,53,easy,minus,dotcolour,beta,,,21,18,V,R,
37,37,37,0,0,44,36,1333,['c'],1,left,['2'],5,568,[0.10081087],75,44,hard,minus,dotcolour,beta,,,21,18,V,R,
38,38,38,0,0,47,33,1249,['c'],1,left,['1'],6,377,[0.12866254],90,47,medium,minus,dotcolour,beta,,,21,18,V,R,
39,39,39,0,0,33,47,1499,['n'],1,right,['8'],3,839,[-0.16914299],90,47,medium,minus,dotcolour,beta,,,21,18,V,R,
40,40,40,0,0,33,47,1614,['n'],1,right,['3'],4,3014,[-0.66084865],100,47,medium,minus,dotcolour,beta,,,21,18,V,R,
41,41,41,0,0,27,53,1651,['n'],1,right,['1'],6,299,[-0.08531176],73,53,easy,minus,dotcolour,beta,,,21,18,V,R,
42,42,0,1,0,47,33,3783,['n'],0,left,['3'],4,358,[-0.01193105],21,47,medium,minus,dotcolour,beta,,,21,18,V,R,
43,43,1,1,0,47,33,1532,['c'],1,left,['3'],4,883,[0.26516225],98,47,medium,minus,dotcolour,beta,,,21,18,V,R,
44,44,2,1,0,36,44,1166,['n'],1,right,['3'],4,426,[-0.18726818],97,44,hard,minus,dotcolour,beta,,,21,18,V,R,
45,45,3,1,0,47,33,914,['c'],1,left,['3'],4,630,[0.23227298],98,47,medium,minus,dotcolour,beta,,,21,18,V,R,
46,46,4,1,0,36,44,2432,['n'],1,right,['8'],3,581,[-0.03341471],37,44,hard,minus,dotcolour,beta,,,21,18,V,R,
47,47,5,1,0,27,53,4165,['c'],0,right,['3'],4,343,[-0.02797811],7,53,easy,minus,dotcolour,beta,,,21,18,V,R,
48,48,6,1,0,53,27,982,['c'],1,left,['3'],4,588,[0.14575362],89,53,easy,minus,dotcolour,beta,,,21,18,V,R,
49,49,7,1,0,47,33,1198,['c'],1,left,['3'],4,388,[0.16789594],96,47,medium,minus,dotcolour,beta,,,21,18,V,R,
50,50,8,1,0,33,47,1516,['n'],1,right,['3'],4,362,[0.02828351],8,47,medium,minus,dotcolour,beta,,,21,18,V,R,
51,51,9,1,0,36,44,2498,['n'],1,right,['3'],4,593,[-0.06327234],54,44,hard,minus,dotcolour,beta,,,21,18,V,R,
52,52,10,1,0,33,47,982,['n'],1,right,['2'],5,363,[-0.14788432],94,47,medium,minus,dotcolour,beta,,,21,18,V,R,
53,53,11,1,0,44,36,1465,['n'],0,left,['2'],5,307,[-0.06927481],61,44,hard,minus,dotcolour,beta,,,21,18,V,R,
54,54,12,1,0,44,36,1398,['c'],1,left,['3'],4,1360,[0.32533146],98,44,hard,minus,dotcolour,beta,,,21,18,V,R,
55,55,13,1,0,27,53,1166,['n'],1,right,['1'],6,651,[-0.2046328],97,53,easy,minus,dotcolour,beta,,,21,18,V,R,
56,56,14,1,0,53,27,832,['c'],1,left,['1'],6,601,[0.17253514],94,53,easy,minus,dotcolour,beta,,,21,18,V,R,
57,57,15,1,0,53,27,1032,['c'],1,left,['1'],6,281,[0.1253979],91,53,easy,minus,dotcolour,beta,,,21,18,V,R,
58,58,16,1,0,44,36,1615,['c'],1,left,['3'],4,358,[0.08855115],73,44,hard,minus,dotcolour,beta,,,21,18,V,R,
59,59,17,1,0,44,36,1014,['c'],1,left,['3'],4,272,[0.07267007],64,44,hard,minus,dotcolour,beta,,,21,18,V,R,
60,60,18,1,0,53,27,782,['c'],1,left,['3'],4,263,[0.20525726],99,53,easy,minus,dotcolour,beta,,,21,18,V,R,
61,61,19,1,0,36,44,1498,['n'],1,right,['3'],4,289,[-0.09689183],80,44,hard,minus,dotcolour,beta,,,21,18,V,R,
62,62,20,1,0,47,33,1866,['c'],1,left,['8'],3,693,[-0.09187576],4,47,medium,minus,dotcolour,beta,,,21,18,V,R,
63,63,21,1,0,44,36,4198,['c'],1,left,['0'],1,641,[-0.04181983],10,44,hard,minus,dotcolour,beta,,,21,18,V,R,
64,64,22,1,0,53,27,4067,['c'],1,left,['8'],3,1246,[0.257659],96,53,easy,minus,dotcolour,beta,,,21,18,V,R,
65,65,23,1,0,33,47,1848,['n'],1,right,['3'],4,347,[-0.08142593],69,47,medium,minus,dotcolour,beta,,,21,18,V,R,
66,66,24,1,0,33,47,632,['n'],1,right,['3'],4,445,[-0.15168299],93,47,medium,minus,dotcolour,beta,,,21,18,V,R,
67,67,25,1,0,33,47,666,['n'],1,right,['3'],4,418,[-0.12050193],86,47,medium,minus,dotcolour,beta,,,21,18,V,R,
68,68,26,1,0,47,33,1501,['c'],1,left,['3'],4,662,[0.06756089],57,47,medium,minus,dotcolour,beta,,,21,18,V,R,
69,69,27,1,0,33,47,948,['n'],1,right,['3'],4,278,[-0.11643117],89,47,medium,minus,dotcolour,beta,,,21,18,V,R,
70,70,28,1,0,27,53,665,['n'],1,right,['2'],5,826,[-0.31152017],99,53,easy,minus,dotcolour,beta,,,21,18,V,R,
71,71,29,1,0,27,53,679,['n'],1,right,['1'],6,286,[-0.07925388],69,53,easy,minus,dotcolour,beta,,,21,18,V,R,
72,72,30,1,0,44,36,1151,['c'],1,left,['2'],5,1470,[0.07070019],56,44,hard,minus,dotcolour,beta,,,21,18,V,R,
73,73,31,1,0,44,36,2167,['n'],0,left,['3'],4,277,[0.03935753],4,44,hard,minus,dotcolour,beta,,,21,18,V,R,
74,74,32,1,0,27,53,748,['n'],1,right,['3'],4,261,[-0.13145004],94,53,easy,minus,dotcolour,beta,,,21,18,V,R,
75,75,33,1,0,36,44,2315,['n'],1,right,['3'],4,559,[-0.08502934],67,44,hard,minus,dotcolour,beta,,,21,18,V,R,
76,76,34,1,0,53,27,1082,['c'],1,left,['3'],4,831,[0.19543666],94,53,easy,minus,dotcolour,beta,,,21,18,V,R,
77,77,35,1,0,36,44,2482,['c'],0,right,['3'],4,627,[0.2118689],97,44,hard,minus,dotcolour,beta,,,21,18,V,R,
78,78,36,1,0,36,44,948,['n'],1,right,['3'],4,213,[-0.04280648],38,44,hard,minus,dotcolour,beta,,,21,18,V,R,
79,79,37,1,0,27,53,683,['n'],1,right,['3'],4,203,[-0.12562637],94,53,easy,minus,dotcolour,beta,,,21,18,V,R,
80,80,38,1,0,47,33,1549,['n'],0,left,['3'],4,494,[-0.07313181],61,47,medium,minus,dotcolour,beta,,,21,18,V,R,
81,81,39,1,0,53,27,2415,['n'],0,left,['9'],2,2515,[0.49847456],0,53,easy,minus,dotcolour,beta,,,21,18,V,R,
82,82,40,1,0,27,53,1498,['n'],1,right,['8'],3,747,[-0.21597209],97,53,easy,minus,dotcolour,beta,,,21,18,V,R,
83,83,41,1,0,33,47,1299,['n'],1,right,['8'],3,1363,[-0.23295708],94,47,medium,minus,dotcolour,beta,,,21,18,V,R,
84,84,0,2,0,53,27,1684,['c'],1,left,['3'],4,1440,[0.2307407],93,53,easy,minus,dotcolour,beta,,,21,18,V,R,
85,85,1,2,0,44,36,2098,['n'],0,left,['8'],3,3411,[0.01277457],34,44,hard,minus,dotcolour,beta,,,21,18,V,R,
86,86,2,2,0,44,36,1666,['n'],0,left,['3'],4,1192,[0.21698344],1,44,hard,minus,dotcolour,beta,,,21,18,V,R,
87,87,3,2,0,53,27,832,['c'],1,left,['2'],5,736,[0.29611282],99,53,easy,minus,dotcolour,beta,,,21,18,V,R,
88,88,4,2,0,53,27,1116,['c'],1,left,['2'],5,455,[0.03058066],34,53,easy,minus,dotcolour,beta,,,21,18,V,R,
89,89,5,2,0,47,33,1249,['n'],0,left,['3'],4,372,[-0.05545284],50,47,medium,minus,dotcolour,beta,,,21,18,V,R,
90,90,6,2,0,47,33,1249,['c'],1,left,['3'],4,268,[0.16159068],98,47,medium,minus,dotcolour,beta,,,21,18,V,R,
91,91,7,2,0,33,47,1649,['n'],1,right,['3'],4,288,[-0.08846271],75,47,medium,minus,dotcolour,beta,,,21,18,V,R,
92,92,8,2,0,36,44,3431,['c'],0,right,['0'],1,333,[0.14639448],94,44,hard,minus,dotcolour,beta,,,21,18,V,R,
93,93,9,2,0,36,44,1565,['n'],1,right,['8'],3,722,[-0.21548659],97,44,hard,minus,dotcolour,beta,,,21,18,V,R,
94,94,10,2,0,33,47,1549,['n'],1,right,['3'],4,264,[-0.09785996],81,47,medium,minus,dotcolour,beta,,,21,18,V,R,
95,95,11,2,0,44,36,4599,['c'],1,left,['2'],5,367,[0.04764804],44,44,hard,minus,dotcolour,beta,,,21,18,V,R,
96,96,12,2,0,33,47,682,['n'],1,right,['3'],4,549,[-0.19782379],97,47,medium,minus,dotcolour,beta,,,21,18,V,R,
97,97,13,2,0,47,33,965,['c'],1,left,['3'],4,713,[0.01644058],30,47,medium,minus,dotcolour,beta,,,21,18,V,R,
98,98,14,2,0,27,53,932,['n'],1,right,['3'],4,657,[-0.08167918],64,53,easy,minus,dotcolour,beta,,,21,18,V,R,
99,99,15,2,0,27,53,631,['n'],1,right,['2'],5,455,[-0.20839708],98,53,easy,minus,dotcolour,beta,,,21,18,V,R,
100,100,16,2,0,27,53,865,['n'],1,right,['2'],5,290,[-0.09900611],81,53,easy,minus,dotcolour,beta,,,21,18,V,R,
101,101,17,2,0,33,47,1783,['n'],1,right,['0'],1,1768,[-0.28658238],96,47,medium,minus,dotcolour,beta,,,21,18,V,R,
102,102,18,2,0,27,53,1050,['n'],1,right,['8'],3,777,[-0.05230995],48,53,easy,minus,dotcolour,beta,,,21,18,V,R,
103,103,19,2,0,36,44,1316,['n'],1,right,['0'],1,694,[-0.13187917],84,44,hard,minus,dotcolour,beta,,,21,18,V,R,
104,104,20,2,0,27,53,715,['n'],1,right,['2'],5,423,[-0.1545881],94,53,easy,minus,dotcolour,beta,,,21,18,V,R,
105,105,21,2,0,44,36,1397,['n'],0,left,['2'],5,303,[-0.0378217],36,44,hard,minus,dotcolour,beta,,,21,18,V,R,
106,106,22,2,0,36,44,1699,['n'],1,right,['8'],3,624,[-0.09677052],72,44,hard,minus,dotcolour,beta,,,21,18,V,R,
107,107,23,2,0,53,27,882,['c'],1,left,['2'],5,413,[0.09748046],76,53,easy,minus,dotcolour,beta,,,21,18,V,R,
108,108,24,2,0,33,47,798,['n'],1,right,['3'],4,413,[-0.17502188],97,47,medium,minus,dotcolour,beta,,,21,18,V,R,
109,109,25,2,0,47,33,1114,['c'],1,left,['3'],4,258,[0.09863318],82,47,medium,minus,dotcolour,beta,,,21,18,V,R,
110,110,26,2,0,44,36,1165,['n'],0,left,['0'],1,633,[0.06495286],6,44,hard,minus,dotcolour,beta,,,21,18,V,R,
111,111,27,2,0,36,44,829,['n'],1,right,['3'],4,384,[0.02905521],8,44,hard,minus,dotcolour,beta,,,21,18,V,R,
112,112,28,2,0,27,53,550,['n'],1,right,['3'],4,324,[-0.14675709],95,53,easy,minus,dotcolour,beta,,,21,18,V,R,
113,113,29,2,0,47,33,998,['c'],1,left,['3'],4,312,[0.0669851],59,47,medium,minus,dotcolour,beta,,,21,18,V,R,
114,114,30,2,0,44,36,1566,['n'],0,left,['8'],3,526,[-0.06255145],54,44,hard,minus,dotcolour,beta,,,21,18,V,R,
115,115,31,2,0,53,27,1433,['c'],1,left,['8'],3,625,[0.09335258],70,53,easy,minus,dotcolour,beta,,,21,18,V,R,
116,116,32,2,0,27,53,632,['n'],1,right,['3'],4,336,[-0.11408051],86,53,easy,minus,dotcolour,beta,,,21,18,V,R,
117,117,33,2,0,53,27,798,['c'],1,left,['3'],4,275,[0.08193915],71,53,easy,minus,dotcolour,beta,,,21,18,V,R,
118,118,34,2,0,47,33,1500,['n'],0,left,['0'],1,645,[-0.00313359],24,47,medium,minus,dotcolour,beta,,,21,18,V,R,
119,119,35,2,0,36,44,2382,['c'],0,right,['3'],4,205,[0.0868142],78,44,hard,minus,dotcolour,beta,,,21,18,V,R,
120,120,36,2,0,47,33,966,['c'],1,left,['3'],4,272,[0.12677317],92,47,medium,minus,dotcolour,beta,,,21,18,V,R,
121,121,37,2,0,53,27,632,['c'],1,left,['3'],4,356,[0.11910588],87,53,easy,minus,dotcolour,beta,,,21,18,V,R,
122,122,38,2,0,33,47,965,['n'],1,right,['3'],4,377,[-0.0927747],75,47,medium,minus,dotcolour,beta,,,21,18,V,R,
123,123,39,2,0,36,44,1216,['n'],1,right,['9'],2,738,[-0.00368973],25,44,hard,minus,dotcolour,beta,,,21,18,V,R,
124,124,40,2,0,44,36,965,['n'],0,left,['0'],1,1095,[-0.20371223],93,44,hard,minus,dotcolour,beta,,,21,18,V,R,
125,125,41,2,0,33,47,1165,['n'],1,right,['3'],4,2229,[-0.29187145],95,47,medium,minus,dotcolour,beta,,,21,18,V,R,
126,0,0,3,1,44,36,933,['n'],0,left,['3'],4,369,[-0.01748788],90,44,hard,plus,dotcolour,beta,,,21,18,V,R,
127,1,1,3,1,36,44,731,['n'],1,right,['3'],4,222,[-0.0571854],99,44,hard,plus,dotcolour,beta,,,21,18,V,R,
128,2,2,3,1,27,53,765,['n'],1,right,['3'],4,248,[-0.07009074],99,53,easy,plus,dotcolour,beta,,,21,18,V,R,
129,3,3,3,1,27,53,598,['n'],1,right,['3'],4,272,[-0.1499337],100,53,easy,plus,dotcolour,beta,,,21,18,V,R,
130,4,4,3,1,53,27,914,['c'],1,left,['1'],6,209,[0.0692061],99,53,easy,plus,dotcolour,beta,,,21,18,V,R,
131,5,5,3,1,53,27,1332,['c'],1,left,['3'],4,524,[0.2186674],100,53,easy,plus,dotcolour,beta,,,21,18,V,R,
132,6,6,3,1,53,27,1265,['c'],1,left,['3'],4,198,[0.07053645],99,53,easy,plus,dotcolour,beta,,,21,18,V,R,
133,7,7,3,1,44,36,2098,['c'],1,left,['3'],4,211,[0.13008007],100,44,hard,plus,dotcolour,beta,,,21,18,V,R,
134,8,8,3,1,36,44,1167,['n'],1,right,['3'],4,205,[-0.1036529],100,44,hard,plus,dotcolour,beta,,,21,18,V,R,
135,9,9,3,1,36,44,666,['n'],1,right,['3'],4,260,[-0.02404882],94,44,hard,plus,dotcolour,beta,,,21,18,V,R,
136,10,10,3,1,53,27,765,['c'],1,left,['3'],4,668,[0.29304019],100,53,easy,plus,dotcolour,beta,,,21,18,V,R,
137,11,11,3,1,33,47,649,['n'],1,right,['3'],4,240,[-0.11708584],100,47,medium,plus,dotcolour,beta,,,21,18,V,R,
138,12,12,3,1,33,47,1115,['c'],0,right,['3'],4,179,[0.04025922],98,47,medium,plus,dotcolour,beta,,,21,18,V,R,
139,13,13,3,1,33,47,614,['n'],1,right,['3'],4,268,[-0.14970278],100,47,medium,plus,dotcolour,beta,,,21,18,V,R,
140,14,14,3,1,36,44,1047,['n'],1,right,['3'],4,216,[-0.01526642],94,44,hard,plus,dotcolour,beta,,,21,18,V,R,
141,15,15,3,1,47,33,1132,['c'],1,left,['3'],4,187,[0.16561621],100,47,medium,plus,dotcolour,beta,,,21,18,V,R,
142,16,16,3,1,44,36,550,['n'],0,left,['3'],4,191,[-0.03386396],98,44,hard,plus,dotcolour,beta,,,21,18,V,R,
143,17,17,3,1,53,27,664,['c'],1,left,['3'],4,190,[0.22733359],100,53,easy,plus,dotcolour,beta,,,21,18,V,R,
144,18,18,3,1,36,44,582,['n'],1,right,['3'],4,240,[-0.14401694],100,44,hard,plus,dotcolour,beta,,,21,18,V,R,
145,19,19,3,1,27,53,597,['n'],1,right,['3'],4,200,[-0.09635725],100,53,easy,plus,dotcolour,beta,,,21,18,V,R,
146,20,20,3,1,47,33,765,['c'],1,left,['3'],4,202,[0.1133374],100,47,medium,plus,dotcolour,beta,,,21,18,V,R,
147,21,21,3,1,36,44,682,['n'],1,right,['3'],4,184,[-0.0749934],100,44,hard,plus,dotcolour,beta,,,21,18,V,R,
148,22,22,3,1,53,27,1016,['n'],0,left,['3'],4,178,[0.0523169],53,53,easy,plus,dotcolour,beta,,,21,18,V,R,
149,23,23,3,1,33,47,682,['n'],1,right,['3'],4,264,[-0.17035212],100,47,medium,plus,dotcolour,beta,,,21,18,V,R,
150,24,24,3,1,27,53,548,['n'],1,right,['3'],4,321,[-0.1597923],100,53,easy,plus,dotcolour,beta,,,21,18,V,R,
151,25,25,3,1,33,47,1149,['n'],1,right,['2'],5,208,[-0.15691601],100,47,medium,plus,dotcolour,beta,,,21,18,V,R,
152,26,26,3,1,47,33,1215,['c'],1,left,['2'],5,344,[0.14775693],100,47,medium,plus,dotcolour,beta,,,21,18,V,R,
153,27,27,3,1,36,44,667,['n'],1,right,['2'],5,264,[-0.00562619],90,44,hard,plus,dotcolour,beta,,,21,18,V,R,
154,28,28,3,1,27,53,599,['n'],1,right,['1'],6,327,[-0.02624956],93,53,easy,plus,dotcolour,beta,,,21,18,V,R,
155,29,29,3,1,27,53,565,['n'],1,right,['1'],6,229,[-0.09481085],100,53,easy,plus,dotcolour,beta,,,21,18,V,R,
156,30,30,3,1,44,36,1765,['n'],0,left,['3'],4,213,[0.00229446],89,44,hard,plus,dotcolour,beta,,,21,18,V,R,
157,31,31,3,1,27,53,599,['n'],1,right,['3'],4,551,[-0.28108834],100,53,easy,plus,dotcolour,beta,,,21,18,V,R,
158,32,32,3,1,33,47,515,['n'],1,right,['3'],4,277,[-0.15251541],100,47,medium,plus,dotcolour,beta,,,21,18,V,R,
159,33,33,3,1,47,33,1016,['c'],1,left,['3'],4,530,[0.10685545],98,47,medium,plus,dotcolour,beta,,,21,18,V,R,
160,34,34,3,1,44,36,982,['c'],1,left,['3'],4,278,[0.04588081],97,44,hard,plus,dotcolour,beta,,,21,18,V,R,
161,35,35,3,1,33,47,4316,['c'],0,right,['3'],4,256,[0.07404025],99,47,medium,plus,dotcolour,beta,,,21,18,V,R,
162,36,36,3,1,44,36,749,['c'],1,left,['3'],4,392,[0.0693659],97,44,hard,plus,dotcolour,beta,,,21,18,V,R,
163,37,37,3,1,47,33,1465,['c'],1,left,['3'],4,183,[0.12600303],100,47,medium,plus,dotcolour,beta,,,21,18,V,R,
164,38,38,3,1,44,36,732,['c'],1,left,['3'],4,180,[0.12927734],100,44,hard,plus,dotcolour,beta,,,21,18,V,R,
165,39,39,3,1,47,33,614,['c'],1,left,['3'],4,157,[0.13655057],100,47,medium,plus,dotcolour,beta,,,21,18,V,R,
166,40,40,3,1,47,33,832,['c'],1,left,['3'],4,151,[0.12767113],100,47,medium,plus,dotcolour,beta,,,21,18,V,R,
167,41,41,3,1,53,27,883,['c'],1,left,['2'],5,1279,[0.14284927],96,53,easy,plus,dotcolour,beta,,,21,18,V,R,
168,42,0,4,1,44,36,1600,['n'],0,left,['3'],4,361,[-0.08977842],99,44,hard,plus,dotcolour,beta,,,21,18,V,R,
169,43,1,4,1,33,47,1783,['n'],1,right,['3'],4,292,[-0.09334548],99,47,medium,plus,dotcolour,beta,,,21,18,V,R,
170,44,2,4,1,44,36,833,['c'],1,left,['3'],4,216,[0.07890645],99,44,hard,plus,dotcolour,beta,,,21,18,V,R,
171,45,3,4,1,27,53,614,['n'],1,right,['3'],4,216,[-0.08071749],99,53,easy,plus,dotcolour,beta,,,21,18,V,R,
172,46,4,4,1,53,27,965,['c'],1,left,['2'],5,442,[0.1740595],100,53,easy,plus,dotcolour,beta,,,21,18,V,R,
173,47,5,4,1,27,53,664,['n'],1,right,['3'],4,311,[-0.1853593],100,53,easy,plus,dotcolour,beta,,,21,18,V,R,
174,48,6,4,1,33,47,748,['n'],1,right,['3'],4,238,[-0.02442972],95,47,medium,plus,dotcolour,beta,,,21,18,V,R,
175,49,7,4,1,44,36,565,['n'],0,left,['2'],5,983,[-0.05980613],89,44,hard,plus,dotcolour,beta,,,21,18,V,R,
176,50,8,4,1,36,44,764,['n'],1,right,['3'],4,586,[-0.08051812],96,44,hard,plus,dotcolour,beta,,,21,18,V,R,
177,51,9,4,1,27,53,599,['n'],1,right,['3'],4,235,[-0.07835457],99,53,easy,plus,dotcolour,beta,,,21,18,V,R,
178,52,10,4,1,27,53,517,['n'],1,right,['2'],5,310,[-0.1776155],100,53,easy,plus,dotcolour,beta,,,21,18,V,R,
179,53,11,4,1,53,27,733,['c'],1,left,['2'],5,558,[0.20691129],100,53,easy,plus,dotcolour,beta,,,21,18,V,R,
180,54,12,4,1,44,36,998,['c'],1,left,['2'],5,240,[0.10516285],100,44,hard,plus,dotcolour,beta,,,21,18,V,R,
181,55,13,4,1,53,27,782,['c'],1,left,['2'],5,265,[0.12239112],100,53,easy,plus,dotcolour,beta,,,21,18,V,R,
182,56,14,4,1,44,36,1299,['n'],0,left,['2'],5,220,[-0.02650905],96,44,hard,plus,dotcolour,beta,,,21,18,V,R,
183,57,15,4,1,53,27,865,['c'],1,left,['2'],5,401,[0.09549546],99,53,easy,plus,dotcolour,beta,,,21,18,V,R,
184,58,16,4,1,33,47,665,['n'],1,right,['2'],5,207,[-0.09521636],100,47,medium,plus,dotcolour,beta,,,21,18,V,R,
185,59,17,4,1,36,44,1350,['c'],0,right,['2'],5,186,[0.09432362],100,44,hard,plus,dotcolour,beta,,,21,18,V,R,
186,60,18,4,1,53,27,832,['n'],0,left,['2'],5,282,[-0.06744042],98,53,easy,plus,dotcolour,beta,,,21,18,V,R,
187,61,19,4,1,33,47,797,['n'],1,right,['2'],5,192,[-0.0967702],100,47,medium,plus,dotcolour,beta,,,21,18,V,R,
188,62,20,4,1,44,36,764,['c'],1,left,['2'],5,195,[0.13708534],100,44,hard,plus,dotcolour,beta,,,21,18,V,R,
189,63,21,4,1,36,44,849,['n'],1,right,['2'],5,226,[-0.02174654],95,44,hard,plus,dotcolour,beta,,,21,18,V,R,
190,64,22,4,1,47,33,750,['n'],0,left,['2'],5,196,[-0.14571174],100,47,medium,plus,dotcolour,beta,,,21,18,V,R,
191,65,23,4,1,53,27,1516,['c'],1,left,['1'],6,761,[0.1014592],96,53,easy,plus,dotcolour,beta,,,21,18,V,R,
192,66,24,4,1,47,33,1215,['n'],0,left,['3'],4,291,[-0.01678857],92,47,medium,plus,dotcolour,beta,,,21,18,V,R,
193,67,25,4,1,47,33,681,['n'],0,left,['3'],4,237,[-0.1096866],100,47,medium,plus,dotcolour,beta,,,21,18,V,R,
194,68,26,4,1,36,44,782,['n'],1,right,['3'],4,173,[0.00551403],90,44,hard,plus,dotcolour,beta,,,21,18,V,R,
195,69,27,4,1,47,33,1166,['c'],1,left,['2'],5,329,[0.13111425],100,47,medium,plus,dotcolour,beta,,,21,18,V,R,
196,70,28,4,1,33,47,1182,['n'],1,right,['3'],4,230,[-0.14990426],100,47,medium,plus,dotcolour,beta,,,21,18,V,R,
197,71,29,4,1,44,36,681,['n'],0,left,['2'],5,235,[-0.1154864],100,44,hard,plus,dotcolour,beta,,,21,18,V,R,
198,72,30,4,1,27,53,1667,['n'],1,right,['3'],4,312,[-0.10113143],99,53,easy,plus,dotcolour,beta,,,21,18,V,R,
199,73,31,4,1,36,44,1815,['c'],0,right,['3'],4,916,[0.07385526],92,44,hard,plus,dotcolour,beta,,,21,18,V,R,
200,74,32,4,1,27,53,1015,['n'],1,right,['1'],6,631,[-0.10909045],98,53,easy,plus,dotcolour,beta,,,21,18,V,R,
201,75,33,4,1,47,33,1332,['c'],1,left,['2'],5,234,[0.07752517],99,47,medium,plus,dotcolour,beta,,,21,18,V,R,
202,76,34,4,1,27,53,1082,['n'],1,right,['2'],5,351,[-0.24343246],100,53,easy,plus,dotcolour,beta,,,21,18,V,R,
203,77,35,4,1,36,44,1166,['n'],1,right,['2'],5,235,[-0.07143153],99,44,hard,plus,dotcolour,beta,,,21,18,V,R,
204,78,36,4,1,47,33,1598,['c'],1,left,['3'],4,356,[0.19919216],100,47,medium,plus,dotcolour,beta,,,21,18,V,R,
205,79,37,4,1,33,47,865,['n'],1,right,['3'],4,283,[-0.15048296],100,47,medium,plus,dotcolour,beta,,,21,18,V,R,
206,80,38,4,1,47,33,1049,['c'],1,left,['2'],5,639,[0.0338881],88,47,medium,plus,dotcolour,beta,,,21,18,V,R,
207,81,39,4,1,33,47,731,['n'],1,right,['3'],4,393,[-0.18751686],100,47,medium,plus,dotcolour,beta,,,21,18,V,R,
208,82,40,4,1,36,44,965,['n'],1,right,['3'],4,236,[-0.02167837],95,44,hard,plus,dotcolour,beta,,,21,18,V,R,
209,83,41,4,1,53,27,966,['c'],1,left,['3'],4,237,[0.0722073],99,53,easy,plus,dotcolour,beta,,,21,18,V,R,
210,84,0,5,1,33,47,1700,['c'],0,right,['3'],4,1087,[0.09904281],94,47,medium,plus,dotcolour,beta,,,21,18,V,R,
211,85,1,5,1,27,53,582,['n'],1,right,['1'],6,621,[-0.06697995],94,53,easy,plus,dotcolour,beta,,,21,18,V,R,
212,86,2,5,1,44,36,1065,['c'],1,left,['3'],4,738,[0.10842596],97,44,hard,plus,dotcolour,beta,,,21,18,V,R,
213,87,3,5,1,27,53,466,['n'],1,right,['3'],4,210,[-0.09244534],100,53,easy,plus,dotcolour,beta,,,21,18,V,R,
214,88,4,5,1,53,27,816,['c'],1,left,['3'],4,187,[-0.00691632],88,53,easy,plus,dotcolour,beta,,,21,18,V,R,
215,89,5,5,1,47,33,1065,['c'],1,left,['1'],6,178,[0.12341138],100,47,medium,plus,dotcolour,beta,,,21,18,V,R,
216,90,6,5,1,44,36,1983,['c'],1,left,['3'],4,172,[0.12308013],100,44,hard,plus,dotcolour,beta,,,21,18,V,R,
217,91,7,5,1,47,33,1431,['c'],1,left,['3'],4,239,[0.10637299],100,47,medium,plus,dotcolour,beta,,,21,18,V,R,
218,92,8,5,1,53,27,798,['c'],1,left,['3'],4,222,[0.16407166],100,53,easy,plus,dotcolour,beta,,,21,18,V,R,
219,93,9,5,1,47,33,647,['c'],1,left,['2'],5,332,[0.02547523],93,47,medium,plus,dotcolour,beta,,,21,18,V,R,
220,94,10,5,1,33,47,582,['n'],1,right,['3'],4,257,[-0.07549033],99,47,medium,plus,dotcolour,beta,,,21,18,V,R,
221,95,11,5,1,33,47,933,['n'],1,right,['2'],5,138,[-0.06630808],100,47,medium,plus,dotcolour,beta,,,21,18,V,R,
222,96,12,5,1,27,53,649,['n'],1,right,['2'],5,140,[-0.08475715],100,53,easy,plus,dotcolour,beta,,,21,18,V,R,
223,97,13,5,1,53,27,767,['c'],1,left,['1'],6,177,[0.1031762],100,53,easy,plus,dotcolour,beta,,,21,18,V,R,
224,98,14,5,1,44,36,983,['n'],0,left,['2'],5,227,[-0.07216981],99,44,hard,plus,dotcolour,beta,,,21,18,V,R,
225,99,15,5,1,36,44,550,['n'],1,right,['1'],6,182,[-0.09121373],100,44,hard,plus,dotcolour,beta,,,21,18,V,R,
226,100,16,5,1,44,36,1115,['n'],0,left,['3'],4,210,[-0.08805037],100,44,hard,plus,dotcolour,beta,,,21,18,V,R,
227,101,17,5,1,47,33,1448,['n'],0,left,['3'],4,176,[-0.07445607],100,47,medium,plus,dotcolour,beta,,,21,18,V,R,
228,102,18,5,1,36,44,733,['n'],1,right,['1'],6,141,[-0.02706732],98,44,hard,plus,dotcolour,beta,,,21,18,V,R,
229,103,19,5,1,33,47,582,['n'],1,right,['1'],6,209,[-0.09021387],100,47,medium,plus,dotcolour,beta,,,21,18,V,R,
230,104,20,5,1,27,53,1281,['n'],1,right,['2'],5,222,[-0.15764492],100,53,easy,plus,dotcolour,beta,,,21,18,V,R,
231,105,21,5,1,47,33,814,['c'],1,left,['1'],6,230,[0.13598959],100,47,medium,plus,dotcolour,beta,,,21,18,V,R,
232,106,22,5,1,36,44,715,['n'],1,right,['2'],5,186,[-0.16290639],100,44,hard,plus,dotcolour,beta,,,21,18,V,R,
233,107,23,5,1,53,27,1315,['c'],1,left,['1'],6,111,[0.05919503],100,53,easy,plus,dotcolour,beta,,,21,18,V,R,
234,108,24,5,1,53,27,1799,['c'],1,left,['2'],5,259,[0.12228045],100,53,easy,plus,dotcolour,beta,,,21,18,V,R,
235,109,25,5,1,33,47,798,['n'],1,right,['2'],5,178,[-0.05374768],99,47,medium,plus,dotcolour,beta,,,21,18,V,R,
236,110,26,5,1,47,33,900,['c'],1,left,['1'],6,160,[0.11170288],100,47,medium,plus,dotcolour,beta,,,21,18,V,R,
237,111,27,5,1,27,53,665,['n'],1,right,['1'],6,160,[-0.14191672],100,53,easy,plus,dotcolour,beta,,,21,18,V,R,
238,112,28,5,1,33,47,532,['n'],1,right,['1'],6,158,[-0.0829604],100,47,medium,plus,dotcolour,beta,,,21,18,V,R,
239,113,29,5,1,44,36,965,['c'],1,left,['1'],6,121,[0.10689286],100,44,hard,plus,dotcolour,beta,,,21,18,V,R,
240,114,30,5,1,33,47,2081,['n'],1,right,['3'],4,211,[-0.08090877],100,47,medium,plus,dotcolour,beta,,,21,18,V,R,
241,115,31,5,1,36,44,564,['n'],1,right,['3'],4,396,[0.03237137],66,44,hard,plus,dotcolour,beta,,,21,18,V,R,
242,116,32,5,1,44,36,1165,['c'],1,left,['2'],5,295,[0.16677732],100,44,hard,plus,dotcolour,beta,,,21,18,V,R,
243,117,33,5,1,44,36,649,['n'],0,left,['2'],5,186,[-0.15302672],100,44,hard,plus,dotcolour,beta,,,21,18,V,R,
244,118,34,5,1,36,44,1000,['n'],1,right,['2'],5,92,[-0.09957485],100,44,hard,plus,dotcolour,beta,,,21,18,V,R,
245,119,35,5,1,36,44,766,['c'],0,right,['1'],6,179,[0.04217301],98,44,hard,plus,dotcolour,beta,,,21,18,V,R,
246,120,36,5,1,53,27,617,['n'],0,left,['2'],5,213,[-0.1082374],100,53,easy,plus,dotcolour,beta,,,21,18,V,R,
247,121,37,5,1,47,33,750,['n'],0,left,['2'],5,207,[-0.00980394],93,47,medium,plus,dotcolour,beta,,,21,18,V,R,
248,122,38,5,1,27,53,632,['n'],1,right,['2'],5,167,[-0.11431213],100,53,easy,plus,dotcolour,beta,,,21,18,V,R,
249,123,39,5,1,36,44,731,['c'],0,right,['2'],5,579,[0.15725168],99,44,hard,plus,dotcolour,beta,,,21,18,V,R,
250,124,40,5,1,27,53,698,['n'],1,right,['1'],6,281,[-0.10471675],100,53,easy,plus,dotcolour,beta,,,21,18,V,R,
251,125,41,5,1,53,27,882,['c'],1,left,['1'],6,164,[0.08292078],100,53,easy,plus,dotcolour,beta,,,21,18,V,R,
252,0,0,6,2,27,53,683,['n'],1,right,['1'],6,202,[-0.07300211],67,53,easy,minus,dotcolour,beta,,,21,18,V,R,
253,1,1,6,2,47,33,1449,['c'],1,left,['2'],5,144,[0.03684077],29,47,medium,minus,dotcolour,beta,,,21,18,V,R,
254,2,2,6,2,44,36,1548,['n'],0,left,['3'],4,239,[-0.0656452],59,44,hard,minus,dotcolour,beta,,,21,18,V,R,
255,3,3,6,2,53,27,3815,['n'],0,left,['9'],2,637,[-0.02385417],33,53,easy,minus,dotcolour,beta,,,21,18,V,R,
256,4,4,6,2,44,36,3065,['c'],1,left,['3'],4,322,[0.02523038],28,44,hard,minus,dotcolour,beta,,,21,18,V,R,
257,5,5,6,2,36,44,765,['n'],1,right,['3'],4,247,[-0.09862092],83,44,hard,minus,dotcolour,beta,,,21,18,V,R,
258,6,6,6,2,27,53,699,['n'],1,right,['3'],4,210,[-0.0749744],68,53,easy,minus,dotcolour,beta,,,21,18,V,R,
259,7,7,6,2,47,33,2615,['n'],0,left,['8'],3,963,[-0.03195819],39,47,medium,minus,dotcolour,beta,,,21,18,V,R,
260,8,8,6,2,53,27,2281,['c'],1,left,['2'],5,994,[0.20516976],94,53,easy,minus,dotcolour,beta,,,21,18,V,R,
261,9,9,6,2,36,44,1050,['n'],1,right,['3'],4,593,[-0.00282845],23,44,hard,minus,dotcolour,beta,,,21,18,V,R,
262,10,10,6,2,44,36,1532,['n'],0,left,['3'],4,205,[-0.04831966],43,44,hard,minus,dotcolour,beta,,,21,18,V,R,
263,11,11,6,2,27,53,580,['n'],1,right,['1'],6,455,[-0.10084704],77,53,easy,minus,dotcolour,beta,,,21,18,V,R,
264,12,12,6,2,47,33,1332,['c'],1,left,['2'],5,185,[0.08947377],81,47,medium,minus,dotcolour,beta,,,21,18,V,R,
265,13,13,6,2,33,47,1083,['c'],0,right,['2'],5,159,[0.04446595],38,47,medium,minus,dotcolour,beta,,,21,18,V,R,
266,14,14,6,2,27,53,515,['n'],1,right,['2'],5,229,[-0.09397278],81,53,easy,minus,dotcolour,beta,,,21,18,V,R,
267,15,15,6,2,36,44,549,['n'],1,right,['2'],5,191,[-0.03781352],33,44,hard,minus,dotcolour,beta,,,21,18,V,R,
268,16,16,6,2,33,47,1065,['c'],0,right,['2'],5,214,[0.06582208],60,47,medium,minus,dotcolour,beta,,,21,18,V,R,
269,17,17,6,2,33,47,849,['n'],1,right,['3'],4,213,[-0.12933079],95,47,medium,minus,dotcolour,beta,,,21,18,V,R,
270,18,18,6,2,33,47,716,['n'],1,right,['3'],4,241,[-0.05928819],53,47,medium,minus,dotcolour,beta,,,21,18,V,R,
271,19,19,6,2,33,47,665,['n'],1,right,['3'],4,157,[-0.14584626],98,47,medium,minus,dotcolour,beta,,,21,18,V,R,
272,20,20,6,2,36,44,932,['n'],1,right,['3'],4,251,[-0.16193624],98,44,hard,minus,dotcolour,beta,,,21,18,V,R,
273,21,21,6,2,44,36,1198,['c'],1,left,['3'],4,250,[0.05239081],47,44,hard,minus,dotcolour,beta,,,21,18,V,R,
274,22,22,6,2,36,44,914,['c'],0,right,['3'],4,205,[0.07369253],67,44,hard,minus,dotcolour,beta,,,21,18,V,R,
275,23,23,6,2,44,36,700,['c'],1,left,['3'],4,227,[0.07795633],70,44,hard,minus,dotcolour,beta,,,21,18,V,R,
276,24,24,6,2,47,33,684,['c'],1,left,['3'],4,183,[0.04342554],38,47,medium,minus,dotcolour,beta,,,21,18,V,R,
277,25,25,6,2,53,27,1415,['c'],1,left,['3'],4,1224,[0.27001703],97,53,easy,minus,dotcolour,beta,,,21,18,V,R,
278,26,26,6,2,27,53,798,['n'],1,right,['3'],4,217,[-0.1154376],91,53,easy,minus,dotcolour,beta,,,21,18,V,R,
279,27,27,6,2,53,27,2631,['c'],1,left,['8'],3,176,[0.11944701],94,53,easy,minus,dotcolour,beta,,,21,18,V,R,
280,28,28,6,2,53,27,1282,['c'],1,left,['3'],4,150,[0.10278785],90,53,easy,minus,dotcolour,beta,,,21,18,V,R,
281,29,29,6,2,33,47,1598,['n'],1,right,['2'],5,162,[-0.12508489],96,47,medium,minus,dotcolour,beta,,,21,18,V,R,
282,30,30,6,2,53,27,799,['c'],1,left,['2'],5,172,[0.11461526],93,53,easy,minus,dotcolour,beta,,,21,18,V,R,
283,31,31,6,2,33,47,532,['n'],1,right,['3'],4,265,[-0.0791682],70,47,medium,minus,dotcolour,beta,,,21,18,V,R,
284,32,32,6,2,44,36,2198,['c'],1,left,['2'],5,232,[0.03491094],32,44,hard,minus,dotcolour,beta,,,21,18,V,R,
285,33,33,6,2,27,53,531,['n'],1,right,['3'],4,307,[-0.17107927],98,53,easy,minus,dotcolour,beta,,,21,18,V,R,
286,34,34,6,2,44,36,633,['n'],0,left,['3'],4,470,[-0.15562964],93,44,hard,minus,dotcolour,beta,,,21,18,V,R,
287,35,35,6,2,47,33,932,['c'],1,left,['3'],4,270,[0.0972397],81,47,medium,minus,dotcolour,beta,,,21,18,V,R,
288,36,36,6,2,36,44,731,['n'],1,right,['3'],4,255,[-0.02993413],29,44,hard,minus,dotcolour,beta,,,21,18,V,R,
289,37,37,6,2,36,44,650,['c'],0,right,['3'],4,188,[0.04917908],43,44,hard,minus,dotcolour,beta,,,21,18,V,R,
290,38,38,6,2,53,27,948,['c'],1,left,['3'],4,191,[0.1669422],99,53,easy,minus,dotcolour,beta,,,21,18,V,R,
291,39,39,6,2,47,33,1049,['n'],0,left,['3'],4,198,[-0.10431513],88,47,medium,minus,dotcolour,beta,,,21,18,V,R,
292,40,40,6,2,47,33,548,['c'],1,left,['3'],4,202,[0.12509847],94,47,medium,minus,dotcolour,beta,,,21,18,V,R,
293,41,41,6,2,27,53,631,['n'],1,right,['3'],4,202,[-0.09193151],81,53,easy,minus,dotcolour,beta,,,21,18,V,R,
294,42,0,7,2,33,47,633,['n'],1,right,['3'],4,223,[-0.09793126],83,47,medium,minus,dotcolour,beta,,,21,18,V,R,
295,43,1,7,2,36,44,949,['c'],0,right,['3'],4,137,[0.10136119],90,44,hard,minus,dotcolour,beta,,,21,18,V,R,
296,44,2,7,2,44,36,931,['n'],0,left,['3'],4,127,[-0.08127376],79,44,hard,minus,dotcolour,beta,,,21,18,V,R,
297,45,3,7,2,27,53,482,['n'],1,right,['3'],4,152,[-0.09814887],88,53,easy,minus,dotcolour,beta,,,21,18,V,R,
298,46,4,7,2,47,33,1098,['n'],0,left,['8'],3,2359,[0.20021412],5,47,medium,minus,dotcolour,beta,,,21,18,V,R,
299,47,5,7,2,36,44,964,['c'],0,right,['3'],4,338,[0.06285648],56,44,hard,minus,dotcolour,beta,,,21,18,V,R,
300,48,6,7,2,33,47,549,['n'],1,right,['3'],4,248,[-0.06376347],57,47,medium,minus,dotcolour,beta,,,21,18,V,R,
301,49,7,7,2,47,33,630,['c'],1,left,['2'],5,198,[0.07108384],65,47,medium,minus,dotcolour,beta,,,21,18,V,R,
302,50,8,7,2,36,44,883,['n'],1,right,['2'],5,157,[-0.03138784],25,44,hard,minus,dotcolour,beta,,,21,18,V,R,
303,51,9,7,2,53,27,848,['c'],1,left,['2'],5,149,[0.03750711],30,53,easy,minus,dotcolour,beta,,,21,18,V,R,
304,52,10,7,2,27,53,599,['n'],1,right,['3'],4,296,[-0.21223156],99,53,easy,minus,dotcolour,beta,,,21,18,V,R,
305,53,11,7,2,44,36,1749,['c'],1,left,['0'],1,936,[-0.0476311],13,44,hard,minus,dotcolour,beta,,,21,18,V,R,
306,54,12,7,2,33,47,1047,['n'],1,right,['3'],4,297,[-0.10419623],83,47,medium,minus,dotcolour,beta,,,21,18,V,R,
307,55,13,7,2,33,47,564,['n'],1,right,['3'],4,392,[-0.15348109],94,47,medium,minus,dotcolour,beta,,,21,18,V,R,
308,56,14,7,2,47,33,948,['n'],0,left,['3'],4,283,[-0.07733414],68,47,medium,minus,dotcolour,beta,,,21,18,V,R,
309,57,15,7,2,44,36,865,['c'],1,left,['3'],4,174,[0.08690817],79,44,hard,minus,dotcolour,beta,,,21,18,V,R,
310,58,16,7,2,27,53,631,['n'],1,right,['3'],4,135,[-0.17650859],100,53,easy,minus,dotcolour,beta,,,21,18,V,R,
311,59,17,7,2,27,53,666,['n'],1,right,['3'],4,224,[-0.21992853],100,53,easy,minus,dotcolour,beta,,,21,18,V,R,
312,60,18,7,2,36,44,1401,['c'],0,right,['1'],6,192,[0.03065363],26,44,hard,minus,dotcolour,beta,,,21,18,V,R,
313,61,19,7,2,47,33,1565,['c'],1,left,['2'],5,155,[0.13294909],97,47,medium,minus,dotcolour,beta,,,21,18,V,R,
314,62,20,7,2,33,47,615,['n'],1,right,['2'],5,293,[-0.08583151],73,47,medium,minus,dotcolour,beta,,,21,18,V,R,
315,63,21,7,2,53,27,698,['n'],0,left,['3'],4,278,[-0.02600173],27,53,easy,minus,dotcolour,beta,,,21,18,V,R,
316,64,22,7,2,47,33,714,['c'],1,left,['1'],6,151,[0.01706952],14,47,medium,minus,dotcolour,beta,,,21,18,V,R,
317,65,23,7,2,53,27,1049,['c'],1,left,['2'],5,305,[0.11002616],86,53,easy,minus,dotcolour,beta,,,21,18,V,R,
318,66,24,7,2,27,53,1384,['c'],0,right,['2'],5,174,[-0.00291045],7,53,easy,minus,dotcolour,beta,,,21,18,V,R,
319,67,25,7,2,47,33,582,['n'],0,left,['2'],5,193,[-0.04003039],35,47,medium,minus,dotcolour,beta,,,21,18,V,R,
320,68,26,7,2,36,44,666,['n'],1,right,['2'],5,176,[-0.10861433],91,44,hard,minus,dotcolour,beta,,,21,18,V,R,
321,69,27,7,2,44,36,1431,['c'],1,left,['2'],5,208,[0.02464376],23,44,hard,minus,dotcolour,beta,,,21,18,V,R,
322,70,28,7,2,53,27,1081,['c'],1,left,['3'],4,198,[0.12523263],94,53,easy,minus,dotcolour,beta,,,21,18,V,R,
323,71,29,7,2,53,27,532,['c'],1,left,['3'],4,146,[0.07980451],76,53,easy,minus,dotcolour,beta,,,21,18,V,R,
324,72,30,7,2,44,36,615,['c'],1,left,['3'],4,188,[0.09048043],81,44,hard,minus,dotcolour,beta,,,21,18,V,R,
325,73,31,7,2,36,44,815,['n'],1,right,['3'],4,157,[-0.04004002],33,44,hard,minus,dotcolour,beta,,,21,18,V,R,
326,74,32,7,2,53,27,1032,['c'],1,left,['3'],4,320,[0.13084527],92,53,easy,minus,dotcolour,beta,,,21,18,V,R,
327,75,33,7,2,36,44,915,['n'],1,right,['3'],4,143,[-0.07941644],76,44,hard,minus,dotcolour,beta,,,21,18,V,R,
328,76,34,7,2,27,53,467,['n'],1,right,['3'],4,151,[-0.08448581],79,53,easy,minus,dotcolour,beta,,,21,18,V,R,
329,77,35,7,2,53,27,599,['c'],1,left,['3'],4,171,[0.06268764],58,53,easy,minus,dotcolour,beta,,,21,18,V,R,
330,78,36,7,2,27,53,531,['n'],1,right,['3'],4,135,[-0.16449976],100,53,easy,minus,dotcolour,beta,,,21,18,V,R,
331,79,37,7,2,44,36,780,['c'],1,left,['3'],4,148,[0.0296277],23,44,hard,minus,dotcolour,beta,,,21,18,V,R,
332,80,38,7,2,33,47,598,['n'],1,right,['3'],4,191,[-0.11790875],93,47,medium,minus,dotcolour,beta,,,21,18,V,R,
333,81,39,7,2,47,33,717,['n'],0,left,['3'],4,148,[-0.05168083],45,47,medium,minus,dotcolour,beta,,,21,18,V,R,
334,82,40,7,2,44,36,2033,['c'],1,left,['8'],3,206,[0.04538868],40,44,hard,minus,dotcolour,beta,,,21,18,V,R,
335,83,41,7,2,33,47,2048,['n'],1,right,['3'],4,309,[-0.04715782],43,47,medium,minus,dotcolour,beta,,,21,18,V,R,
336,84,0,8,2,27,53,667,['n'],1,right,['3'],4,477,[-0.12928396],87,53,easy,minus,dotcolour,beta,,,21,18,V,R,
337,85,1,8,2,36,44,1216,['n'],1,right,['3'],4,147,[-0.11102663],93,44,hard,minus,dotcolour,beta,,,21,18,V,R,
338,86,2,8,2,44,36,914,['c'],1,left,['3'],4,217,[0.07250554],66,44,hard,minus,dotcolour,beta,,,21,18,V,R,
339,87,3,8,2,44,36,1415,['n'],0,left,['3'],4,137,[-0.05177231],45,44,hard,minus,dotcolour,beta,,,21,18,V,R,
340,88,4,8,2,44,36,1015,['c'],1,left,['3'],4,372,[0.0597988],53,44,hard,minus,dotcolour,beta,,,21,18,V,R,
341,89,5,8,2,47,33,1415,['c'],1,left,['3'],4,143,[0.08633413],81,47,medium,minus,dotcolour,beta,,,21,18,V,R,
342,90,6,8,2,53,27,765,['c'],1,left,['3'],4,179,[0.06735847],62,53,easy,minus,dotcolour,beta,,,21,18,V,R,
343,91,7,8,2,44,36,1731,['n'],0,left,['8'],3,168,[0.00608829],6,44,hard,minus,dotcolour,beta,,,21,18,V,R,
344,92,8,8,2,53,27,2749,['c'],1,left,['3'],4,388,[0.14034185],92,53,easy,minus,dotcolour,beta,,,21,18,V,R,
345,93,9,8,2,36,44,616,['n'],1,right,['3'],4,181,[0.00646427],7,44,hard,minus,dotcolour,beta,,,21,18,V,R,
346,94,10,8,2,44,36,797,['n'],0,left,['3'],4,463,[0.01276797],14,44,hard,minus,dotcolour,beta,,,21,18,V,R,
347,95,11,8,2,36,44,815,['n'],1,right,['3'],4,181,[-0.09374304],83,44,hard,minus,dotcolour,beta,,,21,18,V,R,
348,96,12,8,2,47,33,815,['c'],1,left,['3'],4,319,[0.12494064],90,47,medium,minus,dotcolour,beta,,,21,18,V,R,
349,97,13,8,2,33,47,748,['c'],0,right,['3'],4,198,[0.04356649],38,47,medium,minus,dotcolour,beta,,,21,18,V,R,
350,98,14,8,2,36,44,1249,['n'],1,right,['3'],4,156,[-0.06731754],63,44,hard,minus,dotcolour,beta,,,21,18,V,R,
351,99,15,8,2,53,27,732,['c'],1,left,['3'],4,139,[0.06781753],64,53,easy,minus,dotcolour,beta,,,21,18,V,R,
352,100,16,8,2,33,47,2031,['n'],1,right,['8'],3,197,[-0.05659201],51,47,medium,minus,dotcolour,beta,,,21,18,V,R,
353,101,17,8,2,33,47,1631,['n'],1,right,['8'],3,172,[-0.05919361],54,47,medium,minus,dotcolour,beta,,,21,18,V,R,
354,102,18,8,2,27,53,1615,['n'],1,right,['3'],4,647,[-0.13576426],86,53,easy,minus,dotcolour,beta,,,21,18,V,R,
355,103,19,8,2,44,36,800,['n'],0,left,['3'],4,278,[-0.06969553],62,44,hard,minus,dotcolour,beta,,,21,18,V,R,
356,104,20,8,2,53,27,814,['c'],1,left,['3'],4,203,[0.07118042],65,53,easy,minus,dotcolour,beta,,,21,18,V,R,
357,105,21,8,2,44,36,750,['n'],0,left,['3'],4,190,[-0.1067225],89,44,hard,minus,dotcolour,beta,,,21,18,V,R,
358,106,22,8,2,47,33,750,['n'],0,left,['3'],4,147,[0.03151531],2,47,medium,minus,dotcolour,beta,,,21,18,V,R,
359,107,23,8,2,47,33,848,['c'],1,left,['3'],4,163,[0.17580078],100,47,medium,minus,dotcolour,beta,,,21,18,V,R,
360,108,24,8,2,36,44,565,['n'],1,right,['3'],4,223,[-0.06615049],60,44,hard,minus,dotcolour,beta,,,21,18,V,R,
361,109,25,8,2,33,47,581,['n'],1,right,['3'],4,136,[-0.12343544],96,47,medium,minus,dotcolour,beta,,,21,18,V,R,
362,110,26,8,2,27,53,582,['n'],1,right,['3'],4,244,[-0.12504635],93,53,easy,minus,dotcolour,beta,,,21,18,V,R,
363,111,27,8,2,47,33,899,['c'],1,left,['2'],5,319,[0.13075927],92,47,medium,minus,dotcolour,beta,,,21,18,V,R,
364,112,28,8,2,27,53,549,['n'],1,right,['2'],5,414,[-0.04375811],42,53,easy,minus,dotcolour,beta,,,21,18,V,R,
365,113,29,8,2,33,47,599,['n'],1,right,['3'],4,647,[-0.26794402],99,47,medium,minus,dotcolour,beta,,,21,18,V,R,
366,114,30,8,2,33,47,433,['n'],1,right,['9'],2,2252,[-0.28031541],94,47,medium,minus,dotcolour,beta,,,21,18,V,R,
367,115,31,8,2,47,33,1382,['n'],0,left,['3'],4,691,[0.05435726],8,47,medium,minus,dotcolour,beta,,,21,18,V,R,
368,116,32,8,2,53,27,1733,['c'],1,left,['2'],5,459,[0.12091903],85,53,easy,minus,dotcolour,beta,,,21,18,V,R,
369,117,33,8,2,53,27,832,['c'],1,left,['2'],5,273,[0.17783894],99,53,easy,minus,dotcolour,beta,,,21,18,V,R,
370,118,34,8,2,47,33,649,['c'],1,left,['2'],5,173,[0.0732688],68,47,medium,minus,dotcolour,beta,,,21,18,V,R,
371,119,35,8,2,33,47,631,['n'],1,right,['2'],5,206,[-0.18273625],99,47,medium,minus,dotcolour,beta,,,21,18,V,R,
372,120,36,8,2,27,53,797,['n'],1,right,['2'],5,143,[-0.0973209],88,53,easy,minus,dotcolour,beta,,,21,18,V,R,
373,121,37,8,2,27,53,549,['n'],1,right,['2'],5,196,[-0.05220983],47,53,easy,minus,dotcolour,beta,,,21,18,V,R,
374,122,38,8,2,53,27,949,['c'],1,left,['2'],5,119,[0.09580115],89,53,easy,minus,dotcolour,beta,,,21,18,V,R,
375,123,39,8,2,36,44,699,['n'],1,right,['2'],5,135,[-0.06390394],60,44,hard,minus,dotcolour,beta,,,21,18,V,R,
376,124,40,8,2,27,53,683,['n'],1,right,['2'],5,136,[-0.06148331],57,53,easy,minus,dotcolour,beta,,,21,18,V,R,
377,125,41,8,2,36,44,532,['n'],1,right,['2'],5,110,[-0.01382119],9,44,hard,minus,dotcolour,beta,,,21,18,V,R,
378,0,0,9,3,33,47,951,['n'],1,right,['2'],5,160,[-0.05558796],99,47,medium,plus,dotcolour,beta,,,21,18,V,R,
379,1,1,9,3,53,27,1016,['c'],1,left,['2'],5,138,[0.05095615],99,53,easy,plus,dotcolour,beta,,,21,18,V,R,
380,2,2,9,3,44,36,1032,['c'],1,left,['2'],5,157,[0.07277901],100,44,hard,plus,dotcolour,beta,,,21,18,V,R,
381,3,3,9,3,47,33,698,['c'],1,left,['2'],5,236,[0.04403038],98,47,medium,plus,dotcolour,beta,,,21,18,V,R,
382,4,4,9,3,33,47,631,['n'],1,right,['3'],4,170,[-0.13140204],100,47,medium,plus,dotcolour,beta,,,21,18,V,R,
383,5,5,9,3,33,47,549,['n'],1,right,['3'],4,158,[-0.04915075],99,47,medium,plus,dotcolour,beta,,,21,18,V,R,
384,6,6,9,3,27,53,464,['n'],1,right,['3'],4,183,[-0.17063754],100,53,easy,plus,dotcolour,beta,,,21,18,V,R,
385,7,7,9,3,27,53,449,['n'],1,right,['3'],4,142,[-0.08862283],100,53,easy,plus,dotcolour,beta,,,21,18,V,R,
386,8,8,9,3,36,44,499,['n'],1,right,['3'],4,190,[-0.07570889],100,44,hard,plus,dotcolour,beta,,,21,18,V,R,
387,9,9,9,3,44,36,1232,['c'],1,left,['3'],4,206,[0.00967384],93,44,hard,plus,dotcolour,beta,,,21,18,V,R,
388,10,10,9,3,53,27,765,['c'],1,left,['3'],4,200,[0.14816887],100,53,easy,plus,dotcolour,beta,,,21,18,V,R,
389,11,11,9,3,44,36,882,['c'],1,left,['3'],4,134,[0.07093434],100,44,hard,plus,dotcolour,beta,,,21,18,V,R,
390,12,12,9,3,33,47,549,['n'],1,right,['3'],4,173,[-0.12592992],100,47,medium,plus,dotcolour,beta,,,21,18,V,R,
391,13,13,9,3,53,27,682,['n'],0,left,['8'],3,4043,[0.57935064],1,53,easy,plus,dotcolour,beta,,,21,18,V,R,
392,14,14,9,3,53,27,949,['c'],1,left,['2'],5,260,[0.12864879],100,53,easy,plus,dotcolour,beta,,,21,18,V,R,
393,15,15,9,3,33,47,749,['n'],1,right,['3'],4,220,[-0.08219799],99,47,medium,plus,dotcolour,beta,,,21,18,V,R,
394,16,16,9,3,47,33,1082,['c'],1,left,['2'],5,210,[0.15582133],100,47,medium,plus,dotcolour,beta,,,21,18,V,R,
395,17,17,9,3,27,53,566,['n'],1,right,['3'],4,195,[-0.18420423],100,53,easy,plus,dotcolour,beta,,,21,18,V,R,
396,18,18,9,3,47,33,1049,['c'],1,left,['3'],4,211,[0.10859212],100,47,medium,plus,dotcolour,beta,,,21,18,V,R,
397,19,19,9,3,53,27,865,['c'],1,left,['3'],4,288,[0.14916423],100,53,easy,plus,dotcolour,beta,,,21,18,V,R,
398,20,20,9,3,47,33,615,['n'],0,left,['3'],4,1046,[0.01657884],66,47,medium,plus,dotcolour,beta,,,21,18,V,R,
399,21,21,9,3,27,53,665,['n'],1,right,['3'],4,138,[-0.14488292],100,53,easy,plus,dotcolour,beta,,,21,18,V,R,
400,22,22,9,3,33,47,583,['n'],1,right,['3'],4,127,[-0.06582153],100,47,medium,plus,dotcolour,beta,,,21,18,V,R,
401,23,23,9,3,44,36,932,['c'],1,left,['3'],4,173,[0.06125936],99,44,hard,plus,dotcolour,beta,,,21,18,V,R,
402,24,24,9,3,36,44,567,['n'],1,right,['3'],4,152,[-0.01192068],96,44,hard,plus,dotcolour,beta,,,21,18,V,R,
403,25,25,9,3,36,44,566,['n'],1,right,['3'],4,149,[-0.00474477],94,44,hard,plus,dotcolour,beta,,,21,18,V,R,
404,26,26,9,3,53,27,663,['c'],1,left,['3'],4,134,[0.10664266],100,53,easy,plus,dotcolour,beta,,,21,18,V,R,
405,27,27,9,3,36,44,532,['n'],1,right,['3'],4,140,[-0.05841857],100,44,hard,plus,dotcolour,beta,,,21,18,V,R,
406,28,28,9,3,44,36,850,['c'],1,left,['3'],4,126,[0.09892725],100,44,hard,plus,dotcolour,beta,,,21,18,V,R,
407,29,29,9,3,53,27,832,['c'],1,left,['2'],5,249,[0.07502228],99,53,easy,plus,dotcolour,beta,,,21,18,V,R,
408,30,30,9,3,47,33,1532,['n'],0,left,['3'],4,266,[-0.06889389],99,47,medium,plus,dotcolour,beta,,,21,18,V,R,
409,31,31,9,3,27,53,664,['n'],1,right,['2'],5,278,[-0.08265359],99,53,easy,plus,dotcolour,beta,,,21,18,V,R,
410,32,32,9,3,44,36,1031,['n'],0,left,['3'],4,211,[-0.03253485],97,44,hard,plus,dotcolour,beta,,,21,18,V,R,
411,33,33,9,3,47,33,932,['c'],1,left,['3'],4,166,[0.100705],100,47,medium,plus,dotcolour,beta,,,21,18,V,R,
412,34,34,9,3,36,44,714,['n'],1,right,['3'],4,324,[-0.02561201],93,44,hard,plus,dotcolour,beta,,,21,18,V,R,
413,35,35,9,3,36,44,699,['n'],1,right,['3'],4,221,[-0.15838237],100,44,hard,plus,dotcolour,beta,,,21,18,V,R,
414,36,36,9,3,33,47,932,['n'],1,right,['3'],4,143,[-0.10831204],100,47,medium,plus,dotcolour,beta,,,21,18,V,R,
415,37,37,9,3,47,33,765,['n'],0,left,['3'],4,900,[0.04449741],55,47,medium,plus,dotcolour,beta,,,21,18,V,R,
416,38,38,9,3,44,36,1049,['c'],1,left,['3'],4,247,[0.09643225],100,44,hard,plus,dotcolour,beta,,,21,18,V,R,
417,39,39,9,3,27,53,698,['n'],1,right,['2'],5,370,[-0.10577833],99,53,easy,plus,dotcolour,beta,,,21,18,V,R,
418,40,40,9,3,27,53,598,['n'],1,right,['2'],5,228,[-0.12412138],100,53,easy,plus,dotcolour,beta,,,21,18,V,R,
419,41,41,9,3,36,44,765,['n'],1,right,['3'],4,166,[-0.08045379],100,44,hard,plus,dotcolour,beta,,,21,18,V,R,
420,42,0,10,3,47,33,833,['n'],0,left,['3'],4,179,[-0.00628463],93,47,medium,plus,dotcolour,beta,,,21,18,V,R,
421,43,1,10,3,36,44,782,['c'],0,right,['2'],5,134,[-0.01982374],85,44,hard,plus,dotcolour,beta,,,21,18,V,R,
422,44,2,10,3,53,27,1282,['c'],1,left,['2'],5,199,[0.12145989],100,53,easy,plus,dotcolour,beta,,,21,18,V,R,
423,45,3,10,3,44,36,1212,['n'],0,left,['3'],4,79,[-0.0743291],100,44,hard,plus,dotcolour,beta,,,21,18,V,R,
424,46,4,10,3,44,36,681,['n'],0,left,['3'],4,250,[0.01142804],83,44,hard,plus,dotcolour,beta,,,21,18,V,R,
425,47,5,10,3,53,27,666,['n'],0,left,['3'],4,174,[-0.02680734],97,53,easy,plus,dotcolour,beta,,,21,18,V,R,
426,48,6,10,3,27,53,500,['n'],1,right,['3'],4,133,[-0.11167848],100,53,easy,plus,dotcolour,beta,,,21,18,V,R,
427,49,7,10,3,33,47,566,['n'],1,right,['3'],4,170,[-0.12645449],100,47,medium,plus,dotcolour,beta,,,21,18,V,R,
428,50,8,10,3,53,27,1332,['c'],1,left,['3'],4,311,[0.15915021],100,53,easy,plus,dotcolour,beta,,,21,18,V,R,
429,51,9,10,3,53,27,682,['n'],0,left,['3'],4,168,[-0.06098545],99,53,easy,plus,dotcolour,beta,,,21,18,V,R,
430,52,10,10,3,44,36,1033,['n'],0,left,['3'],4,138,[-0.09644475],100,44,hard,plus,dotcolour,beta,,,21,18,V,R,
431,53,11,10,3,36,44,465,['n'],1,right,['3'],4,146,[-0.12490759],100,44,hard,plus,dotcolour,beta,,,21,18,V,R,
432,54,12,10,3,33,47,531,['n'],1,right,['3'],4,153,[-0.07387305],100,47,medium,plus,dotcolour,beta,,,21,18,V,R,
433,55,13,10,3,27,53,582,['n'],1,right,['3'],4,156,[-0.05794473],99,53,easy,plus,dotcolour,beta,,,21,18,V,R,
434,56,14,10,3,36,44,1050,['n'],1,right,['2'],5,221,[-0.17671793],100,44,hard,plus,dotcolour,beta,,,21,18,V,R,
435,57,15,10,3,36,44,599,['n'],1,right,['2'],5,270,[-0.02690532],95,44,hard,plus,dotcolour,beta,,,21,18,V,R,
436,58,16,10,3,44,36,699,['n'],0,left,['3'],4,512,[-0.03046532],90,44,hard,plus,dotcolour,beta,,,21,18,V,R,
437,59,17,10,3,33,47,565,['n'],1,right,['3'],4,134,[-0.10109527],100,47,medium,plus,dotcolour,beta,,,21,18,V,R,
438,60,18,10,3,33,47,549,['n'],1,right,['2'],5,219,[-0.12866847],100,47,medium,plus,dotcolour,beta,,,21,18,V,R,
439,61,19,10,3,36,44,697,['n'],1,right,['2'],5,192,[-0.06074262],99,44,hard,plus,dotcolour,beta,,,21,18,V,R,
440,62,20,10,3,47,33,782,['c'],1,left,['2'],5,338,[0.07997171],99,47,medium,plus,dotcolour,beta,,,21,18,V,R,
441,63,21,10,3,47,33,1531,['c'],1,left,['3'],4,184,[0.04174202],98,47,medium,plus,dotcolour,beta,,,21,18,V,R,
442,64,22,10,3,36,44,514,['n'],1,right,['3'],4,214,[-0.12853964],100,44,hard,plus,dotcolour,beta,,,21,18,V,R,
443,65,23,10,3,33,47,1231,['c'],0,right,['3'],4,349,[-0.04001782],62,47,medium,plus,dotcolour,beta,,,21,18,V,R,
444,66,24,10,3,44,36,1365,['c'],1,left,['3'],4,482,[0.06154304],95,44,hard,plus,dotcolour,beta,,,21,18,V,R,
445,67,25,10,3,33,47,898,['n'],1,right,['3'],4,140,[-0.07016126],100,47,medium,plus,dotcolour,beta,,,21,18,V,R,
446,68,26,10,3,53,27,932,['c'],1,left,['2'],5,130,[0.12125981],100,53,easy,plus,dotcolour,beta,,,21,18,V,R,
447,69,27,10,3,33,47,665,['n'],1,right,['2'],5,267,[-0.10823204],100,47,medium,plus,dotcolour,beta,,,21,18,V,R,
448,70,28,10,3,27,53,1214,['n'],1,right,['1'],6,113,[-0.12801292],100,53,easy,plus,dotcolour,beta,,,21,18,V,R,
449,71,29,10,3,47,33,764,['c'],1,left,['1'],6,111,[0.10275976],100,47,medium,plus,dotcolour,beta,,,21,18,V,R,
450,72,30,10,3,47,33,2148,['c'],1,left,['2'],5,158,[0.13335928],100,47,medium,plus,dotcolour,beta,,,21,18,V,R,
451,73,31,10,3,27,53,749,['n'],1,right,['2'],5,226,[-0.18941447],100,53,easy,plus,dotcolour,beta,,,21,18,V,R,
452,74,32,10,3,27,53,566,['n'],1,right,['2'],5,148,[-0.08935031],100,53,easy,plus,dotcolour,beta,,,21,18,V,R,
453,75,33,10,3,27,53,681,['n'],1,right,['2'],5,252,[-0.05172519],98,53,easy,plus,dotcolour,beta,,,21,18,V,R,
454,76,34,10,3,53,27,847,['c'],1,left,['1'],6,137,[0.07404005],100,53,easy,plus,dotcolour,beta,,,21,18,V,R,
455,77,35,10,3,36,44,2248,['c'],0,right,['2'],5,146,[0.15358402],100,44,hard,plus,dotcolour,beta,,,21,18,V,R,
456,78,36,10,3,27,53,983,['n'],1,right,['1'],6,94,[-0.09655001],100,53,easy,plus,dotcolour,beta,,,21,18,V,R,
457,79,37,10,3,47,33,799,['c'],1,left,['1'],6,92,[0.10594189],100,47,medium,plus,dotcolour,beta,,,21,18,V,R,
458,80,38,10,3,47,33,682,['n'],0,left,['1'],6,133,[-0.00533841],95,47,medium,plus,dotcolour,beta,,,21,18,V,R,
459,81,39,10,3,44,36,1132,['n'],0,left,['2'],5,284,[-0.14038254],100,44,hard,plus,dotcolour,beta,,,21,18,V,R,
460,82,40,10,3,44,36,899,['c'],1,left,['2'],5,358,[0.10879556],99,44,hard,plus,dotcolour,beta,,,21,18,V,R,
461,83,41,10,3,53,27,731,['c'],1,left,['1'],6,163,[0.12143231],100,53,easy,plus,dotcolour,beta,,,21,18,V,R,
462,84,0,11,3,47,33,1033,['c'],1,left,['1'],6,115,[0.06067103],100,47,medium,plus,dotcolour,beta,,,21,18,V,R,
463,85,1,11,3,44,36,1015,['c'],1,left,['3'],4,200,[0.10158537],100,44,hard,plus,dotcolour,beta,,,21,18,V,R,
464,86,2,11,3,33,47,582,['n'],1,right,['3'],4,161,[-0.13082464],100,47,medium,plus,dotcolour,beta,,,21,18,V,R,
465,87,3,11,3,36,44,649,['n'],1,right,['3'],4,194,[-0.05605949],99,44,hard,plus,dotcolour,beta,,,21,18,V,R,
466,88,4,11,3,36,44,732,['n'],1,right,['3'],4,118,[-0.04732477],100,44,hard,plus,dotcolour,beta,,,21,18,V,R,
467,89,5,11,3,53,27,865,['c'],1,left,['2'],5,168,[0.08472494],100,53,easy,plus,dotcolour,beta,,,21,18,V,R,
468,90,6,11,3,33,47,915,['n'],1,right,['3'],4,118,[-0.05405802],100,47,medium,plus,dotcolour,beta,,,21,18,V,R,
469,91,7,11,3,27,53,699,['n'],1,right,['3'],4,119,[-0.02180675],98,53,easy,plus,dotcolour,beta,,,21,18,V,R,
470,92,8,11,3,27,53,698,['n'],1,right,['2'],5,208,[-0.14599128],100,53,easy,plus,dotcolour,beta,,,21,18,V,R,
471,93,9,11,3,47,33,633,['c'],1,left,['1'],6,175,[0.02189357],97,47,medium,plus,dotcolour,beta,,,21,18,V,R,
472,94,10,11,3,53,27,797,['c'],1,left,['2'],5,169,[0.08550448],100,53,easy,plus,dotcolour,beta,,,21,18,V,R,
473,95,11,11,3,53,27,897,['c'],1,left,['2'],5,159,[0.11298938],100,53,easy,plus,dotcolour,beta,,,21,18,V,R,
474,96,12,11,3,33,47,580,['n'],1,right,['1'],6,506,[-0.16621913],100,47,medium,plus,dotcolour,beta,,,21,18,V,R,
475,97,13,11,3,33,47,1033,['n'],1,right,['3'],4,173,[-0.13360112],100,47,medium,plus,dotcolour,beta,,,21,18,V,R,
476,98,14,11,3,36,44,949,['n'],1,right,['3'],4,194,[-0.04186961],98,44,hard,plus,dotcolour,beta,,,21,18,V,R,
477,99,15,11,3,53,27,1699,['n'],0,left,['2'],5,143,[-0.01572216],97,53,easy,plus,dotcolour,beta,,,21,18,V,R,
478,100,16,11,3,53,27,1416,['c'],1,left,['1'],6,185,[0.12886256],100,53,easy,plus,dotcolour,beta,,,21,18,V,R,
479,101,17,11,3,33,47,716,['n'],1,right,['2'],5,206,[-0.10114212],100,47,medium,plus,dotcolour,beta,,,21,18,V,R,
480,102,18,11,3,36,44,730,['n'],1,right,['2'],5,146,[-0.06249796],100,44,hard,plus,dotcolour,beta,,,21,18,V,R,
481,103,19,11,3,36,44,1032,['n'],1,right,['2'],5,148,[-0.10014911],100,44,hard,plus,dotcolour,beta,,,21,18,V,R,
482,104,20,11,3,27,53,699,['n'],1,right,['2'],5,155,[-0.15412342],100,53,easy,plus,dotcolour,beta,,,21,18,V,R,
483,105,21,11,3,33,47,766,['n'],1,right,['2'],5,143,[-0.09056275],100,47,medium,plus,dotcolour,beta,,,21,18,V,R,
484,106,22,11,3,27,53,1031,['n'],1,right,['2'],5,169,[-0.06075463],99,53,easy,plus,dotcolour,beta,,,21,18,V,R,
485,107,23,11,3,36,44,998,['n'],1,right,['2'],5,756,[-0.0441492],89,44,hard,plus,dotcolour,beta,,,21,18,V,R,
486,108,24,11,3,53,27,814,['c'],1,left,['2'],5,278,[0.13827201],100,53,easy,plus,dotcolour,beta,,,21,18,V,R,
487,109,25,11,3,27,53,515,['n'],1,right,['2'],5,248,[-0.09731808],100,53,easy,plus,dotcolour,beta,,,21,18,V,R,
488,110,26,11,3,36,44,981,['n'],1,right,['3'],4,255,[-0.07095293],99,44,hard,plus,dotcolour,beta,,,21,18,V,R,
489,111,27,11,3,44,36,749,['c'],1,left,['2'],5,168,[0.07630151],100,44,hard,plus,dotcolour,beta,,,21,18,V,R,
490,112,28,11,3,44,36,616,['n'],0,left,['2'],5,162,[-0.03538916],98,44,hard,plus,dotcolour,beta,,,21,18,V,R,
491,113,29,11,3,47,33,632,['n'],0,left,['2'],5,196,[-0.01274497],94,47,medium,plus,dotcolour,beta,,,21,18,V,R,
492,114,30,11,3,27,53,680,['n'],1,right,['2'],5,537,[-0.21505493],100,53,easy,plus,dotcolour,beta,,,21,18,V,R,
493,115,31,11,3,44,36,1180,['c'],1,left,['1'],6,181,[0.08791269],100,44,hard,plus,dotcolour,beta,,,21,18,V,R,
494,116,32,11,3,47,33,731,['n'],0,left,['1'],6,130,[-0.04183069],99,47,medium,plus,dotcolour,beta,,,21,18,V,R,
495,117,33,11,3,47,33,515,['n'],0,left,['1'],6,129,[-0.0787656],100,47,medium,plus,dotcolour,beta,,,21,18,V,R,
496,118,34,11,3,53,27,866,['n'],0,left,['1'],6,131,[-0.16484562],100,53,easy,plus,dotcolour,beta,,,21,18,V,R,
497,119,35,11,3,47,33,999,['n'],0,left,['2'],5,191,[-0.09167016],100,47,medium,plus,dotcolour,beta,,,21,18,V,R,
498,120,36,11,3,44,36,765,['n'],0,left,['2'],5,234,[-0.07708124],99,44,hard,plus,dotcolour,beta,,,21,18,V,R,
499,121,37,11,3,47,33,549,['n'],0,left,['2'],5,163,[-0.07795644],100,47,medium,plus,dotcolour,beta,,,21,18,V,R,
500,122,38,11,3,44,36,748,['n'],0,left,['2'],5,151,[-0.05148912],99,44,hard,plus,dotcolour,beta,,,21,18,V,R,
501,123,39,11,3,33,47,733,['n'],1,right,['3'],4,549,[-0.15296956],99,47,medium,plus,dotcolour,beta,,,21,18,V,R,
502,124,40,11,3,44,36,532,['n'],0,left,['3'],4,169,[-0.06500633],99,44,hard,plus,dotcolour,beta,,,21,18,V,R,
503,125,41,11,3,27,53,564,['n'],1,right,['3'],4,174,[-0.21052393],100,53,easy,plus,dotcolour,beta,,,21,18,V,R,
504,0,0,12,4,47,33,1116,['n'],0,left,['3'],4,201,[-0.05184434],46,47,medium,minus,dotcolour,beta,,,21,18,V,R,
505,1,1,12,4,44,36,1048,['c'],1,left,['3'],4,233,[0.13829986],96,44,hard,minus,dotcolour,beta,,,21,18,V,R,
506,2,2,12,4,53,27,798,['n'],0,left,['8'],3,2121,[0.29459936],1,53,easy,minus,dotcolour,beta,,,21,18,V,R,
507,3,3,12,4,44,36,1029,['n'],0,left,['3'],4,236,[-0.00778733],15,44,hard,minus,dotcolour,beta,,,21,18,V,R,
508,4,4,12,4,47,33,714,['c'],1,left,['2'],5,263,[-0.00519773],11,47,medium,minus,dotcolour,beta,,,21,18,V,R,
509,5,5,12,4,36,44,983,['n'],1,right,['3'],4,134,[-0.11020402],94,44,hard,minus,dotcolour,beta,,,21,18,V,R,
510,6,6,12,4,36,44,615,['n'],1,right,['3'],4,130,[-0.11961976],96,44,hard,minus,dotcolour,beta,,,21,18,V,R,
511,7,7,12,4,27,53,583,['n'],1,right,['3'],4,1214,[-0.37504729],99,53,easy,minus,dotcolour,beta,,,21,18,V,R,
512,8,8,12,4,53,27,814,['c'],1,left,['2'],5,262,[0.08537001],74,53,easy,minus,dotcolour,beta,,,21,18,V,R,
513,9,9,12,4,27,53,765,['n'],1,right,['3'],4,246,[-0.11485979],90,53,easy,minus,dotcolour,beta,,,21,18,V,R,
514,10,10,12,4,44,36,764,['n'],0,left,['3'],4,111,[-0.10077068],92,44,hard,minus,dotcolour,beta,,,21,18,V,R,
515,11,11,12,4,33,47,732,['n'],1,right,['3'],4,222,[-0.12332184],93,47,medium,minus,dotcolour,beta,,,21,18,V,R,
516,12,12,12,4,47,33,515,['n'],0,left,['3'],4,1538,[0.15604645],4,47,medium,minus,dotcolour,beta,,,21,18,V,R,
517,13,13,12,4,53,27,1748,['c'],1,left,['3'],4,191,[0.13717135],97,53,easy,minus,dotcolour,beta,,,21,18,V,R,
518,14,14,12,4,36,44,682,['n'],1,right,['3'],4,157,[-0.09811974],87,44,hard,minus,dotcolour,beta,,,21,18,V,R,
519,15,15,12,4,47,33,832,['c'],1,left,['3'],4,111,[0.04110694],31,47,medium,minus,dotcolour,beta,,,21,18,V,R,
520,16,16,12,4,33,47,650,['n'],1,right,['3'],4,105,[-0.01346389],9,47,medium,minus,dotcolour,beta,,,21,18,V,R,
521,17,17,12,4,33,47,1165,['n'],1,right,['3'],4,95,[-0.0853205],85,47,medium,minus,dotcolour,beta,,,21,18,V,R,
522,18,18,12,4,44,36,666,['c'],1,left,['3'],4,138,[0.08712024],82,44,hard,minus,dotcolour,beta,,,21,18,V,R,
523,19,19,12,4,44,36,865,['c'],1,left,['3'],4,123,[0.11830613],96,44,hard,minus,dotcolour,beta,,,21,18,V,R,
524,20,20,12,4,44,36,567,['n'],0,left,['3'],4,80,[-0.04374864],32,44,hard,minus,dotcolour,beta,,,21,18,V,R,
525,21,21,12,4,47,33,1283,['c'],1,left,['3'],4,123,[0.12394351],97,47,medium,minus,dotcolour,beta,,,21,18,V,R,
526,22,22,12,4,36,44,1415,['n'],1,right,['3'],4,351,[-0.10468325],82,44,hard,minus,dotcolour,beta,,,21,18,V,R,
527,23,23,12,4,44,36,600,['n'],0,left,['3'],4,146,[-0.043327],36,44,hard,minus,dotcolour,beta,,,21,18,V,R,
528,24,24,12,4,47,33,2166,['n'],0,left,['8'],3,190,[-0.04335164],38,47,medium,minus,dotcolour,beta,,,21,18,V,R,
529,25,25,12,4,36,44,1050,['c'],0,right,['8'],3,198,[0.01259935],15,44,hard,minus,dotcolour,beta,,,21,18,V,R,
530,26,26,12,4,53,27,1682,['c'],1,left,['3'],4,268,[0.09400585],79,53,easy,minus,dotcolour,beta,,,21,18,V,R,
531,27,27,12,4,53,27,648,['c'],1,left,['3'],4,137,[0.04827898],41,53,easy,minus,dotcolour,beta,,,21,18,V,R,
532,28,28,12,4,27,53,1898,['n'],1,right,['3'],4,881,[-0.22509487],96,53,easy,minus,dotcolour,beta,,,21,18,V,R,
533,29,29,12,4,36,44,780,['n'],1,right,['3'],4,119,[-0.12943028],98,44,hard,minus,dotcolour,beta,,,21,18,V,R,
534,30,30,12,4,33,47,965,['n'],1,right,['3'],4,197,[0.04048128],2,47,medium,minus,dotcolour,beta,,,21,18,V,R,
535,31,31,12,4,33,47,782,['n'],1,right,['3'],4,127,[-0.11188926],95,47,medium,minus,dotcolour,beta,,,21,18,V,R,
536,32,32,12,4,27,53,515,['n'],1,right,['3'],4,127,[-0.02794793],20,53,easy,minus,dotcolour,beta,,,21,18,V,R,
537,33,33,12,4,47,33,948,['n'],0,left,['3'],4,309,[0.05519814],3,47,medium,minus,dotcolour,beta,,,21,18,V,R,
538,34,34,12,4,33,47,931,['c'],0,right,['3'],4,116,[0.06970877],68,47,medium,minus,dotcolour,beta,,,21,18,V,R,
539,35,35,12,4,27,53,532,['n'],1,right,['3'],4,163,[-0.03018768],24,53,easy,minus,dotcolour,beta,,,21,18,V,R,
540,36,36,12,4,27,53,782,['n'],1,right,['3'],4,119,[-0.09816894],90,53,easy,minus,dotcolour,beta,,,21,18,V,R,
541,37,37,12,4,33,47,949,['n'],1,right,['3'],4,205,[-0.14998331],98,47,medium,minus,dotcolour,beta,,,21,18,V,R,
542,38,38,12,4,53,27,765,['c'],1,left,['3'],4,104,[0.10919271],95,53,easy,minus,dotcolour,beta,,,21,18,V,R,
543,39,39,12,4,27,53,566,['n'],1,right,['3'],4,167,[-0.05130365],45,53,easy,minus,dotcolour,beta,,,21,18,V,R,
544,40,40,12,4,53,27,567,['n'],0,left,['3'],4,138,[0.01372116],3,53,easy,minus,dotcolour,beta,,,21,18,V,R,
545,41,41,12,4,36,44,666,['n'],1,right,['3'],4,156,[-0.01897889],16,44,hard,minus,dotcolour,beta,,,21,18,V,R,
546,42,0,13,4,33,47,683,['n'],1,right,['3'],4,193,[-0.04226885],37,47,medium,minus,dotcolour,beta,,,21,18,V,R,
547,43,1,13,4,53,27,849,['c'],1,left,['2'],5,745,[0.03331734],39,53,easy,minus,dotcolour,beta,,,21,18,V,R,
548,44,2,13,4,33,47,517,['n'],1,right,['2'],5,151,[-0.09466354],86,47,medium,minus,dotcolour,beta,,,21,18,V,R,
549,45,3,13,4,53,27,633,['c'],1,left,['2'],5,169,[0.20125764],100,53,easy,minus,dotcolour,beta,,,21,18,V,R,
550,46,4,13,4,44,36,713,['n'],0,left,['3'],4,167,[-0.04847939],42,44,hard,minus,dotcolour,beta,,,21,18,V,R,
551,47,5,13,4,53,27,832,['c'],1,left,['2'],5,185,[0.00716376],12,53,easy,minus,dotcolour,beta,,,21,18,V,R,
552,48,6,13,4,27,53,798,['n'],1,right,['2'],5,147,[-0.07437199],71,53,easy,minus,dotcolour,beta,,,21,18,V,R,
553,49,7,13,4,36,44,750,['n'],1,right,['2'],5,184,[-0.12021091],94,44,hard,minus,dotcolour,beta,,,21,18,V,R,
554,50,8,13,4,44,36,1000,['c'],1,left,['2'],5,130,[0.07595743],73,44,hard,minus,dotcolour,beta,,,21,18,V,R,
555,51,9,13,4,44,36,1766,['n'],0,left,['2'],5,175,[-0.00508585],10,44,hard,minus,dotcolour,beta,,,21,18,V,R,
556,52,10,13,4,47,33,1815,['n'],0,left,['8'],3,153,[-0.06142732],57,47,medium,minus,dotcolour,beta,,,21,18,V,R,
557,53,11,13,4,53,27,1366,['c'],1,left,['3'],4,237,[0.13870559],96,53,easy,minus,dotcolour,beta,,,21,18,V,R,
558,54,12,13,4,33,47,799,['n'],1,right,['3'],4,1213,[-0.20855738],92,47,medium,minus,dotcolour,beta,,,21,18,V,R,
559,55,13,13,4,47,33,2199,['c'],1,left,['3'],4,117,[0.09958385],91,47,medium,minus,dotcolour,beta,,,21,18,V,R,
560,56,14,13,4,27,53,781,['n'],1,right,['3'],4,202,[-0.11353935],91,53,easy,minus,dotcolour,beta,,,21,18,V,R,
561,57,15,13,4,27,53,566,['n'],1,right,['3'],4,165,[-0.08088274],75,53,easy,minus,dotcolour,beta,,,21,18,V,R,
562,58,16,13,4,47,33,732,['c'],1,left,['3'],4,195,[0.02902482],25,47,medium,minus,dotcolour,beta,,,21,18,V,R,
563,59,17,13,4,36,44,667,['n'],1,right,['3'],4,137,[0.01307406],3,44,hard,minus,dotcolour,beta,,,21,18,V,R,
564,60,18,13,4,44,36,2049,['n'],0,left,['8'],3,467,[-0.02533863],31,44,hard,minus,dotcolour,beta,,,21,18,V,R,
565,61,19,13,4,36,44,997,['n'],1,right,['8'],3,266,[-0.1356026],94,44,hard,minus,dotcolour,beta,,,21,18,V,R,
566,62,20,13,4,27,53,1283,['n'],1,right,['9'],2,789,[-0.15061708],87,53,easy,minus,dotcolour,beta,,,21,18,V,R,
567,63,21,13,4,33,47,1399,['n'],1,right,['3'],4,487,[-0.1602448],94,47,medium,minus,dotcolour,beta,,,21,18,V,R,
568,64,22,13,4,47,33,733,['n'],0,left,['3'],4,278,[-0.06894558],61,47,medium,minus,dotcolour,beta,,,21,18,V,R,
569,65,23,13,4,36,44,616,['n'],1,right,['3'],4,132,[-0.15429457],99,44,hard,minus,dotcolour,beta,,,21,18,V,R,
570,66,24,13,4,44,36,516,['n'],0,left,['3'],4,147,[-0.05635656],51,44,hard,minus,dotcolour,beta,,,21,18,V,R,
571,67,25,13,4,53,27,567,['c'],1,left,['3'],4,192,[0.09195455],82,53,easy,minus,dotcolour,beta,,,21,18,V,R,
572,68,26,13,4,36,44,549,['n'],1,right,['3'],4,171,[-0.05377459],48,44,hard,minus,dotcolour,beta,,,21,18,V,R,
573,69,27,13,4,33,47,1665,['n'],1,right,['8'],3,203,[-0.08003151],73,47,medium,minus,dotcolour,beta,,,21,18,V,R,
574,70,28,13,4,47,33,1332,['c'],1,left,['8'],3,142,[0.12008131],96,47,medium,minus,dotcolour,beta,,,21,18,V,R,
575,71,29,13,4,27,53,882,['n'],1,right,['9'],2,334,[-0.06054968],54,53,easy,minus,dotcolour,beta,,,21,18,V,R,
576,72,30,13,4,53,27,1233,['c'],1,left,['0'],1,161,[0.05560611],50,53,easy,minus,dotcolour,beta,,,21,18,V,R,
577,73,31,13,4,27,53,548,['n'],1,right,['0'],1,222,[-0.17140748],99,53,easy,minus,dotcolour,beta,,,21,18,V,R,
578,74,32,13,4,36,44,733,['n'],1,right,['0'],1,241,[-0.05985867],54,44,hard,minus,dotcolour,beta,,,21,18,V,R,
579,75,33,13,4,33,47,714,['n'],1,right,['0'],1,300,[-0.14219296],95,47,medium,minus,dotcolour,beta,,,21,18,V,R,
580,76,34,13,4,44,36,1496,['c'],1,left,['3'],4,285,[0.06872694],61,44,hard,minus,dotcolour,beta,,,21,18,V,R,
581,77,35,13,4,44,36,915,['n'],0,left,['8'],3,2038,[0.308475],1,44,hard,minus,dotcolour,beta,,,21,18,V,R,
582,78,36,13,4,36,44,1266,['n'],1,right,['3'],4,403,[-0.07181587],61,44,hard,minus,dotcolour,beta,,,21,18,V,R,
583,79,37,13,4,27,53,449,['n'],1,right,['3'],4,153,[-0.07606546],72,53,easy,minus,dotcolour,beta,,,21,18,V,R,
584,80,38,13,4,53,27,715,['c'],1,left,['3'],4,169,[0.20873674],100,53,easy,minus,dotcolour,beta,,,21,18,V,R,
585,81,39,13,4,47,33,766,['n'],0,left,['3'],4,157,[-0.05347361],48,47,medium,minus,dotcolour,beta,,,21,18,V,R,
586,82,40,13,4,33,47,582,['n'],1,right,['3'],4,96,[-0.07349362],74,47,medium,minus,dotcolour,beta,,,21,18,V,R,
587,83,41,13,4,47,33,615,['c'],1,left,['3'],4,149,[0.0898276],83,47,medium,minus,dotcolour,beta,,,21,18,V,R,
588,84,0,14,4,47,33,750,['c'],1,left,['3'],4,217,[0.00175251],11,47,medium,minus,dotcolour,beta,,,21,18,V,R,
589,85,1,14,4,44,36,1232,['c'],1,left,['3'],4,144,[0.09027545],84,44,hard,minus,dotcolour,beta,,,21,18,V,R,
590,86,2,14,4,53,27,797,['c'],1,left,['3'],4,148,[0.06288468],58,53,easy,minus,dotcolour,beta,,,21,18,V,R,
591,87,3,14,4,36,44,533,['n'],1,right,['3'],4,146,[-0.08048555],76,44,hard,minus,dotcolour,beta,,,21,18,V,R,
592,88,4,14,4,53,27,680,['c'],1,left,['3'],4,106,[0.05578307],50,53,easy,minus,dotcolour,beta,,,21,18,V,R,
593,89,5,14,4,33,47,616,['n'],1,right,['3'],4,118,[-0.1020473],92,47,medium,minus,dotcolour,beta,,,21,18,V,R,
594,90,6,14,4,36,44,699,['n'],1,right,['3'],4,111,[-0.06075839],57,44,hard,minus,dotcolour,beta,,,21,18,V,R,
595,91,7,14,4,27,53,582,['n'],1,right,['3'],4,189,[-0.03915167],34,53,easy,minus,dotcolour,beta,,,21,18,V,R,
596,92,8,14,4,44,36,1399,['c'],1,left,['3'],4,310,[0.15143799],96,44,hard,minus,dotcolour,beta,,,21,18,V,R,
597,93,9,14,4,33,47,632,['n'],1,right,['3'],4,185,[-0.03342009],28,47,medium,minus,dotcolour,beta,,,21,18,V,R,
598,94,10,14,4,47,33,1017,['c'],1,left,['3'],4,147,[0.04242655],35,47,medium,minus,dotcolour,beta,,,21,18,V,R,
599,95,11,14,4,44,36,783,['c'],1,left,['3'],4,142,[0.10617611],92,44,hard,minus,dotcolour,beta,,,21,18,V,R,
600,96,12,14,4,36,44,1865,['n'],1,right,['0'],1,375,[-0.13961936],92,44,hard,minus,dotcolour,beta,,,21,18,V,R,
601,97,13,14,4,27,53,2465,['n'],1,right,['9'],2,295,[-0.0369988],35,53,easy,minus,dotcolour,beta,,,21,18,V,R,
602,98,14,14,4,36,44,597,['n'],1,right,['9'],2,188,[-0.04019041],35,44,hard,minus,dotcolour,beta,,,21,18,V,R,
603,99,15,14,4,53,27,2432,['c'],1,left,['3'],4,316,[0.16607295],97,53,easy,minus,dotcolour,beta,,,21,18,V,R,
604,100,16,14,4,33,47,716,['n'],1,right,['3'],4,164,[-0.05733211],52,47,medium,minus,dotcolour,beta,,,21,18,V,R,
605,101,17,14,4,53,27,765,['n'],0,left,['8'],3,2112,[0.2844734],1,53,easy,minus,dotcolour,beta,,,21,18,V,R,
606,102,18,14,4,27,53,582,['n'],1,right,['3'],4,197,[-0.03975336],35,53,easy,minus,dotcolour,beta,,,21,18,V,R,
607,103,19,14,4,47,33,1296,['n'],0,left,['3'],4,179,[-0.11258535],92,47,medium,minus,dotcolour,beta,,,21,18,V,R,
608,104,20,14,4,36,44,1583,['c'],0,right,['3'],4,397,[0.06209762],55,44,hard,minus,dotcolour,beta,,,21,18,V,R,
609,105,21,14,4,27,53,483,['n'],1,right,['3'],4,123,[-0.05629471],51,53,easy,minus,dotcolour,beta,,,21,18,V,R,
610,106,22,14,4,44,36,1816,['c'],1,left,['8'],3,134,[0.09997916],90,44,hard,minus,dotcolour,beta,,,21,18,V,R,
611,107,23,14,4,44,36,1366,['c'],1,left,['8'],3,204,[0.09838416],85,44,hard,minus,dotcolour,beta,,,21,18,V,R,
612,108,24,14,4,36,44,733,['n'],1,right,['9'],2,679,[0.06080675],7,44,hard,minus,dotcolour,beta,,,21,18,V,R,
613,109,25,14,4,44,36,747,['n'],0,left,['9'],2,231,[0.01459172],7,44,hard,minus,dotcolour,beta,,,21,18,V,R,
614,110,26,14,4,47,33,866,['n'],0,left,['9'],2,556,[0.0263651],12,47,medium,minus,dotcolour,beta,,,21,18,V,R,
615,111,27,14,4,53,27,866,['n'],0,left,['9'],2,300,[-0.00316312],15,53,easy,minus,dotcolour,beta,,,21,18,V,R,
616,112,28,14,4,47,33,984,['n'],0,left,['9'],2,242,[-0.06563923],59,47,medium,minus,dotcolour,beta,,,21,18,V,R,
617,113,29,14,4,27,53,801,['n'],1,right,['9'],2,242,[-0.09464276],81,53,easy,minus,dotcolour,beta,,,21,18,V,R,
618,114,30,14,4,53,27,2265,['n'],0,left,['3'],4,183,[-0.04252356],37,53,easy,minus,dotcolour,beta,,,21,18,V,R,
619,115,31,14,4,33,47,648,['n'],1,right,['3'],4,239,[-0.12020197],92,47,medium,minus,dotcolour,beta,,,21,18,V,R,
620,116,32,14,4,47,33,915,['c'],1,left,['2'],5,201,[0.06150322],56,47,medium,minus,dotcolour,beta,,,21,18,V,R,
621,117,33,14,4,53,27,782,['c'],1,left,['2'],5,235,[0.0472065],42,53,easy,minus,dotcolour,beta,,,21,18,V,R,
622,118,34,14,4,36,44,498,['n'],1,right,['3'],4,151,[-0.11304472],93,44,hard,minus,dotcolour,beta,,,21,18,V,R,
623,119,35,14,4,44,36,815,['n'],0,left,['3'],4,1210,[-0.06122422],52,44,hard,minus,dotcolour,beta,,,21,18,V,R,
624,120,36,14,4,47,33,648,['c'],1,left,['1'],6,143,[0.12722404],97,47,medium,minus,dotcolour,beta,,,21,18,V,R,
625,121,37,14,4,27,53,515,['n'],1,right,['2'],5,222,[-0.12172809],93,53,easy,minus,dotcolour,beta,,,21,18,V,R,
626,122,38,14,4,33,47,565,['n'],1,right,['2'],5,128,[-0.11478288],95,47,medium,minus,dotcolour,beta,,,21,18,V,R,
627,123,39,14,4,33,47,1098,['n'],1,right,['3'],4,191,[-0.14133726],97,47,medium,minus,dotcolour,beta,,,21,18,V,R,
628,124,40,14,4,27,53,648,['n'],1,right,['3'],4,143,[-0.04491497],38,53,easy,minus,dotcolour,beta,,,21,18,V,R,
629,125,41,14,4,33,47,1199,['n'],1,right,['3'],4,138,[-0.08559507],81,47,medium,minus,dotcolour,beta,,,21,18,V,R,
630,0,0,15,5,53,27,782,['c'],1,left,['1'],6,155,[0.1089212],100,53,easy,plus,dotcolour,beta,,,21,18,V,R,
631,1,1,15,5,53,27,1148,['n'],0,left,['2'],5,201,[-0.02997815],97,53,easy,plus,dotcolour,beta,,,21,18,V,R,
632,2,2,15,5,47,33,1013,['n'],0,left,['2'],5,186,[-0.00647435],93,47,medium,plus,dotcolour,beta,,,21,18,V,R,
633,3,3,15,5,33,47,999,['n'],1,right,['2'],5,172,[-0.03500974],98,47,medium,plus,dotcolour,beta,,,21,18,V,R,
634,4,4,15,5,27,53,884,['n'],1,right,['1'],6,362,[-0.1683179],100,53,easy,plus,dotcolour,beta,,,21,18,V,R,
635,5,5,15,5,27,53,549,['n'],1,right,['1'],6,423,[-0.17167928],100,53,easy,plus,dotcolour,beta,,,21,18,V,R,
636,6,6,15,5,27,53,1482,['n'],1,right,['1'],6,163,[-0.14487985],100,53,easy,plus,dotcolour,beta,,,21,18,V,R,
637,7,7,15,5,36,44,732,['n'],1,right,['1'],6,529,[-0.13009908],99,44,hard,plus,dotcolour,beta,,,21,18,V,R,
638,8,8,15,5,36,44,1150,['n'],1,right,['3'],4,127,[-0.08205511],100,44,hard,plus,dotcolour,beta,,,21,18,V,R,
639,9,9,15,5,36,44,599,['n'],1,right,['2'],5,483,[-0.02925779],90,44,hard,plus,dotcolour,beta,,,21,18,V,R,
640,10,10,15,5,27,53,466,['n'],1,right,['3'],4,167,[-0.17054681],100,53,easy,plus,dotcolour,beta,,,21,18,V,R,
641,11,11,15,5,47,33,966,['n'],0,left,['2'],5,275,[-0.13051362],100,47,medium,plus,dotcolour,beta,,,21,18,V,R,
642,12,12,15,5,33,47,549,['n'],1,right,['3'],4,154,[-0.06137741],100,47,medium,plus,dotcolour,beta,,,21,18,V,R,
643,13,13,15,5,44,36,1099,['c'],1,left,['1'],6,145,[0.07497936],100,44,hard,plus,dotcolour,beta,,,21,18,V,R,
644,14,14,15,5,47,33,1730,['n'],0,left,['3'],4,183,[0.0068548],89,47,medium,plus,dotcolour,beta,,,21,18,V,R,
645,15,15,15,5,33,47,649,['n'],1,right,['3'],4,151,[-0.04865478],99,47,medium,plus,dotcolour,beta,,,21,18,V,R,
646,16,16,15,5,27,53,482,['n'],1,right,['3'],4,119,[-0.07959492],100,53,easy,plus,dotcolour,beta,,,21,18,V,R,
647,17,17,15,5,44,36,549,['n'],0,left,['3'],4,118,[-0.12460013],100,44,hard,plus,dotcolour,beta,,,21,18,V,R,
648,18,18,15,5,44,36,1282,['c'],1,left,['3'],4,111,[0.06628257],100,44,hard,plus,dotcolour,beta,,,21,18,V,R,
649,19,19,15,5,36,44,1165,['n'],1,right,['3'],4,205,[-0.08342401],100,44,hard,plus,dotcolour,beta,,,21,18,V,R,
650,20,20,15,5,47,33,1415,['c'],1,left,['2'],5,205,[0.07140867],99,47,medium,plus,dotcolour,beta,,,21,18,V,R,
651,21,21,15,5,47,33,733,['n'],0,left,['3'],4,258,[-0.08609388],99,47,medium,plus,dotcolour,beta,,,21,18,V,R,
652,22,22,15,5,27,53,649,['n'],1,right,['2'],5,446,[-0.14736032],100,53,easy,plus,dotcolour,beta,,,21,18,V,R,
653,23,23,15,5,33,47,700,['n'],1,right,['2'],5,169,[-0.15569359],100,47,medium,plus,dotcolour,beta,,,21,18,V,R,
654,24,24,15,5,44,36,848,['n'],0,left,['3'],4,985,[0.02078105],65,44,hard,plus,dotcolour,beta,,,21,18,V,R,
655,25,25,15,5,47,33,849,['c'],1,left,['1'],6,177,[0.115081],100,47,medium,plus,dotcolour,beta,,,21,18,V,R,
656,26,26,15,5,53,27,682,['c'],1,left,['2'],5,175,[0.08788323],100,53,easy,plus,dotcolour,beta,,,21,18,V,R,
657,27,27,15,5,47,33,632,['n'],0,left,['2'],5,160,[-0.15471923],100,47,medium,plus,dotcolour,beta,,,21,18,V,R,
658,28,28,15,5,36,44,632,['n'],1,right,['3'],4,138,[-0.12480377],100,44,hard,plus,dotcolour,beta,,,21,18,V,R,
659,29,29,15,5,33,47,765,['n'],1,right,['2'],5,791,[-0.22562125],100,47,medium,plus,dotcolour,beta,,,21,18,V,R,
660,30,30,15,5,44,36,780,['c'],1,left,['2'],5,121,[0.07978858],100,44,hard,plus,dotcolour,beta,,,21,18,V,R,
661,31,31,15,5,44,36,715,['n'],0,left,['2'],5,105,[-0.02930325],99,44,hard,plus,dotcolour,beta,,,21,18,V,R,
662,32,32,15,5,44,36,818,['n'],0,left,['8'],3,3493,[0.20383599],19,44,hard,plus,dotcolour,beta,,,21,18,V,R,
663,33,33,15,5,36,44,1315,['n'],1,right,['3'],4,429,[0.05000785],54,44,hard,plus,dotcolour,beta,,,21,18,V,R,
664,34,34,15,5,33,47,498,['n'],1,right,['3'],4,129,[-0.08744263],100,47,medium,plus,dotcolour,beta,,,21,18,V,R,
665,35,35,15,5,36,44,532,['n'],1,right,['3'],4,128,[-0.1130012],100,44,hard,plus,dotcolour,beta,,,21,18,V,R,
666,36,36,15,5,27,53,933,['n'],1,right,['3'],4,207,[-0.16127812],100,53,easy,plus,dotcolour,beta,,,21,18,V,R,
667,37,37,15,5,33,47,515,['n'],1,right,['3'],4,123,[-0.10874394],100,47,medium,plus,dotcolour,beta,,,21,18,V,R,
668,38,38,15,5,53,27,697,['c'],1,left,['1'],6,387,[0.09420335],99,53,easy,plus,dotcolour,beta,,,21,18,V,R,
669,39,39,15,5,53,27,1666,['c'],1,left,['2'],5,129,[0.02776538],98,53,easy,plus,dotcolour,beta,,,21,18,V,R,
670,40,40,15,5,53,27,698,['c'],1,left,['2'],5,138,[0.14308671],100,53,easy,plus,dotcolour,beta,,,21,18,V,R,
671,41,41,15,5,53,27,598,['c'],1,left,['2'],5,126,[0.08164729],100,53,easy,plus,dotcolour,beta,,,21,18,V,R,
672,42,0,16,5,36,44,699,['n'],1,right,['2'],5,134,[-0.0655958],100,44,hard,plus,dotcolour,beta,,,21,18,V,R,
673,43,1,16,5,33,47,449,['n'],1,right,['2'],5,129,[-0.0827223],100,47,medium,plus,dotcolour,beta,,,21,18,V,R,
674,44,2,16,5,33,47,482,['n'],1,right,['2'],5,257,[-0.09543019],100,47,medium,plus,dotcolour,beta,,,21,18,V,R,
675,45,3,16,5,47,33,829,['c'],1,left,['1'],6,126,[0.13477632],100,47,medium,plus,dotcolour,beta,,,21,18,V,R,
676,46,4,16,5,27,53,498,['n'],1,right,['1'],6,367,[-0.25119859],100,53,easy,plus,dotcolour,beta,,,21,18,V,R,
677,47,5,16,5,53,27,1399,['c'],1,left,['2'],5,257,[0.15283657],100,53,easy,plus,dotcolour,beta,,,21,18,V,R,
678,48,6,16,5,36,44,482,['n'],1,right,['2'],5,189,[-0.08423035],100,44,hard,plus,dotcolour,beta,,,21,18,V,R,
679,49,7,16,5,47,33,615,['n'],0,left,['2'],5,149,[-0.02139117],97,47,medium,plus,dotcolour,beta,,,21,18,V,R,
680,50,8,16,5,47,33,766,['n'],0,left,['2'],5,418,[-0.17190208],100,47,medium,plus,dotcolour,beta,,,21,18,V,R,
681,51,9,16,5,27,53,865,['n'],1,right,['1'],6,176,[-0.10145278],100,53,easy,plus,dotcolour,beta,,,21,18,V,R,
682,52,10,16,5,36,44,1065,['n'],1,right,['2'],5,135,[-0.04283486],99,44,hard,plus,dotcolour,beta,,,21,18,V,R,
683,53,11,16,5,27,53,566,['n'],1,right,['2'],5,173,[-0.03741559],98,53,easy,plus,dotcolour,beta,,,21,18,V,R,
684,54,12,16,5,47,33,1114,['n'],0,left,['3'],4,194,[-0.0021119],91,47,medium,plus,dotcolour,beta,,,21,18,V,R,
685,55,13,16,5,36,44,765,['n'],1,right,['2'],5,142,[-0.03731198],99,44,hard,plus,dotcolour,beta,,,21,18,V,R,
686,56,14,16,5,33,47,565,['n'],1,right,['2'],5,666,[-0.06229194],93,47,medium,plus,dotcolour,beta,,,21,18,V,R,
687,57,15,16,5,53,27,730,['c'],1,left,['2'],5,203,[0.13852888],100,53,easy,plus,dotcolour,beta,,,21,18,V,R,
688,58,16,16,5,53,27,600,['c'],1,left,['2'],5,108,[0.05033058],100,53,easy,plus,dotcolour,beta,,,21,18,V,R,
689,59,17,16,5,27,53,600,['n'],1,right,['2'],5,138,[-0.10548103],100,53,easy,plus,dotcolour,beta,,,21,18,V,R,
690,60,18,16,5,36,44,867,['c'],0,right,['2'],5,138,[0.12964524],100,44,hard,plus,dotcolour,beta,,,21,18,V,R,
691,61,19,16,5,36,44,1032,['n'],1,right,['2'],5,1508,[0.02757112],60,44,hard,plus,dotcolour,beta,,,21,18,V,R,
692,62,20,16,5,33,47,531,['n'],1,right,['2'],5,107,[-0.03084711],99,47,medium,plus,dotcolour,beta,,,21,18,V,R,
693,63,21,16,5,33,47,731,['n'],1,right,['2'],5,114,[-0.07637368],100,47,medium,plus,dotcolour,beta,,,21,18,V,R,
694,64,22,16,5,47,33,680,['c'],1,left,['2'],5,108,[0.02283147],99,47,medium,plus,dotcolour,beta,,,21,18,V,R,
695,65,23,16,5,36,44,597,['n'],1,right,['2'],5,145,[-0.02336161],98,44,hard,plus,dotcolour,beta,,,21,18,V,R,
696,66,24,16,5,44,36,598,['n'],0,left,['2'],5,92,[-0.09142478],100,44,hard,plus,dotcolour,beta,,,21,18,V,R,
697,67,25,16,5,47,33,549,['n'],0,left,['2'],5,123,[-0.07653267],100,47,medium,plus,dotcolour,beta,,,21,18,V,R,
698,68,26,16,5,27,53,516,['n'],1,right,['2'],5,139,[-0.12298835],100,53,easy,plus,dotcolour,beta,,,21,18,V,R,
699,69,27,16,5,33,47,799,['n'],1,right,['1'],6,463,[-0.24349666],100,47,medium,plus,dotcolour,beta,,,21,18,V,R,
700,70,28,16,5,44,36,800,['n'],0,left,['2'],5,150,[-0.00553582],94,44,hard,plus,dotcolour,beta,,,21,18,V,R,
701,71,29,16,5,44,36,1249,['c'],1,left,['3'],4,183,[0.11316724],100,44,hard,plus,dotcolour,beta,,,21,18,V,R,
702,72,30,16,5,33,47,666,['n'],1,right,['3'],4,191,[-0.14628964],100,47,medium,plus,dotcolour,beta,,,21,18,V,R,
703,73,31,16,5,53,27,815,['c'],1,left,['3'],4,143,[0.19991399],100,53,easy,plus,dotcolour,beta,,,21,18,V,R,
704,74,32,16,5,53,27,633,['c'],1,left,['3'],4,201,[0.19551876],100,53,easy,plus,dotcolour,beta,,,21,18,V,R,
705,75,33,16,5,27,53,616,['n'],1,right,['3'],4,146,[-0.07692691],100,53,easy,plus,dotcolour,beta,,,21,18,V,R,
706,76,34,16,5,47,33,865,['n'],0,left,['3'],4,147,[-0.00351814],94,47,medium,plus,dotcolour,beta,,,21,18,V,R,
707,77,35,16,5,44,36,615,['n'],0,left,['3'],4,1573,[0.12479259],27,44,hard,plus,dotcolour,beta,,,21,18,V,R,
708,78,36,16,5,53,27,615,['n'],0,left,['2'],5,254,[-0.13069284],100,53,easy,plus,dotcolour,beta,,,21,18,V,R,
709,79,37,16,5,53,27,832,['n'],0,left,['3'],4,1437,[-0.11420007],93,53,easy,plus,dotcolour,beta,,,21,18,V,R,
710,80,38,16,5,44,36,1899,['c'],1,left,['3'],4,264,[0.03769086],96,44,hard,plus,dotcolour,beta,,,21,18,V,R,
711,81,39,16,5,27,53,749,['n'],1,right,['2'],5,368,[-0.22876692],100,53,easy,plus,dotcolour,beta,,,21,18,V,R,
712,82,40,16,5,44,36,466,['n'],0,left,['2'],5,232,[-0.12866656],100,44,hard,plus,dotcolour,beta,,,21,18,V,R,
713,83,41,16,5,44,36,734,['n'],0,left,['2'],5,115,[-0.04079592],99,44,hard,plus,dotcolour,beta,,,21,18,V,R,
714,84,0,17,5,53,27,2400,['c'],1,left,['1'],6,455,[0.18190432],100,53,easy,plus,dotcolour,beta,,,21,18,V,R,
715,85,1,17,5,36,44,715,['n'],1,right,['2'],5,145,[-0.06652705],100,44,hard,plus,dotcolour,beta,,,21,18,V,R,
716,86,2,17,5,27,53,1065,['n'],1,right,['1'],6,154,[-0.13223188],100,53,easy,plus,dotcolour,beta,,,21,18,V,R,
717,87,3,17,5,33,47,547,['n'],1,right,['1'],6,135,[-0.12805359],100,47,medium,plus,dotcolour,beta,,,21,18,V,R,
718,88,4,17,5,33,47,1032,['n'],1,right,['2'],5,121,[-0.12535257],100,47,medium,plus,dotcolour,beta,,,21,18,V,R,
719,89,5,17,5,44,36,649,['n'],0,left,['1'],6,68,[-0.07757797],100,44,hard,plus,dotcolour,beta,,,21,18,V,R,
720,90,6,17,5,53,27,900,['c'],1,left,['2'],5,439,[0.17821955],100,53,easy,plus,dotcolour,beta,,,21,18,V,R,
721,91,7,17,5,53,27,1147,['c'],1,left,['2'],5,64,[0.08333086],100,53,easy,plus,dotcolour,beta,,,21,18,V,R,
722,92,8,17,5,33,47,564,['n'],1,right,['2'],5,112,[-0.06550663],100,47,medium,plus,dotcolour,beta,,,21,18,V,R,
723,93,9,17,5,44,36,1066,['n'],0,left,['2'],5,170,[-0.04372839],99,44,hard,plus,dotcolour,beta,,,21,18,V,R,
724,94,10,17,5,47,33,1648,['n'],0,left,['2'],5,1458,[-0.00914739],72,47,medium,plus,dotcolour,beta,,,21,18,V,R,
725,95,11,17,5,33,47,731,['n'],1,right,['2'],5,140,[-0.10430871],100,47,medium,plus,dotcolour,beta,,,21,18,V,R,
726,96,12,17,5,53,27,716,['c'],1,left,['1'],6,371,[0.08709681],99,53,easy,plus,dotcolour,beta,,,21,18,V,R,
727,97,13,17,5,27,53,766,['n'],1,right,['2'],5,142,[-0.1410108],100,53,easy,plus,dotcolour,beta,,,21,18,V,R,
728,98,14,17,5,27,53,615,['n'],1,right,['1'],6,377,[-0.13671064],100,53,easy,plus,dotcolour,beta,,,21,18,V,R,
729,99,15,17,5,47,33,583,['n'],0,left,['1'],6,108,[-0.07684694],100,47,medium,plus,dotcolour,beta,,,21,18,V,R,
730,100,16,17,5,44,36,613,['n'],0,left,['1'],6,768,[-0.02336918],83,44,hard,plus,dotcolour,beta,,,21,18,V,R,
731,101,17,17,5,27,53,616,['n'],1,right,['2'],5,178,[-0.18936308],100,53,easy,plus,dotcolour,beta,,,21,18,V,R,
732,102,18,17,5,36,44,532,['n'],1,right,['2'],5,102,[-0.0785029],100,44,hard,plus,dotcolour,beta,,,21,18,V,R,
733,103,19,17,5,47,33,949,['c'],1,left,['2'],5,206,[0.09559989],100,47,medium,plus,dotcolour,beta,,,21,18,V,R,
734,104,20,17,5,47,33,747,['c'],1,left,['1'],6,232,[0.04480465],98,47,medium,plus,dotcolour,beta,,,21,18,V,R,
735,105,21,17,5,33,47,546,['n'],1,right,['2'],5,202,[-0.07645162],99,47,medium,plus,dotcolour,beta,,,21,18,V,R,
736,106,22,17,5,44,36,517,['n'],0,left,['2'],5,134,[-0.07407092],100,44,hard,plus,dotcolour,beta,,,21,18,V,R,
737,107,23,17,5,33,47,532,['n'],1,right,['2'],5,141,[-0.11318193],100,47,medium,plus,dotcolour,beta,,,21,18,V,R,
738,108,24,17,5,44,36,982,['c'],1,left,['2'],5,233,[0.10279251],100,44,hard,plus,dotcolour,beta,,,21,18,V,R,
739,109,25,17,5,36,44,682,['n'],1,right,['3'],4,270,[-0.08011589],99,44,hard,plus,dotcolour,beta,,,21,18,V,R,
740,110,26,17,5,44,36,1447,['n'],0,left,['3'],4,154,[-0.09529302],100,44,hard,plus,dotcolour,beta,,,21,18,V,R,
741,111,27,17,5,47,33,1018,['c'],1,left,['2'],5,229,[0.05429308],98,47,medium,plus,dotcolour,beta,,,21,18,V,R,
742,112,28,17,5,53,27,733,['c'],1,left,['2'],5,368,[0.11342179],99,53,easy,plus,dotcolour,beta,,,21,18,V,R,
743,113,29,17,5,36,44,467,['n'],1,right,['2'],5,360,[-0.11913204],99,44,hard,plus,dotcolour,beta,,,21,18,V,R,
744,114,30,17,5,27,53,613,['n'],1,right,['1'],6,490,[-0.02776656],89,53,easy,plus,dotcolour,beta,,,21,18,V,R,
745,115,31,17,5,36,44,849,['n'],1,right,['2'],5,157,[-0.05537689],99,44,hard,plus,dotcolour,beta,,,21,18,V,R,
746,116,32,17,5,33,47,882,['n'],1,right,['2'],5,173,[-0.08109617],100,47,medium,plus,dotcolour,beta,,,21,18,V,R,
747,117,33,17,5,36,44,1399,['n'],1,right,['2'],5,328,[-0.03537054],95,44,hard,plus,dotcolour,beta,,,21,18,V,R,
748,118,34,17,5,44,36,782,['c'],1,left,['1'],6,237,[0.0281605],96,44,hard,plus,dotcolour,beta,,,21,18,V,R,
749,119,35,17,5,47,33,1932,['c'],1,left,['2'],5,111,[0.06520061],100,47,medium,plus,dotcolour,beta,,,21,18,V,R,
750,120,36,17,5,47,33,982,['c'],1,left,['2'],5,884,[0.07817748],93,47,medium,plus,dotcolour,beta,,,21,18,V,R,
751,121,37,17,5,27,53,665,['n'],1,right,['2'],5,160,[-0.07972869],100,53,easy,plus,dotcolour,beta,,,21,18,V,R,
752,122,38,17,5,53,27,699,['c'],1,left,['2'],5,190,[0.08031037],100,53,easy,plus,dotcolour,beta,,,21,18,V,R,
753,123,39,17,5,36,44,632,['n'],1,right,['2'],5,134,[-0.12132774],100,44,hard,plus,dotcolour,beta,,,21,18,V,R,
754,124,40,17,5,53,27,730,['c'],1,left,['2'],5,189,[0.0988601],100,53,easy,plus,dotcolour,beta,,,21,18,V,R,
755,125,41,17,5,27,53,515,['n'],1,right,['2'],5,162,[-0.14049523],100,53,easy,plus,dotcolour,beta,,,21,18,V,R,
,,,,,,,,,,,,,,,,,,,,,1,soms hele goede feedback en soms super slecht    ,21,18,V,R,
,,,,,,,,,,,,,,,,,,,,,2,['g'],21,18,V,R,
,,,,,,,,,,,,,,,,,,,,,3,['f'],21,18,V,R,
,,,,,,,,,,,,,,,,,,,,,5,['3'],21,18,V,R,
