trial,withinphasetrial,withinblocktrial,block,phase,dotsLeft,dotsRight,rt,resp,cor,cresp,conf_press,cj,RTconf,ev,fb,diff,difflevel,condition,task,manip,questionID,questionResp,sub,age,gender,handedness,
0,0,0,0,0,47,33,4971,['c'],1,left,['2'],5,3575,[0.68088679],100,47,medium,minus,dotcolour,beta,,,25,18,V,R,
1,1,1,0,0,33,47,1218,['n'],1,right,['1'],6,3042,[-0.57610535],100,47,medium,minus,dotcolour,beta,,,25,18,V,R,
2,2,2,0,0,53,27,3486,['n'],0,left,['3'],4,3054,[0.62307676],0,53,easy,minus,dotcolour,beta,,,25,18,V,R,
3,3,3,0,0,53,27,1519,['c'],1,left,['1'],6,1778,[0.25107413],93,53,easy,minus,dotcolour,beta,,,25,18,V,R,
4,4,4,0,0,44,36,1834,['c'],1,left,['3'],4,1173,[0.32222965],99,44,hard,minus,dotcolour,beta,,,25,18,V,R,
5,5,5,0,0,47,33,1551,['c'],1,left,['2'],5,1278,[0.31504694],98,47,medium,minus,dotcolour,beta,,,25,18,V,R,
6,6,6,0,0,53,27,1016,['c'],1,left,['1'],6,1047,[0.16332495],87,53,easy,minus,dotcolour,beta,,,25,18,V,R,
7,7,7,0,0,36,44,1067,['n'],1,right,['1'],6,1792,[-0.00826902],35,44,hard,minus,dotcolour,beta,,,25,18,V,R,
8,8,8,0,0,44,36,2286,['c'],1,left,['2'],5,961,[0.15578534],86,44,hard,minus,dotcolour,beta,,,25,18,V,R,
9,9,9,0,0,44,36,2651,['n'],0,left,['3'],4,2302,[0.21699302],4,44,hard,minus,dotcolour,beta,,,25,18,V,R,
10,10,10,0,0,47,33,2518,['n'],0,left,['3'],4,2385,[0.07430885],18,47,medium,minus,dotcolour,beta,,,25,18,V,R,
11,11,11,0,0,47,33,1901,['c'],1,left,['3'],4,816,[0.47712575],100,47,medium,minus,dotcolour,beta,,,25,18,V,R,
12,12,12,0,0,27,53,866,['n'],1,right,['1'],6,1811,[-0.32962292],98,53,easy,minus,dotcolour,beta,,,25,18,V,R,
13,13,13,0,0,27,53,883,['n'],1,right,['1'],6,452,[-0.14816876],92,53,easy,minus,dotcolour,beta,,,25,18,V,R,
14,14,14,0,0,36,44,1067,['n'],1,right,['1'],6,501,[-0.14935418],92,44,hard,minus,dotcolour,beta,,,25,18,V,R,
15,15,15,0,0,27,53,716,['n'],1,right,['1'],6,363,[-0.2117641],99,53,easy,minus,dotcolour,beta,,,25,18,V,R,
16,16,16,0,0,47,33,2201,['c'],1,left,['2'],5,498,[-0.02420236],12,47,medium,minus,dotcolour,beta,,,25,18,V,R,
17,17,17,0,0,53,27,1736,['c'],1,left,['1'],6,567,[0.20190958],97,53,easy,minus,dotcolour,beta,,,25,18,V,R,
18,18,18,0,0,36,44,933,['n'],1,right,['1'],6,426,[-0.10579293],80,44,hard,minus,dotcolour,beta,,,25,18,V,R,
19,19,19,0,0,53,27,1085,['c'],1,left,['1'],6,371,[0.12490312],89,53,easy,minus,dotcolour,beta,,,25,18,V,R,
20,20,20,0,0,53,27,1319,['c'],1,left,['1'],6,295,[0.09797754],80,53,easy,minus,dotcolour,beta,,,25,18,V,R,
21,21,21,0,0,33,47,932,['n'],1,right,['1'],6,1005,[-0.01734968],33,47,medium,minus,dotcolour,beta,,,25,18,V,R,
22,22,22,0,0,36,44,3319,['n'],1,right,['3'],4,1795,[0.03952754],22,44,hard,minus,dotcolour,beta,,,25,18,V,R,
23,23,23,0,0,33,47,2286,['c'],0,right,['2'],5,1421,[-0.15407682],4,47,medium,minus,dotcolour,beta,,,25,18,V,R,
24,24,24,0,0,33,47,2319,['c'],0,right,['3'],4,1611,[-0.08399226],12,47,medium,minus,dotcolour,beta,,,25,18,V,R,
25,25,25,0,0,33,47,1117,['c'],0,right,['2'],5,723,[-0.02525968],15,47,medium,minus,dotcolour,beta,,,25,18,V,R,
26,26,26,0,0,44,36,2235,['n'],0,left,['3'],4,1738,[-0.10086914],65,44,hard,minus,dotcolour,beta,,,25,18,V,R,
27,27,27,0,0,36,44,1501,['c'],0,right,['3'],4,421,[0.04256538],41,44,hard,minus,dotcolour,beta,,,25,18,V,R,
28,28,28,0,0,47,33,1517,['n'],0,left,['2'],5,670,[-0.01475262],29,47,medium,minus,dotcolour,beta,,,25,18,V,R,
29,29,29,0,0,33,47,2301,['n'],1,right,['2'],5,389,[-0.05291764],48,47,medium,minus,dotcolour,beta,,,25,18,V,R,
30,30,30,0,0,27,53,901,['n'],1,right,['1'],6,321,[-0.02603342],28,53,easy,minus,dotcolour,beta,,,25,18,V,R,
31,31,31,0,0,47,33,917,['n'],0,left,['2'],5,774,[0.11796014],3,47,medium,minus,dotcolour,beta,,,25,18,V,R,
32,32,32,0,0,27,53,733,['n'],1,right,['1'],6,415,[-0.03252429],34,53,easy,minus,dotcolour,beta,,,25,18,V,R,
33,33,33,0,0,44,36,1302,['c'],1,left,['1'],6,313,[0.07588496],66,44,hard,minus,dotcolour,beta,,,25,18,V,R,
34,34,34,0,0,27,53,733,['n'],1,right,['1'],6,238,[-0.09597726],82,53,easy,minus,dotcolour,beta,,,25,18,V,R,
35,35,35,0,0,33,47,716,['n'],1,right,['1'],6,248,[-0.13786656],95,47,medium,minus,dotcolour,beta,,,25,18,V,R,
36,36,36,0,0,36,44,600,['n'],1,right,['1'],6,228,[-0.11624665],91,44,hard,minus,dotcolour,beta,,,25,18,V,R,
37,37,37,0,0,36,44,1050,['n'],1,right,['1'],6,240,[0.01581761],7,44,hard,minus,dotcolour,beta,,,25,18,V,R,
38,38,38,0,0,27,53,899,['n'],1,right,['1'],6,297,[-0.13855827],94,53,easy,minus,dotcolour,beta,,,25,18,V,R,
39,39,39,0,0,44,36,1402,['c'],1,left,['2'],5,628,[0.08670521],67,44,hard,minus,dotcolour,beta,,,25,18,V,R,
40,40,40,0,0,53,27,1449,['c'],1,left,['1'],6,447,[0.13009176],88,53,easy,minus,dotcolour,beta,,,25,18,V,R,
41,41,41,0,0,44,36,833,['n'],0,left,['1'],6,522,[0.01441266],15,44,hard,minus,dotcolour,beta,,,25,18,V,R,
42,42,0,1,0,36,44,2219,['n'],1,right,['1'],6,1293,[0.04100384],18,44,hard,minus,dotcolour,beta,,,25,18,V,R,
43,43,1,1,0,53,27,951,['c'],1,left,['2'],5,840,[0.18518593],93,53,easy,minus,dotcolour,beta,,,25,18,V,R,
44,44,2,1,0,33,47,683,['n'],1,right,['1'],6,322,[-0.0636791],56,47,medium,minus,dotcolour,beta,,,25,18,V,R,
45,45,3,1,0,36,44,582,['n'],1,right,['1'],6,349,[-0.05968279],53,44,hard,minus,dotcolour,beta,,,25,18,V,R,
46,46,4,1,0,36,44,1334,['n'],1,right,['3'],4,824,[-0.25377776],98,44,hard,minus,dotcolour,beta,,,25,18,V,R,
47,47,5,1,0,44,36,2802,['n'],0,left,['2'],5,324,[-0.03988154],38,44,hard,minus,dotcolour,beta,,,25,18,V,R,
48,48,6,1,0,47,33,916,['c'],1,left,['2'],5,497,[0.06191526],54,47,medium,minus,dotcolour,beta,,,25,18,V,R,
49,49,7,1,0,44,36,1466,['c'],1,left,['2'],5,336,[0.0946309],77,44,hard,minus,dotcolour,beta,,,25,18,V,R,
50,50,8,1,0,53,27,1199,['c'],1,left,['1'],6,249,[0.19867033],99,53,easy,minus,dotcolour,beta,,,25,18,V,R,
51,51,9,1,0,33,47,2385,['c'],0,right,['3'],4,334,[0.08652949],72,47,medium,minus,dotcolour,beta,,,25,18,V,R,
52,52,10,1,0,33,47,849,['n'],1,right,['1'],6,478,[-0.22912048],99,47,medium,minus,dotcolour,beta,,,25,18,V,R,
53,53,11,1,0,36,44,1633,['n'],1,right,['3'],4,1135,[-0.18325941],90,44,hard,minus,dotcolour,beta,,,25,18,V,R,
54,54,12,1,0,47,33,1484,['n'],0,left,['3'],4,380,[-0.01169591],22,47,medium,minus,dotcolour,beta,,,25,18,V,R,
55,55,13,1,0,47,33,1134,['c'],1,left,['2'],5,1054,[-0.00128728],27,47,medium,minus,dotcolour,beta,,,25,18,V,R,
56,56,14,1,0,53,27,1484,['c'],1,left,['2'],5,517,[0.12257885],84,53,easy,minus,dotcolour,beta,,,25,18,V,R,
57,57,15,1,0,27,53,1202,['n'],1,right,['1'],6,1087,[-0.28676764],98,53,easy,minus,dotcolour,beta,,,25,18,V,R,
58,58,16,1,0,44,36,2084,['c'],1,left,['3'],4,421,[0.20013824],98,44,hard,minus,dotcolour,beta,,,25,18,V,R,
59,59,17,1,0,27,53,766,['n'],1,right,['1'],6,372,[-0.10622485],82,53,easy,minus,dotcolour,beta,,,25,18,V,R,
60,60,18,1,0,33,47,651,['n'],1,right,['1'],6,322,[-0.05779485],52,47,medium,minus,dotcolour,beta,,,25,18,V,R,
61,61,19,1,0,44,36,2553,['n'],0,left,['1'],6,349,[0.02906369],7,44,hard,minus,dotcolour,beta,,,25,18,V,R,
62,62,20,1,0,47,33,1351,['c'],1,left,['1'],6,535,[0.13641847],88,47,medium,minus,dotcolour,beta,,,25,18,V,R,
63,63,21,1,0,53,27,4322,['c'],1,left,['2'],5,873,[0.09680489],69,53,easy,minus,dotcolour,beta,,,25,18,V,R,
64,64,22,1,0,27,53,934,['n'],1,right,['1'],6,438,[-0.00836155],22,53,easy,minus,dotcolour,beta,,,25,18,V,R,
65,65,23,1,0,27,53,817,['n'],1,right,['1'],6,611,[-0.20632303],97,53,easy,minus,dotcolour,beta,,,25,18,V,R,
66,66,24,1,0,44,36,866,['c'],1,left,['1'],6,703,[0.21558747],97,44,hard,minus,dotcolour,beta,,,25,18,V,R,
67,67,25,1,0,33,47,1117,['n'],1,right,['1'],6,364,[-0.10426197],81,47,medium,minus,dotcolour,beta,,,25,18,V,R,
68,68,26,1,0,47,33,1417,['c'],1,left,['3'],4,811,[0.15479842],88,47,medium,minus,dotcolour,beta,,,25,18,V,R,
69,69,27,1,0,27,53,868,['n'],1,right,['1'],6,407,[0.00348339],16,53,easy,minus,dotcolour,beta,,,25,18,V,R,
70,70,28,1,0,36,44,1067,['n'],1,right,['1'],6,474,[-0.0188767],28,44,hard,minus,dotcolour,beta,,,25,18,V,R,
71,71,29,1,0,27,53,1167,['n'],1,right,['2'],5,2375,[-0.24167009],90,53,easy,minus,dotcolour,beta,,,25,18,V,R,
72,72,30,1,0,47,33,1451,['c'],1,left,['3'],4,514,[0.12610953],85,47,medium,minus,dotcolour,beta,,,25,18,V,R,
73,73,31,1,0,53,27,2501,['c'],1,left,['2'],5,470,[0.12242983],85,53,easy,minus,dotcolour,beta,,,25,18,V,R,
74,74,32,1,0,36,44,1051,['n'],1,right,['3'],4,873,[-0.1216819],78,44,hard,minus,dotcolour,beta,,,25,18,V,R,
75,75,33,1,0,47,33,2318,['n'],0,left,['3'],4,1278,[0.00526738],28,47,medium,minus,dotcolour,beta,,,25,18,V,R,
76,76,34,1,0,33,47,983,['n'],1,right,['2'],5,881,[-0.04180906],43,47,medium,minus,dotcolour,beta,,,25,18,V,R,
77,77,35,1,0,44,36,1583,['c'],1,left,['2'],5,532,[0.07091219],59,44,hard,minus,dotcolour,beta,,,25,18,V,R,
78,78,36,1,0,27,53,900,['n'],1,right,['2'],5,545,[-0.12733367],85,53,easy,minus,dotcolour,beta,,,25,18,V,R,
79,79,37,1,0,36,44,1467,['n'],1,right,['2'],5,247,[-0.1397432],95,44,hard,minus,dotcolour,beta,,,25,18,V,R,
80,80,38,1,0,53,27,1634,['n'],0,left,['3'],4,401,[-0.07062373],61,53,easy,minus,dotcolour,beta,,,25,18,V,R,
81,81,39,1,0,44,36,2283,['c'],1,left,['2'],5,315,[0.02750477],29,44,hard,minus,dotcolour,beta,,,25,18,V,R,
82,82,40,1,0,53,27,1482,['c'],1,left,['2'],5,562,[0.30330783],100,53,easy,minus,dotcolour,beta,,,25,18,V,R,
83,83,41,1,0,33,47,1385,['n'],1,right,['2'],5,530,[-0.09657594],73,47,medium,minus,dotcolour,beta,,,25,18,V,R,
84,84,0,2,0,33,47,1034,['n'],1,right,['2'],5,789,[-0.21828391],96,47,medium,minus,dotcolour,beta,,,25,18,V,R,
85,85,1,2,0,36,44,933,['n'],1,right,['2'],5,535,[-0.10561144],77,44,hard,minus,dotcolour,beta,,,25,18,V,R,
86,86,2,2,0,36,44,783,['n'],1,right,['2'],5,368,[-0.13880457],92,44,hard,minus,dotcolour,beta,,,25,18,V,R,
87,87,3,2,0,33,47,652,['n'],1,right,['2'],5,302,[-0.1562103],96,47,medium,minus,dotcolour,beta,,,25,18,V,R,
88,88,4,2,0,36,44,800,['n'],1,right,['2'],5,394,[-0.03346791],35,44,hard,minus,dotcolour,beta,,,25,18,V,R,
89,89,5,2,0,53,27,1300,['c'],1,left,['1'],6,508,[0.11064228],80,53,easy,minus,dotcolour,beta,,,25,18,V,R,
90,90,6,2,0,27,53,799,['n'],1,right,['2'],5,406,[-0.14953141],93,53,easy,minus,dotcolour,beta,,,25,18,V,R,
91,91,7,2,0,44,36,2151,['c'],1,left,['2'],5,445,[0.13319333],89,44,hard,minus,dotcolour,beta,,,25,18,V,R,
92,92,8,2,0,47,33,1418,['c'],1,left,['1'],6,449,[0.16419295],95,47,medium,minus,dotcolour,beta,,,25,18,V,R,
93,93,9,2,0,44,36,1567,['n'],0,left,['2'],5,310,[-0.09957398],81,44,hard,minus,dotcolour,beta,,,25,18,V,R,
94,94,10,2,0,53,27,832,['c'],1,left,['1'],6,448,[0.09187137],73,53,easy,minus,dotcolour,beta,,,25,18,V,R,
95,95,11,2,0,36,44,1018,['n'],1,right,['2'],5,228,[-0.13371948],95,44,hard,minus,dotcolour,beta,,,25,18,V,R,
96,96,12,2,0,33,47,1233,['n'],1,right,['1'],6,303,[-0.04778214],44,47,medium,minus,dotcolour,beta,,,25,18,V,R,
97,97,13,2,0,47,33,1752,['c'],1,left,['2'],5,372,[0.08673439],72,47,medium,minus,dotcolour,beta,,,25,18,V,R,
98,98,14,2,0,33,47,933,['n'],1,right,['1'],6,454,[0.0123181],14,47,medium,minus,dotcolour,beta,,,25,18,V,R,
99,99,15,2,0,44,36,3303,['n'],0,left,['3'],4,380,[0.04899697],5,44,hard,minus,dotcolour,beta,,,25,18,V,R,
100,100,16,2,0,53,27,1367,['c'],1,left,['2'],5,597,[0.13469487],86,53,easy,minus,dotcolour,beta,,,25,18,V,R,
101,101,17,2,0,53,27,1168,['c'],1,left,['2'],5,276,[-0.02200867],7,53,easy,minus,dotcolour,beta,,,25,18,V,R,
102,102,18,2,0,44,36,1434,['n'],0,left,['2'],5,622,[-0.06622296],56,44,hard,minus,dotcolour,beta,,,25,18,V,R,
103,103,19,2,0,44,36,1701,['n'],0,left,['2'],5,255,[0.00126077],12,44,hard,minus,dotcolour,beta,,,25,18,V,R,
104,104,20,2,0,44,36,1784,['n'],0,left,['2'],5,172,[0.04363343],1,44,hard,minus,dotcolour,beta,,,25,18,V,R,
105,105,21,2,0,44,36,1050,['c'],1,left,['2'],5,274,[0.18211143],99,44,hard,minus,dotcolour,beta,,,25,18,V,R,
106,106,22,2,0,47,33,734,['c'],1,left,['2'],5,313,[0.03454371],34,47,medium,minus,dotcolour,beta,,,25,18,V,R,
107,107,23,2,0,33,47,715,['n'],1,right,['2'],5,270,[-0.14131732],95,47,medium,minus,dotcolour,beta,,,25,18,V,R,
108,108,24,2,0,33,47,817,['n'],1,right,['2'],5,474,[-0.04904708],46,47,medium,minus,dotcolour,beta,,,25,18,V,R,
109,109,25,2,0,47,33,2051,['c'],1,left,['2'],5,610,[0.12175041],82,47,medium,minus,dotcolour,beta,,,25,18,V,R,
110,110,26,2,0,36,44,1300,['c'],0,right,['0'],1,2693,[0.05114829],49,44,hard,minus,dotcolour,beta,,,25,18,V,R,
111,111,27,2,0,27,53,1351,['n'],1,right,['2'],5,510,[-0.15031293],92,53,easy,minus,dotcolour,beta,,,25,18,V,R,
112,112,28,2,0,27,53,2768,['c'],0,right,['3'],4,1008,[0.01508368],33,53,easy,minus,dotcolour,beta,,,25,18,V,R,
113,113,29,2,0,53,27,949,['c'],1,left,['2'],5,383,[0.21430549],99,53,easy,minus,dotcolour,beta,,,25,18,V,R,
114,114,30,2,0,47,33,649,['c'],1,left,['2'],5,462,[0.20212757],98,47,medium,minus,dotcolour,beta,,,25,18,V,R,
115,115,31,2,0,27,53,1600,['n'],1,right,['2'],5,424,[-0.142788],92,53,easy,minus,dotcolour,beta,,,25,18,V,R,
116,116,32,2,0,27,53,1185,['n'],1,right,['2'],5,422,[-0.09989673],77,53,easy,minus,dotcolour,beta,,,25,18,V,R,
117,117,33,2,0,33,47,801,['n'],1,right,['1'],6,284,[-0.10775037],85,47,medium,minus,dotcolour,beta,,,25,18,V,R,
118,118,34,2,0,36,44,698,['n'],1,right,['1'],6,299,[-0.05271922],48,44,hard,minus,dotcolour,beta,,,25,18,V,R,
119,119,35,2,0,47,33,1167,['c'],1,left,['2'],5,423,[0.17135145],96,47,medium,minus,dotcolour,beta,,,25,18,V,R,
120,120,36,2,0,47,33,616,['c'],1,left,['1'],6,788,[0.23064029],97,47,medium,minus,dotcolour,beta,,,25,18,V,R,
121,121,37,2,0,36,44,966,['n'],1,right,['1'],6,276,[-0.12818887],92,44,hard,minus,dotcolour,beta,,,25,18,V,R,
122,122,38,2,0,27,53,750,['n'],1,right,['1'],6,201,[-0.07332999],67,53,easy,minus,dotcolour,beta,,,25,18,V,R,
123,123,39,2,0,53,27,784,['c'],1,left,['1'],6,314,[0.12715783],91,53,easy,minus,dotcolour,beta,,,25,18,V,R,
124,124,40,2,0,27,53,1135,['n'],1,right,['1'],6,270,[0.00144734],12,53,easy,minus,dotcolour,beta,,,25,18,V,R,
125,125,41,2,0,53,27,1234,['c'],1,left,['1'],6,513,[0.13900274],89,53,easy,minus,dotcolour,beta,,,25,18,V,R,
126,0,0,3,1,27,53,968,['n'],1,right,['1'],6,363,[-0.11450039],99,53,easy,plus,dotcolour,beta,,,25,18,V,R,
127,1,1,3,1,53,27,851,['c'],1,left,['1'],6,281,[0.16555653],100,53,easy,plus,dotcolour,beta,,,25,18,V,R,
128,2,2,3,1,53,27,667,['c'],1,left,['1'],6,227,[0.14409194],100,53,easy,plus,dotcolour,beta,,,25,18,V,R,
129,3,3,3,1,27,53,616,['n'],1,right,['1'],6,200,[-0.08085604],100,53,easy,plus,dotcolour,beta,,,25,18,V,R,
130,4,4,3,1,33,47,751,['n'],1,right,['1'],6,177,[-0.11800394],100,47,medium,plus,dotcolour,beta,,,25,18,V,R,
131,5,5,3,1,36,44,900,['n'],1,right,['1'],6,220,[-0.00831581],92,44,hard,plus,dotcolour,beta,,,25,18,V,R,
132,6,6,3,1,44,36,1784,['n'],0,left,['2'],5,235,[-0.04356526],98,44,hard,plus,dotcolour,beta,,,25,18,V,R,
133,7,7,3,1,44,36,1600,['c'],1,left,['3'],4,775,[0.09415563],96,44,hard,plus,dotcolour,beta,,,25,18,V,R,
134,8,8,3,1,36,44,1834,['n'],1,right,['3'],4,364,[-0.09943207],99,44,hard,plus,dotcolour,beta,,,25,18,V,R,
135,9,9,3,1,33,47,748,['n'],1,right,['2'],5,655,[-0.0430264],90,47,medium,plus,dotcolour,beta,,,25,18,V,R,
136,10,10,3,1,47,33,1017,['c'],1,left,['2'],5,458,[0.0891538],98,47,medium,plus,dotcolour,beta,,,25,18,V,R,
137,11,11,3,1,44,36,1168,['c'],1,left,['2'],5,223,[0.0739004],99,44,hard,plus,dotcolour,beta,,,25,18,V,R,
138,12,12,3,1,53,27,601,['c'],1,left,['2'],5,277,[0.0365374],96,53,easy,plus,dotcolour,beta,,,25,18,V,R,
139,13,13,3,1,47,33,1183,['n'],0,left,['2'],5,393,[-0.01912236],90,47,medium,plus,dotcolour,beta,,,25,18,V,R,
140,14,14,3,1,27,53,567,['n'],1,right,['1'],6,337,[-0.16036315],100,53,easy,plus,dotcolour,beta,,,25,18,V,R,
141,15,15,3,1,47,33,1735,['c'],1,left,['2'],5,837,[-0.04959957],53,47,medium,plus,dotcolour,beta,,,25,18,V,R,
142,16,16,3,1,36,44,1517,['n'],1,right,['3'],4,220,[-0.07466246],99,44,hard,plus,dotcolour,beta,,,25,18,V,R,
143,17,17,3,1,33,47,784,['n'],1,right,['1'],6,259,[-0.13173489],100,47,medium,plus,dotcolour,beta,,,25,18,V,R,
144,18,18,3,1,53,27,1119,['c'],1,left,['1'],6,386,[0.08024731],98,53,easy,plus,dotcolour,beta,,,25,18,V,R,
145,19,19,3,1,27,53,717,['n'],1,right,['1'],6,237,[-0.08494182],99,53,easy,plus,dotcolour,beta,,,25,18,V,R,
146,20,20,3,1,27,53,651,['n'],1,right,['1'],6,201,[-0.08691171],100,53,easy,plus,dotcolour,beta,,,25,18,V,R,
147,21,21,3,1,44,36,2352,['c'],1,left,['2'],5,201,[0.00244373],91,44,hard,plus,dotcolour,beta,,,25,18,V,R,
148,22,22,3,1,36,44,1301,['c'],0,right,['1'],6,348,[-0.02340815],73,44,hard,plus,dotcolour,beta,,,25,18,V,R,
149,23,23,3,1,44,36,1452,['n'],0,left,['3'],4,306,[-0.04272895],96,44,hard,plus,dotcolour,beta,,,25,18,V,R,
150,24,24,3,1,44,36,1369,['c'],1,left,['2'],5,342,[0.08395604],99,44,hard,plus,dotcolour,beta,,,25,18,V,R,
151,25,25,3,1,33,47,1134,['n'],1,right,['1'],6,217,[-0.09759152],100,47,medium,plus,dotcolour,beta,,,25,18,V,R,
152,26,26,3,1,33,47,800,['n'],1,right,['1'],6,248,[-0.08722628],99,47,medium,plus,dotcolour,beta,,,25,18,V,R,
153,27,27,3,1,36,44,2052,['c'],0,right,['3'],4,226,[0.09446664],100,44,hard,plus,dotcolour,beta,,,25,18,V,R,
154,28,28,3,1,44,36,2185,['c'],1,left,['3'],4,327,[0.08033495],99,44,hard,plus,dotcolour,beta,,,25,18,V,R,
155,29,29,3,1,47,33,1217,['n'],0,left,['2'],5,672,[-0.14434122],99,47,medium,plus,dotcolour,beta,,,25,18,V,R,
156,30,30,3,1,53,27,1249,['c'],1,left,['3'],4,216,[0.06641645],99,53,easy,plus,dotcolour,beta,,,25,18,V,R,
157,31,31,3,1,47,33,1850,['n'],0,left,['3'],4,284,[-0.01779963],92,47,medium,plus,dotcolour,beta,,,25,18,V,R,
158,32,32,3,1,53,27,1184,['c'],1,left,['2'],5,392,[0.07896492],98,53,easy,plus,dotcolour,beta,,,25,18,V,R,
159,33,33,3,1,33,47,752,['n'],1,right,['1'],6,241,[-0.17708093],100,47,medium,plus,dotcolour,beta,,,25,18,V,R,
160,34,34,3,1,53,27,1183,['c'],1,left,['1'],6,239,[0.12762185],100,53,easy,plus,dotcolour,beta,,,25,18,V,R,
161,35,35,3,1,33,47,917,['n'],1,right,['1'],6,151,[-0.02772311],98,47,medium,plus,dotcolour,beta,,,25,18,V,R,
162,36,36,3,1,47,33,1183,['c'],1,left,['1'],6,248,[0.11361544],100,47,medium,plus,dotcolour,beta,,,25,18,V,R,
163,37,37,3,1,27,53,649,['n'],1,right,['1'],6,195,[-0.01698697],95,53,easy,plus,dotcolour,beta,,,25,18,V,R,
164,38,38,3,1,36,44,2069,['c'],0,right,['3'],4,519,[0.04075872],92,44,hard,plus,dotcolour,beta,,,25,18,V,R,
165,39,39,3,1,47,33,2349,['n'],0,left,['3'],4,193,[-0.128643],100,47,medium,plus,dotcolour,beta,,,25,18,V,R,
166,40,40,3,1,27,53,850,['n'],1,right,['1'],6,199,[-0.09566813],100,53,easy,plus,dotcolour,beta,,,25,18,V,R,
167,41,41,3,1,36,44,566,['n'],1,right,['1'],6,199,[-0.09634007],100,44,hard,plus,dotcolour,beta,,,25,18,V,R,
168,42,0,4,1,47,33,1134,['c'],1,left,['1'],6,222,[0.06277905],99,47,medium,plus,dotcolour,beta,,,25,18,V,R,
169,43,1,4,1,36,44,633,['n'],1,right,['1'],6,228,[-0.02469379],95,44,hard,plus,dotcolour,beta,,,25,18,V,R,
170,44,2,4,1,53,27,1115,['c'],1,left,['1'],6,204,[0.08070129],100,53,easy,plus,dotcolour,beta,,,25,18,V,R,
171,45,3,4,1,44,36,1434,['c'],1,left,['1'],6,209,[0.10468687],100,44,hard,plus,dotcolour,beta,,,25,18,V,R,
172,46,4,4,1,33,47,849,['n'],1,right,['1'],6,229,[-0.02827404],96,47,medium,plus,dotcolour,beta,,,25,18,V,R,
173,47,5,4,1,33,47,916,['n'],1,right,['1'],6,190,[-0.09213789],100,47,medium,plus,dotcolour,beta,,,25,18,V,R,
174,48,6,4,1,33,47,1033,['n'],1,right,['1'],6,180,[-0.05228464],99,47,medium,plus,dotcolour,beta,,,25,18,V,R,
175,49,7,4,1,44,36,951,['c'],1,left,['1'],6,278,[0.16027738],100,44,hard,plus,dotcolour,beta,,,25,18,V,R,
176,50,8,4,1,36,44,849,['n'],1,right,['1'],6,207,[-0.06109982],99,44,hard,plus,dotcolour,beta,,,25,18,V,R,
177,51,9,4,1,33,47,800,['n'],1,right,['1'],6,126,[-0.07698174],100,47,medium,plus,dotcolour,beta,,,25,18,V,R,
178,52,10,4,1,27,53,634,['n'],1,right,['1'],6,135,[-0.13637773],100,53,easy,plus,dotcolour,beta,,,25,18,V,R,
179,53,11,4,1,36,44,732,['n'],1,right,['1'],6,131,[-0.14913129],100,44,hard,plus,dotcolour,beta,,,25,18,V,R,
180,54,12,4,1,36,44,784,['n'],1,right,['1'],6,190,[-0.04164592],98,44,hard,plus,dotcolour,beta,,,25,18,V,R,
181,55,13,4,1,47,33,1167,['c'],1,left,['1'],6,231,[0.16214552],100,47,medium,plus,dotcolour,beta,,,25,18,V,R,
182,56,14,4,1,44,36,1151,['c'],1,left,['1'],6,126,[0.06293087],100,44,hard,plus,dotcolour,beta,,,25,18,V,R,
183,57,15,4,1,27,53,766,['n'],1,right,['1'],6,153,[-0.09436229],100,53,easy,plus,dotcolour,beta,,,25,18,V,R,
184,58,16,4,1,36,44,1301,['n'],1,right,['2'],5,414,[-0.06334625],97,44,hard,plus,dotcolour,beta,,,25,18,V,R,
185,59,17,4,1,36,44,1050,['n'],1,right,['2'],5,250,[-0.0176386],93,44,hard,plus,dotcolour,beta,,,25,18,V,R,
186,60,18,4,1,27,53,832,['n'],1,right,['1'],6,525,[-0.17377811],100,53,easy,plus,dotcolour,beta,,,25,18,V,R,
187,61,19,4,1,47,33,1068,['c'],1,left,['2'],5,364,[0.1212671],99,47,medium,plus,dotcolour,beta,,,25,18,V,R,
188,62,20,4,1,53,27,666,['c'],1,left,['1'],6,217,[0.07995436],99,53,easy,plus,dotcolour,beta,,,25,18,V,R,
189,63,21,4,1,47,33,2017,['c'],1,left,['2'],5,94,[0.12064683],100,47,medium,plus,dotcolour,beta,,,25,18,V,R,
190,64,22,4,1,36,44,1801,['n'],1,right,['2'],5,161,[-0.0056157],94,44,hard,plus,dotcolour,beta,,,25,18,V,R,
191,65,23,4,1,33,47,866,['n'],1,right,['1'],6,390,[-0.23440728],100,47,medium,plus,dotcolour,beta,,,25,18,V,R,
192,66,24,4,1,33,47,800,['n'],1,right,['2'],5,165,[-0.05080066],99,47,medium,plus,dotcolour,beta,,,25,18,V,R,
193,67,25,4,1,33,47,734,['n'],1,right,['1'],6,168,[-0.11499019],100,47,medium,plus,dotcolour,beta,,,25,18,V,R,
194,68,26,4,1,47,33,1434,['c'],1,left,['2'],5,95,[0.04426858],100,47,medium,plus,dotcolour,beta,,,25,18,V,R,
195,69,27,4,1,44,36,1934,['c'],1,left,['3'],4,204,[-0.0011902],90,44,hard,plus,dotcolour,beta,,,25,18,V,R,
196,70,28,4,1,53,27,899,['c'],1,left,['1'],6,214,[0.12917745],100,53,easy,plus,dotcolour,beta,,,25,18,V,R,
197,71,29,4,1,44,36,1084,['c'],1,left,['2'],5,129,[0.07865876],100,44,hard,plus,dotcolour,beta,,,25,18,V,R,
198,72,30,4,1,53,27,918,['n'],0,left,['1'],6,182,[-0.0666577],99,53,easy,plus,dotcolour,beta,,,25,18,V,R,
199,73,31,4,1,53,27,783,['n'],0,left,['1'],6,255,[-0.05030387],98,53,easy,plus,dotcolour,beta,,,25,18,V,R,
200,74,32,4,1,53,27,731,['n'],0,left,['1'],6,182,[0.00133811],91,53,easy,plus,dotcolour,beta,,,25,18,V,R,
201,75,33,4,1,27,53,1184,['n'],1,right,['1'],6,791,[-0.22390129],100,53,easy,plus,dotcolour,beta,,,25,18,V,R,
202,76,34,4,1,53,27,833,['n'],0,left,['0'],1,1892,[0.15906109],21,53,easy,plus,dotcolour,beta,,,25,18,V,R,
203,77,35,4,1,27,53,1401,['n'],1,right,['1'],6,301,[-0.06167193],98,53,easy,plus,dotcolour,beta,,,25,18,V,R,
204,78,36,4,1,27,53,533,['n'],1,right,['1'],6,211,[-0.09606016],100,53,easy,plus,dotcolour,beta,,,25,18,V,R,
205,79,37,4,1,44,36,1416,['c'],1,left,['2'],5,471,[0.02040008],88,44,hard,plus,dotcolour,beta,,,25,18,V,R,
206,80,38,4,1,44,36,933,['c'],1,left,['1'],6,238,[0.03202336],96,44,hard,plus,dotcolour,beta,,,25,18,V,R,
207,81,39,4,1,47,33,1432,['c'],1,left,['2'],5,250,[0.14196751],100,47,medium,plus,dotcolour,beta,,,25,18,V,R,
208,82,40,4,1,47,33,1617,['n'],0,left,['2'],5,150,[-0.00795787],95,47,medium,plus,dotcolour,beta,,,25,18,V,R,
209,83,41,4,1,27,53,1666,['n'],1,right,['2'],5,147,[-0.12372282],100,53,easy,plus,dotcolour,beta,,,25,18,V,R,
210,84,0,5,1,36,44,2286,['n'],1,right,['2'],5,229,[-0.13395222],100,44,hard,plus,dotcolour,beta,,,25,18,V,R,
211,85,1,5,1,33,47,1584,['n'],1,right,['2'],5,147,[-0.15057901],100,47,medium,plus,dotcolour,beta,,,25,18,V,R,
212,86,2,5,1,27,53,1166,['n'],1,right,['1'],6,253,[-0.1222643],100,53,easy,plus,dotcolour,beta,,,25,18,V,R,
213,87,3,5,1,53,27,950,['c'],1,left,['1'],6,228,[0.10108796],100,53,easy,plus,dotcolour,beta,,,25,18,V,R,
214,88,4,5,1,36,44,1701,['c'],0,right,['2'],5,205,[0.01618526],95,44,hard,plus,dotcolour,beta,,,25,18,V,R,
215,89,5,5,1,44,36,1618,['c'],1,left,['2'],5,226,[0.02439636],95,44,hard,plus,dotcolour,beta,,,25,18,V,R,
216,90,6,5,1,47,33,951,['n'],0,left,['2'],5,258,[-0.02064748],94,47,medium,plus,dotcolour,beta,,,25,18,V,R,
217,91,7,5,1,53,27,1235,['c'],1,left,['2'],5,421,[0.1429869],100,53,easy,plus,dotcolour,beta,,,25,18,V,R,
218,92,8,5,1,33,47,985,['n'],1,right,['1'],6,299,[-0.06105747],98,47,medium,plus,dotcolour,beta,,,25,18,V,R,
219,93,9,5,1,36,44,1483,['c'],0,right,['2'],5,1186,[0.00017231],72,44,hard,plus,dotcolour,beta,,,25,18,V,R,
220,94,10,5,1,33,47,1966,['c'],0,right,['2'],5,457,[-0.09698488],25,47,medium,plus,dotcolour,beta,,,25,18,V,R,
221,95,11,5,1,53,27,1201,['c'],1,left,['2'],5,173,[0.11039028],100,53,easy,plus,dotcolour,beta,,,25,18,V,R,
222,96,12,5,1,33,47,1068,['n'],1,right,['1'],6,113,[-0.08907345],100,47,medium,plus,dotcolour,beta,,,25,18,V,R,
223,97,13,5,1,36,44,901,['n'],1,right,['1'],6,120,[-0.08112533],100,44,hard,plus,dotcolour,beta,,,25,18,V,R,
224,98,14,5,1,47,33,1017,['c'],1,left,['2'],5,194,[0.13098461],100,47,medium,plus,dotcolour,beta,,,25,18,V,R,
225,99,15,5,1,44,36,882,['n'],0,left,['2'],5,245,[-0.05464204],98,44,hard,plus,dotcolour,beta,,,25,18,V,R,
226,100,16,5,1,36,44,1435,['n'],1,right,['2'],5,120,[-0.04714541],100,44,hard,plus,dotcolour,beta,,,25,18,V,R,
227,101,17,5,1,53,27,767,['c'],1,left,['2'],5,243,[0.17200715],100,53,easy,plus,dotcolour,beta,,,25,18,V,R,
228,102,18,5,1,53,27,666,['c'],1,left,['2'],5,198,[0.0568634],99,53,easy,plus,dotcolour,beta,,,25,18,V,R,
229,103,19,5,1,27,53,1166,['n'],1,right,['1'],6,214,[-0.14339888],100,53,easy,plus,dotcolour,beta,,,25,18,V,R,
230,104,20,5,1,47,33,817,['c'],1,left,['2'],5,236,[0.12867134],100,47,medium,plus,dotcolour,beta,,,25,18,V,R,
231,105,21,5,1,27,53,902,['n'],1,right,['1'],6,118,[-0.09094467],100,53,easy,plus,dotcolour,beta,,,25,18,V,R,
232,106,22,5,1,44,36,1668,['c'],1,left,['1'],6,252,[0.0552902],98,44,hard,plus,dotcolour,beta,,,25,18,V,R,
233,107,23,5,1,33,47,600,['n'],1,right,['1'],6,314,[-0.12283333],100,47,medium,plus,dotcolour,beta,,,25,18,V,R,
234,108,24,5,1,44,36,1135,['c'],1,left,['1'],6,215,[0.07574657],99,44,hard,plus,dotcolour,beta,,,25,18,V,R,
235,109,25,5,1,47,33,1984,['c'],1,left,['2'],5,341,[0.11307866],99,47,medium,plus,dotcolour,beta,,,25,18,V,R,
236,110,26,5,1,36,44,634,['n'],1,right,['2'],5,237,[-0.14100999],100,44,hard,plus,dotcolour,beta,,,25,18,V,R,
237,111,27,5,1,27,53,551,['n'],1,right,['1'],6,285,[-0.06699898],98,53,easy,plus,dotcolour,beta,,,25,18,V,R,
238,112,28,5,1,44,36,1351,['c'],1,left,['2'],5,186,[0.00383615],92,44,hard,plus,dotcolour,beta,,,25,18,V,R,
239,113,29,5,1,47,33,1118,['n'],0,left,['1'],6,181,[0.01656637],84,47,medium,plus,dotcolour,beta,,,25,18,V,R,
240,114,30,5,1,44,36,949,['n'],0,left,['2'],5,150,[-0.1162567],100,44,hard,plus,dotcolour,beta,,,25,18,V,R,
241,115,31,5,1,47,33,916,['c'],1,left,['1'],6,507,[0.13456787],99,47,medium,plus,dotcolour,beta,,,25,18,V,R,
242,116,32,5,1,53,27,934,['c'],1,left,['1'],6,135,[0.09177134],100,53,easy,plus,dotcolour,beta,,,25,18,V,R,
243,117,33,5,1,47,33,2068,['n'],0,left,['2'],5,286,[-0.01551166],92,47,medium,plus,dotcolour,beta,,,25,18,V,R,
244,118,34,5,1,27,53,1500,['n'],1,right,['1'],6,84,[-0.05279916],100,53,easy,plus,dotcolour,beta,,,25,18,V,R,
245,119,35,5,1,33,47,1603,['n'],1,right,['2'],5,127,[-0.01345628],97,47,medium,plus,dotcolour,beta,,,25,18,V,R,
246,120,36,5,1,27,53,584,['n'],1,right,['1'],6,234,[-0.11741683],100,53,easy,plus,dotcolour,beta,,,25,18,V,R,
247,121,37,5,1,27,53,901,['n'],1,right,['1'],6,516,[-0.23266753],100,53,easy,plus,dotcolour,beta,,,25,18,V,R,
248,122,38,5,1,33,47,668,['n'],1,right,['1'],6,203,[-0.13101845],100,47,medium,plus,dotcolour,beta,,,25,18,V,R,
249,123,39,5,1,53,27,883,['c'],1,left,['1'],6,215,[0.129142],100,53,easy,plus,dotcolour,beta,,,25,18,V,R,
250,124,40,5,1,36,44,850,['n'],1,right,['1'],6,195,[-0.09707842],100,44,hard,plus,dotcolour,beta,,,25,18,V,R,
251,125,41,5,1,44,36,1100,['c'],1,left,['2'],5,422,[0.16070222],100,44,hard,plus,dotcolour,beta,,,25,18,V,R,
252,0,0,6,2,36,44,1284,['c'],0,right,['1'],6,172,[0.06864575],64,44,hard,minus,dotcolour,beta,,,25,18,V,R,
253,1,1,6,2,53,27,1483,['n'],0,left,['2'],5,105,[-0.06169812],58,53,easy,minus,dotcolour,beta,,,25,18,V,R,
254,2,2,6,2,53,27,1783,['n'],0,left,['2'],5,164,[-0.0017768],8,53,easy,minus,dotcolour,beta,,,25,18,V,R,
255,3,3,6,2,44,36,1734,['c'],1,left,['2'],5,222,[0.19708153],100,44,hard,minus,dotcolour,beta,,,25,18,V,R,
256,4,4,6,2,33,47,650,['n'],1,right,['1'],6,387,[-0.07125725],61,47,medium,minus,dotcolour,beta,,,25,18,V,R,
257,5,5,6,2,27,53,650,['n'],1,right,['1'],6,113,[-0.13801305],99,53,easy,minus,dotcolour,beta,,,25,18,V,R,
258,6,6,6,2,27,53,832,['n'],1,right,['1'],6,314,[-0.09609913],79,53,easy,minus,dotcolour,beta,,,25,18,V,R,
259,7,7,6,2,36,44,784,['n'],1,right,['2'],5,188,[-0.0988615],86,44,hard,minus,dotcolour,beta,,,25,18,V,R,
260,8,8,6,2,44,36,833,['n'],0,left,['2'],5,299,[-0.07381193],65,44,hard,minus,dotcolour,beta,,,25,18,V,R,
261,9,9,6,2,47,33,899,['c'],1,left,['1'],6,266,[0.14008442],95,47,medium,minus,dotcolour,beta,,,25,18,V,R,
262,10,10,6,2,36,44,1199,['n'],1,right,['1'],6,325,[-0.0473082],44,44,hard,minus,dotcolour,beta,,,25,18,V,R,
263,11,11,6,2,33,47,1100,['n'],1,right,['2'],5,123,[-0.08336888],81,47,medium,minus,dotcolour,beta,,,25,18,V,R,
264,12,12,6,2,53,27,2069,['c'],1,left,['2'],5,273,[0.17239357],98,53,easy,minus,dotcolour,beta,,,25,18,V,R,
265,13,13,6,2,36,44,751,['n'],1,right,['2'],5,135,[-0.02186967],16,44,hard,minus,dotcolour,beta,,,25,18,V,R,
266,14,14,6,2,47,33,999,['n'],0,left,['2'],5,161,[-0.0566956],51,47,medium,minus,dotcolour,beta,,,25,18,V,R,
267,15,15,6,2,47,33,1785,['n'],0,left,['2'],5,145,[-0.10755094],92,47,medium,minus,dotcolour,beta,,,25,18,V,R,
268,16,16,6,2,33,47,816,['n'],1,right,['2'],5,226,[-0.06136545],55,47,medium,minus,dotcolour,beta,,,25,18,V,R,
269,17,17,6,2,44,36,1414,['c'],1,left,['2'],5,230,[0.09137535],79,44,hard,minus,dotcolour,beta,,,25,18,V,R,
270,18,18,6,2,33,47,850,['n'],1,right,['2'],5,858,[-0.21848052],96,47,medium,minus,dotcolour,beta,,,25,18,V,R,
271,19,19,6,2,53,27,1001,['c'],1,left,['2'],5,262,[0.10752128],86,53,easy,minus,dotcolour,beta,,,25,18,V,R,
272,20,20,6,2,36,44,667,['n'],1,right,['1'],6,240,[0.02112484],6,44,hard,minus,dotcolour,beta,,,25,18,V,R,
273,21,21,6,2,44,36,1700,['n'],0,left,['2'],5,168,[-0.05725278],52,44,hard,minus,dotcolour,beta,,,25,18,V,R,
274,22,22,6,2,53,27,832,['n'],0,left,['2'],5,271,[0.00274043],12,53,easy,minus,dotcolour,beta,,,25,18,V,R,
275,23,23,6,2,47,33,1718,['n'],0,left,['2'],5,150,[-0.06687638],63,47,medium,minus,dotcolour,beta,,,25,18,V,R,
276,24,24,6,2,27,53,933,['n'],1,right,['1'],6,274,[-0.11900084],90,53,easy,minus,dotcolour,beta,,,25,18,V,R,
277,25,25,6,2,33,47,665,['n'],1,right,['1'],6,235,[-0.05074206],46,47,medium,minus,dotcolour,beta,,,25,18,V,R,
278,26,26,6,2,47,33,2553,['c'],1,left,['2'],5,425,[0.12735735],88,47,medium,minus,dotcolour,beta,,,25,18,V,R,
279,27,27,6,2,47,33,1718,['c'],1,left,['1'],6,321,[0.09601864],78,47,medium,minus,dotcolour,beta,,,25,18,V,R,
280,28,28,6,2,44,36,1600,['c'],1,left,['1'],6,666,[0.16955092],93,44,hard,minus,dotcolour,beta,,,25,18,V,R,
281,29,29,6,2,33,47,1685,['n'],1,right,['2'],5,201,[-0.09306702],82,47,medium,minus,dotcolour,beta,,,25,18,V,R,
282,30,30,6,2,27,53,1101,['n'],1,right,['1'],6,820,[-0.18678089],93,53,easy,minus,dotcolour,beta,,,25,18,V,R,
283,31,31,6,2,53,27,1884,['c'],1,left,['2'],5,437,[0.08623249],70,53,easy,minus,dotcolour,beta,,,25,18,V,R,
284,32,32,6,2,44,36,5438,['c'],1,left,['3'],4,565,[0.17033208],94,44,hard,minus,dotcolour,beta,,,25,18,V,R,
285,33,33,6,2,27,53,735,['n'],1,right,['2'],5,383,[-0.17263822],97,53,easy,minus,dotcolour,beta,,,25,18,V,R,
286,34,34,6,2,36,44,2551,['c'],0,right,['3'],4,583,[0.04025191],41,44,hard,minus,dotcolour,beta,,,25,18,V,R,
287,35,35,6,2,53,27,1051,['c'],1,left,['2'],5,260,[0.06933814],62,53,easy,minus,dotcolour,beta,,,25,18,V,R,
288,36,36,6,2,27,53,1350,['n'],1,right,['2'],5,1802,[-0.50154851],100,53,easy,minus,dotcolour,beta,,,25,18,V,R,
289,37,37,6,2,44,36,934,['n'],0,left,['2'],5,225,[-0.16020493],98,44,hard,minus,dotcolour,beta,,,25,18,V,R,
290,38,38,6,2,33,47,848,['n'],1,right,['1'],6,229,[-0.15521139],98,47,medium,minus,dotcolour,beta,,,25,18,V,R,
291,39,39,6,2,47,33,1184,['c'],1,left,['2'],5,484,[0.25424506],99,47,medium,minus,dotcolour,beta,,,25,18,V,R,
292,40,40,6,2,36,44,933,['n'],1,right,['2'],5,193,[0.03642813],2,44,hard,minus,dotcolour,beta,,,25,18,V,R,
293,41,41,6,2,27,53,899,['n'],1,right,['2'],5,172,[-0.0622963],57,53,easy,minus,dotcolour,beta,,,25,18,V,R,
294,42,0,7,2,33,47,900,['n'],1,right,['2'],5,184,[-0.0502732],44,47,medium,minus,dotcolour,beta,,,25,18,V,R,
295,43,1,7,2,27,53,567,['n'],1,right,['2'],5,273,[-0.0982206],81,53,easy,minus,dotcolour,beta,,,25,18,V,R,
296,44,2,7,2,33,47,715,['n'],1,right,['2'],5,232,[-0.01835693],20,47,medium,minus,dotcolour,beta,,,25,18,V,R,
297,45,3,7,2,27,53,1817,['c'],0,right,['3'],4,221,[0.10165376],85,53,easy,minus,dotcolour,beta,,,25,18,V,R,
298,46,4,7,2,36,44,616,['n'],1,right,['3'],4,307,[-0.05219831],47,44,hard,minus,dotcolour,beta,,,25,18,V,R,
299,47,5,7,2,27,53,582,['n'],1,right,['2'],5,182,[-0.12050383],94,53,easy,minus,dotcolour,beta,,,25,18,V,R,
300,48,6,7,2,36,44,549,['n'],1,right,['2'],5,231,[-0.12939275],94,44,hard,minus,dotcolour,beta,,,25,18,V,R,
301,49,7,7,2,33,47,549,['n'],1,right,['2'],5,207,[-0.07742105],70,47,medium,minus,dotcolour,beta,,,25,18,V,R,
302,50,8,7,2,33,47,1434,['n'],1,right,['1'],6,180,[-0.06967847],65,47,medium,minus,dotcolour,beta,,,25,18,V,R,
303,51,9,7,2,36,44,1418,['n'],1,right,['2'],5,243,[-0.03871926],35,44,hard,minus,dotcolour,beta,,,25,18,V,R,
304,52,10,7,2,47,33,1066,['c'],1,left,['2'],5,341,[0.06576698],58,47,medium,minus,dotcolour,beta,,,25,18,V,R,
305,53,11,7,2,47,33,750,['n'],0,left,['2'],5,224,[-0.07227286],65,47,medium,minus,dotcolour,beta,,,25,18,V,R,
306,54,12,7,2,53,27,733,['c'],1,left,['2'],5,257,[0.03639654],34,53,easy,minus,dotcolour,beta,,,25,18,V,R,
307,55,13,7,2,33,47,1201,['n'],1,right,['2'],5,789,[-0.23404966],97,47,medium,minus,dotcolour,beta,,,25,18,V,R,
308,56,14,7,2,47,33,967,['c'],1,left,['2'],5,229,[0.09360178],81,47,medium,minus,dotcolour,beta,,,25,18,V,R,
309,57,15,7,2,53,27,1133,['c'],1,left,['2'],5,293,[0.15824289],97,53,easy,minus,dotcolour,beta,,,25,18,V,R,
310,58,16,7,2,36,44,935,['n'],1,right,['2'],5,146,[-0.09771988],88,44,hard,minus,dotcolour,beta,,,25,18,V,R,
311,59,17,7,2,53,27,2235,['c'],1,left,['3'],4,537,[0.03592358],38,53,easy,minus,dotcolour,beta,,,25,18,V,R,
312,60,18,7,2,27,53,700,['n'],1,right,['2'],5,343,[-0.09638481],78,53,easy,minus,dotcolour,beta,,,25,18,V,R,
313,61,19,7,2,44,36,934,['c'],1,left,['2'],5,226,[0.05081926],46,44,hard,minus,dotcolour,beta,,,25,18,V,R,
314,62,20,7,2,44,36,750,['c'],1,left,['2'],5,434,[0.19800705],98,44,hard,minus,dotcolour,beta,,,25,18,V,R,
315,63,21,7,2,44,36,1717,['n'],0,left,['3'],4,226,[-0.09149899],80,44,hard,minus,dotcolour,beta,,,25,18,V,R,
316,64,22,7,2,47,33,1184,['c'],1,left,['2'],5,480,[0.14648626],91,47,medium,minus,dotcolour,beta,,,25,18,V,R,
317,65,23,7,2,33,47,733,['n'],1,right,['2'],5,206,[-0.15942735],98,47,medium,minus,dotcolour,beta,,,25,18,V,R,
318,66,24,7,2,36,44,1734,['n'],1,right,['3'],4,231,[-0.11478105],90,44,hard,minus,dotcolour,beta,,,25,18,V,R,
319,67,25,7,2,47,33,966,['n'],0,left,['2'],5,182,[-0.02105865],19,47,medium,minus,dotcolour,beta,,,25,18,V,R,
320,68,26,7,2,53,27,1418,['c'],1,left,['2'],5,437,[0.1726152],96,53,easy,minus,dotcolour,beta,,,25,18,V,R,
321,69,27,7,2,33,47,783,['n'],1,right,['2'],5,795,[-0.25073656],98,47,medium,minus,dotcolour,beta,,,25,18,V,R,
322,70,28,7,2,53,27,917,['c'],1,left,['1'],6,220,[0.14636839],97,53,easy,minus,dotcolour,beta,,,25,18,V,R,
323,71,29,7,2,53,27,1284,['c'],1,left,['2'],5,311,[0.08717504],74,53,easy,minus,dotcolour,beta,,,25,18,V,R,
324,72,30,7,2,36,44,1150,['n'],1,right,['1'],6,187,[-0.08928066],80,44,hard,minus,dotcolour,beta,,,25,18,V,R,
325,73,31,7,2,53,27,734,['c'],1,left,['1'],6,198,[0.10708068],89,53,easy,minus,dotcolour,beta,,,25,18,V,R,
326,74,32,7,2,44,36,1684,['n'],0,left,['2'],5,145,[-0.09222123],85,44,hard,minus,dotcolour,beta,,,25,18,V,R,
327,75,33,7,2,47,33,1652,['c'],1,left,['2'],5,159,[0.14407489],98,47,medium,minus,dotcolour,beta,,,25,18,V,R,
328,76,34,7,2,44,36,1419,['n'],0,left,['2'],5,190,[-0.00672089],12,44,hard,minus,dotcolour,beta,,,25,18,V,R,
329,77,35,7,2,27,53,734,['n'],1,right,['2'],5,200,[-0.13245427],96,53,easy,minus,dotcolour,beta,,,25,18,V,R,
330,78,36,7,2,44,36,2370,['n'],0,left,['3'],4,1104,[0.06521896],11,44,hard,minus,dotcolour,beta,,,25,18,V,R,
331,79,37,7,2,47,33,1618,['c'],1,left,['3'],4,224,[0.17663598],99,47,medium,minus,dotcolour,beta,,,25,18,V,R,
332,80,38,7,2,27,53,801,['n'],1,right,['3'],4,246,[-0.1290539],94,53,easy,minus,dotcolour,beta,,,25,18,V,R,
333,81,39,7,2,27,53,934,['n'],1,right,['2'],5,430,[-0.16326311],95,53,easy,minus,dotcolour,beta,,,25,18,V,R,
334,82,40,7,2,44,36,867,['c'],1,left,['2'],5,200,[0.06459471],59,44,hard,minus,dotcolour,beta,,,25,18,V,R,
335,83,41,7,2,36,44,665,['n'],1,right,['2'],5,213,[0.00925861],7,44,hard,minus,dotcolour,beta,,,25,18,V,R,
336,84,0,8,2,53,27,1268,['c'],1,left,['2'],5,197,[0.14096121],97,53,easy,minus,dotcolour,beta,,,25,18,V,R,
337,85,1,8,2,47,33,1784,['c'],1,left,['2'],5,260,[0.10104428],83,47,medium,minus,dotcolour,beta,,,25,18,V,R,
338,86,2,8,2,47,33,767,['c'],1,left,['1'],6,177,[0.07142407],66,47,medium,minus,dotcolour,beta,,,25,18,V,R,
339,87,3,8,2,53,27,718,['c'],1,left,['1'],6,252,[0.08026802],71,53,easy,minus,dotcolour,beta,,,25,18,V,R,
340,88,4,8,2,44,36,982,['n'],0,left,['2'],5,178,[-0.03286468],28,44,hard,minus,dotcolour,beta,,,25,18,V,R,
341,89,5,8,2,27,53,868,['n'],1,right,['1'],6,119,[-0.11232274],95,53,easy,minus,dotcolour,beta,,,25,18,V,R,
342,90,6,8,2,53,27,850,['c'],1,left,['1'],6,160,[0.08074379],76,53,easy,minus,dotcolour,beta,,,25,18,V,R,
343,91,7,8,2,27,53,833,['n'],1,right,['1'],6,143,[-0.13174904],97,53,easy,minus,dotcolour,beta,,,25,18,V,R,
344,92,8,8,2,33,47,516,['n'],1,right,['1'],6,171,[-0.10688685],90,47,medium,minus,dotcolour,beta,,,25,18,V,R,
345,93,9,8,2,53,27,1300,['c'],1,left,['1'],6,136,[0.06229504],58,53,easy,minus,dotcolour,beta,,,25,18,V,R,
346,94,10,8,2,47,33,1584,['n'],0,left,['2'],5,121,[-0.09490015],88,47,medium,minus,dotcolour,beta,,,25,18,V,R,
347,95,11,8,2,33,47,1116,['n'],1,right,['2'],5,206,[-0.11194983],90,47,medium,minus,dotcolour,beta,,,25,18,V,R,
348,96,12,8,2,47,33,1150,['c'],1,left,['1'],6,143,[0.09520765],87,47,medium,minus,dotcolour,beta,,,25,18,V,R,
349,97,13,8,2,47,33,817,['c'],1,left,['1'],6,144,[0.14776079],99,47,medium,minus,dotcolour,beta,,,25,18,V,R,
350,98,14,8,2,36,44,867,['n'],1,right,['2'],5,198,[-0.06423781],59,44,hard,minus,dotcolour,beta,,,25,18,V,R,
351,99,15,8,2,36,44,1366,['n'],1,right,['2'],5,86,[-0.0589593],55,44,hard,minus,dotcolour,beta,,,25,18,V,R,
352,100,16,8,2,53,27,816,['c'],1,left,['1'],6,144,[0.09662113],88,53,easy,minus,dotcolour,beta,,,25,18,V,R,
353,101,17,8,2,44,36,952,['n'],0,left,['2'],5,164,[-0.05417959],48,44,hard,minus,dotcolour,beta,,,25,18,V,R,
354,102,18,8,2,33,47,734,['n'],1,right,['2'],5,295,[-0.22269879],100,47,medium,minus,dotcolour,beta,,,25,18,V,R,
355,103,19,8,2,27,53,599,['n'],1,right,['1'],6,155,[-0.11057671],93,53,easy,minus,dotcolour,beta,,,25,18,V,R,
356,104,20,8,2,36,44,1350,['c'],0,right,['2'],5,61,[0.0666039],69,44,hard,minus,dotcolour,beta,,,25,18,V,R,
357,105,21,8,2,47,33,2116,['n'],0,left,['3'],4,155,[-0.08798499],81,47,medium,minus,dotcolour,beta,,,25,18,V,R,
358,106,22,8,2,33,47,951,['n'],1,right,['2'],5,103,[-0.06385009],61,47,medium,minus,dotcolour,beta,,,25,18,V,R,
359,107,23,8,2,44,36,934,['n'],0,left,['2'],5,100,[-0.06222147],59,44,hard,minus,dotcolour,beta,,,25,18,V,R,
360,108,24,8,2,36,44,1701,['n'],1,right,['2'],5,66,[-0.06969367],73,44,hard,minus,dotcolour,beta,,,25,18,V,R,
361,109,25,8,2,33,47,734,['n'],1,right,['2'],5,129,[-0.07989376],77,47,medium,minus,dotcolour,beta,,,25,18,V,R,
362,110,26,8,2,44,36,2002,['n'],0,left,['3'],4,186,[-0.10545798],89,44,hard,minus,dotcolour,beta,,,25,18,V,R,
363,111,27,8,2,44,36,1217,['c'],1,left,['2'],5,465,[0.11302749],82,44,hard,minus,dotcolour,beta,,,25,18,V,R,
364,112,28,8,2,27,53,618,['n'],1,right,['2'],5,269,[-0.13226736],93,53,easy,minus,dotcolour,beta,,,25,18,V,R,
365,113,29,8,2,27,53,633,['n'],1,right,['1'],6,128,[-0.07282145],70,53,easy,minus,dotcolour,beta,,,25,18,V,R,
366,114,30,8,2,36,44,582,['n'],1,right,['1'],6,171,[-0.07415777],69,44,hard,minus,dotcolour,beta,,,25,18,V,R,
367,115,31,8,2,33,47,533,['n'],1,right,['1'],6,197,[-0.11135304],91,47,medium,minus,dotcolour,beta,,,25,18,V,R,
368,116,32,8,2,53,27,984,['c'],1,left,['1'],6,141,[0.09825166],89,53,easy,minus,dotcolour,beta,,,25,18,V,R,
369,117,33,8,2,36,44,849,['n'],1,right,['2'],5,156,[-0.09062471],83,44,hard,minus,dotcolour,beta,,,25,18,V,R,
370,118,34,8,2,53,27,1134,['c'],1,left,['2'],5,168,[0.11916035],94,53,easy,minus,dotcolour,beta,,,25,18,V,R,
371,119,35,8,2,36,44,999,['n'],1,right,['2'],5,152,[-0.06759444],64,44,hard,minus,dotcolour,beta,,,25,18,V,R,
372,120,36,8,2,44,36,1484,['c'],1,left,['2'],5,45,[0.06799048],74,44,hard,minus,dotcolour,beta,,,25,18,V,R,
373,121,37,8,2,44,36,1702,['c'],1,left,['2'],5,54,[0.04575095],32,44,hard,minus,dotcolour,beta,,,25,18,V,R,
374,122,38,8,2,47,33,1918,['c'],1,left,['2'],5,397,[0.09537345],76,47,medium,minus,dotcolour,beta,,,25,18,V,R,
375,123,39,8,2,27,53,1133,['n'],1,right,['2'],5,831,[-0.13798945],84,53,easy,minus,dotcolour,beta,,,25,18,V,R,
376,124,40,8,2,33,47,849,['n'],1,right,['2'],5,122,[-0.06772437],65,47,medium,minus,dotcolour,beta,,,25,18,V,R,
377,125,41,8,2,27,53,900,['n'],1,right,['2'],5,304,[-0.14867246],95,53,easy,minus,dotcolour,beta,,,25,18,V,R,
378,0,0,9,3,47,33,1167,['c'],1,left,['2'],5,718,[0.24743943],100,47,medium,plus,dotcolour,beta,,,25,18,V,R,
379,1,1,9,3,53,27,1402,['n'],0,left,['2'],5,174,[-0.05917845],99,53,easy,plus,dotcolour,beta,,,25,18,V,R,
380,2,2,9,3,36,44,1351,['c'],0,right,['3'],4,159,[0.04555767],99,44,hard,plus,dotcolour,beta,,,25,18,V,R,
381,3,3,9,3,44,36,950,['c'],1,left,['3'],4,202,[0.10025873],100,44,hard,plus,dotcolour,beta,,,25,18,V,R,
382,4,4,9,3,33,47,934,['n'],1,right,['2'],5,131,[-0.09894254],100,47,medium,plus,dotcolour,beta,,,25,18,V,R,
383,5,5,9,3,27,53,532,['n'],1,right,['1'],6,96,[-0.11891436],100,53,easy,plus,dotcolour,beta,,,25,18,V,R,
384,6,6,9,3,36,44,931,['n'],1,right,['1'],6,109,[-0.1163247],100,44,hard,plus,dotcolour,beta,,,25,18,V,R,
385,7,7,9,3,47,33,916,['c'],1,left,['2'],5,275,[0.09340085],99,47,medium,plus,dotcolour,beta,,,25,18,V,R,
386,8,8,9,3,33,47,848,['n'],1,right,['2'],5,36,[-0.05286432],100,47,medium,plus,dotcolour,beta,,,25,18,V,R,
387,9,9,9,3,47,33,1085,['c'],1,left,['2'],5,111,[0.13564764],100,47,medium,plus,dotcolour,beta,,,25,18,V,R,
388,10,10,9,3,47,33,1267,['c'],1,left,['2'],5,31,[0.09920584],100,47,medium,plus,dotcolour,beta,,,25,18,V,R,
389,11,11,9,3,33,47,768,['n'],1,right,['2'],5,94,[-0.07177717],100,47,medium,plus,dotcolour,beta,,,25,18,V,R,
390,12,12,9,3,53,27,967,['c'],1,left,['2'],5,75,[0.05308729],100,53,easy,plus,dotcolour,beta,,,25,18,V,R,
391,13,13,9,3,44,36,933,['c'],1,left,['2'],5,8,[0.0782442],100,44,hard,plus,dotcolour,beta,,,25,18,V,R,
392,14,14,9,3,27,53,683,['n'],1,right,['2'],5,92,[-0.06880334],100,53,easy,plus,dotcolour,beta,,,25,18,V,R,
393,15,15,9,3,33,47,665,['n'],1,right,['2'],5,117,[-0.04975596],100,47,medium,plus,dotcolour,beta,,,25,18,V,R,
394,16,16,9,3,44,36,1451,['c'],1,left,['3'],4,101,[0.09094767],100,44,hard,plus,dotcolour,beta,,,25,18,V,R,
395,17,17,9,3,44,36,935,['c'],1,left,['2'],5,82,[0.07938578],100,44,hard,plus,dotcolour,beta,,,25,18,V,R,
396,18,18,9,3,36,44,1134,['n'],1,right,['2'],5,49,[-0.02915108],100,44,hard,plus,dotcolour,beta,,,25,18,V,R,
397,19,19,9,3,33,47,1167,['n'],1,right,['3'],4,327,[-0.11174648],99,47,medium,plus,dotcolour,beta,,,25,18,V,R,
398,20,20,9,3,33,47,1102,['n'],1,right,['2'],5,92,[-0.12564264],100,47,medium,plus,dotcolour,beta,,,25,18,V,R,
399,21,21,9,3,53,27,751,['c'],1,left,['3'],4,146,[0.06694748],100,53,easy,plus,dotcolour,beta,,,25,18,V,R,
400,22,22,9,3,36,44,934,['n'],1,right,['2'],5,157,[-0.07472193],100,44,hard,plus,dotcolour,beta,,,25,18,V,R,
401,23,23,9,3,53,27,1100,['c'],1,left,['2'],5,98,[0.09802746],100,53,easy,plus,dotcolour,beta,,,25,18,V,R,
402,24,24,9,3,53,27,3068,['c'],1,left,['3'],4,136,[0.07513642],100,53,easy,plus,dotcolour,beta,,,25,18,V,R,
403,25,25,9,3,44,36,1634,['c'],1,left,['2'],5,104,[0.09334953],100,44,hard,plus,dotcolour,beta,,,25,18,V,R,
404,26,26,9,3,27,53,966,['n'],1,right,['1'],6,196,[-0.05576694],99,53,easy,plus,dotcolour,beta,,,25,18,V,R,
405,27,27,9,3,44,36,2235,['c'],1,left,['3'],4,121,[0.11817957],100,44,hard,plus,dotcolour,beta,,,25,18,V,R,
406,28,28,9,3,27,53,850,['n'],1,right,['2'],5,80,[-0.09023817],100,53,easy,plus,dotcolour,beta,,,25,18,V,R,
407,29,29,9,3,27,53,498,['n'],1,right,['1'],6,81,[-0.07584402],100,53,easy,plus,dotcolour,beta,,,25,18,V,R,
408,30,30,9,3,36,44,1619,['c'],0,right,['2'],5,11,[0.07468744],100,44,hard,plus,dotcolour,beta,,,25,18,V,R,
409,31,31,9,3,27,53,851,['n'],1,right,['1'],6,56,[-0.08534254],100,53,easy,plus,dotcolour,beta,,,25,18,V,R,
410,32,32,9,3,36,44,2302,['c'],0,right,['2'],5,464,[-0.01438432],75,44,hard,plus,dotcolour,beta,,,25,18,V,R,
411,33,33,9,3,47,33,1051,['c'],1,left,['1'],6,66,[0.03713729],100,47,medium,plus,dotcolour,beta,,,25,18,V,R,
412,34,34,9,3,47,33,1265,['n'],0,left,['2'],5,68,[-0.02925669],100,47,medium,plus,dotcolour,beta,,,25,18,V,R,
413,35,35,9,3,33,47,900,['n'],1,right,['2'],5,235,[-0.04551913],98,47,medium,plus,dotcolour,beta,,,25,18,V,R,
414,36,36,9,3,47,33,901,['c'],1,left,['1'],6,165,[0.13721733],100,47,medium,plus,dotcolour,beta,,,25,18,V,R,
415,37,37,9,3,44,36,833,['n'],0,left,['2'],5,132,[-0.13298986],100,44,hard,plus,dotcolour,beta,,,25,18,V,R,
416,38,38,9,3,53,27,785,['n'],0,left,['1'],6,135,[-0.07032203],100,53,easy,plus,dotcolour,beta,,,25,18,V,R,
417,39,39,9,3,36,44,665,['n'],1,right,['1'],6,182,[-0.07619922],100,44,hard,plus,dotcolour,beta,,,25,18,V,R,
418,40,40,9,3,53,27,749,['c'],1,left,['1'],6,472,[0.10123585],98,53,easy,plus,dotcolour,beta,,,25,18,V,R,
419,41,41,9,3,27,53,1034,['n'],1,right,['1'],6,66,[-0.10971021],100,53,easy,plus,dotcolour,beta,,,25,18,V,R,
420,42,0,10,3,33,47,1051,['n'],1,right,['1'],6,20,[-0.0838618],100,47,medium,plus,dotcolour,beta,,,25,18,V,R,
421,43,1,10,3,36,44,750,['n'],1,right,['1'],6,85,[-0.10740248],100,44,hard,plus,dotcolour,beta,,,25,18,V,R,
422,44,2,10,3,53,27,1284,['c'],1,left,['2'],5,149,[0.08391246],100,53,easy,plus,dotcolour,beta,,,25,18,V,R,
423,45,3,10,3,44,36,1534,['c'],1,left,['2'],5,104,[0.04710598],100,44,hard,plus,dotcolour,beta,,,25,18,V,R,
424,46,4,10,3,36,44,1100,['n'],1,right,['2'],5,87,[-0.06164467],100,44,hard,plus,dotcolour,beta,,,25,18,V,R,
425,47,5,10,3,53,27,900,['c'],1,left,['1'],6,214,[0.04184818],98,53,easy,plus,dotcolour,beta,,,25,18,V,R,
426,48,6,10,3,53,27,716,['c'],1,left,['1'],6,56,[0.056125],100,53,easy,plus,dotcolour,beta,,,25,18,V,R,
427,49,7,10,3,27,53,1234,['n'],1,right,['1'],6,19,[-0.07705062],100,53,easy,plus,dotcolour,beta,,,25,18,V,R,
428,50,8,10,3,44,36,1502,['c'],1,left,['2'],5,5,[0.06895359],100,44,hard,plus,dotcolour,beta,,,25,18,V,R,
429,51,9,10,3,33,47,1248,['n'],1,right,['1'],6,33,[-0.06467791],100,47,medium,plus,dotcolour,beta,,,25,18,V,R,
430,52,10,10,3,44,36,3237,['n'],0,left,['3'],4,132,[-0.08422433],100,44,hard,plus,dotcolour,beta,,,25,18,V,R,
431,53,11,10,3,53,27,1586,['c'],1,left,['1'],6,62,[0.08627383],100,53,easy,plus,dotcolour,beta,,,25,18,V,R,
432,54,12,10,3,44,36,2118,['c'],1,left,['2'],5,60,[0.13323124],100,44,hard,plus,dotcolour,beta,,,25,18,V,R,
433,55,13,10,3,44,36,2051,['n'],0,left,['3'],4,78,[-0.03239447],100,44,hard,plus,dotcolour,beta,,,25,18,V,R,
434,56,14,10,3,27,53,918,['n'],1,right,['1'],6,29,[-0.06884802],100,53,easy,plus,dotcolour,beta,,,25,18,V,R,
435,57,15,10,3,27,53,783,['n'],1,right,['1'],6,68,[-0.08933872],100,53,easy,plus,dotcolour,beta,,,25,18,V,R,
436,58,16,10,3,33,47,800,['n'],1,right,['1'],6,272,[-0.00129461],88,47,medium,plus,dotcolour,beta,,,25,18,V,R,
437,59,17,10,3,27,53,649,['n'],1,right,['1'],6,59,[-0.07101502],100,53,easy,plus,dotcolour,beta,,,25,18,V,R,
438,60,18,10,3,53,27,1051,['c'],1,left,['1'],6,13,[0.07427807],100,53,easy,plus,dotcolour,beta,,,25,18,V,R,
439,61,19,10,3,36,44,1685,['c'],0,right,['2'],5,24,[0.10362763],100,44,hard,plus,dotcolour,beta,,,25,18,V,R,
440,62,20,10,3,27,53,783,['n'],1,right,['1'],6,15,[-0.07659975],100,53,easy,plus,dotcolour,beta,,,25,18,V,R,
441,63,21,10,3,33,47,1950,['c'],0,right,['2'],5,823,[-0.02488698],65,47,medium,plus,dotcolour,beta,,,25,18,V,R,
442,64,22,10,3,47,33,2002,['n'],0,left,['2'],5,683,[-0.13052718],98,47,medium,plus,dotcolour,beta,,,25,18,V,R,
443,65,23,10,3,36,44,1518,['c'],0,right,['2'],5,25,[0.06214781],100,44,hard,plus,dotcolour,beta,,,25,18,V,R,
444,66,24,10,3,44,36,1284,['c'],1,left,['2'],5,51,[0.06812296],100,44,hard,plus,dotcolour,beta,,,25,18,V,R,
445,67,25,10,3,47,33,1984,['c'],1,left,['2'],5,64,[0.08647308],100,47,medium,plus,dotcolour,beta,,,25,18,V,R,
446,68,26,10,3,47,33,1085,['c'],1,left,['2'],5,81,[0.13971229],100,47,medium,plus,dotcolour,beta,,,25,18,V,R,
447,69,27,10,3,33,47,1284,['n'],1,right,['1'],6,82,[-0.0459906],100,47,medium,plus,dotcolour,beta,,,25,18,V,R,
448,70,28,10,3,47,33,799,['c'],1,left,['2'],5,70,[0.07260565],100,47,medium,plus,dotcolour,beta,,,25,18,V,R,
449,71,29,10,3,47,33,1034,['c'],1,left,['2'],5,32,[0.06980243],100,47,medium,plus,dotcolour,beta,,,25,18,V,R,
450,72,30,10,3,27,53,784,['n'],1,right,['1'],6,31,[-0.09651114],100,53,easy,plus,dotcolour,beta,,,25,18,V,R,
451,73,31,10,3,33,47,1251,['n'],1,right,['1'],6,627,[-0.152212],99,47,medium,plus,dotcolour,beta,,,25,18,V,R,
452,74,32,10,3,53,27,1735,['c'],1,left,['2'],5,34,[0.07810698],100,53,easy,plus,dotcolour,beta,,,25,18,V,R,
453,75,33,10,3,47,33,716,['c'],1,left,['2'],5,115,[0.12467729],100,47,medium,plus,dotcolour,beta,,,25,18,V,R,
454,76,34,10,3,47,33,1135,['c'],1,left,['1'],6,64,[0.070632],100,47,medium,plus,dotcolour,beta,,,25,18,V,R,
455,77,35,10,3,27,53,817,['n'],1,right,['1'],6,44,[-0.09008257],100,53,easy,plus,dotcolour,beta,,,25,18,V,R,
456,78,36,10,3,44,36,1217,['c'],1,left,['1'],6,120,[0.0976837],100,44,hard,plus,dotcolour,beta,,,25,18,V,R,
457,79,37,10,3,36,44,1001,['n'],1,right,['1'],6,170,[-0.14069094],100,44,hard,plus,dotcolour,beta,,,25,18,V,R,
458,80,38,10,3,53,27,1434,['c'],1,left,['1'],6,25,[0.04932121],100,53,easy,plus,dotcolour,beta,,,25,18,V,R,
459,81,39,10,3,36,44,1835,['n'],1,right,['2'],5,406,[-0.1235905],99,44,hard,plus,dotcolour,beta,,,25,18,V,R,
460,82,40,10,3,36,44,1803,['c'],0,right,['1'],6,67,[0.04307103],100,44,hard,plus,dotcolour,beta,,,25,18,V,R,
461,83,41,10,3,33,47,735,['n'],1,right,['1'],6,90,[-0.06876347],100,47,medium,plus,dotcolour,beta,,,25,18,V,R,
462,84,0,11,3,27,53,1084,['n'],1,right,['1'],6,175,[-0.09977277],100,53,easy,plus,dotcolour,beta,,,25,18,V,R,
463,85,1,11,3,53,27,950,['c'],1,left,['2'],5,232,[0.10284457],100,53,easy,plus,dotcolour,beta,,,25,18,V,R,
464,86,2,11,3,44,36,1266,['c'],1,left,['3'],4,675,[0.08797165],96,44,hard,plus,dotcolour,beta,,,25,18,V,R,
465,87,3,11,3,53,27,1634,['c'],1,left,['2'],5,116,[0.06489393],100,53,easy,plus,dotcolour,beta,,,25,18,V,R,
466,88,4,11,3,33,47,1051,['n'],1,right,['1'],6,76,[-0.07809594],100,47,medium,plus,dotcolour,beta,,,25,18,V,R,
467,89,5,11,3,47,33,2520,['n'],0,left,['3'],4,146,[-0.08245143],100,47,medium,plus,dotcolour,beta,,,25,18,V,R,
468,90,6,11,3,44,36,1535,['n'],0,left,['3'],4,61,[-0.03990922],100,44,hard,plus,dotcolour,beta,,,25,18,V,R,
469,91,7,11,3,44,36,1467,['n'],0,left,['2'],5,71,[-0.01312843],99,44,hard,plus,dotcolour,beta,,,25,18,V,R,
470,92,8,11,3,27,53,1836,['n'],1,right,['2'],5,113,[-0.05493666],100,53,easy,plus,dotcolour,beta,,,25,18,V,R,
471,93,9,11,3,33,47,1182,['n'],1,right,['2'],5,163,[-0.12657711],100,47,medium,plus,dotcolour,beta,,,25,18,V,R,
472,94,10,11,3,27,53,681,['n'],1,right,['2'],5,128,[-0.0820055],100,53,easy,plus,dotcolour,beta,,,25,18,V,R,
473,95,11,11,3,44,36,1736,['n'],0,left,['3'],4,172,[-0.05950347],99,44,hard,plus,dotcolour,beta,,,25,18,V,R,
474,96,12,11,3,53,27,1032,['c'],1,left,['2'],5,75,[0.02540944],100,53,easy,plus,dotcolour,beta,,,25,18,V,R,
475,97,13,11,3,44,36,1116,['c'],1,left,['2'],5,50,[0.09725348],100,44,hard,plus,dotcolour,beta,,,25,18,V,R,
476,98,14,11,3,47,33,983,['n'],0,left,['1'],6,40,[-0.08103247],100,47,medium,plus,dotcolour,beta,,,25,18,V,R,
477,99,15,11,3,47,33,1001,['c'],1,left,['1'],6,102,[0.0401716],100,47,medium,plus,dotcolour,beta,,,25,18,V,R,
478,100,16,11,3,47,33,984,['n'],0,left,['2'],5,41,[-0.09666812],100,47,medium,plus,dotcolour,beta,,,25,18,V,R,
479,101,17,11,3,36,44,1285,['c'],0,right,['2'],5,67,[0.06367964],100,44,hard,plus,dotcolour,beta,,,25,18,V,R,
480,102,18,11,3,27,53,1167,['n'],1,right,['2'],5,49,[-0.10326972],100,53,easy,plus,dotcolour,beta,,,25,18,V,R,
481,103,19,11,3,33,47,950,['n'],1,right,['1'],6,776,[-0.30518836],100,47,medium,plus,dotcolour,beta,,,25,18,V,R,
482,104,20,11,3,47,33,1068,['n'],0,left,['2'],5,53,[-0.07825365],100,47,medium,plus,dotcolour,beta,,,25,18,V,R,
483,105,21,11,3,27,53,901,['n'],1,right,['2'],5,53,[-0.05197742],100,53,easy,plus,dotcolour,beta,,,25,18,V,R,
484,106,22,11,3,33,47,800,['n'],1,right,['2'],5,43,[-0.0500745],100,47,medium,plus,dotcolour,beta,,,25,18,V,R,
485,107,23,11,3,44,36,1118,['c'],1,left,['2'],5,50,[0.07708742],100,44,hard,plus,dotcolour,beta,,,25,18,V,R,
486,108,24,11,3,36,44,600,['n'],1,right,['1'],6,104,[-0.03938931],100,44,hard,plus,dotcolour,beta,,,25,18,V,R,
487,109,25,11,3,53,27,1217,['c'],1,left,['2'],5,90,[0.10862616],100,53,easy,plus,dotcolour,beta,,,25,18,V,R,
488,110,26,11,3,36,44,533,['n'],1,right,['1'],6,176,[-0.12428604],100,44,hard,plus,dotcolour,beta,,,25,18,V,R,
489,111,27,11,3,33,47,750,['n'],1,right,['1'],6,34,[-0.08329451],100,47,medium,plus,dotcolour,beta,,,25,18,V,R,
490,112,28,11,3,36,44,1000,['c'],0,right,['2'],5,72,[0.06940994],100,44,hard,plus,dotcolour,beta,,,25,18,V,R,
491,113,29,11,3,53,27,815,['n'],0,left,['1'],6,20,[-0.09112537],100,53,easy,plus,dotcolour,beta,,,25,18,V,R,
492,114,30,11,3,33,47,633,['n'],1,right,['1'],6,393,[-0.12982121],100,47,medium,plus,dotcolour,beta,,,25,18,V,R,
493,115,31,11,3,47,33,1034,['c'],1,left,['2'],5,71,[0.07276894],100,47,medium,plus,dotcolour,beta,,,25,18,V,R,
494,116,32,11,3,33,47,1100,['n'],1,right,['2'],5,63,[-0.07797263],100,47,medium,plus,dotcolour,beta,,,25,18,V,R,
495,117,33,11,3,44,36,1317,['c'],1,left,['1'],6,222,[0.06102627],99,44,hard,plus,dotcolour,beta,,,25,18,V,R,
496,118,34,11,3,27,53,916,['n'],1,right,['1'],6,40,[-0.09114132],100,53,easy,plus,dotcolour,beta,,,25,18,V,R,
497,119,35,11,3,53,27,751,['c'],1,left,['1'],6,80,[0.01843362],99,53,easy,plus,dotcolour,beta,,,25,18,V,R,
498,120,36,11,3,36,44,550,['n'],1,right,['1'],6,158,[-0.07600347],100,44,hard,plus,dotcolour,beta,,,25,18,V,R,
499,121,37,11,3,47,33,683,['c'],1,left,['1'],6,131,[0.10055772],100,47,medium,plus,dotcolour,beta,,,25,18,V,R,
500,122,38,11,3,27,53,1018,['n'],1,right,['1'],6,108,[-0.06367562],100,53,easy,plus,dotcolour,beta,,,25,18,V,R,
501,123,39,11,3,36,44,2250,['c'],0,right,['3'],4,116,[0.0867794],100,44,hard,plus,dotcolour,beta,,,25,18,V,R,
502,124,40,11,3,36,44,1251,['c'],0,right,['2'],5,84,[0.09584808],100,44,hard,plus,dotcolour,beta,,,25,18,V,R,
503,125,41,11,3,53,27,919,['c'],1,left,['2'],5,83,[0.11106954],100,53,easy,plus,dotcolour,beta,,,25,18,V,R,
504,0,0,12,4,44,36,918,['c'],1,left,['2'],5,268,[0.06594915],59,44,hard,minus,dotcolour,beta,,,25,18,V,R,
505,1,1,12,4,47,33,2235,['n'],0,left,['2'],5,118,[-0.08551434],83,47,medium,minus,dotcolour,beta,,,25,18,V,R,
506,2,2,12,4,36,44,1284,['n'],1,right,['2'],5,189,[-0.1104005],91,44,hard,minus,dotcolour,beta,,,25,18,V,R,
507,3,3,12,4,36,44,784,['n'],1,right,['1'],6,76,[-0.09899296],94,44,hard,minus,dotcolour,beta,,,25,18,V,R,
508,4,4,12,4,27,53,617,['n'],1,right,['1'],6,80,[-0.11884827],98,53,easy,minus,dotcolour,beta,,,25,18,V,R,
509,5,5,12,4,36,44,1285,['c'],0,right,['3'],4,48,[0.03661732],17,44,hard,minus,dotcolour,beta,,,25,18,V,R,
510,6,6,12,4,53,27,815,['n'],0,left,['1'],6,61,[-0.07852385],84,53,easy,minus,dotcolour,beta,,,25,18,V,R,
511,7,7,12,4,44,36,1133,['n'],0,left,['2'],5,3,[-0.07373242],100,44,hard,minus,dotcolour,beta,,,25,18,V,R,
512,8,8,12,4,44,36,1266,['n'],0,left,['2'],5,24,[-0.06074572],65,44,hard,minus,dotcolour,beta,,,25,18,V,R,
513,9,9,12,4,53,27,999,['n'],0,left,['1'],6,630,[0.06242453],6,53,easy,minus,dotcolour,beta,,,25,18,V,R,
514,10,10,12,4,53,27,833,['n'],0,left,['1'],6,66,[-0.04475948],32,53,easy,minus,dotcolour,beta,,,25,18,V,R,
515,11,11,12,4,27,53,1967,['n'],1,right,['2'],5,47,[-0.04542837],30,53,easy,minus,dotcolour,beta,,,25,18,V,R,
516,12,12,12,4,33,47,884,['n'],1,right,['1'],6,41,[-0.06372506],67,47,medium,minus,dotcolour,beta,,,25,18,V,R,
517,13,13,12,4,47,33,1634,['c'],1,left,['2'],5,77,[0.09386647],92,47,medium,minus,dotcolour,beta,,,25,18,V,R,
518,14,14,12,4,53,27,784,['c'],1,left,['2'],5,281,[0.10556791],85,53,easy,minus,dotcolour,beta,,,25,18,V,R,
519,15,15,12,4,27,53,1084,['n'],1,right,['2'],5,81,[-0.06691766],67,53,easy,minus,dotcolour,beta,,,25,18,V,R,
520,16,16,12,4,27,53,899,['n'],1,right,['1'],6,25,[-0.08148405],95,53,easy,minus,dotcolour,beta,,,25,18,V,R,
521,17,17,12,4,47,33,967,['c'],1,left,['2'],5,113,[0.0763926],75,47,medium,minus,dotcolour,beta,,,25,18,V,R,
522,18,18,12,4,47,33,902,['n'],0,left,['1'],6,40,[-0.06111238],62,47,medium,minus,dotcolour,beta,,,25,18,V,R,
523,19,19,12,4,33,47,1202,['n'],1,right,['2'],5,52,[-0.11762276],99,47,medium,minus,dotcolour,beta,,,25,18,V,R,
524,20,20,12,4,36,44,833,['n'],1,right,['2'],5,120,[-0.10837427],94,44,hard,minus,dotcolour,beta,,,25,18,V,R,
525,21,21,12,4,44,36,1017,['n'],0,left,['1'],6,89,[-0.06467795],63,44,hard,minus,dotcolour,beta,,,25,18,V,R,
526,22,22,12,4,27,53,632,['n'],1,right,['1'],6,84,[-0.0882229],88,53,easy,minus,dotcolour,beta,,,25,18,V,R,
527,23,23,12,4,36,44,699,['n'],1,right,['2'],5,124,[-0.07320866],71,44,hard,minus,dotcolour,beta,,,25,18,V,R,
528,24,24,12,4,33,47,1600,['c'],0,right,['2'],5,61,[0.06141608],61,47,medium,minus,dotcolour,beta,,,25,18,V,R,
529,25,25,12,4,47,33,1218,['c'],1,left,['2'],5,120,[0.06685384],64,47,medium,minus,dotcolour,beta,,,25,18,V,R,
530,26,26,12,4,33,47,816,['n'],1,right,['1'],6,42,[-0.04485582],28,47,medium,minus,dotcolour,beta,,,25,18,V,R,
531,27,27,12,4,44,36,935,['c'],1,left,['2'],5,90,[0.10602002],95,44,hard,minus,dotcolour,beta,,,25,18,V,R,
532,28,28,12,4,27,53,583,['n'],1,right,['2'],5,167,[-0.0852977],79,53,easy,minus,dotcolour,beta,,,25,18,V,R,
533,29,29,12,4,33,47,550,['n'],1,right,['1'],6,362,[-0.12476934],89,47,medium,minus,dotcolour,beta,,,25,18,V,R,
534,30,30,12,4,36,44,900,['n'],1,right,['2'],5,94,[-0.07215957],73,44,hard,minus,dotcolour,beta,,,25,18,V,R,
535,31,31,12,4,44,36,1135,['c'],1,left,['1'],6,123,[0.0757226],74,44,hard,minus,dotcolour,beta,,,25,18,V,R,
536,32,32,12,4,33,47,783,['n'],1,right,['1'],6,95,[-0.07346535],74,47,medium,minus,dotcolour,beta,,,25,18,V,R,
537,33,33,12,4,53,27,1201,['c'],1,left,['1'],6,81,[0.0510861],43,53,easy,minus,dotcolour,beta,,,25,18,V,R,
538,34,34,12,4,44,36,1252,['c'],1,left,['2'],5,115,[0.07466701],73,44,hard,minus,dotcolour,beta,,,25,18,V,R,
539,35,35,12,4,47,33,1852,['n'],0,left,['3'],4,123,[-0.046947],39,47,medium,minus,dotcolour,beta,,,25,18,V,R,
540,36,36,12,4,33,47,735,['n'],1,right,['2'],5,112,[-0.08801032],85,47,medium,minus,dotcolour,beta,,,25,18,V,R,
541,37,37,12,4,27,53,599,['n'],1,right,['1'],6,210,[-0.02820378],25,53,easy,minus,dotcolour,beta,,,25,18,V,R,
542,38,38,12,4,53,27,1150,['c'],1,left,['2'],5,67,[0.08692274],90,53,easy,minus,dotcolour,beta,,,25,18,V,R,
543,39,39,12,4,36,44,1599,['c'],0,right,['2'],5,94,[0.04254867],32,44,hard,minus,dotcolour,beta,,,25,18,V,R,
544,40,40,12,4,53,27,934,['c'],1,left,['2'],5,68,[0.1025123],96,53,easy,minus,dotcolour,beta,,,25,18,V,R,
545,41,41,12,4,47,33,1085,['c'],1,left,['2'],5,101,[0.06250821],60,47,medium,minus,dotcolour,beta,,,25,18,V,R,
546,42,0,13,4,44,36,1902,['c'],1,left,['1'],6,374,[0.14938894],94,44,hard,minus,dotcolour,beta,,,25,18,V,R,
547,43,1,13,4,44,36,2016,['n'],0,left,['2'],5,123,[-0.05964432],55,44,hard,minus,dotcolour,beta,,,25,18,V,R,
548,44,2,13,4,44,36,1936,['n'],0,left,['2'],5,136,[-0.09029721],84,44,hard,minus,dotcolour,beta,,,25,18,V,R,
549,45,3,13,4,47,33,767,['c'],1,left,['2'],5,83,[0.08521379],86,47,medium,minus,dotcolour,beta,,,25,18,V,R,
550,46,4,13,4,44,36,1884,['n'],0,left,['2'],5,59,[-0.07526784],81,44,hard,minus,dotcolour,beta,,,25,18,V,R,
551,47,5,13,4,47,33,2185,['c'],1,left,['3'],4,615,[0.1098497],78,47,medium,minus,dotcolour,beta,,,25,18,V,R,
552,48,6,13,4,53,27,1150,['c'],1,left,['2'],5,62,[0.08702036],91,53,easy,minus,dotcolour,beta,,,25,18,V,R,
553,49,7,13,4,36,44,866,['n'],1,right,['2'],5,104,[-0.08772024],86,44,hard,minus,dotcolour,beta,,,25,18,V,R,
554,50,8,13,4,33,47,583,['n'],1,right,['2'],5,140,[-0.09357057],86,47,medium,minus,dotcolour,beta,,,25,18,V,R,
555,51,9,13,4,27,53,565,['n'],1,right,['2'],5,135,[-0.10739818],93,53,easy,minus,dotcolour,beta,,,25,18,V,R,
556,52,10,13,4,44,36,850,['c'],1,left,['2'],5,135,[0.11405316],95,44,hard,minus,dotcolour,beta,,,25,18,V,R,
557,53,11,13,4,33,47,701,['n'],1,right,['1'],6,85,[-0.10823293],96,47,medium,minus,dotcolour,beta,,,25,18,V,R,
558,54,12,13,4,36,44,667,['n'],1,right,['1'],6,142,[-0.06722396],64,44,hard,minus,dotcolour,beta,,,25,18,V,R,
559,55,13,13,4,27,53,483,['n'],1,right,['2'],5,141,[-0.06841523],65,53,easy,minus,dotcolour,beta,,,25,18,V,R,
560,56,14,13,4,36,44,566,['n'],1,right,['2'],5,95,[-0.13326642],99,44,hard,minus,dotcolour,beta,,,25,18,V,R,
561,57,15,13,4,27,53,684,['n'],1,right,['1'],6,207,[-0.0786622],71,53,easy,minus,dotcolour,beta,,,25,18,V,R,
562,58,16,13,4,27,53,551,['n'],1,right,['1'],6,104,[-0.07060168],70,53,easy,minus,dotcolour,beta,,,25,18,V,R,
563,59,17,13,4,44,36,2469,['n'],0,left,['3'],4,95,[-0.05090083],43,44,hard,minus,dotcolour,beta,,,25,18,V,R,
564,60,18,13,4,53,27,1267,['c'],1,left,['1'],6,47,[0.11387013],99,53,easy,minus,dotcolour,beta,,,25,18,V,R,
565,61,19,13,4,44,36,1901,['c'],1,left,['2'],5,80,[0.0766452],79,44,hard,minus,dotcolour,beta,,,25,18,V,R,
566,62,20,13,4,53,27,1050,['c'],1,left,['2'],5,81,[0.08940424],89,53,easy,minus,dotcolour,beta,,,25,18,V,R,
567,63,21,13,4,27,53,818,['n'],1,right,['2'],5,28,[-0.06554594],75,53,easy,minus,dotcolour,beta,,,25,18,V,R,
568,64,22,13,4,53,27,1418,['c'],1,left,['2'],5,73,[0.08780802],90,53,easy,minus,dotcolour,beta,,,25,18,V,R,
569,65,23,13,4,36,44,1100,['n'],1,right,['2'],5,57,[-0.06351289],65,44,hard,minus,dotcolour,beta,,,25,18,V,R,
570,66,24,13,4,47,33,1134,['c'],1,left,['2'],5,97,[0.10200719],94,47,medium,minus,dotcolour,beta,,,25,18,V,R,
571,67,25,13,4,53,27,1050,['c'],1,left,['2'],5,66,[0.0876223],90,53,easy,minus,dotcolour,beta,,,25,18,V,R,
572,68,26,13,4,33,47,1000,['n'],1,right,['1'],6,230,[-0.11508516],90,47,medium,minus,dotcolour,beta,,,25,18,V,R,
573,69,27,13,4,33,47,884,['n'],1,right,['2'],5,97,[-0.07071295],71,47,medium,minus,dotcolour,beta,,,25,18,V,R,
574,70,28,13,4,33,47,749,['n'],1,right,['2'],5,182,[-0.12634465],95,47,medium,minus,dotcolour,beta,,,25,18,V,R,
575,71,29,13,4,27,53,618,['n'],1,right,['2'],5,93,[-0.08173737],82,53,easy,minus,dotcolour,beta,,,25,18,V,R,
576,72,30,13,4,36,44,567,['n'],1,right,['2'],5,82,[-0.05677794],52,44,hard,minus,dotcolour,beta,,,25,18,V,R,
577,73,31,13,4,53,27,916,['c'],1,left,['1'],6,81,[0.10846699],97,53,easy,minus,dotcolour,beta,,,25,18,V,R,
578,74,32,13,4,53,27,882,['c'],1,left,['1'],6,50,[0.05957164],58,53,easy,minus,dotcolour,beta,,,25,18,V,R,
579,75,33,13,4,33,47,1035,['n'],1,right,['1'],6,149,[-0.0954294],87,47,medium,minus,dotcolour,beta,,,25,18,V,R,
580,76,34,13,4,27,53,818,['n'],1,right,['1'],6,78,[-0.09143571],91,53,easy,minus,dotcolour,beta,,,25,18,V,R,
581,77,35,13,4,47,33,918,['c'],1,left,['2'],5,29,[0.08925518],97,47,medium,minus,dotcolour,beta,,,25,18,V,R,
582,78,36,13,4,33,47,2185,['n'],1,right,['1'],6,66,[-0.08632398],90,47,medium,minus,dotcolour,beta,,,25,18,V,R,
583,79,37,13,4,36,44,633,['n'],1,right,['2'],5,286,[-0.13087265],93,44,hard,minus,dotcolour,beta,,,25,18,V,R,
584,80,38,13,4,47,33,1351,['c'],1,left,['2'],5,67,[0.07519175],80,47,medium,minus,dotcolour,beta,,,25,18,V,R,
585,81,39,13,4,47,33,1750,['n'],0,left,['2'],5,9,[-0.06794433],91,47,medium,minus,dotcolour,beta,,,25,18,V,R,
586,82,40,13,4,47,33,934,['c'],1,left,['2'],5,26,[0.06616995],77,47,medium,minus,dotcolour,beta,,,25,18,V,R,
587,83,41,13,4,36,44,1800,['n'],1,right,['2'],5,167,[-0.05144602],45,44,hard,minus,dotcolour,beta,,,25,18,V,R,
588,84,0,14,4,33,47,934,['n'],1,right,['2'],5,24,[-0.05809749],57,47,medium,minus,dotcolour,beta,,,25,18,V,R,
589,85,1,14,4,53,27,766,['c'],1,left,['2'],5,89,[0.01665053],9,53,easy,minus,dotcolour,beta,,,25,18,V,R,
590,86,2,14,4,53,27,1950,['n'],0,left,['2'],5,173,[0.00290898],7,53,easy,minus,dotcolour,beta,,,25,18,V,R,
591,87,3,14,4,47,33,684,['c'],1,left,['2'],5,97,[0.09024111],88,47,medium,minus,dotcolour,beta,,,25,18,V,R,
592,88,4,14,4,33,47,799,['c'],0,right,['2'],5,124,[0.0552154],50,47,medium,minus,dotcolour,beta,,,25,18,V,R,
593,89,5,14,4,47,33,2435,['n'],0,left,['3'],4,108,[-0.07644307],76,47,medium,minus,dotcolour,beta,,,25,18,V,R,
594,90,6,14,4,47,33,1267,['c'],1,left,['2'],5,476,[0.10587],79,47,medium,minus,dotcolour,beta,,,25,18,V,R,
595,91,7,14,4,27,53,966,['n'],1,right,['3'],4,152,[-0.07020959],66,53,easy,minus,dotcolour,beta,,,25,18,V,R,
596,92,8,14,4,47,33,1868,['n'],0,left,['2'],5,134,[-0.05318309],47,47,medium,minus,dotcolour,beta,,,25,18,V,R,
597,93,9,14,4,27,53,750,['n'],1,right,['2'],5,210,[-0.06048745],55,53,easy,minus,dotcolour,beta,,,25,18,V,R,
598,94,10,14,4,47,33,1366,['c'],1,left,['3'],4,417,[0.04989289],46,47,medium,minus,dotcolour,beta,,,25,18,V,R,
599,95,11,14,4,44,36,1618,['n'],0,left,['3'],4,189,[-0.02249903],20,44,hard,minus,dotcolour,beta,,,25,18,V,R,
600,96,12,14,4,44,36,1368,['c'],1,left,['2'],5,117,[0.08424002],82,44,hard,minus,dotcolour,beta,,,25,18,V,R,
601,97,13,14,4,44,36,1801,['c'],1,left,['3'],4,71,[0.07376181],77,44,hard,minus,dotcolour,beta,,,25,18,V,R,
602,98,14,14,4,36,44,1367,['n'],1,right,['2'],5,85,[-0.07572339],78,44,hard,minus,dotcolour,beta,,,25,18,V,R,
603,99,15,14,4,33,47,650,['n'],1,right,['2'],5,102,[-0.09722099],91,47,medium,minus,dotcolour,beta,,,25,18,V,R,
604,100,16,14,4,27,53,583,['n'],1,right,['2'],5,90,[-0.11450212],97,53,easy,minus,dotcolour,beta,,,25,18,V,R,
605,101,17,14,4,27,53,565,['n'],1,right,['1'],6,128,[-0.11029145],94,53,easy,minus,dotcolour,beta,,,25,18,V,R,
606,102,18,14,4,44,36,951,['c'],1,left,['2'],5,84,[0.09923199],94,44,hard,minus,dotcolour,beta,,,25,18,V,R,
607,103,19,14,4,44,36,1266,['c'],1,left,['3'],4,108,[0.10573226],94,44,hard,minus,dotcolour,beta,,,25,18,V,R,
608,104,20,14,4,47,33,1066,['c'],1,left,['2'],5,284,[0.15375468],97,47,medium,minus,dotcolour,beta,,,25,18,V,R,
609,105,21,14,4,44,36,2468,['c'],1,left,['2'],5,2732,[0.05917815],51,44,hard,minus,dotcolour,beta,,,25,18,V,R,
610,106,22,14,4,36,44,1185,['n'],1,right,['2'],5,91,[-0.07275331],74,44,hard,minus,dotcolour,beta,,,25,18,V,R,
611,107,23,14,4,53,27,1017,['c'],1,left,['2'],5,110,[0.09763618],91,53,easy,minus,dotcolour,beta,,,25,18,V,R,
612,108,24,14,4,27,53,701,['n'],1,right,['2'],5,100,[-0.14349525],99,53,easy,minus,dotcolour,beta,,,25,18,V,R,
613,109,25,14,4,33,47,784,['n'],1,right,['2'],5,64,[-0.04905871],39,47,medium,minus,dotcolour,beta,,,25,18,V,R,
614,110,26,14,4,33,47,865,['n'],1,right,['2'],5,90,[-0.11633711],97,47,medium,minus,dotcolour,beta,,,25,18,V,R,
615,111,27,14,4,33,47,699,['n'],1,right,['1'],6,553,[-0.14957984],91,47,medium,minus,dotcolour,beta,,,25,18,V,R,
616,112,28,14,4,36,44,1667,['c'],0,right,['3'],4,71,[0.08365842],87,44,hard,minus,dotcolour,beta,,,25,18,V,R,
617,113,29,14,4,53,27,981,['c'],1,left,['2'],5,132,[0.11612008],95,53,easy,minus,dotcolour,beta,,,25,18,V,R,
618,114,30,14,4,47,33,1083,['c'],1,left,['1'],6,322,[0.12879969],91,47,medium,minus,dotcolour,beta,,,25,18,V,R,
619,115,31,14,4,27,53,950,['n'],1,right,['1'],6,134,[-0.11271571],94,53,easy,minus,dotcolour,beta,,,25,18,V,R,
620,116,32,14,4,36,44,966,['c'],0,right,['2'],5,145,[-0.00389861],6,44,hard,minus,dotcolour,beta,,,25,18,V,R,
621,117,33,14,4,36,44,1184,['c'],0,right,['3'],4,83,[0.07125375],73,44,hard,minus,dotcolour,beta,,,25,18,V,R,
622,118,34,14,4,53,27,1282,['n'],0,left,['2'],5,211,[-0.10920053],89,53,easy,minus,dotcolour,beta,,,25,18,V,R,
623,119,35,14,4,33,47,716,['n'],1,right,['2'],5,157,[-0.1007932],89,47,medium,minus,dotcolour,beta,,,25,18,V,R,
624,120,36,14,4,53,27,1283,['c'],1,left,['2'],5,345,[0.12854886],90,53,easy,minus,dotcolour,beta,,,25,18,V,R,
625,121,37,14,4,36,44,1099,['n'],1,right,['2'],5,86,[-0.10192421],95,44,hard,minus,dotcolour,beta,,,25,18,V,R,
626,122,38,14,4,36,44,701,['n'],1,right,['3'],4,327,[-0.08221687],70,44,hard,minus,dotcolour,beta,,,25,18,V,R,
627,123,39,14,4,44,36,948,['n'],0,left,['2'],5,202,[-0.05890799],53,44,hard,minus,dotcolour,beta,,,25,18,V,R,
628,124,40,14,4,27,53,683,['n'],1,right,['2'],5,142,[-0.0697854],66,53,easy,minus,dotcolour,beta,,,25,18,V,R,
629,125,41,14,4,53,27,1218,['c'],1,left,['2'],5,421,[0.07100273],61,53,easy,minus,dotcolour,beta,,,25,18,V,R,
630,0,0,15,5,33,47,1535,['n'],1,right,['1'],6,149,[-0.0473595],99,47,medium,plus,dotcolour,beta,,,25,18,V,R,
631,1,1,15,5,47,33,1034,['c'],1,left,['2'],5,149,[0.09422092],100,47,medium,plus,dotcolour,beta,,,25,18,V,R,
632,2,2,15,5,53,27,1100,['c'],1,left,['1'],6,434,[0.12889732],99,53,easy,plus,dotcolour,beta,,,25,18,V,R,
633,3,3,15,5,36,44,883,['n'],1,right,['1'],6,132,[-0.05018244],99,44,hard,plus,dotcolour,beta,,,25,18,V,R,
634,4,4,15,5,53,27,734,['c'],1,left,['1'],6,289,[0.08771491],99,53,easy,plus,dotcolour,beta,,,25,18,V,R,
635,5,5,15,5,36,44,669,['n'],1,right,['1'],6,105,[-0.10096886],100,44,hard,plus,dotcolour,beta,,,25,18,V,R,
636,6,6,15,5,44,36,933,['c'],1,left,['3'],4,431,[0.0884893],98,44,hard,plus,dotcolour,beta,,,25,18,V,R,
637,7,7,15,5,53,27,849,['c'],1,left,['2'],5,91,[0.06296482],100,53,easy,plus,dotcolour,beta,,,25,18,V,R,
638,8,8,15,5,44,36,1567,['n'],0,left,['2'],5,30,[-0.05231279],100,44,hard,plus,dotcolour,beta,,,25,18,V,R,
639,9,9,15,5,47,33,800,['c'],1,left,['2'],5,100,[0.08455363],100,47,medium,plus,dotcolour,beta,,,25,18,V,R,
640,10,10,15,5,33,47,786,['n'],1,right,['2'],5,8,[-0.07274988],100,47,medium,plus,dotcolour,beta,,,25,18,V,R,
641,11,11,15,5,33,47,818,['n'],1,right,['2'],5,110,[-0.08179812],100,47,medium,plus,dotcolour,beta,,,25,18,V,R,
642,12,12,15,5,27,53,884,['n'],1,right,['2'],5,45,[-0.09743722],100,53,easy,plus,dotcolour,beta,,,25,18,V,R,
643,13,13,15,5,47,33,1701,['c'],1,left,['3'],4,222,[0.09519576],100,47,medium,plus,dotcolour,beta,,,25,18,V,R,
644,14,14,15,5,33,47,1519,['n'],1,right,['3'],4,70,[-0.0841422],100,47,medium,plus,dotcolour,beta,,,25,18,V,R,
645,15,15,15,5,44,36,1650,['c'],1,left,['3'],4,40,[0.10773185],100,44,hard,plus,dotcolour,beta,,,25,18,V,R,
646,16,16,15,5,33,47,551,['n'],1,right,['3'],4,1296,[-0.07768586],89,47,medium,plus,dotcolour,beta,,,25,18,V,R,
647,17,17,15,5,44,36,817,['c'],1,left,['2'],5,73,[0.05911841],100,44,hard,plus,dotcolour,beta,,,25,18,V,R,
648,18,18,15,5,27,53,868,['n'],1,right,['2'],5,42,[-0.09781127],100,53,easy,plus,dotcolour,beta,,,25,18,V,R,
649,19,19,15,5,27,53,1383,['n'],1,right,['2'],5,48,[-0.0907948],100,53,easy,plus,dotcolour,beta,,,25,18,V,R,
650,20,20,15,5,27,53,717,['n'],1,right,['2'],5,281,[-0.02977897],95,53,easy,plus,dotcolour,beta,,,25,18,V,R,
651,21,21,15,5,47,33,1067,['c'],1,left,['2'],5,41,[0.08068487],100,47,medium,plus,dotcolour,beta,,,25,18,V,R,
652,22,22,15,5,47,33,1199,['c'],1,left,['2'],5,54,[0.05092658],100,47,medium,plus,dotcolour,beta,,,25,18,V,R,
653,23,23,15,5,33,47,933,['n'],1,right,['1'],6,14,[-0.07837473],100,47,medium,plus,dotcolour,beta,,,25,18,V,R,
654,24,24,15,5,53,27,750,['c'],1,left,['2'],5,95,[0.07158507],100,53,easy,plus,dotcolour,beta,,,25,18,V,R,
655,25,25,15,5,44,36,800,['c'],1,left,['2'],5,98,[0.10213233],100,44,hard,plus,dotcolour,beta,,,25,18,V,R,
656,26,26,15,5,47,33,731,['c'],1,left,['2'],5,64,[0.0551638],100,47,medium,plus,dotcolour,beta,,,25,18,V,R,
657,27,27,15,5,53,27,617,['c'],1,left,['2'],5,68,[0.09924078],100,53,easy,plus,dotcolour,beta,,,25,18,V,R,
658,28,28,15,5,36,44,669,['n'],1,right,['1'],6,46,[-0.06726011],100,44,hard,plus,dotcolour,beta,,,25,18,V,R,
659,29,29,15,5,33,47,902,['n'],1,right,['2'],5,55,[-0.07801067],100,47,medium,plus,dotcolour,beta,,,25,18,V,R,
660,30,30,15,5,53,27,831,['c'],1,left,['2'],5,35,[0.08532518],100,53,easy,plus,dotcolour,beta,,,25,18,V,R,
661,31,31,15,5,36,44,950,['c'],0,right,['2'],5,67,[0.07116799],100,44,hard,plus,dotcolour,beta,,,25,18,V,R,
662,32,32,15,5,27,53,666,['n'],1,right,['2'],5,277,[-0.04558817],97,53,easy,plus,dotcolour,beta,,,25,18,V,R,
663,33,33,15,5,44,36,800,['c'],1,left,['2'],5,80,[0.04974164],100,44,hard,plus,dotcolour,beta,,,25,18,V,R,
664,34,34,15,5,47,33,1599,['c'],1,left,['2'],5,59,[0.10563891],100,47,medium,plus,dotcolour,beta,,,25,18,V,R,
665,35,35,15,5,53,27,1135,['n'],0,left,['3'],4,66,[-0.06717321],100,53,easy,plus,dotcolour,beta,,,25,18,V,R,
666,36,36,15,5,44,36,568,['c'],1,left,['2'],5,73,[0.1063873],100,44,hard,plus,dotcolour,beta,,,25,18,V,R,
667,37,37,15,5,27,53,683,['n'],1,right,['2'],5,90,[-0.05845499],100,53,easy,plus,dotcolour,beta,,,25,18,V,R,
668,38,38,15,5,36,44,684,['n'],1,right,['2'],5,114,[-0.07207311],100,44,hard,plus,dotcolour,beta,,,25,18,V,R,
669,39,39,15,5,36,44,2720,['c'],0,right,['3'],4,111,[0.11690714],100,44,hard,plus,dotcolour,beta,,,25,18,V,R,
670,40,40,15,5,36,44,1769,['n'],1,right,['2'],5,26,[-0.08708235],100,44,hard,plus,dotcolour,beta,,,25,18,V,R,
671,41,41,15,5,27,53,567,['n'],1,right,['2'],5,113,[-0.10448209],100,53,easy,plus,dotcolour,beta,,,25,18,V,R,
672,42,0,16,5,27,53,917,['n'],1,right,['1'],6,70,[-0.06558084],100,53,easy,plus,dotcolour,beta,,,25,18,V,R,
673,43,1,16,5,53,27,898,['c'],1,left,['1'],6,71,[0.07174299],100,53,easy,plus,dotcolour,beta,,,25,18,V,R,
674,44,2,16,5,33,47,634,['n'],1,right,['1'],6,66,[-0.0700461],100,47,medium,plus,dotcolour,beta,,,25,18,V,R,
675,45,3,16,5,36,44,1534,['c'],0,right,['2'],5,265,[0.08994337],99,44,hard,plus,dotcolour,beta,,,25,18,V,R,
676,46,4,16,5,27,53,1719,['n'],1,right,['2'],5,16,[-0.08464626],100,53,easy,plus,dotcolour,beta,,,25,18,V,R,
677,47,5,16,5,53,27,750,['c'],1,left,['2'],5,56,[0.03090897],100,53,easy,plus,dotcolour,beta,,,25,18,V,R,
678,48,6,16,5,33,47,2201,['c'],0,right,['3'],4,108,[0.05126348],100,47,medium,plus,dotcolour,beta,,,25,18,V,R,
679,49,7,16,5,53,27,1367,['c'],1,left,['2'],5,23,[0.06802682],100,53,easy,plus,dotcolour,beta,,,25,18,V,R,
680,50,8,16,5,33,47,1016,['n'],1,right,['2'],5,109,[-0.08575345],100,47,medium,plus,dotcolour,beta,,,25,18,V,R,
681,51,9,16,5,27,53,601,['n'],1,right,['1'],6,232,[-0.13108003],100,53,easy,plus,dotcolour,beta,,,25,18,V,R,
682,52,10,16,5,27,53,568,['n'],1,right,['1'],6,15,[-0.0818093],100,53,easy,plus,dotcolour,beta,,,25,18,V,R,
683,53,11,16,5,27,53,551,['n'],1,right,['1'],6,88,[-0.05760584],100,53,easy,plus,dotcolour,beta,,,25,18,V,R,
684,54,12,16,5,47,33,1083,['c'],1,left,['2'],5,8,[0.05915962],100,47,medium,plus,dotcolour,beta,,,25,18,V,R,
685,55,13,16,5,53,27,685,['c'],1,left,['2'],5,44,[0.10443243],100,53,easy,plus,dotcolour,beta,,,25,18,V,R,
686,56,14,16,5,36,44,850,['n'],1,right,['3'],4,102,[-0.07726869],100,44,hard,plus,dotcolour,beta,,,25,18,V,R,
687,57,15,16,5,27,53,634,['n'],1,right,['2'],5,81,[-0.0229434],99,53,easy,plus,dotcolour,beta,,,25,18,V,R,
688,58,16,16,5,47,33,1000,['c'],1,left,['2'],5,100,[0.04808677],100,47,medium,plus,dotcolour,beta,,,25,18,V,R,
689,59,17,16,5,53,27,1468,['c'],1,left,['2'],5,44,[0.07681368],100,53,easy,plus,dotcolour,beta,,,25,18,V,R,
690,60,18,16,5,47,33,1250,['n'],0,left,['2'],5,23,[-0.0491559],100,47,medium,plus,dotcolour,beta,,,25,18,V,R,
691,61,19,16,5,33,47,918,['n'],1,right,['2'],5,57,[-0.05761961],100,47,medium,plus,dotcolour,beta,,,25,18,V,R,
692,62,20,16,5,44,36,967,['c'],1,left,['2'],5,71,[0.08081907],100,44,hard,plus,dotcolour,beta,,,25,18,V,R,
693,63,21,16,5,33,47,782,['n'],1,right,['2'],5,108,[-0.12230899],100,47,medium,plus,dotcolour,beta,,,25,18,V,R,
694,64,22,16,5,47,33,1015,['n'],0,left,['2'],5,109,[-0.06892591],100,47,medium,plus,dotcolour,beta,,,25,18,V,R,
695,65,23,16,5,44,36,1033,['c'],1,left,['2'],5,62,[0.06020505],100,44,hard,plus,dotcolour,beta,,,25,18,V,R,
696,66,24,16,5,44,36,768,['n'],0,left,['2'],5,85,[-0.08970764],100,44,hard,plus,dotcolour,beta,,,25,18,V,R,
697,67,25,16,5,44,36,768,['c'],1,left,['2'],5,65,[0.06898191],100,44,hard,plus,dotcolour,beta,,,25,18,V,R,
698,68,26,16,5,47,33,768,['c'],1,left,['2'],5,63,[0.06539699],100,47,medium,plus,dotcolour,beta,,,25,18,V,R,
699,69,27,16,5,36,44,1318,['c'],0,right,['2'],5,119,[0.04926134],100,44,hard,plus,dotcolour,beta,,,25,18,V,R,
700,70,28,16,5,44,36,801,['c'],1,left,['2'],5,41,[0.04020215],100,44,hard,plus,dotcolour,beta,,,25,18,V,R,
701,71,29,16,5,36,44,1117,['c'],0,right,['2'],5,59,[0.0349356],100,44,hard,plus,dotcolour,beta,,,25,18,V,R,
702,72,30,16,5,44,36,850,['c'],1,left,['2'],5,77,[0.10100893],100,44,hard,plus,dotcolour,beta,,,25,18,V,R,
703,73,31,16,5,36,44,1200,['n'],1,right,['2'],5,73,[-0.10312682],100,44,hard,plus,dotcolour,beta,,,25,18,V,R,
704,74,32,16,5,53,27,701,['c'],1,left,['2'],5,57,[0.07427687],100,53,easy,plus,dotcolour,beta,,,25,18,V,R,
705,75,33,16,5,53,27,666,['c'],1,left,['2'],5,67,[0.08141966],100,53,easy,plus,dotcolour,beta,,,25,18,V,R,
706,76,34,16,5,27,53,700,['n'],1,right,['1'],6,44,[-0.10393024],100,53,easy,plus,dotcolour,beta,,,25,18,V,R,
707,77,35,16,5,36,44,1134,['n'],1,right,['1'],6,60,[-0.10416236],100,44,hard,plus,dotcolour,beta,,,25,18,V,R,
708,78,36,16,5,36,44,616,['n'],1,right,['1'],6,95,[-0.07612379],100,44,hard,plus,dotcolour,beta,,,25,18,V,R,
709,79,37,16,5,47,33,1902,['n'],0,left,['2'],5,46,[-0.08195752],100,47,medium,plus,dotcolour,beta,,,25,18,V,R,
710,80,38,16,5,47,33,649,['n'],0,left,['3'],4,105,[-0.087155],100,47,medium,plus,dotcolour,beta,,,25,18,V,R,
711,81,39,16,5,33,47,935,['n'],1,right,['1'],6,95,[-0.08498096],100,47,medium,plus,dotcolour,beta,,,25,18,V,R,
712,82,40,16,5,44,36,900,['n'],0,left,['2'],5,62,[-0.12110513],100,44,hard,plus,dotcolour,beta,,,25,18,V,R,
713,83,41,16,5,33,47,1682,['n'],1,right,['1'],6,55,[-0.058814],100,47,medium,plus,dotcolour,beta,,,25,18,V,R,
714,84,0,17,5,36,44,1185,['n'],1,right,['1'],6,71,[-0.08040672],100,44,hard,plus,dotcolour,beta,,,25,18,V,R,
715,85,1,17,5,44,36,1017,['c'],1,left,['1'],6,90,[0.06390689],100,44,hard,plus,dotcolour,beta,,,25,18,V,R,
716,86,2,17,5,44,36,1017,['c'],1,left,['2'],5,61,[0.07895076],100,44,hard,plus,dotcolour,beta,,,25,18,V,R,
717,87,3,17,5,36,44,601,['n'],1,right,['1'],6,66,[-0.13346163],100,44,hard,plus,dotcolour,beta,,,25,18,V,R,
718,88,4,17,5,33,47,600,['n'],1,right,['1'],6,54,[-0.03711304],100,47,medium,plus,dotcolour,beta,,,25,18,V,R,
719,89,5,17,5,36,44,633,['n'],1,right,['1'],6,42,[-0.10311719],100,44,hard,plus,dotcolour,beta,,,25,18,V,R,
720,90,6,17,5,33,47,630,['n'],1,right,['2'],5,142,[-0.07895952],100,47,medium,plus,dotcolour,beta,,,25,18,V,R,
721,91,7,17,5,53,27,1201,['c'],1,left,['1'],6,63,[0.08232085],100,53,easy,plus,dotcolour,beta,,,25,18,V,R,
722,92,8,17,5,36,44,548,['n'],1,right,['1'],6,142,[-0.08061661],100,44,hard,plus,dotcolour,beta,,,25,18,V,R,
723,93,9,17,5,36,44,648,['n'],1,right,['1'],6,172,[-0.07039625],100,44,hard,plus,dotcolour,beta,,,25,18,V,R,
724,94,10,17,5,47,33,966,['c'],1,left,['1'],6,95,[0.11604425],100,47,medium,plus,dotcolour,beta,,,25,18,V,R,
725,95,11,17,5,47,33,1016,['c'],1,left,['2'],5,73,[0.08530718],100,47,medium,plus,dotcolour,beta,,,25,18,V,R,
726,96,12,17,5,33,47,799,['n'],1,right,['1'],6,37,[-0.08860012],100,47,medium,plus,dotcolour,beta,,,25,18,V,R,
727,97,13,17,5,27,53,1101,['n'],1,right,['1'],6,39,[-0.0714711],100,53,easy,plus,dotcolour,beta,,,25,18,V,R,
728,98,14,17,5,53,27,801,['c'],1,left,['1'],6,92,[0.08187119],100,53,easy,plus,dotcolour,beta,,,25,18,V,R,
729,99,15,17,5,33,47,700,['n'],1,right,['1'],6,83,[-0.09168249],100,47,medium,plus,dotcolour,beta,,,25,18,V,R,
730,100,16,17,5,44,36,1617,['c'],1,left,['1'],6,62,[0.11600849],100,44,hard,plus,dotcolour,beta,,,25,18,V,R,
731,101,17,17,5,33,47,550,['n'],1,right,['1'],6,101,[-0.1182704],100,47,medium,plus,dotcolour,beta,,,25,18,V,R,
732,102,18,17,5,47,33,716,['c'],1,left,['1'],6,67,[0.10062948],100,47,medium,plus,dotcolour,beta,,,25,18,V,R,
733,103,19,17,5,53,27,834,['n'],0,left,['0'],1,2279,[0.41547716],1,53,easy,plus,dotcolour,beta,,,25,18,V,R,
734,104,20,17,5,53,27,1434,['c'],1,left,['1'],6,78,[0.08758596],100,53,easy,plus,dotcolour,beta,,,25,18,V,R,
735,105,21,17,5,27,53,750,['n'],1,right,['1'],6,4,[-0.06700426],100,53,easy,plus,dotcolour,beta,,,25,18,V,R,
736,106,22,17,5,27,53,683,['n'],1,right,['1'],6,80,[-0.10204074],100,53,easy,plus,dotcolour,beta,,,25,18,V,R,
737,107,23,17,5,44,36,1083,['c'],1,left,['2'],5,56,[0.08935638],100,44,hard,plus,dotcolour,beta,,,25,18,V,R,
738,108,24,17,5,27,53,600,['n'],1,right,['1'],6,46,[-0.07932727],100,53,easy,plus,dotcolour,beta,,,25,18,V,R,
739,109,25,17,5,44,36,1384,['c'],1,left,['1'],6,59,[0.092504],100,44,hard,plus,dotcolour,beta,,,25,18,V,R,
740,110,26,17,5,44,36,1416,['c'],1,left,['3'],4,110,[0.11717565],100,44,hard,plus,dotcolour,beta,,,25,18,V,R,
741,111,27,17,5,44,36,1116,['c'],1,left,['2'],5,60,[0.00351647],99,44,hard,plus,dotcolour,beta,,,25,18,V,R,
742,112,28,17,5,47,33,1351,['n'],0,left,['3'],4,82,[-0.04743415],100,47,medium,plus,dotcolour,beta,,,25,18,V,R,
743,113,29,17,5,33,47,666,['n'],1,right,['1'],6,67,[-0.0394029],100,47,medium,plus,dotcolour,beta,,,25,18,V,R,
744,114,30,17,5,47,33,1850,['c'],1,left,['1'],6,110,[0.0559367],100,47,medium,plus,dotcolour,beta,,,25,18,V,R,
745,115,31,17,5,27,53,918,['c'],0,right,['1'],6,42,[0.05774632],100,53,easy,plus,dotcolour,beta,,,25,18,V,R,
746,116,32,17,5,53,27,967,['c'],1,left,['1'],6,545,[0.17578046],100,53,easy,plus,dotcolour,beta,,,25,18,V,R,
747,117,33,17,5,27,53,852,['n'],1,right,['1'],6,88,[-0.07844694],100,53,easy,plus,dotcolour,beta,,,25,18,V,R,
748,118,34,17,5,47,33,850,['c'],1,left,['1'],6,89,[0.06006144],100,47,medium,plus,dotcolour,beta,,,25,18,V,R,
749,119,35,17,5,33,47,768,['n'],1,right,['1'],6,94,[-0.07830022],100,47,medium,plus,dotcolour,beta,,,25,18,V,R,
750,120,36,17,5,53,27,935,['c'],1,left,['1'],6,60,[0.07809875],100,53,easy,plus,dotcolour,beta,,,25,18,V,R,
751,121,37,17,5,36,44,1467,['n'],1,right,['3'],4,589,[-0.03351266],89,44,hard,plus,dotcolour,beta,,,25,18,V,R,
752,122,38,17,5,27,53,633,['n'],1,right,['1'],6,99,[-0.07917704],100,53,easy,plus,dotcolour,beta,,,25,18,V,R,
753,123,39,17,5,36,44,850,['c'],0,right,['1'],6,236,[0.03267953],96,44,hard,plus,dotcolour,beta,,,25,18,V,R,
754,124,40,17,5,47,33,933,['c'],1,left,['2'],5,100,[0.05564237],100,47,medium,plus,dotcolour,beta,,,25,18,V,R,
755,125,41,17,5,53,27,866,['c'],1,left,['1'],6,68,[0.04361252],100,53,easy,plus,dotcolour,beta,,,25,18,V,R,
,,,,,,,,,,,,,,,,,,,,,1,neen,25,18,V,R,
,,,,,,,,,,,,,,,,,,,,,2,['g'],25,18,V,R,
,,,,,,,,,,,,,,,,,,,,,3,['h'],25,18,V,R,
,,,,,,,,,,,,,,,,,,,,,5,['5'],25,18,V,R,
