trial,withinphasetrial,withinblocktrial,block,phase,dotsLeft,dotsRight,rt,resp,cor,cresp,conf_press,cj,RTconf,ev,fb,diff,difflevel,condition,task,manip,questionID,questionResp,sub,age,gender,handedness,
0,0,0,0,0,44,36,4751,['n'],0,left,['3'],3,3929,[-0.1224524],64,44,hard,minus,dotcolour,alfa,,,95,18,V,R,
1,1,1,0,0,33,47,1517,['n'],1,right,['9'],5,2455,[-0.40505738],91,47,medium,minus,dotcolour,alfa,,,95,18,V,R,
2,2,2,0,0,33,47,3034,['n'],1,right,['8'],4,2964,[-0.28797371],82,47,medium,minus,dotcolour,alfa,,,95,18,V,R,
3,3,3,0,0,44,36,1601,['c'],1,left,['8'],4,1734,[0.28047333],87,44,hard,minus,dotcolour,alfa,,,95,18,V,R,
4,4,4,0,0,27,53,1267,['n'],1,right,['9'],5,2727,[-0.27417855],82,53,easy,minus,dotcolour,alfa,,,95,18,V,R,
5,5,5,0,0,27,53,1084,['n'],1,right,['9'],5,926,[-0.0552557],63,53,easy,minus,dotcolour,alfa,,,95,18,V,R,
6,6,6,0,0,33,47,1016,['n'],1,right,['9'],5,802,[-0.13375901],79,47,medium,minus,dotcolour,alfa,,,95,18,V,R,
7,7,7,0,0,53,27,950,['c'],1,left,['9'],5,805,[-0.00231887],49,53,easy,minus,dotcolour,alfa,,,95,18,V,R,
8,8,8,0,0,33,47,1334,['n'],1,right,['9'],5,1144,[0.05849348],38,47,medium,minus,dotcolour,alfa,,,95,18,V,R,
9,9,9,0,0,44,36,1101,['c'],1,left,['8'],4,1007,[0.1013756],71,44,hard,minus,dotcolour,alfa,,,95,18,V,R,
10,10,10,0,0,27,53,1017,['n'],1,right,['9'],5,447,[-0.13577468],86,53,easy,minus,dotcolour,alfa,,,95,18,V,R,
11,11,11,0,0,53,27,783,['c'],1,left,['9'],5,599,[0.28526319],97,53,easy,minus,dotcolour,alfa,,,95,18,V,R,
12,12,12,0,0,53,27,866,['c'],1,left,['9'],5,598,[0.17108544],88,53,easy,minus,dotcolour,alfa,,,95,18,V,R,
13,13,13,0,0,44,36,767,['c'],1,left,['9'],5,457,[0.17443151],91,44,hard,minus,dotcolour,alfa,,,95,18,V,R,
14,14,14,0,0,36,44,1033,['n'],1,right,['8'],4,1206,[-0.29025912],92,44,hard,minus,dotcolour,alfa,,,95,18,V,R,
15,15,15,0,0,53,27,783,['c'],1,left,['9'],5,479,[0.27248587],97,53,easy,minus,dotcolour,alfa,,,95,18,V,R,
16,16,16,0,0,44,36,899,['c'],1,left,['9'],5,530,[0.1243159],82,44,hard,minus,dotcolour,alfa,,,95,18,V,R,
17,17,17,0,0,44,36,1234,['c'],1,left,['9'],5,444,[0.10359949],80,44,hard,minus,dotcolour,alfa,,,95,18,V,R,
18,18,18,0,0,36,44,850,['n'],1,right,['9'],5,1025,[0.19894181],15,44,hard,minus,dotcolour,alfa,,,95,18,V,R,
19,19,19,0,0,36,44,1467,['n'],1,right,['9'],5,727,[-0.13274185],80,44,hard,minus,dotcolour,alfa,,,95,18,V,R,
20,20,20,0,0,27,53,750,['n'],1,right,['9'],5,581,[-0.09861505],76,53,easy,minus,dotcolour,alfa,,,95,18,V,R,
21,21,21,0,0,47,33,716,['c'],1,left,['8'],4,826,[0.08275334],69,47,medium,minus,dotcolour,alfa,,,95,18,V,R,
22,22,22,0,0,53,27,801,['c'],1,left,['9'],5,483,[0.08161872],74,53,easy,minus,dotcolour,alfa,,,95,18,V,R,
23,23,23,0,0,33,47,1450,['c'],0,right,['8'],4,686,[0.09017046],73,47,medium,minus,dotcolour,alfa,,,95,18,V,R,
24,24,24,0,0,47,33,1151,['c'],1,left,['8'],4,933,[0.1696142],83,47,medium,minus,dotcolour,alfa,,,95,18,V,R,
25,25,25,0,0,27,53,884,['n'],1,right,['9'],5,351,[-0.16515571],92,53,easy,minus,dotcolour,alfa,,,95,18,V,R,
26,26,26,0,0,36,44,918,['n'],1,right,['9'],5,357,[-0.03113894],62,44,hard,minus,dotcolour,alfa,,,95,18,V,R,
27,27,27,0,0,33,47,900,['n'],1,right,['9'],5,716,[-0.33564578],97,47,medium,minus,dotcolour,alfa,,,95,18,V,R,
28,28,28,0,0,44,36,850,['c'],1,left,['8'],4,846,[0.06367088],65,44,hard,minus,dotcolour,alfa,,,95,18,V,R,
29,29,29,0,0,36,44,1117,['c'],0,right,['8'],4,793,[0.0197782],55,44,hard,minus,dotcolour,alfa,,,95,18,V,R,
30,30,30,0,0,47,33,1032,['c'],1,left,['9'],5,489,[0.14792546],87,47,medium,minus,dotcolour,alfa,,,95,18,V,R,
31,31,31,0,0,36,44,2934,['n'],1,right,['8'],4,873,[-0.14608744],80,44,hard,minus,dotcolour,alfa,,,95,18,V,R,
32,32,32,0,0,36,44,1000,['n'],1,right,['8'],4,927,[-0.16131152],82,44,hard,minus,dotcolour,alfa,,,95,18,V,R,
33,33,33,0,0,27,53,816,['n'],1,right,['9'],5,451,[-0.11613867],83,53,easy,minus,dotcolour,alfa,,,95,18,V,R,
34,34,34,0,0,53,27,2484,['c'],1,left,['9'],5,671,[0.26576408],95,53,easy,minus,dotcolour,alfa,,,95,18,V,R,
35,35,35,0,0,47,33,949,['c'],1,left,['9'],5,311,[0.20008865],96,47,medium,minus,dotcolour,alfa,,,95,18,V,R,
36,36,36,0,0,47,33,1000,['c'],1,left,['9'],5,411,[0.121275],85,47,medium,minus,dotcolour,alfa,,,95,18,V,R,
37,37,37,0,0,27,53,1051,['n'],1,right,['9'],5,330,[-0.12853475],88,53,easy,minus,dotcolour,alfa,,,95,18,V,R,
38,38,38,0,0,47,33,1234,['c'],1,left,['9'],5,285,[0.03709894],65,47,medium,minus,dotcolour,alfa,,,95,18,V,R,
39,39,39,0,0,47,33,934,['c'],1,left,['9'],5,269,[0.10364881],86,47,medium,minus,dotcolour,alfa,,,95,18,V,R,
40,40,40,0,0,53,27,917,['c'],1,left,['9'],5,279,[0.09036424],82,53,easy,minus,dotcolour,alfa,,,95,18,V,R,
41,41,41,0,0,33,47,850,['n'],1,right,['9'],5,283,[-0.09119836],82,47,medium,minus,dotcolour,alfa,,,95,18,V,R,
42,42,0,1,0,47,33,2234,['c'],1,left,['8'],4,1233,[0.08482638],67,47,medium,minus,dotcolour,alfa,,,95,18,V,R,
43,43,1,1,0,27,53,867,['n'],1,right,['9'],5,502,[-0.19493248],92,53,easy,minus,dotcolour,alfa,,,95,18,V,R,
44,44,2,1,0,36,44,933,['n'],1,right,['9'],5,262,[-0.13640394],92,44,hard,minus,dotcolour,alfa,,,95,18,V,R,
45,45,3,1,0,36,44,1417,['c'],0,right,['9'],5,236,[0.168956],96,44,hard,minus,dotcolour,alfa,,,95,18,V,R,
46,46,4,1,0,33,47,867,['n'],1,right,['8'],4,650,[-0.28628475],96,47,medium,minus,dotcolour,alfa,,,95,18,V,R,
47,47,5,1,0,36,44,801,['n'],1,right,['9'],5,361,[-0.10804955],83,44,hard,minus,dotcolour,alfa,,,95,18,V,R,
48,48,6,1,0,47,33,866,['c'],1,left,['8'],4,514,[0.06499892],69,47,medium,minus,dotcolour,alfa,,,95,18,V,R,
49,49,7,1,0,47,33,966,['c'],1,left,['8'],4,783,[0.25534616],93,47,medium,minus,dotcolour,alfa,,,95,18,V,R,
50,50,8,1,0,36,44,866,['n'],1,right,['9'],5,294,[-0.0283265],62,44,hard,minus,dotcolour,alfa,,,95,18,V,R,
51,51,9,1,0,33,47,816,['c'],0,right,['9'],5,739,[0.0419496],61,47,medium,minus,dotcolour,alfa,,,95,18,V,R,
52,52,10,1,0,53,27,800,['c'],1,left,['9'],5,518,[0.1989621],92,53,easy,minus,dotcolour,alfa,,,95,18,V,R,
53,53,11,1,0,33,47,1267,['n'],1,right,['8'],4,1400,[-0.16828956],78,47,medium,minus,dotcolour,alfa,,,95,18,V,R,
54,54,12,1,0,44,36,699,['c'],1,left,['9'],5,445,[-0.03928813],37,44,hard,minus,dotcolour,alfa,,,95,18,V,R,
55,55,13,1,0,33,47,1084,['n'],1,right,['9'],5,257,[-0.14664553],93,47,medium,minus,dotcolour,alfa,,,95,18,V,R,
56,56,14,1,0,47,33,4167,['n'],0,left,['8'],4,482,[-0.04641424],65,47,medium,minus,dotcolour,alfa,,,95,18,V,R,
57,57,15,1,0,47,33,934,['c'],1,left,['9'],5,322,[0.13602165],90,47,medium,minus,dotcolour,alfa,,,95,18,V,R,
58,58,16,1,0,47,33,1900,['c'],1,left,['8'],4,754,[0.14888718],82,47,medium,minus,dotcolour,alfa,,,95,18,V,R,
59,59,17,1,0,44,36,1250,['c'],1,left,['8'],4,619,[0.09578585],75,44,hard,minus,dotcolour,alfa,,,95,18,V,R,
60,60,18,1,0,33,47,1283,['n'],1,right,['8'],4,336,[-0.03162975],62,47,medium,minus,dotcolour,alfa,,,95,18,V,R,
61,61,19,1,0,27,53,967,['n'],1,right,['9'],5,253,[-0.19010391],97,53,easy,minus,dotcolour,alfa,,,95,18,V,R,
62,62,20,1,0,33,47,1701,['c'],0,right,['8'],4,209,[-0.00018262],50,47,medium,minus,dotcolour,alfa,,,95,18,V,R,
63,63,21,1,0,44,36,3017,['n'],0,left,['9'],5,313,[-0.0117603],55,44,hard,minus,dotcolour,alfa,,,95,18,V,R,
64,64,22,1,0,33,47,1168,['n'],1,right,['8'],4,383,[-0.11872029],85,47,medium,minus,dotcolour,alfa,,,95,18,V,R,
65,65,23,1,0,44,36,967,['n'],0,left,['8'],4,618,[-0.09613123],75,44,hard,minus,dotcolour,alfa,,,95,18,V,R,
66,66,24,1,0,53,27,3117,['c'],1,left,['3'],3,2726,[0.33628338],86,53,easy,minus,dotcolour,alfa,,,95,18,V,R,
67,67,25,1,0,27,53,916,['n'],1,right,['9'],5,309,[-0.0680496],75,53,easy,minus,dotcolour,alfa,,,95,18,V,R,
68,68,26,1,0,53,27,1067,['c'],1,left,['9'],5,503,[0.08526211],75,53,easy,minus,dotcolour,alfa,,,95,18,V,R,
69,69,27,1,0,27,53,901,['n'],1,right,['9'],5,264,[-0.09341255],84,53,easy,minus,dotcolour,alfa,,,95,18,V,R,
70,70,28,1,0,44,36,916,['c'],1,left,['8'],4,650,[0.08301705],72,44,hard,minus,dotcolour,alfa,,,95,18,V,R,
71,71,29,1,0,53,27,835,['c'],1,left,['8'],4,216,[0.10852313],89,53,easy,minus,dotcolour,alfa,,,95,18,V,R,
72,72,30,1,0,27,53,967,['n'],1,right,['9'],5,218,[-0.13515135],93,53,easy,minus,dotcolour,alfa,,,95,18,V,R,
73,73,31,1,0,36,44,1683,['n'],1,right,['8'],4,895,[-0.06054641],64,44,hard,minus,dotcolour,alfa,,,95,18,V,R,
74,74,32,1,0,53,27,900,['c'],1,left,['9'],5,242,[0.1649575],95,53,easy,minus,dotcolour,alfa,,,95,18,V,R,
75,75,33,1,0,47,33,1351,['c'],1,left,['9'],5,171,[0.10451675],91,47,medium,minus,dotcolour,alfa,,,95,18,V,R,
76,76,34,1,0,36,44,2267,['n'],1,right,['8'],4,338,[-0.12432447],87,44,hard,minus,dotcolour,alfa,,,95,18,V,R,
77,77,35,1,0,53,27,917,['c'],1,left,['9'],5,225,[0.09399398],86,53,easy,minus,dotcolour,alfa,,,95,18,V,R,
78,78,36,1,0,44,36,1267,['c'],1,left,['9'],5,150,[0.06798731],83,44,hard,minus,dotcolour,alfa,,,95,18,V,R,
79,79,37,1,0,53,27,650,['c'],1,left,['0'],6,584,[0.0985052],76,53,easy,minus,dotcolour,alfa,,,95,18,V,R,
80,80,38,1,0,36,44,1084,['n'],1,right,['9'],5,255,[-0.04243706],68,44,hard,minus,dotcolour,alfa,,,95,18,V,R,
81,81,39,1,0,27,53,934,['n'],1,right,['9'],5,272,[-0.11677389],88,53,easy,minus,dotcolour,alfa,,,95,18,V,R,
82,82,40,1,0,27,53,868,['n'],1,right,['9'],5,364,[-0.09739239],81,53,easy,minus,dotcolour,alfa,,,95,18,V,R,
83,83,41,1,0,44,36,1000,['c'],1,left,['9'],5,351,[-0.04923658],32,44,hard,minus,dotcolour,alfa,,,95,18,V,R,
84,84,0,2,0,44,36,2434,['c'],1,left,['8'],4,661,[0.18882408],89,44,hard,minus,dotcolour,alfa,,,95,18,V,R,
85,85,1,2,0,33,47,801,['n'],1,right,['9'],5,323,[-0.11149856],85,47,medium,minus,dotcolour,alfa,,,95,18,V,R,
86,86,2,2,0,36,44,1517,['n'],1,right,['9'],5,251,[-0.13205622],91,44,hard,minus,dotcolour,alfa,,,95,18,V,R,
87,87,3,2,0,47,33,767,['c'],1,left,['9'],5,243,[0.11461012],89,47,medium,minus,dotcolour,alfa,,,95,18,V,R,
88,88,4,2,0,53,27,784,['c'],1,left,['0'],6,371,[0.0934922],80,53,easy,minus,dotcolour,alfa,,,95,18,V,R,
89,89,5,2,0,33,47,1167,['n'],1,right,['8'],4,415,[0.00221447],49,47,medium,minus,dotcolour,alfa,,,95,18,V,R,
90,90,6,2,0,53,27,717,['c'],1,left,['9'],5,298,[0.11360439],87,53,easy,minus,dotcolour,alfa,,,95,18,V,R,
91,91,7,2,0,33,47,983,['n'],1,right,['9'],5,241,[0.00208903],49,47,medium,minus,dotcolour,alfa,,,95,18,V,R,
92,92,8,2,0,33,47,1666,['n'],1,right,['9'],5,214,[-0.07724213],82,47,medium,minus,dotcolour,alfa,,,95,18,V,R,
93,93,9,2,0,47,33,749,['c'],1,left,['9'],5,441,[0.03084039],60,47,medium,minus,dotcolour,alfa,,,95,18,V,R,
94,94,10,2,0,44,36,1383,['c'],1,left,['9'],5,232,[0.06561671],77,44,hard,minus,dotcolour,alfa,,,95,18,V,R,
95,95,11,2,0,53,27,667,['c'],1,left,['9'],5,357,[0.18158082],94,53,easy,minus,dotcolour,alfa,,,95,18,V,R,
96,96,12,2,0,27,53,984,['n'],1,right,['0'],6,233,[-0.09618942],86,53,easy,minus,dotcolour,alfa,,,95,18,V,R,
97,97,13,2,0,27,53,2233,['n'],1,right,['9'],5,487,[-0.21720734],94,53,easy,minus,dotcolour,alfa,,,95,18,V,R,
98,98,14,2,0,27,53,1000,['n'],1,right,['0'],6,309,[-0.07326083],77,53,easy,minus,dotcolour,alfa,,,95,18,V,R,
99,99,15,2,0,47,33,784,['c'],1,left,['9'],5,234,[0.08677433],83,47,medium,minus,dotcolour,alfa,,,95,18,V,R,
100,100,16,2,0,44,36,899,['c'],1,left,['9'],5,207,[0.10025824],88,44,hard,minus,dotcolour,alfa,,,95,18,V,R,
101,101,17,2,0,53,27,801,['c'],1,left,['9'],5,263,[0.06088821],74,53,easy,minus,dotcolour,alfa,,,95,18,V,R,
102,102,18,2,0,36,44,934,['n'],1,right,['9'],5,208,[-0.09624683],87,44,hard,minus,dotcolour,alfa,,,95,18,V,R,
103,103,19,2,0,53,27,782,['c'],1,left,['9'],5,258,[0.06801196],77,53,easy,minus,dotcolour,alfa,,,95,18,V,R,
104,104,20,2,0,47,33,1618,['c'],1,left,['9'],5,176,[0.03490643],68,47,medium,minus,dotcolour,alfa,,,95,18,V,R,
105,105,21,2,0,33,47,784,['n'],1,right,['9'],5,322,[-0.12067966],87,47,medium,minus,dotcolour,alfa,,,95,18,V,R,
106,106,22,2,0,36,44,883,['n'],1,right,['9'],5,459,[-0.02084689],57,44,hard,minus,dotcolour,alfa,,,95,18,V,R,
107,107,23,2,0,53,27,867,['c'],1,left,['9'],5,215,[0.03422344],66,53,easy,minus,dotcolour,alfa,,,95,18,V,R,
108,108,24,2,0,36,44,2667,['n'],1,right,['8'],4,261,[-0.17424599],96,44,hard,minus,dotcolour,alfa,,,95,18,V,R,
109,109,25,2,0,53,27,1050,['c'],1,left,['8'],4,794,[0.06253792],65,53,easy,minus,dotcolour,alfa,,,95,18,V,R,
110,110,26,2,0,27,53,982,['n'],1,right,['8'],4,348,[-0.10695561],84,53,easy,minus,dotcolour,alfa,,,95,18,V,R,
111,111,27,2,0,33,47,1018,['n'],1,right,['9'],5,246,[-0.17735393],96,47,medium,minus,dotcolour,alfa,,,95,18,V,R,
112,112,28,2,0,44,36,2333,['n'],0,left,['8'],4,337,[0.02947154],39,44,hard,minus,dotcolour,alfa,,,95,18,V,R,
113,113,29,2,0,27,53,933,['n'],1,right,['9'],5,295,[-0.19391531],96,53,easy,minus,dotcolour,alfa,,,95,18,V,R,
114,114,30,2,0,36,44,1417,['n'],1,right,['8'],4,1556,[-0.2227608],83,44,hard,minus,dotcolour,alfa,,,95,18,V,R,
115,115,31,2,0,47,33,966,['c'],1,left,['8'],4,264,[0.0741777],79,47,medium,minus,dotcolour,alfa,,,95,18,V,R,
116,116,32,2,0,27,53,850,['n'],1,right,['8'],4,213,[-0.15766592],96,53,easy,minus,dotcolour,alfa,,,95,18,V,R,
117,117,33,2,0,33,47,1850,['n'],1,right,['8'],4,291,[-0.05657199],72,47,medium,minus,dotcolour,alfa,,,95,18,V,R,
118,118,34,2,0,44,36,850,['c'],1,left,['8'],4,231,[0.12945425],92,44,hard,minus,dotcolour,alfa,,,95,18,V,R,
119,119,35,2,0,36,44,916,['n'],1,right,['8'],4,266,[-0.08350441],81,44,hard,minus,dotcolour,alfa,,,95,18,V,R,
120,120,36,2,0,27,53,682,['n'],1,right,['8'],4,253,[-0.06632301],77,53,easy,minus,dotcolour,alfa,,,95,18,V,R,
121,121,37,2,0,36,44,833,['c'],0,right,['9'],5,235,[0.05746443],74,44,hard,minus,dotcolour,alfa,,,95,18,V,R,
122,122,38,2,0,44,36,1700,['c'],1,left,['8'],4,247,[0.04782409],70,44,hard,minus,dotcolour,alfa,,,95,18,V,R,
123,123,39,2,0,47,33,1434,['c'],1,left,['8'],4,270,[0.09946665],85,47,medium,minus,dotcolour,alfa,,,95,18,V,R,
124,124,40,2,0,44,36,1050,['n'],0,left,['3'],3,1906,[-0.14232417],72,44,hard,minus,dotcolour,alfa,,,95,18,V,R,
125,125,41,2,0,47,33,767,['c'],1,left,['8'],4,312,[0.00931378],54,47,medium,minus,dotcolour,alfa,,,95,18,V,R,
126,0,0,3,1,33,47,1968,['n'],1,right,['8'],4,1009,[-0.19562693],100,47,medium,plus,dotcolour,alfa,,,95,18,V,R,
127,1,1,3,1,33,47,950,['n'],1,right,['8'],4,276,[-0.01820775],78,47,medium,plus,dotcolour,alfa,,,95,18,V,R,
128,2,2,3,1,27,53,1682,['n'],1,right,['9'],5,335,[-0.04927885],96,53,easy,plus,dotcolour,alfa,,,95,18,V,R,
129,3,3,3,1,44,36,900,['n'],0,left,['8'],4,1158,[0.27421869],0,44,hard,plus,dotcolour,alfa,,,95,18,V,R,
130,4,4,3,1,53,27,1284,['c'],1,left,['0'],6,1246,[0.29289023],100,53,easy,plus,dotcolour,alfa,,,95,18,V,R,
131,5,5,3,1,44,36,1517,['c'],1,left,['9'],5,312,[0.04385456],94,44,hard,plus,dotcolour,alfa,,,95,18,V,R,
132,6,6,3,1,27,53,900,['n'],1,right,['8'],4,321,[-0.2089991],100,53,easy,plus,dotcolour,alfa,,,95,18,V,R,
133,7,7,3,1,36,44,1150,['n'],1,right,['8'],4,184,[-0.12528347],100,44,hard,plus,dotcolour,alfa,,,95,18,V,R,
134,8,8,3,1,53,27,885,['c'],1,left,['9'],5,263,[0.00114242],52,53,easy,plus,dotcolour,alfa,,,95,18,V,R,
135,9,9,3,1,47,33,834,['c'],1,left,['9'],5,308,[0.09805061],100,47,medium,plus,dotcolour,alfa,,,95,18,V,R,
136,10,10,3,1,53,27,735,['c'],1,left,['9'],5,163,[0.13480114],100,53,easy,plus,dotcolour,alfa,,,95,18,V,R,
137,11,11,3,1,27,53,950,['n'],1,right,['9'],5,232,[-0.1155451],100,53,easy,plus,dotcolour,alfa,,,95,18,V,R,
138,12,12,3,1,27,53,834,['n'],1,right,['9'],5,254,[-0.10564547],100,53,easy,plus,dotcolour,alfa,,,95,18,V,R,
139,13,13,3,1,27,53,933,['n'],1,right,['9'],5,272,[-0.09557246],100,53,easy,plus,dotcolour,alfa,,,95,18,V,R,
140,14,14,3,1,44,36,850,['c'],1,left,['8'],4,300,[0.14484446],100,44,hard,plus,dotcolour,alfa,,,95,18,V,R,
141,15,15,3,1,36,44,1666,['c'],0,right,['8'],4,359,[-0.00455708],43,44,hard,plus,dotcolour,alfa,,,95,18,V,R,
142,16,16,3,1,47,33,717,['c'],1,left,['9'],5,509,[0.08067944],98,47,medium,plus,dotcolour,alfa,,,95,18,V,R,
143,17,17,3,1,36,44,1000,['c'],0,right,['9'],5,370,[0.02851155],84,44,hard,plus,dotcolour,alfa,,,95,18,V,R,
144,18,18,3,1,36,44,883,['n'],1,right,['9'],5,209,[-0.06104663],99,44,hard,plus,dotcolour,alfa,,,95,18,V,R,
145,19,19,3,1,36,44,833,['n'],1,right,['9'],5,240,[-0.04902824],97,44,hard,plus,dotcolour,alfa,,,95,18,V,R,
146,20,20,3,1,53,27,650,['c'],1,left,['9'],5,214,[0.04839904],98,53,easy,plus,dotcolour,alfa,,,95,18,V,R,
147,21,21,3,1,27,53,767,['n'],1,right,['0'],6,576,[-0.1242575],100,53,easy,plus,dotcolour,alfa,,,95,18,V,R,
148,22,22,3,1,53,27,799,['c'],1,left,['0'],6,282,[0.06057687],98,53,easy,plus,dotcolour,alfa,,,95,18,V,R,
149,23,23,3,1,33,47,850,['n'],1,right,['0'],6,262,[-0.07804635],100,47,medium,plus,dotcolour,alfa,,,95,18,V,R,
150,24,24,3,1,47,33,1250,['c'],1,left,['8'],4,499,[0.05788212],95,47,medium,plus,dotcolour,alfa,,,95,18,V,R,
151,25,25,3,1,33,47,817,['n'],1,right,['9'],5,295,[-0.0569544],98,47,medium,plus,dotcolour,alfa,,,95,18,V,R,
152,26,26,3,1,47,33,717,['c'],1,left,['8'],4,433,[0.18286563],100,47,medium,plus,dotcolour,alfa,,,95,18,V,R,
153,27,27,3,1,36,44,901,['n'],1,right,['9'],5,188,[-0.13775006],100,44,hard,plus,dotcolour,alfa,,,95,18,V,R,
154,28,28,3,1,33,47,650,['c'],0,right,['9'],5,220,[0.00150097],53,47,medium,plus,dotcolour,alfa,,,95,18,V,R,
155,29,29,3,1,44,36,1251,['c'],1,left,['8'],4,499,[0.28069883],100,44,hard,plus,dotcolour,alfa,,,95,18,V,R,
156,30,30,3,1,44,36,1900,['c'],1,left,['8'],4,253,[0.00387753],57,44,hard,plus,dotcolour,alfa,,,95,18,V,R,
157,31,31,3,1,27,53,750,['n'],1,right,['9'],5,253,[-0.1335144],100,53,easy,plus,dotcolour,alfa,,,95,18,V,R,
158,32,32,3,1,47,33,934,['c'],1,left,['9'],5,192,[0.04039043],97,47,medium,plus,dotcolour,alfa,,,95,18,V,R,
159,33,33,3,1,44,36,716,['c'],1,left,['9'],5,284,[0.10544964],100,44,hard,plus,dotcolour,alfa,,,95,18,V,R,
160,34,34,3,1,33,47,834,['c'],0,right,['9'],5,233,[0.04937991],98,47,medium,plus,dotcolour,alfa,,,95,18,V,R,
161,35,35,3,1,33,47,900,['c'],0,right,['9'],5,237,[0.10922177],100,47,medium,plus,dotcolour,alfa,,,95,18,V,R,
162,36,36,3,1,53,27,1350,['n'],0,left,['8'],4,407,[-0.06289065],97,53,easy,plus,dotcolour,alfa,,,95,18,V,R,
163,37,37,3,1,44,36,1617,['c'],1,left,['9'],5,263,[0.07473192],99,44,hard,plus,dotcolour,alfa,,,95,18,V,R,
164,38,38,3,1,36,44,850,['n'],1,right,['9'],5,236,[-0.08749734],100,44,hard,plus,dotcolour,alfa,,,95,18,V,R,
165,39,39,3,1,47,33,883,['c'],1,left,['9'],5,176,[0.12276746],100,47,medium,plus,dotcolour,alfa,,,95,18,V,R,
166,40,40,3,1,53,27,634,['c'],1,left,['9'],5,313,[0.21005496],100,53,easy,plus,dotcolour,alfa,,,95,18,V,R,
167,41,41,3,1,47,33,801,['c'],1,left,['9'],5,166,[0.06654372],100,47,medium,plus,dotcolour,alfa,,,95,18,V,R,
168,42,0,4,1,33,47,868,['c'],0,right,['9'],5,238,[0.0194764],81,47,medium,plus,dotcolour,alfa,,,95,18,V,R,
169,43,1,4,1,44,36,700,['c'],1,left,['9'],5,178,[0.05597767],99,44,hard,plus,dotcolour,alfa,,,95,18,V,R,
170,44,2,4,1,36,44,834,['n'],1,right,['9'],5,306,[-0.13291262],100,44,hard,plus,dotcolour,alfa,,,95,18,V,R,
171,45,3,4,1,53,27,617,['c'],1,left,['9'],5,310,[0.20057383],100,53,easy,plus,dotcolour,alfa,,,95,18,V,R,
172,46,4,4,1,36,44,1466,['n'],1,right,['8'],4,241,[-0.07468438],100,44,hard,plus,dotcolour,alfa,,,95,18,V,R,
173,47,5,4,1,27,53,1400,['n'],1,right,['0'],6,216,[-0.16433934],100,53,easy,plus,dotcolour,alfa,,,95,18,V,R,
174,48,6,4,1,33,47,801,['n'],1,right,['0'],6,321,[-0.01661397],74,47,medium,plus,dotcolour,alfa,,,95,18,V,R,
175,49,7,4,1,33,47,1635,['n'],1,right,['8'],4,436,[-0.10998824],100,47,medium,plus,dotcolour,alfa,,,95,18,V,R,
176,50,8,4,1,44,36,1400,['c'],1,left,['8'],4,348,[-0.01683012],26,44,hard,plus,dotcolour,alfa,,,95,18,V,R,
177,51,9,4,1,44,36,1867,['c'],1,left,['8'],4,181,[0.08144383],100,44,hard,plus,dotcolour,alfa,,,95,18,V,R,
178,52,10,4,1,44,36,1267,['c'],1,left,['9'],5,172,[0.14268615],100,44,hard,plus,dotcolour,alfa,,,95,18,V,R,
179,53,11,4,1,53,27,967,['c'],1,left,['0'],6,272,[0.14130128],100,53,easy,plus,dotcolour,alfa,,,95,18,V,R,
180,54,12,4,1,47,33,783,['c'],1,left,['0'],6,359,[0.081342],99,47,medium,plus,dotcolour,alfa,,,95,18,V,R,
181,55,13,4,1,47,33,717,['c'],1,left,['0'],6,181,[0.10542359],100,47,medium,plus,dotcolour,alfa,,,95,18,V,R,
182,56,14,4,1,44,36,700,['c'],1,left,['0'],6,299,[0.06982297],99,44,hard,plus,dotcolour,alfa,,,95,18,V,R,
183,57,15,4,1,44,36,534,['c'],1,left,['0'],6,523,[0.18865981],100,44,hard,plus,dotcolour,alfa,,,95,18,V,R,
184,58,16,4,1,47,33,717,['c'],1,left,['0'],6,202,[0.09587193],100,47,medium,plus,dotcolour,alfa,,,95,18,V,R,
185,59,17,4,1,33,47,833,['c'],0,right,['8'],4,242,[0.08550927],100,47,medium,plus,dotcolour,alfa,,,95,18,V,R,
186,60,18,4,1,27,53,667,['c'],0,right,['8'],4,223,[0.02241495],85,53,easy,plus,dotcolour,alfa,,,95,18,V,R,
187,61,19,4,1,36,44,1233,['c'],0,right,['9'],5,549,[-0.02709549],21,44,hard,plus,dotcolour,alfa,,,95,18,V,R,
188,62,20,4,1,33,47,767,['c'],0,right,['0'],6,250,[-0.01237465],29,47,medium,plus,dotcolour,alfa,,,95,18,V,R,
189,63,21,4,1,27,53,700,['c'],0,right,['9'],5,189,[0.01640639],80,53,easy,plus,dotcolour,alfa,,,95,18,V,R,
190,64,22,4,1,47,33,717,['c'],1,left,['8'],4,858,[-0.05779118],10,47,medium,plus,dotcolour,alfa,,,95,18,V,R,
191,65,23,4,1,36,44,1350,['c'],0,right,['8'],4,611,[0.01565636],67,44,hard,plus,dotcolour,alfa,,,95,18,V,R,
192,66,24,4,1,27,53,766,['c'],0,right,['9'],5,325,[-0.03489982],10,53,easy,plus,dotcolour,alfa,,,95,18,V,R,
193,67,25,4,1,33,47,1301,['n'],1,right,['0'],6,237,[-0.09903909],100,47,medium,plus,dotcolour,alfa,,,95,18,V,R,
194,68,26,4,1,36,44,749,['c'],0,right,['0'],6,223,[0.09776068],100,44,hard,plus,dotcolour,alfa,,,95,18,V,R,
195,69,27,4,1,27,53,533,['c'],0,right,['0'],6,194,[-0.00740941],35,53,easy,plus,dotcolour,alfa,,,95,18,V,R,
196,70,28,4,1,36,44,683,['c'],0,right,['0'],6,192,[0.1408392],100,44,hard,plus,dotcolour,alfa,,,95,18,V,R,
197,71,29,4,1,53,27,1033,['c'],1,left,['8'],4,240,[0.12050878],100,53,easy,plus,dotcolour,alfa,,,95,18,V,R,
198,72,30,4,1,47,33,784,['c'],1,left,['9'],5,288,[0.00226991],54,47,medium,plus,dotcolour,alfa,,,95,18,V,R,
199,73,31,4,1,47,33,800,['c'],1,left,['8'],4,246,[-0.01820352],21,47,medium,plus,dotcolour,alfa,,,95,18,V,R,
200,74,32,4,1,53,27,917,['c'],1,left,['9'],5,200,[0.13480823],100,53,easy,plus,dotcolour,alfa,,,95,18,V,R,
201,75,33,4,1,44,36,1867,['n'],0,left,['3'],3,1752,[0.03592149],27,44,hard,plus,dotcolour,alfa,,,95,18,V,R,
202,76,34,4,1,53,27,1083,['c'],1,left,['9'],5,327,[0.11941806],100,53,easy,plus,dotcolour,alfa,,,95,18,V,R,
203,77,35,4,1,36,44,1000,['n'],1,right,['9'],5,306,[0.07122267],1,44,hard,plus,dotcolour,alfa,,,95,18,V,R,
204,78,36,4,1,47,33,1300,['c'],1,left,['8'],4,267,[0.17382098],100,47,medium,plus,dotcolour,alfa,,,95,18,V,R,
205,79,37,4,1,27,53,1268,['n'],1,right,['0'],6,464,[-0.20155417],100,53,easy,plus,dotcolour,alfa,,,95,18,V,R,
206,80,38,4,1,53,27,800,['c'],1,left,['9'],5,254,[0.08051413],100,53,easy,plus,dotcolour,alfa,,,95,18,V,R,
207,81,39,4,1,53,27,1184,['c'],1,left,['9'],5,294,[0.07988576],100,53,easy,plus,dotcolour,alfa,,,95,18,V,R,
208,82,40,4,1,33,47,950,['n'],1,right,['9'],5,318,[-0.092902],100,47,medium,plus,dotcolour,alfa,,,95,18,V,R,
209,83,41,4,1,27,53,917,['n'],1,right,['9'],5,262,[-0.20233555],100,53,easy,plus,dotcolour,alfa,,,95,18,V,R,
210,84,0,5,1,53,27,2750,['c'],1,left,['9'],5,827,[0.02597057],74,53,easy,plus,dotcolour,alfa,,,95,18,V,R,
211,85,1,5,1,33,47,884,['n'],1,right,['9'],5,248,[-0.00794436],64,47,medium,plus,dotcolour,alfa,,,95,18,V,R,
212,86,2,5,1,27,53,716,['n'],1,right,['9'],5,243,[-0.11290781],100,53,easy,plus,dotcolour,alfa,,,95,18,V,R,
213,87,3,5,1,33,47,767,['n'],1,right,['9'],5,187,[-0.12017319],100,47,medium,plus,dotcolour,alfa,,,95,18,V,R,
214,88,4,5,1,36,44,2116,['n'],1,right,['3'],3,529,[-0.1346456],100,44,hard,plus,dotcolour,alfa,,,95,18,V,R,
215,89,5,5,1,33,47,817,['n'],1,right,['8'],4,228,[-0.09749192],100,47,medium,plus,dotcolour,alfa,,,95,18,V,R,
216,90,6,5,1,27,53,950,['n'],1,right,['8'],4,230,[-0.12157665],100,53,easy,plus,dotcolour,alfa,,,95,18,V,R,
217,91,7,5,1,53,27,1067,['c'],1,left,['9'],5,180,[0.11748116],100,53,easy,plus,dotcolour,alfa,,,95,18,V,R,
218,92,8,5,1,44,36,1316,['c'],1,left,['8'],4,473,[0.06541684],97,44,hard,plus,dotcolour,alfa,,,95,18,V,R,
219,93,9,5,1,47,33,1500,['c'],1,left,['8'],4,226,[0.15782323],100,47,medium,plus,dotcolour,alfa,,,95,18,V,R,
220,94,10,5,1,47,33,1984,['c'],1,left,['8'],4,203,[0.06829088],100,47,medium,plus,dotcolour,alfa,,,95,18,V,R,
221,95,11,5,1,44,36,683,['c'],1,left,['8'],4,265,[0.1475432],100,44,hard,plus,dotcolour,alfa,,,95,18,V,R,
222,96,12,5,1,27,53,1067,['c'],0,right,['8'],4,725,[0.11867243],99,53,easy,plus,dotcolour,alfa,,,95,18,V,R,
223,97,13,5,1,33,47,916,['n'],1,right,['9'],5,261,[-0.09263012],100,47,medium,plus,dotcolour,alfa,,,95,18,V,R,
224,98,14,5,1,47,33,617,['c'],1,left,['9'],5,282,[0.1587766],100,47,medium,plus,dotcolour,alfa,,,95,18,V,R,
225,99,15,5,1,36,44,1200,['n'],1,right,['8'],4,225,[-0.05051619],98,44,hard,plus,dotcolour,alfa,,,95,18,V,R,
226,100,16,5,1,53,27,900,['c'],1,left,['0'],6,525,[0.32656172],100,53,easy,plus,dotcolour,alfa,,,95,18,V,R,
227,101,17,5,1,36,44,1717,['c'],0,right,['8'],4,252,[0.17173541],100,44,hard,plus,dotcolour,alfa,,,95,18,V,R,
228,102,18,5,1,33,47,900,['n'],1,right,['9'],5,207,[-0.0433335],97,47,medium,plus,dotcolour,alfa,,,95,18,V,R,
229,103,19,5,1,44,36,1267,['c'],1,left,['9'],5,181,[0.07235328],100,44,hard,plus,dotcolour,alfa,,,95,18,V,R,
230,104,20,5,1,27,53,1000,['n'],1,right,['9'],5,255,[-0.22795539],100,53,easy,plus,dotcolour,alfa,,,95,18,V,R,
231,105,21,5,1,53,27,1066,['c'],1,left,['9'],5,260,[0.12089471],100,53,easy,plus,dotcolour,alfa,,,95,18,V,R,
232,106,22,5,1,53,27,900,['c'],1,left,['9'],5,262,[0.0813478],100,53,easy,plus,dotcolour,alfa,,,95,18,V,R,
233,107,23,5,1,47,33,900,['c'],1,left,['9'],5,225,[0.12851309],100,47,medium,plus,dotcolour,alfa,,,95,18,V,R,
234,108,24,5,1,53,27,767,['c'],1,left,['0'],6,410,[0.17005812],100,53,easy,plus,dotcolour,alfa,,,95,18,V,R,
235,109,25,5,1,44,36,1217,['c'],1,left,['9'],5,986,[0.06791198],92,44,hard,plus,dotcolour,alfa,,,95,18,V,R,
236,110,26,5,1,27,53,1000,['n'],1,right,['9'],5,243,[-0.14367194],100,53,easy,plus,dotcolour,alfa,,,95,18,V,R,
237,111,27,5,1,33,47,1167,['n'],1,right,['9'],5,220,[-0.05994116],99,47,medium,plus,dotcolour,alfa,,,95,18,V,R,
238,112,28,5,1,36,44,1816,['n'],1,right,['8'],4,452,[-0.12725322],100,44,hard,plus,dotcolour,alfa,,,95,18,V,R,
239,113,29,5,1,47,33,984,['c'],1,left,['8'],4,444,[0.22896217],100,47,medium,plus,dotcolour,alfa,,,95,18,V,R,
240,114,30,5,1,27,53,950,['n'],1,right,['9'],5,237,[-0.0786792],100,53,easy,plus,dotcolour,alfa,,,95,18,V,R,
241,115,31,5,1,36,44,1517,['n'],1,right,['8'],4,265,[-0.16261726],100,44,hard,plus,dotcolour,alfa,,,95,18,V,R,
242,116,32,5,1,47,33,1583,['c'],1,left,['8'],4,1048,[0.02471427],70,47,medium,plus,dotcolour,alfa,,,95,18,V,R,
243,117,33,5,1,27,53,900,['n'],1,right,['9'],5,276,[-0.15214352],100,53,easy,plus,dotcolour,alfa,,,95,18,V,R,
244,118,34,5,1,36,44,1017,['n'],1,right,['8'],4,169,[-0.14442066],100,44,hard,plus,dotcolour,alfa,,,95,18,V,R,
245,119,35,5,1,36,44,683,['n'],1,right,['9'],5,272,[-0.12312265],100,44,hard,plus,dotcolour,alfa,,,95,18,V,R,
246,120,36,5,1,33,47,800,['n'],1,right,['9'],5,238,[-0.07582443],100,47,medium,plus,dotcolour,alfa,,,95,18,V,R,
247,121,37,5,1,44,36,1183,['c'],1,left,['8'],4,359,[0.07255421],99,44,hard,plus,dotcolour,alfa,,,95,18,V,R,
248,122,38,5,1,47,33,700,['c'],1,left,['8'],4,350,[0.13723822],100,47,medium,plus,dotcolour,alfa,,,95,18,V,R,
249,123,39,5,1,53,27,817,['c'],1,left,['8'],4,201,[0.169044],100,53,easy,plus,dotcolour,alfa,,,95,18,V,R,
250,124,40,5,1,44,36,634,['c'],1,left,['8'],4,296,[0.16435005],100,44,hard,plus,dotcolour,alfa,,,95,18,V,R,
251,125,41,5,1,44,36,733,['c'],1,left,['8'],4,224,[0.06708148],99,44,hard,plus,dotcolour,alfa,,,95,18,V,R,
252,0,0,6,2,44,36,1451,['n'],0,left,['8'],4,252,[-0.06446537],76,44,hard,minus,dotcolour,alfa,,,95,18,V,R,
253,1,1,6,2,33,47,717,['n'],1,right,['8'],4,175,[-0.08463537],86,47,medium,minus,dotcolour,alfa,,,95,18,V,R,
254,2,2,6,2,36,44,851,['n'],1,right,['8'],4,184,[-0.04444885],72,44,hard,minus,dotcolour,alfa,,,95,18,V,R,
255,3,3,6,2,27,53,650,['n'],1,right,['0'],6,344,[-0.16199508],92,53,easy,minus,dotcolour,alfa,,,95,18,V,R,
256,4,4,6,2,27,53,767,['n'],1,right,['9'],5,212,[-0.16384872],96,53,easy,minus,dotcolour,alfa,,,95,18,V,R,
257,5,5,6,2,36,44,933,['c'],0,right,['8'],4,207,[0.06145471],77,44,hard,minus,dotcolour,alfa,,,95,18,V,R,
258,6,6,6,2,33,47,784,['n'],1,right,['9'],5,225,[-0.11010122],89,47,medium,minus,dotcolour,alfa,,,95,18,V,R,
259,7,7,6,2,27,53,833,['n'],1,right,['9'],5,151,[-0.09124917],89,53,easy,minus,dotcolour,alfa,,,95,18,V,R,
260,8,8,6,2,33,47,617,['n'],1,right,['9'],5,194,[-0.09944852],88,47,medium,minus,dotcolour,alfa,,,95,18,V,R,
261,9,9,6,2,27,53,817,['n'],1,right,['9'],5,299,[-0.18274399],95,53,easy,minus,dotcolour,alfa,,,95,18,V,R,
262,10,10,6,2,53,27,800,['c'],1,left,['9'],5,240,[0.06354004],76,53,easy,minus,dotcolour,alfa,,,95,18,V,R,
263,11,11,6,2,27,53,667,['n'],1,right,['9'],5,421,[-0.12314997],85,53,easy,minus,dotcolour,alfa,,,95,18,V,R,
264,12,12,6,2,53,27,1250,['c'],1,left,['9'],5,179,[0.12014858],93,53,easy,minus,dotcolour,alfa,,,95,18,V,R,
265,13,13,6,2,47,33,700,['c'],1,left,['9'],5,177,[0.10937191],91,47,medium,minus,dotcolour,alfa,,,95,18,V,R,
266,14,14,6,2,47,33,834,['c'],1,left,['9'],5,178,[0.1822031],98,47,medium,minus,dotcolour,alfa,,,95,18,V,R,
267,15,15,6,2,53,27,550,['c'],1,left,['9'],5,198,[0.09263961],87,53,easy,minus,dotcolour,alfa,,,95,18,V,R,
268,16,16,6,2,47,33,567,['c'],1,left,['9'],5,201,[0.14272166],95,47,medium,minus,dotcolour,alfa,,,95,18,V,R,
269,17,17,6,2,36,44,816,['n'],1,right,['9'],5,233,[-0.04881681],71,44,hard,minus,dotcolour,alfa,,,95,18,V,R,
270,18,18,6,2,27,53,701,['n'],1,right,['9'],5,174,[-0.0498805],75,53,easy,minus,dotcolour,alfa,,,95,18,V,R,
271,19,19,6,2,36,44,784,['c'],0,right,['9'],5,176,[0.05137569],75,44,hard,minus,dotcolour,alfa,,,95,18,V,R,
272,20,20,6,2,53,27,933,['c'],1,left,['9'],5,181,[0.11851067],92,53,easy,minus,dotcolour,alfa,,,95,18,V,R,
273,21,21,6,2,44,36,767,['c'],1,left,['9'],5,192,[0.11039549],91,44,hard,minus,dotcolour,alfa,,,95,18,V,R,
274,22,22,6,2,33,47,917,['n'],1,right,['9'],5,253,[-0.00225341],51,47,medium,minus,dotcolour,alfa,,,95,18,V,R,
275,23,23,6,2,47,33,766,['c'],1,left,['8'],4,230,[0.03994002],68,47,medium,minus,dotcolour,alfa,,,95,18,V,R,
276,24,24,6,2,27,53,734,['n'],1,right,['9'],5,232,[-0.09045579],84,53,easy,minus,dotcolour,alfa,,,95,18,V,R,
277,25,25,6,2,44,36,650,['c'],1,left,['9'],5,246,[0.07996667],81,44,hard,minus,dotcolour,alfa,,,95,18,V,R,
278,26,26,6,2,47,33,616,['c'],1,left,['9'],5,189,[0.11778164],92,47,medium,minus,dotcolour,alfa,,,95,18,V,R,
279,27,27,6,2,47,33,617,['c'],1,left,['9'],5,175,[0.01233555],57,47,medium,minus,dotcolour,alfa,,,95,18,V,R,
280,28,28,6,2,47,33,583,['c'],1,left,['9'],5,202,[0.05598962],75,47,medium,minus,dotcolour,alfa,,,95,18,V,R,
281,29,29,6,2,53,27,567,['c'],1,left,['9'],5,228,[0.06277382],77,53,easy,minus,dotcolour,alfa,,,95,18,V,R,
282,30,30,6,2,53,27,550,['c'],1,left,['9'],5,206,[0.04861541],72,53,easy,minus,dotcolour,alfa,,,95,18,V,R,
283,31,31,6,2,44,36,1234,['c'],1,left,['8'],4,190,[0.0971249],88,44,hard,minus,dotcolour,alfa,,,95,18,V,R,
284,32,32,6,2,33,47,934,['n'],1,right,['8'],4,234,[-0.14479954],94,47,medium,minus,dotcolour,alfa,,,95,18,V,R,
285,33,33,6,2,36,44,950,['n'],1,right,['8'],4,156,[-0.09424941],90,44,hard,minus,dotcolour,alfa,,,95,18,V,R,
286,34,34,6,2,36,44,600,['c'],0,right,['8'],4,366,[0.13911649],89,44,hard,minus,dotcolour,alfa,,,95,18,V,R,
287,35,35,6,2,33,47,1001,['n'],1,right,['8'],4,201,[-0.11597149],91,47,medium,minus,dotcolour,alfa,,,95,18,V,R,
288,36,36,6,2,44,36,884,['c'],1,left,['8'],4,190,[0.1548673],96,44,hard,minus,dotcolour,alfa,,,95,18,V,R,
289,37,37,6,2,44,36,833,['c'],1,left,['8'],4,222,[0.08224061],83,44,hard,minus,dotcolour,alfa,,,95,18,V,R,
290,38,38,6,2,53,27,900,['c'],1,left,['9'],5,276,[0.04995851],70,53,easy,minus,dotcolour,alfa,,,95,18,V,R,
291,39,39,6,2,36,44,933,['n'],1,right,['8'],4,172,[-0.06651831],81,44,hard,minus,dotcolour,alfa,,,95,18,V,R,
292,40,40,6,2,44,36,800,['c'],1,left,['8'],4,230,[0.04086579],68,44,hard,minus,dotcolour,alfa,,,95,18,V,R,
293,41,41,6,2,33,47,1168,['n'],1,right,['8'],4,159,[-0.13561454],96,47,medium,minus,dotcolour,alfa,,,95,18,V,R,
294,42,0,7,2,47,33,1368,['n'],0,left,['8'],4,187,[-0.01579853],58,47,medium,minus,dotcolour,alfa,,,95,18,V,R,
295,43,1,7,2,44,36,784,['c'],1,left,['9'],5,333,[0.0507954],69,44,hard,minus,dotcolour,alfa,,,95,18,V,R,
296,44,2,7,2,36,44,1134,['n'],1,right,['9'],5,196,[-0.06084028],78,44,hard,minus,dotcolour,alfa,,,95,18,V,R,
297,45,3,7,2,44,36,834,['c'],1,left,['8'],4,284,[0.0592841],73,44,hard,minus,dotcolour,alfa,,,95,18,V,R,
298,46,4,7,2,27,53,650,['c'],0,right,['8'],4,200,[0.09615331],87,53,easy,minus,dotcolour,alfa,,,95,18,V,R,
299,47,5,7,2,53,27,1083,['c'],1,left,['8'],4,238,[0.15301603],94,53,easy,minus,dotcolour,alfa,,,95,18,V,R,
300,48,6,7,2,44,36,817,['c'],1,left,['8'],4,205,[0.19281529],98,44,hard,minus,dotcolour,alfa,,,95,18,V,R,
301,49,7,7,2,44,36,850,['c'],1,left,['8'],4,276,[0.10316097],85,44,hard,minus,dotcolour,alfa,,,95,18,V,R,
302,50,8,7,2,33,47,566,['c'],0,right,['8'],4,259,[0.01242709],55,47,medium,minus,dotcolour,alfa,,,95,18,V,R,
303,51,9,7,2,27,53,765,['c'],0,right,['8'],4,250,[-0.04432423],31,53,easy,minus,dotcolour,alfa,,,95,18,V,R,
304,52,10,7,2,36,44,3384,['n'],1,right,['8'],4,210,[-0.10573445],89,44,hard,minus,dotcolour,alfa,,,95,18,V,R,
305,53,11,7,2,47,33,817,['c'],1,left,['8'],4,186,[0.03588363],68,47,medium,minus,dotcolour,alfa,,,95,18,V,R,
306,54,12,7,2,36,44,867,['n'],1,right,['8'],4,169,[-0.07021714],82,44,hard,minus,dotcolour,alfa,,,95,18,V,R,
307,55,13,7,2,47,33,884,['c'],1,left,['9'],5,201,[0.09287051],87,47,medium,minus,dotcolour,alfa,,,95,18,V,R,
308,56,14,7,2,33,47,817,['n'],1,right,['9'],5,201,[-0.07869169],83,47,medium,minus,dotcolour,alfa,,,95,18,V,R,
309,57,15,7,2,53,27,784,['c'],1,left,['9'],5,196,[0.13969339],94,53,easy,minus,dotcolour,alfa,,,95,18,V,R,
310,58,16,7,2,27,53,850,['n'],1,right,['9'],5,195,[-0.03242874],66,53,easy,minus,dotcolour,alfa,,,95,18,V,R,
311,59,17,7,2,53,27,634,['c'],1,left,['8'],4,331,[0.13449184],89,53,easy,minus,dotcolour,alfa,,,95,18,V,R,
312,60,18,7,2,27,53,834,['n'],1,right,['9'],5,198,[-0.11021877],90,53,easy,minus,dotcolour,alfa,,,95,18,V,R,
313,61,19,7,2,47,33,617,['c'],1,left,['8'],4,222,[0.13935323],93,47,medium,minus,dotcolour,alfa,,,95,18,V,R,
314,62,20,7,2,36,44,684,['n'],1,right,['9'],5,227,[-0.07569009],81,44,hard,minus,dotcolour,alfa,,,95,18,V,R,
315,63,21,7,2,36,44,916,['n'],1,right,['8'],4,190,[-0.03353642],67,44,hard,minus,dotcolour,alfa,,,95,18,V,R,
316,64,22,7,2,53,27,583,['c'],1,left,['9'],5,280,[0.10435034],86,53,easy,minus,dotcolour,alfa,,,95,18,V,R,
317,65,23,7,2,53,27,717,['c'],1,left,['9'],5,202,[0.12332123],92,53,easy,minus,dotcolour,alfa,,,95,18,V,R,
318,66,24,7,2,44,36,617,['c'],1,left,['9'],5,115,[0.07682577],88,44,hard,minus,dotcolour,alfa,,,95,18,V,R,
319,67,25,7,2,53,27,750,['c'],1,left,['9'],5,201,[0.12282972],92,53,easy,minus,dotcolour,alfa,,,95,18,V,R,
320,68,26,7,2,44,36,1350,['n'],0,left,['8'],4,164,[-0.09056371],88,44,hard,minus,dotcolour,alfa,,,95,18,V,R,
321,69,27,7,2,47,33,800,['c'],1,left,['9'],5,167,[0.16967294],98,47,medium,minus,dotcolour,alfa,,,95,18,V,R,
322,70,28,7,2,53,27,583,['c'],1,left,['9'],5,218,[0.096931],87,53,easy,minus,dotcolour,alfa,,,95,18,V,R,
323,71,29,7,2,33,47,1250,['n'],1,right,['8'],4,177,[-0.06140832],79,47,medium,minus,dotcolour,alfa,,,95,18,V,R,
324,72,30,7,2,47,33,850,['c'],1,left,['9'],5,137,[0.12687668],96,47,medium,minus,dotcolour,alfa,,,95,18,V,R,
325,73,31,7,2,33,47,967,['n'],1,right,['8'],4,167,[-0.14069135],96,47,medium,minus,dotcolour,alfa,,,95,18,V,R,
326,74,32,7,2,27,53,750,['n'],1,right,['9'],5,172,[-0.09433375],89,53,easy,minus,dotcolour,alfa,,,95,18,V,R,
327,75,33,7,2,36,44,733,['n'],1,right,['9'],5,176,[-0.06324939],80,44,hard,minus,dotcolour,alfa,,,95,18,V,R,
328,76,34,7,2,27,53,734,['n'],1,right,['9'],5,181,[-0.05007614],74,53,easy,minus,dotcolour,alfa,,,95,18,V,R,
329,77,35,7,2,33,47,950,['n'],1,right,['9'],5,521,[-0.15765759],88,47,medium,minus,dotcolour,alfa,,,95,18,V,R,
330,78,36,7,2,47,33,667,['c'],1,left,['9'],5,235,[0.09356382],85,47,medium,minus,dotcolour,alfa,,,95,18,V,R,
331,79,37,7,2,27,53,850,['n'],1,right,['9'],5,169,[-0.01537094],58,53,easy,minus,dotcolour,alfa,,,95,18,V,R,
332,80,38,7,2,36,44,1150,['n'],1,right,['9'],5,237,[-0.12165909],90,44,hard,minus,dotcolour,alfa,,,95,18,V,R,
333,81,39,7,2,33,47,2033,['n'],1,right,['8'],4,180,[-0.12474361],93,47,medium,minus,dotcolour,alfa,,,95,18,V,R,
334,82,40,7,2,44,36,800,['c'],1,left,['9'],5,175,[0.06052175],79,44,hard,minus,dotcolour,alfa,,,95,18,V,R,
335,83,41,7,2,33,47,766,['n'],1,right,['9'],5,177,[-0.10237901],90,47,medium,minus,dotcolour,alfa,,,95,18,V,R,
336,84,0,8,2,36,44,901,['n'],1,right,['8'],4,348,[-0.07245853],75,44,hard,minus,dotcolour,alfa,,,95,18,V,R,
337,85,1,8,2,47,33,1051,['c'],1,left,['9'],5,198,[0.03501067],67,47,medium,minus,dotcolour,alfa,,,95,18,V,R,
338,86,2,8,2,44,36,817,['c'],1,left,['8'],4,230,[0.09965584],87,44,hard,minus,dotcolour,alfa,,,95,18,V,R,
339,87,3,8,2,53,27,517,['c'],1,left,['8'],4,290,[0.03924489],66,53,easy,minus,dotcolour,alfa,,,95,18,V,R,
340,88,4,8,2,44,36,916,['n'],0,left,['9'],5,210,[-0.01704446],58,44,hard,minus,dotcolour,alfa,,,95,18,V,R,
341,89,5,8,2,47,33,750,['c'],1,left,['8'],4,221,[0.10657337],88,47,medium,minus,dotcolour,alfa,,,95,18,V,R,
342,90,6,8,2,53,27,3451,['n'],0,left,['9'],5,668,[0.0836787],28,53,easy,minus,dotcolour,alfa,,,95,18,V,R,
343,91,7,8,2,53,27,701,['c'],1,left,['9'],5,262,[0.05892802],74,53,easy,minus,dotcolour,alfa,,,95,18,V,R,
344,92,8,8,2,33,47,749,['n'],1,right,['9'],5,175,[-0.0527964],76,47,medium,minus,dotcolour,alfa,,,95,18,V,R,
345,93,9,8,2,36,44,666,['n'],1,right,['9'],5,206,[-0.16427811],96,44,hard,minus,dotcolour,alfa,,,95,18,V,R,
346,94,10,8,2,47,33,634,['c'],1,left,['9'],5,213,[0.10860741],89,47,medium,minus,dotcolour,alfa,,,95,18,V,R,
347,95,11,8,2,27,53,717,['n'],1,right,['9'],5,178,[-0.10548243],90,53,easy,minus,dotcolour,alfa,,,95,18,V,R,
348,96,12,8,2,33,47,717,['n'],1,right,['9'],5,167,[-0.08426653],86,47,medium,minus,dotcolour,alfa,,,95,18,V,R,
349,97,13,8,2,47,33,1233,['c'],1,left,['9'],5,192,[0.05373599],75,47,medium,minus,dotcolour,alfa,,,95,18,V,R,
350,98,14,8,2,27,53,851,['n'],1,right,['9'],5,207,[-0.06117487],77,53,easy,minus,dotcolour,alfa,,,95,18,V,R,
351,99,15,8,2,44,36,1050,['n'],0,left,['8'],4,205,[-0.09756987],87,44,hard,minus,dotcolour,alfa,,,95,18,V,R,
352,100,16,8,2,53,27,800,['c'],1,left,['9'],5,230,[0.03464178],66,53,easy,minus,dotcolour,alfa,,,95,18,V,R,
353,101,17,8,2,33,47,1300,['c'],0,right,['8'],4,218,[0.03163772],65,47,medium,minus,dotcolour,alfa,,,95,18,V,R,
354,102,18,8,2,36,44,917,['n'],1,right,['9'],5,215,[-0.09059183],85,44,hard,minus,dotcolour,alfa,,,95,18,V,R,
355,103,19,8,2,33,47,2434,['n'],1,right,['8'],4,198,[-0.08687833],85,47,medium,minus,dotcolour,alfa,,,95,18,V,R,
356,104,20,8,2,36,44,884,['n'],1,right,['8'],4,180,[0.00280716],49,44,hard,minus,dotcolour,alfa,,,95,18,V,R,
357,105,21,8,2,27,53,701,['n'],1,right,['9'],5,218,[-0.09854138],87,53,easy,minus,dotcolour,alfa,,,95,18,V,R,
358,106,22,8,2,44,36,750,['c'],1,left,['8'],4,581,[0.16928079],88,44,hard,minus,dotcolour,alfa,,,95,18,V,R,
359,107,23,8,2,27,53,751,['n'],1,right,['9'],5,169,[-0.13660649],95,53,easy,minus,dotcolour,alfa,,,95,18,V,R,
360,108,24,8,2,47,33,917,['c'],1,left,['8'],4,231,[0.09273392],85,47,medium,minus,dotcolour,alfa,,,95,18,V,R,
361,109,25,8,2,27,53,602,['n'],1,right,['9'],5,239,[-0.04151671],68,53,easy,minus,dotcolour,alfa,,,95,18,V,R,
362,110,26,8,2,33,47,633,['n'],1,right,['9'],5,245,[-0.03669103],66,47,medium,minus,dotcolour,alfa,,,95,18,V,R,
363,111,27,8,2,44,36,683,['c'],1,left,['8'],4,297,[0.02714208],61,44,hard,minus,dotcolour,alfa,,,95,18,V,R,
364,112,28,8,2,36,44,1583,['n'],1,right,['8'],4,207,[-0.07371778],81,44,hard,minus,dotcolour,alfa,,,95,18,V,R,
365,113,29,8,2,53,27,682,['c'],1,left,['9'],5,181,[0.11657477],92,53,easy,minus,dotcolour,alfa,,,95,18,V,R,
366,114,30,8,2,36,44,950,['n'],1,right,['9'],5,185,[-0.10267694],90,44,hard,minus,dotcolour,alfa,,,95,18,V,R,
367,115,31,8,2,53,27,983,['c'],1,left,['8'],4,220,[0.11677395],90,53,easy,minus,dotcolour,alfa,,,95,18,V,R,
368,116,32,8,2,44,36,934,['c'],1,left,['9'],5,391,[0.19931577],95,44,hard,minus,dotcolour,alfa,,,95,18,V,R,
369,117,33,8,2,33,47,5184,['n'],1,right,['3'],3,833,[-0.18042162],86,47,medium,minus,dotcolour,alfa,,,95,18,V,R,
370,118,34,8,2,47,33,950,['c'],1,left,['8'],4,283,[0.03015201],62,47,medium,minus,dotcolour,alfa,,,95,18,V,R,
371,119,35,8,2,27,53,933,['n'],1,right,['8'],4,283,[-0.21471178],97,53,easy,minus,dotcolour,alfa,,,95,18,V,R,
372,120,36,8,2,53,27,632,['c'],1,left,['9'],5,336,[0.10519942],84,53,easy,minus,dotcolour,alfa,,,95,18,V,R,
373,121,37,8,2,33,47,800,['c'],0,right,['8'],4,284,[0.05312785],71,47,medium,minus,dotcolour,alfa,,,95,18,V,R,
374,122,38,8,2,27,53,933,['c'],0,right,['9'],5,221,[0.01835798],59,53,easy,minus,dotcolour,alfa,,,95,18,V,R,
375,123,39,8,2,47,33,1317,['n'],0,left,['8'],4,217,[-0.00816125],54,47,medium,minus,dotcolour,alfa,,,95,18,V,R,
376,124,40,8,2,44,36,4284,['n'],0,left,['3'],3,319,[-0.08406201],79,44,hard,minus,dotcolour,alfa,,,95,18,V,R,
377,125,41,8,2,36,44,1350,['n'],1,right,['8'],4,189,[-0.11380265],91,44,hard,minus,dotcolour,alfa,,,95,18,V,R,
378,0,0,9,3,36,44,1134,['n'],1,right,['8'],4,206,[-0.15242526],100,44,hard,plus,dotcolour,alfa,,,95,18,V,R,
379,1,1,9,3,36,44,801,['c'],0,right,['8'],4,222,[0.08156084],100,44,hard,plus,dotcolour,alfa,,,95,18,V,R,
380,2,2,9,3,47,33,817,['c'],1,left,['8'],4,230,[0.08157398],100,47,medium,plus,dotcolour,alfa,,,95,18,V,R,
381,3,3,9,3,36,44,850,['n'],1,right,['8'],4,164,[-0.0492456],99,44,hard,plus,dotcolour,alfa,,,95,18,V,R,
382,4,4,9,3,33,47,767,['n'],1,right,['8'],4,176,[-0.05318254],99,47,medium,plus,dotcolour,alfa,,,95,18,V,R,
383,5,5,9,3,53,27,716,['c'],1,left,['8'],4,181,[0.10931874],100,53,easy,plus,dotcolour,alfa,,,95,18,V,R,
384,6,6,9,3,33,47,867,['n'],1,right,['8'],4,164,[-0.1130652],100,47,medium,plus,dotcolour,alfa,,,95,18,V,R,
385,7,7,9,3,44,36,1283,['c'],1,left,['8'],4,1701,[0.14001012],98,44,hard,plus,dotcolour,alfa,,,95,18,V,R,
386,8,8,9,3,36,44,2350,['n'],1,right,['8'],4,195,[-0.07673908],100,44,hard,plus,dotcolour,alfa,,,95,18,V,R,
387,9,9,9,3,53,27,800,['c'],1,left,['8'],4,172,[0.05760271],99,53,easy,plus,dotcolour,alfa,,,95,18,V,R,
388,10,10,9,3,53,27,600,['c'],1,left,['8'],4,263,[0.10353183],100,53,easy,plus,dotcolour,alfa,,,95,18,V,R,
389,11,11,9,3,36,44,1283,['n'],1,right,['8'],4,202,[-0.15796615],100,44,hard,plus,dotcolour,alfa,,,95,18,V,R,
390,12,12,9,3,36,44,1334,['c'],0,right,['8'],4,142,[0.07116626],100,44,hard,plus,dotcolour,alfa,,,95,18,V,R,
391,13,13,9,3,27,53,650,['n'],1,right,['8'],4,183,[-0.13876717],100,53,easy,plus,dotcolour,alfa,,,95,18,V,R,
392,14,14,9,3,53,27,917,['c'],1,left,['9'],5,125,[0.08338092],100,53,easy,plus,dotcolour,alfa,,,95,18,V,R,
393,15,15,9,3,53,27,1634,['c'],1,left,['8'],4,199,[0.13094025],100,53,easy,plus,dotcolour,alfa,,,95,18,V,R,
394,16,16,9,3,27,53,851,['n'],1,right,['9'],5,167,[-0.12817065],100,53,easy,plus,dotcolour,alfa,,,95,18,V,R,
395,17,17,9,3,33,47,667,['n'],1,right,['9'],5,191,[-0.07136159],100,47,medium,plus,dotcolour,alfa,,,95,18,V,R,
396,18,18,9,3,33,47,933,['n'],1,right,['9'],5,155,[-0.09236859],100,47,medium,plus,dotcolour,alfa,,,95,18,V,R,
397,19,19,9,3,27,53,684,['n'],1,right,['9'],5,187,[-0.10280692],100,53,easy,plus,dotcolour,alfa,,,95,18,V,R,
398,20,20,9,3,53,27,734,['c'],1,left,['8'],4,216,[0.09371027],100,53,easy,plus,dotcolour,alfa,,,95,18,V,R,
399,21,21,9,3,36,44,733,['n'],1,right,['9'],5,155,[-0.11925658],100,44,hard,plus,dotcolour,alfa,,,95,18,V,R,
400,22,22,9,3,44,36,883,['c'],1,left,['9'],5,203,[0.06525756],99,44,hard,plus,dotcolour,alfa,,,95,18,V,R,
401,23,23,9,3,33,47,733,['n'],1,right,['8'],4,231,[-0.21942634],100,47,medium,plus,dotcolour,alfa,,,95,18,V,R,
402,24,24,9,3,27,53,717,['n'],1,right,['9'],5,178,[-0.10637858],100,53,easy,plus,dotcolour,alfa,,,95,18,V,R,
403,25,25,9,3,33,47,716,['n'],1,right,['9'],5,200,[-0.14984008],100,47,medium,plus,dotcolour,alfa,,,95,18,V,R,
404,26,26,9,3,47,33,784,['c'],1,left,['9'],5,177,[0.05316232],99,47,medium,plus,dotcolour,alfa,,,95,18,V,R,
405,27,27,9,3,27,53,650,['n'],1,right,['9'],5,210,[-0.12903314],100,53,easy,plus,dotcolour,alfa,,,95,18,V,R,
406,28,28,9,3,44,36,833,['c'],1,left,['9'],5,130,[0.04882085],99,44,hard,plus,dotcolour,alfa,,,95,18,V,R,
407,29,29,9,3,47,33,1133,['c'],1,left,['8'],4,1008,[0.24475176],100,47,medium,plus,dotcolour,alfa,,,95,18,V,R,
408,30,30,9,3,27,53,800,['n'],1,right,['9'],5,185,[-0.09249611],100,53,easy,plus,dotcolour,alfa,,,95,18,V,R,
409,31,31,9,3,47,33,1317,['c'],1,left,['8'],4,478,[0.04734162],92,47,medium,plus,dotcolour,alfa,,,95,18,V,R,
410,32,32,9,3,33,47,1016,['n'],1,right,['8'],4,187,[-0.0720015],100,47,medium,plus,dotcolour,alfa,,,95,18,V,R,
411,33,33,9,3,44,36,917,['c'],1,left,['8'],4,168,[0.09607995],100,44,hard,plus,dotcolour,alfa,,,95,18,V,R,
412,34,34,9,3,47,33,1467,['c'],1,left,['8'],4,489,[0.04944807],93,47,medium,plus,dotcolour,alfa,,,95,18,V,R,
413,35,35,9,3,47,33,734,['c'],1,left,['8'],4,241,[0.2103298],100,47,medium,plus,dotcolour,alfa,,,95,18,V,R,
414,36,36,9,3,47,33,650,['c'],1,left,['8'],4,222,[0.07224715],100,47,medium,plus,dotcolour,alfa,,,95,18,V,R,
415,37,37,9,3,44,36,668,['c'],1,left,['8'],4,220,[0.06976416],100,44,hard,plus,dotcolour,alfa,,,95,18,V,R,
416,38,38,9,3,53,27,566,['c'],1,left,['8'],4,246,[0.16664987],100,53,easy,plus,dotcolour,alfa,,,95,18,V,R,
417,39,39,9,3,44,36,867,['n'],0,left,['8'],4,179,[-0.06136079],99,44,hard,plus,dotcolour,alfa,,,95,18,V,R,
418,40,40,9,3,44,36,868,['c'],1,left,['8'],4,274,[0.13046917],100,44,hard,plus,dotcolour,alfa,,,95,18,V,R,
419,41,41,9,3,27,53,850,['n'],1,right,['8'],4,198,[-0.12615472],100,53,easy,plus,dotcolour,alfa,,,95,18,V,R,
420,42,0,10,3,27,53,816,['n'],1,right,['8'],4,306,[-0.17937518],100,53,easy,plus,dotcolour,alfa,,,95,18,V,R,
421,43,1,10,3,53,27,668,['c'],1,left,['8'],4,204,[0.04050795],96,53,easy,plus,dotcolour,alfa,,,95,18,V,R,
422,44,2,10,3,44,36,667,['c'],1,left,['8'],4,194,[0.07683456],100,44,hard,plus,dotcolour,alfa,,,95,18,V,R,
423,45,3,10,3,53,27,734,['c'],1,left,['8'],4,207,[0.08364131],100,53,easy,plus,dotcolour,alfa,,,95,18,V,R,
424,46,4,10,3,33,47,834,['c'],0,right,['8'],4,190,[-0.04300305],3,47,medium,plus,dotcolour,alfa,,,95,18,V,R,
425,47,5,10,3,47,33,718,['c'],1,left,['8'],4,227,[0.08266614],100,47,medium,plus,dotcolour,alfa,,,95,18,V,R,
426,48,6,10,3,33,47,799,['n'],1,right,['8'],4,163,[-0.06809243],100,47,medium,plus,dotcolour,alfa,,,95,18,V,R,
427,49,7,10,3,27,53,700,['n'],1,right,['9'],5,193,[-0.04966723],98,53,easy,plus,dotcolour,alfa,,,95,18,V,R,
428,50,8,10,3,47,33,683,['c'],1,left,['8'],4,319,[0.15016663],100,47,medium,plus,dotcolour,alfa,,,95,18,V,R,
429,51,9,10,3,36,44,849,['n'],1,right,['9'],5,250,[-0.10104304],100,44,hard,plus,dotcolour,alfa,,,95,18,V,R,
430,52,10,10,3,36,44,1084,['n'],1,right,['8'],4,278,[-0.03274114],90,44,hard,plus,dotcolour,alfa,,,95,18,V,R,
431,53,11,10,3,47,33,683,['c'],1,left,['9'],5,265,[0.14848629],100,47,medium,plus,dotcolour,alfa,,,95,18,V,R,
432,54,12,10,3,47,33,700,['c'],1,left,['9'],5,180,[0.01552495],79,47,medium,plus,dotcolour,alfa,,,95,18,V,R,
433,55,13,10,3,44,36,1834,['n'],0,left,['8'],4,204,[0.0199389],17,44,hard,plus,dotcolour,alfa,,,95,18,V,R,
434,56,14,10,3,53,27,733,['c'],1,left,['9'],5,160,[0.17295975],100,53,easy,plus,dotcolour,alfa,,,95,18,V,R,
435,57,15,10,3,53,27,433,['c'],1,left,['9'],5,194,[0.12154207],100,53,easy,plus,dotcolour,alfa,,,95,18,V,R,
436,58,16,10,3,44,36,984,['c'],1,left,['8'],4,475,[0.24879408],100,44,hard,plus,dotcolour,alfa,,,95,18,V,R,
437,59,17,10,3,27,53,867,['c'],0,right,['9'],5,303,[-0.02269922],18,53,easy,plus,dotcolour,alfa,,,95,18,V,R,
438,60,18,10,3,47,33,916,['c'],1,left,['8'],4,304,[0.0169965],75,47,medium,plus,dotcolour,alfa,,,95,18,V,R,
439,61,19,10,3,33,47,900,['n'],1,right,['8'],4,201,[-0.08458338],100,47,medium,plus,dotcolour,alfa,,,95,18,V,R,
440,62,20,10,3,53,27,800,['c'],1,left,['8'],4,250,[0.14318698],100,53,easy,plus,dotcolour,alfa,,,95,18,V,R,
441,63,21,10,3,27,53,1083,['n'],1,right,['9'],5,174,[-0.11192569],100,53,easy,plus,dotcolour,alfa,,,95,18,V,R,
442,64,22,10,3,44,36,650,['c'],1,left,['8'],4,206,[0.16721181],100,44,hard,plus,dotcolour,alfa,,,95,18,V,R,
443,65,23,10,3,33,47,734,['n'],1,right,['9'],5,162,[0.00067742],48,47,medium,plus,dotcolour,alfa,,,95,18,V,R,
444,66,24,10,3,47,33,634,['c'],1,left,['8'],4,299,[0.22097675],100,47,medium,plus,dotcolour,alfa,,,95,18,V,R,
445,67,25,10,3,36,44,783,['n'],1,right,['9'],5,281,[-0.00408211],57,44,hard,plus,dotcolour,alfa,,,95,18,V,R,
446,68,26,10,3,44,36,1534,['c'],1,left,['8'],4,202,[0.14231631],100,44,hard,plus,dotcolour,alfa,,,95,18,V,R,
447,69,27,10,3,33,47,833,['n'],1,right,['8'],4,346,[-0.19363358],100,47,medium,plus,dotcolour,alfa,,,95,18,V,R,
448,70,28,10,3,36,44,900,['c'],0,right,['1'],1,2057,[-0.06777239],15,44,hard,plus,dotcolour,alfa,,,95,18,V,R,
449,71,29,10,3,47,33,1017,['c'],1,left,['8'],4,191,[0.10450135],100,47,medium,plus,dotcolour,alfa,,,95,18,V,R,
450,72,30,10,3,36,44,883,['n'],1,right,['8'],4,149,[-0.02916711],94,44,hard,plus,dotcolour,alfa,,,95,18,V,R,
451,73,31,10,3,27,53,800,['n'],1,right,['8'],4,201,[-0.11865443],100,53,easy,plus,dotcolour,alfa,,,95,18,V,R,
452,74,32,10,3,27,53,650,['n'],1,right,['9'],5,264,[-0.12255625],100,53,easy,plus,dotcolour,alfa,,,95,18,V,R,
453,75,33,10,3,33,47,1050,['n'],1,right,['9'],5,188,[-0.0651187],100,47,medium,plus,dotcolour,alfa,,,95,18,V,R,
454,76,34,10,3,53,27,884,['c'],1,left,['8'],4,195,[0.04145227],97,53,easy,plus,dotcolour,alfa,,,95,18,V,R,
455,77,35,10,3,53,27,683,['c'],1,left,['9'],5,338,[0.17502976],100,53,easy,plus,dotcolour,alfa,,,95,18,V,R,
456,78,36,10,3,44,36,566,['c'],1,left,['9'],5,175,[0.01806305],83,44,hard,plus,dotcolour,alfa,,,95,18,V,R,
457,79,37,10,3,36,44,1266,['n'],1,right,['8'],4,223,[-0.08477981],100,44,hard,plus,dotcolour,alfa,,,95,18,V,R,
458,80,38,10,3,27,53,884,['c'],0,right,['9'],5,99,[0.04845204],100,53,easy,plus,dotcolour,alfa,,,95,18,V,R,
459,81,39,10,3,33,47,500,['c'],0,right,['9'],5,317,[0.07112253],99,47,medium,plus,dotcolour,alfa,,,95,18,V,R,
460,82,40,10,3,36,44,666,['c'],0,right,['9'],5,263,[0.02727389],87,44,hard,plus,dotcolour,alfa,,,95,18,V,R,
461,83,41,10,3,44,36,749,['c'],1,left,['9'],5,199,[0.1067123],100,44,hard,plus,dotcolour,alfa,,,95,18,V,R,
462,84,0,11,3,44,36,967,['c'],1,left,['8'],4,177,[0.01033255],71,44,hard,plus,dotcolour,alfa,,,95,18,V,R,
463,85,1,11,3,33,47,732,['n'],1,right,['9'],5,246,[-0.11823926],100,47,medium,plus,dotcolour,alfa,,,95,18,V,R,
464,86,2,11,3,33,47,750,['n'],1,right,['9'],5,191,[-0.13674866],100,47,medium,plus,dotcolour,alfa,,,95,18,V,R,
465,87,3,11,3,47,33,900,['c'],1,left,['8'],4,189,[0.17098002],100,47,medium,plus,dotcolour,alfa,,,95,18,V,R,
466,88,4,11,3,36,44,767,['n'],1,right,['9'],5,256,[-0.05172317],98,44,hard,plus,dotcolour,alfa,,,95,18,V,R,
467,89,5,11,3,44,36,1400,['c'],1,left,['8'],4,231,[0.08306878],100,44,hard,plus,dotcolour,alfa,,,95,18,V,R,
468,90,6,11,3,44,36,867,['c'],1,left,['8'],4,252,[0.11075683],100,44,hard,plus,dotcolour,alfa,,,95,18,V,R,
469,91,7,11,3,33,47,749,['n'],1,right,['9'],5,182,[-0.06057464],99,47,medium,plus,dotcolour,alfa,,,95,18,V,R,
470,92,8,11,3,27,53,715,['n'],1,right,['9'],5,203,[-0.17392748],100,53,easy,plus,dotcolour,alfa,,,95,18,V,R,
471,93,9,11,3,27,53,633,['n'],1,right,['9'],5,203,[-0.13126239],100,53,easy,plus,dotcolour,alfa,,,95,18,V,R,
472,94,10,11,3,36,44,1299,['n'],1,right,['8'],4,145,[-0.05759672],100,44,hard,plus,dotcolour,alfa,,,95,18,V,R,
473,95,11,11,3,53,27,633,['c'],1,left,['8'],4,235,[0.06354354],99,53,easy,plus,dotcolour,alfa,,,95,18,V,R,
474,96,12,11,3,36,44,817,['n'],1,right,['9'],5,178,[-0.07208464],100,44,hard,plus,dotcolour,alfa,,,95,18,V,R,
475,97,13,11,3,44,36,733,['c'],1,left,['9'],5,111,[0.07203913],100,44,hard,plus,dotcolour,alfa,,,95,18,V,R,
476,98,14,11,3,44,36,783,['n'],0,left,['2'],2,1324,[-0.07933154],92,44,hard,plus,dotcolour,alfa,,,95,18,V,R,
477,99,15,11,3,27,53,752,['n'],1,right,['9'],5,154,[-0.07264038],100,53,easy,plus,dotcolour,alfa,,,95,18,V,R,
478,100,16,11,3,27,53,715,['n'],1,right,['9'],5,193,[-0.0797463],100,53,easy,plus,dotcolour,alfa,,,95,18,V,R,
479,101,17,11,3,53,27,783,['c'],1,left,['8'],4,170,[0.09820793],100,53,easy,plus,dotcolour,alfa,,,95,18,V,R,
480,102,18,11,3,33,47,766,['n'],1,right,['9'],5,222,[-0.07744586],100,47,medium,plus,dotcolour,alfa,,,95,18,V,R,
481,103,19,11,3,36,44,1133,['c'],0,right,['8'],4,418,[0.17221481],100,44,hard,plus,dotcolour,alfa,,,95,18,V,R,
482,104,20,11,3,33,47,784,['n'],1,right,['9'],5,187,[-0.13682633],100,47,medium,plus,dotcolour,alfa,,,95,18,V,R,
483,105,21,11,3,47,33,783,['c'],1,left,['8'],4,261,[0.0850542],100,47,medium,plus,dotcolour,alfa,,,95,18,V,R,
484,106,22,11,3,44,36,3384,['c'],1,left,['8'],4,333,[0.06287239],98,44,hard,plus,dotcolour,alfa,,,95,18,V,R,
485,107,23,11,3,33,47,800,['n'],1,right,['9'],5,185,[-0.08927434],100,47,medium,plus,dotcolour,alfa,,,95,18,V,R,
486,108,24,11,3,36,44,1284,['c'],0,right,['8'],4,351,[0.06627147],98,44,hard,plus,dotcolour,alfa,,,95,18,V,R,
487,109,25,11,3,47,33,867,['c'],1,left,['8'],4,728,[0.15222074],100,47,medium,plus,dotcolour,alfa,,,95,18,V,R,
488,110,26,11,3,53,27,833,['c'],1,left,['9'],5,219,[0.11921004],100,53,easy,plus,dotcolour,alfa,,,95,18,V,R,
489,111,27,11,3,53,27,734,['c'],1,left,['9'],5,278,[0.10221787],100,53,easy,plus,dotcolour,alfa,,,95,18,V,R,
490,112,28,11,3,27,53,834,['n'],1,right,['9'],5,195,[-0.12230594],100,53,easy,plus,dotcolour,alfa,,,95,18,V,R,
491,113,29,11,3,53,27,867,['c'],1,left,['8'],4,129,[0.03495338],97,53,easy,plus,dotcolour,alfa,,,95,18,V,R,
492,114,30,11,3,27,53,1017,['n'],1,right,['8'],4,237,[-0.04982074],98,53,easy,plus,dotcolour,alfa,,,95,18,V,R,
493,115,31,11,3,47,33,1516,['c'],1,left,['9'],5,176,[0.08100317],100,47,medium,plus,dotcolour,alfa,,,95,18,V,R,
494,116,32,11,3,36,44,783,['n'],1,right,['9'],5,155,[-0.06707092],100,44,hard,plus,dotcolour,alfa,,,95,18,V,R,
495,117,33,11,3,47,33,884,['c'],1,left,['8'],4,227,[0.0462212],97,47,medium,plus,dotcolour,alfa,,,95,18,V,R,
496,118,34,11,3,36,44,1017,['n'],1,right,['9'],5,170,[-0.06112731],100,44,hard,plus,dotcolour,alfa,,,95,18,V,R,
497,119,35,11,3,47,33,800,['c'],1,left,['8'],4,181,[0.10386294],100,47,medium,plus,dotcolour,alfa,,,95,18,V,R,
498,120,36,11,3,44,36,1033,['c'],1,left,['8'],4,141,[0.12892249],100,44,hard,plus,dotcolour,alfa,,,95,18,V,R,
499,121,37,11,3,53,27,783,['c'],1,left,['9'],5,161,[0.07228373],100,53,easy,plus,dotcolour,alfa,,,95,18,V,R,
500,122,38,11,3,53,27,850,['c'],1,left,['9'],5,162,[0.16251274],100,53,easy,plus,dotcolour,alfa,,,95,18,V,R,
501,123,39,11,3,47,33,617,['c'],1,left,['9'],5,108,[0.04630503],99,47,medium,plus,dotcolour,alfa,,,95,18,V,R,
502,124,40,11,3,27,53,817,['c'],0,right,['8'],4,200,[0.09040614],100,53,easy,plus,dotcolour,alfa,,,95,18,V,R,
503,125,41,11,3,33,47,700,['c'],0,right,['8'],4,181,[0.10878663],100,47,medium,plus,dotcolour,alfa,,,95,18,V,R,
504,0,0,12,4,44,36,934,['c'],1,left,['8'],4,169,[0.07974779],85,44,hard,minus,dotcolour,alfa,,,95,18,V,R,
505,1,1,12,4,36,44,867,['c'],0,right,['8'],4,185,[0.10067019],89,44,hard,minus,dotcolour,alfa,,,95,18,V,R,
506,2,2,12,4,33,47,634,['n'],1,right,['8'],4,146,[-0.00831721],55,47,medium,minus,dotcolour,alfa,,,95,18,V,R,
507,3,3,12,4,33,47,1300,['n'],1,right,['8'],4,161,[-0.11512578],93,47,medium,minus,dotcolour,alfa,,,95,18,V,R,
508,4,4,12,4,44,36,784,['c'],1,left,['8'],4,188,[0.09380403],88,44,hard,minus,dotcolour,alfa,,,95,18,V,R,
509,5,5,12,4,47,33,733,['c'],1,left,['8'],4,193,[0.15275357],96,47,medium,minus,dotcolour,alfa,,,95,18,V,R,
510,6,6,12,4,36,44,783,['n'],1,right,['8'],4,179,[-0.11325512],92,44,hard,minus,dotcolour,alfa,,,95,18,V,R,
511,7,7,12,4,33,47,767,['n'],1,right,['8'],4,158,[-0.1223452],94,47,medium,minus,dotcolour,alfa,,,95,18,V,R,
512,8,8,12,4,36,44,1067,['c'],0,right,['8'],4,358,[0.10849377],84,44,hard,minus,dotcolour,alfa,,,95,18,V,R,
513,9,9,12,4,53,27,733,['n'],0,left,['8'],4,195,[-0.02467714],62,53,easy,minus,dotcolour,alfa,,,95,18,V,R,
514,10,10,12,4,44,36,667,['n'],0,left,['8'],4,178,[-0.09456313],88,44,hard,minus,dotcolour,alfa,,,95,18,V,R,
515,11,11,12,4,33,47,985,['n'],1,right,['8'],4,182,[-0.05113126],75,47,medium,minus,dotcolour,alfa,,,95,18,V,R,
516,12,12,12,4,47,33,567,['c'],1,left,['8'],4,401,[0.15357227],90,47,medium,minus,dotcolour,alfa,,,95,18,V,R,
517,13,13,12,4,27,53,667,['n'],1,right,['8'],4,175,[-0.05743878],77,53,easy,minus,dotcolour,alfa,,,95,18,V,R,
518,14,14,12,4,47,33,1066,['c'],1,left,['8'],4,166,[0.06109264],79,47,medium,minus,dotcolour,alfa,,,95,18,V,R,
519,15,15,12,4,27,53,684,['n'],1,right,['8'],4,166,[-0.17236535],98,53,easy,minus,dotcolour,alfa,,,95,18,V,R,
520,16,16,12,4,36,44,634,['n'],1,right,['8'],4,175,[-0.11975082],93,44,hard,minus,dotcolour,alfa,,,95,18,V,R,
521,17,17,12,4,47,33,733,['c'],1,left,['8'],4,157,[0.03468972],69,47,medium,minus,dotcolour,alfa,,,95,18,V,R,
522,18,18,12,4,53,27,800,['c'],1,left,['8'],4,167,[0.01257508],57,53,easy,minus,dotcolour,alfa,,,95,18,V,R,
523,19,19,12,4,53,27,834,['c'],1,left,['9'],5,176,[0.15723579],97,53,easy,minus,dotcolour,alfa,,,95,18,V,R,
524,20,20,12,4,44,36,1034,['c'],1,left,['9'],5,145,[0.15665149],98,44,hard,minus,dotcolour,alfa,,,95,18,V,R,
525,21,21,12,4,36,44,766,['n'],1,right,['9'],5,197,[-0.11044312],90,44,hard,minus,dotcolour,alfa,,,95,18,V,R,
526,22,22,12,4,33,47,867,['n'],1,right,['9'],5,204,[-0.03764542],68,47,medium,minus,dotcolour,alfa,,,95,18,V,R,
527,23,23,12,4,36,44,967,['n'],1,right,['9'],5,295,[-0.13211133],90,44,hard,minus,dotcolour,alfa,,,95,18,V,R,
528,24,24,12,4,44,36,817,['c'],1,left,['8'],4,188,[0.08841742],86,44,hard,minus,dotcolour,alfa,,,95,18,V,R,
529,25,25,12,4,33,47,649,['n'],1,right,['9'],5,171,[-0.08378332],86,47,medium,minus,dotcolour,alfa,,,95,18,V,R,
530,26,26,12,4,47,33,767,['c'],1,left,['8'],4,175,[0.15237445],96,47,medium,minus,dotcolour,alfa,,,95,18,V,R,
531,27,27,12,4,44,36,917,['n'],0,left,['8'],4,429,[-0.0731697],73,44,hard,minus,dotcolour,alfa,,,95,18,V,R,
532,28,28,12,4,53,27,766,['c'],1,left,['8'],4,110,[0.08065719],90,53,easy,minus,dotcolour,alfa,,,95,18,V,R,
533,29,29,12,4,53,27,767,['c'],1,left,['8'],4,188,[0.12951301],94,53,easy,minus,dotcolour,alfa,,,95,18,V,R,
534,30,30,12,4,53,27,567,['c'],1,left,['8'],4,351,[0.07515752],76,53,easy,minus,dotcolour,alfa,,,95,18,V,R,
535,31,31,12,4,27,53,850,['n'],1,right,['9'],5,193,[-0.10380832],89,53,easy,minus,dotcolour,alfa,,,95,18,V,R,
536,32,32,12,4,53,27,835,['c'],1,left,['8'],4,169,[0.09308429],88,53,easy,minus,dotcolour,alfa,,,95,18,V,R,
537,33,33,12,4,44,36,849,['c'],1,left,['8'],4,186,[0.08880404],86,44,hard,minus,dotcolour,alfa,,,95,18,V,R,
538,34,34,12,4,27,53,733,['n'],1,right,['8'],4,158,[-0.07215299],84,53,easy,minus,dotcolour,alfa,,,95,18,V,R,
539,35,35,12,4,47,33,683,['c'],1,left,['8'],4,173,[0.10273988],90,47,medium,minus,dotcolour,alfa,,,95,18,V,R,
540,36,36,12,4,47,33,684,['c'],1,left,['8'],4,180,[0.10256089],90,47,medium,minus,dotcolour,alfa,,,95,18,V,R,
541,37,37,12,4,33,47,983,['n'],1,right,['8'],4,151,[-0.01904356],61,47,medium,minus,dotcolour,alfa,,,95,18,V,R,
542,38,38,12,4,27,53,650,['n'],1,right,['9'],5,224,[-0.10124637],87,53,easy,minus,dotcolour,alfa,,,95,18,V,R,
543,39,39,12,4,36,44,883,['c'],0,right,['8'],4,213,[0.04047574],69,44,hard,minus,dotcolour,alfa,,,95,18,V,R,
544,40,40,12,4,27,53,667,['n'],1,right,['8'],4,187,[0.00624895],47,53,easy,minus,dotcolour,alfa,,,95,18,V,R,
545,41,41,12,4,27,53,652,['n'],1,right,['9'],5,148,[-0.07090751],84,53,easy,minus,dotcolour,alfa,,,95,18,V,R,
546,42,0,13,4,27,53,784,['n'],1,right,['9'],5,182,[-0.15030541],96,53,easy,minus,dotcolour,alfa,,,95,18,V,R,
547,43,1,13,4,33,47,617,['n'],1,right,['9'],5,175,[-0.07589092],84,47,medium,minus,dotcolour,alfa,,,95,18,V,R,
548,44,2,13,4,33,47,533,['n'],1,right,['9'],5,204,[-0.13188815],93,47,medium,minus,dotcolour,alfa,,,95,18,V,R,
549,45,3,13,4,47,33,933,['c'],1,left,['8'],4,144,[0.12628195],95,47,medium,minus,dotcolour,alfa,,,95,18,V,R,
550,46,4,13,4,36,44,1400,['n'],1,right,['8'],4,164,[-0.18069455],98,44,hard,minus,dotcolour,alfa,,,95,18,V,R,
551,47,5,13,4,47,33,617,['c'],1,left,['8'],4,165,[0.07735661],85,47,medium,minus,dotcolour,alfa,,,95,18,V,R,
552,48,6,13,4,27,53,833,['n'],1,right,['9'],5,151,[-0.14168205],96,53,easy,minus,dotcolour,alfa,,,95,18,V,R,
553,49,7,13,4,47,33,683,['c'],1,left,['8'],4,183,[0.03798106],69,47,medium,minus,dotcolour,alfa,,,95,18,V,R,
554,50,8,13,4,36,44,800,['n'],1,right,['9'],5,177,[-0.10293821],90,44,hard,minus,dotcolour,alfa,,,95,18,V,R,
555,51,9,13,4,44,36,717,['c'],1,left,['8'],4,191,[0.00265275],51,44,hard,minus,dotcolour,alfa,,,95,18,V,R,
556,52,10,13,4,53,27,782,['c'],1,left,['8'],4,136,[0.07593568],86,53,easy,minus,dotcolour,alfa,,,95,18,V,R,
557,53,11,13,4,36,44,700,['n'],1,right,['8'],4,168,[-0.08192008],86,44,hard,minus,dotcolour,alfa,,,95,18,V,R,
558,54,12,13,4,27,53,651,['n'],1,right,['8'],4,160,[-0.09239017],89,53,easy,minus,dotcolour,alfa,,,95,18,V,R,
559,55,13,13,4,47,33,684,['c'],1,left,['9'],5,352,[0.1738377],93,47,medium,minus,dotcolour,alfa,,,95,18,V,R,
560,56,14,13,4,44,36,950,['c'],1,left,['8'],4,221,[0.10904943],89,44,hard,minus,dotcolour,alfa,,,95,18,V,R,
561,57,15,13,4,53,27,800,['c'],1,left,['8'],4,182,[-0.09117057],13,53,easy,minus,dotcolour,alfa,,,95,18,V,R,
562,58,16,13,4,33,47,1400,['n'],1,right,['8'],4,152,[-0.08152491],87,47,medium,minus,dotcolour,alfa,,,95,18,V,R,
563,59,17,13,4,53,27,666,['c'],1,left,['8'],4,233,[0.09808465],86,53,easy,minus,dotcolour,alfa,,,95,18,V,R,
564,60,18,13,4,53,27,750,['c'],1,left,['9'],5,155,[0.09697315],90,53,easy,minus,dotcolour,alfa,,,95,18,V,R,
565,61,19,13,4,44,36,1467,['n'],0,left,['8'],4,203,[-0.01342574],57,44,hard,minus,dotcolour,alfa,,,95,18,V,R,
566,62,20,13,4,33,47,917,['n'],1,right,['8'],4,168,[-0.11734635],93,47,medium,minus,dotcolour,alfa,,,95,18,V,R,
567,63,21,13,4,36,44,1316,['n'],1,right,['8'],4,198,[-0.10272217],89,44,hard,minus,dotcolour,alfa,,,95,18,V,R,
568,64,22,13,4,53,27,967,['c'],1,left,['8'],4,257,[0.05096862],71,53,easy,minus,dotcolour,alfa,,,95,18,V,R,
569,65,23,13,4,33,47,817,['n'],1,right,['8'],4,151,[-0.03784914],71,47,medium,minus,dotcolour,alfa,,,95,18,V,R,
570,66,24,13,4,33,47,1350,['n'],1,right,['8'],4,236,[-0.08308575],82,47,medium,minus,dotcolour,alfa,,,95,18,V,R,
571,67,25,13,4,44,36,649,['c'],1,left,['8'],4,186,[0.15212756],96,44,hard,minus,dotcolour,alfa,,,95,18,V,R,
572,68,26,13,4,44,36,750,['c'],1,left,['8'],4,150,[0.05705939],79,44,hard,minus,dotcolour,alfa,,,95,18,V,R,
573,69,27,13,4,47,33,667,['c'],1,left,['8'],4,95,[0.06820778],88,47,medium,minus,dotcolour,alfa,,,95,18,V,R,
574,70,28,13,4,47,33,666,['c'],1,left,['8'],4,194,[0.03204298],66,47,medium,minus,dotcolour,alfa,,,95,18,V,R,
575,71,29,13,4,53,27,650,['c'],1,left,['8'],4,169,[0.00066066],50,53,easy,minus,dotcolour,alfa,,,95,18,V,R,
576,72,30,13,4,44,36,667,['c'],1,left,['8'],4,145,[0.04694324],75,44,hard,minus,dotcolour,alfa,,,95,18,V,R,
577,73,31,13,4,47,33,583,['c'],1,left,['8'],4,205,[0.00160218],51,47,medium,minus,dotcolour,alfa,,,95,18,V,R,
578,74,32,13,4,53,27,750,['c'],1,left,['9'],5,265,[0.10953753],87,53,easy,minus,dotcolour,alfa,,,95,18,V,R,
579,75,33,13,4,27,53,750,['n'],1,right,['9'],5,217,[-0.12603653],92,53,easy,minus,dotcolour,alfa,,,95,18,V,R,
580,76,34,13,4,27,53,600,['n'],1,right,['9'],5,258,[-0.03926894],67,53,easy,minus,dotcolour,alfa,,,95,18,V,R,
581,77,35,13,4,33,47,818,['n'],1,right,['9'],5,168,[-0.03726296],69,47,medium,minus,dotcolour,alfa,,,95,18,V,R,
582,78,36,13,4,27,53,566,['n'],1,right,['9'],5,180,[-0.12245323],93,53,easy,minus,dotcolour,alfa,,,95,18,V,R,
583,79,37,13,4,36,44,534,['n'],1,right,['9'],5,216,[-0.00159157],51,44,hard,minus,dotcolour,alfa,,,95,18,V,R,
584,80,38,13,4,36,44,550,['n'],1,right,['9'],5,187,[-0.16849574],97,44,hard,minus,dotcolour,alfa,,,95,18,V,R,
585,81,39,13,4,36,44,550,['n'],1,right,['9'],5,191,[-0.08394401],85,44,hard,minus,dotcolour,alfa,,,95,18,V,R,
586,82,40,13,4,44,36,1101,['n'],0,left,['9'],5,196,[-0.05742855],76,44,hard,minus,dotcolour,alfa,,,95,18,V,R,
587,83,41,13,4,27,53,784,['n'],1,right,['9'],5,198,[-0.06968796],80,53,easy,minus,dotcolour,alfa,,,95,18,V,R,
588,84,0,14,4,44,36,1718,['c'],1,left,['8'],4,170,[0.13989918],95,44,hard,minus,dotcolour,alfa,,,95,18,V,R,
589,85,1,14,4,33,47,667,['n'],1,right,['8'],4,210,[-0.09517431],87,47,medium,minus,dotcolour,alfa,,,95,18,V,R,
590,86,2,14,4,27,53,667,['n'],1,right,['9'],5,176,[-0.11982739],93,53,easy,minus,dotcolour,alfa,,,95,18,V,R,
591,87,3,14,4,53,27,750,['c'],1,left,['8'],4,205,[0.07753414],82,53,easy,minus,dotcolour,alfa,,,95,18,V,R,
592,88,4,14,4,44,36,733,['c'],1,left,['8'],4,240,[-0.00535419],48,44,hard,minus,dotcolour,alfa,,,95,18,V,R,
593,89,5,14,4,47,33,617,['c'],1,left,['8'],4,535,[0.18149279],90,47,medium,minus,dotcolour,alfa,,,95,18,V,R,
594,90,6,14,4,33,47,1217,['n'],1,right,['9'],5,186,[-0.07560935],83,47,medium,minus,dotcolour,alfa,,,95,18,V,R,
595,91,7,14,4,36,44,750,['n'],1,right,['9'],5,158,[-0.12194245],94,44,hard,minus,dotcolour,alfa,,,95,18,V,R,
596,92,8,14,4,47,33,983,['c'],1,left,['8'],4,153,[0.09867345],91,47,medium,minus,dotcolour,alfa,,,95,18,V,R,
597,93,9,14,4,53,27,767,['c'],1,left,['8'],4,189,[0.11302076],91,53,easy,minus,dotcolour,alfa,,,95,18,V,R,
598,94,10,14,4,33,47,884,['n'],1,right,['8'],4,772,[-0.10909788],75,47,medium,minus,dotcolour,alfa,,,95,18,V,R,
599,95,11,14,4,27,53,683,['n'],1,right,['9'],5,139,[0.01932788],39,53,easy,minus,dotcolour,alfa,,,95,18,V,R,
600,96,12,14,4,36,44,1400,['c'],0,right,['8'],4,143,[0.03769932],71,44,hard,minus,dotcolour,alfa,,,95,18,V,R,
601,97,13,14,4,36,44,867,['n'],1,right,['8'],4,136,[-0.1321724],96,44,hard,minus,dotcolour,alfa,,,95,18,V,R,
602,98,14,14,4,53,27,666,['c'],1,left,['9'],5,209,[0.09560302],87,53,easy,minus,dotcolour,alfa,,,95,18,V,R,
603,99,15,14,4,27,53,833,['n'],1,right,['9'],5,216,[-0.03743449],67,53,easy,minus,dotcolour,alfa,,,95,18,V,R,
604,100,16,14,4,44,36,900,['c'],1,left,['8'],4,261,[0.08164373],81,44,hard,minus,dotcolour,alfa,,,95,18,V,R,
605,101,17,14,4,33,47,750,['n'],1,right,['9'],5,213,[-0.10270434],88,47,medium,minus,dotcolour,alfa,,,95,18,V,R,
606,102,18,14,4,53,27,651,['c'],1,left,['8'],4,164,[0.09526451],89,53,easy,minus,dotcolour,alfa,,,95,18,V,R,
607,103,19,14,4,36,44,800,['n'],1,right,['9'],5,151,[-0.05564354],78,44,hard,minus,dotcolour,alfa,,,95,18,V,R,
608,104,20,14,4,47,33,801,['c'],1,left,['8'],4,210,[0.11795521],91,47,medium,minus,dotcolour,alfa,,,95,18,V,R,
609,105,21,14,4,27,53,651,['n'],1,right,['9'],5,449,[-0.18136266],92,53,easy,minus,dotcolour,alfa,,,95,18,V,R,
610,106,22,14,4,47,33,599,['c'],1,left,['8'],4,297,[0.08865774],81,47,medium,minus,dotcolour,alfa,,,95,18,V,R,
611,107,23,14,4,44,36,550,['c'],1,left,['8'],4,144,[0.04990632],77,44,hard,minus,dotcolour,alfa,,,95,18,V,R,
612,108,24,14,4,33,47,717,['n'],1,right,['9'],5,207,[-0.01794024],59,47,medium,minus,dotcolour,alfa,,,95,18,V,R,
613,109,25,14,4,36,44,1200,['c'],0,right,['8'],4,151,[0.02355993],63,44,hard,minus,dotcolour,alfa,,,95,18,V,R,
614,110,26,14,4,47,33,683,['c'],1,left,['8'],4,376,[0.09459194],80,47,medium,minus,dotcolour,alfa,,,95,18,V,R,
615,111,27,14,4,53,27,700,['c'],1,left,['9'],5,165,[0.06372044],80,53,easy,minus,dotcolour,alfa,,,95,18,V,R,
616,112,28,14,4,44,36,833,['c'],1,left,['9'],5,343,[0.08529423],79,44,hard,minus,dotcolour,alfa,,,95,18,V,R,
617,113,29,14,4,47,33,666,['c'],1,left,['9'],5,127,[0.10482458],93,47,medium,minus,dotcolour,alfa,,,95,18,V,R,
618,114,30,14,4,44,36,583,['c'],1,left,['9'],5,412,[0.09932268],80,44,hard,minus,dotcolour,alfa,,,95,18,V,R,
619,115,31,14,4,27,53,1317,['n'],1,right,['9'],5,208,[-0.09941252],88,53,easy,minus,dotcolour,alfa,,,95,18,V,R,
620,116,32,14,4,33,47,801,['n'],1,right,['8'],4,136,[-0.12108834],95,47,medium,minus,dotcolour,alfa,,,95,18,V,R,
621,117,33,14,4,53,27,667,['c'],1,left,['9'],5,146,[0.12293275],95,53,easy,minus,dotcolour,alfa,,,95,18,V,R,
622,118,34,14,4,27,53,917,['n'],1,right,['8'],4,144,[-0.11703448],94,53,easy,minus,dotcolour,alfa,,,95,18,V,R,
623,119,35,14,4,47,33,1567,['c'],1,left,['8'],4,133,[0.03656921],71,47,medium,minus,dotcolour,alfa,,,95,18,V,R,
624,120,36,14,4,33,47,900,['n'],1,right,['8'],4,165,[-0.07622382],84,47,medium,minus,dotcolour,alfa,,,95,18,V,R,
625,121,37,14,4,36,44,1366,['n'],1,right,['8'],4,209,[0.02665558],37,44,hard,minus,dotcolour,alfa,,,95,18,V,R,
626,122,38,14,4,27,53,834,['n'],1,right,['8'],4,193,[-0.12005151],92,53,easy,minus,dotcolour,alfa,,,95,18,V,R,
627,123,39,14,4,53,27,1234,['c'],1,left,['8'],4,241,[0.07045854],78,53,easy,minus,dotcolour,alfa,,,95,18,V,R,
628,124,40,14,4,44,36,1234,['c'],1,left,['8'],4,223,[0.15838559],95,44,hard,minus,dotcolour,alfa,,,95,18,V,R,
629,125,41,14,4,36,44,784,['n'],1,right,['8'],4,191,[-0.06885985],81,44,hard,minus,dotcolour,alfa,,,95,18,V,R,
630,0,0,15,5,44,36,817,['c'],1,left,['8'],4,142,[0.09831068],100,44,hard,plus,dotcolour,alfa,,,95,18,V,R,
631,1,1,15,5,47,33,884,['n'],0,left,['8'],4,230,[-0.0257811],87,47,medium,plus,dotcolour,alfa,,,95,18,V,R,
632,2,2,15,5,27,53,584,['n'],1,right,['8'],4,231,[-0.10119264],100,53,easy,plus,dotcolour,alfa,,,95,18,V,R,
633,3,3,15,5,36,44,684,['n'],1,right,['8'],4,179,[-0.04861314],98,44,hard,plus,dotcolour,alfa,,,95,18,V,R,
634,4,4,15,5,53,27,667,['c'],1,left,['8'],4,195,[0.03512032],95,53,easy,plus,dotcolour,alfa,,,95,18,V,R,
635,5,5,15,5,47,33,867,['c'],1,left,['8'],4,186,[0.08700393],100,47,medium,plus,dotcolour,alfa,,,95,18,V,R,
636,6,6,15,5,47,33,717,['c'],1,left,['8'],4,207,[0.07797078],100,47,medium,plus,dotcolour,alfa,,,95,18,V,R,
637,7,7,15,5,47,33,617,['c'],1,left,['8'],4,175,[0.06214557],100,47,medium,plus,dotcolour,alfa,,,95,18,V,R,
638,8,8,15,5,36,44,700,['n'],1,right,['8'],4,181,[-0.00751366],65,44,hard,plus,dotcolour,alfa,,,95,18,V,R,
639,9,9,15,5,27,53,683,['n'],1,right,['8'],4,196,[-0.12735954],100,53,easy,plus,dotcolour,alfa,,,95,18,V,R,
640,10,10,15,5,44,36,965,['c'],1,left,['8'],4,199,[0.12592196],100,44,hard,plus,dotcolour,alfa,,,95,18,V,R,
641,11,11,15,5,33,47,766,['n'],1,right,['8'],4,161,[-0.00494462],61,47,medium,plus,dotcolour,alfa,,,95,18,V,R,
642,12,12,15,5,53,27,618,['c'],1,left,['8'],4,139,[0.08295955],100,53,easy,plus,dotcolour,alfa,,,95,18,V,R,
643,13,13,15,5,44,36,750,['c'],1,left,['8'],4,161,[-0.06103679],0,44,hard,plus,dotcolour,alfa,,,95,18,V,R,
644,14,14,15,5,36,44,1000,['n'],1,right,['8'],4,172,[0.00432651],41,44,hard,plus,dotcolour,alfa,,,95,18,V,R,
645,15,15,15,5,33,47,783,['n'],1,right,['8'],4,207,[-0.04819696],98,47,medium,plus,dotcolour,alfa,,,95,18,V,R,
646,16,16,15,5,27,53,734,['n'],1,right,['9'],5,403,[-0.06187882],97,53,easy,plus,dotcolour,alfa,,,95,18,V,R,
647,17,17,15,5,27,53,583,['n'],1,right,['9'],5,245,[-0.15901711],100,53,easy,plus,dotcolour,alfa,,,95,18,V,R,
648,18,18,15,5,53,27,917,['c'],1,left,['9'],5,175,[0.10709962],100,53,easy,plus,dotcolour,alfa,,,95,18,V,R,
649,19,19,15,5,47,33,733,['c'],1,left,['9'],5,124,[0.03170807],96,47,medium,plus,dotcolour,alfa,,,95,18,V,R,
650,20,20,15,5,36,44,767,['n'],1,right,['8'],4,241,[-0.14814857],100,44,hard,plus,dotcolour,alfa,,,95,18,V,R,
651,21,21,15,5,27,53,767,['n'],1,right,['9'],5,130,[-0.13629567],100,53,easy,plus,dotcolour,alfa,,,95,18,V,R,
652,22,22,15,5,53,27,683,['c'],1,left,['9'],5,179,[0.1460558],100,53,easy,plus,dotcolour,alfa,,,95,18,V,R,
653,23,23,15,5,47,33,866,['c'],1,left,['9'],5,467,[0.18889521],100,47,medium,plus,dotcolour,alfa,,,95,18,V,R,
654,24,24,15,5,33,47,767,['n'],1,right,['9'],5,178,[-0.05717035],99,47,medium,plus,dotcolour,alfa,,,95,18,V,R,
655,25,25,15,5,36,44,1017,['n'],1,right,['8'],4,179,[-0.10033701],100,44,hard,plus,dotcolour,alfa,,,95,18,V,R,
656,26,26,15,5,44,36,1199,['c'],1,left,['8'],4,181,[0.08399434],100,44,hard,plus,dotcolour,alfa,,,95,18,V,R,
657,27,27,15,5,27,53,833,['n'],1,right,['9'],5,198,[0.010677],30,53,easy,plus,dotcolour,alfa,,,95,18,V,R,
658,28,28,15,5,44,36,766,['c'],1,left,['8'],4,281,[0.11915605],100,44,hard,plus,dotcolour,alfa,,,95,18,V,R,
659,29,29,15,5,36,44,1134,['n'],1,right,['8'],4,282,[-0.09678461],100,44,hard,plus,dotcolour,alfa,,,95,18,V,R,
660,30,30,15,5,44,36,967,['c'],1,left,['8'],4,233,[0.03495709],93,44,hard,plus,dotcolour,alfa,,,95,18,V,R,
661,31,31,15,5,27,53,850,['n'],1,right,['9'],5,239,[-0.07815674],100,53,easy,plus,dotcolour,alfa,,,95,18,V,R,
662,32,32,15,5,53,27,700,['c'],1,left,['8'],4,314,[0.11523625],100,53,easy,plus,dotcolour,alfa,,,95,18,V,R,
663,33,33,15,5,36,44,850,['n'],1,right,['8'],4,173,[-0.02748305],92,44,hard,plus,dotcolour,alfa,,,95,18,V,R,
664,34,34,15,5,47,33,1133,['c'],1,left,['8'],4,202,[0.10042856],100,47,medium,plus,dotcolour,alfa,,,95,18,V,R,
665,35,35,15,5,53,27,800,['c'],1,left,['8'],4,188,[0.12075909],100,53,easy,plus,dotcolour,alfa,,,95,18,V,R,
666,36,36,15,5,53,27,701,['c'],1,left,['8'],4,194,[0.09388389],100,53,easy,plus,dotcolour,alfa,,,95,18,V,R,
667,37,37,15,5,33,47,717,['n'],1,right,['8'],4,166,[-0.11457065],100,47,medium,plus,dotcolour,alfa,,,95,18,V,R,
668,38,38,15,5,33,47,700,['n'],1,right,['8'],4,157,[-0.08533498],100,47,medium,plus,dotcolour,alfa,,,95,18,V,R,
669,39,39,15,5,33,47,932,['n'],1,right,['8'],4,442,[-0.12444612],100,47,medium,plus,dotcolour,alfa,,,95,18,V,R,
670,40,40,15,5,44,36,834,['c'],1,left,['8'],4,160,[0.01515467],80,44,hard,plus,dotcolour,alfa,,,95,18,V,R,
671,41,41,15,5,33,47,650,['n'],1,right,['8'],4,137,[-0.12179763],100,47,medium,plus,dotcolour,alfa,,,95,18,V,R,
672,42,0,16,5,53,27,701,['c'],1,left,['8'],4,149,[0.1892045],100,53,easy,plus,dotcolour,alfa,,,95,18,V,R,
673,43,1,16,5,47,33,817,['c'],1,left,['8'],4,112,[0.04893906],99,47,medium,plus,dotcolour,alfa,,,95,18,V,R,
674,44,2,16,5,53,27,550,['c'],1,left,['8'],4,166,[0.09418623],100,53,easy,plus,dotcolour,alfa,,,95,18,V,R,
675,45,3,16,5,27,53,716,['n'],1,right,['8'],4,140,[-0.07173323],100,53,easy,plus,dotcolour,alfa,,,95,18,V,R,
676,46,4,16,5,33,47,1367,['n'],1,right,['8'],4,193,[-0.0717955],100,47,medium,plus,dotcolour,alfa,,,95,18,V,R,
677,47,5,16,5,53,27,616,['c'],1,left,['8'],4,186,[0.12665642],100,53,easy,plus,dotcolour,alfa,,,95,18,V,R,
678,48,6,16,5,53,27,651,['c'],1,left,['8'],4,106,[0.01915435],89,53,easy,plus,dotcolour,alfa,,,95,18,V,R,
679,49,7,16,5,47,33,733,['c'],1,left,['8'],4,210,[0.10416759],100,47,medium,plus,dotcolour,alfa,,,95,18,V,R,
680,50,8,16,5,27,53,683,['n'],1,right,['9'],5,175,[-0.1056241],100,53,easy,plus,dotcolour,alfa,,,95,18,V,R,
681,51,9,16,5,36,44,734,['n'],1,right,['9'],5,228,[-0.10078746],100,44,hard,plus,dotcolour,alfa,,,95,18,V,R,
682,52,10,16,5,33,47,651,['n'],1,right,['9'],5,202,[-0.06262774],99,47,medium,plus,dotcolour,alfa,,,95,18,V,R,
683,53,11,16,5,44,36,817,['c'],1,left,['8'],4,178,[0.01013653],70,44,hard,plus,dotcolour,alfa,,,95,18,V,R,
684,54,12,16,5,27,53,617,['n'],1,right,['9'],5,204,[-0.09879399],100,53,easy,plus,dotcolour,alfa,,,95,18,V,R,
685,55,13,16,5,44,36,650,['n'],0,left,['9'],5,147,[-0.09221163],100,44,hard,plus,dotcolour,alfa,,,95,18,V,R,
686,56,14,16,5,33,47,633,['n'],1,right,['9'],5,189,[-0.09040236],100,47,medium,plus,dotcolour,alfa,,,95,18,V,R,
687,57,15,16,5,47,33,717,['c'],1,left,['8'],4,147,[0.09015018],100,47,medium,plus,dotcolour,alfa,,,95,18,V,R,
688,58,16,16,5,53,27,967,['c'],1,left,['8'],4,191,[0.11094328],100,53,easy,plus,dotcolour,alfa,,,95,18,V,R,
689,59,17,16,5,44,36,567,['c'],1,left,['8'],4,162,[0.05661535],99,44,hard,plus,dotcolour,alfa,,,95,18,V,R,
690,60,18,16,5,47,33,684,['c'],1,left,['8'],4,121,[0.05601946],100,47,medium,plus,dotcolour,alfa,,,95,18,V,R,
691,61,19,16,5,47,33,866,['c'],1,left,['8'],4,163,[0.10710658],100,47,medium,plus,dotcolour,alfa,,,95,18,V,R,
692,62,20,16,5,36,44,784,['n'],1,right,['8'],4,142,[-0.05426522],99,44,hard,plus,dotcolour,alfa,,,95,18,V,R,
693,63,21,16,5,36,44,733,['c'],0,right,['8'],4,149,[0.0696949],100,44,hard,plus,dotcolour,alfa,,,95,18,V,R,
694,64,22,16,5,36,44,717,['n'],1,right,['8'],4,179,[-0.07963265],100,44,hard,plus,dotcolour,alfa,,,95,18,V,R,
695,65,23,16,5,33,47,784,['c'],0,right,['8'],4,238,[-0.05362639],2,47,medium,plus,dotcolour,alfa,,,95,18,V,R,
696,66,24,16,5,47,33,600,['c'],1,left,['8'],4,181,[0.0565089],99,47,medium,plus,dotcolour,alfa,,,95,18,V,R,
697,67,25,16,5,27,53,667,['n'],1,right,['9'],5,205,[-0.15709488],100,53,easy,plus,dotcolour,alfa,,,95,18,V,R,
698,68,26,16,5,36,44,732,['c'],0,right,['8'],4,601,[0.01725986],69,44,hard,plus,dotcolour,alfa,,,95,18,V,R,
699,69,27,16,5,36,44,950,['n'],1,right,['8'],4,164,[-0.08790642],100,44,hard,plus,dotcolour,alfa,,,95,18,V,R,
700,70,28,16,5,47,33,617,['c'],1,left,['8'],4,166,[0.08229853],100,47,medium,plus,dotcolour,alfa,,,95,18,V,R,
701,71,29,16,5,53,27,717,['c'],1,left,['9'],5,532,[0.0656779],96,53,easy,plus,dotcolour,alfa,,,95,18,V,R,
702,72,30,16,5,33,47,767,['n'],1,right,['8'],4,145,[-0.136171],100,47,medium,plus,dotcolour,alfa,,,95,18,V,R,
703,73,31,16,5,33,47,934,['n'],1,right,['8'],4,160,[-0.0798189],100,47,medium,plus,dotcolour,alfa,,,95,18,V,R,
704,74,32,16,5,27,53,616,['n'],1,right,['8'],4,178,[-0.08009648],100,53,easy,plus,dotcolour,alfa,,,95,18,V,R,
705,75,33,16,5,36,44,900,['n'],1,right,['9'],5,432,[-0.06019332],96,44,hard,plus,dotcolour,alfa,,,95,18,V,R,
706,76,34,16,5,44,36,633,['n'],0,left,['9'],5,190,[-0.09953251],100,44,hard,plus,dotcolour,alfa,,,95,18,V,R,
707,77,35,16,5,44,36,783,['c'],1,left,['8'],4,288,[0.10392334],100,44,hard,plus,dotcolour,alfa,,,95,18,V,R,
708,78,36,16,5,44,36,567,['c'],1,left,['8'],4,175,[0.07308578],100,44,hard,plus,dotcolour,alfa,,,95,18,V,R,
709,79,37,16,5,27,53,800,['n'],1,right,['9'],5,177,[-0.08724357],100,53,easy,plus,dotcolour,alfa,,,95,18,V,R,
710,80,38,16,5,44,36,750,['c'],1,left,['8'],4,181,[0.05107862],99,44,hard,plus,dotcolour,alfa,,,95,18,V,R,
711,81,39,16,5,33,47,700,['n'],1,right,['8'],4,139,[0.01522752],19,47,medium,plus,dotcolour,alfa,,,95,18,V,R,
712,82,40,16,5,27,53,717,['n'],1,right,['8'],4,139,[-0.14502742],100,53,easy,plus,dotcolour,alfa,,,95,18,V,R,
713,83,41,16,5,53,27,651,['c'],1,left,['8'],4,164,[0.12430951],100,53,easy,plus,dotcolour,alfa,,,95,18,V,R,
714,84,0,17,5,36,44,1718,['c'],0,right,['8'],4,181,[-0.02556017],10,44,hard,plus,dotcolour,alfa,,,95,18,V,R,
715,85,1,17,5,44,36,717,['c'],1,left,['8'],4,154,[0.08492963],100,44,hard,plus,dotcolour,alfa,,,95,18,V,R,
716,86,2,17,5,33,47,633,['n'],1,right,['8'],4,165,[-0.06531583],100,47,medium,plus,dotcolour,alfa,,,95,18,V,R,
717,87,3,17,5,44,36,883,['c'],1,left,['8'],4,148,[0.12105187],100,44,hard,plus,dotcolour,alfa,,,95,18,V,R,
718,88,4,17,5,53,27,700,['c'],1,left,['9'],5,187,[0.02949566],92,53,easy,plus,dotcolour,alfa,,,95,18,V,R,
719,89,5,17,5,53,27,533,['c'],1,left,['9'],5,184,[0.10842862],100,53,easy,plus,dotcolour,alfa,,,95,18,V,R,
720,90,6,17,5,47,33,700,['c'],1,left,['9'],5,191,[0.09792946],100,47,medium,plus,dotcolour,alfa,,,95,18,V,R,
721,91,7,17,5,36,44,1216,['n'],1,right,['8'],4,167,[-0.07594023],100,44,hard,plus,dotcolour,alfa,,,95,18,V,R,
722,92,8,17,5,53,27,800,['c'],1,left,['8'],4,161,[0.09825191],100,53,easy,plus,dotcolour,alfa,,,95,18,V,R,
723,93,9,17,5,44,36,834,['c'],1,left,['8'],4,154,[0.13061223],100,44,hard,plus,dotcolour,alfa,,,95,18,V,R,
724,94,10,17,5,27,53,734,['n'],1,right,['8'],4,168,[-0.10657372],100,53,easy,plus,dotcolour,alfa,,,95,18,V,R,
725,95,11,17,5,47,33,717,['c'],1,left,['8'],4,118,[0.07212637],100,47,medium,plus,dotcolour,alfa,,,95,18,V,R,
726,96,12,17,5,53,27,617,['c'],1,left,['8'],4,139,[0.08951765],100,53,easy,plus,dotcolour,alfa,,,95,18,V,R,
727,97,13,17,5,36,44,1051,['n'],1,right,['8'],4,157,[-0.0639376],100,44,hard,plus,dotcolour,alfa,,,95,18,V,R,
728,98,14,17,5,33,47,617,['n'],1,right,['8'],4,215,[-0.1081099],100,47,medium,plus,dotcolour,alfa,,,95,18,V,R,
729,99,15,17,5,33,47,818,['n'],1,right,['8'],4,167,[-0.01788956],83,47,medium,plus,dotcolour,alfa,,,95,18,V,R,
730,100,16,17,5,27,53,701,['n'],1,right,['8'],4,182,[-0.07583514],100,53,easy,plus,dotcolour,alfa,,,95,18,V,R,
731,101,17,17,5,44,36,683,['c'],1,left,['8'],4,149,[0.13718054],100,44,hard,plus,dotcolour,alfa,,,95,18,V,R,
732,102,18,17,5,47,33,701,['c'],1,left,['8'],4,163,[0.113466],100,47,medium,plus,dotcolour,alfa,,,95,18,V,R,
733,103,19,17,5,33,47,1283,['n'],1,right,['8'],4,195,[-0.12667469],100,47,medium,plus,dotcolour,alfa,,,95,18,V,R,
734,104,20,17,5,36,44,600,['c'],0,right,['8'],4,173,[0.06426958],100,44,hard,plus,dotcolour,alfa,,,95,18,V,R,
735,105,21,17,5,33,47,667,['n'],1,right,['8'],4,172,[-0.08485294],100,47,medium,plus,dotcolour,alfa,,,95,18,V,R,
736,106,22,17,5,44,36,550,['c'],1,left,['8'],4,137,[0.05676889],100,44,hard,plus,dotcolour,alfa,,,95,18,V,R,
737,107,23,17,5,27,53,684,['n'],1,right,['8'],4,169,[-0.14907065],100,53,easy,plus,dotcolour,alfa,,,95,18,V,R,
738,108,24,17,5,44,36,667,['c'],1,left,['8'],4,138,[0.03917865],98,44,hard,plus,dotcolour,alfa,,,95,18,V,R,
739,109,25,17,5,27,53,550,['n'],1,right,['8'],4,176,[-0.07308666],100,53,easy,plus,dotcolour,alfa,,,95,18,V,R,
740,110,26,17,5,33,47,1216,['c'],0,right,['8'],4,201,[0.08822931],100,47,medium,plus,dotcolour,alfa,,,95,18,V,R,
741,111,27,17,5,27,53,683,['n'],1,right,['8'],4,167,[-0.09824187],100,53,easy,plus,dotcolour,alfa,,,95,18,V,R,
742,112,28,17,5,47,33,984,['c'],1,left,['8'],4,290,[0.13720387],100,47,medium,plus,dotcolour,alfa,,,95,18,V,R,
743,113,29,17,5,36,44,884,['c'],0,right,['8'],4,116,[0.09355744],100,44,hard,plus,dotcolour,alfa,,,95,18,V,R,
744,114,30,17,5,47,33,583,['c'],1,left,['8'],4,154,[0.14781124],100,47,medium,plus,dotcolour,alfa,,,95,18,V,R,
745,115,31,17,5,47,33,618,['c'],1,left,['8'],4,132,[0.05000432],99,47,medium,plus,dotcolour,alfa,,,95,18,V,R,
746,116,32,17,5,53,27,683,['c'],1,left,['8'],4,125,[0.08596176],100,53,easy,plus,dotcolour,alfa,,,95,18,V,R,
747,117,33,17,5,27,53,667,['n'],1,right,['9'],5,278,[-0.0687107],99,53,easy,plus,dotcolour,alfa,,,95,18,V,R,
748,118,34,17,5,53,27,783,['c'],1,left,['9'],5,149,[0.1399339],100,53,easy,plus,dotcolour,alfa,,,95,18,V,R,
749,119,35,17,5,47,33,600,['c'],1,left,['9'],5,136,[0.08518362],100,47,medium,plus,dotcolour,alfa,,,95,18,V,R,
750,120,36,17,5,27,53,717,['n'],1,right,['9'],5,192,[-0.06996459],100,53,easy,plus,dotcolour,alfa,,,95,18,V,R,
751,121,37,17,5,36,44,783,['n'],1,right,['9'],5,210,[-0.1066726],100,44,hard,plus,dotcolour,alfa,,,95,18,V,R,
752,122,38,17,5,33,47,700,['n'],1,right,['9'],5,230,[-0.0802916],100,47,medium,plus,dotcolour,alfa,,,95,18,V,R,
753,123,39,17,5,36,44,534,['n'],1,right,['9'],5,209,[-0.01059156],70,44,hard,plus,dotcolour,alfa,,,95,18,V,R,
754,124,40,17,5,53,27,550,['c'],1,left,['9'],5,140,[0.06212972],100,53,easy,plus,dotcolour,alfa,,,95,18,V,R,
755,125,41,17,5,44,36,634,['c'],1,left,['9'],5,158,[0.12021838],100,44,hard,plus,dotcolour,alfa,,,95,18,V,R,
,,,,,,,,,,,,,,,,,,,,,1,soms waren de percentages onjuist ,95,18,V,R,
,,,,,,,,,,,,,,,,,,,,,2,['f'],95,18,V,R,
,,,,,,,,,,,,,,,,,,,,,3,['g'],95,18,V,R,
,,,,,,,,,,,,,,,,,,,,,5,['5'],95,18,V,R,
