trial,withinphasetrial,withinblocktrial,block,phase,dotsLeft,dotsRight,rt,resp,cor,cresp,conf_press,cj,RTconf,ev,fb,diff,difflevel,condition,task,manip,questionID,questionResp,sub,age,gender,handedness,
0,0,0,0,0,36,44,4534,['n'],1,right,['3'],4,5775,[0.00736355],59,44,hard,plus,dotcolour,beta,,,52,18,V,R,
1,1,1,0,0,53,27,2317,['c'],1,left,['2'],5,2019,[0.17577422],95,53,easy,plus,dotcolour,beta,,,52,18,V,R,
2,2,2,0,0,33,47,2850,['n'],1,right,['3'],4,2432,[-0.24930387],97,47,medium,plus,dotcolour,beta,,,52,18,V,R,
3,3,3,0,0,36,44,2400,['n'],1,right,['2'],5,4663,[-0.55529548],99,44,hard,plus,dotcolour,beta,,,52,18,V,R,
4,4,4,0,0,53,27,1617,['c'],1,left,['1'],6,652,[0.17452065],99,53,easy,plus,dotcolour,beta,,,52,18,V,R,
5,5,5,0,0,44,36,3333,['n'],0,left,['3'],4,2158,[0.17557841],19,44,hard,plus,dotcolour,beta,,,52,18,V,R,
6,6,6,0,0,44,36,1750,['c'],1,left,['2'],5,2011,[0.10449048],88,44,hard,plus,dotcolour,beta,,,52,18,V,R,
7,7,7,0,0,33,47,1933,['n'],1,right,['3'],4,1453,[-0.32716192],100,47,medium,plus,dotcolour,beta,,,52,18,V,R,
8,8,8,0,0,44,36,1800,['n'],0,left,['3'],4,2308,[0.03129034],57,44,hard,plus,dotcolour,beta,,,52,18,V,R,
9,9,9,0,0,27,53,1084,['n'],1,right,['2'],5,860,[-0.13646983],98,53,easy,plus,dotcolour,beta,,,52,18,V,R,
10,10,10,0,0,27,53,1367,['n'],1,right,['2'],5,964,[-0.32669833],100,53,easy,plus,dotcolour,beta,,,52,18,V,R,
11,11,11,0,0,47,33,1701,['c'],1,left,['2'],5,1147,[0.02023172],78,47,medium,plus,dotcolour,beta,,,52,18,V,R,
12,12,12,0,0,27,53,1000,['n'],1,right,['1'],6,1191,[-0.42303067],100,53,easy,plus,dotcolour,beta,,,52,18,V,R,
13,13,13,0,0,47,33,1583,['c'],1,left,['3'],4,1001,[0.09343095],94,47,medium,plus,dotcolour,beta,,,52,18,V,R,
14,14,14,0,0,27,53,1016,['n'],1,right,['1'],6,632,[-0.16276837],99,53,easy,plus,dotcolour,beta,,,52,18,V,R,
15,15,15,0,0,27,53,1466,['n'],1,right,['2'],5,1206,[-0.04951845],85,53,easy,plus,dotcolour,beta,,,52,18,V,R,
16,16,16,0,0,47,33,1400,['c'],1,left,['1'],6,830,[0.05092395],89,47,medium,plus,dotcolour,beta,,,52,18,V,R,
17,17,17,0,0,36,44,2367,['n'],1,right,['2'],5,880,[-0.11614856],96,44,hard,plus,dotcolour,beta,,,52,18,V,R,
18,18,18,0,0,44,36,1701,['c'],1,left,['3'],4,658,[0.02713983],86,44,hard,plus,dotcolour,beta,,,52,18,V,R,
19,19,19,0,0,53,27,1018,['c'],1,left,['1'],6,400,[0.17012163],100,53,easy,plus,dotcolour,beta,,,52,18,V,R,
20,20,20,0,0,47,33,1349,['c'],1,left,['1'],6,820,[0.08109187],94,47,medium,plus,dotcolour,beta,,,52,18,V,R,
21,21,21,0,0,33,47,983,['n'],1,right,['3'],4,1148,[0.03954276],57,47,medium,plus,dotcolour,beta,,,52,18,V,R,
22,22,22,0,0,27,53,1599,['n'],1,right,['3'],4,735,[-0.25561581],100,53,easy,plus,dotcolour,beta,,,52,18,V,R,
23,23,23,0,0,36,44,1782,['n'],1,right,['3'],4,603,[-0.06474319],94,44,hard,plus,dotcolour,beta,,,52,18,V,R,
24,24,24,0,0,33,47,867,['n'],1,right,['2'],5,434,[-0.08613568],98,47,medium,plus,dotcolour,beta,,,52,18,V,R,
25,25,25,0,0,44,36,2516,['c'],1,left,['8'],3,1172,[0.17106485],98,44,hard,plus,dotcolour,beta,,,52,18,V,R,
26,26,26,0,0,53,27,2517,['c'],1,left,['8'],3,475,[0.09630248],98,53,easy,plus,dotcolour,beta,,,52,18,V,R,
27,27,27,0,0,44,36,1101,['n'],0,left,['2'],5,452,[-0.0186997],88,44,hard,plus,dotcolour,beta,,,52,18,V,R,
28,28,28,0,0,33,47,850,['n'],1,right,['2'],5,929,[-0.22262327],99,47,medium,plus,dotcolour,beta,,,52,18,V,R,
29,29,29,0,0,27,53,701,['n'],1,right,['1'],6,746,[-0.217769],100,53,easy,plus,dotcolour,beta,,,52,18,V,R,
30,30,30,0,0,47,33,983,['c'],1,left,['1'],6,558,[0.17696631],100,47,medium,plus,dotcolour,beta,,,52,18,V,R,
31,31,31,0,0,33,47,883,['n'],1,right,['2'],5,437,[-0.19415889],100,47,medium,plus,dotcolour,beta,,,52,18,V,R,
32,32,32,0,0,33,47,1983,['n'],1,right,['3'],4,365,[-0.10078902],99,47,medium,plus,dotcolour,beta,,,52,18,V,R,
33,33,33,0,0,36,44,1350,['n'],1,right,['3'],4,1306,[-0.32799013],100,44,hard,plus,dotcolour,beta,,,52,18,V,R,
34,34,34,0,0,44,36,1600,['c'],1,left,['2'],5,614,[0.07794145],96,44,hard,plus,dotcolour,beta,,,52,18,V,R,
35,35,35,0,0,53,27,982,['c'],1,left,['2'],5,424,[0.02787476],91,53,easy,plus,dotcolour,beta,,,52,18,V,R,
36,36,36,0,0,36,44,3200,['c'],0,right,['3'],4,681,[0.0931278],96,44,hard,plus,dotcolour,beta,,,52,18,V,R,
37,37,37,0,0,47,33,1034,['c'],1,left,['2'],5,1685,[0.28775915],99,47,medium,plus,dotcolour,beta,,,52,18,V,R,
38,38,38,0,0,53,27,1434,['c'],1,left,['1'],6,593,[0.12392166],99,53,easy,plus,dotcolour,beta,,,52,18,V,R,
39,39,39,0,0,47,33,1200,['c'],1,left,['3'],4,586,[0.2993646],100,47,medium,plus,dotcolour,beta,,,52,18,V,R,
40,40,40,0,0,53,27,1201,['c'],1,left,['2'],5,299,[0.14300536],100,53,easy,plus,dotcolour,beta,,,52,18,V,R,
41,41,41,0,0,36,44,983,['c'],0,right,['2'],5,450,[-0.00288524],80,44,hard,plus,dotcolour,beta,,,52,18,V,R,
42,42,0,1,0,47,33,1401,['c'],1,left,['1'],6,723,[0.17291875],99,47,medium,plus,dotcolour,beta,,,52,18,V,R,
43,43,1,1,0,47,33,1734,['c'],1,left,['1'],6,370,[0.09125624],99,47,medium,plus,dotcolour,beta,,,52,18,V,R,
44,44,2,1,0,33,47,1067,['n'],1,right,['2'],5,378,[-0.06178264],97,47,medium,plus,dotcolour,beta,,,52,18,V,R,
45,45,3,1,0,44,36,1316,['c'],1,left,['2'],5,1111,[0.1167487],95,44,hard,plus,dotcolour,beta,,,52,18,V,R,
46,46,4,1,0,36,44,2700,['c'],0,right,['3'],4,2168,[-0.02462676],59,44,hard,plus,dotcolour,beta,,,52,18,V,R,
47,47,5,1,0,27,53,1500,['n'],1,right,['2'],5,1446,[-0.09723908],91,53,easy,plus,dotcolour,beta,,,52,18,V,R,
48,48,6,1,0,27,53,884,['n'],1,right,['2'],5,418,[-0.118468],99,53,easy,plus,dotcolour,beta,,,52,18,V,R,
49,49,7,1,0,47,33,1417,['c'],1,left,['2'],5,434,[0.1911744],100,47,medium,plus,dotcolour,beta,,,52,18,V,R,
50,50,8,1,0,53,27,1651,['c'],1,left,['2'],5,392,[0.1022117],99,53,easy,plus,dotcolour,beta,,,52,18,V,R,
51,51,9,1,0,36,44,1034,['n'],1,right,['1'],6,1088,[-0.00791351],75,44,hard,plus,dotcolour,beta,,,52,18,V,R,
52,52,10,1,0,27,53,934,['n'],1,right,['1'],6,824,[-0.21158106],100,53,easy,plus,dotcolour,beta,,,52,18,V,R,
53,53,11,1,0,44,36,1967,['c'],1,left,['3'],4,1265,[0.13123812],95,44,hard,plus,dotcolour,beta,,,52,18,V,R,
54,54,12,1,0,53,27,1000,['c'],1,left,['2'],5,431,[0.1546933],100,53,easy,plus,dotcolour,beta,,,52,18,V,R,
55,55,13,1,0,53,27,767,['c'],1,left,['2'],5,312,[0.22056861],100,53,easy,plus,dotcolour,beta,,,52,18,V,R,
56,56,14,1,0,27,53,950,['n'],1,right,['1'],6,1111,[-0.39546869],100,53,easy,plus,dotcolour,beta,,,52,18,V,R,
57,57,15,1,0,44,36,1668,['c'],1,left,['2'],5,441,[0.0583096],96,44,hard,plus,dotcolour,beta,,,52,18,V,R,
58,58,16,1,0,47,33,934,['n'],0,left,['8'],3,2547,[0.34647049],4,47,medium,plus,dotcolour,beta,,,52,18,V,R,
59,59,17,1,0,33,47,1517,['c'],0,right,['2'],5,1937,[-0.14496533],24,47,medium,plus,dotcolour,beta,,,52,18,V,R,
60,60,18,1,0,33,47,1400,['n'],1,right,['2'],5,484,[-0.10233557],98,47,medium,plus,dotcolour,beta,,,52,18,V,R,
61,61,19,1,0,27,53,834,['n'],1,right,['1'],6,489,[-0.07064838],96,53,easy,plus,dotcolour,beta,,,52,18,V,R,
62,62,20,1,0,27,53,867,['n'],1,right,['2'],5,820,[-0.29175812],100,53,easy,plus,dotcolour,beta,,,52,18,V,R,
63,63,21,1,0,44,36,1867,['c'],1,left,['3'],4,1713,[0.091295],88,44,hard,plus,dotcolour,beta,,,52,18,V,R,
64,64,22,1,0,47,33,1284,['n'],0,left,['3'],4,322,[0.05959327],47,47,medium,plus,dotcolour,beta,,,52,18,V,R,
65,65,23,1,0,36,44,1866,['c'],0,right,['3'],4,643,[0.06697929],94,44,hard,plus,dotcolour,beta,,,52,18,V,R,
66,66,24,1,0,53,27,1650,['c'],1,left,['2'],5,473,[0.07720044],97,53,easy,plus,dotcolour,beta,,,52,18,V,R,
67,67,25,1,0,53,27,1068,['c'],1,left,['1'],6,485,[0.19127018],100,53,easy,plus,dotcolour,beta,,,52,18,V,R,
68,68,26,1,0,36,44,2484,['c'],0,right,['3'],4,439,[0.01376848],87,44,hard,plus,dotcolour,beta,,,52,18,V,R,
69,69,27,1,0,53,27,1201,['c'],1,left,['1'],6,662,[0.10216748],97,53,easy,plus,dotcolour,beta,,,52,18,V,R,
70,70,28,1,0,44,36,2099,['c'],1,left,['3'],4,313,[0.14674036],100,44,hard,plus,dotcolour,beta,,,52,18,V,R,
71,71,29,1,0,36,44,1516,['n'],1,right,['2'],5,1177,[0.0702826],44,44,hard,plus,dotcolour,beta,,,52,18,V,R,
72,72,30,1,0,33,47,1184,['n'],1,right,['3'],4,243,[-0.05648357],98,47,medium,plus,dotcolour,beta,,,52,18,V,R,
73,73,31,1,0,44,36,1833,['c'],1,left,['2'],5,330,[0.02647722],93,44,hard,plus,dotcolour,beta,,,52,18,V,R,
74,74,32,1,0,33,47,1366,['n'],1,right,['3'],4,744,[-0.15956565],99,47,medium,plus,dotcolour,beta,,,52,18,V,R,
75,75,33,1,0,44,36,1017,['c'],1,left,['3'],4,250,[0.11469915],100,44,hard,plus,dotcolour,beta,,,52,18,V,R,
76,76,34,1,0,36,44,1118,['n'],1,right,['3'],4,1052,[-0.15847919],98,44,hard,plus,dotcolour,beta,,,52,18,V,R,
77,77,35,1,0,36,44,1750,['c'],0,right,['3'],4,749,[-0.07463011],40,44,hard,plus,dotcolour,beta,,,52,18,V,R,
78,78,36,1,0,33,47,1283,['n'],1,right,['2'],5,317,[-0.11577644],100,47,medium,plus,dotcolour,beta,,,52,18,V,R,
79,79,37,1,0,47,33,1000,['c'],1,left,['2'],5,298,[0.14479653],100,47,medium,plus,dotcolour,beta,,,52,18,V,R,
80,80,38,1,0,53,27,934,['c'],1,left,['2'],5,218,[0.14378103],100,53,easy,plus,dotcolour,beta,,,52,18,V,R,
81,81,39,1,0,27,53,800,['n'],1,right,['2'],5,387,[-0.20979176],100,53,easy,plus,dotcolour,beta,,,52,18,V,R,
82,82,40,1,0,47,33,1016,['c'],1,left,['2'],5,172,[0.12179006],100,47,medium,plus,dotcolour,beta,,,52,18,V,R,
83,83,41,1,0,33,47,1100,['c'],0,right,['3'],4,178,[0.06129817],99,47,medium,plus,dotcolour,beta,,,52,18,V,R,
84,84,0,2,0,47,33,2051,['c'],1,left,['1'],6,569,[0.11743243],98,47,medium,plus,dotcolour,beta,,,52,18,V,R,
85,85,1,2,0,53,27,1268,['c'],1,left,['2'],5,305,[0.09175873],99,53,easy,plus,dotcolour,beta,,,52,18,V,R,
86,86,2,2,0,27,53,1050,['n'],1,right,['8'],3,180,[-0.15347825],100,53,easy,plus,dotcolour,beta,,,52,18,V,R,
87,87,3,2,0,33,47,1100,['n'],1,right,['3'],4,730,[-0.17729785],99,47,medium,plus,dotcolour,beta,,,52,18,V,R,
88,88,4,2,0,33,47,1551,['c'],0,right,['3'],4,536,[-0.1383292],12,47,medium,plus,dotcolour,beta,,,52,18,V,R,
89,89,5,2,0,44,36,1332,['c'],1,left,['2'],5,247,[0.09071504],100,44,hard,plus,dotcolour,beta,,,52,18,V,R,
90,90,6,2,0,27,53,1183,['n'],1,right,['1'],6,191,[-0.04069077],98,53,easy,plus,dotcolour,beta,,,52,18,V,R,
91,91,7,2,0,36,44,1300,['c'],0,right,['2'],5,229,[0.02679597],96,44,hard,plus,dotcolour,beta,,,52,18,V,R,
92,92,8,2,0,33,47,999,['n'],1,right,['2'],5,156,[-0.07420508],100,47,medium,plus,dotcolour,beta,,,52,18,V,R,
93,93,9,2,0,36,44,933,['c'],0,right,['2'],5,250,[0.05105674],98,44,hard,plus,dotcolour,beta,,,52,18,V,R,
94,94,10,2,0,44,36,784,['c'],1,left,['2'],5,194,[0.09418729],100,44,hard,plus,dotcolour,beta,,,52,18,V,R,
95,95,11,2,0,27,53,766,['n'],1,right,['2'],5,196,[-0.06807661],99,53,easy,plus,dotcolour,beta,,,52,18,V,R,
96,96,12,2,0,36,44,917,['n'],1,right,['2'],5,129,[-0.12214173],100,44,hard,plus,dotcolour,beta,,,52,18,V,R,
97,97,13,2,0,44,36,1050,['c'],1,left,['1'],6,243,[0.1083805],100,44,hard,plus,dotcolour,beta,,,52,18,V,R,
98,98,14,2,0,36,44,1916,['c'],0,right,['1'],6,205,[0.02594579],96,44,hard,plus,dotcolour,beta,,,52,18,V,R,
99,99,15,2,0,36,44,1551,['n'],1,right,['3'],4,633,[-0.06593523],94,44,hard,plus,dotcolour,beta,,,52,18,V,R,
100,100,16,2,0,33,47,1050,['n'],1,right,['2'],5,135,[-0.03194113],99,47,medium,plus,dotcolour,beta,,,52,18,V,R,
101,101,17,2,0,47,33,868,['n'],0,left,['2'],5,177,[-0.03339842],98,47,medium,plus,dotcolour,beta,,,52,18,V,R,
102,102,18,2,0,27,53,666,['n'],1,right,['2'],5,208,[-0.10809767],100,53,easy,plus,dotcolour,beta,,,52,18,V,R,
103,103,19,2,0,33,47,1966,['n'],1,right,['3'],4,514,[-0.24738114],100,47,medium,plus,dotcolour,beta,,,52,18,V,R,
104,104,20,2,0,47,33,1234,['n'],0,left,['3'],4,229,[-0.08401402],99,47,medium,plus,dotcolour,beta,,,52,18,V,R,
105,105,21,2,0,53,27,1084,['c'],1,left,['2'],5,474,[0.11858043],99,53,easy,plus,dotcolour,beta,,,52,18,V,R,
106,106,22,2,0,53,27,650,['c'],1,left,['2'],5,390,[0.17881718],100,53,easy,plus,dotcolour,beta,,,52,18,V,R,
107,107,23,2,0,44,36,1266,['n'],0,left,['3'],4,157,[-0.03633322],98,44,hard,plus,dotcolour,beta,,,52,18,V,R,
108,108,24,2,0,53,27,817,['c'],1,left,['2'],5,127,[0.09046458],100,53,easy,plus,dotcolour,beta,,,52,18,V,R,
109,109,25,2,0,44,36,800,['c'],1,left,['2'],5,171,[0.06174429],99,44,hard,plus,dotcolour,beta,,,52,18,V,R,
110,110,26,2,0,53,27,717,['c'],1,left,['2'],5,296,[0.13452938],100,53,easy,plus,dotcolour,beta,,,52,18,V,R,
111,111,27,2,0,53,27,817,['c'],1,left,['2'],5,253,[0.14373567],100,53,easy,plus,dotcolour,beta,,,52,18,V,R,
112,112,28,2,0,47,33,1017,['c'],1,left,['2'],5,236,[0.09379611],100,47,medium,plus,dotcolour,beta,,,52,18,V,R,
113,113,29,2,0,36,44,967,['n'],1,right,['3'],4,622,[-0.13497821],99,44,hard,plus,dotcolour,beta,,,52,18,V,R,
114,114,30,2,0,36,44,849,['n'],1,right,['3'],4,188,[-0.06794459],99,44,hard,plus,dotcolour,beta,,,52,18,V,R,
115,115,31,2,0,33,47,884,['n'],1,right,['2'],5,226,[-0.06969951],99,47,medium,plus,dotcolour,beta,,,52,18,V,R,
116,116,32,2,0,33,47,750,['n'],1,right,['1'],6,212,[-0.11086602],100,47,medium,plus,dotcolour,beta,,,52,18,V,R,
117,117,33,2,0,47,33,1184,['c'],1,left,['2'],5,238,[0.12207517],100,47,medium,plus,dotcolour,beta,,,52,18,V,R,
118,118,34,2,0,53,27,733,['c'],1,left,['2'],5,216,[0.10672072],100,53,easy,plus,dotcolour,beta,,,52,18,V,R,
119,119,35,2,0,47,33,850,['c'],1,left,['2'],5,183,[0.02531417],97,47,medium,plus,dotcolour,beta,,,52,18,V,R,
120,120,36,2,0,27,53,967,['n'],1,right,['1'],6,123,[-0.10357963],100,53,easy,plus,dotcolour,beta,,,52,18,V,R,
121,121,37,2,0,44,36,1067,['c'],1,left,['2'],5,140,[0.15523008],100,44,hard,plus,dotcolour,beta,,,52,18,V,R,
122,122,38,2,0,27,53,1167,['n'],1,right,['2'],5,257,[-0.13184773],100,53,easy,plus,dotcolour,beta,,,52,18,V,R,
123,123,39,2,0,27,53,634,['n'],1,right,['2'],5,134,[-0.10902492],100,53,easy,plus,dotcolour,beta,,,52,18,V,R,
124,124,40,2,0,47,33,1267,['n'],0,left,['2'],5,215,[-0.01700608],94,47,medium,plus,dotcolour,beta,,,52,18,V,R,
125,125,41,2,0,44,36,1333,['n'],0,left,['3'],4,267,[-0.06427152],98,44,hard,plus,dotcolour,beta,,,52,18,V,R,
126,0,0,3,1,44,36,1967,['n'],0,left,['2'],5,163,[-0.0721849],68,44,hard,minus,dotcolour,beta,,,52,18,V,R,
127,1,1,3,1,53,27,933,['c'],1,left,['3'],4,264,[0.13407231],94,53,easy,minus,dotcolour,beta,,,52,18,V,R,
128,2,2,3,1,53,27,550,['c'],1,left,['2'],5,225,[0.14660499],97,53,easy,minus,dotcolour,beta,,,52,18,V,R,
129,3,3,3,1,44,36,985,['c'],1,left,['2'],5,234,[0.14356237],96,44,hard,minus,dotcolour,beta,,,52,18,V,R,
130,4,4,3,1,53,27,617,['c'],1,left,['2'],5,209,[0.09078191],80,53,easy,minus,dotcolour,beta,,,52,18,V,R,
131,5,5,3,1,53,27,834,['c'],1,left,['2'],5,241,[0.18388952],99,53,easy,minus,dotcolour,beta,,,52,18,V,R,
132,6,6,3,1,47,33,733,['c'],1,left,['2'],5,266,[0.18805517],99,47,medium,minus,dotcolour,beta,,,52,18,V,R,
133,7,7,3,1,44,36,1450,['c'],1,left,['2'],5,231,[0.09509352],81,44,hard,minus,dotcolour,beta,,,52,18,V,R,
134,8,8,3,1,47,33,749,['c'],1,left,['3'],4,178,[0.13744546],97,47,medium,minus,dotcolour,beta,,,52,18,V,R,
135,9,9,3,1,53,27,1068,['c'],1,left,['1'],6,185,[0.07413205],69,53,easy,minus,dotcolour,beta,,,52,18,V,R,
136,10,10,3,1,27,53,1467,['n'],1,right,['1'],6,208,[-0.12572252],94,53,easy,minus,dotcolour,beta,,,52,18,V,R,
137,11,11,3,1,47,33,2366,['c'],1,left,['3'],4,218,[0.06263606],57,47,medium,minus,dotcolour,beta,,,52,18,V,R,
138,12,12,3,1,36,44,1350,['n'],1,right,['3'],4,205,[-0.05965995],54,44,hard,minus,dotcolour,beta,,,52,18,V,R,
139,13,13,3,1,33,47,718,['n'],1,right,['3'],4,177,[-0.18581375],100,47,medium,minus,dotcolour,beta,,,52,18,V,R,
140,14,14,3,1,33,47,967,['n'],1,right,['2'],5,541,[-0.13811521],88,47,medium,minus,dotcolour,beta,,,52,18,V,R,
141,15,15,3,1,27,53,851,['n'],1,right,['3'],4,150,[-0.05029563],44,53,easy,minus,dotcolour,beta,,,52,18,V,R,
142,16,16,3,1,36,44,1233,['c'],0,right,['2'],5,432,[-0.08375033],2,44,hard,minus,dotcolour,beta,,,52,18,V,R,
143,17,17,3,1,33,47,1550,['n'],1,right,['2'],5,178,[-0.12981151],96,47,medium,minus,dotcolour,beta,,,52,18,V,R,
144,18,18,3,1,53,27,900,['c'],1,left,['2'],5,208,[0.02576495],24,53,easy,minus,dotcolour,beta,,,52,18,V,R,
145,19,19,3,1,47,33,2000,['c'],1,left,['3'],4,201,[0.07329812],67,47,medium,minus,dotcolour,beta,,,52,18,V,R,
146,20,20,3,1,44,36,667,['c'],1,left,['3'],4,215,[0.09221233],81,44,hard,minus,dotcolour,beta,,,52,18,V,R,
147,21,21,3,1,27,53,884,['n'],1,right,['3'],4,157,[-0.02590719],21,53,easy,minus,dotcolour,beta,,,52,18,V,R,
148,22,22,3,1,27,53,834,['n'],1,right,['2'],5,230,[-0.11260796],89,53,easy,minus,dotcolour,beta,,,52,18,V,R,
149,23,23,3,1,36,44,1700,['c'],0,right,['3'],4,154,[0.11996324],95,44,hard,minus,dotcolour,beta,,,52,18,V,R,
150,24,24,3,1,53,27,950,['c'],1,left,['2'],5,143,[0.16106208],99,53,easy,minus,dotcolour,beta,,,52,18,V,R,
151,25,25,3,1,27,53,833,['n'],1,right,['3'],4,162,[-0.14340262],98,53,easy,minus,dotcolour,beta,,,52,18,V,R,
152,26,26,3,1,36,44,783,['n'],1,right,['2'],5,181,[-0.12074805],94,44,hard,minus,dotcolour,beta,,,52,18,V,R,
153,27,27,3,1,33,47,766,['n'],1,right,['2'],5,328,[-0.04994557],46,47,medium,minus,dotcolour,beta,,,52,18,V,R,
154,28,28,3,1,27,53,950,['n'],1,right,['3'],4,134,[-0.11762791],95,53,easy,minus,dotcolour,beta,,,52,18,V,R,
155,29,29,3,1,44,36,1450,['c'],1,left,['2'],5,112,[0.12577156],98,44,hard,minus,dotcolour,beta,,,52,18,V,R,
156,30,30,3,1,47,33,1067,['c'],1,left,['2'],5,179,[0.11697871],93,47,medium,minus,dotcolour,beta,,,52,18,V,R,
157,31,31,3,1,44,36,1333,['c'],1,left,['3'],4,232,[0.09253384],80,44,hard,minus,dotcolour,beta,,,52,18,V,R,
158,32,32,3,1,36,44,1866,['c'],0,right,['2'],5,172,[0.06584323],61,44,hard,minus,dotcolour,beta,,,52,18,V,R,
159,33,33,3,1,27,53,767,['n'],1,right,['3'],4,136,[-0.05199289],46,53,easy,minus,dotcolour,beta,,,52,18,V,R,
160,34,34,3,1,36,44,1133,['c'],0,right,['3'],4,239,[-0.01840615],6,44,hard,minus,dotcolour,beta,,,52,18,V,R,
161,35,35,3,1,44,36,984,['c'],1,left,['2'],5,231,[0.11756092],91,44,hard,minus,dotcolour,beta,,,52,18,V,R,
162,36,36,3,1,36,44,1084,['n'],1,right,['3'],4,1116,[0.04409059],15,44,hard,minus,dotcolour,beta,,,52,18,V,R,
163,37,37,3,1,47,33,2534,['c'],1,left,['3'],4,347,[0.11529175],86,47,medium,minus,dotcolour,beta,,,52,18,V,R,
164,38,38,3,1,33,47,1033,['n'],1,right,['3'],4,253,[-0.04612116],42,47,medium,minus,dotcolour,beta,,,52,18,V,R,
165,39,39,3,1,33,47,1484,['c'],0,right,['2'],5,281,[0.11105634],87,47,medium,minus,dotcolour,beta,,,52,18,V,R,
166,40,40,3,1,47,33,1083,['c'],1,left,['2'],5,187,[0.05162115],46,47,medium,minus,dotcolour,beta,,,52,18,V,R,
167,41,41,3,1,33,47,1666,['n'],1,right,['3'],4,1788,[-0.26104861],94,47,medium,minus,dotcolour,beta,,,52,18,V,R,
168,42,0,4,1,44,36,2100,['n'],0,left,['2'],5,296,[-0.08451651],72,44,hard,minus,dotcolour,beta,,,52,18,V,R,
169,43,1,4,1,27,53,4767,['n'],1,right,['8'],3,255,[-0.09811126],82,53,easy,minus,dotcolour,beta,,,52,18,V,R,
170,44,2,4,1,36,44,1534,['n'],1,right,['3'],4,185,[-0.09452812],84,44,hard,minus,dotcolour,beta,,,52,18,V,R,
171,45,3,4,1,47,33,1183,['n'],0,left,['3'],4,164,[-0.06077863],56,47,medium,minus,dotcolour,beta,,,52,18,V,R,
172,46,4,4,1,27,53,784,['n'],1,right,['3'],4,392,[-0.15502039],95,53,easy,minus,dotcolour,beta,,,52,18,V,R,
173,47,5,4,1,47,33,1350,['c'],1,left,['2'],5,155,[0.14972737],99,47,medium,minus,dotcolour,beta,,,52,18,V,R,
174,48,6,4,1,44,36,1117,['c'],1,left,['2'],5,161,[0.1043251],90,44,hard,minus,dotcolour,beta,,,52,18,V,R,
175,49,7,4,1,47,33,733,['c'],1,left,['2'],5,143,[0.106114],92,47,medium,minus,dotcolour,beta,,,52,18,V,R,
176,50,8,4,1,33,47,750,['n'],1,right,['2'],5,268,[-0.0940615],79,47,medium,minus,dotcolour,beta,,,52,18,V,R,
177,51,9,4,1,27,53,900,['n'],1,right,['1'],6,191,[-0.07213042],66,53,easy,minus,dotcolour,beta,,,52,18,V,R,
178,52,10,4,1,47,33,1166,['c'],1,left,['2'],5,145,[0.13065355],97,47,medium,minus,dotcolour,beta,,,52,18,V,R,
179,53,11,4,1,36,44,983,['n'],1,right,['2'],5,197,[-0.18611145],100,44,hard,minus,dotcolour,beta,,,52,18,V,R,
180,54,12,4,1,36,44,1234,['n'],1,right,['1'],6,165,[-0.06038434],55,44,hard,minus,dotcolour,beta,,,52,18,V,R,
181,55,13,4,1,36,44,1400,['n'],1,right,['8'],3,761,[-0.04888279],47,44,hard,minus,dotcolour,beta,,,52,18,V,R,
182,56,14,4,1,33,47,1717,['n'],1,right,['3'],4,167,[-0.08157354],76,47,medium,minus,dotcolour,beta,,,52,18,V,R,
183,57,15,4,1,33,47,2033,['n'],1,right,['3'],4,159,[-0.15521923],99,47,medium,minus,dotcolour,beta,,,52,18,V,R,
184,58,16,4,1,33,47,1016,['n'],1,right,['2'],5,121,[-0.10186266],92,47,medium,minus,dotcolour,beta,,,52,18,V,R,
185,59,17,4,1,36,44,716,['n'],1,right,['2'],5,218,[-0.09383514],81,44,hard,minus,dotcolour,beta,,,52,18,V,R,
186,60,18,4,1,27,53,866,['n'],1,right,['1'],6,167,[-0.12233433],95,53,easy,minus,dotcolour,beta,,,52,18,V,R,
187,61,19,4,1,53,27,1350,['c'],1,left,['2'],5,588,[0.11641825],81,53,easy,minus,dotcolour,beta,,,52,18,V,R,
188,62,20,4,1,33,47,1234,['c'],0,right,['2'],5,164,[0.0348612],28,47,medium,minus,dotcolour,beta,,,52,18,V,R,
189,63,21,4,1,53,27,866,['c'],1,left,['2'],5,212,[0.04968454],44,53,easy,minus,dotcolour,beta,,,52,18,V,R,
190,64,22,4,1,44,36,2100,['c'],1,left,['3'],4,225,[0.04252504],38,44,hard,minus,dotcolour,beta,,,52,18,V,R,
191,65,23,4,1,53,27,784,['c'],1,left,['2'],5,234,[0.13293624],95,53,easy,minus,dotcolour,beta,,,52,18,V,R,
192,66,24,4,1,44,36,1266,['n'],0,left,['3'],4,167,[-0.05122637],45,44,hard,minus,dotcolour,beta,,,52,18,V,R,
193,67,25,4,1,47,33,1532,['c'],1,left,['2'],5,188,[0.13570604],97,47,medium,minus,dotcolour,beta,,,52,18,V,R,
194,68,26,4,1,33,47,1450,['c'],0,right,['2'],5,148,[0.09218063],85,47,medium,minus,dotcolour,beta,,,52,18,V,R,
195,69,27,4,1,53,27,850,['c'],1,left,['2'],5,110,[0.08811138],85,53,easy,minus,dotcolour,beta,,,52,18,V,R,
196,70,28,4,1,36,44,1583,['n'],1,right,['3'],4,147,[-0.06693733],63,44,hard,minus,dotcolour,beta,,,52,18,V,R,
197,71,29,4,1,53,27,968,['c'],1,left,['2'],5,320,[0.13113934],92,53,easy,minus,dotcolour,beta,,,52,18,V,R,
198,72,30,4,1,44,36,868,['c'],1,left,['2'],5,162,[0.09007381],82,44,hard,minus,dotcolour,beta,,,52,18,V,R,
199,73,31,4,1,44,36,834,['c'],1,left,['3'],4,179,[0.04045923],34,44,hard,minus,dotcolour,beta,,,52,18,V,R,
200,74,32,4,1,27,53,1183,['n'],1,right,['2'],5,366,[-0.22642137],99,53,easy,minus,dotcolour,beta,,,52,18,V,R,
201,75,33,4,1,33,47,1933,['n'],1,right,['1'],6,115,[-0.08964047],86,47,medium,minus,dotcolour,beta,,,52,18,V,R,
202,76,34,4,1,47,33,2084,['c'],1,left,['2'],5,116,[0.13582981],99,47,medium,minus,dotcolour,beta,,,52,18,V,R,
203,77,35,4,1,53,27,867,['c'],1,left,['2'],5,454,[0.15171844],93,53,easy,minus,dotcolour,beta,,,52,18,V,R,
204,78,36,4,1,36,44,1566,['n'],1,right,['3'],4,151,[-0.08602872],80,44,hard,minus,dotcolour,beta,,,52,18,V,R,
205,79,37,4,1,27,53,1084,['n'],1,right,['3'],4,183,[-0.10659381],90,53,easy,minus,dotcolour,beta,,,52,18,V,R,
206,80,38,4,1,53,27,1049,['c'],1,left,['3'],4,127,[0.12899615],98,53,easy,minus,dotcolour,beta,,,52,18,V,R,
207,81,39,4,1,47,33,767,['c'],1,left,['2'],5,124,[0.0449405],37,47,medium,minus,dotcolour,beta,,,52,18,V,R,
208,82,40,4,1,44,36,800,['c'],1,left,['3'],4,144,[0.05527533],50,44,hard,minus,dotcolour,beta,,,52,18,V,R,
209,83,41,4,1,27,53,817,['n'],1,right,['2'],5,339,[-0.17514684],98,53,easy,minus,dotcolour,beta,,,52,18,V,R,
210,84,0,5,1,53,27,1234,['c'],1,left,['2'],5,164,[0.23828121],100,53,easy,minus,dotcolour,beta,,,52,18,V,R,
211,85,1,5,1,33,47,1067,['n'],1,right,['2'],5,157,[-0.13608422],97,47,medium,minus,dotcolour,beta,,,52,18,V,R,
212,86,2,5,1,33,47,1151,['n'],1,right,['3'],4,121,[-0.1119464],95,47,medium,minus,dotcolour,beta,,,52,18,V,R,
213,87,3,5,1,44,36,817,['c'],1,left,['3'],4,437,[0.19090155],98,44,hard,minus,dotcolour,beta,,,52,18,V,R,
214,88,4,5,1,53,27,832,['c'],1,left,['3'],4,132,[0.04992349],43,53,easy,minus,dotcolour,beta,,,52,18,V,R,
215,89,5,5,1,44,36,617,['c'],1,left,['3'],4,127,[0.11568309],95,44,hard,minus,dotcolour,beta,,,52,18,V,R,
216,90,6,5,1,36,44,850,['n'],1,right,['3'],4,337,[-0.05856526],52,44,hard,minus,dotcolour,beta,,,52,18,V,R,
217,91,7,5,1,33,47,1482,['n'],1,right,['3'],4,121,[-0.1096906],94,47,medium,minus,dotcolour,beta,,,52,18,V,R,
218,92,8,5,1,47,33,2150,['c'],1,left,['3'],4,248,[0.14703615],96,47,medium,minus,dotcolour,beta,,,52,18,V,R,
219,93,9,5,1,53,27,2066,['c'],1,left,['3'],4,197,[0.06164413],56,53,easy,minus,dotcolour,beta,,,52,18,V,R,
220,94,10,5,1,47,33,2150,['c'],1,left,['3'],4,88,[0.07144018],72,47,medium,minus,dotcolour,beta,,,52,18,V,R,
221,95,11,5,1,53,27,733,['c'],1,left,['2'],5,242,[0.1266941],93,53,easy,minus,dotcolour,beta,,,52,18,V,R,
222,96,12,5,1,33,47,1450,['n'],1,right,['2'],5,183,[-0.06566913],60,47,medium,minus,dotcolour,beta,,,52,18,V,R,
223,97,13,5,1,27,53,717,['n'],1,right,['2'],5,172,[-0.06603452],61,53,easy,minus,dotcolour,beta,,,52,18,V,R,
224,98,14,5,1,44,36,1151,['c'],1,left,['2'],5,129,[0.06133745],57,44,hard,minus,dotcolour,beta,,,52,18,V,R,
225,99,15,5,1,27,53,666,['n'],1,right,['2'],5,162,[-0.1363609],97,53,easy,minus,dotcolour,beta,,,52,18,V,R,
226,100,16,5,1,36,44,2051,['c'],0,right,['3'],4,91,[0.05049298],43,44,hard,minus,dotcolour,beta,,,52,18,V,R,
227,101,17,5,1,27,53,950,['n'],1,right,['3'],4,235,[-0.17339502],99,53,easy,minus,dotcolour,beta,,,52,18,V,R,
228,102,18,5,1,47,33,1967,['c'],1,left,['3'],4,212,[0.10947841],89,47,medium,minus,dotcolour,beta,,,52,18,V,R,
229,103,19,5,1,36,44,1117,['n'],1,right,['2'],5,143,[-0.14722968],99,44,hard,minus,dotcolour,beta,,,52,18,V,R,
230,104,20,5,1,44,36,1217,['c'],1,left,['2'],5,442,[0.08353295],68,44,hard,minus,dotcolour,beta,,,52,18,V,R,
231,105,21,5,1,53,27,849,['c'],1,left,['2'],5,167,[0.05175356],46,53,easy,minus,dotcolour,beta,,,52,18,V,R,
232,106,22,5,1,27,53,784,['n'],1,right,['2'],5,179,[-0.13141747],96,53,easy,minus,dotcolour,beta,,,52,18,V,R,
233,107,23,5,1,36,44,1016,['c'],0,right,['3'],4,132,[0.07854544],76,44,hard,minus,dotcolour,beta,,,52,18,V,R,
234,108,24,5,1,27,53,967,['n'],1,right,['3'],4,162,[-0.04624351],40,53,easy,minus,dotcolour,beta,,,52,18,V,R,
235,109,25,5,1,33,47,1516,['n'],1,right,['2'],5,135,[-0.10480397],92,47,medium,minus,dotcolour,beta,,,52,18,V,R,
236,110,26,5,1,47,33,1516,['c'],1,left,['2'],5,151,[0.08256538],78,47,medium,minus,dotcolour,beta,,,52,18,V,R,
237,111,27,5,1,44,36,1000,['c'],1,left,['2'],5,154,[0.04456436],38,44,hard,minus,dotcolour,beta,,,52,18,V,R,
238,112,28,5,1,47,33,1383,['n'],0,left,['3'],4,198,[-0.10044433],86,47,medium,minus,dotcolour,beta,,,52,18,V,R,
239,113,29,5,1,33,47,1616,['n'],1,right,['3'],4,151,[-0.05148021],45,47,medium,minus,dotcolour,beta,,,52,18,V,R,
240,114,30,5,1,33,47,1234,['c'],0,right,['2'],5,153,[0.00715979],10,47,medium,minus,dotcolour,beta,,,52,18,V,R,
241,115,31,5,1,53,27,1283,['c'],1,left,['3'],4,170,[0.12854861],96,53,easy,minus,dotcolour,beta,,,52,18,V,R,
242,116,32,5,1,44,36,1001,['c'],1,left,['2'],5,156,[0.05732358],52,44,hard,minus,dotcolour,beta,,,52,18,V,R,
243,117,33,5,1,36,44,2000,['n'],1,right,['3'],4,359,[-0.003306],17,44,hard,minus,dotcolour,beta,,,52,18,V,R,
244,118,34,5,1,44,36,1267,['c'],1,left,['8'],3,799,[0.12357124],80,44,hard,minus,dotcolour,beta,,,52,18,V,R,
245,119,35,5,1,53,27,3500,['c'],1,left,['8'],3,132,[0.12333541],97,53,easy,minus,dotcolour,beta,,,52,18,V,R,
246,120,36,5,1,27,53,1367,['c'],0,right,['2'],5,266,[0.12249317],91,53,easy,minus,dotcolour,beta,,,52,18,V,R,
247,121,37,5,1,47,33,2634,['c'],1,left,['2'],5,183,[0.11511111],92,47,medium,minus,dotcolour,beta,,,52,18,V,R,
248,122,38,5,1,36,44,1283,['n'],1,right,['2'],5,142,[-0.09472568],87,44,hard,minus,dotcolour,beta,,,52,18,V,R,
249,123,39,5,1,27,53,783,['n'],1,right,['2'],5,170,[-0.15738965],99,53,easy,minus,dotcolour,beta,,,52,18,V,R,
250,124,40,5,1,36,44,883,['n'],1,right,['2'],5,154,[-0.00661211],10,44,hard,minus,dotcolour,beta,,,52,18,V,R,
251,125,41,5,1,47,33,967,['c'],1,left,['2'],5,134,[0.10421193],92,47,medium,minus,dotcolour,beta,,,52,18,V,R,
252,0,0,6,2,47,33,951,['c'],1,left,['2'],5,512,[0.06291953],95,47,medium,plus,dotcolour,beta,,,52,18,V,R,
253,1,1,6,2,27,53,1400,['n'],1,right,['3'],4,205,[-0.1133288],100,53,easy,plus,dotcolour,beta,,,52,18,V,R,
254,2,2,6,2,27,53,950,['n'],1,right,['3'],4,208,[-0.13770021],100,53,easy,plus,dotcolour,beta,,,52,18,V,R,
255,3,3,6,2,27,53,633,['n'],1,right,['3'],4,200,[-0.08223895],100,53,easy,plus,dotcolour,beta,,,52,18,V,R,
256,4,4,6,2,44,36,950,['c'],1,left,['3'],4,235,[0.15849861],100,44,hard,plus,dotcolour,beta,,,52,18,V,R,
257,5,5,6,2,44,36,1418,['c'],1,left,['2'],5,203,[0.04585943],98,44,hard,plus,dotcolour,beta,,,52,18,V,R,
258,6,6,6,2,36,44,1583,['n'],1,right,['2'],5,381,[-0.16582561],100,44,hard,plus,dotcolour,beta,,,52,18,V,R,
259,7,7,6,2,36,44,550,['n'],1,right,['3'],4,1176,[-0.30884116],100,44,hard,plus,dotcolour,beta,,,52,18,V,R,
260,8,8,6,2,33,47,2101,['c'],0,right,['2'],5,223,[0.07099772],99,47,medium,plus,dotcolour,beta,,,52,18,V,R,
261,9,9,6,2,36,44,949,['n'],1,right,['2'],5,161,[-0.11629039],100,44,hard,plus,dotcolour,beta,,,52,18,V,R,
262,10,10,6,2,53,27,767,['c'],1,left,['2'],5,117,[0.13526583],100,53,easy,plus,dotcolour,beta,,,52,18,V,R,
263,11,11,6,2,44,36,1183,['n'],0,left,['2'],5,171,[-0.08204572],100,44,hard,plus,dotcolour,beta,,,52,18,V,R,
264,12,12,6,2,27,53,684,['n'],1,right,['2'],5,978,[-0.19128297],99,53,easy,plus,dotcolour,beta,,,52,18,V,R,
265,13,13,6,2,36,44,1633,['n'],1,right,['3'],4,138,[-0.12352678],100,44,hard,plus,dotcolour,beta,,,52,18,V,R,
266,14,14,6,2,44,36,1400,['c'],1,left,['2'],5,215,[-0.00131956],89,44,hard,plus,dotcolour,beta,,,52,18,V,R,
267,15,15,6,2,53,27,950,['c'],1,left,['3'],4,193,[0.10978559],100,53,easy,plus,dotcolour,beta,,,52,18,V,R,
268,16,16,6,2,47,33,1566,['c'],1,left,['3'],4,156,[0.12690075],100,47,medium,plus,dotcolour,beta,,,52,18,V,R,
269,17,17,6,2,33,47,1317,['n'],1,right,['3'],4,123,[-0.0908091],100,47,medium,plus,dotcolour,beta,,,52,18,V,R,
270,18,18,6,2,47,33,3417,['n'],0,left,['3'],4,79,[-0.09339152],100,47,medium,plus,dotcolour,beta,,,52,18,V,R,
271,19,19,6,2,33,47,2100,['n'],1,right,['3'],4,129,[-0.09587027],100,47,medium,plus,dotcolour,beta,,,52,18,V,R,
272,20,20,6,2,36,44,984,['n'],1,right,['3'],4,3429,[-0.19012461],92,44,hard,plus,dotcolour,beta,,,52,18,V,R,
273,21,21,6,2,27,53,2350,['n'],1,right,['2'],5,303,[-0.14667286],100,53,easy,plus,dotcolour,beta,,,52,18,V,R,
274,22,22,6,2,53,27,1034,['c'],1,left,['2'],5,99,[0.13889414],100,53,easy,plus,dotcolour,beta,,,52,18,V,R,
275,23,23,6,2,53,27,567,['c'],1,left,['2'],5,137,[0.01282513],97,53,easy,plus,dotcolour,beta,,,52,18,V,R,
276,24,24,6,2,53,27,767,['c'],1,left,['2'],5,871,[0.17879756],99,53,easy,plus,dotcolour,beta,,,52,18,V,R,
277,25,25,6,2,36,44,916,['n'],1,right,['2'],5,144,[-0.03542768],99,44,hard,plus,dotcolour,beta,,,52,18,V,R,
278,26,26,6,2,47,33,1166,['c'],1,left,['3'],4,157,[0.04110683],99,47,medium,plus,dotcolour,beta,,,52,18,V,R,
279,27,27,6,2,53,27,984,['c'],1,left,['2'],5,328,[0.13698437],100,53,easy,plus,dotcolour,beta,,,52,18,V,R,
280,28,28,6,2,47,33,800,['c'],1,left,['2'],5,132,[0.04094616],99,47,medium,plus,dotcolour,beta,,,52,18,V,R,
281,29,29,6,2,44,36,683,['c'],1,left,['2'],5,109,[0.03897435],99,44,hard,plus,dotcolour,beta,,,52,18,V,R,
282,30,30,6,2,33,47,849,['n'],1,right,['3'],4,151,[-0.00516277],94,47,medium,plus,dotcolour,beta,,,52,18,V,R,
283,31,31,6,2,33,47,767,['n'],1,right,['2'],5,188,[-0.15135446],100,47,medium,plus,dotcolour,beta,,,52,18,V,R,
284,32,32,6,2,33,47,1184,['c'],0,right,['2'],5,327,[-0.01237718],80,47,medium,plus,dotcolour,beta,,,52,18,V,R,
285,33,33,6,2,53,27,600,['c'],1,left,['1'],6,179,[0.05971398],99,53,easy,plus,dotcolour,beta,,,52,18,V,R,
286,34,34,6,2,47,33,983,['c'],1,left,['2'],5,221,[0.13654853],100,47,medium,plus,dotcolour,beta,,,52,18,V,R,
287,35,35,6,2,36,44,1350,['c'],0,right,['3'],4,152,[0.09348325],100,44,hard,plus,dotcolour,beta,,,52,18,V,R,
288,36,36,6,2,47,33,618,['c'],1,left,['3'],4,163,[0.05642582],99,47,medium,plus,dotcolour,beta,,,52,18,V,R,
289,37,37,6,2,33,47,916,['n'],1,right,['3'],4,113,[-0.05872159],100,47,medium,plus,dotcolour,beta,,,52,18,V,R,
290,38,38,6,2,27,53,567,['n'],1,right,['3'],4,142,[-0.11364441],100,53,easy,plus,dotcolour,beta,,,52,18,V,R,
291,39,39,6,2,27,53,717,['n'],1,right,['2'],5,142,[-0.04638443],99,53,easy,plus,dotcolour,beta,,,52,18,V,R,
292,40,40,6,2,44,36,1100,['c'],1,left,['2'],5,125,[0.07506385],100,44,hard,plus,dotcolour,beta,,,52,18,V,R,
293,41,41,6,2,44,36,1099,['c'],1,left,['2'],5,117,[0.07212137],100,44,hard,plus,dotcolour,beta,,,52,18,V,R,
294,42,0,7,2,47,33,1751,['c'],1,left,['2'],5,81,[0.05437833],100,47,medium,plus,dotcolour,beta,,,52,18,V,R,
295,43,1,7,2,33,47,983,['c'],0,right,['2'],5,80,[0.05079019],100,47,medium,plus,dotcolour,beta,,,52,18,V,R,
296,44,2,7,2,44,36,884,['c'],1,left,['2'],5,194,[0.02385594],96,44,hard,plus,dotcolour,beta,,,52,18,V,R,
297,45,3,7,2,44,36,1383,['c'],1,left,['3'],4,148,[0.10567096],100,44,hard,plus,dotcolour,beta,,,52,18,V,R,
298,46,4,7,2,53,27,683,['c'],1,left,['3'],4,228,[0.20459723],100,53,easy,plus,dotcolour,beta,,,52,18,V,R,
299,47,5,7,2,33,47,1000,['n'],1,right,['3'],4,149,[-0.07054451],100,47,medium,plus,dotcolour,beta,,,52,18,V,R,
300,48,6,7,2,36,44,799,['c'],0,right,['2'],5,128,[0.0819073],100,44,hard,plus,dotcolour,beta,,,52,18,V,R,
301,49,7,7,2,33,47,783,['n'],1,right,['3'],4,117,[-0.03725152],99,47,medium,plus,dotcolour,beta,,,52,18,V,R,
302,50,8,7,2,36,44,1216,['n'],1,right,['3'],4,105,[-0.13116751],100,44,hard,plus,dotcolour,beta,,,52,18,V,R,
303,51,9,7,2,36,44,800,['n'],1,right,['3'],4,14,[-0.07952976],100,44,hard,plus,dotcolour,beta,,,52,18,V,R,
304,52,10,7,2,47,33,1833,['c'],1,left,['1'],6,134,[0.11136574],100,47,medium,plus,dotcolour,beta,,,52,18,V,R,
305,53,11,7,2,47,33,767,['c'],1,left,['1'],6,114,[0.11175444],100,47,medium,plus,dotcolour,beta,,,52,18,V,R,
306,54,12,7,2,36,44,983,['n'],1,right,['1'],6,120,[-0.066457],100,44,hard,plus,dotcolour,beta,,,52,18,V,R,
307,55,13,7,2,53,27,784,['c'],1,left,['1'],6,93,[0.06968656],100,53,easy,plus,dotcolour,beta,,,52,18,V,R,
308,56,14,7,2,27,53,917,['n'],1,right,['1'],6,158,[-0.08188229],100,53,easy,plus,dotcolour,beta,,,52,18,V,R,
309,57,15,7,2,33,47,1017,['c'],0,right,['2'],5,680,[-0.05565117],50,47,medium,plus,dotcolour,beta,,,52,18,V,R,
310,58,16,7,2,33,47,1100,['n'],1,right,['3'],4,842,[-0.203819],99,47,medium,plus,dotcolour,beta,,,52,18,V,R,
311,59,17,7,2,36,44,934,['c'],0,right,['2'],5,141,[0.09576639],100,44,hard,plus,dotcolour,beta,,,52,18,V,R,
312,60,18,7,2,27,53,950,['n'],1,right,['2'],5,146,[-0.13126414],100,53,easy,plus,dotcolour,beta,,,52,18,V,R,
313,61,19,7,2,53,27,916,['c'],1,left,['1'],6,104,[0.1112395],100,53,easy,plus,dotcolour,beta,,,52,18,V,R,
314,62,20,7,2,27,53,900,['n'],1,right,['1'],6,121,[-0.09257464],100,53,easy,plus,dotcolour,beta,,,52,18,V,R,
315,63,21,7,2,44,36,833,['c'],1,left,['2'],5,317,[0.08240621],99,44,hard,plus,dotcolour,beta,,,52,18,V,R,
316,64,22,7,2,33,47,933,['n'],1,right,['1'],6,116,[-0.12652845],100,47,medium,plus,dotcolour,beta,,,52,18,V,R,
317,65,23,7,2,53,27,767,['c'],1,left,['1'],6,122,[0.11644335],100,53,easy,plus,dotcolour,beta,,,52,18,V,R,
318,66,24,7,2,36,44,1183,['n'],1,right,['1'],6,120,[-0.10024949],100,44,hard,plus,dotcolour,beta,,,52,18,V,R,
319,67,25,7,2,36,44,733,['c'],0,right,['2'],5,119,[0.05843319],100,44,hard,plus,dotcolour,beta,,,52,18,V,R,
320,68,26,7,2,27,53,733,['n'],1,right,['2'],5,158,[-0.05582175],99,53,easy,plus,dotcolour,beta,,,52,18,V,R,
321,69,27,7,2,27,53,817,['n'],1,right,['1'],6,296,[-0.09849433],99,53,easy,plus,dotcolour,beta,,,52,18,V,R,
322,70,28,7,2,44,36,817,['c'],1,left,['1'],6,157,[0.13198447],100,44,hard,plus,dotcolour,beta,,,52,18,V,R,
323,71,29,7,2,47,33,1067,['c'],1,left,['2'],5,117,[0.11291031],100,47,medium,plus,dotcolour,beta,,,52,18,V,R,
324,72,30,7,2,44,36,884,['c'],1,left,['2'],5,303,[0.1009709],99,44,hard,plus,dotcolour,beta,,,52,18,V,R,
325,73,31,7,2,44,36,1050,['c'],1,left,['3'],4,170,[0.06080606],99,44,hard,plus,dotcolour,beta,,,52,18,V,R,
326,74,32,7,2,53,27,1033,['c'],1,left,['2'],5,139,[0.14839125],100,53,easy,plus,dotcolour,beta,,,52,18,V,R,
327,75,33,7,2,53,27,967,['c'],1,left,['2'],5,152,[0.10276074],100,53,easy,plus,dotcolour,beta,,,52,18,V,R,
328,76,34,7,2,44,36,850,['c'],1,left,['1'],6,153,[0.04534825],99,44,hard,plus,dotcolour,beta,,,52,18,V,R,
329,77,35,7,2,53,27,833,['c'],1,left,['1'],6,131,[0.0741136],100,53,easy,plus,dotcolour,beta,,,52,18,V,R,
330,78,36,7,2,47,33,650,['c'],1,left,['1'],6,125,[0.10831004],100,47,medium,plus,dotcolour,beta,,,52,18,V,R,
331,79,37,7,2,27,53,1017,['n'],1,right,['1'],6,120,[-0.09689377],100,53,easy,plus,dotcolour,beta,,,52,18,V,R,
332,80,38,7,2,27,53,850,['n'],1,right,['1'],6,195,[-0.10816805],100,53,easy,plus,dotcolour,beta,,,52,18,V,R,
333,81,39,7,2,47,33,1650,['c'],1,left,['1'],6,131,[-0.01551265],88,47,medium,plus,dotcolour,beta,,,52,18,V,R,
334,82,40,7,2,47,33,850,['c'],1,left,['2'],5,205,[0.08945239],100,47,medium,plus,dotcolour,beta,,,52,18,V,R,
335,83,41,7,2,33,47,783,['n'],1,right,['2'],5,431,[-0.04525467],94,47,medium,plus,dotcolour,beta,,,52,18,V,R,
336,84,0,8,2,36,44,1033,['n'],1,right,['2'],5,167,[-0.073391],100,44,hard,plus,dotcolour,beta,,,52,18,V,R,
337,85,1,8,2,33,47,866,['c'],0,right,['1'],6,127,[0.08724322],100,47,medium,plus,dotcolour,beta,,,52,18,V,R,
338,86,2,8,2,47,33,949,['c'],1,left,['2'],5,133,[0.1075462],100,47,medium,plus,dotcolour,beta,,,52,18,V,R,
339,87,3,8,2,47,33,817,['c'],1,left,['3'],4,112,[0.07633318],100,47,medium,plus,dotcolour,beta,,,52,18,V,R,
340,88,4,8,2,27,53,884,['n'],1,right,['2'],5,154,[-0.09448592],100,53,easy,plus,dotcolour,beta,,,52,18,V,R,
341,89,5,8,2,36,44,950,['n'],1,right,['3'],4,135,[-0.10028132],100,44,hard,plus,dotcolour,beta,,,52,18,V,R,
342,90,6,8,2,27,53,850,['n'],1,right,['2'],5,129,[-0.02679422],98,53,easy,plus,dotcolour,beta,,,52,18,V,R,
343,91,7,8,2,33,47,600,['n'],1,right,['1'],6,133,[-0.12563633],100,47,medium,plus,dotcolour,beta,,,52,18,V,R,
344,92,8,8,2,53,27,1067,['c'],1,left,['1'],6,102,[0.10685766],100,53,easy,plus,dotcolour,beta,,,52,18,V,R,
345,93,9,8,2,36,44,1717,['c'],0,right,['2'],5,423,[-0.05768172],49,44,hard,plus,dotcolour,beta,,,52,18,V,R,
346,94,10,8,2,36,44,1133,['n'],1,right,['3'],4,138,[-0.04879305],99,44,hard,plus,dotcolour,beta,,,52,18,V,R,
347,95,11,8,2,44,36,1100,['c'],1,left,['2'],5,90,[0.07072962],100,44,hard,plus,dotcolour,beta,,,52,18,V,R,
348,96,12,8,2,47,33,801,['c'],1,left,['2'],5,104,[0.1154972],100,47,medium,plus,dotcolour,beta,,,52,18,V,R,
349,97,13,8,2,47,33,684,['c'],1,left,['1'],6,146,[0.06532881],100,47,medium,plus,dotcolour,beta,,,52,18,V,R,
350,98,14,8,2,36,44,2000,['n'],1,right,['3'],4,149,[-0.06667006],100,44,hard,plus,dotcolour,beta,,,52,18,V,R,
351,99,15,8,2,44,36,800,['c'],1,left,['2'],5,89,[0.0608279],100,44,hard,plus,dotcolour,beta,,,52,18,V,R,
352,100,16,8,2,33,47,783,['n'],1,right,['3'],4,143,[-0.08841015],100,47,medium,plus,dotcolour,beta,,,52,18,V,R,
353,101,17,8,2,44,36,1067,['c'],1,left,['2'],5,136,[0.07300171],100,44,hard,plus,dotcolour,beta,,,52,18,V,R,
354,102,18,8,2,44,36,1467,['n'],0,left,['3'],4,129,[-0.03102766],99,44,hard,plus,dotcolour,beta,,,52,18,V,R,
355,103,19,8,2,53,27,1300,['c'],1,left,['1'],6,65,[0.0815853],100,53,easy,plus,dotcolour,beta,,,52,18,V,R,
356,104,20,8,2,27,53,1016,['n'],1,right,['1'],6,135,[-0.10114217],100,53,easy,plus,dotcolour,beta,,,52,18,V,R,
357,105,21,8,2,44,36,1067,['c'],1,left,['2'],5,152,[0.11039308],100,44,hard,plus,dotcolour,beta,,,52,18,V,R,
358,106,22,8,2,33,47,2349,['n'],1,right,['3'],4,127,[-0.02664648],98,47,medium,plus,dotcolour,beta,,,52,18,V,R,
359,107,23,8,2,27,53,750,['n'],1,right,['3'],4,100,[-0.11116442],100,53,easy,plus,dotcolour,beta,,,52,18,V,R,
360,108,24,8,2,53,27,1233,['c'],1,left,['1'],6,88,[0.05222769],100,53,easy,plus,dotcolour,beta,,,52,18,V,R,
361,109,25,8,2,33,47,1116,['n'],1,right,['2'],5,82,[-0.08935604],100,47,medium,plus,dotcolour,beta,,,52,18,V,R,
362,110,26,8,2,53,27,984,['c'],1,left,['2'],5,113,[0.09327771],100,53,easy,plus,dotcolour,beta,,,52,18,V,R,
363,111,27,8,2,44,36,1000,['c'],1,left,['2'],5,109,[0.03695047],99,44,hard,plus,dotcolour,beta,,,52,18,V,R,
364,112,28,8,2,27,53,1183,['n'],1,right,['1'],6,122,[-0.15072906],100,53,easy,plus,dotcolour,beta,,,52,18,V,R,
365,113,29,8,2,47,33,1567,['c'],1,left,['2'],5,104,[0.01833121],98,47,medium,plus,dotcolour,beta,,,52,18,V,R,
366,114,30,8,2,27,53,650,['n'],1,right,['2'],5,188,[-0.03914407],98,53,easy,plus,dotcolour,beta,,,52,18,V,R,
367,115,31,8,2,47,33,1083,['c'],1,left,['1'],6,178,[0.05990785],99,47,medium,plus,dotcolour,beta,,,52,18,V,R,
368,116,32,8,2,27,53,882,['n'],1,right,['1'],6,121,[-0.1228947],100,53,easy,plus,dotcolour,beta,,,52,18,V,R,
369,117,33,8,2,36,44,884,['c'],0,right,['2'],5,114,[0.11164498],100,44,hard,plus,dotcolour,beta,,,52,18,V,R,
370,118,34,8,2,36,44,1317,['c'],0,right,['1'],6,170,[0.07360787],100,44,hard,plus,dotcolour,beta,,,52,18,V,R,
371,119,35,8,2,53,27,1000,['c'],1,left,['2'],5,221,[0.10394597],100,53,easy,plus,dotcolour,beta,,,52,18,V,R,
372,120,36,8,2,33,47,950,['n'],1,right,['3'],4,1168,[-0.1076743],94,47,medium,plus,dotcolour,beta,,,52,18,V,R,
373,121,37,8,2,47,33,1267,['c'],1,left,['3'],4,463,[0.12712351],99,47,medium,plus,dotcolour,beta,,,52,18,V,R,
374,122,38,8,2,33,47,1533,['n'],1,right,['2'],5,177,[-0.11714929],100,47,medium,plus,dotcolour,beta,,,52,18,V,R,
375,123,39,8,2,44,36,1266,['c'],1,left,['2'],5,152,[0.07246329],100,44,hard,plus,dotcolour,beta,,,52,18,V,R,
376,124,40,8,2,53,27,767,['c'],1,left,['2'],5,268,[0.15518889],100,53,easy,plus,dotcolour,beta,,,52,18,V,R,
377,125,41,8,2,53,27,733,['c'],1,left,['2'],5,158,[0.10266327],100,53,easy,plus,dotcolour,beta,,,52,18,V,R,
378,0,0,9,3,27,53,1983,['n'],1,right,['2'],5,152,[-0.08787926],82,53,easy,minus,dotcolour,beta,,,52,18,V,R,
379,1,1,9,3,47,33,1016,['c'],1,left,['2'],5,114,[0.03818414],28,47,medium,minus,dotcolour,beta,,,52,18,V,R,
380,2,2,9,3,36,44,884,['n'],1,right,['1'],6,140,[-0.12569842],97,44,hard,minus,dotcolour,beta,,,52,18,V,R,
381,3,3,9,3,44,36,967,['c'],1,left,['1'],6,145,[0.06757681],64,44,hard,minus,dotcolour,beta,,,52,18,V,R,
382,4,4,9,3,33,47,866,['n'],1,right,['2'],5,218,[-0.05267651],47,47,medium,minus,dotcolour,beta,,,52,18,V,R,
383,5,5,9,3,53,27,866,['c'],1,left,['1'],6,104,[0.05254982],46,53,easy,minus,dotcolour,beta,,,52,18,V,R,
384,6,6,9,3,53,27,733,['c'],1,left,['1'],6,72,[0.09396909],93,53,easy,minus,dotcolour,beta,,,52,18,V,R,
385,7,7,9,3,47,33,1484,['n'],0,left,['3'],4,131,[-0.02160534],16,47,medium,minus,dotcolour,beta,,,52,18,V,R,
386,8,8,9,3,47,33,1817,['c'],1,left,['3'],4,350,[0.17020673],97,47,medium,minus,dotcolour,beta,,,52,18,V,R,
387,9,9,9,3,44,36,1717,['c'],1,left,['3'],4,213,[0.04178312],37,44,hard,minus,dotcolour,beta,,,52,18,V,R,
388,10,10,9,3,47,33,917,['c'],1,left,['3'],4,257,[0.08413713],73,47,medium,minus,dotcolour,beta,,,52,18,V,R,
389,11,11,9,3,27,53,1000,['n'],1,right,['2'],5,512,[-0.19224608],97,53,easy,minus,dotcolour,beta,,,52,18,V,R,
390,12,12,9,3,47,33,1017,['c'],1,left,['2'],5,107,[0.06646882],65,47,medium,minus,dotcolour,beta,,,52,18,V,R,
391,13,13,9,3,47,33,850,['c'],1,left,['2'],5,54,[0.04353696],28,47,medium,minus,dotcolour,beta,,,52,18,V,R,
392,14,14,9,3,27,53,984,['n'],1,right,['2'],5,110,[-0.04926661],42,53,easy,minus,dotcolour,beta,,,52,18,V,R,
393,15,15,9,3,33,47,1051,['n'],1,right,['1'],6,353,[-0.17129365],97,47,medium,minus,dotcolour,beta,,,52,18,V,R,
394,16,16,9,3,36,44,2350,['n'],1,right,['9'],2,358,[-0.10006666],79,44,hard,minus,dotcolour,beta,,,52,18,V,R,
395,17,17,9,3,27,53,935,['n'],1,right,['3'],4,212,[-0.0333602],30,53,easy,minus,dotcolour,beta,,,52,18,V,R,
396,18,18,9,3,27,53,1700,['n'],1,right,['3'],4,129,[-0.0254994],18,53,easy,minus,dotcolour,beta,,,52,18,V,R,
397,19,19,9,3,36,44,1733,['c'],0,right,['2'],5,167,[0.06200005],57,44,hard,minus,dotcolour,beta,,,52,18,V,R,
398,20,20,9,3,36,44,1150,['c'],0,right,['3'],4,236,[0.13828657],96,44,hard,minus,dotcolour,beta,,,52,18,V,R,
399,21,21,9,3,36,44,1066,['n'],1,right,['2'],5,161,[-0.01780364],16,44,hard,minus,dotcolour,beta,,,52,18,V,R,
400,22,22,9,3,44,36,1334,['c'],1,left,['2'],5,151,[0.08906062],83,44,hard,minus,dotcolour,beta,,,52,18,V,R,
401,23,23,9,3,33,47,1083,['n'],1,right,['3'],4,151,[-0.06645289],62,47,medium,minus,dotcolour,beta,,,52,18,V,R,
402,24,24,9,3,33,47,1100,['c'],0,right,['2'],5,126,[0.06566641],63,47,medium,minus,dotcolour,beta,,,52,18,V,R,
403,25,25,9,3,53,27,1000,['c'],1,left,['2'],5,170,[0.00814971],11,53,easy,minus,dotcolour,beta,,,52,18,V,R,
404,26,26,9,3,33,47,983,['n'],1,right,['3'],4,142,[-0.08059986],77,47,medium,minus,dotcolour,beta,,,52,18,V,R,
405,27,27,9,3,44,36,1583,['c'],1,left,['2'],5,58,[0.09846602],96,44,hard,minus,dotcolour,beta,,,52,18,V,R,
406,28,28,9,3,53,27,717,['c'],1,left,['2'],5,155,[0.09097078],83,53,easy,minus,dotcolour,beta,,,52,18,V,R,
407,29,29,9,3,44,36,1167,['c'],1,left,['3'],4,168,[0.10920935],91,44,hard,minus,dotcolour,beta,,,52,18,V,R,
408,30,30,9,3,44,36,1033,['c'],1,left,['2'],5,193,[0.13466259],96,44,hard,minus,dotcolour,beta,,,52,18,V,R,
409,31,31,9,3,33,47,934,['n'],1,right,['3'],4,157,[-0.07246811],68,47,medium,minus,dotcolour,beta,,,52,18,V,R,
410,32,32,9,3,47,33,784,['c'],1,left,['2'],5,41,[0.08238348],92,47,medium,minus,dotcolour,beta,,,52,18,V,R,
411,33,33,9,3,44,36,1100,['c'],1,left,['2'],5,132,[0.07106917],68,44,hard,minus,dotcolour,beta,,,52,18,V,R,
412,34,34,9,3,27,53,835,['n'],1,right,['3'],4,199,[-0.09632945],84,53,easy,minus,dotcolour,beta,,,52,18,V,R,
413,35,35,9,3,27,53,1116,['n'],1,right,['2'],5,147,[-0.07414716],71,53,easy,minus,dotcolour,beta,,,52,18,V,R,
414,36,36,9,3,53,27,850,['c'],1,left,['2'],5,93,[0.07350416],74,53,easy,minus,dotcolour,beta,,,52,18,V,R,
415,37,37,9,3,53,27,817,['c'],1,left,['2'],5,129,[0.14856362],99,53,easy,minus,dotcolour,beta,,,52,18,V,R,
416,38,38,9,3,36,44,1184,['n'],1,right,['3'],4,150,[-0.09911068],88,44,hard,minus,dotcolour,beta,,,52,18,V,R,
417,39,39,9,3,36,44,2050,['n'],1,right,['3'],4,103,[-0.08391039],83,44,hard,minus,dotcolour,beta,,,52,18,V,R,
418,40,40,9,3,33,47,1566,['c'],0,right,['2'],5,46,[0.07742934],86,47,medium,minus,dotcolour,beta,,,52,18,V,R,
419,41,41,9,3,53,27,899,['c'],1,left,['2'],5,130,[0.12117615],96,53,easy,minus,dotcolour,beta,,,52,18,V,R,
420,42,0,10,3,47,33,801,['c'],1,left,['2'],5,120,[0.05175639],45,47,medium,minus,dotcolour,beta,,,52,18,V,R,
421,43,1,10,3,33,47,1132,['n'],1,right,['3'],4,144,[-0.1090002],93,47,medium,minus,dotcolour,beta,,,52,18,V,R,
422,44,2,10,3,36,44,916,['n'],1,right,['3'],4,142,[-0.03947713],32,44,hard,minus,dotcolour,beta,,,52,18,V,R,
423,45,3,10,3,33,47,850,['c'],0,right,['2'],5,104,[0.07196475],71,47,medium,minus,dotcolour,beta,,,52,18,V,R,
424,46,4,10,3,44,36,1466,['c'],1,left,['2'],5,1155,[0.05239103],49,44,hard,minus,dotcolour,beta,,,52,18,V,R,
425,47,5,10,3,27,53,1199,['n'],1,right,['3'],4,197,[-0.11682402],92,53,easy,minus,dotcolour,beta,,,52,18,V,R,
426,48,6,10,3,53,27,850,['c'],1,left,['2'],5,148,[0.06291342],59,53,easy,minus,dotcolour,beta,,,52,18,V,R,
427,49,7,10,3,53,27,934,['c'],1,left,['3'],4,155,[0.12582839],96,53,easy,minus,dotcolour,beta,,,52,18,V,R,
428,50,8,10,3,53,27,867,['c'],1,left,['2'],5,139,[0.08816351],83,53,easy,minus,dotcolour,beta,,,52,18,V,R,
429,51,9,10,3,36,44,833,['n'],1,right,['2'],5,174,[-0.11220223],92,44,hard,minus,dotcolour,beta,,,52,18,V,R,
430,52,10,10,3,27,53,850,['n'],1,right,['2'],5,142,[-0.0448029],37,53,easy,minus,dotcolour,beta,,,52,18,V,R,
431,53,11,10,3,44,36,1083,['c'],1,left,['2'],5,118,[0.02078794],14,44,hard,minus,dotcolour,beta,,,52,18,V,R,
432,54,12,10,3,53,27,968,['c'],1,left,['1'],6,925,[0.29850726],99,53,easy,minus,dotcolour,beta,,,52,18,V,R,
433,55,13,10,3,44,36,1317,['c'],1,left,['2'],5,275,[0.13089111],93,44,hard,minus,dotcolour,beta,,,52,18,V,R,
434,56,14,10,3,27,53,1534,['n'],1,right,['2'],5,92,[-0.10624256],95,53,easy,minus,dotcolour,beta,,,52,18,V,R,
435,57,15,10,3,33,47,1484,['c'],0,right,['3'],4,198,[0.00712845],12,47,medium,minus,dotcolour,beta,,,52,18,V,R,
436,58,16,10,3,27,53,883,['n'],1,right,['2'],5,300,[-0.15630697],96,53,easy,minus,dotcolour,beta,,,52,18,V,R,
437,59,17,10,3,36,44,899,['c'],0,right,['2'],5,174,[0.06332723],58,44,hard,minus,dotcolour,beta,,,52,18,V,R,
438,60,18,10,3,53,27,1099,['c'],1,left,['1'],6,139,[0.09161877],85,53,easy,minus,dotcolour,beta,,,52,18,V,R,
439,61,19,10,3,33,47,867,['n'],1,right,['3'],4,189,[-0.00475774],11,47,medium,minus,dotcolour,beta,,,52,18,V,R,
440,62,20,10,3,53,27,950,['c'],1,left,['1'],6,97,[0.10550455],95,53,easy,minus,dotcolour,beta,,,52,18,V,R,
441,63,21,10,3,44,36,817,['c'],1,left,['2'],5,134,[0.09243059],86,44,hard,minus,dotcolour,beta,,,52,18,V,R,
442,64,22,10,3,44,36,1032,['c'],1,left,['1'],6,128,[0.12470981],97,44,hard,minus,dotcolour,beta,,,52,18,V,R,
443,65,23,10,3,47,33,850,['c'],1,left,['3'],4,370,[0.12351039],88,47,medium,minus,dotcolour,beta,,,52,18,V,R,
444,66,24,10,3,33,47,1168,['n'],1,right,['3'],4,158,[-0.07831605],74,47,medium,minus,dotcolour,beta,,,52,18,V,R,
445,67,25,10,3,47,33,967,['c'],1,left,['2'],5,82,[0.04871571],39,47,medium,minus,dotcolour,beta,,,52,18,V,R,
446,68,26,10,3,44,36,917,['c'],1,left,['3'],4,180,[0.0544445],49,44,hard,minus,dotcolour,beta,,,52,18,V,R,
447,69,27,10,3,27,53,1399,['n'],1,right,['3'],4,134,[-0.09852523],89,53,easy,minus,dotcolour,beta,,,52,18,V,R,
448,70,28,10,3,47,33,849,['c'],1,left,['2'],5,80,[0.10294507],95,47,medium,minus,dotcolour,beta,,,52,18,V,R,
449,71,29,10,3,33,47,1166,['n'],1,right,['2'],5,159,[-0.05034133],44,47,medium,minus,dotcolour,beta,,,52,18,V,R,
450,72,30,10,3,27,53,1433,['c'],0,right,['2'],5,104,[0.07245658],72,53,easy,minus,dotcolour,beta,,,52,18,V,R,
451,73,31,10,3,53,27,983,['c'],1,left,['1'],6,87,[0.1125796],97,53,easy,minus,dotcolour,beta,,,52,18,V,R,
452,74,32,10,3,33,47,1184,['c'],0,right,['2'],5,501,[-0.03556217],9,47,medium,minus,dotcolour,beta,,,52,18,V,R,
453,75,33,10,3,36,44,1034,['n'],1,right,['3'],4,193,[-0.09928855],86,44,hard,minus,dotcolour,beta,,,52,18,V,R,
454,76,34,10,3,47,33,1383,['c'],1,left,['2'],5,219,[0.08683878],77,47,medium,minus,dotcolour,beta,,,52,18,V,R,
455,77,35,10,3,27,53,1101,['n'],1,right,['3'],4,184,[-0.1285105],96,53,easy,minus,dotcolour,beta,,,52,18,V,R,
456,78,36,10,3,36,44,967,['n'],1,right,['3'],4,147,[-0.03694516],29,44,hard,minus,dotcolour,beta,,,52,18,V,R,
457,79,37,10,3,36,44,2317,['c'],0,right,['3'],4,146,[0.05771203],53,44,hard,minus,dotcolour,beta,,,52,18,V,R,
458,80,38,10,3,47,33,1317,['c'],1,left,['2'],5,89,[0.06438756],63,47,medium,minus,dotcolour,beta,,,52,18,V,R,
459,81,39,10,3,36,44,1000,['n'],1,right,['3'],4,159,[-0.08512497],79,44,hard,minus,dotcolour,beta,,,52,18,V,R,
460,82,40,10,3,44,36,1516,['n'],0,left,['3'],4,101,[-0.07211598],72,44,hard,minus,dotcolour,beta,,,52,18,V,R,
461,83,41,10,3,47,33,734,['c'],1,left,['2'],5,109,[0.0585273],54,47,medium,minus,dotcolour,beta,,,52,18,V,R,
462,84,0,11,3,44,36,1434,['c'],1,left,['2'],5,338,[0.12144607],88,44,hard,minus,dotcolour,beta,,,52,18,V,R,
463,85,1,11,3,47,33,850,['c'],1,left,['3'],4,116,[0.10243937],92,47,medium,minus,dotcolour,beta,,,52,18,V,R,
464,86,2,11,3,44,36,799,['c'],1,left,['2'],5,153,[0.09261674],85,44,hard,minus,dotcolour,beta,,,52,18,V,R,
465,87,3,11,3,44,36,950,['n'],0,left,['3'],4,133,[-0.01408812],11,44,hard,minus,dotcolour,beta,,,52,18,V,R,
466,88,4,11,3,36,44,1034,['c'],0,right,['3'],4,137,[0.10436626],91,44,hard,minus,dotcolour,beta,,,52,18,V,R,
467,89,5,11,3,53,27,801,['c'],1,left,['2'],5,140,[0.11861273],95,53,easy,minus,dotcolour,beta,,,52,18,V,R,
468,90,6,11,3,47,33,616,['c'],1,left,['2'],5,143,[0.06602014],62,47,medium,minus,dotcolour,beta,,,52,18,V,R,
469,91,7,11,3,33,47,1100,['n'],1,right,['3'],4,159,[-0.07932624],75,47,medium,minus,dotcolour,beta,,,52,18,V,R,
470,92,8,11,3,47,33,1467,['c'],1,left,['2'],5,142,[0.1139025],94,47,medium,minus,dotcolour,beta,,,52,18,V,R,
471,93,9,11,3,53,27,733,['c'],1,left,['2'],5,164,[0.08661582],80,53,easy,minus,dotcolour,beta,,,52,18,V,R,
472,94,10,11,3,47,33,984,['c'],1,left,['2'],5,168,[0.02658869],22,47,medium,minus,dotcolour,beta,,,52,18,V,R,
473,95,11,11,3,53,27,800,['c'],1,left,['2'],5,138,[0.07430426],71,53,easy,minus,dotcolour,beta,,,52,18,V,R,
474,96,12,11,3,44,36,749,['c'],1,left,['3'],4,169,[0.0417294],35,44,hard,minus,dotcolour,beta,,,52,18,V,R,
475,97,13,11,3,33,47,967,['n'],1,right,['3'],4,124,[-0.14955155],99,47,medium,minus,dotcolour,beta,,,52,18,V,R,
476,98,14,11,3,33,47,851,['n'],1,right,['2'],5,151,[-0.11551143],94,47,medium,minus,dotcolour,beta,,,52,18,V,R,
477,99,15,11,3,36,44,584,['n'],1,right,['2'],5,179,[-0.11763743],93,44,hard,minus,dotcolour,beta,,,52,18,V,R,
478,100,16,11,3,27,53,767,['n'],1,right,['1'],6,150,[-0.07758849],74,53,easy,minus,dotcolour,beta,,,52,18,V,R,
479,101,17,11,3,36,44,667,['n'],1,right,['1'],6,143,[-0.08751333],82,44,hard,minus,dotcolour,beta,,,52,18,V,R,
480,102,18,11,3,53,27,983,['c'],1,left,['3'],4,843,[0.04312505],44,53,easy,minus,dotcolour,beta,,,52,18,V,R,
481,103,19,11,3,36,44,1050,['n'],1,right,['3'],4,160,[-0.07562568],71,44,hard,minus,dotcolour,beta,,,52,18,V,R,
482,104,20,11,3,44,36,983,['c'],1,left,['3'],4,204,[0.11401964],91,44,hard,minus,dotcolour,beta,,,52,18,V,R,
483,105,21,11,3,33,47,967,['n'],1,right,['3'],4,134,[-0.11584949],95,47,medium,minus,dotcolour,beta,,,52,18,V,R,
484,106,22,11,3,27,53,700,['n'],1,right,['2'],5,166,[-0.06027646],55,53,easy,minus,dotcolour,beta,,,52,18,V,R,
485,107,23,11,3,27,53,650,['n'],1,right,['2'],5,167,[-0.09935934],87,53,easy,minus,dotcolour,beta,,,52,18,V,R,
486,108,24,11,3,53,27,1017,['c'],1,left,['1'],6,144,[0.08624691],81,53,easy,minus,dotcolour,beta,,,52,18,V,R,
487,109,25,11,3,44,36,1133,['c'],1,left,['3'],4,215,[0.05326195],48,44,hard,minus,dotcolour,beta,,,52,18,V,R,
488,110,26,11,3,47,33,650,['c'],1,left,['3'],4,197,[0.10637134],89,47,medium,minus,dotcolour,beta,,,52,18,V,R,
489,111,27,11,3,36,44,800,['c'],0,right,['2'],5,119,[0.06817961],66,44,hard,minus,dotcolour,beta,,,52,18,V,R,
490,112,28,11,3,47,33,800,['c'],1,left,['2'],5,203,[0.07268331],66,47,medium,minus,dotcolour,beta,,,52,18,V,R,
491,113,29,11,3,33,47,1283,['n'],1,right,['3'],4,170,[-0.07898683],74,47,medium,minus,dotcolour,beta,,,52,18,V,R,
492,114,30,11,3,36,44,1916,['c'],0,right,['3'],4,143,[0.07358697],70,44,hard,minus,dotcolour,beta,,,52,18,V,R,
493,115,31,11,3,53,27,1233,['c'],1,left,['3'],4,201,[0.09673001],84,53,easy,minus,dotcolour,beta,,,52,18,V,R,
494,116,32,11,3,47,33,716,['c'],1,left,['2'],5,174,[0.04803755],42,47,medium,minus,dotcolour,beta,,,52,18,V,R,
495,117,33,11,3,27,53,867,['n'],1,right,['3'],4,142,[-0.11512093],95,53,easy,minus,dotcolour,beta,,,52,18,V,R,
496,118,34,11,3,36,44,1633,['n'],1,right,['2'],5,248,[-0.03799204],35,44,hard,minus,dotcolour,beta,,,52,18,V,R,
497,119,35,11,3,33,47,1066,['c'],0,right,['2'],5,140,[0.0005578],7,47,medium,minus,dotcolour,beta,,,52,18,V,R,
498,120,36,11,3,27,53,817,['n'],1,right,['2'],5,143,[-0.11098699],93,53,easy,minus,dotcolour,beta,,,52,18,V,R,
499,121,37,11,3,27,53,700,['n'],1,right,['3'],4,318,[-0.02643897],28,53,easy,minus,dotcolour,beta,,,52,18,V,R,
500,122,38,11,3,27,53,683,['n'],1,right,['3'],4,103,[-0.03630076],25,53,easy,minus,dotcolour,beta,,,52,18,V,R,
501,123,39,11,3,33,47,783,['n'],1,right,['3'],4,126,[-0.08727933],83,47,medium,minus,dotcolour,beta,,,52,18,V,R,
502,124,40,11,3,53,27,951,['c'],1,left,['1'],6,308,[0.1685842],98,53,easy,minus,dotcolour,beta,,,52,18,V,R,
503,125,41,11,3,44,36,917,['c'],1,left,['2'],5,147,[0.09597279],87,44,hard,minus,dotcolour,beta,,,52,18,V,R,
504,0,0,12,4,36,44,1117,['c'],0,right,['3'],4,986,[0.06833246],90,44,hard,plus,dotcolour,beta,,,52,18,V,R,
505,1,1,12,4,47,33,950,['c'],1,left,['2'],5,188,[0.03370952],98,47,medium,plus,dotcolour,beta,,,52,18,V,R,
506,2,2,12,4,47,33,1066,['c'],1,left,['2'],5,116,[0.10054065],100,47,medium,plus,dotcolour,beta,,,52,18,V,R,
507,3,3,12,4,53,27,918,['c'],1,left,['2'],5,172,[0.1377772],100,53,easy,plus,dotcolour,beta,,,52,18,V,R,
508,4,4,12,4,27,53,899,['n'],1,right,['1'],6,139,[-0.14617231],100,53,easy,plus,dotcolour,beta,,,52,18,V,R,
509,5,5,12,4,27,53,1067,['n'],1,right,['1'],6,140,[-0.13992501],100,53,easy,plus,dotcolour,beta,,,52,18,V,R,
510,6,6,12,4,36,44,1016,['n'],1,right,['2'],5,119,[-0.11504606],100,44,hard,plus,dotcolour,beta,,,52,18,V,R,
511,7,7,12,4,47,33,1118,['c'],1,left,['2'],5,335,[0.1534318],100,47,medium,plus,dotcolour,beta,,,52,18,V,R,
512,8,8,12,4,36,44,1417,['c'],0,right,['3'],4,178,[-0.02106777],81,44,hard,plus,dotcolour,beta,,,52,18,V,R,
513,9,9,12,4,53,27,1016,['c'],1,left,['3'],4,43,[0.08343572],100,53,easy,plus,dotcolour,beta,,,52,18,V,R,
514,10,10,12,4,33,47,933,['c'],0,right,['2'],5,189,[0.02297089],96,47,medium,plus,dotcolour,beta,,,52,18,V,R,
515,11,11,12,4,44,36,800,['c'],1,left,['3'],4,151,[0.12451897],100,44,hard,plus,dotcolour,beta,,,52,18,V,R,
516,12,12,12,4,33,47,783,['c'],0,right,['2'],5,187,[0.06243182],99,47,medium,plus,dotcolour,beta,,,52,18,V,R,
517,13,13,12,4,53,27,833,['c'],1,left,['2'],5,100,[0.04089728],100,53,easy,plus,dotcolour,beta,,,52,18,V,R,
518,14,14,12,4,53,27,750,['c'],1,left,['2'],5,123,[0.10109844],100,53,easy,plus,dotcolour,beta,,,52,18,V,R,
519,15,15,12,4,27,53,967,['n'],1,right,['1'],6,153,[-0.09938438],100,53,easy,plus,dotcolour,beta,,,52,18,V,R,
520,16,16,12,4,47,33,899,['c'],1,left,['2'],5,128,[0.06903038],100,47,medium,plus,dotcolour,beta,,,52,18,V,R,
521,17,17,12,4,47,33,783,['n'],0,left,['2'],5,165,[-0.08597444],100,47,medium,plus,dotcolour,beta,,,52,18,V,R,
522,18,18,12,4,44,36,899,['c'],1,left,['2'],5,196,[0.03543962],98,44,hard,plus,dotcolour,beta,,,52,18,V,R,
523,19,19,12,4,36,44,1183,['n'],1,right,['2'],5,814,[-0.35870474],100,44,hard,plus,dotcolour,beta,,,52,18,V,R,
524,20,20,12,4,44,36,1201,['c'],1,left,['2'],5,167,[0.0247522],97,44,hard,plus,dotcolour,beta,,,52,18,V,R,
525,21,21,12,4,53,27,834,['c'],1,left,['2'],5,168,[0.05671085],99,53,easy,plus,dotcolour,beta,,,52,18,V,R,
526,22,22,12,4,33,47,984,['n'],1,right,['2'],5,139,[-0.11035109],100,47,medium,plus,dotcolour,beta,,,52,18,V,R,
527,23,23,12,4,33,47,801,['n'],1,right,['2'],5,151,[-0.01375669],96,47,medium,plus,dotcolour,beta,,,52,18,V,R,
528,24,24,12,4,47,33,1400,['n'],0,left,['3'],4,122,[0.00535476],93,47,medium,plus,dotcolour,beta,,,52,18,V,R,
529,25,25,12,4,27,53,750,['n'],1,right,['3'],4,89,[-0.11661319],100,53,easy,plus,dotcolour,beta,,,52,18,V,R,
530,26,26,12,4,33,47,817,['n'],1,right,['2'],5,342,[-0.09187511],99,47,medium,plus,dotcolour,beta,,,52,18,V,R,
531,27,27,12,4,44,36,1000,['c'],1,left,['1'],6,130,[0.1139894],100,44,hard,plus,dotcolour,beta,,,52,18,V,R,
532,28,28,12,4,36,44,1634,['n'],1,right,['3'],4,125,[-0.05186588],100,44,hard,plus,dotcolour,beta,,,52,18,V,R,
533,29,29,12,4,36,44,884,['n'],1,right,['3'],4,133,[-0.12481375],100,44,hard,plus,dotcolour,beta,,,52,18,V,R,
534,30,30,12,4,33,47,2433,['n'],1,right,['3'],4,129,[-0.10740201],100,47,medium,plus,dotcolour,beta,,,52,18,V,R,
535,31,31,12,4,44,36,1117,['c'],1,left,['2'],5,159,[0.10262209],100,44,hard,plus,dotcolour,beta,,,52,18,V,R,
536,32,32,12,4,53,27,683,['c'],1,left,['2'],5,183,[0.03187134],98,53,easy,plus,dotcolour,beta,,,52,18,V,R,
537,33,33,12,4,44,36,983,['c'],1,left,['2'],5,129,[0.11823948],100,44,hard,plus,dotcolour,beta,,,52,18,V,R,
538,34,34,12,4,27,53,1216,['n'],1,right,['3'],4,164,[-0.06710913],100,53,easy,plus,dotcolour,beta,,,52,18,V,R,
539,35,35,12,4,44,36,1117,['c'],1,left,['2'],5,98,[0.13670436],100,44,hard,plus,dotcolour,beta,,,52,18,V,R,
540,36,36,12,4,33,47,1667,['c'],0,right,['3'],4,526,[0.00723786],83,47,medium,plus,dotcolour,beta,,,52,18,V,R,
541,37,37,12,4,53,27,1033,['c'],1,left,['1'],6,160,[-0.01664443],85,53,easy,plus,dotcolour,beta,,,52,18,V,R,
542,38,38,12,4,27,53,883,['n'],1,right,['1'],6,104,[-0.09700886],100,53,easy,plus,dotcolour,beta,,,52,18,V,R,
543,39,39,12,4,47,33,1366,['c'],1,left,['2'],5,198,[0.13958011],100,47,medium,plus,dotcolour,beta,,,52,18,V,R,
544,40,40,12,4,36,44,1517,['c'],0,right,['2'],5,211,[0.03205974],97,44,hard,plus,dotcolour,beta,,,52,18,V,R,
545,41,41,12,4,27,53,950,['n'],1,right,['2'],5,125,[-0.0706926],100,53,easy,plus,dotcolour,beta,,,52,18,V,R,
546,42,0,13,4,27,53,1652,['n'],1,right,['1'],6,372,[-0.16119301],100,53,easy,plus,dotcolour,beta,,,52,18,V,R,
547,43,1,13,4,36,44,1233,['c'],0,right,['2'],5,237,[0.05472393],98,44,hard,plus,dotcolour,beta,,,52,18,V,R,
548,44,2,13,4,33,47,1300,['c'],0,right,['2'],5,185,[0.11947297],100,47,medium,plus,dotcolour,beta,,,52,18,V,R,
549,45,3,13,4,44,36,717,['c'],1,left,['2'],5,134,[0.10976178],100,44,hard,plus,dotcolour,beta,,,52,18,V,R,
550,46,4,13,4,47,33,833,['c'],1,left,['2'],5,145,[0.0680388],100,47,medium,plus,dotcolour,beta,,,52,18,V,R,
551,47,5,13,4,44,36,766,['c'],1,left,['1'],6,158,[0.09150936],100,44,hard,plus,dotcolour,beta,,,52,18,V,R,
552,48,6,13,4,33,47,1417,['n'],1,right,['3'],4,152,[-0.04889911],99,47,medium,plus,dotcolour,beta,,,52,18,V,R,
553,49,7,13,4,36,44,634,['n'],1,right,['3'],4,114,[-0.06257221],100,44,hard,plus,dotcolour,beta,,,52,18,V,R,
554,50,8,13,4,27,53,700,['n'],1,right,['2'],5,138,[-0.077301],100,53,easy,plus,dotcolour,beta,,,52,18,V,R,
555,51,9,13,4,33,47,684,['n'],1,right,['1'],6,108,[-0.03997955],99,47,medium,plus,dotcolour,beta,,,52,18,V,R,
556,52,10,13,4,33,47,667,['n'],1,right,['1'],6,173,[-0.06446032],99,47,medium,plus,dotcolour,beta,,,52,18,V,R,
557,53,11,13,4,36,44,1084,['n'],1,right,['3'],4,132,[-0.10829193],100,44,hard,plus,dotcolour,beta,,,52,18,V,R,
558,54,12,13,4,33,47,1350,['c'],0,right,['3'],4,379,[0.04441671],95,47,medium,plus,dotcolour,beta,,,52,18,V,R,
559,55,13,13,4,27,53,883,['n'],1,right,['2'],5,120,[-0.13158725],100,53,easy,plus,dotcolour,beta,,,52,18,V,R,
560,56,14,13,4,53,27,967,['c'],1,left,['2'],5,158,[0.09451434],100,53,easy,plus,dotcolour,beta,,,52,18,V,R,
561,57,15,13,4,44,36,900,['c'],1,left,['2'],5,237,[0.09769782],100,44,hard,plus,dotcolour,beta,,,52,18,V,R,
562,58,16,13,4,27,53,1467,['n'],1,right,['2'],5,147,[-0.05693064],99,53,easy,plus,dotcolour,beta,,,52,18,V,R,
563,59,17,13,4,53,27,867,['c'],1,left,['1'],6,123,[0.1446145],100,53,easy,plus,dotcolour,beta,,,52,18,V,R,
564,60,18,13,4,33,47,1017,['n'],1,right,['3'],4,135,[-0.02293795],98,47,medium,plus,dotcolour,beta,,,52,18,V,R,
565,61,19,13,4,53,27,750,['c'],1,left,['2'],5,765,[0.14952685],99,53,easy,plus,dotcolour,beta,,,52,18,V,R,
566,62,20,13,4,36,44,1200,['n'],1,right,['3'],4,127,[-0.00479419],95,44,hard,plus,dotcolour,beta,,,52,18,V,R,
567,63,21,13,4,33,47,950,['c'],0,right,['3'],4,102,[0.01358727],98,47,medium,plus,dotcolour,beta,,,52,18,V,R,
568,64,22,13,4,27,53,966,['n'],1,right,['2'],5,132,[-0.150003],100,53,easy,plus,dotcolour,beta,,,52,18,V,R,
569,65,23,13,4,53,27,851,['c'],1,left,['1'],6,94,[0.06719213],100,53,easy,plus,dotcolour,beta,,,52,18,V,R,
570,66,24,13,4,47,33,766,['c'],1,left,['1'],6,125,[0.09289525],100,47,medium,plus,dotcolour,beta,,,52,18,V,R,
571,67,25,13,4,47,33,701,['c'],1,left,['1'],6,93,[0.09948444],100,47,medium,plus,dotcolour,beta,,,52,18,V,R,
572,68,26,13,4,47,33,650,['c'],1,left,['2'],5,112,[0.06006053],100,47,medium,plus,dotcolour,beta,,,52,18,V,R,
573,69,27,13,4,27,53,1067,['n'],1,right,['3'],4,98,[-0.08878714],100,53,easy,plus,dotcolour,beta,,,52,18,V,R,
574,70,28,13,4,53,27,750,['c'],1,left,['2'],5,153,[0.10726761],100,53,easy,plus,dotcolour,beta,,,52,18,V,R,
575,71,29,13,4,36,44,1000,['c'],0,right,['2'],5,118,[0.06464237],100,44,hard,plus,dotcolour,beta,,,52,18,V,R,
576,72,30,13,4,53,27,701,['c'],1,left,['2'],5,150,[0.11514292],100,53,easy,plus,dotcolour,beta,,,52,18,V,R,
577,73,31,13,4,53,27,1667,['c'],1,left,['3'],4,638,[0.07543866],95,53,easy,plus,dotcolour,beta,,,52,18,V,R,
578,74,32,13,4,36,44,766,['c'],0,right,['2'],5,119,[0.06042669],100,44,hard,plus,dotcolour,beta,,,52,18,V,R,
579,75,33,13,4,44,36,732,['c'],1,left,['2'],5,135,[0.12650568],100,44,hard,plus,dotcolour,beta,,,52,18,V,R,
580,76,34,13,4,44,36,1067,['n'],0,left,['3'],4,112,[-0.11485303],100,44,hard,plus,dotcolour,beta,,,52,18,V,R,
581,77,35,13,4,47,33,933,['c'],1,left,['2'],5,216,[0.10659495],100,47,medium,plus,dotcolour,beta,,,52,18,V,R,
582,78,36,13,4,47,33,916,['c'],1,left,['2'],5,108,[0.07854602],100,47,medium,plus,dotcolour,beta,,,52,18,V,R,
583,79,37,13,4,44,36,1534,['n'],0,left,['3'],4,251,[-0.03677846],97,44,hard,plus,dotcolour,beta,,,52,18,V,R,
584,80,38,13,4,36,44,666,['n'],1,right,['3'],4,95,[-0.12003743],100,44,hard,plus,dotcolour,beta,,,52,18,V,R,
585,81,39,13,4,44,36,1184,['n'],0,left,['3'],4,101,[-0.04859709],100,44,hard,plus,dotcolour,beta,,,52,18,V,R,
586,82,40,13,4,27,53,883,['n'],1,right,['2'],5,175,[-0.10410743],100,53,easy,plus,dotcolour,beta,,,52,18,V,R,
587,83,41,13,4,47,33,1017,['n'],0,left,['3'],4,129,[-0.02279965],98,47,medium,plus,dotcolour,beta,,,52,18,V,R,
588,84,0,14,4,53,27,934,['c'],1,left,['3'],4,188,[0.02408442],96,53,easy,plus,dotcolour,beta,,,52,18,V,R,
589,85,1,14,4,27,53,1400,['n'],1,right,['1'],6,438,[-0.16640836],100,53,easy,plus,dotcolour,beta,,,52,18,V,R,
590,86,2,14,4,33,47,850,['n'],1,right,['1'],6,124,[-0.07843232],100,47,medium,plus,dotcolour,beta,,,52,18,V,R,
591,87,3,14,4,53,27,983,['c'],1,left,['1'],6,112,[0.10172118],100,53,easy,plus,dotcolour,beta,,,52,18,V,R,
592,88,4,14,4,44,36,750,['c'],1,left,['1'],6,150,[0.03060962],98,44,hard,plus,dotcolour,beta,,,52,18,V,R,
593,89,5,14,4,53,27,716,['c'],1,left,['1'],6,133,[0.04689284],99,53,easy,plus,dotcolour,beta,,,52,18,V,R,
594,90,6,14,4,44,36,750,['c'],1,left,['2'],5,116,[0.07883232],100,44,hard,plus,dotcolour,beta,,,52,18,V,R,
595,91,7,14,4,44,36,567,['c'],1,left,['2'],5,122,[0.12821824],100,44,hard,plus,dotcolour,beta,,,52,18,V,R,
596,92,8,14,4,53,27,1017,['c'],1,left,['2'],5,206,[0.06044821],99,53,easy,plus,dotcolour,beta,,,52,18,V,R,
597,93,9,14,4,36,44,5134,['n'],1,right,['2'],5,3682,[-0.11477521],83,44,hard,plus,dotcolour,beta,,,52,18,V,R,
598,94,10,14,4,33,47,1583,['n'],1,right,['2'],5,103,[-0.06102474],100,47,medium,plus,dotcolour,beta,,,52,18,V,R,
599,95,11,14,4,33,47,1350,['c'],0,right,['2'],5,174,[0.00882947],94,47,medium,plus,dotcolour,beta,,,52,18,V,R,
600,96,12,14,4,36,44,1483,['n'],1,right,['2'],5,125,[-0.11649617],100,44,hard,plus,dotcolour,beta,,,52,18,V,R,
601,97,13,14,4,44,36,983,['c'],1,left,['1'],6,426,[0.13062672],99,44,hard,plus,dotcolour,beta,,,52,18,V,R,
602,98,14,14,4,36,44,984,['c'],0,right,['2'],5,210,[0.06495761],99,44,hard,plus,dotcolour,beta,,,52,18,V,R,
603,99,15,14,4,27,53,1700,['n'],1,right,['8'],3,135,[-0.12901005],100,53,easy,plus,dotcolour,beta,,,52,18,V,R,
604,100,16,14,4,33,47,1833,['c'],0,right,['2'],5,66,[0.01816646],99,47,medium,plus,dotcolour,beta,,,52,18,V,R,
605,101,17,14,4,47,33,1249,['n'],0,left,['3'],4,126,[-0.08828984],100,47,medium,plus,dotcolour,beta,,,52,18,V,R,
606,102,18,14,4,27,53,2550,['n'],1,right,['8'],3,220,[-0.08309227],100,53,easy,plus,dotcolour,beta,,,52,18,V,R,
607,103,19,14,4,47,33,1034,['c'],1,left,['2'],5,108,[0.08200392],100,47,medium,plus,dotcolour,beta,,,52,18,V,R,
608,104,20,14,4,47,33,1634,['c'],1,left,['2'],5,159,[0.00573995],94,47,medium,plus,dotcolour,beta,,,52,18,V,R,
609,105,21,14,4,53,27,1183,['c'],1,left,['1'],6,99,[0.08652651],100,53,easy,plus,dotcolour,beta,,,52,18,V,R,
610,106,22,14,4,36,44,1683,['c'],0,right,['1'],6,125,[0.05303369],100,44,hard,plus,dotcolour,beta,,,52,18,V,R,
611,107,23,14,4,53,27,1133,['c'],1,left,['2'],5,107,[0.10361951],100,53,easy,plus,dotcolour,beta,,,52,18,V,R,
612,108,24,14,4,36,44,1133,['n'],1,right,['3'],4,891,[-0.13794281],98,44,hard,plus,dotcolour,beta,,,52,18,V,R,
613,109,25,14,4,47,33,1533,['c'],1,left,['2'],5,107,[0.0545765],100,47,medium,plus,dotcolour,beta,,,52,18,V,R,
614,110,26,14,4,27,53,1083,['n'],1,right,['2'],5,92,[-0.02494723],99,53,easy,plus,dotcolour,beta,,,52,18,V,R,
615,111,27,14,4,27,53,1068,['n'],1,right,['1'],6,79,[-0.0605781],100,53,easy,plus,dotcolour,beta,,,52,18,V,R,
616,112,28,14,4,36,44,1250,['n'],1,right,['2'],5,131,[-0.05569901],100,44,hard,plus,dotcolour,beta,,,52,18,V,R,
617,113,29,14,4,33,47,1451,['n'],1,right,['2'],5,125,[-0.06748751],100,47,medium,plus,dotcolour,beta,,,52,18,V,R,
618,114,30,14,4,33,47,1033,['n'],1,right,['2'],5,479,[-0.08014456],97,47,medium,plus,dotcolour,beta,,,52,18,V,R,
619,115,31,14,4,36,44,1235,['n'],1,right,['1'],6,444,[-0.08954426],98,44,hard,plus,dotcolour,beta,,,52,18,V,R,
620,116,32,14,4,44,36,1002,['c'],1,left,['1'],6,107,[0.12379254],100,44,hard,plus,dotcolour,beta,,,52,18,V,R,
621,117,33,14,4,27,53,1933,['n'],1,right,['3'],4,156,[-0.10228249],100,53,easy,plus,dotcolour,beta,,,52,18,V,R,
622,118,34,14,4,44,36,1833,['c'],1,left,['1'],6,117,[0.11413399],100,44,hard,plus,dotcolour,beta,,,52,18,V,R,
623,119,35,14,4,47,33,1133,['c'],1,left,['2'],5,228,[0.08114639],99,47,medium,plus,dotcolour,beta,,,52,18,V,R,
624,120,36,14,4,27,53,932,['n'],1,right,['1'],6,95,[-0.12844896],100,53,easy,plus,dotcolour,beta,,,52,18,V,R,
625,121,37,14,4,53,27,1033,['c'],1,left,['1'],6,91,[-0.00426425],96,53,easy,plus,dotcolour,beta,,,52,18,V,R,
626,122,38,14,4,44,36,849,['c'],1,left,['2'],5,150,[0.06117149],100,44,hard,plus,dotcolour,beta,,,52,18,V,R,
627,123,39,14,4,33,47,817,['n'],1,right,['3'],4,145,[-0.15168145],100,47,medium,plus,dotcolour,beta,,,52,18,V,R,
628,124,40,14,4,47,33,834,['c'],1,left,['1'],6,99,[0.04583333],100,47,medium,plus,dotcolour,beta,,,52,18,V,R,
629,125,41,14,4,47,33,1134,['c'],1,left,['2'],5,123,[0.12578541],100,47,medium,plus,dotcolour,beta,,,52,18,V,R,
630,0,0,15,5,33,47,1784,['n'],1,right,['8'],3,190,[-0.1486259],98,47,medium,minus,dotcolour,beta,,,52,18,V,R,
631,1,1,15,5,44,36,1083,['n'],0,left,['2'],5,132,[-0.12524398],97,44,hard,minus,dotcolour,beta,,,52,18,V,R,
632,2,2,15,5,33,47,800,['n'],1,right,['2'],5,176,[-0.04232846],36,47,medium,minus,dotcolour,beta,,,52,18,V,R,
633,3,3,15,5,27,53,1050,['n'],1,right,['2'],5,104,[-0.14271578],99,53,easy,minus,dotcolour,beta,,,52,18,V,R,
634,4,4,15,5,47,33,967,['c'],1,left,['1'],6,78,[-0.02233116],1,47,medium,minus,dotcolour,beta,,,52,18,V,R,
635,5,5,15,5,36,44,950,['n'],1,right,['2'],5,127,[-0.07436186],72,44,hard,minus,dotcolour,beta,,,52,18,V,R,
636,6,6,15,5,27,53,750,['n'],1,right,['2'],5,133,[-0.10199867],91,53,easy,minus,dotcolour,beta,,,52,18,V,R,
637,7,7,15,5,36,44,1550,['c'],0,right,['3'],4,122,[0.05203205],45,44,hard,minus,dotcolour,beta,,,52,18,V,R,
638,8,8,15,5,53,27,815,['c'],1,left,['3'],4,150,[0.08342327],79,53,easy,minus,dotcolour,beta,,,52,18,V,R,
639,9,9,15,5,44,36,1067,['c'],1,left,['2'],5,103,[0.06341386],61,44,hard,minus,dotcolour,beta,,,52,18,V,R,
640,10,10,15,5,53,27,1399,['c'],1,left,['3'],4,77,[0.08945766],90,53,easy,minus,dotcolour,beta,,,52,18,V,R,
641,11,11,15,5,27,53,1266,['n'],1,right,['2'],5,169,[-0.1771987],100,53,easy,minus,dotcolour,beta,,,52,18,V,R,
642,12,12,15,5,47,33,1050,['c'],1,left,['2'],5,137,[0.09980493],90,47,medium,minus,dotcolour,beta,,,52,18,V,R,
643,13,13,15,5,36,44,1200,['c'],0,right,['2'],5,133,[0.09359609],87,44,hard,minus,dotcolour,beta,,,52,18,V,R,
644,14,14,15,5,36,44,1265,['c'],0,right,['2'],5,118,[0.11149738],95,44,hard,minus,dotcolour,beta,,,52,18,V,R,
645,15,15,15,5,44,36,1000,['c'],1,left,['2'],5,107,[0.12939897],98,44,hard,minus,dotcolour,beta,,,52,18,V,R,
646,16,16,15,5,33,47,1018,['n'],1,right,['3'],4,103,[-0.11962467],97,47,medium,minus,dotcolour,beta,,,52,18,V,R,
647,17,17,15,5,36,44,1534,['c'],0,right,['3'],4,87,[0.06042988],57,44,hard,minus,dotcolour,beta,,,52,18,V,R,
648,18,18,15,5,44,36,1216,['c'],1,left,['3'],4,4,[0.07385405],99,44,hard,minus,dotcolour,beta,,,52,18,V,R,
649,19,19,15,5,53,27,1066,['c'],1,left,['3'],4,99,[0.04011478],29,53,easy,minus,dotcolour,beta,,,52,18,V,R,
650,20,20,15,5,44,36,1166,['c'],1,left,['3'],4,137,[0.15474667],99,44,hard,minus,dotcolour,beta,,,52,18,V,R,
651,21,21,15,5,47,33,832,['c'],1,left,['3'],4,125,[0.08803298],84,47,medium,minus,dotcolour,beta,,,52,18,V,R,
652,22,22,15,5,53,27,750,['c'],1,left,['2'],5,330,[0.04210174],40,53,easy,minus,dotcolour,beta,,,52,18,V,R,
653,23,23,15,5,33,47,817,['n'],1,right,['2'],5,158,[-0.09703727],87,47,medium,minus,dotcolour,beta,,,52,18,V,R,
654,24,24,15,5,44,36,1150,['n'],0,left,['2'],5,123,[-0.05332232],47,44,hard,minus,dotcolour,beta,,,52,18,V,R,
655,25,25,15,5,53,27,733,['c'],1,left,['2'],5,82,[0.10425356],96,53,easy,minus,dotcolour,beta,,,52,18,V,R,
656,26,26,15,5,47,33,1066,['n'],0,left,['3'],4,125,[-0.02670588],19,47,medium,minus,dotcolour,beta,,,52,18,V,R,
657,27,27,15,5,44,36,817,['n'],0,left,['2'],5,401,[-0.04093673],40,44,hard,minus,dotcolour,beta,,,52,18,V,R,
658,28,28,15,5,27,53,684,['n'],1,right,['2'],5,135,[-0.08465669],81,53,easy,minus,dotcolour,beta,,,52,18,V,R,
659,29,29,15,5,47,33,1017,['c'],1,left,['2'],5,74,[0.10306514],96,47,medium,minus,dotcolour,beta,,,52,18,V,R,
660,30,30,15,5,36,44,832,['n'],1,right,['2'],5,103,[-0.09477393],90,44,hard,minus,dotcolour,beta,,,52,18,V,R,
661,31,31,15,5,53,27,816,['c'],1,left,['2'],5,148,[0.03999465],33,53,easy,minus,dotcolour,beta,,,52,18,V,R,
662,32,32,15,5,53,27,1100,['c'],1,left,['3'],4,187,[0.0668372],62,53,easy,minus,dotcolour,beta,,,52,18,V,R,
663,33,33,15,5,33,47,1184,['n'],1,right,['3'],4,125,[-0.10134256],91,47,medium,minus,dotcolour,beta,,,52,18,V,R,
664,34,34,15,5,27,53,717,['n'],1,right,['2'],5,141,[-0.05750561],52,53,easy,minus,dotcolour,beta,,,52,18,V,R,
665,35,35,15,5,47,33,1016,['c'],1,left,['2'],5,143,[0.05446068],49,47,medium,minus,dotcolour,beta,,,52,18,V,R,
666,36,36,15,5,33,47,1017,['n'],1,right,['3'],4,90,[-0.05521395],49,47,medium,minus,dotcolour,beta,,,52,18,V,R,
667,37,37,15,5,47,33,1150,['c'],1,left,['3'],4,753,[0.09380777],69,47,medium,minus,dotcolour,beta,,,52,18,V,R,
668,38,38,15,5,33,47,1066,['n'],1,right,['3'],4,217,[-0.11074893],89,47,medium,minus,dotcolour,beta,,,52,18,V,R,
669,39,39,15,5,27,53,766,['n'],1,right,['3'],4,107,[-0.07707835],77,53,easy,minus,dotcolour,beta,,,52,18,V,R,
670,40,40,15,5,36,44,1017,['c'],0,right,['3'],4,159,[0.05306511],47,44,hard,minus,dotcolour,beta,,,52,18,V,R,
671,41,41,15,5,27,53,899,['n'],1,right,['2'],5,206,[-0.04060969],36,53,easy,minus,dotcolour,beta,,,52,18,V,R,
672,42,0,16,5,36,44,784,['n'],1,right,['3'],4,137,[-0.05939945],55,44,hard,minus,dotcolour,beta,,,52,18,V,R,
673,43,1,16,5,27,53,750,['n'],1,right,['2'],5,183,[-0.1131124],92,53,easy,minus,dotcolour,beta,,,52,18,V,R,
674,44,2,16,5,44,36,799,['c'],1,left,['2'],5,137,[0.06596732],62,44,hard,minus,dotcolour,beta,,,52,18,V,R,
675,45,3,16,5,33,47,816,['n'],1,right,['2'],5,108,[-0.05278418],46,47,medium,minus,dotcolour,beta,,,52,18,V,R,
676,46,4,16,5,53,27,783,['c'],1,left,['2'],5,98,[0.08002042],80,53,easy,minus,dotcolour,beta,,,52,18,V,R,
677,47,5,16,5,44,36,767,['c'],1,left,['2'],5,368,[0.06312512],56,44,hard,minus,dotcolour,beta,,,52,18,V,R,
678,48,6,16,5,44,36,1034,['c'],1,left,['3'],4,234,[0.1720393],99,44,hard,minus,dotcolour,beta,,,52,18,V,R,
679,49,7,16,5,47,33,701,['c'],1,left,['2'],5,190,[0.03796137],33,47,medium,minus,dotcolour,beta,,,52,18,V,R,
680,50,8,16,5,53,27,667,['c'],1,left,['3'],4,189,[0.1024228],87,53,easy,minus,dotcolour,beta,,,52,18,V,R,
681,51,9,16,5,47,33,633,['c'],1,left,['3'],4,125,[0.09418598],88,47,medium,minus,dotcolour,beta,,,52,18,V,R,
682,52,10,16,5,36,44,1051,['c'],0,right,['3'],4,135,[0.08617327],82,44,hard,minus,dotcolour,beta,,,52,18,V,R,
683,53,11,16,5,53,27,966,['c'],1,left,['3'],4,309,[0.11776276],88,53,easy,minus,dotcolour,beta,,,52,18,V,R,
684,54,12,16,5,53,27,633,['c'],1,left,['3'],4,80,[0.03653226],23,53,easy,minus,dotcolour,beta,,,52,18,V,R,
685,55,13,16,5,27,53,1051,['n'],1,right,['2'],5,220,[-0.18031493],99,53,easy,minus,dotcolour,beta,,,52,18,V,R,
686,56,14,16,5,33,47,683,['n'],1,right,['2'],5,89,[-0.14621365],100,47,medium,minus,dotcolour,beta,,,52,18,V,R,
687,57,15,16,5,44,36,1734,['c'],1,left,['3'],4,66,[0.03655138],21,44,hard,minus,dotcolour,beta,,,52,18,V,R,
688,58,16,16,5,33,47,900,['n'],1,right,['2'],5,116,[-0.06096419],57,47,medium,minus,dotcolour,beta,,,52,18,V,R,
689,59,17,16,5,53,27,867,['c'],1,left,['2'],5,110,[0.06529053],63,53,easy,minus,dotcolour,beta,,,52,18,V,R,
690,60,18,16,5,27,53,767,['n'],1,right,['2'],5,196,[-0.14684717],98,53,easy,minus,dotcolour,beta,,,52,18,V,R,
691,61,19,16,5,27,53,734,['n'],1,right,['1'],6,105,[-0.10988068],95,53,easy,minus,dotcolour,beta,,,52,18,V,R,
692,62,20,16,5,47,33,949,['c'],1,left,['2'],5,112,[0.14551792],99,47,medium,minus,dotcolour,beta,,,52,18,V,R,
693,63,21,16,5,44,36,2699,['c'],1,left,['3'],4,121,[0.10143928],91,44,hard,minus,dotcolour,beta,,,52,18,V,R,
694,64,22,16,5,36,44,2300,['n'],1,right,['3'],4,129,[-0.02654721],19,44,hard,minus,dotcolour,beta,,,52,18,V,R,
695,65,23,16,5,33,47,2050,['n'],1,right,['8'],3,163,[-0.05380557],48,47,medium,minus,dotcolour,beta,,,52,18,V,R,
696,66,24,16,5,53,27,683,['c'],1,left,['3'],4,179,[0.0908926],82,53,easy,minus,dotcolour,beta,,,52,18,V,R,
697,67,25,16,5,36,44,1000,['n'],1,right,['2'],5,196,[-0.09654895],84,44,hard,minus,dotcolour,beta,,,52,18,V,R,
698,68,26,16,5,47,33,916,['c'],1,left,['3'],4,113,[0.09120602],87,47,medium,minus,dotcolour,beta,,,52,18,V,R,
699,69,27,16,5,27,53,1001,['n'],1,right,['2'],5,118,[-0.09902119],91,53,easy,minus,dotcolour,beta,,,52,18,V,R,
700,70,28,16,5,47,33,1118,['c'],1,left,['3'],4,134,[0.11552933],95,47,medium,minus,dotcolour,beta,,,52,18,V,R,
701,71,29,16,5,44,36,949,['c'],1,left,['3'],4,124,[0.12913685],98,44,hard,minus,dotcolour,beta,,,52,18,V,R,
702,72,30,16,5,27,53,1085,['n'],1,right,['2'],5,117,[-0.06444326],61,53,easy,minus,dotcolour,beta,,,52,18,V,R,
703,73,31,16,5,33,47,900,['n'],1,right,['2'],5,165,[-0.11747748],94,47,medium,minus,dotcolour,beta,,,52,18,V,R,
704,74,32,16,5,47,33,900,['c'],1,left,['3'],4,116,[0.06084211],57,47,medium,minus,dotcolour,beta,,,52,18,V,R,
705,75,33,16,5,27,53,1034,['n'],1,right,['2'],5,103,[-0.06338416],61,53,easy,minus,dotcolour,beta,,,52,18,V,R,
706,76,34,16,5,44,36,900,['c'],1,left,['3'],4,153,[0.03829124],31,44,hard,minus,dotcolour,beta,,,52,18,V,R,
707,77,35,16,5,47,33,1016,['c'],1,left,['3'],4,132,[0.02598953],19,47,medium,minus,dotcolour,beta,,,52,18,V,R,
708,78,36,16,5,36,44,767,['n'],1,right,['2'],5,89,[-0.06669718],66,44,hard,minus,dotcolour,beta,,,52,18,V,R,
709,79,37,16,5,36,44,618,['n'],1,right,['2'],5,158,[-0.10418864],90,44,hard,minus,dotcolour,beta,,,52,18,V,R,
710,80,38,16,5,53,27,901,['c'],1,left,['2'],5,85,[0.10049155],94,53,easy,minus,dotcolour,beta,,,52,18,V,R,
711,81,39,16,5,36,44,717,['n'],1,right,['2'],5,126,[-0.08231838],80,44,hard,minus,dotcolour,beta,,,52,18,V,R,
712,82,40,16,5,33,47,850,['n'],1,right,['2'],5,216,[-0.15562782],98,47,medium,minus,dotcolour,beta,,,52,18,V,R,
713,83,41,16,5,33,47,2033,['c'],0,right,['3'],4,119,[0.0163941],11,47,medium,minus,dotcolour,beta,,,52,18,V,R,
714,84,0,17,5,36,44,1918,['c'],0,right,['3'],4,922,[0.02848311],38,44,hard,minus,dotcolour,beta,,,52,18,V,R,
715,85,1,17,5,53,27,867,['c'],1,left,['3'],4,172,[0.02385192],20,53,easy,minus,dotcolour,beta,,,52,18,V,R,
716,86,2,17,5,36,44,1016,['c'],0,right,['3'],4,174,[-0.00500508],7,44,hard,minus,dotcolour,beta,,,52,18,V,R,
717,87,3,17,5,53,27,917,['c'],1,left,['2'],5,116,[0.06441933],62,53,easy,minus,dotcolour,beta,,,52,18,V,R,
718,88,4,17,5,27,53,1249,['n'],1,right,['2'],5,134,[-0.10872196],93,53,easy,minus,dotcolour,beta,,,52,18,V,R,
719,89,5,17,5,53,27,917,['c'],1,left,['3'],4,157,[0.10268439],89,53,easy,minus,dotcolour,beta,,,52,18,V,R,
720,90,6,17,5,47,33,767,['c'],1,left,['3'],4,105,[0.04855539],40,47,medium,minus,dotcolour,beta,,,52,18,V,R,
721,91,7,17,5,33,47,1267,['n'],1,right,['2'],5,100,[-0.05835441],54,47,medium,minus,dotcolour,beta,,,52,18,V,R,
722,92,8,17,5,53,27,816,['c'],1,left,['2'],5,96,[0.0938546],90,53,easy,minus,dotcolour,beta,,,52,18,V,R,
723,93,9,17,5,44,36,583,['c'],1,left,['2'],5,158,[0.12247627],95,44,hard,minus,dotcolour,beta,,,52,18,V,R,
724,94,10,17,5,33,47,550,['c'],0,right,['2'],5,107,[0.1108054],95,47,medium,minus,dotcolour,beta,,,52,18,V,R,
725,95,11,17,5,33,47,734,['n'],1,right,['2'],5,90,[-0.10104128],94,47,medium,minus,dotcolour,beta,,,52,18,V,R,
726,96,12,17,5,47,33,634,['c'],1,left,['3'],4,126,[0.05352186],47,47,medium,minus,dotcolour,beta,,,52,18,V,R,
727,97,13,17,5,27,53,1050,['n'],1,right,['2'],5,105,[-0.06940516],68,53,easy,minus,dotcolour,beta,,,52,18,V,R,
728,98,14,17,5,27,53,684,['n'],1,right,['2'],5,107,[-0.10652551],94,53,easy,minus,dotcolour,beta,,,52,18,V,R,
729,99,15,17,5,27,53,584,['n'],1,right,['1'],6,112,[-0.10654071],94,53,easy,minus,dotcolour,beta,,,52,18,V,R,
730,100,16,17,5,44,36,1434,['c'],1,left,['3'],4,179,[0.03772291],32,44,hard,minus,dotcolour,beta,,,52,18,V,R,
731,101,17,17,5,36,44,817,['c'],0,right,['2'],5,149,[0.03631843],29,44,hard,minus,dotcolour,beta,,,52,18,V,R,
732,102,18,17,5,36,44,784,['c'],0,right,['3'],4,425,[0.10397131],79,44,hard,minus,dotcolour,beta,,,52,18,V,R,
733,103,19,17,5,44,36,1033,['c'],1,left,['3'],4,111,[0.08888551],86,44,hard,minus,dotcolour,beta,,,52,18,V,R,
734,104,20,17,5,47,33,1234,['c'],1,left,['3'],4,131,[0.06510102],62,47,medium,minus,dotcolour,beta,,,52,18,V,R,
735,105,21,17,5,47,33,917,['c'],1,left,['3'],4,98,[0.10256056],94,47,medium,minus,dotcolour,beta,,,52,18,V,R,
736,106,22,17,5,53,27,683,['c'],1,left,['3'],4,140,[0.0690754],66,53,easy,minus,dotcolour,beta,,,52,18,V,R,
737,107,23,17,5,27,53,933,['n'],1,right,['2'],5,130,[-0.1134842],95,53,easy,minus,dotcolour,beta,,,52,18,V,R,
738,108,24,17,5,47,33,917,['c'],1,left,['2'],5,129,[0.07425863],72,47,medium,minus,dotcolour,beta,,,52,18,V,R,
739,109,25,17,5,47,33,867,['c'],1,left,['3'],4,115,[0.09017427],86,47,medium,minus,dotcolour,beta,,,52,18,V,R,
740,110,26,17,5,53,27,767,['c'],1,left,['2'],5,137,[0.10281362],91,53,easy,minus,dotcolour,beta,,,52,18,V,R,
741,111,27,17,5,33,47,884,['n'],1,right,['2'],5,106,[-0.05640922],51,47,medium,minus,dotcolour,beta,,,52,18,V,R,
742,112,28,17,5,44,36,1384,['c'],1,left,['3'],4,464,[0.05719533],51,44,hard,minus,dotcolour,beta,,,52,18,V,R,
743,113,29,17,5,53,27,750,['c'],1,left,['2'],5,88,[0.09096378],90,53,easy,minus,dotcolour,beta,,,52,18,V,R,
744,114,30,17,5,44,36,1950,['c'],1,left,['2'],5,96,[0.07689507],78,44,hard,minus,dotcolour,beta,,,52,18,V,R,
745,115,31,17,5,36,44,817,['n'],1,right,['2'],5,117,[-0.10100186],92,44,hard,minus,dotcolour,beta,,,52,18,V,R,
746,116,32,17,5,27,53,1150,['n'],1,right,['2'],5,148,[-0.1488946],99,53,easy,minus,dotcolour,beta,,,52,18,V,R,
747,117,33,17,5,44,36,1416,['c'],1,left,['3'],4,110,[0.06202692],59,44,hard,minus,dotcolour,beta,,,52,18,V,R,
748,118,34,17,5,33,47,867,['c'],0,right,['2'],5,72,[0.10895828],97,47,medium,minus,dotcolour,beta,,,52,18,V,R,
749,119,35,17,5,33,47,801,['c'],0,right,['2'],5,127,[0.06297399],59,47,medium,minus,dotcolour,beta,,,52,18,V,R,
750,120,36,17,5,36,44,733,['c'],0,right,['2'],5,142,[0.01392491],12,44,hard,minus,dotcolour,beta,,,52,18,V,R,
751,121,37,17,5,44,36,1316,['c'],1,left,['2'],5,109,[0.1107159],95,44,hard,minus,dotcolour,beta,,,52,18,V,R,
752,122,38,17,5,36,44,850,['n'],1,right,['2'],5,111,[-0.06306998],60,44,hard,minus,dotcolour,beta,,,52,18,V,R,
753,123,39,17,5,33,47,1550,['c'],0,right,['3'],4,278,[0.01755523],21,47,medium,minus,dotcolour,beta,,,52,18,V,R,
754,124,40,17,5,27,53,950,['n'],1,right,['1'],6,158,[-0.05209622],46,53,easy,minus,dotcolour,beta,,,52,18,V,R,
755,125,41,17,5,47,33,1049,['c'],1,left,['3'],4,95,[0.04619028],37,47,medium,minus,dotcolour,beta,,,52,18,V,R,
,,,,,,,,,,,,,,,,,,,,,1,ik had de indruk dat ik soms meerdere keren hetzelfde plaatje kreeg,52,18,V,R,
,,,,,,,,,,,,,,,,,,,,,2,['f'],52,18,V,R,
,,,,,,,,,,,,,,,,,,,,,3,['g'],52,18,V,R,
,,,,,,,,,,,,,,,,,,,,,5,[],52,18,V,R,
