trial,withinphasetrial,withinblocktrial,block,phase,dotsLeft,dotsRight,rt,resp,cor,cresp,conf_press,cj,RTconf,ev,fb,diff,difflevel,condition,task,manip,questionID,questionResp,sub,age,gender,handedness,
0,0,0,0,0,36,44,1883,['n'],1,right,['1'],6,1093,[-0.09456143],93,44,hard,plus,dotcolour,beta,,,72,19,M,L,
1,1,1,0,0,47,33,2015,['c'],1,left,['3'],4,1745,[0.41491002],100,47,medium,plus,dotcolour,beta,,,72,19,M,L,
2,2,2,0,0,27,53,1147,['n'],1,right,['1'],6,957,[-0.21765784],99,53,easy,plus,dotcolour,beta,,,72,19,M,L,
3,3,3,0,0,44,36,1214,['n'],0,left,['8'],3,1447,[-0.17279858],97,44,hard,plus,dotcolour,beta,,,72,19,M,L,
4,4,4,0,0,33,47,1082,['n'],1,right,['3'],4,1147,[-0.20440797],99,47,medium,plus,dotcolour,beta,,,72,19,M,L,
5,5,5,0,0,44,36,966,['n'],0,left,['3'],4,647,[-0.04427389],90,44,hard,plus,dotcolour,beta,,,72,19,M,L,
6,6,6,0,0,33,47,2199,['c'],0,right,['0'],1,1054,[0.03961416],84,47,medium,plus,dotcolour,beta,,,72,19,M,L,
7,7,7,0,0,36,44,964,['n'],1,right,['1'],6,734,[-0.09202841],96,44,hard,plus,dotcolour,beta,,,72,19,M,L,
8,8,8,0,0,53,27,1447,['n'],0,left,['2'],5,567,[-0.08747923],97,53,easy,plus,dotcolour,beta,,,72,19,M,L,
9,9,9,0,0,36,44,832,['n'],1,right,['3'],4,1344,[-0.15206788],96,44,hard,plus,dotcolour,beta,,,72,19,M,L,
10,10,10,0,0,36,44,1150,['n'],1,right,['2'],5,605,[-0.08698295],96,44,hard,plus,dotcolour,beta,,,72,19,M,L,
11,11,11,0,0,27,53,849,['n'],1,right,['2'],5,676,[-0.27211762],100,53,easy,plus,dotcolour,beta,,,72,19,M,L,
12,12,12,0,0,53,27,1615,['c'],1,left,['3'],4,753,[0.09583103],96,53,easy,plus,dotcolour,beta,,,72,19,M,L,
13,13,13,0,0,47,33,1332,['c'],1,left,['3'],4,366,[0.26371828],100,47,medium,plus,dotcolour,beta,,,72,19,M,L,
14,14,14,0,0,33,47,1282,['n'],1,right,['3'],4,790,[-0.03407302],86,47,medium,plus,dotcolour,beta,,,72,19,M,L,
15,15,15,0,0,27,53,898,['n'],1,right,['2'],5,995,[-0.18351712],99,53,easy,plus,dotcolour,beta,,,72,19,M,L,
16,16,16,0,0,27,53,931,['n'],1,right,['2'],5,1063,[-0.1067441],94,53,easy,plus,dotcolour,beta,,,72,19,M,L,
17,17,17,0,0,53,27,1097,['c'],1,left,['3'],4,778,[0.13790891],98,53,easy,plus,dotcolour,beta,,,72,19,M,L,
18,18,18,0,0,33,47,915,['n'],1,right,['3'],4,480,[-0.0637589],96,47,medium,plus,dotcolour,beta,,,72,19,M,L,
19,19,19,0,0,53,27,2899,['c'],1,left,['2'],5,353,[0.09655999],99,53,easy,plus,dotcolour,beta,,,72,19,M,L,
20,20,20,0,0,27,53,1049,['n'],1,right,['2'],5,433,[-0.09220585],98,53,easy,plus,dotcolour,beta,,,72,19,M,L,
21,21,21,0,0,44,36,1216,['n'],0,left,['2'],5,585,[-0.02493623],87,44,hard,plus,dotcolour,beta,,,72,19,M,L,
22,22,22,0,0,36,44,1166,['n'],1,right,['2'],5,564,[-0.24399735],100,44,hard,plus,dotcolour,beta,,,72,19,M,L,
23,23,23,0,0,44,36,1098,['c'],1,left,['2'],5,339,[0.03426139],94,44,hard,plus,dotcolour,beta,,,72,19,M,L,
24,24,24,0,0,33,47,1883,['n'],1,right,['3'],4,787,[-0.01193888],80,47,medium,plus,dotcolour,beta,,,72,19,M,L,
25,25,25,0,0,47,33,930,['c'],1,left,['2'],5,479,[0.14221088],99,47,medium,plus,dotcolour,beta,,,72,19,M,L,
26,26,26,0,0,47,33,2299,['c'],1,left,['1'],6,17,[0.06029783],100,47,medium,plus,dotcolour,beta,,,72,19,M,L,
27,27,27,0,0,44,36,882,['n'],0,left,['2'],5,583,[0.10513594],24,44,hard,plus,dotcolour,beta,,,72,19,M,L,
28,28,28,0,0,36,44,2132,['n'],1,right,['2'],5,466,[-0.08756316],98,44,hard,plus,dotcolour,beta,,,72,19,M,L,
29,29,29,0,0,47,33,1315,['n'],0,left,['2'],5,428,[-0.03101304],92,47,medium,plus,dotcolour,beta,,,72,19,M,L,
30,30,30,0,0,53,27,866,['c'],1,left,['3'],4,545,[0.12711958],99,53,easy,plus,dotcolour,beta,,,72,19,M,L,
31,31,31,0,0,44,36,1281,['c'],1,left,['2'],5,265,[0.01070785],91,44,hard,plus,dotcolour,beta,,,72,19,M,L,
32,32,32,0,0,33,47,1066,['n'],1,right,['3'],4,437,[-0.15031796],100,47,medium,plus,dotcolour,beta,,,72,19,M,L,
33,33,33,0,0,53,27,849,['n'],0,left,['3'],4,666,[0.02787235],65,53,easy,plus,dotcolour,beta,,,72,19,M,L,
34,34,34,0,0,44,36,1115,['n'],0,left,['2'],5,1188,[-0.05384895],86,44,hard,plus,dotcolour,beta,,,72,19,M,L,
35,35,35,0,0,47,33,1165,['c'],1,left,['3'],4,598,[0.24681487],100,47,medium,plus,dotcolour,beta,,,72,19,M,L,
36,36,36,0,0,33,47,1333,['n'],1,right,['2'],5,354,[-0.106528],99,47,medium,plus,dotcolour,beta,,,72,19,M,L,
37,37,37,0,0,27,53,767,['n'],1,right,['2'],5,526,[-0.27831674],100,53,easy,plus,dotcolour,beta,,,72,19,M,L,
38,38,38,0,0,36,44,948,['n'],1,right,['2'],5,772,[-0.08781349],95,44,hard,plus,dotcolour,beta,,,72,19,M,L,
39,39,39,0,0,27,53,781,['n'],1,right,['1'],6,415,[-0.02905995],91,53,easy,plus,dotcolour,beta,,,72,19,M,L,
40,40,40,0,0,53,27,881,['c'],1,left,['2'],5,428,[0.00422862],84,53,easy,plus,dotcolour,beta,,,72,19,M,L,
41,41,41,0,0,47,33,1099,['c'],1,left,['2'],5,216,[0.09583198],100,47,medium,plus,dotcolour,beta,,,72,19,M,L,
42,42,0,1,0,44,36,1183,['c'],1,left,['2'],5,528,[0.20342702],100,44,hard,plus,dotcolour,beta,,,72,19,M,L,
43,43,1,1,0,27,53,697,['n'],1,right,['1'],6,576,[-0.1621511],99,53,easy,plus,dotcolour,beta,,,72,19,M,L,
44,44,2,1,0,27,53,683,['n'],1,right,['1'],6,343,[-0.15540931],100,53,easy,plus,dotcolour,beta,,,72,19,M,L,
45,45,3,1,0,33,47,734,['n'],1,right,['1'],6,245,[-0.11926891],100,47,medium,plus,dotcolour,beta,,,72,19,M,L,
46,46,4,1,0,36,44,634,['n'],1,right,['1'],6,235,[-0.09201717],100,44,hard,plus,dotcolour,beta,,,72,19,M,L,
47,47,5,1,0,44,36,2183,['n'],0,left,['3'],4,483,[-0.0999207],98,44,hard,plus,dotcolour,beta,,,72,19,M,L,
48,48,6,1,0,44,36,1682,['n'],0,left,['1'],6,358,[-0.06704215],98,44,hard,plus,dotcolour,beta,,,72,19,M,L,
49,49,7,1,0,36,44,880,['n'],1,right,['1'],6,293,[-0.10071895],99,44,hard,plus,dotcolour,beta,,,72,19,M,L,
50,50,8,1,0,44,36,1348,['n'],0,left,['3'],4,740,[-0.18584526],99,44,hard,plus,dotcolour,beta,,,72,19,M,L,
51,51,9,1,0,33,47,1465,['c'],0,right,['3'],4,613,[-0.03098389],64,47,medium,plus,dotcolour,beta,,,72,19,M,L,
52,52,10,1,0,53,27,1532,['c'],1,left,['3'],4,353,[0.10775019],99,53,easy,plus,dotcolour,beta,,,72,19,M,L,
53,53,11,1,0,27,53,782,['n'],1,right,['1'],6,324,[-0.10590944],99,53,easy,plus,dotcolour,beta,,,72,19,M,L,
54,54,12,1,0,33,47,847,['n'],1,right,['1'],6,214,[-0.11290994],100,47,medium,plus,dotcolour,beta,,,72,19,M,L,
55,55,13,1,0,53,27,1897,['n'],0,left,['3'],4,675,[0.19303476],5,53,easy,plus,dotcolour,beta,,,72,19,M,L,
56,56,14,1,0,33,47,964,['n'],1,right,['1'],6,282,[-0.12949933],100,47,medium,plus,dotcolour,beta,,,72,19,M,L,
57,57,15,1,0,53,27,1232,['c'],1,left,['2'],5,358,[0.14724017],100,53,easy,plus,dotcolour,beta,,,72,19,M,L,
58,58,16,1,0,44,36,849,['n'],0,left,['1'],6,263,[0.02439758],75,44,hard,plus,dotcolour,beta,,,72,19,M,L,
59,59,17,1,0,27,53,666,['n'],1,right,['1'],6,211,[-0.08764848],100,53,easy,plus,dotcolour,beta,,,72,19,M,L,
60,60,18,1,0,47,33,1749,['c'],1,left,['3'],4,518,[0.18593128],100,47,medium,plus,dotcolour,beta,,,72,19,M,L,
61,61,19,1,0,47,33,916,['n'],0,left,['3'],4,1205,[-0.07103971],89,47,medium,plus,dotcolour,beta,,,72,19,M,L,
62,62,20,1,0,47,33,899,['n'],0,left,['3'],4,298,[-0.04334358],96,47,medium,plus,dotcolour,beta,,,72,19,M,L,
63,63,21,1,0,33,47,749,['n'],1,right,['1'],6,497,[-0.12835688],99,47,medium,plus,dotcolour,beta,,,72,19,M,L,
64,64,22,1,0,47,33,1115,['c'],1,left,['3'],4,234,[0.04539602],98,47,medium,plus,dotcolour,beta,,,72,19,M,L,
65,65,23,1,0,27,53,682,['n'],1,right,['1'],6,238,[-0.14917225],100,53,easy,plus,dotcolour,beta,,,72,19,M,L,
66,66,24,1,0,27,53,600,['n'],1,right,['1'],6,262,[-0.05381999],98,53,easy,plus,dotcolour,beta,,,72,19,M,L,
67,67,25,1,0,36,44,983,['n'],1,right,['3'],4,390,[-0.03323537],93,44,hard,plus,dotcolour,beta,,,72,19,M,L,
68,68,26,1,0,53,27,848,['c'],1,left,['1'],6,237,[0.12407365],100,53,easy,plus,dotcolour,beta,,,72,19,M,L,
69,69,27,1,0,53,27,1897,['n'],0,left,['3'],4,449,[-0.03897891],93,53,easy,plus,dotcolour,beta,,,72,19,M,L,
70,70,28,1,0,47,33,1847,['c'],1,left,['3'],4,166,[0.07164267],100,47,medium,plus,dotcolour,beta,,,72,19,M,L,
71,71,29,1,0,36,44,848,['n'],1,right,['1'],6,263,[-0.01602014],92,44,hard,plus,dotcolour,beta,,,72,19,M,L,
72,72,30,1,0,47,33,1215,['c'],1,left,['3'],4,677,[0.13082711],98,47,medium,plus,dotcolour,beta,,,72,19,M,L,
73,73,31,1,0,33,47,799,['n'],1,right,['1'],6,267,[-0.02041964],93,47,medium,plus,dotcolour,beta,,,72,19,M,L,
74,74,32,1,0,44,36,1864,['c'],1,left,['3'],4,432,[0.14088022],100,44,hard,plus,dotcolour,beta,,,72,19,M,L,
75,75,33,1,0,36,44,633,['n'],1,right,['3'],4,550,[-0.06868627],95,44,hard,plus,dotcolour,beta,,,72,19,M,L,
76,76,34,1,0,36,44,666,['n'],1,right,['1'],6,294,[0.05223736],53,44,hard,plus,dotcolour,beta,,,72,19,M,L,
77,77,35,1,0,27,53,765,['n'],1,right,['1'],6,485,[-0.11461348],99,53,easy,plus,dotcolour,beta,,,72,19,M,L,
78,78,36,1,0,33,47,683,['n'],1,right,['1'],6,246,[-0.14288932],100,47,medium,plus,dotcolour,beta,,,72,19,M,L,
79,79,37,1,0,36,44,899,['n'],1,right,['1'],6,282,[-0.0316926],95,44,hard,plus,dotcolour,beta,,,72,19,M,L,
80,80,38,1,0,44,36,982,['c'],1,left,['2'],5,192,[0.11692176],100,44,hard,plus,dotcolour,beta,,,72,19,M,L,
81,81,39,1,0,53,27,899,['c'],1,left,['1'],6,334,[0.15981664],100,53,easy,plus,dotcolour,beta,,,72,19,M,L,
82,82,40,1,0,47,33,1582,['c'],1,left,['3'],4,258,[0.07107342],99,47,medium,plus,dotcolour,beta,,,72,19,M,L,
83,83,41,1,0,53,27,1200,['c'],1,left,['3'],4,194,[0.03528807],98,53,easy,plus,dotcolour,beta,,,72,19,M,L,
84,84,0,2,0,36,44,1100,['n'],1,right,['1'],6,645,[-0.15516131],99,44,hard,plus,dotcolour,beta,,,72,19,M,L,
85,85,1,2,0,53,27,831,['c'],1,left,['1'],6,227,[0.05680125],99,53,easy,plus,dotcolour,beta,,,72,19,M,L,
86,86,2,2,0,27,53,633,['n'],1,right,['1'],6,194,[-0.13742467],100,53,easy,plus,dotcolour,beta,,,72,19,M,L,
87,87,3,2,0,47,33,1666,['c'],1,left,['1'],6,264,[0.07423924],99,47,medium,plus,dotcolour,beta,,,72,19,M,L,
88,88,4,2,0,33,47,899,['n'],1,right,['1'],6,275,[-0.071637],99,47,medium,plus,dotcolour,beta,,,72,19,M,L,
89,89,5,2,0,27,53,717,['n'],1,right,['1'],6,213,[-0.11622296],100,53,easy,plus,dotcolour,beta,,,72,19,M,L,
90,90,6,2,0,44,36,1215,['c'],1,left,['1'],6,301,[0.1071807],100,44,hard,plus,dotcolour,beta,,,72,19,M,L,
91,91,7,2,0,53,27,1265,['c'],1,left,['1'],6,247,[0.17094444],100,53,easy,plus,dotcolour,beta,,,72,19,M,L,
92,92,8,2,0,53,27,1814,['c'],1,left,['3'],4,214,[0.09986581],100,53,easy,plus,dotcolour,beta,,,72,19,M,L,
93,93,9,2,0,27,53,916,['n'],1,right,['1'],6,266,[-0.06439659],99,53,easy,plus,dotcolour,beta,,,72,19,M,L,
94,94,10,2,0,27,53,898,['c'],0,right,['0'],1,1332,[-0.03230499],59,53,easy,plus,dotcolour,beta,,,72,19,M,L,
95,95,11,2,0,33,47,833,['n'],1,right,['2'],5,438,[-0.17422593],100,47,medium,plus,dotcolour,beta,,,72,19,M,L,
96,96,12,2,0,44,36,898,['n'],0,left,['2'],5,282,[-0.07521988],99,44,hard,plus,dotcolour,beta,,,72,19,M,L,
97,97,13,2,0,44,36,1033,['n'],0,left,['2'],5,230,[0.01669612],81,44,hard,plus,dotcolour,beta,,,72,19,M,L,
98,98,14,2,0,53,27,950,['c'],1,left,['1'],6,264,[0.10755729],100,53,easy,plus,dotcolour,beta,,,72,19,M,L,
99,99,15,2,0,33,47,999,['n'],1,right,['1'],6,311,[-0.08582209],99,47,medium,plus,dotcolour,beta,,,72,19,M,L,
100,100,16,2,0,53,27,798,['c'],1,left,['2'],5,292,[0.02432084],93,53,easy,plus,dotcolour,beta,,,72,19,M,L,
101,101,17,2,0,36,44,782,['n'],1,right,['2'],5,330,[-0.18374794],100,44,hard,plus,dotcolour,beta,,,72,19,M,L,
102,102,18,2,0,47,33,1180,['c'],1,left,['1'],6,150,[0.03742621],99,47,medium,plus,dotcolour,beta,,,72,19,M,L,
103,103,19,2,0,44,36,1265,['c'],1,left,['2'],5,183,[0.04281121],98,44,hard,plus,dotcolour,beta,,,72,19,M,L,
104,104,20,2,0,33,47,766,['n'],1,right,['1'],6,178,[-0.13410255],100,47,medium,plus,dotcolour,beta,,,72,19,M,L,
105,105,21,2,0,44,36,900,['c'],1,left,['2'],5,272,[0.13442962],100,44,hard,plus,dotcolour,beta,,,72,19,M,L,
106,106,22,2,0,33,47,832,['n'],1,right,['2'],5,301,[-0.08228823],99,47,medium,plus,dotcolour,beta,,,72,19,M,L,
107,107,23,2,0,27,53,648,['n'],1,right,['1'],6,320,[-0.15241887],100,53,easy,plus,dotcolour,beta,,,72,19,M,L,
108,108,24,2,0,53,27,782,['c'],1,left,['1'],6,164,[0.16280376],100,53,easy,plus,dotcolour,beta,,,72,19,M,L,
109,109,25,2,0,44,36,965,['n'],0,left,['2'],5,376,[-0.0298491],92,44,hard,plus,dotcolour,beta,,,72,19,M,L,
110,110,26,2,0,44,36,1831,['n'],0,left,['2'],5,249,[-0.03802924],97,44,hard,plus,dotcolour,beta,,,72,19,M,L,
111,111,27,2,0,33,47,747,['n'],1,right,['2'],5,218,[-0.10844042],100,47,medium,plus,dotcolour,beta,,,72,19,M,L,
112,112,28,2,0,36,44,915,['n'],1,right,['2'],5,246,[-0.12698307],100,44,hard,plus,dotcolour,beta,,,72,19,M,L,
113,113,29,2,0,27,53,716,['n'],1,right,['1'],6,249,[-0.15302485],100,53,easy,plus,dotcolour,beta,,,72,19,M,L,
114,114,30,2,0,27,53,649,['n'],1,right,['1'],6,270,[-0.0491291],97,53,easy,plus,dotcolour,beta,,,72,19,M,L,
115,115,31,2,0,47,33,1832,['n'],0,left,['0'],1,340,[-0.04766685],96,47,medium,plus,dotcolour,beta,,,72,19,M,L,
116,116,32,2,0,36,44,948,['n'],1,right,['2'],5,257,[-0.12980258],100,44,hard,plus,dotcolour,beta,,,72,19,M,L,
117,117,33,2,0,47,33,1682,['n'],0,left,['2'],5,220,[-0.08595767],100,47,medium,plus,dotcolour,beta,,,72,19,M,L,
118,118,34,2,0,36,44,1150,['n'],1,right,['2'],5,190,[-0.05360863],99,44,hard,plus,dotcolour,beta,,,72,19,M,L,
119,119,35,2,0,36,44,1315,['c'],0,right,['0'],1,899,[-0.0434472],56,44,hard,plus,dotcolour,beta,,,72,19,M,L,
120,120,36,2,0,47,33,1283,['n'],0,left,['2'],5,285,[-0.04574335],97,47,medium,plus,dotcolour,beta,,,72,19,M,L,
121,121,37,2,0,33,47,633,['n'],1,right,['2'],5,218,[-0.10647391],100,47,medium,plus,dotcolour,beta,,,72,19,M,L,
122,122,38,2,0,53,27,998,['n'],0,left,['2'],5,194,[-0.0031763],92,53,easy,plus,dotcolour,beta,,,72,19,M,L,
123,123,39,2,0,47,33,1415,['c'],1,left,['2'],5,243,[0.09987402],100,47,medium,plus,dotcolour,beta,,,72,19,M,L,
124,124,40,2,0,47,33,1033,['n'],0,left,['2'],5,249,[-0.02170045],94,47,medium,plus,dotcolour,beta,,,72,19,M,L,
125,125,41,2,0,36,44,831,['n'],1,right,['1'],6,159,[-0.07087165],100,44,hard,plus,dotcolour,beta,,,72,19,M,L,
126,0,0,3,1,47,33,2016,['n'],0,left,['2'],5,180,[-0.07363009],68,47,medium,minus,dotcolour,beta,,,72,19,M,L,
127,1,1,3,1,27,53,882,['n'],1,right,['1'],6,203,[-0.05838058],53,53,easy,minus,dotcolour,beta,,,72,19,M,L,
128,2,2,3,1,44,36,1132,['c'],1,left,['2'],5,182,[0.04321387],37,44,hard,minus,dotcolour,beta,,,72,19,M,L,
129,3,3,3,1,47,33,1948,['c'],1,left,['2'],5,242,[0.05614287],51,47,medium,minus,dotcolour,beta,,,72,19,M,L,
130,4,4,3,1,27,53,665,['n'],1,right,['1'],6,263,[-0.0254098],26,53,easy,minus,dotcolour,beta,,,72,19,M,L,
131,5,5,3,1,33,47,899,['n'],1,right,['1'],6,145,[-0.13938999],98,47,medium,minus,dotcolour,beta,,,72,19,M,L,
132,6,6,3,1,36,44,616,['n'],1,right,['1'],6,196,[-0.11704165],92,44,hard,minus,dotcolour,beta,,,72,19,M,L,
133,7,7,3,1,27,53,615,['n'],1,right,['1'],6,141,[-0.15643204],99,53,easy,minus,dotcolour,beta,,,72,19,M,L,
134,8,8,3,1,36,44,663,['n'],1,right,['1'],6,190,[-0.16146666],99,44,hard,minus,dotcolour,beta,,,72,19,M,L,
135,9,9,3,1,33,47,716,['n'],1,right,['1'],6,163,[-0.10872281],91,47,medium,minus,dotcolour,beta,,,72,19,M,L,
136,10,10,3,1,27,53,448,['n'],1,right,['1'],6,260,[-0.10871812],87,53,easy,minus,dotcolour,beta,,,72,19,M,L,
137,11,11,3,1,33,47,548,['n'],1,right,['1'],6,228,[-0.01448006],18,47,medium,minus,dotcolour,beta,,,72,19,M,L,
138,12,12,3,1,47,33,1365,['n'],0,left,['2'],5,374,[-0.05686671],51,47,medium,minus,dotcolour,beta,,,72,19,M,L,
139,13,13,3,1,36,44,1165,['n'],1,right,['2'],5,185,[-0.08132653],75,44,hard,minus,dotcolour,beta,,,72,19,M,L,
140,14,14,3,1,27,53,633,['n'],1,right,['1'],6,194,[-0.04708003],41,53,easy,minus,dotcolour,beta,,,72,19,M,L,
141,15,15,3,1,27,53,533,['n'],1,right,['1'],6,198,[-0.04131619],36,53,easy,minus,dotcolour,beta,,,72,19,M,L,
142,16,16,3,1,53,27,915,['c'],1,left,['1'],6,266,[0.00814941],16,53,easy,minus,dotcolour,beta,,,72,19,M,L,
143,17,17,3,1,53,27,1198,['c'],1,left,['2'],5,521,[0.20494003],98,53,easy,minus,dotcolour,beta,,,72,19,M,L,
144,18,18,3,1,36,44,681,['n'],1,right,['1'],6,210,[-0.08189088],74,44,hard,minus,dotcolour,beta,,,72,19,M,L,
145,19,19,3,1,53,27,1098,['c'],1,left,['2'],5,263,[0.19756902],99,53,easy,minus,dotcolour,beta,,,72,19,M,L,
146,20,20,3,1,44,36,1100,['c'],1,left,['2'],5,218,[0.08435112],75,44,hard,minus,dotcolour,beta,,,72,19,M,L,
147,21,21,3,1,53,27,1566,['c'],1,left,['2'],5,196,[0.13064101],95,53,easy,minus,dotcolour,beta,,,72,19,M,L,
148,22,22,3,1,53,27,1349,['n'],0,left,['2'],5,159,[-0.00451981],9,53,easy,minus,dotcolour,beta,,,72,19,M,L,
149,23,23,3,1,44,36,864,['c'],1,left,['2'],5,183,[0.10962305],91,44,hard,minus,dotcolour,beta,,,72,19,M,L,
150,24,24,3,1,36,44,1099,['n'],1,right,['2'],5,165,[-0.07637423],72,44,hard,minus,dotcolour,beta,,,72,19,M,L,
151,25,25,3,1,33,47,782,['n'],1,right,['2'],5,240,[-0.04090765],37,47,medium,minus,dotcolour,beta,,,72,19,M,L,
152,26,26,3,1,53,27,882,['c'],1,left,['2'],5,197,[0.05616668],51,53,easy,minus,dotcolour,beta,,,72,19,M,L,
153,27,27,3,1,44,36,1015,['n'],0,left,['2'],5,126,[-0.01334865],11,44,hard,minus,dotcolour,beta,,,72,19,M,L,
154,28,28,3,1,33,47,896,['n'],1,right,['2'],5,222,[-0.11987758],92,47,medium,minus,dotcolour,beta,,,72,19,M,L,
155,29,29,3,1,33,47,583,['n'],1,right,['2'],5,190,[-0.10068742],87,47,medium,minus,dotcolour,beta,,,72,19,M,L,
156,30,30,3,1,33,47,582,['n'],1,right,['1'],6,216,[-0.14144739],97,47,medium,minus,dotcolour,beta,,,72,19,M,L,
157,31,31,3,1,53,27,767,['c'],1,left,['1'],6,363,[0.11049676],84,53,easy,minus,dotcolour,beta,,,72,19,M,L,
158,32,32,3,1,44,36,1399,['c'],1,left,['3'],4,661,[0.02252749],32,44,hard,minus,dotcolour,beta,,,72,19,M,L,
159,33,33,3,1,27,53,649,['n'],1,right,['1'],6,210,[-0.0939634],82,53,easy,minus,dotcolour,beta,,,72,19,M,L,
160,34,34,3,1,47,33,816,['c'],1,left,['1'],6,186,[0.11323392],92,47,medium,minus,dotcolour,beta,,,72,19,M,L,
161,35,35,3,1,36,44,682,['n'],1,right,['1'],6,232,[-0.09036031],79,44,hard,minus,dotcolour,beta,,,72,19,M,L,
162,36,36,3,1,36,44,1131,['n'],1,right,['3'],4,339,[-0.1498861],95,44,hard,minus,dotcolour,beta,,,72,19,M,L,
163,37,37,3,1,44,36,1898,['n'],0,left,['2'],5,267,[0.01055317],9,44,hard,minus,dotcolour,beta,,,72,19,M,L,
164,38,38,3,1,44,36,865,['c'],1,left,['1'],6,287,[0.00093434],14,44,hard,minus,dotcolour,beta,,,72,19,M,L,
165,39,39,3,1,47,33,1314,['c'],1,left,['3'],4,280,[0.05039539],46,47,medium,minus,dotcolour,beta,,,72,19,M,L,
166,40,40,3,1,47,33,1865,['c'],1,left,['3'],4,251,[0.14274587],96,47,medium,minus,dotcolour,beta,,,72,19,M,L,
167,41,41,3,1,47,33,1481,['n'],0,left,['3'],4,270,[-0.0606149],54,47,medium,minus,dotcolour,beta,,,72,19,M,L,
168,42,0,4,1,47,33,2000,['n'],0,left,['3'],4,266,[-0.0546777],49,47,medium,minus,dotcolour,beta,,,72,19,M,L,
169,43,1,4,1,27,53,1149,['n'],1,right,['1'],6,274,[-0.11542001],89,53,easy,minus,dotcolour,beta,,,72,19,M,L,
170,44,2,4,1,44,36,1166,['c'],1,left,['3'],4,402,[0.16064731],95,44,hard,minus,dotcolour,beta,,,72,19,M,L,
171,45,3,4,1,53,27,1381,['n'],0,left,['3'],4,299,[0.02273869],7,53,easy,minus,dotcolour,beta,,,72,19,M,L,
172,46,4,4,1,33,47,1082,['n'],1,right,['1'],6,622,[-0.14203778],88,47,medium,minus,dotcolour,beta,,,72,19,M,L,
173,47,5,4,1,53,27,1231,['c'],1,left,['1'],6,220,[0.12228288],93,53,easy,minus,dotcolour,beta,,,72,19,M,L,
174,48,6,4,1,36,44,1031,['n'],1,right,['2'],5,964,[-0.17642047],90,44,hard,minus,dotcolour,beta,,,72,19,M,L,
175,49,7,4,1,47,33,1281,['n'],0,left,['2'],5,218,[-0.11353971],90,47,medium,minus,dotcolour,beta,,,72,19,M,L,
176,50,8,4,1,53,27,798,['c'],1,left,['1'],6,163,[0.11837388],94,53,easy,minus,dotcolour,beta,,,72,19,M,L,
177,51,9,4,1,33,47,1051,['n'],1,right,['1'],6,356,[-0.06766873],59,47,medium,minus,dotcolour,beta,,,72,19,M,L,
178,52,10,4,1,36,44,1117,['n'],1,right,['2'],5,418,[-0.12037502],86,44,hard,minus,dotcolour,beta,,,72,19,M,L,
179,53,11,4,1,27,53,616,['n'],1,right,['1'],6,281,[-0.26254708],100,53,easy,minus,dotcolour,beta,,,72,19,M,L,
180,54,12,4,1,44,36,1100,['c'],1,left,['1'],6,163,[0.06702723],63,44,hard,minus,dotcolour,beta,,,72,19,M,L,
181,55,13,4,1,47,33,1082,['c'],1,left,['2'],5,394,[0.09619072],76,47,medium,minus,dotcolour,beta,,,72,19,M,L,
182,56,14,4,1,47,33,1198,['n'],0,left,['2'],5,180,[-0.03239494],27,47,medium,minus,dotcolour,beta,,,72,19,M,L,
183,57,15,4,1,33,47,1030,['n'],1,right,['1'],6,268,[-0.08159821],71,47,medium,minus,dotcolour,beta,,,72,19,M,L,
184,58,16,4,1,44,36,1415,['c'],1,left,['3'],4,410,[-0.04265405],6,44,hard,minus,dotcolour,beta,,,72,19,M,L,
185,59,17,4,1,47,33,949,['n'],0,left,['3'],4,277,[-0.04978967],45,47,medium,minus,dotcolour,beta,,,72,19,M,L,
186,60,18,4,1,27,53,749,['n'],1,right,['1'],6,237,[-0.07401104],66,53,easy,minus,dotcolour,beta,,,72,19,M,L,
187,61,19,4,1,53,27,999,['c'],1,left,['1'],6,413,[0.2046708],98,53,easy,minus,dotcolour,beta,,,72,19,M,L,
188,62,20,4,1,27,53,966,['n'],1,right,['1'],6,255,[-0.11977577],91,53,easy,minus,dotcolour,beta,,,72,19,M,L,
189,63,21,4,1,33,47,780,['n'],1,right,['1'],6,223,[-0.03840345],34,47,medium,minus,dotcolour,beta,,,72,19,M,L,
190,64,22,4,1,33,47,633,['n'],1,right,['1'],6,190,[-0.03085045],26,47,medium,minus,dotcolour,beta,,,72,19,M,L,
191,65,23,4,1,27,53,565,['n'],1,right,['1'],6,169,[-0.1383808],97,53,easy,minus,dotcolour,beta,,,72,19,M,L,
192,66,24,4,1,47,33,1164,['c'],1,left,['2'],5,364,[-0.04154068],5,47,medium,minus,dotcolour,beta,,,72,19,M,L,
193,67,25,4,1,36,44,683,['n'],1,right,['2'],5,220,[-0.03599137],32,44,hard,minus,dotcolour,beta,,,72,19,M,L,
194,68,26,4,1,36,44,697,['n'],1,right,['1'],6,160,[-0.1219317],95,44,hard,minus,dotcolour,beta,,,72,19,M,L,
195,69,27,4,1,36,44,582,['n'],1,right,['1'],6,155,[-0.07433187],70,44,hard,minus,dotcolour,beta,,,72,19,M,L,
196,70,28,4,1,33,47,898,['n'],1,right,['1'],6,178,[-0.10272335],88,47,medium,minus,dotcolour,beta,,,72,19,M,L,
197,71,29,4,1,36,44,648,['n'],1,right,['1'],6,170,[-0.1006873],88,44,hard,minus,dotcolour,beta,,,72,19,M,L,
198,72,30,4,1,44,36,849,['c'],1,left,['2'],5,218,[0.10524833],87,44,hard,minus,dotcolour,beta,,,72,19,M,L,
199,73,31,4,1,53,27,1016,['c'],1,left,['1'],6,162,[0.13545941],97,53,easy,minus,dotcolour,beta,,,72,19,M,L,
200,74,32,4,1,53,27,2549,['n'],0,left,['2'],5,815,[0.00059257],25,53,easy,minus,dotcolour,beta,,,72,19,M,L,
201,75,33,4,1,44,36,1581,['c'],1,left,['1'],6,551,[0.08884437],69,44,hard,minus,dotcolour,beta,,,72,19,M,L,
202,76,34,4,1,36,44,1366,['n'],1,right,['3'],4,875,[-0.02055512],34,44,hard,minus,dotcolour,beta,,,72,19,M,L,
203,77,35,4,1,44,36,1066,['c'],1,left,['3'],4,214,[0.02881263],26,44,hard,minus,dotcolour,beta,,,72,19,M,L,
204,78,36,4,1,47,33,981,['c'],1,left,['2'],5,304,[0.04842665],44,47,medium,minus,dotcolour,beta,,,72,19,M,L,
205,79,37,4,1,27,53,800,['n'],1,right,['1'],6,301,[-0.19392064],99,53,easy,minus,dotcolour,beta,,,72,19,M,L,
206,80,38,4,1,33,47,716,['n'],1,right,['1'],6,198,[-0.0805275],73,47,medium,minus,dotcolour,beta,,,72,19,M,L,
207,81,39,4,1,53,27,1966,['n'],0,left,['3'],4,657,[0.07311617],5,53,easy,minus,dotcolour,beta,,,72,19,M,L,
208,82,40,4,1,27,53,615,['n'],1,right,['1'],6,206,[-0.04168466],37,53,easy,minus,dotcolour,beta,,,72,19,M,L,
209,83,41,4,1,44,36,1214,['c'],1,left,['2'],5,455,[0.12790666],87,44,hard,minus,dotcolour,beta,,,72,19,M,L,
210,84,0,5,1,27,53,916,['n'],1,right,['1'],6,287,[-0.10610742],85,53,easy,minus,dotcolour,beta,,,72,19,M,L,
211,85,1,5,1,27,53,830,['n'],1,right,['1'],6,155,[-0.06318774],59,53,easy,minus,dotcolour,beta,,,72,19,M,L,
212,86,2,5,1,47,33,932,['c'],1,left,['2'],5,241,[0.04856266],44,47,medium,minus,dotcolour,beta,,,72,19,M,L,
213,87,3,5,1,33,47,630,['n'],1,right,['1'],6,191,[-0.07183415],66,47,medium,minus,dotcolour,beta,,,72,19,M,L,
214,88,4,5,1,47,33,1015,['c'],1,left,['2'],5,264,[0.11101657],87,47,medium,minus,dotcolour,beta,,,72,19,M,L,
215,89,5,5,1,44,36,648,['n'],0,left,['1'],6,156,[-0.06596178],62,44,hard,minus,dotcolour,beta,,,72,19,M,L,
216,90,6,5,1,53,27,948,['c'],1,left,['1'],6,226,[0.13245891],95,53,easy,minus,dotcolour,beta,,,72,19,M,L,
217,91,7,5,1,47,33,1233,['c'],1,left,['1'],6,168,[0.06529365],61,47,medium,minus,dotcolour,beta,,,72,19,M,L,
218,92,8,5,1,47,33,965,['c'],1,left,['2'],5,156,[0.08085648],76,47,medium,minus,dotcolour,beta,,,72,19,M,L,
219,93,9,5,1,33,47,647,['n'],1,right,['1'],6,189,[-0.16336041],99,47,medium,minus,dotcolour,beta,,,72,19,M,L,
220,94,10,5,1,36,44,849,['n'],1,right,['3'],4,548,[-0.12302563],84,44,hard,minus,dotcolour,beta,,,72,19,M,L,
221,95,11,5,1,47,33,865,['c'],1,left,['3'],4,373,[0.11923488],87,47,medium,minus,dotcolour,beta,,,72,19,M,L,
222,96,12,5,1,36,44,1766,['n'],1,right,['2'],5,528,[-0.18280427],96,44,hard,minus,dotcolour,beta,,,72,19,M,L,
223,97,13,5,1,53,27,834,['c'],1,left,['1'],6,219,[0.06978406],63,53,easy,minus,dotcolour,beta,,,72,19,M,L,
224,98,14,5,1,33,47,1249,['n'],1,right,['1'],6,186,[-0.07975346],73,47,medium,minus,dotcolour,beta,,,72,19,M,L,
225,99,15,5,1,53,27,931,['c'],1,left,['1'],6,326,[0.05377152],49,53,easy,minus,dotcolour,beta,,,72,19,M,L,
226,100,16,5,1,36,44,947,['n'],1,right,['1'],6,220,[-0.11481013],91,44,hard,minus,dotcolour,beta,,,72,19,M,L,
227,101,17,5,1,33,47,898,['n'],1,right,['1'],6,177,[-0.07127986],66,47,medium,minus,dotcolour,beta,,,72,19,M,L,
228,102,18,5,1,36,44,1383,['c'],0,right,['2'],5,1267,[0.02289345],37,44,hard,minus,dotcolour,beta,,,72,19,M,L,
229,103,19,5,1,53,27,816,['c'],1,left,['2'],5,265,[0.12492334],92,53,easy,minus,dotcolour,beta,,,72,19,M,L,
230,104,20,5,1,33,47,1031,['n'],1,right,['1'],6,286,[-0.06370896],57,47,medium,minus,dotcolour,beta,,,72,19,M,L,
231,105,21,5,1,27,53,583,['n'],1,right,['1'],6,141,[-0.04021796],32,53,easy,minus,dotcolour,beta,,,72,19,M,L,
232,106,22,5,1,44,36,949,['c'],1,left,['2'],5,210,[0.0796437],72,44,hard,minus,dotcolour,beta,,,72,19,M,L,
233,107,23,5,1,53,27,732,['c'],1,left,['2'],5,126,[0.03496569],26,53,easy,minus,dotcolour,beta,,,72,19,M,L,
234,108,24,5,1,33,47,832,['n'],1,right,['1'],6,144,[-0.03302123],26,47,medium,minus,dotcolour,beta,,,72,19,M,L,
235,109,25,5,1,27,53,633,['n'],1,right,['1'],6,154,[-0.15089748],99,53,easy,minus,dotcolour,beta,,,72,19,M,L,
236,110,26,5,1,27,53,632,['n'],1,right,['1'],6,163,[-0.09620355],86,53,easy,minus,dotcolour,beta,,,72,19,M,L,
237,111,27,5,1,44,36,1714,['n'],0,left,['3'],4,714,[-0.16751083],92,44,hard,minus,dotcolour,beta,,,72,19,M,L,
238,112,28,5,1,47,33,2397,['c'],1,left,['2'],5,870,[0.21731906],96,47,medium,minus,dotcolour,beta,,,72,19,M,L,
239,113,29,5,1,47,33,1666,['c'],1,left,['2'],5,722,[0.28886196],99,47,medium,minus,dotcolour,beta,,,72,19,M,L,
240,114,30,5,1,36,44,1683,['n'],1,right,['2'],5,195,[-0.0128413],15,44,hard,minus,dotcolour,beta,,,72,19,M,L,
241,115,31,5,1,44,36,1215,['c'],1,left,['2'],5,243,[0.04379415],39,44,hard,minus,dotcolour,beta,,,72,19,M,L,
242,116,32,5,1,44,36,2083,['c'],1,left,['2'],5,175,[0.13684268],97,44,hard,minus,dotcolour,beta,,,72,19,M,L,
243,117,33,5,1,44,36,1180,['c'],1,left,['2'],5,258,[0.09353722],79,44,hard,minus,dotcolour,beta,,,72,19,M,L,
244,118,34,5,1,36,44,1300,['n'],1,right,['2'],5,365,[-0.17286131],97,44,hard,minus,dotcolour,beta,,,72,19,M,L,
245,119,35,5,1,27,53,648,['n'],1,right,['1'],6,221,[-0.17110633],99,53,easy,minus,dotcolour,beta,,,72,19,M,L,
246,120,36,5,1,27,53,584,['n'],1,right,['1'],6,158,[-0.11994862],95,53,easy,minus,dotcolour,beta,,,72,19,M,L,
247,121,37,5,1,44,36,1233,['c'],1,left,['2'],5,183,[0.02883055],25,44,hard,minus,dotcolour,beta,,,72,19,M,L,
248,122,38,5,1,53,27,1315,['c'],1,left,['3'],4,349,[0.1050336],82,53,easy,minus,dotcolour,beta,,,72,19,M,L,
249,123,39,5,1,36,44,1132,['n'],1,right,['3'],4,1083,[-0.06739439],55,44,hard,minus,dotcolour,beta,,,72,19,M,L,
250,124,40,5,1,53,27,1283,['c'],1,left,['2'],5,445,[0.10515456],79,53,easy,minus,dotcolour,beta,,,72,19,M,L,
251,125,41,5,1,33,47,1114,['n'],1,right,['2'],5,440,[-0.07800731],65,47,medium,minus,dotcolour,beta,,,72,19,M,L,
252,0,0,6,2,44,36,1500,['n'],0,left,['3'],4,424,[-0.18365665],100,44,hard,plus,dotcolour,beta,,,72,19,M,L,
253,1,1,6,2,36,44,615,['n'],1,right,['1'],6,335,[-0.07191693],98,44,hard,plus,dotcolour,beta,,,72,19,M,L,
254,2,2,6,2,36,44,617,['n'],1,right,['1'],6,171,[-0.16409393],100,44,hard,plus,dotcolour,beta,,,72,19,M,L,
255,3,3,6,2,47,33,750,['c'],1,left,['2'],5,256,[0.05918916],98,47,medium,plus,dotcolour,beta,,,72,19,M,L,
256,4,4,6,2,36,44,1017,['c'],0,right,['2'],5,222,[0.01088375],93,44,hard,plus,dotcolour,beta,,,72,19,M,L,
257,5,5,6,2,27,53,700,['n'],1,right,['1'],6,210,[-0.05926093],99,53,easy,plus,dotcolour,beta,,,72,19,M,L,
258,6,6,6,2,47,33,1915,['c'],1,left,['2'],5,494,[0.03595833],91,47,medium,plus,dotcolour,beta,,,72,19,M,L,
259,7,7,6,2,27,53,830,['n'],1,right,['1'],6,226,[-0.1201411],100,53,easy,plus,dotcolour,beta,,,72,19,M,L,
260,8,8,6,2,33,47,2197,['c'],0,right,['2'],5,314,[0.01368949],90,47,medium,plus,dotcolour,beta,,,72,19,M,L,
261,9,9,6,2,44,36,1614,['c'],1,left,['2'],5,198,[0.11237421],100,44,hard,plus,dotcolour,beta,,,72,19,M,L,
262,10,10,6,2,44,36,1016,['c'],1,left,['2'],5,135,[0.09338231],100,44,hard,plus,dotcolour,beta,,,72,19,M,L,
263,11,11,6,2,53,27,1565,['c'],1,left,['2'],5,204,[0.0354803],97,53,easy,plus,dotcolour,beta,,,72,19,M,L,
264,12,12,6,2,47,33,1184,['c'],1,left,['2'],5,542,[0.08464723],97,47,medium,plus,dotcolour,beta,,,72,19,M,L,
265,13,13,6,2,33,47,716,['n'],1,right,['1'],6,204,[-0.0534718],99,47,medium,plus,dotcolour,beta,,,72,19,M,L,
266,14,14,6,2,47,33,899,['c'],1,left,['1'],6,193,[0.04987488],99,47,medium,plus,dotcolour,beta,,,72,19,M,L,
267,15,15,6,2,27,53,715,['n'],1,right,['1'],6,166,[-0.09755716],100,53,easy,plus,dotcolour,beta,,,72,19,M,L,
268,16,16,6,2,27,53,648,['n'],1,right,['1'],6,199,[-0.10252058],100,53,easy,plus,dotcolour,beta,,,72,19,M,L,
269,17,17,6,2,27,53,515,['n'],1,right,['1'],6,138,[-0.03517063],99,53,easy,plus,dotcolour,beta,,,72,19,M,L,
270,18,18,6,2,36,44,748,['n'],1,right,['2'],5,217,[-0.07801088],99,44,hard,plus,dotcolour,beta,,,72,19,M,L,
271,19,19,6,2,53,27,715,['c'],1,left,['2'],5,220,[0.17541238],100,53,easy,plus,dotcolour,beta,,,72,19,M,L,
272,20,20,6,2,36,44,982,['n'],1,right,['2'],5,206,[-0.07507338],99,44,hard,plus,dotcolour,beta,,,72,19,M,L,
273,21,21,6,2,33,47,582,['n'],1,right,['1'],6,191,[-0.10935296],100,47,medium,plus,dotcolour,beta,,,72,19,M,L,
274,22,22,6,2,27,53,480,['n'],1,right,['1'],6,205,[-0.1302184],100,53,easy,plus,dotcolour,beta,,,72,19,M,L,
275,23,23,6,2,53,27,749,['c'],1,left,['2'],5,160,[0.13754483],100,53,easy,plus,dotcolour,beta,,,72,19,M,L,
276,24,24,6,2,33,47,665,['n'],1,right,['1'],6,159,[-0.13775958],100,47,medium,plus,dotcolour,beta,,,72,19,M,L,
277,25,25,6,2,33,47,581,['n'],1,right,['1'],6,179,[-0.10102],100,47,medium,plus,dotcolour,beta,,,72,19,M,L,
278,26,26,6,2,53,27,649,['c'],1,left,['1'],6,163,[0.10215412],100,53,easy,plus,dotcolour,beta,,,72,19,M,L,
279,27,27,6,2,44,36,1148,['n'],0,left,['1'],6,152,[-0.09405961],100,44,hard,plus,dotcolour,beta,,,72,19,M,L,
280,28,28,6,2,53,27,933,['c'],1,left,['2'],5,125,[0.18498671],100,53,easy,plus,dotcolour,beta,,,72,19,M,L,
281,29,29,6,2,44,36,1081,['c'],1,left,['2'],5,118,[0.15983384],100,44,hard,plus,dotcolour,beta,,,72,19,M,L,
282,30,30,6,2,27,53,566,['n'],1,right,['1'],6,124,[-0.06940761],100,53,easy,plus,dotcolour,beta,,,72,19,M,L,
283,31,31,6,2,53,27,615,['c'],1,left,['1'],6,176,[0.12485636],100,53,easy,plus,dotcolour,beta,,,72,19,M,L,
284,32,32,6,2,44,36,1183,['c'],1,left,['1'],6,138,[0.08679306],100,44,hard,plus,dotcolour,beta,,,72,19,M,L,
285,33,33,6,2,44,36,999,['c'],1,left,['2'],5,167,[0.11537983],100,44,hard,plus,dotcolour,beta,,,72,19,M,L,
286,34,34,6,2,47,33,1167,['c'],1,left,['2'],5,97,[0.04446918],100,47,medium,plus,dotcolour,beta,,,72,19,M,L,
287,35,35,6,2,47,33,1299,['c'],1,left,['2'],5,82,[0.09472914],100,47,medium,plus,dotcolour,beta,,,72,19,M,L,
288,36,36,6,2,36,44,817,['n'],1,right,['1'],6,200,[-0.07483415],99,44,hard,plus,dotcolour,beta,,,72,19,M,L,
289,37,37,6,2,36,44,1430,['n'],1,right,['2'],5,256,[-0.07543993],99,44,hard,plus,dotcolour,beta,,,72,19,M,L,
290,38,38,6,2,33,47,933,['n'],1,right,['3'],4,298,[-0.12896322],100,47,medium,plus,dotcolour,beta,,,72,19,M,L,
291,39,39,6,2,47,33,951,['c'],1,left,['2'],5,137,[0.10881421],100,47,medium,plus,dotcolour,beta,,,72,19,M,L,
292,40,40,6,2,53,27,748,['c'],1,left,['1'],6,295,[0.05007924],97,53,easy,plus,dotcolour,beta,,,72,19,M,L,
293,41,41,6,2,33,47,948,['n'],1,right,['2'],5,254,[-0.15592332],100,47,medium,plus,dotcolour,beta,,,72,19,M,L,
294,42,0,7,2,53,27,850,['c'],1,left,['1'],6,180,[0.08047517],100,53,easy,plus,dotcolour,beta,,,72,19,M,L,
295,43,1,7,2,36,44,1049,['n'],1,right,['2'],5,164,[-0.09514502],100,44,hard,plus,dotcolour,beta,,,72,19,M,L,
296,44,2,7,2,33,47,565,['n'],1,right,['1'],6,112,[-0.06631904],100,47,medium,plus,dotcolour,beta,,,72,19,M,L,
297,45,3,7,2,53,27,749,['c'],1,left,['1'],6,79,[0.0602797],100,53,easy,plus,dotcolour,beta,,,72,19,M,L,
298,46,4,7,2,47,33,748,['n'],0,left,['1'],6,127,[-0.0649111],100,47,medium,plus,dotcolour,beta,,,72,19,M,L,
299,47,5,7,2,44,36,1648,['c'],1,left,['1'],6,129,[0.07951315],100,44,hard,plus,dotcolour,beta,,,72,19,M,L,
300,48,6,7,2,47,33,1299,['c'],1,left,['1'],6,129,[0.12335431],100,47,medium,plus,dotcolour,beta,,,72,19,M,L,
301,49,7,7,2,44,36,1048,['n'],0,left,['2'],5,195,[-0.07964835],100,44,hard,plus,dotcolour,beta,,,72,19,M,L,
302,50,8,7,2,27,53,549,['n'],1,right,['1'],6,238,[-0.1568342],100,53,easy,plus,dotcolour,beta,,,72,19,M,L,
303,51,9,7,2,44,36,1398,['n'],0,left,['3'],4,294,[-0.09688106],99,44,hard,plus,dotcolour,beta,,,72,19,M,L,
304,52,10,7,2,36,44,766,['n'],1,right,['1'],6,125,[-0.06179608],100,44,hard,plus,dotcolour,beta,,,72,19,M,L,
305,53,11,7,2,47,33,1683,['n'],0,left,['3'],4,454,[-0.06073207],96,47,medium,plus,dotcolour,beta,,,72,19,M,L,
306,54,12,7,2,53,27,1998,['c'],1,left,['3'],4,300,[0.19636747],100,53,easy,plus,dotcolour,beta,,,72,19,M,L,
307,55,13,7,2,44,36,834,['n'],0,left,['3'],4,240,[-0.02526663],95,44,hard,plus,dotcolour,beta,,,72,19,M,L,
308,56,14,7,2,44,36,1131,['c'],1,left,['1'],6,138,[0.03732291],99,44,hard,plus,dotcolour,beta,,,72,19,M,L,
309,57,15,7,2,33,47,582,['n'],1,right,['1'],6,158,[-0.09671486],100,47,medium,plus,dotcolour,beta,,,72,19,M,L,
310,58,16,7,2,47,33,1116,['c'],1,left,['3'],4,220,[0.18319065],100,47,medium,plus,dotcolour,beta,,,72,19,M,L,
311,59,17,7,2,27,53,634,['n'],1,right,['1'],6,212,[-0.04971072],98,53,easy,plus,dotcolour,beta,,,72,19,M,L,
312,60,18,7,2,33,47,867,['n'],1,right,['3'],4,210,[-0.02485247],96,47,medium,plus,dotcolour,beta,,,72,19,M,L,
313,61,19,7,2,33,47,701,['n'],1,right,['3'],4,606,[-0.1401714],99,47,medium,plus,dotcolour,beta,,,72,19,M,L,
314,62,20,7,2,33,47,767,['n'],1,right,['2'],5,112,[-0.1115902],100,47,medium,plus,dotcolour,beta,,,72,19,M,L,
315,63,21,7,2,53,27,666,['c'],1,left,['1'],6,154,[0.12587919],100,53,easy,plus,dotcolour,beta,,,72,19,M,L,
316,64,22,7,2,36,44,798,['n'],1,right,['1'],6,558,[-0.04767991],92,44,hard,plus,dotcolour,beta,,,72,19,M,L,
317,65,23,7,2,36,44,682,['n'],1,right,['2'],5,205,[-0.08706876],100,44,hard,plus,dotcolour,beta,,,72,19,M,L,
318,66,24,7,2,47,33,1149,['n'],0,left,['2'],5,160,[-0.03823498],99,47,medium,plus,dotcolour,beta,,,72,19,M,L,
319,67,25,7,2,33,47,598,['n'],1,right,['1'],6,179,[-0.08715958],100,47,medium,plus,dotcolour,beta,,,72,19,M,L,
320,68,26,7,2,44,36,765,['n'],0,left,['2'],5,342,[-0.06513857],98,44,hard,plus,dotcolour,beta,,,72,19,M,L,
321,69,27,7,2,47,33,815,['c'],1,left,['2'],5,169,[0.11768114],100,47,medium,plus,dotcolour,beta,,,72,19,M,L,
322,70,28,7,2,53,27,1047,['c'],1,left,['2'],5,130,[0.07334932],100,53,easy,plus,dotcolour,beta,,,72,19,M,L,
323,71,29,7,2,53,27,1149,['c'],1,left,['2'],5,96,[0.06982275],100,53,easy,plus,dotcolour,beta,,,72,19,M,L,
324,72,30,7,2,33,47,597,['n'],1,right,['1'],6,149,[-0.07133316],100,47,medium,plus,dotcolour,beta,,,72,19,M,L,
325,73,31,7,2,47,33,900,['c'],1,left,['1'],6,109,[0.13218085],100,47,medium,plus,dotcolour,beta,,,72,19,M,L,
326,74,32,7,2,27,53,582,['n'],1,right,['1'],6,121,[-0.05926462],100,53,easy,plus,dotcolour,beta,,,72,19,M,L,
327,75,33,7,2,36,44,882,['n'],1,right,['1'],6,75,[-0.14428592],100,44,hard,plus,dotcolour,beta,,,72,19,M,L,
328,76,34,7,2,27,53,1082,['n'],1,right,['1'],6,134,[-0.05156166],99,53,easy,plus,dotcolour,beta,,,72,19,M,L,
329,77,35,7,2,36,44,865,['n'],1,right,['1'],6,95,[-0.07888586],100,44,hard,plus,dotcolour,beta,,,72,19,M,L,
330,78,36,7,2,27,53,513,['n'],1,right,['1'],6,303,[-0.17745584],100,53,easy,plus,dotcolour,beta,,,72,19,M,L,
331,79,37,7,2,27,53,514,['n'],1,right,['1'],6,64,[-0.08905428],100,53,easy,plus,dotcolour,beta,,,72,19,M,L,
332,80,38,7,2,36,44,617,['n'],1,right,['1'],6,22,[-0.06916685],100,44,hard,plus,dotcolour,beta,,,72,19,M,L,
333,81,39,7,2,53,27,682,['c'],1,left,['1'],6,75,[0.05979155],100,53,easy,plus,dotcolour,beta,,,72,19,M,L,
334,82,40,7,2,27,53,548,['n'],1,right,['1'],6,99,[-0.07090725],100,53,easy,plus,dotcolour,beta,,,72,19,M,L,
335,83,41,7,2,44,36,799,['c'],1,left,['1'],6,81,[0.07221446],100,44,hard,plus,dotcolour,beta,,,72,19,M,L,
336,84,0,8,2,36,44,617,['n'],1,right,['1'],6,137,[-0.07600437],100,44,hard,plus,dotcolour,beta,,,72,19,M,L,
337,85,1,8,2,36,44,499,['n'],1,right,['1'],6,105,[-0.10893101],100,44,hard,plus,dotcolour,beta,,,72,19,M,L,
338,86,2,8,2,47,33,649,['c'],1,left,['1'],6,100,[0.08411595],100,47,medium,plus,dotcolour,beta,,,72,19,M,L,
339,87,3,8,2,53,27,700,['c'],1,left,['1'],6,101,[0.15343244],100,53,easy,plus,dotcolour,beta,,,72,19,M,L,
340,88,4,8,2,36,44,599,['n'],1,right,['1'],6,67,[-0.0983735],100,44,hard,plus,dotcolour,beta,,,72,19,M,L,
341,89,5,8,2,44,36,532,['n'],0,left,['1'],6,68,[-0.12061168],100,44,hard,plus,dotcolour,beta,,,72,19,M,L,
342,90,6,8,2,47,33,1265,['c'],1,left,['2'],5,56,[0.09210252],100,47,medium,plus,dotcolour,beta,,,72,19,M,L,
343,91,7,8,2,53,27,980,['c'],1,left,['2'],5,167,[0.07255094],100,53,easy,plus,dotcolour,beta,,,72,19,M,L,
344,92,8,8,2,33,47,1332,['c'],0,right,['2'],5,28,[0.03920915],100,47,medium,plus,dotcolour,beta,,,72,19,M,L,
345,93,9,8,2,53,27,1046,['c'],1,left,['2'],5,43,[0.09460443],100,53,easy,plus,dotcolour,beta,,,72,19,M,L,
346,94,10,8,2,36,44,1082,['n'],1,right,['1'],6,54,[-0.04579538],100,44,hard,plus,dotcolour,beta,,,72,19,M,L,
347,95,11,8,2,44,36,2248,['n'],0,left,['3'],4,260,[-0.0706583],99,44,hard,plus,dotcolour,beta,,,72,19,M,L,
348,96,12,8,2,47,33,1481,['n'],0,left,['3'],4,183,[0.04615866],60,47,medium,plus,dotcolour,beta,,,72,19,M,L,
349,97,13,8,2,47,33,948,['c'],1,left,['3'],4,419,[0.02402037],90,47,medium,plus,dotcolour,beta,,,72,19,M,L,
350,98,14,8,2,53,27,865,['c'],1,left,['3'],4,96,[0.07228347],100,53,easy,plus,dotcolour,beta,,,72,19,M,L,
351,99,15,8,2,53,27,883,['c'],1,left,['3'],4,154,[0.05803517],99,53,easy,plus,dotcolour,beta,,,72,19,M,L,
352,100,16,8,2,47,33,2365,['n'],0,left,['3'],4,110,[-0.11630748],100,47,medium,plus,dotcolour,beta,,,72,19,M,L,
353,101,17,8,2,33,47,948,['n'],1,right,['1'],6,109,[-0.12391554],100,47,medium,plus,dotcolour,beta,,,72,19,M,L,
354,102,18,8,2,36,44,665,['n'],1,right,['1'],6,215,[-0.14184772],100,44,hard,plus,dotcolour,beta,,,72,19,M,L,
355,103,19,8,2,53,27,998,['c'],1,left,['3'],4,200,[0.12100831],100,53,easy,plus,dotcolour,beta,,,72,19,M,L,
356,104,20,8,2,36,44,1266,['n'],1,right,['3'],4,166,[0.01204595],87,44,hard,plus,dotcolour,beta,,,72,19,M,L,
357,105,21,8,2,33,47,1047,['n'],1,right,['1'],6,223,[-0.09487385],100,47,medium,plus,dotcolour,beta,,,72,19,M,L,
358,106,22,8,2,27,53,599,['n'],1,right,['1'],6,119,[-0.12468383],100,53,easy,plus,dotcolour,beta,,,72,19,M,L,
359,107,23,8,2,27,53,549,['n'],1,right,['1'],6,53,[-0.06641342],100,53,easy,plus,dotcolour,beta,,,72,19,M,L,
360,108,24,8,2,53,27,698,['c'],1,left,['3'],4,145,[0.1224024],100,53,easy,plus,dotcolour,beta,,,72,19,M,L,
361,109,25,8,2,44,36,766,['n'],0,left,['3'],4,301,[0.00611113],84,44,hard,plus,dotcolour,beta,,,72,19,M,L,
362,110,26,8,2,36,44,798,['n'],1,right,['3'],4,163,[-0.10213216],100,44,hard,plus,dotcolour,beta,,,72,19,M,L,
363,111,27,8,2,33,47,450,['n'],1,right,['3'],4,163,[-0.04608104],99,47,medium,plus,dotcolour,beta,,,72,19,M,L,
364,112,28,8,2,44,36,1399,['n'],0,left,['2'],5,447,[-0.15701707],100,44,hard,plus,dotcolour,beta,,,72,19,M,L,
365,113,29,8,2,27,53,782,['n'],1,right,['1'],6,102,[-0.09446784],100,53,easy,plus,dotcolour,beta,,,72,19,M,L,
366,114,30,8,2,27,53,514,['n'],1,right,['1'],6,63,[-0.0405352],100,53,easy,plus,dotcolour,beta,,,72,19,M,L,
367,115,31,8,2,47,33,733,['c'],1,left,['1'],6,96,[0.03497195],99,47,medium,plus,dotcolour,beta,,,72,19,M,L,
368,116,32,8,2,27,53,515,['n'],1,right,['1'],6,105,[-0.08791486],100,53,easy,plus,dotcolour,beta,,,72,19,M,L,
369,117,33,8,2,47,33,883,['c'],1,left,['1'],6,107,[0.09638629],100,47,medium,plus,dotcolour,beta,,,72,19,M,L,
370,118,34,8,2,44,36,1248,['c'],1,left,['2'],5,93,[0.02563274],99,44,hard,plus,dotcolour,beta,,,72,19,M,L,
371,119,35,8,2,33,47,581,['n'],1,right,['1'],6,100,[-0.09415395],100,47,medium,plus,dotcolour,beta,,,72,19,M,L,
372,120,36,8,2,33,47,533,['n'],1,right,['1'],6,92,[-0.0502313],100,47,medium,plus,dotcolour,beta,,,72,19,M,L,
373,121,37,8,2,27,53,599,['n'],1,right,['1'],6,57,[-0.07617347],100,53,easy,plus,dotcolour,beta,,,72,19,M,L,
374,122,38,8,2,44,36,983,['c'],1,left,['2'],5,185,[0.11670936],100,44,hard,plus,dotcolour,beta,,,72,19,M,L,
375,123,39,8,2,33,47,581,['n'],1,right,['1'],6,60,[-0.08194229],100,47,medium,plus,dotcolour,beta,,,72,19,M,L,
376,124,40,8,2,27,53,532,['n'],1,right,['1'],6,93,[-0.06748868],100,53,easy,plus,dotcolour,beta,,,72,19,M,L,
377,125,41,8,2,44,36,782,['c'],1,left,['1'],6,139,[0.08784743],100,44,hard,plus,dotcolour,beta,,,72,19,M,L,
378,0,0,9,3,33,47,850,['n'],1,right,['1'],6,87,[-0.09166588],90,47,medium,minus,dotcolour,beta,,,72,19,M,L,
379,1,1,9,3,27,53,467,['n'],1,right,['2'],5,202,[-0.02819995],25,53,easy,minus,dotcolour,beta,,,72,19,M,L,
380,2,2,9,3,36,44,1115,['c'],0,right,['1'],6,142,[0.09941993],89,44,hard,minus,dotcolour,beta,,,72,19,M,L,
381,3,3,9,3,36,44,832,['n'],1,right,['1'],6,136,[-0.13930237],98,44,hard,minus,dotcolour,beta,,,72,19,M,L,
382,4,4,9,3,47,33,832,['c'],1,left,['2'],5,82,[0.08603577],87,47,medium,minus,dotcolour,beta,,,72,19,M,L,
383,5,5,9,3,53,27,765,['c'],1,left,['2'],5,73,[0.05954473],57,53,easy,minus,dotcolour,beta,,,72,19,M,L,
384,6,6,9,3,44,36,732,['c'],1,left,['2'],5,91,[0.06330617],61,44,hard,minus,dotcolour,beta,,,72,19,M,L,
385,7,7,9,3,53,27,915,['c'],1,left,['2'],5,51,[0.05127489],42,53,easy,minus,dotcolour,beta,,,72,19,M,L,
386,8,8,9,3,53,27,998,['c'],1,left,['2'],5,67,[0.05614071],51,53,easy,minus,dotcolour,beta,,,72,19,M,L,
387,9,9,9,3,53,27,716,['c'],1,left,['2'],5,85,[0.07725193],79,53,easy,minus,dotcolour,beta,,,72,19,M,L,
388,10,10,9,3,36,44,984,['c'],0,right,['2'],5,396,[-0.00825339],14,44,hard,minus,dotcolour,beta,,,72,19,M,L,
389,11,11,9,3,47,33,783,['c'],1,left,['2'],5,102,[0.06109],58,47,medium,minus,dotcolour,beta,,,72,19,M,L,
390,12,12,9,3,33,47,1215,['n'],1,right,['2'],5,130,[-0.05092104],44,47,medium,minus,dotcolour,beta,,,72,19,M,L,
391,13,13,9,3,47,33,1182,['c'],1,left,['2'],5,39,[0.07483367],85,47,medium,minus,dotcolour,beta,,,72,19,M,L,
392,14,14,9,3,33,47,1281,['n'],1,right,['2'],5,51,[-0.04707594],34,47,medium,minus,dotcolour,beta,,,72,19,M,L,
393,15,15,9,3,44,36,1682,['c'],1,left,['2'],5,47,[0.08005682],88,44,hard,minus,dotcolour,beta,,,72,19,M,L,
394,16,16,9,3,33,47,747,['n'],1,right,['2'],5,82,[-0.05455373],48,47,medium,minus,dotcolour,beta,,,72,19,M,L,
395,17,17,9,3,44,36,2465,['n'],0,left,['3'],4,500,[-0.01114215],24,44,hard,minus,dotcolour,beta,,,72,19,M,L,
396,18,18,9,3,36,44,980,['n'],1,right,['2'],5,274,[-0.00989017],17,44,hard,minus,dotcolour,beta,,,72,19,M,L,
397,19,19,9,3,44,36,1365,['c'],1,left,['3'],4,57,[0.06068308],60,44,hard,minus,dotcolour,beta,,,72,19,M,L,
398,20,20,9,3,27,53,764,['n'],1,right,['1'],6,106,[-0.08192453],81,53,easy,minus,dotcolour,beta,,,72,19,M,L,
399,21,21,9,3,44,36,2548,['n'],0,left,['3'],4,209,[-0.07905164],72,44,hard,minus,dotcolour,beta,,,72,19,M,L,
400,22,22,9,3,47,33,915,['c'],1,left,['1'],6,229,[0.0572829],52,47,medium,minus,dotcolour,beta,,,72,19,M,L,
401,23,23,9,3,36,44,782,['n'],1,right,['1'],6,38,[-0.07084203],80,44,hard,minus,dotcolour,beta,,,72,19,M,L,
402,24,24,9,3,53,27,731,['c'],1,left,['1'],6,64,[0.08035406],85,53,easy,minus,dotcolour,beta,,,72,19,M,L,
403,25,25,9,3,47,33,1866,['c'],1,left,['1'],6,60,[0.08365508],89,47,medium,minus,dotcolour,beta,,,72,19,M,L,
404,26,26,9,3,47,33,1115,['c'],1,left,['2'],5,190,[0.07239715],67,47,medium,minus,dotcolour,beta,,,72,19,M,L,
405,27,27,9,3,47,33,1715,['c'],1,left,['2'],5,107,[0.05986311],56,47,medium,minus,dotcolour,beta,,,72,19,M,L,
406,28,28,9,3,27,53,748,['n'],1,right,['1'],6,131,[-0.09344138],87,53,easy,minus,dotcolour,beta,,,72,19,M,L,
407,29,29,9,3,27,53,499,['n'],1,right,['1'],6,83,[-0.12224625],98,53,easy,minus,dotcolour,beta,,,72,19,M,L,
408,30,30,9,3,33,47,482,['n'],1,right,['1'],6,78,[-0.11024847],97,47,medium,minus,dotcolour,beta,,,72,19,M,L,
409,31,31,9,3,53,27,766,['c'],1,left,['2'],5,133,[0.06984698],67,53,easy,minus,dotcolour,beta,,,72,19,M,L,
410,32,32,9,3,33,47,566,['n'],1,right,['1'],6,115,[-0.0738328],73,47,medium,minus,dotcolour,beta,,,72,19,M,L,
411,33,33,9,3,33,47,1600,['n'],1,right,['3'],4,199,[-0.09844603],85,47,medium,minus,dotcolour,beta,,,72,19,M,L,
412,34,34,9,3,36,44,866,['n'],1,right,['3'],4,118,[-0.14968374],99,44,hard,minus,dotcolour,beta,,,72,19,M,L,
413,35,35,9,3,27,53,863,['n'],1,right,['3'],4,183,[-0.04351694],38,53,easy,minus,dotcolour,beta,,,72,19,M,L,
414,36,36,9,3,27,53,732,['n'],1,right,['3'],4,180,[-0.17073559],99,53,easy,minus,dotcolour,beta,,,72,19,M,L,
415,37,37,9,3,44,36,2382,['n'],0,left,['3'],4,311,[-0.06860212],60,44,hard,minus,dotcolour,beta,,,72,19,M,L,
416,38,38,9,3,27,53,615,['n'],1,right,['1'],6,99,[-0.06717355],66,53,easy,minus,dotcolour,beta,,,72,19,M,L,
417,39,39,9,3,36,44,2131,['n'],1,right,['3'],4,251,[-0.06804674],61,44,hard,minus,dotcolour,beta,,,72,19,M,L,
418,40,40,9,3,53,27,798,['c'],1,left,['1'],6,170,[0.12039682],94,53,easy,minus,dotcolour,beta,,,72,19,M,L,
419,41,41,9,3,44,36,899,['c'],1,left,['1'],6,105,[0.11074292],96,44,hard,minus,dotcolour,beta,,,72,19,M,L,
420,42,0,10,3,27,53,717,['n'],1,right,['2'],5,226,[-0.12615168],94,53,easy,minus,dotcolour,beta,,,72,19,M,L,
421,43,1,10,3,27,53,799,['n'],1,right,['1'],6,114,[-0.06204463],59,53,easy,minus,dotcolour,beta,,,72,19,M,L,
422,44,2,10,3,36,44,615,['n'],1,right,['1'],6,70,[-0.07099006],74,44,hard,minus,dotcolour,beta,,,72,19,M,L,
423,45,3,10,3,44,36,1732,['c'],1,left,['3'],4,239,[-0.00030937],11,44,hard,minus,dotcolour,beta,,,72,19,M,L,
424,46,4,10,3,53,27,749,['c'],1,left,['1'],6,185,[0.14195015],97,53,easy,minus,dotcolour,beta,,,72,19,M,L,
425,47,5,10,3,33,47,615,['n'],1,right,['1'],6,121,[-0.0935788],88,47,medium,minus,dotcolour,beta,,,72,19,M,L,
426,48,6,10,3,36,44,1765,['n'],1,right,['2'],5,103,[-0.07667224],77,44,hard,minus,dotcolour,beta,,,72,19,M,L,
427,49,7,10,3,33,47,798,['n'],1,right,['2'],5,173,[-0.07017747],65,47,medium,minus,dotcolour,beta,,,72,19,M,L,
428,50,8,10,3,47,33,799,['c'],1,left,['2'],5,112,[0.09443279],89,47,medium,minus,dotcolour,beta,,,72,19,M,L,
429,51,9,10,3,47,33,1481,['c'],1,left,['3'],4,137,[0.10503782],92,47,medium,minus,dotcolour,beta,,,72,19,M,L,
430,52,10,10,3,27,53,647,['n'],1,right,['1'],6,139,[-0.08742065],82,53,easy,minus,dotcolour,beta,,,72,19,M,L,
431,53,11,10,3,53,27,734,['c'],1,left,['3'],4,122,[0.04389282],35,53,easy,minus,dotcolour,beta,,,72,19,M,L,
432,54,12,10,3,47,33,733,['c'],1,left,['2'],5,185,[0.11174342],91,47,medium,minus,dotcolour,beta,,,72,19,M,L,
433,55,13,10,3,53,27,797,['c'],1,left,['1'],6,131,[0.14206399],99,53,easy,minus,dotcolour,beta,,,72,19,M,L,
434,56,14,10,3,36,44,798,['n'],1,right,['1'],6,175,[-0.08263638],76,44,hard,minus,dotcolour,beta,,,72,19,M,L,
435,57,15,10,3,36,44,1931,['n'],1,right,['3'],4,196,[-0.11240779],91,44,hard,minus,dotcolour,beta,,,72,19,M,L,
436,58,16,10,3,53,27,815,['c'],1,left,['1'],6,68,[0.06148555],60,53,easy,minus,dotcolour,beta,,,72,19,M,L,
437,59,17,10,3,36,44,1564,['n'],1,right,['2'],5,164,[-0.11835621],94,44,hard,minus,dotcolour,beta,,,72,19,M,L,
438,60,18,10,3,27,53,583,['n'],1,right,['1'],6,168,[-0.09566895],85,53,easy,minus,dotcolour,beta,,,72,19,M,L,
439,61,19,10,3,44,36,1583,['c'],1,left,['3'],4,339,[0.1484089],95,44,hard,minus,dotcolour,beta,,,72,19,M,L,
440,62,20,10,3,33,47,1599,['c'],0,right,['3'],4,86,[0.04962052],41,47,medium,minus,dotcolour,beta,,,72,19,M,L,
441,63,21,10,3,47,33,965,['c'],1,left,['2'],5,1333,[0.09783265],66,47,medium,minus,dotcolour,beta,,,72,19,M,L,
442,64,22,10,3,33,47,832,['n'],1,right,['1'],6,143,[-0.04424366],37,47,medium,minus,dotcolour,beta,,,72,19,M,L,
443,65,23,10,3,44,36,1250,['c'],1,left,['1'],6,137,[0.08094244],77,44,hard,minus,dotcolour,beta,,,72,19,M,L,
444,66,24,10,3,47,33,1331,['c'],1,left,['1'],6,95,[0.09624027],91,47,medium,minus,dotcolour,beta,,,72,19,M,L,
445,67,25,10,3,53,27,997,['c'],1,left,['1'],6,117,[0.11773246],96,53,easy,minus,dotcolour,beta,,,72,19,M,L,
446,68,26,10,3,33,47,716,['n'],1,right,['1'],6,125,[-0.07310878],71,47,medium,minus,dotcolour,beta,,,72,19,M,L,
447,69,27,10,3,47,33,1032,['c'],1,left,['1'],6,103,[0.02005571],12,47,medium,minus,dotcolour,beta,,,72,19,M,L,
448,70,28,10,3,44,36,1816,['c'],1,left,['2'],5,196,[0.06523656],60,44,hard,minus,dotcolour,beta,,,72,19,M,L,
449,71,29,10,3,33,47,882,['n'],1,right,['1'],6,154,[-0.05180318],46,47,medium,minus,dotcolour,beta,,,72,19,M,L,
450,72,30,10,3,44,36,1865,['n'],0,left,['3'],4,1066,[0.1205304],4,44,hard,minus,dotcolour,beta,,,72,19,M,L,
451,73,31,10,3,36,44,2049,['c'],0,right,['3'],4,175,[0.01569022],15,44,hard,minus,dotcolour,beta,,,72,19,M,L,
452,74,32,10,3,33,47,847,['n'],1,right,['3'],4,151,[-0.07194932],68,47,medium,minus,dotcolour,beta,,,72,19,M,L,
453,75,33,10,3,53,27,781,['c'],1,left,"['3', '2']",4,155,[0.13618336],98,53,easy,minus,dotcolour,beta,,,72,19,M,L,
454,76,34,10,3,27,53,683,['n'],1,right,['2'],5,699,[-0.14128967],86,53,easy,minus,dotcolour,beta,,,72,19,M,L,
455,77,35,10,3,44,36,997,['c'],1,left,['2'],5,56,[0.07366292],80,44,hard,minus,dotcolour,beta,,,72,19,M,L,
456,78,36,10,3,36,44,1516,['n'],1,right,['2'],5,395,[-0.02859891],32,44,hard,minus,dotcolour,beta,,,72,19,M,L,
457,79,37,10,3,27,53,749,['n'],1,right,['1'],6,102,[-0.14385829],99,53,easy,minus,dotcolour,beta,,,72,19,M,L,
458,80,38,10,3,44,36,1516,['c'],1,left,['3'],4,143,[0.09433384],86,44,hard,minus,dotcolour,beta,,,72,19,M,L,
459,81,39,10,3,53,27,1366,['c'],1,left,['3'],4,107,[0.09011803],87,53,easy,minus,dotcolour,beta,,,72,19,M,L,
460,82,40,10,3,47,33,1031,['c'],1,left,['2'],5,55,[0.04933949],38,47,medium,minus,dotcolour,beta,,,72,19,M,L,
461,83,41,10,3,27,53,665,['n'],1,right,['1'],6,124,[-0.13690849],98,53,easy,minus,dotcolour,beta,,,72,19,M,L,
462,84,0,11,3,33,47,733,['n'],1,right,['2'],5,174,[-0.09457296],84,47,medium,minus,dotcolour,beta,,,72,19,M,L,
463,85,1,11,3,33,47,698,['n'],1,right,['1'],6,140,[-0.07376437],71,47,medium,minus,dotcolour,beta,,,72,19,M,L,
464,86,2,11,3,47,33,816,['c'],1,left,['2'],5,126,[0.09307011],87,47,medium,minus,dotcolour,beta,,,72,19,M,L,
465,87,3,11,3,33,47,531,['n'],1,right,['2'],5,165,[-0.0358437],29,47,medium,minus,dotcolour,beta,,,72,19,M,L,
466,88,4,11,3,33,47,1132,['n'],1,right,['2'],5,242,[-0.075656],68,47,medium,minus,dotcolour,beta,,,72,19,M,L,
467,89,5,11,3,44,36,1182,['c'],1,left,['2'],5,130,[0.06009161],56,44,hard,minus,dotcolour,beta,,,72,19,M,L,
468,90,6,11,3,53,27,681,['c'],1,left,['1'],6,291,[0.17592848],98,53,easy,minus,dotcolour,beta,,,72,19,M,L,
469,91,7,11,3,47,33,1032,['c'],1,left,['1'],6,31,[0.09351579],98,47,medium,minus,dotcolour,beta,,,72,19,M,L,
470,92,8,11,3,44,36,865,['c'],1,left,['2'],5,61,[0.08141313],87,44,hard,minus,dotcolour,beta,,,72,19,M,L,
471,93,9,11,3,27,53,1316,['n'],1,right,['1'],6,342,[-0.2065971],99,53,easy,minus,dotcolour,beta,,,72,19,M,L,
472,94,10,11,3,36,44,648,['n'],1,right,['1'],6,88,[-0.10812638],96,44,hard,minus,dotcolour,beta,,,72,19,M,L,
473,95,11,11,3,27,53,748,['n'],1,right,['1'],6,95,[-0.12122667],98,53,easy,minus,dotcolour,beta,,,72,19,M,L,
474,96,12,11,3,53,27,747,['c'],1,left,['1'],6,103,[0.07270799],72,53,easy,minus,dotcolour,beta,,,72,19,M,L,
475,97,13,11,3,53,27,898,['c'],1,left,['2'],5,71,[0.05677116],52,53,easy,minus,dotcolour,beta,,,72,19,M,L,
476,98,14,11,3,27,53,716,['n'],1,right,['1'],6,65,[-0.11794802],99,53,easy,minus,dotcolour,beta,,,72,19,M,L,
477,99,15,11,3,47,33,1849,['c'],1,left,['3'],4,125,[0.1796684],100,47,medium,minus,dotcolour,beta,,,72,19,M,L,
478,100,16,11,3,36,44,682,['n'],1,right,['2'],5,270,[-0.05517017],50,44,hard,minus,dotcolour,beta,,,72,19,M,L,
479,101,17,11,3,53,27,784,['c'],1,left,['3'],4,221,[0.11897829],92,53,easy,minus,dotcolour,beta,,,72,19,M,L,
480,102,18,11,3,27,53,665,['n'],1,right,['1'],6,99,[-0.0692858],69,53,easy,minus,dotcolour,beta,,,72,19,M,L,
481,103,19,11,3,36,44,1716,['n'],1,right,['2'],5,156,[-0.09293889],85,44,hard,minus,dotcolour,beta,,,72,19,M,L,
482,104,20,11,3,36,44,798,['n'],1,right,['2'],5,135,[-0.0934089],86,44,hard,minus,dotcolour,beta,,,72,19,M,L,
483,105,21,11,3,53,27,834,['c'],1,left,['2'],5,114,[0.06034509],56,53,easy,minus,dotcolour,beta,,,72,19,M,L,
484,106,22,11,3,27,53,582,['n'],1,right,['1'],6,183,[-0.09942797],86,53,easy,minus,dotcolour,beta,,,72,19,M,L,
485,107,23,11,3,44,36,847,['n'],0,left,['2'],5,151,[-0.06271865],58,44,hard,minus,dotcolour,beta,,,72,19,M,L,
486,108,24,11,3,53,27,798,['c'],1,left,['2'],5,122,[0.06949829],67,53,easy,minus,dotcolour,beta,,,72,19,M,L,
487,109,25,11,3,44,36,1017,['n'],0,left,['3'],4,413,[-0.03776087],38,44,hard,minus,dotcolour,beta,,,72,19,M,L,
488,110,26,11,3,47,33,1715,['c'],1,left,['3'],4,97,[0.0485417],40,47,medium,minus,dotcolour,beta,,,72,19,M,L,
489,111,27,11,3,47,33,1198,['c'],1,left,['3'],4,103,[0.09663197],91,47,medium,minus,dotcolour,beta,,,72,19,M,L,
490,112,28,11,3,36,44,931,['n'],1,right,['3'],4,351,[0.01298425],11,44,hard,minus,dotcolour,beta,,,72,19,M,L,
491,113,29,11,3,27,53,664,['n'],1,right,['1'],6,359,[-0.10568236],82,53,easy,minus,dotcolour,beta,,,72,19,M,L,
492,114,30,11,3,44,36,1048,['c'],1,left,['2'],5,104,[0.10711967],95,44,hard,minus,dotcolour,beta,,,72,19,M,L,
493,115,31,11,3,47,33,1331,['c'],1,left,['3'],4,39,[0.04668466],31,47,medium,minus,dotcolour,beta,,,72,19,M,L,
494,116,32,11,3,47,33,915,['c'],1,left,['0'],1,979,[0.2021768],94,47,medium,minus,dotcolour,beta,,,72,19,M,L,
495,117,33,11,3,36,44,615,['n'],1,right,['3'],4,308,[-0.08582923],73,44,hard,minus,dotcolour,beta,,,72,19,M,L,
496,118,34,11,3,33,47,864,['n'],1,right,['3'],4,157,[-0.09287512],84,47,medium,minus,dotcolour,beta,,,72,19,M,L,
497,119,35,11,3,36,44,1682,['n'],1,right,['2'],5,157,[-0.00889835],11,44,hard,minus,dotcolour,beta,,,72,19,M,L,
498,120,36,11,3,53,27,882,['c'],1,left,['2'],5,316,[0.07989938],69,53,easy,minus,dotcolour,beta,,,72,19,M,L,
499,121,37,11,3,33,47,616,['n'],1,right,['1'],6,81,[-0.05835698],54,47,medium,minus,dotcolour,beta,,,72,19,M,L,
500,122,38,11,3,27,53,483,['n'],1,right,['1'],6,67,[-0.09040147],92,53,easy,minus,dotcolour,beta,,,72,19,M,L,
501,123,39,11,3,33,47,582,['n'],1,right,['1'],6,67,[-0.07187574],76,47,medium,minus,dotcolour,beta,,,72,19,M,L,
502,124,40,11,3,44,36,2083,['c'],1,left,['3'],4,206,[0.11095199],90,44,hard,minus,dotcolour,beta,,,72,19,M,L,
503,125,41,11,3,44,36,1349,['n'],0,left,['3'],4,353,[-0.04804504],44,44,hard,minus,dotcolour,beta,,,72,19,M,L,
504,0,0,12,4,33,47,616,['n'],1,right,['3'],4,223,[-0.05316247],98,47,medium,plus,dotcolour,beta,,,72,19,M,L,
505,1,1,12,4,47,33,1282,['c'],1,left,['2'],5,203,[0.13195979],100,47,medium,plus,dotcolour,beta,,,72,19,M,L,
506,2,2,12,4,36,44,649,['n'],1,right,['3'],4,267,[-0.14448974],100,44,hard,plus,dotcolour,beta,,,72,19,M,L,
507,3,3,12,4,44,36,1265,['n'],0,left,['3'],4,183,[-0.02812886],97,44,hard,plus,dotcolour,beta,,,72,19,M,L,
508,4,4,12,4,36,44,865,['n'],1,right,['3'],4,150,[-0.13308939],100,44,hard,plus,dotcolour,beta,,,72,19,M,L,
509,5,5,12,4,53,27,814,['c'],1,left,['3'],4,337,[0.08073447],99,53,easy,plus,dotcolour,beta,,,72,19,M,L,
510,6,6,12,4,53,27,849,['c'],1,left,['3'],4,147,[0.10295887],100,53,easy,plus,dotcolour,beta,,,72,19,M,L,
511,7,7,12,4,44,36,1599,['c'],1,left,['1'],6,126,[0.08937394],100,44,hard,plus,dotcolour,beta,,,72,19,M,L,
512,8,8,12,4,47,33,1117,['c'],1,left,['1'],6,77,[0.04997024],100,47,medium,plus,dotcolour,beta,,,72,19,M,L,
513,9,9,12,4,36,44,798,['n'],1,right,['1'],6,107,[-0.06250507],100,44,hard,plus,dotcolour,beta,,,72,19,M,L,
514,10,10,12,4,36,44,615,['n'],1,right,['1'],6,152,[-0.08717217],100,44,hard,plus,dotcolour,beta,,,72,19,M,L,
515,11,11,12,4,36,44,648,['n'],1,right,['1'],6,186,[-0.12417081],100,44,hard,plus,dotcolour,beta,,,72,19,M,L,
516,12,12,12,4,33,47,549,['n'],1,right,['1'],6,133,[-0.07742124],100,47,medium,plus,dotcolour,beta,,,72,19,M,L,
517,13,13,12,4,53,27,1383,['c'],1,left,['3'],4,194,[-0.01828089],82,53,easy,plus,dotcolour,beta,,,72,19,M,L,
518,14,14,12,4,47,33,999,['c'],1,left,['3'],4,187,[0.09373909],100,47,medium,plus,dotcolour,beta,,,72,19,M,L,
519,15,15,12,4,44,36,1832,['c'],1,left,['3'],4,156,[0.01451513],96,44,hard,plus,dotcolour,beta,,,72,19,M,L,
520,16,16,12,4,47,33,1365,['c'],1,left,['3'],4,72,[0.10930418],100,47,medium,plus,dotcolour,beta,,,72,19,M,L,
521,17,17,12,4,36,44,914,['n'],1,right,['1'],6,122,[-0.05865185],100,44,hard,plus,dotcolour,beta,,,72,19,M,L,
522,18,18,12,4,27,53,584,['n'],1,right,['1'],6,71,[-0.12307788],100,53,easy,plus,dotcolour,beta,,,72,19,M,L,
523,19,19,12,4,27,53,468,['n'],1,right,['1'],6,43,[-0.07651696],100,53,easy,plus,dotcolour,beta,,,72,19,M,L,
524,20,20,12,4,33,47,482,['n'],1,right,['1'],6,63,[-0.05223711],100,47,medium,plus,dotcolour,beta,,,72,19,M,L,
525,21,21,12,4,33,47,483,['n'],1,right,['1'],6,66,[-0.08787684],100,47,medium,plus,dotcolour,beta,,,72,19,M,L,
526,22,22,12,4,47,33,666,['c'],1,left,['2'],5,310,[0.07030213],98,47,medium,plus,dotcolour,beta,,,72,19,M,L,
527,23,23,12,4,47,33,851,['c'],1,left,['2'],5,81,[0.06795802],100,47,medium,plus,dotcolour,beta,,,72,19,M,L,
528,24,24,12,4,33,47,565,['n'],1,right,['1'],6,80,[-0.0863037],100,47,medium,plus,dotcolour,beta,,,72,19,M,L,
529,25,25,12,4,44,36,1116,['c'],1,left,['2'],5,26,[0.08452744],100,44,hard,plus,dotcolour,beta,,,72,19,M,L,
530,26,26,12,4,27,53,583,['n'],1,right,['1'],6,90,[-0.10735665],100,53,easy,plus,dotcolour,beta,,,72,19,M,L,
531,27,27,12,4,27,53,499,['n'],1,right,['1'],6,100,[-0.11099516],100,53,easy,plus,dotcolour,beta,,,72,19,M,L,
532,28,28,12,4,44,36,833,['c'],1,left,['2'],5,80,[0.03285877],100,44,hard,plus,dotcolour,beta,,,72,19,M,L,
533,29,29,12,4,33,47,466,['n'],1,right,['1'],6,91,[-0.03824952],100,47,medium,plus,dotcolour,beta,,,72,19,M,L,
534,30,30,12,4,53,27,865,['c'],1,left,['1'],6,70,[0.08640498],100,53,easy,plus,dotcolour,beta,,,72,19,M,L,
535,31,31,12,4,53,27,1016,['c'],1,left,['1'],6,68,[0.08842535],100,53,easy,plus,dotcolour,beta,,,72,19,M,L,
536,32,32,12,4,53,27,915,['c'],1,left,['1'],6,62,[0.04862774],100,53,easy,plus,dotcolour,beta,,,72,19,M,L,
537,33,33,12,4,44,36,1198,['c'],1,left,['1'],6,62,[0.07448065],100,44,hard,plus,dotcolour,beta,,,72,19,M,L,
538,34,34,12,4,33,47,599,['n'],1,right,['1'],6,68,[-0.08759411],100,47,medium,plus,dotcolour,beta,,,72,19,M,L,
539,35,35,12,4,44,36,1465,['c'],1,left,['2'],5,87,[0.12239472],100,44,hard,plus,dotcolour,beta,,,72,19,M,L,
540,36,36,12,4,53,27,715,['c'],1,left,['1'],6,72,[0.09015683],100,53,easy,plus,dotcolour,beta,,,72,19,M,L,
541,37,37,12,4,36,44,699,['n'],1,right,['1'],6,43,[-0.10641916],100,44,hard,plus,dotcolour,beta,,,72,19,M,L,
542,38,38,12,4,47,33,1348,['c'],1,left,['2'],5,204,[0.06086254],99,47,medium,plus,dotcolour,beta,,,72,19,M,L,
543,39,39,12,4,27,53,665,['n'],1,right,['1'],6,90,[-0.09375376],100,53,easy,plus,dotcolour,beta,,,72,19,M,L,
544,40,40,12,4,27,53,616,['n'],1,right,['1'],6,79,[-0.07900236],100,53,easy,plus,dotcolour,beta,,,72,19,M,L,
545,41,41,12,4,27,53,548,['n'],1,right,['1'],6,87,[-0.09663843],100,53,easy,plus,dotcolour,beta,,,72,19,M,L,
546,42,0,13,4,53,27,700,['c'],1,left,['1'],6,81,[0.07732363],100,53,easy,plus,dotcolour,beta,,,72,19,M,L,
547,43,1,13,4,44,36,1000,['c'],1,left,['2'],5,135,[0.05682519],100,44,hard,plus,dotcolour,beta,,,72,19,M,L,
548,44,2,13,4,53,27,649,['c'],1,left,['1'],6,65,[0.0564677],100,53,easy,plus,dotcolour,beta,,,72,19,M,L,
549,45,3,13,4,44,36,933,['n'],0,left,['2'],5,114,[-0.04088585],99,44,hard,plus,dotcolour,beta,,,72,19,M,L,
550,46,4,13,4,33,47,566,['n'],1,right,['1'],6,128,[-0.04573283],99,47,medium,plus,dotcolour,beta,,,72,19,M,L,
551,47,5,13,4,53,27,1115,['c'],1,left,['1'],6,119,[0.07246582],100,53,easy,plus,dotcolour,beta,,,72,19,M,L,
552,48,6,13,4,27,53,681,['n'],1,right,['1'],6,105,[-0.1135451],100,53,easy,plus,dotcolour,beta,,,72,19,M,L,
553,49,7,13,4,47,33,915,['c'],1,left,['2'],5,97,[0.13093702],100,47,medium,plus,dotcolour,beta,,,72,19,M,L,
554,50,8,13,4,47,33,1382,['c'],1,left,['1'],6,87,[0.08319753],100,47,medium,plus,dotcolour,beta,,,72,19,M,L,
555,51,9,13,4,33,47,666,['n'],1,right,['1'],6,106,[-0.13248056],100,47,medium,plus,dotcolour,beta,,,72,19,M,L,
556,52,10,13,4,44,36,1581,['c'],1,left,['2'],5,96,[0.08162131],100,44,hard,plus,dotcolour,beta,,,72,19,M,L,
557,53,11,13,4,47,33,832,['c'],1,left,['2'],5,75,[0.11112861],100,47,medium,plus,dotcolour,beta,,,72,19,M,L,
558,54,12,13,4,53,27,865,['c'],1,left,['2'],5,79,[0.1070066],100,53,easy,plus,dotcolour,beta,,,72,19,M,L,
559,55,13,13,4,53,27,699,['c'],1,left,['2'],5,66,[0.06233211],100,53,easy,plus,dotcolour,beta,,,72,19,M,L,
560,56,14,13,4,36,44,881,['n'],1,right,['2'],5,156,[-0.08953858],100,44,hard,plus,dotcolour,beta,,,72,19,M,L,
561,57,15,13,4,47,33,815,['c'],1,left,['2'],5,55,[0.04693376],100,47,medium,plus,dotcolour,beta,,,72,19,M,L,
562,58,16,13,4,44,36,782,['c'],1,left,['2'],5,1478,[0.12428718],93,44,hard,plus,dotcolour,beta,,,72,19,M,L,
563,59,17,13,4,27,53,699,['n'],1,right,['1'],6,128,[-0.08645159],100,53,easy,plus,dotcolour,beta,,,72,19,M,L,
564,60,18,13,4,36,44,1482,['n'],1,right,['2'],5,201,[-0.06888256],99,44,hard,plus,dotcolour,beta,,,72,19,M,L,
565,61,19,13,4,36,44,1000,['n'],1,right,['2'],5,162,[-0.04053284],99,44,hard,plus,dotcolour,beta,,,72,19,M,L,
566,62,20,13,4,53,27,699,['c'],1,left,['2'],5,161,[0.10788969],100,53,easy,plus,dotcolour,beta,,,72,19,M,L,
567,63,21,13,4,47,33,1315,['c'],1,left,['2'],5,255,[0.07448279],99,47,medium,plus,dotcolour,beta,,,72,19,M,L,
568,64,22,13,4,27,53,732,['n'],1,right,['1'],6,129,[-0.10981893],100,53,easy,plus,dotcolour,beta,,,72,19,M,L,
569,65,23,13,4,33,47,567,['n'],1,right,['1'],6,86,[-0.04123924],100,47,medium,plus,dotcolour,beta,,,72,19,M,L,
570,66,24,13,4,33,47,665,['n'],1,right,['1'],6,97,[-0.09421823],100,47,medium,plus,dotcolour,beta,,,72,19,M,L,
571,67,25,13,4,44,36,880,['c'],1,left,['2'],5,52,[0.07707538],100,44,hard,plus,dotcolour,beta,,,72,19,M,L,
572,68,26,13,4,27,53,582,['n'],1,right,['1'],6,107,[-0.0760648],100,53,easy,plus,dotcolour,beta,,,72,19,M,L,
573,69,27,13,4,27,53,515,['n'],1,right,['1'],6,132,[-0.09481186],100,53,easy,plus,dotcolour,beta,,,72,19,M,L,
574,70,28,13,4,44,36,749,['c'],1,left,['1'],6,114,[0.04535063],100,44,hard,plus,dotcolour,beta,,,72,19,M,L,
575,71,29,13,4,27,53,630,['n'],1,right,['1'],6,117,[-0.10110769],100,53,easy,plus,dotcolour,beta,,,72,19,M,L,
576,72,30,13,4,33,47,1349,['n'],1,right,['2'],5,252,[-0.16538103],100,47,medium,plus,dotcolour,beta,,,72,19,M,L,
577,73,31,13,4,53,27,799,['c'],1,left,['1'],6,91,[0.04448666],100,53,easy,plus,dotcolour,beta,,,72,19,M,L,
578,74,32,13,4,36,44,1098,['n'],1,right,['1'],6,117,[-0.08506603],100,44,hard,plus,dotcolour,beta,,,72,19,M,L,
579,75,33,13,4,47,33,1132,['c'],1,left,['1'],6,108,[0.10077187],100,47,medium,plus,dotcolour,beta,,,72,19,M,L,
580,76,34,13,4,36,44,598,['n'],1,right,['2'],5,297,[-0.02435827],93,44,hard,plus,dotcolour,beta,,,72,19,M,L,
581,77,35,13,4,44,36,799,['c'],1,left,['2'],5,70,[0.08657293],100,44,hard,plus,dotcolour,beta,,,72,19,M,L,
582,78,36,13,4,36,44,632,['n'],1,right,['1'],6,115,[-0.07635732],100,44,hard,plus,dotcolour,beta,,,72,19,M,L,
583,79,37,13,4,33,47,682,['n'],1,right,['1'],6,13,[-0.07478022],100,47,medium,plus,dotcolour,beta,,,72,19,M,L,
584,80,38,13,4,33,47,484,['n'],1,right,['1'],6,26,[-0.09243293],100,47,medium,plus,dotcolour,beta,,,72,19,M,L,
585,81,39,13,4,27,53,516,['n'],1,right,['1'],6,45,[-0.08400059],100,53,easy,plus,dotcolour,beta,,,72,19,M,L,
586,82,40,13,4,36,44,1482,['c'],0,right,['1'],6,74,[0.10244885],100,44,hard,plus,dotcolour,beta,,,72,19,M,L,
587,83,41,13,4,47,33,897,['c'],1,left,['1'],6,51,[0.03128998],100,47,medium,plus,dotcolour,beta,,,72,19,M,L,
588,84,0,14,4,27,53,1150,['n'],1,right,['1'],6,163,[-0.16019305],100,53,easy,plus,dotcolour,beta,,,72,19,M,L,
589,85,1,14,4,33,47,832,['n'],1,right,['2'],5,156,[-0.13110535],100,47,medium,plus,dotcolour,beta,,,72,19,M,L,
590,86,2,14,4,47,33,832,['c'],1,left,['1'],6,45,[0.05768456],100,47,medium,plus,dotcolour,beta,,,72,19,M,L,
591,87,3,14,4,44,36,682,['c'],1,left,['2'],5,297,[0.03007743],94,44,hard,plus,dotcolour,beta,,,72,19,M,L,
592,88,4,14,4,47,33,713,['c'],1,left,['2'],5,74,[0.0928128],100,47,medium,plus,dotcolour,beta,,,72,19,M,L,
593,89,5,14,4,44,36,1032,['c'],1,left,['2'],5,72,[0.05915084],100,44,hard,plus,dotcolour,beta,,,72,19,M,L,
594,90,6,14,4,47,33,882,['c'],1,left,['2'],5,19,[0.07414518],100,47,medium,plus,dotcolour,beta,,,72,19,M,L,
595,91,7,14,4,33,47,681,['n'],1,right,['2'],5,112,[-0.12590055],100,47,medium,plus,dotcolour,beta,,,72,19,M,L,
596,92,8,14,4,36,44,1181,['n'],1,right,['1'],6,77,[-0.0970896],100,44,hard,plus,dotcolour,beta,,,72,19,M,L,
597,93,9,14,4,53,27,749,['c'],1,left,['1'],6,85,[0.08144714],100,53,easy,plus,dotcolour,beta,,,72,19,M,L,
598,94,10,14,4,53,27,682,['c'],1,left,['1'],6,56,[0.05594631],100,53,easy,plus,dotcolour,beta,,,72,19,M,L,
599,95,11,14,4,47,33,749,['c'],1,left,['1'],6,25,[0.06381261],100,47,medium,plus,dotcolour,beta,,,72,19,M,L,
600,96,12,14,4,44,36,748,['c'],1,left,['1'],6,43,[0.05327868],100,44,hard,plus,dotcolour,beta,,,72,19,M,L,
601,97,13,14,4,33,47,700,['n'],1,right,['1'],6,70,[-0.05353208],100,47,medium,plus,dotcolour,beta,,,72,19,M,L,
602,98,14,14,4,53,27,650,['c'],1,left,['1'],6,51,[0.07359624],100,53,easy,plus,dotcolour,beta,,,72,19,M,L,
603,99,15,14,4,47,33,832,['c'],1,left,['1'],6,9,[0.06738601],100,47,medium,plus,dotcolour,beta,,,72,19,M,L,
604,100,16,14,4,47,33,633,['c'],1,left,['1'],6,16,[0.07045258],100,47,medium,plus,dotcolour,beta,,,72,19,M,L,
605,101,17,14,4,33,47,648,['n'],1,right,['1'],6,55,[-0.090638],100,47,medium,plus,dotcolour,beta,,,72,19,M,L,
606,102,18,14,4,53,27,582,['c'],1,left,['1'],6,46,[0.06631388],100,53,easy,plus,dotcolour,beta,,,72,19,M,L,
607,103,19,14,4,27,53,615,['n'],1,right,['1'],6,53,[-0.08875779],100,53,easy,plus,dotcolour,beta,,,72,19,M,L,
608,104,20,14,4,27,53,564,['n'],1,right,['1'],6,86,[-0.0916839],100,53,easy,plus,dotcolour,beta,,,72,19,M,L,
609,105,21,14,4,44,36,782,['c'],1,left,['1'],6,213,[0.04820397],98,44,hard,plus,dotcolour,beta,,,72,19,M,L,
610,106,22,14,4,33,47,565,['n'],1,right,['1'],6,94,[-0.12736049],100,47,medium,plus,dotcolour,beta,,,72,19,M,L,
611,107,23,14,4,44,36,699,['c'],1,left,['1'],6,40,[0.09015023],100,44,hard,plus,dotcolour,beta,,,72,19,M,L,
612,108,24,14,4,44,36,950,['c'],1,left,['1'],6,33,[0.09635018],100,44,hard,plus,dotcolour,beta,,,72,19,M,L,
613,109,25,14,4,36,44,2981,['n'],1,right,['3'],4,122,[-0.12104736],100,44,hard,plus,dotcolour,beta,,,72,19,M,L,
614,110,26,14,4,27,53,633,['n'],1,right,['1'],6,109,[-0.07567398],100,53,easy,plus,dotcolour,beta,,,72,19,M,L,
615,111,27,14,4,36,44,1413,['c'],0,right,['2'],5,162,[0.10073578],100,44,hard,plus,dotcolour,beta,,,72,19,M,L,
616,112,28,14,4,53,27,933,['c'],1,left,['1'],6,55,[0.07029378],100,53,easy,plus,dotcolour,beta,,,72,19,M,L,
617,113,29,14,4,47,33,1197,['n'],0,left,['2'],5,69,[-0.07821136],100,47,medium,plus,dotcolour,beta,,,72,19,M,L,
618,114,30,14,4,36,44,565,['n'],1,right,['1'],6,117,[-0.07088567],100,44,hard,plus,dotcolour,beta,,,72,19,M,L,
619,115,31,14,4,33,47,547,['n'],1,right,['1'],6,60,[-0.05634434],100,47,medium,plus,dotcolour,beta,,,72,19,M,L,
620,116,32,14,4,36,44,948,['n'],1,right,['2'],5,85,[-0.05946372],100,44,hard,plus,dotcolour,beta,,,72,19,M,L,
621,117,33,14,4,27,53,966,['n'],1,right,['1'],6,100,[-0.09549352],100,53,easy,plus,dotcolour,beta,,,72,19,M,L,
622,118,34,14,4,27,53,532,['n'],1,right,['1'],6,84,[-0.07260687],100,53,easy,plus,dotcolour,beta,,,72,19,M,L,
623,119,35,14,4,53,27,649,['c'],1,left,['1'],6,81,[0.10239543],100,53,easy,plus,dotcolour,beta,,,72,19,M,L,
624,120,36,14,4,27,53,598,['n'],1,right,['1'],6,86,[-0.07503119],100,53,easy,plus,dotcolour,beta,,,72,19,M,L,
625,121,37,14,4,33,47,617,['n'],1,right,['1'],6,83,[-0.07654354],100,47,medium,plus,dotcolour,beta,,,72,19,M,L,
626,122,38,14,4,53,27,799,['c'],1,left,['2'],5,33,[0.09772031],100,53,easy,plus,dotcolour,beta,,,72,19,M,L,
627,123,39,14,4,36,44,632,['n'],1,right,['2'],5,208,[-0.21147851],100,44,hard,plus,dotcolour,beta,,,72,19,M,L,
628,124,40,14,4,36,44,600,['n'],1,right,['1'],6,81,[-0.12163894],100,44,hard,plus,dotcolour,beta,,,72,19,M,L,
629,125,41,14,4,44,36,548,['n'],0,left,['2'],5,257,[-0.03975851],97,44,hard,plus,dotcolour,beta,,,72,19,M,L,
630,0,0,15,5,36,44,983,['n'],1,right,['1'],6,231,[-0.02197842],22,44,hard,minus,dotcolour,beta,,,72,19,M,L,
631,1,1,15,5,36,44,1781,['c'],0,right,['3'],4,72,[0.06699605],68,44,hard,minus,dotcolour,beta,,,72,19,M,L,
632,2,2,15,5,44,36,865,['n'],0,left,['1'],6,83,[-0.09509825],92,44,hard,minus,dotcolour,beta,,,72,19,M,L,
633,3,3,15,5,47,33,832,['n'],0,left,['2'],5,96,[-0.08343919],83,47,medium,minus,dotcolour,beta,,,72,19,M,L,
634,4,4,15,5,33,47,599,['n'],1,right,['1'],6,221,[-0.09130257],80,47,medium,minus,dotcolour,beta,,,72,19,M,L,
635,5,5,15,5,53,27,999,['c'],1,left,['1'],6,93,[0.08422241],84,53,easy,minus,dotcolour,beta,,,72,19,M,L,
636,6,6,15,5,53,27,664,['c'],1,left,['1'],6,24,[0.05132122],38,53,easy,minus,dotcolour,beta,,,72,19,M,L,
637,7,7,15,5,27,53,698,['n'],1,right,['1'],6,69,[-0.10889912],97,53,easy,minus,dotcolour,beta,,,72,19,M,L,
638,8,8,15,5,44,36,1198,['n'],0,left,['1'],6,27,[-0.07367849],88,44,hard,minus,dotcolour,beta,,,72,19,M,L,
639,9,9,15,5,27,53,583,['n'],1,right,['1'],6,124,[-0.04330653],35,53,easy,minus,dotcolour,beta,,,72,19,M,L,
640,10,10,15,5,47,33,816,['c'],1,left,['1'],6,24,[0.07982684],94,47,medium,minus,dotcolour,beta,,,72,19,M,L,
641,11,11,15,5,47,33,847,['c'],1,left,['1'],6,6,[0.0842484],100,47,medium,minus,dotcolour,beta,,,72,19,M,L,
642,12,12,15,5,36,44,697,['n'],1,right,['1'],6,59,[-0.05808482],55,44,hard,minus,dotcolour,beta,,,72,19,M,L,
643,13,13,15,5,53,27,698,['c'],1,left,['1'],6,70,[0.11176784],98,53,easy,minus,dotcolour,beta,,,72,19,M,L,
644,14,14,15,5,44,36,881,['c'],1,left,['1'],6,9,[0.06328268],81,44,hard,minus,dotcolour,beta,,,72,19,M,L,
645,15,15,15,5,36,44,599,['n'],1,right,['1'],6,106,[-0.09253065],89,44,hard,minus,dotcolour,beta,,,72,19,M,L,
646,16,16,15,5,47,33,882,['c'],1,left,['1'],6,1492,[0.36194581],99,47,medium,minus,dotcolour,beta,,,72,19,M,L,
647,17,17,15,5,47,33,899,['c'],1,left,['1'],6,1270,[0.16598634],85,47,medium,minus,dotcolour,beta,,,72,19,M,L,
648,18,18,15,5,33,47,733,['n'],1,right,['1'],6,46,[-0.06469989],68,47,medium,minus,dotcolour,beta,,,72,19,M,L,
649,19,19,15,5,36,44,982,['n'],1,right,['1'],6,94,[-0.08829421],87,44,hard,minus,dotcolour,beta,,,72,19,M,L,
650,20,20,15,5,33,47,615,['n'],1,right,['1'],6,83,[-0.08526996],86,47,medium,minus,dotcolour,beta,,,72,19,M,L,
651,21,21,15,5,27,53,582,['n'],1,right,['1'],6,81,[-0.07419229],76,53,easy,minus,dotcolour,beta,,,72,19,M,L,
652,22,22,15,5,53,27,683,['c'],1,left,['1'],6,780,[0.13330082],83,53,easy,minus,dotcolour,beta,,,72,19,M,L,
653,23,23,15,5,27,53,550,['n'],1,right,['1'],6,80,[-0.06636679],67,53,easy,minus,dotcolour,beta,,,72,19,M,L,
654,24,24,15,5,27,53,549,['n'],1,right,['1'],6,48,[-0.09141309],95,53,easy,minus,dotcolour,beta,,,72,19,M,L,
655,25,25,15,5,27,53,532,['n'],1,right,['1'],6,58,[-0.09426966],95,53,easy,minus,dotcolour,beta,,,72,19,M,L,
656,26,26,15,5,53,27,648,['c'],1,left,['1'],6,15,[0.07517481],95,53,easy,minus,dotcolour,beta,,,72,19,M,L,
657,27,27,15,5,44,36,1999,['c'],1,left,['3'],4,88,[0.03358713],21,44,hard,minus,dotcolour,beta,,,72,19,M,L,
658,28,28,15,5,47,33,1382,['c'],1,left,['3'],4,23,[0.06166904],67,47,medium,minus,dotcolour,beta,,,72,19,M,L,
659,29,29,15,5,44,36,1232,['c'],1,left,['1'],6,62,[0.0714922],76,44,hard,minus,dotcolour,beta,,,72,19,M,L,
660,30,30,15,5,27,53,681,['n'],1,right,['1'],6,353,[-0.14638668],94,53,easy,minus,dotcolour,beta,,,72,19,M,L,
661,31,31,15,5,33,47,531,['n'],1,right,['3'],4,439,[-0.07263811],61,47,medium,minus,dotcolour,beta,,,72,19,M,L,
662,32,32,15,5,33,47,1798,['c'],0,right,['2'],5,183,[0.15968018],99,47,medium,minus,dotcolour,beta,,,72,19,M,L,
663,33,33,15,5,53,27,750,['c'],1,left,['1'],6,58,[0.06340647],64,53,easy,minus,dotcolour,beta,,,72,19,M,L,
664,34,34,15,5,44,36,1899,['c'],1,left,['3'],4,133,[0.02903858],21,44,hard,minus,dotcolour,beta,,,72,19,M,L,
665,35,35,15,5,36,44,966,['n'],1,right,['3'],4,67,[-0.10262454],96,44,hard,minus,dotcolour,beta,,,72,19,M,L,
666,36,36,15,5,33,47,683,['n'],1,right,['2'],5,94,[-0.069],69,47,medium,minus,dotcolour,beta,,,72,19,M,L,
667,37,37,15,5,53,27,899,['c'],1,left,['2'],5,79,[0.06354577],63,53,easy,minus,dotcolour,beta,,,72,19,M,L,
668,38,38,15,5,47,33,781,['c'],1,left,['1'],6,38,[0.05502539],49,47,medium,minus,dotcolour,beta,,,72,19,M,L,
669,39,39,15,5,33,47,1265,['n'],1,right,['2'],5,195,[-0.06198686],57,47,medium,minus,dotcolour,beta,,,72,19,M,L,
670,40,40,15,5,44,36,1083,['n'],0,left,['2'],5,137,[-0.06738498],64,44,hard,minus,dotcolour,beta,,,72,19,M,L,
671,41,41,15,5,36,44,1433,['c'],0,right,['2'],5,44,[0.06794675],74,44,hard,minus,dotcolour,beta,,,72,19,M,L,
672,42,0,16,5,27,53,849,['n'],1,right,['2'],5,84,[-0.09120542],90,53,easy,minus,dotcolour,beta,,,72,19,M,L,
673,43,1,16,5,53,27,847,['c'],1,left,['1'],6,24,[0.06645327],78,53,easy,minus,dotcolour,beta,,,72,19,M,L,
674,44,2,16,5,36,44,782,['n'],1,right,['1'],6,193,[-0.01366172],15,44,hard,minus,dotcolour,beta,,,72,19,M,L,
675,45,3,16,5,44,36,1015,['c'],1,left,['1'],6,1,[0.07857942],100,44,hard,minus,dotcolour,beta,,,72,19,M,L,
676,46,4,16,5,27,53,617,['n'],1,right,['1'],6,90,[-0.07318289],74,53,easy,minus,dotcolour,beta,,,72,19,M,L,
677,47,5,16,5,36,44,800,['n'],1,right,['1'],6,80,[-0.03257589],19,44,hard,minus,dotcolour,beta,,,72,19,M,L,
678,48,6,16,5,36,44,1366,['n'],1,right,['1'],6,47,[-0.07307616],81,44,hard,minus,dotcolour,beta,,,72,19,M,L,
679,49,7,16,5,27,53,647,['n'],1,right,['1'],6,124,[-0.08073356],78,53,easy,minus,dotcolour,beta,,,72,19,M,L,
680,50,8,16,5,53,27,749,['c'],1,left,['1'],6,19,[0.07093503],88,53,easy,minus,dotcolour,beta,,,72,19,M,L,
681,51,9,16,5,44,36,798,['c'],1,left,['1'],6,820,[0.02991397],38,44,hard,minus,dotcolour,beta,,,72,19,M,L,
682,52,10,16,5,47,33,1465,['c'],1,left,['1'],6,58,[0.06404014],65,47,medium,minus,dotcolour,beta,,,72,19,M,L,
683,53,11,16,5,33,47,1248,['n'],1,right,['2'],5,159,[-0.08324989],78,47,medium,minus,dotcolour,beta,,,72,19,M,L,
684,54,12,16,5,53,27,766,['c'],1,left,['2'],5,75,[0.08727203],89,53,easy,minus,dotcolour,beta,,,72,19,M,L,
685,55,13,16,5,27,53,650,['n'],1,right,['2'],5,175,[-0.07708955],72,53,easy,minus,dotcolour,beta,,,72,19,M,L,
686,56,14,16,5,44,36,2017,['c'],1,left,['2'],5,129,[0.05190382],45,44,hard,minus,dotcolour,beta,,,72,19,M,L,
687,57,15,16,5,47,33,1080,['c'],1,left,['2'],5,73,[0.07648276],80,47,medium,minus,dotcolour,beta,,,72,19,M,L,
688,58,16,16,5,44,36,680,['c'],1,left,['2'],5,29,[0.08620922],96,44,hard,minus,dotcolour,beta,,,72,19,M,L,
689,59,17,16,5,36,44,1249,['n'],1,right,['2'],5,123,[-0.10196614],92,44,hard,minus,dotcolour,beta,,,72,19,M,L,
690,60,18,16,5,53,27,631,['c'],1,left,['2'],5,86,[0.1044705],95,53,easy,minus,dotcolour,beta,,,72,19,M,L,
691,61,19,16,5,47,33,1016,['c'],1,left,['2'],5,51,[0.05596414],51,47,medium,minus,dotcolour,beta,,,72,19,M,L,
692,62,20,16,5,27,53,1365,['n'],1,right,['2'],5,324,[-0.19140883],99,53,easy,minus,dotcolour,beta,,,72,19,M,L,
693,63,21,16,5,47,33,748,['c'],1,left,['1'],6,58,[0.03531021],18,47,medium,minus,dotcolour,beta,,,72,19,M,L,
694,64,22,16,5,33,47,798,['n'],1,right,['1'],6,201,[-0.0388491],34,47,medium,minus,dotcolour,beta,,,72,19,M,L,
695,65,23,16,5,53,27,681,['c'],1,left,['1'],6,47,[0.06313301],65,53,easy,minus,dotcolour,beta,,,72,19,M,L,
696,66,24,16,5,33,47,866,['n'],1,right,['1'],6,27,[-0.06280606],69,47,medium,minus,dotcolour,beta,,,72,19,M,L,
697,67,25,16,5,33,47,549,['n'],1,right,['1'],6,45,[-0.09328213],96,47,medium,minus,dotcolour,beta,,,72,19,M,L,
698,68,26,16,5,27,53,481,['n'],1,right,['1'],6,49,[-0.05472869],48,53,easy,minus,dotcolour,beta,,,72,19,M,L,
699,69,27,16,5,36,44,1032,['n'],1,right,['1'],6,55,[-0.06917347],74,44,hard,minus,dotcolour,beta,,,72,19,M,L,
700,70,28,16,5,33,47,533,['n'],1,right,['1'],6,128,[-0.09875985],90,47,medium,minus,dotcolour,beta,,,72,19,M,L,
701,71,29,16,5,44,36,815,['c'],1,left,['2'],5,100,[0.11037187],96,44,hard,minus,dotcolour,beta,,,72,19,M,L,
702,72,30,16,5,33,47,865,['n'],1,right,['1'],6,151,[-0.08323828],78,47,medium,minus,dotcolour,beta,,,72,19,M,L,
703,73,31,16,5,27,53,600,['n'],1,right,['1'],6,66,[-0.11067368],98,53,easy,minus,dotcolour,beta,,,72,19,M,L,
704,74,32,16,5,33,47,698,['n'],1,right,['1'],6,108,[-0.07816577],78,47,medium,minus,dotcolour,beta,,,72,19,M,L,
705,75,33,16,5,47,33,1165,['c'],1,left,['2'],5,43,[0.0877107],94,47,medium,minus,dotcolour,beta,,,72,19,M,L,
706,76,34,16,5,53,27,966,['c'],1,left,['1'],6,28,[0.0828643],95,53,easy,minus,dotcolour,beta,,,72,19,M,L,
707,77,35,16,5,47,33,982,['n'],0,left,['1'],6,164,[-0.05750892],52,47,medium,minus,dotcolour,beta,,,72,19,M,L,
708,78,36,16,5,53,27,633,['c'],1,left,['1'],6,53,[0.08687496],92,53,easy,minus,dotcolour,beta,,,72,19,M,L,
709,79,37,16,5,36,44,564,['n'],1,right,['1'],6,94,[-0.09662715],92,44,hard,minus,dotcolour,beta,,,72,19,M,L,
710,80,38,16,5,44,36,1115,['c'],1,left,['2'],5,150,[0.065007],61,44,hard,minus,dotcolour,beta,,,72,19,M,L,
711,81,39,16,5,44,36,782,['c'],1,left,['2'],5,59,[0.07392865],80,44,hard,minus,dotcolour,beta,,,72,19,M,L,
712,82,40,16,5,47,33,1249,['n'],0,left,['2'],5,535,[-0.01265508],26,47,medium,minus,dotcolour,beta,,,72,19,M,L,
713,83,41,16,5,36,44,2117,['c'],0,right,['2'],5,15,[0.06019872],66,44,hard,minus,dotcolour,beta,,,72,19,M,L,
714,84,0,17,5,44,36,850,['c'],1,left,['1'],6,28,[0.06986793],82,44,hard,minus,dotcolour,beta,,,72,19,M,L,
715,85,1,17,5,27,53,832,['n'],1,right,['1'],6,58,[-0.07199679],77,53,easy,minus,dotcolour,beta,,,72,19,M,L,
716,86,2,17,5,27,53,665,['n'],1,right,['1'],6,14,[-0.08405701],99,53,easy,minus,dotcolour,beta,,,72,19,M,L,
717,87,3,17,5,47,33,1431,['c'],1,left,['1'],6,46,[0.0639792],67,47,medium,minus,dotcolour,beta,,,72,19,M,L,
718,88,4,17,5,27,53,648,['n'],1,right,['1'],6,75,[-0.1078142],97,53,easy,minus,dotcolour,beta,,,72,19,M,L,
719,89,5,17,5,33,47,498,['n'],1,right,['1'],6,61,[-0.10223801],97,47,medium,minus,dotcolour,beta,,,72,19,M,L,
720,90,6,17,5,44,36,932,['c'],1,left,['1'],6,38,[0.0783625],89,44,hard,minus,dotcolour,beta,,,72,19,M,L,
721,91,7,17,5,44,36,865,['c'],1,left,['1'],6,76,[0.08787201],89,44,hard,minus,dotcolour,beta,,,72,19,M,L,
722,92,8,17,5,44,36,1165,['c'],1,left,['1'],6,43,[0.06803227],75,44,hard,minus,dotcolour,beta,,,72,19,M,L,
723,93,9,17,5,53,27,1315,['c'],1,left,['1'],6,86,[0.06979191],71,53,easy,minus,dotcolour,beta,,,72,19,M,L,
724,94,10,17,5,53,27,948,['c'],1,left,['0'],1,1254,[0.29194857],98,53,easy,minus,dotcolour,beta,,,72,19,M,L,
725,95,11,17,5,53,27,747,['c'],1,left,['2'],5,79,[0.13228083],99,53,easy,minus,dotcolour,beta,,,72,19,M,L,
726,96,12,17,5,33,47,814,['n'],1,right,['1'],6,220,[-0.03996221],35,47,medium,minus,dotcolour,beta,,,72,19,M,L,
727,97,13,17,5,44,36,1016,['c'],1,left,['2'],5,60,[0.07644557],82,44,hard,minus,dotcolour,beta,,,72,19,M,L,
728,98,14,17,5,44,36,2080,['c'],1,left,['2'],5,71,[0.06803564],70,44,hard,minus,dotcolour,beta,,,72,19,M,L,
729,99,15,17,5,47,33,800,['c'],1,left,['2'],5,102,[0.06290797],60,47,medium,minus,dotcolour,beta,,,72,19,M,L,
730,100,16,17,5,53,27,850,['c'],1,left,['2'],5,33,[0.0783785],91,53,easy,minus,dotcolour,beta,,,72,19,M,L,
731,101,17,17,5,44,36,882,['n'],0,left,['2'],5,190,[-0.09365472],83,44,hard,minus,dotcolour,beta,,,72,19,M,L,
732,102,18,17,5,47,33,882,['c'],1,left,['2'],5,52,[0.09440392],96,47,medium,minus,dotcolour,beta,,,72,19,M,L,
733,103,19,17,5,27,53,682,['n'],1,right,['1'],6,104,[-0.06704315],66,53,easy,minus,dotcolour,beta,,,72,19,M,L,
734,104,20,17,5,33,47,566,['n'],1,right,['1'],6,38,[-0.08125844],91,47,medium,minus,dotcolour,beta,,,72,19,M,L,
735,105,21,17,5,36,44,666,['n'],1,right,['3'],4,2204,[-0.25239259],92,44,hard,minus,dotcolour,beta,,,72,19,M,L,
736,106,22,17,5,33,47,931,['n'],1,right,['2'],5,95,[-0.09463569],91,47,medium,minus,dotcolour,beta,,,72,19,M,L,
737,107,23,17,5,53,27,748,['c'],1,left,['1'],6,39,[0.07924789],90,53,easy,minus,dotcolour,beta,,,72,19,M,L,
738,108,24,17,5,36,44,798,['n'],1,right,['1'],6,63,[-0.07634537],82,44,hard,minus,dotcolour,beta,,,72,19,M,L,
739,109,25,17,5,27,53,1115,['n'],1,right,['1'],6,72,[-0.08441061],87,53,easy,minus,dotcolour,beta,,,72,19,M,L,
740,110,26,17,5,47,33,881,['c'],1,left,['2'],5,116,[0.06689528],65,47,medium,minus,dotcolour,beta,,,72,19,M,L,
741,111,27,17,5,33,47,1915,['n'],1,right,['2'],5,244,[-0.03977683],36,47,medium,minus,dotcolour,beta,,,72,19,M,L,
742,112,28,17,5,36,44,648,['n'],1,right,['2'],5,105,[-0.0344559],24,44,hard,minus,dotcolour,beta,,,72,19,M,L,
743,113,29,17,5,36,44,1365,['n'],1,right,['2'],5,152,[-0.13748752],98,44,hard,minus,dotcolour,beta,,,72,19,M,L,
744,114,30,17,5,36,44,715,['n'],1,right,['2'],5,125,[0.0126761],3,44,hard,minus,dotcolour,beta,,,72,19,M,L,
745,115,31,17,5,27,53,682,['n'],1,right,['1'],6,151,[-0.13202747],97,53,easy,minus,dotcolour,beta,,,72,19,M,L,
746,116,32,17,5,33,47,615,['n'],1,right,['1'],6,153,[-0.02065489],17,47,medium,minus,dotcolour,beta,,,72,19,M,L,
747,117,33,17,5,47,33,932,['c'],1,left,['1'],6,47,[0.0939582],96,47,medium,minus,dotcolour,beta,,,72,19,M,L,
748,118,34,17,5,47,33,1064,['c'],1,left,['2'],5,195,[0.06670482],61,47,medium,minus,dotcolour,beta,,,72,19,M,L,
749,119,35,17,5,53,27,900,['c'],1,left,['2'],5,65,[0.05328147],46,53,easy,minus,dotcolour,beta,,,72,19,M,L,
750,120,36,17,5,33,47,732,['n'],1,right,['2'],5,178,[-0.08906948],81,47,medium,minus,dotcolour,beta,,,72,19,M,L,
751,121,37,17,5,36,44,1533,['c'],0,right,['2'],5,103,[0.08799573],86,44,hard,minus,dotcolour,beta,,,72,19,M,L,
752,122,38,17,5,53,27,747,['c'],1,left,['2'],5,70,[0.09973461],95,53,easy,minus,dotcolour,beta,,,72,19,M,L,
753,123,39,17,5,47,33,918,['c'],1,left,['2'],5,24,[0.06449228],74,47,medium,minus,dotcolour,beta,,,72,19,M,L,
754,124,40,17,5,36,44,1399,['c'],0,right,['2'],5,33,[0.02583665],5,44,hard,minus,dotcolour,beta,,,72,19,M,L,
755,125,41,17,5,27,53,1133,['c'],0,right,['2'],5,171,[0.02015915],18,53,easy,minus,dotcolour,beta,,,72,19,M,L,
,,,,,,,,,,,,,,,,,,,,,1,sommige patronen kwamen terug achter elkaar ,72,19,M,L,
,,,,,,,,,,,,,,,,,,,,,2,['g'],72,19,M,L,
,,,,,,,,,,,,,,,,,,,,,3,['g'],72,19,M,L,
,,,,,,,,,,,,,,,,,,,,,5,['3'],72,19,M,L,
