trial,withinphasetrial,withinblocktrial,block,phase,dotsLeft,dotsRight,rt,resp,cor,cresp,conf_press,cj,RTconf,ev,fb,diff,difflevel,condition,task,manip,questionID,questionResp,sub,age,gender,handedness,
0,0,0,0,0,27,53,1501,['n'],1,right,['8'],4,2953,[-0.47342262],99,53,easy,minus,dotcolour,beta,,,7,18,V,R,
1,1,1,0,0,36,44,1750,['c'],0,right,['9'],5,2212,[0.08089386],58,44,hard,minus,dotcolour,beta,,,7,18,V,R,
2,2,2,0,0,44,36,2233,['c'],1,left,['3'],3,1483,[0.12997741],75,44,hard,minus,dotcolour,beta,,,7,18,V,R,
3,3,3,0,0,44,36,1133,['n'],0,left,['8'],4,2243,[-0.10981403],66,44,hard,minus,dotcolour,beta,,,7,18,V,R,
4,4,4,0,0,44,36,1498,['n'],0,left,['8'],4,1189,[-0.00849658],32,44,hard,minus,dotcolour,beta,,,7,18,V,R,
5,5,5,0,0,53,27,883,['c'],1,left,['9'],5,1267,[0.28452214],97,53,easy,minus,dotcolour,beta,,,7,18,V,R,
6,6,6,0,0,53,27,1484,['c'],1,left,['8'],4,1165,[0.0791525],60,53,easy,minus,dotcolour,beta,,,7,18,V,R,
7,7,7,0,0,47,33,1633,['c'],1,left,['9'],5,710,[0.13149357],84,47,medium,minus,dotcolour,beta,,,7,18,V,R,
8,8,8,0,0,33,47,1450,['n'],1,right,['9'],5,929,[-0.21116311],95,47,medium,minus,dotcolour,beta,,,7,18,V,R,
9,9,9,0,0,33,47,1916,['c'],0,right,['2'],2,1776,[-0.11121511],10,47,medium,minus,dotcolour,beta,,,7,18,V,R,
10,10,10,0,0,36,44,1284,['n'],1,right,['9'],5,526,[-0.12741732],86,44,hard,minus,dotcolour,beta,,,7,18,V,R,
11,11,11,0,0,47,33,2933,['n'],0,left,['3'],3,1837,[0.12570585],8,47,medium,minus,dotcolour,beta,,,7,18,V,R,
12,12,12,0,0,33,47,1000,['n'],1,right,['8'],4,820,[-0.3070798],99,47,medium,minus,dotcolour,beta,,,7,18,V,R,
13,13,13,0,0,53,27,783,['c'],1,left,['8'],4,597,[0.13448042],86,53,easy,minus,dotcolour,beta,,,7,18,V,R,
14,14,14,0,0,47,33,799,['c'],1,left,['8'],4,574,[0.09091594],70,47,medium,minus,dotcolour,beta,,,7,18,V,R,
15,15,15,0,0,36,44,733,['n'],1,right,['0'],6,571,[-0.10894739],78,44,hard,minus,dotcolour,beta,,,7,18,V,R,
16,16,16,0,0,53,27,667,['c'],1,left,['0'],6,482,[0.09985522],76,53,easy,minus,dotcolour,beta,,,7,18,V,R,
17,17,17,0,0,53,27,965,['c'],1,left,['9'],5,569,[0.16717741],93,53,easy,minus,dotcolour,beta,,,7,18,V,R,
18,18,18,0,0,47,33,881,['c'],1,left,['9'],5,520,[0.26779157],100,47,medium,minus,dotcolour,beta,,,7,18,V,R,
19,19,19,0,0,27,53,633,['n'],1,right,['9'],5,307,[-0.23560918],100,53,easy,minus,dotcolour,beta,,,7,18,V,R,
20,20,20,0,0,33,47,1082,['c'],0,right,['9'],5,140,[0.05299445],47,47,medium,minus,dotcolour,beta,,,7,18,V,R,
21,21,21,0,0,27,53,1033,['n'],1,right,['9'],5,294,[-0.18237035],99,53,easy,minus,dotcolour,beta,,,7,18,V,R,
22,22,22,0,0,33,47,701,['n'],1,right,['9'],5,255,[-0.03312501],31,47,medium,minus,dotcolour,beta,,,7,18,V,R,
23,23,23,0,0,27,53,801,['n'],1,right,['9'],5,558,[-0.30436616],100,53,easy,minus,dotcolour,beta,,,7,18,V,R,
24,24,24,0,0,33,47,950,['n'],1,right,['9'],5,315,[-0.16378142],97,47,medium,minus,dotcolour,beta,,,7,18,V,R,
25,25,25,0,0,44,36,949,['c'],1,left,['8'],4,505,[0.05138634],47,44,hard,minus,dotcolour,beta,,,7,18,V,R,
26,26,26,0,0,27,53,583,['n'],1,right,['9'],5,302,[-0.03999502],38,53,easy,minus,dotcolour,beta,,,7,18,V,R,
27,27,27,0,0,27,53,832,['n'],1,right,['9'],5,258,[-0.10729319],86,53,easy,minus,dotcolour,beta,,,7,18,V,R,
28,28,28,0,0,44,36,2563,['n'],0,left,['8'],4,315,[0.0650664],2,44,hard,minus,dotcolour,beta,,,7,18,V,R,
29,29,29,0,0,36,44,1166,['n'],1,right,['9'],5,297,[-0.09796291],80,44,hard,minus,dotcolour,beta,,,7,18,V,R,
30,30,30,0,0,36,44,848,['n'],1,right,['9'],5,364,[-0.06297408],56,44,hard,minus,dotcolour,beta,,,7,18,V,R,
31,31,31,0,0,53,27,1317,['n'],0,left,['8'],4,378,[0.00602936],14,53,easy,minus,dotcolour,beta,,,7,18,V,R,
32,32,32,0,0,27,53,850,['n'],1,right,['9'],5,250,[-0.06478551],58,53,easy,minus,dotcolour,beta,,,7,18,V,R,
33,33,33,0,0,36,44,667,['n'],1,right,['0'],6,382,[-0.06852775],59,44,hard,minus,dotcolour,beta,,,7,18,V,R,
34,34,34,0,0,53,27,848,['c'],1,left,['0'],6,615,[0.31200435],100,53,easy,minus,dotcolour,beta,,,7,18,V,R,
35,35,35,0,0,33,47,1084,['n'],1,right,['0'],6,1804,[-0.3982385],99,47,medium,minus,dotcolour,beta,,,7,18,V,R,
36,36,36,0,0,36,44,700,['n'],1,right,['0'],6,753,[-0.1343282],84,44,hard,minus,dotcolour,beta,,,7,18,V,R,
37,37,37,0,0,44,36,981,['c'],1,left,['8'],4,412,[0.07137745],61,44,hard,minus,dotcolour,beta,,,7,18,V,R,
38,38,38,0,0,47,33,730,['c'],1,left,['8'],4,343,[0.00338658],17,47,medium,minus,dotcolour,beta,,,7,18,V,R,
39,39,39,0,0,47,33,997,['c'],1,left,['9'],5,410,[0.1378414],91,47,medium,minus,dotcolour,beta,,,7,18,V,R,
40,40,40,0,0,44,36,451,['n'],0,left,['1'],1,1041,[0.07330087],9,44,hard,minus,dotcolour,beta,,,7,18,V,R,
41,41,41,0,0,47,33,850,['c'],1,left,['0'],6,839,[0.11583992],77,47,medium,minus,dotcolour,beta,,,7,18,V,R,
42,42,0,1,0,33,47,1501,['c'],0,right,['8'],4,366,[0.03500067],35,47,medium,minus,dotcolour,beta,,,7,18,V,R,
43,43,1,1,0,53,27,649,['c'],1,left,['8'],4,519,[0.10515803],78,53,easy,minus,dotcolour,beta,,,7,18,V,R,
44,44,2,1,0,33,47,914,['n'],1,right,['8'],4,294,[-0.02741321],28,47,medium,minus,dotcolour,beta,,,7,18,V,R,
45,45,3,1,0,53,27,1017,['c'],1,left,['9'],5,523,[0.17755633],95,53,easy,minus,dotcolour,beta,,,7,18,V,R,
46,46,4,1,0,44,36,717,['c'],1,left,['9'],5,315,[0.16120513],97,44,hard,minus,dotcolour,beta,,,7,18,V,R,
47,47,5,1,0,47,33,584,['c'],1,left,['9'],5,240,[0.08076554],72,47,medium,minus,dotcolour,beta,,,7,18,V,R,
48,48,6,1,0,27,53,767,['n'],1,right,['0'],6,288,[-0.14832033],96,53,easy,minus,dotcolour,beta,,,7,18,V,R,
49,49,7,1,0,44,36,716,['c'],1,left,['8'],4,402,[0.11841334],86,44,hard,minus,dotcolour,beta,,,7,18,V,R,
50,50,8,1,0,33,47,699,['c'],0,right,['8'],4,495,[-0.24339722],0,47,medium,minus,dotcolour,beta,,,7,18,V,R,
51,51,9,1,0,47,33,1249,['c'],1,left,['8'],4,1835,[0.19189675],86,47,medium,minus,dotcolour,beta,,,7,18,V,R,
52,52,10,1,0,27,53,949,['n'],1,right,['0'],6,604,[-0.30019411],100,53,easy,minus,dotcolour,beta,,,7,18,V,R,
53,53,11,1,0,33,47,1266,['c'],0,right,['8'],4,570,[0.10664141],77,47,medium,minus,dotcolour,beta,,,7,18,V,R,
54,54,12,1,0,47,33,633,['c'],1,left,['0'],6,555,[0.03322608],37,47,medium,minus,dotcolour,beta,,,7,18,V,R,
55,55,13,1,0,27,53,850,['n'],1,right,['0'],6,283,[-0.13548687],94,53,easy,minus,dotcolour,beta,,,7,18,V,R,
56,56,14,1,0,47,33,1150,['c'],1,left,['0'],6,2099,[0.15429454],77,47,medium,minus,dotcolour,beta,,,7,18,V,R,
57,57,15,1,0,44,36,3799,['n'],0,left,['2'],2,1424,[0.02221426],24,44,hard,minus,dotcolour,beta,,,7,18,V,R,
58,58,16,1,0,36,44,1416,['n'],1,right,['8'],4,655,[-0.12385901],82,44,hard,minus,dotcolour,beta,,,7,18,V,R,
59,59,17,1,0,36,44,1116,['n'],1,right,['9'],5,409,[-0.11343712],84,44,hard,minus,dotcolour,beta,,,7,18,V,R,
60,60,18,1,0,36,44,1316,['n'],1,right,['8'],4,413,[-0.15806271],95,44,hard,minus,dotcolour,beta,,,7,18,V,R,
61,61,19,1,0,53,27,667,['c'],1,left,['9'],5,507,[0.10304774],77,53,easy,minus,dotcolour,beta,,,7,18,V,R,
62,62,20,1,0,36,44,934,['n'],1,right,['2'],2,1034,[-0.21339091],94,44,hard,minus,dotcolour,beta,,,7,18,V,R,
63,63,21,1,0,47,33,899,['c'],1,left,['0'],6,335,[0.06506526],57,47,medium,minus,dotcolour,beta,,,7,18,V,R,
64,64,22,1,0,53,27,1618,['c'],1,left,['0'],6,281,[0.08708124],74,53,easy,minus,dotcolour,beta,,,7,18,V,R,
65,65,23,1,0,27,53,833,['n'],1,right,['9'],5,486,[-0.26781288],100,53,easy,minus,dotcolour,beta,,,7,18,V,R,
66,66,24,1,0,36,44,1216,['c'],0,right,['9'],5,282,[0.10843623],86,44,hard,minus,dotcolour,beta,,,7,18,V,R,
67,67,25,1,0,27,53,631,['n'],1,right,['9'],5,295,[-0.23983412],100,53,easy,minus,dotcolour,beta,,,7,18,V,R,
68,68,26,1,0,36,44,731,['n'],1,right,['9'],5,263,[-0.11816866],90,44,hard,minus,dotcolour,beta,,,7,18,V,R,
69,69,27,1,0,33,47,666,['n'],1,right,['8'],4,315,[-0.12145995],89,47,medium,minus,dotcolour,beta,,,7,18,V,R,
70,70,28,1,0,44,36,766,['c'],1,left,['8'],4,281,[0.06285222],56,44,hard,minus,dotcolour,beta,,,7,18,V,R,
71,71,29,1,0,44,36,816,['c'],1,left,['8'],4,262,[0.08317868],73,44,hard,minus,dotcolour,beta,,,7,18,V,R,
72,72,30,1,0,53,27,517,['c'],1,left,['9'],5,600,[0.11325797],79,53,easy,minus,dotcolour,beta,,,7,18,V,R,
73,73,31,1,0,44,36,750,['c'],1,left,['0'],6,204,[0.07976324],72,44,hard,minus,dotcolour,beta,,,7,18,V,R,
74,74,32,1,0,53,27,733,['c'],1,left,['0'],6,231,[0.15117703],97,53,easy,minus,dotcolour,beta,,,7,18,V,R,
75,75,33,1,0,36,44,801,['n'],1,right,['8'],4,271,[-0.1231338],91,44,hard,minus,dotcolour,beta,,,7,18,V,R,
76,76,34,1,0,47,33,617,['c'],1,left,['9'],5,205,[0.13578461],96,47,medium,minus,dotcolour,beta,,,7,18,V,R,
77,77,35,1,0,27,53,734,['n'],1,right,['0'],6,633,[-0.06940017],58,53,easy,minus,dotcolour,beta,,,7,18,V,R,
78,78,36,1,0,44,36,833,['c'],1,left,['9'],5,310,[0.07071955],62,44,hard,minus,dotcolour,beta,,,7,18,V,R,
79,79,37,1,0,33,47,1134,['c'],0,right,['9'],5,470,[-0.01541509],13,47,medium,minus,dotcolour,beta,,,7,18,V,R,
80,80,38,1,0,53,27,633,['c'],1,left,['9'],5,234,[0.05893555],53,53,easy,minus,dotcolour,beta,,,7,18,V,R,
81,81,39,1,0,33,47,650,['c'],0,right,['9'],5,272,[0.10017939],82,47,medium,minus,dotcolour,beta,,,7,18,V,R,
82,82,40,1,0,47,33,1183,['n'],0,left,['8'],4,278,[0.05806147],2,47,medium,minus,dotcolour,beta,,,7,18,V,R,
83,83,41,1,0,27,53,1081,['n'],1,right,['0'],6,465,[-0.1353716],89,53,easy,minus,dotcolour,beta,,,7,18,V,R,
84,84,0,2,0,53,27,966,['c'],1,left,['0'],6,375,[0.06475233],57,53,easy,minus,dotcolour,beta,,,7,18,V,R,
85,85,1,2,0,33,47,665,['c'],0,right,['8'],4,462,[0.06735011],58,47,medium,minus,dotcolour,beta,,,7,18,V,R,
86,86,2,2,0,36,44,866,['n'],1,right,['9'],5,314,[-0.06709295],59,44,hard,minus,dotcolour,beta,,,7,18,V,R,
87,87,3,2,0,44,36,717,['c'],1,left,['8'],4,330,[-0.01594594],10,44,hard,minus,dotcolour,beta,,,7,18,V,R,
88,88,4,2,0,44,36,999,['c'],1,left,['8'],4,294,[0.01872502],23,44,hard,minus,dotcolour,beta,,,7,18,V,R,
89,89,5,2,0,36,44,1383,['n'],1,right,['9'],5,276,[-0.01136611],18,44,hard,minus,dotcolour,beta,,,7,18,V,R,
90,90,6,2,0,36,44,1133,['n'],1,right,['9'],5,309,[-0.01593643],22,44,hard,minus,dotcolour,beta,,,7,18,V,R,
91,91,7,2,0,27,53,883,['n'],1,right,['8'],4,262,[-0.10294317],84,53,easy,minus,dotcolour,beta,,,7,18,V,R,
92,92,8,2,0,36,44,796,['n'],1,right,['8'],4,269,[-0.11268562],88,44,hard,minus,dotcolour,beta,,,7,18,V,R,
93,93,9,2,0,44,36,783,['c'],1,left,['8'],4,284,[0.06696862],60,44,hard,minus,dotcolour,beta,,,7,18,V,R,
94,94,10,2,0,27,53,1600,['n'],1,right,['8'],4,266,[-0.06022935],54,53,easy,minus,dotcolour,beta,,,7,18,V,R,
95,95,11,2,0,53,27,783,['c'],1,left,['9'],5,281,[0.14384401],95,53,easy,minus,dotcolour,beta,,,7,18,V,R,
96,96,12,2,0,27,53,767,['n'],1,right,['9'],5,272,[-0.01465805],20,53,easy,minus,dotcolour,beta,,,7,18,V,R,
97,97,13,2,0,53,27,566,['c'],1,left,['9'],5,600,[0.30557794],100,53,easy,minus,dotcolour,beta,,,7,18,V,R,
98,98,14,2,0,53,27,633,['c'],1,left,['9'],5,296,[0.16284696],97,53,easy,minus,dotcolour,beta,,,7,18,V,R,
99,99,15,2,0,47,33,633,['c'],1,left,['9'],5,244,[0.11891674],91,47,medium,minus,dotcolour,beta,,,7,18,V,R,
100,100,16,2,0,33,47,516,['n'],1,right,['9'],5,230,[-0.15245338],97,47,medium,minus,dotcolour,beta,,,7,18,V,R,
101,101,17,2,0,33,47,650,['n'],1,right,['9'],5,172,[-0.04717541],41,47,medium,minus,dotcolour,beta,,,7,18,V,R,
102,102,18,2,0,27,53,850,['n'],1,right,['9'],5,389,[-0.15943284],95,53,easy,minus,dotcolour,beta,,,7,18,V,R,
103,103,19,2,0,44,36,733,['n'],0,left,['9'],5,329,[-0.08995203],75,44,hard,minus,dotcolour,beta,,,7,18,V,R,
104,104,20,2,0,47,33,567,['c'],1,left,['8'],4,358,[0.08751284],72,47,medium,minus,dotcolour,beta,,,7,18,V,R,
105,105,21,2,0,53,27,717,['c'],1,left,['0'],6,364,[0.16656754],96,53,easy,minus,dotcolour,beta,,,7,18,V,R,
106,106,22,2,0,47,33,833,['c'],1,left,['3'],3,966,[0.03827719],42,47,medium,minus,dotcolour,beta,,,7,18,V,R,
107,107,23,2,0,47,33,566,['c'],1,left,['9'],5,369,[0.12109316],87,47,medium,minus,dotcolour,beta,,,7,18,V,R,
108,108,24,2,0,44,36,633,['c'],1,left,['9'],5,322,[-0.06042401],2,44,hard,minus,dotcolour,beta,,,7,18,V,R,
109,109,25,2,0,53,27,700,['c'],1,left,['9'],5,202,[0.07573309],69,53,easy,minus,dotcolour,beta,,,7,18,V,R,
110,110,26,2,0,47,33,833,['c'],1,left,['9'],5,306,[0.03420325],33,47,medium,minus,dotcolour,beta,,,7,18,V,R,
111,111,27,2,0,36,44,1283,['n'],1,right,['3'],3,2444,[-0.26630867],92,44,hard,minus,dotcolour,beta,,,7,18,V,R,
112,112,28,2,0,33,47,798,['n'],1,right,['9'],5,290,[-0.12604376],91,47,medium,minus,dotcolour,beta,,,7,18,V,R,
113,113,29,2,0,47,33,1050,['c'],1,left,['9'],5,285,[0.02464703],26,47,medium,minus,dotcolour,beta,,,7,18,V,R,
114,114,30,2,0,47,33,897,['c'],1,left,['8'],4,263,[0.10944086],87,47,medium,minus,dotcolour,beta,,,7,18,V,R,
115,115,31,2,0,33,47,600,['c'],0,right,['8'],4,262,[0.00687107],15,47,medium,minus,dotcolour,beta,,,7,18,V,R,
116,116,32,2,0,33,47,684,['n'],1,right,['8'],4,290,[-0.13660967],94,47,medium,minus,dotcolour,beta,,,7,18,V,R,
117,117,33,2,0,27,53,550,['n'],1,right,['8'],4,281,[-0.11363386],88,53,easy,minus,dotcolour,beta,,,7,18,V,R,
118,118,34,2,0,44,36,615,['n'],0,left,['8'],4,334,[-0.07662292],66,44,hard,minus,dotcolour,beta,,,7,18,V,R,
119,119,35,2,0,27,53,467,['n'],1,right,['8'],4,215,[-0.06352534],58,53,easy,minus,dotcolour,beta,,,7,18,V,R,
120,120,36,2,0,53,27,614,['c'],1,left,['9'],5,247,[0.08282414],73,53,easy,minus,dotcolour,beta,,,7,18,V,R,
121,121,37,2,0,44,36,364,['c'],1,left,['9'],5,223,[0.04866598],43,44,hard,minus,dotcolour,beta,,,7,18,V,R,
122,122,38,2,0,33,47,1033,['n'],1,right,['9'],5,214,[-0.12054988],93,47,medium,minus,dotcolour,beta,,,7,18,V,R,
123,123,39,2,0,36,44,667,['n'],1,right,['9'],5,244,[-0.17568714],99,44,hard,minus,dotcolour,beta,,,7,18,V,R,
124,124,40,2,0,27,53,733,['n'],1,right,['8'],4,342,[-0.09078747],75,53,easy,minus,dotcolour,beta,,,7,18,V,R,
125,125,41,2,0,36,44,650,['c'],0,right,['8'],4,192,[0.07723818],71,44,hard,minus,dotcolour,beta,,,7,18,V,R,
126,0,0,3,1,44,36,950,['c'],1,left,['8'],4,202,[0.0885453],100,44,hard,plus,dotcolour,beta,,,7,18,V,R,
127,1,1,3,1,36,44,698,['n'],1,right,['8'],4,190,[-0.09195584],100,44,hard,plus,dotcolour,beta,,,7,18,V,R,
128,2,2,3,1,36,44,815,['n'],1,right,['8'],4,231,[-0.05410852],98,44,hard,plus,dotcolour,beta,,,7,18,V,R,
129,3,3,3,1,53,27,649,['c'],1,left,['8'],4,181,[0.06273761],99,53,easy,plus,dotcolour,beta,,,7,18,V,R,
130,4,4,3,1,27,53,598,['n'],1,right,['8'],4,215,[-0.08317822],100,53,easy,plus,dotcolour,beta,,,7,18,V,R,
131,5,5,3,1,53,27,831,['c'],1,left,['0'],6,398,[0.08061007],98,53,easy,plus,dotcolour,beta,,,7,18,V,R,
132,6,6,3,1,36,44,783,['n'],1,right,['8'],4,304,[0.00160797],85,44,hard,plus,dotcolour,beta,,,7,18,V,R,
133,7,7,3,1,44,36,816,['c'],1,left,['8'],4,181,[0.13610156],100,44,hard,plus,dotcolour,beta,,,7,18,V,R,
134,8,8,3,1,27,53,617,['n'],1,right,['0'],6,358,[-0.19404054],100,53,easy,plus,dotcolour,beta,,,7,18,V,R,
135,9,9,3,1,36,44,1317,['n'],1,right,['0'],6,220,[-0.08837842],100,44,hard,plus,dotcolour,beta,,,7,18,V,R,
136,10,10,3,1,33,47,716,['n'],1,right,['0'],6,200,[-0.06747521],99,47,medium,plus,dotcolour,beta,,,7,18,V,R,
137,11,11,3,1,27,53,630,['n'],1,right,['8'],4,263,[-0.08062231],99,53,easy,plus,dotcolour,beta,,,7,18,V,R,
138,12,12,3,1,53,27,799,['c'],1,left,['9'],5,270,[0.08192273],99,53,easy,plus,dotcolour,beta,,,7,18,V,R,
139,13,13,3,1,36,44,666,['n'],1,right,['9'],5,258,[-0.0309096],96,44,hard,plus,dotcolour,beta,,,7,18,V,R,
140,14,14,3,1,44,36,1516,['n'],0,left,['8'],4,284,[-0.08789874],99,44,hard,plus,dotcolour,beta,,,7,18,V,R,
141,15,15,3,1,44,36,665,['n'],0,left,['8'],4,559,[-0.16166687],99,44,hard,plus,dotcolour,beta,,,7,18,V,R,
142,16,16,3,1,44,36,931,['c'],1,left,['8'],4,205,[0.06481059],99,44,hard,plus,dotcolour,beta,,,7,18,V,R,
143,17,17,3,1,27,53,1233,['n'],1,right,['9'],5,292,[-0.17185213],100,53,easy,plus,dotcolour,beta,,,7,18,V,R,
144,18,18,3,1,27,53,667,['n'],1,right,['9'],5,255,[-0.23874695],100,53,easy,plus,dotcolour,beta,,,7,18,V,R,
145,19,19,3,1,47,33,1098,['n'],0,left,['9'],5,449,[-0.11107482],99,47,medium,plus,dotcolour,beta,,,7,18,V,R,
146,20,20,3,1,53,27,684,['c'],1,left,['0'],6,421,[0.15832745],100,53,easy,plus,dotcolour,beta,,,7,18,V,R,
147,21,21,3,1,44,36,784,['n'],0,left,['9'],5,351,[-0.0273484],93,44,hard,plus,dotcolour,beta,,,7,18,V,R,
148,22,22,3,1,33,47,567,['n'],1,right,['9'],5,571,[-0.18591177],100,47,medium,plus,dotcolour,beta,,,7,18,V,R,
149,23,23,3,1,44,36,917,['c'],1,left,['9'],5,377,[0.12787542],100,44,hard,plus,dotcolour,beta,,,7,18,V,R,
150,24,24,3,1,27,53,733,['n'],1,right,['9'],5,181,[-0.15402891],100,53,easy,plus,dotcolour,beta,,,7,18,V,R,
151,25,25,3,1,33,47,697,['n'],1,right,['9'],5,227,[-0.13365484],100,47,medium,plus,dotcolour,beta,,,7,18,V,R,
152,26,26,3,1,47,33,733,['c'],1,left,['0'],6,214,[0.08622117],100,47,medium,plus,dotcolour,beta,,,7,18,V,R,
153,27,27,3,1,53,27,600,['c'],1,left,['0'],6,231,[0.10625277],100,53,easy,plus,dotcolour,beta,,,7,18,V,R,
154,28,28,3,1,47,33,965,['c'],1,left,['0'],6,216,[0.0674066],99,47,medium,plus,dotcolour,beta,,,7,18,V,R,
155,29,29,3,1,53,27,667,['c'],1,left,['0'],6,230,[0.12380639],100,53,easy,plus,dotcolour,beta,,,7,18,V,R,
156,30,30,3,1,47,33,1150,['n'],0,left,['3'],3,808,[0.05980586],48,47,medium,plus,dotcolour,beta,,,7,18,V,R,
157,31,31,3,1,33,47,768,['n'],1,right,['9'],5,242,[-0.09916327],100,47,medium,plus,dotcolour,beta,,,7,18,V,R,
158,32,32,3,1,36,44,982,['c'],0,right,['8'],4,626,[-0.03591966],61,44,hard,plus,dotcolour,beta,,,7,18,V,R,
159,33,33,3,1,47,33,750,['c'],1,left,['0'],6,268,[0.14516364],100,47,medium,plus,dotcolour,beta,,,7,18,V,R,
160,34,34,3,1,53,27,834,['c'],1,left,['0'],6,241,[0.16800338],100,53,easy,plus,dotcolour,beta,,,7,18,V,R,
161,35,35,3,1,47,33,798,['c'],1,left,['0'],6,425,[0.12949546],99,47,medium,plus,dotcolour,beta,,,7,18,V,R,
162,36,36,3,1,33,47,1016,['n'],1,right,['8'],4,1048,[-0.19500136],99,47,medium,plus,dotcolour,beta,,,7,18,V,R,
163,37,37,3,1,33,47,633,['n'],1,right,['8'],4,805,[-0.00355753],77,47,medium,plus,dotcolour,beta,,,7,18,V,R,
164,38,38,3,1,36,44,1217,['n'],1,right,['8'],4,365,[-0.0436646],95,44,hard,plus,dotcolour,beta,,,7,18,V,R,
165,39,39,3,1,27,53,683,['n'],1,right,['8'],4,245,[-0.07160768],99,53,easy,plus,dotcolour,beta,,,7,18,V,R,
166,40,40,3,1,33,47,666,['n'],1,right,['8'],4,553,[-0.11719803],98,47,medium,plus,dotcolour,beta,,,7,18,V,R,
167,41,41,3,1,47,33,717,['c'],1,left,['8'],4,319,[0.18252527],100,47,medium,plus,dotcolour,beta,,,7,18,V,R,
168,42,0,4,1,53,27,1300,['c'],1,left,['8'],4,802,[0.25368844],100,53,easy,plus,dotcolour,beta,,,7,18,V,R,
169,43,1,4,1,27,53,683,['n'],1,right,['8'],4,231,[-0.09260602],100,53,easy,plus,dotcolour,beta,,,7,18,V,R,
170,44,2,4,1,33,47,900,['n'],1,right,['8'],4,203,[-0.10072209],100,47,medium,plus,dotcolour,beta,,,7,18,V,R,
171,45,3,4,1,27,53,634,['n'],1,right,['8'],4,203,[-0.11278602],100,53,easy,plus,dotcolour,beta,,,7,18,V,R,
172,46,4,4,1,44,36,1051,['n'],0,left,['8'],4,386,[-0.04138773],94,44,hard,plus,dotcolour,beta,,,7,18,V,R,
173,47,5,4,1,36,44,716,['n'],1,right,['8'],4,263,[-0.04950061],98,44,hard,plus,dotcolour,beta,,,7,18,V,R,
174,48,6,4,1,36,44,866,['c'],0,right,['8'],4,243,[0.07353661],99,44,hard,plus,dotcolour,beta,,,7,18,V,R,
175,49,7,4,1,33,47,617,['n'],1,right,['8'],4,185,[-0.03766437],98,47,medium,plus,dotcolour,beta,,,7,18,V,R,
176,50,8,4,1,27,53,648,['n'],1,right,['8'],4,217,[-0.10374091],100,53,easy,plus,dotcolour,beta,,,7,18,V,R,
177,51,9,4,1,44,36,650,['c'],1,left,['8'],4,151,[-0.00388708],92,44,hard,plus,dotcolour,beta,,,7,18,V,R,
178,52,10,4,1,36,44,1148,['n'],1,right,['8'],4,645,[-0.26718757],100,44,hard,plus,dotcolour,beta,,,7,18,V,R,
179,53,11,4,1,33,47,1017,['n'],1,right,['8'],4,267,[-0.15930201],100,47,medium,plus,dotcolour,beta,,,7,18,V,R,
180,54,12,4,1,36,44,883,['n'],1,right,['8'],4,239,[-0.12914183],100,44,hard,plus,dotcolour,beta,,,7,18,V,R,
181,55,13,4,1,36,44,1234,['c'],0,right,['8'],4,188,[0.08037417],100,44,hard,plus,dotcolour,beta,,,7,18,V,R,
182,56,14,4,1,44,36,1098,['c'],1,left,['8'],4,162,[0.11168537],100,44,hard,plus,dotcolour,beta,,,7,18,V,R,
183,57,15,4,1,53,27,649,['c'],1,left,['8'],4,508,[0.14314298],99,53,easy,plus,dotcolour,beta,,,7,18,V,R,
184,58,16,4,1,53,27,584,['c'],1,left,['9'],5,689,[0.30155375],100,53,easy,plus,dotcolour,beta,,,7,18,V,R,
185,59,17,4,1,33,47,981,['c'],0,right,['9'],5,815,[0.08982289],95,47,medium,plus,dotcolour,beta,,,7,18,V,R,
186,60,18,4,1,33,47,934,['n'],1,right,['8'],4,777,[-0.09142592],95,47,medium,plus,dotcolour,beta,,,7,18,V,R,
187,61,19,4,1,47,33,731,['c'],1,left,['8'],4,750,[0.05775169],91,47,medium,plus,dotcolour,beta,,,7,18,V,R,
188,62,20,4,1,27,53,766,['n'],1,right,['9'],5,386,[-0.10600525],99,53,easy,plus,dotcolour,beta,,,7,18,V,R,
189,63,21,4,1,36,44,699,['n'],1,right,['9'],5,369,[-0.0816806],98,44,hard,plus,dotcolour,beta,,,7,18,V,R,
190,64,22,4,1,33,47,483,['n'],1,right,['9'],5,207,[-0.06821428],99,47,medium,plus,dotcolour,beta,,,7,18,V,R,
191,65,23,4,1,53,27,1017,['c'],1,left,['8'],4,175,[0.1969155],100,53,easy,plus,dotcolour,beta,,,7,18,V,R,
192,66,24,4,1,27,53,784,['n'],1,right,['9'],5,282,[-0.12593159],100,53,easy,plus,dotcolour,beta,,,7,18,V,R,
193,67,25,4,1,27,53,700,['n'],1,right,['9'],5,292,[-0.12167363],100,53,easy,plus,dotcolour,beta,,,7,18,V,R,
194,68,26,4,1,47,33,899,['n'],0,left,['9'],5,205,[-0.00423524],92,47,medium,plus,dotcolour,beta,,,7,18,V,R,
195,69,27,4,1,47,33,1033,['n'],0,left,['8'],4,301,[-0.07915612],99,47,medium,plus,dotcolour,beta,,,7,18,V,R,
196,70,28,4,1,44,36,1367,['c'],1,left,['8'],4,292,[0.03720661],96,44,hard,plus,dotcolour,beta,,,7,18,V,R,
197,71,29,4,1,27,53,550,['n'],1,right,['9'],5,323,[-0.13162442],100,53,easy,plus,dotcolour,beta,,,7,18,V,R,
198,72,30,4,1,47,33,899,['c'],1,left,['8'],4,300,[0.08725152],99,47,medium,plus,dotcolour,beta,,,7,18,V,R,
199,73,31,4,1,53,27,1198,['c'],1,left,['8'],4,217,[0.10559893],100,53,easy,plus,dotcolour,beta,,,7,18,V,R,
200,74,32,4,1,44,36,798,['c'],1,left,['8'],4,217,[0.04394193],98,44,hard,plus,dotcolour,beta,,,7,18,V,R,
201,75,33,4,1,47,33,1784,['n'],0,left,['9'],5,226,[-0.05078288],98,47,medium,plus,dotcolour,beta,,,7,18,V,R,
202,76,34,4,1,33,47,666,['n'],1,right,['9'],5,271,[-0.08296651],99,47,medium,plus,dotcolour,beta,,,7,18,V,R,
203,77,35,4,1,47,33,1783,['c'],1,left,['8'],4,278,[0.09075425],99,47,medium,plus,dotcolour,beta,,,7,18,V,R,
204,78,36,4,1,44,36,650,['c'],1,left,['8'],4,266,[-0.02640503],73,44,hard,plus,dotcolour,beta,,,7,18,V,R,
205,79,37,4,1,53,27,1100,['c'],1,left,['8'],4,237,[0.17681736],100,53,easy,plus,dotcolour,beta,,,7,18,V,R,
206,80,38,4,1,36,44,700,['c'],0,right,['8'],4,128,[0.05673715],100,44,hard,plus,dotcolour,beta,,,7,18,V,R,
207,81,39,4,1,44,36,667,['c'],1,left,['8'],4,82,[0.02730176],99,44,hard,plus,dotcolour,beta,,,7,18,V,R,
208,82,40,4,1,47,33,1150,['c'],1,left,['8'],4,162,[0.10050198],100,47,medium,plus,dotcolour,beta,,,7,18,V,R,
209,83,41,4,1,53,27,531,['c'],1,left,['8'],4,199,[0.08011174],100,53,easy,plus,dotcolour,beta,,,7,18,V,R,
210,84,0,5,1,47,33,984,['c'],1,left,['9'],5,657,[0.09384273],97,47,medium,plus,dotcolour,beta,,,7,18,V,R,
211,85,1,5,1,47,33,701,['c'],1,left,['9'],5,188,[0.10712978],100,47,medium,plus,dotcolour,beta,,,7,18,V,R,
212,86,2,5,1,44,36,934,['c'],1,left,['9'],5,184,[0.04741455],99,44,hard,plus,dotcolour,beta,,,7,18,V,R,
213,87,3,5,1,44,36,700,['c'],1,left,['9'],5,174,[0.15429834],100,44,hard,plus,dotcolour,beta,,,7,18,V,R,
214,88,4,5,1,27,53,797,['n'],1,right,['0'],6,280,[-0.08955855],99,53,easy,plus,dotcolour,beta,,,7,18,V,R,
215,89,5,5,1,47,33,616,['c'],1,left,['8'],4,310,[0.09432531],99,47,medium,plus,dotcolour,beta,,,7,18,V,R,
216,90,6,5,1,36,44,667,['n'],1,right,['9'],5,272,[-0.11775676],100,44,hard,plus,dotcolour,beta,,,7,18,V,R,
217,91,7,5,1,53,27,950,['c'],1,left,['9'],5,104,[0.07778189],100,53,easy,plus,dotcolour,beta,,,7,18,V,R,
218,92,8,5,1,33,47,967,['n'],1,right,['9'],5,230,[0.02087364],79,47,medium,plus,dotcolour,beta,,,7,18,V,R,
219,93,9,5,1,47,33,799,['c'],1,left,['8'],4,142,[0.03643928],99,47,medium,plus,dotcolour,beta,,,7,18,V,R,
220,94,10,5,1,44,36,532,['c'],1,left,['9'],5,180,[0.08044597],100,44,hard,plus,dotcolour,beta,,,7,18,V,R,
221,95,11,5,1,36,44,614,['c'],0,right,['8'],4,342,[0.11029307],99,44,hard,plus,dotcolour,beta,,,7,18,V,R,
222,96,12,5,1,27,53,600,['n'],1,right,['9'],5,393,[-0.1057025],99,53,easy,plus,dotcolour,beta,,,7,18,V,R,
223,97,13,5,1,47,33,516,['c'],1,left,['9'],5,182,[0.08764173],100,47,medium,plus,dotcolour,beta,,,7,18,V,R,
224,98,14,5,1,33,47,650,['n'],1,right,['9'],5,182,[-0.13704144],100,47,medium,plus,dotcolour,beta,,,7,18,V,R,
225,99,15,5,1,53,27,498,['c'],1,left,['9'],5,164,[0.16709932],100,53,easy,plus,dotcolour,beta,,,7,18,V,R,
226,100,16,5,1,27,53,649,['n'],1,right,['9'],5,148,[-0.13244885],100,53,easy,plus,dotcolour,beta,,,7,18,V,R,
227,101,17,5,1,36,44,1064,['n'],1,right,['9'],5,197,[-0.15862489],100,44,hard,plus,dotcolour,beta,,,7,18,V,R,
228,102,18,5,1,53,27,583,['c'],1,left,['0'],6,295,[0.13766637],100,53,easy,plus,dotcolour,beta,,,7,18,V,R,
229,103,19,5,1,33,47,898,['n'],1,right,['0'],6,144,[-0.04868598],99,47,medium,plus,dotcolour,beta,,,7,18,V,R,
230,104,20,5,1,53,27,680,['c'],1,left,['0'],6,128,[0.12986071],100,53,easy,plus,dotcolour,beta,,,7,18,V,R,
231,105,21,5,1,44,36,1084,['c'],1,left,['8'],4,313,[0.04848777],97,44,hard,plus,dotcolour,beta,,,7,18,V,R,
232,106,22,5,1,47,33,914,['c'],1,left,['3'],3,937,[0.10100153],95,47,medium,plus,dotcolour,beta,,,7,18,V,R,
233,107,23,5,1,27,53,697,['n'],1,right,['0'],6,216,[-0.00896266],92,53,easy,plus,dotcolour,beta,,,7,18,V,R,
234,108,24,5,1,53,27,632,['c'],1,left,['0'],6,224,[0.11141308],100,53,easy,plus,dotcolour,beta,,,7,18,V,R,
235,109,25,5,1,44,36,917,['c'],1,left,['8'],4,355,[0.03412311],94,44,hard,plus,dotcolour,beta,,,7,18,V,R,
236,110,26,5,1,36,44,833,['n'],1,right,['8'],4,244,[-0.01838354],94,44,hard,plus,dotcolour,beta,,,7,18,V,R,
237,111,27,5,1,44,36,880,['n'],0,left,['8'],4,280,[-0.08638293],99,44,hard,plus,dotcolour,beta,,,7,18,V,R,
238,112,28,5,1,36,44,1233,['n'],1,right,['8'],4,2525,[-0.1090453],87,44,hard,plus,dotcolour,beta,,,7,18,V,R,
239,113,29,5,1,53,27,1549,['c'],1,left,['8'],4,267,[0.09285035],99,53,easy,plus,dotcolour,beta,,,7,18,V,R,
240,114,30,5,1,33,47,500,['n'],1,right,['0'],6,381,[-0.1794355],100,47,medium,plus,dotcolour,beta,,,7,18,V,R,
241,115,31,5,1,36,44,849,['n'],1,right,['0'],6,197,[-0.08665896],100,44,hard,plus,dotcolour,beta,,,7,18,V,R,
242,116,32,5,1,33,47,1066,['n'],1,right,['8'],4,212,[-0.13228648],100,47,medium,plus,dotcolour,beta,,,7,18,V,R,
243,117,33,5,1,33,47,884,['n'],1,right,['9'],5,249,[-0.08524149],99,47,medium,plus,dotcolour,beta,,,7,18,V,R,
244,118,34,5,1,27,53,650,['n'],1,right,['8'],4,310,[-0.15772653],100,53,easy,plus,dotcolour,beta,,,7,18,V,R,
245,119,35,5,1,27,53,734,['n'],1,right,['0'],6,302,[-0.11702456],100,53,easy,plus,dotcolour,beta,,,7,18,V,R,
246,120,36,5,1,27,53,1633,['n'],1,right,['3'],3,858,[-0.03623905],86,53,easy,plus,dotcolour,beta,,,7,18,V,R,
247,121,37,5,1,33,47,650,['n'],1,right,['8'],4,238,[-0.02592974],95,47,medium,plus,dotcolour,beta,,,7,18,V,R,
248,122,38,5,1,44,36,617,['n'],0,left,['8'],4,205,[-0.02966959],97,44,hard,plus,dotcolour,beta,,,7,18,V,R,
249,123,39,5,1,47,33,799,['c'],1,left,['8'],4,110,[0.05951999],100,47,medium,plus,dotcolour,beta,,,7,18,V,R,
250,124,40,5,1,36,44,584,['n'],1,right,['8'],4,123,[-0.07214565],100,44,hard,plus,dotcolour,beta,,,7,18,V,R,
251,125,41,5,1,53,27,734,['c'],1,left,['9'],5,130,[0.09078386],100,53,easy,plus,dotcolour,beta,,,7,18,V,R,
252,0,0,6,2,47,33,1467,['n'],0,left,['8'],4,492,[0.06138452],5,47,medium,minus,dotcolour,beta,,,7,18,V,R,
253,1,1,6,2,44,36,2000,['n'],0,left,['8'],4,762,[-0.03010417],37,44,hard,minus,dotcolour,beta,,,7,18,V,R,
254,2,2,6,2,47,33,633,['n'],0,left,['8'],4,331,[-0.11208098],85,47,medium,minus,dotcolour,beta,,,7,18,V,R,
255,3,3,6,2,53,27,717,['c'],1,left,['8'],4,274,[0.20142091],99,53,easy,minus,dotcolour,beta,,,7,18,V,R,
256,4,4,6,2,33,47,800,['c'],0,right,['8'],4,120,[0.06260912],59,47,medium,minus,dotcolour,beta,,,7,18,V,R,
257,5,5,6,2,53,27,733,['c'],1,left,['8'],4,111,[0.03678052],27,53,easy,minus,dotcolour,beta,,,7,18,V,R,
258,6,6,6,2,33,47,1448,['n'],1,right,['8'],4,210,[-0.1116474],90,47,medium,minus,dotcolour,beta,,,7,18,V,R,
259,7,7,6,2,47,33,1117,['c'],1,left,['8'],4,157,[0.09983844],88,47,medium,minus,dotcolour,beta,,,7,18,V,R,
260,8,8,6,2,33,47,767,['c'],0,right,['8'],4,290,[0.0563649],51,47,medium,minus,dotcolour,beta,,,7,18,V,R,
261,9,9,6,2,27,53,916,['n'],1,right,['8'],4,226,[-0.09279534],80,53,easy,minus,dotcolour,beta,,,7,18,V,R,
262,10,10,6,2,27,53,549,['n'],1,right,['8'],4,164,[-0.08737621],80,53,easy,minus,dotcolour,beta,,,7,18,V,R,
263,11,11,6,2,47,33,649,['c'],1,left,['8'],4,133,[0.09646706],88,47,medium,minus,dotcolour,beta,,,7,18,V,R,
264,12,12,6,2,27,53,583,['n'],1,right,['8'],4,177,[-0.1300395],96,53,easy,minus,dotcolour,beta,,,7,18,V,R,
265,13,13,6,2,47,33,850,['c'],1,left,['8'],4,130,[0.09352355],87,47,medium,minus,dotcolour,beta,,,7,18,V,R,
266,14,14,6,2,27,53,650,['n'],1,right,['8'],4,180,[-0.12077415],94,53,easy,minus,dotcolour,beta,,,7,18,V,R,
267,15,15,6,2,36,44,582,['c'],0,right,['8'],4,142,[0.03334522],26,44,hard,minus,dotcolour,beta,,,7,18,V,R,
268,16,16,6,2,47,33,1900,['c'],1,left,['8'],4,213,[0.03471432],31,47,medium,minus,dotcolour,beta,,,7,18,V,R,
269,17,17,6,2,33,47,783,['n'],1,right,['8'],4,199,[-0.15814566],98,47,medium,minus,dotcolour,beta,,,7,18,V,R,
270,18,18,6,2,27,53,1416,['n'],1,right,['8'],4,311,[-0.13370134],93,53,easy,minus,dotcolour,beta,,,7,18,V,R,
271,19,19,6,2,33,47,666,['n'],1,right,['8'],4,209,[-0.0866725],77,47,medium,minus,dotcolour,beta,,,7,18,V,R,
272,20,20,6,2,44,36,916,['c'],1,left,['8'],4,382,[0.10563802],81,44,hard,minus,dotcolour,beta,,,7,18,V,R,
273,21,21,6,2,44,36,1183,['c'],1,left,['8'],4,104,[0.05838453],54,44,hard,minus,dotcolour,beta,,,7,18,V,R,
274,22,22,6,2,36,44,1084,['c'],0,right,['8'],4,145,[0.07806839],74,44,hard,minus,dotcolour,beta,,,7,18,V,R,
275,23,23,6,2,53,27,581,['c'],1,left,['9'],5,141,[0.10754554],92,53,easy,minus,dotcolour,beta,,,7,18,V,R,
276,24,24,6,2,27,53,681,['n'],1,right,['9'],5,326,[-0.11928485],88,53,easy,minus,dotcolour,beta,,,7,18,V,R,
277,25,25,6,2,44,36,699,['c'],1,left,['9'],5,133,[0.05120952],45,44,hard,minus,dotcolour,beta,,,7,18,V,R,
278,26,26,6,2,27,53,564,['n'],1,right,['9'],5,259,[-0.08506551],74,53,easy,minus,dotcolour,beta,,,7,18,V,R,
279,27,27,6,2,33,47,881,['n'],1,right,['8'],4,326,[-0.07124243],62,47,medium,minus,dotcolour,beta,,,7,18,V,R,
280,28,28,6,2,53,27,601,['c'],1,left,['8'],4,234,[0.10590265],87,53,easy,minus,dotcolour,beta,,,7,18,V,R,
281,29,29,6,2,36,44,632,['n'],1,right,['0'],6,633,[-0.08449935],66,44,hard,minus,dotcolour,beta,,,7,18,V,R,
282,30,30,6,2,53,27,683,['c'],1,left,['0'],6,197,[0.07426233],68,53,easy,minus,dotcolour,beta,,,7,18,V,R,
283,31,31,6,2,44,36,1564,['c'],1,left,['8'],4,136,[0.05741995],52,44,hard,minus,dotcolour,beta,,,7,18,V,R,
284,32,32,6,2,53,27,700,['c'],1,left,['8'],4,168,[0.0361194],30,53,easy,minus,dotcolour,beta,,,7,18,V,R,
285,33,33,6,2,33,47,583,['n'],1,right,['8'],4,299,[-0.11926878],89,47,medium,minus,dotcolour,beta,,,7,18,V,R,
286,34,34,6,2,47,33,600,['c'],1,left,['8'],4,248,[0.19442237],99,47,medium,minus,dotcolour,beta,,,7,18,V,R,
287,35,35,6,2,36,44,564,['n'],1,right,['8'],4,169,[-0.09444062],85,44,hard,minus,dotcolour,beta,,,7,18,V,R,
288,36,36,6,2,36,44,517,['n'],1,right,['8'],4,391,[-0.14638862],93,44,hard,minus,dotcolour,beta,,,7,18,V,R,
289,37,37,6,2,36,44,734,['c'],0,right,['8'],4,83,[0.02829149],15,44,hard,minus,dotcolour,beta,,,7,18,V,R,
290,38,38,6,2,36,44,1234,['n'],1,right,['8'],4,191,[-0.085128],77,44,hard,minus,dotcolour,beta,,,7,18,V,R,
291,39,39,6,2,44,36,1051,['c'],1,left,['8'],4,135,[0.07928125],76,44,hard,minus,dotcolour,beta,,,7,18,V,R,
292,40,40,6,2,44,36,834,['c'],1,left,['8'],4,153,[0.13062229],97,44,hard,minus,dotcolour,beta,,,7,18,V,R,
293,41,41,6,2,53,27,651,['c'],1,left,['8'],4,66,[0.13796467],100,53,easy,minus,dotcolour,beta,,,7,18,V,R,
294,42,0,7,2,27,53,917,['n'],1,right,['8'],4,224,[-0.16142085],98,53,easy,minus,dotcolour,beta,,,7,18,V,R,
295,43,1,7,2,33,47,734,['n'],1,right,['8'],4,155,[-0.13266217],97,47,medium,minus,dotcolour,beta,,,7,18,V,R,
296,44,2,7,2,47,33,550,['n'],0,left,['8'],4,184,[-0.05415609],49,47,medium,minus,dotcolour,beta,,,7,18,V,R,
297,45,3,7,2,36,44,733,['n'],1,right,['8'],4,189,[-0.04923765],43,44,hard,minus,dotcolour,beta,,,7,18,V,R,
298,46,4,7,2,53,27,634,['c'],1,left,['8'],4,157,[0.09710391],87,53,easy,minus,dotcolour,beta,,,7,18,V,R,
299,47,5,7,2,33,47,833,['n'],1,right,['8'],4,127,[-0.03466332],26,47,medium,minus,dotcolour,beta,,,7,18,V,R,
300,48,6,7,2,36,44,800,['n'],1,right,['8'],4,179,[-0.1009896],87,44,hard,minus,dotcolour,beta,,,7,18,V,R,
301,49,7,7,2,53,27,850,['c'],1,left,['8'],4,131,[0.13771569],98,53,easy,minus,dotcolour,beta,,,7,18,V,R,
302,50,8,7,2,33,47,633,['n'],1,right,['8'],4,117,[-0.08250587],81,47,medium,minus,dotcolour,beta,,,7,18,V,R,
303,51,9,7,2,36,44,882,['n'],1,right,['8'],4,119,[-0.10779434],94,44,hard,minus,dotcolour,beta,,,7,18,V,R,
304,52,10,7,2,53,27,550,['c'],1,left,['8'],4,125,[0.05758358],53,53,easy,minus,dotcolour,beta,,,7,18,V,R,
305,53,11,7,2,36,44,767,['n'],1,right,['8'],4,163,[-0.03713315],31,44,hard,minus,dotcolour,beta,,,7,18,V,R,
306,54,12,7,2,44,36,667,['c'],1,left,['8'],4,155,[0.03479644],28,44,hard,minus,dotcolour,beta,,,7,18,V,R,
307,55,13,7,2,36,44,733,['n'],1,right,['8'],4,185,[-0.02053801],19,44,hard,minus,dotcolour,beta,,,7,18,V,R,
308,56,14,7,2,53,27,616,['c'],1,left,['8'],4,122,[0.06398282],61,53,easy,minus,dotcolour,beta,,,7,18,V,R,
309,57,15,7,2,47,33,600,['c'],1,left,['8'],4,111,[0.0705718],69,47,medium,minus,dotcolour,beta,,,7,18,V,R,
310,58,16,7,2,44,36,467,['c'],1,left,['8'],4,121,[0.09533751],89,44,hard,minus,dotcolour,beta,,,7,18,V,R,
311,59,17,7,2,44,36,583,['c'],1,left,['8'],4,173,[0.0984645],86,44,hard,minus,dotcolour,beta,,,7,18,V,R,
312,60,18,7,2,44,36,731,['c'],1,left,['8'],4,139,[0.06040319],56,44,hard,minus,dotcolour,beta,,,7,18,V,R,
313,61,19,7,2,47,33,549,['c'],1,left,['8'],4,128,[0.07819405],76,47,medium,minus,dotcolour,beta,,,7,18,V,R,
314,62,20,7,2,36,44,450,['c'],0,right,['3'],3,738,[0.04327734],44,44,hard,minus,dotcolour,beta,,,7,18,V,R,
315,63,21,7,2,27,53,900,['n'],1,right,['8'],4,177,[-0.04911186],43,53,easy,minus,dotcolour,beta,,,7,18,V,R,
316,64,22,7,2,47,33,549,['c'],1,left,['8'],4,133,[0.03735781],29,47,medium,minus,dotcolour,beta,,,7,18,V,R,
317,65,23,7,2,33,47,534,['n'],1,right,['8'],4,140,[-0.05328695],47,47,medium,minus,dotcolour,beta,,,7,18,V,R,
318,66,24,7,2,53,27,716,['c'],1,left,['8'],4,147,[0.12039663],95,53,easy,minus,dotcolour,beta,,,7,18,V,R,
319,67,25,7,2,27,53,567,['n'],1,right,['8'],4,143,[-0.04179812],34,53,easy,minus,dotcolour,beta,,,7,18,V,R,
320,68,26,7,2,53,27,501,['c'],1,left,['8'],4,119,[0.07924093],77,53,easy,minus,dotcolour,beta,,,7,18,V,R,
321,69,27,7,2,53,27,2216,['c'],1,left,['8'],4,299,[0.1374816],94,53,easy,minus,dotcolour,beta,,,7,18,V,R,
322,70,28,7,2,47,33,566,['c'],1,left,['8'],4,209,[0.06808258],62,47,medium,minus,dotcolour,beta,,,7,18,V,R,
323,71,29,7,2,44,36,533,['c'],1,left,['8'],4,149,[0.10344162],90,44,hard,minus,dotcolour,beta,,,7,18,V,R,
324,72,30,7,2,27,53,633,['n'],1,right,['8'],4,399,[-0.21826946],99,53,easy,minus,dotcolour,beta,,,7,18,V,R,
325,73,31,7,2,33,47,583,['n'],1,right,['8'],4,152,[-0.0601866],55,47,medium,minus,dotcolour,beta,,,7,18,V,R,
326,74,32,7,2,47,33,850,['n'],0,left,['8'],4,185,[-0.08645295],78,47,medium,minus,dotcolour,beta,,,7,18,V,R,
327,75,33,7,2,27,53,583,['n'],1,right,['8'],4,156,[-0.08543365],80,53,easy,minus,dotcolour,beta,,,7,18,V,R,
328,76,34,7,2,33,47,599,['n'],1,right,['8'],4,183,[-0.11356106],92,47,medium,minus,dotcolour,beta,,,7,18,V,R,
329,77,35,7,2,27,53,484,['n'],1,right,['8'],4,125,[-0.12266241],97,53,easy,minus,dotcolour,beta,,,7,18,V,R,
330,78,36,7,2,47,33,666,['c'],1,left,['8'],4,87,[0.12537723],99,47,medium,minus,dotcolour,beta,,,7,18,V,R,
331,79,37,7,2,36,44,533,['n'],1,right,['8'],4,111,[-0.08309032],82,44,hard,minus,dotcolour,beta,,,7,18,V,R,
332,80,38,7,2,27,53,415,['c'],0,right,['1'],1,1115,[-0.009258],25,53,easy,minus,dotcolour,beta,,,7,18,V,R,
333,81,39,7,2,44,36,716,['n'],0,left,['8'],4,154,[-0.03583223],29,44,hard,minus,dotcolour,beta,,,7,18,V,R,
334,82,40,7,2,33,47,449,['n'],1,right,['8'],4,196,[-0.00623844],12,47,medium,minus,dotcolour,beta,,,7,18,V,R,
335,83,41,7,2,44,36,1084,['n'],0,left,['8'],4,154,[-0.02128985],17,44,hard,minus,dotcolour,beta,,,7,18,V,R,
336,84,0,8,2,53,27,1000,['c'],1,left,['8'],4,158,[0.09191487],84,53,easy,minus,dotcolour,beta,,,7,18,V,R,
337,85,1,8,2,36,44,584,['n'],1,right,['8'],4,145,[-0.13770514],98,44,hard,minus,dotcolour,beta,,,7,18,V,R,
338,86,2,8,2,47,33,584,['c'],1,left,['8'],4,61,[0.10947341],98,47,medium,minus,dotcolour,beta,,,7,18,V,R,
339,87,3,8,2,44,36,700,['c'],1,left,['8'],4,248,[0.12660885],93,44,hard,minus,dotcolour,beta,,,7,18,V,R,
340,88,4,8,2,53,27,416,['c'],1,left,['8'],4,143,[0.07878081],75,53,easy,minus,dotcolour,beta,,,7,18,V,R,
341,89,5,8,2,33,47,534,['n'],1,right,['8'],4,133,[-0.04953407],43,47,medium,minus,dotcolour,beta,,,7,18,V,R,
342,90,6,8,2,53,27,550,['c'],1,left,['8'],4,83,[0.11819552],98,53,easy,minus,dotcolour,beta,,,7,18,V,R,
343,91,7,8,2,53,27,483,['c'],1,left,['8'],4,93,[0.03457629],22,53,easy,minus,dotcolour,beta,,,7,18,V,R,
344,92,8,8,2,33,47,600,['n'],1,right,['8'],4,139,[-0.11693239],95,47,medium,minus,dotcolour,beta,,,7,18,V,R,
345,93,9,8,2,36,44,583,['n'],1,right,['8'],4,183,[-0.06976217],65,44,hard,minus,dotcolour,beta,,,7,18,V,R,
346,94,10,8,2,27,53,566,['n'],1,right,['8'],4,202,[-0.09934197],85,53,easy,minus,dotcolour,beta,,,7,18,V,R,
347,95,11,8,2,47,33,651,['c'],1,left,['8'],4,177,[0.08471837],78,47,medium,minus,dotcolour,beta,,,7,18,V,R,
348,96,12,8,2,27,53,699,['n'],1,right,['8'],4,223,[-0.09835388],84,53,easy,minus,dotcolour,beta,,,7,18,V,R,
349,97,13,8,2,27,53,517,['n'],1,right,['8'],4,162,[-0.06287413],58,53,easy,minus,dotcolour,beta,,,7,18,V,R,
350,98,14,8,2,47,33,567,['c'],1,left,['8'],4,142,[0.04744756],40,47,medium,minus,dotcolour,beta,,,7,18,V,R,
351,99,15,8,2,44,36,616,['c'],1,left,['8'],4,120,[0.09865382],90,44,hard,minus,dotcolour,beta,,,7,18,V,R,
352,100,16,8,2,47,33,663,['c'],1,left,['8'],4,106,[0.03328143],23,47,medium,minus,dotcolour,beta,,,7,18,V,R,
353,101,17,8,2,27,53,683,['n'],1,right,['8'],4,381,[-0.12994112],90,53,easy,minus,dotcolour,beta,,,7,18,V,R,
354,102,18,8,2,44,36,699,['c'],1,left,['8'],4,178,[0.10344612],89,44,hard,minus,dotcolour,beta,,,7,18,V,R,
355,103,19,8,2,33,47,663,['n'],1,right,['8'],4,154,[-0.03055889],24,47,medium,minus,dotcolour,beta,,,7,18,V,R,
356,104,20,8,2,33,47,850,['c'],0,right,['8'],4,107,[0.0404056],30,47,medium,minus,dotcolour,beta,,,7,18,V,R,
357,105,21,8,2,27,53,681,['n'],1,right,['8'],4,157,[-0.10233625],89,53,easy,minus,dotcolour,beta,,,7,18,V,R,
358,106,22,8,2,36,44,648,['n'],1,right,['8'],4,150,[-0.09543094],86,44,hard,minus,dotcolour,beta,,,7,18,V,R,
359,107,23,8,2,44,36,580,['c'],1,left,['8'],4,18,[0.0720835],90,44,hard,minus,dotcolour,beta,,,7,18,V,R,
360,108,24,8,2,36,44,649,['n'],1,right,['8'],4,97,[-0.03173697],20,44,hard,minus,dotcolour,beta,,,7,18,V,R,
361,109,25,8,2,36,44,517,['n'],1,right,['8'],4,209,[-0.15747852],98,44,hard,minus,dotcolour,beta,,,7,18,V,R,
362,110,26,8,2,36,44,433,['c'],0,right,['2'],2,2040,[-0.1087375],11,44,hard,minus,dotcolour,beta,,,7,18,V,R,
363,111,27,8,2,27,53,683,['n'],1,right,['8'],4,180,[-0.04124119],35,53,easy,minus,dotcolour,beta,,,7,18,V,R,
364,112,28,8,2,53,27,633,['c'],1,left,['8'],4,205,[0.10282161],87,53,easy,minus,dotcolour,beta,,,7,18,V,R,
365,113,29,8,2,53,27,517,['c'],1,left,['9'],5,265,[0.18096864],99,53,easy,minus,dotcolour,beta,,,7,18,V,R,
366,114,30,8,2,47,33,434,['c'],1,left,['9'],5,183,[0.07678637],71,47,medium,minus,dotcolour,beta,,,7,18,V,R,
367,115,31,8,2,33,47,1000,['n'],1,right,['8'],4,224,[-0.14506249],97,47,medium,minus,dotcolour,beta,,,7,18,V,R,
368,116,32,8,2,47,33,433,['c'],1,left,['8'],4,334,[0.15447143],96,47,medium,minus,dotcolour,beta,,,7,18,V,R,
369,117,33,8,2,44,36,716,['c'],1,left,['8'],4,270,[0.15187982],97,44,hard,minus,dotcolour,beta,,,7,18,V,R,
370,118,34,8,2,44,36,583,['c'],1,left,['8'],4,204,[0.00726255],13,44,hard,minus,dotcolour,beta,,,7,18,V,R,
371,119,35,8,2,33,47,1366,['n'],1,right,['8'],4,463,[-0.2251782],99,47,medium,minus,dotcolour,beta,,,7,18,V,R,
372,120,36,8,2,33,47,800,['n'],1,right,['8'],4,189,[-0.09221341],82,47,medium,minus,dotcolour,beta,,,7,18,V,R,
373,121,37,8,2,53,27,483,['c'],1,left,['8'],4,140,[0.05789282],53,53,easy,minus,dotcolour,beta,,,7,18,V,R,
374,122,38,8,2,27,53,430,['n'],1,right,['8'],4,166,[-0.07120067],67,53,easy,minus,dotcolour,beta,,,7,18,V,R,
375,123,39,8,2,36,44,814,['n'],1,right,['8'],4,200,[-0.08300638],75,44,hard,minus,dotcolour,beta,,,7,18,V,R,
376,124,40,8,2,44,36,683,['c'],1,left,['8'],4,142,[0.09292404],86,44,hard,minus,dotcolour,beta,,,7,18,V,R,
377,125,41,8,2,47,33,648,['c'],1,left,['8'],4,192,[0.0449639],39,47,medium,minus,dotcolour,beta,,,7,18,V,R,
378,0,0,9,3,47,33,834,['c'],1,left,['8'],4,546,[0.15422824],99,47,medium,plus,dotcolour,beta,,,7,18,V,R,
379,1,1,9,3,27,53,716,['c'],0,right,['8'],4,185,[0.04912429],99,53,easy,plus,dotcolour,beta,,,7,18,V,R,
380,2,2,9,3,27,53,566,['n'],1,right,['8'],4,212,[-0.1354938],100,53,easy,plus,dotcolour,beta,,,7,18,V,R,
381,3,3,9,3,36,44,967,['c'],0,right,['8'],4,134,[0.06253671],100,44,hard,plus,dotcolour,beta,,,7,18,V,R,
382,4,4,9,3,33,47,783,['n'],1,right,['8'],4,227,[-0.023607],95,47,medium,plus,dotcolour,beta,,,7,18,V,R,
383,5,5,9,3,44,36,732,['c'],1,left,['8'],4,198,[0.1233827],100,44,hard,plus,dotcolour,beta,,,7,18,V,R,
384,6,6,9,3,36,44,766,['c'],0,right,['8'],4,176,[0.02928039],97,44,hard,plus,dotcolour,beta,,,7,18,V,R,
385,7,7,9,3,47,33,801,['c'],1,left,['8'],4,122,[0.04372342],99,47,medium,plus,dotcolour,beta,,,7,18,V,R,
386,8,8,9,3,33,47,616,['n'],1,right,['8'],4,158,[-0.10654064],100,47,medium,plus,dotcolour,beta,,,7,18,V,R,
387,9,9,9,3,27,53,596,['n'],1,right,['8'],4,113,[-0.10996804],100,53,easy,plus,dotcolour,beta,,,7,18,V,R,
388,10,10,9,3,33,47,634,['n'],1,right,['8'],4,140,[-0.068967],100,47,medium,plus,dotcolour,beta,,,7,18,V,R,
389,11,11,9,3,27,53,717,['n'],1,right,['8'],4,147,[-0.09789778],100,53,easy,plus,dotcolour,beta,,,7,18,V,R,
390,12,12,9,3,53,27,467,['c'],1,left,['8'],4,148,[0.08664093],100,53,easy,plus,dotcolour,beta,,,7,18,V,R,
391,13,13,9,3,36,44,846,['n'],1,right,['8'],4,117,[-0.09136267],100,44,hard,plus,dotcolour,beta,,,7,18,V,R,
392,14,14,9,3,33,47,699,['n'],1,right,['8'],4,166,[-0.01254444],95,47,medium,plus,dotcolour,beta,,,7,18,V,R,
393,15,15,9,3,47,33,433,['c'],1,left,['8'],4,143,[0.0835684],100,47,medium,plus,dotcolour,beta,,,7,18,V,R,
394,16,16,9,3,36,44,517,['c'],0,right,['8'],4,174,[0.14414786],100,44,hard,plus,dotcolour,beta,,,7,18,V,R,
395,17,17,9,3,47,33,581,['c'],1,left,['8'],4,169,[0.08667849],100,47,medium,plus,dotcolour,beta,,,7,18,V,R,
396,18,18,9,3,27,53,549,['n'],1,right,['8'],4,142,[-0.17093834],100,53,easy,plus,dotcolour,beta,,,7,18,V,R,
397,19,19,9,3,27,53,717,['n'],1,right,['8'],4,212,[-0.10838374],100,53,easy,plus,dotcolour,beta,,,7,18,V,R,
398,20,20,9,3,44,36,631,['c'],1,left,['8'],4,148,[0.12359638],100,44,hard,plus,dotcolour,beta,,,7,18,V,R,
399,21,21,9,3,47,33,614,['c'],1,left,['9'],5,190,[0.12316894],100,47,medium,plus,dotcolour,beta,,,7,18,V,R,
400,22,22,9,3,33,47,717,['n'],1,right,['8'],4,171,[-0.03341413],98,47,medium,plus,dotcolour,beta,,,7,18,V,R,
401,23,23,9,3,33,47,531,['c'],0,right,['8'],4,240,[0.08490937],99,47,medium,plus,dotcolour,beta,,,7,18,V,R,
402,24,24,9,3,44,36,666,['c'],1,left,['9'],5,228,[0.11709249],100,44,hard,plus,dotcolour,beta,,,7,18,V,R,
403,25,25,9,3,36,44,814,['n'],1,right,['9'],5,196,[-0.09271382],100,44,hard,plus,dotcolour,beta,,,7,18,V,R,
404,26,26,9,3,53,27,600,['c'],1,left,['8'],4,269,[0.18507277],100,53,easy,plus,dotcolour,beta,,,7,18,V,R,
405,27,27,9,3,44,36,767,['c'],1,left,['9'],5,293,[0.12752239],100,44,hard,plus,dotcolour,beta,,,7,18,V,R,
406,28,28,9,3,53,27,433,['c'],1,left,['9'],5,105,[0.14735595],100,53,easy,plus,dotcolour,beta,,,7,18,V,R,
407,29,29,9,3,53,27,633,['c'],1,left,['9'],5,52,[0.07942574],100,53,easy,plus,dotcolour,beta,,,7,18,V,R,
408,30,30,9,3,47,33,667,['c'],1,left,['9'],5,97,[0.11554158],100,47,medium,plus,dotcolour,beta,,,7,18,V,R,
409,31,31,9,3,47,33,784,['c'],1,left,['8'],4,119,[0.08989219],100,47,medium,plus,dotcolour,beta,,,7,18,V,R,
410,32,32,9,3,33,47,750,['c'],0,right,['8'],4,110,[0.08764711],100,47,medium,plus,dotcolour,beta,,,7,18,V,R,
411,33,33,9,3,53,27,766,['c'],1,left,['8'],4,892,[0.14322456],98,53,easy,plus,dotcolour,beta,,,7,18,V,R,
412,34,34,9,3,36,44,932,['n'],1,right,['8'],4,132,[-0.08001794],100,44,hard,plus,dotcolour,beta,,,7,18,V,R,
413,35,35,9,3,53,27,617,['c'],1,left,['8'],4,103,[0.13115583],100,53,easy,plus,dotcolour,beta,,,7,18,V,R,
414,36,36,9,3,53,27,450,['c'],1,left,['9'],5,114,[0.15155712],100,53,easy,plus,dotcolour,beta,,,7,18,V,R,
415,37,37,9,3,44,36,517,['c'],1,left,['9'],5,90,[0.10746663],100,44,hard,plus,dotcolour,beta,,,7,18,V,R,
416,38,38,9,3,27,53,898,['n'],1,right,['8'],4,92,[-0.08215217],100,53,easy,plus,dotcolour,beta,,,7,18,V,R,
417,39,39,9,3,36,44,600,['c'],0,right,['9'],5,274,[0.05572744],98,44,hard,plus,dotcolour,beta,,,7,18,V,R,
418,40,40,9,3,44,36,600,['c'],1,left,['8'],4,48,[0.10314073],100,44,hard,plus,dotcolour,beta,,,7,18,V,R,
419,41,41,9,3,44,36,480,['c'],1,left,['8'],4,76,[0.03279932],100,44,hard,plus,dotcolour,beta,,,7,18,V,R,
420,42,0,10,3,53,27,867,['c'],1,left,['8'],4,88,[0.09162972],100,53,easy,plus,dotcolour,beta,,,7,18,V,R,
421,43,1,10,3,33,47,716,['c'],0,right,['8'],4,17,[0.07031854],100,47,medium,plus,dotcolour,beta,,,7,18,V,R,
422,44,2,10,3,27,53,881,['n'],1,right,['8'],4,119,[-0.06368095],100,53,easy,plus,dotcolour,beta,,,7,18,V,R,
423,45,3,10,3,36,44,614,['c'],0,right,['8'],4,51,[0.09025465],100,44,hard,plus,dotcolour,beta,,,7,18,V,R,
424,46,4,10,3,44,36,667,['c'],1,left,['8'],4,56,[0.05841596],100,44,hard,plus,dotcolour,beta,,,7,18,V,R,
425,47,5,10,3,27,53,533,['n'],1,right,['8'],4,105,[-0.14021927],100,53,easy,plus,dotcolour,beta,,,7,18,V,R,
426,48,6,10,3,27,53,947,['n'],1,right,['9'],5,112,[-0.08745155],100,53,easy,plus,dotcolour,beta,,,7,18,V,R,
427,49,7,10,3,36,44,1017,['c'],0,right,['8'],4,92,[0.01799229],99,44,hard,plus,dotcolour,beta,,,7,18,V,R,
428,50,8,10,3,27,53,583,['n'],1,right,['9'],5,450,[-0.09869003],98,53,easy,plus,dotcolour,beta,,,7,18,V,R,
429,51,9,10,3,47,33,681,['c'],1,left,['8'],4,46,[0.07355649],100,47,medium,plus,dotcolour,beta,,,7,18,V,R,
430,52,10,10,3,44,36,549,['c'],1,left,['8'],4,671,[0.10342016],97,44,hard,plus,dotcolour,beta,,,7,18,V,R,
431,53,11,10,3,53,27,548,['c'],1,left,['8'],4,119,[0.01262652],97,53,easy,plus,dotcolour,beta,,,7,18,V,R,
432,54,12,10,3,33,47,817,['n'],1,right,['9'],5,179,[-0.09368273],100,47,medium,plus,dotcolour,beta,,,7,18,V,R,
433,55,13,10,3,27,53,1067,['n'],1,right,['8'],4,234,[-0.04667327],98,53,easy,plus,dotcolour,beta,,,7,18,V,R,
434,56,14,10,3,47,33,647,['c'],1,left,['9'],5,184,[0.06692409],99,47,medium,plus,dotcolour,beta,,,7,18,V,R,
435,57,15,10,3,53,27,599,['c'],1,left,['9'],5,154,[0.08180789],100,53,easy,plus,dotcolour,beta,,,7,18,V,R,
436,58,16,10,3,47,33,732,['c'],1,left,['9'],5,160,[0.03793532],99,47,medium,plus,dotcolour,beta,,,7,18,V,R,
437,59,17,10,3,33,47,933,['n'],1,right,['9'],5,446,[-0.09426395],98,47,medium,plus,dotcolour,beta,,,7,18,V,R,
438,60,18,10,3,33,47,617,['n'],1,right,['8'],4,156,[-0.08079879],100,47,medium,plus,dotcolour,beta,,,7,18,V,R,
439,61,19,10,3,36,44,1167,['c'],0,right,['8'],4,73,[0.01662369],99,44,hard,plus,dotcolour,beta,,,7,18,V,R,
440,62,20,10,3,27,53,864,['n'],1,right,['9'],5,156,[-0.07905602],100,53,easy,plus,dotcolour,beta,,,7,18,V,R,
441,63,21,10,3,44,36,980,['n'],0,left,['8'],4,208,[-0.06924633],99,44,hard,plus,dotcolour,beta,,,7,18,V,R,
442,64,22,10,3,44,36,584,['c'],1,left,['8'],4,210,[0.0834491],100,44,hard,plus,dotcolour,beta,,,7,18,V,R,
443,65,23,10,3,47,33,666,['c'],1,left,['8'],4,87,[0.1312183],100,47,medium,plus,dotcolour,beta,,,7,18,V,R,
444,66,24,10,3,53,27,499,['c'],1,left,['9'],5,98,[0.04066069],100,53,easy,plus,dotcolour,beta,,,7,18,V,R,
445,67,25,10,3,36,44,1000,['n'],1,right,['8'],4,247,[-0.03956678],97,44,hard,plus,dotcolour,beta,,,7,18,V,R,
446,68,26,10,3,36,44,483,['c'],0,right,['9'],5,179,[0.0760539],100,44,hard,plus,dotcolour,beta,,,7,18,V,R,
447,69,27,10,3,47,33,750,['c'],1,left,['9'],5,175,[0.11816815],100,47,medium,plus,dotcolour,beta,,,7,18,V,R,
448,70,28,10,3,44,36,700,['c'],1,left,['0'],6,261,[0.04271251],97,44,hard,plus,dotcolour,beta,,,7,18,V,R,
449,71,29,10,3,33,47,765,['n'],1,right,['8'],4,269,[-0.02691899],95,47,medium,plus,dotcolour,beta,,,7,18,V,R,
450,72,30,10,3,53,27,530,['c'],1,left,['9'],5,262,[0.0521899],98,53,easy,plus,dotcolour,beta,,,7,18,V,R,
451,73,31,10,3,53,27,866,['c'],1,left,['8'],4,194,[0.06194792],99,53,easy,plus,dotcolour,beta,,,7,18,V,R,
452,74,32,10,3,36,44,783,['n'],1,right,['8'],4,156,[-0.07426351],100,44,hard,plus,dotcolour,beta,,,7,18,V,R,
453,75,33,10,3,36,44,682,['n'],1,right,['8'],4,196,[-0.11011083],100,44,hard,plus,dotcolour,beta,,,7,18,V,R,
454,76,34,10,3,44,36,366,['c'],1,left,['8'],4,263,[0.01910236],93,44,hard,plus,dotcolour,beta,,,7,18,V,R,
455,77,35,10,3,47,33,449,['c'],1,left,['8'],4,107,[0.04570647],100,47,medium,plus,dotcolour,beta,,,7,18,V,R,
456,78,36,10,3,33,47,1083,['n'],1,right,['8'],4,149,[-0.0875516],100,47,medium,plus,dotcolour,beta,,,7,18,V,R,
457,79,37,10,3,44,36,717,['c'],1,left,['8'],4,115,[0.08535702],100,44,hard,plus,dotcolour,beta,,,7,18,V,R,
458,80,38,10,3,47,33,866,['c'],1,left,['8'],4,109,[0.07463457],100,47,medium,plus,dotcolour,beta,,,7,18,V,R,
459,81,39,10,3,53,27,617,['c'],1,left,['8'],4,105,[0.09666439],100,53,easy,plus,dotcolour,beta,,,7,18,V,R,
460,82,40,10,3,27,53,967,['n'],1,right,['9'],5,160,[-0.13131117],100,53,easy,plus,dotcolour,beta,,,7,18,V,R,
461,83,41,10,3,33,47,765,['n'],1,right,['9'],5,284,[-0.03528046],96,47,medium,plus,dotcolour,beta,,,7,18,V,R,
462,84,0,11,3,33,47,2216,['c'],0,right,['3'],3,708,[-0.06595509],44,47,medium,plus,dotcolour,beta,,,7,18,V,R,
463,85,1,11,3,53,27,647,['c'],1,left,['8'],4,103,[0.1201282],100,53,easy,plus,dotcolour,beta,,,7,18,V,R,
464,86,2,11,3,53,27,414,['c'],1,left,['8'],4,67,[0.13938984],100,53,easy,plus,dotcolour,beta,,,7,18,V,R,
465,87,3,11,3,27,53,581,['n'],1,right,['8'],4,114,[-0.05048777],100,53,easy,plus,dotcolour,beta,,,7,18,V,R,
466,88,4,11,3,44,36,549,['c'],1,left,['8'],4,57,[0.09383063],100,44,hard,plus,dotcolour,beta,,,7,18,V,R,
467,89,5,11,3,27,53,600,['n'],1,right,['8'],4,64,[-0.0797858],100,53,easy,plus,dotcolour,beta,,,7,18,V,R,
468,90,6,11,3,36,44,2600,['n'],1,right,['8'],4,199,[-0.08511681],100,44,hard,plus,dotcolour,beta,,,7,18,V,R,
469,91,7,11,3,27,53,531,['n'],1,right,['8'],4,147,[-0.07378975],100,53,easy,plus,dotcolour,beta,,,7,18,V,R,
470,92,8,11,3,47,33,783,['c'],1,left,['8'],4,119,[0.09945965],100,47,medium,plus,dotcolour,beta,,,7,18,V,R,
471,93,9,11,3,27,53,583,['n'],1,right,['8'],4,131,[-0.061749],100,53,easy,plus,dotcolour,beta,,,7,18,V,R,
472,94,10,11,3,53,27,583,['c'],1,left,['8'],4,184,[0.18180085],100,53,easy,plus,dotcolour,beta,,,7,18,V,R,
473,95,11,11,3,33,47,881,['n'],1,right,['8'],4,167,[-0.05688272],99,47,medium,plus,dotcolour,beta,,,7,18,V,R,
474,96,12,11,3,44,36,600,['c'],1,left,['8'],4,129,[0.10075729],100,44,hard,plus,dotcolour,beta,,,7,18,V,R,
475,97,13,11,3,47,33,484,['c'],1,left,['8'],4,122,[0.11688661],100,47,medium,plus,dotcolour,beta,,,7,18,V,R,
476,98,14,11,3,36,44,867,['n'],1,right,['8'],4,140,[-0.1379848],100,44,hard,plus,dotcolour,beta,,,7,18,V,R,
477,99,15,11,3,44,36,717,['n'],0,left,['8'],4,163,[-0.06976148],100,44,hard,plus,dotcolour,beta,,,7,18,V,R,
478,100,16,11,3,33,47,581,['c'],0,right,['8'],4,63,[0.05259657],100,47,medium,plus,dotcolour,beta,,,7,18,V,R,
479,101,17,11,3,36,44,549,['c'],0,right,['8'],4,175,[0.01702096],96,44,hard,plus,dotcolour,beta,,,7,18,V,R,
480,102,18,11,3,53,27,500,['c'],1,left,['8'],4,117,[0.09239212],100,53,easy,plus,dotcolour,beta,,,7,18,V,R,
481,103,19,11,3,53,27,466,['c'],1,left,['9'],5,479,[0.0369062],92,53,easy,plus,dotcolour,beta,,,7,18,V,R,
482,104,20,11,3,36,44,1000,['n'],1,right,['8'],4,213,[-0.07777113],99,44,hard,plus,dotcolour,beta,,,7,18,V,R,
483,105,21,11,3,47,33,649,['c'],1,left,['8'],4,195,[0.11141588],100,47,medium,plus,dotcolour,beta,,,7,18,V,R,
484,106,22,11,3,27,53,781,['n'],1,right,['8'],4,181,[-0.09921239],100,53,easy,plus,dotcolour,beta,,,7,18,V,R,
485,107,23,11,3,53,27,630,['c'],1,left,['8'],4,110,[0.07135304],100,53,easy,plus,dotcolour,beta,,,7,18,V,R,
486,108,24,11,3,27,53,933,['n'],1,right,['8'],4,253,[-0.1608776],100,53,easy,plus,dotcolour,beta,,,7,18,V,R,
487,109,25,11,3,33,47,1066,['n'],1,right,['8'],4,186,[-0.13909623],100,47,medium,plus,dotcolour,beta,,,7,18,V,R,
488,110,26,11,3,36,44,848,['c'],0,right,['8'],4,153,[0.08135369],100,44,hard,plus,dotcolour,beta,,,7,18,V,R,
489,111,27,11,3,36,44,616,['n'],1,right,['8'],4,372,[-0.22103178],100,44,hard,plus,dotcolour,beta,,,7,18,V,R,
490,112,28,11,3,47,33,597,['c'],1,left,['9'],5,262,[0.02141245],94,47,medium,plus,dotcolour,beta,,,7,18,V,R,
491,113,29,11,3,33,47,699,['c'],0,right,['8'],4,153,[0.04384163],99,47,medium,plus,dotcolour,beta,,,7,18,V,R,
492,114,30,11,3,33,47,732,['n'],1,right,['8'],4,167,[0.01561581],85,47,medium,plus,dotcolour,beta,,,7,18,V,R,
493,115,31,11,3,44,36,667,['n'],0,left,['8'],4,159,[0.00330107],91,44,hard,plus,dotcolour,beta,,,7,18,V,R,
494,116,32,11,3,47,33,633,['c'],1,left,['8'],4,200,[-0.02109514],80,47,medium,plus,dotcolour,beta,,,7,18,V,R,
495,117,33,11,3,36,44,1466,['c'],0,right,['8'],4,151,[0.04027618],99,44,hard,plus,dotcolour,beta,,,7,18,V,R,
496,118,34,11,3,53,27,764,['c'],1,left,['9'],5,163,[0.07068333],100,53,easy,plus,dotcolour,beta,,,7,18,V,R,
497,119,35,11,3,33,47,783,['n'],1,right,['9'],5,199,[-0.12459883],100,47,medium,plus,dotcolour,beta,,,7,18,V,R,
498,120,36,11,3,44,36,597,['c'],1,left,['9'],5,344,[0.11933548],100,44,hard,plus,dotcolour,beta,,,7,18,V,R,
499,121,37,11,3,44,36,533,['c'],1,left,['0'],6,214,[0.19673123],100,44,hard,plus,dotcolour,beta,,,7,18,V,R,
500,122,38,11,3,44,36,614,['c'],1,left,['0'],6,230,[0.04487703],98,44,hard,plus,dotcolour,beta,,,7,18,V,R,
501,123,39,11,3,47,33,616,['c'],1,left,['0'],6,237,[0.079138],99,47,medium,plus,dotcolour,beta,,,7,18,V,R,
502,124,40,11,3,27,53,750,['n'],1,right,['0'],6,199,[-0.04758448],98,53,easy,plus,dotcolour,beta,,,7,18,V,R,
503,125,41,11,3,47,33,765,['c'],1,left,['0'],6,186,[0.14791811],100,47,medium,plus,dotcolour,beta,,,7,18,V,R,
504,0,0,12,4,33,47,1583,['n'],1,right,['8'],4,415,[-0.12888835],89,47,medium,minus,dotcolour,beta,,,7,18,V,R,
505,1,1,12,4,33,47,600,['n'],1,right,['0'],6,432,[-0.14640665],92,47,medium,minus,dotcolour,beta,,,7,18,V,R,
506,2,2,12,4,47,33,633,['c'],1,left,['0'],6,166,[0.14532551],98,47,medium,minus,dotcolour,beta,,,7,18,V,R,
507,3,3,12,4,44,36,651,['c'],1,left,['0'],6,263,[0.18947329],99,44,hard,minus,dotcolour,beta,,,7,18,V,R,
508,4,4,12,4,44,36,883,['c'],1,left,['8'],4,130,[0.04969053],43,44,hard,minus,dotcolour,beta,,,7,18,V,R,
509,5,5,12,4,47,33,949,['c'],1,left,['8'],4,344,[0.2246019],99,47,medium,minus,dotcolour,beta,,,7,18,V,R,
510,6,6,12,4,44,36,615,['c'],1,left,['8'],4,90,[0.07116365],72,44,hard,minus,dotcolour,beta,,,7,18,V,R,
511,7,7,12,4,27,53,601,['n'],1,right,['8'],4,145,[-0.106057],92,53,easy,minus,dotcolour,beta,,,7,18,V,R,
512,8,8,12,4,27,53,483,['n'],1,right,['8'],4,73,[-0.10544329],97,53,easy,minus,dotcolour,beta,,,7,18,V,R,
513,9,9,12,4,44,36,734,['n'],0,left,['8'],4,58,[-0.11391329],99,44,hard,minus,dotcolour,beta,,,7,18,V,R,
514,10,10,12,4,44,36,985,['c'],1,left,['8'],4,121,[0.09976061],91,44,hard,minus,dotcolour,beta,,,7,18,V,R,
515,11,11,12,4,33,47,567,['n'],1,right,['8'],4,119,[-0.07698381],75,47,medium,minus,dotcolour,beta,,,7,18,V,R,
516,12,12,12,4,36,44,698,['n'],1,right,['8'],4,128,[-0.08483899],81,44,hard,minus,dotcolour,beta,,,7,18,V,R,
517,13,13,12,4,27,53,1383,['n'],1,right,['8'],4,116,[-0.07278791],71,53,easy,minus,dotcolour,beta,,,7,18,V,R,
518,14,14,12,4,47,33,1083,['c'],1,left,['8'],4,166,[0.08575304],79,47,medium,minus,dotcolour,beta,,,7,18,V,R,
519,15,15,12,4,53,27,565,['c'],1,left,['8'],4,186,[0.10021842],87,53,easy,minus,dotcolour,beta,,,7,18,V,R,
520,16,16,12,4,33,47,617,['n'],1,right,['8'],4,122,[-0.08608147],83,47,medium,minus,dotcolour,beta,,,7,18,V,R,
521,17,17,12,4,53,27,566,['c'],1,left,['8'],4,313,[-6.18574978e-05],14,53,easy,minus,dotcolour,beta,,,7,18,V,R,
522,18,18,12,4,47,33,667,['c'],1,left,['8'],4,243,[0.10410763],85,47,medium,minus,dotcolour,beta,,,7,18,V,R,
523,19,19,12,4,36,44,834,['n'],1,right,['8'],4,184,[-0.14160492],97,44,hard,minus,dotcolour,beta,,,7,18,V,R,
524,20,20,12,4,44,36,800,['c'],1,left,['8'],4,306,[0.02446564],27,44,hard,minus,dotcolour,beta,,,7,18,V,R,
525,21,21,12,4,33,47,683,['n'],1,right,['8'],4,172,[-0.08120242],75,47,medium,minus,dotcolour,beta,,,7,18,V,R,
526,22,22,12,4,33,47,499,['n'],1,right,['8'],4,131,[-0.05824754],53,47,medium,minus,dotcolour,beta,,,7,18,V,R,
527,23,23,12,4,27,53,598,['n'],1,right,['8'],4,118,[-0.04087464],32,53,easy,minus,dotcolour,beta,,,7,18,V,R,
528,24,24,12,4,36,44,664,['n'],1,right,['8'],4,208,[-0.09829293],84,44,hard,minus,dotcolour,beta,,,7,18,V,R,
529,25,25,12,4,53,27,867,['c'],1,left,['8'],4,174,[0.14319877],98,53,easy,minus,dotcolour,beta,,,7,18,V,R,
530,26,26,12,4,47,33,600,['c'],1,left,['8'],4,185,[0.11621138],93,47,medium,minus,dotcolour,beta,,,7,18,V,R,
531,27,27,12,4,36,44,650,['n'],1,right,['8'],4,136,[-0.07936252],76,44,hard,minus,dotcolour,beta,,,7,18,V,R,
532,28,28,12,4,53,27,733,['c'],1,left,['8'],4,150,[0.0725026],69,53,easy,minus,dotcolour,beta,,,7,18,V,R,
533,29,29,12,4,27,53,548,['n'],1,right,['8'],4,156,[-0.07762226],73,53,easy,minus,dotcolour,beta,,,7,18,V,R,
534,30,30,12,4,47,33,916,['c'],1,left,['0'],6,202,[0.10201888],87,47,medium,minus,dotcolour,beta,,,7,18,V,R,
535,31,31,12,4,33,47,931,['n'],1,right,['8'],4,238,[-0.13420483],95,47,medium,minus,dotcolour,beta,,,7,18,V,R,
536,32,32,12,4,27,53,567,['n'],1,right,['8'],4,134,[-0.09856488],89,53,easy,minus,dotcolour,beta,,,7,18,V,R,
537,33,33,12,4,53,27,582,['c'],1,left,['0'],6,251,[0.17882367],99,53,easy,minus,dotcolour,beta,,,7,18,V,R,
538,34,34,12,4,27,53,697,['n'],1,right,['0'],6,174,[-0.10045362],87,53,easy,minus,dotcolour,beta,,,7,18,V,R,
539,35,35,12,4,36,44,1132,['c'],0,right,['8'],4,139,[-0.01788083],3,44,hard,minus,dotcolour,beta,,,7,18,V,R,
540,36,36,12,4,53,27,731,['c'],1,left,['8'],4,169,[0.10533285],90,53,easy,minus,dotcolour,beta,,,7,18,V,R,
541,37,37,12,4,44,36,731,['c'],1,left,['8'],4,126,[0.03254236],24,44,hard,minus,dotcolour,beta,,,7,18,V,R,
542,38,38,12,4,47,33,700,['c'],1,left,['8'],4,1599,[0.35291212],99,47,medium,minus,dotcolour,beta,,,7,18,V,R,
543,39,39,12,4,36,44,567,['n'],1,right,['8'],4,328,[0.01426254],10,44,hard,minus,dotcolour,beta,,,7,18,V,R,
544,40,40,12,4,36,44,833,['n'],1,right,['8'],4,147,[-0.10772346],92,44,hard,minus,dotcolour,beta,,,7,18,V,R,
545,41,41,12,4,53,27,848,['c'],1,left,['8'],4,132,[0.09592595],88,53,easy,minus,dotcolour,beta,,,7,18,V,R,
546,42,0,13,4,47,33,601,['n'],0,left,['1'],1,932,[0.02953837],17,47,medium,minus,dotcolour,beta,,,7,18,V,R,
547,43,1,13,4,33,47,700,['n'],1,right,['8'],4,171,[-0.04572426],39,47,medium,minus,dotcolour,beta,,,7,18,V,R,
548,44,2,13,4,47,33,1183,['c'],1,left,['8'],4,134,[0.1089684],93,47,medium,minus,dotcolour,beta,,,7,18,V,R,
549,45,3,13,4,44,36,567,['c'],1,left,['8'],4,116,[0.12689842],98,44,hard,minus,dotcolour,beta,,,7,18,V,R,
550,46,4,13,4,47,33,583,['c'],1,left,['8'],4,185,[0.06966656],64,47,medium,minus,dotcolour,beta,,,7,18,V,R,
551,47,5,13,4,44,36,567,['c'],1,left,['8'],4,116,[0.06436763],61,44,hard,minus,dotcolour,beta,,,7,18,V,R,
552,48,6,13,4,27,53,600,['n'],1,right,['8'],4,105,[-0.06544858],63,53,easy,minus,dotcolour,beta,,,7,18,V,R,
553,49,7,13,4,44,36,634,['c'],1,left,['8'],4,84,[0.07701205],79,44,hard,minus,dotcolour,beta,,,7,18,V,R,
554,50,8,13,4,27,53,567,['n'],1,right,['8'],4,100,[-0.09307126],89,53,easy,minus,dotcolour,beta,,,7,18,V,R,
555,51,9,13,4,36,44,1100,['c'],0,right,['8'],4,101,[0.00576339],6,44,hard,minus,dotcolour,beta,,,7,18,V,R,
556,52,10,13,4,47,33,883,['c'],1,left,['8'],4,127,[0.11713909],96,47,medium,minus,dotcolour,beta,,,7,18,V,R,
557,53,11,13,4,53,27,815,['c'],1,left,['8'],4,186,[0.07361899],68,53,easy,minus,dotcolour,beta,,,7,18,V,R,
558,54,12,13,4,44,36,867,['c'],1,left,['8'],4,81,[0.10203326],95,44,hard,minus,dotcolour,beta,,,7,18,V,R,
559,55,13,13,4,47,33,699,['c'],1,left,['8'],4,75,[0.08706102],89,47,medium,minus,dotcolour,beta,,,7,18,V,R,
560,56,14,13,4,53,27,567,['c'],1,left,['8'],4,130,[0.10159974],91,53,easy,minus,dotcolour,beta,,,7,18,V,R,
561,57,15,13,4,53,27,1016,['c'],1,left,['8'],4,206,[0.01864346],19,53,easy,minus,dotcolour,beta,,,7,18,V,R,
562,58,16,13,4,27,53,532,['n'],1,right,['8'],4,234,[-0.09546389],82,53,easy,minus,dotcolour,beta,,,7,18,V,R,
563,59,17,13,4,27,53,600,['n'],1,right,['8'],4,162,[-0.17663682],100,53,easy,minus,dotcolour,beta,,,7,18,V,R,
564,60,18,13,4,33,47,816,['c'],0,right,['8'],4,164,[0.04512624],39,47,medium,minus,dotcolour,beta,,,7,18,V,R,
565,61,19,13,4,36,44,765,['n'],1,right,['8'],4,344,[-0.10213144],81,44,hard,minus,dotcolour,beta,,,7,18,V,R,
566,62,20,13,4,53,27,850,['c'],1,left,['8'],4,297,[0.03896269],37,53,easy,minus,dotcolour,beta,,,7,18,V,R,
567,63,21,13,4,33,47,1017,['n'],1,right,['8'],4,286,[-0.08001923],69,47,medium,minus,dotcolour,beta,,,7,18,V,R,
568,64,22,13,4,27,53,781,['n'],1,right,['8'],4,437,[-0.20212051],98,53,easy,minus,dotcolour,beta,,,7,18,V,R,
569,65,23,13,4,33,47,1067,['n'],1,right,['8'],4,417,[-0.06050848],53,47,medium,minus,dotcolour,beta,,,7,18,V,R,
570,66,24,13,4,27,53,650,['n'],1,right,['8'],4,239,[-0.10947225],88,53,easy,minus,dotcolour,beta,,,7,18,V,R,
571,67,25,13,4,36,44,1517,['c'],0,right,['8'],4,210,[0.09451238],82,44,hard,minus,dotcolour,beta,,,7,18,V,R,
572,68,26,13,4,36,44,747,['c'],0,right,['8'],4,252,[0.10395238],85,44,hard,minus,dotcolour,beta,,,7,18,V,R,
573,69,27,13,4,33,47,817,['c'],0,right,['8'],4,155,[-0.03734134],1,47,medium,minus,dotcolour,beta,,,7,18,V,R,
574,70,28,13,4,44,36,765,['c'],1,left,['0'],6,304,[0.13465264],93,44,hard,minus,dotcolour,beta,,,7,18,V,R,
575,71,29,13,4,33,47,684,['c'],0,right,['8'],4,538,[-0.02486408],12,47,medium,minus,dotcolour,beta,,,7,18,V,R,
576,72,30,13,4,44,36,1233,['n'],0,left,['8'],4,172,[-0.05502587],49,44,hard,minus,dotcolour,beta,,,7,18,V,R,
577,73,31,13,4,27,53,583,['n'],1,right,['8'],4,126,[-0.07323197],71,53,easy,minus,dotcolour,beta,,,7,18,V,R,
578,74,32,13,4,33,47,567,['n'],1,right,['8'],4,147,[-0.09210917],85,47,medium,minus,dotcolour,beta,,,7,18,V,R,
579,75,33,13,4,44,36,666,['n'],0,left,['8'],4,140,[-0.02717952],20,44,hard,minus,dotcolour,beta,,,7,18,V,R,
580,76,34,13,4,47,33,584,['c'],1,left,['8'],4,160,[0.09196281],84,47,medium,minus,dotcolour,beta,,,7,18,V,R,
581,77,35,13,4,53,27,1583,['c'],1,left,['8'],4,340,[0.15707814],96,53,easy,minus,dotcolour,beta,,,7,18,V,R,
582,78,36,13,4,53,27,731,['c'],1,left,['8'],4,194,[0.16259565],99,53,easy,minus,dotcolour,beta,,,7,18,V,R,
583,79,37,13,4,36,44,650,['n'],1,right,['8'],4,153,[-0.08916546],82,44,hard,minus,dotcolour,beta,,,7,18,V,R,
584,80,38,13,4,53,27,515,['c'],1,left,['8'],4,144,[0.08841281],83,53,easy,minus,dotcolour,beta,,,7,18,V,R,
585,81,39,13,4,47,33,631,['c'],1,left,['8'],4,113,[0.0907072],87,47,medium,minus,dotcolour,beta,,,7,18,V,R,
586,82,40,13,4,36,44,1315,['c'],0,right,['8'],4,466,[0.09361296],73,44,hard,minus,dotcolour,beta,,,7,18,V,R,
587,83,41,13,4,36,44,413,['c'],0,right,['8'],4,272,[0.10305578],84,44,hard,minus,dotcolour,beta,,,7,18,V,R,
588,84,0,14,4,47,33,734,['n'],0,left,['8'],4,228,[-0.0474602],42,47,medium,minus,dotcolour,beta,,,7,18,V,R,
589,85,1,14,4,53,27,716,['c'],1,left,['8'],4,703,[0.03613515],40,53,easy,minus,dotcolour,beta,,,7,18,V,R,
590,86,2,14,4,47,33,782,['n'],0,left,['8'],4,228,[-0.04453857],40,47,medium,minus,dotcolour,beta,,,7,18,V,R,
591,87,3,14,4,53,27,583,['c'],1,left,['8'],4,157,[0.12728903],96,53,easy,minus,dotcolour,beta,,,7,18,V,R,
592,88,4,14,4,27,53,583,['n'],1,right,['8'],4,160,[-0.09585829],86,53,easy,minus,dotcolour,beta,,,7,18,V,R,
593,89,5,14,4,33,47,583,['n'],1,right,['8'],4,276,[-0.06890301],61,47,medium,minus,dotcolour,beta,,,7,18,V,R,
594,90,6,14,4,44,36,933,['n'],0,left,['8'],4,228,[-0.04147088],37,44,hard,minus,dotcolour,beta,,,7,18,V,R,
595,91,7,14,4,36,44,633,['n'],1,right,['8'],4,443,[-0.03811401],38,44,hard,minus,dotcolour,beta,,,7,18,V,R,
596,92,8,14,4,53,27,800,['c'],1,left,['8'],4,178,[0.05221968],46,53,easy,minus,dotcolour,beta,,,7,18,V,R,
597,93,9,14,4,27,53,449,['n'],1,right,['8'],4,146,[-0.10509457],91,53,easy,minus,dotcolour,beta,,,7,18,V,R,
598,94,10,14,4,36,44,616,['n'],1,right,['8'],4,157,[-0.04637843],40,44,hard,minus,dotcolour,beta,,,7,18,V,R,
599,95,11,14,4,33,47,533,['n'],1,right,['9'],5,219,[-0.11398413],90,47,medium,minus,dotcolour,beta,,,7,18,V,R,
600,96,12,14,4,44,36,968,['c'],1,left,['9'],5,165,[0.05704862],52,44,hard,minus,dotcolour,beta,,,7,18,V,R,
601,97,13,14,4,27,53,550,['n'],1,right,['9'],5,145,[-0.11477148],94,53,easy,minus,dotcolour,beta,,,7,18,V,R,
602,98,14,14,4,36,44,649,['n'],1,right,['9'],5,131,[-0.03065925],22,44,hard,minus,dotcolour,beta,,,7,18,V,R,
603,99,15,14,4,44,36,799,['c'],1,left,['9'],5,175,[0.08941598],81,44,hard,minus,dotcolour,beta,,,7,18,V,R,
604,100,16,14,4,53,27,850,['c'],1,left,['9'],5,119,[0.09053373],86,53,easy,minus,dotcolour,beta,,,7,18,V,R,
605,101,17,14,4,44,36,597,['n'],0,left,['9'],5,171,[-0.03269427],27,44,hard,minus,dotcolour,beta,,,7,18,V,R,
606,102,18,14,4,53,27,533,['c'],1,left,['9'],5,225,[0.09712306],83,53,easy,minus,dotcolour,beta,,,7,18,V,R,
607,103,19,14,4,33,47,1214,['n'],1,right,['9'],5,288,[-0.06396829],57,47,medium,minus,dotcolour,beta,,,7,18,V,R,
608,104,20,14,4,47,33,865,['n'],0,left,['9'],5,187,[-0.01509114],16,47,medium,minus,dotcolour,beta,,,7,18,V,R,
609,105,21,14,4,36,44,616,['n'],1,right,['9'],5,189,[-0.10354237],88,44,hard,minus,dotcolour,beta,,,7,18,V,R,
610,106,22,14,4,47,33,550,['c'],1,left,['8'],4,289,[0.16862712],98,47,medium,minus,dotcolour,beta,,,7,18,V,R,
611,107,23,14,4,36,44,734,['n'],1,right,['8'],4,169,[-0.13914998],97,44,hard,minus,dotcolour,beta,,,7,18,V,R,
612,108,24,14,4,27,53,683,['n'],1,right,['8'],4,167,[-0.15888981],99,53,easy,minus,dotcolour,beta,,,7,18,V,R,
613,109,25,14,4,36,44,699,['n'],1,right,['8'],4,558,[-0.16247898],93,44,hard,minus,dotcolour,beta,,,7,18,V,R,
614,110,26,14,4,27,53,566,['n'],1,right,['8'],4,162,[-0.07694166],72,53,easy,minus,dotcolour,beta,,,7,18,V,R,
615,111,27,14,4,27,53,684,['n'],1,right,['8'],4,145,[-0.06877922],65,53,easy,minus,dotcolour,beta,,,7,18,V,R,
616,112,28,14,4,47,33,867,['c'],1,left,['8'],4,58,[0.09370085],95,47,medium,minus,dotcolour,beta,,,7,18,V,R,
617,113,29,14,4,53,27,447,['c'],1,left,['8'],4,7,[0.07509368],99,53,easy,minus,dotcolour,beta,,,7,18,V,R,
618,114,30,14,4,44,36,581,['c'],1,left,['8'],4,1,[0.07538137],100,44,hard,minus,dotcolour,beta,,,7,18,V,R,
619,115,31,14,4,33,47,816,['c'],0,right,['8'],4,738,[-0.07515739],6,47,medium,minus,dotcolour,beta,,,7,18,V,R,
620,116,32,14,4,33,47,1165,['n'],1,right,['8'],4,182,[-0.09295243],83,47,medium,minus,dotcolour,beta,,,7,18,V,R,
621,117,33,14,4,53,27,484,['c'],1,left,['8'],4,213,[0.07446155],68,53,easy,minus,dotcolour,beta,,,7,18,V,R,
622,118,34,14,4,27,53,397,['c'],0,right,['8'],4,110,[0.04124187],32,53,easy,minus,dotcolour,beta,,,7,18,V,R,
623,119,35,14,4,44,36,600,['c'],1,left,['3'],3,659,[0.06034974],53,44,hard,minus,dotcolour,beta,,,7,18,V,R,
624,120,36,14,4,47,33,916,['c'],1,left,['9'],5,180,[0.08821284],80,47,medium,minus,dotcolour,beta,,,7,18,V,R,
625,121,37,14,4,47,33,483,['c'],1,left,['9'],5,203,[0.07497991],68,47,medium,minus,dotcolour,beta,,,7,18,V,R,
626,122,38,14,4,33,47,1016,['n'],1,right,['8'],4,3187,[-0.29792453],92,47,medium,minus,dotcolour,beta,,,7,18,V,R,
627,123,39,14,4,33,47,600,['n'],1,right,['8'],4,516,[-0.08756752],69,47,medium,minus,dotcolour,beta,,,7,18,V,R,
628,124,40,14,4,36,44,784,['n'],1,right,['8'],4,449,[-0.10493544],79,44,hard,minus,dotcolour,beta,,,7,18,V,R,
629,125,41,14,4,44,36,981,['c'],1,left,['8'],4,209,[0.09224553],81,44,hard,minus,dotcolour,beta,,,7,18,V,R,
630,0,0,15,5,27,53,616,['n'],1,right,['8'],4,285,[-0.1303305],100,53,easy,plus,dotcolour,beta,,,7,18,V,R,
631,1,1,15,5,47,33,681,['n'],0,left,['8'],4,239,[-0.12120266],100,47,medium,plus,dotcolour,beta,,,7,18,V,R,
632,2,2,15,5,33,47,717,['n'],1,right,['8'],4,627,[-0.14219784],99,47,medium,plus,dotcolour,beta,,,7,18,V,R,
633,3,3,15,5,47,33,734,['n'],0,left,['8'],4,333,[-0.09201035],99,47,medium,plus,dotcolour,beta,,,7,18,V,R,
634,4,4,15,5,44,36,632,['c'],1,left,['8'],4,480,[0.17238577],100,44,hard,plus,dotcolour,beta,,,7,18,V,R,
635,5,5,15,5,27,53,517,['n'],1,right,['8'],4,337,[-0.20942005],100,53,easy,plus,dotcolour,beta,,,7,18,V,R,
636,6,6,15,5,47,33,596,['c'],1,left,['8'],4,245,[0.07252635],99,47,medium,plus,dotcolour,beta,,,7,18,V,R,
637,7,7,15,5,27,53,617,['n'],1,right,['9'],5,403,[-0.10477226],99,53,easy,plus,dotcolour,beta,,,7,18,V,R,
638,8,8,15,5,47,33,650,['c'],1,left,['9'],5,227,[0.07078327],99,47,medium,plus,dotcolour,beta,,,7,18,V,R,
639,9,9,15,5,53,27,733,['c'],1,left,['9'],5,205,[0.03679529],98,53,easy,plus,dotcolour,beta,,,7,18,V,R,
640,10,10,15,5,33,47,600,['n'],1,right,['9'],5,214,[-0.09537653],100,47,medium,plus,dotcolour,beta,,,7,18,V,R,
641,11,11,15,5,53,27,550,['c'],1,left,['9'],5,105,[0.09513075],100,53,easy,plus,dotcolour,beta,,,7,18,V,R,
642,12,12,15,5,33,47,1067,['n'],1,right,['8'],4,203,[-0.05470489],99,47,medium,plus,dotcolour,beta,,,7,18,V,R,
643,13,13,15,5,47,33,499,['c'],1,left,['8'],4,193,[-0.01077496],86,47,medium,plus,dotcolour,beta,,,7,18,V,R,
644,14,14,15,5,33,47,700,['c'],0,right,['8'],4,174,[0.04245159],99,47,medium,plus,dotcolour,beta,,,7,18,V,R,
645,15,15,15,5,36,44,783,['c'],0,right,['8'],4,25,[0.06689955],100,44,hard,plus,dotcolour,beta,,,7,18,V,R,
646,16,16,15,5,47,33,434,['c'],1,left,['8'],4,48,[0.04434068],100,47,medium,plus,dotcolour,beta,,,7,18,V,R,
647,17,17,15,5,44,36,567,['c'],1,left,['8'],4,81,[0.13204503],100,44,hard,plus,dotcolour,beta,,,7,18,V,R,
648,18,18,15,5,27,53,717,['n'],1,right,['8'],4,402,[-0.12688542],99,53,easy,plus,dotcolour,beta,,,7,18,V,R,
649,19,19,15,5,36,44,1200,['c'],0,right,['8'],4,91,[0.03503456],100,44,hard,plus,dotcolour,beta,,,7,18,V,R,
650,20,20,15,5,53,27,599,['c'],1,left,['8'],4,33,[0.04775538],100,53,easy,plus,dotcolour,beta,,,7,18,V,R,
651,21,21,15,5,33,47,784,['n'],1,right,['8'],4,161,[-0.08362607],100,47,medium,plus,dotcolour,beta,,,7,18,V,R,
652,22,22,15,5,47,33,1167,['c'],1,left,['8'],4,109,[0.02328221],99,47,medium,plus,dotcolour,beta,,,7,18,V,R,
653,23,23,15,5,36,44,633,['n'],1,right,['8'],4,297,[-0.10977293],100,44,hard,plus,dotcolour,beta,,,7,18,V,R,
654,24,24,15,5,36,44,733,['n'],1,right,['8'],4,241,[-0.10660512],100,44,hard,plus,dotcolour,beta,,,7,18,V,R,
655,25,25,15,5,53,27,549,['c'],1,left,['9'],5,186,[0.08785762],100,53,easy,plus,dotcolour,beta,,,7,18,V,R,
656,26,26,15,5,53,27,500,['c'],1,left,['9'],5,120,[0.09938996],100,53,easy,plus,dotcolour,beta,,,7,18,V,R,
657,27,27,15,5,27,53,681,['n'],1,right,['8'],4,97,[-0.12478435],100,53,easy,plus,dotcolour,beta,,,7,18,V,R,
658,28,28,15,5,33,47,666,['n'],1,right,['8'],4,156,[-0.13422501],100,47,medium,plus,dotcolour,beta,,,7,18,V,R,
659,29,29,15,5,27,53,850,['n'],1,right,['8'],4,133,[-0.10995577],100,53,easy,plus,dotcolour,beta,,,7,18,V,R,
660,30,30,15,5,53,27,733,['c'],1,left,['9'],5,132,[0.13723783],100,53,easy,plus,dotcolour,beta,,,7,18,V,R,
661,31,31,15,5,36,44,581,['c'],0,right,['0'],6,169,[0.07995508],100,44,hard,plus,dotcolour,beta,,,7,18,V,R,
662,32,32,15,5,53,27,515,['c'],1,left,['0'],6,134,[0.08561516],100,53,easy,plus,dotcolour,beta,,,7,18,V,R,
663,33,33,15,5,36,44,799,['n'],1,right,['0'],6,131,[-0.10073079],100,44,hard,plus,dotcolour,beta,,,7,18,V,R,
664,34,34,15,5,44,36,1399,['n'],0,left,['0'],6,295,[0.05456274],51,44,hard,plus,dotcolour,beta,,,7,18,V,R,
665,35,35,15,5,44,36,917,['n'],0,left,['8'],4,175,[-0.06949683],100,44,hard,plus,dotcolour,beta,,,7,18,V,R,
666,36,36,15,5,44,36,851,['c'],1,left,['8'],4,167,[0.0879691],100,44,hard,plus,dotcolour,beta,,,7,18,V,R,
667,37,37,15,5,36,44,1050,['n'],1,right,['8'],4,160,[-0.07862925],100,44,hard,plus,dotcolour,beta,,,7,18,V,R,
668,38,38,15,5,44,36,597,['n'],0,left,['8'],4,115,[-0.08919163],100,44,hard,plus,dotcolour,beta,,,7,18,V,R,
669,39,39,15,5,33,47,717,['n'],1,right,['8'],4,114,[-0.08275076],100,47,medium,plus,dotcolour,beta,,,7,18,V,R,
670,40,40,15,5,44,36,617,['c'],1,left,['8'],4,134,[0.16391644],100,44,hard,plus,dotcolour,beta,,,7,18,V,R,
671,41,41,15,5,27,53,600,['n'],1,right,['8'],4,130,[-0.0804668],100,53,easy,plus,dotcolour,beta,,,7,18,V,R,
672,42,0,16,5,44,36,467,['n'],0,left,['8'],4,455,[-0.03551162],92,44,hard,plus,dotcolour,beta,,,7,18,V,R,
673,43,1,16,5,53,27,966,['c'],1,left,['8'],4,135,[0.13105599],100,53,easy,plus,dotcolour,beta,,,7,18,V,R,
674,44,2,16,5,27,53,617,['n'],1,right,['8'],4,138,[-0.05696105],100,53,easy,plus,dotcolour,beta,,,7,18,V,R,
675,45,3,16,5,47,33,931,['c'],1,left,['8'],4,145,[0.10441267],100,47,medium,plus,dotcolour,beta,,,7,18,V,R,
676,46,4,16,5,33,47,584,['n'],1,right,['8'],4,197,[-0.11614828],100,47,medium,plus,dotcolour,beta,,,7,18,V,R,
677,47,5,16,5,53,27,1214,['c'],1,left,['8'],4,134,[0.0574819],100,53,easy,plus,dotcolour,beta,,,7,18,V,R,
678,48,6,16,5,53,27,684,['n'],0,left,['8'],4,150,[-0.06407833],100,53,easy,plus,dotcolour,beta,,,7,18,V,R,
679,49,7,16,5,47,33,700,['n'],0,left,['8'],4,182,[-0.08926742],100,47,medium,plus,dotcolour,beta,,,7,18,V,R,
680,50,8,16,5,36,44,700,['n'],1,right,['9'],5,252,[0.00866756],84,44,hard,plus,dotcolour,beta,,,7,18,V,R,
681,51,9,16,5,36,44,700,['c'],0,right,['8'],4,134,[0.1043975],100,44,hard,plus,dotcolour,beta,,,7,18,V,R,
682,52,10,16,5,44,36,450,['c'],1,left,['8'],4,96,[0.07958628],100,44,hard,plus,dotcolour,beta,,,7,18,V,R,
683,53,11,16,5,27,53,700,['n'],1,right,['8'],4,154,[-0.05468749],99,53,easy,plus,dotcolour,beta,,,7,18,V,R,
684,54,12,16,5,27,53,616,['n'],1,right,['8'],4,197,[-0.10283227],100,53,easy,plus,dotcolour,beta,,,7,18,V,R,
685,55,13,16,5,44,36,950,['n'],0,left,['8'],4,504,[-0.03135224],90,44,hard,plus,dotcolour,beta,,,7,18,V,R,
686,56,14,16,5,47,33,564,['c'],1,left,['8'],4,134,[0.13218661],100,47,medium,plus,dotcolour,beta,,,7,18,V,R,
687,57,15,16,5,33,47,496,['c'],0,right,['8'],4,78,[0.07940325],100,47,medium,plus,dotcolour,beta,,,7,18,V,R,
688,58,16,16,5,36,44,549,['n'],1,right,['8'],4,462,[-0.10160056],98,44,hard,plus,dotcolour,beta,,,7,18,V,R,
689,59,17,16,5,47,33,665,['n'],0,left,['8'],4,226,[0.009153],85,47,medium,plus,dotcolour,beta,,,7,18,V,R,
690,60,18,16,5,36,44,483,['n'],1,right,['8'],4,182,[-0.11252072],100,44,hard,plus,dotcolour,beta,,,7,18,V,R,
691,61,19,16,5,27,53,2049,['n'],1,right,['9'],5,246,[-0.13014287],100,53,easy,plus,dotcolour,beta,,,7,18,V,R,
692,62,20,16,5,36,44,568,['n'],1,right,['9'],5,383,[-0.05119158],96,44,hard,plus,dotcolour,beta,,,7,18,V,R,
693,63,21,16,5,44,36,582,['c'],1,left,['9'],5,210,[0.02726409],96,44,hard,plus,dotcolour,beta,,,7,18,V,R,
694,64,22,16,5,36,44,781,['c'],0,right,['9'],5,155,[0.02248063],97,44,hard,plus,dotcolour,beta,,,7,18,V,R,
695,65,23,16,5,44,36,600,['c'],1,left,['9'],5,142,[0.0405188],99,44,hard,plus,dotcolour,beta,,,7,18,V,R,
696,66,24,16,5,47,33,434,['c'],1,left,['9'],5,24,[0.08120456],100,47,medium,plus,dotcolour,beta,,,7,18,V,R,
697,67,25,16,5,53,27,499,['c'],1,left,['9'],5,29,[0.06833478],100,53,easy,plus,dotcolour,beta,,,7,18,V,R,
698,68,26,16,5,47,33,400,['c'],1,left,['9'],5,37,[0.09038968],100,47,medium,plus,dotcolour,beta,,,7,18,V,R,
699,69,27,16,5,53,27,400,['c'],1,left,['9'],5,44,[0.06224548],100,53,easy,plus,dotcolour,beta,,,7,18,V,R,
700,70,28,16,5,44,36,467,['c'],1,left,['0'],6,97,[0.05699078],100,44,hard,plus,dotcolour,beta,,,7,18,V,R,
701,71,29,16,5,27,53,633,['n'],1,right,['0'],6,125,[-0.10997019],100,53,easy,plus,dotcolour,beta,,,7,18,V,R,
702,72,30,16,5,33,47,683,['n'],1,right,['0'],6,94,[-0.02562481],99,47,medium,plus,dotcolour,beta,,,7,18,V,R,
703,73,31,16,5,33,47,650,['n'],1,right,['0'],6,105,[-0.12321933],100,47,medium,plus,dotcolour,beta,,,7,18,V,R,
704,74,32,16,5,44,36,650,['n'],0,left,['3'],3,949,[-0.10019992],95,44,hard,plus,dotcolour,beta,,,7,18,V,R,
705,75,33,16,5,47,33,500,['c'],1,left,['8'],4,91,[0.09299923],100,47,medium,plus,dotcolour,beta,,,7,18,V,R,
706,76,34,16,5,27,53,650,['n'],1,right,['8'],4,38,[-0.04682111],100,53,easy,plus,dotcolour,beta,,,7,18,V,R,
707,77,35,16,5,33,47,867,['c'],0,right,['9'],5,227,[0.04576262],98,47,medium,plus,dotcolour,beta,,,7,18,V,R,
708,78,36,16,5,33,47,551,['n'],1,right,['9'],5,189,[-0.0555745],99,47,medium,plus,dotcolour,beta,,,7,18,V,R,
709,79,37,16,5,36,44,600,['n'],1,right,['9'],5,166,[-0.06978705],100,44,hard,plus,dotcolour,beta,,,7,18,V,R,
710,80,38,16,5,33,47,715,['n'],1,right,['9'],5,140,[-0.08695843],100,47,medium,plus,dotcolour,beta,,,7,18,V,R,
711,81,39,16,5,27,53,649,['n'],1,right,['9'],5,142,[-0.13719287],100,53,easy,plus,dotcolour,beta,,,7,18,V,R,
712,82,40,16,5,53,27,1366,['c'],1,left,['8'],4,186,[0.08629035],100,53,easy,plus,dotcolour,beta,,,7,18,V,R,
713,83,41,16,5,53,27,967,['c'],1,left,['8'],4,78,[0.03080504],100,53,easy,plus,dotcolour,beta,,,7,18,V,R,
714,84,0,17,5,44,36,600,['c'],1,left,['8'],4,183,[0.14108489],100,44,hard,plus,dotcolour,beta,,,7,18,V,R,
715,85,1,17,5,53,27,450,['c'],1,left,['9'],5,103,[0.06365768],100,53,easy,plus,dotcolour,beta,,,7,18,V,R,
716,86,2,17,5,36,44,381,['c'],0,right,['9'],5,52,[0.08497317],100,44,hard,plus,dotcolour,beta,,,7,18,V,R,
717,87,3,17,5,53,27,350,['c'],1,left,['9'],5,639,[0.19103409],100,53,easy,plus,dotcolour,beta,,,7,18,V,R,
718,88,4,17,5,36,44,466,['c'],0,right,['9'],5,155,[0.0647476],100,44,hard,plus,dotcolour,beta,,,7,18,V,R,
719,89,5,17,5,27,53,883,['n'],1,right,['9'],5,178,[-0.08659954],100,53,easy,plus,dotcolour,beta,,,7,18,V,R,
720,90,6,17,5,33,47,566,['n'],1,right,['9'],5,174,[-0.06393187],99,47,medium,plus,dotcolour,beta,,,7,18,V,R,
721,91,7,17,5,36,44,332,['n'],1,right,['9'],5,202,[-0.17596621],100,44,hard,plus,dotcolour,beta,,,7,18,V,R,
722,92,8,17,5,36,44,733,['n'],1,right,['8'],4,182,[-0.14881042],100,44,hard,plus,dotcolour,beta,,,7,18,V,R,
723,93,9,17,5,33,47,616,['n'],1,right,['8'],4,159,[-0.07740545],100,47,medium,plus,dotcolour,beta,,,7,18,V,R,
724,94,10,17,5,33,47,517,['n'],1,right,['8'],4,837,[-0.15683258],98,47,medium,plus,dotcolour,beta,,,7,18,V,R,
725,95,11,17,5,27,53,514,['n'],1,right,['8'],4,136,[-0.09688274],100,53,easy,plus,dotcolour,beta,,,7,18,V,R,
726,96,12,17,5,36,44,715,['n'],1,right,['8'],4,191,[-0.07719895],100,44,hard,plus,dotcolour,beta,,,7,18,V,R,
727,97,13,17,5,36,44,549,['n'],1,right,['8'],4,210,[-0.05391377],99,44,hard,plus,dotcolour,beta,,,7,18,V,R,
728,98,14,17,5,44,36,497,['c'],1,left,['8'],4,279,[0.09546367],99,44,hard,plus,dotcolour,beta,,,7,18,V,R,
729,99,15,17,5,47,33,599,['c'],1,left,['8'],4,189,[0.11067181],100,47,medium,plus,dotcolour,beta,,,7,18,V,R,
730,100,16,17,5,44,36,416,['c'],1,left,['9'],5,334,[0.04454884],96,44,hard,plus,dotcolour,beta,,,7,18,V,R,
731,101,17,17,5,36,44,481,['c'],0,right,['3'],3,862,[0.23523119],100,44,hard,plus,dotcolour,beta,,,7,18,V,R,
732,102,18,17,5,27,53,764,['n'],1,right,['8'],4,222,[-0.0429603],98,53,easy,plus,dotcolour,beta,,,7,18,V,R,
733,103,19,17,5,33,47,449,['n'],1,right,['9'],5,164,[-0.13843478],100,47,medium,plus,dotcolour,beta,,,7,18,V,R,
734,104,20,17,5,44,36,766,['c'],1,left,['9'],5,168,[0.21462755],100,44,hard,plus,dotcolour,beta,,,7,18,V,R,
735,105,21,17,5,53,27,566,['c'],1,left,['9'],5,140,[0.11729632],100,53,easy,plus,dotcolour,beta,,,7,18,V,R,
736,106,22,17,5,33,47,400,['c'],0,right,['9'],5,160,[0.0802534],100,47,medium,plus,dotcolour,beta,,,7,18,V,R,
737,107,23,17,5,47,33,384,['c'],1,left,['9'],5,67,[0.08624884],100,47,medium,plus,dotcolour,beta,,,7,18,V,R,
738,108,24,17,5,27,53,783,['n'],1,right,['8'],4,130,[-0.08314711],100,53,easy,plus,dotcolour,beta,,,7,18,V,R,
739,109,25,17,5,53,27,550,['n'],0,left,['3'],3,664,[0.06025348],47,53,easy,plus,dotcolour,beta,,,7,18,V,R,
740,110,26,17,5,53,27,933,['c'],1,left,['8'],4,169,[0.05872777],99,53,easy,plus,dotcolour,beta,,,7,18,V,R,
741,111,27,17,5,33,47,533,['n'],1,right,['8'],4,126,[-0.05873631],100,47,medium,plus,dotcolour,beta,,,7,18,V,R,
742,112,28,17,5,33,47,398,['c'],0,right,['8'],4,194,[0.03212264],97,47,medium,plus,dotcolour,beta,,,7,18,V,R,
743,113,29,17,5,53,27,700,['c'],1,left,['8'],4,183,[0.09891108],100,53,easy,plus,dotcolour,beta,,,7,18,V,R,
744,114,30,17,5,27,53,618,['n'],1,right,['8'],4,176,[-0.08943925],100,53,easy,plus,dotcolour,beta,,,7,18,V,R,
745,115,31,17,5,44,36,833,['c'],1,left,['8'],4,201,[0.0559327],99,44,hard,plus,dotcolour,beta,,,7,18,V,R,
746,116,32,17,5,53,27,681,['c'],1,left,['8'],4,159,[0.11555653],100,53,easy,plus,dotcolour,beta,,,7,18,V,R,
747,117,33,17,5,44,36,1030,['c'],1,left,['8'],4,144,[0.07938436],100,44,hard,plus,dotcolour,beta,,,7,18,V,R,
748,118,34,17,5,27,53,831,['n'],1,right,['8'],4,114,[-0.14907571],100,53,easy,plus,dotcolour,beta,,,7,18,V,R,
749,119,35,17,5,44,36,1033,['c'],1,left,['8'],4,430,[0.02469312],90,44,hard,plus,dotcolour,beta,,,7,18,V,R,
750,120,36,17,5,27,53,750,['c'],0,right,['8'],4,320,[0.00386848],87,53,easy,plus,dotcolour,beta,,,7,18,V,R,
751,121,37,17,5,47,33,667,['n'],0,left,['8'],4,257,[0.02115535],77,47,medium,plus,dotcolour,beta,,,7,18,V,R,
752,122,38,17,5,47,33,650,['c'],1,left,['8'],4,158,[0.13885956],100,47,medium,plus,dotcolour,beta,,,7,18,V,R,
753,123,39,17,5,47,33,567,['c'],1,left,['8'],4,193,[0.10555553],100,47,medium,plus,dotcolour,beta,,,7,18,V,R,
754,124,40,17,5,47,33,1199,['c'],1,left,['8'],4,443,[0.05502926],95,47,medium,plus,dotcolour,beta,,,7,18,V,R,
755,125,41,17,5,47,33,649,['c'],1,left,['8'],4,208,[0.02360269],96,47,medium,plus,dotcolour,beta,,,7,18,V,R,
,,,,,,,,,,,,,,,,,,,,,1,"in bepaalde rondes is de computeer minder streng, dan ben ik precies altijd bij
na 100 procent juist ",7,18,V,R,
,,,,,,,,,,,,,,,,,,,,,2,['d'],7,18,V,R,
,,,,,,,,,,,,,,,,,,,,,3,['d'],7,18,V,R,
,,,,,,,,,,,,,,,,,,,,,5,[],7,18,V,R,
